Created as New Dataset,Sample 858 By YargerLab Date Monday, July 21 2025
cm-1,A
4000.00,0.0200
3999.00,0.0199
3998.00,0.0199
3997.00,0.0199
3996.00,0.0199
3995.00,0.0200
3994.00,0.0200
3993.00,0.0200
3992.00,0.0200
3991.00,0.0199
3990.00,0.0199
3989.00,0.0199
3988.00,0.0199
3987.00,0.0199
3986.00,0.0199
3985.00,0.0199
3984.00,0.0199
3983.00,0.0199
3982.00,0.0199
3981.00,0.0199
3980.00,0.0199
3979.00,0.0199
3978.00,0.0199
3977.00,0.0198
3976.00,0.0198
3975.00,0.0198
3974.00,0.0198
3973.00,0.0199
3972.00,0.0199
3971.00,0.0199
3970.00,0.0199
3969.00,0.0199
3968.00,0.0199
3967.00,0.0199
3966.00,0.0199
3965.00,0.0199
3964.00,0.0199
3963.00,0.0199
3962.00,0.0199
3961.00,0.0199
3960.00,0.0199
3959.00,0.0199
3958.00,0.0199
3957.00,0.0199
3956.00,0.0199
3955.00,0.0199
3954.00,0.0198
3953.00,0.0198
3952.00,0.0198
3951.00,0.0198
3950.00,0.0198
3949.00,0.0198
3948.00,0.0198
3947.00,0.0197
3946.00,0.0197
3945.00,0.0197
3944.00,0.0197
3943.00,0.0197
3942.00,0.0198
3941.00,0.0197
3940.00,0.0197
3939.00,0.0197
3938.00,0.0196
3937.00,0.0196
3936.00,0.0196
3935.00,0.0196
3934.00,0.0196
3933.00,0.0196
3932.00,0.0196
3931.00,0.0197
3930.00,0.0197
3929.00,0.0197
3928.00,0.0197
3927.00,0.0197
3926.00,0.0197
3925.00,0.0198
3924.00,0.0198
3923.00,0.0198
3922.00,0.0197
3921.00,0.0197
3920.00,0.0197
3919.00,0.0196
3918.00,0.0196
3917.00,0.0196
3916.00,0.0196
3915.00,0.0196
3914.00,0.0196
3913.00,0.0196
3912.00,0.0196
3911.00,0.0196
3910.00,0.0196
3909.00,0.0196
3908.00,0.0195
3907.00,0.0195
3906.00,0.0194
3905.00,0.0194
3904.00,0.0193
3903.00,0.0192
3902.00,0.0192
3901.00,0.0192
3900.00,0.0192
3899.00,0.0193
3898.00,0.0193
3897.00,0.0192
3896.00,0.0192
3895.00,0.0192
3894.00,0.0192
3893.00,0.0192
3892.00,0.0192
3891.00,0.0192
3890.00,0.0192
3889.00,0.0191
3888.00,0.0190
3887.00,0.0190
3886.00,0.0190
3885.00,0.0190
3884.00,0.0190
3883.00,0.0190
3882.00,0.0190
3881.00,0.0190
3880.00,0.0191
3879.00,0.0191
3878.00,0.0191
3877.00,0.0190
3876.00,0.0190
3875.00,0.0190
3874.00,0.0190
3873.00,0.0189
3872.00,0.0189
3871.00,0.0188
3870.00,0.0188
3869.00,0.0188
3868.00,0.0188
3867.00,0.0187
3866.00,0.0187
3865.00,0.0187
3864.00,0.0188
3863.00,0.0188
3862.00,0.0188
3861.00,0.0188
3860.00,0.0187
3859.00,0.0187
3858.00,0.0188
3857.00,0.0188
3856.00,0.0187
3855.00,0.0187
3854.00,0.0186
3853.00,0.0186
3852.00,0.0186
3851.00,0.0186
3850.00,0.0186
3849.00,0.0186
3848.00,0.0187
3847.00,0.0187
3846.00,0.0187
3845.00,0.0187
3844.00,0.0187
3843.00,0.0187
3842.00,0.0187
3841.00,0.0186
3840.00,0.0186
3839.00,0.0186
3838.00,0.0185
3837.00,0.0185
3836.00,0.0186
3835.00,0.0186
3834.00,0.0186
3833.00,0.0186
3832.00,0.0185
3831.00,0.0185
3830.00,0.0185
3829.00,0.0185
3828.00,0.0185
3827.00,0.0185
3826.00,0.0185
3825.00,0.0185
3824.00,0.0184
3823.00,0.0184
3822.00,0.0183
3821.00,0.0184
3820.00,0.0184
3819.00,0.0183
3818.00,0.0183
3817.00,0.0183
3816.00,0.0183
3815.00,0.0184
3814.00,0.0184
3813.00,0.0185
3812.00,0.0184
3811.00,0.0184
3810.00,0.0184
3809.00,0.0184
3808.00,0.0184
3807.00,0.0183
3806.00,0.0183
3805.00,0.0183
3804.00,0.0182
3803.00,0.0181
3802.00,0.0181
3801.00,0.0181
3800.00,0.0182
3799.00,0.0182
3798.00,0.0182
3797.00,0.0182
3796.00,0.0182
3795.00,0.0182
3794.00,0.0183
3793.00,0.0183
3792.00,0.0183
3791.00,0.0183
3790.00,0.0183
3789.00,0.0183
3788.00,0.0183
3787.00,0.0183
3786.00,0.0183
3785.00,0.0183
3784.00,0.0183
3783.00,0.0183
3782.00,0.0182
3781.00,0.0182
3780.00,0.0182
3779.00,0.0182
3778.00,0.0182
3777.00,0.0182
3776.00,0.0182
3775.00,0.0182
3774.00,0.0182
3773.00,0.0182
3772.00,0.0181
3771.00,0.0181
3770.00,0.0181
3769.00,0.0181
3768.00,0.0181
3767.00,0.0181
3766.00,0.0180
3765.00,0.0180
3764.00,0.0180
3763.00,0.0180
3762.00,0.0180
3761.00,0.0179
3760.00,0.0179
3759.00,0.0179
3758.00,0.0179
3757.00,0.0178
3756.00,0.0178
3755.00,0.0177
3754.00,0.0176
3753.00,0.0176
3752.00,0.0175
3751.00,0.0174
3750.00,0.0173
3749.00,0.0173
3748.00,0.0173
3747.00,0.0173
3746.00,0.0173
3745.00,0.0173
3744.00,0.0174
3743.00,0.0174
3742.00,0.0174
3741.00,0.0174
3740.00,0.0174
3739.00,0.0174
3738.00,0.0173
3737.00,0.0173
3736.00,0.0173
3735.00,0.0172
3734.00,0.0172
3733.00,0.0172
3732.00,0.0172
3731.00,0.0173
3730.00,0.0173
3729.00,0.0174
3728.00,0.0174
3727.00,0.0174
3726.00,0.0174
3725.00,0.0174
3724.00,0.0174
3723.00,0.0174
3722.00,0.0174
3721.00,0.0174
3720.00,0.0174
3719.00,0.0174
3718.00,0.0174
3717.00,0.0174
3716.00,0.0174
3715.00,0.0174
3714.00,0.0173
3713.00,0.0173
3712.00,0.0173
3711.00,0.0173
3710.00,0.0172
3709.00,0.0172
3708.00,0.0172
3707.00,0.0172
3706.00,0.0172
3705.00,0.0172
3704.00,0.0173
3703.00,0.0173
3702.00,0.0173
3701.00,0.0174
3700.00,0.0174
3699.00,0.0173
3698.00,0.0173
3697.00,0.0173
3696.00,0.0173
3695.00,0.0173
3694.00,0.0172
3693.00,0.0172
3692.00,0.0172
3691.00,0.0171
3690.00,0.0171
3689.00,0.0171
3688.00,0.0171
3687.00,0.0171
3686.00,0.0171
3685.00,0.0171
3684.00,0.0172
3683.00,0.0172
3682.00,0.0172
3681.00,0.0173
3680.00,0.0173
3679.00,0.0173
3678.00,0.0172
3677.00,0.0171
3676.00,0.0171
3675.00,0.0170
3674.00,0.0170
3673.00,0.0169
3672.00,0.0169
3671.00,0.0169
3670.00,0.0170
3669.00,0.0170
3668.00,0.0171
3667.00,0.0171
3666.00,0.0172
3665.00,0.0172
3664.00,0.0173
3663.00,0.0173
3662.00,0.0173
3661.00,0.0173
3660.00,0.0173
3659.00,0.0173
3658.00,0.0172
3657.00,0.0171
3656.00,0.0171
3655.00,0.0170
3654.00,0.0170
3653.00,0.0170
3652.00,0.0169
3651.00,0.0169
3650.00,0.0168
3649.00,0.0168
3648.00,0.0168
3647.00,0.0168
3646.00,0.0168
3645.00,0.0169
3644.00,0.0169
3643.00,0.0170
3642.00,0.0170
3641.00,0.0170
3640.00,0.0170
3639.00,0.0171
3638.00,0.0171
3637.00,0.0171
3636.00,0.0171
3635.00,0.0171
3634.00,0.0170
3633.00,0.0170
3632.00,0.0170
3631.00,0.0169
3630.00,0.0169
3629.00,0.0169
3628.00,0.0169
3627.00,0.0169
3626.00,0.0169
3625.00,0.0169
3624.00,0.0169
3623.00,0.0170
3622.00,0.0170
3621.00,0.0171
3620.00,0.0171
3619.00,0.0171
3618.00,0.0170
3617.00,0.0170
3616.00,0.0170
3615.00,0.0170
3614.00,0.0170
3613.00,0.0170
3612.00,0.0170
3611.00,0.0170
3610.00,0.0171
3609.00,0.0171
3608.00,0.0172
3607.00,0.0172
3606.00,0.0173
3605.00,0.0173
3604.00,0.0173
3603.00,0.0173
3602.00,0.0173
3601.00,0.0174
3600.00,0.0174
3599.00,0.0174
3598.00,0.0174
3597.00,0.0174
3596.00,0.0174
3595.00,0.0175
3594.00,0.0175
3593.00,0.0175
3592.00,0.0175
3591.00,0.0175
3590.00,0.0175
3589.00,0.0175
3588.00,0.0175
3587.00,0.0176
3586.00,0.0177
3585.00,0.0177
3584.00,0.0177
3583.00,0.0178
3582.00,0.0178
3581.00,0.0179
3580.00,0.0179
3579.00,0.0180
3578.00,0.0180
3577.00,0.0181
3576.00,0.0182
3575.00,0.0182
3574.00,0.0182
3573.00,0.0183
3572.00,0.0183
3571.00,0.0184
3570.00,0.0184
3569.00,0.0184
3568.00,0.0184
3567.00,0.0185
3566.00,0.0186
3565.00,0.0187
3564.00,0.0188
3563.00,0.0189
3562.00,0.0190
3561.00,0.0191
3560.00,0.0193
3559.00,0.0194
3558.00,0.0195
3557.00,0.0196
3556.00,0.0197
3555.00,0.0199
3554.00,0.0200
3553.00,0.0202
3552.00,0.0204
3551.00,0.0205
3550.00,0.0207
3549.00,0.0208
3548.00,0.0211
3547.00,0.0213
3546.00,0.0217
3545.00,0.0221
3544.00,0.0225
3543.00,0.0229
3542.00,0.0233
3541.00,0.0237
3540.00,0.0242
3539.00,0.0247
3538.00,0.0254
3537.00,0.0261
3536.00,0.0269
3535.00,0.0278
3534.00,0.0289
3533.00,0.0301
3532.00,0.0315
3531.00,0.0332
3530.00,0.0352
3529.00,0.0375
3528.00,0.0401
3527.00,0.0429
3526.00,0.0457
3525.00,0.0485
3524.00,0.0511
3523.00,0.0534
3522.00,0.0552
3521.00,0.0564
3520.00,0.0570
3519.00,0.0570
3518.00,0.0565
3517.00,0.0555
3516.00,0.0542
3515.00,0.0526
3514.00,0.0507
3513.00,0.0488
3512.00,0.0468
3511.00,0.0450
3510.00,0.0432
3509.00,0.0417
3508.00,0.0403
3507.00,0.0390
3506.00,0.0380
3505.00,0.0371
3504.00,0.0363
3503.00,0.0358
3502.00,0.0353
3501.00,0.0349
3500.00,0.0346
3499.00,0.0343
3498.00,0.0342
3497.00,0.0341
3496.00,0.0340
3495.00,0.0341
3494.00,0.0341
3493.00,0.0342
3492.00,0.0343
3491.00,0.0344
3490.00,0.0345
3489.00,0.0347
3488.00,0.0349
3487.00,0.0351
3486.00,0.0353
3485.00,0.0355
3484.00,0.0358
3483.00,0.0361
3482.00,0.0364
3481.00,0.0368
3480.00,0.0372
3479.00,0.0375
3478.00,0.0379
3477.00,0.0383
3476.00,0.0387
3475.00,0.0391
3474.00,0.0396
3473.00,0.0402
3472.00,0.0407
3471.00,0.0412
3470.00,0.0418
3469.00,0.0424
3468.00,0.0429
3467.00,0.0435
3466.00,0.0440
3465.00,0.0446
3464.00,0.0452
3463.00,0.0458
3462.00,0.0464
3461.00,0.0471
3460.00,0.0477
3459.00,0.0483
3458.00,0.0490
3457.00,0.0496
3456.00,0.0502
3455.00,0.0508
3454.00,0.0514
3453.00,0.0520
3452.00,0.0526
3451.00,0.0531
3450.00,0.0536
3449.00,0.0542
3448.00,0.0548
3447.00,0.0554
3446.00,0.0561
3445.00,0.0566
3444.00,0.0572
3443.00,0.0577
3442.00,0.0583
3441.00,0.0589
3440.00,0.0594
3439.00,0.0600
3438.00,0.0606
3437.00,0.0612
3436.00,0.0617
3435.00,0.0622
3434.00,0.0627
3433.00,0.0632
3432.00,0.0637
3431.00,0.0642
3430.00,0.0648
3429.00,0.0653
3428.00,0.0659
3427.00,0.0664
3426.00,0.0670
3425.00,0.0676
3424.00,0.0682
3423.00,0.0689
3422.00,0.0697
3421.00,0.0706
3420.00,0.0716
3419.00,0.0726
3418.00,0.0735
3417.00,0.0745
3416.00,0.0755
3415.00,0.0765
3414.00,0.0774
3413.00,0.0783
3412.00,0.0790
3411.00,0.0796
3410.00,0.0801
3409.00,0.0804
3408.00,0.0805
3407.00,0.0803
3406.00,0.0800
3405.00,0.0794
3404.00,0.0787
3403.00,0.0777
3402.00,0.0765
3401.00,0.0750
3400.00,0.0734
3399.00,0.0716
3398.00,0.0697
3397.00,0.0678
3396.00,0.0659
3395.00,0.0641
3394.00,0.0623
3393.00,0.0605
3392.00,0.0589
3391.00,0.0573
3390.00,0.0557
3389.00,0.0543
3388.00,0.0529
3387.00,0.0516
3386.00,0.0504
3385.00,0.0493
3384.00,0.0483
3383.00,0.0473
3382.00,0.0465
3381.00,0.0456
3380.00,0.0448
3379.00,0.0441
3378.00,0.0433
3377.00,0.0426
3376.00,0.0419
3375.00,0.0413
3374.00,0.0407
3373.00,0.0401
3372.00,0.0396
3371.00,0.0391
3370.00,0.0385
3369.00,0.0380
3368.00,0.0375
3367.00,0.0370
3366.00,0.0366
3365.00,0.0361
3364.00,0.0357
3363.00,0.0353
3362.00,0.0349
3361.00,0.0345
3360.00,0.0341
3359.00,0.0337
3358.00,0.0334
3357.00,0.0330
3356.00,0.0327
3355.00,0.0323
3354.00,0.0320
3353.00,0.0317
3352.00,0.0314
3351.00,0.0312
3350.00,0.0309
3349.00,0.0307
3348.00,0.0304
3347.00,0.0302
3346.00,0.0300
3345.00,0.0297
3344.00,0.0295
3343.00,0.0293
3342.00,0.0290
3341.00,0.0288
3340.00,0.0286
3339.00,0.0284
3338.00,0.0282
3337.00,0.0280
3336.00,0.0279
3335.00,0.0277
3334.00,0.0275
3333.00,0.0274
3332.00,0.0272
3331.00,0.0270
3330.00,0.0269
3329.00,0.0267
3328.00,0.0266
3327.00,0.0264
3326.00,0.0263
3325.00,0.0262
3324.00,0.0260
3323.00,0.0259
3322.00,0.0258
3321.00,0.0257
3320.00,0.0256
3319.00,0.0255
3318.00,0.0253
3317.00,0.0252
3316.00,0.0251
3315.00,0.0249
3314.00,0.0248
3313.00,0.0247
3312.00,0.0246
3311.00,0.0245
3310.00,0.0244
3309.00,0.0243
3308.00,0.0242
3307.00,0.0241
3306.00,0.0240
3305.00,0.0239
3304.00,0.0238
3303.00,0.0238
3302.00,0.0237
3301.00,0.0236
3300.00,0.0234
3299.00,0.0233
3298.00,0.0233
3297.00,0.0232
3296.00,0.0231
3295.00,0.0230
3294.00,0.0229
3293.00,0.0229
3292.00,0.0228
3291.00,0.0227
3290.00,0.0227
3289.00,0.0226
3288.00,0.0225
3287.00,0.0224
3286.00,0.0223
3285.00,0.0222
3284.00,0.0221
3283.00,0.0221
3282.00,0.0220
3281.00,0.0219
3280.00,0.0219
3279.00,0.0218
3278.00,0.0217
3277.00,0.0217
3276.00,0.0216
3275.00,0.0215
3274.00,0.0215
3273.00,0.0214
3272.00,0.0214
3271.00,0.0213
3270.00,0.0213
3269.00,0.0213
3268.00,0.0213
3267.00,0.0213
3266.00,0.0213
3265.00,0.0213
3264.00,0.0212
3263.00,0.0212
3262.00,0.0212
3261.00,0.0211
3260.00,0.0211
3259.00,0.0210
3258.00,0.0209
3257.00,0.0209
3256.00,0.0209
3255.00,0.0208
3254.00,0.0209
3253.00,0.0208
3252.00,0.0208
3251.00,0.0208
3250.00,0.0207
3249.00,0.0206
3248.00,0.0206
3247.00,0.0206
3246.00,0.0206
3245.00,0.0206
3244.00,0.0206
3243.00,0.0205
3242.00,0.0205
3241.00,0.0204
3240.00,0.0204
3239.00,0.0203
3238.00,0.0202
3237.00,0.0201
3236.00,0.0200
3235.00,0.0200
3234.00,0.0200
3233.00,0.0200
3232.00,0.0200
3231.00,0.0199
3230.00,0.0199
3229.00,0.0198
3228.00,0.0198
3227.00,0.0197
3226.00,0.0197
3225.00,0.0197
3224.00,0.0196
3223.00,0.0196
3222.00,0.0196
3221.00,0.0196
3220.00,0.0196
3219.00,0.0196
3218.00,0.0195
3217.00,0.0195
3216.00,0.0195
3215.00,0.0194
3214.00,0.0194
3213.00,0.0194
3212.00,0.0194
3211.00,0.0194
3210.00,0.0194
3209.00,0.0193
3208.00,0.0193
3207.00,0.0193
3206.00,0.0193
3205.00,0.0193
3204.00,0.0192
3203.00,0.0192
3202.00,0.0192
3201.00,0.0191
3200.00,0.0191
3199.00,0.0191
3198.00,0.0190
3197.00,0.0190
3196.00,0.0190
3195.00,0.0189
3194.00,0.0189
3193.00,0.0189
3192.00,0.0189
3191.00,0.0189
3190.00,0.0188
3189.00,0.0188
3188.00,0.0188
3187.00,0.0188
3186.00,0.0188
3185.00,0.0187
3184.00,0.0187
3183.00,0.0187
3182.00,0.0187
3181.00,0.0187
3180.00,0.0187
3179.00,0.0187
3178.00,0.0187
3177.00,0.0187
3176.00,0.0187
3175.00,0.0187
3174.00,0.0187
3173.00,0.0187
3172.00,0.0187
3171.00,0.0187
3170.00,0.0187
3169.00,0.0187
3168.00,0.0187
3167.00,0.0187
3166.00,0.0187
3165.00,0.0187
3164.00,0.0186
3163.00,0.0186
3162.00,0.0186
3161.00,0.0186
3160.00,0.0186
3159.00,0.0185
3158.00,0.0184
3157.00,0.0184
3156.00,0.0183
3155.00,0.0182
3154.00,0.0182
3153.00,0.0181
3152.00,0.0181
3151.00,0.0181
3150.00,0.0181
3149.00,0.0180
3148.00,0.0180
3147.00,0.0180
3146.00,0.0180
3145.00,0.0180
3144.00,0.0179
3143.00,0.0179
3142.00,0.0178
3141.00,0.0178
3140.00,0.0177
3139.00,0.0177
3138.00,0.0177
3137.00,0.0177
3136.00,0.0176
3135.00,0.0176
3134.00,0.0176
3133.00,0.0176
3132.00,0.0176
3131.00,0.0176
3130.00,0.0176
3129.00,0.0175
3128.00,0.0175
3127.00,0.0175
3126.00,0.0174
3125.00,0.0174
3124.00,0.0174
3123.00,0.0174
3122.00,0.0174
3121.00,0.0174
3120.00,0.0174
3119.00,0.0174
3118.00,0.0174
3117.00,0.0173
3116.00,0.0173
3115.00,0.0173
3114.00,0.0172
3113.00,0.0172
3112.00,0.0172
3111.00,0.0172
3110.00,0.0172
3109.00,0.0172
3108.00,0.0171
3107.00,0.0171
3106.00,0.0170
3105.00,0.0170
3104.00,0.0170
3103.00,0.0171
3102.00,0.0171
3101.00,0.0172
3100.00,0.0172
3099.00,0.0172
3098.00,0.0172
3097.00,0.0172
3096.00,0.0172
3095.00,0.0172
3094.00,0.0172
3093.00,0.0173
3092.00,0.0173
3091.00,0.0174
3090.00,0.0174
3089.00,0.0175
3088.00,0.0176
3087.00,0.0177
3086.00,0.0179
3085.00,0.0181
3084.00,0.0185
3083.00,0.0189
3082.00,0.0195
3081.00,0.0203
3080.00,0.0213
3079.00,0.0224
3078.00,0.0235
3077.00,0.0245
3076.00,0.0252
3075.00,0.0254
3074.00,0.0252
3073.00,0.0245
3072.00,0.0235
3071.00,0.0224
3070.00,0.0214
3069.00,0.0205
3068.00,0.0198
3067.00,0.0193
3066.00,0.0188
3065.00,0.0185
3064.00,0.0182
3063.00,0.0180
3062.00,0.0179
3061.00,0.0177
3060.00,0.0176
3059.00,0.0175
3058.00,0.0174
3057.00,0.0173
3056.00,0.0173
3055.00,0.0172
3054.00,0.0172
3053.00,0.0172
3052.00,0.0172
3051.00,0.0173
3050.00,0.0173
3049.00,0.0174
3048.00,0.0175
3047.00,0.0176
3046.00,0.0177
3045.00,0.0179
3044.00,0.0180
3043.00,0.0181
3042.00,0.0182
3041.00,0.0183
3040.00,0.0184
3039.00,0.0185
3038.00,0.0187
3037.00,0.0189
3036.00,0.0190
3035.00,0.0192
3034.00,0.0193
3033.00,0.0193
3032.00,0.0193
3031.00,0.0192
3030.00,0.0191
3029.00,0.0189
3028.00,0.0187
3027.00,0.0185
3026.00,0.0183
3025.00,0.0182
3024.00,0.0181
3023.00,0.0180
3022.00,0.0180
3021.00,0.0180
3020.00,0.0180
3019.00,0.0180
3018.00,0.0180
3017.00,0.0181
3016.00,0.0182
3015.00,0.0183
3014.00,0.0185
3013.00,0.0186
3012.00,0.0188
3011.00,0.0189
3010.00,0.0191
3009.00,0.0192
3008.00,0.0194
3007.00,0.0196
3006.00,0.0198
3005.00,0.0200
3004.00,0.0202
3003.00,0.0204
3002.00,0.0206
3001.00,0.0209
3000.00,0.0212
2999.00,0.0215
2998.00,0.0218
2997.00,0.0220
2996.00,0.0223
2995.00,0.0226
2994.00,0.0230
2993.00,0.0234
2992.00,0.0239
2991.00,0.0243
2990.00,0.0248
2989.00,0.0252
2988.00,0.0256
2987.00,0.0259
2986.00,0.0263
2985.00,0.0268
2984.00,0.0274
2983.00,0.0282
2982.00,0.0290
2981.00,0.0298
2980.00,0.0307
2979.00,0.0318
2978.00,0.0330
2977.00,0.0344
2976.00,0.0360
2975.00,0.0379
2974.00,0.0400
2973.00,0.0423
2972.00,0.0446
2971.00,0.0469
2970.00,0.0492
2969.00,0.0512
2968.00,0.0529
2967.00,0.0543
2966.00,0.0552
2965.00,0.0557
2964.00,0.0558
2963.00,0.0557
2962.00,0.0554
2961.00,0.0549
2960.00,0.0543
2959.00,0.0534
2958.00,0.0524
2957.00,0.0513
2956.00,0.0501
2955.00,0.0491
2954.00,0.0481
2953.00,0.0473
2952.00,0.0467
2951.00,0.0464
2950.00,0.0465
2949.00,0.0471
2948.00,0.0481
2947.00,0.0495
2946.00,0.0513
2945.00,0.0532
2944.00,0.0552
2943.00,0.0571
2942.00,0.0589
2941.00,0.0605
2940.00,0.0622
2939.00,0.0639
2938.00,0.0658
2937.00,0.0678
2936.00,0.0700
2935.00,0.0724
2934.00,0.0748
2933.00,0.0773
2932.00,0.0798
2931.00,0.0823
2930.00,0.0847
2929.00,0.0870
2928.00,0.0890
2927.00,0.0907
2926.00,0.0918
2925.00,0.0924
2924.00,0.0924
2923.00,0.0920
2922.00,0.0913
2921.00,0.0905
2920.00,0.0898
2919.00,0.0891
2918.00,0.0885
2917.00,0.0877
2916.00,0.0868
2915.00,0.0856
2914.00,0.0841
2913.00,0.0823
2912.00,0.0801
2911.00,0.0778
2910.00,0.0754
2909.00,0.0730
2908.00,0.0706
2907.00,0.0684
2906.00,0.0664
2905.00,0.0647
2904.00,0.0631
2903.00,0.0618
2902.00,0.0605
2901.00,0.0593
2900.00,0.0581
2899.00,0.0569
2898.00,0.0555
2897.00,0.0540
2896.00,0.0526
2895.00,0.0512
2894.00,0.0499
2893.00,0.0488
2892.00,0.0478
2891.00,0.0471
2890.00,0.0464
2889.00,0.0460
2888.00,0.0456
2887.00,0.0452
2886.00,0.0450
2885.00,0.0448
2884.00,0.0447
2883.00,0.0447
2882.00,0.0447
2881.00,0.0448
2880.00,0.0450
2879.00,0.0454
2878.00,0.0458
2877.00,0.0464
2876.00,0.0470
2875.00,0.0477
2874.00,0.0483
2873.00,0.0488
2872.00,0.0491
2871.00,0.0491
2870.00,0.0488
2869.00,0.0483
2868.00,0.0479
2867.00,0.0477
2866.00,0.0478
2865.00,0.0484
2864.00,0.0495
2863.00,0.0514
2862.00,0.0538
2861.00,0.0569
2860.00,0.0603
2859.00,0.0639
2858.00,0.0671
2857.00,0.0694
2856.00,0.0704
2855.00,0.0698
2854.00,0.0678
2853.00,0.0647
2852.00,0.0610
2851.00,0.0570
2850.00,0.0532
2849.00,0.0495
2848.00,0.0462
2847.00,0.0432
2846.00,0.0405
2845.00,0.0382
2844.00,0.0362
2843.00,0.0346
2842.00,0.0333
2841.00,0.0323
2840.00,0.0316
2839.00,0.0312
2838.00,0.0310
2837.00,0.0312
2836.00,0.0319
2835.00,0.0330
2834.00,0.0345
2833.00,0.0364
2832.00,0.0384
2831.00,0.0401
2830.00,0.0411
2829.00,0.0410
2828.00,0.0399
2827.00,0.0379
2826.00,0.0354
2825.00,0.0329
2824.00,0.0305
2823.00,0.0285
2822.00,0.0269
2821.00,0.0256
2820.00,0.0245
2819.00,0.0236
2818.00,0.0229
2817.00,0.0224
2816.00,0.0219
2815.00,0.0215
2814.00,0.0211
2813.00,0.0208
2812.00,0.0205
2811.00,0.0202
2810.00,0.0200
2809.00,0.0198
2808.00,0.0196
2807.00,0.0194
2806.00,0.0192
2805.00,0.0190
2804.00,0.0188
2803.00,0.0187
2802.00,0.0185
2801.00,0.0183
2800.00,0.0182
2799.00,0.0180
2798.00,0.0179
2797.00,0.0178
2796.00,0.0176
2795.00,0.0175
2794.00,0.0174
2793.00,0.0173
2792.00,0.0172
2791.00,0.0171
2790.00,0.0170
2789.00,0.0169
2788.00,0.0169
2787.00,0.0168
2786.00,0.0167
2785.00,0.0166
2784.00,0.0165
2783.00,0.0164
2782.00,0.0163
2781.00,0.0162
2780.00,0.0161
2779.00,0.0160
2778.00,0.0160
2777.00,0.0160
2776.00,0.0159
2775.00,0.0159
2774.00,0.0158
2773.00,0.0157
2772.00,0.0157
2771.00,0.0156
2770.00,0.0156
2769.00,0.0155
2768.00,0.0155
2767.00,0.0154
2766.00,0.0154
2765.00,0.0153
2764.00,0.0153
2763.00,0.0153
2762.00,0.0152
2761.00,0.0152
2760.00,0.0151
2759.00,0.0151
2758.00,0.0150
2757.00,0.0150
2756.00,0.0150
2755.00,0.0150
2754.00,0.0150
2753.00,0.0150
2752.00,0.0150
2751.00,0.0150
2750.00,0.0150
2749.00,0.0150
2748.00,0.0150
2747.00,0.0150
2746.00,0.0150
2745.00,0.0150
2744.00,0.0151
2743.00,0.0151
2742.00,0.0152
2741.00,0.0152
2740.00,0.0153
2739.00,0.0153
2738.00,0.0154
2737.00,0.0155
2736.00,0.0156
2735.00,0.0158
2734.00,0.0159
2733.00,0.0160
2732.00,0.0162
2731.00,0.0163
2730.00,0.0165
2729.00,0.0165
2728.00,0.0165
2727.00,0.0164
2726.00,0.0163
2725.00,0.0161
2724.00,0.0159
2723.00,0.0157
2722.00,0.0155
2721.00,0.0154
2720.00,0.0152
2719.00,0.0151
2718.00,0.0150
2717.00,0.0149
2716.00,0.0148
2715.00,0.0147
2714.00,0.0147
2713.00,0.0146
2712.00,0.0146
2711.00,0.0145
2710.00,0.0144
2709.00,0.0144
2708.00,0.0143
2707.00,0.0143
2706.00,0.0143
2705.00,0.0142
2704.00,0.0142
2703.00,0.0142
2702.00,0.0141
2701.00,0.0141
2700.00,0.0141
2699.00,0.0140
2698.00,0.0140
2697.00,0.0140
2696.00,0.0140
2695.00,0.0140
2694.00,0.0140
2693.00,0.0140
2692.00,0.0140
2691.00,0.0140
2690.00,0.0140
2689.00,0.0140
2688.00,0.0141
2687.00,0.0141
2686.00,0.0141
2685.00,0.0141
2684.00,0.0141
2683.00,0.0141
2682.00,0.0141
2681.00,0.0142
2680.00,0.0142
2679.00,0.0143
2678.00,0.0143
2677.00,0.0143
2676.00,0.0144
2675.00,0.0144
2674.00,0.0144
2673.00,0.0144
2672.00,0.0144
2671.00,0.0145
2670.00,0.0145
2669.00,0.0145
2668.00,0.0145
2667.00,0.0145
2666.00,0.0146
2665.00,0.0146
2664.00,0.0146
2663.00,0.0146
2662.00,0.0147
2661.00,0.0147
2660.00,0.0147
2659.00,0.0147
2658.00,0.0146
2657.00,0.0146
2656.00,0.0146
2655.00,0.0145
2654.00,0.0145
2653.00,0.0145
2652.00,0.0144
2651.00,0.0144
2650.00,0.0143
2649.00,0.0143
2648.00,0.0143
2647.00,0.0142
2646.00,0.0142
2645.00,0.0141
2644.00,0.0141
2643.00,0.0140
2642.00,0.0140
2641.00,0.0139
2640.00,0.0139
2639.00,0.0139
2638.00,0.0138
2637.00,0.0138
2636.00,0.0138
2635.00,0.0138
2634.00,0.0138
2633.00,0.0138
2632.00,0.0138
2631.00,0.0138
2630.00,0.0138
2629.00,0.0137
2628.00,0.0137
2627.00,0.0137
2626.00,0.0137
2625.00,0.0137
2624.00,0.0136
2623.00,0.0136
2622.00,0.0135
2621.00,0.0135
2620.00,0.0135
2619.00,0.0135
2618.00,0.0134
2617.00,0.0134
2616.00,0.0134
2615.00,0.0134
2614.00,0.0134
2613.00,0.0133
2612.00,0.0133
2611.00,0.0133
2610.00,0.0133
2609.00,0.0133
2608.00,0.0132
2607.00,0.0132
2606.00,0.0132
2605.00,0.0132
2604.00,0.0131
2603.00,0.0131
2602.00,0.0131
2601.00,0.0130
2600.00,0.0130
2599.00,0.0130
2598.00,0.0130
2597.00,0.0129
2596.00,0.0129
2595.00,0.0129
2594.00,0.0129
2593.00,0.0129
2592.00,0.0129
2591.00,0.0129
2590.00,0.0129
2589.00,0.0129
2588.00,0.0128
2587.00,0.0128
2586.00,0.0128
2585.00,0.0127
2584.00,0.0127
2583.00,0.0127
2582.00,0.0127
2581.00,0.0127
2580.00,0.0127
2579.00,0.0127
2578.00,0.0126
2577.00,0.0126
2576.00,0.0126
2575.00,0.0126
2574.00,0.0126
2573.00,0.0126
2572.00,0.0126
2571.00,0.0126
2570.00,0.0126
2569.00,0.0126
2568.00,0.0125
2567.00,0.0125
2566.00,0.0125
2565.00,0.0124
2564.00,0.0124
2563.00,0.0124
2562.00,0.0124
2561.00,0.0124
2560.00,0.0124
2559.00,0.0124
2558.00,0.0124
2557.00,0.0123
2556.00,0.0123
2555.00,0.0123
2554.00,0.0123
2553.00,0.0122
2552.00,0.0122
2551.00,0.0122
2550.00,0.0121
2549.00,0.0121
2548.00,0.0120
2547.00,0.0120
2546.00,0.0120
2545.00,0.0120
2544.00,0.0120
2543.00,0.0120
2542.00,0.0120
2541.00,0.0120
2540.00,0.0120
2539.00,0.0120
2538.00,0.0120
2537.00,0.0120
2536.00,0.0119
2535.00,0.0119
2534.00,0.0119
2533.00,0.0119
2532.00,0.0119
2531.00,0.0119
2530.00,0.0119
2529.00,0.0119
2528.00,0.0118
2527.00,0.0118
2526.00,0.0118
2525.00,0.0118
2524.00,0.0118
2523.00,0.0118
2522.00,0.0118
2521.00,0.0118
2520.00,0.0118
2519.00,0.0118
2518.00,0.0118
2517.00,0.0117
2516.00,0.0117
2515.00,0.0117
2514.00,0.0117
2513.00,0.0116
2512.00,0.0116
2511.00,0.0116
2510.00,0.0116
2509.00,0.0116
2508.00,0.0116
2507.00,0.0116
2506.00,0.0116
2505.00,0.0116
2504.00,0.0115
2503.00,0.0115
2502.00,0.0115
2501.00,0.0115
2500.00,0.0115
2499.00,0.0115
2498.00,0.0115
2497.00,0.0116
2496.00,0.0116
2495.00,0.0115
2494.00,0.0115
2493.00,0.0115
2492.00,0.0115
2491.00,0.0114
2490.00,0.0114
2489.00,0.0114
2488.00,0.0114
2487.00,0.0114
2486.00,0.0114
2485.00,0.0115
2484.00,0.0115
2483.00,0.0116
2482.00,0.0116
2481.00,0.0116
2480.00,0.0116
2479.00,0.0115
2478.00,0.0115
2477.00,0.0115
2476.00,0.0115
2475.00,0.0115
2474.00,0.0115
2473.00,0.0115
2472.00,0.0115
2471.00,0.0115
2470.00,0.0115
2469.00,0.0115
2468.00,0.0115
2467.00,0.0115
2466.00,0.0115
2465.00,0.0115
2464.00,0.0115
2463.00,0.0115
2462.00,0.0115
2461.00,0.0116
2460.00,0.0116
2459.00,0.0117
2458.00,0.0117
2457.00,0.0117
2456.00,0.0117
2455.00,0.0117
2454.00,0.0117
2453.00,0.0116
2452.00,0.0116
2451.00,0.0116
2450.00,0.0116
2449.00,0.0115
2448.00,0.0115
2447.00,0.0114
2446.00,0.0113
2445.00,0.0113
2444.00,0.0112
2443.00,0.0111
2442.00,0.0110
2441.00,0.0109
2440.00,0.0109
2439.00,0.0108
2438.00,0.0108
2437.00,0.0108
2436.00,0.0107
2435.00,0.0107
2434.00,0.0106
2433.00,0.0106
2432.00,0.0106
2431.00,0.0105
2430.00,0.0105
2429.00,0.0105
2428.00,0.0104
2427.00,0.0104
2426.00,0.0104
2425.00,0.0103
2424.00,0.0103
2423.00,0.0103
2422.00,0.0103
2421.00,0.0103
2420.00,0.0102
2419.00,0.0102
2418.00,0.0101
2417.00,0.0101
2416.00,0.0101
2415.00,0.0101
2414.00,0.0101
2413.00,0.0101
2412.00,0.0101
2411.00,0.0101
2410.00,0.0100
2409.00,0.0100
2408.00,0.0099
2407.00,0.0099
2406.00,0.0098
2405.00,0.0098
2404.00,0.0098
2403.00,0.0098
2402.00,0.0098
2401.00,0.0098
2400.00,0.0098
2399.00,0.0098
2398.00,0.0097
2397.00,0.0097
2396.00,0.0097
2395.00,0.0097
2394.00,0.0097
2393.00,0.0097
2392.00,0.0097
2391.00,0.0097
2390.00,0.0097
2389.00,0.0097
2388.00,0.0097
2387.00,0.0097
2386.00,0.0096
2385.00,0.0096
2384.00,0.0095
2383.00,0.0094
2382.00,0.0094
2381.00,0.0093
2380.00,0.0093
2379.00,0.0093
2378.00,0.0093
2377.00,0.0093
2376.00,0.0092
2375.00,0.0092
2374.00,0.0092
2373.00,0.0092
2372.00,0.0092
2371.00,0.0091
2370.00,0.0090
2369.00,0.0090
2368.00,0.0090
2367.00,0.0090
2366.00,0.0091
2365.00,0.0091
2364.00,0.0091
2363.00,0.0091
2362.00,0.0091
2361.00,0.0091
2360.00,0.0091
2359.00,0.0091
2358.00,0.0091
2357.00,0.0091
2356.00,0.0091
2355.00,0.0091
2354.00,0.0091
2353.00,0.0091
2352.00,0.0091
2351.00,0.0090
2350.00,0.0090
2349.00,0.0091
2348.00,0.0093
2347.00,0.0096
2346.00,0.0097
2345.00,0.0097
2344.00,0.0095
2343.00,0.0094
2342.00,0.0093
2341.00,0.0093
2340.00,0.0094
2339.00,0.0094
2338.00,0.0094
2337.00,0.0094
2336.00,0.0094
2335.00,0.0094
2334.00,0.0093
2333.00,0.0093
2332.00,0.0093
2331.00,0.0092
2330.00,0.0093
2329.00,0.0095
2328.00,0.0099
2327.00,0.0104
2326.00,0.0108
2325.00,0.0109
2324.00,0.0107
2323.00,0.0104
2322.00,0.0101
2321.00,0.0099
2320.00,0.0098
2319.00,0.0097
2318.00,0.0096
2317.00,0.0096
2316.00,0.0096
2315.00,0.0095
2314.00,0.0095
2313.00,0.0094
2312.00,0.0094
2311.00,0.0093
2310.00,0.0093
2309.00,0.0092
2308.00,0.0092
2307.00,0.0092
2306.00,0.0092
2305.00,0.0092
2304.00,0.0092
2303.00,0.0092
2302.00,0.0093
2301.00,0.0093
2300.00,0.0094
2299.00,0.0094
2298.00,0.0095
2297.00,0.0096
2296.00,0.0096
2295.00,0.0097
2294.00,0.0098
2293.00,0.0099
2292.00,0.0100
2291.00,0.0101
2290.00,0.0102
2289.00,0.0103
2288.00,0.0104
2287.00,0.0103
2286.00,0.0103
2285.00,0.0102
2284.00,0.0100
2283.00,0.0099
2282.00,0.0098
2281.00,0.0098
2280.00,0.0098
2279.00,0.0097
2278.00,0.0097
2277.00,0.0096
2276.00,0.0095
2275.00,0.0095
2274.00,0.0094
2273.00,0.0094
2272.00,0.0094
2271.00,0.0094
2270.00,0.0093
2269.00,0.0092
2268.00,0.0092
2267.00,0.0091
2266.00,0.0091
2265.00,0.0090
2264.00,0.0090
2263.00,0.0090
2262.00,0.0091
2261.00,0.0092
2260.00,0.0092
2259.00,0.0093
2258.00,0.0092
2257.00,0.0091
2256.00,0.0089
2255.00,0.0087
2254.00,0.0087
2253.00,0.0087
2252.00,0.0088
2251.00,0.0088
2250.00,0.0088
2249.00,0.0089
2248.00,0.0089
2247.00,0.0089
2246.00,0.0089
2245.00,0.0089
2244.00,0.0089
2243.00,0.0089
2242.00,0.0088
2241.00,0.0088
2240.00,0.0088
2239.00,0.0088
2238.00,0.0088
2237.00,0.0088
2236.00,0.0088
2235.00,0.0087
2234.00,0.0087
2233.00,0.0087
2232.00,0.0087
2231.00,0.0087
2230.00,0.0087
2229.00,0.0086
2228.00,0.0086
2227.00,0.0085
2226.00,0.0085
2225.00,0.0085
2224.00,0.0085
2223.00,0.0085
2222.00,0.0085
2221.00,0.0085
2220.00,0.0085
2219.00,0.0085
2218.00,0.0084
2217.00,0.0084
2216.00,0.0084
2215.00,0.0084
2214.00,0.0084
2213.00,0.0083
2212.00,0.0083
2211.00,0.0083
2210.00,0.0082
2209.00,0.0082
2208.00,0.0082
2207.00,0.0082
2206.00,0.0082
2205.00,0.0082
2204.00,0.0083
2203.00,0.0083
2202.00,0.0083
2201.00,0.0083
2200.00,0.0083
2199.00,0.0083
2198.00,0.0084
2197.00,0.0085
2196.00,0.0086
2195.00,0.0086
2194.00,0.0086
2193.00,0.0086
2192.00,0.0085
2191.00,0.0085
2190.00,0.0084
2189.00,0.0084
2188.00,0.0084
2187.00,0.0083
2186.00,0.0083
2185.00,0.0082
2184.00,0.0079
2183.00,0.0076
2182.00,0.0075
2181.00,0.0075
2180.00,0.0077
2179.00,0.0078
2178.00,0.0077
2177.00,0.0076
2176.00,0.0076
2175.00,0.0076
2174.00,0.0078
2173.00,0.0080
2172.00,0.0083
2171.00,0.0086
2170.00,0.0088
2169.00,0.0090
2168.00,0.0090
2167.00,0.0090
2166.00,0.0090
2165.00,0.0091
2164.00,0.0093
2163.00,0.0093
2162.00,0.0085
2161.00,0.0069
2160.00,0.0050
2159.00,0.0035
2158.00,0.0030
2157.00,0.0032
2156.00,0.0038
2155.00,0.0042
2154.00,0.0045
2153.00,0.0048
2152.00,0.0050
2151.00,0.0052
2150.00,0.0052
2149.00,0.0053
2148.00,0.0055
2147.00,0.0056
2146.00,0.0056
2145.00,0.0056
2144.00,0.0056
2143.00,0.0056
2142.00,0.0057
2141.00,0.0058
2140.00,0.0059
2139.00,0.0058
2138.00,0.0056
2137.00,0.0053
2136.00,0.0051
2135.00,0.0050
2134.00,0.0050
2133.00,0.0051
2132.00,0.0054
2131.00,0.0056
2130.00,0.0058
2129.00,0.0060
2128.00,0.0062
2127.00,0.0063
2126.00,0.0065
2125.00,0.0066
2124.00,0.0067
2123.00,0.0068
2122.00,0.0069
2121.00,0.0070
2120.00,0.0071
2119.00,0.0072
2118.00,0.0074
2117.00,0.0076
2116.00,0.0077
2115.00,0.0077
2114.00,0.0076
2113.00,0.0076
2112.00,0.0076
2111.00,0.0076
2110.00,0.0076
2109.00,0.0076
2108.00,0.0075
2107.00,0.0075
2106.00,0.0074
2105.00,0.0074
2104.00,0.0074
2103.00,0.0073
2102.00,0.0073
2101.00,0.0073
2100.00,0.0072
2099.00,0.0072
2098.00,0.0071
2097.00,0.0070
2096.00,0.0068
2095.00,0.0068
2094.00,0.0068
2093.00,0.0069
2092.00,0.0071
2091.00,0.0072
2090.00,0.0073
2089.00,0.0074
2088.00,0.0075
2087.00,0.0076
2086.00,0.0076
2085.00,0.0076
2084.00,0.0077
2083.00,0.0077
2082.00,0.0077
2081.00,0.0077
2080.00,0.0077
2079.00,0.0076
2078.00,0.0076
2077.00,0.0074
2076.00,0.0074
2075.00,0.0073
2074.00,0.0073
2073.00,0.0073
2072.00,0.0072
2071.00,0.0071
2070.00,0.0070
2069.00,0.0069
2068.00,0.0068
2067.00,0.0068
2066.00,0.0069
2065.00,0.0069
2064.00,0.0069
2063.00,0.0068
2062.00,0.0067
2061.00,0.0066
2060.00,0.0066
2059.00,0.0067
2058.00,0.0068
2057.00,0.0068
2056.00,0.0068
2055.00,0.0070
2054.00,0.0074
2053.00,0.0080
2052.00,0.0084
2051.00,0.0084
2050.00,0.0079
2049.00,0.0073
2048.00,0.0068
2047.00,0.0066
2046.00,0.0064
2045.00,0.0063
2044.00,0.0064
2043.00,0.0064
2042.00,0.0064
2041.00,0.0064
2040.00,0.0064
2039.00,0.0063
2038.00,0.0062
2037.00,0.0060
2036.00,0.0059
2035.00,0.0057
2034.00,0.0055
2033.00,0.0054
2032.00,0.0055
2031.00,0.0055
2030.00,0.0055
2029.00,0.0054
2028.00,0.0054
2027.00,0.0054
2026.00,0.0054
2025.00,0.0056
2024.00,0.0058
2023.00,0.0060
2022.00,0.0060
2021.00,0.0059
2020.00,0.0057
2019.00,0.0055
2018.00,0.0054
2017.00,0.0054
2016.00,0.0055
2015.00,0.0056
2014.00,0.0057
2013.00,0.0059
2012.00,0.0061
2011.00,0.0061
2010.00,0.0058
2009.00,0.0055
2008.00,0.0051
2007.00,0.0048
2006.00,0.0046
2005.00,0.0048
2004.00,0.0050
2003.00,0.0052
2002.00,0.0053
2001.00,0.0054
2000.00,0.0055
1999.00,0.0056
1998.00,0.0057
1997.00,0.0058
1996.00,0.0059
1995.00,0.0061
1994.00,0.0062
1993.00,0.0063
1992.00,0.0065
1991.00,0.0065
1990.00,0.0066
1989.00,0.0068
1988.00,0.0070
1987.00,0.0071
1986.00,0.0072
1985.00,0.0073
1984.00,0.0075
1983.00,0.0078
1982.00,0.0081
1981.00,0.0082
1980.00,0.0078
1979.00,0.0069
1978.00,0.0059
1977.00,0.0053
1976.00,0.0051
1975.00,0.0051
1974.00,0.0051
1973.00,0.0053
1972.00,0.0055
1971.00,0.0056
1970.00,0.0056
1969.00,0.0055
1968.00,0.0055
1967.00,0.0054
1966.00,0.0053
1965.00,0.0053
1964.00,0.0052
1963.00,0.0051
1962.00,0.0050
1961.00,0.0050
1960.00,0.0050
1959.00,0.0050
1958.00,0.0051
1957.00,0.0052
1956.00,0.0055
1955.00,0.0056
1954.00,0.0056
1953.00,0.0057
1952.00,0.0057
1951.00,0.0058
1950.00,0.0058
1949.00,0.0059
1948.00,0.0060
1947.00,0.0059
1946.00,0.0058
1945.00,0.0058
1944.00,0.0058
1943.00,0.0059
1942.00,0.0059
1941.00,0.0059
1940.00,0.0060
1939.00,0.0060
1938.00,0.0060
1937.00,0.0060
1936.00,0.0060
1935.00,0.0060
1934.00,0.0059
1933.00,0.0059
1932.00,0.0059
1931.00,0.0059
1930.00,0.0059
1929.00,0.0060
1928.00,0.0060
1927.00,0.0061
1926.00,0.0061
1925.00,0.0061
1924.00,0.0062
1923.00,0.0063
1922.00,0.0064
1921.00,0.0065
1920.00,0.0065
1919.00,0.0064
1918.00,0.0063
1917.00,0.0064
1916.00,0.0064
1915.00,0.0065
1914.00,0.0066
1913.00,0.0066
1912.00,0.0067
1911.00,0.0067
1910.00,0.0067
1909.00,0.0067
1908.00,0.0068
1907.00,0.0068
1906.00,0.0068
1905.00,0.0068
1904.00,0.0068
1903.00,0.0068
1902.00,0.0068
1901.00,0.0068
1900.00,0.0069
1899.00,0.0069
1898.00,0.0069
1897.00,0.0069
1896.00,0.0069
1895.00,0.0069
1894.00,0.0069
1893.00,0.0069
1892.00,0.0069
1891.00,0.0069
1890.00,0.0069
1889.00,0.0069
1888.00,0.0069
1887.00,0.0069
1886.00,0.0069
1885.00,0.0069
1884.00,0.0070
1883.00,0.0070
1882.00,0.0070
1881.00,0.0070
1880.00,0.0071
1879.00,0.0070
1878.00,0.0070
1877.00,0.0070
1876.00,0.0070
1875.00,0.0070
1874.00,0.0070
1873.00,0.0070
1872.00,0.0071
1871.00,0.0071
1870.00,0.0071
1869.00,0.0070
1868.00,0.0070
1867.00,0.0070
1866.00,0.0070
1865.00,0.0070
1864.00,0.0070
1863.00,0.0070
1862.00,0.0070
1861.00,0.0070
1860.00,0.0070
1859.00,0.0070
1858.00,0.0070
1857.00,0.0070
1856.00,0.0071
1855.00,0.0071
1854.00,0.0071
1853.00,0.0071
1852.00,0.0071
1851.00,0.0071
1850.00,0.0071
1849.00,0.0071
1848.00,0.0072
1847.00,0.0073
1846.00,0.0073
1845.00,0.0073
1844.00,0.0072
1843.00,0.0071
1842.00,0.0071
1841.00,0.0071
1840.00,0.0071
1839.00,0.0071
1838.00,0.0071
1837.00,0.0072
1836.00,0.0072
1835.00,0.0072
1834.00,0.0073
1833.00,0.0073
1832.00,0.0074
1831.00,0.0075
1830.00,0.0075
1829.00,0.0075
1828.00,0.0075
1827.00,0.0076
1826.00,0.0076
1825.00,0.0076
1824.00,0.0076
1823.00,0.0076
1822.00,0.0075
1821.00,0.0075
1820.00,0.0074
1819.00,0.0073
1818.00,0.0072
1817.00,0.0072
1816.00,0.0073
1815.00,0.0074
1814.00,0.0075
1813.00,0.0076
1812.00,0.0078
1811.00,0.0079
1810.00,0.0080
1809.00,0.0081
1808.00,0.0082
1807.00,0.0083
1806.00,0.0083
1805.00,0.0084
1804.00,0.0085
1803.00,0.0086
1802.00,0.0086
1801.00,0.0085
1800.00,0.0086
1799.00,0.0085
1798.00,0.0085
1797.00,0.0085
1796.00,0.0084
1795.00,0.0084
1794.00,0.0082
1793.00,0.0081
1792.00,0.0080
1791.00,0.0080
1790.00,0.0080
1789.00,0.0080
1788.00,0.0081
1787.00,0.0081
1786.00,0.0081
1785.00,0.0081
1784.00,0.0082
1783.00,0.0082
1782.00,0.0083
1781.00,0.0083
1780.00,0.0084
1779.00,0.0084
1778.00,0.0085
1777.00,0.0085
1776.00,0.0087
1775.00,0.0089
1774.00,0.0091
1773.00,0.0092
1772.00,0.0092
1771.00,0.0092
1770.00,0.0092
1769.00,0.0090
1768.00,0.0089
1767.00,0.0087
1766.00,0.0086
1765.00,0.0086
1764.00,0.0085
1763.00,0.0085
1762.00,0.0084
1761.00,0.0084
1760.00,0.0084
1759.00,0.0084
1758.00,0.0083
1757.00,0.0083
1756.00,0.0083
1755.00,0.0083
1754.00,0.0083
1753.00,0.0083
1752.00,0.0083
1751.00,0.0083
1750.00,0.0083
1749.00,0.0083
1748.00,0.0083
1747.00,0.0083
1746.00,0.0083
1745.00,0.0084
1744.00,0.0085
1743.00,0.0085
1742.00,0.0086
1741.00,0.0086
1740.00,0.0087
1739.00,0.0087
1738.00,0.0088
1737.00,0.0089
1736.00,0.0090
1735.00,0.0090
1734.00,0.0090
1733.00,0.0091
1732.00,0.0091
1731.00,0.0092
1730.00,0.0092
1729.00,0.0092
1728.00,0.0092
1727.00,0.0093
1726.00,0.0093
1725.00,0.0094
1724.00,0.0095
1723.00,0.0096
1722.00,0.0097
1721.00,0.0098
1720.00,0.0100
1719.00,0.0101
1718.00,0.0101
1717.00,0.0102
1716.00,0.0102
1715.00,0.0103
1714.00,0.0103
1713.00,0.0105
1712.00,0.0107
1711.00,0.0109
1710.00,0.0110
1709.00,0.0112
1708.00,0.0115
1707.00,0.0118
1706.00,0.0121
1705.00,0.0125
1704.00,0.0130
1703.00,0.0135
1702.00,0.0139
1701.00,0.0145
1700.00,0.0155
1699.00,0.0163
1698.00,0.0169
1697.00,0.0176
1696.00,0.0188
1695.00,0.0202
1694.00,0.0212
1693.00,0.0219
1692.00,0.0227
1691.00,0.0236
1690.00,0.0247
1689.00,0.0257
1688.00,0.0265
1687.00,0.0272
1686.00,0.0277
1685.00,0.0286
1684.00,0.0297
1683.00,0.0305
1682.00,0.0308
1681.00,0.0309
1680.00,0.0309
1679.00,0.0311
1678.00,0.0311
1677.00,0.0313
1676.00,0.0316
1675.00,0.0320
1674.00,0.0324
1673.00,0.0326
1672.00,0.0328
1671.00,0.0331
1670.00,0.0337
1669.00,0.0344
1668.00,0.0351
1667.00,0.0356
1666.00,0.0358
1665.00,0.0361
1664.00,0.0364
1663.00,0.0367
1662.00,0.0369
1661.00,0.0368
1660.00,0.0365
1659.00,0.0361
1658.00,0.0356
1657.00,0.0352
1656.00,0.0350
1655.00,0.0348
1654.00,0.0349
1653.00,0.0357
1652.00,0.0365
1651.00,0.0369
1650.00,0.0371
1649.00,0.0381
1648.00,0.0407
1647.00,0.0454
1646.00,0.0507
1645.00,0.0545
1644.00,0.0558
1643.00,0.0551
1642.00,0.0530
1641.00,0.0505
1640.00,0.0484
1639.00,0.0473
1638.00,0.0473
1637.00,0.0495
1636.00,0.0544
1635.00,0.0606
1634.00,0.0655
1633.00,0.0686
1632.00,0.0706
1631.00,0.0721
1630.00,0.0735
1629.00,0.0751
1628.00,0.0775
1627.00,0.0805
1626.00,0.0835
1625.00,0.0867
1624.00,0.0896
1623.00,0.0910
1622.00,0.0894
1621.00,0.0849
1620.00,0.0788
1619.00,0.0718
1618.00,0.0644
1617.00,0.0570
1616.00,0.0506
1615.00,0.0457
1614.00,0.0421
1613.00,0.0389
1612.00,0.0361
1611.00,0.0336
1610.00,0.0315
1609.00,0.0298
1608.00,0.0284
1607.00,0.0272
1606.00,0.0263
1605.00,0.0256
1604.00,0.0252
1603.00,0.0249
1602.00,0.0249
1601.00,0.0252
1600.00,0.0256
1599.00,0.0264
1598.00,0.0274
1597.00,0.0288
1596.00,0.0306
1595.00,0.0329
1594.00,0.0360
1593.00,0.0400
1592.00,0.0451
1591.00,0.0513
1590.00,0.0585
1589.00,0.0663
1588.00,0.0742
1587.00,0.0817
1586.00,0.0885
1585.00,0.0945
1584.00,0.0995
1583.00,0.1031
1582.00,0.1047
1581.00,0.1037
1580.00,0.1005
1579.00,0.0954
1578.00,0.0887
1577.00,0.0806
1576.00,0.0722
1575.00,0.0649
1574.00,0.0590
1573.00,0.0540
1572.00,0.0494
1571.00,0.0449
1570.00,0.0405
1569.00,0.0366
1568.00,0.0334
1567.00,0.0307
1566.00,0.0284
1565.00,0.0263
1564.00,0.0246
1563.00,0.0233
1562.00,0.0224
1561.00,0.0216
1560.00,0.0206
1559.00,0.0198
1558.00,0.0192
1557.00,0.0188
1556.00,0.0182
1555.00,0.0176
1554.00,0.0171
1553.00,0.0167
1552.00,0.0164
1551.00,0.0160
1550.00,0.0157
1549.00,0.0154
1548.00,0.0151
1547.00,0.0149
1546.00,0.0148
1545.00,0.0146
1544.00,0.0145
1543.00,0.0145
1542.00,0.0144
1541.00,0.0144
1540.00,0.0145
1539.00,0.0145
1538.00,0.0145
1537.00,0.0144
1536.00,0.0143
1535.00,0.0142
1534.00,0.0142
1533.00,0.0143
1532.00,0.0144
1531.00,0.0144
1530.00,0.0145
1529.00,0.0146
1528.00,0.0148
1527.00,0.0151
1526.00,0.0154
1525.00,0.0159
1524.00,0.0165
1523.00,0.0174
1522.00,0.0190
1521.00,0.0211
1520.00,0.0231
1519.00,0.0248
1518.00,0.0264
1517.00,0.0282
1516.00,0.0299
1515.00,0.0307
1514.00,0.0308
1513.00,0.0302
1512.00,0.0290
1511.00,0.0276
1510.00,0.0262
1509.00,0.0249
1508.00,0.0237
1507.00,0.0226
1506.00,0.0220
1505.00,0.0216
1504.00,0.0212
1503.00,0.0209
1502.00,0.0206
1501.00,0.0203
1500.00,0.0201
1499.00,0.0199
1498.00,0.0196
1497.00,0.0193
1496.00,0.0189
1495.00,0.0184
1494.00,0.0180
1493.00,0.0176
1492.00,0.0171
1491.00,0.0167
1490.00,0.0162
1489.00,0.0159
1488.00,0.0156
1487.00,0.0153
1486.00,0.0150
1485.00,0.0149
1484.00,0.0149
1483.00,0.0149
1482.00,0.0149
1481.00,0.0151
1480.00,0.0153
1479.00,0.0156
1478.00,0.0160
1477.00,0.0165
1476.00,0.0173
1475.00,0.0181
1474.00,0.0192
1473.00,0.0212
1472.00,0.0240
1471.00,0.0273
1470.00,0.0307
1469.00,0.0343
1468.00,0.0378
1467.00,0.0409
1466.00,0.0435
1465.00,0.0458
1464.00,0.0478
1463.00,0.0494
1462.00,0.0506
1461.00,0.0515
1460.00,0.0522
1459.00,0.0528
1458.00,0.0541
1457.00,0.0566
1456.00,0.0596
1455.00,0.0623
1454.00,0.0653
1453.00,0.0693
1452.00,0.0747
1451.00,0.0811
1450.00,0.0884
1449.00,0.0970
1448.00,0.1065
1447.00,0.1156
1446.00,0.1227
1445.00,0.1276
1444.00,0.1306
1443.00,0.1318
1442.00,0.1318
1441.00,0.1309
1440.00,0.1290
1439.00,0.1265
1438.00,0.1238
1437.00,0.1213
1436.00,0.1186
1435.00,0.1150
1434.00,0.1108
1433.00,0.1064
1432.00,0.1017
1431.00,0.0966
1430.00,0.0907
1429.00,0.0839
1428.00,0.0765
1427.00,0.0692
1426.00,0.0624
1425.00,0.0561
1424.00,0.0506
1423.00,0.0461
1422.00,0.0426
1421.00,0.0395
1420.00,0.0365
1419.00,0.0337
1418.00,0.0313
1417.00,0.0292
1416.00,0.0275
1415.00,0.0261
1414.00,0.0249
1413.00,0.0238
1412.00,0.0228
1411.00,0.0221
1410.00,0.0215
1409.00,0.0210
1408.00,0.0205
1407.00,0.0202
1406.00,0.0200
1405.00,0.0198
1404.00,0.0195
1403.00,0.0194
1402.00,0.0192
1401.00,0.0191
1400.00,0.0189
1399.00,0.0188
1398.00,0.0188
1397.00,0.0188
1396.00,0.0187
1395.00,0.0186
1394.00,0.0186
1393.00,0.0185
1392.00,0.0184
1391.00,0.0184
1390.00,0.0186
1389.00,0.0189
1388.00,0.0194
1387.00,0.0201
1386.00,0.0211
1385.00,0.0223
1384.00,0.0239
1383.00,0.0261
1382.00,0.0291
1381.00,0.0328
1380.00,0.0375
1379.00,0.0432
1378.00,0.0493
1377.00,0.0547
1376.00,0.0587
1375.00,0.0605
1374.00,0.0598
1373.00,0.0572
1372.00,0.0538
1371.00,0.0502
1370.00,0.0469
1369.00,0.0439
1368.00,0.0414
1367.00,0.0392
1366.00,0.0372
1365.00,0.0353
1364.00,0.0335
1363.00,0.0318
1362.00,0.0304
1361.00,0.0292
1360.00,0.0284
1359.00,0.0278
1358.00,0.0274
1357.00,0.0271
1356.00,0.0270
1355.00,0.0270
1354.00,0.0271
1353.00,0.0272
1352.00,0.0273
1351.00,0.0276
1350.00,0.0280
1349.00,0.0285
1348.00,0.0291
1347.00,0.0299
1346.00,0.0307
1345.00,0.0315
1344.00,0.0322
1343.00,0.0328
1342.00,0.0330
1341.00,0.0328
1340.00,0.0322
1339.00,0.0313
1338.00,0.0303
1337.00,0.0294
1336.00,0.0290
1335.00,0.0290
1334.00,0.0294
1333.00,0.0303
1332.00,0.0314
1331.00,0.0327
1330.00,0.0340
1329.00,0.0352
1328.00,0.0364
1327.00,0.0377
1326.00,0.0389
1325.00,0.0400
1324.00,0.0406
1323.00,0.0405
1322.00,0.0397
1321.00,0.0385
1320.00,0.0374
1319.00,0.0371
1318.00,0.0378
1317.00,0.0396
1316.00,0.0425
1315.00,0.0464
1314.00,0.0506
1313.00,0.0544
1312.00,0.0570
1311.00,0.0579
1310.00,0.0574
1309.00,0.0560
1308.00,0.0546
1307.00,0.0538
1306.00,0.0538
1305.00,0.0547
1304.00,0.0560
1303.00,0.0574
1302.00,0.0585
1301.00,0.0591
1300.00,0.0592
1299.00,0.0591
1298.00,0.0589
1297.00,0.0585
1296.00,0.0580
1295.00,0.0574
1294.00,0.0567
1293.00,0.0558
1292.00,0.0549
1291.00,0.0539
1290.00,0.0530
1289.00,0.0523
1288.00,0.0521
1287.00,0.0526
1286.00,0.0536
1285.00,0.0551
1284.00,0.0567
1283.00,0.0585
1282.00,0.0601
1281.00,0.0613
1280.00,0.0622
1279.00,0.0626
1278.00,0.0625
1277.00,0.0617
1276.00,0.0603
1275.00,0.0585
1274.00,0.0561
1273.00,0.0532
1272.00,0.0499
1271.00,0.0463
1270.00,0.0428
1269.00,0.0394
1268.00,0.0364
1267.00,0.0337
1266.00,0.0315
1265.00,0.0296
1264.00,0.0281
1263.00,0.0268
1262.00,0.0257
1261.00,0.0248
1260.00,0.0241
1259.00,0.0236
1258.00,0.0232
1257.00,0.0230
1256.00,0.0229
1255.00,0.0232
1254.00,0.0237
1253.00,0.0244
1252.00,0.0255
1251.00,0.0268
1250.00,0.0283
1249.00,0.0295
1248.00,0.0304
1247.00,0.0311
1246.00,0.0319
1245.00,0.0332
1244.00,0.0354
1243.00,0.0388
1242.00,0.0434
1241.00,0.0489
1240.00,0.0548
1239.00,0.0605
1238.00,0.0650
1237.00,0.0679
1236.00,0.0690
1235.00,0.0687
1234.00,0.0675
1233.00,0.0656
1232.00,0.0633
1231.00,0.0610
1230.00,0.0594
1229.00,0.0594
1228.00,0.0612
1227.00,0.0646
1226.00,0.0692
1225.00,0.0744
1224.00,0.0799
1223.00,0.0858
1222.00,0.0923
1221.00,0.1000
1220.00,0.1091
1219.00,0.1196
1218.00,0.1309
1217.00,0.1415
1216.00,0.1500
1215.00,0.1548
1214.00,0.1555
1213.00,0.1521
1212.00,0.1455
1211.00,0.1368
1210.00,0.1273
1209.00,0.1180
1208.00,0.1095
1207.00,0.1021
1206.00,0.0956
1205.00,0.0894
1204.00,0.0833
1203.00,0.0770
1202.00,0.0707
1201.00,0.0645
1200.00,0.0587
1199.00,0.0536
1198.00,0.0493
1197.00,0.0458
1196.00,0.0431
1195.00,0.0412
1194.00,0.0399
1193.00,0.0393
1192.00,0.0392
1191.00,0.0396
1190.00,0.0403
1189.00,0.0412
1188.00,0.0422
1187.00,0.0433
1186.00,0.0445
1185.00,0.0458
1184.00,0.0471
1183.00,0.0482
1182.00,0.0492
1181.00,0.0499
1180.00,0.0506
1179.00,0.0513
1178.00,0.0519
1177.00,0.0524
1176.00,0.0531
1175.00,0.0545
1174.00,0.0566
1173.00,0.0588
1172.00,0.0598
1171.00,0.0583
1170.00,0.0543
1169.00,0.0489
1168.00,0.0434
1167.00,0.0386
1166.00,0.0347
1165.00,0.0317
1164.00,0.0294
1163.00,0.0278
1162.00,0.0266
1161.00,0.0259
1160.00,0.0255
1159.00,0.0257
1158.00,0.0264
1157.00,0.0279
1156.00,0.0306
1155.00,0.0350
1154.00,0.0413
1153.00,0.0490
1152.00,0.0567
1151.00,0.0619
1150.00,0.0624
1149.00,0.0580
1148.00,0.0504
1147.00,0.0423
1146.00,0.0354
1145.00,0.0304
1144.00,0.0269
1143.00,0.0247
1142.00,0.0233
1141.00,0.0225
1140.00,0.0222
1139.00,0.0224
1138.00,0.0229
1137.00,0.0236
1136.00,0.0241
1135.00,0.0243
1134.00,0.0242
1133.00,0.0236
1132.00,0.0226
1131.00,0.0214
1130.00,0.0203
1129.00,0.0192
1128.00,0.0183
1127.00,0.0176
1126.00,0.0171
1125.00,0.0166
1124.00,0.0163
1123.00,0.0161
1122.00,0.0159
1121.00,0.0159
1120.00,0.0158
1119.00,0.0159
1118.00,0.0161
1117.00,0.0162
1116.00,0.0165
1115.00,0.0168
1114.00,0.0171
1113.00,0.0174
1112.00,0.0178
1111.00,0.0182
1110.00,0.0188
1109.00,0.0195
1108.00,0.0202
1107.00,0.0212
1106.00,0.0222
1105.00,0.0233
1104.00,0.0245
1103.00,0.0259
1102.00,0.0275
1101.00,0.0292
1100.00,0.0306
1099.00,0.0313
1098.00,0.0310
1097.00,0.0297
1096.00,0.0278
1095.00,0.0258
1094.00,0.0241
1093.00,0.0228
1092.00,0.0218
1091.00,0.0210
1090.00,0.0204
1089.00,0.0199
1088.00,0.0197
1087.00,0.0199
1086.00,0.0205
1085.00,0.0216
1084.00,0.0232
1083.00,0.0253
1082.00,0.0276
1081.00,0.0297
1080.00,0.0311
1079.00,0.0314
1078.00,0.0307
1077.00,0.0291
1076.00,0.0272
1075.00,0.0255
1074.00,0.0240
1073.00,0.0229
1072.00,0.0220
1071.00,0.0213
1070.00,0.0207
1069.00,0.0203
1068.00,0.0200
1067.00,0.0199
1066.00,0.0199
1065.00,0.0202
1064.00,0.0206
1063.00,0.0212
1062.00,0.0222
1061.00,0.0236
1060.00,0.0255
1059.00,0.0282
1058.00,0.0322
1057.00,0.0377
1056.00,0.0446
1055.00,0.0524
1054.00,0.0598
1053.00,0.0654
1052.00,0.0686
1051.00,0.0693
1050.00,0.0678
1049.00,0.0642
1048.00,0.0588
1047.00,0.0526
1046.00,0.0470
1045.00,0.0427
1044.00,0.0401
1043.00,0.0390
1042.00,0.0392
1041.00,0.0401
1040.00,0.0416
1039.00,0.0438
1038.00,0.0471
1037.00,0.0517
1036.00,0.0576
1035.00,0.0647
1034.00,0.0718
1033.00,0.0775
1032.00,0.0803
1031.00,0.0799
1030.00,0.0767
1029.00,0.0722
1028.00,0.0677
1027.00,0.0643
1026.00,0.0630
1025.00,0.0639
1024.00,0.0674
1023.00,0.0732
1022.00,0.0808
1021.00,0.0888
1020.00,0.0952
1019.00,0.0983
1018.00,0.0974
1017.00,0.0931
1016.00,0.0867
1015.00,0.0797
1014.00,0.0729
1013.00,0.0668
1012.00,0.0617
1011.00,0.0581
1010.00,0.0560
1009.00,0.0553
1008.00,0.0556
1007.00,0.0570
1006.00,0.0593
1005.00,0.0624
1004.00,0.0653
1003.00,0.0674
1002.00,0.0681
1001.00,0.0669
1000.00,0.0637
999.00,0.0590
998.00,0.0534
997.00,0.0478
996.00,0.0429
995.00,0.0392
994.00,0.0366
993.00,0.0350
992.00,0.0343
991.00,0.0345
990.00,0.0353
989.00,0.0366
988.00,0.0379
987.00,0.0391
986.00,0.0399
985.00,0.0402
984.00,0.0396
983.00,0.0381
982.00,0.0360
981.00,0.0338
980.00,0.0320
979.00,0.0308
978.00,0.0300
977.00,0.0294
976.00,0.0288
975.00,0.0283
974.00,0.0280
973.00,0.0279
972.00,0.0281
971.00,0.0288
970.00,0.0299
969.00,0.0313
968.00,0.0329
967.00,0.0346
966.00,0.0366
965.00,0.0389
964.00,0.0415
963.00,0.0441
962.00,0.0461
961.00,0.0466
960.00,0.0453
959.00,0.0425
958.00,0.0388
957.00,0.0349
956.00,0.0313
955.00,0.0284
954.00,0.0261
953.00,0.0244
952.00,0.0231
951.00,0.0221
950.00,0.0213
949.00,0.0207
948.00,0.0202
947.00,0.0198
946.00,0.0194
945.00,0.0191
944.00,0.0188
943.00,0.0186
942.00,0.0184
941.00,0.0182
940.00,0.0180
939.00,0.0179
938.00,0.0179
937.00,0.0179
936.00,0.0180
935.00,0.0182
934.00,0.0184
933.00,0.0188
932.00,0.0193
931.00,0.0198
930.00,0.0202
929.00,0.0205
928.00,0.0206
927.00,0.0205
926.00,0.0205
925.00,0.0204
924.00,0.0203
923.00,0.0202
922.00,0.0202
921.00,0.0204
920.00,0.0209
919.00,0.0216
918.00,0.0226
917.00,0.0237
916.00,0.0246
915.00,0.0251
914.00,0.0252
913.00,0.0250
912.00,0.0248
911.00,0.0248
910.00,0.0253
909.00,0.0263
908.00,0.0280
907.00,0.0303
906.00,0.0333
905.00,0.0369
904.00,0.0409
903.00,0.0457
902.00,0.0515
901.00,0.0589
900.00,0.0679
899.00,0.0781
898.00,0.0879
897.00,0.0948
896.00,0.0968
895.00,0.0938
894.00,0.0872
893.00,0.0790
892.00,0.0713
891.00,0.0652
890.00,0.0618
889.00,0.0617
888.00,0.0655
887.00,0.0735
886.00,0.0852
885.00,0.0981
884.00,0.1085
883.00,0.1126
882.00,0.1087
881.00,0.0984
880.00,0.0854
879.00,0.0729
878.00,0.0627
877.00,0.0552
876.00,0.0502
875.00,0.0473
874.00,0.0462
873.00,0.0467
872.00,0.0483
871.00,0.0504
870.00,0.0518
869.00,0.0519
868.00,0.0509
867.00,0.0499
866.00,0.0501
865.00,0.0521
864.00,0.0556
863.00,0.0595
862.00,0.0625
861.00,0.0639
860.00,0.0638
859.00,0.0632
858.00,0.0631
857.00,0.0640
856.00,0.0657
855.00,0.0678
854.00,0.0699
853.00,0.0717
852.00,0.0730
851.00,0.0737
850.00,0.0733
849.00,0.0717
848.00,0.0691
847.00,0.0662
846.00,0.0639
845.00,0.0623
844.00,0.0612
843.00,0.0602
842.00,0.0589
841.00,0.0574
840.00,0.0560
839.00,0.0551
838.00,0.0549
837.00,0.0555
836.00,0.0566
835.00,0.0582
834.00,0.0604
833.00,0.0630
832.00,0.0655
831.00,0.0681
830.00,0.0704
829.00,0.0723
828.00,0.0732
827.00,0.0730
826.00,0.0713
825.00,0.0683
824.00,0.0642
823.00,0.0595
822.00,0.0547
821.00,0.0499
820.00,0.0453
819.00,0.0413
818.00,0.0380
817.00,0.0356
816.00,0.0337
815.00,0.0324
814.00,0.0313
813.00,0.0304
812.00,0.0298
811.00,0.0299
810.00,0.0310
809.00,0.0339
808.00,0.0388
807.00,0.0457
806.00,0.0531
805.00,0.0586
804.00,0.0602
803.00,0.0577
802.00,0.0526
801.00,0.0469
800.00,0.0417
799.00,0.0376
798.00,0.0345
797.00,0.0322
796.00,0.0305
795.00,0.0295
794.00,0.0290
793.00,0.0287
792.00,0.0285
791.00,0.0282
790.00,0.0279
789.00,0.0276
788.00,0.0275
787.00,0.0277
786.00,0.0278
785.00,0.0276
784.00,0.0270
783.00,0.0261
782.00,0.0252
781.00,0.0245
780.00,0.0242
779.00,0.0241
778.00,0.0242
777.00,0.0241
776.00,0.0238
775.00,0.0235
774.00,0.0234
773.00,0.0234
772.00,0.0236
771.00,0.0238
770.00,0.0239
769.00,0.0236
768.00,0.0229
767.00,0.0220
766.00,0.0212
765.00,0.0204
764.00,0.0197
763.00,0.0192
762.00,0.0189
761.00,0.0188
760.00,0.0188
759.00,0.0189
758.00,0.0193
757.00,0.0200
756.00,0.0210
755.00,0.0227
754.00,0.0248
753.00,0.0270
752.00,0.0288
751.00,0.0301
750.00,0.0310
749.00,0.0315
748.00,0.0312
747.00,0.0298
746.00,0.0278
745.00,0.0255
744.00,0.0235
743.00,0.0221
742.00,0.0211
741.00,0.0205
740.00,0.0201
739.00,0.0200
738.00,0.0202
737.00,0.0206
736.00,0.0213
735.00,0.0225
734.00,0.0242
733.00,0.0262
732.00,0.0282
731.00,0.0293
730.00,0.0293
729.00,0.0281
728.00,0.0264
727.00,0.0249
726.00,0.0240
725.00,0.0235
724.00,0.0231
723.00,0.0227
722.00,0.0225
721.00,0.0222
720.00,0.0218
719.00,0.0214
718.00,0.0208
717.00,0.0200
716.00,0.0192
715.00,0.0186
714.00,0.0182
713.00,0.0181
712.00,0.0180
711.00,0.0180
710.00,0.0179
709.00,0.0176
708.00,0.0171
707.00,0.0165
706.00,0.0161
705.00,0.0158
704.00,0.0157
703.00,0.0156
702.00,0.0156
701.00,0.0156
700.00,0.0155
699.00,0.0154
698.00,0.0155
697.00,0.0155
696.00,0.0154
695.00,0.0154
694.00,0.0155
693.00,0.0155
692.00,0.0156
691.00,0.0156
690.00,0.0157
689.00,0.0159
688.00,0.0160
687.00,0.0162
686.00,0.0164
685.00,0.0167
684.00,0.0170
683.00,0.0173
682.00,0.0176
681.00,0.0179
680.00,0.0183
679.00,0.0187
678.00,0.0192
677.00,0.0198
676.00,0.0204
675.00,0.0211
674.00,0.0221
673.00,0.0234
672.00,0.0247
671.00,0.0262
670.00,0.0278
669.00,0.0292
668.00,0.0303
667.00,0.0312
666.00,0.0317
665.00,0.0322
664.00,0.0327
663.00,0.0331
662.00,0.0334
661.00,0.0335
660.00,0.0335
659.00,0.0336
658.00,0.0335
657.00,0.0333
656.00,0.0329
655.00,0.0325
654.00,0.0325
653.00,0.0328
652.00,0.0336
651.00,0.0346
650.00,0.0356
649.00,0.0361
648.00,0.0360
647.00,0.0353
646.00,0.0340
645.00,0.0325
644.00,0.0309
643.00,0.0293
642.00,0.0281
641.00,0.0271
640.00,0.0263
639.00,0.0259
638.00,0.0257
637.00,0.0258
636.00,0.0259
635.00,0.0262
634.00,0.0265
633.00,0.0269
632.00,0.0274
631.00,0.0279
630.00,0.0286
629.00,0.0292
628.00,0.0298
627.00,0.0305
626.00,0.0312
625.00,0.0318
624.00,0.0321
623.00,0.0320
622.00,0.0316
621.00,0.0307
620.00,0.0293
619.00,0.0277
618.00,0.0262
617.00,0.0254
616.00,0.0255
615.00,0.0269
614.00,0.0294
613.00,0.0324
612.00,0.0352
611.00,0.0368
610.00,0.0371
609.00,0.0365
608.00,0.0357
607.00,0.0353
606.00,0.0357
605.00,0.0364
604.00,0.0372
603.00,0.0381
602.00,0.0390
601.00,0.0403
600.00,0.0416
599.00,0.0428
598.00,0.0435
597.00,0.0437
596.00,0.0436
595.00,0.0436
594.00,0.0441
593.00,0.0454
592.00,0.0473
591.00,0.0499
590.00,0.0528
589.00,0.0557
588.00,0.0579
587.00,0.0592
586.00,0.0594
585.00,0.0584
584.00,0.0565
583.00,0.0540
582.00,0.0515
581.00,0.0489
580.00,0.0466
579.00,0.0447
578.00,0.0434
577.00,0.0426
576.00,0.0423
575.00,0.0424
574.00,0.0430
573.00,0.0437
572.00,0.0443
571.00,0.0450
570.00,0.0457
569.00,0.0463
568.00,0.0467
567.00,0.0470
566.00,0.0474
565.00,0.0478
564.00,0.0479
563.00,0.0480
562.00,0.0480
561.00,0.0479
560.00,0.0478
559.00,0.0477
558.00,0.0477
557.00,0.0477
556.00,0.0477
555.00,0.0479
554.00,0.0486
553.00,0.0497
552.00,0.0511
551.00,0.0526
550.00,0.0541
549.00,0.0551
548.00,0.0559
547.00,0.0570
546.00,0.0587
545.00,0.0603
544.00,0.0615
543.00,0.0622
542.00,0.0629
541.00,0.0640
540.00,0.0659
539.00,0.0688
538.00,0.0725
537.00,0.0761
536.00,0.0784
535.00,0.0791
534.00,0.0784
533.00,0.0768
532.00,0.0750
531.00,0.0735
530.00,0.0725
529.00,0.0721
528.00,0.0731
527.00,0.0759
526.00,0.0805
525.00,0.0858
524.00,0.0911
523.00,0.0955
522.00,0.0980
521.00,0.0970
520.00,0.0921
519.00,0.0846
518.00,0.0767
517.00,0.0701
516.00,0.0653
515.00,0.0622
514.00,0.0605
513.00,0.0598
512.00,0.0596
511.00,0.0600
510.00,0.0611
509.00,0.0627
508.00,0.0650
507.00,0.0679
506.00,0.0714
505.00,0.0749
504.00,0.0785
503.00,0.0823
502.00,0.0864
501.00,0.0906
500.00,0.0943
499.00,0.0976
498.00,0.1006
497.00,0.1031
496.00,0.1048
495.00,0.1059
494.00,0.1064
493.00,0.1065
492.00,0.1061
491.00,0.1054
490.00,0.1046
489.00,0.1041
488.00,0.1036
487.00,0.1032
486.00,0.1029
485.00,0.1023
484.00,0.1014
483.00,0.1002
482.00,0.0986
481.00,0.0965
480.00,0.0939
479.00,0.0915
478.00,0.0895
477.00,0.0882
476.00,0.0874
475.00,0.0872
474.00,0.0876
473.00,0.0886
472.00,0.0897
471.00,0.0912
470.00,0.0930
469.00,0.0949
468.00,0.0963
467.00,0.0971
466.00,0.0975
465.00,0.0975
464.00,0.0972
463.00,0.0968
462.00,0.0964
461.00,0.0959
460.00,0.0950
459.00,0.0942
458.00,0.0938
457.00,0.0938
456.00,0.0936
455.00,0.0933
454.00,0.0931
453.00,0.0927
452.00,0.0917
451.00,0.0906
450.00,0.0895
449.00,0.0884
448.00,0.0870
447.00,0.0855
446.00,0.0842
445.00,0.0829
444.00,0.0813
443.00,0.0796
442.00,0.0784
441.00,0.0776
440.00,0.0771
439.00,0.0767
438.00,0.0765
437.00,0.0765
436.00,0.0762
435.00,0.0759
434.00,0.0756
433.00,0.0753
432.00,0.0755
431.00,0.0769
430.00,0.0796
429.00,0.0831
428.00,0.0870
427.00,0.0909
426.00,0.0946
425.00,0.0975
424.00,0.0987
423.00,0.0985
422.00,0.0976
421.00,0.0966
420.00,0.0954
419.00,0.0944
418.00,0.0938
417.00,0.0930
416.00,0.0921
415.00,0.0917
414.00,0.0920
413.00,0.0928
412.00,0.0937
411.00,0.0952
410.00,0.0978
409.00,0.1006
408.00,0.1030
407.00,0.1048
406.00,0.1062
405.00,0.1073
404.00,0.1084
403.00,0.1105
402.00,0.1136
401.00,0.1167
400.00,0.1192
