Created as New Dataset,Sample 574 By YargerLab Date Thursday, June 05 2025
cm-1,A
4000.00,0.0009
3999.00,0.0009
3998.00,0.0009
3997.00,0.0009
3996.00,0.0009
3995.00,0.0009
3994.00,0.0009
3993.00,0.0009
3992.00,0.0009
3991.00,0.0009
3990.00,0.0009
3989.00,0.0009
3988.00,0.0009
3987.00,0.0009
3986.00,0.0008
3985.00,0.0008
3984.00,0.0008
3983.00,0.0008
3982.00,0.0008
3981.00,0.0008
3980.00,0.0009
3979.00,0.0009
3978.00,0.0009
3977.00,0.0009
3976.00,0.0009
3975.00,0.0009
3974.00,0.0009
3973.00,0.0009
3972.00,0.0009
3971.00,0.0009
3970.00,0.0008
3969.00,0.0008
3968.00,0.0008
3967.00,0.0008
3966.00,0.0008
3965.00,0.0008
3964.00,0.0008
3963.00,0.0009
3962.00,0.0009
3961.00,0.0009
3960.00,0.0009
3959.00,0.0009
3958.00,0.0009
3957.00,0.0008
3956.00,0.0008
3955.00,0.0008
3954.00,0.0008
3953.00,0.0008
3952.00,0.0008
3951.00,0.0008
3950.00,0.0008
3949.00,0.0008
3948.00,0.0008
3947.00,0.0008
3946.00,0.0008
3945.00,0.0008
3944.00,0.0008
3943.00,0.0008
3942.00,0.0008
3941.00,0.0008
3940.00,0.0008
3939.00,0.0008
3938.00,0.0008
3937.00,0.0008
3936.00,0.0008
3935.00,0.0008
3934.00,0.0008
3933.00,0.0008
3932.00,0.0008
3931.00,0.0008
3930.00,0.0008
3929.00,0.0008
3928.00,0.0008
3927.00,0.0008
3926.00,0.0009
3925.00,0.0009
3924.00,0.0009
3923.00,0.0009
3922.00,0.0009
3921.00,0.0009
3920.00,0.0009
3919.00,0.0008
3918.00,0.0008
3917.00,0.0008
3916.00,0.0008
3915.00,0.0008
3914.00,0.0008
3913.00,0.0008
3912.00,0.0008
3911.00,0.0008
3910.00,0.0008
3909.00,0.0008
3908.00,0.0008
3907.00,0.0008
3906.00,0.0009
3905.00,0.0009
3904.00,0.0009
3903.00,0.0009
3902.00,0.0009
3901.00,0.0008
3900.00,0.0008
3899.00,0.0008
3898.00,0.0008
3897.00,0.0008
3896.00,0.0008
3895.00,0.0008
3894.00,0.0008
3893.00,0.0008
3892.00,0.0008
3891.00,0.0008
3890.00,0.0008
3889.00,0.0008
3888.00,0.0008
3887.00,0.0008
3886.00,0.0008
3885.00,0.0008
3884.00,0.0008
3883.00,0.0008
3882.00,0.0009
3881.00,0.0008
3880.00,0.0008
3879.00,0.0008
3878.00,0.0007
3877.00,0.0008
3876.00,0.0008
3875.00,0.0008
3874.00,0.0008
3873.00,0.0008
3872.00,0.0008
3871.00,0.0008
3870.00,0.0008
3869.00,0.0008
3868.00,0.0008
3867.00,0.0008
3866.00,0.0008
3865.00,0.0008
3864.00,0.0008
3863.00,0.0008
3862.00,0.0008
3861.00,0.0008
3860.00,0.0008
3859.00,0.0008
3858.00,0.0008
3857.00,0.0008
3856.00,0.0009
3855.00,0.0009
3854.00,0.0009
3853.00,0.0008
3852.00,0.0008
3851.00,0.0008
3850.00,0.0008
3849.00,0.0008
3848.00,0.0007
3847.00,0.0007
3846.00,0.0007
3845.00,0.0007
3844.00,0.0007
3843.00,0.0008
3842.00,0.0008
3841.00,0.0008
3840.00,0.0008
3839.00,0.0008
3838.00,0.0008
3837.00,0.0008
3836.00,0.0008
3835.00,0.0008
3834.00,0.0008
3833.00,0.0008
3832.00,0.0008
3831.00,0.0007
3830.00,0.0007
3829.00,0.0007
3828.00,0.0007
3827.00,0.0007
3826.00,0.0007
3825.00,0.0008
3824.00,0.0008
3823.00,0.0009
3822.00,0.0009
3821.00,0.0009
3820.00,0.0009
3819.00,0.0010
3818.00,0.0010
3817.00,0.0009
3816.00,0.0009
3815.00,0.0008
3814.00,0.0008
3813.00,0.0007
3812.00,0.0007
3811.00,0.0007
3810.00,0.0007
3809.00,0.0007
3808.00,0.0007
3807.00,0.0007
3806.00,0.0007
3805.00,0.0008
3804.00,0.0008
3803.00,0.0008
3802.00,0.0008
3801.00,0.0008
3800.00,0.0008
3799.00,0.0008
3798.00,0.0008
3797.00,0.0008
3796.00,0.0008
3795.00,0.0007
3794.00,0.0007
3793.00,0.0007
3792.00,0.0007
3791.00,0.0007
3790.00,0.0008
3789.00,0.0008
3788.00,0.0008
3787.00,0.0008
3786.00,0.0008
3785.00,0.0008
3784.00,0.0008
3783.00,0.0008
3782.00,0.0008
3781.00,0.0008
3780.00,0.0008
3779.00,0.0008
3778.00,0.0008
3777.00,0.0008
3776.00,0.0008
3775.00,0.0008
3774.00,0.0008
3773.00,0.0008
3772.00,0.0008
3771.00,0.0008
3770.00,0.0008
3769.00,0.0008
3768.00,0.0008
3767.00,0.0008
3766.00,0.0008
3765.00,0.0008
3764.00,0.0008
3763.00,0.0008
3762.00,0.0008
3761.00,0.0008
3760.00,0.0008
3759.00,0.0008
3758.00,0.0009
3757.00,0.0009
3756.00,0.0009
3755.00,0.0009
3754.00,0.0009
3753.00,0.0009
3752.00,0.0009
3751.00,0.0010
3750.00,0.0010
3749.00,0.0010
3748.00,0.0010
3747.00,0.0010
3746.00,0.0010
3745.00,0.0009
3744.00,0.0009
3743.00,0.0008
3742.00,0.0008
3741.00,0.0008
3740.00,0.0008
3739.00,0.0008
3738.00,0.0008
3737.00,0.0009
3736.00,0.0009
3735.00,0.0008
3734.00,0.0008
3733.00,0.0007
3732.00,0.0007
3731.00,0.0007
3730.00,0.0007
3729.00,0.0007
3728.00,0.0007
3727.00,0.0007
3726.00,0.0007
3725.00,0.0007
3724.00,0.0007
3723.00,0.0008
3722.00,0.0008
3721.00,0.0008
3720.00,0.0008
3719.00,0.0008
3718.00,0.0008
3717.00,0.0008
3716.00,0.0009
3715.00,0.0009
3714.00,0.0009
3713.00,0.0009
3712.00,0.0009
3711.00,0.0009
3710.00,0.0008
3709.00,0.0008
3708.00,0.0008
3707.00,0.0009
3706.00,0.0009
3705.00,0.0009
3704.00,0.0009
3703.00,0.0009
3702.00,0.0009
3701.00,0.0009
3700.00,0.0009
3699.00,0.0009
3698.00,0.0009
3697.00,0.0009
3696.00,0.0009
3695.00,0.0009
3694.00,0.0010
3693.00,0.0010
3692.00,0.0011
3691.00,0.0011
3690.00,0.0012
3689.00,0.0012
3688.00,0.0012
3687.00,0.0013
3686.00,0.0013
3685.00,0.0013
3684.00,0.0014
3683.00,0.0014
3682.00,0.0014
3681.00,0.0014
3680.00,0.0015
3679.00,0.0016
3678.00,0.0016
3677.00,0.0017
3676.00,0.0018
3675.00,0.0018
3674.00,0.0019
3673.00,0.0019
3672.00,0.0020
3671.00,0.0020
3670.00,0.0020
3669.00,0.0021
3668.00,0.0022
3667.00,0.0022
3666.00,0.0023
3665.00,0.0023
3664.00,0.0023
3663.00,0.0023
3662.00,0.0024
3661.00,0.0025
3660.00,0.0025
3659.00,0.0026
3658.00,0.0027
3657.00,0.0028
3656.00,0.0028
3655.00,0.0028
3654.00,0.0029
3653.00,0.0029
3652.00,0.0030
3651.00,0.0031
3650.00,0.0033
3649.00,0.0034
3648.00,0.0035
3647.00,0.0036
3646.00,0.0037
3645.00,0.0037
3644.00,0.0037
3643.00,0.0038
3642.00,0.0038
3641.00,0.0038
3640.00,0.0039
3639.00,0.0039
3638.00,0.0040
3637.00,0.0041
3636.00,0.0042
3635.00,0.0043
3634.00,0.0044
3633.00,0.0044
3632.00,0.0045
3631.00,0.0046
3630.00,0.0047
3629.00,0.0048
3628.00,0.0050
3627.00,0.0051
3626.00,0.0052
3625.00,0.0052
3624.00,0.0053
3623.00,0.0053
3622.00,0.0054
3621.00,0.0055
3620.00,0.0056
3619.00,0.0058
3618.00,0.0059
3617.00,0.0060
3616.00,0.0061
3615.00,0.0062
3614.00,0.0063
3613.00,0.0064
3612.00,0.0066
3611.00,0.0066
3610.00,0.0067
3609.00,0.0068
3608.00,0.0068
3607.00,0.0069
3606.00,0.0070
3605.00,0.0071
3604.00,0.0072
3603.00,0.0073
3602.00,0.0073
3601.00,0.0074
3600.00,0.0075
3599.00,0.0076
3598.00,0.0077
3597.00,0.0078
3596.00,0.0080
3595.00,0.0081
3594.00,0.0082
3593.00,0.0083
3592.00,0.0084
3591.00,0.0085
3590.00,0.0085
3589.00,0.0086
3588.00,0.0088
3587.00,0.0089
3586.00,0.0091
3585.00,0.0092
3584.00,0.0093
3583.00,0.0094
3582.00,0.0095
3581.00,0.0096
3580.00,0.0097
3579.00,0.0098
3578.00,0.0099
3577.00,0.0100
3576.00,0.0101
3575.00,0.0102
3574.00,0.0103
3573.00,0.0104
3572.00,0.0106
3571.00,0.0106
3570.00,0.0107
3569.00,0.0108
3568.00,0.0109
3567.00,0.0111
3566.00,0.0113
3565.00,0.0115
3564.00,0.0116
3563.00,0.0118
3562.00,0.0118
3561.00,0.0119
3560.00,0.0120
3559.00,0.0121
3558.00,0.0122
3557.00,0.0123
3556.00,0.0124
3555.00,0.0125
3554.00,0.0126
3553.00,0.0127
3552.00,0.0129
3551.00,0.0130
3550.00,0.0132
3549.00,0.0133
3548.00,0.0134
3547.00,0.0135
3546.00,0.0136
3545.00,0.0138
3544.00,0.0139
3543.00,0.0140
3542.00,0.0141
3541.00,0.0142
3540.00,0.0143
3539.00,0.0144
3538.00,0.0145
3537.00,0.0146
3536.00,0.0147
3535.00,0.0148
3534.00,0.0149
3533.00,0.0150
3532.00,0.0151
3531.00,0.0152
3530.00,0.0153
3529.00,0.0155
3528.00,0.0156
3527.00,0.0157
3526.00,0.0158
3525.00,0.0159
3524.00,0.0160
3523.00,0.0161
3522.00,0.0162
3521.00,0.0164
3520.00,0.0165
3519.00,0.0166
3518.00,0.0167
3517.00,0.0168
3516.00,0.0169
3515.00,0.0170
3514.00,0.0171
3513.00,0.0172
3512.00,0.0173
3511.00,0.0174
3510.00,0.0175
3509.00,0.0176
3508.00,0.0177
3507.00,0.0178
3506.00,0.0179
3505.00,0.0180
3504.00,0.0181
3503.00,0.0182
3502.00,0.0183
3501.00,0.0184
3500.00,0.0186
3499.00,0.0187
3498.00,0.0188
3497.00,0.0189
3496.00,0.0190
3495.00,0.0191
3494.00,0.0192
3493.00,0.0193
3492.00,0.0194
3491.00,0.0195
3490.00,0.0196
3489.00,0.0198
3488.00,0.0199
3487.00,0.0200
3486.00,0.0201
3485.00,0.0202
3484.00,0.0203
3483.00,0.0204
3482.00,0.0206
3481.00,0.0207
3480.00,0.0209
3479.00,0.0210
3478.00,0.0212
3477.00,0.0212
3476.00,0.0213
3475.00,0.0214
3474.00,0.0216
3473.00,0.0217
3472.00,0.0218
3471.00,0.0219
3470.00,0.0221
3469.00,0.0222
3468.00,0.0223
3467.00,0.0224
3466.00,0.0225
3465.00,0.0225
3464.00,0.0226
3463.00,0.0227
3462.00,0.0229
3461.00,0.0230
3460.00,0.0232
3459.00,0.0233
3458.00,0.0234
3457.00,0.0235
3456.00,0.0236
3455.00,0.0237
3454.00,0.0238
3453.00,0.0239
3452.00,0.0240
3451.00,0.0241
3450.00,0.0242
3449.00,0.0244
3448.00,0.0245
3447.00,0.0246
3446.00,0.0247
3445.00,0.0248
3444.00,0.0249
3443.00,0.0251
3442.00,0.0252
3441.00,0.0253
3440.00,0.0254
3439.00,0.0256
3438.00,0.0257
3437.00,0.0258
3436.00,0.0259
3435.00,0.0260
3434.00,0.0261
3433.00,0.0262
3432.00,0.0264
3431.00,0.0265
3430.00,0.0266
3429.00,0.0267
3428.00,0.0268
3427.00,0.0269
3426.00,0.0270
3425.00,0.0272
3424.00,0.0273
3423.00,0.0274
3422.00,0.0275
3421.00,0.0277
3420.00,0.0278
3419.00,0.0280
3418.00,0.0281
3417.00,0.0282
3416.00,0.0283
3415.00,0.0284
3414.00,0.0285
3413.00,0.0286
3412.00,0.0287
3411.00,0.0289
3410.00,0.0290
3409.00,0.0291
3408.00,0.0292
3407.00,0.0294
3406.00,0.0295
3405.00,0.0296
3404.00,0.0297
3403.00,0.0298
3402.00,0.0300
3401.00,0.0301
3400.00,0.0302
3399.00,0.0303
3398.00,0.0305
3397.00,0.0306
3396.00,0.0307
3395.00,0.0308
3394.00,0.0309
3393.00,0.0310
3392.00,0.0311
3391.00,0.0313
3390.00,0.0314
3389.00,0.0316
3388.00,0.0317
3387.00,0.0319
3386.00,0.0320
3385.00,0.0322
3384.00,0.0323
3383.00,0.0324
3382.00,0.0325
3381.00,0.0326
3380.00,0.0328
3379.00,0.0329
3378.00,0.0330
3377.00,0.0332
3376.00,0.0334
3375.00,0.0335
3374.00,0.0337
3373.00,0.0338
3372.00,0.0339
3371.00,0.0341
3370.00,0.0342
3369.00,0.0344
3368.00,0.0346
3367.00,0.0348
3366.00,0.0350
3365.00,0.0352
3364.00,0.0354
3363.00,0.0355
3362.00,0.0357
3361.00,0.0358
3360.00,0.0360
3359.00,0.0362
3358.00,0.0365
3357.00,0.0367
3356.00,0.0369
3355.00,0.0370
3354.00,0.0372
3353.00,0.0374
3352.00,0.0375
3351.00,0.0377
3350.00,0.0380
3349.00,0.0383
3348.00,0.0385
3347.00,0.0388
3346.00,0.0390
3345.00,0.0392
3344.00,0.0394
3343.00,0.0396
3342.00,0.0399
3341.00,0.0401
3340.00,0.0403
3339.00,0.0405
3338.00,0.0408
3337.00,0.0411
3336.00,0.0414
3335.00,0.0417
3334.00,0.0420
3333.00,0.0423
3332.00,0.0426
3331.00,0.0429
3330.00,0.0432
3329.00,0.0435
3328.00,0.0438
3327.00,0.0441
3326.00,0.0444
3325.00,0.0447
3324.00,0.0451
3323.00,0.0455
3322.00,0.0459
3321.00,0.0463
3320.00,0.0466
3319.00,0.0470
3318.00,0.0474
3317.00,0.0478
3316.00,0.0481
3315.00,0.0485
3314.00,0.0490
3313.00,0.0494
3312.00,0.0497
3311.00,0.0501
3310.00,0.0504
3309.00,0.0508
3308.00,0.0512
3307.00,0.0516
3306.00,0.0521
3305.00,0.0526
3304.00,0.0532
3303.00,0.0537
3302.00,0.0543
3301.00,0.0548
3300.00,0.0553
3299.00,0.0557
3298.00,0.0561
3297.00,0.0565
3296.00,0.0570
3295.00,0.0574
3294.00,0.0579
3293.00,0.0583
3292.00,0.0588
3291.00,0.0593
3290.00,0.0598
3289.00,0.0603
3288.00,0.0608
3287.00,0.0612
3286.00,0.0616
3285.00,0.0619
3284.00,0.0623
3283.00,0.0626
3282.00,0.0629
3281.00,0.0632
3280.00,0.0635
3279.00,0.0638
3278.00,0.0639
3277.00,0.0641
3276.00,0.0642
3275.00,0.0643
3274.00,0.0643
3273.00,0.0643
3272.00,0.0643
3271.00,0.0643
3270.00,0.0642
3269.00,0.0642
3268.00,0.0641
3267.00,0.0640
3266.00,0.0638
3265.00,0.0635
3264.00,0.0632
3263.00,0.0629
3262.00,0.0626
3261.00,0.0622
3260.00,0.0618
3259.00,0.0614
3258.00,0.0609
3257.00,0.0605
3256.00,0.0601
3255.00,0.0597
3254.00,0.0593
3253.00,0.0589
3252.00,0.0585
3251.00,0.0580
3250.00,0.0575
3249.00,0.0570
3248.00,0.0565
3247.00,0.0560
3246.00,0.0557
3245.00,0.0553
3244.00,0.0550
3243.00,0.0547
3242.00,0.0543
3241.00,0.0539
3240.00,0.0535
3239.00,0.0531
3238.00,0.0526
3237.00,0.0522
3236.00,0.0517
3235.00,0.0513
3234.00,0.0509
3233.00,0.0507
3232.00,0.0504
3231.00,0.0502
3230.00,0.0500
3229.00,0.0497
3228.00,0.0495
3227.00,0.0492
3226.00,0.0489
3225.00,0.0486
3224.00,0.0483
3223.00,0.0480
3222.00,0.0477
3221.00,0.0473
3220.00,0.0471
3219.00,0.0468
3218.00,0.0466
3217.00,0.0463
3216.00,0.0461
3215.00,0.0459
3214.00,0.0457
3213.00,0.0455
3212.00,0.0453
3211.00,0.0450
3210.00,0.0448
3209.00,0.0446
3208.00,0.0443
3207.00,0.0441
3206.00,0.0439
3205.00,0.0437
3204.00,0.0434
3203.00,0.0432
3202.00,0.0430
3201.00,0.0428
3200.00,0.0426
3199.00,0.0424
3198.00,0.0421
3197.00,0.0419
3196.00,0.0417
3195.00,0.0415
3194.00,0.0413
3193.00,0.0411
3192.00,0.0409
3191.00,0.0407
3190.00,0.0405
3189.00,0.0403
3188.00,0.0401
3187.00,0.0399
3186.00,0.0397
3185.00,0.0395
3184.00,0.0393
3183.00,0.0391
3182.00,0.0389
3181.00,0.0387
3180.00,0.0385
3179.00,0.0383
3178.00,0.0381
3177.00,0.0379
3176.00,0.0377
3175.00,0.0376
3174.00,0.0374
3173.00,0.0372
3172.00,0.0370
3171.00,0.0368
3170.00,0.0367
3169.00,0.0365
3168.00,0.0363
3167.00,0.0361
3166.00,0.0360
3165.00,0.0358
3164.00,0.0356
3163.00,0.0355
3162.00,0.0353
3161.00,0.0352
3160.00,0.0350
3159.00,0.0349
3158.00,0.0347
3157.00,0.0345
3156.00,0.0343
3155.00,0.0341
3154.00,0.0339
3153.00,0.0337
3152.00,0.0336
3151.00,0.0336
3150.00,0.0335
3149.00,0.0334
3148.00,0.0333
3147.00,0.0332
3146.00,0.0331
3145.00,0.0329
3144.00,0.0328
3143.00,0.0326
3142.00,0.0325
3141.00,0.0323
3140.00,0.0322
3139.00,0.0321
3138.00,0.0320
3137.00,0.0319
3136.00,0.0319
3135.00,0.0318
3134.00,0.0317
3133.00,0.0317
3132.00,0.0316
3131.00,0.0315
3130.00,0.0314
3129.00,0.0314
3128.00,0.0314
3127.00,0.0313
3126.00,0.0313
3125.00,0.0312
3124.00,0.0311
3123.00,0.0310
3122.00,0.0308
3121.00,0.0307
3120.00,0.0307
3119.00,0.0306
3118.00,0.0306
3117.00,0.0306
3116.00,0.0307
3115.00,0.0307
3114.00,0.0308
3113.00,0.0309
3112.00,0.0310
3111.00,0.0309
3110.00,0.0309
3109.00,0.0309
3108.00,0.0310
3107.00,0.0311
3106.00,0.0312
3105.00,0.0313
3104.00,0.0313
3103.00,0.0313
3102.00,0.0313
3101.00,0.0314
3100.00,0.0314
3099.00,0.0315
3098.00,0.0316
3097.00,0.0317
3096.00,0.0318
3095.00,0.0319
3094.00,0.0319
3093.00,0.0319
3092.00,0.0319
3091.00,0.0319
3090.00,0.0319
3089.00,0.0320
3088.00,0.0320
3087.00,0.0320
3086.00,0.0320
3085.00,0.0320
3084.00,0.0320
3083.00,0.0320
3082.00,0.0320
3081.00,0.0319
3080.00,0.0319
3079.00,0.0319
3078.00,0.0320
3077.00,0.0320
3076.00,0.0321
3075.00,0.0321
3074.00,0.0321
3073.00,0.0321
3072.00,0.0320
3071.00,0.0319
3070.00,0.0317
3069.00,0.0316
3068.00,0.0315
3067.00,0.0314
3066.00,0.0313
3065.00,0.0313
3064.00,0.0312
3063.00,0.0312
3062.00,0.0311
3061.00,0.0310
3060.00,0.0308
3059.00,0.0306
3058.00,0.0304
3057.00,0.0302
3056.00,0.0301
3055.00,0.0299
3054.00,0.0297
3053.00,0.0295
3052.00,0.0293
3051.00,0.0291
3050.00,0.0289
3049.00,0.0288
3048.00,0.0286
3047.00,0.0284
3046.00,0.0282
3045.00,0.0280
3044.00,0.0278
3043.00,0.0276
3042.00,0.0275
3041.00,0.0274
3040.00,0.0274
3039.00,0.0273
3038.00,0.0272
3037.00,0.0270
3036.00,0.0268
3035.00,0.0266
3034.00,0.0264
3033.00,0.0263
3032.00,0.0263
3031.00,0.0262
3030.00,0.0261
3029.00,0.0260
3028.00,0.0259
3027.00,0.0257
3026.00,0.0256
3025.00,0.0254
3024.00,0.0253
3023.00,0.0251
3022.00,0.0250
3021.00,0.0248
3020.00,0.0246
3019.00,0.0244
3018.00,0.0242
3017.00,0.0241
3016.00,0.0239
3015.00,0.0238
3014.00,0.0237
3013.00,0.0237
3012.00,0.0237
3011.00,0.0237
3010.00,0.0237
3009.00,0.0237
3008.00,0.0237
3007.00,0.0237
3006.00,0.0236
3005.00,0.0236
3004.00,0.0235
3003.00,0.0235
3002.00,0.0235
3001.00,0.0235
3000.00,0.0235
2999.00,0.0235
2998.00,0.0236
2997.00,0.0236
2996.00,0.0238
2995.00,0.0239
2994.00,0.0240
2993.00,0.0241
2992.00,0.0243
2991.00,0.0245
2990.00,0.0248
2989.00,0.0250
2988.00,0.0253
2987.00,0.0256
2986.00,0.0259
2985.00,0.0262
2984.00,0.0265
2983.00,0.0268
2982.00,0.0271
2981.00,0.0275
2980.00,0.0279
2979.00,0.0283
2978.00,0.0287
2977.00,0.0292
2976.00,0.0296
2975.00,0.0300
2974.00,0.0304
2973.00,0.0308
2972.00,0.0312
2971.00,0.0317
2970.00,0.0321
2969.00,0.0324
2968.00,0.0327
2967.00,0.0331
2966.00,0.0333
2965.00,0.0336
2964.00,0.0337
2963.00,0.0339
2962.00,0.0340
2961.00,0.0340
2960.00,0.0340
2959.00,0.0339
2958.00,0.0337
2957.00,0.0334
2956.00,0.0331
2955.00,0.0328
2954.00,0.0325
2953.00,0.0322
2952.00,0.0319
2951.00,0.0317
2950.00,0.0315
2949.00,0.0313
2948.00,0.0312
2947.00,0.0311
2946.00,0.0311
2945.00,0.0313
2944.00,0.0315
2943.00,0.0317
2942.00,0.0320
2941.00,0.0323
2940.00,0.0326
2939.00,0.0329
2938.00,0.0333
2937.00,0.0336
2936.00,0.0338
2935.00,0.0341
2934.00,0.0343
2933.00,0.0344
2932.00,0.0346
2931.00,0.0346
2930.00,0.0347
2929.00,0.0348
2928.00,0.0348
2927.00,0.0347
2926.00,0.0347
2925.00,0.0346
2924.00,0.0345
2923.00,0.0344
2922.00,0.0342
2921.00,0.0339
2920.00,0.0336
2919.00,0.0332
2918.00,0.0328
2917.00,0.0324
2916.00,0.0319
2915.00,0.0315
2914.00,0.0310
2913.00,0.0305
2912.00,0.0301
2911.00,0.0296
2910.00,0.0292
2909.00,0.0289
2908.00,0.0285
2907.00,0.0282
2906.00,0.0279
2905.00,0.0276
2904.00,0.0274
2903.00,0.0271
2902.00,0.0269
2901.00,0.0267
2900.00,0.0265
2899.00,0.0262
2898.00,0.0260
2897.00,0.0259
2896.00,0.0257
2895.00,0.0256
2894.00,0.0254
2893.00,0.0253
2892.00,0.0252
2891.00,0.0251
2890.00,0.0250
2889.00,0.0250
2888.00,0.0249
2887.00,0.0249
2886.00,0.0250
2885.00,0.0250
2884.00,0.0251
2883.00,0.0253
2882.00,0.0254
2881.00,0.0256
2880.00,0.0257
2879.00,0.0259
2878.00,0.0260
2877.00,0.0262
2876.00,0.0262
2875.00,0.0262
2874.00,0.0262
2873.00,0.0261
2872.00,0.0259
2871.00,0.0257
2870.00,0.0255
2869.00,0.0252
2868.00,0.0250
2867.00,0.0247
2866.00,0.0244
2865.00,0.0241
2864.00,0.0239
2863.00,0.0237
2862.00,0.0236
2861.00,0.0234
2860.00,0.0234
2859.00,0.0233
2858.00,0.0233
2857.00,0.0233
2856.00,0.0233
2855.00,0.0232
2854.00,0.0232
2853.00,0.0231
2852.00,0.0229
2851.00,0.0227
2850.00,0.0224
2849.00,0.0220
2848.00,0.0215
2847.00,0.0211
2846.00,0.0207
2845.00,0.0203
2844.00,0.0200
2843.00,0.0196
2842.00,0.0193
2841.00,0.0190
2840.00,0.0187
2839.00,0.0185
2838.00,0.0183
2837.00,0.0182
2836.00,0.0181
2835.00,0.0180
2834.00,0.0179
2833.00,0.0178
2832.00,0.0178
2831.00,0.0177
2830.00,0.0176
2829.00,0.0175
2828.00,0.0174
2827.00,0.0173
2826.00,0.0173
2825.00,0.0172
2824.00,0.0171
2823.00,0.0171
2822.00,0.0170
2821.00,0.0170
2820.00,0.0169
2819.00,0.0169
2818.00,0.0169
2817.00,0.0168
2816.00,0.0168
2815.00,0.0167
2814.00,0.0167
2813.00,0.0166
2812.00,0.0166
2811.00,0.0165
2810.00,0.0164
2809.00,0.0164
2808.00,0.0164
2807.00,0.0163
2806.00,0.0163
2805.00,0.0162
2804.00,0.0162
2803.00,0.0161
2802.00,0.0161
2801.00,0.0160
2800.00,0.0160
2799.00,0.0159
2798.00,0.0159
2797.00,0.0158
2796.00,0.0158
2795.00,0.0158
2794.00,0.0157
2793.00,0.0156
2792.00,0.0155
2791.00,0.0155
2790.00,0.0154
2789.00,0.0154
2788.00,0.0153
2787.00,0.0153
2786.00,0.0152
2785.00,0.0152
2784.00,0.0151
2783.00,0.0151
2782.00,0.0150
2781.00,0.0149
2780.00,0.0149
2779.00,0.0148
2778.00,0.0147
2777.00,0.0147
2776.00,0.0146
2775.00,0.0145
2774.00,0.0144
2773.00,0.0144
2772.00,0.0143
2771.00,0.0143
2770.00,0.0142
2769.00,0.0142
2768.00,0.0141
2767.00,0.0140
2766.00,0.0140
2765.00,0.0139
2764.00,0.0138
2763.00,0.0138
2762.00,0.0137
2761.00,0.0137
2760.00,0.0136
2759.00,0.0135
2758.00,0.0134
2757.00,0.0134
2756.00,0.0133
2755.00,0.0133
2754.00,0.0132
2753.00,0.0132
2752.00,0.0131
2751.00,0.0130
2750.00,0.0130
2749.00,0.0129
2748.00,0.0129
2747.00,0.0128
2746.00,0.0128
2745.00,0.0127
2744.00,0.0127
2743.00,0.0127
2742.00,0.0126
2741.00,0.0126
2740.00,0.0125
2739.00,0.0125
2738.00,0.0124
2737.00,0.0123
2736.00,0.0123
2735.00,0.0122
2734.00,0.0122
2733.00,0.0121
2732.00,0.0121
2731.00,0.0120
2730.00,0.0120
2729.00,0.0119
2728.00,0.0119
2727.00,0.0118
2726.00,0.0118
2725.00,0.0117
2724.00,0.0117
2723.00,0.0117
2722.00,0.0116
2721.00,0.0116
2720.00,0.0116
2719.00,0.0115
2718.00,0.0115
2717.00,0.0114
2716.00,0.0113
2715.00,0.0113
2714.00,0.0113
2713.00,0.0112
2712.00,0.0112
2711.00,0.0112
2710.00,0.0111
2709.00,0.0111
2708.00,0.0110
2707.00,0.0110
2706.00,0.0110
2705.00,0.0110
2704.00,0.0109
2703.00,0.0109
2702.00,0.0109
2701.00,0.0108
2700.00,0.0108
2699.00,0.0108
2698.00,0.0108
2697.00,0.0108
2696.00,0.0107
2695.00,0.0107
2694.00,0.0107
2693.00,0.0107
2692.00,0.0106
2691.00,0.0106
2690.00,0.0106
2689.00,0.0106
2688.00,0.0106
2687.00,0.0105
2686.00,0.0105
2685.00,0.0104
2684.00,0.0104
2683.00,0.0104
2682.00,0.0103
2681.00,0.0103
2680.00,0.0103
2679.00,0.0102
2678.00,0.0102
2677.00,0.0102
2676.00,0.0101
2675.00,0.0101
2674.00,0.0101
2673.00,0.0101
2672.00,0.0100
2671.00,0.0100
2670.00,0.0100
2669.00,0.0100
2668.00,0.0100
2667.00,0.0100
2666.00,0.0100
2665.00,0.0100
2664.00,0.0100
2663.00,0.0100
2662.00,0.0100
2661.00,0.0100
2660.00,0.0100
2659.00,0.0100
2658.00,0.0100
2657.00,0.0100
2656.00,0.0100
2655.00,0.0100
2654.00,0.0099
2653.00,0.0099
2652.00,0.0099
2651.00,0.0098
2650.00,0.0098
2649.00,0.0098
2648.00,0.0098
2647.00,0.0098
2646.00,0.0097
2645.00,0.0097
2644.00,0.0097
2643.00,0.0096
2642.00,0.0096
2641.00,0.0096
2640.00,0.0096
2639.00,0.0095
2638.00,0.0095
2637.00,0.0095
2636.00,0.0094
2635.00,0.0094
2634.00,0.0093
2633.00,0.0093
2632.00,0.0093
2631.00,0.0093
2630.00,0.0092
2629.00,0.0092
2628.00,0.0092
2627.00,0.0092
2626.00,0.0091
2625.00,0.0091
2624.00,0.0091
2623.00,0.0091
2622.00,0.0090
2621.00,0.0090
2620.00,0.0090
2619.00,0.0090
2618.00,0.0089
2617.00,0.0089
2616.00,0.0089
2615.00,0.0088
2614.00,0.0088
2613.00,0.0088
2612.00,0.0087
2611.00,0.0087
2610.00,0.0086
2609.00,0.0086
2608.00,0.0086
2607.00,0.0086
2606.00,0.0085
2605.00,0.0085
2604.00,0.0085
2603.00,0.0084
2602.00,0.0084
2601.00,0.0083
2600.00,0.0083
2599.00,0.0083
2598.00,0.0083
2597.00,0.0082
2596.00,0.0082
2595.00,0.0082
2594.00,0.0082
2593.00,0.0081
2592.00,0.0081
2591.00,0.0080
2590.00,0.0080
2589.00,0.0079
2588.00,0.0079
2587.00,0.0079
2586.00,0.0079
2585.00,0.0078
2584.00,0.0078
2583.00,0.0078
2582.00,0.0077
2581.00,0.0077
2580.00,0.0076
2579.00,0.0076
2578.00,0.0076
2577.00,0.0076
2576.00,0.0076
2575.00,0.0075
2574.00,0.0075
2573.00,0.0075
2572.00,0.0075
2571.00,0.0074
2570.00,0.0074
2569.00,0.0074
2568.00,0.0074
2567.00,0.0074
2566.00,0.0073
2565.00,0.0073
2564.00,0.0073
2563.00,0.0073
2562.00,0.0072
2561.00,0.0072
2560.00,0.0072
2559.00,0.0072
2558.00,0.0072
2557.00,0.0072
2556.00,0.0071
2555.00,0.0071
2554.00,0.0071
2553.00,0.0070
2552.00,0.0070
2551.00,0.0070
2550.00,0.0070
2549.00,0.0070
2548.00,0.0069
2547.00,0.0069
2546.00,0.0069
2545.00,0.0068
2544.00,0.0068
2543.00,0.0068
2542.00,0.0068
2541.00,0.0068
2540.00,0.0068
2539.00,0.0068
2538.00,0.0068
2537.00,0.0067
2536.00,0.0067
2535.00,0.0067
2534.00,0.0067
2533.00,0.0067
2532.00,0.0066
2531.00,0.0066
2530.00,0.0066
2529.00,0.0066
2528.00,0.0065
2527.00,0.0065
2526.00,0.0064
2525.00,0.0064
2524.00,0.0064
2523.00,0.0064
2522.00,0.0064
2521.00,0.0064
2520.00,0.0064
2519.00,0.0064
2518.00,0.0063
2517.00,0.0063
2516.00,0.0063
2515.00,0.0063
2514.00,0.0063
2513.00,0.0063
2512.00,0.0063
2511.00,0.0063
2510.00,0.0063
2509.00,0.0063
2508.00,0.0062
2507.00,0.0062
2506.00,0.0061
2505.00,0.0061
2504.00,0.0061
2503.00,0.0061
2502.00,0.0061
2501.00,0.0060
2500.00,0.0060
2499.00,0.0060
2498.00,0.0060
2497.00,0.0060
2496.00,0.0060
2495.00,0.0059
2494.00,0.0059
2493.00,0.0059
2492.00,0.0059
2491.00,0.0059
2490.00,0.0058
2489.00,0.0058
2488.00,0.0058
2487.00,0.0058
2486.00,0.0058
2485.00,0.0057
2484.00,0.0057
2483.00,0.0057
2482.00,0.0057
2481.00,0.0057
2480.00,0.0057
2479.00,0.0057
2478.00,0.0056
2477.00,0.0056
2476.00,0.0056
2475.00,0.0055
2474.00,0.0055
2473.00,0.0055
2472.00,0.0055
2471.00,0.0055
2470.00,0.0054
2469.00,0.0054
2468.00,0.0054
2467.00,0.0054
2466.00,0.0054
2465.00,0.0054
2464.00,0.0054
2463.00,0.0054
2462.00,0.0054
2461.00,0.0054
2460.00,0.0054
2459.00,0.0054
2458.00,0.0054
2457.00,0.0054
2456.00,0.0053
2455.00,0.0053
2454.00,0.0053
2453.00,0.0053
2452.00,0.0052
2451.00,0.0052
2450.00,0.0052
2449.00,0.0051
2448.00,0.0051
2447.00,0.0051
2446.00,0.0051
2445.00,0.0051
2444.00,0.0050
2443.00,0.0050
2442.00,0.0049
2441.00,0.0048
2440.00,0.0048
2439.00,0.0048
2438.00,0.0048
2437.00,0.0049
2436.00,0.0048
2435.00,0.0048
2434.00,0.0048
2433.00,0.0047
2432.00,0.0047
2431.00,0.0046
2430.00,0.0046
2429.00,0.0046
2428.00,0.0046
2427.00,0.0046
2426.00,0.0045
2425.00,0.0045
2424.00,0.0045
2423.00,0.0045
2422.00,0.0045
2421.00,0.0045
2420.00,0.0044
2419.00,0.0044
2418.00,0.0044
2417.00,0.0044
2416.00,0.0044
2415.00,0.0043
2414.00,0.0043
2413.00,0.0043
2412.00,0.0043
2411.00,0.0042
2410.00,0.0042
2409.00,0.0041
2408.00,0.0041
2407.00,0.0040
2406.00,0.0040
2405.00,0.0040
2404.00,0.0040
2403.00,0.0040
2402.00,0.0040
2401.00,0.0040
2400.00,0.0040
2399.00,0.0039
2398.00,0.0039
2397.00,0.0039
2396.00,0.0039
2395.00,0.0039
2394.00,0.0040
2393.00,0.0039
2392.00,0.0039
2391.00,0.0039
2390.00,0.0038
2389.00,0.0038
2388.00,0.0037
2387.00,0.0037
2386.00,0.0036
2385.00,0.0036
2384.00,0.0035
2383.00,0.0034
2382.00,0.0033
2381.00,0.0033
2380.00,0.0032
2379.00,0.0032
2378.00,0.0031
2377.00,0.0031
2376.00,0.0032
2375.00,0.0032
2374.00,0.0033
2373.00,0.0033
2372.00,0.0033
2371.00,0.0032
2370.00,0.0031
2369.00,0.0031
2368.00,0.0031
2367.00,0.0031
2366.00,0.0031
2365.00,0.0031
2364.00,0.0031
2363.00,0.0031
2362.00,0.0030
2361.00,0.0031
2360.00,0.0031
2359.00,0.0031
2358.00,0.0032
2357.00,0.0032
2356.00,0.0032
2355.00,0.0033
2354.00,0.0033
2353.00,0.0033
2352.00,0.0032
2351.00,0.0032
2350.00,0.0032
2349.00,0.0032
2348.00,0.0033
2347.00,0.0032
2346.00,0.0032
2345.00,0.0031
2344.00,0.0031
2343.00,0.0032
2342.00,0.0032
2341.00,0.0033
2340.00,0.0034
2339.00,0.0035
2338.00,0.0036
2337.00,0.0036
2336.00,0.0036
2335.00,0.0036
2334.00,0.0036
2333.00,0.0036
2332.00,0.0036
2331.00,0.0035
2330.00,0.0035
2329.00,0.0037
2328.00,0.0040
2327.00,0.0044
2326.00,0.0048
2325.00,0.0049
2324.00,0.0049
2323.00,0.0047
2322.00,0.0045
2321.00,0.0043
2320.00,0.0042
2319.00,0.0041
2318.00,0.0041
2317.00,0.0041
2316.00,0.0040
2315.00,0.0039
2314.00,0.0038
2313.00,0.0037
2312.00,0.0036
2311.00,0.0035
2310.00,0.0035
2309.00,0.0035
2308.00,0.0035
2307.00,0.0035
2306.00,0.0035
2305.00,0.0035
2304.00,0.0036
2303.00,0.0036
2302.00,0.0036
2301.00,0.0036
2300.00,0.0037
2299.00,0.0037
2298.00,0.0037
2297.00,0.0038
2296.00,0.0039
2295.00,0.0040
2294.00,0.0041
2293.00,0.0041
2292.00,0.0042
2291.00,0.0043
2290.00,0.0043
2289.00,0.0043
2288.00,0.0044
2287.00,0.0044
2286.00,0.0044
2285.00,0.0044
2284.00,0.0043
2283.00,0.0042
2282.00,0.0041
2281.00,0.0041
2280.00,0.0041
2279.00,0.0040
2278.00,0.0039
2277.00,0.0039
2276.00,0.0039
2275.00,0.0039
2274.00,0.0039
2273.00,0.0039
2272.00,0.0039
2271.00,0.0038
2270.00,0.0038
2269.00,0.0038
2268.00,0.0037
2267.00,0.0036
2266.00,0.0036
2265.00,0.0035
2264.00,0.0035
2263.00,0.0035
2262.00,0.0036
2261.00,0.0037
2260.00,0.0037
2259.00,0.0037
2258.00,0.0037
2257.00,0.0036
2256.00,0.0035
2255.00,0.0034
2254.00,0.0033
2253.00,0.0033
2252.00,0.0034
2251.00,0.0035
2250.00,0.0035
2249.00,0.0035
2248.00,0.0036
2247.00,0.0036
2246.00,0.0036
2245.00,0.0036
2244.00,0.0036
2243.00,0.0035
2242.00,0.0035
2241.00,0.0035
2240.00,0.0035
2239.00,0.0035
2238.00,0.0035
2237.00,0.0035
2236.00,0.0034
2235.00,0.0033
2234.00,0.0032
2233.00,0.0032
2232.00,0.0032
2231.00,0.0031
2230.00,0.0031
2229.00,0.0031
2228.00,0.0032
2227.00,0.0033
2226.00,0.0033
2225.00,0.0033
2224.00,0.0033
2223.00,0.0033
2222.00,0.0033
2221.00,0.0033
2220.00,0.0033
2219.00,0.0033
2218.00,0.0033
2217.00,0.0033
2216.00,0.0033
2215.00,0.0033
2214.00,0.0032
2213.00,0.0031
2212.00,0.0031
2211.00,0.0030
2210.00,0.0030
2209.00,0.0030
2208.00,0.0030
2207.00,0.0030
2206.00,0.0030
2205.00,0.0030
2204.00,0.0031
2203.00,0.0031
2202.00,0.0031
2201.00,0.0032
2200.00,0.0033
2199.00,0.0033
2198.00,0.0032
2197.00,0.0032
2196.00,0.0032
2195.00,0.0032
2194.00,0.0032
2193.00,0.0033
2192.00,0.0034
2191.00,0.0035
2190.00,0.0036
2189.00,0.0036
2188.00,0.0036
2187.00,0.0035
2186.00,0.0034
2185.00,0.0032
2184.00,0.0030
2183.00,0.0028
2182.00,0.0026
2181.00,0.0027
2180.00,0.0028
2179.00,0.0029
2178.00,0.0028
2177.00,0.0027
2176.00,0.0027
2175.00,0.0027
2174.00,0.0028
2173.00,0.0029
2172.00,0.0030
2171.00,0.0032
2170.00,0.0034
2169.00,0.0036
2168.00,0.0037
2167.00,0.0037
2166.00,0.0036
2165.00,0.0038
2164.00,0.0041
2163.00,0.0041
2162.00,0.0037
2161.00,0.0027
2160.00,0.0013
2159.00,0.0002
2158.00,-0.0005
2157.00,-0.0005
2156.00,-0.0002
2155.00,0.0001
2154.00,0.0003
2153.00,0.0005
2152.00,0.0008
2151.00,0.0009
2150.00,0.0010
2149.00,0.0011
2148.00,0.0012
2147.00,0.0012
2146.00,0.0012
2145.00,0.0012
2144.00,0.0011
2143.00,0.0011
2142.00,0.0011
2141.00,0.0012
2140.00,0.0014
2139.00,0.0014
2138.00,0.0014
2137.00,0.0012
2136.00,0.0011
2135.00,0.0009
2134.00,0.0009
2133.00,0.0010
2132.00,0.0013
2131.00,0.0016
2130.00,0.0018
2129.00,0.0020
2128.00,0.0022
2127.00,0.0023
2126.00,0.0023
2125.00,0.0023
2124.00,0.0023
2123.00,0.0024
2122.00,0.0024
2121.00,0.0025
2120.00,0.0026
2119.00,0.0027
2118.00,0.0028
2117.00,0.0029
2116.00,0.0030
2115.00,0.0030
2114.00,0.0030
2113.00,0.0030
2112.00,0.0031
2111.00,0.0031
2110.00,0.0032
2109.00,0.0032
2108.00,0.0032
2107.00,0.0032
2106.00,0.0032
2105.00,0.0032
2104.00,0.0033
2103.00,0.0032
2102.00,0.0032
2101.00,0.0032
2100.00,0.0032
2099.00,0.0032
2098.00,0.0030
2097.00,0.0028
2096.00,0.0026
2095.00,0.0025
2094.00,0.0025
2093.00,0.0026
2092.00,0.0028
2091.00,0.0029
2090.00,0.0029
2089.00,0.0030
2088.00,0.0030
2087.00,0.0030
2086.00,0.0030
2085.00,0.0030
2084.00,0.0031
2083.00,0.0030
2082.00,0.0030
2081.00,0.0031
2080.00,0.0031
2079.00,0.0032
2078.00,0.0032
2077.00,0.0033
2076.00,0.0033
2075.00,0.0033
2074.00,0.0032
2073.00,0.0032
2072.00,0.0032
2071.00,0.0031
2070.00,0.0030
2069.00,0.0030
2068.00,0.0030
2067.00,0.0029
2066.00,0.0028
2065.00,0.0027
2064.00,0.0027
2063.00,0.0027
2062.00,0.0027
2061.00,0.0027
2060.00,0.0027
2059.00,0.0027
2058.00,0.0027
2057.00,0.0027
2056.00,0.0027
2055.00,0.0027
2054.00,0.0029
2053.00,0.0033
2052.00,0.0037
2051.00,0.0037
2050.00,0.0034
2049.00,0.0030
2048.00,0.0028
2047.00,0.0027
2046.00,0.0027
2045.00,0.0027
2044.00,0.0028
2043.00,0.0026
2042.00,0.0024
2041.00,0.0023
2040.00,0.0024
2039.00,0.0025
2038.00,0.0025
2037.00,0.0025
2036.00,0.0025
2035.00,0.0024
2034.00,0.0023
2033.00,0.0022
2032.00,0.0023
2031.00,0.0023
2030.00,0.0021
2029.00,0.0019
2028.00,0.0018
2027.00,0.0016
2026.00,0.0015
2025.00,0.0015
2024.00,0.0016
2023.00,0.0016
2022.00,0.0014
2021.00,0.0013
2020.00,0.0013
2019.00,0.0013
2018.00,0.0013
2017.00,0.0014
2016.00,0.0014
2015.00,0.0014
2014.00,0.0014
2013.00,0.0016
2012.00,0.0017
2011.00,0.0018
2010.00,0.0016
2009.00,0.0015
2008.00,0.0014
2007.00,0.0012
2006.00,0.0011
2005.00,0.0012
2004.00,0.0014
2003.00,0.0016
2002.00,0.0017
2001.00,0.0018
2000.00,0.0019
1999.00,0.0019
1998.00,0.0018
1997.00,0.0019
1996.00,0.0020
1995.00,0.0020
1994.00,0.0020
1993.00,0.0020
1992.00,0.0020
1991.00,0.0021
1990.00,0.0021
1989.00,0.0022
1988.00,0.0024
1987.00,0.0026
1986.00,0.0027
1985.00,0.0029
1984.00,0.0030
1983.00,0.0032
1982.00,0.0033
1981.00,0.0033
1980.00,0.0031
1979.00,0.0025
1978.00,0.0017
1977.00,0.0013
1976.00,0.0011
1975.00,0.0010
1974.00,0.0010
1973.00,0.0011
1972.00,0.0013
1971.00,0.0014
1970.00,0.0014
1969.00,0.0014
1968.00,0.0014
1967.00,0.0012
1966.00,0.0010
1965.00,0.0010
1964.00,0.0010
1963.00,0.0010
1962.00,0.0009
1961.00,0.0009
1960.00,0.0010
1959.00,0.0010
1958.00,0.0009
1957.00,0.0009
1956.00,0.0010
1955.00,0.0010
1954.00,0.0011
1953.00,0.0012
1952.00,0.0014
1951.00,0.0015
1950.00,0.0015
1949.00,0.0015
1948.00,0.0015
1947.00,0.0016
1946.00,0.0015
1945.00,0.0015
1944.00,0.0016
1943.00,0.0016
1942.00,0.0016
1941.00,0.0016
1940.00,0.0017
1939.00,0.0017
1938.00,0.0018
1937.00,0.0018
1936.00,0.0019
1935.00,0.0019
1934.00,0.0018
1933.00,0.0018
1932.00,0.0018
1931.00,0.0017
1930.00,0.0016
1929.00,0.0016
1928.00,0.0017
1927.00,0.0017
1926.00,0.0017
1925.00,0.0018
1924.00,0.0019
1923.00,0.0020
1922.00,0.0021
1921.00,0.0021
1920.00,0.0021
1919.00,0.0020
1918.00,0.0019
1917.00,0.0019
1916.00,0.0019
1915.00,0.0020
1914.00,0.0020
1913.00,0.0021
1912.00,0.0022
1911.00,0.0023
1910.00,0.0023
1909.00,0.0023
1908.00,0.0023
1907.00,0.0023
1906.00,0.0022
1905.00,0.0022
1904.00,0.0022
1903.00,0.0022
1902.00,0.0022
1901.00,0.0022
1900.00,0.0022
1899.00,0.0022
1898.00,0.0022
1897.00,0.0023
1896.00,0.0024
1895.00,0.0024
1894.00,0.0024
1893.00,0.0024
1892.00,0.0024
1891.00,0.0024
1890.00,0.0024
1889.00,0.0024
1888.00,0.0024
1887.00,0.0024
1886.00,0.0024
1885.00,0.0024
1884.00,0.0025
1883.00,0.0025
1882.00,0.0025
1881.00,0.0025
1880.00,0.0024
1879.00,0.0024
1878.00,0.0024
1877.00,0.0024
1876.00,0.0024
1875.00,0.0024
1874.00,0.0024
1873.00,0.0024
1872.00,0.0025
1871.00,0.0024
1870.00,0.0024
1869.00,0.0024
1868.00,0.0025
1867.00,0.0026
1866.00,0.0026
1865.00,0.0026
1864.00,0.0026
1863.00,0.0026
1862.00,0.0026
1861.00,0.0027
1860.00,0.0027
1859.00,0.0027
1858.00,0.0027
1857.00,0.0027
1856.00,0.0027
1855.00,0.0026
1854.00,0.0026
1853.00,0.0027
1852.00,0.0027
1851.00,0.0027
1850.00,0.0027
1849.00,0.0027
1848.00,0.0028
1847.00,0.0027
1846.00,0.0026
1845.00,0.0025
1844.00,0.0025
1843.00,0.0024
1842.00,0.0023
1841.00,0.0024
1840.00,0.0026
1839.00,0.0028
1838.00,0.0030
1837.00,0.0031
1836.00,0.0031
1835.00,0.0031
1834.00,0.0030
1833.00,0.0030
1832.00,0.0030
1831.00,0.0030
1830.00,0.0030
1829.00,0.0031
1828.00,0.0031
1827.00,0.0031
1826.00,0.0031
1825.00,0.0031
1824.00,0.0031
1823.00,0.0031
1822.00,0.0031
1821.00,0.0032
1820.00,0.0032
1819.00,0.0032
1818.00,0.0031
1817.00,0.0031
1816.00,0.0031
1815.00,0.0032
1814.00,0.0033
1813.00,0.0035
1812.00,0.0036
1811.00,0.0037
1810.00,0.0038
1809.00,0.0038
1808.00,0.0038
1807.00,0.0038
1806.00,0.0038
1805.00,0.0038
1804.00,0.0039
1803.00,0.0038
1802.00,0.0037
1801.00,0.0038
1800.00,0.0038
1799.00,0.0039
1798.00,0.0040
1797.00,0.0041
1796.00,0.0042
1795.00,0.0043
1794.00,0.0042
1793.00,0.0041
1792.00,0.0040
1791.00,0.0040
1790.00,0.0039
1789.00,0.0040
1788.00,0.0042
1787.00,0.0044
1786.00,0.0044
1785.00,0.0044
1784.00,0.0044
1783.00,0.0045
1782.00,0.0046
1781.00,0.0048
1780.00,0.0049
1779.00,0.0050
1778.00,0.0049
1777.00,0.0049
1776.00,0.0050
1775.00,0.0051
1774.00,0.0051
1773.00,0.0051
1772.00,0.0052
1771.00,0.0052
1770.00,0.0051
1769.00,0.0050
1768.00,0.0050
1767.00,0.0051
1766.00,0.0052
1765.00,0.0054
1764.00,0.0056
1763.00,0.0058
1762.00,0.0059
1761.00,0.0060
1760.00,0.0061
1759.00,0.0062
1758.00,0.0064
1757.00,0.0066
1756.00,0.0068
1755.00,0.0069
1754.00,0.0071
1753.00,0.0073
1752.00,0.0075
1751.00,0.0078
1750.00,0.0081
1749.00,0.0085
1748.00,0.0090
1747.00,0.0095
1746.00,0.0097
1745.00,0.0100
1744.00,0.0103
1743.00,0.0106
1742.00,0.0107
1741.00,0.0109
1740.00,0.0112
1739.00,0.0114
1738.00,0.0116
1737.00,0.0118
1736.00,0.0119
1735.00,0.0120
1734.00,0.0121
1733.00,0.0123
1732.00,0.0127
1731.00,0.0132
1730.00,0.0136
1729.00,0.0141
1728.00,0.0144
1727.00,0.0146
1726.00,0.0148
1725.00,0.0150
1724.00,0.0154
1723.00,0.0157
1722.00,0.0159
1721.00,0.0161
1720.00,0.0162
1719.00,0.0165
1718.00,0.0168
1717.00,0.0174
1716.00,0.0180
1715.00,0.0184
1714.00,0.0188
1713.00,0.0194
1712.00,0.0202
1711.00,0.0210
1710.00,0.0218
1709.00,0.0227
1708.00,0.0238
1707.00,0.0251
1706.00,0.0267
1705.00,0.0286
1704.00,0.0304
1703.00,0.0318
1702.00,0.0335
1701.00,0.0366
1700.00,0.0412
1699.00,0.0453
1698.00,0.0483
1697.00,0.0512
1696.00,0.0542
1695.00,0.0566
1694.00,0.0578
1693.00,0.0586
1692.00,0.0594
1691.00,0.0604
1690.00,0.0615
1689.00,0.0627
1688.00,0.0637
1687.00,0.0645
1686.00,0.0654
1685.00,0.0673
1684.00,0.0704
1683.00,0.0730
1682.00,0.0745
1681.00,0.0759
1680.00,0.0777
1679.00,0.0794
1678.00,0.0807
1677.00,0.0819
1676.00,0.0837
1675.00,0.0860
1674.00,0.0882
1673.00,0.0900
1672.00,0.0916
1671.00,0.0935
1670.00,0.0959
1669.00,0.0987
1668.00,0.1011
1667.00,0.1028
1666.00,0.1043
1665.00,0.1058
1664.00,0.1078
1663.00,0.1104
1662.00,0.1133
1661.00,0.1158
1660.00,0.1179
1659.00,0.1198
1658.00,0.1215
1657.00,0.1227
1656.00,0.1234
1655.00,0.1240
1654.00,0.1260
1653.00,0.1303
1652.00,0.1337
1651.00,0.1345
1650.00,0.1345
1649.00,0.1344
1648.00,0.1350
1647.00,0.1364
1646.00,0.1378
1645.00,0.1385
1644.00,0.1386
1643.00,0.1388
1642.00,0.1391
1641.00,0.1395
1640.00,0.1401
1639.00,0.1405
1638.00,0.1410
1637.00,0.1422
1636.00,0.1451
1635.00,0.1486
1634.00,0.1510
1633.00,0.1527
1632.00,0.1544
1631.00,0.1564
1630.00,0.1588
1629.00,0.1619
1628.00,0.1656
1627.00,0.1693
1626.00,0.1723
1625.00,0.1752
1624.00,0.1787
1623.00,0.1828
1622.00,0.1862
1621.00,0.1880
1620.00,0.1887
1619.00,0.1887
1618.00,0.1884
1617.00,0.1881
1616.00,0.1874
1615.00,0.1855
1614.00,0.1823
1613.00,0.1782
1612.00,0.1737
1611.00,0.1688
1610.00,0.1636
1609.00,0.1581
1608.00,0.1526
1607.00,0.1472
1606.00,0.1419
1605.00,0.1367
1604.00,0.1318
1603.00,0.1273
1602.00,0.1232
1601.00,0.1193
1600.00,0.1157
1599.00,0.1125
1598.00,0.1097
1597.00,0.1071
1596.00,0.1047
1595.00,0.1025
1594.00,0.1005
1593.00,0.0987
1592.00,0.0969
1591.00,0.0953
1590.00,0.0941
1589.00,0.0929
1588.00,0.0919
1587.00,0.0910
1586.00,0.0903
1585.00,0.0898
1584.00,0.0894
1583.00,0.0891
1582.00,0.0890
1581.00,0.0891
1580.00,0.0890
1579.00,0.0889
1578.00,0.0892
1577.00,0.0901
1576.00,0.0917
1575.00,0.0931
1574.00,0.0939
1573.00,0.0944
1572.00,0.0948
1571.00,0.0957
1570.00,0.0976
1569.00,0.0998
1568.00,0.1015
1567.00,0.1028
1566.00,0.1042
1565.00,0.1059
1564.00,0.1076
1563.00,0.1086
1562.00,0.1089
1561.00,0.1090
1560.00,0.1104
1559.00,0.1151
1558.00,0.1203
1557.00,0.1225
1556.00,0.1236
1555.00,0.1253
1554.00,0.1276
1553.00,0.1297
1552.00,0.1315
1551.00,0.1333
1550.00,0.1355
1549.00,0.1377
1548.00,0.1392
1547.00,0.1403
1546.00,0.1413
1545.00,0.1427
1544.00,0.1443
1543.00,0.1456
1542.00,0.1470
1541.00,0.1492
1540.00,0.1528
1539.00,0.1559
1538.00,0.1572
1537.00,0.1573
1536.00,0.1571
1535.00,0.1574
1534.00,0.1587
1533.00,0.1607
1532.00,0.1622
1531.00,0.1628
1530.00,0.1630
1529.00,0.1632
1528.00,0.1635
1527.00,0.1640
1526.00,0.1644
1525.00,0.1645
1524.00,0.1641
1523.00,0.1637
1522.00,0.1640
1521.00,0.1649
1520.00,0.1652
1519.00,0.1648
1518.00,0.1645
1517.00,0.1645
1516.00,0.1643
1515.00,0.1632
1514.00,0.1612
1513.00,0.1585
1512.00,0.1556
1511.00,0.1525
1510.00,0.1491
1509.00,0.1456
1508.00,0.1419
1507.00,0.1386
1506.00,0.1354
1505.00,0.1316
1504.00,0.1282
1503.00,0.1252
1502.00,0.1221
1501.00,0.1189
1500.00,0.1157
1499.00,0.1126
1498.00,0.1097
1497.00,0.1067
1496.00,0.1038
1495.00,0.1010
1494.00,0.0983
1493.00,0.0956
1492.00,0.0929
1491.00,0.0902
1490.00,0.0878
1489.00,0.0856
1488.00,0.0835
1487.00,0.0816
1486.00,0.0797
1485.00,0.0780
1484.00,0.0765
1483.00,0.0753
1482.00,0.0742
1481.00,0.0734
1480.00,0.0727
1479.00,0.0721
1478.00,0.0716
1477.00,0.0714
1476.00,0.0715
1475.00,0.0718
1474.00,0.0725
1473.00,0.0737
1472.00,0.0753
1471.00,0.0766
1470.00,0.0774
1469.00,0.0779
1468.00,0.0782
1467.00,0.0784
1466.00,0.0785
1465.00,0.0788
1464.00,0.0792
1463.00,0.0796
1462.00,0.0797
1461.00,0.0798
1460.00,0.0799
1459.00,0.0802
1458.00,0.0811
1457.00,0.0828
1456.00,0.0843
1455.00,0.0850
1454.00,0.0854
1453.00,0.0858
1452.00,0.0859
1451.00,0.0859
1450.00,0.0857
1449.00,0.0855
1448.00,0.0854
1447.00,0.0852
1446.00,0.0850
1445.00,0.0847
1444.00,0.0843
1443.00,0.0839
1442.00,0.0835
1441.00,0.0830
1440.00,0.0824
1439.00,0.0815
1438.00,0.0804
1437.00,0.0793
1436.00,0.0784
1435.00,0.0777
1434.00,0.0770
1433.00,0.0762
1432.00,0.0753
1431.00,0.0745
1430.00,0.0737
1429.00,0.0731
1428.00,0.0726
1427.00,0.0722
1426.00,0.0720
1425.00,0.0721
1424.00,0.0724
1423.00,0.0727
1422.00,0.0729
1421.00,0.0729
1420.00,0.0733
1419.00,0.0744
1418.00,0.0758
1417.00,0.0770
1416.00,0.0780
1415.00,0.0791
1414.00,0.0801
1413.00,0.0810
1412.00,0.0819
1411.00,0.0829
1410.00,0.0838
1409.00,0.0845
1408.00,0.0851
1407.00,0.0857
1406.00,0.0863
1405.00,0.0870
1404.00,0.0877
1403.00,0.0882
1402.00,0.0885
1401.00,0.0886
1400.00,0.0889
1399.00,0.0893
1398.00,0.0897
1397.00,0.0899
1396.00,0.0901
1395.00,0.0904
1394.00,0.0907
1393.00,0.0908
1392.00,0.0909
1391.00,0.0909
1390.00,0.0908
1389.00,0.0905
1388.00,0.0902
1387.00,0.0899
1386.00,0.0894
1385.00,0.0888
1384.00,0.0879
1383.00,0.0870
1382.00,0.0860
1381.00,0.0850
1380.00,0.0840
1379.00,0.0830
1378.00,0.0821
1377.00,0.0811
1376.00,0.0803
1375.00,0.0795
1374.00,0.0789
1373.00,0.0784
1372.00,0.0778
1371.00,0.0772
1370.00,0.0766
1369.00,0.0760
1368.00,0.0752
1367.00,0.0743
1366.00,0.0732
1365.00,0.0721
1364.00,0.0710
1363.00,0.0701
1362.00,0.0695
1361.00,0.0689
1360.00,0.0685
1359.00,0.0682
1358.00,0.0680
1357.00,0.0680
1356.00,0.0680
1355.00,0.0681
1354.00,0.0684
1353.00,0.0686
1352.00,0.0688
1351.00,0.0690
1350.00,0.0693
1349.00,0.0694
1348.00,0.0695
1347.00,0.0695
1346.00,0.0695
1345.00,0.0694
1344.00,0.0693
1343.00,0.0691
1342.00,0.0688
1341.00,0.0686
1340.00,0.0684
1339.00,0.0682
1338.00,0.0679
1337.00,0.0676
1336.00,0.0673
1335.00,0.0670
1334.00,0.0667
1333.00,0.0664
1332.00,0.0661
1331.00,0.0658
1330.00,0.0657
1329.00,0.0655
1328.00,0.0654
1327.00,0.0654
1326.00,0.0653
1325.00,0.0654
1324.00,0.0654
1323.00,0.0655
1322.00,0.0656
1321.00,0.0657
1320.00,0.0658
1319.00,0.0659
1318.00,0.0660
1317.00,0.0661
1316.00,0.0661
1315.00,0.0661
1314.00,0.0661
1313.00,0.0660
1312.00,0.0659
1311.00,0.0658
1310.00,0.0657
1309.00,0.0655
1308.00,0.0654
1307.00,0.0652
1306.00,0.0650
1305.00,0.0648
1304.00,0.0647
1303.00,0.0646
1302.00,0.0645
1301.00,0.0644
1300.00,0.0644
1299.00,0.0644
1298.00,0.0644
1297.00,0.0645
1296.00,0.0646
1295.00,0.0647
1294.00,0.0649
1293.00,0.0652
1292.00,0.0654
1291.00,0.0657
1290.00,0.0660
1289.00,0.0662
1288.00,0.0664
1287.00,0.0667
1286.00,0.0669
1285.00,0.0671
1284.00,0.0672
1283.00,0.0674
1282.00,0.0675
1281.00,0.0676
1280.00,0.0677
1279.00,0.0678
1278.00,0.0678
1277.00,0.0678
1276.00,0.0678
1275.00,0.0679
1274.00,0.0679
1273.00,0.0680
1272.00,0.0682
1271.00,0.0684
1270.00,0.0687
1269.00,0.0691
1268.00,0.0694
1267.00,0.0699
1266.00,0.0704
1265.00,0.0709
1264.00,0.0715
1263.00,0.0721
1262.00,0.0728
1261.00,0.0735
1260.00,0.0743
1259.00,0.0750
1258.00,0.0758
1257.00,0.0765
1256.00,0.0772
1255.00,0.0780
1254.00,0.0787
1253.00,0.0795
1252.00,0.0802
1251.00,0.0809
1250.00,0.0816
1249.00,0.0823
1248.00,0.0830
1247.00,0.0836
1246.00,0.0843
1245.00,0.0849
1244.00,0.0854
1243.00,0.0859
1242.00,0.0864
1241.00,0.0868
1240.00,0.0872
1239.00,0.0876
1238.00,0.0879
1237.00,0.0882
1236.00,0.0884
1235.00,0.0886
1234.00,0.0887
1233.00,0.0887
1232.00,0.0886
1231.00,0.0885
1230.00,0.0883
1229.00,0.0881
1228.00,0.0877
1227.00,0.0874
1226.00,0.0869
1225.00,0.0865
1224.00,0.0859
1223.00,0.0853
1222.00,0.0846
1221.00,0.0838
1220.00,0.0830
1219.00,0.0821
1218.00,0.0812
1217.00,0.0802
1216.00,0.0790
1215.00,0.0779
1214.00,0.0767
1213.00,0.0755
1212.00,0.0742
1211.00,0.0730
1210.00,0.0718
1209.00,0.0706
1208.00,0.0695
1207.00,0.0684
1206.00,0.0675
1205.00,0.0665
1204.00,0.0657
1203.00,0.0649
1202.00,0.0642
1201.00,0.0635
1200.00,0.0628
1199.00,0.0623
1198.00,0.0618
1197.00,0.0613
1196.00,0.0609
1195.00,0.0605
1194.00,0.0602
1193.00,0.0600
1192.00,0.0597
1191.00,0.0594
1190.00,0.0592
1189.00,0.0590
1188.00,0.0588
1187.00,0.0586
1186.00,0.0584
1185.00,0.0583
1184.00,0.0582
1183.00,0.0581
1182.00,0.0581
1181.00,0.0582
1180.00,0.0583
1179.00,0.0585
1178.00,0.0589
1177.00,0.0593
1176.00,0.0598
1175.00,0.0604
1174.00,0.0610
1173.00,0.0615
1172.00,0.0620
1171.00,0.0623
1170.00,0.0625
1169.00,0.0625
1168.00,0.0625
1167.00,0.0625
1166.00,0.0625
1165.00,0.0626
1164.00,0.0627
1163.00,0.0628
1162.00,0.0630
1161.00,0.0631
1160.00,0.0632
1159.00,0.0633
1158.00,0.0634
1157.00,0.0635
1156.00,0.0634
1155.00,0.0634
1154.00,0.0633
1153.00,0.0631
1152.00,0.0628
1151.00,0.0625
1150.00,0.0622
1149.00,0.0618
1148.00,0.0614
1147.00,0.0610
1146.00,0.0606
1145.00,0.0602
1144.00,0.0599
1143.00,0.0596
1142.00,0.0595
1141.00,0.0593
1140.00,0.0592
1139.00,0.0592
1138.00,0.0592
1137.00,0.0593
1136.00,0.0593
1135.00,0.0595
1134.00,0.0598
1133.00,0.0601
1132.00,0.0605
1131.00,0.0609
1130.00,0.0613
1129.00,0.0618
1128.00,0.0621
1127.00,0.0626
1126.00,0.0630
1125.00,0.0634
1124.00,0.0637
1123.00,0.0641
1122.00,0.0644
1121.00,0.0647
1120.00,0.0650
1119.00,0.0653
1118.00,0.0656
1117.00,0.0659
1116.00,0.0661
1115.00,0.0664
1114.00,0.0666
1113.00,0.0668
1112.00,0.0669
1111.00,0.0671
1110.00,0.0673
1109.00,0.0675
1108.00,0.0677
1107.00,0.0678
1106.00,0.0680
1105.00,0.0682
1104.00,0.0683
1103.00,0.0685
1102.00,0.0687
1101.00,0.0689
1100.00,0.0691
1099.00,0.0694
1098.00,0.0697
1097.00,0.0702
1096.00,0.0706
1095.00,0.0711
1094.00,0.0717
1093.00,0.0722
1092.00,0.0728
1091.00,0.0736
1090.00,0.0744
1089.00,0.0752
1088.00,0.0760
1087.00,0.0769
1086.00,0.0778
1085.00,0.0787
1084.00,0.0796
1083.00,0.0805
1082.00,0.0813
1081.00,0.0821
1080.00,0.0827
1079.00,0.0834
1078.00,0.0840
1077.00,0.0844
1076.00,0.0847
1075.00,0.0850
1074.00,0.0852
1073.00,0.0853
1072.00,0.0853
1071.00,0.0854
1070.00,0.0854
1069.00,0.0854
1068.00,0.0853
1067.00,0.0852
1066.00,0.0852
1065.00,0.0851
1064.00,0.0850
1063.00,0.0848
1062.00,0.0847
1061.00,0.0845
1060.00,0.0842
1059.00,0.0840
1058.00,0.0838
1057.00,0.0835
1056.00,0.0832
1055.00,0.0829
1054.00,0.0825
1053.00,0.0822
1052.00,0.0818
1051.00,0.0814
1050.00,0.0811
1049.00,0.0807
1048.00,0.0803
1047.00,0.0799
1046.00,0.0794
1045.00,0.0789
1044.00,0.0783
1043.00,0.0778
1042.00,0.0773
1041.00,0.0768
1040.00,0.0762
1039.00,0.0756
1038.00,0.0751
1037.00,0.0745
1036.00,0.0740
1035.00,0.0735
1034.00,0.0732
1033.00,0.0729
1032.00,0.0725
1031.00,0.0722
1030.00,0.0718
1029.00,0.0714
1028.00,0.0708
1027.00,0.0701
1026.00,0.0695
1025.00,0.0688
1024.00,0.0680
1023.00,0.0673
1022.00,0.0665
1021.00,0.0657
1020.00,0.0648
1019.00,0.0640
1018.00,0.0632
1017.00,0.0624
1016.00,0.0615
1015.00,0.0607
1014.00,0.0600
1013.00,0.0592
1012.00,0.0583
1011.00,0.0575
1010.00,0.0568
1009.00,0.0560
1008.00,0.0552
1007.00,0.0545
1006.00,0.0539
1005.00,0.0532
1004.00,0.0526
1003.00,0.0520
1002.00,0.0515
1001.00,0.0510
1000.00,0.0505
999.00,0.0501
998.00,0.0497
997.00,0.0494
996.00,0.0490
995.00,0.0487
994.00,0.0484
993.00,0.0481
992.00,0.0477
991.00,0.0475
990.00,0.0472
989.00,0.0471
988.00,0.0469
987.00,0.0467
986.00,0.0467
985.00,0.0467
984.00,0.0467
983.00,0.0468
982.00,0.0470
981.00,0.0471
980.00,0.0473
979.00,0.0476
978.00,0.0479
977.00,0.0482
976.00,0.0484
975.00,0.0486
974.00,0.0488
973.00,0.0488
972.00,0.0488
971.00,0.0487
970.00,0.0486
969.00,0.0485
968.00,0.0482
967.00,0.0480
966.00,0.0478
965.00,0.0476
964.00,0.0473
963.00,0.0471
962.00,0.0470
961.00,0.0468
960.00,0.0467
959.00,0.0466
958.00,0.0465
957.00,0.0464
956.00,0.0463
955.00,0.0462
954.00,0.0462
953.00,0.0462
952.00,0.0462
951.00,0.0463
950.00,0.0463
949.00,0.0463
948.00,0.0463
947.00,0.0464
946.00,0.0465
945.00,0.0467
944.00,0.0468
943.00,0.0470
942.00,0.0472
941.00,0.0474
940.00,0.0476
939.00,0.0477
938.00,0.0480
937.00,0.0482
936.00,0.0483
935.00,0.0484
934.00,0.0485
933.00,0.0485
932.00,0.0485
931.00,0.0484
930.00,0.0483
929.00,0.0481
928.00,0.0478
927.00,0.0476
926.00,0.0473
925.00,0.0471
924.00,0.0468
923.00,0.0465
922.00,0.0462
921.00,0.0459
920.00,0.0456
919.00,0.0454
918.00,0.0452
917.00,0.0450
916.00,0.0448
915.00,0.0446
914.00,0.0445
913.00,0.0444
912.00,0.0443
911.00,0.0442
910.00,0.0441
909.00,0.0441
908.00,0.0441
907.00,0.0441
906.00,0.0442
905.00,0.0443
904.00,0.0443
903.00,0.0444
902.00,0.0444
901.00,0.0445
900.00,0.0445
899.00,0.0445
898.00,0.0446
897.00,0.0446
896.00,0.0446
895.00,0.0446
894.00,0.0447
893.00,0.0447
892.00,0.0447
891.00,0.0448
890.00,0.0449
889.00,0.0450
888.00,0.0450
887.00,0.0451
886.00,0.0452
885.00,0.0452
884.00,0.0452
883.00,0.0452
882.00,0.0453
881.00,0.0453
880.00,0.0453
879.00,0.0454
878.00,0.0454
877.00,0.0455
876.00,0.0455
875.00,0.0454
874.00,0.0455
873.00,0.0454
872.00,0.0454
871.00,0.0453
870.00,0.0454
869.00,0.0455
868.00,0.0455
867.00,0.0456
866.00,0.0457
865.00,0.0459
864.00,0.0460
863.00,0.0462
862.00,0.0465
861.00,0.0467
860.00,0.0470
859.00,0.0473
858.00,0.0478
857.00,0.0483
856.00,0.0488
855.00,0.0493
854.00,0.0498
853.00,0.0502
852.00,0.0506
851.00,0.0508
850.00,0.0511
849.00,0.0513
848.00,0.0513
847.00,0.0514
846.00,0.0516
845.00,0.0518
844.00,0.0521
843.00,0.0524
842.00,0.0528
841.00,0.0532
840.00,0.0536
839.00,0.0541
838.00,0.0547
837.00,0.0553
836.00,0.0559
835.00,0.0565
834.00,0.0572
833.00,0.0578
832.00,0.0584
831.00,0.0589
830.00,0.0594
829.00,0.0598
828.00,0.0600
827.00,0.0601
826.00,0.0603
825.00,0.0605
824.00,0.0606
823.00,0.0606
822.00,0.0607
821.00,0.0608
820.00,0.0609
819.00,0.0611
818.00,0.0613
817.00,0.0616
816.00,0.0618
815.00,0.0621
814.00,0.0625
813.00,0.0628
812.00,0.0631
811.00,0.0634
810.00,0.0637
809.00,0.0641
808.00,0.0644
807.00,0.0648
806.00,0.0652
805.00,0.0656
804.00,0.0659
803.00,0.0663
802.00,0.0668
801.00,0.0673
800.00,0.0678
799.00,0.0683
798.00,0.0688
797.00,0.0693
796.00,0.0699
795.00,0.0705
794.00,0.0712
793.00,0.0720
792.00,0.0728
791.00,0.0736
790.00,0.0745
789.00,0.0753
788.00,0.0762
787.00,0.0770
786.00,0.0779
785.00,0.0787
784.00,0.0794
783.00,0.0799
782.00,0.0805
781.00,0.0809
780.00,0.0813
779.00,0.0817
778.00,0.0822
777.00,0.0826
776.00,0.0829
775.00,0.0832
774.00,0.0836
773.00,0.0840
772.00,0.0843
771.00,0.0846
770.00,0.0850
769.00,0.0853
768.00,0.0856
767.00,0.0859
766.00,0.0862
765.00,0.0865
764.00,0.0867
763.00,0.0870
762.00,0.0873
761.00,0.0876
760.00,0.0878
759.00,0.0881
758.00,0.0885
757.00,0.0889
756.00,0.0893
755.00,0.0897
754.00,0.0903
753.00,0.0908
752.00,0.0914
751.00,0.0919
750.00,0.0926
749.00,0.0932
748.00,0.0937
747.00,0.0942
746.00,0.0948
745.00,0.0953
744.00,0.0958
743.00,0.0961
742.00,0.0965
741.00,0.0969
740.00,0.0973
739.00,0.0977
738.00,0.0982
737.00,0.0987
736.00,0.0992
735.00,0.0999
734.00,0.1007
733.00,0.1017
732.00,0.1026
731.00,0.1037
730.00,0.1048
729.00,0.1060
728.00,0.1073
727.00,0.1086
726.00,0.1102
725.00,0.1118
724.00,0.1134
723.00,0.1150
722.00,0.1165
721.00,0.1180
720.00,0.1194
719.00,0.1206
718.00,0.1219
717.00,0.1230
716.00,0.1241
715.00,0.1252
714.00,0.1263
713.00,0.1274
712.00,0.1285
711.00,0.1295
710.00,0.1307
709.00,0.1318
708.00,0.1330
707.00,0.1343
706.00,0.1356
705.00,0.1369
704.00,0.1382
703.00,0.1395
702.00,0.1408
701.00,0.1419
700.00,0.1428
699.00,0.1434
698.00,0.1438
697.00,0.1439
696.00,0.1439
695.00,0.1437
694.00,0.1436
693.00,0.1434
692.00,0.1432
691.00,0.1431
690.00,0.1432
689.00,0.1432
688.00,0.1433
687.00,0.1434
686.00,0.1436
685.00,0.1437
684.00,0.1437
683.00,0.1438
682.00,0.1440
681.00,0.1442
680.00,0.1443
679.00,0.1445
678.00,0.1447
677.00,0.1448
676.00,0.1449
675.00,0.1450
674.00,0.1452
673.00,0.1454
672.00,0.1454
671.00,0.1454
670.00,0.1456
669.00,0.1464
668.00,0.1476
667.00,0.1488
666.00,0.1491
665.00,0.1488
664.00,0.1485
663.00,0.1485
662.00,0.1488
661.00,0.1491
660.00,0.1493
659.00,0.1495
658.00,0.1498
657.00,0.1500
656.00,0.1502
655.00,0.1504
654.00,0.1507
653.00,0.1509
652.00,0.1511
651.00,0.1513
650.00,0.1516
649.00,0.1520
648.00,0.1523
647.00,0.1527
646.00,0.1532
645.00,0.1536
644.00,0.1539
643.00,0.1542
642.00,0.1546
641.00,0.1550
640.00,0.1553
639.00,0.1557
638.00,0.1561
637.00,0.1565
636.00,0.1567
635.00,0.1569
634.00,0.1573
633.00,0.1577
632.00,0.1581
631.00,0.1585
630.00,0.1590
629.00,0.1595
628.00,0.1599
627.00,0.1603
626.00,0.1608
625.00,0.1613
624.00,0.1616
623.00,0.1619
622.00,0.1622
621.00,0.1625
620.00,0.1626
619.00,0.1627
618.00,0.1628
617.00,0.1630
616.00,0.1630
615.00,0.1631
614.00,0.1632
613.00,0.1631
612.00,0.1630
611.00,0.1630
610.00,0.1631
609.00,0.1631
608.00,0.1629
607.00,0.1627
606.00,0.1627
605.00,0.1627
604.00,0.1626
603.00,0.1627
602.00,0.1629
601.00,0.1631
600.00,0.1632
599.00,0.1632
598.00,0.1634
597.00,0.1636
596.00,0.1637
595.00,0.1639
594.00,0.1642
593.00,0.1645
592.00,0.1647
591.00,0.1649
590.00,0.1652
589.00,0.1654
588.00,0.1656
587.00,0.1658
586.00,0.1661
585.00,0.1663
584.00,0.1664
583.00,0.1666
582.00,0.1670
581.00,0.1675
580.00,0.1677
579.00,0.1679
578.00,0.1683
577.00,0.1686
576.00,0.1689
575.00,0.1692
574.00,0.1697
573.00,0.1700
572.00,0.1703
571.00,0.1706
570.00,0.1710
569.00,0.1714
568.00,0.1716
567.00,0.1720
566.00,0.1724
565.00,0.1728
564.00,0.1730
563.00,0.1733
562.00,0.1738
561.00,0.1742
560.00,0.1744
559.00,0.1747
558.00,0.1751
557.00,0.1755
556.00,0.1759
555.00,0.1763
554.00,0.1768
553.00,0.1771
552.00,0.1773
551.00,0.1776
550.00,0.1781
549.00,0.1787
548.00,0.1790
547.00,0.1794
546.00,0.1798
545.00,0.1802
544.00,0.1803
543.00,0.1805
542.00,0.1807
541.00,0.1809
540.00,0.1809
539.00,0.1810
538.00,0.1815
537.00,0.1819
536.00,0.1820
535.00,0.1822
534.00,0.1825
533.00,0.1828
532.00,0.1830
531.00,0.1832
530.00,0.1835
529.00,0.1836
528.00,0.1834
527.00,0.1833
526.00,0.1837
525.00,0.1840
524.00,0.1842
523.00,0.1843
522.00,0.1846
521.00,0.1848
520.00,0.1846
519.00,0.1846
518.00,0.1847
517.00,0.1848
516.00,0.1847
515.00,0.1845
514.00,0.1847
513.00,0.1849
512.00,0.1849
511.00,0.1850
510.00,0.1852
509.00,0.1854
508.00,0.1855
507.00,0.1858
506.00,0.1862
505.00,0.1865
504.00,0.1864
503.00,0.1862
502.00,0.1863
501.00,0.1863
500.00,0.1862
499.00,0.1861
498.00,0.1862
497.00,0.1862
496.00,0.1861
495.00,0.1861
494.00,0.1864
493.00,0.1866
492.00,0.1865
491.00,0.1863
490.00,0.1864
489.00,0.1865
488.00,0.1865
487.00,0.1866
486.00,0.1869
485.00,0.1870
484.00,0.1866
483.00,0.1863
482.00,0.1864
481.00,0.1867
480.00,0.1865
479.00,0.1863
478.00,0.1864
477.00,0.1866
476.00,0.1864
475.00,0.1863
474.00,0.1866
473.00,0.1868
472.00,0.1868
471.00,0.1870
470.00,0.1875
469.00,0.1879
468.00,0.1878
467.00,0.1876
466.00,0.1875
465.00,0.1873
464.00,0.1867
463.00,0.1863
462.00,0.1867
461.00,0.1872
460.00,0.1872
459.00,0.1871
458.00,0.1874
457.00,0.1875
456.00,0.1871
455.00,0.1867
454.00,0.1868
453.00,0.1868
452.00,0.1864
451.00,0.1859
450.00,0.1857
449.00,0.1855
448.00,0.1849
447.00,0.1843
446.00,0.1842
445.00,0.1841
444.00,0.1836
443.00,0.1833
442.00,0.1834
441.00,0.1833
440.00,0.1825
439.00,0.1818
438.00,0.1816
437.00,0.1814
436.00,0.1809
435.00,0.1805
434.00,0.1806
433.00,0.1806
432.00,0.1803
431.00,0.1805
430.00,0.1812
429.00,0.1816
428.00,0.1812
427.00,0.1809
426.00,0.1810
425.00,0.1808
424.00,0.1796
423.00,0.1785
422.00,0.1783
421.00,0.1783
420.00,0.1778
419.00,0.1778
418.00,0.1789
417.00,0.1792
416.00,0.1782
415.00,0.1773
414.00,0.1774
413.00,0.1776
412.00,0.1771
411.00,0.1768
410.00,0.1772
409.00,0.1772
408.00,0.1759
407.00,0.1750
406.00,0.1755
405.00,0.1758
404.00,0.1746
403.00,0.1733
402.00,0.1730
401.00,0.1722
400.00,0.1697
