Created as New Dataset,Sample 094 By YargerLab Date Thursday, August 14 2025
cm-1,A
4000.00,0.0020
3999.00,0.0020
3998.00,0.0020
3997.00,0.0020
3996.00,0.0020
3995.00,0.0020
3994.00,0.0020
3993.00,0.0020
3992.00,0.0020
3991.00,0.0020
3990.00,0.0020
3989.00,0.0020
3988.00,0.0020
3987.00,0.0020
3986.00,0.0020
3985.00,0.0020
3984.00,0.0020
3983.00,0.0020
3982.00,0.0020
3981.00,0.0021
3980.00,0.0021
3979.00,0.0020
3978.00,0.0020
3977.00,0.0020
3976.00,0.0020
3975.00,0.0020
3974.00,0.0020
3973.00,0.0020
3972.00,0.0020
3971.00,0.0020
3970.00,0.0020
3969.00,0.0020
3968.00,0.0020
3967.00,0.0020
3966.00,0.0020
3965.00,0.0020
3964.00,0.0020
3963.00,0.0020
3962.00,0.0020
3961.00,0.0020
3960.00,0.0020
3959.00,0.0020
3958.00,0.0020
3957.00,0.0020
3956.00,0.0020
3955.00,0.0020
3954.00,0.0020
3953.00,0.0020
3952.00,0.0020
3951.00,0.0020
3950.00,0.0020
3949.00,0.0020
3948.00,0.0020
3947.00,0.0020
3946.00,0.0020
3945.00,0.0020
3944.00,0.0020
3943.00,0.0020
3942.00,0.0020
3941.00,0.0020
3940.00,0.0020
3939.00,0.0020
3938.00,0.0020
3937.00,0.0020
3936.00,0.0020
3935.00,0.0020
3934.00,0.0020
3933.00,0.0020
3932.00,0.0020
3931.00,0.0020
3930.00,0.0020
3929.00,0.0020
3928.00,0.0020
3927.00,0.0020
3926.00,0.0020
3925.00,0.0020
3924.00,0.0020
3923.00,0.0020
3922.00,0.0020
3921.00,0.0020
3920.00,0.0020
3919.00,0.0020
3918.00,0.0020
3917.00,0.0020
3916.00,0.0020
3915.00,0.0020
3914.00,0.0020
3913.00,0.0020
3912.00,0.0020
3911.00,0.0020
3910.00,0.0020
3909.00,0.0020
3908.00,0.0020
3907.00,0.0020
3906.00,0.0020
3905.00,0.0020
3904.00,0.0020
3903.00,0.0020
3902.00,0.0020
3901.00,0.0019
3900.00,0.0019
3899.00,0.0019
3898.00,0.0019
3897.00,0.0020
3896.00,0.0020
3895.00,0.0020
3894.00,0.0020
3893.00,0.0020
3892.00,0.0019
3891.00,0.0020
3890.00,0.0020
3889.00,0.0020
3888.00,0.0020
3887.00,0.0019
3886.00,0.0019
3885.00,0.0019
3884.00,0.0019
3883.00,0.0019
3882.00,0.0019
3881.00,0.0018
3880.00,0.0019
3879.00,0.0019
3878.00,0.0020
3877.00,0.0019
3876.00,0.0019
3875.00,0.0019
3874.00,0.0019
3873.00,0.0020
3872.00,0.0020
3871.00,0.0019
3870.00,0.0019
3869.00,0.0020
3868.00,0.0020
3867.00,0.0020
3866.00,0.0019
3865.00,0.0019
3864.00,0.0019
3863.00,0.0019
3862.00,0.0019
3861.00,0.0019
3860.00,0.0019
3859.00,0.0019
3858.00,0.0020
3857.00,0.0020
3856.00,0.0020
3855.00,0.0020
3854.00,0.0019
3853.00,0.0018
3852.00,0.0019
3851.00,0.0019
3850.00,0.0019
3849.00,0.0018
3848.00,0.0018
3847.00,0.0018
3846.00,0.0019
3845.00,0.0019
3844.00,0.0019
3843.00,0.0019
3842.00,0.0019
3841.00,0.0019
3840.00,0.0019
3839.00,0.0019
3838.00,0.0019
3837.00,0.0019
3836.00,0.0019
3835.00,0.0019
3834.00,0.0019
3833.00,0.0019
3832.00,0.0019
3831.00,0.0019
3830.00,0.0019
3829.00,0.0019
3828.00,0.0019
3827.00,0.0019
3826.00,0.0019
3825.00,0.0020
3824.00,0.0020
3823.00,0.0019
3822.00,0.0019
3821.00,0.0019
3820.00,0.0019
3819.00,0.0020
3818.00,0.0020
3817.00,0.0019
3816.00,0.0019
3815.00,0.0019
3814.00,0.0019
3813.00,0.0019
3812.00,0.0018
3811.00,0.0018
3810.00,0.0019
3809.00,0.0019
3808.00,0.0019
3807.00,0.0019
3806.00,0.0020
3805.00,0.0020
3804.00,0.0019
3803.00,0.0018
3802.00,0.0018
3801.00,0.0018
3800.00,0.0019
3799.00,0.0019
3798.00,0.0019
3797.00,0.0019
3796.00,0.0019
3795.00,0.0020
3794.00,0.0020
3793.00,0.0019
3792.00,0.0019
3791.00,0.0019
3790.00,0.0020
3789.00,0.0020
3788.00,0.0020
3787.00,0.0020
3786.00,0.0020
3785.00,0.0020
3784.00,0.0020
3783.00,0.0020
3782.00,0.0020
3781.00,0.0020
3780.00,0.0020
3779.00,0.0020
3778.00,0.0020
3777.00,0.0020
3776.00,0.0020
3775.00,0.0019
3774.00,0.0020
3773.00,0.0020
3772.00,0.0020
3771.00,0.0020
3770.00,0.0020
3769.00,0.0020
3768.00,0.0020
3767.00,0.0020
3766.00,0.0020
3765.00,0.0020
3764.00,0.0020
3763.00,0.0020
3762.00,0.0019
3761.00,0.0019
3760.00,0.0019
3759.00,0.0019
3758.00,0.0020
3757.00,0.0020
3756.00,0.0020
3755.00,0.0020
3754.00,0.0020
3753.00,0.0020
3752.00,0.0019
3751.00,0.0019
3750.00,0.0018
3749.00,0.0019
3748.00,0.0019
3747.00,0.0019
3746.00,0.0019
3745.00,0.0019
3744.00,0.0019
3743.00,0.0019
3742.00,0.0019
3741.00,0.0018
3740.00,0.0018
3739.00,0.0018
3738.00,0.0019
3737.00,0.0019
3736.00,0.0018
3735.00,0.0018
3734.00,0.0019
3733.00,0.0019
3732.00,0.0019
3731.00,0.0019
3730.00,0.0019
3729.00,0.0019
3728.00,0.0018
3727.00,0.0018
3726.00,0.0019
3725.00,0.0019
3724.00,0.0019
3723.00,0.0019
3722.00,0.0019
3721.00,0.0019
3720.00,0.0019
3719.00,0.0019
3718.00,0.0019
3717.00,0.0019
3716.00,0.0019
3715.00,0.0019
3714.00,0.0019
3713.00,0.0019
3712.00,0.0019
3711.00,0.0019
3710.00,0.0020
3709.00,0.0020
3708.00,0.0019
3707.00,0.0019
3706.00,0.0019
3705.00,0.0019
3704.00,0.0019
3703.00,0.0019
3702.00,0.0019
3701.00,0.0020
3700.00,0.0020
3699.00,0.0020
3698.00,0.0020
3697.00,0.0020
3696.00,0.0020
3695.00,0.0020
3694.00,0.0020
3693.00,0.0020
3692.00,0.0020
3691.00,0.0020
3690.00,0.0020
3689.00,0.0021
3688.00,0.0021
3687.00,0.0021
3686.00,0.0021
3685.00,0.0021
3684.00,0.0021
3683.00,0.0021
3682.00,0.0022
3681.00,0.0022
3680.00,0.0023
3679.00,0.0023
3678.00,0.0023
3677.00,0.0023
3676.00,0.0023
3675.00,0.0023
3674.00,0.0024
3673.00,0.0024
3672.00,0.0023
3671.00,0.0023
3670.00,0.0023
3669.00,0.0024
3668.00,0.0024
3667.00,0.0024
3666.00,0.0025
3665.00,0.0025
3664.00,0.0025
3663.00,0.0026
3662.00,0.0026
3661.00,0.0026
3660.00,0.0026
3659.00,0.0027
3658.00,0.0027
3657.00,0.0027
3656.00,0.0027
3655.00,0.0028
3654.00,0.0028
3653.00,0.0029
3652.00,0.0029
3651.00,0.0030
3650.00,0.0030
3649.00,0.0030
3648.00,0.0030
3647.00,0.0030
3646.00,0.0031
3645.00,0.0031
3644.00,0.0031
3643.00,0.0032
3642.00,0.0033
3641.00,0.0033
3640.00,0.0033
3639.00,0.0034
3638.00,0.0034
3637.00,0.0035
3636.00,0.0036
3635.00,0.0036
3634.00,0.0037
3633.00,0.0038
3632.00,0.0038
3631.00,0.0038
3630.00,0.0038
3629.00,0.0038
3628.00,0.0039
3627.00,0.0039
3626.00,0.0039
3625.00,0.0039
3624.00,0.0039
3623.00,0.0040
3622.00,0.0041
3621.00,0.0042
3620.00,0.0043
3619.00,0.0043
3618.00,0.0044
3617.00,0.0045
3616.00,0.0045
3615.00,0.0045
3614.00,0.0046
3613.00,0.0047
3612.00,0.0048
3611.00,0.0048
3610.00,0.0049
3609.00,0.0049
3608.00,0.0050
3607.00,0.0051
3606.00,0.0051
3605.00,0.0052
3604.00,0.0053
3603.00,0.0054
3602.00,0.0054
3601.00,0.0055
3600.00,0.0056
3599.00,0.0057
3598.00,0.0058
3597.00,0.0058
3596.00,0.0059
3595.00,0.0060
3594.00,0.0061
3593.00,0.0062
3592.00,0.0063
3591.00,0.0064
3590.00,0.0064
3589.00,0.0065
3588.00,0.0065
3587.00,0.0066
3586.00,0.0067
3585.00,0.0068
3584.00,0.0069
3583.00,0.0070
3582.00,0.0071
3581.00,0.0072
3580.00,0.0074
3579.00,0.0075
3578.00,0.0075
3577.00,0.0076
3576.00,0.0077
3575.00,0.0078
3574.00,0.0079
3573.00,0.0080
3572.00,0.0081
3571.00,0.0082
3570.00,0.0084
3569.00,0.0085
3568.00,0.0086
3567.00,0.0086
3566.00,0.0087
3565.00,0.0088
3564.00,0.0089
3563.00,0.0090
3562.00,0.0091
3561.00,0.0092
3560.00,0.0093
3559.00,0.0095
3558.00,0.0096
3557.00,0.0097
3556.00,0.0098
3555.00,0.0099
3554.00,0.0100
3553.00,0.0101
3552.00,0.0102
3551.00,0.0103
3550.00,0.0104
3549.00,0.0105
3548.00,0.0106
3547.00,0.0107
3546.00,0.0108
3545.00,0.0110
3544.00,0.0111
3543.00,0.0112
3542.00,0.0113
3541.00,0.0114
3540.00,0.0115
3539.00,0.0116
3538.00,0.0117
3537.00,0.0118
3536.00,0.0120
3535.00,0.0121
3534.00,0.0122
3533.00,0.0124
3532.00,0.0126
3531.00,0.0128
3530.00,0.0130
3529.00,0.0132
3528.00,0.0135
3527.00,0.0138
3526.00,0.0140
3525.00,0.0143
3524.00,0.0145
3523.00,0.0147
3522.00,0.0149
3521.00,0.0150
3520.00,0.0151
3519.00,0.0151
3518.00,0.0151
3517.00,0.0151
3516.00,0.0150
3515.00,0.0150
3514.00,0.0149
3513.00,0.0149
3512.00,0.0148
3511.00,0.0147
3510.00,0.0146
3509.00,0.0145
3508.00,0.0145
3507.00,0.0145
3506.00,0.0145
3505.00,0.0145
3504.00,0.0145
3503.00,0.0145
3502.00,0.0145
3501.00,0.0145
3500.00,0.0145
3499.00,0.0146
3498.00,0.0146
3497.00,0.0147
3496.00,0.0148
3495.00,0.0148
3494.00,0.0148
3493.00,0.0149
3492.00,0.0149
3491.00,0.0150
3490.00,0.0151
3489.00,0.0152
3488.00,0.0152
3487.00,0.0153
3486.00,0.0153
3485.00,0.0154
3484.00,0.0155
3483.00,0.0156
3482.00,0.0156
3481.00,0.0157
3480.00,0.0158
3479.00,0.0159
3478.00,0.0159
3477.00,0.0160
3476.00,0.0160
3475.00,0.0161
3474.00,0.0161
3473.00,0.0162
3472.00,0.0162
3471.00,0.0163
3470.00,0.0164
3469.00,0.0165
3468.00,0.0165
3467.00,0.0166
3466.00,0.0166
3465.00,0.0167
3464.00,0.0168
3463.00,0.0169
3462.00,0.0170
3461.00,0.0171
3460.00,0.0172
3459.00,0.0174
3458.00,0.0175
3457.00,0.0176
3456.00,0.0178
3455.00,0.0180
3454.00,0.0181
3453.00,0.0183
3452.00,0.0185
3451.00,0.0187
3450.00,0.0188
3449.00,0.0190
3448.00,0.0192
3447.00,0.0194
3446.00,0.0195
3445.00,0.0197
3444.00,0.0198
3443.00,0.0200
3442.00,0.0201
3441.00,0.0202
3440.00,0.0204
3439.00,0.0205
3438.00,0.0207
3437.00,0.0208
3436.00,0.0210
3435.00,0.0211
3434.00,0.0212
3433.00,0.0213
3432.00,0.0215
3431.00,0.0216
3430.00,0.0217
3429.00,0.0219
3428.00,0.0220
3427.00,0.0221
3426.00,0.0223
3425.00,0.0224
3424.00,0.0226
3423.00,0.0228
3422.00,0.0229
3421.00,0.0231
3420.00,0.0232
3419.00,0.0234
3418.00,0.0236
3417.00,0.0237
3416.00,0.0239
3415.00,0.0241
3414.00,0.0243
3413.00,0.0245
3412.00,0.0247
3411.00,0.0248
3410.00,0.0250
3409.00,0.0251
3408.00,0.0252
3407.00,0.0252
3406.00,0.0253
3405.00,0.0253
3404.00,0.0253
3403.00,0.0253
3402.00,0.0252
3401.00,0.0252
3400.00,0.0251
3399.00,0.0250
3398.00,0.0249
3397.00,0.0247
3396.00,0.0246
3395.00,0.0244
3394.00,0.0243
3393.00,0.0241
3392.00,0.0240
3391.00,0.0238
3390.00,0.0237
3389.00,0.0235
3388.00,0.0234
3387.00,0.0232
3386.00,0.0231
3385.00,0.0229
3384.00,0.0228
3383.00,0.0227
3382.00,0.0225
3381.00,0.0224
3380.00,0.0222
3379.00,0.0221
3378.00,0.0220
3377.00,0.0219
3376.00,0.0218
3375.00,0.0217
3374.00,0.0215
3373.00,0.0214
3372.00,0.0212
3371.00,0.0211
3370.00,0.0209
3369.00,0.0208
3368.00,0.0207
3367.00,0.0207
3366.00,0.0206
3365.00,0.0205
3364.00,0.0204
3363.00,0.0203
3362.00,0.0202
3361.00,0.0201
3360.00,0.0200
3359.00,0.0199
3358.00,0.0198
3357.00,0.0197
3356.00,0.0196
3355.00,0.0195
3354.00,0.0195
3353.00,0.0194
3352.00,0.0193
3351.00,0.0192
3350.00,0.0191
3349.00,0.0191
3348.00,0.0190
3347.00,0.0190
3346.00,0.0189
3345.00,0.0188
3344.00,0.0187
3343.00,0.0186
3342.00,0.0186
3341.00,0.0185
3340.00,0.0184
3339.00,0.0184
3338.00,0.0183
3337.00,0.0183
3336.00,0.0183
3335.00,0.0183
3334.00,0.0183
3333.00,0.0182
3332.00,0.0182
3331.00,0.0182
3330.00,0.0182
3329.00,0.0182
3328.00,0.0181
3327.00,0.0180
3326.00,0.0180
3325.00,0.0179
3324.00,0.0179
3323.00,0.0179
3322.00,0.0179
3321.00,0.0179
3320.00,0.0179
3319.00,0.0178
3318.00,0.0178
3317.00,0.0178
3316.00,0.0178
3315.00,0.0178
3314.00,0.0177
3313.00,0.0177
3312.00,0.0176
3311.00,0.0175
3310.00,0.0174
3309.00,0.0173
3308.00,0.0173
3307.00,0.0172
3306.00,0.0172
3305.00,0.0173
3304.00,0.0173
3303.00,0.0174
3302.00,0.0175
3301.00,0.0175
3300.00,0.0175
3299.00,0.0174
3298.00,0.0173
3297.00,0.0173
3296.00,0.0172
3295.00,0.0172
3294.00,0.0172
3293.00,0.0172
3292.00,0.0172
3291.00,0.0172
3290.00,0.0173
3289.00,0.0173
3288.00,0.0173
3287.00,0.0173
3286.00,0.0173
3285.00,0.0173
3284.00,0.0173
3283.00,0.0173
3282.00,0.0173
3281.00,0.0172
3280.00,0.0172
3279.00,0.0172
3278.00,0.0171
3277.00,0.0171
3276.00,0.0171
3275.00,0.0171
3274.00,0.0170
3273.00,0.0170
3272.00,0.0169
3271.00,0.0169
3270.00,0.0170
3269.00,0.0170
3268.00,0.0171
3267.00,0.0171
3266.00,0.0171
3265.00,0.0172
3264.00,0.0172
3263.00,0.0172
3262.00,0.0172
3261.00,0.0172
3260.00,0.0172
3259.00,0.0172
3258.00,0.0172
3257.00,0.0172
3256.00,0.0172
3255.00,0.0172
3254.00,0.0172
3253.00,0.0172
3252.00,0.0173
3251.00,0.0173
3250.00,0.0174
3249.00,0.0174
3248.00,0.0174
3247.00,0.0174
3246.00,0.0174
3245.00,0.0174
3244.00,0.0175
3243.00,0.0175
3242.00,0.0175
3241.00,0.0175
3240.00,0.0175
3239.00,0.0175
3238.00,0.0175
3237.00,0.0174
3236.00,0.0174
3235.00,0.0173
3234.00,0.0173
3233.00,0.0173
3232.00,0.0173
3231.00,0.0173
3230.00,0.0173
3229.00,0.0172
3228.00,0.0172
3227.00,0.0172
3226.00,0.0171
3225.00,0.0171
3224.00,0.0170
3223.00,0.0170
3222.00,0.0169
3221.00,0.0169
3220.00,0.0168
3219.00,0.0167
3218.00,0.0166
3217.00,0.0165
3216.00,0.0165
3215.00,0.0164
3214.00,0.0163
3213.00,0.0162
3212.00,0.0162
3211.00,0.0161
3210.00,0.0160
3209.00,0.0160
3208.00,0.0159
3207.00,0.0158
3206.00,0.0157
3205.00,0.0157
3204.00,0.0156
3203.00,0.0155
3202.00,0.0154
3201.00,0.0153
3200.00,0.0152
3199.00,0.0151
3198.00,0.0150
3197.00,0.0149
3196.00,0.0148
3195.00,0.0146
3194.00,0.0145
3193.00,0.0144
3192.00,0.0143
3191.00,0.0142
3190.00,0.0141
3189.00,0.0140
3188.00,0.0139
3187.00,0.0138
3186.00,0.0137
3185.00,0.0136
3184.00,0.0135
3183.00,0.0134
3182.00,0.0133
3181.00,0.0132
3180.00,0.0131
3179.00,0.0130
3178.00,0.0129
3177.00,0.0128
3176.00,0.0127
3175.00,0.0126
3174.00,0.0125
3173.00,0.0124
3172.00,0.0123
3171.00,0.0122
3170.00,0.0122
3169.00,0.0121
3168.00,0.0120
3167.00,0.0119
3166.00,0.0118
3165.00,0.0117
3164.00,0.0116
3163.00,0.0115
3162.00,0.0114
3161.00,0.0113
3160.00,0.0112
3159.00,0.0111
3158.00,0.0110
3157.00,0.0109
3156.00,0.0108
3155.00,0.0108
3154.00,0.0107
3153.00,0.0106
3152.00,0.0105
3151.00,0.0104
3150.00,0.0104
3149.00,0.0103
3148.00,0.0102
3147.00,0.0102
3146.00,0.0101
3145.00,0.0099
3144.00,0.0098
3143.00,0.0097
3142.00,0.0097
3141.00,0.0096
3140.00,0.0095
3139.00,0.0095
3138.00,0.0094
3137.00,0.0093
3136.00,0.0092
3135.00,0.0092
3134.00,0.0091
3133.00,0.0090
3132.00,0.0090
3131.00,0.0089
3130.00,0.0089
3129.00,0.0088
3128.00,0.0088
3127.00,0.0088
3126.00,0.0087
3125.00,0.0087
3124.00,0.0086
3123.00,0.0086
3122.00,0.0086
3121.00,0.0085
3120.00,0.0085
3119.00,0.0084
3118.00,0.0084
3117.00,0.0083
3116.00,0.0082
3115.00,0.0082
3114.00,0.0081
3113.00,0.0080
3112.00,0.0080
3111.00,0.0079
3110.00,0.0079
3109.00,0.0078
3108.00,0.0078
3107.00,0.0078
3106.00,0.0077
3105.00,0.0077
3104.00,0.0076
3103.00,0.0076
3102.00,0.0075
3101.00,0.0075
3100.00,0.0075
3099.00,0.0074
3098.00,0.0074
3097.00,0.0074
3096.00,0.0073
3095.00,0.0073
3094.00,0.0073
3093.00,0.0073
3092.00,0.0073
3091.00,0.0073
3090.00,0.0074
3089.00,0.0074
3088.00,0.0074
3087.00,0.0074
3086.00,0.0074
3085.00,0.0075
3084.00,0.0075
3083.00,0.0075
3082.00,0.0076
3081.00,0.0077
3080.00,0.0077
3079.00,0.0078
3078.00,0.0079
3077.00,0.0079
3076.00,0.0080
3075.00,0.0080
3074.00,0.0080
3073.00,0.0079
3072.00,0.0078
3071.00,0.0077
3070.00,0.0076
3069.00,0.0074
3068.00,0.0073
3067.00,0.0072
3066.00,0.0070
3065.00,0.0069
3064.00,0.0068
3063.00,0.0068
3062.00,0.0067
3061.00,0.0066
3060.00,0.0066
3059.00,0.0065
3058.00,0.0065
3057.00,0.0065
3056.00,0.0064
3055.00,0.0064
3054.00,0.0063
3053.00,0.0063
3052.00,0.0062
3051.00,0.0062
3050.00,0.0062
3049.00,0.0062
3048.00,0.0061
3047.00,0.0061
3046.00,0.0061
3045.00,0.0061
3044.00,0.0061
3043.00,0.0061
3042.00,0.0061
3041.00,0.0061
3040.00,0.0061
3039.00,0.0062
3038.00,0.0062
3037.00,0.0062
3036.00,0.0062
3035.00,0.0063
3034.00,0.0063
3033.00,0.0063
3032.00,0.0062
3031.00,0.0062
3030.00,0.0061
3029.00,0.0061
3028.00,0.0060
3027.00,0.0059
3026.00,0.0059
3025.00,0.0058
3024.00,0.0058
3023.00,0.0057
3022.00,0.0057
3021.00,0.0057
3020.00,0.0057
3019.00,0.0057
3018.00,0.0057
3017.00,0.0057
3016.00,0.0058
3015.00,0.0058
3014.00,0.0058
3013.00,0.0059
3012.00,0.0059
3011.00,0.0060
3010.00,0.0060
3009.00,0.0061
3008.00,0.0062
3007.00,0.0064
3006.00,0.0065
3005.00,0.0067
3004.00,0.0068
3003.00,0.0070
3002.00,0.0072
3001.00,0.0075
3000.00,0.0077
2999.00,0.0080
2998.00,0.0083
2997.00,0.0087
2996.00,0.0090
2995.00,0.0094
2994.00,0.0098
2993.00,0.0101
2992.00,0.0105
2991.00,0.0108
2990.00,0.0111
2989.00,0.0114
2988.00,0.0117
2987.00,0.0119
2986.00,0.0122
2985.00,0.0126
2984.00,0.0130
2983.00,0.0134
2982.00,0.0140
2981.00,0.0146
2980.00,0.0153
2979.00,0.0159
2978.00,0.0164
2977.00,0.0168
2976.00,0.0172
2975.00,0.0177
2974.00,0.0182
2973.00,0.0189
2972.00,0.0195
2971.00,0.0200
2970.00,0.0205
2969.00,0.0207
2968.00,0.0208
2967.00,0.0207
2966.00,0.0207
2965.00,0.0207
2964.00,0.0209
2963.00,0.0212
2962.00,0.0216
2961.00,0.0221
2960.00,0.0224
2959.00,0.0226
2958.00,0.0227
2957.00,0.0225
2956.00,0.0222
2955.00,0.0218
2954.00,0.0213
2953.00,0.0208
2952.00,0.0204
2951.00,0.0202
2950.00,0.0200
2949.00,0.0201
2948.00,0.0203
2947.00,0.0205
2946.00,0.0207
2945.00,0.0208
2944.00,0.0210
2943.00,0.0211
2942.00,0.0212
2941.00,0.0213
2940.00,0.0214
2939.00,0.0215
2938.00,0.0218
2937.00,0.0221
2936.00,0.0227
2935.00,0.0234
2934.00,0.0243
2933.00,0.0253
2932.00,0.0263
2931.00,0.0273
2930.00,0.0282
2929.00,0.0289
2928.00,0.0294
2927.00,0.0296
2926.00,0.0296
2925.00,0.0294
2924.00,0.0291
2923.00,0.0288
2922.00,0.0284
2921.00,0.0279
2920.00,0.0274
2919.00,0.0268
2918.00,0.0262
2917.00,0.0255
2916.00,0.0247
2915.00,0.0239
2914.00,0.0231
2913.00,0.0224
2912.00,0.0216
2911.00,0.0210
2910.00,0.0205
2909.00,0.0200
2908.00,0.0196
2907.00,0.0193
2906.00,0.0190
2905.00,0.0188
2904.00,0.0186
2903.00,0.0185
2902.00,0.0183
2901.00,0.0182
2900.00,0.0181
2899.00,0.0180
2898.00,0.0178
2897.00,0.0176
2896.00,0.0174
2895.00,0.0172
2894.00,0.0170
2893.00,0.0169
2892.00,0.0168
2891.00,0.0167
2890.00,0.0166
2889.00,0.0165
2888.00,0.0164
2887.00,0.0163
2886.00,0.0163
2885.00,0.0162
2884.00,0.0162
2883.00,0.0162
2882.00,0.0162
2881.00,0.0162
2880.00,0.0163
2879.00,0.0165
2878.00,0.0167
2877.00,0.0169
2876.00,0.0171
2875.00,0.0172
2874.00,0.0174
2873.00,0.0175
2872.00,0.0175
2871.00,0.0175
2870.00,0.0174
2869.00,0.0173
2868.00,0.0172
2867.00,0.0170
2866.00,0.0169
2865.00,0.0169
2864.00,0.0170
2863.00,0.0173
2862.00,0.0176
2861.00,0.0180
2860.00,0.0185
2859.00,0.0190
2858.00,0.0195
2857.00,0.0199
2856.00,0.0200
2855.00,0.0201
2854.00,0.0199
2853.00,0.0195
2852.00,0.0189
2851.00,0.0182
2850.00,0.0172
2849.00,0.0162
2848.00,0.0152
2847.00,0.0141
2846.00,0.0132
2845.00,0.0124
2844.00,0.0118
2843.00,0.0112
2842.00,0.0108
2841.00,0.0104
2840.00,0.0101
2839.00,0.0099
2838.00,0.0097
2837.00,0.0097
2836.00,0.0097
2835.00,0.0097
2834.00,0.0098
2833.00,0.0099
2832.00,0.0099
2831.00,0.0099
2830.00,0.0098
2829.00,0.0096
2828.00,0.0094
2827.00,0.0091
2826.00,0.0087
2825.00,0.0083
2824.00,0.0080
2823.00,0.0076
2822.00,0.0073
2821.00,0.0071
2820.00,0.0069
2819.00,0.0067
2818.00,0.0066
2817.00,0.0065
2816.00,0.0064
2815.00,0.0062
2814.00,0.0061
2813.00,0.0060
2812.00,0.0059
2811.00,0.0058
2810.00,0.0058
2809.00,0.0057
2808.00,0.0057
2807.00,0.0056
2806.00,0.0056
2805.00,0.0055
2804.00,0.0055
2803.00,0.0054
2802.00,0.0054
2801.00,0.0053
2800.00,0.0053
2799.00,0.0052
2798.00,0.0052
2797.00,0.0051
2796.00,0.0051
2795.00,0.0051
2794.00,0.0050
2793.00,0.0050
2792.00,0.0050
2791.00,0.0050
2790.00,0.0049
2789.00,0.0049
2788.00,0.0048
2787.00,0.0048
2786.00,0.0047
2785.00,0.0047
2784.00,0.0047
2783.00,0.0047
2782.00,0.0046
2781.00,0.0046
2780.00,0.0046
2779.00,0.0045
2778.00,0.0045
2777.00,0.0045
2776.00,0.0045
2775.00,0.0044
2774.00,0.0044
2773.00,0.0044
2772.00,0.0044
2771.00,0.0044
2770.00,0.0044
2769.00,0.0044
2768.00,0.0043
2767.00,0.0043
2766.00,0.0043
2765.00,0.0043
2764.00,0.0043
2763.00,0.0042
2762.00,0.0042
2761.00,0.0042
2760.00,0.0042
2759.00,0.0042
2758.00,0.0042
2757.00,0.0042
2756.00,0.0042
2755.00,0.0042
2754.00,0.0042
2753.00,0.0042
2752.00,0.0042
2751.00,0.0042
2750.00,0.0042
2749.00,0.0042
2748.00,0.0042
2747.00,0.0042
2746.00,0.0042
2745.00,0.0042
2744.00,0.0042
2743.00,0.0042
2742.00,0.0042
2741.00,0.0042
2740.00,0.0043
2739.00,0.0043
2738.00,0.0043
2737.00,0.0043
2736.00,0.0043
2735.00,0.0043
2734.00,0.0043
2733.00,0.0043
2732.00,0.0044
2731.00,0.0044
2730.00,0.0044
2729.00,0.0044
2728.00,0.0044
2727.00,0.0044
2726.00,0.0044
2725.00,0.0044
2724.00,0.0043
2723.00,0.0043
2722.00,0.0043
2721.00,0.0043
2720.00,0.0043
2719.00,0.0043
2718.00,0.0042
2717.00,0.0042
2716.00,0.0042
2715.00,0.0042
2714.00,0.0042
2713.00,0.0042
2712.00,0.0042
2711.00,0.0042
2710.00,0.0042
2709.00,0.0041
2708.00,0.0041
2707.00,0.0041
2706.00,0.0041
2705.00,0.0041
2704.00,0.0041
2703.00,0.0041
2702.00,0.0041
2701.00,0.0041
2700.00,0.0041
2699.00,0.0040
2698.00,0.0040
2697.00,0.0040
2696.00,0.0040
2695.00,0.0040
2694.00,0.0040
2693.00,0.0040
2692.00,0.0040
2691.00,0.0039
2690.00,0.0039
2689.00,0.0039
2688.00,0.0039
2687.00,0.0039
2686.00,0.0038
2685.00,0.0038
2684.00,0.0038
2683.00,0.0039
2682.00,0.0039
2681.00,0.0039
2680.00,0.0038
2679.00,0.0038
2678.00,0.0038
2677.00,0.0038
2676.00,0.0039
2675.00,0.0039
2674.00,0.0039
2673.00,0.0039
2672.00,0.0039
2671.00,0.0039
2670.00,0.0039
2669.00,0.0039
2668.00,0.0040
2667.00,0.0040
2666.00,0.0041
2665.00,0.0041
2664.00,0.0042
2663.00,0.0042
2662.00,0.0042
2661.00,0.0043
2660.00,0.0043
2659.00,0.0043
2658.00,0.0044
2657.00,0.0044
2656.00,0.0044
2655.00,0.0044
2654.00,0.0044
2653.00,0.0044
2652.00,0.0044
2651.00,0.0043
2650.00,0.0043
2649.00,0.0043
2648.00,0.0043
2647.00,0.0043
2646.00,0.0043
2645.00,0.0043
2644.00,0.0043
2643.00,0.0043
2642.00,0.0043
2641.00,0.0043
2640.00,0.0042
2639.00,0.0042
2638.00,0.0042
2637.00,0.0042
2636.00,0.0041
2635.00,0.0041
2634.00,0.0041
2633.00,0.0041
2632.00,0.0041
2631.00,0.0041
2630.00,0.0040
2629.00,0.0040
2628.00,0.0040
2627.00,0.0040
2626.00,0.0040
2625.00,0.0039
2624.00,0.0039
2623.00,0.0039
2622.00,0.0039
2621.00,0.0039
2620.00,0.0039
2619.00,0.0038
2618.00,0.0038
2617.00,0.0038
2616.00,0.0038
2615.00,0.0038
2614.00,0.0038
2613.00,0.0038
2612.00,0.0038
2611.00,0.0038
2610.00,0.0038
2609.00,0.0038
2608.00,0.0039
2607.00,0.0039
2606.00,0.0038
2605.00,0.0038
2604.00,0.0038
2603.00,0.0038
2602.00,0.0038
2601.00,0.0037
2600.00,0.0038
2599.00,0.0038
2598.00,0.0038
2597.00,0.0039
2596.00,0.0039
2595.00,0.0039
2594.00,0.0039
2593.00,0.0039
2592.00,0.0039
2591.00,0.0039
2590.00,0.0039
2589.00,0.0039
2588.00,0.0039
2587.00,0.0039
2586.00,0.0039
2585.00,0.0039
2584.00,0.0039
2583.00,0.0040
2582.00,0.0039
2581.00,0.0039
2580.00,0.0039
2579.00,0.0038
2578.00,0.0038
2577.00,0.0038
2576.00,0.0037
2575.00,0.0037
2574.00,0.0037
2573.00,0.0037
2572.00,0.0037
2571.00,0.0037
2570.00,0.0037
2569.00,0.0037
2568.00,0.0037
2567.00,0.0037
2566.00,0.0037
2565.00,0.0037
2564.00,0.0037
2563.00,0.0037
2562.00,0.0036
2561.00,0.0036
2560.00,0.0036
2559.00,0.0036
2558.00,0.0036
2557.00,0.0036
2556.00,0.0036
2555.00,0.0036
2554.00,0.0035
2553.00,0.0035
2552.00,0.0035
2551.00,0.0035
2550.00,0.0035
2549.00,0.0035
2548.00,0.0035
2547.00,0.0035
2546.00,0.0035
2545.00,0.0035
2544.00,0.0035
2543.00,0.0035
2542.00,0.0035
2541.00,0.0035
2540.00,0.0035
2539.00,0.0035
2538.00,0.0035
2537.00,0.0034
2536.00,0.0034
2535.00,0.0034
2534.00,0.0034
2533.00,0.0035
2532.00,0.0035
2531.00,0.0035
2530.00,0.0035
2529.00,0.0035
2528.00,0.0034
2527.00,0.0034
2526.00,0.0034
2525.00,0.0034
2524.00,0.0033
2523.00,0.0033
2522.00,0.0032
2521.00,0.0032
2520.00,0.0032
2519.00,0.0033
2518.00,0.0033
2517.00,0.0033
2516.00,0.0032
2515.00,0.0032
2514.00,0.0032
2513.00,0.0032
2512.00,0.0032
2511.00,0.0032
2510.00,0.0032
2509.00,0.0032
2508.00,0.0032
2507.00,0.0031
2506.00,0.0031
2505.00,0.0031
2504.00,0.0031
2503.00,0.0031
2502.00,0.0031
2501.00,0.0031
2500.00,0.0031
2499.00,0.0031
2498.00,0.0031
2497.00,0.0031
2496.00,0.0031
2495.00,0.0031
2494.00,0.0031
2493.00,0.0031
2492.00,0.0030
2491.00,0.0030
2490.00,0.0030
2489.00,0.0030
2488.00,0.0030
2487.00,0.0030
2486.00,0.0030
2485.00,0.0030
2484.00,0.0030
2483.00,0.0030
2482.00,0.0030
2481.00,0.0031
2480.00,0.0031
2479.00,0.0030
2478.00,0.0030
2477.00,0.0029
2476.00,0.0029
2475.00,0.0029
2474.00,0.0029
2473.00,0.0029
2472.00,0.0029
2471.00,0.0029
2470.00,0.0029
2469.00,0.0029
2468.00,0.0029
2467.00,0.0029
2466.00,0.0029
2465.00,0.0030
2464.00,0.0030
2463.00,0.0030
2462.00,0.0030
2461.00,0.0030
2460.00,0.0030
2459.00,0.0030
2458.00,0.0030
2457.00,0.0031
2456.00,0.0031
2455.00,0.0031
2454.00,0.0031
2453.00,0.0030
2452.00,0.0030
2451.00,0.0030
2450.00,0.0030
2449.00,0.0031
2448.00,0.0031
2447.00,0.0031
2446.00,0.0030
2445.00,0.0030
2444.00,0.0030
2443.00,0.0030
2442.00,0.0029
2441.00,0.0029
2440.00,0.0029
2439.00,0.0029
2438.00,0.0029
2437.00,0.0029
2436.00,0.0029
2435.00,0.0028
2434.00,0.0028
2433.00,0.0028
2432.00,0.0028
2431.00,0.0028
2430.00,0.0028
2429.00,0.0028
2428.00,0.0028
2427.00,0.0028
2426.00,0.0028
2425.00,0.0028
2424.00,0.0028
2423.00,0.0028
2422.00,0.0027
2421.00,0.0027
2420.00,0.0027
2419.00,0.0027
2418.00,0.0027
2417.00,0.0028
2416.00,0.0028
2415.00,0.0028
2414.00,0.0029
2413.00,0.0028
2412.00,0.0028
2411.00,0.0028
2410.00,0.0028
2409.00,0.0027
2408.00,0.0027
2407.00,0.0027
2406.00,0.0027
2405.00,0.0027
2404.00,0.0027
2403.00,0.0027
2402.00,0.0027
2401.00,0.0027
2400.00,0.0027
2399.00,0.0027
2398.00,0.0027
2397.00,0.0027
2396.00,0.0027
2395.00,0.0027
2394.00,0.0027
2393.00,0.0026
2392.00,0.0026
2391.00,0.0027
2390.00,0.0027
2389.00,0.0027
2388.00,0.0027
2387.00,0.0027
2386.00,0.0026
2385.00,0.0026
2384.00,0.0026
2383.00,0.0025
2382.00,0.0025
2381.00,0.0024
2380.00,0.0024
2379.00,0.0024
2378.00,0.0024
2377.00,0.0023
2376.00,0.0024
2375.00,0.0024
2374.00,0.0024
2373.00,0.0024
2372.00,0.0024
2371.00,0.0024
2370.00,0.0023
2369.00,0.0023
2368.00,0.0023
2367.00,0.0023
2366.00,0.0023
2365.00,0.0024
2364.00,0.0024
2363.00,0.0025
2362.00,0.0024
2361.00,0.0024
2360.00,0.0024
2359.00,0.0024
2358.00,0.0024
2357.00,0.0024
2356.00,0.0025
2355.00,0.0025
2354.00,0.0025
2353.00,0.0025
2352.00,0.0025
2351.00,0.0025
2350.00,0.0024
2349.00,0.0025
2348.00,0.0025
2347.00,0.0026
2346.00,0.0027
2345.00,0.0027
2344.00,0.0027
2343.00,0.0027
2342.00,0.0027
2341.00,0.0027
2340.00,0.0027
2339.00,0.0028
2338.00,0.0028
2337.00,0.0029
2336.00,0.0028
2335.00,0.0028
2334.00,0.0028
2333.00,0.0029
2332.00,0.0029
2331.00,0.0029
2330.00,0.0029
2329.00,0.0031
2328.00,0.0033
2327.00,0.0037
2326.00,0.0039
2325.00,0.0041
2324.00,0.0040
2323.00,0.0038
2322.00,0.0036
2321.00,0.0035
2320.00,0.0034
2319.00,0.0033
2318.00,0.0033
2317.00,0.0032
2316.00,0.0032
2315.00,0.0032
2314.00,0.0032
2313.00,0.0032
2312.00,0.0032
2311.00,0.0031
2310.00,0.0031
2309.00,0.0030
2308.00,0.0030
2307.00,0.0031
2306.00,0.0031
2305.00,0.0031
2304.00,0.0031
2303.00,0.0031
2302.00,0.0031
2301.00,0.0031
2300.00,0.0031
2299.00,0.0032
2298.00,0.0032
2297.00,0.0033
2296.00,0.0034
2295.00,0.0035
2294.00,0.0035
2293.00,0.0036
2292.00,0.0037
2291.00,0.0038
2290.00,0.0039
2289.00,0.0039
2288.00,0.0040
2287.00,0.0040
2286.00,0.0040
2285.00,0.0039
2284.00,0.0039
2283.00,0.0038
2282.00,0.0038
2281.00,0.0037
2280.00,0.0037
2279.00,0.0036
2278.00,0.0036
2277.00,0.0035
2276.00,0.0035
2275.00,0.0035
2274.00,0.0035
2273.00,0.0034
2272.00,0.0034
2271.00,0.0034
2270.00,0.0034
2269.00,0.0033
2268.00,0.0033
2267.00,0.0032
2266.00,0.0031
2265.00,0.0031
2264.00,0.0032
2263.00,0.0032
2262.00,0.0033
2261.00,0.0033
2260.00,0.0033
2259.00,0.0033
2258.00,0.0033
2257.00,0.0032
2256.00,0.0031
2255.00,0.0031
2254.00,0.0031
2253.00,0.0031
2252.00,0.0032
2251.00,0.0032
2250.00,0.0032
2249.00,0.0032
2248.00,0.0032
2247.00,0.0031
2246.00,0.0030
2245.00,0.0030
2244.00,0.0030
2243.00,0.0030
2242.00,0.0031
2241.00,0.0031
2240.00,0.0031
2239.00,0.0031
2238.00,0.0031
2237.00,0.0031
2236.00,0.0032
2235.00,0.0033
2234.00,0.0034
2233.00,0.0034
2232.00,0.0034
2231.00,0.0033
2230.00,0.0032
2229.00,0.0031
2228.00,0.0031
2227.00,0.0031
2226.00,0.0030
2225.00,0.0031
2224.00,0.0031
2223.00,0.0032
2222.00,0.0032
2221.00,0.0032
2220.00,0.0032
2219.00,0.0031
2218.00,0.0031
2217.00,0.0031
2216.00,0.0031
2215.00,0.0031
2214.00,0.0031
2213.00,0.0032
2212.00,0.0032
2211.00,0.0032
2210.00,0.0032
2209.00,0.0032
2208.00,0.0031
2207.00,0.0031
2206.00,0.0030
2205.00,0.0030
2204.00,0.0031
2203.00,0.0031
2202.00,0.0032
2201.00,0.0033
2200.00,0.0034
2199.00,0.0034
2198.00,0.0034
2197.00,0.0033
2196.00,0.0033
2195.00,0.0033
2194.00,0.0034
2193.00,0.0034
2192.00,0.0034
2191.00,0.0033
2190.00,0.0033
2189.00,0.0033
2188.00,0.0035
2187.00,0.0036
2186.00,0.0036
2185.00,0.0035
2184.00,0.0033
2183.00,0.0031
2182.00,0.0030
2181.00,0.0030
2180.00,0.0032
2179.00,0.0033
2178.00,0.0031
2177.00,0.0028
2176.00,0.0027
2175.00,0.0027
2174.00,0.0028
2173.00,0.0029
2172.00,0.0031
2171.00,0.0033
2170.00,0.0035
2169.00,0.0038
2168.00,0.0040
2167.00,0.0040
2166.00,0.0041
2165.00,0.0041
2164.00,0.0043
2163.00,0.0042
2162.00,0.0038
2161.00,0.0028
2160.00,0.0017
2159.00,0.0008
2158.00,0.0003
2157.00,0.0004
2156.00,0.0006
2155.00,0.0009
2154.00,0.0010
2153.00,0.0011
2152.00,0.0012
2151.00,0.0013
2150.00,0.0013
2149.00,0.0013
2148.00,0.0013
2147.00,0.0014
2146.00,0.0014
2145.00,0.0015
2144.00,0.0016
2143.00,0.0017
2142.00,0.0017
2141.00,0.0017
2140.00,0.0018
2139.00,0.0017
2138.00,0.0016
2137.00,0.0013
2136.00,0.0011
2135.00,0.0010
2134.00,0.0011
2133.00,0.0012
2132.00,0.0014
2131.00,0.0017
2130.00,0.0018
2129.00,0.0019
2128.00,0.0021
2127.00,0.0022
2126.00,0.0022
2125.00,0.0023
2124.00,0.0023
2123.00,0.0023
2122.00,0.0023
2121.00,0.0024
2120.00,0.0024
2119.00,0.0025
2118.00,0.0026
2117.00,0.0027
2116.00,0.0029
2115.00,0.0030
2114.00,0.0030
2113.00,0.0029
2112.00,0.0028
2111.00,0.0028
2110.00,0.0028
2109.00,0.0028
2108.00,0.0028
2107.00,0.0028
2106.00,0.0028
2105.00,0.0028
2104.00,0.0028
2103.00,0.0028
2102.00,0.0028
2101.00,0.0028
2100.00,0.0028
2099.00,0.0028
2098.00,0.0027
2097.00,0.0026
2096.00,0.0024
2095.00,0.0023
2094.00,0.0023
2093.00,0.0024
2092.00,0.0025
2091.00,0.0026
2090.00,0.0027
2089.00,0.0028
2088.00,0.0028
2087.00,0.0029
2086.00,0.0028
2085.00,0.0028
2084.00,0.0028
2083.00,0.0029
2082.00,0.0029
2081.00,0.0030
2080.00,0.0031
2079.00,0.0031
2078.00,0.0031
2077.00,0.0030
2076.00,0.0030
2075.00,0.0029
2074.00,0.0029
2073.00,0.0029
2072.00,0.0029
2071.00,0.0029
2070.00,0.0028
2069.00,0.0028
2068.00,0.0028
2067.00,0.0028
2066.00,0.0027
2065.00,0.0027
2064.00,0.0026
2063.00,0.0026
2062.00,0.0025
2061.00,0.0025
2060.00,0.0025
2059.00,0.0025
2058.00,0.0026
2057.00,0.0026
2056.00,0.0026
2055.00,0.0027
2054.00,0.0028
2053.00,0.0031
2052.00,0.0033
2051.00,0.0033
2050.00,0.0030
2049.00,0.0028
2048.00,0.0027
2047.00,0.0027
2046.00,0.0027
2045.00,0.0028
2044.00,0.0028
2043.00,0.0029
2042.00,0.0029
2041.00,0.0029
2040.00,0.0030
2039.00,0.0029
2038.00,0.0028
2037.00,0.0027
2036.00,0.0026
2035.00,0.0024
2034.00,0.0022
2033.00,0.0021
2032.00,0.0021
2031.00,0.0022
2030.00,0.0021
2029.00,0.0021
2028.00,0.0022
2027.00,0.0022
2026.00,0.0021
2025.00,0.0020
2024.00,0.0020
2023.00,0.0020
2022.00,0.0020
2021.00,0.0019
2020.00,0.0020
2019.00,0.0020
2018.00,0.0020
2017.00,0.0020
2016.00,0.0020
2015.00,0.0019
2014.00,0.0018
2013.00,0.0017
2012.00,0.0017
2011.00,0.0018
2010.00,0.0018
2009.00,0.0015
2008.00,0.0013
2007.00,0.0010
2006.00,0.0009
2005.00,0.0009
2004.00,0.0011
2003.00,0.0013
2002.00,0.0014
2001.00,0.0015
2000.00,0.0016
1999.00,0.0017
1998.00,0.0018
1997.00,0.0018
1996.00,0.0018
1995.00,0.0019
1994.00,0.0019
1993.00,0.0020
1992.00,0.0022
1991.00,0.0023
1990.00,0.0023
1989.00,0.0023
1988.00,0.0024
1987.00,0.0024
1986.00,0.0024
1985.00,0.0025
1984.00,0.0027
1983.00,0.0030
1982.00,0.0032
1981.00,0.0032
1980.00,0.0030
1979.00,0.0025
1978.00,0.0019
1977.00,0.0015
1976.00,0.0014
1975.00,0.0015
1974.00,0.0015
1973.00,0.0015
1972.00,0.0015
1971.00,0.0015
1970.00,0.0013
1969.00,0.0013
1968.00,0.0013
1967.00,0.0014
1966.00,0.0014
1965.00,0.0014
1964.00,0.0014
1963.00,0.0013
1962.00,0.0012
1961.00,0.0011
1960.00,0.0010
1959.00,0.0010
1958.00,0.0010
1957.00,0.0011
1956.00,0.0012
1955.00,0.0013
1954.00,0.0013
1953.00,0.0013
1952.00,0.0014
1951.00,0.0014
1950.00,0.0015
1949.00,0.0015
1948.00,0.0016
1947.00,0.0017
1946.00,0.0017
1945.00,0.0017
1944.00,0.0016
1943.00,0.0014
1942.00,0.0013
1941.00,0.0014
1940.00,0.0015
1939.00,0.0016
1938.00,0.0016
1937.00,0.0017
1936.00,0.0017
1935.00,0.0018
1934.00,0.0018
1933.00,0.0018
1932.00,0.0019
1931.00,0.0019
1930.00,0.0019
1929.00,0.0018
1928.00,0.0018
1927.00,0.0018
1926.00,0.0018
1925.00,0.0018
1924.00,0.0018
1923.00,0.0019
1922.00,0.0019
1921.00,0.0019
1920.00,0.0019
1919.00,0.0019
1918.00,0.0018
1917.00,0.0018
1916.00,0.0019
1915.00,0.0020
1914.00,0.0021
1913.00,0.0022
1912.00,0.0023
1911.00,0.0024
1910.00,0.0025
1909.00,0.0026
1908.00,0.0026
1907.00,0.0026
1906.00,0.0025
1905.00,0.0024
1904.00,0.0024
1903.00,0.0023
1902.00,0.0023
1901.00,0.0023
1900.00,0.0023
1899.00,0.0023
1898.00,0.0022
1897.00,0.0022
1896.00,0.0023
1895.00,0.0023
1894.00,0.0023
1893.00,0.0023
1892.00,0.0023
1891.00,0.0022
1890.00,0.0021
1889.00,0.0021
1888.00,0.0022
1887.00,0.0023
1886.00,0.0023
1885.00,0.0023
1884.00,0.0023
1883.00,0.0022
1882.00,0.0022
1881.00,0.0022
1880.00,0.0023
1879.00,0.0023
1878.00,0.0023
1877.00,0.0023
1876.00,0.0023
1875.00,0.0023
1874.00,0.0023
1873.00,0.0022
1872.00,0.0022
1871.00,0.0022
1870.00,0.0021
1869.00,0.0021
1868.00,0.0021
1867.00,0.0021
1866.00,0.0022
1865.00,0.0022
1864.00,0.0023
1863.00,0.0023
1862.00,0.0023
1861.00,0.0023
1860.00,0.0024
1859.00,0.0024
1858.00,0.0025
1857.00,0.0025
1856.00,0.0025
1855.00,0.0025
1854.00,0.0025
1853.00,0.0025
1852.00,0.0025
1851.00,0.0025
1850.00,0.0025
1849.00,0.0026
1848.00,0.0026
1847.00,0.0026
1846.00,0.0026
1845.00,0.0024
1844.00,0.0024
1843.00,0.0024
1842.00,0.0025
1841.00,0.0025
1840.00,0.0025
1839.00,0.0025
1838.00,0.0025
1837.00,0.0025
1836.00,0.0025
1835.00,0.0025
1834.00,0.0025
1833.00,0.0025
1832.00,0.0025
1831.00,0.0024
1830.00,0.0023
1829.00,0.0022
1828.00,0.0022
1827.00,0.0023
1826.00,0.0023
1825.00,0.0024
1824.00,0.0024
1823.00,0.0025
1822.00,0.0025
1821.00,0.0025
1820.00,0.0025
1819.00,0.0025
1818.00,0.0024
1817.00,0.0023
1816.00,0.0023
1815.00,0.0024
1814.00,0.0024
1813.00,0.0025
1812.00,0.0025
1811.00,0.0026
1810.00,0.0026
1809.00,0.0027
1808.00,0.0027
1807.00,0.0028
1806.00,0.0028
1805.00,0.0028
1804.00,0.0028
1803.00,0.0028
1802.00,0.0027
1801.00,0.0027
1800.00,0.0028
1799.00,0.0028
1798.00,0.0028
1797.00,0.0029
1796.00,0.0030
1795.00,0.0030
1794.00,0.0029
1793.00,0.0027
1792.00,0.0027
1791.00,0.0028
1790.00,0.0029
1789.00,0.0030
1788.00,0.0031
1787.00,0.0031
1786.00,0.0031
1785.00,0.0031
1784.00,0.0031
1783.00,0.0031
1782.00,0.0031
1781.00,0.0032
1780.00,0.0032
1779.00,0.0033
1778.00,0.0033
1777.00,0.0034
1776.00,0.0035
1775.00,0.0035
1774.00,0.0035
1773.00,0.0035
1772.00,0.0035
1771.00,0.0035
1770.00,0.0035
1769.00,0.0035
1768.00,0.0035
1767.00,0.0036
1766.00,0.0037
1765.00,0.0037
1764.00,0.0037
1763.00,0.0037
1762.00,0.0037
1761.00,0.0038
1760.00,0.0039
1759.00,0.0039
1758.00,0.0039
1757.00,0.0039
1756.00,0.0039
1755.00,0.0039
1754.00,0.0039
1753.00,0.0039
1752.00,0.0039
1751.00,0.0040
1750.00,0.0039
1749.00,0.0040
1748.00,0.0040
1747.00,0.0041
1746.00,0.0042
1745.00,0.0043
1744.00,0.0044
1743.00,0.0045
1742.00,0.0045
1741.00,0.0045
1740.00,0.0045
1739.00,0.0047
1738.00,0.0048
1737.00,0.0049
1736.00,0.0050
1735.00,0.0050
1734.00,0.0051
1733.00,0.0053
1732.00,0.0056
1731.00,0.0057
1730.00,0.0058
1729.00,0.0060
1728.00,0.0062
1727.00,0.0064
1726.00,0.0066
1725.00,0.0067
1724.00,0.0069
1723.00,0.0071
1722.00,0.0072
1721.00,0.0073
1720.00,0.0074
1719.00,0.0074
1718.00,0.0076
1717.00,0.0079
1716.00,0.0083
1715.00,0.0087
1714.00,0.0089
1713.00,0.0093
1712.00,0.0098
1711.00,0.0103
1710.00,0.0108
1709.00,0.0112
1708.00,0.0117
1707.00,0.0123
1706.00,0.0129
1705.00,0.0136
1704.00,0.0145
1703.00,0.0152
1702.00,0.0160
1701.00,0.0170
1700.00,0.0184
1699.00,0.0200
1698.00,0.0215
1697.00,0.0233
1696.00,0.0256
1695.00,0.0281
1694.00,0.0302
1693.00,0.0321
1692.00,0.0341
1691.00,0.0364
1690.00,0.0388
1689.00,0.0412
1688.00,0.0436
1687.00,0.0459
1686.00,0.0481
1685.00,0.0505
1684.00,0.0530
1683.00,0.0553
1682.00,0.0572
1681.00,0.0592
1680.00,0.0613
1679.00,0.0634
1678.00,0.0653
1677.00,0.0671
1676.00,0.0688
1675.00,0.0705
1674.00,0.0721
1673.00,0.0738
1672.00,0.0758
1671.00,0.0778
1670.00,0.0795
1669.00,0.0811
1668.00,0.0829
1667.00,0.0849
1666.00,0.0869
1665.00,0.0890
1664.00,0.0910
1663.00,0.0926
1662.00,0.0938
1661.00,0.0951
1660.00,0.0965
1659.00,0.0980
1658.00,0.0995
1657.00,0.1009
1656.00,0.1025
1655.00,0.1040
1654.00,0.1041
1653.00,0.1022
1652.00,0.1008
1651.00,0.1011
1650.00,0.1020
1649.00,0.1029
1648.00,0.1031
1647.00,0.1021
1646.00,0.1005
1645.00,0.0991
1644.00,0.0982
1643.00,0.0973
1642.00,0.0959
1641.00,0.0940
1640.00,0.0919
1639.00,0.0898
1638.00,0.0877
1637.00,0.0849
1636.00,0.0813
1635.00,0.0777
1634.00,0.0753
1633.00,0.0744
1632.00,0.0742
1631.00,0.0742
1630.00,0.0744
1629.00,0.0746
1628.00,0.0752
1627.00,0.0760
1626.00,0.0769
1625.00,0.0777
1624.00,0.0781
1623.00,0.0779
1622.00,0.0772
1621.00,0.0761
1620.00,0.0747
1619.00,0.0728
1618.00,0.0698
1617.00,0.0657
1616.00,0.0615
1615.00,0.0586
1614.00,0.0568
1613.00,0.0556
1612.00,0.0546
1611.00,0.0535
1610.00,0.0520
1609.00,0.0501
1608.00,0.0477
1607.00,0.0452
1606.00,0.0425
1605.00,0.0397
1604.00,0.0371
1603.00,0.0345
1602.00,0.0322
1601.00,0.0301
1600.00,0.0284
1599.00,0.0270
1598.00,0.0259
1597.00,0.0252
1596.00,0.0248
1595.00,0.0247
1594.00,0.0250
1593.00,0.0256
1592.00,0.0267
1591.00,0.0281
1590.00,0.0298
1589.00,0.0317
1588.00,0.0336
1587.00,0.0352
1586.00,0.0364
1585.00,0.0372
1584.00,0.0375
1583.00,0.0376
1582.00,0.0373
1581.00,0.0368
1580.00,0.0360
1579.00,0.0351
1578.00,0.0339
1577.00,0.0322
1576.00,0.0301
1575.00,0.0283
1574.00,0.0270
1573.00,0.0261
1572.00,0.0253
1571.00,0.0244
1570.00,0.0233
1569.00,0.0223
1568.00,0.0214
1567.00,0.0207
1566.00,0.0199
1565.00,0.0190
1564.00,0.0180
1563.00,0.0172
1562.00,0.0165
1561.00,0.0158
1560.00,0.0147
1559.00,0.0133
1558.00,0.0124
1557.00,0.0121
1556.00,0.0120
1555.00,0.0120
1554.00,0.0120
1553.00,0.0119
1552.00,0.0117
1551.00,0.0115
1550.00,0.0113
1549.00,0.0112
1548.00,0.0111
1547.00,0.0109
1546.00,0.0107
1545.00,0.0105
1544.00,0.0102
1543.00,0.0100
1542.00,0.0097
1541.00,0.0094
1540.00,0.0092
1539.00,0.0092
1538.00,0.0092
1537.00,0.0092
1536.00,0.0091
1535.00,0.0089
1534.00,0.0086
1533.00,0.0083
1532.00,0.0082
1531.00,0.0081
1530.00,0.0081
1529.00,0.0080
1528.00,0.0077
1527.00,0.0073
1526.00,0.0070
1525.00,0.0067
1524.00,0.0065
1523.00,0.0065
1522.00,0.0066
1521.00,0.0069
1520.00,0.0073
1519.00,0.0078
1518.00,0.0083
1517.00,0.0088
1516.00,0.0093
1515.00,0.0099
1514.00,0.0105
1513.00,0.0111
1512.00,0.0117
1511.00,0.0122
1510.00,0.0127
1509.00,0.0131
1508.00,0.0135
1507.00,0.0141
1506.00,0.0151
1505.00,0.0162
1504.00,0.0174
1503.00,0.0186
1502.00,0.0201
1501.00,0.0218
1500.00,0.0238
1499.00,0.0262
1498.00,0.0288
1497.00,0.0313
1496.00,0.0330
1495.00,0.0337
1494.00,0.0335
1493.00,0.0326
1492.00,0.0312
1491.00,0.0292
1490.00,0.0270
1489.00,0.0248
1488.00,0.0229
1487.00,0.0213
1486.00,0.0200
1485.00,0.0189
1484.00,0.0181
1483.00,0.0173
1482.00,0.0167
1481.00,0.0163
1480.00,0.0161
1479.00,0.0160
1478.00,0.0161
1477.00,0.0164
1476.00,0.0169
1475.00,0.0177
1474.00,0.0188
1473.00,0.0205
1472.00,0.0230
1471.00,0.0259
1470.00,0.0288
1469.00,0.0320
1468.00,0.0355
1467.00,0.0391
1466.00,0.0427
1465.00,0.0461
1464.00,0.0489
1463.00,0.0507
1462.00,0.0518
1461.00,0.0525
1460.00,0.0525
1459.00,0.0515
1458.00,0.0489
1457.00,0.0450
1456.00,0.0414
1455.00,0.0392
1454.00,0.0381
1453.00,0.0374
1452.00,0.0372
1451.00,0.0375
1450.00,0.0381
1449.00,0.0393
1448.00,0.0409
1447.00,0.0429
1446.00,0.0454
1445.00,0.0482
1444.00,0.0514
1443.00,0.0545
1442.00,0.0574
1441.00,0.0601
1440.00,0.0625
1439.00,0.0645
1438.00,0.0659
1437.00,0.0668
1436.00,0.0672
1435.00,0.0677
1434.00,0.0684
1433.00,0.0694
1432.00,0.0702
1431.00,0.0709
1430.00,0.0716
1429.00,0.0725
1428.00,0.0737
1427.00,0.0751
1426.00,0.0765
1425.00,0.0779
1424.00,0.0788
1423.00,0.0793
1422.00,0.0792
1421.00,0.0784
1420.00,0.0761
1419.00,0.0720
1418.00,0.0674
1417.00,0.0632
1416.00,0.0594
1415.00,0.0558
1414.00,0.0524
1413.00,0.0493
1412.00,0.0465
1411.00,0.0442
1410.00,0.0426
1409.00,0.0415
1408.00,0.0409
1407.00,0.0406
1406.00,0.0407
1405.00,0.0411
1404.00,0.0416
1403.00,0.0421
1402.00,0.0424
1401.00,0.0424
1400.00,0.0418
1399.00,0.0408
1398.00,0.0395
1397.00,0.0380
1396.00,0.0362
1395.00,0.0342
1394.00,0.0322
1393.00,0.0306
1392.00,0.0295
1391.00,0.0287
1390.00,0.0283
1389.00,0.0284
1388.00,0.0290
1387.00,0.0298
1386.00,0.0305
1385.00,0.0309
1384.00,0.0312
1383.00,0.0317
1382.00,0.0326
1381.00,0.0340
1380.00,0.0355
1379.00,0.0368
1378.00,0.0378
1377.00,0.0384
1376.00,0.0384
1375.00,0.0378
1374.00,0.0368
1373.00,0.0357
1372.00,0.0349
1371.00,0.0345
1370.00,0.0343
1369.00,0.0344
1368.00,0.0347
1367.00,0.0353
1366.00,0.0359
1365.00,0.0361
1364.00,0.0360
1363.00,0.0358
1362.00,0.0360
1361.00,0.0365
1360.00,0.0366
1359.00,0.0359
1358.00,0.0345
1357.00,0.0326
1356.00,0.0308
1355.00,0.0292
1354.00,0.0280
1353.00,0.0271
1352.00,0.0263
1351.00,0.0257
1350.00,0.0253
1349.00,0.0250
1348.00,0.0246
1347.00,0.0240
1346.00,0.0234
1345.00,0.0227
1344.00,0.0221
1343.00,0.0217
1342.00,0.0215
1341.00,0.0213
1340.00,0.0212
1339.00,0.0209
1338.00,0.0206
1337.00,0.0204
1336.00,0.0204
1335.00,0.0207
1334.00,0.0213
1333.00,0.0223
1332.00,0.0234
1331.00,0.0245
1330.00,0.0255
1329.00,0.0265
1328.00,0.0274
1327.00,0.0283
1326.00,0.0291
1325.00,0.0299
1324.00,0.0306
1323.00,0.0312
1322.00,0.0317
1321.00,0.0322
1320.00,0.0325
1319.00,0.0328
1318.00,0.0329
1317.00,0.0330
1316.00,0.0330
1315.00,0.0328
1314.00,0.0325
1313.00,0.0321
1312.00,0.0316
1311.00,0.0313
1310.00,0.0314
1309.00,0.0318
1308.00,0.0326
1307.00,0.0338
1306.00,0.0354
1305.00,0.0375
1304.00,0.0399
1303.00,0.0427
1302.00,0.0455
1301.00,0.0482
1300.00,0.0507
1299.00,0.0531
1298.00,0.0558
1297.00,0.0588
1296.00,0.0624
1295.00,0.0664
1294.00,0.0705
1293.00,0.0744
1292.00,0.0780
1291.00,0.0810
1290.00,0.0835
1289.00,0.0856
1288.00,0.0873
1287.00,0.0886
1286.00,0.0893
1285.00,0.0896
1284.00,0.0893
1283.00,0.0884
1282.00,0.0870
1281.00,0.0851
1280.00,0.0831
1279.00,0.0812
1278.00,0.0794
1277.00,0.0781
1276.00,0.0770
1275.00,0.0761
1274.00,0.0752
1273.00,0.0742
1272.00,0.0728
1271.00,0.0711
1270.00,0.0691
1269.00,0.0669
1268.00,0.0643
1267.00,0.0615
1266.00,0.0586
1265.00,0.0557
1264.00,0.0527
1263.00,0.0498
1262.00,0.0471
1261.00,0.0446
1260.00,0.0424
1259.00,0.0406
1258.00,0.0391
1257.00,0.0380
1256.00,0.0373
1255.00,0.0368
1254.00,0.0366
1253.00,0.0365
1252.00,0.0367
1251.00,0.0370
1250.00,0.0376
1249.00,0.0384
1248.00,0.0393
1247.00,0.0403
1246.00,0.0415
1245.00,0.0428
1244.00,0.0440
1243.00,0.0453
1242.00,0.0465
1241.00,0.0478
1240.00,0.0491
1239.00,0.0505
1238.00,0.0520
1237.00,0.0535
1236.00,0.0548
1235.00,0.0559
1234.00,0.0565
1233.00,0.0566
1232.00,0.0560
1231.00,0.0550
1230.00,0.0537
1229.00,0.0524
1228.00,0.0511
1227.00,0.0501
1226.00,0.0492
1225.00,0.0486
1224.00,0.0481
1223.00,0.0477
1222.00,0.0474
1221.00,0.0474
1220.00,0.0475
1219.00,0.0479
1218.00,0.0486
1217.00,0.0496
1216.00,0.0505
1215.00,0.0512
1214.00,0.0513
1213.00,0.0507
1212.00,0.0494
1211.00,0.0476
1210.00,0.0456
1209.00,0.0436
1208.00,0.0417
1207.00,0.0401
1206.00,0.0388
1205.00,0.0379
1204.00,0.0372
1203.00,0.0369
1202.00,0.0367
1201.00,0.0368
1200.00,0.0372
1199.00,0.0378
1198.00,0.0387
1197.00,0.0400
1196.00,0.0414
1195.00,0.0425
1194.00,0.0431
1193.00,0.0430
1192.00,0.0424
1191.00,0.0413
1190.00,0.0398
1189.00,0.0380
1188.00,0.0362
1187.00,0.0343
1186.00,0.0326
1185.00,0.0311
1184.00,0.0298
1183.00,0.0289
1182.00,0.0282
1181.00,0.0278
1180.00,0.0276
1179.00,0.0275
1178.00,0.0275
1177.00,0.0276
1176.00,0.0276
1175.00,0.0276
1174.00,0.0277
1173.00,0.0276
1172.00,0.0275
1171.00,0.0272
1170.00,0.0268
1169.00,0.0262
1168.00,0.0257
1167.00,0.0251
1166.00,0.0246
1165.00,0.0242
1164.00,0.0240
1163.00,0.0241
1162.00,0.0244
1161.00,0.0249
1160.00,0.0258
1159.00,0.0271
1158.00,0.0288
1157.00,0.0307
1156.00,0.0327
1155.00,0.0342
1154.00,0.0349
1153.00,0.0346
1152.00,0.0330
1151.00,0.0304
1150.00,0.0272
1149.00,0.0237
1148.00,0.0202
1147.00,0.0172
1146.00,0.0149
1145.00,0.0135
1144.00,0.0129
1143.00,0.0129
1142.00,0.0134
1141.00,0.0140
1140.00,0.0147
1139.00,0.0155
1138.00,0.0163
1137.00,0.0175
1136.00,0.0191
1135.00,0.0213
1134.00,0.0243
1133.00,0.0279
1132.00,0.0320
1131.00,0.0362
1130.00,0.0398
1129.00,0.0425
1128.00,0.0439
1127.00,0.0440
1126.00,0.0431
1125.00,0.0415
1124.00,0.0393
1123.00,0.0368
1122.00,0.0342
1121.00,0.0318
1120.00,0.0298
1119.00,0.0282
1118.00,0.0271
1117.00,0.0263
1116.00,0.0257
1115.00,0.0254
1114.00,0.0250
1113.00,0.0247
1112.00,0.0242
1111.00,0.0238
1110.00,0.0234
1109.00,0.0233
1108.00,0.0234
1107.00,0.0237
1106.00,0.0244
1105.00,0.0255
1104.00,0.0271
1103.00,0.0290
1102.00,0.0312
1101.00,0.0332
1100.00,0.0345
1099.00,0.0348
1098.00,0.0340
1097.00,0.0324
1096.00,0.0304
1095.00,0.0284
1094.00,0.0266
1093.00,0.0252
1092.00,0.0240
1091.00,0.0232
1090.00,0.0225
1089.00,0.0220
1088.00,0.0216
1087.00,0.0212
1086.00,0.0208
1085.00,0.0205
1084.00,0.0202
1083.00,0.0200
1082.00,0.0198
1081.00,0.0198
1080.00,0.0199
1079.00,0.0201
1078.00,0.0205
1077.00,0.0210
1076.00,0.0215
1075.00,0.0220
1074.00,0.0225
1073.00,0.0230
1072.00,0.0235
1071.00,0.0239
1070.00,0.0244
1069.00,0.0249
1068.00,0.0255
1067.00,0.0262
1066.00,0.0270
1065.00,0.0279
1064.00,0.0291
1063.00,0.0306
1062.00,0.0326
1061.00,0.0350
1060.00,0.0380
1059.00,0.0416
1058.00,0.0457
1057.00,0.0501
1056.00,0.0543
1055.00,0.0577
1054.00,0.0599
1053.00,0.0609
1052.00,0.0607
1051.00,0.0593
1050.00,0.0571
1049.00,0.0540
1048.00,0.0500
1047.00,0.0454
1046.00,0.0407
1045.00,0.0363
1044.00,0.0325
1043.00,0.0296
1042.00,0.0274
1041.00,0.0259
1040.00,0.0251
1039.00,0.0249
1038.00,0.0255
1037.00,0.0266
1036.00,0.0283
1035.00,0.0305
1034.00,0.0329
1033.00,0.0357
1032.00,0.0387
1031.00,0.0421
1030.00,0.0457
1029.00,0.0494
1028.00,0.0525
1027.00,0.0545
1026.00,0.0549
1025.00,0.0538
1024.00,0.0516
1023.00,0.0488
1022.00,0.0459
1021.00,0.0434
1020.00,0.0411
1019.00,0.0389
1018.00,0.0365
1017.00,0.0339
1016.00,0.0312
1015.00,0.0284
1014.00,0.0260
1013.00,0.0242
1012.00,0.0232
1011.00,0.0231
1010.00,0.0237
1009.00,0.0250
1008.00,0.0268
1007.00,0.0288
1006.00,0.0308
1005.00,0.0327
1004.00,0.0342
1003.00,0.0349
1002.00,0.0349
1001.00,0.0343
1000.00,0.0334
999.00,0.0324
998.00,0.0314
997.00,0.0305
996.00,0.0296
995.00,0.0288
994.00,0.0280
993.00,0.0272
992.00,0.0263
991.00,0.0253
990.00,0.0243
989.00,0.0234
988.00,0.0226
987.00,0.0219
986.00,0.0211
985.00,0.0203
984.00,0.0196
983.00,0.0189
982.00,0.0183
981.00,0.0178
980.00,0.0175
979.00,0.0173
978.00,0.0173
977.00,0.0174
976.00,0.0174
975.00,0.0173
974.00,0.0172
973.00,0.0171
972.00,0.0169
971.00,0.0168
970.00,0.0166
969.00,0.0166
968.00,0.0166
967.00,0.0169
966.00,0.0175
965.00,0.0183
964.00,0.0193
963.00,0.0202
962.00,0.0211
961.00,0.0217
960.00,0.0219
959.00,0.0218
958.00,0.0217
957.00,0.0216
956.00,0.0216
955.00,0.0216
954.00,0.0216
953.00,0.0217
952.00,0.0217
951.00,0.0217
950.00,0.0217
949.00,0.0218
948.00,0.0217
947.00,0.0214
946.00,0.0210
945.00,0.0205
944.00,0.0201
943.00,0.0199
942.00,0.0199
941.00,0.0200
940.00,0.0203
939.00,0.0206
938.00,0.0210
937.00,0.0214
936.00,0.0218
935.00,0.0223
934.00,0.0225
933.00,0.0226
932.00,0.0224
931.00,0.0219
930.00,0.0213
929.00,0.0207
928.00,0.0203
927.00,0.0200
926.00,0.0198
925.00,0.0198
924.00,0.0199
923.00,0.0199
922.00,0.0197
921.00,0.0191
920.00,0.0182
919.00,0.0171
918.00,0.0161
917.00,0.0154
916.00,0.0149
915.00,0.0147
914.00,0.0145
913.00,0.0143
912.00,0.0141
911.00,0.0139
910.00,0.0139
909.00,0.0140
908.00,0.0143
907.00,0.0149
906.00,0.0156
905.00,0.0165
904.00,0.0177
903.00,0.0192
902.00,0.0211
901.00,0.0232
900.00,0.0254
899.00,0.0273
898.00,0.0286
897.00,0.0292
896.00,0.0292
895.00,0.0289
894.00,0.0286
893.00,0.0286
892.00,0.0291
891.00,0.0298
890.00,0.0304
889.00,0.0304
888.00,0.0298
887.00,0.0291
886.00,0.0285
885.00,0.0282
884.00,0.0281
883.00,0.0277
882.00,0.0271
881.00,0.0263
880.00,0.0256
879.00,0.0251
878.00,0.0252
877.00,0.0259
876.00,0.0272
875.00,0.0290
874.00,0.0312
873.00,0.0336
872.00,0.0360
871.00,0.0381
870.00,0.0394
869.00,0.0397
868.00,0.0390
867.00,0.0377
866.00,0.0362
865.00,0.0347
864.00,0.0332
863.00,0.0314
862.00,0.0294
861.00,0.0273
860.00,0.0257
859.00,0.0250
858.00,0.0254
857.00,0.0269
856.00,0.0290
855.00,0.0313
854.00,0.0334
853.00,0.0353
852.00,0.0371
851.00,0.0388
850.00,0.0403
849.00,0.0414
848.00,0.0416
847.00,0.0410
846.00,0.0398
845.00,0.0383
844.00,0.0367
843.00,0.0351
842.00,0.0336
841.00,0.0321
840.00,0.0310
839.00,0.0306
838.00,0.0310
837.00,0.0324
836.00,0.0342
835.00,0.0362
834.00,0.0378
833.00,0.0390
832.00,0.0394
831.00,0.0391
830.00,0.0380
829.00,0.0365
828.00,0.0347
827.00,0.0330
826.00,0.0316
825.00,0.0310
824.00,0.0314
823.00,0.0333
822.00,0.0364
821.00,0.0400
820.00,0.0426
819.00,0.0441
818.00,0.0452
817.00,0.0468
816.00,0.0484
815.00,0.0487
814.00,0.0466
813.00,0.0428
812.00,0.0386
811.00,0.0348
810.00,0.0320
809.00,0.0299
808.00,0.0284
807.00,0.0274
806.00,0.0268
805.00,0.0263
804.00,0.0257
803.00,0.0249
802.00,0.0240
801.00,0.0231
800.00,0.0224
799.00,0.0220
798.00,0.0218
797.00,0.0217
796.00,0.0217
795.00,0.0217
794.00,0.0217
793.00,0.0217
792.00,0.0217
791.00,0.0218
790.00,0.0218
789.00,0.0218
788.00,0.0218
787.00,0.0218
786.00,0.0217
785.00,0.0216
784.00,0.0215
783.00,0.0214
782.00,0.0213
781.00,0.0213
780.00,0.0214
779.00,0.0218
778.00,0.0225
777.00,0.0235
776.00,0.0246
775.00,0.0257
774.00,0.0262
773.00,0.0263
772.00,0.0259
771.00,0.0254
770.00,0.0250
769.00,0.0249
768.00,0.0248
767.00,0.0249
766.00,0.0252
765.00,0.0256
764.00,0.0262
763.00,0.0269
762.00,0.0277
761.00,0.0285
760.00,0.0293
759.00,0.0299
758.00,0.0303
757.00,0.0307
756.00,0.0310
755.00,0.0313
754.00,0.0316
753.00,0.0320
752.00,0.0324
751.00,0.0327
750.00,0.0331
749.00,0.0335
748.00,0.0338
747.00,0.0340
746.00,0.0343
745.00,0.0346
744.00,0.0351
743.00,0.0358
742.00,0.0365
741.00,0.0374
740.00,0.0386
739.00,0.0402
738.00,0.0421
737.00,0.0443
736.00,0.0464
735.00,0.0477
734.00,0.0480
733.00,0.0473
732.00,0.0462
731.00,0.0452
730.00,0.0448
729.00,0.0446
728.00,0.0444
727.00,0.0437
726.00,0.0425
725.00,0.0412
724.00,0.0401
723.00,0.0393
722.00,0.0388
721.00,0.0387
720.00,0.0388
719.00,0.0391
718.00,0.0397
717.00,0.0404
716.00,0.0411
715.00,0.0415
714.00,0.0416
713.00,0.0414
712.00,0.0411
711.00,0.0407
710.00,0.0402
709.00,0.0399
708.00,0.0396
707.00,0.0396
706.00,0.0397
705.00,0.0399
704.00,0.0402
703.00,0.0407
702.00,0.0412
701.00,0.0417
700.00,0.0423
699.00,0.0428
698.00,0.0433
697.00,0.0436
696.00,0.0437
695.00,0.0436
694.00,0.0436
693.00,0.0438
692.00,0.0442
691.00,0.0449
690.00,0.0458
689.00,0.0468
688.00,0.0476
687.00,0.0480
686.00,0.0480
685.00,0.0478
684.00,0.0477
683.00,0.0477
682.00,0.0478
681.00,0.0481
680.00,0.0485
679.00,0.0490
678.00,0.0496
677.00,0.0504
676.00,0.0514
675.00,0.0525
674.00,0.0537
673.00,0.0548
672.00,0.0558
671.00,0.0566
670.00,0.0573
669.00,0.0577
668.00,0.0579
667.00,0.0580
666.00,0.0583
665.00,0.0587
664.00,0.0593
663.00,0.0602
662.00,0.0610
661.00,0.0617
660.00,0.0620
659.00,0.0620
658.00,0.0617
657.00,0.0615
656.00,0.0615
655.00,0.0619
654.00,0.0625
653.00,0.0632
652.00,0.0640
651.00,0.0646
650.00,0.0652
649.00,0.0656
648.00,0.0658
647.00,0.0657
646.00,0.0654
645.00,0.0650
644.00,0.0646
643.00,0.0641
642.00,0.0636
641.00,0.0630
640.00,0.0625
639.00,0.0619
638.00,0.0613
637.00,0.0609
636.00,0.0604
635.00,0.0601
634.00,0.0597
633.00,0.0594
632.00,0.0590
631.00,0.0588
630.00,0.0585
629.00,0.0584
628.00,0.0584
627.00,0.0585
626.00,0.0586
625.00,0.0589
624.00,0.0593
623.00,0.0597
622.00,0.0602
621.00,0.0607
620.00,0.0612
619.00,0.0613
618.00,0.0612
617.00,0.0608
616.00,0.0603
615.00,0.0597
614.00,0.0593
613.00,0.0590
612.00,0.0589
611.00,0.0589
610.00,0.0591
609.00,0.0595
608.00,0.0604
607.00,0.0615
606.00,0.0629
605.00,0.0642
604.00,0.0652
603.00,0.0660
602.00,0.0665
601.00,0.0669
600.00,0.0672
599.00,0.0673
598.00,0.0673
597.00,0.0671
596.00,0.0669
595.00,0.0668
594.00,0.0668
593.00,0.0669
592.00,0.0672
591.00,0.0674
590.00,0.0678
589.00,0.0683
588.00,0.0689
587.00,0.0697
586.00,0.0706
585.00,0.0716
584.00,0.0727
583.00,0.0738
582.00,0.0747
581.00,0.0755
580.00,0.0763
579.00,0.0773
578.00,0.0783
577.00,0.0793
576.00,0.0801
575.00,0.0802
574.00,0.0798
573.00,0.0790
572.00,0.0781
571.00,0.0773
570.00,0.0765
569.00,0.0758
568.00,0.0753
567.00,0.0751
566.00,0.0751
565.00,0.0753
564.00,0.0757
563.00,0.0763
562.00,0.0770
561.00,0.0778
560.00,0.0782
559.00,0.0783
558.00,0.0781
557.00,0.0777
556.00,0.0772
555.00,0.0768
554.00,0.0765
553.00,0.0765
552.00,0.0767
551.00,0.0771
550.00,0.0776
549.00,0.0784
548.00,0.0792
547.00,0.0798
546.00,0.0800
545.00,0.0799
544.00,0.0793
543.00,0.0784
542.00,0.0774
541.00,0.0764
540.00,0.0755
539.00,0.0748
538.00,0.0741
537.00,0.0737
536.00,0.0737
535.00,0.0741
534.00,0.0750
533.00,0.0762
532.00,0.0775
531.00,0.0783
530.00,0.0786
529.00,0.0783
528.00,0.0777
527.00,0.0771
526.00,0.0764
525.00,0.0758
524.00,0.0754
523.00,0.0751
522.00,0.0747
521.00,0.0741
520.00,0.0734
519.00,0.0726
518.00,0.0719
517.00,0.0713
516.00,0.0708
515.00,0.0706
514.00,0.0705
513.00,0.0704
512.00,0.0705
511.00,0.0707
510.00,0.0711
509.00,0.0716
508.00,0.0721
507.00,0.0725
506.00,0.0727
505.00,0.0729
504.00,0.0731
503.00,0.0733
502.00,0.0732
501.00,0.0730
500.00,0.0729
499.00,0.0729
498.00,0.0731
497.00,0.0735
496.00,0.0740
495.00,0.0744
494.00,0.0747
493.00,0.0749
492.00,0.0751
491.00,0.0752
490.00,0.0752
489.00,0.0750
488.00,0.0748
487.00,0.0745
486.00,0.0743
485.00,0.0743
484.00,0.0744
483.00,0.0745
482.00,0.0745
481.00,0.0745
480.00,0.0745
479.00,0.0744
478.00,0.0743
477.00,0.0742
476.00,0.0741
475.00,0.0740
474.00,0.0739
473.00,0.0737
472.00,0.0736
471.00,0.0736
470.00,0.0738
469.00,0.0740
468.00,0.0740
467.00,0.0737
466.00,0.0732
465.00,0.0728
464.00,0.0726
463.00,0.0725
462.00,0.0723
461.00,0.0720
460.00,0.0715
459.00,0.0709
458.00,0.0703
457.00,0.0697
456.00,0.0692
455.00,0.0687
454.00,0.0680
453.00,0.0673
452.00,0.0669
451.00,0.0669
450.00,0.0672
449.00,0.0674
448.00,0.0673
447.00,0.0669
446.00,0.0661
445.00,0.0655
444.00,0.0653
443.00,0.0653
442.00,0.0654
441.00,0.0653
440.00,0.0651
439.00,0.0646
438.00,0.0639
437.00,0.0631
436.00,0.0625
435.00,0.0620
434.00,0.0616
433.00,0.0613
432.00,0.0611
431.00,0.0608
430.00,0.0609
429.00,0.0613
428.00,0.0618
427.00,0.0622
426.00,0.0620
425.00,0.0614
424.00,0.0609
423.00,0.0608
422.00,0.0610
421.00,0.0613
420.00,0.0613
419.00,0.0609
418.00,0.0604
417.00,0.0603
416.00,0.0602
415.00,0.0598
414.00,0.0589
413.00,0.0580
412.00,0.0579
411.00,0.0585
410.00,0.0591
409.00,0.0593
408.00,0.0591
407.00,0.0586
406.00,0.0583
405.00,0.0586
404.00,0.0596
403.00,0.0608
402.00,0.0611
401.00,0.0604
400.00,0.0595
