Created as New Dataset,Sample 569 By YargerLab Date Thursday, June 05 2025
cm-1,A
4000.00,0.0009
3999.00,0.0009
3998.00,0.0009
3997.00,0.0009
3996.00,0.0009
3995.00,0.0009
3994.00,0.0009
3993.00,0.0009
3992.00,0.0009
3991.00,0.0009
3990.00,0.0009
3989.00,0.0009
3988.00,0.0009
3987.00,0.0009
3986.00,0.0009
3985.00,0.0008
3984.00,0.0008
3983.00,0.0008
3982.00,0.0009
3981.00,0.0009
3980.00,0.0009
3979.00,0.0009
3978.00,0.0009
3977.00,0.0009
3976.00,0.0009
3975.00,0.0009
3974.00,0.0008
3973.00,0.0008
3972.00,0.0008
3971.00,0.0008
3970.00,0.0008
3969.00,0.0008
3968.00,0.0008
3967.00,0.0008
3966.00,0.0008
3965.00,0.0008
3964.00,0.0008
3963.00,0.0008
3962.00,0.0008
3961.00,0.0008
3960.00,0.0008
3959.00,0.0008
3958.00,0.0008
3957.00,0.0008
3956.00,0.0008
3955.00,0.0008
3954.00,0.0008
3953.00,0.0008
3952.00,0.0008
3951.00,0.0008
3950.00,0.0008
3949.00,0.0008
3948.00,0.0008
3947.00,0.0008
3946.00,0.0008
3945.00,0.0008
3944.00,0.0008
3943.00,0.0008
3942.00,0.0008
3941.00,0.0008
3940.00,0.0008
3939.00,0.0008
3938.00,0.0008
3937.00,0.0008
3936.00,0.0008
3935.00,0.0008
3934.00,0.0008
3933.00,0.0008
3932.00,0.0007
3931.00,0.0007
3930.00,0.0007
3929.00,0.0008
3928.00,0.0008
3927.00,0.0008
3926.00,0.0008
3925.00,0.0008
3924.00,0.0008
3923.00,0.0008
3922.00,0.0008
3921.00,0.0008
3920.00,0.0008
3919.00,0.0008
3918.00,0.0008
3917.00,0.0008
3916.00,0.0008
3915.00,0.0008
3914.00,0.0008
3913.00,0.0008
3912.00,0.0008
3911.00,0.0008
3910.00,0.0008
3909.00,0.0008
3908.00,0.0008
3907.00,0.0008
3906.00,0.0008
3905.00,0.0008
3904.00,0.0008
3903.00,0.0008
3902.00,0.0008
3901.00,0.0008
3900.00,0.0007
3899.00,0.0007
3898.00,0.0007
3897.00,0.0007
3896.00,0.0007
3895.00,0.0007
3894.00,0.0007
3893.00,0.0007
3892.00,0.0007
3891.00,0.0007
3890.00,0.0007
3889.00,0.0007
3888.00,0.0007
3887.00,0.0007
3886.00,0.0007
3885.00,0.0007
3884.00,0.0007
3883.00,0.0007
3882.00,0.0007
3881.00,0.0008
3880.00,0.0007
3879.00,0.0007
3878.00,0.0007
3877.00,0.0008
3876.00,0.0008
3875.00,0.0007
3874.00,0.0007
3873.00,0.0007
3872.00,0.0007
3871.00,0.0007
3870.00,0.0007
3869.00,0.0007
3868.00,0.0007
3867.00,0.0007
3866.00,0.0006
3865.00,0.0006
3864.00,0.0006
3863.00,0.0006
3862.00,0.0006
3861.00,0.0006
3860.00,0.0006
3859.00,0.0006
3858.00,0.0007
3857.00,0.0007
3856.00,0.0008
3855.00,0.0009
3854.00,0.0009
3853.00,0.0008
3852.00,0.0008
3851.00,0.0008
3850.00,0.0007
3849.00,0.0007
3848.00,0.0007
3847.00,0.0006
3846.00,0.0006
3845.00,0.0006
3844.00,0.0006
3843.00,0.0006
3842.00,0.0006
3841.00,0.0006
3840.00,0.0006
3839.00,0.0006
3838.00,0.0006
3837.00,0.0007
3836.00,0.0007
3835.00,0.0007
3834.00,0.0007
3833.00,0.0007
3832.00,0.0007
3831.00,0.0007
3830.00,0.0007
3829.00,0.0007
3828.00,0.0006
3827.00,0.0006
3826.00,0.0006
3825.00,0.0006
3824.00,0.0006
3823.00,0.0006
3822.00,0.0006
3821.00,0.0006
3820.00,0.0006
3819.00,0.0007
3818.00,0.0007
3817.00,0.0007
3816.00,0.0007
3815.00,0.0007
3814.00,0.0006
3813.00,0.0007
3812.00,0.0007
3811.00,0.0007
3810.00,0.0007
3809.00,0.0008
3808.00,0.0008
3807.00,0.0008
3806.00,0.0007
3805.00,0.0007
3804.00,0.0007
3803.00,0.0007
3802.00,0.0006
3801.00,0.0006
3800.00,0.0006
3799.00,0.0006
3798.00,0.0006
3797.00,0.0007
3796.00,0.0007
3795.00,0.0007
3794.00,0.0007
3793.00,0.0007
3792.00,0.0007
3791.00,0.0007
3790.00,0.0007
3789.00,0.0007
3788.00,0.0007
3787.00,0.0007
3786.00,0.0007
3785.00,0.0007
3784.00,0.0007
3783.00,0.0007
3782.00,0.0007
3781.00,0.0008
3780.00,0.0008
3779.00,0.0008
3778.00,0.0008
3777.00,0.0008
3776.00,0.0008
3775.00,0.0008
3774.00,0.0008
3773.00,0.0007
3772.00,0.0007
3771.00,0.0007
3770.00,0.0007
3769.00,0.0006
3768.00,0.0007
3767.00,0.0007
3766.00,0.0007
3765.00,0.0007
3764.00,0.0007
3763.00,0.0007
3762.00,0.0007
3761.00,0.0007
3760.00,0.0007
3759.00,0.0007
3758.00,0.0007
3757.00,0.0007
3756.00,0.0007
3755.00,0.0007
3754.00,0.0007
3753.00,0.0007
3752.00,0.0007
3751.00,0.0007
3750.00,0.0007
3749.00,0.0007
3748.00,0.0007
3747.00,0.0008
3746.00,0.0008
3745.00,0.0008
3744.00,0.0008
3743.00,0.0007
3742.00,0.0007
3741.00,0.0006
3740.00,0.0006
3739.00,0.0006
3738.00,0.0006
3737.00,0.0006
3736.00,0.0006
3735.00,0.0006
3734.00,0.0006
3733.00,0.0006
3732.00,0.0007
3731.00,0.0007
3730.00,0.0008
3729.00,0.0008
3728.00,0.0008
3727.00,0.0008
3726.00,0.0007
3725.00,0.0007
3724.00,0.0007
3723.00,0.0007
3722.00,0.0007
3721.00,0.0007
3720.00,0.0007
3719.00,0.0008
3718.00,0.0008
3717.00,0.0008
3716.00,0.0008
3715.00,0.0008
3714.00,0.0008
3713.00,0.0008
3712.00,0.0008
3711.00,0.0008
3710.00,0.0008
3709.00,0.0009
3708.00,0.0009
3707.00,0.0009
3706.00,0.0009
3705.00,0.0009
3704.00,0.0009
3703.00,0.0009
3702.00,0.0009
3701.00,0.0009
3700.00,0.0009
3699.00,0.0010
3698.00,0.0010
3697.00,0.0010
3696.00,0.0010
3695.00,0.0009
3694.00,0.0010
3693.00,0.0010
3692.00,0.0010
3691.00,0.0010
3690.00,0.0010
3689.00,0.0011
3688.00,0.0011
3687.00,0.0012
3686.00,0.0012
3685.00,0.0013
3684.00,0.0013
3683.00,0.0013
3682.00,0.0013
3681.00,0.0013
3680.00,0.0013
3679.00,0.0013
3678.00,0.0014
3677.00,0.0014
3676.00,0.0014
3675.00,0.0015
3674.00,0.0015
3673.00,0.0016
3672.00,0.0017
3671.00,0.0018
3670.00,0.0018
3669.00,0.0019
3668.00,0.0020
3667.00,0.0020
3666.00,0.0021
3665.00,0.0021
3664.00,0.0022
3663.00,0.0023
3662.00,0.0023
3661.00,0.0024
3660.00,0.0024
3659.00,0.0025
3658.00,0.0025
3657.00,0.0026
3656.00,0.0026
3655.00,0.0027
3654.00,0.0027
3653.00,0.0028
3652.00,0.0028
3651.00,0.0029
3650.00,0.0030
3649.00,0.0031
3648.00,0.0033
3647.00,0.0034
3646.00,0.0035
3645.00,0.0036
3644.00,0.0036
3643.00,0.0036
3642.00,0.0037
3641.00,0.0037
3640.00,0.0038
3639.00,0.0039
3638.00,0.0040
3637.00,0.0041
3636.00,0.0042
3635.00,0.0043
3634.00,0.0044
3633.00,0.0045
3632.00,0.0045
3631.00,0.0046
3630.00,0.0047
3629.00,0.0048
3628.00,0.0050
3627.00,0.0051
3626.00,0.0053
3625.00,0.0053
3624.00,0.0053
3623.00,0.0054
3622.00,0.0054
3621.00,0.0055
3620.00,0.0056
3619.00,0.0057
3618.00,0.0058
3617.00,0.0059
3616.00,0.0060
3615.00,0.0061
3614.00,0.0062
3613.00,0.0064
3612.00,0.0065
3611.00,0.0066
3610.00,0.0068
3609.00,0.0068
3608.00,0.0069
3607.00,0.0071
3606.00,0.0072
3605.00,0.0073
3604.00,0.0073
3603.00,0.0074
3602.00,0.0075
3601.00,0.0076
3600.00,0.0077
3599.00,0.0078
3598.00,0.0079
3597.00,0.0080
3596.00,0.0081
3595.00,0.0082
3594.00,0.0083
3593.00,0.0084
3592.00,0.0085
3591.00,0.0086
3590.00,0.0087
3589.00,0.0088
3588.00,0.0089
3587.00,0.0091
3586.00,0.0092
3585.00,0.0094
3584.00,0.0095
3583.00,0.0097
3582.00,0.0098
3581.00,0.0099
3580.00,0.0100
3579.00,0.0101
3578.00,0.0102
3577.00,0.0103
3576.00,0.0104
3575.00,0.0105
3574.00,0.0106
3573.00,0.0107
3572.00,0.0108
3571.00,0.0109
3570.00,0.0109
3569.00,0.0110
3568.00,0.0111
3567.00,0.0112
3566.00,0.0114
3565.00,0.0116
3564.00,0.0118
3563.00,0.0119
3562.00,0.0120
3561.00,0.0121
3560.00,0.0122
3559.00,0.0124
3558.00,0.0125
3557.00,0.0126
3556.00,0.0127
3555.00,0.0128
3554.00,0.0129
3553.00,0.0130
3552.00,0.0132
3551.00,0.0133
3550.00,0.0134
3549.00,0.0135
3548.00,0.0136
3547.00,0.0137
3546.00,0.0139
3545.00,0.0140
3544.00,0.0141
3543.00,0.0142
3542.00,0.0143
3541.00,0.0144
3540.00,0.0145
3539.00,0.0146
3538.00,0.0147
3537.00,0.0149
3536.00,0.0150
3535.00,0.0151
3534.00,0.0152
3533.00,0.0153
3532.00,0.0154
3531.00,0.0155
3530.00,0.0156
3529.00,0.0157
3528.00,0.0158
3527.00,0.0160
3526.00,0.0161
3525.00,0.0162
3524.00,0.0163
3523.00,0.0164
3522.00,0.0165
3521.00,0.0166
3520.00,0.0167
3519.00,0.0168
3518.00,0.0169
3517.00,0.0171
3516.00,0.0172
3515.00,0.0172
3514.00,0.0173
3513.00,0.0175
3512.00,0.0176
3511.00,0.0177
3510.00,0.0178
3509.00,0.0179
3508.00,0.0181
3507.00,0.0182
3506.00,0.0182
3505.00,0.0183
3504.00,0.0184
3503.00,0.0185
3502.00,0.0187
3501.00,0.0188
3500.00,0.0189
3499.00,0.0190
3498.00,0.0191
3497.00,0.0192
3496.00,0.0193
3495.00,0.0195
3494.00,0.0196
3493.00,0.0197
3492.00,0.0198
3491.00,0.0199
3490.00,0.0200
3489.00,0.0202
3488.00,0.0203
3487.00,0.0204
3486.00,0.0205
3485.00,0.0206
3484.00,0.0207
3483.00,0.0208
3482.00,0.0209
3481.00,0.0211
3480.00,0.0212
3479.00,0.0213
3478.00,0.0214
3477.00,0.0215
3476.00,0.0216
3475.00,0.0218
3474.00,0.0219
3473.00,0.0220
3472.00,0.0221
3471.00,0.0223
3470.00,0.0224
3469.00,0.0225
3468.00,0.0227
3467.00,0.0228
3466.00,0.0229
3465.00,0.0230
3464.00,0.0231
3463.00,0.0232
3462.00,0.0233
3461.00,0.0235
3460.00,0.0236
3459.00,0.0237
3458.00,0.0238
3457.00,0.0239
3456.00,0.0240
3455.00,0.0241
3454.00,0.0242
3453.00,0.0243
3452.00,0.0245
3451.00,0.0246
3450.00,0.0247
3449.00,0.0248
3448.00,0.0249
3447.00,0.0251
3446.00,0.0252
3445.00,0.0253
3444.00,0.0254
3443.00,0.0255
3442.00,0.0256
3441.00,0.0258
3440.00,0.0259
3439.00,0.0260
3438.00,0.0262
3437.00,0.0263
3436.00,0.0264
3435.00,0.0265
3434.00,0.0266
3433.00,0.0267
3432.00,0.0268
3431.00,0.0270
3430.00,0.0271
3429.00,0.0272
3428.00,0.0274
3427.00,0.0275
3426.00,0.0276
3425.00,0.0278
3424.00,0.0279
3423.00,0.0280
3422.00,0.0281
3421.00,0.0282
3420.00,0.0283
3419.00,0.0285
3418.00,0.0286
3417.00,0.0287
3416.00,0.0289
3415.00,0.0290
3414.00,0.0291
3413.00,0.0292
3412.00,0.0293
3411.00,0.0294
3410.00,0.0296
3409.00,0.0297
3408.00,0.0298
3407.00,0.0299
3406.00,0.0300
3405.00,0.0301
3404.00,0.0302
3403.00,0.0303
3402.00,0.0305
3401.00,0.0306
3400.00,0.0307
3399.00,0.0309
3398.00,0.0310
3397.00,0.0311
3396.00,0.0312
3395.00,0.0313
3394.00,0.0314
3393.00,0.0316
3392.00,0.0317
3391.00,0.0318
3390.00,0.0320
3389.00,0.0322
3388.00,0.0323
3387.00,0.0325
3386.00,0.0326
3385.00,0.0327
3384.00,0.0329
3383.00,0.0330
3382.00,0.0331
3381.00,0.0332
3380.00,0.0333
3379.00,0.0335
3378.00,0.0336
3377.00,0.0338
3376.00,0.0340
3375.00,0.0341
3374.00,0.0343
3373.00,0.0344
3372.00,0.0346
3371.00,0.0347
3370.00,0.0349
3369.00,0.0350
3368.00,0.0352
3367.00,0.0354
3366.00,0.0356
3365.00,0.0358
3364.00,0.0360
3363.00,0.0362
3362.00,0.0363
3361.00,0.0365
3360.00,0.0367
3359.00,0.0369
3358.00,0.0371
3357.00,0.0374
3356.00,0.0376
3355.00,0.0377
3354.00,0.0379
3353.00,0.0381
3352.00,0.0382
3351.00,0.0384
3350.00,0.0387
3349.00,0.0389
3348.00,0.0391
3347.00,0.0394
3346.00,0.0396
3345.00,0.0397
3344.00,0.0399
3343.00,0.0401
3342.00,0.0404
3341.00,0.0406
3340.00,0.0408
3339.00,0.0410
3338.00,0.0413
3337.00,0.0415
3336.00,0.0418
3335.00,0.0421
3334.00,0.0423
3333.00,0.0426
3332.00,0.0429
3331.00,0.0432
3330.00,0.0435
3329.00,0.0438
3328.00,0.0440
3327.00,0.0442
3326.00,0.0445
3325.00,0.0448
3324.00,0.0452
3323.00,0.0455
3322.00,0.0459
3321.00,0.0462
3320.00,0.0466
3319.00,0.0469
3318.00,0.0472
3317.00,0.0475
3316.00,0.0479
3315.00,0.0482
3314.00,0.0485
3313.00,0.0489
3312.00,0.0492
3311.00,0.0495
3310.00,0.0498
3309.00,0.0502
3308.00,0.0505
3307.00,0.0509
3306.00,0.0513
3305.00,0.0517
3304.00,0.0522
3303.00,0.0526
3302.00,0.0531
3301.00,0.0535
3300.00,0.0539
3299.00,0.0542
3298.00,0.0546
3297.00,0.0549
3296.00,0.0552
3295.00,0.0556
3294.00,0.0559
3293.00,0.0563
3292.00,0.0567
3291.00,0.0571
3290.00,0.0575
3289.00,0.0578
3288.00,0.0582
3287.00,0.0585
3286.00,0.0588
3285.00,0.0590
3284.00,0.0593
3283.00,0.0595
3282.00,0.0597
3281.00,0.0599
3280.00,0.0601
3279.00,0.0602
3278.00,0.0603
3277.00,0.0603
3276.00,0.0603
3275.00,0.0603
3274.00,0.0603
3273.00,0.0603
3272.00,0.0602
3271.00,0.0601
3270.00,0.0601
3269.00,0.0600
3268.00,0.0599
3267.00,0.0597
3266.00,0.0595
3265.00,0.0592
3264.00,0.0590
3263.00,0.0586
3262.00,0.0583
3261.00,0.0580
3260.00,0.0576
3259.00,0.0573
3258.00,0.0569
3257.00,0.0565
3256.00,0.0561
3255.00,0.0557
3254.00,0.0554
3253.00,0.0550
3252.00,0.0546
3251.00,0.0542
3250.00,0.0538
3249.00,0.0534
3248.00,0.0530
3247.00,0.0526
3246.00,0.0523
3245.00,0.0520
3244.00,0.0517
3243.00,0.0514
3242.00,0.0511
3241.00,0.0507
3240.00,0.0504
3239.00,0.0501
3238.00,0.0497
3237.00,0.0494
3236.00,0.0490
3235.00,0.0486
3234.00,0.0482
3233.00,0.0480
3232.00,0.0478
3231.00,0.0476
3230.00,0.0474
3229.00,0.0472
3228.00,0.0469
3227.00,0.0467
3226.00,0.0464
3225.00,0.0462
3224.00,0.0459
3223.00,0.0457
3222.00,0.0454
3221.00,0.0452
3220.00,0.0450
3219.00,0.0447
3218.00,0.0445
3217.00,0.0443
3216.00,0.0441
3215.00,0.0439
3214.00,0.0437
3213.00,0.0435
3212.00,0.0433
3211.00,0.0431
3210.00,0.0429
3209.00,0.0427
3208.00,0.0425
3207.00,0.0423
3206.00,0.0421
3205.00,0.0419
3204.00,0.0417
3203.00,0.0414
3202.00,0.0412
3201.00,0.0410
3200.00,0.0409
3199.00,0.0407
3198.00,0.0405
3197.00,0.0403
3196.00,0.0401
3195.00,0.0399
3194.00,0.0397
3193.00,0.0395
3192.00,0.0393
3191.00,0.0391
3190.00,0.0389
3189.00,0.0387
3188.00,0.0385
3187.00,0.0383
3186.00,0.0381
3185.00,0.0379
3184.00,0.0377
3183.00,0.0374
3182.00,0.0372
3181.00,0.0370
3180.00,0.0369
3179.00,0.0367
3178.00,0.0365
3177.00,0.0364
3176.00,0.0362
3175.00,0.0360
3174.00,0.0358
3173.00,0.0356
3172.00,0.0354
3171.00,0.0352
3170.00,0.0350
3169.00,0.0349
3168.00,0.0347
3167.00,0.0345
3166.00,0.0344
3165.00,0.0342
3164.00,0.0340
3163.00,0.0338
3162.00,0.0337
3161.00,0.0335
3160.00,0.0333
3159.00,0.0332
3158.00,0.0330
3157.00,0.0328
3156.00,0.0326
3155.00,0.0324
3154.00,0.0322
3153.00,0.0320
3152.00,0.0319
3151.00,0.0318
3150.00,0.0317
3149.00,0.0316
3148.00,0.0315
3147.00,0.0314
3146.00,0.0313
3145.00,0.0312
3144.00,0.0310
3143.00,0.0309
3142.00,0.0307
3141.00,0.0305
3140.00,0.0304
3139.00,0.0303
3138.00,0.0302
3137.00,0.0302
3136.00,0.0301
3135.00,0.0301
3134.00,0.0300
3133.00,0.0299
3132.00,0.0297
3131.00,0.0296
3130.00,0.0295
3129.00,0.0295
3128.00,0.0294
3127.00,0.0294
3126.00,0.0293
3125.00,0.0292
3124.00,0.0291
3123.00,0.0290
3122.00,0.0289
3121.00,0.0288
3120.00,0.0288
3119.00,0.0287
3118.00,0.0287
3117.00,0.0287
3116.00,0.0287
3115.00,0.0288
3114.00,0.0288
3113.00,0.0289
3112.00,0.0289
3111.00,0.0289
3110.00,0.0289
3109.00,0.0289
3108.00,0.0289
3107.00,0.0290
3106.00,0.0291
3105.00,0.0292
3104.00,0.0292
3103.00,0.0292
3102.00,0.0292
3101.00,0.0293
3100.00,0.0293
3099.00,0.0294
3098.00,0.0295
3097.00,0.0295
3096.00,0.0296
3095.00,0.0297
3094.00,0.0297
3093.00,0.0297
3092.00,0.0297
3091.00,0.0297
3090.00,0.0298
3089.00,0.0298
3088.00,0.0299
3087.00,0.0299
3086.00,0.0299
3085.00,0.0298
3084.00,0.0298
3083.00,0.0298
3082.00,0.0298
3081.00,0.0298
3080.00,0.0298
3079.00,0.0298
3078.00,0.0299
3077.00,0.0299
3076.00,0.0300
3075.00,0.0300
3074.00,0.0300
3073.00,0.0300
3072.00,0.0300
3071.00,0.0299
3070.00,0.0297
3069.00,0.0296
3068.00,0.0295
3067.00,0.0294
3066.00,0.0294
3065.00,0.0293
3064.00,0.0293
3063.00,0.0293
3062.00,0.0292
3061.00,0.0291
3060.00,0.0290
3059.00,0.0288
3058.00,0.0286
3057.00,0.0284
3056.00,0.0282
3055.00,0.0281
3054.00,0.0279
3053.00,0.0277
3052.00,0.0275
3051.00,0.0274
3050.00,0.0273
3049.00,0.0272
3048.00,0.0270
3047.00,0.0268
3046.00,0.0266
3045.00,0.0264
3044.00,0.0263
3043.00,0.0261
3042.00,0.0260
3041.00,0.0259
3040.00,0.0259
3039.00,0.0258
3038.00,0.0257
3037.00,0.0255
3036.00,0.0253
3035.00,0.0251
3034.00,0.0250
3033.00,0.0249
3032.00,0.0249
3031.00,0.0248
3030.00,0.0247
3029.00,0.0246
3028.00,0.0245
3027.00,0.0244
3026.00,0.0242
3025.00,0.0240
3024.00,0.0239
3023.00,0.0238
3022.00,0.0236
3021.00,0.0235
3020.00,0.0233
3019.00,0.0231
3018.00,0.0230
3017.00,0.0228
3016.00,0.0227
3015.00,0.0226
3014.00,0.0224
3013.00,0.0224
3012.00,0.0223
3011.00,0.0223
3010.00,0.0223
3009.00,0.0222
3008.00,0.0222
3007.00,0.0222
3006.00,0.0221
3005.00,0.0221
3004.00,0.0220
3003.00,0.0220
3002.00,0.0220
3001.00,0.0220
3000.00,0.0219
2999.00,0.0219
2998.00,0.0219
2997.00,0.0220
2996.00,0.0221
2995.00,0.0222
2994.00,0.0223
2993.00,0.0225
2992.00,0.0226
2991.00,0.0228
2990.00,0.0231
2989.00,0.0233
2988.00,0.0235
2987.00,0.0238
2986.00,0.0240
2985.00,0.0242
2984.00,0.0244
2983.00,0.0246
2982.00,0.0248
2981.00,0.0251
2980.00,0.0255
2979.00,0.0259
2978.00,0.0264
2977.00,0.0269
2976.00,0.0273
2975.00,0.0278
2974.00,0.0282
2973.00,0.0285
2972.00,0.0289
2971.00,0.0294
2970.00,0.0298
2969.00,0.0302
2968.00,0.0306
2967.00,0.0309
2966.00,0.0313
2965.00,0.0315
2964.00,0.0317
2963.00,0.0318
2962.00,0.0319
2961.00,0.0319
2960.00,0.0319
2959.00,0.0318
2958.00,0.0317
2957.00,0.0315
2956.00,0.0313
2955.00,0.0310
2954.00,0.0308
2953.00,0.0305
2952.00,0.0303
2951.00,0.0301
2950.00,0.0300
2949.00,0.0299
2948.00,0.0298
2947.00,0.0299
2946.00,0.0299
2945.00,0.0301
2944.00,0.0303
2943.00,0.0305
2942.00,0.0308
2941.00,0.0311
2940.00,0.0313
2939.00,0.0316
2938.00,0.0319
2937.00,0.0321
2936.00,0.0324
2935.00,0.0326
2934.00,0.0328
2933.00,0.0329
2932.00,0.0330
2931.00,0.0330
2930.00,0.0330
2929.00,0.0330
2928.00,0.0330
2927.00,0.0329
2926.00,0.0328
2925.00,0.0326
2924.00,0.0324
2923.00,0.0321
2922.00,0.0318
2921.00,0.0315
2920.00,0.0311
2919.00,0.0307
2918.00,0.0303
2917.00,0.0298
2916.00,0.0294
2915.00,0.0289
2914.00,0.0285
2913.00,0.0281
2912.00,0.0277
2911.00,0.0273
2910.00,0.0269
2909.00,0.0266
2908.00,0.0263
2907.00,0.0260
2906.00,0.0257
2905.00,0.0255
2904.00,0.0252
2903.00,0.0250
2902.00,0.0247
2901.00,0.0245
2900.00,0.0243
2899.00,0.0241
2898.00,0.0239
2897.00,0.0237
2896.00,0.0236
2895.00,0.0234
2894.00,0.0233
2893.00,0.0232
2892.00,0.0230
2891.00,0.0229
2890.00,0.0229
2889.00,0.0228
2888.00,0.0228
2887.00,0.0228
2886.00,0.0228
2885.00,0.0228
2884.00,0.0229
2883.00,0.0230
2882.00,0.0232
2881.00,0.0234
2880.00,0.0236
2879.00,0.0237
2878.00,0.0239
2877.00,0.0240
2876.00,0.0240
2875.00,0.0240
2874.00,0.0240
2873.00,0.0239
2872.00,0.0237
2871.00,0.0236
2870.00,0.0233
2869.00,0.0231
2868.00,0.0228
2867.00,0.0226
2866.00,0.0223
2865.00,0.0221
2864.00,0.0219
2863.00,0.0217
2862.00,0.0215
2861.00,0.0214
2860.00,0.0213
2859.00,0.0212
2858.00,0.0212
2857.00,0.0211
2856.00,0.0211
2855.00,0.0210
2854.00,0.0208
2853.00,0.0206
2852.00,0.0203
2851.00,0.0200
2850.00,0.0197
2849.00,0.0194
2848.00,0.0190
2847.00,0.0186
2846.00,0.0183
2845.00,0.0180
2844.00,0.0177
2843.00,0.0175
2842.00,0.0172
2841.00,0.0170
2840.00,0.0168
2839.00,0.0166
2838.00,0.0165
2837.00,0.0163
2836.00,0.0162
2835.00,0.0161
2834.00,0.0160
2833.00,0.0160
2832.00,0.0159
2831.00,0.0158
2830.00,0.0158
2829.00,0.0157
2828.00,0.0157
2827.00,0.0156
2826.00,0.0155
2825.00,0.0154
2824.00,0.0154
2823.00,0.0153
2822.00,0.0153
2821.00,0.0153
2820.00,0.0152
2819.00,0.0151
2818.00,0.0151
2817.00,0.0150
2816.00,0.0150
2815.00,0.0150
2814.00,0.0149
2813.00,0.0148
2812.00,0.0148
2811.00,0.0147
2810.00,0.0146
2809.00,0.0146
2808.00,0.0146
2807.00,0.0145
2806.00,0.0145
2805.00,0.0144
2804.00,0.0144
2803.00,0.0143
2802.00,0.0143
2801.00,0.0142
2800.00,0.0141
2799.00,0.0141
2798.00,0.0140
2797.00,0.0140
2796.00,0.0140
2795.00,0.0139
2794.00,0.0139
2793.00,0.0138
2792.00,0.0137
2791.00,0.0137
2790.00,0.0136
2789.00,0.0136
2788.00,0.0135
2787.00,0.0135
2786.00,0.0135
2785.00,0.0135
2784.00,0.0134
2783.00,0.0134
2782.00,0.0133
2781.00,0.0133
2780.00,0.0132
2779.00,0.0132
2778.00,0.0131
2777.00,0.0131
2776.00,0.0130
2775.00,0.0129
2774.00,0.0129
2773.00,0.0128
2772.00,0.0128
2771.00,0.0128
2770.00,0.0127
2769.00,0.0127
2768.00,0.0126
2767.00,0.0126
2766.00,0.0125
2765.00,0.0124
2764.00,0.0124
2763.00,0.0123
2762.00,0.0123
2761.00,0.0123
2760.00,0.0122
2759.00,0.0122
2758.00,0.0121
2757.00,0.0121
2756.00,0.0120
2755.00,0.0120
2754.00,0.0119
2753.00,0.0119
2752.00,0.0118
2751.00,0.0118
2750.00,0.0117
2749.00,0.0117
2748.00,0.0117
2747.00,0.0116
2746.00,0.0116
2745.00,0.0116
2744.00,0.0115
2743.00,0.0115
2742.00,0.0114
2741.00,0.0114
2740.00,0.0114
2739.00,0.0113
2738.00,0.0112
2737.00,0.0112
2736.00,0.0112
2735.00,0.0111
2734.00,0.0111
2733.00,0.0111
2732.00,0.0110
2731.00,0.0110
2730.00,0.0109
2729.00,0.0108
2728.00,0.0108
2727.00,0.0107
2726.00,0.0106
2725.00,0.0106
2724.00,0.0106
2723.00,0.0106
2722.00,0.0105
2721.00,0.0105
2720.00,0.0104
2719.00,0.0104
2718.00,0.0103
2717.00,0.0103
2716.00,0.0103
2715.00,0.0102
2714.00,0.0102
2713.00,0.0101
2712.00,0.0101
2711.00,0.0100
2710.00,0.0100
2709.00,0.0100
2708.00,0.0099
2707.00,0.0099
2706.00,0.0099
2705.00,0.0099
2704.00,0.0098
2703.00,0.0098
2702.00,0.0098
2701.00,0.0098
2700.00,0.0098
2699.00,0.0097
2698.00,0.0097
2697.00,0.0097
2696.00,0.0096
2695.00,0.0096
2694.00,0.0096
2693.00,0.0096
2692.00,0.0096
2691.00,0.0096
2690.00,0.0095
2689.00,0.0095
2688.00,0.0095
2687.00,0.0095
2686.00,0.0095
2685.00,0.0094
2684.00,0.0094
2683.00,0.0094
2682.00,0.0094
2681.00,0.0094
2680.00,0.0093
2679.00,0.0093
2678.00,0.0093
2677.00,0.0093
2676.00,0.0093
2675.00,0.0093
2674.00,0.0093
2673.00,0.0092
2672.00,0.0092
2671.00,0.0092
2670.00,0.0091
2669.00,0.0091
2668.00,0.0092
2667.00,0.0092
2666.00,0.0092
2665.00,0.0093
2664.00,0.0093
2663.00,0.0093
2662.00,0.0093
2661.00,0.0093
2660.00,0.0093
2659.00,0.0094
2658.00,0.0094
2657.00,0.0094
2656.00,0.0093
2655.00,0.0093
2654.00,0.0093
2653.00,0.0093
2652.00,0.0093
2651.00,0.0093
2650.00,0.0093
2649.00,0.0092
2648.00,0.0092
2647.00,0.0092
2646.00,0.0091
2645.00,0.0091
2644.00,0.0091
2643.00,0.0091
2642.00,0.0091
2641.00,0.0090
2640.00,0.0090
2639.00,0.0090
2638.00,0.0090
2637.00,0.0090
2636.00,0.0089
2635.00,0.0089
2634.00,0.0089
2633.00,0.0089
2632.00,0.0088
2631.00,0.0088
2630.00,0.0088
2629.00,0.0088
2628.00,0.0088
2627.00,0.0088
2626.00,0.0088
2625.00,0.0088
2624.00,0.0087
2623.00,0.0086
2622.00,0.0086
2621.00,0.0086
2620.00,0.0086
2619.00,0.0085
2618.00,0.0085
2617.00,0.0085
2616.00,0.0085
2615.00,0.0085
2614.00,0.0084
2613.00,0.0084
2612.00,0.0084
2611.00,0.0083
2610.00,0.0083
2609.00,0.0083
2608.00,0.0082
2607.00,0.0082
2606.00,0.0082
2605.00,0.0082
2604.00,0.0082
2603.00,0.0081
2602.00,0.0081
2601.00,0.0081
2600.00,0.0080
2599.00,0.0079
2598.00,0.0079
2597.00,0.0079
2596.00,0.0079
2595.00,0.0079
2594.00,0.0078
2593.00,0.0078
2592.00,0.0078
2591.00,0.0077
2590.00,0.0077
2589.00,0.0077
2588.00,0.0076
2587.00,0.0076
2586.00,0.0076
2585.00,0.0076
2584.00,0.0075
2583.00,0.0075
2582.00,0.0075
2581.00,0.0075
2580.00,0.0074
2579.00,0.0074
2578.00,0.0074
2577.00,0.0074
2576.00,0.0074
2575.00,0.0074
2574.00,0.0073
2573.00,0.0072
2572.00,0.0072
2571.00,0.0072
2570.00,0.0072
2569.00,0.0072
2568.00,0.0072
2567.00,0.0071
2566.00,0.0071
2565.00,0.0071
2564.00,0.0071
2563.00,0.0071
2562.00,0.0071
2561.00,0.0071
2560.00,0.0071
2559.00,0.0071
2558.00,0.0070
2557.00,0.0070
2556.00,0.0069
2555.00,0.0069
2554.00,0.0069
2553.00,0.0068
2552.00,0.0068
2551.00,0.0068
2550.00,0.0067
2549.00,0.0067
2548.00,0.0067
2547.00,0.0067
2546.00,0.0067
2545.00,0.0067
2544.00,0.0066
2543.00,0.0066
2542.00,0.0066
2541.00,0.0066
2540.00,0.0066
2539.00,0.0066
2538.00,0.0066
2537.00,0.0066
2536.00,0.0065
2535.00,0.0065
2534.00,0.0065
2533.00,0.0065
2532.00,0.0065
2531.00,0.0064
2530.00,0.0064
2529.00,0.0064
2528.00,0.0064
2527.00,0.0063
2526.00,0.0063
2525.00,0.0063
2524.00,0.0063
2523.00,0.0063
2522.00,0.0063
2521.00,0.0063
2520.00,0.0063
2519.00,0.0063
2518.00,0.0063
2517.00,0.0062
2516.00,0.0062
2515.00,0.0062
2514.00,0.0061
2513.00,0.0061
2512.00,0.0061
2511.00,0.0061
2510.00,0.0062
2509.00,0.0062
2508.00,0.0062
2507.00,0.0061
2506.00,0.0060
2505.00,0.0060
2504.00,0.0060
2503.00,0.0060
2502.00,0.0060
2501.00,0.0060
2500.00,0.0060
2499.00,0.0060
2498.00,0.0060
2497.00,0.0059
2496.00,0.0059
2495.00,0.0059
2494.00,0.0059
2493.00,0.0059
2492.00,0.0059
2491.00,0.0058
2490.00,0.0058
2489.00,0.0058
2488.00,0.0058
2487.00,0.0058
2486.00,0.0057
2485.00,0.0057
2484.00,0.0057
2483.00,0.0056
2482.00,0.0056
2481.00,0.0056
2480.00,0.0056
2479.00,0.0056
2478.00,0.0056
2477.00,0.0055
2476.00,0.0055
2475.00,0.0055
2474.00,0.0055
2473.00,0.0054
2472.00,0.0054
2471.00,0.0054
2470.00,0.0054
2469.00,0.0054
2468.00,0.0054
2467.00,0.0055
2466.00,0.0055
2465.00,0.0054
2464.00,0.0054
2463.00,0.0054
2462.00,0.0054
2461.00,0.0054
2460.00,0.0054
2459.00,0.0054
2458.00,0.0054
2457.00,0.0054
2456.00,0.0054
2455.00,0.0053
2454.00,0.0053
2453.00,0.0052
2452.00,0.0052
2451.00,0.0052
2450.00,0.0052
2449.00,0.0052
2448.00,0.0051
2447.00,0.0051
2446.00,0.0050
2445.00,0.0050
2444.00,0.0050
2443.00,0.0049
2442.00,0.0049
2441.00,0.0049
2440.00,0.0049
2439.00,0.0049
2438.00,0.0048
2437.00,0.0048
2436.00,0.0048
2435.00,0.0048
2434.00,0.0047
2433.00,0.0047
2432.00,0.0047
2431.00,0.0047
2430.00,0.0047
2429.00,0.0047
2428.00,0.0047
2427.00,0.0047
2426.00,0.0046
2425.00,0.0046
2424.00,0.0045
2423.00,0.0045
2422.00,0.0045
2421.00,0.0044
2420.00,0.0044
2419.00,0.0044
2418.00,0.0044
2417.00,0.0044
2416.00,0.0044
2415.00,0.0044
2414.00,0.0044
2413.00,0.0044
2412.00,0.0044
2411.00,0.0044
2410.00,0.0043
2409.00,0.0043
2408.00,0.0042
2407.00,0.0042
2406.00,0.0041
2405.00,0.0041
2404.00,0.0041
2403.00,0.0041
2402.00,0.0040
2401.00,0.0040
2400.00,0.0040
2399.00,0.0040
2398.00,0.0040
2397.00,0.0040
2396.00,0.0039
2395.00,0.0039
2394.00,0.0039
2393.00,0.0039
2392.00,0.0039
2391.00,0.0039
2390.00,0.0038
2389.00,0.0038
2388.00,0.0038
2387.00,0.0038
2386.00,0.0037
2385.00,0.0037
2384.00,0.0036
2383.00,0.0036
2382.00,0.0036
2381.00,0.0035
2380.00,0.0035
2379.00,0.0035
2378.00,0.0035
2377.00,0.0035
2376.00,0.0035
2375.00,0.0035
2374.00,0.0035
2373.00,0.0035
2372.00,0.0034
2371.00,0.0034
2370.00,0.0034
2369.00,0.0034
2368.00,0.0034
2367.00,0.0034
2366.00,0.0034
2365.00,0.0034
2364.00,0.0035
2363.00,0.0035
2362.00,0.0035
2361.00,0.0036
2360.00,0.0036
2359.00,0.0036
2358.00,0.0036
2357.00,0.0035
2356.00,0.0035
2355.00,0.0035
2354.00,0.0035
2353.00,0.0035
2352.00,0.0035
2351.00,0.0034
2350.00,0.0034
2349.00,0.0035
2348.00,0.0036
2347.00,0.0038
2346.00,0.0039
2345.00,0.0039
2344.00,0.0038
2343.00,0.0037
2342.00,0.0037
2341.00,0.0037
2340.00,0.0038
2339.00,0.0038
2338.00,0.0038
2337.00,0.0038
2336.00,0.0038
2335.00,0.0038
2334.00,0.0038
2333.00,0.0037
2332.00,0.0037
2331.00,0.0037
2330.00,0.0037
2329.00,0.0039
2328.00,0.0042
2327.00,0.0046
2326.00,0.0050
2325.00,0.0051
2324.00,0.0049
2323.00,0.0047
2322.00,0.0044
2321.00,0.0042
2320.00,0.0041
2319.00,0.0040
2318.00,0.0040
2317.00,0.0040
2316.00,0.0040
2315.00,0.0040
2314.00,0.0039
2313.00,0.0038
2312.00,0.0038
2311.00,0.0037
2310.00,0.0037
2309.00,0.0037
2308.00,0.0037
2307.00,0.0037
2306.00,0.0037
2305.00,0.0037
2304.00,0.0037
2303.00,0.0038
2302.00,0.0038
2301.00,0.0038
2300.00,0.0039
2299.00,0.0039
2298.00,0.0040
2297.00,0.0040
2296.00,0.0041
2295.00,0.0042
2294.00,0.0042
2293.00,0.0043
2292.00,0.0044
2291.00,0.0044
2290.00,0.0044
2289.00,0.0044
2288.00,0.0045
2287.00,0.0045
2286.00,0.0045
2285.00,0.0045
2284.00,0.0044
2283.00,0.0044
2282.00,0.0043
2281.00,0.0043
2280.00,0.0042
2279.00,0.0042
2278.00,0.0041
2277.00,0.0041
2276.00,0.0040
2275.00,0.0040
2274.00,0.0040
2273.00,0.0039
2272.00,0.0039
2271.00,0.0038
2270.00,0.0037
2269.00,0.0037
2268.00,0.0036
2267.00,0.0036
2266.00,0.0035
2265.00,0.0035
2264.00,0.0036
2263.00,0.0035
2262.00,0.0035
2261.00,0.0035
2260.00,0.0035
2259.00,0.0036
2258.00,0.0036
2257.00,0.0036
2256.00,0.0035
2255.00,0.0034
2254.00,0.0033
2253.00,0.0033
2252.00,0.0034
2251.00,0.0034
2250.00,0.0034
2249.00,0.0034
2248.00,0.0034
2247.00,0.0034
2246.00,0.0034
2245.00,0.0035
2244.00,0.0035
2243.00,0.0034
2242.00,0.0033
2241.00,0.0033
2240.00,0.0033
2239.00,0.0033
2238.00,0.0032
2237.00,0.0032
2236.00,0.0032
2235.00,0.0032
2234.00,0.0033
2233.00,0.0034
2232.00,0.0035
2231.00,0.0036
2230.00,0.0036
2229.00,0.0035
2228.00,0.0034
2227.00,0.0033
2226.00,0.0032
2225.00,0.0032
2224.00,0.0032
2223.00,0.0033
2222.00,0.0033
2221.00,0.0033
2220.00,0.0033
2219.00,0.0032
2218.00,0.0032
2217.00,0.0033
2216.00,0.0034
2215.00,0.0035
2214.00,0.0035
2213.00,0.0035
2212.00,0.0034
2211.00,0.0033
2210.00,0.0031
2209.00,0.0030
2208.00,0.0030
2207.00,0.0030
2206.00,0.0030
2205.00,0.0031
2204.00,0.0031
2203.00,0.0032
2202.00,0.0032
2201.00,0.0033
2200.00,0.0034
2199.00,0.0034
2198.00,0.0034
2197.00,0.0034
2196.00,0.0035
2195.00,0.0035
2194.00,0.0034
2193.00,0.0034
2192.00,0.0035
2191.00,0.0035
2190.00,0.0036
2189.00,0.0036
2188.00,0.0035
2187.00,0.0033
2186.00,0.0032
2185.00,0.0030
2184.00,0.0028
2183.00,0.0027
2182.00,0.0026
2181.00,0.0026
2180.00,0.0028
2179.00,0.0029
2178.00,0.0028
2177.00,0.0026
2176.00,0.0024
2175.00,0.0024
2174.00,0.0025
2173.00,0.0028
2172.00,0.0033
2171.00,0.0036
2170.00,0.0038
2169.00,0.0040
2168.00,0.0040
2167.00,0.0040
2166.00,0.0039
2165.00,0.0039
2164.00,0.0041
2163.00,0.0041
2162.00,0.0035
2161.00,0.0023
2160.00,0.0007
2159.00,-0.0005
2158.00,-0.0009
2157.00,-0.0007
2156.00,-0.0002
2155.00,0.0002
2154.00,0.0004
2153.00,0.0007
2152.00,0.0009
2151.00,0.0011
2150.00,0.0012
2149.00,0.0012
2148.00,0.0012
2147.00,0.0012
2146.00,0.0012
2145.00,0.0012
2144.00,0.0013
2143.00,0.0013
2142.00,0.0013
2141.00,0.0014
2140.00,0.0015
2139.00,0.0015
2138.00,0.0015
2137.00,0.0013
2136.00,0.0010
2135.00,0.0008
2134.00,0.0007
2133.00,0.0008
2132.00,0.0010
2131.00,0.0012
2130.00,0.0014
2129.00,0.0016
2128.00,0.0019
2127.00,0.0020
2126.00,0.0021
2125.00,0.0022
2124.00,0.0024
2123.00,0.0024
2122.00,0.0025
2121.00,0.0026
2120.00,0.0028
2119.00,0.0029
2118.00,0.0029
2117.00,0.0030
2116.00,0.0031
2115.00,0.0031
2114.00,0.0032
2113.00,0.0032
2112.00,0.0032
2111.00,0.0032
2110.00,0.0031
2109.00,0.0030
2108.00,0.0030
2107.00,0.0030
2106.00,0.0029
2105.00,0.0029
2104.00,0.0029
2103.00,0.0030
2102.00,0.0030
2101.00,0.0031
2100.00,0.0031
2099.00,0.0031
2098.00,0.0029
2097.00,0.0028
2096.00,0.0027
2095.00,0.0026
2094.00,0.0026
2093.00,0.0027
2092.00,0.0029
2091.00,0.0030
2090.00,0.0030
2089.00,0.0031
2088.00,0.0031
2087.00,0.0031
2086.00,0.0031
2085.00,0.0031
2084.00,0.0031
2083.00,0.0031
2082.00,0.0031
2081.00,0.0032
2080.00,0.0033
2079.00,0.0033
2078.00,0.0033
2077.00,0.0032
2076.00,0.0031
2075.00,0.0031
2074.00,0.0030
2073.00,0.0030
2072.00,0.0030
2071.00,0.0030
2070.00,0.0029
2069.00,0.0029
2068.00,0.0028
2067.00,0.0028
2066.00,0.0029
2065.00,0.0029
2064.00,0.0029
2063.00,0.0029
2062.00,0.0028
2061.00,0.0028
2060.00,0.0028
2059.00,0.0029
2058.00,0.0030
2057.00,0.0031
2056.00,0.0031
2055.00,0.0032
2054.00,0.0034
2053.00,0.0037
2052.00,0.0040
2051.00,0.0039
2050.00,0.0036
2049.00,0.0033
2048.00,0.0031
2047.00,0.0029
2046.00,0.0027
2045.00,0.0027
2044.00,0.0028
2043.00,0.0029
2042.00,0.0030
2041.00,0.0030
2040.00,0.0030
2039.00,0.0029
2038.00,0.0028
2037.00,0.0026
2036.00,0.0025
2035.00,0.0023
2034.00,0.0021
2033.00,0.0020
2032.00,0.0020
2031.00,0.0020
2030.00,0.0020
2029.00,0.0021
2028.00,0.0023
2027.00,0.0023
2026.00,0.0022
2025.00,0.0020
2024.00,0.0019
2023.00,0.0018
2022.00,0.0017
2021.00,0.0017
2020.00,0.0017
2019.00,0.0018
2018.00,0.0018
2017.00,0.0018
2016.00,0.0019
2015.00,0.0019
2014.00,0.0019
2013.00,0.0020
2012.00,0.0021
2011.00,0.0021
2010.00,0.0020
2009.00,0.0019
2008.00,0.0016
2007.00,0.0013
2006.00,0.0010
2005.00,0.0010
2004.00,0.0010
2003.00,0.0012
2002.00,0.0014
2001.00,0.0017
2000.00,0.0019
1999.00,0.0020
1998.00,0.0020
1997.00,0.0022
1996.00,0.0023
1995.00,0.0024
1994.00,0.0024
1993.00,0.0024
1992.00,0.0026
1991.00,0.0027
1990.00,0.0027
1989.00,0.0027
1988.00,0.0028
1987.00,0.0029
1986.00,0.0030
1985.00,0.0031
1984.00,0.0033
1983.00,0.0035
1982.00,0.0037
1981.00,0.0037
1980.00,0.0035
1979.00,0.0028
1978.00,0.0020
1977.00,0.0016
1976.00,0.0015
1975.00,0.0015
1974.00,0.0015
1973.00,0.0015
1972.00,0.0016
1971.00,0.0016
1970.00,0.0016
1969.00,0.0017
1968.00,0.0018
1967.00,0.0019
1966.00,0.0018
1965.00,0.0017
1964.00,0.0017
1963.00,0.0016
1962.00,0.0014
1961.00,0.0013
1960.00,0.0013
1959.00,0.0012
1958.00,0.0012
1957.00,0.0013
1956.00,0.0015
1955.00,0.0017
1954.00,0.0017
1953.00,0.0016
1952.00,0.0016
1951.00,0.0015
1950.00,0.0015
1949.00,0.0016
1948.00,0.0017
1947.00,0.0018
1946.00,0.0019
1945.00,0.0019
1944.00,0.0019
1943.00,0.0019
1942.00,0.0019
1941.00,0.0019
1940.00,0.0019
1939.00,0.0020
1938.00,0.0020
1937.00,0.0021
1936.00,0.0022
1935.00,0.0021
1934.00,0.0021
1933.00,0.0021
1932.00,0.0020
1931.00,0.0020
1930.00,0.0019
1929.00,0.0020
1928.00,0.0021
1927.00,0.0021
1926.00,0.0022
1925.00,0.0022
1924.00,0.0024
1923.00,0.0025
1922.00,0.0025
1921.00,0.0025
1920.00,0.0025
1919.00,0.0024
1918.00,0.0023
1917.00,0.0023
1916.00,0.0023
1915.00,0.0023
1914.00,0.0024
1913.00,0.0024
1912.00,0.0025
1911.00,0.0025
1910.00,0.0025
1909.00,0.0026
1908.00,0.0026
1907.00,0.0026
1906.00,0.0025
1905.00,0.0025
1904.00,0.0025
1903.00,0.0025
1902.00,0.0025
1901.00,0.0025
1900.00,0.0025
1899.00,0.0025
1898.00,0.0025
1897.00,0.0025
1896.00,0.0026
1895.00,0.0027
1894.00,0.0027
1893.00,0.0027
1892.00,0.0027
1891.00,0.0026
1890.00,0.0026
1889.00,0.0026
1888.00,0.0026
1887.00,0.0026
1886.00,0.0026
1885.00,0.0027
1884.00,0.0028
1883.00,0.0029
1882.00,0.0028
1881.00,0.0028
1880.00,0.0028
1879.00,0.0028
1878.00,0.0027
1877.00,0.0028
1876.00,0.0028
1875.00,0.0028
1874.00,0.0028
1873.00,0.0028
1872.00,0.0028
1871.00,0.0027
1870.00,0.0027
1869.00,0.0027
1868.00,0.0028
1867.00,0.0028
1866.00,0.0028
1865.00,0.0028
1864.00,0.0029
1863.00,0.0029
1862.00,0.0029
1861.00,0.0029
1860.00,0.0029
1859.00,0.0029
1858.00,0.0029
1857.00,0.0029
1856.00,0.0030
1855.00,0.0030
1854.00,0.0030
1853.00,0.0030
1852.00,0.0030
1851.00,0.0029
1850.00,0.0029
1849.00,0.0030
1848.00,0.0030
1847.00,0.0030
1846.00,0.0029
1845.00,0.0027
1844.00,0.0026
1843.00,0.0024
1842.00,0.0024
1841.00,0.0025
1840.00,0.0028
1839.00,0.0030
1838.00,0.0031
1837.00,0.0032
1836.00,0.0033
1835.00,0.0033
1834.00,0.0032
1833.00,0.0031
1832.00,0.0031
1831.00,0.0032
1830.00,0.0033
1829.00,0.0033
1828.00,0.0033
1827.00,0.0032
1826.00,0.0032
1825.00,0.0032
1824.00,0.0033
1823.00,0.0033
1822.00,0.0033
1821.00,0.0034
1820.00,0.0034
1819.00,0.0034
1818.00,0.0033
1817.00,0.0032
1816.00,0.0033
1815.00,0.0034
1814.00,0.0034
1813.00,0.0036
1812.00,0.0037
1811.00,0.0039
1810.00,0.0039
1809.00,0.0039
1808.00,0.0039
1807.00,0.0039
1806.00,0.0039
1805.00,0.0040
1804.00,0.0040
1803.00,0.0040
1802.00,0.0040
1801.00,0.0040
1800.00,0.0041
1799.00,0.0042
1798.00,0.0042
1797.00,0.0043
1796.00,0.0045
1795.00,0.0045
1794.00,0.0045
1793.00,0.0044
1792.00,0.0043
1791.00,0.0043
1790.00,0.0042
1789.00,0.0043
1788.00,0.0045
1787.00,0.0046
1786.00,0.0046
1785.00,0.0046
1784.00,0.0046
1783.00,0.0047
1782.00,0.0049
1781.00,0.0051
1780.00,0.0053
1779.00,0.0053
1778.00,0.0053
1777.00,0.0053
1776.00,0.0054
1775.00,0.0056
1774.00,0.0056
1773.00,0.0058
1772.00,0.0059
1771.00,0.0060
1770.00,0.0058
1769.00,0.0058
1768.00,0.0060
1767.00,0.0063
1766.00,0.0066
1765.00,0.0070
1764.00,0.0074
1763.00,0.0077
1762.00,0.0079
1761.00,0.0081
1760.00,0.0084
1759.00,0.0087
1758.00,0.0090
1757.00,0.0093
1756.00,0.0097
1755.00,0.0099
1754.00,0.0101
1753.00,0.0104
1752.00,0.0107
1751.00,0.0110
1750.00,0.0114
1749.00,0.0120
1748.00,0.0126
1747.00,0.0131
1746.00,0.0134
1745.00,0.0137
1744.00,0.0140
1743.00,0.0144
1742.00,0.0145
1741.00,0.0147
1740.00,0.0151
1739.00,0.0154
1738.00,0.0157
1737.00,0.0159
1736.00,0.0160
1735.00,0.0162
1734.00,0.0166
1733.00,0.0170
1732.00,0.0176
1731.00,0.0182
1730.00,0.0188
1729.00,0.0193
1728.00,0.0197
1727.00,0.0200
1726.00,0.0202
1725.00,0.0206
1724.00,0.0211
1723.00,0.0215
1722.00,0.0218
1721.00,0.0220
1720.00,0.0221
1719.00,0.0224
1718.00,0.0229
1717.00,0.0237
1716.00,0.0243
1715.00,0.0246
1714.00,0.0249
1713.00,0.0254
1712.00,0.0261
1711.00,0.0269
1710.00,0.0276
1709.00,0.0284
1708.00,0.0293
1707.00,0.0305
1706.00,0.0319
1705.00,0.0336
1704.00,0.0352
1703.00,0.0363
1702.00,0.0376
1701.00,0.0400
1700.00,0.0438
1699.00,0.0473
1698.00,0.0500
1697.00,0.0526
1696.00,0.0554
1695.00,0.0575
1694.00,0.0585
1693.00,0.0593
1692.00,0.0603
1691.00,0.0616
1690.00,0.0630
1689.00,0.0644
1688.00,0.0656
1687.00,0.0666
1686.00,0.0676
1685.00,0.0696
1684.00,0.0727
1683.00,0.0752
1682.00,0.0765
1681.00,0.0780
1680.00,0.0799
1679.00,0.0815
1678.00,0.0828
1677.00,0.0840
1676.00,0.0857
1675.00,0.0879
1674.00,0.0901
1673.00,0.0918
1672.00,0.0935
1671.00,0.0954
1670.00,0.0979
1669.00,0.1007
1668.00,0.1030
1667.00,0.1047
1666.00,0.1062
1665.00,0.1077
1664.00,0.1098
1663.00,0.1124
1662.00,0.1151
1661.00,0.1175
1660.00,0.1195
1659.00,0.1213
1658.00,0.1230
1657.00,0.1241
1656.00,0.1247
1655.00,0.1253
1654.00,0.1273
1653.00,0.1317
1652.00,0.1349
1651.00,0.1356
1650.00,0.1357
1649.00,0.1359
1648.00,0.1368
1647.00,0.1386
1646.00,0.1403
1645.00,0.1410
1644.00,0.1413
1643.00,0.1417
1642.00,0.1422
1641.00,0.1429
1640.00,0.1436
1639.00,0.1442
1638.00,0.1447
1637.00,0.1460
1636.00,0.1487
1635.00,0.1520
1634.00,0.1541
1633.00,0.1556
1632.00,0.1572
1631.00,0.1590
1630.00,0.1610
1629.00,0.1635
1628.00,0.1664
1627.00,0.1692
1626.00,0.1712
1625.00,0.1729
1624.00,0.1748
1623.00,0.1769
1622.00,0.1783
1621.00,0.1783
1620.00,0.1773
1619.00,0.1758
1618.00,0.1738
1617.00,0.1715
1616.00,0.1687
1615.00,0.1652
1614.00,0.1610
1613.00,0.1564
1612.00,0.1516
1611.00,0.1465
1610.00,0.1414
1609.00,0.1361
1608.00,0.1310
1607.00,0.1259
1606.00,0.1211
1605.00,0.1166
1604.00,0.1122
1603.00,0.1083
1602.00,0.1046
1601.00,0.1012
1600.00,0.0980
1599.00,0.0951
1598.00,0.0924
1597.00,0.0901
1596.00,0.0878
1595.00,0.0858
1594.00,0.0840
1593.00,0.0823
1592.00,0.0805
1591.00,0.0790
1590.00,0.0777
1589.00,0.0766
1588.00,0.0755
1587.00,0.0747
1586.00,0.0741
1585.00,0.0737
1584.00,0.0734
1583.00,0.0732
1582.00,0.0733
1581.00,0.0734
1580.00,0.0735
1579.00,0.0736
1578.00,0.0741
1577.00,0.0751
1576.00,0.0766
1575.00,0.0779
1574.00,0.0787
1573.00,0.0792
1572.00,0.0798
1571.00,0.0809
1570.00,0.0827
1569.00,0.0849
1568.00,0.0865
1567.00,0.0878
1566.00,0.0894
1565.00,0.0912
1564.00,0.0928
1563.00,0.0939
1562.00,0.0944
1561.00,0.0947
1560.00,0.0960
1559.00,0.1005
1558.00,0.1053
1557.00,0.1072
1556.00,0.1084
1555.00,0.1104
1554.00,0.1128
1553.00,0.1150
1552.00,0.1168
1551.00,0.1188
1550.00,0.1211
1549.00,0.1233
1548.00,0.1249
1547.00,0.1260
1546.00,0.1272
1545.00,0.1288
1544.00,0.1305
1543.00,0.1319
1542.00,0.1333
1541.00,0.1356
1540.00,0.1391
1539.00,0.1420
1538.00,0.1431
1537.00,0.1433
1536.00,0.1434
1535.00,0.1438
1534.00,0.1452
1533.00,0.1471
1532.00,0.1485
1531.00,0.1491
1530.00,0.1494
1529.00,0.1498
1528.00,0.1502
1527.00,0.1507
1526.00,0.1512
1525.00,0.1514
1524.00,0.1512
1523.00,0.1511
1522.00,0.1515
1521.00,0.1524
1520.00,0.1526
1519.00,0.1522
1518.00,0.1520
1517.00,0.1521
1516.00,0.1519
1515.00,0.1508
1514.00,0.1490
1513.00,0.1467
1512.00,0.1441
1511.00,0.1415
1510.00,0.1387
1509.00,0.1357
1508.00,0.1327
1507.00,0.1300
1506.00,0.1270
1505.00,0.1233
1504.00,0.1202
1503.00,0.1176
1502.00,0.1150
1501.00,0.1122
1500.00,0.1092
1499.00,0.1064
1498.00,0.1037
1497.00,0.1009
1496.00,0.0981
1495.00,0.0954
1494.00,0.0928
1493.00,0.0903
1492.00,0.0876
1491.00,0.0851
1490.00,0.0827
1489.00,0.0806
1488.00,0.0785
1487.00,0.0765
1486.00,0.0746
1485.00,0.0728
1484.00,0.0713
1483.00,0.0700
1482.00,0.0689
1481.00,0.0679
1480.00,0.0672
1479.00,0.0665
1478.00,0.0660
1477.00,0.0657
1476.00,0.0657
1475.00,0.0659
1474.00,0.0665
1473.00,0.0676
1472.00,0.0690
1471.00,0.0700
1470.00,0.0707
1469.00,0.0711
1468.00,0.0714
1467.00,0.0714
1466.00,0.0714
1465.00,0.0716
1464.00,0.0719
1463.00,0.0722
1462.00,0.0724
1461.00,0.0725
1460.00,0.0726
1459.00,0.0729
1458.00,0.0738
1457.00,0.0753
1456.00,0.0766
1455.00,0.0772
1454.00,0.0777
1453.00,0.0782
1452.00,0.0785
1451.00,0.0786
1450.00,0.0786
1449.00,0.0785
1448.00,0.0785
1447.00,0.0785
1446.00,0.0783
1445.00,0.0781
1444.00,0.0778
1443.00,0.0775
1442.00,0.0771
1441.00,0.0766
1440.00,0.0760
1439.00,0.0751
1438.00,0.0740
1437.00,0.0728
1436.00,0.0719
1435.00,0.0712
1434.00,0.0706
1433.00,0.0700
1432.00,0.0693
1431.00,0.0685
1430.00,0.0678
1429.00,0.0672
1428.00,0.0667
1427.00,0.0664
1426.00,0.0662
1425.00,0.0662
1424.00,0.0665
1423.00,0.0668
1422.00,0.0668
1421.00,0.0668
1420.00,0.0670
1419.00,0.0678
1418.00,0.0689
1417.00,0.0698
1416.00,0.0707
1415.00,0.0715
1414.00,0.0722
1413.00,0.0729
1412.00,0.0735
1411.00,0.0742
1410.00,0.0747
1409.00,0.0751
1408.00,0.0754
1407.00,0.0758
1406.00,0.0761
1405.00,0.0765
1404.00,0.0769
1403.00,0.0772
1402.00,0.0773
1401.00,0.0773
1400.00,0.0774
1399.00,0.0776
1398.00,0.0778
1397.00,0.0780
1396.00,0.0781
1395.00,0.0783
1394.00,0.0785
1393.00,0.0787
1392.00,0.0788
1391.00,0.0789
1390.00,0.0789
1389.00,0.0787
1388.00,0.0785
1387.00,0.0782
1386.00,0.0778
1385.00,0.0772
1384.00,0.0765
1383.00,0.0757
1382.00,0.0748
1381.00,0.0740
1380.00,0.0731
1379.00,0.0724
1378.00,0.0716
1377.00,0.0710
1376.00,0.0704
1375.00,0.0700
1374.00,0.0698
1373.00,0.0695
1372.00,0.0692
1371.00,0.0689
1370.00,0.0687
1369.00,0.0684
1368.00,0.0679
1367.00,0.0671
1366.00,0.0663
1365.00,0.0653
1364.00,0.0645
1363.00,0.0638
1362.00,0.0632
1361.00,0.0626
1360.00,0.0622
1359.00,0.0618
1358.00,0.0615
1357.00,0.0613
1356.00,0.0611
1355.00,0.0609
1354.00,0.0608
1353.00,0.0607
1352.00,0.0605
1351.00,0.0604
1350.00,0.0604
1349.00,0.0603
1348.00,0.0603
1347.00,0.0603
1346.00,0.0603
1345.00,0.0602
1344.00,0.0602
1343.00,0.0601
1342.00,0.0600
1341.00,0.0600
1340.00,0.0600
1339.00,0.0600
1338.00,0.0600
1337.00,0.0598
1336.00,0.0597
1335.00,0.0595
1334.00,0.0593
1333.00,0.0591
1332.00,0.0590
1331.00,0.0588
1330.00,0.0588
1329.00,0.0588
1328.00,0.0587
1327.00,0.0587
1326.00,0.0588
1325.00,0.0589
1324.00,0.0590
1323.00,0.0592
1322.00,0.0593
1321.00,0.0595
1320.00,0.0597
1319.00,0.0600
1318.00,0.0602
1317.00,0.0603
1316.00,0.0604
1315.00,0.0605
1314.00,0.0606
1313.00,0.0607
1312.00,0.0607
1311.00,0.0607
1310.00,0.0607
1309.00,0.0607
1308.00,0.0607
1307.00,0.0607
1306.00,0.0607
1305.00,0.0607
1304.00,0.0607
1303.00,0.0607
1302.00,0.0608
1301.00,0.0609
1300.00,0.0610
1299.00,0.0612
1298.00,0.0614
1297.00,0.0616
1296.00,0.0618
1295.00,0.0621
1294.00,0.0624
1293.00,0.0627
1292.00,0.0630
1291.00,0.0633
1290.00,0.0636
1289.00,0.0639
1288.00,0.0641
1287.00,0.0644
1286.00,0.0647
1285.00,0.0650
1284.00,0.0652
1283.00,0.0655
1282.00,0.0657
1281.00,0.0660
1280.00,0.0661
1279.00,0.0663
1278.00,0.0665
1277.00,0.0666
1276.00,0.0667
1275.00,0.0667
1274.00,0.0669
1273.00,0.0670
1272.00,0.0672
1271.00,0.0674
1270.00,0.0677
1269.00,0.0680
1268.00,0.0684
1267.00,0.0689
1266.00,0.0694
1265.00,0.0699
1264.00,0.0705
1263.00,0.0712
1262.00,0.0719
1261.00,0.0726
1260.00,0.0733
1259.00,0.0741
1258.00,0.0748
1257.00,0.0755
1256.00,0.0762
1255.00,0.0769
1254.00,0.0776
1253.00,0.0783
1252.00,0.0789
1251.00,0.0796
1250.00,0.0803
1249.00,0.0810
1248.00,0.0817
1247.00,0.0824
1246.00,0.0830
1245.00,0.0837
1244.00,0.0843
1243.00,0.0849
1242.00,0.0856
1241.00,0.0861
1240.00,0.0867
1239.00,0.0872
1238.00,0.0877
1237.00,0.0882
1236.00,0.0886
1235.00,0.0889
1234.00,0.0892
1233.00,0.0894
1232.00,0.0896
1231.00,0.0897
1230.00,0.0897
1229.00,0.0897
1228.00,0.0896
1227.00,0.0894
1226.00,0.0892
1225.00,0.0889
1224.00,0.0886
1223.00,0.0882
1222.00,0.0878
1221.00,0.0873
1220.00,0.0867
1219.00,0.0862
1218.00,0.0855
1217.00,0.0848
1216.00,0.0840
1215.00,0.0831
1214.00,0.0823
1213.00,0.0813
1212.00,0.0804
1211.00,0.0795
1210.00,0.0786
1209.00,0.0776
1208.00,0.0767
1207.00,0.0758
1206.00,0.0750
1205.00,0.0742
1204.00,0.0734
1203.00,0.0726
1202.00,0.0719
1201.00,0.0713
1200.00,0.0706
1199.00,0.0700
1198.00,0.0695
1197.00,0.0690
1196.00,0.0685
1195.00,0.0681
1194.00,0.0677
1193.00,0.0673
1192.00,0.0669
1191.00,0.0666
1190.00,0.0663
1189.00,0.0660
1188.00,0.0658
1187.00,0.0656
1186.00,0.0655
1185.00,0.0654
1184.00,0.0653
1183.00,0.0652
1182.00,0.0653
1181.00,0.0654
1180.00,0.0656
1179.00,0.0659
1178.00,0.0662
1177.00,0.0666
1176.00,0.0670
1175.00,0.0675
1174.00,0.0680
1173.00,0.0684
1172.00,0.0687
1171.00,0.0690
1170.00,0.0691
1169.00,0.0692
1168.00,0.0692
1167.00,0.0692
1166.00,0.0693
1165.00,0.0694
1164.00,0.0695
1163.00,0.0696
1162.00,0.0698
1161.00,0.0699
1160.00,0.0700
1159.00,0.0702
1158.00,0.0702
1157.00,0.0702
1156.00,0.0701
1155.00,0.0699
1154.00,0.0696
1153.00,0.0693
1152.00,0.0688
1151.00,0.0683
1150.00,0.0677
1149.00,0.0671
1148.00,0.0664
1147.00,0.0658
1146.00,0.0651
1145.00,0.0645
1144.00,0.0638
1143.00,0.0632
1142.00,0.0627
1141.00,0.0622
1140.00,0.0619
1139.00,0.0615
1138.00,0.0613
1137.00,0.0612
1136.00,0.0611
1135.00,0.0611
1134.00,0.0611
1133.00,0.0613
1132.00,0.0615
1131.00,0.0617
1130.00,0.0620
1129.00,0.0623
1128.00,0.0626
1127.00,0.0629
1126.00,0.0632
1125.00,0.0635
1124.00,0.0637
1123.00,0.0639
1122.00,0.0642
1121.00,0.0644
1120.00,0.0646
1119.00,0.0648
1118.00,0.0651
1117.00,0.0653
1116.00,0.0654
1115.00,0.0656
1114.00,0.0657
1113.00,0.0658
1112.00,0.0659
1111.00,0.0661
1110.00,0.0662
1109.00,0.0663
1108.00,0.0664
1107.00,0.0666
1106.00,0.0669
1105.00,0.0672
1104.00,0.0675
1103.00,0.0678
1102.00,0.0681
1101.00,0.0684
1100.00,0.0687
1099.00,0.0690
1098.00,0.0694
1097.00,0.0699
1096.00,0.0703
1095.00,0.0709
1094.00,0.0715
1093.00,0.0722
1092.00,0.0730
1091.00,0.0738
1090.00,0.0748
1089.00,0.0757
1088.00,0.0766
1087.00,0.0777
1086.00,0.0787
1085.00,0.0798
1084.00,0.0808
1083.00,0.0818
1082.00,0.0828
1081.00,0.0837
1080.00,0.0844
1079.00,0.0849
1078.00,0.0854
1077.00,0.0857
1076.00,0.0859
1075.00,0.0860
1074.00,0.0860
1073.00,0.0860
1072.00,0.0859
1071.00,0.0858
1070.00,0.0858
1069.00,0.0859
1068.00,0.0859
1067.00,0.0861
1066.00,0.0864
1065.00,0.0867
1064.00,0.0870
1063.00,0.0873
1062.00,0.0877
1061.00,0.0880
1060.00,0.0882
1059.00,0.0884
1058.00,0.0886
1057.00,0.0887
1056.00,0.0888
1055.00,0.0888
1054.00,0.0887
1053.00,0.0885
1052.00,0.0883
1051.00,0.0880
1050.00,0.0878
1049.00,0.0875
1048.00,0.0872
1047.00,0.0868
1046.00,0.0865
1045.00,0.0862
1044.00,0.0858
1043.00,0.0854
1042.00,0.0851
1041.00,0.0847
1040.00,0.0843
1039.00,0.0838
1038.00,0.0834
1037.00,0.0830
1036.00,0.0827
1035.00,0.0823
1034.00,0.0821
1033.00,0.0820
1032.00,0.0818
1031.00,0.0817
1030.00,0.0815
1029.00,0.0812
1028.00,0.0808
1027.00,0.0804
1026.00,0.0801
1025.00,0.0796
1024.00,0.0791
1023.00,0.0785
1022.00,0.0779
1021.00,0.0773
1020.00,0.0766
1019.00,0.0759
1018.00,0.0752
1017.00,0.0745
1016.00,0.0737
1015.00,0.0729
1014.00,0.0722
1013.00,0.0714
1012.00,0.0705
1011.00,0.0697
1010.00,0.0689
1009.00,0.0681
1008.00,0.0673
1007.00,0.0665
1006.00,0.0657
1005.00,0.0650
1004.00,0.0642
1003.00,0.0634
1002.00,0.0628
1001.00,0.0620
1000.00,0.0613
999.00,0.0606
998.00,0.0599
997.00,0.0593
996.00,0.0585
995.00,0.0578
994.00,0.0570
993.00,0.0562
992.00,0.0554
991.00,0.0546
990.00,0.0539
989.00,0.0532
988.00,0.0525
987.00,0.0519
986.00,0.0514
985.00,0.0509
984.00,0.0504
983.00,0.0500
982.00,0.0498
981.00,0.0496
980.00,0.0495
979.00,0.0494
978.00,0.0493
977.00,0.0493
976.00,0.0494
975.00,0.0495
974.00,0.0497
973.00,0.0499
972.00,0.0500
971.00,0.0500
970.00,0.0502
969.00,0.0503
968.00,0.0503
967.00,0.0504
966.00,0.0505
965.00,0.0506
964.00,0.0506
963.00,0.0505
962.00,0.0505
961.00,0.0504
960.00,0.0503
959.00,0.0501
958.00,0.0500
957.00,0.0498
956.00,0.0496
955.00,0.0495
954.00,0.0494
953.00,0.0493
952.00,0.0491
951.00,0.0491
950.00,0.0490
949.00,0.0491
948.00,0.0491
947.00,0.0492
946.00,0.0493
945.00,0.0495
944.00,0.0496
943.00,0.0497
942.00,0.0499
941.00,0.0501
940.00,0.0504
939.00,0.0506
938.00,0.0509
937.00,0.0512
936.00,0.0513
935.00,0.0514
934.00,0.0516
933.00,0.0517
932.00,0.0518
931.00,0.0518
930.00,0.0519
929.00,0.0519
928.00,0.0518
927.00,0.0517
926.00,0.0516
925.00,0.0514
924.00,0.0513
923.00,0.0511
922.00,0.0510
921.00,0.0508
920.00,0.0506
919.00,0.0504
918.00,0.0502
917.00,0.0501
916.00,0.0499
915.00,0.0497
914.00,0.0495
913.00,0.0493
912.00,0.0491
911.00,0.0489
910.00,0.0488
909.00,0.0487
908.00,0.0486
907.00,0.0484
906.00,0.0483
905.00,0.0482
904.00,0.0480
903.00,0.0479
902.00,0.0478
901.00,0.0477
900.00,0.0476
899.00,0.0475
898.00,0.0475
897.00,0.0474
896.00,0.0473
895.00,0.0473
894.00,0.0473
893.00,0.0472
892.00,0.0472
891.00,0.0471
890.00,0.0472
889.00,0.0472
888.00,0.0471
887.00,0.0471
886.00,0.0472
885.00,0.0472
884.00,0.0471
883.00,0.0471
882.00,0.0471
881.00,0.0471
880.00,0.0470
879.00,0.0470
878.00,0.0470
877.00,0.0469
876.00,0.0469
875.00,0.0468
874.00,0.0468
873.00,0.0467
872.00,0.0466
871.00,0.0466
870.00,0.0467
869.00,0.0468
868.00,0.0468
867.00,0.0469
866.00,0.0471
865.00,0.0473
864.00,0.0475
863.00,0.0477
862.00,0.0480
861.00,0.0483
860.00,0.0486
859.00,0.0489
858.00,0.0492
857.00,0.0496
856.00,0.0499
855.00,0.0503
854.00,0.0506
853.00,0.0508
852.00,0.0509
851.00,0.0511
850.00,0.0512
849.00,0.0512
848.00,0.0512
847.00,0.0512
846.00,0.0513
845.00,0.0513
844.00,0.0515
843.00,0.0517
842.00,0.0520
841.00,0.0523
840.00,0.0527
839.00,0.0530
838.00,0.0534
837.00,0.0538
836.00,0.0542
835.00,0.0546
834.00,0.0551
833.00,0.0556
832.00,0.0561
831.00,0.0565
830.00,0.0569
829.00,0.0572
828.00,0.0574
827.00,0.0576
826.00,0.0578
825.00,0.0580
824.00,0.0580
823.00,0.0581
822.00,0.0583
821.00,0.0584
820.00,0.0586
819.00,0.0588
818.00,0.0592
817.00,0.0594
816.00,0.0597
815.00,0.0600
814.00,0.0604
813.00,0.0607
812.00,0.0610
811.00,0.0613
810.00,0.0616
809.00,0.0620
808.00,0.0623
807.00,0.0626
806.00,0.0629
805.00,0.0633
804.00,0.0636
803.00,0.0640
802.00,0.0645
801.00,0.0649
800.00,0.0654
799.00,0.0658
798.00,0.0664
797.00,0.0669
796.00,0.0673
795.00,0.0678
794.00,0.0684
793.00,0.0690
792.00,0.0697
791.00,0.0704
790.00,0.0712
789.00,0.0720
788.00,0.0727
787.00,0.0734
786.00,0.0741
785.00,0.0747
784.00,0.0754
783.00,0.0760
782.00,0.0765
781.00,0.0769
780.00,0.0771
779.00,0.0773
778.00,0.0775
777.00,0.0777
776.00,0.0779
775.00,0.0781
774.00,0.0783
773.00,0.0786
772.00,0.0788
771.00,0.0790
770.00,0.0793
769.00,0.0795
768.00,0.0797
767.00,0.0800
766.00,0.0803
765.00,0.0805
764.00,0.0807
763.00,0.0809
762.00,0.0812
761.00,0.0815
760.00,0.0818
759.00,0.0822
758.00,0.0827
757.00,0.0832
756.00,0.0836
755.00,0.0841
754.00,0.0847
753.00,0.0852
752.00,0.0858
751.00,0.0864
750.00,0.0871
749.00,0.0878
748.00,0.0884
747.00,0.0889
746.00,0.0894
745.00,0.0899
744.00,0.0903
743.00,0.0906
742.00,0.0911
741.00,0.0915
740.00,0.0918
739.00,0.0922
738.00,0.0927
737.00,0.0932
736.00,0.0937
735.00,0.0943
734.00,0.0950
733.00,0.0957
732.00,0.0964
731.00,0.0972
730.00,0.0981
729.00,0.0992
728.00,0.1003
727.00,0.1015
726.00,0.1028
725.00,0.1041
724.00,0.1053
723.00,0.1065
722.00,0.1077
721.00,0.1089
720.00,0.1101
719.00,0.1112
718.00,0.1124
717.00,0.1134
716.00,0.1144
715.00,0.1153
714.00,0.1163
713.00,0.1173
712.00,0.1183
711.00,0.1193
710.00,0.1204
709.00,0.1215
708.00,0.1226
707.00,0.1238
706.00,0.1251
705.00,0.1264
704.00,0.1276
703.00,0.1287
702.00,0.1298
701.00,0.1308
700.00,0.1317
699.00,0.1324
698.00,0.1329
697.00,0.1333
696.00,0.1333
695.00,0.1332
694.00,0.1330
693.00,0.1328
692.00,0.1326
691.00,0.1326
690.00,0.1327
689.00,0.1328
688.00,0.1329
687.00,0.1330
686.00,0.1332
685.00,0.1333
684.00,0.1334
683.00,0.1335
682.00,0.1336
681.00,0.1338
680.00,0.1339
679.00,0.1341
678.00,0.1345
677.00,0.1349
676.00,0.1351
675.00,0.1353
674.00,0.1357
673.00,0.1360
672.00,0.1360
671.00,0.1360
670.00,0.1361
669.00,0.1366
668.00,0.1374
667.00,0.1381
666.00,0.1385
665.00,0.1386
664.00,0.1387
663.00,0.1389
662.00,0.1392
661.00,0.1396
660.00,0.1399
659.00,0.1401
658.00,0.1405
657.00,0.1408
656.00,0.1410
655.00,0.1412
654.00,0.1416
653.00,0.1418
652.00,0.1420
651.00,0.1422
650.00,0.1425
649.00,0.1429
648.00,0.1432
647.00,0.1435
646.00,0.1439
645.00,0.1443
644.00,0.1445
643.00,0.1448
642.00,0.1453
641.00,0.1457
640.00,0.1460
639.00,0.1463
638.00,0.1467
637.00,0.1471
636.00,0.1474
635.00,0.1479
634.00,0.1485
633.00,0.1490
632.00,0.1494
631.00,0.1498
630.00,0.1502
629.00,0.1505
628.00,0.1508
627.00,0.1512
626.00,0.1517
625.00,0.1521
624.00,0.1524
623.00,0.1526
622.00,0.1528
621.00,0.1529
620.00,0.1529
619.00,0.1529
618.00,0.1531
617.00,0.1533
616.00,0.1535
615.00,0.1537
614.00,0.1539
613.00,0.1540
612.00,0.1540
611.00,0.1539
610.00,0.1540
609.00,0.1541
608.00,0.1542
607.00,0.1543
606.00,0.1546
605.00,0.1547
604.00,0.1546
603.00,0.1546
602.00,0.1547
601.00,0.1550
600.00,0.1553
599.00,0.1556
598.00,0.1560
597.00,0.1562
596.00,0.1563
595.00,0.1564
594.00,0.1567
593.00,0.1569
592.00,0.1571
591.00,0.1573
590.00,0.1576
589.00,0.1578
588.00,0.1580
587.00,0.1583
586.00,0.1587
585.00,0.1592
584.00,0.1595
583.00,0.1599
582.00,0.1603
581.00,0.1606
580.00,0.1609
579.00,0.1611
578.00,0.1615
577.00,0.1620
576.00,0.1625
575.00,0.1630
574.00,0.1636
573.00,0.1639
572.00,0.1640
571.00,0.1642
570.00,0.1646
569.00,0.1650
568.00,0.1652
567.00,0.1655
566.00,0.1660
565.00,0.1664
564.00,0.1667
563.00,0.1670
562.00,0.1675
561.00,0.1680
560.00,0.1682
559.00,0.1684
558.00,0.1689
557.00,0.1693
556.00,0.1696
555.00,0.1700
554.00,0.1705
553.00,0.1710
552.00,0.1713
551.00,0.1717
550.00,0.1723
549.00,0.1730
548.00,0.1733
547.00,0.1737
546.00,0.1741
545.00,0.1745
544.00,0.1747
543.00,0.1750
542.00,0.1753
541.00,0.1757
540.00,0.1759
539.00,0.1762
538.00,0.1767
537.00,0.1770
536.00,0.1772
535.00,0.1773
534.00,0.1776
533.00,0.1780
532.00,0.1782
531.00,0.1785
530.00,0.1791
529.00,0.1796
528.00,0.1797
527.00,0.1798
526.00,0.1802
525.00,0.1805
524.00,0.1807
523.00,0.1810
522.00,0.1815
521.00,0.1819
520.00,0.1822
519.00,0.1825
518.00,0.1829
517.00,0.1832
516.00,0.1832
515.00,0.1832
514.00,0.1834
513.00,0.1836
512.00,0.1836
511.00,0.1836
510.00,0.1838
509.00,0.1841
508.00,0.1841
507.00,0.1843
506.00,0.1846
505.00,0.1847
504.00,0.1844
503.00,0.1842
502.00,0.1842
501.00,0.1845
500.00,0.1846
499.00,0.1849
498.00,0.1853
497.00,0.1855
496.00,0.1854
495.00,0.1853
494.00,0.1854
493.00,0.1856
492.00,0.1855
491.00,0.1854
490.00,0.1857
489.00,0.1857
488.00,0.1853
487.00,0.1849
486.00,0.1849
485.00,0.1850
484.00,0.1849
483.00,0.1848
482.00,0.1850
481.00,0.1851
480.00,0.1848
479.00,0.1844
478.00,0.1844
477.00,0.1843
476.00,0.1839
475.00,0.1836
474.00,0.1839
473.00,0.1844
472.00,0.1846
471.00,0.1848
470.00,0.1852
469.00,0.1855
468.00,0.1854
467.00,0.1854
466.00,0.1856
465.00,0.1857
464.00,0.1852
463.00,0.1849
462.00,0.1851
461.00,0.1852
460.00,0.1847
459.00,0.1842
458.00,0.1844
457.00,0.1850
456.00,0.1853
455.00,0.1854
454.00,0.1854
453.00,0.1851
452.00,0.1844
451.00,0.1838
450.00,0.1839
449.00,0.1840
448.00,0.1837
447.00,0.1832
446.00,0.1829
445.00,0.1822
444.00,0.1813
443.00,0.1809
442.00,0.1813
441.00,0.1815
440.00,0.1809
439.00,0.1804
438.00,0.1804
437.00,0.1804
436.00,0.1798
435.00,0.1791
434.00,0.1790
433.00,0.1789
432.00,0.1786
431.00,0.1787
430.00,0.1794
429.00,0.1801
428.00,0.1798
427.00,0.1793
426.00,0.1792
425.00,0.1789
424.00,0.1781
423.00,0.1776
422.00,0.1779
421.00,0.1777
420.00,0.1764
419.00,0.1757
418.00,0.1767
417.00,0.1779
416.00,0.1782
415.00,0.1783
414.00,0.1788
413.00,0.1789
412.00,0.1780
411.00,0.1773
410.00,0.1777
409.00,0.1780
408.00,0.1772
407.00,0.1767
406.00,0.1775
405.00,0.1782
404.00,0.1773
403.00,0.1761
402.00,0.1759
401.00,0.1753
400.00,0.1732
