Created as New Dataset,Sample 1018 By YargerLab Date Friday, August 01 2025
cm-1,A
4000.00,0.0033
3999.00,0.0033
3998.00,0.0033
3997.00,0.0033
3996.00,0.0033
3995.00,0.0033
3994.00,0.0033
3993.00,0.0033
3992.00,0.0033
3991.00,0.0033
3990.00,0.0033
3989.00,0.0033
3988.00,0.0033
3987.00,0.0033
3986.00,0.0033
3985.00,0.0033
3984.00,0.0033
3983.00,0.0033
3982.00,0.0033
3981.00,0.0033
3980.00,0.0033
3979.00,0.0033
3978.00,0.0033
3977.00,0.0033
3976.00,0.0033
3975.00,0.0032
3974.00,0.0032
3973.00,0.0032
3972.00,0.0033
3971.00,0.0033
3970.00,0.0033
3969.00,0.0033
3968.00,0.0033
3967.00,0.0033
3966.00,0.0033
3965.00,0.0033
3964.00,0.0033
3963.00,0.0033
3962.00,0.0033
3961.00,0.0033
3960.00,0.0033
3959.00,0.0033
3958.00,0.0033
3957.00,0.0032
3956.00,0.0032
3955.00,0.0032
3954.00,0.0032
3953.00,0.0032
3952.00,0.0032
3951.00,0.0032
3950.00,0.0032
3949.00,0.0032
3948.00,0.0032
3947.00,0.0032
3946.00,0.0032
3945.00,0.0032
3944.00,0.0032
3943.00,0.0032
3942.00,0.0032
3941.00,0.0032
3940.00,0.0032
3939.00,0.0032
3938.00,0.0033
3937.00,0.0033
3936.00,0.0033
3935.00,0.0033
3934.00,0.0033
3933.00,0.0033
3932.00,0.0033
3931.00,0.0033
3930.00,0.0033
3929.00,0.0033
3928.00,0.0032
3927.00,0.0032
3926.00,0.0032
3925.00,0.0032
3924.00,0.0032
3923.00,0.0032
3922.00,0.0032
3921.00,0.0032
3920.00,0.0032
3919.00,0.0032
3918.00,0.0032
3917.00,0.0032
3916.00,0.0032
3915.00,0.0032
3914.00,0.0032
3913.00,0.0032
3912.00,0.0032
3911.00,0.0032
3910.00,0.0032
3909.00,0.0032
3908.00,0.0032
3907.00,0.0032
3906.00,0.0032
3905.00,0.0032
3904.00,0.0032
3903.00,0.0031
3902.00,0.0031
3901.00,0.0031
3900.00,0.0031
3899.00,0.0031
3898.00,0.0031
3897.00,0.0031
3896.00,0.0031
3895.00,0.0031
3894.00,0.0031
3893.00,0.0031
3892.00,0.0031
3891.00,0.0031
3890.00,0.0031
3889.00,0.0031
3888.00,0.0031
3887.00,0.0031
3886.00,0.0031
3885.00,0.0031
3884.00,0.0031
3883.00,0.0031
3882.00,0.0031
3881.00,0.0031
3880.00,0.0031
3879.00,0.0031
3878.00,0.0031
3877.00,0.0031
3876.00,0.0031
3875.00,0.0032
3874.00,0.0032
3873.00,0.0032
3872.00,0.0031
3871.00,0.0031
3870.00,0.0031
3869.00,0.0030
3868.00,0.0030
3867.00,0.0030
3866.00,0.0030
3865.00,0.0030
3864.00,0.0031
3863.00,0.0031
3862.00,0.0031
3861.00,0.0031
3860.00,0.0031
3859.00,0.0031
3858.00,0.0031
3857.00,0.0031
3856.00,0.0030
3855.00,0.0030
3854.00,0.0030
3853.00,0.0030
3852.00,0.0029
3851.00,0.0029
3850.00,0.0030
3849.00,0.0030
3848.00,0.0031
3847.00,0.0032
3846.00,0.0032
3845.00,0.0032
3844.00,0.0032
3843.00,0.0031
3842.00,0.0031
3841.00,0.0031
3840.00,0.0030
3839.00,0.0030
3838.00,0.0031
3837.00,0.0031
3836.00,0.0031
3835.00,0.0031
3834.00,0.0030
3833.00,0.0030
3832.00,0.0030
3831.00,0.0031
3830.00,0.0031
3829.00,0.0031
3828.00,0.0031
3827.00,0.0032
3826.00,0.0031
3825.00,0.0031
3824.00,0.0031
3823.00,0.0031
3822.00,0.0031
3821.00,0.0031
3820.00,0.0030
3819.00,0.0030
3818.00,0.0029
3817.00,0.0030
3816.00,0.0030
3815.00,0.0030
3814.00,0.0031
3813.00,0.0031
3812.00,0.0031
3811.00,0.0032
3810.00,0.0032
3809.00,0.0032
3808.00,0.0032
3807.00,0.0032
3806.00,0.0031
3805.00,0.0031
3804.00,0.0030
3803.00,0.0030
3802.00,0.0030
3801.00,0.0030
3800.00,0.0030
3799.00,0.0030
3798.00,0.0030
3797.00,0.0031
3796.00,0.0031
3795.00,0.0032
3794.00,0.0032
3793.00,0.0032
3792.00,0.0032
3791.00,0.0032
3790.00,0.0032
3789.00,0.0032
3788.00,0.0032
3787.00,0.0032
3786.00,0.0032
3785.00,0.0032
3784.00,0.0032
3783.00,0.0032
3782.00,0.0032
3781.00,0.0032
3780.00,0.0032
3779.00,0.0032
3778.00,0.0032
3777.00,0.0032
3776.00,0.0032
3775.00,0.0032
3774.00,0.0032
3773.00,0.0031
3772.00,0.0031
3771.00,0.0031
3770.00,0.0031
3769.00,0.0031
3768.00,0.0031
3767.00,0.0031
3766.00,0.0031
3765.00,0.0031
3764.00,0.0031
3763.00,0.0031
3762.00,0.0031
3761.00,0.0031
3760.00,0.0031
3759.00,0.0031
3758.00,0.0031
3757.00,0.0031
3756.00,0.0031
3755.00,0.0031
3754.00,0.0031
3753.00,0.0031
3752.00,0.0030
3751.00,0.0030
3750.00,0.0030
3749.00,0.0029
3748.00,0.0029
3747.00,0.0028
3746.00,0.0028
3745.00,0.0028
3744.00,0.0028
3743.00,0.0028
3742.00,0.0029
3741.00,0.0029
3740.00,0.0029
3739.00,0.0030
3738.00,0.0029
3737.00,0.0029
3736.00,0.0029
3735.00,0.0029
3734.00,0.0029
3733.00,0.0029
3732.00,0.0029
3731.00,0.0029
3730.00,0.0029
3729.00,0.0030
3728.00,0.0030
3727.00,0.0030
3726.00,0.0031
3725.00,0.0031
3724.00,0.0031
3723.00,0.0031
3722.00,0.0030
3721.00,0.0030
3720.00,0.0031
3719.00,0.0031
3718.00,0.0031
3717.00,0.0031
3716.00,0.0031
3715.00,0.0030
3714.00,0.0030
3713.00,0.0030
3712.00,0.0030
3711.00,0.0030
3710.00,0.0029
3709.00,0.0029
3708.00,0.0029
3707.00,0.0029
3706.00,0.0030
3705.00,0.0030
3704.00,0.0030
3703.00,0.0030
3702.00,0.0030
3701.00,0.0030
3700.00,0.0030
3699.00,0.0031
3698.00,0.0031
3697.00,0.0031
3696.00,0.0031
3695.00,0.0031
3694.00,0.0031
3693.00,0.0031
3692.00,0.0031
3691.00,0.0031
3690.00,0.0031
3689.00,0.0030
3688.00,0.0030
3687.00,0.0030
3686.00,0.0030
3685.00,0.0031
3684.00,0.0031
3683.00,0.0032
3682.00,0.0032
3681.00,0.0032
3680.00,0.0033
3679.00,0.0032
3678.00,0.0032
3677.00,0.0032
3676.00,0.0032
3675.00,0.0031
3674.00,0.0031
3673.00,0.0031
3672.00,0.0031
3671.00,0.0032
3670.00,0.0032
3669.00,0.0032
3668.00,0.0032
3667.00,0.0033
3666.00,0.0033
3665.00,0.0033
3664.00,0.0033
3663.00,0.0033
3662.00,0.0033
3661.00,0.0034
3660.00,0.0034
3659.00,0.0034
3658.00,0.0035
3657.00,0.0035
3656.00,0.0035
3655.00,0.0035
3654.00,0.0035
3653.00,0.0034
3652.00,0.0034
3651.00,0.0034
3650.00,0.0034
3649.00,0.0034
3648.00,0.0034
3647.00,0.0034
3646.00,0.0035
3645.00,0.0036
3644.00,0.0036
3643.00,0.0037
3642.00,0.0037
3641.00,0.0038
3640.00,0.0038
3639.00,0.0038
3638.00,0.0039
3637.00,0.0039
3636.00,0.0039
3635.00,0.0039
3634.00,0.0039
3633.00,0.0039
3632.00,0.0039
3631.00,0.0039
3630.00,0.0039
3629.00,0.0039
3628.00,0.0039
3627.00,0.0040
3626.00,0.0040
3625.00,0.0041
3624.00,0.0042
3623.00,0.0042
3622.00,0.0042
3621.00,0.0042
3620.00,0.0042
3619.00,0.0042
3618.00,0.0042
3617.00,0.0042
3616.00,0.0043
3615.00,0.0044
3614.00,0.0044
3613.00,0.0045
3612.00,0.0045
3611.00,0.0046
3610.00,0.0046
3609.00,0.0047
3608.00,0.0047
3607.00,0.0048
3606.00,0.0048
3605.00,0.0048
3604.00,0.0049
3603.00,0.0050
3602.00,0.0050
3601.00,0.0050
3600.00,0.0050
3599.00,0.0051
3598.00,0.0051
3597.00,0.0051
3596.00,0.0052
3595.00,0.0053
3594.00,0.0053
3593.00,0.0054
3592.00,0.0054
3591.00,0.0055
3590.00,0.0055
3589.00,0.0056
3588.00,0.0056
3587.00,0.0057
3586.00,0.0057
3585.00,0.0058
3584.00,0.0058
3583.00,0.0059
3582.00,0.0060
3581.00,0.0060
3580.00,0.0061
3579.00,0.0062
3578.00,0.0063
3577.00,0.0063
3576.00,0.0064
3575.00,0.0064
3574.00,0.0065
3573.00,0.0065
3572.00,0.0065
3571.00,0.0065
3570.00,0.0066
3569.00,0.0066
3568.00,0.0066
3567.00,0.0066
3566.00,0.0067
3565.00,0.0068
3564.00,0.0068
3563.00,0.0069
3562.00,0.0070
3561.00,0.0071
3560.00,0.0072
3559.00,0.0072
3558.00,0.0073
3557.00,0.0073
3556.00,0.0073
3555.00,0.0074
3554.00,0.0074
3553.00,0.0075
3552.00,0.0075
3551.00,0.0076
3550.00,0.0077
3549.00,0.0077
3548.00,0.0078
3547.00,0.0078
3546.00,0.0079
3545.00,0.0079
3544.00,0.0079
3543.00,0.0080
3542.00,0.0080
3541.00,0.0081
3540.00,0.0081
3539.00,0.0081
3538.00,0.0081
3537.00,0.0082
3536.00,0.0082
3535.00,0.0083
3534.00,0.0084
3533.00,0.0084
3532.00,0.0084
3531.00,0.0084
3530.00,0.0085
3529.00,0.0085
3528.00,0.0085
3527.00,0.0085
3526.00,0.0086
3525.00,0.0086
3524.00,0.0087
3523.00,0.0087
3522.00,0.0088
3521.00,0.0088
3520.00,0.0088
3519.00,0.0089
3518.00,0.0089
3517.00,0.0089
3516.00,0.0090
3515.00,0.0090
3514.00,0.0090
3513.00,0.0091
3512.00,0.0091
3511.00,0.0091
3510.00,0.0091
3509.00,0.0092
3508.00,0.0092
3507.00,0.0092
3506.00,0.0093
3505.00,0.0093
3504.00,0.0093
3503.00,0.0093
3502.00,0.0093
3501.00,0.0094
3500.00,0.0094
3499.00,0.0095
3498.00,0.0095
3497.00,0.0096
3496.00,0.0096
3495.00,0.0096
3494.00,0.0096
3493.00,0.0097
3492.00,0.0097
3491.00,0.0097
3490.00,0.0097
3489.00,0.0097
3488.00,0.0098
3487.00,0.0098
3486.00,0.0098
3485.00,0.0099
3484.00,0.0099
3483.00,0.0099
3482.00,0.0099
3481.00,0.0099
3480.00,0.0100
3479.00,0.0100
3478.00,0.0100
3477.00,0.0100
3476.00,0.0100
3475.00,0.0101
3474.00,0.0101
3473.00,0.0101
3472.00,0.0101
3471.00,0.0102
3470.00,0.0102
3469.00,0.0102
3468.00,0.0103
3467.00,0.0103
3466.00,0.0103
3465.00,0.0103
3464.00,0.0103
3463.00,0.0103
3462.00,0.0103
3461.00,0.0103
3460.00,0.0104
3459.00,0.0104
3458.00,0.0104
3457.00,0.0104
3456.00,0.0104
3455.00,0.0104
3454.00,0.0105
3453.00,0.0105
3452.00,0.0105
3451.00,0.0105
3450.00,0.0105
3449.00,0.0105
3448.00,0.0105
3447.00,0.0105
3446.00,0.0105
3445.00,0.0105
3444.00,0.0106
3443.00,0.0106
3442.00,0.0106
3441.00,0.0106
3440.00,0.0106
3439.00,0.0106
3438.00,0.0106
3437.00,0.0107
3436.00,0.0107
3435.00,0.0107
3434.00,0.0107
3433.00,0.0107
3432.00,0.0107
3431.00,0.0107
3430.00,0.0107
3429.00,0.0107
3428.00,0.0107
3427.00,0.0107
3426.00,0.0107
3425.00,0.0106
3424.00,0.0106
3423.00,0.0106
3422.00,0.0106
3421.00,0.0106
3420.00,0.0106
3419.00,0.0106
3418.00,0.0106
3417.00,0.0106
3416.00,0.0106
3415.00,0.0106
3414.00,0.0106
3413.00,0.0106
3412.00,0.0106
3411.00,0.0106
3410.00,0.0106
3409.00,0.0106
3408.00,0.0106
3407.00,0.0105
3406.00,0.0105
3405.00,0.0105
3404.00,0.0105
3403.00,0.0105
3402.00,0.0105
3401.00,0.0105
3400.00,0.0105
3399.00,0.0106
3398.00,0.0106
3397.00,0.0105
3396.00,0.0105
3395.00,0.0105
3394.00,0.0105
3393.00,0.0105
3392.00,0.0104
3391.00,0.0104
3390.00,0.0104
3389.00,0.0104
3388.00,0.0104
3387.00,0.0103
3386.00,0.0103
3385.00,0.0103
3384.00,0.0103
3383.00,0.0103
3382.00,0.0103
3381.00,0.0103
3380.00,0.0103
3379.00,0.0103
3378.00,0.0103
3377.00,0.0103
3376.00,0.0103
3375.00,0.0102
3374.00,0.0102
3373.00,0.0102
3372.00,0.0101
3371.00,0.0101
3370.00,0.0101
3369.00,0.0100
3368.00,0.0100
3367.00,0.0100
3366.00,0.0100
3365.00,0.0100
3364.00,0.0100
3363.00,0.0100
3362.00,0.0100
3361.00,0.0100
3360.00,0.0100
3359.00,0.0100
3358.00,0.0100
3357.00,0.0099
3356.00,0.0099
3355.00,0.0099
3354.00,0.0099
3353.00,0.0098
3352.00,0.0098
3351.00,0.0098
3350.00,0.0098
3349.00,0.0098
3348.00,0.0098
3347.00,0.0098
3346.00,0.0098
3345.00,0.0098
3344.00,0.0098
3343.00,0.0098
3342.00,0.0098
3341.00,0.0097
3340.00,0.0097
3339.00,0.0096
3338.00,0.0096
3337.00,0.0097
3336.00,0.0097
3335.00,0.0097
3334.00,0.0097
3333.00,0.0097
3332.00,0.0097
3331.00,0.0097
3330.00,0.0096
3329.00,0.0096
3328.00,0.0096
3327.00,0.0095
3326.00,0.0095
3325.00,0.0096
3324.00,0.0096
3323.00,0.0096
3322.00,0.0096
3321.00,0.0095
3320.00,0.0095
3319.00,0.0095
3318.00,0.0095
3317.00,0.0095
3316.00,0.0095
3315.00,0.0095
3314.00,0.0095
3313.00,0.0094
3312.00,0.0094
3311.00,0.0094
3310.00,0.0094
3309.00,0.0093
3308.00,0.0093
3307.00,0.0093
3306.00,0.0093
3305.00,0.0093
3304.00,0.0094
3303.00,0.0094
3302.00,0.0094
3301.00,0.0094
3300.00,0.0094
3299.00,0.0094
3298.00,0.0093
3297.00,0.0093
3296.00,0.0093
3295.00,0.0093
3294.00,0.0093
3293.00,0.0093
3292.00,0.0093
3291.00,0.0093
3290.00,0.0093
3289.00,0.0093
3288.00,0.0094
3287.00,0.0094
3286.00,0.0094
3285.00,0.0093
3284.00,0.0093
3283.00,0.0093
3282.00,0.0093
3281.00,0.0093
3280.00,0.0093
3279.00,0.0093
3278.00,0.0093
3277.00,0.0092
3276.00,0.0092
3275.00,0.0092
3274.00,0.0092
3273.00,0.0092
3272.00,0.0092
3271.00,0.0092
3270.00,0.0092
3269.00,0.0092
3268.00,0.0092
3267.00,0.0091
3266.00,0.0091
3265.00,0.0091
3264.00,0.0090
3263.00,0.0090
3262.00,0.0090
3261.00,0.0090
3260.00,0.0090
3259.00,0.0090
3258.00,0.0090
3257.00,0.0090
3256.00,0.0090
3255.00,0.0089
3254.00,0.0089
3253.00,0.0089
3252.00,0.0089
3251.00,0.0089
3250.00,0.0089
3249.00,0.0089
3248.00,0.0089
3247.00,0.0089
3246.00,0.0089
3245.00,0.0089
3244.00,0.0089
3243.00,0.0088
3242.00,0.0088
3241.00,0.0088
3240.00,0.0088
3239.00,0.0088
3238.00,0.0088
3237.00,0.0088
3236.00,0.0087
3235.00,0.0087
3234.00,0.0087
3233.00,0.0087
3232.00,0.0087
3231.00,0.0087
3230.00,0.0087
3229.00,0.0087
3228.00,0.0087
3227.00,0.0087
3226.00,0.0087
3225.00,0.0087
3224.00,0.0086
3223.00,0.0086
3222.00,0.0086
3221.00,0.0086
3220.00,0.0085
3219.00,0.0085
3218.00,0.0085
3217.00,0.0085
3216.00,0.0085
3215.00,0.0085
3214.00,0.0085
3213.00,0.0085
3212.00,0.0085
3211.00,0.0084
3210.00,0.0084
3209.00,0.0084
3208.00,0.0084
3207.00,0.0084
3206.00,0.0083
3205.00,0.0083
3204.00,0.0083
3203.00,0.0083
3202.00,0.0082
3201.00,0.0082
3200.00,0.0082
3199.00,0.0082
3198.00,0.0082
3197.00,0.0082
3196.00,0.0082
3195.00,0.0082
3194.00,0.0081
3193.00,0.0081
3192.00,0.0081
3191.00,0.0081
3190.00,0.0081
3189.00,0.0081
3188.00,0.0080
3187.00,0.0080
3186.00,0.0080
3185.00,0.0080
3184.00,0.0080
3183.00,0.0080
3182.00,0.0080
3181.00,0.0080
3180.00,0.0080
3179.00,0.0080
3178.00,0.0080
3177.00,0.0079
3176.00,0.0079
3175.00,0.0079
3174.00,0.0079
3173.00,0.0079
3172.00,0.0079
3171.00,0.0079
3170.00,0.0079
3169.00,0.0079
3168.00,0.0078
3167.00,0.0078
3166.00,0.0078
3165.00,0.0078
3164.00,0.0078
3163.00,0.0078
3162.00,0.0078
3161.00,0.0078
3160.00,0.0077
3159.00,0.0077
3158.00,0.0077
3157.00,0.0077
3156.00,0.0077
3155.00,0.0077
3154.00,0.0077
3153.00,0.0077
3152.00,0.0077
3151.00,0.0077
3150.00,0.0076
3149.00,0.0076
3148.00,0.0076
3147.00,0.0076
3146.00,0.0076
3145.00,0.0076
3144.00,0.0075
3143.00,0.0075
3142.00,0.0075
3141.00,0.0074
3140.00,0.0075
3139.00,0.0075
3138.00,0.0075
3137.00,0.0075
3136.00,0.0074
3135.00,0.0074
3134.00,0.0074
3133.00,0.0074
3132.00,0.0074
3131.00,0.0074
3130.00,0.0074
3129.00,0.0074
3128.00,0.0074
3127.00,0.0074
3126.00,0.0074
3125.00,0.0074
3124.00,0.0074
3123.00,0.0074
3122.00,0.0074
3121.00,0.0073
3120.00,0.0073
3119.00,0.0073
3118.00,0.0073
3117.00,0.0072
3116.00,0.0072
3115.00,0.0072
3114.00,0.0072
3113.00,0.0072
3112.00,0.0072
3111.00,0.0072
3110.00,0.0072
3109.00,0.0072
3108.00,0.0072
3107.00,0.0072
3106.00,0.0072
3105.00,0.0072
3104.00,0.0071
3103.00,0.0071
3102.00,0.0071
3101.00,0.0070
3100.00,0.0071
3099.00,0.0071
3098.00,0.0071
3097.00,0.0071
3096.00,0.0071
3095.00,0.0070
3094.00,0.0070
3093.00,0.0070
3092.00,0.0070
3091.00,0.0070
3090.00,0.0070
3089.00,0.0070
3088.00,0.0070
3087.00,0.0070
3086.00,0.0070
3085.00,0.0070
3084.00,0.0070
3083.00,0.0070
3082.00,0.0070
3081.00,0.0070
3080.00,0.0070
3079.00,0.0070
3078.00,0.0070
3077.00,0.0070
3076.00,0.0070
3075.00,0.0070
3074.00,0.0070
3073.00,0.0070
3072.00,0.0070
3071.00,0.0069
3070.00,0.0069
3069.00,0.0069
3068.00,0.0069
3067.00,0.0069
3066.00,0.0069
3065.00,0.0069
3064.00,0.0068
3063.00,0.0068
3062.00,0.0068
3061.00,0.0068
3060.00,0.0068
3059.00,0.0068
3058.00,0.0068
3057.00,0.0068
3056.00,0.0068
3055.00,0.0068
3054.00,0.0067
3053.00,0.0067
3052.00,0.0067
3051.00,0.0067
3050.00,0.0067
3049.00,0.0067
3048.00,0.0067
3047.00,0.0067
3046.00,0.0067
3045.00,0.0067
3044.00,0.0067
3043.00,0.0067
3042.00,0.0067
3041.00,0.0067
3040.00,0.0067
3039.00,0.0067
3038.00,0.0067
3037.00,0.0067
3036.00,0.0067
3035.00,0.0066
3034.00,0.0066
3033.00,0.0066
3032.00,0.0066
3031.00,0.0066
3030.00,0.0066
3029.00,0.0066
3028.00,0.0066
3027.00,0.0066
3026.00,0.0066
3025.00,0.0066
3024.00,0.0066
3023.00,0.0066
3022.00,0.0065
3021.00,0.0065
3020.00,0.0065
3019.00,0.0065
3018.00,0.0066
3017.00,0.0066
3016.00,0.0066
3015.00,0.0067
3014.00,0.0067
3013.00,0.0067
3012.00,0.0068
3011.00,0.0068
3010.00,0.0069
3009.00,0.0070
3008.00,0.0070
3007.00,0.0071
3006.00,0.0071
3005.00,0.0072
3004.00,0.0073
3003.00,0.0075
3002.00,0.0076
3001.00,0.0078
3000.00,0.0080
2999.00,0.0081
2998.00,0.0083
2997.00,0.0085
2996.00,0.0087
2995.00,0.0089
2994.00,0.0092
2993.00,0.0094
2992.00,0.0097
2991.00,0.0099
2990.00,0.0102
2989.00,0.0104
2988.00,0.0107
2987.00,0.0109
2986.00,0.0111
2985.00,0.0113
2984.00,0.0115
2983.00,0.0117
2982.00,0.0119
2981.00,0.0120
2980.00,0.0122
2979.00,0.0124
2978.00,0.0126
2977.00,0.0128
2976.00,0.0129
2975.00,0.0131
2974.00,0.0133
2973.00,0.0134
2972.00,0.0136
2971.00,0.0137
2970.00,0.0138
2969.00,0.0140
2968.00,0.0141
2967.00,0.0143
2966.00,0.0145
2965.00,0.0146
2964.00,0.0148
2963.00,0.0150
2962.00,0.0151
2961.00,0.0153
2960.00,0.0154
2959.00,0.0155
2958.00,0.0156
2957.00,0.0157
2956.00,0.0158
2955.00,0.0159
2954.00,0.0159
2953.00,0.0159
2952.00,0.0159
2951.00,0.0159
2950.00,0.0159
2949.00,0.0159
2948.00,0.0159
2947.00,0.0159
2946.00,0.0159
2945.00,0.0158
2944.00,0.0158
2943.00,0.0157
2942.00,0.0157
2941.00,0.0157
2940.00,0.0157
2939.00,0.0157
2938.00,0.0158
2937.00,0.0158
2936.00,0.0159
2935.00,0.0160
2934.00,0.0161
2933.00,0.0162
2932.00,0.0163
2931.00,0.0164
2930.00,0.0165
2929.00,0.0166
2928.00,0.0166
2927.00,0.0167
2926.00,0.0167
2925.00,0.0167
2924.00,0.0167
2923.00,0.0167
2922.00,0.0166
2921.00,0.0165
2920.00,0.0164
2919.00,0.0163
2918.00,0.0161
2917.00,0.0160
2916.00,0.0158
2915.00,0.0156
2914.00,0.0154
2913.00,0.0152
2912.00,0.0150
2911.00,0.0148
2910.00,0.0146
2909.00,0.0144
2908.00,0.0142
2907.00,0.0140
2906.00,0.0139
2905.00,0.0137
2904.00,0.0136
2903.00,0.0135
2902.00,0.0134
2901.00,0.0134
2900.00,0.0133
2899.00,0.0133
2898.00,0.0133
2897.00,0.0133
2896.00,0.0133
2895.00,0.0133
2894.00,0.0132
2893.00,0.0132
2892.00,0.0132
2891.00,0.0132
2890.00,0.0132
2889.00,0.0132
2888.00,0.0132
2887.00,0.0132
2886.00,0.0132
2885.00,0.0132
2884.00,0.0131
2883.00,0.0131
2882.00,0.0132
2881.00,0.0132
2880.00,0.0132
2879.00,0.0133
2878.00,0.0133
2877.00,0.0134
2876.00,0.0134
2875.00,0.0135
2874.00,0.0135
2873.00,0.0135
2872.00,0.0136
2871.00,0.0136
2870.00,0.0136
2869.00,0.0136
2868.00,0.0135
2867.00,0.0135
2866.00,0.0134
2865.00,0.0134
2864.00,0.0134
2863.00,0.0133
2862.00,0.0133
2861.00,0.0132
2860.00,0.0132
2859.00,0.0131
2858.00,0.0130
2857.00,0.0130
2856.00,0.0128
2855.00,0.0127
2854.00,0.0125
2853.00,0.0122
2852.00,0.0120
2851.00,0.0118
2850.00,0.0115
2849.00,0.0113
2848.00,0.0111
2847.00,0.0108
2846.00,0.0106
2845.00,0.0104
2844.00,0.0101
2843.00,0.0099
2842.00,0.0097
2841.00,0.0095
2840.00,0.0094
2839.00,0.0092
2838.00,0.0091
2837.00,0.0090
2836.00,0.0088
2835.00,0.0087
2834.00,0.0085
2833.00,0.0084
2832.00,0.0083
2831.00,0.0082
2830.00,0.0081
2829.00,0.0080
2828.00,0.0079
2827.00,0.0078
2826.00,0.0077
2825.00,0.0076
2824.00,0.0075
2823.00,0.0074
2822.00,0.0073
2821.00,0.0072
2820.00,0.0071
2819.00,0.0071
2818.00,0.0070
2817.00,0.0069
2816.00,0.0069
2815.00,0.0068
2814.00,0.0068
2813.00,0.0068
2812.00,0.0067
2811.00,0.0067
2810.00,0.0066
2809.00,0.0066
2808.00,0.0065
2807.00,0.0065
2806.00,0.0064
2805.00,0.0064
2804.00,0.0063
2803.00,0.0063
2802.00,0.0063
2801.00,0.0062
2800.00,0.0062
2799.00,0.0062
2798.00,0.0061
2797.00,0.0061
2796.00,0.0061
2795.00,0.0061
2794.00,0.0060
2793.00,0.0060
2792.00,0.0060
2791.00,0.0060
2790.00,0.0060
2789.00,0.0060
2788.00,0.0059
2787.00,0.0059
2786.00,0.0059
2785.00,0.0059
2784.00,0.0059
2783.00,0.0058
2782.00,0.0058
2781.00,0.0058
2780.00,0.0058
2779.00,0.0057
2778.00,0.0057
2777.00,0.0057
2776.00,0.0057
2775.00,0.0057
2774.00,0.0057
2773.00,0.0057
2772.00,0.0056
2771.00,0.0056
2770.00,0.0056
2769.00,0.0056
2768.00,0.0056
2767.00,0.0056
2766.00,0.0056
2765.00,0.0055
2764.00,0.0055
2763.00,0.0055
2762.00,0.0056
2761.00,0.0056
2760.00,0.0056
2759.00,0.0056
2758.00,0.0055
2757.00,0.0055
2756.00,0.0055
2755.00,0.0055
2754.00,0.0055
2753.00,0.0055
2752.00,0.0055
2751.00,0.0055
2750.00,0.0056
2749.00,0.0056
2748.00,0.0056
2747.00,0.0056
2746.00,0.0056
2745.00,0.0056
2744.00,0.0056
2743.00,0.0056
2742.00,0.0056
2741.00,0.0056
2740.00,0.0056
2739.00,0.0056
2738.00,0.0056
2737.00,0.0056
2736.00,0.0056
2735.00,0.0056
2734.00,0.0056
2733.00,0.0056
2732.00,0.0055
2731.00,0.0055
2730.00,0.0055
2729.00,0.0055
2728.00,0.0055
2727.00,0.0055
2726.00,0.0055
2725.00,0.0055
2724.00,0.0055
2723.00,0.0055
2722.00,0.0055
2721.00,0.0055
2720.00,0.0055
2719.00,0.0055
2718.00,0.0055
2717.00,0.0055
2716.00,0.0055
2715.00,0.0055
2714.00,0.0055
2713.00,0.0054
2712.00,0.0054
2711.00,0.0054
2710.00,0.0054
2709.00,0.0054
2708.00,0.0054
2707.00,0.0054
2706.00,0.0054
2705.00,0.0054
2704.00,0.0053
2703.00,0.0053
2702.00,0.0053
2701.00,0.0053
2700.00,0.0053
2699.00,0.0053
2698.00,0.0053
2697.00,0.0053
2696.00,0.0053
2695.00,0.0053
2694.00,0.0053
2693.00,0.0053
2692.00,0.0053
2691.00,0.0052
2690.00,0.0052
2689.00,0.0052
2688.00,0.0052
2687.00,0.0052
2686.00,0.0052
2685.00,0.0052
2684.00,0.0052
2683.00,0.0052
2682.00,0.0051
2681.00,0.0051
2680.00,0.0051
2679.00,0.0051
2678.00,0.0051
2677.00,0.0051
2676.00,0.0051
2675.00,0.0051
2674.00,0.0051
2673.00,0.0051
2672.00,0.0051
2671.00,0.0051
2670.00,0.0051
2669.00,0.0051
2668.00,0.0051
2667.00,0.0052
2666.00,0.0052
2665.00,0.0052
2664.00,0.0053
2663.00,0.0053
2662.00,0.0053
2661.00,0.0053
2660.00,0.0054
2659.00,0.0054
2658.00,0.0054
2657.00,0.0054
2656.00,0.0054
2655.00,0.0054
2654.00,0.0054
2653.00,0.0054
2652.00,0.0054
2651.00,0.0054
2650.00,0.0054
2649.00,0.0054
2648.00,0.0054
2647.00,0.0054
2646.00,0.0054
2645.00,0.0053
2644.00,0.0053
2643.00,0.0053
2642.00,0.0053
2641.00,0.0053
2640.00,0.0053
2639.00,0.0053
2638.00,0.0053
2637.00,0.0053
2636.00,0.0052
2635.00,0.0052
2634.00,0.0052
2633.00,0.0051
2632.00,0.0051
2631.00,0.0051
2630.00,0.0051
2629.00,0.0051
2628.00,0.0051
2627.00,0.0052
2626.00,0.0052
2625.00,0.0052
2624.00,0.0052
2623.00,0.0051
2622.00,0.0051
2621.00,0.0051
2620.00,0.0050
2619.00,0.0050
2618.00,0.0050
2617.00,0.0050
2616.00,0.0050
2615.00,0.0050
2614.00,0.0050
2613.00,0.0050
2612.00,0.0050
2611.00,0.0050
2610.00,0.0049
2609.00,0.0049
2608.00,0.0049
2607.00,0.0049
2606.00,0.0049
2605.00,0.0049
2604.00,0.0049
2603.00,0.0048
2602.00,0.0048
2601.00,0.0048
2600.00,0.0048
2599.00,0.0048
2598.00,0.0048
2597.00,0.0048
2596.00,0.0048
2595.00,0.0048
2594.00,0.0048
2593.00,0.0048
2592.00,0.0048
2591.00,0.0048
2590.00,0.0048
2589.00,0.0047
2588.00,0.0047
2587.00,0.0047
2586.00,0.0047
2585.00,0.0047
2584.00,0.0047
2583.00,0.0047
2582.00,0.0047
2581.00,0.0047
2580.00,0.0047
2579.00,0.0047
2578.00,0.0046
2577.00,0.0046
2576.00,0.0046
2575.00,0.0046
2574.00,0.0046
2573.00,0.0046
2572.00,0.0046
2571.00,0.0045
2570.00,0.0045
2569.00,0.0045
2568.00,0.0045
2567.00,0.0045
2566.00,0.0045
2565.00,0.0045
2564.00,0.0045
2563.00,0.0045
2562.00,0.0045
2561.00,0.0045
2560.00,0.0045
2559.00,0.0045
2558.00,0.0045
2557.00,0.0045
2556.00,0.0044
2555.00,0.0044
2554.00,0.0044
2553.00,0.0044
2552.00,0.0044
2551.00,0.0044
2550.00,0.0044
2549.00,0.0044
2548.00,0.0044
2547.00,0.0044
2546.00,0.0044
2545.00,0.0044
2544.00,0.0044
2543.00,0.0044
2542.00,0.0044
2541.00,0.0043
2540.00,0.0043
2539.00,0.0042
2538.00,0.0042
2537.00,0.0042
2536.00,0.0042
2535.00,0.0042
2534.00,0.0042
2533.00,0.0042
2532.00,0.0042
2531.00,0.0042
2530.00,0.0042
2529.00,0.0042
2528.00,0.0042
2527.00,0.0042
2526.00,0.0042
2525.00,0.0041
2524.00,0.0041
2523.00,0.0041
2522.00,0.0041
2521.00,0.0041
2520.00,0.0040
2519.00,0.0040
2518.00,0.0040
2517.00,0.0040
2516.00,0.0040
2515.00,0.0039
2514.00,0.0039
2513.00,0.0039
2512.00,0.0039
2511.00,0.0039
2510.00,0.0039
2509.00,0.0039
2508.00,0.0039
2507.00,0.0039
2506.00,0.0039
2505.00,0.0039
2504.00,0.0039
2503.00,0.0039
2502.00,0.0039
2501.00,0.0039
2500.00,0.0039
2499.00,0.0039
2498.00,0.0039
2497.00,0.0039
2496.00,0.0039
2495.00,0.0039
2494.00,0.0039
2493.00,0.0039
2492.00,0.0039
2491.00,0.0039
2490.00,0.0039
2489.00,0.0039
2488.00,0.0039
2487.00,0.0039
2486.00,0.0038
2485.00,0.0038
2484.00,0.0038
2483.00,0.0039
2482.00,0.0039
2481.00,0.0039
2480.00,0.0039
2479.00,0.0039
2478.00,0.0038
2477.00,0.0038
2476.00,0.0038
2475.00,0.0038
2474.00,0.0038
2473.00,0.0038
2472.00,0.0038
2471.00,0.0038
2470.00,0.0039
2469.00,0.0039
2468.00,0.0039
2467.00,0.0039
2466.00,0.0039
2465.00,0.0039
2464.00,0.0039
2463.00,0.0039
2462.00,0.0039
2461.00,0.0039
2460.00,0.0039
2459.00,0.0039
2458.00,0.0039
2457.00,0.0039
2456.00,0.0039
2455.00,0.0039
2454.00,0.0039
2453.00,0.0040
2452.00,0.0040
2451.00,0.0040
2450.00,0.0040
2449.00,0.0039
2448.00,0.0039
2447.00,0.0039
2446.00,0.0039
2445.00,0.0038
2444.00,0.0038
2443.00,0.0038
2442.00,0.0038
2441.00,0.0038
2440.00,0.0039
2439.00,0.0039
2438.00,0.0038
2437.00,0.0038
2436.00,0.0038
2435.00,0.0038
2434.00,0.0038
2433.00,0.0038
2432.00,0.0038
2431.00,0.0037
2430.00,0.0037
2429.00,0.0037
2428.00,0.0037
2427.00,0.0037
2426.00,0.0037
2425.00,0.0037
2424.00,0.0037
2423.00,0.0037
2422.00,0.0037
2421.00,0.0037
2420.00,0.0037
2419.00,0.0037
2418.00,0.0037
2417.00,0.0037
2416.00,0.0037
2415.00,0.0037
2414.00,0.0037
2413.00,0.0037
2412.00,0.0037
2411.00,0.0037
2410.00,0.0037
2409.00,0.0036
2408.00,0.0036
2407.00,0.0036
2406.00,0.0036
2405.00,0.0036
2404.00,0.0036
2403.00,0.0036
2402.00,0.0036
2401.00,0.0035
2400.00,0.0035
2399.00,0.0035
2398.00,0.0035
2397.00,0.0035
2396.00,0.0035
2395.00,0.0035
2394.00,0.0035
2393.00,0.0035
2392.00,0.0035
2391.00,0.0035
2390.00,0.0034
2389.00,0.0034
2388.00,0.0034
2387.00,0.0034
2386.00,0.0033
2385.00,0.0033
2384.00,0.0032
2383.00,0.0032
2382.00,0.0032
2381.00,0.0032
2380.00,0.0032
2379.00,0.0032
2378.00,0.0033
2377.00,0.0033
2376.00,0.0033
2375.00,0.0033
2374.00,0.0033
2373.00,0.0033
2372.00,0.0032
2371.00,0.0032
2370.00,0.0032
2369.00,0.0032
2368.00,0.0031
2367.00,0.0032
2366.00,0.0032
2365.00,0.0033
2364.00,0.0033
2363.00,0.0034
2362.00,0.0034
2361.00,0.0034
2360.00,0.0034
2359.00,0.0034
2358.00,0.0034
2357.00,0.0034
2356.00,0.0035
2355.00,0.0035
2354.00,0.0034
2353.00,0.0034
2352.00,0.0034
2351.00,0.0035
2350.00,0.0035
2349.00,0.0036
2348.00,0.0036
2347.00,0.0036
2346.00,0.0036
2345.00,0.0036
2344.00,0.0037
2343.00,0.0037
2342.00,0.0038
2341.00,0.0038
2340.00,0.0038
2339.00,0.0037
2338.00,0.0037
2337.00,0.0037
2336.00,0.0037
2335.00,0.0038
2334.00,0.0038
2333.00,0.0037
2332.00,0.0037
2331.00,0.0037
2330.00,0.0037
2329.00,0.0039
2328.00,0.0042
2327.00,0.0046
2326.00,0.0050
2325.00,0.0051
2324.00,0.0051
2323.00,0.0049
2322.00,0.0047
2321.00,0.0045
2320.00,0.0044
2319.00,0.0043
2318.00,0.0043
2317.00,0.0042
2316.00,0.0042
2315.00,0.0041
2314.00,0.0040
2313.00,0.0039
2312.00,0.0039
2311.00,0.0039
2310.00,0.0038
2309.00,0.0039
2308.00,0.0040
2307.00,0.0040
2306.00,0.0040
2305.00,0.0040
2304.00,0.0040
2303.00,0.0040
2302.00,0.0040
2301.00,0.0040
2300.00,0.0040
2299.00,0.0041
2298.00,0.0041
2297.00,0.0042
2296.00,0.0042
2295.00,0.0043
2294.00,0.0044
2293.00,0.0045
2292.00,0.0046
2291.00,0.0047
2290.00,0.0047
2289.00,0.0047
2288.00,0.0048
2287.00,0.0048
2286.00,0.0047
2285.00,0.0047
2284.00,0.0046
2283.00,0.0045
2282.00,0.0044
2281.00,0.0044
2280.00,0.0043
2279.00,0.0043
2278.00,0.0044
2277.00,0.0044
2276.00,0.0044
2275.00,0.0043
2274.00,0.0043
2273.00,0.0043
2272.00,0.0043
2271.00,0.0042
2270.00,0.0042
2269.00,0.0041
2268.00,0.0040
2267.00,0.0040
2266.00,0.0039
2265.00,0.0039
2264.00,0.0039
2263.00,0.0040
2262.00,0.0040
2261.00,0.0041
2260.00,0.0041
2259.00,0.0041
2258.00,0.0040
2257.00,0.0039
2256.00,0.0038
2255.00,0.0038
2254.00,0.0038
2253.00,0.0038
2252.00,0.0037
2251.00,0.0037
2250.00,0.0036
2249.00,0.0036
2248.00,0.0037
2247.00,0.0038
2246.00,0.0038
2245.00,0.0039
2244.00,0.0039
2243.00,0.0040
2242.00,0.0040
2241.00,0.0040
2240.00,0.0040
2239.00,0.0040
2238.00,0.0040
2237.00,0.0041
2236.00,0.0041
2235.00,0.0041
2234.00,0.0040
2233.00,0.0040
2232.00,0.0039
2231.00,0.0039
2230.00,0.0040
2229.00,0.0040
2228.00,0.0041
2227.00,0.0041
2226.00,0.0041
2225.00,0.0041
2224.00,0.0040
2223.00,0.0040
2222.00,0.0040
2221.00,0.0040
2220.00,0.0040
2219.00,0.0040
2218.00,0.0040
2217.00,0.0039
2216.00,0.0039
2215.00,0.0039
2214.00,0.0038
2213.00,0.0038
2212.00,0.0038
2211.00,0.0039
2210.00,0.0039
2209.00,0.0040
2208.00,0.0040
2207.00,0.0039
2206.00,0.0039
2205.00,0.0038
2204.00,0.0038
2203.00,0.0037
2202.00,0.0037
2201.00,0.0037
2200.00,0.0037
2199.00,0.0037
2198.00,0.0037
2197.00,0.0037
2196.00,0.0038
2195.00,0.0039
2194.00,0.0040
2193.00,0.0042
2192.00,0.0044
2191.00,0.0044
2190.00,0.0043
2189.00,0.0042
2188.00,0.0041
2187.00,0.0040
2186.00,0.0040
2185.00,0.0040
2184.00,0.0039
2183.00,0.0038
2182.00,0.0037
2181.00,0.0038
2180.00,0.0039
2179.00,0.0039
2178.00,0.0037
2177.00,0.0035
2176.00,0.0035
2175.00,0.0036
2174.00,0.0037
2173.00,0.0039
2172.00,0.0041
2171.00,0.0042
2170.00,0.0044
2169.00,0.0045
2168.00,0.0047
2167.00,0.0047
2166.00,0.0048
2165.00,0.0049
2164.00,0.0050
2163.00,0.0050
2162.00,0.0045
2161.00,0.0035
2160.00,0.0022
2159.00,0.0012
2158.00,0.0007
2157.00,0.0009
2156.00,0.0013
2155.00,0.0016
2154.00,0.0019
2153.00,0.0020
2152.00,0.0021
2151.00,0.0020
2150.00,0.0019
2149.00,0.0019
2148.00,0.0020
2147.00,0.0021
2146.00,0.0023
2145.00,0.0023
2144.00,0.0024
2143.00,0.0024
2142.00,0.0024
2141.00,0.0024
2140.00,0.0024
2139.00,0.0023
2138.00,0.0021
2137.00,0.0020
2136.00,0.0018
2135.00,0.0017
2134.00,0.0017
2133.00,0.0018
2132.00,0.0020
2131.00,0.0021
2130.00,0.0022
2129.00,0.0023
2128.00,0.0024
2127.00,0.0026
2126.00,0.0027
2125.00,0.0028
2124.00,0.0029
2123.00,0.0031
2122.00,0.0031
2121.00,0.0032
2120.00,0.0033
2119.00,0.0033
2118.00,0.0034
2117.00,0.0035
2116.00,0.0036
2115.00,0.0037
2114.00,0.0037
2113.00,0.0037
2112.00,0.0036
2111.00,0.0036
2110.00,0.0035
2109.00,0.0035
2108.00,0.0035
2107.00,0.0035
2106.00,0.0036
2105.00,0.0036
2104.00,0.0036
2103.00,0.0036
2102.00,0.0036
2101.00,0.0036
2100.00,0.0036
2099.00,0.0036
2098.00,0.0035
2097.00,0.0034
2096.00,0.0032
2095.00,0.0031
2094.00,0.0030
2093.00,0.0031
2092.00,0.0032
2091.00,0.0033
2090.00,0.0033
2089.00,0.0034
2088.00,0.0034
2087.00,0.0035
2086.00,0.0035
2085.00,0.0036
2084.00,0.0036
2083.00,0.0037
2082.00,0.0038
2081.00,0.0039
2080.00,0.0039
2079.00,0.0039
2078.00,0.0038
2077.00,0.0037
2076.00,0.0036
2075.00,0.0036
2074.00,0.0036
2073.00,0.0036
2072.00,0.0036
2071.00,0.0036
2070.00,0.0036
2069.00,0.0035
2068.00,0.0035
2067.00,0.0035
2066.00,0.0035
2065.00,0.0034
2064.00,0.0034
2063.00,0.0035
2062.00,0.0035
2061.00,0.0036
2060.00,0.0037
2059.00,0.0037
2058.00,0.0036
2057.00,0.0035
2056.00,0.0035
2055.00,0.0035
2054.00,0.0037
2053.00,0.0041
2052.00,0.0045
2051.00,0.0045
2050.00,0.0043
2049.00,0.0040
2048.00,0.0038
2047.00,0.0036
2046.00,0.0034
2045.00,0.0032
2044.00,0.0033
2043.00,0.0034
2042.00,0.0035
2041.00,0.0036
2040.00,0.0037
2039.00,0.0038
2038.00,0.0038
2037.00,0.0039
2036.00,0.0038
2035.00,0.0037
2034.00,0.0034
2033.00,0.0032
2032.00,0.0032
2031.00,0.0034
2030.00,0.0035
2029.00,0.0036
2028.00,0.0035
2027.00,0.0033
2026.00,0.0031
2025.00,0.0030
2024.00,0.0030
2023.00,0.0030
2022.00,0.0029
2021.00,0.0028
2020.00,0.0028
2019.00,0.0028
2018.00,0.0029
2017.00,0.0029
2016.00,0.0028
2015.00,0.0028
2014.00,0.0028
2013.00,0.0029
2012.00,0.0031
2011.00,0.0032
2010.00,0.0031
2009.00,0.0029
2008.00,0.0027
2007.00,0.0025
2006.00,0.0023
2005.00,0.0023
2004.00,0.0024
2003.00,0.0025
2002.00,0.0026
2001.00,0.0027
2000.00,0.0028
1999.00,0.0029
1998.00,0.0029
1997.00,0.0029
1996.00,0.0030
1995.00,0.0031
1994.00,0.0031
1993.00,0.0031
1992.00,0.0032
1991.00,0.0033
1990.00,0.0035
1989.00,0.0036
1988.00,0.0037
1987.00,0.0037
1986.00,0.0037
1985.00,0.0038
1984.00,0.0040
1983.00,0.0042
1982.00,0.0043
1981.00,0.0044
1980.00,0.0044
1979.00,0.0040
1978.00,0.0033
1977.00,0.0026
1976.00,0.0023
1975.00,0.0021
1974.00,0.0021
1973.00,0.0022
1972.00,0.0023
1971.00,0.0023
1970.00,0.0022
1969.00,0.0023
1968.00,0.0024
1967.00,0.0025
1966.00,0.0026
1965.00,0.0026
1964.00,0.0026
1963.00,0.0025
1962.00,0.0023
1961.00,0.0021
1960.00,0.0020
1959.00,0.0019
1958.00,0.0019
1957.00,0.0020
1956.00,0.0022
1955.00,0.0024
1954.00,0.0024
1953.00,0.0024
1952.00,0.0024
1951.00,0.0024
1950.00,0.0024
1949.00,0.0024
1948.00,0.0025
1947.00,0.0025
1946.00,0.0025
1945.00,0.0025
1944.00,0.0026
1943.00,0.0026
1942.00,0.0025
1941.00,0.0024
1940.00,0.0025
1939.00,0.0026
1938.00,0.0026
1937.00,0.0025
1936.00,0.0025
1935.00,0.0025
1934.00,0.0025
1933.00,0.0026
1932.00,0.0026
1931.00,0.0026
1930.00,0.0026
1929.00,0.0025
1928.00,0.0024
1927.00,0.0024
1926.00,0.0024
1925.00,0.0024
1924.00,0.0024
1923.00,0.0025
1922.00,0.0025
1921.00,0.0025
1920.00,0.0026
1919.00,0.0027
1918.00,0.0027
1917.00,0.0026
1916.00,0.0026
1915.00,0.0026
1914.00,0.0026
1913.00,0.0027
1912.00,0.0028
1911.00,0.0029
1910.00,0.0029
1909.00,0.0029
1908.00,0.0028
1907.00,0.0027
1906.00,0.0027
1905.00,0.0027
1904.00,0.0028
1903.00,0.0028
1902.00,0.0028
1901.00,0.0028
1900.00,0.0028
1899.00,0.0028
1898.00,0.0028
1897.00,0.0028
1896.00,0.0028
1895.00,0.0028
1894.00,0.0028
1893.00,0.0028
1892.00,0.0028
1891.00,0.0028
1890.00,0.0028
1889.00,0.0028
1888.00,0.0029
1887.00,0.0029
1886.00,0.0028
1885.00,0.0028
1884.00,0.0028
1883.00,0.0028
1882.00,0.0028
1881.00,0.0028
1880.00,0.0028
1879.00,0.0029
1878.00,0.0029
1877.00,0.0029
1876.00,0.0028
1875.00,0.0028
1874.00,0.0027
1873.00,0.0027
1872.00,0.0027
1871.00,0.0028
1870.00,0.0028
1869.00,0.0028
1868.00,0.0028
1867.00,0.0028
1866.00,0.0028
1865.00,0.0028
1864.00,0.0028
1863.00,0.0029
1862.00,0.0029
1861.00,0.0028
1860.00,0.0028
1859.00,0.0028
1858.00,0.0028
1857.00,0.0028
1856.00,0.0029
1855.00,0.0029
1854.00,0.0029
1853.00,0.0029
1852.00,0.0029
1851.00,0.0029
1850.00,0.0028
1849.00,0.0028
1848.00,0.0028
1847.00,0.0028
1846.00,0.0028
1845.00,0.0028
1844.00,0.0028
1843.00,0.0029
1842.00,0.0029
1841.00,0.0029
1840.00,0.0029
1839.00,0.0029
1838.00,0.0028
1837.00,0.0028
1836.00,0.0028
1835.00,0.0028
1834.00,0.0027
1833.00,0.0027
1832.00,0.0028
1831.00,0.0028
1830.00,0.0029
1829.00,0.0028
1828.00,0.0028
1827.00,0.0028
1826.00,0.0028
1825.00,0.0029
1824.00,0.0029
1823.00,0.0029
1822.00,0.0029
1821.00,0.0028
1820.00,0.0027
1819.00,0.0027
1818.00,0.0026
1817.00,0.0025
1816.00,0.0025
1815.00,0.0026
1814.00,0.0026
1813.00,0.0027
1812.00,0.0028
1811.00,0.0028
1810.00,0.0028
1809.00,0.0028
1808.00,0.0029
1807.00,0.0029
1806.00,0.0029
1805.00,0.0029
1804.00,0.0029
1803.00,0.0029
1802.00,0.0029
1801.00,0.0029
1800.00,0.0029
1799.00,0.0029
1798.00,0.0029
1797.00,0.0029
1796.00,0.0029
1795.00,0.0029
1794.00,0.0029
1793.00,0.0028
1792.00,0.0028
1791.00,0.0029
1790.00,0.0029
1789.00,0.0029
1788.00,0.0030
1787.00,0.0030
1786.00,0.0030
1785.00,0.0030
1784.00,0.0030
1783.00,0.0030
1782.00,0.0030
1781.00,0.0030
1780.00,0.0030
1779.00,0.0030
1778.00,0.0029
1777.00,0.0029
1776.00,0.0029
1775.00,0.0029
1774.00,0.0029
1773.00,0.0029
1772.00,0.0030
1771.00,0.0030
1770.00,0.0030
1769.00,0.0030
1768.00,0.0031
1767.00,0.0031
1766.00,0.0031
1765.00,0.0031
1764.00,0.0031
1763.00,0.0031
1762.00,0.0031
1761.00,0.0031
1760.00,0.0031
1759.00,0.0031
1758.00,0.0031
1757.00,0.0031
1756.00,0.0031
1755.00,0.0031
1754.00,0.0031
1753.00,0.0031
1752.00,0.0031
1751.00,0.0031
1750.00,0.0031
1749.00,0.0031
1748.00,0.0031
1747.00,0.0031
1746.00,0.0031
1745.00,0.0031
1744.00,0.0031
1743.00,0.0032
1742.00,0.0031
1741.00,0.0031
1740.00,0.0032
1739.00,0.0032
1738.00,0.0031
1737.00,0.0031
1736.00,0.0031
1735.00,0.0032
1734.00,0.0033
1733.00,0.0033
1732.00,0.0034
1731.00,0.0036
1730.00,0.0037
1729.00,0.0037
1728.00,0.0038
1727.00,0.0039
1726.00,0.0040
1725.00,0.0040
1724.00,0.0042
1723.00,0.0042
1722.00,0.0043
1721.00,0.0043
1720.00,0.0044
1719.00,0.0045
1718.00,0.0047
1717.00,0.0048
1716.00,0.0050
1715.00,0.0052
1714.00,0.0054
1713.00,0.0056
1712.00,0.0059
1711.00,0.0062
1710.00,0.0065
1709.00,0.0068
1708.00,0.0073
1707.00,0.0078
1706.00,0.0084
1705.00,0.0090
1704.00,0.0096
1703.00,0.0103
1702.00,0.0110
1701.00,0.0122
1700.00,0.0140
1699.00,0.0155
1698.00,0.0169
1697.00,0.0184
1696.00,0.0205
1695.00,0.0229
1694.00,0.0250
1693.00,0.0269
1692.00,0.0288
1691.00,0.0309
1690.00,0.0332
1689.00,0.0354
1688.00,0.0374
1687.00,0.0392
1686.00,0.0409
1685.00,0.0431
1684.00,0.0458
1683.00,0.0484
1682.00,0.0503
1681.00,0.0519
1680.00,0.0534
1679.00,0.0548
1678.00,0.0560
1677.00,0.0571
1676.00,0.0583
1675.00,0.0594
1674.00,0.0606
1673.00,0.0615
1672.00,0.0623
1671.00,0.0631
1670.00,0.0638
1669.00,0.0646
1668.00,0.0655
1667.00,0.0664
1666.00,0.0671
1665.00,0.0678
1664.00,0.0684
1663.00,0.0690
1662.00,0.0696
1661.00,0.0703
1660.00,0.0709
1659.00,0.0714
1658.00,0.0717
1657.00,0.0719
1656.00,0.0719
1655.00,0.0718
1654.00,0.0711
1653.00,0.0701
1652.00,0.0697
1651.00,0.0697
1650.00,0.0695
1649.00,0.0689
1648.00,0.0675
1647.00,0.0657
1646.00,0.0638
1645.00,0.0622
1644.00,0.0609
1643.00,0.0594
1642.00,0.0578
1641.00,0.0559
1640.00,0.0540
1639.00,0.0522
1638.00,0.0504
1637.00,0.0484
1636.00,0.0458
1635.00,0.0434
1634.00,0.0416
1633.00,0.0402
1632.00,0.0390
1631.00,0.0377
1630.00,0.0364
1629.00,0.0352
1628.00,0.0341
1627.00,0.0332
1626.00,0.0327
1625.00,0.0324
1624.00,0.0323
1623.00,0.0324
1622.00,0.0326
1621.00,0.0328
1620.00,0.0328
1619.00,0.0327
1618.00,0.0324
1617.00,0.0317
1616.00,0.0310
1615.00,0.0303
1614.00,0.0297
1613.00,0.0291
1612.00,0.0286
1611.00,0.0280
1610.00,0.0274
1609.00,0.0267
1608.00,0.0259
1607.00,0.0250
1606.00,0.0239
1605.00,0.0228
1604.00,0.0217
1603.00,0.0206
1602.00,0.0196
1601.00,0.0187
1600.00,0.0178
1599.00,0.0172
1598.00,0.0166
1597.00,0.0162
1596.00,0.0159
1595.00,0.0158
1594.00,0.0159
1593.00,0.0162
1592.00,0.0167
1591.00,0.0173
1590.00,0.0181
1589.00,0.0189
1588.00,0.0197
1587.00,0.0203
1586.00,0.0206
1585.00,0.0207
1584.00,0.0204
1583.00,0.0200
1582.00,0.0193
1581.00,0.0186
1580.00,0.0178
1579.00,0.0170
1578.00,0.0163
1577.00,0.0156
1576.00,0.0149
1575.00,0.0144
1574.00,0.0140
1573.00,0.0137
1572.00,0.0135
1571.00,0.0132
1570.00,0.0128
1569.00,0.0125
1568.00,0.0122
1567.00,0.0120
1566.00,0.0118
1565.00,0.0116
1564.00,0.0112
1563.00,0.0109
1562.00,0.0106
1561.00,0.0103
1560.00,0.0101
1559.00,0.0099
1558.00,0.0097
1557.00,0.0097
1556.00,0.0097
1555.00,0.0097
1554.00,0.0096
1553.00,0.0095
1552.00,0.0095
1551.00,0.0094
1550.00,0.0093
1549.00,0.0092
1548.00,0.0091
1547.00,0.0090
1546.00,0.0089
1545.00,0.0088
1544.00,0.0086
1543.00,0.0085
1542.00,0.0085
1541.00,0.0085
1540.00,0.0085
1539.00,0.0084
1538.00,0.0084
1537.00,0.0084
1536.00,0.0084
1535.00,0.0084
1534.00,0.0084
1533.00,0.0084
1532.00,0.0085
1531.00,0.0085
1530.00,0.0085
1529.00,0.0085
1528.00,0.0085
1527.00,0.0085
1526.00,0.0086
1525.00,0.0086
1524.00,0.0086
1523.00,0.0087
1522.00,0.0088
1521.00,0.0089
1520.00,0.0091
1519.00,0.0092
1518.00,0.0094
1517.00,0.0096
1516.00,0.0097
1515.00,0.0098
1514.00,0.0099
1513.00,0.0100
1512.00,0.0101
1511.00,0.0101
1510.00,0.0101
1509.00,0.0102
1508.00,0.0104
1507.00,0.0108
1506.00,0.0113
1505.00,0.0119
1504.00,0.0125
1503.00,0.0132
1502.00,0.0139
1501.00,0.0148
1500.00,0.0158
1499.00,0.0168
1498.00,0.0179
1497.00,0.0190
1496.00,0.0198
1495.00,0.0203
1494.00,0.0205
1493.00,0.0204
1492.00,0.0201
1491.00,0.0196
1490.00,0.0187
1489.00,0.0177
1488.00,0.0168
1487.00,0.0158
1486.00,0.0150
1485.00,0.0143
1484.00,0.0136
1483.00,0.0131
1482.00,0.0126
1481.00,0.0122
1480.00,0.0119
1479.00,0.0118
1478.00,0.0118
1477.00,0.0119
1476.00,0.0122
1475.00,0.0125
1474.00,0.0132
1473.00,0.0142
1472.00,0.0155
1471.00,0.0169
1470.00,0.0184
1469.00,0.0199
1468.00,0.0215
1467.00,0.0232
1466.00,0.0252
1465.00,0.0273
1464.00,0.0294
1463.00,0.0309
1462.00,0.0320
1461.00,0.0326
1460.00,0.0329
1459.00,0.0326
1458.00,0.0317
1457.00,0.0302
1456.00,0.0286
1455.00,0.0275
1454.00,0.0266
1453.00,0.0259
1452.00,0.0254
1451.00,0.0250
1450.00,0.0250
1449.00,0.0254
1448.00,0.0261
1447.00,0.0271
1446.00,0.0282
1445.00,0.0295
1444.00,0.0309
1443.00,0.0322
1442.00,0.0336
1441.00,0.0349
1440.00,0.0361
1439.00,0.0371
1438.00,0.0380
1437.00,0.0391
1436.00,0.0401
1435.00,0.0409
1434.00,0.0414
1433.00,0.0419
1432.00,0.0422
1431.00,0.0425
1430.00,0.0429
1429.00,0.0436
1428.00,0.0444
1427.00,0.0454
1426.00,0.0465
1425.00,0.0477
1424.00,0.0488
1423.00,0.0496
1422.00,0.0499
1421.00,0.0496
1420.00,0.0486
1419.00,0.0466
1418.00,0.0443
1417.00,0.0419
1416.00,0.0397
1415.00,0.0373
1414.00,0.0351
1413.00,0.0331
1412.00,0.0313
1411.00,0.0298
1410.00,0.0287
1409.00,0.0279
1408.00,0.0273
1407.00,0.0269
1406.00,0.0267
1405.00,0.0265
1404.00,0.0264
1403.00,0.0263
1402.00,0.0261
1401.00,0.0257
1400.00,0.0251
1399.00,0.0243
1398.00,0.0234
1397.00,0.0224
1396.00,0.0214
1395.00,0.0204
1394.00,0.0195
1393.00,0.0188
1392.00,0.0182
1391.00,0.0178
1390.00,0.0176
1389.00,0.0175
1388.00,0.0175
1387.00,0.0178
1386.00,0.0182
1385.00,0.0186
1384.00,0.0191
1383.00,0.0196
1382.00,0.0202
1381.00,0.0207
1380.00,0.0212
1379.00,0.0216
1378.00,0.0218
1377.00,0.0220
1376.00,0.0220
1375.00,0.0220
1374.00,0.0219
1373.00,0.0217
1372.00,0.0216
1371.00,0.0214
1370.00,0.0212
1369.00,0.0210
1368.00,0.0208
1367.00,0.0206
1366.00,0.0205
1365.00,0.0204
1364.00,0.0204
1363.00,0.0205
1362.00,0.0205
1361.00,0.0204
1360.00,0.0201
1359.00,0.0197
1358.00,0.0191
1357.00,0.0183
1356.00,0.0176
1355.00,0.0168
1354.00,0.0162
1353.00,0.0157
1352.00,0.0152
1351.00,0.0149
1350.00,0.0147
1349.00,0.0145
1348.00,0.0143
1347.00,0.0142
1346.00,0.0141
1345.00,0.0141
1344.00,0.0140
1343.00,0.0140
1342.00,0.0140
1341.00,0.0140
1340.00,0.0141
1339.00,0.0142
1338.00,0.0143
1337.00,0.0145
1336.00,0.0147
1335.00,0.0148
1334.00,0.0151
1333.00,0.0153
1332.00,0.0156
1331.00,0.0159
1330.00,0.0162
1329.00,0.0166
1328.00,0.0170
1327.00,0.0174
1326.00,0.0180
1325.00,0.0185
1324.00,0.0192
1323.00,0.0198
1322.00,0.0204
1321.00,0.0209
1320.00,0.0214
1319.00,0.0218
1318.00,0.0221
1317.00,0.0222
1316.00,0.0222
1315.00,0.0220
1314.00,0.0217
1313.00,0.0214
1312.00,0.0210
1311.00,0.0207
1310.00,0.0204
1309.00,0.0202
1308.00,0.0201
1307.00,0.0201
1306.00,0.0203
1305.00,0.0206
1304.00,0.0210
1303.00,0.0216
1302.00,0.0224
1301.00,0.0235
1300.00,0.0248
1299.00,0.0265
1298.00,0.0285
1297.00,0.0309
1296.00,0.0336
1295.00,0.0365
1294.00,0.0395
1293.00,0.0426
1292.00,0.0455
1291.00,0.0482
1290.00,0.0506
1289.00,0.0526
1288.00,0.0542
1287.00,0.0553
1286.00,0.0558
1285.00,0.0559
1284.00,0.0554
1283.00,0.0546
1282.00,0.0535
1281.00,0.0524
1280.00,0.0513
1279.00,0.0505
1278.00,0.0499
1277.00,0.0496
1276.00,0.0496
1275.00,0.0497
1274.00,0.0499
1273.00,0.0500
1272.00,0.0500
1271.00,0.0497
1270.00,0.0491
1269.00,0.0483
1268.00,0.0471
1267.00,0.0457
1266.00,0.0441
1265.00,0.0423
1264.00,0.0405
1263.00,0.0387
1262.00,0.0369
1261.00,0.0352
1260.00,0.0335
1259.00,0.0320
1258.00,0.0306
1257.00,0.0293
1256.00,0.0281
1255.00,0.0271
1254.00,0.0262
1253.00,0.0254
1252.00,0.0248
1251.00,0.0243
1250.00,0.0239
1249.00,0.0237
1248.00,0.0237
1247.00,0.0237
1246.00,0.0240
1245.00,0.0243
1244.00,0.0247
1243.00,0.0251
1242.00,0.0255
1241.00,0.0259
1240.00,0.0262
1239.00,0.0266
1238.00,0.0270
1237.00,0.0273
1236.00,0.0276
1235.00,0.0279
1234.00,0.0281
1233.00,0.0283
1232.00,0.0284
1231.00,0.0285
1230.00,0.0286
1229.00,0.0286
1228.00,0.0286
1227.00,0.0286
1226.00,0.0285
1225.00,0.0285
1224.00,0.0285
1223.00,0.0285
1222.00,0.0286
1221.00,0.0286
1220.00,0.0286
1219.00,0.0286
1218.00,0.0285
1217.00,0.0283
1216.00,0.0279
1215.00,0.0274
1214.00,0.0268
1213.00,0.0261
1212.00,0.0254
1211.00,0.0246
1210.00,0.0239
1209.00,0.0233
1208.00,0.0227
1207.00,0.0223
1206.00,0.0219
1205.00,0.0217
1204.00,0.0215
1203.00,0.0215
1202.00,0.0216
1201.00,0.0217
1200.00,0.0220
1199.00,0.0223
1198.00,0.0227
1197.00,0.0231
1196.00,0.0235
1195.00,0.0237
1194.00,0.0238
1193.00,0.0237
1192.00,0.0234
1191.00,0.0229
1190.00,0.0223
1189.00,0.0216
1188.00,0.0209
1187.00,0.0203
1186.00,0.0197
1185.00,0.0193
1184.00,0.0189
1183.00,0.0186
1182.00,0.0184
1181.00,0.0182
1180.00,0.0181
1179.00,0.0181
1178.00,0.0182
1177.00,0.0183
1176.00,0.0185
1175.00,0.0187
1174.00,0.0189
1173.00,0.0191
1172.00,0.0193
1171.00,0.0195
1170.00,0.0197
1169.00,0.0198
1168.00,0.0199
1167.00,0.0199
1166.00,0.0199
1165.00,0.0200
1164.00,0.0201
1163.00,0.0203
1162.00,0.0206
1161.00,0.0210
1160.00,0.0214
1159.00,0.0219
1158.00,0.0222
1157.00,0.0224
1156.00,0.0224
1155.00,0.0223
1154.00,0.0219
1153.00,0.0213
1152.00,0.0206
1151.00,0.0199
1150.00,0.0191
1149.00,0.0184
1148.00,0.0177
1147.00,0.0171
1146.00,0.0165
1145.00,0.0160
1144.00,0.0156
1143.00,0.0152
1142.00,0.0149
1141.00,0.0148
1140.00,0.0147
1139.00,0.0147
1138.00,0.0149
1137.00,0.0152
1136.00,0.0156
1135.00,0.0163
1134.00,0.0172
1133.00,0.0181
1132.00,0.0191
1131.00,0.0199
1130.00,0.0204
1129.00,0.0206
1128.00,0.0203
1127.00,0.0196
1126.00,0.0187
1125.00,0.0177
1124.00,0.0168
1123.00,0.0161
1122.00,0.0155
1121.00,0.0151
1120.00,0.0147
1119.00,0.0144
1118.00,0.0142
1117.00,0.0141
1116.00,0.0141
1115.00,0.0141
1114.00,0.0142
1113.00,0.0143
1112.00,0.0144
1111.00,0.0144
1110.00,0.0145
1109.00,0.0146
1108.00,0.0147
1107.00,0.0149
1106.00,0.0151
1105.00,0.0154
1104.00,0.0157
1103.00,0.0160
1102.00,0.0164
1101.00,0.0166
1100.00,0.0167
1099.00,0.0166
1098.00,0.0164
1097.00,0.0162
1096.00,0.0159
1095.00,0.0155
1094.00,0.0152
1093.00,0.0149
1092.00,0.0146
1091.00,0.0144
1090.00,0.0142
1089.00,0.0141
1088.00,0.0139
1087.00,0.0138
1086.00,0.0137
1085.00,0.0137
1084.00,0.0137
1083.00,0.0137
1082.00,0.0138
1081.00,0.0140
1080.00,0.0141
1079.00,0.0143
1078.00,0.0145
1077.00,0.0148
1076.00,0.0150
1075.00,0.0153
1074.00,0.0156
1073.00,0.0159
1072.00,0.0162
1071.00,0.0166
1070.00,0.0170
1069.00,0.0176
1068.00,0.0184
1067.00,0.0192
1066.00,0.0203
1065.00,0.0214
1064.00,0.0227
1063.00,0.0240
1062.00,0.0254
1061.00,0.0266
1060.00,0.0276
1059.00,0.0284
1058.00,0.0287
1057.00,0.0287
1056.00,0.0283
1055.00,0.0274
1054.00,0.0261
1053.00,0.0247
1052.00,0.0232
1051.00,0.0219
1050.00,0.0207
1049.00,0.0197
1048.00,0.0189
1047.00,0.0183
1046.00,0.0179
1045.00,0.0177
1044.00,0.0175
1043.00,0.0174
1042.00,0.0174
1041.00,0.0174
1040.00,0.0175
1039.00,0.0176
1038.00,0.0177
1037.00,0.0177
1036.00,0.0178
1035.00,0.0180
1034.00,0.0182
1033.00,0.0184
1032.00,0.0186
1031.00,0.0188
1030.00,0.0189
1029.00,0.0188
1028.00,0.0187
1027.00,0.0184
1026.00,0.0180
1025.00,0.0177
1024.00,0.0175
1023.00,0.0173
1022.00,0.0173
1021.00,0.0173
1020.00,0.0173
1019.00,0.0173
1018.00,0.0172
1017.00,0.0171
1016.00,0.0168
1015.00,0.0165
1014.00,0.0161
1013.00,0.0158
1012.00,0.0154
1011.00,0.0152
1010.00,0.0150
1009.00,0.0151
1008.00,0.0152
1007.00,0.0154
1006.00,0.0158
1005.00,0.0161
1004.00,0.0165
1003.00,0.0168
1002.00,0.0168
1001.00,0.0167
1000.00,0.0164
999.00,0.0161
998.00,0.0158
997.00,0.0154
996.00,0.0151
995.00,0.0148
994.00,0.0145
993.00,0.0143
992.00,0.0140
991.00,0.0138
990.00,0.0136
989.00,0.0133
988.00,0.0131
987.00,0.0128
986.00,0.0126
985.00,0.0124
984.00,0.0123
983.00,0.0122
982.00,0.0121
981.00,0.0121
980.00,0.0120
979.00,0.0120
978.00,0.0120
977.00,0.0120
976.00,0.0120
975.00,0.0119
974.00,0.0118
973.00,0.0117
972.00,0.0116
971.00,0.0115
970.00,0.0114
969.00,0.0114
968.00,0.0112
967.00,0.0111
966.00,0.0110
965.00,0.0110
964.00,0.0109
963.00,0.0108
962.00,0.0108
961.00,0.0108
960.00,0.0107
959.00,0.0107
958.00,0.0106
957.00,0.0105
956.00,0.0104
955.00,0.0104
954.00,0.0103
953.00,0.0102
952.00,0.0102
951.00,0.0101
950.00,0.0101
949.00,0.0101
948.00,0.0102
947.00,0.0102
946.00,0.0103
945.00,0.0104
944.00,0.0105
943.00,0.0107
942.00,0.0109
941.00,0.0111
940.00,0.0115
939.00,0.0119
938.00,0.0123
937.00,0.0128
936.00,0.0133
935.00,0.0137
934.00,0.0140
933.00,0.0142
932.00,0.0142
931.00,0.0141
930.00,0.0140
929.00,0.0138
928.00,0.0137
927.00,0.0136
926.00,0.0135
925.00,0.0134
924.00,0.0133
923.00,0.0131
922.00,0.0130
921.00,0.0129
920.00,0.0128
919.00,0.0127
918.00,0.0125
917.00,0.0124
916.00,0.0123
915.00,0.0121
914.00,0.0120
913.00,0.0119
912.00,0.0118
911.00,0.0118
910.00,0.0118
909.00,0.0119
908.00,0.0120
907.00,0.0121
906.00,0.0123
905.00,0.0126
904.00,0.0129
903.00,0.0132
902.00,0.0136
901.00,0.0139
900.00,0.0142
899.00,0.0144
898.00,0.0145
897.00,0.0146
896.00,0.0146
895.00,0.0145
894.00,0.0143
893.00,0.0141
892.00,0.0138
891.00,0.0136
890.00,0.0134
889.00,0.0132
888.00,0.0130
887.00,0.0129
886.00,0.0128
885.00,0.0127
884.00,0.0128
883.00,0.0128
882.00,0.0130
881.00,0.0132
880.00,0.0134
879.00,0.0136
878.00,0.0139
877.00,0.0142
876.00,0.0145
875.00,0.0149
874.00,0.0154
873.00,0.0158
872.00,0.0161
871.00,0.0163
870.00,0.0165
869.00,0.0166
868.00,0.0166
867.00,0.0166
866.00,0.0166
865.00,0.0166
864.00,0.0167
863.00,0.0168
862.00,0.0169
861.00,0.0170
860.00,0.0172
859.00,0.0174
858.00,0.0176
857.00,0.0178
856.00,0.0181
855.00,0.0184
854.00,0.0188
853.00,0.0192
852.00,0.0195
851.00,0.0199
850.00,0.0203
849.00,0.0205
848.00,0.0208
847.00,0.0209
846.00,0.0211
845.00,0.0212
844.00,0.0212
843.00,0.0212
842.00,0.0211
841.00,0.0211
840.00,0.0210
839.00,0.0209
838.00,0.0209
837.00,0.0208
836.00,0.0207
835.00,0.0207
834.00,0.0206
833.00,0.0206
832.00,0.0205
831.00,0.0204
830.00,0.0203
829.00,0.0202
828.00,0.0201
827.00,0.0200
826.00,0.0199
825.00,0.0198
824.00,0.0197
823.00,0.0196
822.00,0.0196
821.00,0.0196
820.00,0.0196
819.00,0.0195
818.00,0.0195
817.00,0.0195
816.00,0.0194
815.00,0.0192
814.00,0.0190
813.00,0.0187
812.00,0.0183
811.00,0.0178
810.00,0.0173
809.00,0.0167
808.00,0.0161
807.00,0.0154
806.00,0.0149
805.00,0.0144
804.00,0.0140
803.00,0.0137
802.00,0.0134
801.00,0.0133
800.00,0.0132
799.00,0.0132
798.00,0.0131
797.00,0.0131
796.00,0.0131
795.00,0.0130
794.00,0.0130
793.00,0.0130
792.00,0.0131
791.00,0.0132
790.00,0.0132
789.00,0.0133
788.00,0.0133
787.00,0.0133
786.00,0.0133
785.00,0.0133
784.00,0.0133
783.00,0.0134
782.00,0.0135
781.00,0.0136
780.00,0.0138
779.00,0.0139
778.00,0.0141
777.00,0.0142
776.00,0.0143
775.00,0.0143
774.00,0.0142
773.00,0.0142
772.00,0.0141
771.00,0.0141
770.00,0.0142
769.00,0.0143
768.00,0.0145
767.00,0.0146
766.00,0.0147
765.00,0.0149
764.00,0.0150
763.00,0.0152
762.00,0.0154
761.00,0.0157
760.00,0.0159
759.00,0.0162
758.00,0.0164
757.00,0.0167
756.00,0.0170
755.00,0.0172
754.00,0.0175
753.00,0.0178
752.00,0.0181
751.00,0.0183
750.00,0.0186
749.00,0.0189
748.00,0.0192
747.00,0.0196
746.00,0.0199
745.00,0.0202
744.00,0.0206
743.00,0.0210
742.00,0.0214
741.00,0.0219
740.00,0.0224
739.00,0.0230
738.00,0.0234
737.00,0.0237
736.00,0.0238
735.00,0.0237
734.00,0.0235
733.00,0.0231
732.00,0.0228
731.00,0.0224
730.00,0.0219
729.00,0.0215
728.00,0.0210
727.00,0.0206
726.00,0.0202
725.00,0.0198
724.00,0.0193
723.00,0.0189
722.00,0.0186
721.00,0.0183
720.00,0.0181
719.00,0.0180
718.00,0.0179
717.00,0.0178
716.00,0.0178
715.00,0.0178
714.00,0.0177
713.00,0.0177
712.00,0.0176
711.00,0.0176
710.00,0.0175
709.00,0.0175
708.00,0.0174
707.00,0.0173
706.00,0.0173
705.00,0.0173
704.00,0.0173
703.00,0.0174
702.00,0.0174
701.00,0.0175
700.00,0.0176
699.00,0.0177
698.00,0.0179
697.00,0.0181
696.00,0.0184
695.00,0.0188
694.00,0.0191
693.00,0.0195
692.00,0.0198
691.00,0.0200
690.00,0.0203
689.00,0.0205
688.00,0.0206
687.00,0.0207
686.00,0.0207
685.00,0.0207
684.00,0.0207
683.00,0.0208
682.00,0.0209
681.00,0.0210
680.00,0.0211
679.00,0.0213
678.00,0.0215
677.00,0.0216
676.00,0.0218
675.00,0.0220
674.00,0.0223
673.00,0.0225
672.00,0.0228
671.00,0.0232
670.00,0.0238
669.00,0.0244
668.00,0.0251
667.00,0.0255
666.00,0.0257
665.00,0.0258
664.00,0.0261
663.00,0.0265
662.00,0.0270
661.00,0.0275
660.00,0.0281
659.00,0.0287
658.00,0.0292
657.00,0.0298
656.00,0.0303
655.00,0.0308
654.00,0.0313
653.00,0.0318
652.00,0.0323
651.00,0.0326
650.00,0.0328
649.00,0.0329
648.00,0.0330
647.00,0.0329
646.00,0.0328
645.00,0.0327
644.00,0.0324
643.00,0.0320
642.00,0.0316
641.00,0.0311
640.00,0.0306
639.00,0.0301
638.00,0.0296
637.00,0.0292
636.00,0.0288
635.00,0.0285
634.00,0.0283
633.00,0.0281
632.00,0.0278
631.00,0.0276
630.00,0.0273
629.00,0.0271
628.00,0.0270
627.00,0.0270
626.00,0.0270
625.00,0.0269
624.00,0.0268
623.00,0.0267
622.00,0.0266
621.00,0.0264
620.00,0.0262
619.00,0.0259
618.00,0.0258
617.00,0.0257
616.00,0.0257
615.00,0.0258
614.00,0.0259
613.00,0.0259
612.00,0.0259
611.00,0.0260
610.00,0.0260
609.00,0.0262
608.00,0.0263
607.00,0.0265
606.00,0.0267
605.00,0.0269
604.00,0.0271
603.00,0.0271
602.00,0.0272
601.00,0.0272
600.00,0.0273
599.00,0.0274
598.00,0.0275
597.00,0.0276
596.00,0.0277
595.00,0.0277
594.00,0.0278
593.00,0.0279
592.00,0.0280
591.00,0.0282
590.00,0.0286
589.00,0.0290
588.00,0.0297
587.00,0.0304
586.00,0.0313
585.00,0.0321
584.00,0.0329
583.00,0.0336
582.00,0.0341
581.00,0.0345
580.00,0.0348
579.00,0.0350
578.00,0.0351
577.00,0.0352
576.00,0.0354
575.00,0.0356
574.00,0.0357
573.00,0.0358
572.00,0.0358
571.00,0.0357
570.00,0.0355
569.00,0.0354
568.00,0.0352
567.00,0.0351
566.00,0.0349
565.00,0.0347
564.00,0.0345
563.00,0.0342
562.00,0.0339
561.00,0.0336
560.00,0.0333
559.00,0.0330
558.00,0.0327
557.00,0.0324
556.00,0.0322
555.00,0.0319
554.00,0.0318
553.00,0.0316
552.00,0.0315
551.00,0.0313
550.00,0.0312
549.00,0.0310
548.00,0.0308
547.00,0.0306
546.00,0.0303
545.00,0.0300
544.00,0.0298
543.00,0.0296
542.00,0.0295
541.00,0.0294
540.00,0.0294
539.00,0.0295
538.00,0.0295
537.00,0.0297
536.00,0.0300
535.00,0.0304
534.00,0.0307
533.00,0.0309
532.00,0.0309
531.00,0.0309
530.00,0.0308
529.00,0.0307
528.00,0.0305
527.00,0.0303
526.00,0.0301
525.00,0.0300
524.00,0.0298
523.00,0.0295
522.00,0.0294
521.00,0.0293
520.00,0.0293
519.00,0.0294
518.00,0.0294
517.00,0.0293
516.00,0.0292
515.00,0.0291
514.00,0.0290
513.00,0.0289
512.00,0.0290
511.00,0.0290
510.00,0.0291
509.00,0.0293
508.00,0.0293
507.00,0.0294
506.00,0.0295
505.00,0.0297
504.00,0.0298
503.00,0.0298
502.00,0.0296
501.00,0.0295
500.00,0.0294
499.00,0.0293
498.00,0.0292
497.00,0.0292
496.00,0.0292
495.00,0.0293
494.00,0.0295
493.00,0.0296
492.00,0.0297
491.00,0.0298
490.00,0.0298
489.00,0.0299
488.00,0.0300
487.00,0.0299
486.00,0.0299
485.00,0.0299
484.00,0.0301
483.00,0.0303
482.00,0.0304
481.00,0.0303
480.00,0.0302
479.00,0.0302
478.00,0.0303
477.00,0.0305
476.00,0.0306
475.00,0.0306
474.00,0.0305
473.00,0.0303
472.00,0.0302
471.00,0.0301
470.00,0.0301
469.00,0.0300
468.00,0.0300
467.00,0.0300
466.00,0.0301
465.00,0.0302
464.00,0.0302
463.00,0.0300
462.00,0.0297
461.00,0.0295
460.00,0.0292
459.00,0.0290
458.00,0.0290
457.00,0.0292
456.00,0.0294
455.00,0.0296
454.00,0.0297
453.00,0.0295
452.00,0.0291
451.00,0.0287
450.00,0.0285
449.00,0.0286
448.00,0.0287
447.00,0.0286
446.00,0.0283
445.00,0.0278
444.00,0.0275
443.00,0.0274
442.00,0.0273
441.00,0.0271
440.00,0.0268
439.00,0.0265
438.00,0.0262
437.00,0.0261
436.00,0.0262
435.00,0.0264
434.00,0.0267
433.00,0.0268
432.00,0.0265
431.00,0.0262
430.00,0.0261
429.00,0.0261
428.00,0.0260
427.00,0.0257
426.00,0.0254
425.00,0.0253
424.00,0.0254
423.00,0.0256
422.00,0.0257
421.00,0.0257
420.00,0.0257
419.00,0.0258
418.00,0.0261
417.00,0.0263
416.00,0.0261
415.00,0.0257
414.00,0.0255
413.00,0.0258
412.00,0.0261
411.00,0.0262
410.00,0.0258
409.00,0.0252
408.00,0.0251
407.00,0.0254
406.00,0.0257
405.00,0.0257
404.00,0.0253
403.00,0.0246
402.00,0.0244
401.00,0.0248
400.00,0.0253
