Created as New Dataset,Sample 975 By YargerLab Date Wednesday, July 30 2025
cm-1,A
4000.00,0.0007
3999.00,0.0007
3998.00,0.0008
3997.00,0.0008
3996.00,0.0008
3995.00,0.0008
3994.00,0.0008
3993.00,0.0008
3992.00,0.0008
3991.00,0.0008
3990.00,0.0008
3989.00,0.0008
3988.00,0.0008
3987.00,0.0008
3986.00,0.0008
3985.00,0.0008
3984.00,0.0007
3983.00,0.0007
3982.00,0.0007
3981.00,0.0007
3980.00,0.0008
3979.00,0.0008
3978.00,0.0008
3977.00,0.0008
3976.00,0.0008
3975.00,0.0008
3974.00,0.0008
3973.00,0.0008
3972.00,0.0008
3971.00,0.0008
3970.00,0.0007
3969.00,0.0007
3968.00,0.0007
3967.00,0.0008
3966.00,0.0008
3965.00,0.0008
3964.00,0.0008
3963.00,0.0008
3962.00,0.0007
3961.00,0.0007
3960.00,0.0007
3959.00,0.0007
3958.00,0.0007
3957.00,0.0007
3956.00,0.0007
3955.00,0.0008
3954.00,0.0008
3953.00,0.0008
3952.00,0.0007
3951.00,0.0007
3950.00,0.0007
3949.00,0.0008
3948.00,0.0008
3947.00,0.0008
3946.00,0.0007
3945.00,0.0007
3944.00,0.0007
3943.00,0.0007
3942.00,0.0007
3941.00,0.0007
3940.00,0.0007
3939.00,0.0007
3938.00,0.0007
3937.00,0.0007
3936.00,0.0007
3935.00,0.0007
3934.00,0.0007
3933.00,0.0007
3932.00,0.0007
3931.00,0.0006
3930.00,0.0006
3929.00,0.0007
3928.00,0.0007
3927.00,0.0007
3926.00,0.0007
3925.00,0.0007
3924.00,0.0007
3923.00,0.0007
3922.00,0.0007
3921.00,0.0007
3920.00,0.0007
3919.00,0.0007
3918.00,0.0007
3917.00,0.0007
3916.00,0.0007
3915.00,0.0007
3914.00,0.0007
3913.00,0.0007
3912.00,0.0007
3911.00,0.0007
3910.00,0.0007
3909.00,0.0006
3908.00,0.0006
3907.00,0.0006
3906.00,0.0006
3905.00,0.0007
3904.00,0.0007
3903.00,0.0007
3902.00,0.0007
3901.00,0.0006
3900.00,0.0006
3899.00,0.0006
3898.00,0.0007
3897.00,0.0007
3896.00,0.0007
3895.00,0.0007
3894.00,0.0007
3893.00,0.0007
3892.00,0.0007
3891.00,0.0007
3890.00,0.0007
3889.00,0.0007
3888.00,0.0007
3887.00,0.0007
3886.00,0.0007
3885.00,0.0007
3884.00,0.0007
3883.00,0.0007
3882.00,0.0006
3881.00,0.0007
3880.00,0.0007
3879.00,0.0007
3878.00,0.0006
3877.00,0.0006
3876.00,0.0006
3875.00,0.0006
3874.00,0.0007
3873.00,0.0007
3872.00,0.0007
3871.00,0.0006
3870.00,0.0006
3869.00,0.0006
3868.00,0.0006
3867.00,0.0006
3866.00,0.0005
3865.00,0.0005
3864.00,0.0006
3863.00,0.0006
3862.00,0.0006
3861.00,0.0006
3860.00,0.0007
3859.00,0.0007
3858.00,0.0006
3857.00,0.0006
3856.00,0.0005
3855.00,0.0005
3854.00,0.0005
3853.00,0.0005
3852.00,0.0005
3851.00,0.0005
3850.00,0.0006
3849.00,0.0006
3848.00,0.0006
3847.00,0.0006
3846.00,0.0006
3845.00,0.0006
3844.00,0.0006
3843.00,0.0006
3842.00,0.0006
3841.00,0.0006
3840.00,0.0006
3839.00,0.0006
3838.00,0.0006
3837.00,0.0006
3836.00,0.0006
3835.00,0.0006
3834.00,0.0006
3833.00,0.0006
3832.00,0.0006
3831.00,0.0006
3830.00,0.0007
3829.00,0.0007
3828.00,0.0007
3827.00,0.0007
3826.00,0.0007
3825.00,0.0007
3824.00,0.0007
3823.00,0.0006
3822.00,0.0006
3821.00,0.0007
3820.00,0.0007
3819.00,0.0006
3818.00,0.0006
3817.00,0.0005
3816.00,0.0006
3815.00,0.0006
3814.00,0.0007
3813.00,0.0007
3812.00,0.0007
3811.00,0.0007
3810.00,0.0007
3809.00,0.0006
3808.00,0.0006
3807.00,0.0007
3806.00,0.0007
3805.00,0.0006
3804.00,0.0006
3803.00,0.0005
3802.00,0.0005
3801.00,0.0005
3800.00,0.0005
3799.00,0.0005
3798.00,0.0006
3797.00,0.0006
3796.00,0.0007
3795.00,0.0007
3794.00,0.0007
3793.00,0.0007
3792.00,0.0007
3791.00,0.0007
3790.00,0.0007
3789.00,0.0007
3788.00,0.0007
3787.00,0.0007
3786.00,0.0007
3785.00,0.0007
3784.00,0.0007
3783.00,0.0007
3782.00,0.0007
3781.00,0.0007
3780.00,0.0007
3779.00,0.0007
3778.00,0.0007
3777.00,0.0007
3776.00,0.0007
3775.00,0.0007
3774.00,0.0007
3773.00,0.0007
3772.00,0.0007
3771.00,0.0007
3770.00,0.0007
3769.00,0.0007
3768.00,0.0007
3767.00,0.0007
3766.00,0.0007
3765.00,0.0007
3764.00,0.0007
3763.00,0.0007
3762.00,0.0007
3761.00,0.0007
3760.00,0.0007
3759.00,0.0007
3758.00,0.0007
3757.00,0.0007
3756.00,0.0007
3755.00,0.0007
3754.00,0.0006
3753.00,0.0006
3752.00,0.0006
3751.00,0.0006
3750.00,0.0005
3749.00,0.0005
3748.00,0.0005
3747.00,0.0005
3746.00,0.0005
3745.00,0.0006
3744.00,0.0006
3743.00,0.0006
3742.00,0.0006
3741.00,0.0006
3740.00,0.0006
3739.00,0.0006
3738.00,0.0006
3737.00,0.0006
3736.00,0.0005
3735.00,0.0005
3734.00,0.0005
3733.00,0.0005
3732.00,0.0005
3731.00,0.0005
3730.00,0.0006
3729.00,0.0006
3728.00,0.0006
3727.00,0.0006
3726.00,0.0006
3725.00,0.0006
3724.00,0.0006
3723.00,0.0006
3722.00,0.0006
3721.00,0.0006
3720.00,0.0006
3719.00,0.0006
3718.00,0.0006
3717.00,0.0006
3716.00,0.0006
3715.00,0.0006
3714.00,0.0006
3713.00,0.0006
3712.00,0.0007
3711.00,0.0007
3710.00,0.0006
3709.00,0.0006
3708.00,0.0005
3707.00,0.0005
3706.00,0.0006
3705.00,0.0006
3704.00,0.0006
3703.00,0.0006
3702.00,0.0005
3701.00,0.0005
3700.00,0.0005
3699.00,0.0005
3698.00,0.0005
3697.00,0.0006
3696.00,0.0006
3695.00,0.0006
3694.00,0.0006
3693.00,0.0006
3692.00,0.0006
3691.00,0.0006
3690.00,0.0006
3689.00,0.0006
3688.00,0.0006
3687.00,0.0007
3686.00,0.0007
3685.00,0.0007
3684.00,0.0007
3683.00,0.0007
3682.00,0.0007
3681.00,0.0007
3680.00,0.0007
3679.00,0.0007
3678.00,0.0007
3677.00,0.0007
3676.00,0.0007
3675.00,0.0007
3674.00,0.0007
3673.00,0.0007
3672.00,0.0007
3671.00,0.0007
3670.00,0.0007
3669.00,0.0008
3668.00,0.0008
3667.00,0.0008
3666.00,0.0008
3665.00,0.0008
3664.00,0.0009
3663.00,0.0009
3662.00,0.0009
3661.00,0.0009
3660.00,0.0009
3659.00,0.0009
3658.00,0.0009
3657.00,0.0009
3656.00,0.0009
3655.00,0.0010
3654.00,0.0010
3653.00,0.0010
3652.00,0.0010
3651.00,0.0011
3650.00,0.0011
3649.00,0.0011
3648.00,0.0011
3647.00,0.0011
3646.00,0.0011
3645.00,0.0011
3644.00,0.0011
3643.00,0.0012
3642.00,0.0012
3641.00,0.0013
3640.00,0.0013
3639.00,0.0013
3638.00,0.0013
3637.00,0.0013
3636.00,0.0013
3635.00,0.0013
3634.00,0.0013
3633.00,0.0013
3632.00,0.0013
3631.00,0.0013
3630.00,0.0014
3629.00,0.0014
3628.00,0.0014
3627.00,0.0014
3626.00,0.0014
3625.00,0.0015
3624.00,0.0015
3623.00,0.0015
3622.00,0.0015
3621.00,0.0015
3620.00,0.0015
3619.00,0.0015
3618.00,0.0016
3617.00,0.0017
3616.00,0.0017
3615.00,0.0017
3614.00,0.0017
3613.00,0.0018
3612.00,0.0018
3611.00,0.0018
3610.00,0.0018
3609.00,0.0018
3608.00,0.0019
3607.00,0.0019
3606.00,0.0019
3605.00,0.0020
3604.00,0.0020
3603.00,0.0020
3602.00,0.0021
3601.00,0.0021
3600.00,0.0021
3599.00,0.0021
3598.00,0.0022
3597.00,0.0022
3596.00,0.0023
3595.00,0.0023
3594.00,0.0024
3593.00,0.0024
3592.00,0.0024
3591.00,0.0025
3590.00,0.0025
3589.00,0.0025
3588.00,0.0026
3587.00,0.0026
3586.00,0.0027
3585.00,0.0027
3584.00,0.0028
3583.00,0.0028
3582.00,0.0029
3581.00,0.0029
3580.00,0.0029
3579.00,0.0030
3578.00,0.0030
3577.00,0.0030
3576.00,0.0031
3575.00,0.0031
3574.00,0.0031
3573.00,0.0032
3572.00,0.0032
3571.00,0.0033
3570.00,0.0033
3569.00,0.0034
3568.00,0.0034
3567.00,0.0034
3566.00,0.0035
3565.00,0.0035
3564.00,0.0035
3563.00,0.0036
3562.00,0.0036
3561.00,0.0036
3560.00,0.0037
3559.00,0.0037
3558.00,0.0037
3557.00,0.0038
3556.00,0.0038
3555.00,0.0039
3554.00,0.0039
3553.00,0.0040
3552.00,0.0040
3551.00,0.0041
3550.00,0.0041
3549.00,0.0041
3548.00,0.0042
3547.00,0.0042
3546.00,0.0042
3545.00,0.0042
3544.00,0.0043
3543.00,0.0042
3542.00,0.0042
3541.00,0.0043
3540.00,0.0043
3539.00,0.0043
3538.00,0.0044
3537.00,0.0044
3536.00,0.0045
3535.00,0.0045
3534.00,0.0046
3533.00,0.0046
3532.00,0.0046
3531.00,0.0046
3530.00,0.0046
3529.00,0.0046
3528.00,0.0047
3527.00,0.0047
3526.00,0.0047
3525.00,0.0047
3524.00,0.0047
3523.00,0.0048
3522.00,0.0048
3521.00,0.0048
3520.00,0.0049
3519.00,0.0049
3518.00,0.0049
3517.00,0.0049
3516.00,0.0050
3515.00,0.0050
3514.00,0.0050
3513.00,0.0050
3512.00,0.0050
3511.00,0.0050
3510.00,0.0050
3509.00,0.0050
3508.00,0.0051
3507.00,0.0051
3506.00,0.0051
3505.00,0.0052
3504.00,0.0052
3503.00,0.0052
3502.00,0.0053
3501.00,0.0053
3500.00,0.0053
3499.00,0.0053
3498.00,0.0053
3497.00,0.0053
3496.00,0.0053
3495.00,0.0054
3494.00,0.0054
3493.00,0.0054
3492.00,0.0054
3491.00,0.0055
3490.00,0.0055
3489.00,0.0055
3488.00,0.0055
3487.00,0.0055
3486.00,0.0055
3485.00,0.0055
3484.00,0.0055
3483.00,0.0055
3482.00,0.0056
3481.00,0.0056
3480.00,0.0057
3479.00,0.0057
3478.00,0.0057
3477.00,0.0057
3476.00,0.0057
3475.00,0.0057
3474.00,0.0057
3473.00,0.0058
3472.00,0.0058
3471.00,0.0058
3470.00,0.0058
3469.00,0.0059
3468.00,0.0059
3467.00,0.0059
3466.00,0.0059
3465.00,0.0059
3464.00,0.0059
3463.00,0.0059
3462.00,0.0059
3461.00,0.0059
3460.00,0.0059
3459.00,0.0059
3458.00,0.0059
3457.00,0.0059
3456.00,0.0059
3455.00,0.0059
3454.00,0.0060
3453.00,0.0060
3452.00,0.0060
3451.00,0.0060
3450.00,0.0060
3449.00,0.0060
3448.00,0.0060
3447.00,0.0060
3446.00,0.0060
3445.00,0.0061
3444.00,0.0061
3443.00,0.0060
3442.00,0.0060
3441.00,0.0060
3440.00,0.0060
3439.00,0.0060
3438.00,0.0061
3437.00,0.0061
3436.00,0.0061
3435.00,0.0061
3434.00,0.0061
3433.00,0.0061
3432.00,0.0061
3431.00,0.0061
3430.00,0.0061
3429.00,0.0060
3428.00,0.0060
3427.00,0.0060
3426.00,0.0060
3425.00,0.0060
3424.00,0.0060
3423.00,0.0060
3422.00,0.0060
3421.00,0.0060
3420.00,0.0060
3419.00,0.0060
3418.00,0.0060
3417.00,0.0059
3416.00,0.0059
3415.00,0.0059
3414.00,0.0059
3413.00,0.0059
3412.00,0.0059
3411.00,0.0059
3410.00,0.0059
3409.00,0.0059
3408.00,0.0059
3407.00,0.0059
3406.00,0.0059
3405.00,0.0059
3404.00,0.0059
3403.00,0.0059
3402.00,0.0059
3401.00,0.0059
3400.00,0.0059
3399.00,0.0059
3398.00,0.0059
3397.00,0.0059
3396.00,0.0059
3395.00,0.0059
3394.00,0.0059
3393.00,0.0058
3392.00,0.0058
3391.00,0.0058
3390.00,0.0058
3389.00,0.0058
3388.00,0.0059
3387.00,0.0059
3386.00,0.0059
3385.00,0.0059
3384.00,0.0059
3383.00,0.0059
3382.00,0.0058
3381.00,0.0058
3380.00,0.0058
3379.00,0.0058
3378.00,0.0058
3377.00,0.0058
3376.00,0.0058
3375.00,0.0058
3374.00,0.0058
3373.00,0.0057
3372.00,0.0057
3371.00,0.0057
3370.00,0.0057
3369.00,0.0056
3368.00,0.0056
3367.00,0.0057
3366.00,0.0057
3365.00,0.0057
3364.00,0.0057
3363.00,0.0057
3362.00,0.0057
3361.00,0.0057
3360.00,0.0057
3359.00,0.0057
3358.00,0.0057
3357.00,0.0057
3356.00,0.0057
3355.00,0.0057
3354.00,0.0057
3353.00,0.0056
3352.00,0.0056
3351.00,0.0056
3350.00,0.0056
3349.00,0.0056
3348.00,0.0056
3347.00,0.0056
3346.00,0.0056
3345.00,0.0056
3344.00,0.0056
3343.00,0.0056
3342.00,0.0056
3341.00,0.0055
3340.00,0.0055
3339.00,0.0055
3338.00,0.0055
3337.00,0.0055
3336.00,0.0055
3335.00,0.0056
3334.00,0.0056
3333.00,0.0056
3332.00,0.0056
3331.00,0.0056
3330.00,0.0055
3329.00,0.0055
3328.00,0.0055
3327.00,0.0054
3326.00,0.0054
3325.00,0.0054
3324.00,0.0054
3323.00,0.0055
3322.00,0.0055
3321.00,0.0055
3320.00,0.0055
3319.00,0.0055
3318.00,0.0054
3317.00,0.0054
3316.00,0.0054
3315.00,0.0054
3314.00,0.0054
3313.00,0.0054
3312.00,0.0054
3311.00,0.0053
3310.00,0.0052
3309.00,0.0052
3308.00,0.0051
3307.00,0.0051
3306.00,0.0051
3305.00,0.0052
3304.00,0.0052
3303.00,0.0053
3302.00,0.0053
3301.00,0.0054
3300.00,0.0053
3299.00,0.0053
3298.00,0.0052
3297.00,0.0052
3296.00,0.0052
3295.00,0.0051
3294.00,0.0051
3293.00,0.0051
3292.00,0.0052
3291.00,0.0052
3290.00,0.0052
3289.00,0.0053
3288.00,0.0053
3287.00,0.0052
3286.00,0.0052
3285.00,0.0052
3284.00,0.0052
3283.00,0.0052
3282.00,0.0051
3281.00,0.0051
3280.00,0.0051
3279.00,0.0051
3278.00,0.0052
3277.00,0.0051
3276.00,0.0051
3275.00,0.0051
3274.00,0.0051
3273.00,0.0051
3272.00,0.0051
3271.00,0.0050
3270.00,0.0050
3269.00,0.0050
3268.00,0.0051
3267.00,0.0051
3266.00,0.0051
3265.00,0.0051
3264.00,0.0051
3263.00,0.0051
3262.00,0.0051
3261.00,0.0051
3260.00,0.0051
3259.00,0.0051
3258.00,0.0050
3257.00,0.0050
3256.00,0.0050
3255.00,0.0049
3254.00,0.0049
3253.00,0.0049
3252.00,0.0050
3251.00,0.0050
3250.00,0.0049
3249.00,0.0049
3248.00,0.0049
3247.00,0.0049
3246.00,0.0048
3245.00,0.0049
3244.00,0.0049
3243.00,0.0049
3242.00,0.0048
3241.00,0.0048
3240.00,0.0048
3239.00,0.0048
3238.00,0.0048
3237.00,0.0048
3236.00,0.0048
3235.00,0.0048
3234.00,0.0048
3233.00,0.0048
3232.00,0.0048
3231.00,0.0048
3230.00,0.0048
3229.00,0.0048
3228.00,0.0048
3227.00,0.0047
3226.00,0.0047
3225.00,0.0047
3224.00,0.0047
3223.00,0.0047
3222.00,0.0047
3221.00,0.0047
3220.00,0.0046
3219.00,0.0046
3218.00,0.0046
3217.00,0.0046
3216.00,0.0046
3215.00,0.0046
3214.00,0.0046
3213.00,0.0046
3212.00,0.0046
3211.00,0.0046
3210.00,0.0046
3209.00,0.0046
3208.00,0.0046
3207.00,0.0046
3206.00,0.0045
3205.00,0.0045
3204.00,0.0045
3203.00,0.0045
3202.00,0.0045
3201.00,0.0045
3200.00,0.0045
3199.00,0.0045
3198.00,0.0044
3197.00,0.0044
3196.00,0.0044
3195.00,0.0045
3194.00,0.0045
3193.00,0.0045
3192.00,0.0044
3191.00,0.0044
3190.00,0.0044
3189.00,0.0044
3188.00,0.0044
3187.00,0.0044
3186.00,0.0044
3185.00,0.0044
3184.00,0.0044
3183.00,0.0044
3182.00,0.0043
3181.00,0.0043
3180.00,0.0043
3179.00,0.0043
3178.00,0.0043
3177.00,0.0043
3176.00,0.0043
3175.00,0.0043
3174.00,0.0044
3173.00,0.0044
3172.00,0.0043
3171.00,0.0043
3170.00,0.0043
3169.00,0.0043
3168.00,0.0043
3167.00,0.0043
3166.00,0.0043
3165.00,0.0043
3164.00,0.0043
3163.00,0.0042
3162.00,0.0042
3161.00,0.0042
3160.00,0.0042
3159.00,0.0042
3158.00,0.0041
3157.00,0.0041
3156.00,0.0041
3155.00,0.0041
3154.00,0.0041
3153.00,0.0041
3152.00,0.0041
3151.00,0.0041
3150.00,0.0041
3149.00,0.0041
3148.00,0.0041
3147.00,0.0041
3146.00,0.0041
3145.00,0.0041
3144.00,0.0040
3143.00,0.0040
3142.00,0.0040
3141.00,0.0040
3140.00,0.0040
3139.00,0.0040
3138.00,0.0040
3137.00,0.0040
3136.00,0.0040
3135.00,0.0040
3134.00,0.0040
3133.00,0.0040
3132.00,0.0040
3131.00,0.0040
3130.00,0.0040
3129.00,0.0040
3128.00,0.0039
3127.00,0.0039
3126.00,0.0039
3125.00,0.0039
3124.00,0.0039
3123.00,0.0039
3122.00,0.0039
3121.00,0.0039
3120.00,0.0039
3119.00,0.0039
3118.00,0.0039
3117.00,0.0039
3116.00,0.0039
3115.00,0.0039
3114.00,0.0039
3113.00,0.0039
3112.00,0.0039
3111.00,0.0038
3110.00,0.0038
3109.00,0.0038
3108.00,0.0038
3107.00,0.0038
3106.00,0.0037
3105.00,0.0037
3104.00,0.0037
3103.00,0.0037
3102.00,0.0037
3101.00,0.0037
3100.00,0.0037
3099.00,0.0037
3098.00,0.0037
3097.00,0.0037
3096.00,0.0037
3095.00,0.0037
3094.00,0.0037
3093.00,0.0037
3092.00,0.0037
3091.00,0.0037
3090.00,0.0037
3089.00,0.0037
3088.00,0.0037
3087.00,0.0037
3086.00,0.0037
3085.00,0.0037
3084.00,0.0037
3083.00,0.0037
3082.00,0.0037
3081.00,0.0037
3080.00,0.0037
3079.00,0.0037
3078.00,0.0037
3077.00,0.0037
3076.00,0.0037
3075.00,0.0037
3074.00,0.0037
3073.00,0.0037
3072.00,0.0037
3071.00,0.0037
3070.00,0.0037
3069.00,0.0037
3068.00,0.0036
3067.00,0.0036
3066.00,0.0036
3065.00,0.0036
3064.00,0.0036
3063.00,0.0036
3062.00,0.0036
3061.00,0.0036
3060.00,0.0036
3059.00,0.0036
3058.00,0.0036
3057.00,0.0036
3056.00,0.0036
3055.00,0.0036
3054.00,0.0036
3053.00,0.0036
3052.00,0.0036
3051.00,0.0035
3050.00,0.0035
3049.00,0.0035
3048.00,0.0035
3047.00,0.0035
3046.00,0.0035
3045.00,0.0035
3044.00,0.0035
3043.00,0.0035
3042.00,0.0035
3041.00,0.0035
3040.00,0.0035
3039.00,0.0035
3038.00,0.0035
3037.00,0.0035
3036.00,0.0035
3035.00,0.0035
3034.00,0.0035
3033.00,0.0036
3032.00,0.0036
3031.00,0.0036
3030.00,0.0035
3029.00,0.0035
3028.00,0.0035
3027.00,0.0035
3026.00,0.0035
3025.00,0.0035
3024.00,0.0036
3023.00,0.0036
3022.00,0.0036
3021.00,0.0036
3020.00,0.0036
3019.00,0.0036
3018.00,0.0037
3017.00,0.0037
3016.00,0.0037
3015.00,0.0037
3014.00,0.0038
3013.00,0.0038
3012.00,0.0039
3011.00,0.0039
3010.00,0.0040
3009.00,0.0041
3008.00,0.0042
3007.00,0.0043
3006.00,0.0044
3005.00,0.0045
3004.00,0.0046
3003.00,0.0048
3002.00,0.0049
3001.00,0.0051
3000.00,0.0052
2999.00,0.0054
2998.00,0.0056
2997.00,0.0058
2996.00,0.0061
2995.00,0.0063
2994.00,0.0065
2993.00,0.0068
2992.00,0.0070
2991.00,0.0072
2990.00,0.0075
2989.00,0.0078
2988.00,0.0080
2987.00,0.0083
2986.00,0.0085
2985.00,0.0088
2984.00,0.0090
2983.00,0.0092
2982.00,0.0094
2981.00,0.0095
2980.00,0.0097
2979.00,0.0099
2978.00,0.0101
2977.00,0.0102
2976.00,0.0103
2975.00,0.0104
2974.00,0.0105
2973.00,0.0106
2972.00,0.0107
2971.00,0.0108
2970.00,0.0109
2969.00,0.0110
2968.00,0.0111
2967.00,0.0113
2966.00,0.0114
2965.00,0.0115
2964.00,0.0117
2963.00,0.0118
2962.00,0.0120
2961.00,0.0122
2960.00,0.0123
2959.00,0.0125
2958.00,0.0126
2957.00,0.0127
2956.00,0.0129
2955.00,0.0130
2954.00,0.0131
2953.00,0.0132
2952.00,0.0132
2951.00,0.0132
2950.00,0.0132
2949.00,0.0132
2948.00,0.0131
2947.00,0.0131
2946.00,0.0130
2945.00,0.0130
2944.00,0.0130
2943.00,0.0129
2942.00,0.0129
2941.00,0.0128
2940.00,0.0128
2939.00,0.0128
2938.00,0.0129
2937.00,0.0129
2936.00,0.0129
2935.00,0.0130
2934.00,0.0131
2933.00,0.0131
2932.00,0.0132
2931.00,0.0133
2930.00,0.0134
2929.00,0.0134
2928.00,0.0135
2927.00,0.0135
2926.00,0.0136
2925.00,0.0135
2924.00,0.0135
2923.00,0.0135
2922.00,0.0134
2921.00,0.0133
2920.00,0.0132
2919.00,0.0131
2918.00,0.0130
2917.00,0.0128
2916.00,0.0127
2915.00,0.0125
2914.00,0.0123
2913.00,0.0122
2912.00,0.0120
2911.00,0.0117
2910.00,0.0115
2909.00,0.0113
2908.00,0.0111
2907.00,0.0109
2906.00,0.0108
2905.00,0.0106
2904.00,0.0105
2903.00,0.0104
2902.00,0.0103
2901.00,0.0102
2900.00,0.0102
2899.00,0.0101
2898.00,0.0101
2897.00,0.0101
2896.00,0.0101
2895.00,0.0101
2894.00,0.0101
2893.00,0.0101
2892.00,0.0101
2891.00,0.0101
2890.00,0.0100
2889.00,0.0100
2888.00,0.0100
2887.00,0.0100
2886.00,0.0100
2885.00,0.0100
2884.00,0.0100
2883.00,0.0100
2882.00,0.0100
2881.00,0.0100
2880.00,0.0101
2879.00,0.0101
2878.00,0.0101
2877.00,0.0101
2876.00,0.0102
2875.00,0.0102
2874.00,0.0102
2873.00,0.0102
2872.00,0.0102
2871.00,0.0102
2870.00,0.0102
2869.00,0.0101
2868.00,0.0101
2867.00,0.0100
2866.00,0.0100
2865.00,0.0100
2864.00,0.0099
2863.00,0.0099
2862.00,0.0099
2861.00,0.0098
2860.00,0.0098
2859.00,0.0097
2858.00,0.0096
2857.00,0.0095
2856.00,0.0094
2855.00,0.0092
2854.00,0.0090
2853.00,0.0088
2852.00,0.0085
2851.00,0.0083
2850.00,0.0080
2849.00,0.0077
2848.00,0.0075
2847.00,0.0073
2846.00,0.0071
2845.00,0.0070
2844.00,0.0068
2843.00,0.0066
2842.00,0.0064
2841.00,0.0062
2840.00,0.0061
2839.00,0.0059
2838.00,0.0058
2837.00,0.0057
2836.00,0.0056
2835.00,0.0054
2834.00,0.0053
2833.00,0.0052
2832.00,0.0052
2831.00,0.0051
2830.00,0.0050
2829.00,0.0049
2828.00,0.0048
2827.00,0.0047
2826.00,0.0046
2825.00,0.0045
2824.00,0.0044
2823.00,0.0043
2822.00,0.0043
2821.00,0.0042
2820.00,0.0041
2819.00,0.0041
2818.00,0.0040
2817.00,0.0039
2816.00,0.0039
2815.00,0.0038
2814.00,0.0038
2813.00,0.0037
2812.00,0.0036
2811.00,0.0036
2810.00,0.0035
2809.00,0.0034
2808.00,0.0034
2807.00,0.0033
2806.00,0.0033
2805.00,0.0032
2804.00,0.0032
2803.00,0.0031
2802.00,0.0031
2801.00,0.0030
2800.00,0.0030
2799.00,0.0029
2798.00,0.0029
2797.00,0.0029
2796.00,0.0029
2795.00,0.0028
2794.00,0.0028
2793.00,0.0028
2792.00,0.0028
2791.00,0.0027
2790.00,0.0027
2789.00,0.0027
2788.00,0.0027
2787.00,0.0027
2786.00,0.0026
2785.00,0.0026
2784.00,0.0026
2783.00,0.0026
2782.00,0.0026
2781.00,0.0025
2780.00,0.0025
2779.00,0.0025
2778.00,0.0025
2777.00,0.0024
2776.00,0.0024
2775.00,0.0024
2774.00,0.0024
2773.00,0.0024
2772.00,0.0024
2771.00,0.0023
2770.00,0.0023
2769.00,0.0023
2768.00,0.0023
2767.00,0.0023
2766.00,0.0023
2765.00,0.0023
2764.00,0.0023
2763.00,0.0022
2762.00,0.0022
2761.00,0.0022
2760.00,0.0022
2759.00,0.0022
2758.00,0.0022
2757.00,0.0022
2756.00,0.0022
2755.00,0.0022
2754.00,0.0022
2753.00,0.0022
2752.00,0.0022
2751.00,0.0022
2750.00,0.0022
2749.00,0.0022
2748.00,0.0022
2747.00,0.0022
2746.00,0.0022
2745.00,0.0022
2744.00,0.0022
2743.00,0.0022
2742.00,0.0022
2741.00,0.0022
2740.00,0.0022
2739.00,0.0022
2738.00,0.0022
2737.00,0.0022
2736.00,0.0022
2735.00,0.0022
2734.00,0.0022
2733.00,0.0022
2732.00,0.0022
2731.00,0.0022
2730.00,0.0022
2729.00,0.0022
2728.00,0.0022
2727.00,0.0022
2726.00,0.0022
2725.00,0.0021
2724.00,0.0021
2723.00,0.0021
2722.00,0.0021
2721.00,0.0021
2720.00,0.0021
2719.00,0.0021
2718.00,0.0021
2717.00,0.0021
2716.00,0.0021
2715.00,0.0021
2714.00,0.0021
2713.00,0.0020
2712.00,0.0020
2711.00,0.0020
2710.00,0.0020
2709.00,0.0020
2708.00,0.0020
2707.00,0.0020
2706.00,0.0020
2705.00,0.0020
2704.00,0.0020
2703.00,0.0020
2702.00,0.0020
2701.00,0.0019
2700.00,0.0020
2699.00,0.0020
2698.00,0.0020
2697.00,0.0019
2696.00,0.0019
2695.00,0.0019
2694.00,0.0019
2693.00,0.0019
2692.00,0.0019
2691.00,0.0019
2690.00,0.0019
2689.00,0.0019
2688.00,0.0019
2687.00,0.0018
2686.00,0.0018
2685.00,0.0018
2684.00,0.0018
2683.00,0.0018
2682.00,0.0018
2681.00,0.0018
2680.00,0.0018
2679.00,0.0018
2678.00,0.0018
2677.00,0.0018
2676.00,0.0018
2675.00,0.0018
2674.00,0.0018
2673.00,0.0018
2672.00,0.0018
2671.00,0.0018
2670.00,0.0018
2669.00,0.0018
2668.00,0.0018
2667.00,0.0019
2666.00,0.0019
2665.00,0.0019
2664.00,0.0020
2663.00,0.0020
2662.00,0.0020
2661.00,0.0020
2660.00,0.0020
2659.00,0.0021
2658.00,0.0021
2657.00,0.0021
2656.00,0.0021
2655.00,0.0021
2654.00,0.0021
2653.00,0.0021
2652.00,0.0021
2651.00,0.0021
2650.00,0.0021
2649.00,0.0021
2648.00,0.0021
2647.00,0.0021
2646.00,0.0021
2645.00,0.0021
2644.00,0.0021
2643.00,0.0021
2642.00,0.0021
2641.00,0.0021
2640.00,0.0021
2639.00,0.0021
2638.00,0.0021
2637.00,0.0020
2636.00,0.0020
2635.00,0.0020
2634.00,0.0020
2633.00,0.0019
2632.00,0.0019
2631.00,0.0019
2630.00,0.0020
2629.00,0.0020
2628.00,0.0020
2627.00,0.0020
2626.00,0.0019
2625.00,0.0019
2624.00,0.0019
2623.00,0.0019
2622.00,0.0019
2621.00,0.0018
2620.00,0.0018
2619.00,0.0018
2618.00,0.0018
2617.00,0.0018
2616.00,0.0018
2615.00,0.0018
2614.00,0.0018
2613.00,0.0018
2612.00,0.0018
2611.00,0.0018
2610.00,0.0017
2609.00,0.0017
2608.00,0.0017
2607.00,0.0017
2606.00,0.0016
2605.00,0.0016
2604.00,0.0016
2603.00,0.0016
2602.00,0.0016
2601.00,0.0016
2600.00,0.0016
2599.00,0.0016
2598.00,0.0016
2597.00,0.0017
2596.00,0.0017
2595.00,0.0016
2594.00,0.0016
2593.00,0.0016
2592.00,0.0016
2591.00,0.0016
2590.00,0.0016
2589.00,0.0016
2588.00,0.0016
2587.00,0.0016
2586.00,0.0016
2585.00,0.0016
2584.00,0.0016
2583.00,0.0016
2582.00,0.0016
2581.00,0.0016
2580.00,0.0016
2579.00,0.0016
2578.00,0.0015
2577.00,0.0015
2576.00,0.0016
2575.00,0.0016
2574.00,0.0015
2573.00,0.0015
2572.00,0.0015
2571.00,0.0015
2570.00,0.0015
2569.00,0.0015
2568.00,0.0015
2567.00,0.0015
2566.00,0.0015
2565.00,0.0015
2564.00,0.0015
2563.00,0.0015
2562.00,0.0015
2561.00,0.0015
2560.00,0.0014
2559.00,0.0014
2558.00,0.0013
2557.00,0.0013
2556.00,0.0013
2555.00,0.0013
2554.00,0.0013
2553.00,0.0013
2552.00,0.0012
2551.00,0.0012
2550.00,0.0012
2549.00,0.0012
2548.00,0.0012
2547.00,0.0012
2546.00,0.0012
2545.00,0.0013
2544.00,0.0013
2543.00,0.0013
2542.00,0.0013
2541.00,0.0013
2540.00,0.0012
2539.00,0.0012
2538.00,0.0012
2537.00,0.0012
2536.00,0.0011
2535.00,0.0011
2534.00,0.0011
2533.00,0.0011
2532.00,0.0011
2531.00,0.0011
2530.00,0.0011
2529.00,0.0011
2528.00,0.0011
2527.00,0.0011
2526.00,0.0011
2525.00,0.0011
2524.00,0.0011
2523.00,0.0011
2522.00,0.0011
2521.00,0.0011
2520.00,0.0011
2519.00,0.0011
2518.00,0.0011
2517.00,0.0011
2516.00,0.0010
2515.00,0.0010
2514.00,0.0009
2513.00,0.0009
2512.00,0.0009
2511.00,0.0009
2510.00,0.0009
2509.00,0.0010
2508.00,0.0010
2507.00,0.0010
2506.00,0.0010
2505.00,0.0009
2504.00,0.0009
2503.00,0.0009
2502.00,0.0009
2501.00,0.0010
2500.00,0.0010
2499.00,0.0010
2498.00,0.0010
2497.00,0.0009
2496.00,0.0009
2495.00,0.0009
2494.00,0.0008
2493.00,0.0008
2492.00,0.0009
2491.00,0.0009
2490.00,0.0010
2489.00,0.0010
2488.00,0.0009
2487.00,0.0009
2486.00,0.0009
2485.00,0.0008
2484.00,0.0008
2483.00,0.0008
2482.00,0.0008
2481.00,0.0008
2480.00,0.0008
2479.00,0.0008
2478.00,0.0009
2477.00,0.0009
2476.00,0.0009
2475.00,0.0008
2474.00,0.0008
2473.00,0.0008
2472.00,0.0008
2471.00,0.0008
2470.00,0.0008
2469.00,0.0008
2468.00,0.0009
2467.00,0.0009
2466.00,0.0009
2465.00,0.0009
2464.00,0.0009
2463.00,0.0009
2462.00,0.0009
2461.00,0.0010
2460.00,0.0010
2459.00,0.0010
2458.00,0.0010
2457.00,0.0010
2456.00,0.0010
2455.00,0.0010
2454.00,0.0010
2453.00,0.0010
2452.00,0.0010
2451.00,0.0010
2450.00,0.0009
2449.00,0.0009
2448.00,0.0009
2447.00,0.0010
2446.00,0.0009
2445.00,0.0009
2444.00,0.0009
2443.00,0.0009
2442.00,0.0009
2441.00,0.0009
2440.00,0.0009
2439.00,0.0009
2438.00,0.0009
2437.00,0.0009
2436.00,0.0009
2435.00,0.0008
2434.00,0.0008
2433.00,0.0009
2432.00,0.0009
2431.00,0.0009
2430.00,0.0009
2429.00,0.0009
2428.00,0.0009
2427.00,0.0009
2426.00,0.0008
2425.00,0.0008
2424.00,0.0007
2423.00,0.0007
2422.00,0.0007
2421.00,0.0007
2420.00,0.0007
2419.00,0.0007
2418.00,0.0007
2417.00,0.0007
2416.00,0.0007
2415.00,0.0007
2414.00,0.0007
2413.00,0.0007
2412.00,0.0007
2411.00,0.0007
2410.00,0.0007
2409.00,0.0007
2408.00,0.0007
2407.00,0.0006
2406.00,0.0006
2405.00,0.0005
2404.00,0.0005
2403.00,0.0005
2402.00,0.0005
2401.00,0.0006
2400.00,0.0006
2399.00,0.0006
2398.00,0.0006
2397.00,0.0006
2396.00,0.0006
2395.00,0.0005
2394.00,0.0005
2393.00,0.0005
2392.00,0.0005
2391.00,0.0005
2390.00,0.0005
2389.00,0.0005
2388.00,0.0005
2387.00,0.0005
2386.00,0.0004
2385.00,0.0004
2384.00,0.0003
2383.00,0.0003
2382.00,0.0002
2381.00,0.0002
2380.00,0.0001
2379.00,0.0001
2378.00,0.0001
2377.00,0.0002
2376.00,0.0002
2375.00,0.0003
2374.00,0.0003
2373.00,0.0003
2372.00,0.0003
2371.00,0.0002
2370.00,0.0002
2369.00,0.0002
2368.00,0.0002
2367.00,0.0002
2366.00,0.0003
2365.00,0.0003
2364.00,0.0003
2363.00,0.0003
2362.00,0.0003
2361.00,0.0003
2360.00,0.0004
2359.00,0.0004
2358.00,0.0004
2357.00,0.0004
2356.00,0.0004
2355.00,0.0004
2354.00,0.0004
2353.00,0.0004
2352.00,0.0004
2351.00,0.0004
2350.00,0.0004
2349.00,0.0005
2348.00,0.0006
2347.00,0.0006
2346.00,0.0006
2345.00,0.0006
2344.00,0.0007
2343.00,0.0007
2342.00,0.0007
2341.00,0.0007
2340.00,0.0008
2339.00,0.0008
2338.00,0.0008
2337.00,0.0008
2336.00,0.0008
2335.00,0.0008
2334.00,0.0008
2333.00,0.0008
2332.00,0.0007
2331.00,0.0007
2330.00,0.0008
2329.00,0.0010
2328.00,0.0012
2327.00,0.0016
2326.00,0.0019
2325.00,0.0020
2324.00,0.0019
2323.00,0.0017
2322.00,0.0015
2321.00,0.0014
2320.00,0.0013
2319.00,0.0013
2318.00,0.0013
2317.00,0.0013
2316.00,0.0012
2315.00,0.0012
2314.00,0.0011
2313.00,0.0010
2312.00,0.0010
2311.00,0.0010
2310.00,0.0010
2309.00,0.0010
2308.00,0.0010
2307.00,0.0010
2306.00,0.0010
2305.00,0.0010
2304.00,0.0010
2303.00,0.0010
2302.00,0.0010
2301.00,0.0011
2300.00,0.0011
2299.00,0.0011
2298.00,0.0012
2297.00,0.0012
2296.00,0.0013
2295.00,0.0013
2294.00,0.0014
2293.00,0.0015
2292.00,0.0016
2291.00,0.0016
2290.00,0.0017
2289.00,0.0017
2288.00,0.0018
2287.00,0.0018
2286.00,0.0018
2285.00,0.0018
2284.00,0.0017
2283.00,0.0017
2282.00,0.0017
2281.00,0.0016
2280.00,0.0016
2279.00,0.0015
2278.00,0.0015
2277.00,0.0014
2276.00,0.0014
2275.00,0.0014
2274.00,0.0014
2273.00,0.0014
2272.00,0.0014
2271.00,0.0013
2270.00,0.0013
2269.00,0.0012
2268.00,0.0011
2267.00,0.0011
2266.00,0.0010
2265.00,0.0009
2264.00,0.0009
2263.00,0.0009
2262.00,0.0009
2261.00,0.0009
2260.00,0.0010
2259.00,0.0011
2258.00,0.0010
2257.00,0.0010
2256.00,0.0009
2255.00,0.0009
2254.00,0.0009
2253.00,0.0009
2252.00,0.0009
2251.00,0.0009
2250.00,0.0009
2249.00,0.0010
2248.00,0.0010
2247.00,0.0011
2246.00,0.0011
2245.00,0.0011
2244.00,0.0010
2243.00,0.0010
2242.00,0.0010
2241.00,0.0010
2240.00,0.0010
2239.00,0.0010
2238.00,0.0010
2237.00,0.0010
2236.00,0.0010
2235.00,0.0009
2234.00,0.0009
2233.00,0.0009
2232.00,0.0009
2231.00,0.0009
2230.00,0.0009
2229.00,0.0010
2228.00,0.0010
2227.00,0.0010
2226.00,0.0010
2225.00,0.0010
2224.00,0.0010
2223.00,0.0010
2222.00,0.0010
2221.00,0.0009
2220.00,0.0009
2219.00,0.0009
2218.00,0.0009
2217.00,0.0009
2216.00,0.0009
2215.00,0.0008
2214.00,0.0008
2213.00,0.0008
2212.00,0.0008
2211.00,0.0009
2210.00,0.0009
2209.00,0.0009
2208.00,0.0009
2207.00,0.0009
2206.00,0.0009
2205.00,0.0010
2204.00,0.0010
2203.00,0.0011
2202.00,0.0011
2201.00,0.0012
2200.00,0.0012
2199.00,0.0013
2198.00,0.0013
2197.00,0.0013
2196.00,0.0012
2195.00,0.0011
2194.00,0.0009
2193.00,0.0008
2192.00,0.0008
2191.00,0.0009
2190.00,0.0010
2189.00,0.0010
2188.00,0.0010
2187.00,0.0010
2186.00,0.0010
2185.00,0.0009
2184.00,0.0008
2183.00,0.0007
2182.00,0.0007
2181.00,0.0007
2180.00,0.0008
2179.00,0.0008
2178.00,0.0006
2177.00,0.0004
2176.00,0.0002
2175.00,0.0001
2174.00,0.0002
2173.00,0.0004
2172.00,0.0007
2171.00,0.0010
2170.00,0.0012
2169.00,0.0014
2168.00,0.0016
2167.00,0.0017
2166.00,0.0018
2165.00,0.0019
2164.00,0.0021
2163.00,0.0022
2162.00,0.0018
2161.00,0.0009
2160.00,-0.0003
2159.00,-0.0014
2158.00,-0.0019
2157.00,-0.0019
2156.00,-0.0016
2155.00,-0.0014
2154.00,-0.0012
2153.00,-0.0010
2152.00,-0.0008
2151.00,-0.0006
2150.00,-0.0006
2149.00,-0.0007
2148.00,-0.0007
2147.00,-0.0007
2146.00,-0.0007
2145.00,-0.0007
2144.00,-0.0006
2143.00,-0.0006
2142.00,-0.0006
2141.00,-0.0006
2140.00,-0.0006
2139.00,-0.0007
2138.00,-0.0009
2137.00,-0.0011
2136.00,-0.0012
2135.00,-0.0012
2134.00,-0.0012
2133.00,-0.0011
2132.00,-0.0009
2131.00,-0.0008
2130.00,-0.0007
2129.00,-0.0006
2128.00,-0.0005
2127.00,-0.0004
2126.00,-0.0003
2125.00,-0.0002
2124.00,-0.0001
2123.00,-0.0001
2122.00,-0.0001
2121.00,0.0000
2120.00,0.0002
2119.00,0.0004
2118.00,0.0005
2117.00,0.0007
2116.00,0.0008
2115.00,0.0008
2114.00,0.0008
2113.00,0.0007
2112.00,0.0007
2111.00,0.0006
2110.00,0.0006
2109.00,0.0007
2108.00,0.0007
2107.00,0.0007
2106.00,0.0007
2105.00,0.0008
2104.00,0.0008
2103.00,0.0008
2102.00,0.0008
2101.00,0.0007
2100.00,0.0007
2099.00,0.0006
2098.00,0.0005
2097.00,0.0004
2096.00,0.0003
2095.00,0.0002
2094.00,0.0002
2093.00,0.0002
2092.00,0.0003
2091.00,0.0004
2090.00,0.0005
2089.00,0.0006
2088.00,0.0006
2087.00,0.0007
2086.00,0.0007
2085.00,0.0007
2084.00,0.0008
2083.00,0.0008
2082.00,0.0009
2081.00,0.0009
2080.00,0.0009
2079.00,0.0010
2078.00,0.0010
2077.00,0.0010
2076.00,0.0010
2075.00,0.0010
2074.00,0.0010
2073.00,0.0010
2072.00,0.0009
2071.00,0.0009
2070.00,0.0008
2069.00,0.0007
2068.00,0.0007
2067.00,0.0007
2066.00,0.0006
2065.00,0.0006
2064.00,0.0006
2063.00,0.0006
2062.00,0.0006
2061.00,0.0006
2060.00,0.0007
2059.00,0.0008
2058.00,0.0008
2057.00,0.0008
2056.00,0.0008
2055.00,0.0008
2054.00,0.0010
2053.00,0.0013
2052.00,0.0017
2051.00,0.0018
2050.00,0.0016
2049.00,0.0013
2048.00,0.0011
2047.00,0.0010
2046.00,0.0010
2045.00,0.0009
2044.00,0.0009
2043.00,0.0009
2042.00,0.0009
2041.00,0.0010
2040.00,0.0010
2039.00,0.0011
2038.00,0.0010
2037.00,0.0010
2036.00,0.0009
2035.00,0.0008
2034.00,0.0006
2033.00,0.0005
2032.00,0.0004
2031.00,0.0004
2030.00,0.0002
2029.00,0.0000
2028.00,-0.0000
2027.00,0.0001
2026.00,0.0002
2025.00,0.0004
2024.00,0.0005
2023.00,0.0006
2022.00,0.0004
2021.00,0.0003
2020.00,0.0001
2019.00,-0.0000
2018.00,-0.0001
2017.00,-0.0001
2016.00,0.0001
2015.00,0.0003
2014.00,0.0003
2013.00,0.0002
2012.00,0.0001
2011.00,0.0001
2010.00,0.0000
2009.00,-0.0000
2008.00,-0.0001
2007.00,-0.0003
2006.00,-0.0004
2005.00,-0.0004
2004.00,-0.0004
2003.00,-0.0003
2002.00,-0.0002
2001.00,-0.0001
2000.00,0.0001
1999.00,0.0002
1998.00,0.0003
1997.00,0.0004
1996.00,0.0005
1995.00,0.0006
1994.00,0.0007
1993.00,0.0008
1992.00,0.0007
1991.00,0.0007
1990.00,0.0007
1989.00,0.0007
1988.00,0.0007
1987.00,0.0008
1986.00,0.0008
1985.00,0.0009
1984.00,0.0011
1983.00,0.0014
1982.00,0.0016
1981.00,0.0016
1980.00,0.0014
1979.00,0.0010
1978.00,0.0005
1977.00,0.0001
1976.00,-0.0002
1975.00,-0.0004
1974.00,-0.0005
1973.00,-0.0004
1972.00,-0.0003
1971.00,-0.0001
1970.00,-0.0000
1969.00,0.0000
1968.00,0.0000
1967.00,-0.0001
1966.00,-0.0003
1965.00,-0.0005
1964.00,-0.0006
1963.00,-0.0006
1962.00,-0.0006
1961.00,-0.0006
1960.00,-0.0006
1959.00,-0.0006
1958.00,-0.0005
1957.00,-0.0004
1956.00,-0.0004
1955.00,-0.0004
1954.00,-0.0005
1953.00,-0.0005
1952.00,-0.0004
1951.00,-0.0004
1950.00,-0.0003
1949.00,-0.0003
1948.00,-0.0002
1947.00,-0.0002
1946.00,-0.0003
1945.00,-0.0004
1944.00,-0.0004
1943.00,-0.0003
1942.00,-0.0003
1941.00,-0.0002
1940.00,-0.0002
1939.00,-0.0002
1938.00,-0.0003
1937.00,-0.0003
1936.00,-0.0003
1935.00,-0.0002
1934.00,-0.0002
1933.00,-0.0001
1932.00,-0.0001
1931.00,-0.0000
1930.00,-0.0000
1929.00,-0.0000
1928.00,-0.0001
1927.00,-0.0001
1926.00,-0.0001
1925.00,0.0000
1924.00,0.0001
1923.00,0.0002
1922.00,0.0003
1921.00,0.0003
1920.00,0.0003
1919.00,0.0003
1918.00,0.0003
1917.00,0.0003
1916.00,0.0003
1915.00,0.0002
1914.00,0.0002
1913.00,0.0002
1912.00,0.0002
1911.00,0.0003
1910.00,0.0003
1909.00,0.0002
1908.00,0.0002
1907.00,0.0002
1906.00,0.0002
1905.00,0.0002
1904.00,0.0002
1903.00,0.0003
1902.00,0.0003
1901.00,0.0003
1900.00,0.0003
1899.00,0.0003
1898.00,0.0003
1897.00,0.0002
1896.00,0.0002
1895.00,0.0002
1894.00,0.0003
1893.00,0.0003
1892.00,0.0003
1891.00,0.0002
1890.00,0.0002
1889.00,0.0002
1888.00,0.0002
1887.00,0.0002
1886.00,0.0002
1885.00,0.0002
1884.00,0.0002
1883.00,0.0003
1882.00,0.0002
1881.00,0.0002
1880.00,0.0003
1879.00,0.0003
1878.00,0.0003
1877.00,0.0003
1876.00,0.0003
1875.00,0.0003
1874.00,0.0003
1873.00,0.0004
1872.00,0.0005
1871.00,0.0005
1870.00,0.0005
1869.00,0.0004
1868.00,0.0004
1867.00,0.0004
1866.00,0.0004
1865.00,0.0003
1864.00,0.0004
1863.00,0.0004
1862.00,0.0004
1861.00,0.0004
1860.00,0.0003
1859.00,0.0003
1858.00,0.0003
1857.00,0.0003
1856.00,0.0003
1855.00,0.0004
1854.00,0.0004
1853.00,0.0004
1852.00,0.0005
1851.00,0.0004
1850.00,0.0004
1849.00,0.0004
1848.00,0.0004
1847.00,0.0004
1846.00,0.0005
1845.00,0.0005
1844.00,0.0005
1843.00,0.0005
1842.00,0.0004
1841.00,0.0004
1840.00,0.0004
1839.00,0.0005
1838.00,0.0005
1837.00,0.0005
1836.00,0.0005
1835.00,0.0005
1834.00,0.0005
1833.00,0.0006
1832.00,0.0006
1831.00,0.0006
1830.00,0.0005
1829.00,0.0005
1828.00,0.0006
1827.00,0.0006
1826.00,0.0006
1825.00,0.0006
1824.00,0.0006
1823.00,0.0006
1822.00,0.0006
1821.00,0.0005
1820.00,0.0005
1819.00,0.0004
1818.00,0.0003
1817.00,0.0002
1816.00,0.0003
1815.00,0.0003
1814.00,0.0004
1813.00,0.0004
1812.00,0.0005
1811.00,0.0005
1810.00,0.0006
1809.00,0.0006
1808.00,0.0006
1807.00,0.0006
1806.00,0.0006
1805.00,0.0006
1804.00,0.0006
1803.00,0.0006
1802.00,0.0006
1801.00,0.0007
1800.00,0.0007
1799.00,0.0007
1798.00,0.0007
1797.00,0.0008
1796.00,0.0008
1795.00,0.0009
1794.00,0.0008
1793.00,0.0008
1792.00,0.0008
1791.00,0.0008
1790.00,0.0008
1789.00,0.0008
1788.00,0.0008
1787.00,0.0008
1786.00,0.0009
1785.00,0.0009
1784.00,0.0009
1783.00,0.0010
1782.00,0.0010
1781.00,0.0010
1780.00,0.0010
1779.00,0.0010
1778.00,0.0010
1777.00,0.0010
1776.00,0.0011
1775.00,0.0011
1774.00,0.0011
1773.00,0.0011
1772.00,0.0012
1771.00,0.0012
1770.00,0.0012
1769.00,0.0012
1768.00,0.0012
1767.00,0.0012
1766.00,0.0012
1765.00,0.0012
1764.00,0.0013
1763.00,0.0013
1762.00,0.0013
1761.00,0.0013
1760.00,0.0013
1759.00,0.0013
1758.00,0.0014
1757.00,0.0014
1756.00,0.0014
1755.00,0.0014
1754.00,0.0014
1753.00,0.0015
1752.00,0.0015
1751.00,0.0016
1750.00,0.0016
1749.00,0.0016
1748.00,0.0016
1747.00,0.0017
1746.00,0.0016
1745.00,0.0017
1744.00,0.0017
1743.00,0.0018
1742.00,0.0018
1741.00,0.0018
1740.00,0.0018
1739.00,0.0019
1738.00,0.0020
1737.00,0.0020
1736.00,0.0021
1735.00,0.0021
1734.00,0.0021
1733.00,0.0021
1732.00,0.0022
1731.00,0.0023
1730.00,0.0023
1729.00,0.0024
1728.00,0.0025
1727.00,0.0026
1726.00,0.0027
1725.00,0.0028
1724.00,0.0029
1723.00,0.0031
1722.00,0.0032
1721.00,0.0034
1720.00,0.0036
1719.00,0.0038
1718.00,0.0040
1717.00,0.0042
1716.00,0.0045
1715.00,0.0047
1714.00,0.0049
1713.00,0.0052
1712.00,0.0055
1711.00,0.0059
1710.00,0.0063
1709.00,0.0068
1708.00,0.0074
1707.00,0.0082
1706.00,0.0090
1705.00,0.0100
1704.00,0.0110
1703.00,0.0119
1702.00,0.0128
1701.00,0.0144
1700.00,0.0165
1699.00,0.0184
1698.00,0.0198
1697.00,0.0213
1696.00,0.0234
1695.00,0.0259
1694.00,0.0280
1693.00,0.0297
1692.00,0.0315
1691.00,0.0334
1690.00,0.0355
1689.00,0.0376
1688.00,0.0395
1687.00,0.0411
1686.00,0.0426
1685.00,0.0445
1684.00,0.0471
1683.00,0.0495
1682.00,0.0510
1681.00,0.0521
1680.00,0.0532
1679.00,0.0542
1678.00,0.0550
1677.00,0.0557
1676.00,0.0565
1675.00,0.0575
1674.00,0.0583
1673.00,0.0589
1672.00,0.0592
1671.00,0.0595
1670.00,0.0598
1669.00,0.0602
1668.00,0.0606
1667.00,0.0609
1666.00,0.0610
1665.00,0.0611
1664.00,0.0611
1663.00,0.0613
1662.00,0.0616
1661.00,0.0618
1660.00,0.0619
1659.00,0.0619
1658.00,0.0619
1657.00,0.0618
1656.00,0.0615
1655.00,0.0609
1654.00,0.0601
1653.00,0.0594
1652.00,0.0590
1651.00,0.0586
1650.00,0.0579
1649.00,0.0568
1648.00,0.0552
1647.00,0.0534
1646.00,0.0516
1645.00,0.0500
1644.00,0.0484
1643.00,0.0467
1642.00,0.0450
1641.00,0.0432
1640.00,0.0414
1639.00,0.0398
1638.00,0.0382
1637.00,0.0364
1636.00,0.0344
1635.00,0.0325
1634.00,0.0310
1633.00,0.0298
1632.00,0.0286
1631.00,0.0275
1630.00,0.0265
1629.00,0.0256
1628.00,0.0249
1627.00,0.0244
1626.00,0.0241
1625.00,0.0239
1624.00,0.0240
1623.00,0.0242
1622.00,0.0245
1621.00,0.0247
1620.00,0.0248
1619.00,0.0247
1618.00,0.0244
1617.00,0.0239
1616.00,0.0233
1615.00,0.0227
1614.00,0.0222
1613.00,0.0216
1612.00,0.0211
1611.00,0.0206
1610.00,0.0201
1609.00,0.0195
1608.00,0.0188
1607.00,0.0179
1606.00,0.0170
1605.00,0.0160
1604.00,0.0150
1603.00,0.0140
1602.00,0.0131
1601.00,0.0124
1600.00,0.0117
1599.00,0.0112
1598.00,0.0108
1597.00,0.0105
1596.00,0.0103
1595.00,0.0103
1594.00,0.0105
1593.00,0.0108
1592.00,0.0113
1591.00,0.0119
1590.00,0.0126
1589.00,0.0134
1588.00,0.0140
1587.00,0.0145
1586.00,0.0148
1585.00,0.0149
1584.00,0.0147
1583.00,0.0142
1582.00,0.0136
1581.00,0.0129
1580.00,0.0123
1579.00,0.0116
1578.00,0.0110
1577.00,0.0103
1576.00,0.0097
1575.00,0.0093
1574.00,0.0090
1573.00,0.0088
1572.00,0.0086
1571.00,0.0083
1570.00,0.0081
1569.00,0.0078
1568.00,0.0075
1567.00,0.0073
1566.00,0.0071
1565.00,0.0069
1564.00,0.0068
1563.00,0.0067
1562.00,0.0067
1561.00,0.0066
1560.00,0.0065
1559.00,0.0064
1558.00,0.0062
1557.00,0.0060
1556.00,0.0058
1555.00,0.0057
1554.00,0.0056
1553.00,0.0055
1552.00,0.0055
1551.00,0.0054
1550.00,0.0054
1549.00,0.0053
1548.00,0.0053
1547.00,0.0052
1546.00,0.0053
1545.00,0.0053
1544.00,0.0053
1543.00,0.0053
1542.00,0.0053
1541.00,0.0053
1540.00,0.0052
1539.00,0.0051
1538.00,0.0050
1537.00,0.0050
1536.00,0.0050
1535.00,0.0050
1534.00,0.0050
1533.00,0.0050
1532.00,0.0049
1531.00,0.0049
1530.00,0.0050
1529.00,0.0050
1528.00,0.0051
1527.00,0.0052
1526.00,0.0053
1525.00,0.0054
1524.00,0.0055
1523.00,0.0056
1522.00,0.0058
1521.00,0.0059
1520.00,0.0060
1519.00,0.0061
1518.00,0.0062
1517.00,0.0063
1516.00,0.0065
1515.00,0.0065
1514.00,0.0066
1513.00,0.0067
1512.00,0.0068
1511.00,0.0070
1510.00,0.0072
1509.00,0.0074
1508.00,0.0077
1507.00,0.0080
1506.00,0.0085
1505.00,0.0088
1504.00,0.0092
1503.00,0.0097
1502.00,0.0104
1501.00,0.0112
1500.00,0.0121
1499.00,0.0130
1498.00,0.0141
1497.00,0.0150
1496.00,0.0158
1495.00,0.0162
1494.00,0.0165
1493.00,0.0165
1492.00,0.0163
1491.00,0.0158
1490.00,0.0152
1489.00,0.0145
1488.00,0.0136
1487.00,0.0127
1486.00,0.0118
1485.00,0.0111
1484.00,0.0104
1483.00,0.0098
1482.00,0.0093
1481.00,0.0090
1480.00,0.0088
1479.00,0.0087
1478.00,0.0087
1477.00,0.0089
1476.00,0.0092
1475.00,0.0096
1474.00,0.0101
1473.00,0.0110
1472.00,0.0120
1471.00,0.0132
1470.00,0.0144
1469.00,0.0158
1468.00,0.0172
1467.00,0.0188
1466.00,0.0207
1465.00,0.0228
1464.00,0.0247
1463.00,0.0263
1462.00,0.0274
1461.00,0.0281
1460.00,0.0285
1459.00,0.0285
1458.00,0.0278
1457.00,0.0267
1456.00,0.0253
1455.00,0.0240
1454.00,0.0229
1453.00,0.0219
1452.00,0.0212
1451.00,0.0207
1450.00,0.0206
1449.00,0.0208
1448.00,0.0213
1447.00,0.0221
1446.00,0.0230
1445.00,0.0240
1444.00,0.0251
1443.00,0.0263
1442.00,0.0276
1441.00,0.0289
1440.00,0.0301
1439.00,0.0312
1438.00,0.0323
1437.00,0.0337
1436.00,0.0350
1435.00,0.0361
1434.00,0.0367
1433.00,0.0373
1432.00,0.0377
1431.00,0.0382
1430.00,0.0387
1429.00,0.0394
1428.00,0.0402
1427.00,0.0411
1426.00,0.0421
1425.00,0.0434
1424.00,0.0447
1423.00,0.0457
1422.00,0.0463
1421.00,0.0463
1420.00,0.0457
1419.00,0.0443
1418.00,0.0424
1417.00,0.0402
1416.00,0.0379
1415.00,0.0354
1414.00,0.0329
1413.00,0.0307
1412.00,0.0287
1411.00,0.0269
1410.00,0.0255
1409.00,0.0244
1408.00,0.0236
1407.00,0.0230
1406.00,0.0225
1405.00,0.0223
1404.00,0.0220
1403.00,0.0218
1402.00,0.0215
1401.00,0.0211
1400.00,0.0205
1399.00,0.0197
1398.00,0.0188
1397.00,0.0179
1396.00,0.0170
1395.00,0.0160
1394.00,0.0151
1393.00,0.0145
1392.00,0.0140
1391.00,0.0136
1390.00,0.0134
1389.00,0.0134
1388.00,0.0135
1387.00,0.0137
1386.00,0.0140
1385.00,0.0144
1384.00,0.0149
1383.00,0.0154
1382.00,0.0159
1381.00,0.0165
1380.00,0.0170
1379.00,0.0174
1378.00,0.0178
1377.00,0.0181
1376.00,0.0182
1375.00,0.0183
1374.00,0.0183
1373.00,0.0182
1372.00,0.0181
1371.00,0.0179
1370.00,0.0176
1369.00,0.0174
1368.00,0.0171
1367.00,0.0168
1366.00,0.0166
1365.00,0.0164
1364.00,0.0163
1363.00,0.0162
1362.00,0.0161
1361.00,0.0158
1360.00,0.0155
1359.00,0.0149
1358.00,0.0143
1357.00,0.0136
1356.00,0.0128
1355.00,0.0122
1354.00,0.0116
1353.00,0.0111
1352.00,0.0108
1351.00,0.0105
1350.00,0.0103
1349.00,0.0102
1348.00,0.0100
1347.00,0.0099
1346.00,0.0099
1345.00,0.0098
1344.00,0.0098
1343.00,0.0098
1342.00,0.0099
1341.00,0.0100
1340.00,0.0101
1339.00,0.0102
1338.00,0.0103
1337.00,0.0105
1336.00,0.0106
1335.00,0.0108
1334.00,0.0111
1333.00,0.0113
1332.00,0.0116
1331.00,0.0120
1330.00,0.0123
1329.00,0.0127
1328.00,0.0132
1327.00,0.0136
1326.00,0.0141
1325.00,0.0147
1324.00,0.0153
1323.00,0.0159
1322.00,0.0165
1321.00,0.0170
1320.00,0.0175
1319.00,0.0178
1318.00,0.0181
1317.00,0.0182
1316.00,0.0181
1315.00,0.0179
1314.00,0.0177
1313.00,0.0173
1312.00,0.0169
1311.00,0.0166
1310.00,0.0164
1309.00,0.0162
1308.00,0.0161
1307.00,0.0162
1306.00,0.0163
1305.00,0.0166
1304.00,0.0170
1303.00,0.0175
1302.00,0.0183
1301.00,0.0192
1300.00,0.0204
1299.00,0.0219
1298.00,0.0237
1297.00,0.0258
1296.00,0.0281
1295.00,0.0307
1294.00,0.0334
1293.00,0.0362
1292.00,0.0389
1291.00,0.0416
1290.00,0.0440
1289.00,0.0462
1288.00,0.0480
1287.00,0.0494
1286.00,0.0502
1285.00,0.0506
1284.00,0.0505
1283.00,0.0500
1282.00,0.0491
1281.00,0.0481
1280.00,0.0470
1279.00,0.0461
1278.00,0.0455
1277.00,0.0452
1276.00,0.0451
1275.00,0.0453
1274.00,0.0456
1273.00,0.0459
1272.00,0.0461
1271.00,0.0461
1270.00,0.0458
1269.00,0.0452
1268.00,0.0442
1267.00,0.0429
1266.00,0.0414
1265.00,0.0398
1264.00,0.0380
1263.00,0.0362
1262.00,0.0344
1261.00,0.0327
1260.00,0.0310
1259.00,0.0294
1258.00,0.0279
1257.00,0.0266
1256.00,0.0254
1255.00,0.0242
1254.00,0.0233
1253.00,0.0225
1252.00,0.0217
1251.00,0.0211
1250.00,0.0207
1249.00,0.0204
1248.00,0.0202
1247.00,0.0202
1246.00,0.0204
1245.00,0.0207
1244.00,0.0210
1243.00,0.0213
1242.00,0.0217
1241.00,0.0221
1240.00,0.0224
1239.00,0.0227
1238.00,0.0230
1237.00,0.0233
1236.00,0.0236
1235.00,0.0239
1234.00,0.0242
1233.00,0.0244
1232.00,0.0245
1231.00,0.0245
1230.00,0.0246
1229.00,0.0245
1228.00,0.0245
1227.00,0.0244
1226.00,0.0243
1225.00,0.0241
1224.00,0.0240
1223.00,0.0239
1222.00,0.0238
1221.00,0.0237
1220.00,0.0236
1219.00,0.0234
1218.00,0.0231
1217.00,0.0228
1216.00,0.0223
1215.00,0.0218
1214.00,0.0211
1213.00,0.0204
1212.00,0.0196
1211.00,0.0189
1210.00,0.0182
1209.00,0.0176
1208.00,0.0171
1207.00,0.0166
1206.00,0.0163
1205.00,0.0161
1204.00,0.0159
1203.00,0.0159
1202.00,0.0160
1201.00,0.0161
1200.00,0.0164
1199.00,0.0167
1198.00,0.0170
1197.00,0.0174
1196.00,0.0177
1195.00,0.0179
1194.00,0.0180
1193.00,0.0179
1192.00,0.0176
1191.00,0.0172
1190.00,0.0166
1189.00,0.0160
1188.00,0.0154
1187.00,0.0149
1186.00,0.0144
1185.00,0.0140
1184.00,0.0136
1183.00,0.0134
1182.00,0.0132
1181.00,0.0131
1180.00,0.0130
1179.00,0.0130
1178.00,0.0131
1177.00,0.0132
1176.00,0.0134
1175.00,0.0136
1174.00,0.0138
1173.00,0.0141
1172.00,0.0143
1171.00,0.0145
1170.00,0.0148
1169.00,0.0150
1168.00,0.0150
1167.00,0.0151
1166.00,0.0151
1165.00,0.0152
1164.00,0.0152
1163.00,0.0153
1162.00,0.0156
1161.00,0.0159
1160.00,0.0162
1159.00,0.0165
1158.00,0.0167
1157.00,0.0168
1156.00,0.0167
1155.00,0.0164
1154.00,0.0160
1153.00,0.0154
1152.00,0.0147
1151.00,0.0140
1150.00,0.0132
1149.00,0.0126
1148.00,0.0119
1147.00,0.0113
1146.00,0.0108
1145.00,0.0103
1144.00,0.0098
1143.00,0.0094
1142.00,0.0092
1141.00,0.0090
1140.00,0.0089
1139.00,0.0089
1138.00,0.0091
1137.00,0.0093
1136.00,0.0098
1135.00,0.0104
1134.00,0.0112
1133.00,0.0122
1132.00,0.0131
1131.00,0.0138
1130.00,0.0143
1129.00,0.0143
1128.00,0.0140
1127.00,0.0134
1126.00,0.0126
1125.00,0.0118
1124.00,0.0110
1123.00,0.0103
1122.00,0.0099
1121.00,0.0095
1120.00,0.0092
1119.00,0.0090
1118.00,0.0089
1117.00,0.0088
1116.00,0.0088
1115.00,0.0088
1114.00,0.0089
1113.00,0.0090
1112.00,0.0090
1111.00,0.0091
1110.00,0.0093
1109.00,0.0094
1108.00,0.0095
1107.00,0.0097
1106.00,0.0100
1105.00,0.0103
1104.00,0.0106
1103.00,0.0109
1102.00,0.0112
1101.00,0.0114
1100.00,0.0114
1099.00,0.0114
1098.00,0.0113
1097.00,0.0111
1096.00,0.0109
1095.00,0.0106
1094.00,0.0103
1093.00,0.0100
1092.00,0.0097
1091.00,0.0095
1090.00,0.0093
1089.00,0.0092
1088.00,0.0091
1087.00,0.0090
1086.00,0.0090
1085.00,0.0090
1084.00,0.0090
1083.00,0.0091
1082.00,0.0092
1081.00,0.0094
1080.00,0.0096
1079.00,0.0098
1078.00,0.0101
1077.00,0.0104
1076.00,0.0107
1075.00,0.0110
1074.00,0.0113
1073.00,0.0116
1072.00,0.0118
1071.00,0.0121
1070.00,0.0126
1069.00,0.0132
1068.00,0.0138
1067.00,0.0146
1066.00,0.0155
1065.00,0.0165
1064.00,0.0175
1063.00,0.0186
1062.00,0.0198
1061.00,0.0208
1060.00,0.0216
1059.00,0.0222
1058.00,0.0225
1057.00,0.0224
1056.00,0.0219
1055.00,0.0211
1054.00,0.0200
1053.00,0.0189
1052.00,0.0177
1051.00,0.0166
1050.00,0.0158
1049.00,0.0151
1048.00,0.0147
1047.00,0.0145
1046.00,0.0146
1045.00,0.0147
1044.00,0.0150
1043.00,0.0153
1042.00,0.0157
1041.00,0.0160
1040.00,0.0163
1039.00,0.0166
1038.00,0.0169
1037.00,0.0172
1036.00,0.0173
1035.00,0.0175
1034.00,0.0176
1033.00,0.0176
1032.00,0.0176
1031.00,0.0175
1030.00,0.0173
1029.00,0.0170
1028.00,0.0166
1027.00,0.0161
1026.00,0.0156
1025.00,0.0151
1024.00,0.0147
1023.00,0.0144
1022.00,0.0143
1021.00,0.0142
1020.00,0.0142
1019.00,0.0142
1018.00,0.0141
1017.00,0.0140
1016.00,0.0137
1015.00,0.0133
1014.00,0.0129
1013.00,0.0124
1012.00,0.0119
1011.00,0.0114
1010.00,0.0111
1009.00,0.0109
1008.00,0.0109
1007.00,0.0110
1006.00,0.0114
1005.00,0.0118
1004.00,0.0122
1003.00,0.0124
1002.00,0.0126
1001.00,0.0125
1000.00,0.0122
999.00,0.0119
998.00,0.0115
997.00,0.0111
996.00,0.0107
995.00,0.0103
994.00,0.0100
993.00,0.0097
992.00,0.0094
991.00,0.0091
990.00,0.0089
989.00,0.0087
988.00,0.0085
987.00,0.0083
986.00,0.0081
985.00,0.0079
984.00,0.0077
983.00,0.0075
982.00,0.0075
981.00,0.0075
980.00,0.0074
979.00,0.0074
978.00,0.0074
977.00,0.0074
976.00,0.0073
975.00,0.0072
974.00,0.0072
973.00,0.0072
972.00,0.0070
971.00,0.0069
970.00,0.0068
969.00,0.0067
968.00,0.0066
967.00,0.0064
966.00,0.0064
965.00,0.0063
964.00,0.0062
963.00,0.0061
962.00,0.0060
961.00,0.0060
960.00,0.0059
959.00,0.0058
958.00,0.0058
957.00,0.0058
956.00,0.0057
955.00,0.0056
954.00,0.0056
953.00,0.0056
952.00,0.0055
951.00,0.0055
950.00,0.0055
949.00,0.0055
948.00,0.0055
947.00,0.0056
946.00,0.0057
945.00,0.0058
944.00,0.0059
943.00,0.0061
942.00,0.0063
941.00,0.0066
940.00,0.0069
939.00,0.0073
938.00,0.0077
937.00,0.0082
936.00,0.0086
935.00,0.0091
934.00,0.0095
933.00,0.0098
932.00,0.0098
931.00,0.0097
930.00,0.0095
929.00,0.0092
928.00,0.0090
927.00,0.0089
926.00,0.0088
925.00,0.0088
924.00,0.0086
923.00,0.0085
922.00,0.0083
921.00,0.0082
920.00,0.0080
919.00,0.0078
918.00,0.0077
917.00,0.0075
916.00,0.0073
915.00,0.0071
914.00,0.0070
913.00,0.0069
912.00,0.0067
911.00,0.0067
910.00,0.0068
909.00,0.0069
908.00,0.0070
907.00,0.0071
906.00,0.0073
905.00,0.0076
904.00,0.0078
903.00,0.0081
902.00,0.0085
901.00,0.0089
900.00,0.0092
899.00,0.0095
898.00,0.0097
897.00,0.0098
896.00,0.0098
895.00,0.0097
894.00,0.0096
893.00,0.0094
892.00,0.0092
891.00,0.0089
890.00,0.0087
889.00,0.0086
888.00,0.0084
887.00,0.0082
886.00,0.0082
885.00,0.0083
884.00,0.0083
883.00,0.0083
882.00,0.0085
881.00,0.0087
880.00,0.0089
879.00,0.0091
878.00,0.0094
877.00,0.0097
876.00,0.0100
875.00,0.0103
874.00,0.0107
873.00,0.0110
872.00,0.0112
871.00,0.0113
870.00,0.0115
869.00,0.0116
868.00,0.0116
867.00,0.0116
866.00,0.0117
865.00,0.0117
864.00,0.0117
863.00,0.0118
862.00,0.0120
861.00,0.0121
860.00,0.0122
859.00,0.0124
858.00,0.0127
857.00,0.0130
856.00,0.0134
855.00,0.0137
854.00,0.0142
853.00,0.0146
852.00,0.0150
851.00,0.0154
850.00,0.0158
849.00,0.0162
848.00,0.0165
847.00,0.0167
846.00,0.0170
845.00,0.0171
844.00,0.0171
843.00,0.0171
842.00,0.0171
841.00,0.0171
840.00,0.0170
839.00,0.0168
838.00,0.0167
837.00,0.0166
836.00,0.0164
835.00,0.0162
834.00,0.0162
833.00,0.0161
832.00,0.0160
831.00,0.0158
830.00,0.0156
829.00,0.0155
828.00,0.0153
827.00,0.0150
826.00,0.0149
825.00,0.0147
824.00,0.0146
823.00,0.0144
822.00,0.0144
821.00,0.0143
820.00,0.0142
819.00,0.0141
818.00,0.0141
817.00,0.0141
816.00,0.0140
815.00,0.0138
814.00,0.0136
813.00,0.0134
812.00,0.0130
811.00,0.0125
810.00,0.0121
809.00,0.0115
808.00,0.0108
807.00,0.0102
806.00,0.0097
805.00,0.0092
804.00,0.0088
803.00,0.0084
802.00,0.0082
801.00,0.0080
800.00,0.0078
799.00,0.0077
798.00,0.0077
797.00,0.0077
796.00,0.0077
795.00,0.0077
794.00,0.0077
793.00,0.0078
792.00,0.0078
791.00,0.0078
790.00,0.0079
789.00,0.0079
788.00,0.0080
787.00,0.0080
786.00,0.0081
785.00,0.0081
784.00,0.0081
783.00,0.0082
782.00,0.0083
781.00,0.0085
780.00,0.0086
779.00,0.0087
778.00,0.0088
777.00,0.0089
776.00,0.0088
775.00,0.0088
774.00,0.0088
773.00,0.0088
772.00,0.0087
771.00,0.0087
770.00,0.0088
769.00,0.0089
768.00,0.0090
767.00,0.0092
766.00,0.0094
765.00,0.0096
764.00,0.0098
763.00,0.0100
762.00,0.0102
761.00,0.0105
760.00,0.0107
759.00,0.0109
758.00,0.0113
757.00,0.0116
756.00,0.0119
755.00,0.0121
754.00,0.0125
753.00,0.0127
752.00,0.0129
751.00,0.0131
750.00,0.0134
749.00,0.0137
748.00,0.0139
747.00,0.0142
746.00,0.0145
745.00,0.0148
744.00,0.0151
743.00,0.0154
742.00,0.0159
741.00,0.0164
740.00,0.0169
739.00,0.0173
738.00,0.0178
737.00,0.0181
736.00,0.0182
735.00,0.0181
734.00,0.0180
733.00,0.0177
732.00,0.0173
731.00,0.0169
730.00,0.0165
729.00,0.0161
728.00,0.0156
727.00,0.0151
726.00,0.0146
725.00,0.0142
724.00,0.0137
723.00,0.0133
722.00,0.0131
721.00,0.0128
720.00,0.0126
719.00,0.0123
718.00,0.0123
717.00,0.0122
716.00,0.0121
715.00,0.0120
714.00,0.0120
713.00,0.0120
712.00,0.0119
711.00,0.0118
710.00,0.0118
709.00,0.0117
708.00,0.0116
707.00,0.0116
706.00,0.0116
705.00,0.0117
704.00,0.0116
703.00,0.0116
702.00,0.0117
701.00,0.0118
700.00,0.0119
699.00,0.0120
698.00,0.0123
697.00,0.0125
696.00,0.0126
695.00,0.0128
694.00,0.0132
693.00,0.0136
692.00,0.0139
691.00,0.0142
690.00,0.0145
689.00,0.0147
688.00,0.0147
687.00,0.0148
686.00,0.0149
685.00,0.0149
684.00,0.0149
683.00,0.0148
682.00,0.0149
681.00,0.0151
680.00,0.0151
679.00,0.0152
678.00,0.0154
677.00,0.0156
676.00,0.0158
675.00,0.0160
674.00,0.0164
673.00,0.0167
672.00,0.0169
671.00,0.0171
670.00,0.0174
669.00,0.0179
668.00,0.0185
667.00,0.0191
666.00,0.0195
665.00,0.0198
664.00,0.0201
663.00,0.0206
662.00,0.0212
661.00,0.0218
660.00,0.0222
659.00,0.0227
658.00,0.0232
657.00,0.0238
656.00,0.0243
655.00,0.0249
654.00,0.0255
653.00,0.0261
652.00,0.0264
651.00,0.0267
650.00,0.0270
649.00,0.0272
648.00,0.0273
647.00,0.0272
646.00,0.0271
645.00,0.0269
644.00,0.0266
643.00,0.0262
642.00,0.0259
641.00,0.0255
640.00,0.0248
639.00,0.0242
638.00,0.0237
637.00,0.0233
636.00,0.0228
635.00,0.0224
634.00,0.0221
633.00,0.0218
632.00,0.0215
631.00,0.0212
630.00,0.0210
629.00,0.0208
628.00,0.0205
627.00,0.0202
626.00,0.0201
625.00,0.0201
624.00,0.0200
623.00,0.0199
622.00,0.0199
621.00,0.0199
620.00,0.0197
619.00,0.0195
618.00,0.0195
617.00,0.0194
616.00,0.0192
615.00,0.0191
614.00,0.0192
613.00,0.0192
612.00,0.0191
611.00,0.0190
610.00,0.0192
609.00,0.0193
608.00,0.0194
607.00,0.0195
606.00,0.0197
605.00,0.0199
604.00,0.0200
603.00,0.0201
602.00,0.0202
601.00,0.0203
600.00,0.0203
599.00,0.0203
598.00,0.0205
597.00,0.0207
596.00,0.0207
595.00,0.0208
594.00,0.0210
593.00,0.0210
592.00,0.0210
591.00,0.0212
590.00,0.0218
589.00,0.0224
588.00,0.0229
587.00,0.0234
586.00,0.0242
585.00,0.0251
584.00,0.0258
583.00,0.0265
582.00,0.0272
581.00,0.0277
580.00,0.0279
579.00,0.0281
578.00,0.0285
577.00,0.0289
576.00,0.0291
575.00,0.0292
574.00,0.0295
573.00,0.0296
572.00,0.0296
571.00,0.0296
570.00,0.0296
569.00,0.0295
568.00,0.0292
567.00,0.0288
566.00,0.0287
565.00,0.0285
564.00,0.0281
563.00,0.0277
562.00,0.0275
561.00,0.0272
560.00,0.0268
559.00,0.0263
558.00,0.0261
557.00,0.0258
556.00,0.0254
555.00,0.0251
554.00,0.0250
553.00,0.0248
552.00,0.0244
551.00,0.0239
550.00,0.0237
549.00,0.0235
548.00,0.0232
547.00,0.0229
546.00,0.0229
545.00,0.0228
544.00,0.0226
543.00,0.0223
542.00,0.0223
541.00,0.0224
540.00,0.0222
539.00,0.0219
538.00,0.0219
537.00,0.0220
536.00,0.0220
535.00,0.0222
534.00,0.0226
533.00,0.0230
532.00,0.0230
531.00,0.0229
530.00,0.0230
529.00,0.0229
528.00,0.0226
527.00,0.0224
526.00,0.0224
525.00,0.0224
524.00,0.0220
523.00,0.0217
522.00,0.0217
521.00,0.0218
520.00,0.0216
519.00,0.0214
518.00,0.0213
517.00,0.0213
516.00,0.0209
515.00,0.0208
514.00,0.0209
513.00,0.0212
512.00,0.0213
511.00,0.0214
510.00,0.0218
509.00,0.0220
508.00,0.0219
507.00,0.0217
506.00,0.0218
505.00,0.0219
504.00,0.0217
503.00,0.0215
502.00,0.0216
501.00,0.0217
500.00,0.0215
499.00,0.0213
498.00,0.0215
497.00,0.0216
496.00,0.0214
495.00,0.0213
494.00,0.0214
493.00,0.0214
492.00,0.0212
491.00,0.0211
490.00,0.0214
489.00,0.0218
488.00,0.0218
487.00,0.0219
486.00,0.0223
485.00,0.0227
484.00,0.0227
483.00,0.0228
482.00,0.0230
481.00,0.0232
480.00,0.0228
479.00,0.0225
478.00,0.0225
477.00,0.0226
476.00,0.0223
475.00,0.0223
474.00,0.0226
473.00,0.0229
472.00,0.0227
471.00,0.0225
470.00,0.0226
469.00,0.0226
468.00,0.0223
467.00,0.0223
466.00,0.0228
465.00,0.0232
464.00,0.0230
463.00,0.0227
462.00,0.0229
461.00,0.0228
460.00,0.0223
459.00,0.0218
458.00,0.0219
457.00,0.0220
456.00,0.0216
455.00,0.0215
454.00,0.0219
453.00,0.0224
452.00,0.0222
451.00,0.0219
450.00,0.0220
449.00,0.0221
448.00,0.0217
447.00,0.0214
446.00,0.0217
445.00,0.0218
444.00,0.0214
443.00,0.0210
442.00,0.0212
441.00,0.0211
440.00,0.0205
439.00,0.0200
438.00,0.0202
437.00,0.0204
436.00,0.0201
435.00,0.0198
434.00,0.0199
433.00,0.0199
432.00,0.0195
431.00,0.0192
430.00,0.0196
429.00,0.0197
428.00,0.0190
427.00,0.0185
426.00,0.0188
425.00,0.0192
424.00,0.0189
423.00,0.0186
422.00,0.0190
421.00,0.0194
420.00,0.0191
419.00,0.0194
418.00,0.0209
417.00,0.0217
416.00,0.0207
415.00,0.0197
414.00,0.0197
413.00,0.0197
412.00,0.0189
411.00,0.0183
410.00,0.0190
409.00,0.0195
408.00,0.0188
407.00,0.0180
406.00,0.0182
405.00,0.0181
404.00,0.0167
403.00,0.0158
402.00,0.0167
401.00,0.0178
400.00,0.0177
