Created as New Dataset,Sample 843 By YargerLab Date Monday, July 21 2025
cm-1,A
4000.00,0.0061
3999.00,0.0061
3998.00,0.0061
3997.00,0.0061
3996.00,0.0061
3995.00,0.0061
3994.00,0.0062
3993.00,0.0062
3992.00,0.0061
3991.00,0.0061
3990.00,0.0061
3989.00,0.0061
3988.00,0.0061
3987.00,0.0061
3986.00,0.0061
3985.00,0.0061
3984.00,0.0061
3983.00,0.0061
3982.00,0.0061
3981.00,0.0061
3980.00,0.0061
3979.00,0.0061
3978.00,0.0061
3977.00,0.0061
3976.00,0.0061
3975.00,0.0061
3974.00,0.0061
3973.00,0.0061
3972.00,0.0062
3971.00,0.0062
3970.00,0.0062
3969.00,0.0062
3968.00,0.0062
3967.00,0.0062
3966.00,0.0062
3965.00,0.0062
3964.00,0.0062
3963.00,0.0062
3962.00,0.0062
3961.00,0.0062
3960.00,0.0062
3959.00,0.0062
3958.00,0.0062
3957.00,0.0062
3956.00,0.0062
3955.00,0.0062
3954.00,0.0062
3953.00,0.0062
3952.00,0.0062
3951.00,0.0062
3950.00,0.0062
3949.00,0.0061
3948.00,0.0061
3947.00,0.0061
3946.00,0.0061
3945.00,0.0062
3944.00,0.0062
3943.00,0.0062
3942.00,0.0062
3941.00,0.0062
3940.00,0.0061
3939.00,0.0061
3938.00,0.0061
3937.00,0.0062
3936.00,0.0062
3935.00,0.0062
3934.00,0.0062
3933.00,0.0062
3932.00,0.0062
3931.00,0.0062
3930.00,0.0062
3929.00,0.0062
3928.00,0.0062
3927.00,0.0062
3926.00,0.0062
3925.00,0.0063
3924.00,0.0063
3923.00,0.0063
3922.00,0.0063
3921.00,0.0063
3920.00,0.0063
3919.00,0.0063
3918.00,0.0063
3917.00,0.0063
3916.00,0.0062
3915.00,0.0062
3914.00,0.0062
3913.00,0.0062
3912.00,0.0062
3911.00,0.0062
3910.00,0.0062
3909.00,0.0062
3908.00,0.0062
3907.00,0.0062
3906.00,0.0062
3905.00,0.0061
3904.00,0.0061
3903.00,0.0061
3902.00,0.0061
3901.00,0.0061
3900.00,0.0061
3899.00,0.0061
3898.00,0.0061
3897.00,0.0061
3896.00,0.0061
3895.00,0.0061
3894.00,0.0061
3893.00,0.0061
3892.00,0.0061
3891.00,0.0061
3890.00,0.0061
3889.00,0.0061
3888.00,0.0060
3887.00,0.0060
3886.00,0.0060
3885.00,0.0060
3884.00,0.0060
3883.00,0.0060
3882.00,0.0060
3881.00,0.0060
3880.00,0.0061
3879.00,0.0061
3878.00,0.0061
3877.00,0.0061
3876.00,0.0061
3875.00,0.0061
3874.00,0.0061
3873.00,0.0060
3872.00,0.0060
3871.00,0.0060
3870.00,0.0060
3869.00,0.0060
3868.00,0.0060
3867.00,0.0060
3866.00,0.0060
3865.00,0.0060
3864.00,0.0060
3863.00,0.0060
3862.00,0.0060
3861.00,0.0060
3860.00,0.0060
3859.00,0.0060
3858.00,0.0060
3857.00,0.0059
3856.00,0.0059
3855.00,0.0059
3854.00,0.0059
3853.00,0.0059
3852.00,0.0059
3851.00,0.0058
3850.00,0.0059
3849.00,0.0059
3848.00,0.0059
3847.00,0.0060
3846.00,0.0060
3845.00,0.0060
3844.00,0.0060
3843.00,0.0060
3842.00,0.0060
3841.00,0.0060
3840.00,0.0060
3839.00,0.0060
3838.00,0.0060
3837.00,0.0060
3836.00,0.0060
3835.00,0.0060
3834.00,0.0060
3833.00,0.0060
3832.00,0.0060
3831.00,0.0059
3830.00,0.0059
3829.00,0.0059
3828.00,0.0059
3827.00,0.0059
3826.00,0.0060
3825.00,0.0060
3824.00,0.0060
3823.00,0.0059
3822.00,0.0060
3821.00,0.0060
3820.00,0.0059
3819.00,0.0059
3818.00,0.0059
3817.00,0.0059
3816.00,0.0059
3815.00,0.0059
3814.00,0.0059
3813.00,0.0060
3812.00,0.0060
3811.00,0.0060
3810.00,0.0060
3809.00,0.0060
3808.00,0.0060
3807.00,0.0060
3806.00,0.0060
3805.00,0.0059
3804.00,0.0059
3803.00,0.0059
3802.00,0.0059
3801.00,0.0059
3800.00,0.0059
3799.00,0.0059
3798.00,0.0059
3797.00,0.0059
3796.00,0.0059
3795.00,0.0059
3794.00,0.0059
3793.00,0.0059
3792.00,0.0059
3791.00,0.0059
3790.00,0.0059
3789.00,0.0059
3788.00,0.0059
3787.00,0.0059
3786.00,0.0060
3785.00,0.0060
3784.00,0.0060
3783.00,0.0059
3782.00,0.0059
3781.00,0.0059
3780.00,0.0059
3779.00,0.0059
3778.00,0.0059
3777.00,0.0060
3776.00,0.0060
3775.00,0.0060
3774.00,0.0060
3773.00,0.0059
3772.00,0.0059
3771.00,0.0059
3770.00,0.0059
3769.00,0.0059
3768.00,0.0059
3767.00,0.0059
3766.00,0.0059
3765.00,0.0059
3764.00,0.0059
3763.00,0.0059
3762.00,0.0059
3761.00,0.0059
3760.00,0.0059
3759.00,0.0059
3758.00,0.0058
3757.00,0.0058
3756.00,0.0058
3755.00,0.0058
3754.00,0.0058
3753.00,0.0058
3752.00,0.0058
3751.00,0.0058
3750.00,0.0058
3749.00,0.0058
3748.00,0.0057
3747.00,0.0057
3746.00,0.0057
3745.00,0.0057
3744.00,0.0058
3743.00,0.0058
3742.00,0.0057
3741.00,0.0057
3740.00,0.0057
3739.00,0.0057
3738.00,0.0057
3737.00,0.0057
3736.00,0.0057
3735.00,0.0057
3734.00,0.0057
3733.00,0.0057
3732.00,0.0057
3731.00,0.0057
3730.00,0.0056
3729.00,0.0056
3728.00,0.0056
3727.00,0.0056
3726.00,0.0057
3725.00,0.0057
3724.00,0.0057
3723.00,0.0057
3722.00,0.0057
3721.00,0.0057
3720.00,0.0057
3719.00,0.0057
3718.00,0.0057
3717.00,0.0057
3716.00,0.0057
3715.00,0.0057
3714.00,0.0057
3713.00,0.0057
3712.00,0.0057
3711.00,0.0056
3710.00,0.0056
3709.00,0.0056
3708.00,0.0055
3707.00,0.0055
3706.00,0.0056
3705.00,0.0056
3704.00,0.0056
3703.00,0.0056
3702.00,0.0056
3701.00,0.0056
3700.00,0.0056
3699.00,0.0057
3698.00,0.0057
3697.00,0.0057
3696.00,0.0057
3695.00,0.0057
3694.00,0.0056
3693.00,0.0056
3692.00,0.0056
3691.00,0.0056
3690.00,0.0056
3689.00,0.0056
3688.00,0.0056
3687.00,0.0056
3686.00,0.0056
3685.00,0.0056
3684.00,0.0056
3683.00,0.0056
3682.00,0.0056
3681.00,0.0056
3680.00,0.0056
3679.00,0.0056
3678.00,0.0056
3677.00,0.0056
3676.00,0.0056
3675.00,0.0055
3674.00,0.0055
3673.00,0.0055
3672.00,0.0055
3671.00,0.0055
3670.00,0.0056
3669.00,0.0056
3668.00,0.0056
3667.00,0.0056
3666.00,0.0056
3665.00,0.0056
3664.00,0.0056
3663.00,0.0056
3662.00,0.0056
3661.00,0.0056
3660.00,0.0056
3659.00,0.0056
3658.00,0.0055
3657.00,0.0055
3656.00,0.0055
3655.00,0.0055
3654.00,0.0055
3653.00,0.0055
3652.00,0.0055
3651.00,0.0054
3650.00,0.0054
3649.00,0.0054
3648.00,0.0054
3647.00,0.0054
3646.00,0.0054
3645.00,0.0054
3644.00,0.0054
3643.00,0.0054
3642.00,0.0054
3641.00,0.0054
3640.00,0.0054
3639.00,0.0054
3638.00,0.0054
3637.00,0.0054
3636.00,0.0054
3635.00,0.0054
3634.00,0.0054
3633.00,0.0054
3632.00,0.0054
3631.00,0.0054
3630.00,0.0054
3629.00,0.0054
3628.00,0.0054
3627.00,0.0054
3626.00,0.0054
3625.00,0.0054
3624.00,0.0054
3623.00,0.0054
3622.00,0.0054
3621.00,0.0054
3620.00,0.0053
3619.00,0.0053
3618.00,0.0053
3617.00,0.0053
3616.00,0.0053
3615.00,0.0054
3614.00,0.0054
3613.00,0.0054
3612.00,0.0054
3611.00,0.0054
3610.00,0.0054
3609.00,0.0054
3608.00,0.0055
3607.00,0.0055
3606.00,0.0054
3605.00,0.0054
3604.00,0.0054
3603.00,0.0054
3602.00,0.0054
3601.00,0.0054
3600.00,0.0055
3599.00,0.0055
3598.00,0.0055
3597.00,0.0055
3596.00,0.0055
3595.00,0.0055
3594.00,0.0056
3593.00,0.0055
3592.00,0.0055
3591.00,0.0055
3590.00,0.0055
3589.00,0.0055
3588.00,0.0055
3587.00,0.0055
3586.00,0.0056
3585.00,0.0056
3584.00,0.0056
3583.00,0.0056
3582.00,0.0056
3581.00,0.0056
3580.00,0.0057
3579.00,0.0057
3578.00,0.0058
3577.00,0.0058
3576.00,0.0058
3575.00,0.0058
3574.00,0.0058
3573.00,0.0058
3572.00,0.0059
3571.00,0.0059
3570.00,0.0059
3569.00,0.0059
3568.00,0.0060
3567.00,0.0060
3566.00,0.0060
3565.00,0.0060
3564.00,0.0061
3563.00,0.0062
3562.00,0.0062
3561.00,0.0063
3560.00,0.0063
3559.00,0.0064
3558.00,0.0064
3557.00,0.0065
3556.00,0.0066
3555.00,0.0066
3554.00,0.0067
3553.00,0.0068
3552.00,0.0069
3551.00,0.0070
3550.00,0.0071
3549.00,0.0072
3548.00,0.0073
3547.00,0.0075
3546.00,0.0077
3545.00,0.0079
3544.00,0.0081
3543.00,0.0083
3542.00,0.0086
3541.00,0.0089
3540.00,0.0092
3539.00,0.0095
3538.00,0.0099
3537.00,0.0104
3536.00,0.0109
3535.00,0.0115
3534.00,0.0121
3533.00,0.0129
3532.00,0.0138
3531.00,0.0149
3530.00,0.0162
3529.00,0.0177
3528.00,0.0193
3527.00,0.0211
3526.00,0.0229
3525.00,0.0247
3524.00,0.0264
3523.00,0.0279
3522.00,0.0291
3521.00,0.0299
3520.00,0.0305
3519.00,0.0307
3518.00,0.0305
3517.00,0.0300
3516.00,0.0292
3515.00,0.0283
3514.00,0.0272
3513.00,0.0259
3512.00,0.0247
3511.00,0.0235
3510.00,0.0223
3509.00,0.0212
3508.00,0.0202
3507.00,0.0194
3506.00,0.0187
3505.00,0.0181
3504.00,0.0175
3503.00,0.0170
3502.00,0.0166
3501.00,0.0163
3500.00,0.0161
3499.00,0.0159
3498.00,0.0158
3497.00,0.0157
3496.00,0.0156
3495.00,0.0156
3494.00,0.0155
3493.00,0.0156
3492.00,0.0156
3491.00,0.0157
3490.00,0.0158
3489.00,0.0158
3488.00,0.0159
3487.00,0.0160
3486.00,0.0161
3485.00,0.0162
3484.00,0.0164
3483.00,0.0166
3482.00,0.0168
3481.00,0.0169
3480.00,0.0171
3479.00,0.0173
3478.00,0.0176
3477.00,0.0178
3476.00,0.0181
3475.00,0.0183
3474.00,0.0186
3473.00,0.0189
3472.00,0.0192
3471.00,0.0196
3470.00,0.0199
3469.00,0.0202
3468.00,0.0206
3467.00,0.0209
3466.00,0.0212
3465.00,0.0216
3464.00,0.0219
3463.00,0.0223
3462.00,0.0227
3461.00,0.0231
3460.00,0.0235
3459.00,0.0239
3458.00,0.0243
3457.00,0.0248
3456.00,0.0252
3455.00,0.0256
3454.00,0.0260
3453.00,0.0264
3452.00,0.0267
3451.00,0.0271
3450.00,0.0275
3449.00,0.0278
3448.00,0.0282
3447.00,0.0285
3446.00,0.0288
3445.00,0.0292
3444.00,0.0295
3443.00,0.0299
3442.00,0.0303
3441.00,0.0306
3440.00,0.0310
3439.00,0.0313
3438.00,0.0317
3437.00,0.0321
3436.00,0.0324
3435.00,0.0327
3434.00,0.0330
3433.00,0.0333
3432.00,0.0336
3431.00,0.0339
3430.00,0.0342
3429.00,0.0345
3428.00,0.0349
3427.00,0.0352
3426.00,0.0355
3425.00,0.0359
3424.00,0.0363
3423.00,0.0367
3422.00,0.0372
3421.00,0.0377
3420.00,0.0382
3419.00,0.0388
3418.00,0.0393
3417.00,0.0399
3416.00,0.0405
3415.00,0.0412
3414.00,0.0417
3413.00,0.0423
3412.00,0.0427
3411.00,0.0431
3410.00,0.0434
3409.00,0.0436
3408.00,0.0437
3407.00,0.0437
3406.00,0.0435
3405.00,0.0432
3404.00,0.0428
3403.00,0.0422
3402.00,0.0415
3401.00,0.0406
3400.00,0.0396
3399.00,0.0385
3398.00,0.0374
3397.00,0.0363
3396.00,0.0351
3395.00,0.0340
3394.00,0.0329
3393.00,0.0318
3392.00,0.0307
3391.00,0.0296
3390.00,0.0287
3389.00,0.0278
3388.00,0.0269
3387.00,0.0261
3386.00,0.0253
3385.00,0.0246
3384.00,0.0239
3383.00,0.0233
3382.00,0.0227
3381.00,0.0222
3380.00,0.0217
3379.00,0.0212
3378.00,0.0208
3377.00,0.0203
3376.00,0.0199
3375.00,0.0195
3374.00,0.0191
3373.00,0.0188
3372.00,0.0184
3371.00,0.0181
3370.00,0.0178
3369.00,0.0175
3368.00,0.0172
3367.00,0.0169
3366.00,0.0166
3365.00,0.0163
3364.00,0.0160
3363.00,0.0158
3362.00,0.0155
3361.00,0.0153
3360.00,0.0151
3359.00,0.0148
3358.00,0.0146
3357.00,0.0144
3356.00,0.0141
3355.00,0.0139
3354.00,0.0137
3353.00,0.0136
3352.00,0.0134
3351.00,0.0133
3350.00,0.0131
3349.00,0.0130
3348.00,0.0128
3347.00,0.0127
3346.00,0.0126
3345.00,0.0124
3344.00,0.0123
3343.00,0.0121
3342.00,0.0120
3341.00,0.0118
3340.00,0.0117
3339.00,0.0116
3338.00,0.0114
3337.00,0.0113
3336.00,0.0112
3335.00,0.0111
3334.00,0.0111
3333.00,0.0110
3332.00,0.0109
3331.00,0.0108
3330.00,0.0108
3329.00,0.0107
3328.00,0.0106
3327.00,0.0105
3326.00,0.0104
3325.00,0.0103
3324.00,0.0103
3323.00,0.0102
3322.00,0.0101
3321.00,0.0100
3320.00,0.0100
3319.00,0.0099
3318.00,0.0099
3317.00,0.0098
3316.00,0.0097
3315.00,0.0096
3314.00,0.0096
3313.00,0.0095
3312.00,0.0095
3311.00,0.0094
3310.00,0.0094
3309.00,0.0093
3308.00,0.0093
3307.00,0.0092
3306.00,0.0092
3305.00,0.0091
3304.00,0.0091
3303.00,0.0090
3302.00,0.0090
3301.00,0.0089
3300.00,0.0089
3299.00,0.0088
3298.00,0.0088
3297.00,0.0087
3296.00,0.0087
3295.00,0.0086
3294.00,0.0086
3293.00,0.0085
3292.00,0.0085
3291.00,0.0085
3290.00,0.0084
3289.00,0.0084
3288.00,0.0083
3287.00,0.0083
3286.00,0.0082
3285.00,0.0082
3284.00,0.0082
3283.00,0.0082
3282.00,0.0082
3281.00,0.0081
3280.00,0.0081
3279.00,0.0080
3278.00,0.0080
3277.00,0.0080
3276.00,0.0079
3275.00,0.0079
3274.00,0.0079
3273.00,0.0079
3272.00,0.0078
3271.00,0.0078
3270.00,0.0078
3269.00,0.0078
3268.00,0.0078
3267.00,0.0078
3266.00,0.0078
3265.00,0.0078
3264.00,0.0077
3263.00,0.0077
3262.00,0.0077
3261.00,0.0077
3260.00,0.0077
3259.00,0.0076
3258.00,0.0076
3257.00,0.0076
3256.00,0.0076
3255.00,0.0076
3254.00,0.0076
3253.00,0.0076
3252.00,0.0075
3251.00,0.0075
3250.00,0.0075
3249.00,0.0075
3248.00,0.0075
3247.00,0.0075
3246.00,0.0075
3245.00,0.0075
3244.00,0.0075
3243.00,0.0075
3242.00,0.0074
3241.00,0.0074
3240.00,0.0074
3239.00,0.0074
3238.00,0.0073
3237.00,0.0073
3236.00,0.0073
3235.00,0.0072
3234.00,0.0072
3233.00,0.0072
3232.00,0.0072
3231.00,0.0072
3230.00,0.0072
3229.00,0.0072
3228.00,0.0072
3227.00,0.0072
3226.00,0.0072
3225.00,0.0072
3224.00,0.0072
3223.00,0.0071
3222.00,0.0071
3221.00,0.0071
3220.00,0.0071
3219.00,0.0071
3218.00,0.0071
3217.00,0.0071
3216.00,0.0071
3215.00,0.0071
3214.00,0.0071
3213.00,0.0071
3212.00,0.0071
3211.00,0.0071
3210.00,0.0071
3209.00,0.0071
3208.00,0.0071
3207.00,0.0071
3206.00,0.0071
3205.00,0.0071
3204.00,0.0071
3203.00,0.0071
3202.00,0.0071
3201.00,0.0070
3200.00,0.0070
3199.00,0.0070
3198.00,0.0070
3197.00,0.0070
3196.00,0.0070
3195.00,0.0070
3194.00,0.0070
3193.00,0.0070
3192.00,0.0070
3191.00,0.0070
3190.00,0.0069
3189.00,0.0069
3188.00,0.0069
3187.00,0.0069
3186.00,0.0070
3185.00,0.0070
3184.00,0.0069
3183.00,0.0069
3182.00,0.0069
3181.00,0.0069
3180.00,0.0069
3179.00,0.0069
3178.00,0.0069
3177.00,0.0069
3176.00,0.0069
3175.00,0.0069
3174.00,0.0069
3173.00,0.0070
3172.00,0.0070
3171.00,0.0070
3170.00,0.0070
3169.00,0.0070
3168.00,0.0070
3167.00,0.0070
3166.00,0.0070
3165.00,0.0071
3164.00,0.0071
3163.00,0.0071
3162.00,0.0071
3161.00,0.0071
3160.00,0.0071
3159.00,0.0070
3158.00,0.0070
3157.00,0.0070
3156.00,0.0070
3155.00,0.0069
3154.00,0.0069
3153.00,0.0069
3152.00,0.0069
3151.00,0.0069
3150.00,0.0069
3149.00,0.0069
3148.00,0.0069
3147.00,0.0069
3146.00,0.0069
3145.00,0.0069
3144.00,0.0069
3143.00,0.0069
3142.00,0.0068
3141.00,0.0068
3140.00,0.0068
3139.00,0.0067
3138.00,0.0067
3137.00,0.0067
3136.00,0.0068
3135.00,0.0068
3134.00,0.0068
3133.00,0.0068
3132.00,0.0068
3131.00,0.0068
3130.00,0.0068
3129.00,0.0068
3128.00,0.0068
3127.00,0.0068
3126.00,0.0068
3125.00,0.0068
3124.00,0.0068
3123.00,0.0068
3122.00,0.0068
3121.00,0.0068
3120.00,0.0068
3119.00,0.0068
3118.00,0.0068
3117.00,0.0068
3116.00,0.0068
3115.00,0.0068
3114.00,0.0068
3113.00,0.0068
3112.00,0.0068
3111.00,0.0068
3110.00,0.0068
3109.00,0.0068
3108.00,0.0068
3107.00,0.0068
3106.00,0.0068
3105.00,0.0068
3104.00,0.0068
3103.00,0.0068
3102.00,0.0068
3101.00,0.0068
3100.00,0.0069
3099.00,0.0069
3098.00,0.0069
3097.00,0.0069
3096.00,0.0069
3095.00,0.0069
3094.00,0.0069
3093.00,0.0069
3092.00,0.0070
3091.00,0.0070
3090.00,0.0070
3089.00,0.0071
3088.00,0.0071
3087.00,0.0072
3086.00,0.0072
3085.00,0.0073
3084.00,0.0075
3083.00,0.0077
3082.00,0.0080
3081.00,0.0083
3080.00,0.0089
3079.00,0.0095
3078.00,0.0102
3077.00,0.0110
3076.00,0.0117
3075.00,0.0122
3074.00,0.0123
3073.00,0.0121
3072.00,0.0116
3071.00,0.0110
3070.00,0.0103
3069.00,0.0096
3068.00,0.0091
3067.00,0.0087
3066.00,0.0084
3065.00,0.0081
3064.00,0.0079
3063.00,0.0078
3062.00,0.0077
3061.00,0.0076
3060.00,0.0076
3059.00,0.0075
3058.00,0.0075
3057.00,0.0074
3056.00,0.0074
3055.00,0.0073
3054.00,0.0073
3053.00,0.0073
3052.00,0.0073
3051.00,0.0073
3050.00,0.0074
3049.00,0.0074
3048.00,0.0075
3047.00,0.0075
3046.00,0.0076
3045.00,0.0076
3044.00,0.0077
3043.00,0.0077
3042.00,0.0078
3041.00,0.0079
3040.00,0.0080
3039.00,0.0080
3038.00,0.0081
3037.00,0.0082
3036.00,0.0083
3035.00,0.0084
3034.00,0.0085
3033.00,0.0086
3032.00,0.0086
3031.00,0.0086
3030.00,0.0086
3029.00,0.0085
3028.00,0.0084
3027.00,0.0082
3026.00,0.0081
3025.00,0.0080
3024.00,0.0080
3023.00,0.0079
3022.00,0.0078
3021.00,0.0078
3020.00,0.0078
3019.00,0.0078
3018.00,0.0078
3017.00,0.0078
3016.00,0.0078
3015.00,0.0078
3014.00,0.0079
3013.00,0.0079
3012.00,0.0080
3011.00,0.0080
3010.00,0.0081
3009.00,0.0081
3008.00,0.0082
3007.00,0.0082
3006.00,0.0083
3005.00,0.0084
3004.00,0.0084
3003.00,0.0085
3002.00,0.0085
3001.00,0.0086
3000.00,0.0087
2999.00,0.0088
2998.00,0.0089
2997.00,0.0090
2996.00,0.0091
2995.00,0.0093
2994.00,0.0094
2993.00,0.0096
2992.00,0.0098
2991.00,0.0100
2990.00,0.0102
2989.00,0.0104
2988.00,0.0106
2987.00,0.0107
2986.00,0.0108
2985.00,0.0110
2984.00,0.0111
2983.00,0.0113
2982.00,0.0116
2981.00,0.0120
2980.00,0.0124
2979.00,0.0130
2978.00,0.0136
2977.00,0.0144
2976.00,0.0153
2975.00,0.0163
2974.00,0.0175
2973.00,0.0189
2972.00,0.0203
2971.00,0.0217
2970.00,0.0231
2969.00,0.0244
2968.00,0.0256
2967.00,0.0265
2966.00,0.0272
2965.00,0.0275
2964.00,0.0277
2963.00,0.0276
2962.00,0.0275
2961.00,0.0272
2960.00,0.0269
2959.00,0.0264
2958.00,0.0258
2957.00,0.0251
2956.00,0.0244
2955.00,0.0236
2954.00,0.0229
2953.00,0.0223
2952.00,0.0218
2951.00,0.0215
2950.00,0.0214
2949.00,0.0215
2948.00,0.0219
2947.00,0.0226
2946.00,0.0236
2945.00,0.0247
2944.00,0.0260
2943.00,0.0273
2942.00,0.0284
2941.00,0.0295
2940.00,0.0305
2939.00,0.0314
2938.00,0.0324
2937.00,0.0334
2936.00,0.0346
2935.00,0.0359
2934.00,0.0372
2933.00,0.0386
2932.00,0.0401
2931.00,0.0415
2930.00,0.0430
2929.00,0.0444
2928.00,0.0458
2927.00,0.0469
2926.00,0.0477
2925.00,0.0482
2924.00,0.0484
2923.00,0.0483
2922.00,0.0480
2921.00,0.0475
2920.00,0.0471
2919.00,0.0467
2918.00,0.0463
2917.00,0.0460
2916.00,0.0456
2915.00,0.0450
2914.00,0.0444
2913.00,0.0435
2912.00,0.0425
2911.00,0.0412
2910.00,0.0399
2909.00,0.0386
2908.00,0.0372
2907.00,0.0360
2906.00,0.0348
2905.00,0.0337
2904.00,0.0328
2903.00,0.0320
2902.00,0.0313
2901.00,0.0306
2900.00,0.0300
2899.00,0.0293
2898.00,0.0286
2897.00,0.0278
2896.00,0.0269
2895.00,0.0261
2894.00,0.0253
2893.00,0.0246
2892.00,0.0240
2891.00,0.0235
2890.00,0.0231
2889.00,0.0228
2888.00,0.0226
2887.00,0.0224
2886.00,0.0223
2885.00,0.0222
2884.00,0.0221
2883.00,0.0221
2882.00,0.0221
2881.00,0.0221
2880.00,0.0222
2879.00,0.0224
2878.00,0.0227
2877.00,0.0230
2876.00,0.0233
2875.00,0.0237
2874.00,0.0241
2873.00,0.0244
2872.00,0.0247
2871.00,0.0247
2870.00,0.0247
2869.00,0.0245
2868.00,0.0242
2867.00,0.0240
2866.00,0.0239
2865.00,0.0241
2864.00,0.0245
2863.00,0.0254
2862.00,0.0266
2861.00,0.0282
2860.00,0.0301
2859.00,0.0322
2858.00,0.0342
2857.00,0.0359
2856.00,0.0370
2855.00,0.0373
2854.00,0.0366
2853.00,0.0353
2852.00,0.0334
2851.00,0.0312
2850.00,0.0290
2849.00,0.0269
2848.00,0.0249
2847.00,0.0232
2846.00,0.0216
2845.00,0.0202
2844.00,0.0191
2843.00,0.0181
2842.00,0.0173
2841.00,0.0167
2840.00,0.0162
2839.00,0.0159
2838.00,0.0158
2837.00,0.0158
2836.00,0.0161
2835.00,0.0166
2834.00,0.0174
2833.00,0.0185
2832.00,0.0196
2831.00,0.0208
2830.00,0.0216
2829.00,0.0220
2828.00,0.0217
2827.00,0.0209
2826.00,0.0196
2825.00,0.0182
2824.00,0.0168
2823.00,0.0156
2822.00,0.0146
2821.00,0.0137
2820.00,0.0131
2819.00,0.0125
2818.00,0.0121
2817.00,0.0118
2816.00,0.0115
2815.00,0.0112
2814.00,0.0110
2813.00,0.0108
2812.00,0.0107
2811.00,0.0105
2810.00,0.0104
2809.00,0.0103
2808.00,0.0102
2807.00,0.0101
2806.00,0.0100
2805.00,0.0099
2804.00,0.0098
2803.00,0.0097
2802.00,0.0097
2801.00,0.0096
2800.00,0.0095
2799.00,0.0094
2798.00,0.0093
2797.00,0.0092
2796.00,0.0092
2795.00,0.0091
2794.00,0.0090
2793.00,0.0090
2792.00,0.0090
2791.00,0.0089
2790.00,0.0089
2789.00,0.0088
2788.00,0.0088
2787.00,0.0088
2786.00,0.0087
2785.00,0.0087
2784.00,0.0086
2783.00,0.0086
2782.00,0.0086
2781.00,0.0085
2780.00,0.0085
2779.00,0.0084
2778.00,0.0084
2777.00,0.0084
2776.00,0.0083
2775.00,0.0083
2774.00,0.0083
2773.00,0.0082
2772.00,0.0082
2771.00,0.0082
2770.00,0.0082
2769.00,0.0081
2768.00,0.0081
2767.00,0.0081
2766.00,0.0080
2765.00,0.0080
2764.00,0.0080
2763.00,0.0080
2762.00,0.0080
2761.00,0.0079
2760.00,0.0079
2759.00,0.0079
2758.00,0.0079
2757.00,0.0079
2756.00,0.0079
2755.00,0.0079
2754.00,0.0079
2753.00,0.0079
2752.00,0.0079
2751.00,0.0079
2750.00,0.0079
2749.00,0.0079
2748.00,0.0079
2747.00,0.0079
2746.00,0.0079
2745.00,0.0079
2744.00,0.0079
2743.00,0.0079
2742.00,0.0080
2741.00,0.0080
2740.00,0.0080
2739.00,0.0081
2738.00,0.0081
2737.00,0.0082
2736.00,0.0082
2735.00,0.0083
2734.00,0.0084
2733.00,0.0085
2732.00,0.0085
2731.00,0.0086
2730.00,0.0087
2729.00,0.0088
2728.00,0.0088
2727.00,0.0088
2726.00,0.0087
2725.00,0.0086
2724.00,0.0086
2723.00,0.0085
2722.00,0.0084
2721.00,0.0083
2720.00,0.0082
2719.00,0.0082
2718.00,0.0081
2717.00,0.0080
2716.00,0.0080
2715.00,0.0079
2714.00,0.0079
2713.00,0.0079
2712.00,0.0078
2711.00,0.0078
2710.00,0.0077
2709.00,0.0077
2708.00,0.0077
2707.00,0.0077
2706.00,0.0077
2705.00,0.0076
2704.00,0.0076
2703.00,0.0076
2702.00,0.0076
2701.00,0.0076
2700.00,0.0076
2699.00,0.0076
2698.00,0.0076
2697.00,0.0075
2696.00,0.0075
2695.00,0.0076
2694.00,0.0076
2693.00,0.0076
2692.00,0.0076
2691.00,0.0076
2690.00,0.0076
2689.00,0.0076
2688.00,0.0076
2687.00,0.0076
2686.00,0.0076
2685.00,0.0076
2684.00,0.0076
2683.00,0.0076
2682.00,0.0076
2681.00,0.0076
2680.00,0.0077
2679.00,0.0077
2678.00,0.0077
2677.00,0.0078
2676.00,0.0078
2675.00,0.0078
2674.00,0.0078
2673.00,0.0078
2672.00,0.0079
2671.00,0.0079
2670.00,0.0079
2669.00,0.0079
2668.00,0.0080
2667.00,0.0080
2666.00,0.0080
2665.00,0.0081
2664.00,0.0081
2663.00,0.0081
2662.00,0.0082
2661.00,0.0082
2660.00,0.0082
2659.00,0.0082
2658.00,0.0082
2657.00,0.0082
2656.00,0.0082
2655.00,0.0082
2654.00,0.0082
2653.00,0.0081
2652.00,0.0081
2651.00,0.0081
2650.00,0.0081
2649.00,0.0081
2648.00,0.0080
2647.00,0.0080
2646.00,0.0080
2645.00,0.0080
2644.00,0.0080
2643.00,0.0080
2642.00,0.0079
2641.00,0.0079
2640.00,0.0079
2639.00,0.0078
2638.00,0.0078
2637.00,0.0078
2636.00,0.0078
2635.00,0.0079
2634.00,0.0079
2633.00,0.0079
2632.00,0.0079
2631.00,0.0079
2630.00,0.0078
2629.00,0.0078
2628.00,0.0078
2627.00,0.0078
2626.00,0.0078
2625.00,0.0078
2624.00,0.0078
2623.00,0.0078
2622.00,0.0077
2621.00,0.0077
2620.00,0.0077
2619.00,0.0077
2618.00,0.0077
2617.00,0.0077
2616.00,0.0077
2615.00,0.0077
2614.00,0.0077
2613.00,0.0077
2612.00,0.0077
2611.00,0.0077
2610.00,0.0077
2609.00,0.0077
2608.00,0.0076
2607.00,0.0076
2606.00,0.0076
2605.00,0.0076
2604.00,0.0076
2603.00,0.0076
2602.00,0.0076
2601.00,0.0076
2600.00,0.0076
2599.00,0.0076
2598.00,0.0076
2597.00,0.0076
2596.00,0.0076
2595.00,0.0076
2594.00,0.0076
2593.00,0.0076
2592.00,0.0076
2591.00,0.0076
2590.00,0.0075
2589.00,0.0075
2588.00,0.0075
2587.00,0.0075
2586.00,0.0074
2585.00,0.0074
2584.00,0.0074
2583.00,0.0074
2582.00,0.0074
2581.00,0.0074
2580.00,0.0075
2579.00,0.0075
2578.00,0.0075
2577.00,0.0075
2576.00,0.0074
2575.00,0.0074
2574.00,0.0074
2573.00,0.0074
2572.00,0.0074
2571.00,0.0074
2570.00,0.0074
2569.00,0.0074
2568.00,0.0074
2567.00,0.0074
2566.00,0.0074
2565.00,0.0073
2564.00,0.0073
2563.00,0.0073
2562.00,0.0073
2561.00,0.0074
2560.00,0.0074
2559.00,0.0073
2558.00,0.0073
2557.00,0.0073
2556.00,0.0073
2555.00,0.0073
2554.00,0.0074
2553.00,0.0074
2552.00,0.0073
2551.00,0.0073
2550.00,0.0073
2549.00,0.0072
2548.00,0.0072
2547.00,0.0072
2546.00,0.0072
2545.00,0.0072
2544.00,0.0072
2543.00,0.0072
2542.00,0.0073
2541.00,0.0073
2540.00,0.0073
2539.00,0.0073
2538.00,0.0073
2537.00,0.0072
2536.00,0.0072
2535.00,0.0072
2534.00,0.0071
2533.00,0.0071
2532.00,0.0071
2531.00,0.0072
2530.00,0.0072
2529.00,0.0072
2528.00,0.0072
2527.00,0.0072
2526.00,0.0072
2525.00,0.0072
2524.00,0.0072
2523.00,0.0072
2522.00,0.0072
2521.00,0.0072
2520.00,0.0071
2519.00,0.0071
2518.00,0.0071
2517.00,0.0071
2516.00,0.0071
2515.00,0.0071
2514.00,0.0071
2513.00,0.0071
2512.00,0.0071
2511.00,0.0072
2510.00,0.0072
2509.00,0.0072
2508.00,0.0071
2507.00,0.0071
2506.00,0.0071
2505.00,0.0071
2504.00,0.0071
2503.00,0.0071
2502.00,0.0071
2501.00,0.0071
2500.00,0.0071
2499.00,0.0071
2498.00,0.0071
2497.00,0.0071
2496.00,0.0071
2495.00,0.0071
2494.00,0.0071
2493.00,0.0071
2492.00,0.0071
2491.00,0.0071
2490.00,0.0071
2489.00,0.0070
2488.00,0.0070
2487.00,0.0070
2486.00,0.0070
2485.00,0.0070
2484.00,0.0071
2483.00,0.0071
2482.00,0.0071
2481.00,0.0072
2480.00,0.0072
2479.00,0.0071
2478.00,0.0071
2477.00,0.0072
2476.00,0.0072
2475.00,0.0072
2474.00,0.0072
2473.00,0.0072
2472.00,0.0072
2471.00,0.0072
2470.00,0.0072
2469.00,0.0072
2468.00,0.0072
2467.00,0.0072
2466.00,0.0072
2465.00,0.0072
2464.00,0.0072
2463.00,0.0072
2462.00,0.0072
2461.00,0.0073
2460.00,0.0073
2459.00,0.0073
2458.00,0.0074
2457.00,0.0074
2456.00,0.0073
2455.00,0.0073
2454.00,0.0073
2453.00,0.0073
2452.00,0.0074
2451.00,0.0074
2450.00,0.0073
2449.00,0.0073
2448.00,0.0073
2447.00,0.0073
2446.00,0.0072
2445.00,0.0072
2444.00,0.0071
2443.00,0.0071
2442.00,0.0070
2441.00,0.0070
2440.00,0.0069
2439.00,0.0069
2438.00,0.0069
2437.00,0.0068
2436.00,0.0068
2435.00,0.0068
2434.00,0.0068
2433.00,0.0068
2432.00,0.0068
2431.00,0.0068
2430.00,0.0068
2429.00,0.0067
2428.00,0.0067
2427.00,0.0067
2426.00,0.0067
2425.00,0.0067
2424.00,0.0066
2423.00,0.0066
2422.00,0.0066
2421.00,0.0066
2420.00,0.0066
2419.00,0.0066
2418.00,0.0066
2417.00,0.0066
2416.00,0.0066
2415.00,0.0066
2414.00,0.0065
2413.00,0.0065
2412.00,0.0065
2411.00,0.0065
2410.00,0.0065
2409.00,0.0065
2408.00,0.0065
2407.00,0.0064
2406.00,0.0064
2405.00,0.0064
2404.00,0.0064
2403.00,0.0064
2402.00,0.0064
2401.00,0.0064
2400.00,0.0064
2399.00,0.0064
2398.00,0.0064
2397.00,0.0063
2396.00,0.0063
2395.00,0.0063
2394.00,0.0063
2393.00,0.0063
2392.00,0.0063
2391.00,0.0063
2390.00,0.0063
2389.00,0.0063
2388.00,0.0063
2387.00,0.0063
2386.00,0.0062
2385.00,0.0062
2384.00,0.0061
2383.00,0.0060
2382.00,0.0060
2381.00,0.0060
2380.00,0.0059
2379.00,0.0059
2378.00,0.0059
2377.00,0.0059
2376.00,0.0059
2375.00,0.0059
2374.00,0.0059
2373.00,0.0059
2372.00,0.0059
2371.00,0.0059
2370.00,0.0059
2369.00,0.0058
2368.00,0.0058
2367.00,0.0058
2366.00,0.0058
2365.00,0.0058
2364.00,0.0058
2363.00,0.0059
2362.00,0.0059
2361.00,0.0059
2360.00,0.0059
2359.00,0.0060
2358.00,0.0060
2357.00,0.0060
2356.00,0.0060
2355.00,0.0060
2354.00,0.0059
2353.00,0.0059
2352.00,0.0059
2351.00,0.0059
2350.00,0.0060
2349.00,0.0061
2348.00,0.0061
2347.00,0.0061
2346.00,0.0061
2345.00,0.0061
2344.00,0.0061
2343.00,0.0062
2342.00,0.0062
2341.00,0.0062
2340.00,0.0063
2339.00,0.0063
2338.00,0.0063
2337.00,0.0063
2336.00,0.0063
2335.00,0.0063
2334.00,0.0063
2333.00,0.0063
2332.00,0.0062
2331.00,0.0062
2330.00,0.0063
2329.00,0.0065
2328.00,0.0068
2327.00,0.0071
2326.00,0.0074
2325.00,0.0075
2324.00,0.0074
2323.00,0.0072
2322.00,0.0070
2321.00,0.0069
2320.00,0.0068
2319.00,0.0068
2318.00,0.0067
2317.00,0.0067
2316.00,0.0066
2315.00,0.0066
2314.00,0.0065
2313.00,0.0065
2312.00,0.0065
2311.00,0.0065
2310.00,0.0065
2309.00,0.0065
2308.00,0.0065
2307.00,0.0065
2306.00,0.0065
2305.00,0.0065
2304.00,0.0065
2303.00,0.0065
2302.00,0.0065
2301.00,0.0065
2300.00,0.0065
2299.00,0.0066
2298.00,0.0067
2297.00,0.0067
2296.00,0.0068
2295.00,0.0069
2294.00,0.0069
2293.00,0.0070
2292.00,0.0072
2291.00,0.0073
2290.00,0.0073
2289.00,0.0074
2288.00,0.0074
2287.00,0.0074
2286.00,0.0074
2285.00,0.0073
2284.00,0.0073
2283.00,0.0072
2282.00,0.0071
2281.00,0.0071
2280.00,0.0070
2279.00,0.0070
2278.00,0.0070
2277.00,0.0069
2276.00,0.0069
2275.00,0.0068
2274.00,0.0069
2273.00,0.0069
2272.00,0.0069
2271.00,0.0069
2270.00,0.0068
2269.00,0.0067
2268.00,0.0067
2267.00,0.0066
2266.00,0.0066
2265.00,0.0066
2264.00,0.0066
2263.00,0.0066
2262.00,0.0066
2261.00,0.0067
2260.00,0.0068
2259.00,0.0069
2258.00,0.0068
2257.00,0.0067
2256.00,0.0066
2255.00,0.0065
2254.00,0.0064
2253.00,0.0064
2252.00,0.0064
2251.00,0.0065
2250.00,0.0065
2249.00,0.0065
2248.00,0.0065
2247.00,0.0065
2246.00,0.0065
2245.00,0.0066
2244.00,0.0066
2243.00,0.0066
2242.00,0.0066
2241.00,0.0066
2240.00,0.0066
2239.00,0.0066
2238.00,0.0066
2237.00,0.0066
2236.00,0.0066
2235.00,0.0066
2234.00,0.0066
2233.00,0.0066
2232.00,0.0066
2231.00,0.0066
2230.00,0.0066
2229.00,0.0066
2228.00,0.0065
2227.00,0.0065
2226.00,0.0065
2225.00,0.0065
2224.00,0.0065
2223.00,0.0065
2222.00,0.0065
2221.00,0.0064
2220.00,0.0064
2219.00,0.0064
2218.00,0.0065
2217.00,0.0064
2216.00,0.0064
2215.00,0.0063
2214.00,0.0062
2213.00,0.0061
2212.00,0.0061
2211.00,0.0062
2210.00,0.0063
2209.00,0.0064
2208.00,0.0064
2207.00,0.0064
2206.00,0.0065
2205.00,0.0065
2204.00,0.0064
2203.00,0.0064
2202.00,0.0064
2201.00,0.0064
2200.00,0.0064
2199.00,0.0064
2198.00,0.0065
2197.00,0.0066
2196.00,0.0067
2195.00,0.0068
2194.00,0.0069
2193.00,0.0069
2192.00,0.0068
2191.00,0.0067
2190.00,0.0065
2189.00,0.0064
2188.00,0.0063
2187.00,0.0064
2186.00,0.0064
2185.00,0.0064
2184.00,0.0062
2183.00,0.0060
2182.00,0.0058
2181.00,0.0059
2180.00,0.0061
2179.00,0.0062
2178.00,0.0062
2177.00,0.0060
2176.00,0.0058
2175.00,0.0057
2174.00,0.0057
2173.00,0.0060
2172.00,0.0063
2171.00,0.0066
2170.00,0.0069
2169.00,0.0071
2168.00,0.0071
2167.00,0.0072
2166.00,0.0072
2165.00,0.0073
2164.00,0.0075
2163.00,0.0075
2162.00,0.0072
2161.00,0.0062
2160.00,0.0049
2159.00,0.0037
2158.00,0.0031
2157.00,0.0031
2156.00,0.0033
2155.00,0.0037
2154.00,0.0039
2153.00,0.0041
2152.00,0.0042
2151.00,0.0042
2150.00,0.0043
2149.00,0.0043
2148.00,0.0044
2147.00,0.0045
2146.00,0.0045
2145.00,0.0045
2144.00,0.0045
2143.00,0.0046
2142.00,0.0047
2141.00,0.0048
2140.00,0.0049
2139.00,0.0049
2138.00,0.0048
2137.00,0.0045
2136.00,0.0043
2135.00,0.0041
2134.00,0.0040
2133.00,0.0041
2132.00,0.0042
2131.00,0.0044
2130.00,0.0046
2129.00,0.0048
2128.00,0.0049
2127.00,0.0050
2126.00,0.0051
2125.00,0.0051
2124.00,0.0052
2123.00,0.0053
2122.00,0.0054
2121.00,0.0055
2120.00,0.0056
2119.00,0.0057
2118.00,0.0058
2117.00,0.0059
2116.00,0.0059
2115.00,0.0059
2114.00,0.0059
2113.00,0.0058
2112.00,0.0057
2111.00,0.0057
2110.00,0.0057
2109.00,0.0057
2108.00,0.0057
2107.00,0.0058
2106.00,0.0058
2105.00,0.0058
2104.00,0.0058
2103.00,0.0058
2102.00,0.0058
2101.00,0.0058
2100.00,0.0058
2099.00,0.0057
2098.00,0.0056
2097.00,0.0055
2096.00,0.0054
2095.00,0.0053
2094.00,0.0054
2093.00,0.0054
2092.00,0.0056
2091.00,0.0057
2090.00,0.0057
2089.00,0.0058
2088.00,0.0059
2087.00,0.0060
2086.00,0.0060
2085.00,0.0061
2084.00,0.0061
2083.00,0.0061
2082.00,0.0061
2081.00,0.0060
2080.00,0.0060
2079.00,0.0060
2078.00,0.0060
2077.00,0.0060
2076.00,0.0060
2075.00,0.0060
2074.00,0.0059
2073.00,0.0058
2072.00,0.0058
2071.00,0.0057
2070.00,0.0056
2069.00,0.0056
2068.00,0.0056
2067.00,0.0057
2066.00,0.0058
2065.00,0.0058
2064.00,0.0058
2063.00,0.0057
2062.00,0.0056
2061.00,0.0056
2060.00,0.0055
2059.00,0.0056
2058.00,0.0056
2057.00,0.0057
2056.00,0.0057
2055.00,0.0058
2054.00,0.0060
2053.00,0.0063
2052.00,0.0066
2051.00,0.0066
2050.00,0.0063
2049.00,0.0060
2048.00,0.0058
2047.00,0.0056
2046.00,0.0055
2045.00,0.0054
2044.00,0.0053
2043.00,0.0054
2042.00,0.0054
2041.00,0.0055
2040.00,0.0055
2039.00,0.0055
2038.00,0.0055
2037.00,0.0054
2036.00,0.0053
2035.00,0.0052
2034.00,0.0050
2033.00,0.0048
2032.00,0.0047
2031.00,0.0047
2030.00,0.0046
2029.00,0.0046
2028.00,0.0046
2027.00,0.0047
2026.00,0.0048
2025.00,0.0049
2024.00,0.0050
2023.00,0.0050
2022.00,0.0050
2021.00,0.0050
2020.00,0.0050
2019.00,0.0051
2018.00,0.0051
2017.00,0.0050
2016.00,0.0050
2015.00,0.0050
2014.00,0.0049
2013.00,0.0050
2012.00,0.0050
2011.00,0.0051
2010.00,0.0050
2009.00,0.0049
2008.00,0.0047
2007.00,0.0045
2006.00,0.0045
2005.00,0.0045
2004.00,0.0047
2003.00,0.0048
2002.00,0.0049
2001.00,0.0049
2000.00,0.0049
1999.00,0.0049
1998.00,0.0050
1997.00,0.0051
1996.00,0.0052
1995.00,0.0053
1994.00,0.0053
1993.00,0.0053
1992.00,0.0053
1991.00,0.0053
1990.00,0.0055
1989.00,0.0056
1988.00,0.0058
1987.00,0.0059
1986.00,0.0061
1985.00,0.0062
1984.00,0.0064
1983.00,0.0067
1982.00,0.0069
1981.00,0.0070
1980.00,0.0068
1979.00,0.0063
1978.00,0.0057
1977.00,0.0052
1976.00,0.0049
1975.00,0.0047
1974.00,0.0046
1973.00,0.0046
1972.00,0.0047
1971.00,0.0048
1970.00,0.0049
1969.00,0.0049
1968.00,0.0048
1967.00,0.0047
1966.00,0.0046
1965.00,0.0046
1964.00,0.0045
1963.00,0.0045
1962.00,0.0045
1961.00,0.0044
1960.00,0.0044
1959.00,0.0044
1958.00,0.0045
1957.00,0.0045
1956.00,0.0046
1955.00,0.0047
1954.00,0.0048
1953.00,0.0048
1952.00,0.0049
1951.00,0.0049
1950.00,0.0050
1949.00,0.0050
1948.00,0.0050
1947.00,0.0049
1946.00,0.0048
1945.00,0.0048
1944.00,0.0048
1943.00,0.0049
1942.00,0.0050
1941.00,0.0050
1940.00,0.0050
1939.00,0.0049
1938.00,0.0049
1937.00,0.0049
1936.00,0.0049
1935.00,0.0049
1934.00,0.0049
1933.00,0.0049
1932.00,0.0049
1931.00,0.0049
1930.00,0.0049
1929.00,0.0050
1928.00,0.0050
1927.00,0.0049
1926.00,0.0049
1925.00,0.0049
1924.00,0.0050
1923.00,0.0051
1922.00,0.0051
1921.00,0.0052
1920.00,0.0052
1919.00,0.0052
1918.00,0.0052
1917.00,0.0052
1916.00,0.0052
1915.00,0.0053
1914.00,0.0053
1913.00,0.0052
1912.00,0.0052
1911.00,0.0053
1910.00,0.0053
1909.00,0.0053
1908.00,0.0053
1907.00,0.0053
1906.00,0.0053
1905.00,0.0054
1904.00,0.0054
1903.00,0.0054
1902.00,0.0054
1901.00,0.0054
1900.00,0.0054
1899.00,0.0054
1898.00,0.0054
1897.00,0.0054
1896.00,0.0054
1895.00,0.0054
1894.00,0.0054
1893.00,0.0054
1892.00,0.0054
1891.00,0.0055
1890.00,0.0055
1889.00,0.0055
1888.00,0.0055
1887.00,0.0055
1886.00,0.0055
1885.00,0.0055
1884.00,0.0055
1883.00,0.0055
1882.00,0.0055
1881.00,0.0055
1880.00,0.0056
1879.00,0.0056
1878.00,0.0055
1877.00,0.0055
1876.00,0.0055
1875.00,0.0055
1874.00,0.0055
1873.00,0.0055
1872.00,0.0055
1871.00,0.0055
1870.00,0.0055
1869.00,0.0055
1868.00,0.0055
1867.00,0.0055
1866.00,0.0055
1865.00,0.0055
1864.00,0.0055
1863.00,0.0055
1862.00,0.0056
1861.00,0.0056
1860.00,0.0056
1859.00,0.0056
1858.00,0.0056
1857.00,0.0056
1856.00,0.0055
1855.00,0.0055
1854.00,0.0055
1853.00,0.0055
1852.00,0.0054
1851.00,0.0054
1850.00,0.0054
1849.00,0.0055
1848.00,0.0055
1847.00,0.0056
1846.00,0.0056
1845.00,0.0056
1844.00,0.0055
1843.00,0.0055
1842.00,0.0056
1841.00,0.0056
1840.00,0.0055
1839.00,0.0055
1838.00,0.0055
1837.00,0.0055
1836.00,0.0056
1835.00,0.0056
1834.00,0.0057
1833.00,0.0057
1832.00,0.0057
1831.00,0.0057
1830.00,0.0057
1829.00,0.0057
1828.00,0.0057
1827.00,0.0057
1826.00,0.0057
1825.00,0.0057
1824.00,0.0057
1823.00,0.0058
1822.00,0.0058
1821.00,0.0057
1820.00,0.0057
1819.00,0.0056
1818.00,0.0055
1817.00,0.0055
1816.00,0.0056
1815.00,0.0056
1814.00,0.0057
1813.00,0.0058
1812.00,0.0058
1811.00,0.0059
1810.00,0.0060
1809.00,0.0061
1808.00,0.0061
1807.00,0.0062
1806.00,0.0062
1805.00,0.0063
1804.00,0.0063
1803.00,0.0063
1802.00,0.0063
1801.00,0.0063
1800.00,0.0064
1799.00,0.0064
1798.00,0.0064
1797.00,0.0064
1796.00,0.0063
1795.00,0.0062
1794.00,0.0062
1793.00,0.0061
1792.00,0.0061
1791.00,0.0061
1790.00,0.0061
1789.00,0.0061
1788.00,0.0061
1787.00,0.0061
1786.00,0.0061
1785.00,0.0062
1784.00,0.0062
1783.00,0.0062
1782.00,0.0062
1781.00,0.0062
1780.00,0.0063
1779.00,0.0063
1778.00,0.0063
1777.00,0.0064
1776.00,0.0064
1775.00,0.0065
1774.00,0.0065
1773.00,0.0066
1772.00,0.0067
1771.00,0.0067
1770.00,0.0067
1769.00,0.0067
1768.00,0.0066
1767.00,0.0065
1766.00,0.0064
1765.00,0.0063
1764.00,0.0063
1763.00,0.0062
1762.00,0.0062
1761.00,0.0062
1760.00,0.0062
1759.00,0.0061
1758.00,0.0061
1757.00,0.0061
1756.00,0.0062
1755.00,0.0061
1754.00,0.0061
1753.00,0.0061
1752.00,0.0061
1751.00,0.0061
1750.00,0.0061
1749.00,0.0061
1748.00,0.0061
1747.00,0.0061
1746.00,0.0061
1745.00,0.0061
1744.00,0.0061
1743.00,0.0061
1742.00,0.0061
1741.00,0.0061
1740.00,0.0062
1739.00,0.0062
1738.00,0.0062
1737.00,0.0062
1736.00,0.0062
1735.00,0.0062
1734.00,0.0062
1733.00,0.0062
1732.00,0.0062
1731.00,0.0062
1730.00,0.0063
1729.00,0.0063
1728.00,0.0063
1727.00,0.0063
1726.00,0.0064
1725.00,0.0064
1724.00,0.0064
1723.00,0.0065
1722.00,0.0065
1721.00,0.0065
1720.00,0.0065
1719.00,0.0065
1718.00,0.0065
1717.00,0.0065
1716.00,0.0065
1715.00,0.0065
1714.00,0.0065
1713.00,0.0065
1712.00,0.0066
1711.00,0.0067
1710.00,0.0067
1709.00,0.0067
1708.00,0.0067
1707.00,0.0068
1706.00,0.0068
1705.00,0.0068
1704.00,0.0068
1703.00,0.0068
1702.00,0.0068
1701.00,0.0068
1700.00,0.0069
1699.00,0.0069
1698.00,0.0069
1697.00,0.0069
1696.00,0.0069
1695.00,0.0070
1694.00,0.0070
1693.00,0.0070
1692.00,0.0070
1691.00,0.0070
1690.00,0.0070
1689.00,0.0070
1688.00,0.0069
1687.00,0.0069
1686.00,0.0069
1685.00,0.0069
1684.00,0.0069
1683.00,0.0069
1682.00,0.0069
1681.00,0.0069
1680.00,0.0070
1679.00,0.0070
1678.00,0.0070
1677.00,0.0070
1676.00,0.0071
1675.00,0.0072
1674.00,0.0073
1673.00,0.0073
1672.00,0.0074
1671.00,0.0075
1670.00,0.0076
1669.00,0.0078
1668.00,0.0079
1667.00,0.0081
1666.00,0.0083
1665.00,0.0084
1664.00,0.0087
1663.00,0.0088
1662.00,0.0090
1661.00,0.0090
1660.00,0.0090
1659.00,0.0090
1658.00,0.0090
1657.00,0.0090
1656.00,0.0091
1655.00,0.0093
1654.00,0.0096
1653.00,0.0102
1652.00,0.0108
1651.00,0.0114
1650.00,0.0121
1649.00,0.0131
1648.00,0.0149
1647.00,0.0176
1646.00,0.0208
1645.00,0.0234
1644.00,0.0251
1643.00,0.0258
1642.00,0.0255
1641.00,0.0247
1640.00,0.0238
1639.00,0.0233
1638.00,0.0235
1637.00,0.0246
1636.00,0.0268
1635.00,0.0296
1634.00,0.0323
1633.00,0.0345
1632.00,0.0364
1631.00,0.0380
1630.00,0.0392
1629.00,0.0402
1628.00,0.0413
1627.00,0.0427
1626.00,0.0446
1625.00,0.0467
1624.00,0.0486
1623.00,0.0495
1622.00,0.0488
1621.00,0.0470
1620.00,0.0446
1619.00,0.0416
1618.00,0.0378
1617.00,0.0333
1616.00,0.0289
1615.00,0.0257
1614.00,0.0237
1613.00,0.0222
1612.00,0.0209
1611.00,0.0196
1610.00,0.0184
1609.00,0.0174
1608.00,0.0166
1607.00,0.0159
1606.00,0.0154
1605.00,0.0150
1604.00,0.0147
1603.00,0.0145
1602.00,0.0144
1601.00,0.0145
1600.00,0.0146
1599.00,0.0149
1598.00,0.0154
1597.00,0.0160
1596.00,0.0168
1595.00,0.0179
1594.00,0.0194
1593.00,0.0214
1592.00,0.0240
1591.00,0.0273
1590.00,0.0312
1589.00,0.0357
1588.00,0.0404
1587.00,0.0449
1586.00,0.0491
1585.00,0.0528
1584.00,0.0561
1583.00,0.0587
1582.00,0.0603
1581.00,0.0606
1580.00,0.0598
1579.00,0.0580
1578.00,0.0550
1577.00,0.0504
1576.00,0.0446
1575.00,0.0394
1574.00,0.0357
1573.00,0.0332
1572.00,0.0310
1571.00,0.0287
1570.00,0.0261
1569.00,0.0235
1568.00,0.0214
1567.00,0.0198
1566.00,0.0185
1565.00,0.0173
1564.00,0.0163
1563.00,0.0155
1562.00,0.0149
1561.00,0.0145
1560.00,0.0139
1559.00,0.0132
1558.00,0.0126
1557.00,0.0123
1556.00,0.0121
1555.00,0.0119
1554.00,0.0117
1553.00,0.0115
1552.00,0.0113
1551.00,0.0111
1550.00,0.0109
1549.00,0.0107
1548.00,0.0106
1547.00,0.0104
1546.00,0.0103
1545.00,0.0102
1544.00,0.0100
1543.00,0.0099
1542.00,0.0098
1541.00,0.0098
1540.00,0.0098
1539.00,0.0098
1538.00,0.0098
1537.00,0.0098
1536.00,0.0098
1535.00,0.0098
1534.00,0.0098
1533.00,0.0098
1532.00,0.0098
1531.00,0.0098
1530.00,0.0098
1529.00,0.0099
1528.00,0.0099
1527.00,0.0100
1526.00,0.0101
1525.00,0.0103
1524.00,0.0106
1523.00,0.0110
1522.00,0.0117
1521.00,0.0126
1520.00,0.0136
1519.00,0.0146
1518.00,0.0156
1517.00,0.0167
1516.00,0.0176
1515.00,0.0183
1514.00,0.0186
1513.00,0.0185
1512.00,0.0181
1511.00,0.0174
1510.00,0.0166
1509.00,0.0159
1508.00,0.0151
1507.00,0.0141
1506.00,0.0134
1505.00,0.0130
1504.00,0.0128
1503.00,0.0127
1502.00,0.0126
1501.00,0.0125
1500.00,0.0123
1499.00,0.0120
1498.00,0.0117
1497.00,0.0114
1496.00,0.0110
1495.00,0.0107
1494.00,0.0104
1493.00,0.0103
1492.00,0.0101
1491.00,0.0099
1490.00,0.0097
1489.00,0.0095
1488.00,0.0094
1487.00,0.0093
1486.00,0.0093
1485.00,0.0093
1484.00,0.0093
1483.00,0.0093
1482.00,0.0093
1481.00,0.0094
1480.00,0.0095
1479.00,0.0096
1478.00,0.0097
1477.00,0.0099
1476.00,0.0102
1475.00,0.0105
1474.00,0.0109
1473.00,0.0116
1472.00,0.0127
1471.00,0.0141
1470.00,0.0158
1469.00,0.0177
1468.00,0.0197
1467.00,0.0214
1466.00,0.0227
1465.00,0.0235
1464.00,0.0242
1463.00,0.0248
1462.00,0.0256
1461.00,0.0265
1460.00,0.0274
1459.00,0.0281
1458.00,0.0287
1457.00,0.0294
1456.00,0.0304
1455.00,0.0318
1454.00,0.0337
1453.00,0.0363
1452.00,0.0395
1451.00,0.0431
1450.00,0.0473
1449.00,0.0520
1448.00,0.0571
1447.00,0.0618
1446.00,0.0659
1445.00,0.0690
1444.00,0.0711
1443.00,0.0720
1442.00,0.0721
1441.00,0.0718
1440.00,0.0712
1439.00,0.0704
1438.00,0.0691
1437.00,0.0669
1436.00,0.0640
1435.00,0.0613
1434.00,0.0592
1433.00,0.0573
1432.00,0.0550
1431.00,0.0521
1430.00,0.0485
1429.00,0.0444
1428.00,0.0401
1427.00,0.0360
1426.00,0.0322
1425.00,0.0288
1424.00,0.0256
1423.00,0.0231
1422.00,0.0213
1421.00,0.0199
1420.00,0.0186
1419.00,0.0173
1418.00,0.0164
1417.00,0.0156
1416.00,0.0151
1415.00,0.0146
1414.00,0.0143
1413.00,0.0139
1412.00,0.0136
1411.00,0.0133
1410.00,0.0131
1409.00,0.0129
1408.00,0.0127
1407.00,0.0125
1406.00,0.0125
1405.00,0.0123
1404.00,0.0122
1403.00,0.0121
1402.00,0.0121
1401.00,0.0120
1400.00,0.0119
1399.00,0.0118
1398.00,0.0117
1397.00,0.0117
1396.00,0.0116
1395.00,0.0115
1394.00,0.0114
1393.00,0.0113
1392.00,0.0112
1391.00,0.0112
1390.00,0.0113
1389.00,0.0114
1388.00,0.0115
1387.00,0.0117
1386.00,0.0121
1385.00,0.0126
1384.00,0.0133
1383.00,0.0144
1382.00,0.0158
1381.00,0.0177
1380.00,0.0202
1379.00,0.0232
1378.00,0.0266
1377.00,0.0299
1376.00,0.0324
1375.00,0.0337
1374.00,0.0335
1373.00,0.0321
1372.00,0.0303
1371.00,0.0285
1370.00,0.0268
1369.00,0.0252
1368.00,0.0238
1367.00,0.0226
1366.00,0.0216
1365.00,0.0207
1364.00,0.0198
1363.00,0.0189
1362.00,0.0181
1361.00,0.0174
1360.00,0.0170
1359.00,0.0167
1358.00,0.0165
1357.00,0.0164
1356.00,0.0163
1355.00,0.0163
1354.00,0.0163
1353.00,0.0164
1352.00,0.0165
1351.00,0.0166
1350.00,0.0168
1349.00,0.0170
1348.00,0.0174
1347.00,0.0178
1346.00,0.0183
1345.00,0.0188
1344.00,0.0192
1343.00,0.0196
1342.00,0.0198
1341.00,0.0198
1340.00,0.0195
1339.00,0.0189
1338.00,0.0183
1337.00,0.0177
1336.00,0.0174
1335.00,0.0173
1334.00,0.0175
1333.00,0.0179
1332.00,0.0185
1331.00,0.0191
1330.00,0.0198
1329.00,0.0205
1328.00,0.0212
1327.00,0.0218
1326.00,0.0225
1325.00,0.0231
1324.00,0.0235
1323.00,0.0235
1322.00,0.0230
1321.00,0.0223
1320.00,0.0215
1319.00,0.0211
1318.00,0.0211
1317.00,0.0218
1316.00,0.0232
1315.00,0.0253
1314.00,0.0276
1313.00,0.0299
1312.00,0.0316
1311.00,0.0325
1310.00,0.0325
1309.00,0.0319
1308.00,0.0311
1307.00,0.0305
1306.00,0.0304
1305.00,0.0308
1304.00,0.0314
1303.00,0.0322
1302.00,0.0329
1301.00,0.0332
1300.00,0.0332
1299.00,0.0329
1298.00,0.0325
1297.00,0.0319
1296.00,0.0311
1295.00,0.0303
1294.00,0.0294
1293.00,0.0285
1292.00,0.0276
1291.00,0.0268
1290.00,0.0262
1289.00,0.0257
1288.00,0.0256
1287.00,0.0259
1286.00,0.0266
1285.00,0.0277
1284.00,0.0290
1283.00,0.0303
1282.00,0.0315
1281.00,0.0326
1280.00,0.0333
1279.00,0.0338
1278.00,0.0340
1277.00,0.0338
1276.00,0.0332
1275.00,0.0323
1274.00,0.0311
1273.00,0.0296
1272.00,0.0279
1271.00,0.0260
1270.00,0.0241
1269.00,0.0223
1268.00,0.0207
1267.00,0.0192
1266.00,0.0180
1265.00,0.0170
1264.00,0.0162
1263.00,0.0155
1262.00,0.0149
1261.00,0.0144
1260.00,0.0140
1259.00,0.0137
1258.00,0.0135
1257.00,0.0133
1256.00,0.0132
1255.00,0.0133
1254.00,0.0134
1253.00,0.0138
1252.00,0.0143
1251.00,0.0149
1250.00,0.0157
1249.00,0.0165
1248.00,0.0170
1247.00,0.0174
1246.00,0.0178
1245.00,0.0184
1244.00,0.0195
1243.00,0.0212
1242.00,0.0236
1241.00,0.0267
1240.00,0.0301
1239.00,0.0335
1238.00,0.0364
1237.00,0.0384
1236.00,0.0394
1235.00,0.0396
1234.00,0.0391
1233.00,0.0383
1232.00,0.0370
1231.00,0.0357
1230.00,0.0346
1229.00,0.0343
1228.00,0.0350
1227.00,0.0367
1226.00,0.0393
1225.00,0.0423
1224.00,0.0455
1223.00,0.0489
1222.00,0.0527
1221.00,0.0570
1220.00,0.0622
1219.00,0.0683
1218.00,0.0749
1217.00,0.0815
1216.00,0.0871
1215.00,0.0908
1214.00,0.0922
1213.00,0.0912
1212.00,0.0881
1211.00,0.0835
1210.00,0.0782
1209.00,0.0727
1208.00,0.0676
1207.00,0.0629
1206.00,0.0588
1205.00,0.0550
1204.00,0.0513
1203.00,0.0476
1202.00,0.0439
1201.00,0.0402
1200.00,0.0368
1199.00,0.0338
1198.00,0.0312
1197.00,0.0291
1196.00,0.0275
1195.00,0.0263
1194.00,0.0255
1193.00,0.0250
1192.00,0.0249
1191.00,0.0250
1190.00,0.0254
1189.00,0.0259
1188.00,0.0265
1187.00,0.0271
1186.00,0.0278
1185.00,0.0286
1184.00,0.0293
1183.00,0.0300
1182.00,0.0305
1181.00,0.0309
1180.00,0.0311
1179.00,0.0314
1178.00,0.0317
1177.00,0.0320
1176.00,0.0323
1175.00,0.0329
1174.00,0.0341
1173.00,0.0354
1172.00,0.0362
1171.00,0.0358
1170.00,0.0339
1169.00,0.0309
1168.00,0.0276
1167.00,0.0247
1166.00,0.0224
1165.00,0.0206
1164.00,0.0193
1163.00,0.0183
1162.00,0.0176
1161.00,0.0171
1160.00,0.0168
1159.00,0.0168
1158.00,0.0170
1157.00,0.0176
1156.00,0.0188
1155.00,0.0209
1154.00,0.0241
1153.00,0.0282
1152.00,0.0327
1151.00,0.0361
1150.00,0.0373
1149.00,0.0357
1148.00,0.0319
1147.00,0.0275
1146.00,0.0236
1145.00,0.0206
1144.00,0.0185
1143.00,0.0172
1142.00,0.0164
1141.00,0.0159
1140.00,0.0157
1139.00,0.0157
1138.00,0.0160
1137.00,0.0164
1136.00,0.0167
1135.00,0.0169
1134.00,0.0169
1133.00,0.0166
1132.00,0.0161
1131.00,0.0154
1130.00,0.0148
1129.00,0.0142
1128.00,0.0137
1127.00,0.0132
1126.00,0.0129
1125.00,0.0126
1124.00,0.0124
1123.00,0.0123
1122.00,0.0122
1121.00,0.0121
1120.00,0.0121
1119.00,0.0121
1118.00,0.0122
1117.00,0.0123
1116.00,0.0124
1115.00,0.0125
1114.00,0.0126
1113.00,0.0128
1112.00,0.0129
1111.00,0.0131
1110.00,0.0134
1109.00,0.0138
1108.00,0.0142
1107.00,0.0147
1106.00,0.0153
1105.00,0.0159
1104.00,0.0165
1103.00,0.0173
1102.00,0.0183
1101.00,0.0193
1100.00,0.0202
1099.00,0.0207
1098.00,0.0208
1097.00,0.0202
1096.00,0.0192
1095.00,0.0180
1094.00,0.0170
1093.00,0.0162
1092.00,0.0155
1091.00,0.0150
1090.00,0.0147
1089.00,0.0144
1088.00,0.0142
1087.00,0.0142
1086.00,0.0146
1085.00,0.0152
1084.00,0.0160
1083.00,0.0172
1082.00,0.0185
1081.00,0.0198
1080.00,0.0207
1079.00,0.0210
1078.00,0.0208
1077.00,0.0199
1076.00,0.0188
1075.00,0.0178
1074.00,0.0169
1073.00,0.0162
1072.00,0.0156
1071.00,0.0152
1070.00,0.0149
1069.00,0.0146
1068.00,0.0144
1067.00,0.0143
1066.00,0.0143
1065.00,0.0143
1064.00,0.0145
1063.00,0.0147
1062.00,0.0152
1061.00,0.0158
1060.00,0.0166
1059.00,0.0178
1058.00,0.0198
1057.00,0.0226
1056.00,0.0264
1055.00,0.0308
1054.00,0.0354
1053.00,0.0391
1052.00,0.0414
1051.00,0.0424
1050.00,0.0419
1049.00,0.0402
1048.00,0.0373
1047.00,0.0339
1046.00,0.0306
1045.00,0.0279
1044.00,0.0260
1043.00,0.0251
1042.00,0.0250
1041.00,0.0253
1040.00,0.0260
1039.00,0.0270
1038.00,0.0286
1037.00,0.0309
1036.00,0.0340
1035.00,0.0379
1034.00,0.0420
1033.00,0.0456
1032.00,0.0476
1031.00,0.0478
1030.00,0.0463
1029.00,0.0438
1028.00,0.0410
1027.00,0.0389
1026.00,0.0379
1025.00,0.0383
1024.00,0.0401
1023.00,0.0435
1022.00,0.0480
1021.00,0.0530
1020.00,0.0573
1019.00,0.0598
1018.00,0.0600
1017.00,0.0580
1016.00,0.0545
1015.00,0.0504
1014.00,0.0463
1013.00,0.0426
1012.00,0.0395
1011.00,0.0372
1010.00,0.0358
1009.00,0.0352
1008.00,0.0353
1007.00,0.0360
1006.00,0.0373
1005.00,0.0392
1004.00,0.0411
1003.00,0.0426
1002.00,0.0433
1001.00,0.0429
1000.00,0.0413
999.00,0.0387
998.00,0.0356
997.00,0.0322
996.00,0.0292
995.00,0.0268
994.00,0.0251
993.00,0.0240
992.00,0.0234
991.00,0.0234
990.00,0.0237
989.00,0.0243
988.00,0.0249
987.00,0.0256
986.00,0.0261
985.00,0.0264
984.00,0.0262
983.00,0.0255
982.00,0.0245
981.00,0.0233
980.00,0.0222
979.00,0.0214
978.00,0.0209
977.00,0.0205
976.00,0.0201
975.00,0.0198
974.00,0.0196
973.00,0.0195
972.00,0.0195
971.00,0.0198
970.00,0.0204
969.00,0.0211
968.00,0.0220
967.00,0.0230
966.00,0.0241
965.00,0.0254
964.00,0.0269
963.00,0.0285
962.00,0.0298
961.00,0.0304
960.00,0.0299
959.00,0.0284
958.00,0.0263
957.00,0.0240
956.00,0.0219
955.00,0.0202
954.00,0.0188
953.00,0.0178
952.00,0.0169
951.00,0.0163
950.00,0.0159
949.00,0.0155
948.00,0.0152
947.00,0.0149
946.00,0.0147
945.00,0.0145
944.00,0.0143
943.00,0.0141
942.00,0.0140
941.00,0.0139
940.00,0.0138
939.00,0.0137
938.00,0.0137
937.00,0.0137
936.00,0.0137
935.00,0.0137
934.00,0.0138
933.00,0.0140
932.00,0.0142
931.00,0.0145
930.00,0.0148
929.00,0.0150
928.00,0.0151
927.00,0.0150
926.00,0.0150
925.00,0.0150
924.00,0.0149
923.00,0.0148
922.00,0.0148
921.00,0.0149
920.00,0.0150
919.00,0.0154
918.00,0.0159
917.00,0.0165
916.00,0.0170
915.00,0.0173
914.00,0.0174
913.00,0.0173
912.00,0.0171
911.00,0.0170
910.00,0.0172
909.00,0.0176
908.00,0.0184
907.00,0.0196
906.00,0.0212
905.00,0.0232
904.00,0.0253
903.00,0.0278
902.00,0.0309
901.00,0.0348
900.00,0.0398
899.00,0.0457
898.00,0.0516
897.00,0.0562
896.00,0.0581
895.00,0.0569
894.00,0.0534
893.00,0.0487
892.00,0.0440
891.00,0.0401
890.00,0.0377
889.00,0.0372
888.00,0.0389
887.00,0.0430
886.00,0.0494
885.00,0.0567
884.00,0.0628
883.00,0.0655
882.00,0.0638
881.00,0.0585
880.00,0.0513
879.00,0.0442
878.00,0.0384
877.00,0.0341
876.00,0.0312
875.00,0.0295
874.00,0.0288
873.00,0.0289
872.00,0.0297
871.00,0.0309
870.00,0.0319
869.00,0.0321
868.00,0.0316
867.00,0.0310
866.00,0.0309
865.00,0.0320
864.00,0.0339
863.00,0.0363
862.00,0.0384
861.00,0.0394
860.00,0.0395
859.00,0.0391
858.00,0.0388
857.00,0.0391
856.00,0.0398
855.00,0.0409
854.00,0.0420
853.00,0.0430
852.00,0.0437
851.00,0.0440
850.00,0.0438
849.00,0.0429
848.00,0.0413
847.00,0.0395
846.00,0.0381
845.00,0.0371
844.00,0.0364
843.00,0.0358
842.00,0.0352
841.00,0.0345
840.00,0.0337
839.00,0.0332
838.00,0.0331
837.00,0.0334
836.00,0.0340
835.00,0.0349
834.00,0.0362
833.00,0.0376
832.00,0.0391
831.00,0.0406
830.00,0.0420
829.00,0.0431
828.00,0.0437
827.00,0.0436
826.00,0.0428
825.00,0.0412
824.00,0.0390
823.00,0.0363
822.00,0.0337
821.00,0.0310
820.00,0.0284
819.00,0.0262
818.00,0.0244
817.00,0.0230
816.00,0.0219
815.00,0.0212
814.00,0.0206
813.00,0.0202
812.00,0.0199
811.00,0.0198
810.00,0.0202
809.00,0.0215
808.00,0.0238
807.00,0.0274
806.00,0.0317
805.00,0.0351
804.00,0.0366
803.00,0.0358
802.00,0.0333
801.00,0.0302
800.00,0.0272
799.00,0.0248
798.00,0.0230
797.00,0.0217
796.00,0.0206
795.00,0.0199
794.00,0.0196
793.00,0.0194
792.00,0.0193
791.00,0.0191
790.00,0.0189
789.00,0.0188
788.00,0.0186
787.00,0.0187
786.00,0.0189
785.00,0.0189
784.00,0.0187
783.00,0.0182
782.00,0.0177
781.00,0.0173
780.00,0.0171
779.00,0.0169
778.00,0.0170
777.00,0.0169
776.00,0.0168
775.00,0.0166
774.00,0.0164
773.00,0.0164
772.00,0.0164
771.00,0.0166
770.00,0.0167
769.00,0.0166
768.00,0.0163
767.00,0.0158
766.00,0.0153
765.00,0.0149
764.00,0.0144
763.00,0.0141
762.00,0.0139
761.00,0.0138
760.00,0.0137
759.00,0.0137
758.00,0.0139
757.00,0.0142
756.00,0.0147
755.00,0.0155
754.00,0.0167
753.00,0.0179
752.00,0.0189
751.00,0.0197
750.00,0.0203
749.00,0.0206
748.00,0.0205
747.00,0.0199
746.00,0.0189
745.00,0.0176
744.00,0.0164
743.00,0.0155
742.00,0.0150
741.00,0.0146
740.00,0.0144
739.00,0.0142
738.00,0.0143
737.00,0.0144
736.00,0.0147
735.00,0.0153
734.00,0.0162
733.00,0.0174
732.00,0.0186
731.00,0.0193
730.00,0.0195
729.00,0.0189
728.00,0.0179
727.00,0.0170
726.00,0.0165
725.00,0.0162
724.00,0.0159
723.00,0.0157
722.00,0.0156
721.00,0.0155
720.00,0.0153
719.00,0.0151
718.00,0.0149
717.00,0.0145
716.00,0.0140
715.00,0.0137
714.00,0.0135
713.00,0.0134
712.00,0.0133
711.00,0.0133
710.00,0.0133
709.00,0.0131
708.00,0.0128
707.00,0.0125
706.00,0.0123
705.00,0.0122
704.00,0.0120
703.00,0.0119
702.00,0.0119
701.00,0.0119
700.00,0.0118
699.00,0.0118
698.00,0.0118
697.00,0.0118
696.00,0.0117
695.00,0.0116
694.00,0.0117
693.00,0.0118
692.00,0.0118
691.00,0.0117
690.00,0.0118
689.00,0.0118
688.00,0.0118
687.00,0.0118
686.00,0.0120
685.00,0.0121
684.00,0.0122
683.00,0.0122
682.00,0.0124
681.00,0.0125
680.00,0.0126
679.00,0.0128
678.00,0.0132
677.00,0.0135
676.00,0.0137
675.00,0.0141
674.00,0.0146
673.00,0.0152
672.00,0.0159
671.00,0.0169
670.00,0.0180
669.00,0.0190
668.00,0.0196
667.00,0.0198
666.00,0.0198
665.00,0.0199
664.00,0.0201
663.00,0.0202
662.00,0.0203
661.00,0.0204
660.00,0.0203
659.00,0.0204
658.00,0.0204
657.00,0.0203
656.00,0.0201
655.00,0.0198
654.00,0.0198
653.00,0.0200
652.00,0.0204
651.00,0.0209
650.00,0.0216
649.00,0.0221
648.00,0.0221
647.00,0.0218
646.00,0.0213
645.00,0.0205
644.00,0.0196
643.00,0.0187
642.00,0.0180
641.00,0.0174
640.00,0.0169
639.00,0.0167
638.00,0.0167
637.00,0.0168
636.00,0.0169
635.00,0.0170
634.00,0.0171
633.00,0.0173
632.00,0.0174
631.00,0.0177
630.00,0.0181
629.00,0.0186
628.00,0.0189
627.00,0.0192
626.00,0.0197
625.00,0.0201
624.00,0.0202
623.00,0.0202
622.00,0.0200
621.00,0.0196
620.00,0.0189
619.00,0.0180
618.00,0.0173
617.00,0.0168
616.00,0.0167
615.00,0.0172
614.00,0.0184
613.00,0.0201
612.00,0.0216
611.00,0.0227
610.00,0.0231
609.00,0.0229
608.00,0.0223
607.00,0.0219
606.00,0.0219
605.00,0.0222
604.00,0.0225
603.00,0.0229
602.00,0.0235
601.00,0.0243
600.00,0.0250
599.00,0.0257
598.00,0.0263
597.00,0.0264
596.00,0.0262
595.00,0.0260
594.00,0.0262
593.00,0.0267
592.00,0.0276
591.00,0.0290
590.00,0.0307
589.00,0.0323
588.00,0.0336
587.00,0.0345
586.00,0.0348
585.00,0.0345
584.00,0.0334
583.00,0.0321
582.00,0.0307
581.00,0.0293
580.00,0.0278
579.00,0.0267
578.00,0.0261
577.00,0.0258
576.00,0.0256
575.00,0.0257
574.00,0.0261
573.00,0.0265
572.00,0.0268
571.00,0.0270
570.00,0.0275
569.00,0.0280
568.00,0.0283
567.00,0.0285
566.00,0.0288
565.00,0.0291
564.00,0.0292
563.00,0.0293
562.00,0.0295
561.00,0.0296
560.00,0.0294
559.00,0.0293
558.00,0.0294
557.00,0.0295
556.00,0.0294
555.00,0.0293
554.00,0.0296
553.00,0.0301
552.00,0.0305
551.00,0.0312
550.00,0.0320
549.00,0.0328
548.00,0.0333
547.00,0.0342
546.00,0.0353
545.00,0.0364
544.00,0.0369
543.00,0.0373
542.00,0.0378
541.00,0.0385
540.00,0.0394
539.00,0.0410
538.00,0.0432
537.00,0.0453
536.00,0.0467
535.00,0.0473
534.00,0.0473
533.00,0.0465
532.00,0.0453
531.00,0.0441
530.00,0.0434
529.00,0.0431
528.00,0.0434
527.00,0.0448
526.00,0.0473
525.00,0.0502
524.00,0.0530
523.00,0.0554
522.00,0.0570
521.00,0.0567
520.00,0.0541
519.00,0.0501
518.00,0.0458
517.00,0.0422
516.00,0.0392
515.00,0.0372
514.00,0.0363
513.00,0.0361
512.00,0.0361
511.00,0.0364
510.00,0.0371
509.00,0.0380
508.00,0.0391
507.00,0.0406
506.00,0.0428
505.00,0.0450
504.00,0.0470
503.00,0.0490
502.00,0.0514
501.00,0.0538
500.00,0.0558
499.00,0.0577
498.00,0.0598
497.00,0.0614
496.00,0.0623
495.00,0.0628
494.00,0.0633
493.00,0.0635
492.00,0.0631
491.00,0.0627
490.00,0.0624
489.00,0.0621
488.00,0.0616
487.00,0.0613
486.00,0.0614
485.00,0.0613
484.00,0.0606
483.00,0.0597
482.00,0.0589
481.00,0.0578
480.00,0.0564
479.00,0.0551
478.00,0.0543
477.00,0.0536
476.00,0.0529
475.00,0.0525
474.00,0.0528
473.00,0.0534
472.00,0.0538
471.00,0.0545
470.00,0.0557
469.00,0.0568
468.00,0.0573
467.00,0.0576
466.00,0.0583
465.00,0.0586
464.00,0.0583
463.00,0.0580
462.00,0.0581
461.00,0.0583
460.00,0.0579
459.00,0.0574
458.00,0.0571
457.00,0.0565
456.00,0.0554
455.00,0.0547
454.00,0.0549
453.00,0.0551
452.00,0.0547
451.00,0.0541
450.00,0.0538
449.00,0.0533
448.00,0.0522
447.00,0.0510
446.00,0.0501
445.00,0.0492
444.00,0.0480
443.00,0.0470
442.00,0.0468
441.00,0.0467
440.00,0.0461
439.00,0.0456
438.00,0.0457
437.00,0.0458
436.00,0.0454
435.00,0.0451
434.00,0.0453
433.00,0.0454
432.00,0.0452
431.00,0.0455
430.00,0.0469
429.00,0.0486
428.00,0.0502
427.00,0.0522
426.00,0.0550
425.00,0.0572
424.00,0.0577
423.00,0.0573
422.00,0.0571
421.00,0.0567
420.00,0.0553
419.00,0.0539
418.00,0.0539
417.00,0.0540
416.00,0.0533
415.00,0.0528
414.00,0.0535
413.00,0.0543
412.00,0.0544
411.00,0.0549
410.00,0.0568
409.00,0.0590
408.00,0.0602
407.00,0.0611
406.00,0.0625
405.00,0.0631
404.00,0.0626
403.00,0.0629
402.00,0.0651
401.00,0.0673
400.00,0.0677
