Created as New Dataset,Sample 638 By YargerLab Date Saturday, June 07 2025
cm-1,A
4000.00,0.0087
3999.00,0.0087
3998.00,0.0087
3997.00,0.0087
3996.00,0.0087
3995.00,0.0087
3994.00,0.0087
3993.00,0.0087
3992.00,0.0087
3991.00,0.0087
3990.00,0.0087
3989.00,0.0087
3988.00,0.0087
3987.00,0.0087
3986.00,0.0087
3985.00,0.0087
3984.00,0.0087
3983.00,0.0087
3982.00,0.0087
3981.00,0.0087
3980.00,0.0087
3979.00,0.0087
3978.00,0.0086
3977.00,0.0086
3976.00,0.0086
3975.00,0.0086
3974.00,0.0086
3973.00,0.0086
3972.00,0.0087
3971.00,0.0086
3970.00,0.0086
3969.00,0.0086
3968.00,0.0086
3967.00,0.0086
3966.00,0.0086
3965.00,0.0086
3964.00,0.0086
3963.00,0.0086
3962.00,0.0085
3961.00,0.0085
3960.00,0.0085
3959.00,0.0085
3958.00,0.0086
3957.00,0.0086
3956.00,0.0086
3955.00,0.0086
3954.00,0.0085
3953.00,0.0085
3952.00,0.0085
3951.00,0.0085
3950.00,0.0085
3949.00,0.0085
3948.00,0.0084
3947.00,0.0084
3946.00,0.0084
3945.00,0.0084
3944.00,0.0084
3943.00,0.0085
3942.00,0.0085
3941.00,0.0085
3940.00,0.0085
3939.00,0.0085
3938.00,0.0085
3937.00,0.0085
3936.00,0.0085
3935.00,0.0084
3934.00,0.0084
3933.00,0.0083
3932.00,0.0084
3931.00,0.0085
3930.00,0.0085
3929.00,0.0086
3928.00,0.0086
3927.00,0.0086
3926.00,0.0087
3925.00,0.0087
3924.00,0.0087
3923.00,0.0087
3922.00,0.0086
3921.00,0.0085
3920.00,0.0084
3919.00,0.0084
3918.00,0.0084
3917.00,0.0084
3916.00,0.0084
3915.00,0.0085
3914.00,0.0085
3913.00,0.0085
3912.00,0.0086
3911.00,0.0086
3910.00,0.0086
3909.00,0.0086
3908.00,0.0085
3907.00,0.0085
3906.00,0.0084
3905.00,0.0082
3904.00,0.0080
3903.00,0.0078
3902.00,0.0077
3901.00,0.0076
3900.00,0.0077
3899.00,0.0078
3898.00,0.0079
3897.00,0.0080
3896.00,0.0080
3895.00,0.0081
3894.00,0.0082
3893.00,0.0083
3892.00,0.0083
3891.00,0.0083
3890.00,0.0082
3889.00,0.0081
3888.00,0.0079
3887.00,0.0078
3886.00,0.0078
3885.00,0.0079
3884.00,0.0079
3883.00,0.0078
3882.00,0.0078
3881.00,0.0078
3880.00,0.0079
3879.00,0.0079
3878.00,0.0079
3877.00,0.0079
3876.00,0.0078
3875.00,0.0079
3874.00,0.0080
3873.00,0.0080
3872.00,0.0079
3871.00,0.0078
3870.00,0.0077
3869.00,0.0077
3868.00,0.0077
3867.00,0.0077
3866.00,0.0076
3865.00,0.0076
3864.00,0.0077
3863.00,0.0078
3862.00,0.0077
3861.00,0.0076
3860.00,0.0077
3859.00,0.0078
3858.00,0.0080
3857.00,0.0083
3856.00,0.0084
3855.00,0.0083
3854.00,0.0082
3853.00,0.0080
3852.00,0.0078
3851.00,0.0077
3850.00,0.0076
3849.00,0.0076
3848.00,0.0076
3847.00,0.0077
3846.00,0.0077
3845.00,0.0077
3844.00,0.0077
3843.00,0.0076
3842.00,0.0076
3841.00,0.0076
3840.00,0.0076
3839.00,0.0076
3838.00,0.0076
3837.00,0.0076
3836.00,0.0076
3835.00,0.0076
3834.00,0.0076
3833.00,0.0076
3832.00,0.0076
3831.00,0.0077
3830.00,0.0077
3829.00,0.0077
3828.00,0.0077
3827.00,0.0077
3826.00,0.0078
3825.00,0.0078
3824.00,0.0077
3823.00,0.0075
3822.00,0.0075
3821.00,0.0076
3820.00,0.0077
3819.00,0.0077
3818.00,0.0076
3817.00,0.0076
3816.00,0.0076
3815.00,0.0078
3814.00,0.0079
3813.00,0.0079
3812.00,0.0079
3811.00,0.0080
3810.00,0.0081
3809.00,0.0080
3808.00,0.0080
3807.00,0.0079
3806.00,0.0078
3805.00,0.0078
3804.00,0.0077
3803.00,0.0076
3802.00,0.0076
3801.00,0.0077
3800.00,0.0077
3799.00,0.0077
3798.00,0.0076
3797.00,0.0076
3796.00,0.0077
3795.00,0.0079
3794.00,0.0079
3793.00,0.0080
3792.00,0.0080
3791.00,0.0081
3790.00,0.0082
3789.00,0.0082
3788.00,0.0082
3787.00,0.0082
3786.00,0.0081
3785.00,0.0081
3784.00,0.0081
3783.00,0.0080
3782.00,0.0079
3781.00,0.0079
3780.00,0.0079
3779.00,0.0079
3778.00,0.0079
3777.00,0.0079
3776.00,0.0079
3775.00,0.0079
3774.00,0.0080
3773.00,0.0079
3772.00,0.0079
3771.00,0.0078
3770.00,0.0077
3769.00,0.0077
3768.00,0.0076
3767.00,0.0076
3766.00,0.0076
3765.00,0.0076
3764.00,0.0077
3763.00,0.0077
3762.00,0.0076
3761.00,0.0076
3760.00,0.0076
3759.00,0.0076
3758.00,0.0076
3757.00,0.0075
3756.00,0.0075
3755.00,0.0074
3754.00,0.0073
3753.00,0.0073
3752.00,0.0072
3751.00,0.0071
3750.00,0.0070
3749.00,0.0069
3748.00,0.0069
3747.00,0.0069
3746.00,0.0068
3745.00,0.0068
3744.00,0.0068
3743.00,0.0069
3742.00,0.0069
3741.00,0.0068
3740.00,0.0067
3739.00,0.0066
3738.00,0.0066
3737.00,0.0065
3736.00,0.0066
3735.00,0.0067
3734.00,0.0068
3733.00,0.0068
3732.00,0.0068
3731.00,0.0069
3730.00,0.0071
3729.00,0.0072
3728.00,0.0072
3727.00,0.0072
3726.00,0.0072
3725.00,0.0073
3724.00,0.0073
3723.00,0.0073
3722.00,0.0073
3721.00,0.0074
3720.00,0.0074
3719.00,0.0075
3718.00,0.0075
3717.00,0.0075
3716.00,0.0075
3715.00,0.0074
3714.00,0.0073
3713.00,0.0073
3712.00,0.0072
3711.00,0.0072
3710.00,0.0072
3709.00,0.0072
3708.00,0.0072
3707.00,0.0072
3706.00,0.0073
3705.00,0.0073
3704.00,0.0073
3703.00,0.0074
3702.00,0.0074
3701.00,0.0075
3700.00,0.0075
3699.00,0.0074
3698.00,0.0074
3697.00,0.0074
3696.00,0.0075
3695.00,0.0075
3694.00,0.0074
3693.00,0.0074
3692.00,0.0074
3691.00,0.0074
3690.00,0.0073
3689.00,0.0072
3688.00,0.0071
3687.00,0.0071
3686.00,0.0071
3685.00,0.0072
3684.00,0.0072
3683.00,0.0072
3682.00,0.0072
3681.00,0.0071
3680.00,0.0071
3679.00,0.0071
3678.00,0.0071
3677.00,0.0069
3676.00,0.0068
3675.00,0.0068
3674.00,0.0068
3673.00,0.0068
3672.00,0.0066
3671.00,0.0066
3670.00,0.0067
3669.00,0.0068
3668.00,0.0069
3667.00,0.0069
3666.00,0.0069
3665.00,0.0070
3664.00,0.0072
3663.00,0.0073
3662.00,0.0073
3661.00,0.0073
3660.00,0.0073
3659.00,0.0073
3658.00,0.0073
3657.00,0.0072
3656.00,0.0071
3655.00,0.0070
3654.00,0.0069
3653.00,0.0067
3652.00,0.0065
3651.00,0.0064
3650.00,0.0064
3649.00,0.0063
3648.00,0.0063
3647.00,0.0063
3646.00,0.0064
3645.00,0.0065
3644.00,0.0067
3643.00,0.0068
3642.00,0.0070
3641.00,0.0071
3640.00,0.0071
3639.00,0.0071
3638.00,0.0071
3637.00,0.0070
3636.00,0.0069
3635.00,0.0069
3634.00,0.0069
3633.00,0.0069
3632.00,0.0068
3631.00,0.0067
3630.00,0.0066
3629.00,0.0065
3628.00,0.0065
3627.00,0.0064
3626.00,0.0064
3625.00,0.0065
3624.00,0.0065
3623.00,0.0066
3622.00,0.0067
3621.00,0.0068
3620.00,0.0068
3619.00,0.0067
3618.00,0.0066
3617.00,0.0065
3616.00,0.0064
3615.00,0.0063
3614.00,0.0063
3613.00,0.0063
3612.00,0.0063
3611.00,0.0063
3610.00,0.0062
3609.00,0.0063
3608.00,0.0064
3607.00,0.0065
3606.00,0.0066
3605.00,0.0066
3604.00,0.0067
3603.00,0.0067
3602.00,0.0068
3601.00,0.0068
3600.00,0.0068
3599.00,0.0067
3598.00,0.0067
3597.00,0.0067
3596.00,0.0066
3595.00,0.0067
3594.00,0.0067
3593.00,0.0066
3592.00,0.0066
3591.00,0.0065
3590.00,0.0064
3589.00,0.0064
3588.00,0.0064
3587.00,0.0065
3586.00,0.0065
3585.00,0.0065
3584.00,0.0065
3583.00,0.0066
3582.00,0.0066
3581.00,0.0067
3580.00,0.0068
3579.00,0.0068
3578.00,0.0068
3577.00,0.0069
3576.00,0.0069
3575.00,0.0069
3574.00,0.0069
3573.00,0.0068
3572.00,0.0067
3571.00,0.0066
3570.00,0.0065
3569.00,0.0063
3568.00,0.0063
3567.00,0.0063
3566.00,0.0063
3565.00,0.0064
3564.00,0.0064
3563.00,0.0065
3562.00,0.0066
3561.00,0.0067
3560.00,0.0067
3559.00,0.0068
3558.00,0.0069
3557.00,0.0069
3556.00,0.0068
3555.00,0.0068
3554.00,0.0068
3553.00,0.0068
3552.00,0.0069
3551.00,0.0068
3550.00,0.0068
3549.00,0.0067
3548.00,0.0066
3547.00,0.0066
3546.00,0.0066
3545.00,0.0066
3544.00,0.0067
3543.00,0.0068
3542.00,0.0068
3541.00,0.0069
3540.00,0.0069
3539.00,0.0069
3538.00,0.0069
3537.00,0.0069
3536.00,0.0069
3535.00,0.0069
3534.00,0.0069
3533.00,0.0068
3532.00,0.0068
3531.00,0.0068
3530.00,0.0068
3529.00,0.0068
3528.00,0.0067
3527.00,0.0067
3526.00,0.0067
3525.00,0.0066
3524.00,0.0066
3523.00,0.0067
3522.00,0.0067
3521.00,0.0067
3520.00,0.0068
3519.00,0.0068
3518.00,0.0068
3517.00,0.0068
3516.00,0.0068
3515.00,0.0068
3514.00,0.0068
3513.00,0.0068
3512.00,0.0068
3511.00,0.0068
3510.00,0.0067
3509.00,0.0067
3508.00,0.0067
3507.00,0.0067
3506.00,0.0067
3505.00,0.0067
3504.00,0.0067
3503.00,0.0067
3502.00,0.0067
3501.00,0.0067
3500.00,0.0067
3499.00,0.0067
3498.00,0.0067
3497.00,0.0067
3496.00,0.0067
3495.00,0.0067
3494.00,0.0067
3493.00,0.0067
3492.00,0.0067
3491.00,0.0068
3490.00,0.0068
3489.00,0.0068
3488.00,0.0068
3487.00,0.0067
3486.00,0.0067
3485.00,0.0067
3484.00,0.0067
3483.00,0.0067
3482.00,0.0067
3481.00,0.0067
3480.00,0.0067
3479.00,0.0067
3478.00,0.0067
3477.00,0.0067
3476.00,0.0067
3475.00,0.0067
3474.00,0.0067
3473.00,0.0067
3472.00,0.0067
3471.00,0.0067
3470.00,0.0067
3469.00,0.0067
3468.00,0.0067
3467.00,0.0067
3466.00,0.0067
3465.00,0.0067
3464.00,0.0067
3463.00,0.0067
3462.00,0.0067
3461.00,0.0067
3460.00,0.0067
3459.00,0.0067
3458.00,0.0067
3457.00,0.0068
3456.00,0.0068
3455.00,0.0067
3454.00,0.0067
3453.00,0.0068
3452.00,0.0068
3451.00,0.0068
3450.00,0.0067
3449.00,0.0067
3448.00,0.0067
3447.00,0.0067
3446.00,0.0068
3445.00,0.0068
3444.00,0.0068
3443.00,0.0068
3442.00,0.0068
3441.00,0.0068
3440.00,0.0068
3439.00,0.0068
3438.00,0.0069
3437.00,0.0069
3436.00,0.0070
3435.00,0.0070
3434.00,0.0070
3433.00,0.0071
3432.00,0.0071
3431.00,0.0072
3430.00,0.0072
3429.00,0.0073
3428.00,0.0073
3427.00,0.0074
3426.00,0.0074
3425.00,0.0075
3424.00,0.0075
3423.00,0.0076
3422.00,0.0077
3421.00,0.0078
3420.00,0.0079
3419.00,0.0080
3418.00,0.0081
3417.00,0.0082
3416.00,0.0083
3415.00,0.0084
3414.00,0.0085
3413.00,0.0087
3412.00,0.0088
3411.00,0.0090
3410.00,0.0092
3409.00,0.0095
3408.00,0.0098
3407.00,0.0101
3406.00,0.0103
3405.00,0.0106
3404.00,0.0108
3403.00,0.0111
3402.00,0.0113
3401.00,0.0117
3400.00,0.0122
3399.00,0.0128
3398.00,0.0134
3397.00,0.0141
3396.00,0.0147
3395.00,0.0154
3394.00,0.0160
3393.00,0.0168
3392.00,0.0178
3391.00,0.0189
3390.00,0.0202
3389.00,0.0216
3388.00,0.0232
3387.00,0.0249
3386.00,0.0268
3385.00,0.0289
3384.00,0.0312
3383.00,0.0336
3382.00,0.0363
3381.00,0.0392
3380.00,0.0422
3379.00,0.0454
3378.00,0.0486
3377.00,0.0518
3376.00,0.0548
3375.00,0.0575
3374.00,0.0598
3373.00,0.0617
3372.00,0.0630
3371.00,0.0638
3370.00,0.0641
3369.00,0.0639
3368.00,0.0635
3367.00,0.0627
3366.00,0.0616
3365.00,0.0603
3364.00,0.0587
3363.00,0.0570
3362.00,0.0551
3361.00,0.0532
3360.00,0.0513
3359.00,0.0493
3358.00,0.0474
3357.00,0.0456
3356.00,0.0437
3355.00,0.0419
3354.00,0.0401
3353.00,0.0384
3352.00,0.0368
3351.00,0.0353
3350.00,0.0339
3349.00,0.0327
3348.00,0.0315
3347.00,0.0303
3346.00,0.0293
3345.00,0.0283
3344.00,0.0273
3343.00,0.0265
3342.00,0.0257
3341.00,0.0249
3340.00,0.0242
3339.00,0.0235
3338.00,0.0230
3337.00,0.0224
3336.00,0.0219
3335.00,0.0214
3334.00,0.0210
3333.00,0.0205
3332.00,0.0201
3331.00,0.0198
3330.00,0.0194
3329.00,0.0191
3328.00,0.0188
3327.00,0.0185
3326.00,0.0182
3325.00,0.0180
3324.00,0.0178
3323.00,0.0176
3322.00,0.0174
3321.00,0.0172
3320.00,0.0170
3319.00,0.0169
3318.00,0.0167
3317.00,0.0166
3316.00,0.0164
3315.00,0.0163
3314.00,0.0161
3313.00,0.0159
3312.00,0.0158
3311.00,0.0156
3310.00,0.0155
3309.00,0.0153
3308.00,0.0152
3307.00,0.0151
3306.00,0.0150
3305.00,0.0149
3304.00,0.0148
3303.00,0.0148
3302.00,0.0147
3301.00,0.0146
3300.00,0.0144
3299.00,0.0143
3298.00,0.0141
3297.00,0.0139
3296.00,0.0137
3295.00,0.0136
3294.00,0.0134
3293.00,0.0133
3292.00,0.0132
3291.00,0.0131
3290.00,0.0130
3289.00,0.0129
3288.00,0.0128
3287.00,0.0127
3286.00,0.0125
3285.00,0.0124
3284.00,0.0123
3283.00,0.0121
3282.00,0.0120
3281.00,0.0119
3280.00,0.0117
3279.00,0.0116
3278.00,0.0114
3277.00,0.0113
3276.00,0.0112
3275.00,0.0111
3274.00,0.0109
3273.00,0.0109
3272.00,0.0108
3271.00,0.0107
3270.00,0.0107
3269.00,0.0107
3268.00,0.0108
3267.00,0.0108
3266.00,0.0108
3265.00,0.0108
3264.00,0.0107
3263.00,0.0107
3262.00,0.0107
3261.00,0.0107
3260.00,0.0106
3259.00,0.0106
3258.00,0.0105
3257.00,0.0105
3256.00,0.0105
3255.00,0.0106
3254.00,0.0106
3253.00,0.0107
3252.00,0.0107
3251.00,0.0107
3250.00,0.0107
3249.00,0.0106
3248.00,0.0106
3247.00,0.0106
3246.00,0.0106
3245.00,0.0107
3244.00,0.0108
3243.00,0.0109
3242.00,0.0109
3241.00,0.0109
3240.00,0.0110
3239.00,0.0110
3238.00,0.0110
3237.00,0.0109
3236.00,0.0108
3235.00,0.0107
3234.00,0.0107
3233.00,0.0107
3232.00,0.0107
3231.00,0.0108
3230.00,0.0108
3229.00,0.0108
3228.00,0.0107
3227.00,0.0107
3226.00,0.0106
3225.00,0.0105
3224.00,0.0104
3223.00,0.0103
3222.00,0.0103
3221.00,0.0102
3220.00,0.0100
3219.00,0.0099
3218.00,0.0098
3217.00,0.0097
3216.00,0.0097
3215.00,0.0096
3214.00,0.0096
3213.00,0.0095
3212.00,0.0095
3211.00,0.0094
3210.00,0.0094
3209.00,0.0093
3208.00,0.0092
3207.00,0.0092
3206.00,0.0091
3205.00,0.0090
3204.00,0.0090
3203.00,0.0089
3202.00,0.0089
3201.00,0.0089
3200.00,0.0089
3199.00,0.0088
3198.00,0.0088
3197.00,0.0088
3196.00,0.0087
3195.00,0.0087
3194.00,0.0087
3193.00,0.0087
3192.00,0.0086
3191.00,0.0086
3190.00,0.0086
3189.00,0.0085
3188.00,0.0085
3187.00,0.0085
3186.00,0.0085
3185.00,0.0085
3184.00,0.0085
3183.00,0.0085
3182.00,0.0085
3181.00,0.0085
3180.00,0.0085
3179.00,0.0085
3178.00,0.0084
3177.00,0.0084
3176.00,0.0084
3175.00,0.0084
3174.00,0.0084
3173.00,0.0084
3172.00,0.0084
3171.00,0.0083
3170.00,0.0083
3169.00,0.0083
3168.00,0.0083
3167.00,0.0083
3166.00,0.0084
3165.00,0.0084
3164.00,0.0083
3163.00,0.0083
3162.00,0.0083
3161.00,0.0083
3160.00,0.0083
3159.00,0.0083
3158.00,0.0083
3157.00,0.0082
3156.00,0.0082
3155.00,0.0082
3154.00,0.0082
3153.00,0.0082
3152.00,0.0082
3151.00,0.0083
3150.00,0.0083
3149.00,0.0084
3148.00,0.0084
3147.00,0.0084
3146.00,0.0085
3145.00,0.0085
3144.00,0.0085
3143.00,0.0085
3142.00,0.0085
3141.00,0.0085
3140.00,0.0085
3139.00,0.0085
3138.00,0.0085
3137.00,0.0085
3136.00,0.0086
3135.00,0.0086
3134.00,0.0086
3133.00,0.0087
3132.00,0.0087
3131.00,0.0087
3130.00,0.0087
3129.00,0.0088
3128.00,0.0088
3127.00,0.0089
3126.00,0.0090
3125.00,0.0090
3124.00,0.0090
3123.00,0.0090
3122.00,0.0090
3121.00,0.0091
3120.00,0.0091
3119.00,0.0091
3118.00,0.0092
3117.00,0.0093
3116.00,0.0094
3115.00,0.0095
3114.00,0.0096
3113.00,0.0097
3112.00,0.0098
3111.00,0.0099
3110.00,0.0100
3109.00,0.0101
3108.00,0.0102
3107.00,0.0103
3106.00,0.0104
3105.00,0.0104
3104.00,0.0105
3103.00,0.0106
3102.00,0.0106
3101.00,0.0107
3100.00,0.0108
3099.00,0.0108
3098.00,0.0108
3097.00,0.0108
3096.00,0.0108
3095.00,0.0107
3094.00,0.0107
3093.00,0.0106
3092.00,0.0106
3091.00,0.0105
3090.00,0.0104
3089.00,0.0104
3088.00,0.0103
3087.00,0.0103
3086.00,0.0102
3085.00,0.0102
3084.00,0.0102
3083.00,0.0102
3082.00,0.0102
3081.00,0.0102
3080.00,0.0102
3079.00,0.0103
3078.00,0.0103
3077.00,0.0104
3076.00,0.0105
3075.00,0.0107
3074.00,0.0108
3073.00,0.0110
3072.00,0.0112
3071.00,0.0113
3070.00,0.0114
3069.00,0.0113
3068.00,0.0112
3067.00,0.0110
3066.00,0.0107
3065.00,0.0105
3064.00,0.0102
3063.00,0.0100
3062.00,0.0098
3061.00,0.0096
3060.00,0.0095
3059.00,0.0094
3058.00,0.0094
3057.00,0.0094
3056.00,0.0095
3055.00,0.0095
3054.00,0.0096
3053.00,0.0096
3052.00,0.0096
3051.00,0.0095
3050.00,0.0095
3049.00,0.0094
3048.00,0.0093
3047.00,0.0092
3046.00,0.0091
3045.00,0.0090
3044.00,0.0090
3043.00,0.0089
3042.00,0.0089
3041.00,0.0089
3040.00,0.0089
3039.00,0.0089
3038.00,0.0090
3037.00,0.0090
3036.00,0.0089
3035.00,0.0089
3034.00,0.0089
3033.00,0.0090
3032.00,0.0091
3031.00,0.0092
3030.00,0.0093
3029.00,0.0094
3028.00,0.0096
3027.00,0.0097
3026.00,0.0098
3025.00,0.0100
3024.00,0.0101
3023.00,0.0103
3022.00,0.0104
3021.00,0.0106
3020.00,0.0107
3019.00,0.0108
3018.00,0.0110
3017.00,0.0111
3016.00,0.0112
3015.00,0.0113
3014.00,0.0114
3013.00,0.0115
3012.00,0.0117
3011.00,0.0120
3010.00,0.0122
3009.00,0.0125
3008.00,0.0129
3007.00,0.0132
3006.00,0.0135
3005.00,0.0139
3004.00,0.0142
3003.00,0.0145
3002.00,0.0149
3001.00,0.0153
3000.00,0.0157
2999.00,0.0162
2998.00,0.0167
2997.00,0.0172
2996.00,0.0178
2995.00,0.0184
2994.00,0.0189
2993.00,0.0194
2992.00,0.0199
2991.00,0.0204
2990.00,0.0207
2989.00,0.0209
2988.00,0.0211
2987.00,0.0212
2986.00,0.0213
2985.00,0.0215
2984.00,0.0216
2983.00,0.0217
2982.00,0.0218
2981.00,0.0218
2980.00,0.0216
2979.00,0.0213
2978.00,0.0208
2977.00,0.0202
2976.00,0.0195
2975.00,0.0187
2974.00,0.0181
2973.00,0.0175
2972.00,0.0170
2971.00,0.0167
2970.00,0.0164
2969.00,0.0163
2968.00,0.0162
2967.00,0.0162
2966.00,0.0163
2965.00,0.0164
2964.00,0.0167
2963.00,0.0171
2962.00,0.0174
2961.00,0.0179
2960.00,0.0183
2959.00,0.0188
2958.00,0.0192
2957.00,0.0197
2956.00,0.0202
2955.00,0.0206
2954.00,0.0212
2953.00,0.0218
2952.00,0.0224
2951.00,0.0230
2950.00,0.0234
2949.00,0.0237
2948.00,0.0238
2947.00,0.0238
2946.00,0.0235
2945.00,0.0232
2944.00,0.0229
2943.00,0.0225
2942.00,0.0222
2941.00,0.0218
2940.00,0.0213
2939.00,0.0209
2938.00,0.0205
2937.00,0.0202
2936.00,0.0198
2935.00,0.0195
2934.00,0.0190
2933.00,0.0185
2932.00,0.0180
2931.00,0.0174
2930.00,0.0169
2929.00,0.0165
2928.00,0.0161
2927.00,0.0158
2926.00,0.0154
2925.00,0.0151
2924.00,0.0148
2923.00,0.0145
2922.00,0.0142
2921.00,0.0139
2920.00,0.0137
2919.00,0.0134
2918.00,0.0133
2917.00,0.0131
2916.00,0.0131
2915.00,0.0130
2914.00,0.0130
2913.00,0.0130
2912.00,0.0131
2911.00,0.0131
2910.00,0.0132
2909.00,0.0133
2908.00,0.0134
2907.00,0.0135
2906.00,0.0135
2905.00,0.0136
2904.00,0.0136
2903.00,0.0136
2902.00,0.0136
2901.00,0.0136
2900.00,0.0136
2899.00,0.0135
2898.00,0.0134
2897.00,0.0133
2896.00,0.0132
2895.00,0.0131
2894.00,0.0130
2893.00,0.0129
2892.00,0.0128
2891.00,0.0127
2890.00,0.0126
2889.00,0.0125
2888.00,0.0124
2887.00,0.0124
2886.00,0.0123
2885.00,0.0122
2884.00,0.0121
2883.00,0.0121
2882.00,0.0120
2881.00,0.0119
2880.00,0.0119
2879.00,0.0118
2878.00,0.0117
2877.00,0.0116
2876.00,0.0115
2875.00,0.0114
2874.00,0.0113
2873.00,0.0112
2872.00,0.0111
2871.00,0.0110
2870.00,0.0108
2869.00,0.0107
2868.00,0.0105
2867.00,0.0104
2866.00,0.0103
2865.00,0.0103
2864.00,0.0102
2863.00,0.0101
2862.00,0.0100
2861.00,0.0100
2860.00,0.0099
2859.00,0.0099
2858.00,0.0100
2857.00,0.0100
2856.00,0.0100
2855.00,0.0101
2854.00,0.0101
2853.00,0.0101
2852.00,0.0102
2851.00,0.0101
2850.00,0.0101
2849.00,0.0101
2848.00,0.0101
2847.00,0.0101
2846.00,0.0102
2845.00,0.0102
2844.00,0.0103
2843.00,0.0104
2842.00,0.0105
2841.00,0.0105
2840.00,0.0105
2839.00,0.0106
2838.00,0.0106
2837.00,0.0106
2836.00,0.0106
2835.00,0.0105
2834.00,0.0104
2833.00,0.0103
2832.00,0.0102
2831.00,0.0102
2830.00,0.0101
2829.00,0.0100
2828.00,0.0099
2827.00,0.0098
2826.00,0.0097
2825.00,0.0096
2824.00,0.0095
2823.00,0.0094
2822.00,0.0093
2821.00,0.0093
2820.00,0.0093
2819.00,0.0093
2818.00,0.0094
2817.00,0.0094
2816.00,0.0094
2815.00,0.0094
2814.00,0.0094
2813.00,0.0095
2812.00,0.0095
2811.00,0.0096
2810.00,0.0096
2809.00,0.0096
2808.00,0.0096
2807.00,0.0097
2806.00,0.0097
2805.00,0.0097
2804.00,0.0097
2803.00,0.0097
2802.00,0.0096
2801.00,0.0096
2800.00,0.0095
2799.00,0.0095
2798.00,0.0094
2797.00,0.0093
2796.00,0.0093
2795.00,0.0092
2794.00,0.0091
2793.00,0.0090
2792.00,0.0089
2791.00,0.0088
2790.00,0.0087
2789.00,0.0086
2788.00,0.0085
2787.00,0.0084
2786.00,0.0083
2785.00,0.0083
2784.00,0.0082
2783.00,0.0082
2782.00,0.0081
2781.00,0.0080
2780.00,0.0080
2779.00,0.0079
2778.00,0.0079
2777.00,0.0079
2776.00,0.0078
2775.00,0.0078
2774.00,0.0078
2773.00,0.0077
2772.00,0.0078
2771.00,0.0078
2770.00,0.0078
2769.00,0.0078
2768.00,0.0078
2767.00,0.0078
2766.00,0.0078
2765.00,0.0078
2764.00,0.0078
2763.00,0.0078
2762.00,0.0078
2761.00,0.0078
2760.00,0.0078
2759.00,0.0078
2758.00,0.0077
2757.00,0.0077
2756.00,0.0077
2755.00,0.0076
2754.00,0.0076
2753.00,0.0076
2752.00,0.0076
2751.00,0.0075
2750.00,0.0075
2749.00,0.0075
2748.00,0.0075
2747.00,0.0075
2746.00,0.0074
2745.00,0.0074
2744.00,0.0074
2743.00,0.0074
2742.00,0.0074
2741.00,0.0073
2740.00,0.0073
2739.00,0.0073
2738.00,0.0073
2737.00,0.0073
2736.00,0.0073
2735.00,0.0073
2734.00,0.0073
2733.00,0.0072
2732.00,0.0072
2731.00,0.0072
2730.00,0.0072
2729.00,0.0072
2728.00,0.0071
2727.00,0.0071
2726.00,0.0071
2725.00,0.0071
2724.00,0.0070
2723.00,0.0070
2722.00,0.0070
2721.00,0.0070
2720.00,0.0070
2719.00,0.0070
2718.00,0.0070
2717.00,0.0069
2716.00,0.0069
2715.00,0.0069
2714.00,0.0069
2713.00,0.0069
2712.00,0.0069
2711.00,0.0069
2710.00,0.0069
2709.00,0.0070
2708.00,0.0070
2707.00,0.0070
2706.00,0.0070
2705.00,0.0070
2704.00,0.0070
2703.00,0.0070
2702.00,0.0070
2701.00,0.0070
2700.00,0.0070
2699.00,0.0070
2698.00,0.0070
2697.00,0.0070
2696.00,0.0070
2695.00,0.0070
2694.00,0.0070
2693.00,0.0070
2692.00,0.0070
2691.00,0.0070
2690.00,0.0070
2689.00,0.0070
2688.00,0.0070
2687.00,0.0069
2686.00,0.0069
2685.00,0.0069
2684.00,0.0069
2683.00,0.0068
2682.00,0.0068
2681.00,0.0068
2680.00,0.0068
2679.00,0.0068
2678.00,0.0068
2677.00,0.0068
2676.00,0.0068
2675.00,0.0068
2674.00,0.0067
2673.00,0.0067
2672.00,0.0067
2671.00,0.0067
2670.00,0.0068
2669.00,0.0068
2668.00,0.0068
2667.00,0.0069
2666.00,0.0069
2665.00,0.0070
2664.00,0.0070
2663.00,0.0071
2662.00,0.0071
2661.00,0.0072
2660.00,0.0072
2659.00,0.0072
2658.00,0.0072
2657.00,0.0073
2656.00,0.0073
2655.00,0.0073
2654.00,0.0073
2653.00,0.0073
2652.00,0.0073
2651.00,0.0072
2650.00,0.0072
2649.00,0.0072
2648.00,0.0072
2647.00,0.0073
2646.00,0.0073
2645.00,0.0073
2644.00,0.0073
2643.00,0.0073
2642.00,0.0073
2641.00,0.0073
2640.00,0.0073
2639.00,0.0073
2638.00,0.0073
2637.00,0.0073
2636.00,0.0074
2635.00,0.0074
2634.00,0.0074
2633.00,0.0074
2632.00,0.0074
2631.00,0.0073
2630.00,0.0073
2629.00,0.0073
2628.00,0.0074
2627.00,0.0074
2626.00,0.0074
2625.00,0.0075
2624.00,0.0075
2623.00,0.0075
2622.00,0.0075
2621.00,0.0075
2620.00,0.0075
2619.00,0.0074
2618.00,0.0074
2617.00,0.0075
2616.00,0.0075
2615.00,0.0075
2614.00,0.0075
2613.00,0.0075
2612.00,0.0075
2611.00,0.0075
2610.00,0.0075
2609.00,0.0075
2608.00,0.0075
2607.00,0.0075
2606.00,0.0074
2605.00,0.0074
2604.00,0.0074
2603.00,0.0074
2602.00,0.0074
2601.00,0.0074
2600.00,0.0074
2599.00,0.0073
2598.00,0.0073
2597.00,0.0073
2596.00,0.0073
2595.00,0.0073
2594.00,0.0073
2593.00,0.0072
2592.00,0.0072
2591.00,0.0072
2590.00,0.0072
2589.00,0.0071
2588.00,0.0071
2587.00,0.0071
2586.00,0.0071
2585.00,0.0070
2584.00,0.0070
2583.00,0.0069
2582.00,0.0069
2581.00,0.0069
2580.00,0.0069
2579.00,0.0069
2578.00,0.0068
2577.00,0.0068
2576.00,0.0068
2575.00,0.0068
2574.00,0.0068
2573.00,0.0068
2572.00,0.0068
2571.00,0.0068
2570.00,0.0068
2569.00,0.0067
2568.00,0.0067
2567.00,0.0066
2566.00,0.0066
2565.00,0.0066
2564.00,0.0066
2563.00,0.0067
2562.00,0.0067
2561.00,0.0067
2560.00,0.0067
2559.00,0.0068
2558.00,0.0068
2557.00,0.0068
2556.00,0.0068
2555.00,0.0068
2554.00,0.0068
2553.00,0.0067
2552.00,0.0067
2551.00,0.0067
2550.00,0.0067
2549.00,0.0067
2548.00,0.0066
2547.00,0.0066
2546.00,0.0065
2545.00,0.0065
2544.00,0.0064
2543.00,0.0064
2542.00,0.0063
2541.00,0.0063
2540.00,0.0063
2539.00,0.0063
2538.00,0.0063
2537.00,0.0063
2536.00,0.0062
2535.00,0.0062
2534.00,0.0062
2533.00,0.0061
2532.00,0.0061
2531.00,0.0062
2530.00,0.0062
2529.00,0.0062
2528.00,0.0062
2527.00,0.0062
2526.00,0.0062
2525.00,0.0063
2524.00,0.0063
2523.00,0.0064
2522.00,0.0064
2521.00,0.0064
2520.00,0.0065
2519.00,0.0065
2518.00,0.0065
2517.00,0.0065
2516.00,0.0065
2515.00,0.0065
2514.00,0.0065
2513.00,0.0064
2512.00,0.0065
2511.00,0.0065
2510.00,0.0065
2509.00,0.0065
2508.00,0.0065
2507.00,0.0065
2506.00,0.0065
2505.00,0.0064
2504.00,0.0065
2503.00,0.0065
2502.00,0.0065
2501.00,0.0064
2500.00,0.0064
2499.00,0.0064
2498.00,0.0064
2497.00,0.0064
2496.00,0.0064
2495.00,0.0064
2494.00,0.0064
2493.00,0.0063
2492.00,0.0063
2491.00,0.0062
2490.00,0.0062
2489.00,0.0062
2488.00,0.0063
2487.00,0.0063
2486.00,0.0063
2485.00,0.0064
2484.00,0.0064
2483.00,0.0064
2482.00,0.0064
2481.00,0.0064
2480.00,0.0064
2479.00,0.0064
2478.00,0.0064
2477.00,0.0065
2476.00,0.0065
2475.00,0.0064
2474.00,0.0063
2473.00,0.0063
2472.00,0.0062
2471.00,0.0062
2470.00,0.0062
2469.00,0.0062
2468.00,0.0062
2467.00,0.0062
2466.00,0.0062
2465.00,0.0062
2464.00,0.0063
2463.00,0.0063
2462.00,0.0063
2461.00,0.0063
2460.00,0.0063
2459.00,0.0063
2458.00,0.0063
2457.00,0.0063
2456.00,0.0063
2455.00,0.0062
2454.00,0.0062
2453.00,0.0062
2452.00,0.0062
2451.00,0.0062
2450.00,0.0062
2449.00,0.0061
2448.00,0.0061
2447.00,0.0061
2446.00,0.0060
2445.00,0.0060
2444.00,0.0060
2443.00,0.0060
2442.00,0.0060
2441.00,0.0059
2440.00,0.0059
2439.00,0.0059
2438.00,0.0058
2437.00,0.0058
2436.00,0.0058
2435.00,0.0058
2434.00,0.0059
2433.00,0.0059
2432.00,0.0059
2431.00,0.0059
2430.00,0.0059
2429.00,0.0059
2428.00,0.0058
2427.00,0.0058
2426.00,0.0058
2425.00,0.0058
2424.00,0.0058
2423.00,0.0058
2422.00,0.0058
2421.00,0.0058
2420.00,0.0059
2419.00,0.0058
2418.00,0.0058
2417.00,0.0058
2416.00,0.0058
2415.00,0.0059
2414.00,0.0059
2413.00,0.0059
2412.00,0.0059
2411.00,0.0058
2410.00,0.0058
2409.00,0.0057
2408.00,0.0056
2407.00,0.0056
2406.00,0.0055
2405.00,0.0055
2404.00,0.0055
2403.00,0.0054
2402.00,0.0054
2401.00,0.0054
2400.00,0.0054
2399.00,0.0054
2398.00,0.0053
2397.00,0.0053
2396.00,0.0053
2395.00,0.0053
2394.00,0.0053
2393.00,0.0053
2392.00,0.0053
2391.00,0.0053
2390.00,0.0052
2389.00,0.0052
2388.00,0.0052
2387.00,0.0052
2386.00,0.0052
2385.00,0.0051
2384.00,0.0051
2383.00,0.0050
2382.00,0.0050
2381.00,0.0050
2380.00,0.0050
2379.00,0.0050
2378.00,0.0049
2377.00,0.0049
2376.00,0.0049
2375.00,0.0049
2374.00,0.0049
2373.00,0.0050
2372.00,0.0049
2371.00,0.0049
2370.00,0.0048
2369.00,0.0048
2368.00,0.0048
2367.00,0.0048
2366.00,0.0048
2365.00,0.0049
2364.00,0.0050
2363.00,0.0050
2362.00,0.0050
2361.00,0.0050
2360.00,0.0050
2359.00,0.0050
2358.00,0.0049
2357.00,0.0049
2356.00,0.0050
2355.00,0.0050
2354.00,0.0050
2353.00,0.0050
2352.00,0.0050
2351.00,0.0050
2350.00,0.0050
2349.00,0.0051
2348.00,0.0052
2347.00,0.0052
2346.00,0.0052
2345.00,0.0052
2344.00,0.0053
2343.00,0.0053
2342.00,0.0053
2341.00,0.0054
2340.00,0.0054
2339.00,0.0054
2338.00,0.0054
2337.00,0.0054
2336.00,0.0054
2335.00,0.0054
2334.00,0.0054
2333.00,0.0054
2332.00,0.0054
2331.00,0.0054
2330.00,0.0055
2329.00,0.0057
2328.00,0.0060
2327.00,0.0064
2326.00,0.0067
2325.00,0.0068
2324.00,0.0067
2323.00,0.0064
2322.00,0.0061
2321.00,0.0060
2320.00,0.0058
2319.00,0.0057
2318.00,0.0057
2317.00,0.0056
2316.00,0.0056
2315.00,0.0056
2314.00,0.0055
2313.00,0.0054
2312.00,0.0053
2311.00,0.0053
2310.00,0.0052
2309.00,0.0052
2308.00,0.0052
2307.00,0.0052
2306.00,0.0052
2305.00,0.0053
2304.00,0.0054
2303.00,0.0054
2302.00,0.0055
2301.00,0.0055
2300.00,0.0055
2299.00,0.0056
2298.00,0.0056
2297.00,0.0057
2296.00,0.0058
2295.00,0.0059
2294.00,0.0059
2293.00,0.0060
2292.00,0.0061
2291.00,0.0062
2290.00,0.0062
2289.00,0.0063
2288.00,0.0063
2287.00,0.0064
2286.00,0.0063
2285.00,0.0062
2284.00,0.0061
2283.00,0.0060
2282.00,0.0059
2281.00,0.0058
2280.00,0.0058
2279.00,0.0057
2278.00,0.0057
2277.00,0.0057
2276.00,0.0056
2275.00,0.0056
2274.00,0.0055
2273.00,0.0055
2272.00,0.0055
2271.00,0.0055
2270.00,0.0054
2269.00,0.0053
2268.00,0.0052
2267.00,0.0051
2266.00,0.0050
2265.00,0.0050
2264.00,0.0051
2263.00,0.0051
2262.00,0.0051
2261.00,0.0052
2260.00,0.0052
2259.00,0.0052
2258.00,0.0051
2257.00,0.0050
2256.00,0.0049
2255.00,0.0048
2254.00,0.0048
2253.00,0.0048
2252.00,0.0049
2251.00,0.0049
2250.00,0.0050
2249.00,0.0050
2248.00,0.0050
2247.00,0.0049
2246.00,0.0048
2245.00,0.0048
2244.00,0.0049
2243.00,0.0049
2242.00,0.0049
2241.00,0.0049
2240.00,0.0049
2239.00,0.0048
2238.00,0.0047
2237.00,0.0047
2236.00,0.0046
2235.00,0.0045
2234.00,0.0044
2233.00,0.0043
2232.00,0.0044
2231.00,0.0044
2230.00,0.0044
2229.00,0.0045
2228.00,0.0045
2227.00,0.0045
2226.00,0.0044
2225.00,0.0044
2224.00,0.0044
2223.00,0.0043
2222.00,0.0042
2221.00,0.0041
2220.00,0.0041
2219.00,0.0041
2218.00,0.0041
2217.00,0.0042
2216.00,0.0042
2215.00,0.0042
2214.00,0.0041
2213.00,0.0041
2212.00,0.0041
2211.00,0.0040
2210.00,0.0039
2209.00,0.0037
2208.00,0.0037
2207.00,0.0036
2206.00,0.0036
2205.00,0.0036
2204.00,0.0036
2203.00,0.0036
2202.00,0.0035
2201.00,0.0034
2200.00,0.0034
2199.00,0.0033
2198.00,0.0032
2197.00,0.0031
2196.00,0.0031
2195.00,0.0031
2194.00,0.0031
2193.00,0.0031
2192.00,0.0033
2191.00,0.0034
2190.00,0.0034
2189.00,0.0035
2188.00,0.0036
2187.00,0.0036
2186.00,0.0036
2185.00,0.0036
2184.00,0.0035
2183.00,0.0034
2182.00,0.0031
2181.00,0.0030
2180.00,0.0030
2179.00,0.0030
2178.00,0.0030
2177.00,0.0030
2176.00,0.0031
2175.00,0.0033
2174.00,0.0034
2173.00,0.0038
2172.00,0.0043
2171.00,0.0047
2170.00,0.0049
2169.00,0.0051
2168.00,0.0052
2167.00,0.0053
2166.00,0.0053
2165.00,0.0055
2164.00,0.0058
2163.00,0.0059
2162.00,0.0052
2161.00,0.0039
2160.00,0.0025
2159.00,0.0013
2158.00,0.0007
2157.00,0.0007
2156.00,0.0010
2155.00,0.0013
2154.00,0.0014
2153.00,0.0017
2152.00,0.0020
2151.00,0.0023
2150.00,0.0024
2149.00,0.0024
2148.00,0.0025
2147.00,0.0024
2146.00,0.0023
2145.00,0.0024
2144.00,0.0025
2143.00,0.0026
2142.00,0.0025
2141.00,0.0025
2140.00,0.0025
2139.00,0.0024
2138.00,0.0022
2137.00,0.0020
2136.00,0.0018
2135.00,0.0017
2134.00,0.0016
2133.00,0.0017
2132.00,0.0020
2131.00,0.0022
2130.00,0.0023
2129.00,0.0025
2128.00,0.0026
2127.00,0.0027
2126.00,0.0028
2125.00,0.0029
2124.00,0.0030
2123.00,0.0031
2122.00,0.0031
2121.00,0.0031
2120.00,0.0032
2119.00,0.0033
2118.00,0.0034
2117.00,0.0035
2116.00,0.0037
2115.00,0.0038
2114.00,0.0038
2113.00,0.0038
2112.00,0.0039
2111.00,0.0039
2110.00,0.0039
2109.00,0.0040
2108.00,0.0041
2107.00,0.0041
2106.00,0.0041
2105.00,0.0041
2104.00,0.0042
2103.00,0.0043
2102.00,0.0043
2101.00,0.0044
2100.00,0.0045
2099.00,0.0044
2098.00,0.0041
2097.00,0.0039
2096.00,0.0037
2095.00,0.0036
2094.00,0.0035
2093.00,0.0036
2092.00,0.0038
2091.00,0.0038
2090.00,0.0039
2089.00,0.0039
2088.00,0.0039
2087.00,0.0039
2086.00,0.0039
2085.00,0.0039
2084.00,0.0040
2083.00,0.0040
2082.00,0.0040
2081.00,0.0040
2080.00,0.0041
2079.00,0.0040
2078.00,0.0040
2077.00,0.0039
2076.00,0.0040
2075.00,0.0040
2074.00,0.0039
2073.00,0.0039
2072.00,0.0039
2071.00,0.0039
2070.00,0.0038
2069.00,0.0038
2068.00,0.0038
2067.00,0.0037
2066.00,0.0036
2065.00,0.0036
2064.00,0.0037
2063.00,0.0037
2062.00,0.0037
2061.00,0.0036
2060.00,0.0036
2059.00,0.0036
2058.00,0.0035
2057.00,0.0033
2056.00,0.0033
2055.00,0.0033
2054.00,0.0035
2053.00,0.0039
2052.00,0.0043
2051.00,0.0042
2050.00,0.0037
2049.00,0.0033
2048.00,0.0030
2047.00,0.0029
2046.00,0.0028
2045.00,0.0027
2044.00,0.0027
2043.00,0.0027
2042.00,0.0025
2041.00,0.0025
2040.00,0.0026
2039.00,0.0026
2038.00,0.0026
2037.00,0.0026
2036.00,0.0026
2035.00,0.0024
2034.00,0.0021
2033.00,0.0019
2032.00,0.0020
2031.00,0.0020
2030.00,0.0019
2029.00,0.0021
2028.00,0.0023
2027.00,0.0023
2026.00,0.0021
2025.00,0.0021
2024.00,0.0021
2023.00,0.0021
2022.00,0.0021
2021.00,0.0021
2020.00,0.0023
2019.00,0.0023
2018.00,0.0023
2017.00,0.0024
2016.00,0.0027
2015.00,0.0028
2014.00,0.0026
2013.00,0.0026
2012.00,0.0027
2011.00,0.0027
2010.00,0.0026
2009.00,0.0025
2008.00,0.0024
2007.00,0.0023
2006.00,0.0021
2005.00,0.0021
2004.00,0.0024
2003.00,0.0026
2002.00,0.0026
2001.00,0.0027
2000.00,0.0029
1999.00,0.0030
1998.00,0.0030
1997.00,0.0032
1996.00,0.0033
1995.00,0.0034
1994.00,0.0034
1993.00,0.0035
1992.00,0.0038
1991.00,0.0038
1990.00,0.0036
1989.00,0.0036
1988.00,0.0038
1987.00,0.0040
1986.00,0.0041
1985.00,0.0043
1984.00,0.0046
1983.00,0.0050
1982.00,0.0051
1981.00,0.0051
1980.00,0.0047
1979.00,0.0039
1978.00,0.0031
1977.00,0.0027
1976.00,0.0028
1975.00,0.0029
1974.00,0.0028
1973.00,0.0029
1972.00,0.0031
1971.00,0.0032
1970.00,0.0030
1969.00,0.0030
1968.00,0.0030
1967.00,0.0029
1966.00,0.0027
1965.00,0.0025
1964.00,0.0025
1963.00,0.0024
1962.00,0.0022
1961.00,0.0020
1960.00,0.0021
1959.00,0.0021
1958.00,0.0021
1957.00,0.0022
1956.00,0.0024
1955.00,0.0024
1954.00,0.0022
1953.00,0.0022
1952.00,0.0022
1951.00,0.0023
1950.00,0.0022
1949.00,0.0023
1948.00,0.0026
1947.00,0.0027
1946.00,0.0027
1945.00,0.0028
1944.00,0.0030
1943.00,0.0031
1942.00,0.0030
1941.00,0.0030
1940.00,0.0030
1939.00,0.0030
1938.00,0.0029
1937.00,0.0029
1936.00,0.0031
1935.00,0.0031
1934.00,0.0031
1933.00,0.0032
1932.00,0.0033
1931.00,0.0033
1930.00,0.0032
1929.00,0.0032
1928.00,0.0033
1927.00,0.0034
1926.00,0.0034
1925.00,0.0035
1924.00,0.0037
1923.00,0.0039
1922.00,0.0040
1921.00,0.0042
1920.00,0.0044
1919.00,0.0045
1918.00,0.0046
1917.00,0.0047
1916.00,0.0047
1915.00,0.0047
1914.00,0.0045
1913.00,0.0045
1912.00,0.0044
1911.00,0.0044
1910.00,0.0042
1909.00,0.0042
1908.00,0.0043
1907.00,0.0042
1906.00,0.0041
1905.00,0.0040
1904.00,0.0040
1903.00,0.0040
1902.00,0.0038
1901.00,0.0038
1900.00,0.0038
1899.00,0.0038
1898.00,0.0037
1897.00,0.0036
1896.00,0.0037
1895.00,0.0036
1894.00,0.0035
1893.00,0.0035
1892.00,0.0036
1891.00,0.0037
1890.00,0.0038
1889.00,0.0038
1888.00,0.0038
1887.00,0.0038
1886.00,0.0037
1885.00,0.0037
1884.00,0.0038
1883.00,0.0038
1882.00,0.0037
1881.00,0.0037
1880.00,0.0038
1879.00,0.0038
1878.00,0.0038
1877.00,0.0037
1876.00,0.0038
1875.00,0.0037
1874.00,0.0036
1873.00,0.0036
1872.00,0.0036
1871.00,0.0037
1870.00,0.0037
1869.00,0.0038
1868.00,0.0038
1867.00,0.0038
1866.00,0.0036
1865.00,0.0036
1864.00,0.0037
1863.00,0.0038
1862.00,0.0038
1861.00,0.0038
1860.00,0.0040
1859.00,0.0041
1858.00,0.0041
1857.00,0.0042
1856.00,0.0043
1855.00,0.0044
1854.00,0.0044
1853.00,0.0044
1852.00,0.0044
1851.00,0.0043
1850.00,0.0041
1849.00,0.0040
1848.00,0.0039
1847.00,0.0037
1846.00,0.0036
1845.00,0.0035
1844.00,0.0036
1843.00,0.0036
1842.00,0.0034
1841.00,0.0033
1840.00,0.0034
1839.00,0.0034
1838.00,0.0034
1837.00,0.0034
1836.00,0.0035
1835.00,0.0035
1834.00,0.0034
1833.00,0.0034
1832.00,0.0035
1831.00,0.0037
1830.00,0.0037
1829.00,0.0037
1828.00,0.0036
1827.00,0.0036
1826.00,0.0035
1825.00,0.0035
1824.00,0.0035
1823.00,0.0035
1822.00,0.0034
1821.00,0.0033
1820.00,0.0033
1819.00,0.0032
1818.00,0.0031
1817.00,0.0030
1816.00,0.0032
1815.00,0.0033
1814.00,0.0034
1813.00,0.0035
1812.00,0.0036
1811.00,0.0037
1810.00,0.0037
1809.00,0.0037
1808.00,0.0038
1807.00,0.0038
1806.00,0.0038
1805.00,0.0038
1804.00,0.0039
1803.00,0.0040
1802.00,0.0040
1801.00,0.0041
1800.00,0.0042
1799.00,0.0043
1798.00,0.0042
1797.00,0.0042
1796.00,0.0043
1795.00,0.0044
1794.00,0.0044
1793.00,0.0045
1792.00,0.0047
1791.00,0.0047
1790.00,0.0045
1789.00,0.0044
1788.00,0.0044
1787.00,0.0045
1786.00,0.0044
1785.00,0.0044
1784.00,0.0045
1783.00,0.0045
1782.00,0.0045
1781.00,0.0045
1780.00,0.0045
1779.00,0.0045
1778.00,0.0044
1777.00,0.0044
1776.00,0.0044
1775.00,0.0045
1774.00,0.0045
1773.00,0.0047
1772.00,0.0050
1771.00,0.0050
1770.00,0.0049
1769.00,0.0048
1768.00,0.0049
1767.00,0.0050
1766.00,0.0050
1765.00,0.0051
1764.00,0.0053
1763.00,0.0056
1762.00,0.0057
1761.00,0.0058
1760.00,0.0059
1759.00,0.0059
1758.00,0.0059
1757.00,0.0061
1756.00,0.0062
1755.00,0.0062
1754.00,0.0060
1753.00,0.0059
1752.00,0.0060
1751.00,0.0062
1750.00,0.0063
1749.00,0.0064
1748.00,0.0066
1747.00,0.0066
1746.00,0.0067
1745.00,0.0068
1744.00,0.0070
1743.00,0.0072
1742.00,0.0073
1741.00,0.0074
1740.00,0.0077
1739.00,0.0079
1738.00,0.0078
1737.00,0.0077
1736.00,0.0078
1735.00,0.0080
1734.00,0.0082
1733.00,0.0084
1732.00,0.0087
1731.00,0.0090
1730.00,0.0092
1729.00,0.0094
1728.00,0.0098
1727.00,0.0101
1726.00,0.0102
1725.00,0.0105
1724.00,0.0110
1723.00,0.0115
1722.00,0.0118
1721.00,0.0123
1720.00,0.0131
1719.00,0.0140
1718.00,0.0151
1717.00,0.0168
1716.00,0.0189
1715.00,0.0211
1714.00,0.0233
1713.00,0.0261
1712.00,0.0297
1711.00,0.0339
1710.00,0.0388
1709.00,0.0449
1708.00,0.0525
1707.00,0.0618
1706.00,0.0728
1705.00,0.0845
1704.00,0.0953
1703.00,0.1046
1702.00,0.1143
1701.00,0.1272
1700.00,0.1414
1699.00,0.1517
1698.00,0.1570
1697.00,0.1602
1696.00,0.1628
1695.00,0.1646
1694.00,0.1656
1693.00,0.1667
1692.00,0.1689
1691.00,0.1726
1690.00,0.1773
1689.00,0.1814
1688.00,0.1837
1687.00,0.1839
1686.00,0.1820
1685.00,0.1773
1684.00,0.1689
1683.00,0.1583
1682.00,0.1473
1681.00,0.1359
1680.00,0.1241
1679.00,0.1129
1678.00,0.1027
1677.00,0.0934
1676.00,0.0845
1675.00,0.0763
1674.00,0.0696
1673.00,0.0645
1672.00,0.0603
1671.00,0.0568
1670.00,0.0538
1669.00,0.0509
1668.00,0.0483
1667.00,0.0461
1666.00,0.0444
1665.00,0.0429
1664.00,0.0416
1663.00,0.0404
1662.00,0.0395
1661.00,0.0386
1660.00,0.0379
1659.00,0.0375
1658.00,0.0375
1657.00,0.0376
1656.00,0.0377
1655.00,0.0385
1654.00,0.0410
1653.00,0.0449
1652.00,0.0486
1651.00,0.0516
1650.00,0.0547
1649.00,0.0584
1648.00,0.0636
1647.00,0.0701
1646.00,0.0763
1645.00,0.0806
1644.00,0.0825
1643.00,0.0824
1642.00,0.0807
1641.00,0.0776
1640.00,0.0736
1639.00,0.0693
1638.00,0.0652
1637.00,0.0616
1636.00,0.0588
1635.00,0.0570
1634.00,0.0563
1633.00,0.0566
1632.00,0.0578
1631.00,0.0598
1630.00,0.0630
1629.00,0.0674
1628.00,0.0727
1627.00,0.0783
1626.00,0.0838
1625.00,0.0894
1624.00,0.0952
1623.00,0.1006
1622.00,0.1046
1621.00,0.1067
1620.00,0.1071
1619.00,0.1064
1618.00,0.1047
1617.00,0.1017
1616.00,0.0976
1615.00,0.0930
1614.00,0.0883
1613.00,0.0835
1612.00,0.0786
1611.00,0.0738
1610.00,0.0693
1609.00,0.0650
1608.00,0.0610
1607.00,0.0574
1606.00,0.0542
1605.00,0.0512
1604.00,0.0484
1603.00,0.0458
1602.00,0.0436
1601.00,0.0414
1600.00,0.0394
1599.00,0.0375
1598.00,0.0359
1597.00,0.0344
1596.00,0.0329
1595.00,0.0317
1594.00,0.0306
1593.00,0.0297
1592.00,0.0288
1591.00,0.0280
1590.00,0.0272
1589.00,0.0264
1588.00,0.0256
1587.00,0.0250
1586.00,0.0246
1585.00,0.0245
1584.00,0.0246
1583.00,0.0249
1582.00,0.0253
1581.00,0.0253
1580.00,0.0247
1579.00,0.0237
1578.00,0.0224
1577.00,0.0211
1576.00,0.0198
1575.00,0.0188
1574.00,0.0182
1573.00,0.0176
1572.00,0.0170
1571.00,0.0166
1570.00,0.0163
1569.00,0.0159
1568.00,0.0155
1567.00,0.0154
1566.00,0.0156
1565.00,0.0162
1564.00,0.0169
1563.00,0.0174
1562.00,0.0176
1561.00,0.0177
1560.00,0.0175
1559.00,0.0166
1558.00,0.0154
1557.00,0.0145
1556.00,0.0139
1555.00,0.0134
1554.00,0.0130
1553.00,0.0128
1552.00,0.0125
1551.00,0.0124
1550.00,0.0123
1549.00,0.0122
1548.00,0.0121
1547.00,0.0120
1546.00,0.0120
1545.00,0.0121
1544.00,0.0121
1543.00,0.0121
1542.00,0.0121
1541.00,0.0121
1540.00,0.0121
1539.00,0.0119
1538.00,0.0120
1537.00,0.0121
1536.00,0.0123
1535.00,0.0126
1534.00,0.0130
1533.00,0.0134
1532.00,0.0137
1531.00,0.0138
1530.00,0.0140
1529.00,0.0143
1528.00,0.0148
1527.00,0.0153
1526.00,0.0159
1525.00,0.0164
1524.00,0.0170
1523.00,0.0178
1522.00,0.0189
1521.00,0.0202
1520.00,0.0215
1519.00,0.0227
1518.00,0.0241
1517.00,0.0257
1516.00,0.0276
1515.00,0.0296
1514.00,0.0317
1513.00,0.0342
1512.00,0.0372
1511.00,0.0405
1510.00,0.0438
1509.00,0.0477
1508.00,0.0534
1507.00,0.0622
1506.00,0.0729
1505.00,0.0830
1504.00,0.0921
1503.00,0.1014
1502.00,0.1119
1501.00,0.1240
1500.00,0.1370
1499.00,0.1505
1498.00,0.1640
1497.00,0.1765
1496.00,0.1864
1495.00,0.1927
1494.00,0.1954
1493.00,0.1949
1492.00,0.1917
1491.00,0.1862
1490.00,0.1788
1489.00,0.1699
1488.00,0.1603
1487.00,0.1507
1486.00,0.1415
1485.00,0.1330
1484.00,0.1249
1483.00,0.1175
1482.00,0.1106
1481.00,0.1043
1480.00,0.0988
1479.00,0.0941
1478.00,0.0901
1477.00,0.0865
1476.00,0.0831
1475.00,0.0798
1474.00,0.0769
1473.00,0.0741
1472.00,0.0715
1471.00,0.0693
1470.00,0.0676
1469.00,0.0662
1468.00,0.0652
1467.00,0.0646
1466.00,0.0645
1465.00,0.0647
1464.00,0.0651
1463.00,0.0654
1462.00,0.0655
1461.00,0.0653
1460.00,0.0647
1459.00,0.0639
1458.00,0.0627
1457.00,0.0611
1456.00,0.0598
1455.00,0.0589
1454.00,0.0584
1453.00,0.0585
1452.00,0.0592
1451.00,0.0609
1450.00,0.0641
1449.00,0.0693
1448.00,0.0762
1447.00,0.0827
1446.00,0.0863
1445.00,0.0858
1444.00,0.0820
1443.00,0.0766
1442.00,0.0716
1441.00,0.0678
1440.00,0.0654
1439.00,0.0643
1438.00,0.0647
1437.00,0.0669
1436.00,0.0707
1435.00,0.0755
1434.00,0.0803
1433.00,0.0848
1432.00,0.0882
1431.00,0.0897
1430.00,0.0893
1429.00,0.0878
1428.00,0.0857
1427.00,0.0832
1426.00,0.0801
1425.00,0.0773
1424.00,0.0761
1423.00,0.0784
1422.00,0.0850
1421.00,0.0961
1420.00,0.1104
1419.00,0.1224
1418.00,0.1259
1417.00,0.1205
1416.00,0.1099
1415.00,0.0981
1414.00,0.0872
1413.00,0.0777
1412.00,0.0697
1411.00,0.0631
1410.00,0.0577
1409.00,0.0534
1408.00,0.0498
1407.00,0.0469
1406.00,0.0445
1405.00,0.0422
1404.00,0.0403
1403.00,0.0386
1402.00,0.0375
1401.00,0.0365
1400.00,0.0358
1399.00,0.0353
1398.00,0.0350
1397.00,0.0350
1396.00,0.0351
1395.00,0.0356
1394.00,0.0363
1393.00,0.0371
1392.00,0.0381
1391.00,0.0396
1390.00,0.0417
1389.00,0.0448
1388.00,0.0492
1387.00,0.0548
1386.00,0.0612
1385.00,0.0679
1384.00,0.0744
1383.00,0.0804
1382.00,0.0849
1381.00,0.0869
1380.00,0.0859
1379.00,0.0818
1378.00,0.0756
1377.00,0.0683
1376.00,0.0611
1375.00,0.0545
1374.00,0.0494
1373.00,0.0458
1372.00,0.0439
1371.00,0.0433
1370.00,0.0439
1369.00,0.0453
1368.00,0.0474
1367.00,0.0499
1366.00,0.0524
1365.00,0.0541
1364.00,0.0538
1363.00,0.0508
1362.00,0.0455
1361.00,0.0395
1360.00,0.0339
1359.00,0.0293
1358.00,0.0258
1357.00,0.0232
1356.00,0.0211
1355.00,0.0195
1354.00,0.0183
1353.00,0.0174
1352.00,0.0166
1351.00,0.0161
1350.00,0.0157
1349.00,0.0154
1348.00,0.0151
1347.00,0.0149
1346.00,0.0148
1345.00,0.0147
1344.00,0.0147
1343.00,0.0147
1342.00,0.0147
1341.00,0.0148
1340.00,0.0148
1339.00,0.0149
1338.00,0.0151
1337.00,0.0152
1336.00,0.0154
1335.00,0.0155
1334.00,0.0157
1333.00,0.0159
1332.00,0.0162
1331.00,0.0164
1330.00,0.0168
1329.00,0.0171
1328.00,0.0175
1327.00,0.0180
1326.00,0.0186
1325.00,0.0193
1324.00,0.0202
1323.00,0.0214
1322.00,0.0228
1321.00,0.0247
1320.00,0.0270
1319.00,0.0295
1318.00,0.0322
1317.00,0.0351
1316.00,0.0382
1315.00,0.0418
1314.00,0.0464
1313.00,0.0526
1312.00,0.0607
1311.00,0.0705
1310.00,0.0813
1309.00,0.0915
1308.00,0.0992
1307.00,0.1030
1306.00,0.1023
1305.00,0.0978
1304.00,0.0909
1303.00,0.0829
1302.00,0.0750
1301.00,0.0678
1300.00,0.0618
1299.00,0.0573
1298.00,0.0543
1297.00,0.0526
1296.00,0.0521
1295.00,0.0528
1294.00,0.0543
1293.00,0.0567
1292.00,0.0596
1291.00,0.0632
1290.00,0.0674
1289.00,0.0723
1288.00,0.0783
1287.00,0.0853
1286.00,0.0936
1285.00,0.1034
1284.00,0.1145
1283.00,0.1270
1282.00,0.1405
1281.00,0.1545
1280.00,0.1684
1279.00,0.1809
1278.00,0.1911
1277.00,0.1977
1276.00,0.2000
1275.00,0.1978
1274.00,0.1913
1273.00,0.1817
1272.00,0.1700
1271.00,0.1573
1270.00,0.1444
1269.00,0.1319
1268.00,0.1201
1267.00,0.1093
1266.00,0.0994
1265.00,0.0904
1264.00,0.0824
1263.00,0.0752
1262.00,0.0687
1261.00,0.0629
1260.00,0.0578
1259.00,0.0533
1258.00,0.0494
1257.00,0.0461
1256.00,0.0434
1255.00,0.0413
1254.00,0.0400
1253.00,0.0396
1252.00,0.0398
1251.00,0.0404
1250.00,0.0408
1249.00,0.0404
1248.00,0.0390
1247.00,0.0370
1246.00,0.0347
1245.00,0.0326
1244.00,0.0308
1243.00,0.0293
1242.00,0.0281
1241.00,0.0272
1240.00,0.0264
1239.00,0.0259
1238.00,0.0255
1237.00,0.0253
1236.00,0.0252
1235.00,0.0253
1234.00,0.0256
1233.00,0.0260
1232.00,0.0266
1231.00,0.0274
1230.00,0.0283
1229.00,0.0294
1228.00,0.0306
1227.00,0.0318
1226.00,0.0332
1225.00,0.0347
1224.00,0.0364
1223.00,0.0384
1222.00,0.0408
1221.00,0.0436
1220.00,0.0467
1219.00,0.0501
1218.00,0.0538
1217.00,0.0578
1216.00,0.0622
1215.00,0.0676
1214.00,0.0743
1213.00,0.0827
1212.00,0.0931
1211.00,0.1054
1210.00,0.1193
1209.00,0.1341
1208.00,0.1491
1207.00,0.1631
1206.00,0.1754
1205.00,0.1852
1204.00,0.1920
1203.00,0.1956
1202.00,0.1959
1201.00,0.1930
1200.00,0.1874
1199.00,0.1795
1198.00,0.1703
1197.00,0.1606
1196.00,0.1514
1195.00,0.1432
1194.00,0.1367
1193.00,0.1320
1192.00,0.1290
1191.00,0.1273
1190.00,0.1264
1189.00,0.1258
1188.00,0.1248
1187.00,0.1231
1186.00,0.1205
1185.00,0.1169
1184.00,0.1122
1183.00,0.1067
1182.00,0.1009
1181.00,0.0952
1180.00,0.0901
1179.00,0.0862
1178.00,0.0835
1177.00,0.0825
1176.00,0.0830
1175.00,0.0847
1174.00,0.0869
1173.00,0.0884
1172.00,0.0879
1171.00,0.0849
1170.00,0.0794
1169.00,0.0726
1168.00,0.0654
1167.00,0.0588
1166.00,0.0531
1165.00,0.0484
1164.00,0.0448
1163.00,0.0420
1162.00,0.0400
1161.00,0.0387
1160.00,0.0380
1159.00,0.0382
1158.00,0.0393
1157.00,0.0414
1156.00,0.0442
1155.00,0.0470
1154.00,0.0491
1153.00,0.0499
1152.00,0.0498
1151.00,0.0497
1150.00,0.0507
1149.00,0.0537
1148.00,0.0590
1147.00,0.0662
1146.00,0.0751
1145.00,0.0849
1144.00,0.0949
1143.00,0.1043
1142.00,0.1125
1141.00,0.1192
1140.00,0.1243
1139.00,0.1279
1138.00,0.1297
1137.00,0.1298
1136.00,0.1279
1135.00,0.1242
1134.00,0.1188
1133.00,0.1123
1132.00,0.1054
1131.00,0.0986
1130.00,0.0923
1129.00,0.0870
1128.00,0.0829
1127.00,0.0802
1126.00,0.0789
1125.00,0.0792
1124.00,0.0813
1123.00,0.0854
1122.00,0.0916
1121.00,0.1002
1120.00,0.1111
1119.00,0.1237
1118.00,0.1369
1117.00,0.1494
1116.00,0.1592
1115.00,0.1650
1114.00,0.1664
1113.00,0.1637
1112.00,0.1582
1111.00,0.1514
1110.00,0.1451
1109.00,0.1408
1108.00,0.1394
1107.00,0.1413
1106.00,0.1460
1105.00,0.1525
1104.00,0.1603
1103.00,0.1692
1102.00,0.1800
1101.00,0.1926
1100.00,0.2060
1099.00,0.2182
1098.00,0.2273
1097.00,0.2322
1096.00,0.2327
1095.00,0.2289
1094.00,0.2217
1093.00,0.2120
1092.00,0.2007
1091.00,0.1886
1090.00,0.1763
1089.00,0.1642
1088.00,0.1527
1087.00,0.1419
1086.00,0.1320
1085.00,0.1230
1084.00,0.1149
1083.00,0.1076
1082.00,0.1010
1081.00,0.0951
1080.00,0.0899
1079.00,0.0851
1078.00,0.0808
1077.00,0.0769
1076.00,0.0735
1075.00,0.0704
1074.00,0.0677
1073.00,0.0656
1072.00,0.0642
1071.00,0.0635
1070.00,0.0637
1069.00,0.0650
1068.00,0.0675
1067.00,0.0714
1066.00,0.0769
1065.00,0.0838
1064.00,0.0919
1063.00,0.1004
1062.00,0.1081
1061.00,0.1141
1060.00,0.1176
1059.00,0.1181
1058.00,0.1159
1057.00,0.1116
1056.00,0.1061
1055.00,0.1000
1054.00,0.0940
1053.00,0.0885
1052.00,0.0839
1051.00,0.0802
1050.00,0.0777
1049.00,0.0765
1048.00,0.0771
1047.00,0.0798
1046.00,0.0846
1045.00,0.0911
1044.00,0.0980
1043.00,0.1037
1042.00,0.1068
1041.00,0.1069
1040.00,0.1045
1039.00,0.1008
1038.00,0.0971
1037.00,0.0941
1036.00,0.0922
1035.00,0.0914
1034.00,0.0917
1033.00,0.0930
1032.00,0.0953
1031.00,0.0985
1030.00,0.1027
1029.00,0.1076
1028.00,0.1129
1027.00,0.1181
1026.00,0.1227
1025.00,0.1262
1024.00,0.1282
1023.00,0.1285
1022.00,0.1271
1021.00,0.1241
1020.00,0.1198
1019.00,0.1144
1018.00,0.1084
1017.00,0.1022
1016.00,0.0962
1015.00,0.0904
1014.00,0.0851
1013.00,0.0804
1012.00,0.0763
1011.00,0.0727
1010.00,0.0698
1009.00,0.0674
1008.00,0.0655
1007.00,0.0638
1006.00,0.0621
1005.00,0.0603
1004.00,0.0581
1003.00,0.0558
1002.00,0.0533
1001.00,0.0510
1000.00,0.0488
999.00,0.0470
998.00,0.0454
997.00,0.0440
996.00,0.0429
995.00,0.0419
994.00,0.0411
993.00,0.0404
992.00,0.0398
991.00,0.0394
990.00,0.0391
989.00,0.0390
988.00,0.0390
987.00,0.0392
986.00,0.0394
985.00,0.0399
984.00,0.0405
983.00,0.0413
982.00,0.0423
981.00,0.0434
980.00,0.0445
979.00,0.0455
978.00,0.0463
977.00,0.0468
976.00,0.0470
975.00,0.0466
974.00,0.0459
973.00,0.0446
972.00,0.0431
971.00,0.0413
970.00,0.0394
969.00,0.0375
968.00,0.0358
967.00,0.0343
966.00,0.0330
965.00,0.0320
964.00,0.0315
963.00,0.0313
962.00,0.0315
961.00,0.0320
960.00,0.0326
959.00,0.0333
958.00,0.0338
957.00,0.0340
956.00,0.0337
955.00,0.0330
954.00,0.0318
953.00,0.0304
952.00,0.0289
951.00,0.0276
950.00,0.0264
949.00,0.0253
948.00,0.0244
947.00,0.0236
946.00,0.0229
945.00,0.0223
944.00,0.0218
943.00,0.0213
942.00,0.0209
941.00,0.0205
940.00,0.0201
939.00,0.0197
938.00,0.0193
937.00,0.0190
936.00,0.0187
935.00,0.0184
934.00,0.0181
933.00,0.0179
932.00,0.0176
931.00,0.0174
930.00,0.0172
929.00,0.0169
928.00,0.0167
927.00,0.0165
926.00,0.0163
925.00,0.0161
924.00,0.0160
923.00,0.0158
922.00,0.0156
921.00,0.0154
920.00,0.0153
919.00,0.0152
918.00,0.0151
917.00,0.0150
916.00,0.0149
915.00,0.0148
914.00,0.0147
913.00,0.0146
912.00,0.0146
911.00,0.0145
910.00,0.0144
909.00,0.0143
908.00,0.0143
907.00,0.0143
906.00,0.0142
905.00,0.0142
904.00,0.0143
903.00,0.0144
902.00,0.0146
901.00,0.0148
900.00,0.0150
899.00,0.0150
898.00,0.0149
897.00,0.0147
896.00,0.0144
895.00,0.0142
894.00,0.0139
893.00,0.0137
892.00,0.0136
891.00,0.0135
890.00,0.0134
889.00,0.0133
888.00,0.0133
887.00,0.0133
886.00,0.0133
885.00,0.0133
884.00,0.0135
883.00,0.0138
882.00,0.0142
881.00,0.0146
880.00,0.0151
879.00,0.0155
878.00,0.0156
877.00,0.0157
876.00,0.0158
875.00,0.0160
874.00,0.0163
873.00,0.0169
872.00,0.0179
871.00,0.0195
870.00,0.0222
869.00,0.0264
868.00,0.0325
867.00,0.0406
866.00,0.0499
865.00,0.0588
864.00,0.0649
863.00,0.0666
862.00,0.0640
861.00,0.0590
860.00,0.0540
859.00,0.0509
858.00,0.0496
857.00,0.0492
856.00,0.0483
855.00,0.0459
854.00,0.0420
853.00,0.0372
852.00,0.0326
851.00,0.0286
850.00,0.0254
849.00,0.0229
848.00,0.0211
847.00,0.0198
846.00,0.0187
845.00,0.0179
844.00,0.0172
843.00,0.0167
842.00,0.0163
841.00,0.0159
840.00,0.0155
839.00,0.0152
838.00,0.0148
837.00,0.0145
836.00,0.0143
835.00,0.0142
834.00,0.0140
833.00,0.0139
832.00,0.0140
831.00,0.0142
830.00,0.0145
829.00,0.0153
828.00,0.0166
827.00,0.0183
826.00,0.0203
825.00,0.0222
824.00,0.0236
823.00,0.0240
822.00,0.0234
821.00,0.0222
820.00,0.0209
819.00,0.0199
818.00,0.0191
817.00,0.0186
816.00,0.0183
815.00,0.0181
814.00,0.0181
813.00,0.0183
812.00,0.0190
811.00,0.0202
810.00,0.0221
809.00,0.0250
808.00,0.0295
807.00,0.0364
806.00,0.0469
805.00,0.0615
804.00,0.0800
803.00,0.0994
802.00,0.1144
801.00,0.1199
800.00,0.1139
799.00,0.0993
798.00,0.0818
797.00,0.0659
796.00,0.0535
795.00,0.0446
794.00,0.0385
793.00,0.0347
792.00,0.0326
791.00,0.0315
790.00,0.0307
789.00,0.0295
788.00,0.0277
787.00,0.0255
786.00,0.0233
785.00,0.0218
784.00,0.0209
783.00,0.0208
782.00,0.0211
781.00,0.0221
780.00,0.0237
779.00,0.0259
778.00,0.0287
777.00,0.0327
776.00,0.0383
775.00,0.0460
774.00,0.0558
773.00,0.0668
772.00,0.0769
771.00,0.0833
770.00,0.0841
769.00,0.0793
768.00,0.0708
767.00,0.0609
766.00,0.0514
765.00,0.0435
764.00,0.0374
763.00,0.0329
762.00,0.0296
761.00,0.0273
760.00,0.0257
759.00,0.0247
758.00,0.0239
757.00,0.0235
756.00,0.0234
755.00,0.0235
754.00,0.0239
753.00,0.0245
752.00,0.0255
751.00,0.0269
750.00,0.0288
749.00,0.0314
748.00,0.0351
747.00,0.0399
746.00,0.0460
745.00,0.0533
744.00,0.0607
743.00,0.0664
742.00,0.0686
741.00,0.0668
740.00,0.0634
739.00,0.0624
738.00,0.0684
737.00,0.0831
736.00,0.1037
735.00,0.1230
734.00,0.1336
733.00,0.1338
732.00,0.1286
731.00,0.1253
730.00,0.1288
729.00,0.1390
728.00,0.1519
727.00,0.1611
726.00,0.1611
725.00,0.1506
724.00,0.1325
723.00,0.1119
722.00,0.0927
721.00,0.0768
720.00,0.0645
719.00,0.0552
718.00,0.0481
717.00,0.0427
716.00,0.0386
715.00,0.0352
714.00,0.0326
713.00,0.0304
712.00,0.0286
711.00,0.0271
710.00,0.0257
709.00,0.0245
708.00,0.0234
707.00,0.0224
706.00,0.0215
705.00,0.0206
704.00,0.0200
703.00,0.0193
702.00,0.0188
701.00,0.0183
700.00,0.0179
699.00,0.0175
698.00,0.0172
697.00,0.0169
696.00,0.0168
695.00,0.0168
694.00,0.0168
693.00,0.0169
692.00,0.0172
691.00,0.0179
690.00,0.0189
689.00,0.0202
688.00,0.0217
687.00,0.0228
686.00,0.0233
685.00,0.0232
684.00,0.0228
683.00,0.0224
682.00,0.0222
681.00,0.0222
680.00,0.0228
679.00,0.0238
678.00,0.0253
677.00,0.0277
676.00,0.0312
675.00,0.0360
674.00,0.0425
673.00,0.0507
672.00,0.0595
671.00,0.0674
670.00,0.0726
669.00,0.0731
668.00,0.0674
667.00,0.0579
666.00,0.0490
665.00,0.0419
664.00,0.0361
663.00,0.0314
662.00,0.0278
661.00,0.0253
660.00,0.0236
659.00,0.0223
658.00,0.0214
657.00,0.0208
656.00,0.0203
655.00,0.0200
654.00,0.0198
653.00,0.0198
652.00,0.0198
651.00,0.0199
650.00,0.0200
649.00,0.0201
648.00,0.0203
647.00,0.0206
646.00,0.0209
645.00,0.0213
644.00,0.0218
643.00,0.0222
642.00,0.0227
641.00,0.0232
640.00,0.0238
639.00,0.0245
638.00,0.0252
637.00,0.0260
636.00,0.0269
635.00,0.0279
634.00,0.0290
633.00,0.0302
632.00,0.0316
631.00,0.0331
630.00,0.0346
629.00,0.0362
628.00,0.0380
627.00,0.0399
626.00,0.0421
625.00,0.0444
624.00,0.0469
623.00,0.0496
622.00,0.0524
621.00,0.0554
620.00,0.0586
619.00,0.0617
618.00,0.0648
617.00,0.0676
616.00,0.0701
615.00,0.0718
614.00,0.0726
613.00,0.0722
612.00,0.0707
611.00,0.0677
610.00,0.0634
609.00,0.0584
608.00,0.0530
607.00,0.0477
606.00,0.0427
605.00,0.0385
604.00,0.0354
603.00,0.0332
602.00,0.0319
601.00,0.0317
600.00,0.0325
599.00,0.0338
598.00,0.0355
597.00,0.0376
596.00,0.0402
595.00,0.0429
594.00,0.0451
593.00,0.0461
592.00,0.0456
591.00,0.0438
590.00,0.0414
589.00,0.0392
588.00,0.0377
587.00,0.0371
586.00,0.0371
585.00,0.0379
584.00,0.0392
583.00,0.0410
582.00,0.0431
581.00,0.0454
580.00,0.0481
579.00,0.0508
578.00,0.0536
577.00,0.0567
576.00,0.0601
575.00,0.0636
574.00,0.0671
573.00,0.0705
572.00,0.0741
571.00,0.0776
570.00,0.0810
569.00,0.0842
568.00,0.0872
567.00,0.0899
566.00,0.0921
565.00,0.0939
564.00,0.0954
563.00,0.0963
562.00,0.0964
561.00,0.0958
560.00,0.0947
559.00,0.0931
558.00,0.0910
557.00,0.0885
556.00,0.0859
555.00,0.0831
554.00,0.0801
553.00,0.0770
552.00,0.0741
551.00,0.0711
550.00,0.0681
549.00,0.0653
548.00,0.0629
547.00,0.0607
546.00,0.0588
545.00,0.0578
544.00,0.0581
543.00,0.0597
542.00,0.0624
541.00,0.0656
540.00,0.0679
539.00,0.0681
538.00,0.0655
537.00,0.0611
536.00,0.0562
535.00,0.0516
534.00,0.0475
533.00,0.0443
532.00,0.0418
531.00,0.0397
530.00,0.0376
529.00,0.0357
528.00,0.0340
527.00,0.0324
526.00,0.0310
525.00,0.0300
524.00,0.0293
523.00,0.0286
522.00,0.0277
521.00,0.0268
520.00,0.0261
519.00,0.0253
518.00,0.0245
517.00,0.0238
516.00,0.0234
515.00,0.0230
514.00,0.0225
513.00,0.0221
512.00,0.0219
511.00,0.0215
510.00,0.0208
509.00,0.0202
508.00,0.0199
507.00,0.0198
506.00,0.0196
505.00,0.0193
504.00,0.0192
503.00,0.0191
502.00,0.0189
501.00,0.0187
500.00,0.0184
499.00,0.0181
498.00,0.0176
497.00,0.0174
496.00,0.0176
495.00,0.0177
494.00,0.0175
493.00,0.0172
492.00,0.0169
491.00,0.0166
490.00,0.0163
489.00,0.0162
488.00,0.0163
487.00,0.0164
486.00,0.0162
485.00,0.0162
484.00,0.0164
483.00,0.0167
482.00,0.0168
481.00,0.0168
480.00,0.0169
479.00,0.0168
478.00,0.0166
477.00,0.0166
476.00,0.0171
475.00,0.0177
474.00,0.0187
473.00,0.0206
472.00,0.0238
471.00,0.0275
470.00,0.0309
469.00,0.0335
468.00,0.0353
467.00,0.0360
466.00,0.0360
465.00,0.0363
464.00,0.0378
463.00,0.0406
462.00,0.0441
461.00,0.0474
460.00,0.0497
459.00,0.0496
458.00,0.0468
457.00,0.0424
456.00,0.0379
455.00,0.0337
454.00,0.0297
453.00,0.0262
452.00,0.0238
451.00,0.0219
450.00,0.0203
449.00,0.0191
448.00,0.0182
447.00,0.0175
446.00,0.0167
445.00,0.0160
444.00,0.0158
443.00,0.0157
442.00,0.0153
441.00,0.0148
440.00,0.0147
439.00,0.0147
438.00,0.0146
437.00,0.0148
436.00,0.0154
435.00,0.0159
434.00,0.0159
433.00,0.0158
432.00,0.0159
431.00,0.0161
430.00,0.0162
429.00,0.0167
428.00,0.0179
427.00,0.0191
426.00,0.0201
425.00,0.0213
424.00,0.0232
423.00,0.0250
422.00,0.0261
421.00,0.0271
420.00,0.0284
419.00,0.0294
418.00,0.0295
417.00,0.0299
416.00,0.0309
415.00,0.0314
414.00,0.0308
413.00,0.0300
412.00,0.0296
411.00,0.0290
410.00,0.0276
409.00,0.0262
408.00,0.0254
407.00,0.0248
406.00,0.0243
405.00,0.0246
404.00,0.0260
403.00,0.0271
402.00,0.0274
401.00,0.0286
400.00,0.0317
