Created as New Dataset,Sample 546 By YargerLab Date Wednesday, June 04 2025
cm-1,A
4000.00,0.0008
3999.00,0.0008
3998.00,0.0008
3997.00,0.0008
3996.00,0.0008
3995.00,0.0008
3994.00,0.0008
3993.00,0.0008
3992.00,0.0008
3991.00,0.0008
3990.00,0.0008
3989.00,0.0009
3988.00,0.0009
3987.00,0.0009
3986.00,0.0009
3985.00,0.0009
3984.00,0.0009
3983.00,0.0009
3982.00,0.0009
3981.00,0.0009
3980.00,0.0009
3979.00,0.0009
3978.00,0.0008
3977.00,0.0008
3976.00,0.0008
3975.00,0.0008
3974.00,0.0008
3973.00,0.0008
3972.00,0.0008
3971.00,0.0008
3970.00,0.0008
3969.00,0.0008
3968.00,0.0009
3967.00,0.0009
3966.00,0.0009
3965.00,0.0009
3964.00,0.0009
3963.00,0.0008
3962.00,0.0008
3961.00,0.0008
3960.00,0.0008
3959.00,0.0008
3958.00,0.0008
3957.00,0.0008
3956.00,0.0008
3955.00,0.0008
3954.00,0.0008
3953.00,0.0008
3952.00,0.0008
3951.00,0.0008
3950.00,0.0008
3949.00,0.0008
3948.00,0.0007
3947.00,0.0007
3946.00,0.0007
3945.00,0.0007
3944.00,0.0007
3943.00,0.0007
3942.00,0.0007
3941.00,0.0008
3940.00,0.0008
3939.00,0.0008
3938.00,0.0008
3937.00,0.0007
3936.00,0.0007
3935.00,0.0007
3934.00,0.0006
3933.00,0.0006
3932.00,0.0006
3931.00,0.0006
3930.00,0.0006
3929.00,0.0006
3928.00,0.0006
3927.00,0.0006
3926.00,0.0006
3925.00,0.0007
3924.00,0.0007
3923.00,0.0006
3922.00,0.0006
3921.00,0.0006
3920.00,0.0006
3919.00,0.0005
3918.00,0.0005
3917.00,0.0005
3916.00,0.0006
3915.00,0.0006
3914.00,0.0006
3913.00,0.0006
3912.00,0.0006
3911.00,0.0007
3910.00,0.0006
3909.00,0.0006
3908.00,0.0005
3907.00,0.0005
3906.00,0.0004
3905.00,0.0004
3904.00,0.0004
3903.00,0.0003
3902.00,0.0003
3901.00,0.0003
3900.00,0.0004
3899.00,0.0004
3898.00,0.0004
3897.00,0.0005
3896.00,0.0004
3895.00,0.0004
3894.00,0.0004
3893.00,0.0004
3892.00,0.0005
3891.00,0.0005
3890.00,0.0004
3889.00,0.0004
3888.00,0.0003
3887.00,0.0004
3886.00,0.0004
3885.00,0.0004
3884.00,0.0004
3883.00,0.0004
3882.00,0.0004
3881.00,0.0004
3880.00,0.0004
3879.00,0.0004
3878.00,0.0004
3877.00,0.0004
3876.00,0.0003
3875.00,0.0003
3874.00,0.0003
3873.00,0.0003
3872.00,0.0002
3871.00,0.0002
3870.00,0.0002
3869.00,0.0002
3868.00,0.0002
3867.00,0.0002
3866.00,0.0002
3865.00,0.0003
3864.00,0.0003
3863.00,0.0003
3862.00,0.0003
3861.00,0.0003
3860.00,0.0003
3859.00,0.0003
3858.00,0.0003
3857.00,0.0002
3856.00,0.0002
3855.00,0.0002
3854.00,0.0002
3853.00,0.0001
3852.00,0.0001
3851.00,0.0001
3850.00,0.0001
3849.00,0.0002
3848.00,0.0003
3847.00,0.0003
3846.00,0.0003
3845.00,0.0003
3844.00,0.0003
3843.00,0.0003
3842.00,0.0002
3841.00,0.0001
3840.00,0.0001
3839.00,0.0001
3838.00,0.0001
3837.00,0.0001
3836.00,0.0001
3835.00,0.0001
3834.00,0.0001
3833.00,0.0002
3832.00,0.0003
3831.00,0.0003
3830.00,0.0004
3829.00,0.0004
3828.00,0.0004
3827.00,0.0004
3826.00,0.0004
3825.00,0.0003
3824.00,0.0002
3823.00,0.0002
3822.00,0.0002
3821.00,0.0002
3820.00,0.0001
3819.00,0.0001
3818.00,0.0001
3817.00,0.0001
3816.00,0.0003
3815.00,0.0003
3814.00,0.0004
3813.00,0.0004
3812.00,0.0004
3811.00,0.0005
3810.00,0.0005
3809.00,0.0004
3808.00,0.0004
3807.00,0.0004
3806.00,0.0003
3805.00,0.0002
3804.00,0.0001
3803.00,0.0001
3802.00,0.0002
3801.00,0.0002
3800.00,0.0002
3799.00,0.0002
3798.00,0.0002
3797.00,0.0003
3796.00,0.0004
3795.00,0.0004
3794.00,0.0005
3793.00,0.0005
3792.00,0.0005
3791.00,0.0006
3790.00,0.0006
3789.00,0.0006
3788.00,0.0005
3787.00,0.0005
3786.00,0.0005
3785.00,0.0005
3784.00,0.0005
3783.00,0.0005
3782.00,0.0004
3781.00,0.0004
3780.00,0.0005
3779.00,0.0005
3778.00,0.0005
3777.00,0.0005
3776.00,0.0006
3775.00,0.0006
3774.00,0.0006
3773.00,0.0006
3772.00,0.0006
3771.00,0.0006
3770.00,0.0005
3769.00,0.0005
3768.00,0.0005
3767.00,0.0005
3766.00,0.0005
3765.00,0.0006
3764.00,0.0006
3763.00,0.0006
3762.00,0.0006
3761.00,0.0006
3760.00,0.0006
3759.00,0.0005
3758.00,0.0005
3757.00,0.0005
3756.00,0.0005
3755.00,0.0004
3754.00,0.0004
3753.00,0.0003
3752.00,0.0003
3751.00,0.0002
3750.00,0.0002
3749.00,0.0001
3748.00,0.0000
3747.00,-0.0000
3746.00,-0.0000
3745.00,0.0001
3744.00,0.0002
3743.00,0.0002
3742.00,0.0002
3741.00,0.0002
3740.00,0.0002
3739.00,0.0002
3738.00,0.0002
3737.00,0.0002
3736.00,0.0002
3735.00,0.0002
3734.00,0.0001
3733.00,0.0001
3732.00,0.0002
3731.00,0.0002
3730.00,0.0003
3729.00,0.0003
3728.00,0.0004
3727.00,0.0004
3726.00,0.0004
3725.00,0.0005
3724.00,0.0005
3723.00,0.0005
3722.00,0.0005
3721.00,0.0005
3720.00,0.0005
3719.00,0.0005
3718.00,0.0005
3717.00,0.0006
3716.00,0.0006
3715.00,0.0005
3714.00,0.0005
3713.00,0.0005
3712.00,0.0005
3711.00,0.0004
3710.00,0.0004
3709.00,0.0004
3708.00,0.0005
3707.00,0.0005
3706.00,0.0005
3705.00,0.0006
3704.00,0.0006
3703.00,0.0006
3702.00,0.0006
3701.00,0.0006
3700.00,0.0007
3699.00,0.0007
3698.00,0.0007
3697.00,0.0007
3696.00,0.0008
3695.00,0.0007
3694.00,0.0007
3693.00,0.0006
3692.00,0.0005
3691.00,0.0005
3690.00,0.0004
3689.00,0.0004
3688.00,0.0003
3687.00,0.0003
3686.00,0.0003
3685.00,0.0003
3684.00,0.0003
3683.00,0.0003
3682.00,0.0003
3681.00,0.0002
3680.00,0.0001
3679.00,-0.0001
3678.00,-0.0002
3677.00,-0.0004
3676.00,-0.0005
3675.00,-0.0006
3674.00,-0.0007
3673.00,-0.0008
3672.00,-0.0008
3671.00,-0.0008
3670.00,-0.0007
3669.00,-0.0006
3668.00,-0.0005
3667.00,-0.0005
3666.00,-0.0004
3665.00,-0.0004
3664.00,-0.0003
3663.00,-0.0003
3662.00,-0.0003
3661.00,-0.0003
3660.00,-0.0003
3659.00,-0.0002
3658.00,-0.0002
3657.00,-0.0001
3656.00,0.0000
3655.00,0.0001
3654.00,0.0001
3653.00,0.0001
3652.00,0.0002
3651.00,0.0003
3650.00,0.0004
3649.00,0.0005
3648.00,0.0006
3647.00,0.0007
3646.00,0.0009
3645.00,0.0011
3644.00,0.0014
3643.00,0.0016
3642.00,0.0019
3641.00,0.0021
3640.00,0.0023
3639.00,0.0024
3638.00,0.0024
3637.00,0.0026
3636.00,0.0028
3635.00,0.0031
3634.00,0.0033
3633.00,0.0036
3632.00,0.0037
3631.00,0.0039
3630.00,0.0040
3629.00,0.0042
3628.00,0.0044
3627.00,0.0045
3626.00,0.0047
3625.00,0.0049
3624.00,0.0052
3623.00,0.0053
3622.00,0.0055
3621.00,0.0056
3620.00,0.0057
3619.00,0.0058
3618.00,0.0059
3617.00,0.0060
3616.00,0.0061
3615.00,0.0062
3614.00,0.0063
3613.00,0.0064
3612.00,0.0066
3611.00,0.0067
3610.00,0.0069
3609.00,0.0071
3608.00,0.0073
3607.00,0.0074
3606.00,0.0076
3605.00,0.0077
3604.00,0.0079
3603.00,0.0080
3602.00,0.0082
3601.00,0.0083
3600.00,0.0084
3599.00,0.0085
3598.00,0.0085
3597.00,0.0087
3596.00,0.0088
3595.00,0.0089
3594.00,0.0091
3593.00,0.0092
3592.00,0.0093
3591.00,0.0094
3590.00,0.0095
3589.00,0.0096
3588.00,0.0097
3587.00,0.0098
3586.00,0.0100
3585.00,0.0101
3584.00,0.0103
3583.00,0.0105
3582.00,0.0107
3581.00,0.0108
3580.00,0.0110
3579.00,0.0111
3578.00,0.0112
3577.00,0.0114
3576.00,0.0115
3575.00,0.0116
3574.00,0.0117
3573.00,0.0118
3572.00,0.0120
3571.00,0.0121
3570.00,0.0122
3569.00,0.0124
3568.00,0.0125
3567.00,0.0126
3566.00,0.0126
3565.00,0.0127
3564.00,0.0129
3563.00,0.0130
3562.00,0.0132
3561.00,0.0134
3560.00,0.0136
3559.00,0.0138
3558.00,0.0139
3557.00,0.0141
3556.00,0.0142
3555.00,0.0144
3554.00,0.0145
3553.00,0.0146
3552.00,0.0148
3551.00,0.0149
3550.00,0.0150
3549.00,0.0151
3548.00,0.0152
3547.00,0.0154
3546.00,0.0155
3545.00,0.0157
3544.00,0.0158
3543.00,0.0159
3542.00,0.0160
3541.00,0.0162
3540.00,0.0163
3539.00,0.0165
3538.00,0.0167
3537.00,0.0168
3536.00,0.0170
3535.00,0.0171
3534.00,0.0172
3533.00,0.0173
3532.00,0.0175
3531.00,0.0176
3530.00,0.0178
3529.00,0.0179
3528.00,0.0180
3527.00,0.0181
3526.00,0.0182
3525.00,0.0183
3524.00,0.0184
3523.00,0.0185
3522.00,0.0187
3521.00,0.0188
3520.00,0.0190
3519.00,0.0191
3518.00,0.0193
3517.00,0.0195
3516.00,0.0196
3515.00,0.0197
3514.00,0.0199
3513.00,0.0200
3512.00,0.0201
3511.00,0.0202
3510.00,0.0203
3509.00,0.0204
3508.00,0.0206
3507.00,0.0207
3506.00,0.0208
3505.00,0.0210
3504.00,0.0211
3503.00,0.0212
3502.00,0.0213
3501.00,0.0214
3500.00,0.0216
3499.00,0.0217
3498.00,0.0219
3497.00,0.0220
3496.00,0.0222
3495.00,0.0223
3494.00,0.0224
3493.00,0.0225
3492.00,0.0227
3491.00,0.0228
3490.00,0.0229
3489.00,0.0231
3488.00,0.0232
3487.00,0.0233
3486.00,0.0235
3485.00,0.0236
3484.00,0.0237
3483.00,0.0239
3482.00,0.0240
3481.00,0.0241
3480.00,0.0242
3479.00,0.0244
3478.00,0.0245
3477.00,0.0247
3476.00,0.0248
3475.00,0.0250
3474.00,0.0251
3473.00,0.0253
3472.00,0.0254
3471.00,0.0256
3470.00,0.0258
3469.00,0.0259
3468.00,0.0261
3467.00,0.0262
3466.00,0.0263
3465.00,0.0265
3464.00,0.0266
3463.00,0.0267
3462.00,0.0269
3461.00,0.0270
3460.00,0.0272
3459.00,0.0273
3458.00,0.0275
3457.00,0.0276
3456.00,0.0277
3455.00,0.0279
3454.00,0.0280
3453.00,0.0281
3452.00,0.0283
3451.00,0.0284
3450.00,0.0286
3449.00,0.0287
3448.00,0.0288
3447.00,0.0289
3446.00,0.0291
3445.00,0.0292
3444.00,0.0294
3443.00,0.0295
3442.00,0.0297
3441.00,0.0298
3440.00,0.0300
3439.00,0.0301
3438.00,0.0302
3437.00,0.0304
3436.00,0.0305
3435.00,0.0306
3434.00,0.0308
3433.00,0.0310
3432.00,0.0311
3431.00,0.0313
3430.00,0.0314
3429.00,0.0316
3428.00,0.0317
3427.00,0.0318
3426.00,0.0320
3425.00,0.0321
3424.00,0.0323
3423.00,0.0325
3422.00,0.0326
3421.00,0.0328
3420.00,0.0329
3419.00,0.0331
3418.00,0.0332
3417.00,0.0334
3416.00,0.0335
3415.00,0.0337
3414.00,0.0338
3413.00,0.0340
3412.00,0.0341
3411.00,0.0343
3410.00,0.0344
3409.00,0.0346
3408.00,0.0347
3407.00,0.0348
3406.00,0.0350
3405.00,0.0351
3404.00,0.0352
3403.00,0.0354
3402.00,0.0355
3401.00,0.0357
3400.00,0.0358
3399.00,0.0360
3398.00,0.0362
3397.00,0.0363
3396.00,0.0365
3395.00,0.0366
3394.00,0.0367
3393.00,0.0368
3392.00,0.0369
3391.00,0.0371
3390.00,0.0373
3389.00,0.0375
3388.00,0.0377
3387.00,0.0378
3386.00,0.0380
3385.00,0.0382
3384.00,0.0383
3383.00,0.0385
3382.00,0.0386
3381.00,0.0388
3380.00,0.0390
3379.00,0.0391
3378.00,0.0393
3377.00,0.0394
3376.00,0.0396
3375.00,0.0398
3374.00,0.0400
3373.00,0.0402
3372.00,0.0404
3371.00,0.0405
3370.00,0.0407
3369.00,0.0409
3368.00,0.0411
3367.00,0.0413
3366.00,0.0416
3365.00,0.0418
3364.00,0.0421
3363.00,0.0422
3362.00,0.0424
3361.00,0.0426
3360.00,0.0428
3359.00,0.0431
3358.00,0.0433
3357.00,0.0436
3356.00,0.0438
3355.00,0.0440
3354.00,0.0442
3353.00,0.0444
3352.00,0.0446
3351.00,0.0448
3350.00,0.0451
3349.00,0.0454
3348.00,0.0456
3347.00,0.0459
3346.00,0.0461
3345.00,0.0463
3344.00,0.0465
3343.00,0.0468
3342.00,0.0470
3341.00,0.0473
3340.00,0.0475
3339.00,0.0478
3338.00,0.0481
3337.00,0.0485
3336.00,0.0488
3335.00,0.0491
3334.00,0.0495
3333.00,0.0498
3332.00,0.0501
3331.00,0.0504
3330.00,0.0507
3329.00,0.0510
3328.00,0.0513
3327.00,0.0516
3326.00,0.0520
3325.00,0.0523
3324.00,0.0527
3323.00,0.0531
3322.00,0.0535
3321.00,0.0539
3320.00,0.0543
3319.00,0.0547
3318.00,0.0551
3317.00,0.0555
3316.00,0.0559
3315.00,0.0563
3314.00,0.0567
3313.00,0.0571
3312.00,0.0575
3311.00,0.0578
3310.00,0.0582
3309.00,0.0585
3308.00,0.0589
3307.00,0.0593
3306.00,0.0598
3305.00,0.0603
3304.00,0.0609
3303.00,0.0614
3302.00,0.0619
3301.00,0.0624
3300.00,0.0629
3299.00,0.0633
3298.00,0.0637
3297.00,0.0641
3296.00,0.0645
3295.00,0.0649
3294.00,0.0654
3293.00,0.0658
3292.00,0.0663
3291.00,0.0667
3290.00,0.0672
3289.00,0.0677
3288.00,0.0681
3287.00,0.0685
3286.00,0.0688
3285.00,0.0691
3284.00,0.0695
3283.00,0.0697
3282.00,0.0700
3281.00,0.0702
3280.00,0.0704
3279.00,0.0705
3278.00,0.0706
3277.00,0.0707
3276.00,0.0707
3275.00,0.0707
3274.00,0.0707
3273.00,0.0706
3272.00,0.0705
3271.00,0.0704
3270.00,0.0703
3269.00,0.0702
3268.00,0.0701
3267.00,0.0699
3266.00,0.0697
3265.00,0.0695
3264.00,0.0692
3263.00,0.0688
3262.00,0.0684
3261.00,0.0680
3260.00,0.0676
3259.00,0.0671
3258.00,0.0666
3257.00,0.0661
3256.00,0.0657
3255.00,0.0652
3254.00,0.0648
3253.00,0.0644
3252.00,0.0639
3251.00,0.0634
3250.00,0.0629
3249.00,0.0624
3248.00,0.0619
3247.00,0.0614
3246.00,0.0610
3245.00,0.0607
3244.00,0.0603
3243.00,0.0599
3242.00,0.0595
3241.00,0.0592
3240.00,0.0588
3239.00,0.0584
3238.00,0.0579
3237.00,0.0575
3236.00,0.0570
3235.00,0.0565
3234.00,0.0561
3233.00,0.0558
3232.00,0.0556
3231.00,0.0553
3230.00,0.0551
3229.00,0.0548
3228.00,0.0545
3227.00,0.0542
3226.00,0.0539
3225.00,0.0536
3224.00,0.0533
3223.00,0.0530
3222.00,0.0528
3221.00,0.0525
3220.00,0.0522
3219.00,0.0519
3218.00,0.0516
3217.00,0.0513
3216.00,0.0510
3215.00,0.0507
3214.00,0.0504
3213.00,0.0502
3212.00,0.0499
3211.00,0.0497
3210.00,0.0495
3209.00,0.0492
3208.00,0.0489
3207.00,0.0487
3206.00,0.0484
3205.00,0.0482
3204.00,0.0480
3203.00,0.0478
3202.00,0.0475
3201.00,0.0473
3200.00,0.0471
3199.00,0.0468
3198.00,0.0466
3197.00,0.0464
3196.00,0.0461
3195.00,0.0459
3194.00,0.0456
3193.00,0.0454
3192.00,0.0451
3191.00,0.0449
3190.00,0.0446
3189.00,0.0444
3188.00,0.0442
3187.00,0.0439
3186.00,0.0437
3185.00,0.0435
3184.00,0.0432
3183.00,0.0430
3182.00,0.0428
3181.00,0.0426
3180.00,0.0424
3179.00,0.0421
3178.00,0.0419
3177.00,0.0416
3176.00,0.0414
3175.00,0.0412
3174.00,0.0410
3173.00,0.0407
3172.00,0.0405
3171.00,0.0403
3170.00,0.0401
3169.00,0.0399
3168.00,0.0397
3167.00,0.0394
3166.00,0.0392
3165.00,0.0390
3164.00,0.0389
3163.00,0.0387
3162.00,0.0385
3161.00,0.0383
3160.00,0.0382
3159.00,0.0380
3158.00,0.0378
3157.00,0.0376
3156.00,0.0374
3155.00,0.0372
3154.00,0.0370
3153.00,0.0367
3152.00,0.0366
3151.00,0.0364
3150.00,0.0363
3149.00,0.0362
3148.00,0.0361
3147.00,0.0359
3146.00,0.0358
3145.00,0.0356
3144.00,0.0355
3143.00,0.0353
3142.00,0.0351
3141.00,0.0350
3140.00,0.0348
3139.00,0.0347
3138.00,0.0346
3137.00,0.0345
3136.00,0.0344
3135.00,0.0343
3134.00,0.0342
3133.00,0.0340
3132.00,0.0339
3131.00,0.0338
3130.00,0.0337
3129.00,0.0336
3128.00,0.0335
3127.00,0.0335
3126.00,0.0334
3125.00,0.0333
3124.00,0.0332
3123.00,0.0331
3122.00,0.0329
3121.00,0.0328
3120.00,0.0327
3119.00,0.0326
3118.00,0.0326
3117.00,0.0326
3116.00,0.0326
3115.00,0.0327
3114.00,0.0327
3113.00,0.0328
3112.00,0.0328
3111.00,0.0328
3110.00,0.0328
3109.00,0.0328
3108.00,0.0329
3107.00,0.0330
3106.00,0.0331
3105.00,0.0331
3104.00,0.0332
3103.00,0.0331
3102.00,0.0331
3101.00,0.0331
3100.00,0.0332
3099.00,0.0333
3098.00,0.0334
3097.00,0.0336
3096.00,0.0337
3095.00,0.0337
3094.00,0.0338
3093.00,0.0338
3092.00,0.0337
3091.00,0.0337
3090.00,0.0338
3089.00,0.0338
3088.00,0.0339
3087.00,0.0339
3086.00,0.0339
3085.00,0.0339
3084.00,0.0339
3083.00,0.0339
3082.00,0.0339
3081.00,0.0339
3080.00,0.0339
3079.00,0.0339
3078.00,0.0339
3077.00,0.0340
3076.00,0.0340
3075.00,0.0341
3074.00,0.0341
3073.00,0.0341
3072.00,0.0340
3071.00,0.0339
3070.00,0.0338
3069.00,0.0336
3068.00,0.0335
3067.00,0.0334
3066.00,0.0333
3065.00,0.0333
3064.00,0.0333
3063.00,0.0332
3062.00,0.0331
3061.00,0.0330
3060.00,0.0328
3059.00,0.0326
3058.00,0.0324
3057.00,0.0322
3056.00,0.0319
3055.00,0.0317
3054.00,0.0315
3053.00,0.0314
3052.00,0.0312
3051.00,0.0310
3050.00,0.0309
3049.00,0.0308
3048.00,0.0306
3047.00,0.0303
3046.00,0.0301
3045.00,0.0298
3044.00,0.0296
3043.00,0.0294
3042.00,0.0293
3041.00,0.0292
3040.00,0.0292
3039.00,0.0291
3038.00,0.0290
3037.00,0.0288
3036.00,0.0285
3035.00,0.0283
3034.00,0.0282
3033.00,0.0281
3032.00,0.0280
3031.00,0.0279
3030.00,0.0278
3029.00,0.0277
3028.00,0.0275
3027.00,0.0273
3026.00,0.0271
3025.00,0.0269
3024.00,0.0266
3023.00,0.0264
3022.00,0.0262
3021.00,0.0259
3020.00,0.0256
3019.00,0.0253
3018.00,0.0250
3017.00,0.0246
3016.00,0.0242
3015.00,0.0238
3014.00,0.0233
3013.00,0.0229
3012.00,0.0224
3011.00,0.0219
3010.00,0.0214
3009.00,0.0209
3008.00,0.0203
3007.00,0.0196
3006.00,0.0188
3005.00,0.0180
3004.00,0.0172
3003.00,0.0163
3002.00,0.0156
3001.00,0.0148
3000.00,0.0142
2999.00,0.0136
2998.00,0.0131
2997.00,0.0126
2996.00,0.0123
2995.00,0.0119
2994.00,0.0117
2993.00,0.0114
2992.00,0.0113
2991.00,0.0112
2990.00,0.0111
2989.00,0.0111
2988.00,0.0109
2987.00,0.0105
2986.00,0.0097
2985.00,0.0083
2984.00,0.0064
2983.00,0.0045
2982.00,0.0032
2981.00,0.0030
2980.00,0.0040
2979.00,0.0056
2978.00,0.0074
2977.00,0.0091
2976.00,0.0104
2975.00,0.0114
2974.00,0.0119
2973.00,0.0122
2972.00,0.0125
2971.00,0.0132
2970.00,0.0144
2969.00,0.0159
2968.00,0.0174
2967.00,0.0187
2966.00,0.0199
2965.00,0.0208
2964.00,0.0217
2963.00,0.0224
2962.00,0.0231
2961.00,0.0236
2960.00,0.0241
2959.00,0.0244
2958.00,0.0247
2957.00,0.0248
2956.00,0.0249
2955.00,0.0250
2954.00,0.0251
2953.00,0.0252
2952.00,0.0253
2951.00,0.0255
2950.00,0.0257
2949.00,0.0258
2948.00,0.0261
2947.00,0.0264
2946.00,0.0268
2945.00,0.0274
2944.00,0.0280
2943.00,0.0286
2942.00,0.0291
2941.00,0.0296
2940.00,0.0301
2939.00,0.0306
2938.00,0.0311
2937.00,0.0316
2936.00,0.0320
2935.00,0.0324
2934.00,0.0327
2933.00,0.0329
2932.00,0.0331
2931.00,0.0332
2930.00,0.0334
2929.00,0.0336
2928.00,0.0338
2927.00,0.0339
2926.00,0.0339
2925.00,0.0339
2924.00,0.0338
2923.00,0.0336
2922.00,0.0333
2921.00,0.0329
2920.00,0.0324
2919.00,0.0318
2918.00,0.0312
2917.00,0.0305
2916.00,0.0299
2915.00,0.0292
2914.00,0.0286
2913.00,0.0280
2912.00,0.0274
2911.00,0.0268
2910.00,0.0262
2909.00,0.0256
2908.00,0.0252
2907.00,0.0247
2906.00,0.0242
2905.00,0.0238
2904.00,0.0235
2903.00,0.0231
2902.00,0.0228
2901.00,0.0225
2900.00,0.0222
2899.00,0.0219
2898.00,0.0215
2897.00,0.0212
2896.00,0.0209
2895.00,0.0205
2894.00,0.0202
2893.00,0.0198
2892.00,0.0195
2891.00,0.0192
2890.00,0.0190
2889.00,0.0189
2888.00,0.0189
2887.00,0.0189
2886.00,0.0189
2885.00,0.0190
2884.00,0.0191
2883.00,0.0194
2882.00,0.0199
2881.00,0.0205
2880.00,0.0211
2879.00,0.0217
2878.00,0.0222
2877.00,0.0225
2876.00,0.0228
2875.00,0.0230
2874.00,0.0231
2873.00,0.0232
2872.00,0.0232
2871.00,0.0231
2870.00,0.0230
2869.00,0.0228
2868.00,0.0227
2867.00,0.0225
2866.00,0.0223
2865.00,0.0222
2864.00,0.0222
2863.00,0.0222
2862.00,0.0222
2861.00,0.0223
2860.00,0.0224
2859.00,0.0225
2858.00,0.0227
2857.00,0.0228
2856.00,0.0229
2855.00,0.0229
2854.00,0.0229
2853.00,0.0228
2852.00,0.0227
2851.00,0.0224
2850.00,0.0221
2849.00,0.0218
2848.00,0.0214
2847.00,0.0210
2846.00,0.0206
2845.00,0.0202
2844.00,0.0198
2843.00,0.0195
2842.00,0.0191
2841.00,0.0188
2840.00,0.0186
2839.00,0.0183
2838.00,0.0181
2837.00,0.0180
2836.00,0.0179
2835.00,0.0178
2834.00,0.0177
2833.00,0.0176
2832.00,0.0175
2831.00,0.0174
2830.00,0.0173
2829.00,0.0172
2828.00,0.0171
2827.00,0.0171
2826.00,0.0170
2825.00,0.0170
2824.00,0.0169
2823.00,0.0168
2822.00,0.0168
2821.00,0.0167
2820.00,0.0167
2819.00,0.0166
2818.00,0.0165
2817.00,0.0165
2816.00,0.0164
2815.00,0.0164
2814.00,0.0163
2813.00,0.0163
2812.00,0.0162
2811.00,0.0162
2810.00,0.0161
2809.00,0.0161
2808.00,0.0161
2807.00,0.0160
2806.00,0.0160
2805.00,0.0159
2804.00,0.0159
2803.00,0.0159
2802.00,0.0158
2801.00,0.0157
2800.00,0.0156
2799.00,0.0155
2798.00,0.0155
2797.00,0.0154
2796.00,0.0154
2795.00,0.0154
2794.00,0.0153
2793.00,0.0153
2792.00,0.0152
2791.00,0.0151
2790.00,0.0150
2789.00,0.0150
2788.00,0.0150
2787.00,0.0149
2786.00,0.0149
2785.00,0.0149
2784.00,0.0148
2783.00,0.0148
2782.00,0.0147
2781.00,0.0147
2780.00,0.0146
2779.00,0.0145
2778.00,0.0145
2777.00,0.0144
2776.00,0.0144
2775.00,0.0143
2774.00,0.0142
2773.00,0.0142
2772.00,0.0142
2771.00,0.0141
2770.00,0.0141
2769.00,0.0140
2768.00,0.0140
2767.00,0.0139
2766.00,0.0139
2765.00,0.0138
2764.00,0.0138
2763.00,0.0137
2762.00,0.0137
2761.00,0.0136
2760.00,0.0136
2759.00,0.0135
2758.00,0.0135
2757.00,0.0134
2756.00,0.0134
2755.00,0.0133
2754.00,0.0133
2753.00,0.0133
2752.00,0.0132
2751.00,0.0131
2750.00,0.0131
2749.00,0.0130
2748.00,0.0130
2747.00,0.0129
2746.00,0.0129
2745.00,0.0128
2744.00,0.0128
2743.00,0.0128
2742.00,0.0127
2741.00,0.0127
2740.00,0.0126
2739.00,0.0126
2738.00,0.0125
2737.00,0.0125
2736.00,0.0124
2735.00,0.0123
2734.00,0.0123
2733.00,0.0123
2732.00,0.0122
2731.00,0.0122
2730.00,0.0121
2729.00,0.0121
2728.00,0.0120
2727.00,0.0120
2726.00,0.0119
2725.00,0.0119
2724.00,0.0118
2723.00,0.0118
2722.00,0.0117
2721.00,0.0117
2720.00,0.0117
2719.00,0.0116
2718.00,0.0116
2717.00,0.0115
2716.00,0.0115
2715.00,0.0114
2714.00,0.0114
2713.00,0.0114
2712.00,0.0113
2711.00,0.0113
2710.00,0.0113
2709.00,0.0112
2708.00,0.0112
2707.00,0.0112
2706.00,0.0111
2705.00,0.0111
2704.00,0.0111
2703.00,0.0110
2702.00,0.0110
2701.00,0.0110
2700.00,0.0109
2699.00,0.0109
2698.00,0.0109
2697.00,0.0109
2696.00,0.0109
2695.00,0.0108
2694.00,0.0108
2693.00,0.0108
2692.00,0.0107
2691.00,0.0107
2690.00,0.0107
2689.00,0.0107
2688.00,0.0106
2687.00,0.0106
2686.00,0.0106
2685.00,0.0106
2684.00,0.0105
2683.00,0.0105
2682.00,0.0105
2681.00,0.0104
2680.00,0.0104
2679.00,0.0104
2678.00,0.0103
2677.00,0.0103
2676.00,0.0103
2675.00,0.0103
2674.00,0.0102
2673.00,0.0102
2672.00,0.0102
2671.00,0.0101
2670.00,0.0101
2669.00,0.0101
2668.00,0.0101
2667.00,0.0101
2666.00,0.0101
2665.00,0.0102
2664.00,0.0102
2663.00,0.0102
2662.00,0.0102
2661.00,0.0103
2660.00,0.0103
2659.00,0.0103
2658.00,0.0103
2657.00,0.0103
2656.00,0.0103
2655.00,0.0103
2654.00,0.0102
2653.00,0.0102
2652.00,0.0102
2651.00,0.0102
2650.00,0.0101
2649.00,0.0101
2648.00,0.0101
2647.00,0.0101
2646.00,0.0101
2645.00,0.0101
2644.00,0.0101
2643.00,0.0101
2642.00,0.0100
2641.00,0.0100
2640.00,0.0100
2639.00,0.0100
2638.00,0.0100
2637.00,0.0099
2636.00,0.0099
2635.00,0.0099
2634.00,0.0099
2633.00,0.0099
2632.00,0.0099
2631.00,0.0098
2630.00,0.0098
2629.00,0.0098
2628.00,0.0097
2627.00,0.0097
2626.00,0.0097
2625.00,0.0097
2624.00,0.0097
2623.00,0.0097
2622.00,0.0097
2621.00,0.0096
2620.00,0.0096
2619.00,0.0096
2618.00,0.0095
2617.00,0.0095
2616.00,0.0095
2615.00,0.0095
2614.00,0.0094
2613.00,0.0094
2612.00,0.0093
2611.00,0.0093
2610.00,0.0093
2609.00,0.0093
2608.00,0.0093
2607.00,0.0093
2606.00,0.0093
2605.00,0.0092
2604.00,0.0092
2603.00,0.0092
2602.00,0.0092
2601.00,0.0091
2600.00,0.0091
2599.00,0.0090
2598.00,0.0090
2597.00,0.0089
2596.00,0.0089
2595.00,0.0089
2594.00,0.0088
2593.00,0.0088
2592.00,0.0088
2591.00,0.0088
2590.00,0.0087
2589.00,0.0087
2588.00,0.0087
2587.00,0.0086
2586.00,0.0086
2585.00,0.0086
2584.00,0.0086
2583.00,0.0085
2582.00,0.0085
2581.00,0.0085
2580.00,0.0084
2579.00,0.0084
2578.00,0.0084
2577.00,0.0084
2576.00,0.0083
2575.00,0.0083
2574.00,0.0083
2573.00,0.0083
2572.00,0.0083
2571.00,0.0083
2570.00,0.0082
2569.00,0.0082
2568.00,0.0082
2567.00,0.0082
2566.00,0.0082
2565.00,0.0081
2564.00,0.0081
2563.00,0.0081
2562.00,0.0081
2561.00,0.0081
2560.00,0.0081
2559.00,0.0080
2558.00,0.0080
2557.00,0.0080
2556.00,0.0079
2555.00,0.0079
2554.00,0.0079
2553.00,0.0079
2552.00,0.0079
2551.00,0.0078
2550.00,0.0078
2549.00,0.0077
2548.00,0.0077
2547.00,0.0077
2546.00,0.0076
2545.00,0.0076
2544.00,0.0076
2543.00,0.0076
2542.00,0.0076
2541.00,0.0075
2540.00,0.0075
2539.00,0.0075
2538.00,0.0075
2537.00,0.0075
2536.00,0.0075
2535.00,0.0074
2534.00,0.0074
2533.00,0.0073
2532.00,0.0073
2531.00,0.0072
2530.00,0.0072
2529.00,0.0072
2528.00,0.0072
2527.00,0.0072
2526.00,0.0072
2525.00,0.0072
2524.00,0.0072
2523.00,0.0072
2522.00,0.0071
2521.00,0.0071
2520.00,0.0071
2519.00,0.0071
2518.00,0.0071
2517.00,0.0071
2516.00,0.0071
2515.00,0.0071
2514.00,0.0071
2513.00,0.0071
2512.00,0.0070
2511.00,0.0070
2510.00,0.0069
2509.00,0.0069
2508.00,0.0069
2507.00,0.0069
2506.00,0.0069
2505.00,0.0069
2504.00,0.0069
2503.00,0.0068
2502.00,0.0068
2501.00,0.0068
2500.00,0.0068
2499.00,0.0068
2498.00,0.0068
2497.00,0.0068
2496.00,0.0067
2495.00,0.0067
2494.00,0.0067
2493.00,0.0066
2492.00,0.0066
2491.00,0.0066
2490.00,0.0066
2489.00,0.0065
2488.00,0.0065
2487.00,0.0065
2486.00,0.0064
2485.00,0.0065
2484.00,0.0065
2483.00,0.0065
2482.00,0.0065
2481.00,0.0064
2480.00,0.0064
2479.00,0.0063
2478.00,0.0063
2477.00,0.0063
2476.00,0.0063
2475.00,0.0063
2474.00,0.0063
2473.00,0.0062
2472.00,0.0062
2471.00,0.0062
2470.00,0.0061
2469.00,0.0061
2468.00,0.0061
2467.00,0.0061
2466.00,0.0061
2465.00,0.0061
2464.00,0.0061
2463.00,0.0061
2462.00,0.0061
2461.00,0.0061
2460.00,0.0061
2459.00,0.0061
2458.00,0.0061
2457.00,0.0061
2456.00,0.0061
2455.00,0.0061
2454.00,0.0061
2453.00,0.0060
2452.00,0.0060
2451.00,0.0059
2450.00,0.0059
2449.00,0.0059
2448.00,0.0058
2447.00,0.0058
2446.00,0.0058
2445.00,0.0058
2444.00,0.0057
2443.00,0.0057
2442.00,0.0057
2441.00,0.0056
2440.00,0.0056
2439.00,0.0056
2438.00,0.0055
2437.00,0.0055
2436.00,0.0055
2435.00,0.0055
2434.00,0.0055
2433.00,0.0054
2432.00,0.0054
2431.00,0.0054
2430.00,0.0054
2429.00,0.0053
2428.00,0.0053
2427.00,0.0053
2426.00,0.0053
2425.00,0.0052
2424.00,0.0052
2423.00,0.0052
2422.00,0.0051
2421.00,0.0051
2420.00,0.0051
2419.00,0.0050
2418.00,0.0050
2417.00,0.0050
2416.00,0.0050
2415.00,0.0050
2414.00,0.0050
2413.00,0.0050
2412.00,0.0050
2411.00,0.0050
2410.00,0.0049
2409.00,0.0048
2408.00,0.0048
2407.00,0.0047
2406.00,0.0047
2405.00,0.0047
2404.00,0.0047
2403.00,0.0047
2402.00,0.0047
2401.00,0.0046
2400.00,0.0046
2399.00,0.0046
2398.00,0.0045
2397.00,0.0045
2396.00,0.0045
2395.00,0.0045
2394.00,0.0045
2393.00,0.0045
2392.00,0.0045
2391.00,0.0045
2390.00,0.0045
2389.00,0.0044
2388.00,0.0044
2387.00,0.0044
2386.00,0.0043
2385.00,0.0042
2384.00,0.0042
2383.00,0.0041
2382.00,0.0041
2381.00,0.0040
2380.00,0.0040
2379.00,0.0040
2378.00,0.0040
2377.00,0.0040
2376.00,0.0040
2375.00,0.0040
2374.00,0.0040
2373.00,0.0040
2372.00,0.0039
2371.00,0.0038
2370.00,0.0038
2369.00,0.0038
2368.00,0.0038
2367.00,0.0038
2366.00,0.0038
2365.00,0.0038
2364.00,0.0038
2363.00,0.0038
2362.00,0.0038
2361.00,0.0038
2360.00,0.0038
2359.00,0.0038
2358.00,0.0038
2357.00,0.0038
2356.00,0.0038
2355.00,0.0037
2354.00,0.0036
2353.00,0.0035
2352.00,0.0035
2351.00,0.0036
2350.00,0.0038
2349.00,0.0039
2348.00,0.0040
2347.00,0.0039
2346.00,0.0039
2345.00,0.0039
2344.00,0.0039
2343.00,0.0040
2342.00,0.0040
2341.00,0.0040
2340.00,0.0040
2339.00,0.0040
2338.00,0.0040
2337.00,0.0040
2336.00,0.0040
2335.00,0.0040
2334.00,0.0039
2333.00,0.0039
2332.00,0.0038
2331.00,0.0038
2330.00,0.0039
2329.00,0.0041
2328.00,0.0045
2327.00,0.0050
2326.00,0.0053
2325.00,0.0054
2324.00,0.0053
2323.00,0.0050
2322.00,0.0048
2321.00,0.0046
2320.00,0.0045
2319.00,0.0045
2318.00,0.0045
2317.00,0.0044
2316.00,0.0044
2315.00,0.0043
2314.00,0.0043
2313.00,0.0042
2312.00,0.0042
2311.00,0.0042
2310.00,0.0042
2309.00,0.0042
2308.00,0.0041
2307.00,0.0042
2306.00,0.0042
2305.00,0.0042
2304.00,0.0043
2303.00,0.0044
2302.00,0.0044
2301.00,0.0044
2300.00,0.0044
2299.00,0.0044
2298.00,0.0044
2297.00,0.0045
2296.00,0.0045
2295.00,0.0046
2294.00,0.0046
2293.00,0.0047
2292.00,0.0048
2291.00,0.0049
2290.00,0.0050
2289.00,0.0051
2288.00,0.0051
2287.00,0.0052
2286.00,0.0051
2285.00,0.0050
2284.00,0.0049
2283.00,0.0048
2282.00,0.0047
2281.00,0.0046
2280.00,0.0046
2279.00,0.0045
2278.00,0.0045
2277.00,0.0045
2276.00,0.0044
2275.00,0.0043
2274.00,0.0042
2273.00,0.0042
2272.00,0.0042
2271.00,0.0042
2270.00,0.0042
2269.00,0.0042
2268.00,0.0042
2267.00,0.0042
2266.00,0.0041
2265.00,0.0041
2264.00,0.0041
2263.00,0.0041
2262.00,0.0041
2261.00,0.0041
2260.00,0.0042
2259.00,0.0042
2258.00,0.0042
2257.00,0.0041
2256.00,0.0040
2255.00,0.0040
2254.00,0.0039
2253.00,0.0039
2252.00,0.0039
2251.00,0.0039
2250.00,0.0038
2249.00,0.0038
2248.00,0.0039
2247.00,0.0039
2246.00,0.0038
2245.00,0.0039
2244.00,0.0040
2243.00,0.0041
2242.00,0.0041
2241.00,0.0040
2240.00,0.0040
2239.00,0.0039
2238.00,0.0039
2237.00,0.0039
2236.00,0.0039
2235.00,0.0038
2234.00,0.0038
2233.00,0.0038
2232.00,0.0038
2231.00,0.0038
2230.00,0.0037
2229.00,0.0037
2228.00,0.0037
2227.00,0.0037
2226.00,0.0038
2225.00,0.0038
2224.00,0.0037
2223.00,0.0036
2222.00,0.0036
2221.00,0.0036
2220.00,0.0037
2219.00,0.0037
2218.00,0.0037
2217.00,0.0037
2216.00,0.0036
2215.00,0.0035
2214.00,0.0034
2213.00,0.0033
2212.00,0.0033
2211.00,0.0033
2210.00,0.0033
2209.00,0.0033
2208.00,0.0034
2207.00,0.0033
2206.00,0.0033
2205.00,0.0034
2204.00,0.0035
2203.00,0.0036
2202.00,0.0036
2201.00,0.0036
2200.00,0.0036
2199.00,0.0037
2198.00,0.0036
2197.00,0.0037
2196.00,0.0037
2195.00,0.0037
2194.00,0.0037
2193.00,0.0036
2192.00,0.0037
2191.00,0.0037
2190.00,0.0036
2189.00,0.0036
2188.00,0.0036
2187.00,0.0036
2186.00,0.0035
2185.00,0.0035
2184.00,0.0034
2183.00,0.0032
2182.00,0.0031
2181.00,0.0032
2180.00,0.0034
2179.00,0.0033
2178.00,0.0031
2177.00,0.0027
2176.00,0.0025
2175.00,0.0025
2174.00,0.0027
2173.00,0.0030
2172.00,0.0033
2171.00,0.0036
2170.00,0.0038
2169.00,0.0039
2168.00,0.0040
2167.00,0.0040
2166.00,0.0040
2165.00,0.0042
2164.00,0.0045
2163.00,0.0046
2162.00,0.0041
2161.00,0.0029
2160.00,0.0015
2159.00,0.0002
2158.00,-0.0003
2157.00,-0.0001
2156.00,0.0003
2155.00,0.0007
2154.00,0.0009
2153.00,0.0010
2152.00,0.0012
2151.00,0.0013
2150.00,0.0013
2149.00,0.0013
2148.00,0.0013
2147.00,0.0013
2146.00,0.0013
2145.00,0.0014
2144.00,0.0015
2143.00,0.0016
2142.00,0.0016
2141.00,0.0017
2140.00,0.0018
2139.00,0.0018
2138.00,0.0018
2137.00,0.0016
2136.00,0.0014
2135.00,0.0013
2134.00,0.0012
2133.00,0.0013
2132.00,0.0015
2131.00,0.0018
2130.00,0.0019
2129.00,0.0021
2128.00,0.0023
2127.00,0.0024
2126.00,0.0025
2125.00,0.0026
2124.00,0.0027
2123.00,0.0028
2122.00,0.0028
2121.00,0.0029
2120.00,0.0030
2119.00,0.0031
2118.00,0.0033
2117.00,0.0034
2116.00,0.0036
2115.00,0.0037
2114.00,0.0037
2113.00,0.0037
2112.00,0.0037
2111.00,0.0037
2110.00,0.0037
2109.00,0.0036
2108.00,0.0036
2107.00,0.0036
2106.00,0.0036
2105.00,0.0036
2104.00,0.0036
2103.00,0.0035
2102.00,0.0034
2101.00,0.0034
2100.00,0.0034
2099.00,0.0034
2098.00,0.0034
2097.00,0.0033
2096.00,0.0032
2095.00,0.0030
2094.00,0.0029
2093.00,0.0030
2092.00,0.0031
2091.00,0.0032
2090.00,0.0033
2089.00,0.0034
2088.00,0.0035
2087.00,0.0036
2086.00,0.0035
2085.00,0.0035
2084.00,0.0035
2083.00,0.0036
2082.00,0.0036
2081.00,0.0037
2080.00,0.0037
2079.00,0.0037
2078.00,0.0037
2077.00,0.0036
2076.00,0.0036
2075.00,0.0036
2074.00,0.0035
2073.00,0.0034
2072.00,0.0033
2071.00,0.0032
2070.00,0.0032
2069.00,0.0032
2068.00,0.0033
2067.00,0.0033
2066.00,0.0033
2065.00,0.0033
2064.00,0.0033
2063.00,0.0032
2062.00,0.0032
2061.00,0.0032
2060.00,0.0033
2059.00,0.0034
2058.00,0.0034
2057.00,0.0033
2056.00,0.0032
2055.00,0.0031
2054.00,0.0033
2053.00,0.0038
2052.00,0.0043
2051.00,0.0044
2050.00,0.0041
2049.00,0.0037
2048.00,0.0033
2047.00,0.0030
2046.00,0.0026
2045.00,0.0025
2044.00,0.0025
2043.00,0.0025
2042.00,0.0026
2041.00,0.0026
2040.00,0.0027
2039.00,0.0027
2038.00,0.0027
2037.00,0.0027
2036.00,0.0027
2035.00,0.0025
2034.00,0.0021
2033.00,0.0020
2032.00,0.0020
2031.00,0.0021
2030.00,0.0020
2029.00,0.0019
2028.00,0.0018
2027.00,0.0017
2026.00,0.0015
2025.00,0.0015
2024.00,0.0016
2023.00,0.0016
2022.00,0.0016
2021.00,0.0016
2020.00,0.0017
2019.00,0.0017
2018.00,0.0016
2017.00,0.0018
2016.00,0.0021
2015.00,0.0023
2014.00,0.0023
2013.00,0.0023
2012.00,0.0023
2011.00,0.0022
2010.00,0.0020
2009.00,0.0018
2008.00,0.0016
2007.00,0.0015
2006.00,0.0014
2005.00,0.0016
2004.00,0.0019
2003.00,0.0019
2002.00,0.0019
2001.00,0.0019
2000.00,0.0020
1999.00,0.0021
1998.00,0.0023
1997.00,0.0025
1996.00,0.0027
1995.00,0.0027
1994.00,0.0025
1993.00,0.0025
1992.00,0.0027
1991.00,0.0029
1990.00,0.0029
1989.00,0.0031
1988.00,0.0032
1987.00,0.0034
1986.00,0.0035
1985.00,0.0037
1984.00,0.0039
1983.00,0.0042
1982.00,0.0042
1981.00,0.0042
1980.00,0.0039
1979.00,0.0031
1978.00,0.0022
1977.00,0.0017
1976.00,0.0016
1975.00,0.0016
1974.00,0.0016
1973.00,0.0017
1972.00,0.0019
1971.00,0.0019
1970.00,0.0019
1969.00,0.0018
1968.00,0.0018
1967.00,0.0018
1966.00,0.0018
1965.00,0.0019
1964.00,0.0019
1963.00,0.0018
1962.00,0.0016
1961.00,0.0016
1960.00,0.0016
1959.00,0.0016
1958.00,0.0016
1957.00,0.0017
1956.00,0.0019
1955.00,0.0020
1954.00,0.0021
1953.00,0.0021
1952.00,0.0023
1951.00,0.0024
1950.00,0.0023
1949.00,0.0022
1948.00,0.0022
1947.00,0.0022
1946.00,0.0022
1945.00,0.0022
1944.00,0.0024
1943.00,0.0026
1942.00,0.0027
1941.00,0.0028
1940.00,0.0028
1939.00,0.0028
1938.00,0.0027
1937.00,0.0026
1936.00,0.0026
1935.00,0.0026
1934.00,0.0025
1933.00,0.0025
1932.00,0.0026
1931.00,0.0027
1930.00,0.0027
1929.00,0.0027
1928.00,0.0027
1927.00,0.0026
1926.00,0.0025
1925.00,0.0023
1924.00,0.0023
1923.00,0.0025
1922.00,0.0026
1921.00,0.0027
1920.00,0.0028
1919.00,0.0028
1918.00,0.0028
1917.00,0.0029
1916.00,0.0029
1915.00,0.0029
1914.00,0.0028
1913.00,0.0028
1912.00,0.0029
1911.00,0.0029
1910.00,0.0028
1909.00,0.0029
1908.00,0.0029
1907.00,0.0030
1906.00,0.0029
1905.00,0.0030
1904.00,0.0031
1903.00,0.0031
1902.00,0.0031
1901.00,0.0031
1900.00,0.0032
1899.00,0.0031
1898.00,0.0030
1897.00,0.0030
1896.00,0.0030
1895.00,0.0030
1894.00,0.0031
1893.00,0.0031
1892.00,0.0030
1891.00,0.0029
1890.00,0.0029
1889.00,0.0030
1888.00,0.0031
1887.00,0.0032
1886.00,0.0031
1885.00,0.0031
1884.00,0.0032
1883.00,0.0032
1882.00,0.0032
1881.00,0.0033
1880.00,0.0034
1879.00,0.0034
1878.00,0.0034
1877.00,0.0033
1876.00,0.0033
1875.00,0.0033
1874.00,0.0032
1873.00,0.0031
1872.00,0.0031
1871.00,0.0030
1870.00,0.0028
1869.00,0.0028
1868.00,0.0030
1867.00,0.0031
1866.00,0.0032
1865.00,0.0032
1864.00,0.0033
1863.00,0.0033
1862.00,0.0033
1861.00,0.0033
1860.00,0.0034
1859.00,0.0034
1858.00,0.0034
1857.00,0.0034
1856.00,0.0034
1855.00,0.0034
1854.00,0.0034
1853.00,0.0034
1852.00,0.0035
1851.00,0.0034
1850.00,0.0033
1849.00,0.0032
1848.00,0.0032
1847.00,0.0032
1846.00,0.0033
1845.00,0.0035
1844.00,0.0037
1843.00,0.0038
1842.00,0.0037
1841.00,0.0036
1840.00,0.0035
1839.00,0.0035
1838.00,0.0035
1837.00,0.0035
1836.00,0.0036
1835.00,0.0037
1834.00,0.0036
1833.00,0.0035
1832.00,0.0035
1831.00,0.0034
1830.00,0.0034
1829.00,0.0036
1828.00,0.0036
1827.00,0.0037
1826.00,0.0037
1825.00,0.0038
1824.00,0.0040
1823.00,0.0041
1822.00,0.0040
1821.00,0.0040
1820.00,0.0040
1819.00,0.0039
1818.00,0.0038
1817.00,0.0038
1816.00,0.0039
1815.00,0.0039
1814.00,0.0039
1813.00,0.0038
1812.00,0.0039
1811.00,0.0040
1810.00,0.0041
1809.00,0.0042
1808.00,0.0043
1807.00,0.0044
1806.00,0.0044
1805.00,0.0044
1804.00,0.0044
1803.00,0.0043
1802.00,0.0043
1801.00,0.0044
1800.00,0.0045
1799.00,0.0046
1798.00,0.0046
1797.00,0.0046
1796.00,0.0047
1795.00,0.0048
1794.00,0.0049
1793.00,0.0050
1792.00,0.0052
1791.00,0.0053
1790.00,0.0053
1789.00,0.0053
1788.00,0.0053
1787.00,0.0054
1786.00,0.0055
1785.00,0.0055
1784.00,0.0055
1783.00,0.0054
1782.00,0.0053
1781.00,0.0054
1780.00,0.0055
1779.00,0.0056
1778.00,0.0056
1777.00,0.0056
1776.00,0.0057
1775.00,0.0058
1774.00,0.0059
1773.00,0.0060
1772.00,0.0063
1771.00,0.0065
1770.00,0.0066
1769.00,0.0067
1768.00,0.0070
1767.00,0.0071
1766.00,0.0071
1765.00,0.0071
1764.00,0.0073
1763.00,0.0075
1762.00,0.0077
1761.00,0.0080
1760.00,0.0082
1759.00,0.0083
1758.00,0.0085
1757.00,0.0089
1756.00,0.0094
1755.00,0.0097
1754.00,0.0099
1753.00,0.0102
1752.00,0.0105
1751.00,0.0108
1750.00,0.0110
1749.00,0.0113
1748.00,0.0118
1747.00,0.0124
1746.00,0.0128
1745.00,0.0133
1744.00,0.0139
1743.00,0.0145
1742.00,0.0152
1741.00,0.0159
1740.00,0.0167
1739.00,0.0174
1738.00,0.0179
1737.00,0.0184
1736.00,0.0192
1735.00,0.0201
1734.00,0.0208
1733.00,0.0212
1732.00,0.0214
1731.00,0.0216
1730.00,0.0221
1729.00,0.0227
1728.00,0.0234
1727.00,0.0239
1726.00,0.0242
1725.00,0.0246
1724.00,0.0251
1723.00,0.0255
1722.00,0.0259
1721.00,0.0263
1720.00,0.0267
1719.00,0.0272
1718.00,0.0276
1717.00,0.0282
1716.00,0.0289
1715.00,0.0295
1714.00,0.0299
1713.00,0.0304
1712.00,0.0310
1711.00,0.0317
1710.00,0.0324
1709.00,0.0332
1708.00,0.0342
1707.00,0.0354
1706.00,0.0370
1705.00,0.0390
1704.00,0.0412
1703.00,0.0436
1702.00,0.0465
1701.00,0.0506
1700.00,0.0553
1699.00,0.0589
1698.00,0.0613
1697.00,0.0638
1696.00,0.0669
1695.00,0.0695
1694.00,0.0710
1693.00,0.0718
1692.00,0.0727
1691.00,0.0739
1690.00,0.0754
1689.00,0.0770
1688.00,0.0787
1687.00,0.0806
1686.00,0.0825
1685.00,0.0850
1684.00,0.0881
1683.00,0.0907
1682.00,0.0925
1681.00,0.0943
1680.00,0.0965
1679.00,0.0988
1678.00,0.1012
1677.00,0.1036
1676.00,0.1064
1675.00,0.1092
1674.00,0.1115
1673.00,0.1134
1672.00,0.1154
1671.00,0.1179
1670.00,0.1208
1669.00,0.1238
1668.00,0.1267
1667.00,0.1291
1666.00,0.1313
1665.00,0.1337
1664.00,0.1365
1663.00,0.1395
1662.00,0.1425
1661.00,0.1453
1660.00,0.1479
1659.00,0.1504
1658.00,0.1528
1657.00,0.1551
1656.00,0.1577
1655.00,0.1604
1654.00,0.1633
1653.00,0.1662
1652.00,0.1679
1651.00,0.1683
1650.00,0.1685
1649.00,0.1692
1648.00,0.1704
1647.00,0.1719
1646.00,0.1732
1645.00,0.1740
1644.00,0.1749
1643.00,0.1758
1642.00,0.1767
1641.00,0.1779
1640.00,0.1792
1639.00,0.1806
1638.00,0.1822
1637.00,0.1843
1636.00,0.1872
1635.00,0.1902
1634.00,0.1926
1633.00,0.1948
1632.00,0.1974
1631.00,0.2004
1630.00,0.2036
1629.00,0.2071
1628.00,0.2107
1627.00,0.2142
1626.00,0.2173
1625.00,0.2199
1624.00,0.2223
1623.00,0.2241
1622.00,0.2248
1621.00,0.2247
1620.00,0.2243
1619.00,0.2233
1618.00,0.2208
1617.00,0.2163
1616.00,0.2103
1615.00,0.2044
1614.00,0.1987
1613.00,0.1930
1612.00,0.1868
1611.00,0.1800
1610.00,0.1729
1609.00,0.1656
1608.00,0.1586
1607.00,0.1519
1606.00,0.1458
1605.00,0.1401
1604.00,0.1346
1603.00,0.1294
1602.00,0.1247
1601.00,0.1203
1600.00,0.1164
1599.00,0.1128
1598.00,0.1096
1597.00,0.1066
1596.00,0.1038
1595.00,0.1011
1594.00,0.0988
1593.00,0.0967
1592.00,0.0947
1591.00,0.0929
1590.00,0.0914
1589.00,0.0901
1588.00,0.0890
1587.00,0.0880
1586.00,0.0873
1585.00,0.0869
1584.00,0.0865
1583.00,0.0862
1582.00,0.0862
1581.00,0.0864
1580.00,0.0867
1579.00,0.0871
1578.00,0.0879
1577.00,0.0891
1576.00,0.0904
1575.00,0.0916
1574.00,0.0927
1573.00,0.0938
1572.00,0.0950
1571.00,0.0966
1570.00,0.0987
1569.00,0.1010
1568.00,0.1030
1567.00,0.1047
1566.00,0.1066
1565.00,0.1088
1564.00,0.1110
1563.00,0.1133
1562.00,0.1156
1561.00,0.1179
1560.00,0.1206
1559.00,0.1244
1558.00,0.1283
1557.00,0.1307
1556.00,0.1324
1555.00,0.1346
1554.00,0.1372
1553.00,0.1398
1552.00,0.1421
1551.00,0.1444
1550.00,0.1472
1549.00,0.1500
1548.00,0.1525
1547.00,0.1547
1546.00,0.1567
1545.00,0.1589
1544.00,0.1611
1543.00,0.1631
1542.00,0.1652
1541.00,0.1676
1540.00,0.1704
1539.00,0.1729
1538.00,0.1744
1537.00,0.1755
1536.00,0.1766
1535.00,0.1780
1534.00,0.1797
1533.00,0.1814
1532.00,0.1827
1531.00,0.1836
1530.00,0.1845
1529.00,0.1853
1528.00,0.1859
1527.00,0.1865
1526.00,0.1869
1525.00,0.1872
1524.00,0.1874
1523.00,0.1875
1522.00,0.1877
1521.00,0.1878
1520.00,0.1876
1519.00,0.1872
1518.00,0.1869
1517.00,0.1866
1516.00,0.1858
1515.00,0.1845
1514.00,0.1828
1513.00,0.1803
1512.00,0.1771
1511.00,0.1736
1510.00,0.1702
1509.00,0.1668
1508.00,0.1627
1507.00,0.1578
1506.00,0.1528
1505.00,0.1483
1504.00,0.1445
1503.00,0.1411
1502.00,0.1379
1501.00,0.1346
1500.00,0.1312
1499.00,0.1278
1498.00,0.1243
1497.00,0.1206
1496.00,0.1167
1495.00,0.1131
1494.00,0.1098
1493.00,0.1067
1492.00,0.1035
1491.00,0.1001
1490.00,0.0965
1489.00,0.0933
1488.00,0.0906
1487.00,0.0884
1486.00,0.0862
1485.00,0.0842
1484.00,0.0825
1483.00,0.0808
1482.00,0.0793
1481.00,0.0781
1480.00,0.0771
1479.00,0.0765
1478.00,0.0760
1477.00,0.0756
1476.00,0.0756
1475.00,0.0758
1474.00,0.0763
1473.00,0.0775
1472.00,0.0793
1471.00,0.0810
1470.00,0.0821
1469.00,0.0829
1468.00,0.0835
1467.00,0.0839
1466.00,0.0840
1465.00,0.0839
1464.00,0.0838
1463.00,0.0839
1462.00,0.0841
1461.00,0.0845
1460.00,0.0852
1459.00,0.0863
1458.00,0.0878
1457.00,0.0899
1456.00,0.0915
1455.00,0.0921
1454.00,0.0923
1453.00,0.0925
1452.00,0.0927
1451.00,0.0929
1450.00,0.0929
1449.00,0.0929
1448.00,0.0928
1447.00,0.0927
1446.00,0.0924
1445.00,0.0921
1444.00,0.0918
1443.00,0.0914
1442.00,0.0910
1441.00,0.0905
1440.00,0.0901
1439.00,0.0898
1438.00,0.0893
1437.00,0.0884
1436.00,0.0871
1435.00,0.0856
1434.00,0.0843
1433.00,0.0830
1432.00,0.0819
1431.00,0.0809
1430.00,0.0800
1429.00,0.0793
1428.00,0.0787
1427.00,0.0783
1426.00,0.0781
1425.00,0.0779
1424.00,0.0781
1423.00,0.0785
1422.00,0.0791
1421.00,0.0797
1420.00,0.0804
1419.00,0.0811
1418.00,0.0819
1417.00,0.0826
1416.00,0.0833
1415.00,0.0840
1414.00,0.0847
1413.00,0.0854
1412.00,0.0860
1411.00,0.0866
1410.00,0.0871
1409.00,0.0875
1408.00,0.0878
1407.00,0.0879
1406.00,0.0880
1405.00,0.0881
1404.00,0.0881
1403.00,0.0880
1402.00,0.0877
1401.00,0.0874
1400.00,0.0870
1399.00,0.0867
1398.00,0.0863
1397.00,0.0860
1396.00,0.0858
1395.00,0.0858
1394.00,0.0858
1393.00,0.0858
1392.00,0.0859
1391.00,0.0859
1390.00,0.0860
1389.00,0.0859
1388.00,0.0856
1387.00,0.0851
1386.00,0.0843
1385.00,0.0834
1384.00,0.0824
1383.00,0.0813
1382.00,0.0803
1381.00,0.0793
1380.00,0.0786
1379.00,0.0779
1378.00,0.0774
1377.00,0.0768
1376.00,0.0763
1375.00,0.0760
1374.00,0.0759
1373.00,0.0759
1372.00,0.0761
1371.00,0.0762
1370.00,0.0763
1369.00,0.0762
1368.00,0.0759
1367.00,0.0753
1366.00,0.0746
1365.00,0.0737
1364.00,0.0729
1363.00,0.0721
1362.00,0.0716
1361.00,0.0713
1360.00,0.0710
1359.00,0.0707
1358.00,0.0704
1357.00,0.0702
1356.00,0.0700
1355.00,0.0699
1354.00,0.0699
1353.00,0.0699
1352.00,0.0699
1351.00,0.0699
1350.00,0.0699
1349.00,0.0699
1348.00,0.0700
1347.00,0.0701
1346.00,0.0702
1345.00,0.0702
1344.00,0.0702
1343.00,0.0702
1342.00,0.0701
1341.00,0.0699
1340.00,0.0698
1339.00,0.0699
1338.00,0.0700
1337.00,0.0701
1336.00,0.0701
1335.00,0.0700
1334.00,0.0699
1333.00,0.0697
1332.00,0.0696
1331.00,0.0695
1330.00,0.0695
1329.00,0.0695
1328.00,0.0695
1327.00,0.0696
1326.00,0.0697
1325.00,0.0698
1324.00,0.0700
1323.00,0.0702
1322.00,0.0703
1321.00,0.0705
1320.00,0.0707
1319.00,0.0709
1318.00,0.0712
1317.00,0.0714
1316.00,0.0716
1315.00,0.0718
1314.00,0.0719
1313.00,0.0720
1312.00,0.0721
1311.00,0.0721
1310.00,0.0721
1309.00,0.0721
1308.00,0.0721
1307.00,0.0720
1306.00,0.0720
1305.00,0.0720
1304.00,0.0720
1303.00,0.0720
1302.00,0.0721
1301.00,0.0721
1300.00,0.0722
1299.00,0.0724
1298.00,0.0725
1297.00,0.0728
1296.00,0.0730
1295.00,0.0733
1294.00,0.0737
1293.00,0.0740
1292.00,0.0743
1291.00,0.0746
1290.00,0.0749
1289.00,0.0752
1288.00,0.0756
1287.00,0.0759
1286.00,0.0762
1285.00,0.0765
1284.00,0.0767
1283.00,0.0769
1282.00,0.0771
1281.00,0.0773
1280.00,0.0774
1279.00,0.0775
1278.00,0.0776
1277.00,0.0776
1276.00,0.0775
1275.00,0.0774
1274.00,0.0773
1273.00,0.0772
1272.00,0.0772
1271.00,0.0772
1270.00,0.0773
1269.00,0.0775
1268.00,0.0778
1267.00,0.0782
1266.00,0.0787
1265.00,0.0792
1264.00,0.0797
1263.00,0.0803
1262.00,0.0810
1261.00,0.0817
1260.00,0.0824
1259.00,0.0831
1258.00,0.0837
1257.00,0.0843
1256.00,0.0850
1255.00,0.0856
1254.00,0.0862
1253.00,0.0869
1252.00,0.0877
1251.00,0.0885
1250.00,0.0895
1249.00,0.0905
1248.00,0.0916
1247.00,0.0927
1246.00,0.0938
1245.00,0.0947
1244.00,0.0956
1243.00,0.0965
1242.00,0.0973
1241.00,0.0981
1240.00,0.0989
1239.00,0.0997
1238.00,0.1004
1237.00,0.1012
1236.00,0.1018
1235.00,0.1025
1234.00,0.1031
1233.00,0.1036
1232.00,0.1040
1231.00,0.1044
1230.00,0.1046
1229.00,0.1048
1228.00,0.1049
1227.00,0.1049
1226.00,0.1049
1225.00,0.1047
1224.00,0.1045
1223.00,0.1042
1222.00,0.1039
1221.00,0.1034
1220.00,0.1028
1219.00,0.1022
1218.00,0.1014
1217.00,0.1007
1216.00,0.0998
1215.00,0.0989
1214.00,0.0979
1213.00,0.0969
1212.00,0.0958
1211.00,0.0947
1210.00,0.0936
1209.00,0.0926
1208.00,0.0916
1207.00,0.0906
1206.00,0.0896
1205.00,0.0887
1204.00,0.0878
1203.00,0.0869
1202.00,0.0861
1201.00,0.0853
1200.00,0.0846
1199.00,0.0839
1198.00,0.0832
1197.00,0.0826
1196.00,0.0820
1195.00,0.0814
1194.00,0.0809
1193.00,0.0803
1192.00,0.0798
1191.00,0.0793
1190.00,0.0788
1189.00,0.0783
1188.00,0.0779
1187.00,0.0774
1186.00,0.0770
1185.00,0.0766
1184.00,0.0763
1183.00,0.0760
1182.00,0.0758
1181.00,0.0756
1180.00,0.0755
1179.00,0.0756
1178.00,0.0758
1177.00,0.0760
1176.00,0.0764
1175.00,0.0769
1174.00,0.0773
1173.00,0.0777
1172.00,0.0780
1171.00,0.0782
1170.00,0.0782
1169.00,0.0782
1168.00,0.0782
1167.00,0.0783
1166.00,0.0783
1165.00,0.0784
1164.00,0.0785
1163.00,0.0788
1162.00,0.0790
1161.00,0.0793
1160.00,0.0795
1159.00,0.0796
1158.00,0.0797
1157.00,0.0797
1156.00,0.0797
1155.00,0.0795
1154.00,0.0792
1153.00,0.0788
1152.00,0.0782
1151.00,0.0776
1150.00,0.0769
1149.00,0.0762
1148.00,0.0755
1147.00,0.0748
1146.00,0.0740
1145.00,0.0733
1144.00,0.0726
1143.00,0.0720
1142.00,0.0714
1141.00,0.0709
1140.00,0.0704
1139.00,0.0700
1138.00,0.0697
1137.00,0.0696
1136.00,0.0696
1135.00,0.0697
1134.00,0.0699
1133.00,0.0701
1132.00,0.0703
1131.00,0.0707
1130.00,0.0711
1129.00,0.0716
1128.00,0.0722
1127.00,0.0727
1126.00,0.0733
1125.00,0.0738
1124.00,0.0744
1123.00,0.0749
1122.00,0.0754
1121.00,0.0759
1120.00,0.0763
1119.00,0.0768
1118.00,0.0773
1117.00,0.0777
1116.00,0.0781
1115.00,0.0786
1114.00,0.0790
1113.00,0.0794
1112.00,0.0798
1111.00,0.0801
1110.00,0.0804
1109.00,0.0806
1108.00,0.0809
1107.00,0.0811
1106.00,0.0814
1105.00,0.0817
1104.00,0.0820
1103.00,0.0823
1102.00,0.0826
1101.00,0.0828
1100.00,0.0831
1099.00,0.0834
1098.00,0.0837
1097.00,0.0841
1096.00,0.0845
1095.00,0.0850
1094.00,0.0856
1093.00,0.0862
1092.00,0.0870
1091.00,0.0879
1090.00,0.0889
1089.00,0.0901
1088.00,0.0915
1087.00,0.0929
1086.00,0.0943
1085.00,0.0958
1084.00,0.0972
1083.00,0.0986
1082.00,0.0998
1081.00,0.1008
1080.00,0.1018
1079.00,0.1025
1078.00,0.1031
1077.00,0.1034
1076.00,0.1035
1075.00,0.1034
1074.00,0.1031
1073.00,0.1028
1072.00,0.1026
1071.00,0.1026
1070.00,0.1027
1069.00,0.1029
1068.00,0.1033
1067.00,0.1039
1066.00,0.1045
1065.00,0.1053
1064.00,0.1061
1063.00,0.1069
1062.00,0.1077
1061.00,0.1085
1060.00,0.1092
1059.00,0.1100
1058.00,0.1107
1057.00,0.1113
1056.00,0.1118
1055.00,0.1122
1054.00,0.1125
1053.00,0.1127
1052.00,0.1129
1051.00,0.1130
1050.00,0.1131
1049.00,0.1130
1048.00,0.1130
1047.00,0.1130
1046.00,0.1129
1045.00,0.1128
1044.00,0.1126
1043.00,0.1125
1042.00,0.1122
1041.00,0.1120
1040.00,0.1117
1039.00,0.1113
1038.00,0.1110
1037.00,0.1107
1036.00,0.1104
1035.00,0.1102
1034.00,0.1101
1033.00,0.1100
1032.00,0.1099
1031.00,0.1099
1030.00,0.1097
1029.00,0.1095
1028.00,0.1091
1027.00,0.1087
1026.00,0.1082
1025.00,0.1076
1024.00,0.1069
1023.00,0.1062
1022.00,0.1053
1021.00,0.1043
1020.00,0.1033
1019.00,0.1021
1018.00,0.1009
1017.00,0.0997
1016.00,0.0985
1015.00,0.0972
1014.00,0.0960
1013.00,0.0948
1012.00,0.0936
1011.00,0.0923
1010.00,0.0911
1009.00,0.0898
1008.00,0.0886
1007.00,0.0874
1006.00,0.0863
1005.00,0.0852
1004.00,0.0842
1003.00,0.0832
1002.00,0.0822
1001.00,0.0813
1000.00,0.0804
999.00,0.0794
998.00,0.0784
997.00,0.0773
996.00,0.0762
995.00,0.0750
994.00,0.0738
993.00,0.0727
992.00,0.0715
991.00,0.0703
990.00,0.0692
989.00,0.0680
988.00,0.0670
987.00,0.0660
986.00,0.0650
985.00,0.0641
984.00,0.0632
983.00,0.0624
982.00,0.0617
981.00,0.0610
980.00,0.0604
979.00,0.0599
978.00,0.0594
977.00,0.0589
976.00,0.0585
975.00,0.0580
974.00,0.0575
973.00,0.0570
972.00,0.0566
971.00,0.0562
970.00,0.0558
969.00,0.0554
968.00,0.0551
967.00,0.0549
966.00,0.0547
965.00,0.0547
964.00,0.0546
963.00,0.0546
962.00,0.0545
961.00,0.0543
960.00,0.0539
959.00,0.0534
958.00,0.0529
957.00,0.0524
956.00,0.0521
955.00,0.0520
954.00,0.0519
953.00,0.0518
952.00,0.0519
951.00,0.0520
950.00,0.0523
949.00,0.0526
948.00,0.0529
947.00,0.0532
946.00,0.0534
945.00,0.0537
944.00,0.0540
943.00,0.0544
942.00,0.0548
941.00,0.0553
940.00,0.0558
939.00,0.0564
938.00,0.0571
937.00,0.0578
936.00,0.0584
935.00,0.0591
934.00,0.0596
933.00,0.0601
932.00,0.0606
931.00,0.0610
930.00,0.0613
929.00,0.0616
928.00,0.0618
927.00,0.0620
926.00,0.0621
925.00,0.0621
924.00,0.0621
923.00,0.0620
922.00,0.0619
921.00,0.0617
920.00,0.0615
919.00,0.0614
918.00,0.0612
917.00,0.0609
916.00,0.0607
915.00,0.0605
914.00,0.0603
913.00,0.0601
912.00,0.0599
911.00,0.0597
910.00,0.0595
909.00,0.0594
908.00,0.0592
907.00,0.0591
906.00,0.0589
905.00,0.0588
904.00,0.0586
903.00,0.0584
902.00,0.0583
901.00,0.0581
900.00,0.0580
899.00,0.0579
898.00,0.0579
897.00,0.0578
896.00,0.0577
895.00,0.0576
894.00,0.0575
893.00,0.0574
892.00,0.0574
891.00,0.0573
890.00,0.0573
889.00,0.0572
888.00,0.0572
887.00,0.0572
886.00,0.0572
885.00,0.0571
884.00,0.0571
883.00,0.0570
882.00,0.0570
881.00,0.0569
880.00,0.0569
879.00,0.0569
878.00,0.0568
877.00,0.0568
876.00,0.0567
875.00,0.0566
874.00,0.0565
873.00,0.0564
872.00,0.0563
871.00,0.0562
870.00,0.0562
869.00,0.0563
868.00,0.0564
867.00,0.0565
866.00,0.0567
865.00,0.0568
864.00,0.0570
863.00,0.0572
862.00,0.0575
861.00,0.0578
860.00,0.0581
859.00,0.0584
858.00,0.0588
857.00,0.0592
856.00,0.0597
855.00,0.0601
854.00,0.0605
853.00,0.0609
852.00,0.0612
851.00,0.0615
850.00,0.0616
849.00,0.0617
848.00,0.0618
847.00,0.0618
846.00,0.0618
845.00,0.0619
844.00,0.0621
843.00,0.0623
842.00,0.0626
841.00,0.0629
840.00,0.0633
839.00,0.0637
838.00,0.0641
837.00,0.0645
836.00,0.0649
835.00,0.0654
834.00,0.0659
833.00,0.0664
832.00,0.0669
831.00,0.0673
830.00,0.0676
829.00,0.0678
828.00,0.0681
827.00,0.0683
826.00,0.0685
825.00,0.0687
824.00,0.0690
823.00,0.0692
822.00,0.0693
821.00,0.0695
820.00,0.0697
819.00,0.0699
818.00,0.0701
817.00,0.0704
816.00,0.0708
815.00,0.0712
814.00,0.0716
813.00,0.0720
812.00,0.0725
811.00,0.0730
810.00,0.0734
809.00,0.0739
808.00,0.0744
807.00,0.0748
806.00,0.0752
805.00,0.0756
804.00,0.0761
803.00,0.0766
802.00,0.0771
801.00,0.0776
800.00,0.0782
799.00,0.0789
798.00,0.0795
797.00,0.0801
796.00,0.0808
795.00,0.0815
794.00,0.0822
793.00,0.0830
792.00,0.0839
791.00,0.0848
790.00,0.0857
789.00,0.0866
788.00,0.0876
787.00,0.0886
786.00,0.0895
785.00,0.0903
784.00,0.0910
783.00,0.0917
782.00,0.0922
781.00,0.0927
780.00,0.0931
779.00,0.0935
778.00,0.0938
777.00,0.0941
776.00,0.0944
775.00,0.0948
774.00,0.0951
773.00,0.0954
772.00,0.0957
771.00,0.0960
770.00,0.0963
769.00,0.0967
768.00,0.0970
767.00,0.0973
766.00,0.0976
765.00,0.0980
764.00,0.0983
763.00,0.0987
762.00,0.0991
761.00,0.0994
760.00,0.0998
759.00,0.1003
758.00,0.1007
757.00,0.1012
756.00,0.1017
755.00,0.1023
754.00,0.1029
753.00,0.1035
752.00,0.1042
751.00,0.1050
750.00,0.1057
749.00,0.1064
748.00,0.1072
747.00,0.1079
746.00,0.1085
745.00,0.1090
744.00,0.1096
743.00,0.1102
742.00,0.1107
741.00,0.1112
740.00,0.1117
739.00,0.1122
738.00,0.1127
737.00,0.1132
736.00,0.1138
735.00,0.1144
734.00,0.1151
733.00,0.1160
732.00,0.1170
731.00,0.1181
730.00,0.1192
729.00,0.1205
728.00,0.1220
727.00,0.1235
726.00,0.1250
725.00,0.1267
724.00,0.1284
723.00,0.1301
722.00,0.1318
721.00,0.1333
720.00,0.1348
719.00,0.1362
718.00,0.1376
717.00,0.1389
716.00,0.1402
715.00,0.1415
714.00,0.1427
713.00,0.1439
712.00,0.1451
711.00,0.1464
710.00,0.1476
709.00,0.1490
708.00,0.1505
707.00,0.1520
706.00,0.1536
705.00,0.1552
704.00,0.1567
703.00,0.1582
702.00,0.1596
701.00,0.1608
700.00,0.1619
699.00,0.1627
698.00,0.1633
697.00,0.1635
696.00,0.1634
695.00,0.1632
694.00,0.1629
693.00,0.1627
692.00,0.1625
691.00,0.1624
690.00,0.1623
689.00,0.1623
688.00,0.1625
687.00,0.1627
686.00,0.1629
685.00,0.1630
684.00,0.1632
683.00,0.1635
682.00,0.1637
681.00,0.1638
680.00,0.1640
679.00,0.1642
678.00,0.1645
677.00,0.1648
676.00,0.1652
675.00,0.1655
674.00,0.1657
673.00,0.1659
672.00,0.1661
671.00,0.1663
670.00,0.1665
669.00,0.1671
668.00,0.1681
667.00,0.1689
666.00,0.1691
665.00,0.1692
664.00,0.1694
663.00,0.1697
662.00,0.1701
661.00,0.1704
660.00,0.1708
659.00,0.1711
658.00,0.1713
657.00,0.1715
656.00,0.1718
655.00,0.1721
654.00,0.1724
653.00,0.1727
652.00,0.1730
651.00,0.1733
650.00,0.1735
649.00,0.1738
648.00,0.1742
647.00,0.1747
646.00,0.1752
645.00,0.1756
644.00,0.1761
643.00,0.1764
642.00,0.1768
641.00,0.1771
640.00,0.1774
639.00,0.1778
638.00,0.1782
637.00,0.1786
636.00,0.1791
635.00,0.1797
634.00,0.1803
633.00,0.1809
632.00,0.1816
631.00,0.1822
630.00,0.1827
629.00,0.1832
628.00,0.1837
627.00,0.1842
626.00,0.1846
625.00,0.1849
624.00,0.1853
623.00,0.1855
622.00,0.1857
621.00,0.1859
620.00,0.1862
619.00,0.1864
618.00,0.1865
617.00,0.1866
616.00,0.1867
615.00,0.1868
614.00,0.1870
613.00,0.1871
612.00,0.1874
611.00,0.1875
610.00,0.1876
609.00,0.1877
608.00,0.1878
607.00,0.1879
606.00,0.1879
605.00,0.1880
604.00,0.1882
603.00,0.1885
602.00,0.1887
601.00,0.1888
600.00,0.1890
599.00,0.1891
598.00,0.1893
597.00,0.1895
596.00,0.1898
595.00,0.1901
594.00,0.1903
593.00,0.1905
592.00,0.1908
591.00,0.1912
590.00,0.1916
589.00,0.1919
588.00,0.1924
587.00,0.1929
586.00,0.1934
585.00,0.1938
584.00,0.1943
583.00,0.1947
582.00,0.1950
581.00,0.1954
580.00,0.1958
579.00,0.1963
578.00,0.1966
577.00,0.1971
576.00,0.1978
575.00,0.1984
574.00,0.1988
573.00,0.1991
572.00,0.1996
571.00,0.2001
570.00,0.2004
569.00,0.2007
568.00,0.2011
567.00,0.2015
566.00,0.2019
565.00,0.2023
564.00,0.2028
563.00,0.2033
562.00,0.2037
561.00,0.2042
560.00,0.2048
559.00,0.2053
558.00,0.2055
557.00,0.2059
556.00,0.2063
555.00,0.2069
554.00,0.2073
553.00,0.2078
552.00,0.2082
551.00,0.2086
550.00,0.2089
549.00,0.2092
548.00,0.2097
547.00,0.2100
546.00,0.2102
545.00,0.2106
544.00,0.2113
543.00,0.2119
542.00,0.2124
541.00,0.2128
540.00,0.2132
539.00,0.2137
538.00,0.2140
537.00,0.2144
536.00,0.2149
535.00,0.2154
534.00,0.2157
533.00,0.2160
532.00,0.2165
531.00,0.2169
530.00,0.2172
529.00,0.2173
528.00,0.2176
527.00,0.2178
526.00,0.2181
525.00,0.2187
524.00,0.2193
523.00,0.2197
522.00,0.2198
521.00,0.2198
520.00,0.2201
519.00,0.2205
518.00,0.2209
517.00,0.2211
516.00,0.2214
515.00,0.2216
514.00,0.2215
513.00,0.2216
512.00,0.2219
511.00,0.2222
510.00,0.2222
509.00,0.2221
508.00,0.2222
507.00,0.2224
506.00,0.2224
505.00,0.2225
504.00,0.2224
503.00,0.2223
502.00,0.2220
501.00,0.2219
500.00,0.2222
499.00,0.2224
498.00,0.2222
497.00,0.2220
496.00,0.2221
495.00,0.2221
494.00,0.2220
493.00,0.2220
492.00,0.2222
491.00,0.2223
490.00,0.2222
489.00,0.2221
488.00,0.2221
487.00,0.2219
486.00,0.2215
485.00,0.2210
484.00,0.2208
483.00,0.2207
482.00,0.2204
481.00,0.2203
480.00,0.2206
479.00,0.2207
478.00,0.2205
477.00,0.2201
476.00,0.2199
475.00,0.2196
474.00,0.2191
473.00,0.2188
472.00,0.2191
471.00,0.2197
470.00,0.2200
469.00,0.2202
468.00,0.2206
467.00,0.2209
466.00,0.2208
465.00,0.2207
464.00,0.2209
463.00,0.2211
462.00,0.2208
461.00,0.2203
460.00,0.2200
459.00,0.2200
458.00,0.2202
457.00,0.2205
456.00,0.2206
455.00,0.2201
454.00,0.2192
453.00,0.2187
452.00,0.2187
451.00,0.2184
450.00,0.2174
449.00,0.2165
448.00,0.2162
447.00,0.2160
446.00,0.2154
445.00,0.2148
444.00,0.2146
443.00,0.2145
442.00,0.2139
441.00,0.2134
440.00,0.2132
439.00,0.2132
438.00,0.2129
437.00,0.2126
436.00,0.2125
435.00,0.2122
434.00,0.2115
433.00,0.2107
432.00,0.2104
431.00,0.2101
430.00,0.2098
429.00,0.2098
428.00,0.2104
427.00,0.2108
426.00,0.2104
425.00,0.2099
424.00,0.2100
423.00,0.2101
422.00,0.2097
421.00,0.2089
420.00,0.2085
419.00,0.2083
418.00,0.2079
417.00,0.2077
416.00,0.2079
415.00,0.2079
414.00,0.2069
413.00,0.2056
412.00,0.2045
411.00,0.2036
410.00,0.2025
409.00,0.2020
408.00,0.2023
407.00,0.2025
406.00,0.2023
405.00,0.2026
404.00,0.2039
403.00,0.2054
402.00,0.2058
401.00,0.2054
400.00,0.2047
