Created as New Dataset,Sample 119 By YargerLab Date Friday, August 15 2025
cm-1,A
4000.00,0.0020
3999.00,0.0020
3998.00,0.0020
3997.00,0.0020
3996.00,0.0020
3995.00,0.0020
3994.00,0.0020
3993.00,0.0020
3992.00,0.0020
3991.00,0.0020
3990.00,0.0020
3989.00,0.0020
3988.00,0.0020
3987.00,0.0020
3986.00,0.0020
3985.00,0.0020
3984.00,0.0020
3983.00,0.0020
3982.00,0.0020
3981.00,0.0019
3980.00,0.0019
3979.00,0.0019
3978.00,0.0019
3977.00,0.0019
3976.00,0.0019
3975.00,0.0019
3974.00,0.0019
3973.00,0.0019
3972.00,0.0019
3971.00,0.0019
3970.00,0.0019
3969.00,0.0019
3968.00,0.0019
3967.00,0.0019
3966.00,0.0019
3965.00,0.0019
3964.00,0.0019
3963.00,0.0019
3962.00,0.0019
3961.00,0.0020
3960.00,0.0020
3959.00,0.0020
3958.00,0.0020
3957.00,0.0020
3956.00,0.0020
3955.00,0.0020
3954.00,0.0020
3953.00,0.0020
3952.00,0.0019
3951.00,0.0019
3950.00,0.0019
3949.00,0.0019
3948.00,0.0019
3947.00,0.0019
3946.00,0.0019
3945.00,0.0019
3944.00,0.0019
3943.00,0.0019
3942.00,0.0019
3941.00,0.0019
3940.00,0.0019
3939.00,0.0019
3938.00,0.0019
3937.00,0.0019
3936.00,0.0019
3935.00,0.0019
3934.00,0.0019
3933.00,0.0019
3932.00,0.0018
3931.00,0.0018
3930.00,0.0018
3929.00,0.0018
3928.00,0.0018
3927.00,0.0018
3926.00,0.0018
3925.00,0.0018
3924.00,0.0017
3923.00,0.0017
3922.00,0.0017
3921.00,0.0017
3920.00,0.0018
3919.00,0.0018
3918.00,0.0018
3917.00,0.0018
3916.00,0.0018
3915.00,0.0018
3914.00,0.0018
3913.00,0.0018
3912.00,0.0018
3911.00,0.0018
3910.00,0.0018
3909.00,0.0018
3908.00,0.0018
3907.00,0.0018
3906.00,0.0018
3905.00,0.0018
3904.00,0.0018
3903.00,0.0017
3902.00,0.0016
3901.00,0.0016
3900.00,0.0016
3899.00,0.0016
3898.00,0.0016
3897.00,0.0017
3896.00,0.0017
3895.00,0.0018
3894.00,0.0018
3893.00,0.0018
3892.00,0.0018
3891.00,0.0018
3890.00,0.0018
3889.00,0.0017
3888.00,0.0017
3887.00,0.0017
3886.00,0.0018
3885.00,0.0018
3884.00,0.0017
3883.00,0.0017
3882.00,0.0017
3881.00,0.0017
3880.00,0.0017
3879.00,0.0017
3878.00,0.0017
3877.00,0.0017
3876.00,0.0017
3875.00,0.0017
3874.00,0.0017
3873.00,0.0017
3872.00,0.0017
3871.00,0.0017
3870.00,0.0017
3869.00,0.0017
3868.00,0.0016
3867.00,0.0016
3866.00,0.0016
3865.00,0.0016
3864.00,0.0016
3863.00,0.0016
3862.00,0.0016
3861.00,0.0017
3860.00,0.0017
3859.00,0.0017
3858.00,0.0017
3857.00,0.0016
3856.00,0.0016
3855.00,0.0015
3854.00,0.0015
3853.00,0.0015
3852.00,0.0015
3851.00,0.0015
3850.00,0.0016
3849.00,0.0016
3848.00,0.0017
3847.00,0.0017
3846.00,0.0017
3845.00,0.0018
3844.00,0.0018
3843.00,0.0018
3842.00,0.0017
3841.00,0.0017
3840.00,0.0017
3839.00,0.0016
3838.00,0.0016
3837.00,0.0016
3836.00,0.0017
3835.00,0.0017
3834.00,0.0017
3833.00,0.0017
3832.00,0.0018
3831.00,0.0018
3830.00,0.0018
3829.00,0.0018
3828.00,0.0018
3827.00,0.0018
3826.00,0.0018
3825.00,0.0018
3824.00,0.0017
3823.00,0.0017
3822.00,0.0017
3821.00,0.0017
3820.00,0.0017
3819.00,0.0016
3818.00,0.0016
3817.00,0.0016
3816.00,0.0017
3815.00,0.0017
3814.00,0.0017
3813.00,0.0017
3812.00,0.0018
3811.00,0.0018
3810.00,0.0018
3809.00,0.0018
3808.00,0.0018
3807.00,0.0018
3806.00,0.0017
3805.00,0.0017
3804.00,0.0017
3803.00,0.0016
3802.00,0.0016
3801.00,0.0016
3800.00,0.0016
3799.00,0.0016
3798.00,0.0016
3797.00,0.0017
3796.00,0.0017
3795.00,0.0018
3794.00,0.0018
3793.00,0.0018
3792.00,0.0018
3791.00,0.0018
3790.00,0.0018
3789.00,0.0018
3788.00,0.0018
3787.00,0.0018
3786.00,0.0018
3785.00,0.0019
3784.00,0.0018
3783.00,0.0018
3782.00,0.0018
3781.00,0.0018
3780.00,0.0018
3779.00,0.0019
3778.00,0.0019
3777.00,0.0019
3776.00,0.0019
3775.00,0.0019
3774.00,0.0018
3773.00,0.0018
3772.00,0.0018
3771.00,0.0018
3770.00,0.0018
3769.00,0.0018
3768.00,0.0018
3767.00,0.0018
3766.00,0.0018
3765.00,0.0018
3764.00,0.0018
3763.00,0.0018
3762.00,0.0018
3761.00,0.0018
3760.00,0.0018
3759.00,0.0017
3758.00,0.0017
3757.00,0.0017
3756.00,0.0017
3755.00,0.0017
3754.00,0.0016
3753.00,0.0016
3752.00,0.0015
3751.00,0.0015
3750.00,0.0015
3749.00,0.0015
3748.00,0.0014
3747.00,0.0014
3746.00,0.0014
3745.00,0.0015
3744.00,0.0015
3743.00,0.0015
3742.00,0.0015
3741.00,0.0016
3740.00,0.0016
3739.00,0.0016
3738.00,0.0016
3737.00,0.0016
3736.00,0.0016
3735.00,0.0016
3734.00,0.0015
3733.00,0.0015
3732.00,0.0015
3731.00,0.0015
3730.00,0.0016
3729.00,0.0016
3728.00,0.0016
3727.00,0.0016
3726.00,0.0017
3725.00,0.0017
3724.00,0.0017
3723.00,0.0017
3722.00,0.0018
3721.00,0.0018
3720.00,0.0018
3719.00,0.0018
3718.00,0.0018
3717.00,0.0018
3716.00,0.0018
3715.00,0.0017
3714.00,0.0017
3713.00,0.0017
3712.00,0.0017
3711.00,0.0016
3710.00,0.0016
3709.00,0.0016
3708.00,0.0017
3707.00,0.0018
3706.00,0.0018
3705.00,0.0018
3704.00,0.0018
3703.00,0.0018
3702.00,0.0018
3701.00,0.0018
3700.00,0.0019
3699.00,0.0019
3698.00,0.0019
3697.00,0.0019
3696.00,0.0019
3695.00,0.0019
3694.00,0.0019
3693.00,0.0019
3692.00,0.0020
3691.00,0.0020
3690.00,0.0020
3689.00,0.0020
3688.00,0.0020
3687.00,0.0021
3686.00,0.0022
3685.00,0.0023
3684.00,0.0024
3683.00,0.0025
3682.00,0.0025
3681.00,0.0026
3680.00,0.0026
3679.00,0.0025
3678.00,0.0025
3677.00,0.0025
3676.00,0.0026
3675.00,0.0026
3674.00,0.0026
3673.00,0.0025
3672.00,0.0025
3671.00,0.0025
3670.00,0.0026
3669.00,0.0027
3668.00,0.0027
3667.00,0.0028
3666.00,0.0029
3665.00,0.0030
3664.00,0.0030
3663.00,0.0031
3662.00,0.0031
3661.00,0.0031
3660.00,0.0031
3659.00,0.0031
3658.00,0.0032
3657.00,0.0032
3656.00,0.0033
3655.00,0.0033
3654.00,0.0033
3653.00,0.0033
3652.00,0.0033
3651.00,0.0034
3650.00,0.0035
3649.00,0.0036
3648.00,0.0036
3647.00,0.0037
3646.00,0.0037
3645.00,0.0038
3644.00,0.0039
3643.00,0.0040
3642.00,0.0041
3641.00,0.0042
3640.00,0.0043
3639.00,0.0044
3638.00,0.0044
3637.00,0.0045
3636.00,0.0045
3635.00,0.0046
3634.00,0.0046
3633.00,0.0047
3632.00,0.0047
3631.00,0.0047
3630.00,0.0048
3629.00,0.0050
3628.00,0.0051
3627.00,0.0052
3626.00,0.0053
3625.00,0.0054
3624.00,0.0055
3623.00,0.0055
3622.00,0.0056
3621.00,0.0057
3620.00,0.0058
3619.00,0.0059
3618.00,0.0060
3617.00,0.0061
3616.00,0.0061
3615.00,0.0062
3614.00,0.0063
3613.00,0.0065
3612.00,0.0066
3611.00,0.0067
3610.00,0.0068
3609.00,0.0069
3608.00,0.0070
3607.00,0.0071
3606.00,0.0072
3605.00,0.0074
3604.00,0.0075
3603.00,0.0076
3602.00,0.0077
3601.00,0.0079
3600.00,0.0080
3599.00,0.0081
3598.00,0.0082
3597.00,0.0084
3596.00,0.0085
3595.00,0.0087
3594.00,0.0088
3593.00,0.0089
3592.00,0.0090
3591.00,0.0091
3590.00,0.0091
3589.00,0.0093
3588.00,0.0095
3587.00,0.0097
3586.00,0.0098
3585.00,0.0100
3584.00,0.0101
3583.00,0.0103
3582.00,0.0104
3581.00,0.0105
3580.00,0.0107
3579.00,0.0109
3578.00,0.0110
3577.00,0.0112
3576.00,0.0113
3575.00,0.0115
3574.00,0.0116
3573.00,0.0118
3572.00,0.0119
3571.00,0.0119
3570.00,0.0120
3569.00,0.0121
3568.00,0.0123
3567.00,0.0125
3566.00,0.0127
3565.00,0.0129
3564.00,0.0131
3563.00,0.0132
3562.00,0.0134
3561.00,0.0135
3560.00,0.0137
3559.00,0.0138
3558.00,0.0140
3557.00,0.0142
3556.00,0.0143
3555.00,0.0144
3554.00,0.0145
3553.00,0.0146
3552.00,0.0148
3551.00,0.0149
3550.00,0.0150
3549.00,0.0151
3548.00,0.0152
3547.00,0.0154
3546.00,0.0155
3545.00,0.0157
3544.00,0.0158
3543.00,0.0159
3542.00,0.0160
3541.00,0.0161
3540.00,0.0163
3539.00,0.0164
3538.00,0.0165
3537.00,0.0167
3536.00,0.0169
3535.00,0.0170
3534.00,0.0171
3533.00,0.0172
3532.00,0.0172
3531.00,0.0173
3530.00,0.0175
3529.00,0.0176
3528.00,0.0177
3527.00,0.0179
3526.00,0.0180
3525.00,0.0181
3524.00,0.0183
3523.00,0.0184
3522.00,0.0185
3521.00,0.0186
3520.00,0.0187
3519.00,0.0189
3518.00,0.0190
3517.00,0.0191
3516.00,0.0192
3515.00,0.0194
3514.00,0.0195
3513.00,0.0196
3512.00,0.0197
3511.00,0.0198
3510.00,0.0199
3509.00,0.0201
3508.00,0.0202
3507.00,0.0203
3506.00,0.0205
3505.00,0.0206
3504.00,0.0207
3503.00,0.0209
3502.00,0.0210
3501.00,0.0211
3500.00,0.0212
3499.00,0.0213
3498.00,0.0214
3497.00,0.0216
3496.00,0.0217
3495.00,0.0218
3494.00,0.0219
3493.00,0.0220
3492.00,0.0221
3491.00,0.0222
3490.00,0.0223
3489.00,0.0225
3488.00,0.0226
3487.00,0.0227
3486.00,0.0228
3485.00,0.0229
3484.00,0.0230
3483.00,0.0231
3482.00,0.0233
3481.00,0.0234
3480.00,0.0236
3479.00,0.0237
3478.00,0.0238
3477.00,0.0239
3476.00,0.0240
3475.00,0.0241
3474.00,0.0242
3473.00,0.0243
3472.00,0.0244
3471.00,0.0245
3470.00,0.0246
3469.00,0.0247
3468.00,0.0248
3467.00,0.0249
3466.00,0.0250
3465.00,0.0250
3464.00,0.0251
3463.00,0.0252
3462.00,0.0253
3461.00,0.0254
3460.00,0.0255
3459.00,0.0255
3458.00,0.0256
3457.00,0.0257
3456.00,0.0258
3455.00,0.0258
3454.00,0.0259
3453.00,0.0260
3452.00,0.0261
3451.00,0.0262
3450.00,0.0263
3449.00,0.0263
3448.00,0.0264
3447.00,0.0265
3446.00,0.0266
3445.00,0.0267
3444.00,0.0267
3443.00,0.0268
3442.00,0.0269
3441.00,0.0270
3440.00,0.0270
3439.00,0.0271
3438.00,0.0272
3437.00,0.0273
3436.00,0.0274
3435.00,0.0275
3434.00,0.0275
3433.00,0.0276
3432.00,0.0277
3431.00,0.0277
3430.00,0.0278
3429.00,0.0278
3428.00,0.0279
3427.00,0.0280
3426.00,0.0280
3425.00,0.0281
3424.00,0.0282
3423.00,0.0282
3422.00,0.0283
3421.00,0.0284
3420.00,0.0285
3419.00,0.0286
3418.00,0.0286
3417.00,0.0287
3416.00,0.0288
3415.00,0.0289
3414.00,0.0289
3413.00,0.0290
3412.00,0.0290
3411.00,0.0291
3410.00,0.0292
3409.00,0.0293
3408.00,0.0293
3407.00,0.0294
3406.00,0.0295
3405.00,0.0296
3404.00,0.0297
3403.00,0.0297
3402.00,0.0297
3401.00,0.0298
3400.00,0.0299
3399.00,0.0299
3398.00,0.0300
3397.00,0.0301
3396.00,0.0302
3395.00,0.0302
3394.00,0.0303
3393.00,0.0304
3392.00,0.0305
3391.00,0.0306
3390.00,0.0307
3389.00,0.0308
3388.00,0.0309
3387.00,0.0310
3386.00,0.0311
3385.00,0.0311
3384.00,0.0312
3383.00,0.0312
3382.00,0.0313
3381.00,0.0313
3380.00,0.0314
3379.00,0.0314
3378.00,0.0315
3377.00,0.0315
3376.00,0.0316
3375.00,0.0317
3374.00,0.0318
3373.00,0.0319
3372.00,0.0318
3371.00,0.0318
3370.00,0.0318
3369.00,0.0318
3368.00,0.0319
3367.00,0.0321
3366.00,0.0322
3365.00,0.0324
3364.00,0.0325
3363.00,0.0325
3362.00,0.0325
3361.00,0.0326
3360.00,0.0327
3359.00,0.0328
3358.00,0.0329
3357.00,0.0330
3356.00,0.0331
3355.00,0.0331
3354.00,0.0331
3353.00,0.0330
3352.00,0.0330
3351.00,0.0330
3350.00,0.0331
3349.00,0.0332
3348.00,0.0333
3347.00,0.0334
3346.00,0.0335
3345.00,0.0334
3344.00,0.0334
3343.00,0.0334
3342.00,0.0335
3341.00,0.0335
3340.00,0.0335
3339.00,0.0335
3338.00,0.0336
3337.00,0.0338
3336.00,0.0339
3335.00,0.0341
3334.00,0.0342
3333.00,0.0343
3332.00,0.0343
3331.00,0.0344
3330.00,0.0344
3329.00,0.0344
3328.00,0.0343
3327.00,0.0342
3326.00,0.0342
3325.00,0.0342
3324.00,0.0344
3323.00,0.0345
3322.00,0.0347
3321.00,0.0348
3320.00,0.0349
3319.00,0.0350
3318.00,0.0350
3317.00,0.0350
3316.00,0.0351
3315.00,0.0351
3314.00,0.0351
3313.00,0.0350
3312.00,0.0350
3311.00,0.0348
3310.00,0.0347
3309.00,0.0345
3308.00,0.0345
3307.00,0.0344
3306.00,0.0345
3305.00,0.0347
3304.00,0.0349
3303.00,0.0351
3302.00,0.0353
3301.00,0.0354
3300.00,0.0355
3299.00,0.0354
3298.00,0.0353
3297.00,0.0352
3296.00,0.0351
3295.00,0.0351
3294.00,0.0351
3293.00,0.0352
3292.00,0.0353
3291.00,0.0354
3290.00,0.0356
3289.00,0.0357
3288.00,0.0358
3287.00,0.0358
3286.00,0.0359
3285.00,0.0359
3284.00,0.0359
3283.00,0.0359
3282.00,0.0359
3281.00,0.0359
3280.00,0.0359
3279.00,0.0358
3278.00,0.0357
3277.00,0.0356
3276.00,0.0355
3275.00,0.0354
3274.00,0.0354
3273.00,0.0353
3272.00,0.0353
3271.00,0.0353
3270.00,0.0353
3269.00,0.0354
3268.00,0.0354
3267.00,0.0354
3266.00,0.0355
3265.00,0.0355
3264.00,0.0354
3263.00,0.0354
3262.00,0.0354
3261.00,0.0354
3260.00,0.0354
3259.00,0.0353
3258.00,0.0353
3257.00,0.0352
3256.00,0.0352
3255.00,0.0351
3254.00,0.0351
3253.00,0.0350
3252.00,0.0350
3251.00,0.0350
3250.00,0.0349
3249.00,0.0349
3248.00,0.0348
3247.00,0.0347
3246.00,0.0347
3245.00,0.0347
3244.00,0.0347
3243.00,0.0347
3242.00,0.0346
3241.00,0.0346
3240.00,0.0345
3239.00,0.0345
3238.00,0.0344
3237.00,0.0344
3236.00,0.0343
3235.00,0.0342
3234.00,0.0341
3233.00,0.0340
3232.00,0.0340
3231.00,0.0340
3230.00,0.0340
3229.00,0.0339
3228.00,0.0339
3227.00,0.0338
3226.00,0.0337
3225.00,0.0337
3224.00,0.0336
3223.00,0.0335
3222.00,0.0335
3221.00,0.0334
3220.00,0.0334
3219.00,0.0333
3218.00,0.0332
3217.00,0.0331
3216.00,0.0330
3215.00,0.0330
3214.00,0.0329
3213.00,0.0329
3212.00,0.0329
3211.00,0.0328
3210.00,0.0328
3209.00,0.0328
3208.00,0.0327
3207.00,0.0326
3206.00,0.0326
3205.00,0.0325
3204.00,0.0325
3203.00,0.0324
3202.00,0.0324
3201.00,0.0323
3200.00,0.0322
3199.00,0.0321
3198.00,0.0320
3197.00,0.0320
3196.00,0.0319
3195.00,0.0318
3194.00,0.0317
3193.00,0.0316
3192.00,0.0315
3191.00,0.0314
3190.00,0.0313
3189.00,0.0312
3188.00,0.0311
3187.00,0.0311
3186.00,0.0310
3185.00,0.0309
3184.00,0.0308
3183.00,0.0307
3182.00,0.0306
3181.00,0.0305
3180.00,0.0304
3179.00,0.0302
3178.00,0.0301
3177.00,0.0300
3176.00,0.0299
3175.00,0.0298
3174.00,0.0297
3173.00,0.0296
3172.00,0.0295
3171.00,0.0294
3170.00,0.0292
3169.00,0.0291
3168.00,0.0290
3167.00,0.0289
3166.00,0.0288
3165.00,0.0286
3164.00,0.0285
3163.00,0.0284
3162.00,0.0282
3161.00,0.0281
3160.00,0.0279
3159.00,0.0278
3158.00,0.0277
3157.00,0.0276
3156.00,0.0274
3155.00,0.0273
3154.00,0.0272
3153.00,0.0271
3152.00,0.0269
3151.00,0.0268
3150.00,0.0267
3149.00,0.0266
3148.00,0.0265
3147.00,0.0264
3146.00,0.0263
3145.00,0.0262
3144.00,0.0261
3143.00,0.0259
3142.00,0.0258
3141.00,0.0257
3140.00,0.0256
3139.00,0.0255
3138.00,0.0255
3137.00,0.0254
3136.00,0.0253
3135.00,0.0252
3134.00,0.0251
3133.00,0.0250
3132.00,0.0249
3131.00,0.0248
3130.00,0.0248
3129.00,0.0247
3128.00,0.0246
3127.00,0.0245
3126.00,0.0244
3125.00,0.0243
3124.00,0.0242
3123.00,0.0241
3122.00,0.0240
3121.00,0.0239
3120.00,0.0238
3119.00,0.0237
3118.00,0.0236
3117.00,0.0234
3116.00,0.0233
3115.00,0.0232
3114.00,0.0231
3113.00,0.0229
3112.00,0.0228
3111.00,0.0227
3110.00,0.0226
3109.00,0.0224
3108.00,0.0223
3107.00,0.0222
3106.00,0.0220
3105.00,0.0219
3104.00,0.0218
3103.00,0.0217
3102.00,0.0215
3101.00,0.0214
3100.00,0.0213
3099.00,0.0211
3098.00,0.0210
3097.00,0.0209
3096.00,0.0207
3095.00,0.0206
3094.00,0.0204
3093.00,0.0203
3092.00,0.0202
3091.00,0.0201
3090.00,0.0200
3089.00,0.0198
3088.00,0.0197
3087.00,0.0196
3086.00,0.0195
3085.00,0.0194
3084.00,0.0193
3083.00,0.0192
3082.00,0.0191
3081.00,0.0190
3080.00,0.0189
3079.00,0.0188
3078.00,0.0187
3077.00,0.0186
3076.00,0.0185
3075.00,0.0184
3074.00,0.0183
3073.00,0.0182
3072.00,0.0181
3071.00,0.0180
3070.00,0.0180
3069.00,0.0179
3068.00,0.0178
3067.00,0.0178
3066.00,0.0177
3065.00,0.0176
3064.00,0.0176
3063.00,0.0175
3062.00,0.0174
3061.00,0.0174
3060.00,0.0173
3059.00,0.0173
3058.00,0.0172
3057.00,0.0172
3056.00,0.0172
3055.00,0.0171
3054.00,0.0171
3053.00,0.0170
3052.00,0.0169
3051.00,0.0168
3050.00,0.0168
3049.00,0.0167
3048.00,0.0167
3047.00,0.0166
3046.00,0.0165
3045.00,0.0165
3044.00,0.0164
3043.00,0.0163
3042.00,0.0162
3041.00,0.0162
3040.00,0.0161
3039.00,0.0161
3038.00,0.0161
3037.00,0.0161
3036.00,0.0161
3035.00,0.0161
3034.00,0.0161
3033.00,0.0161
3032.00,0.0161
3031.00,0.0161
3030.00,0.0160
3029.00,0.0160
3028.00,0.0161
3027.00,0.0161
3026.00,0.0161
3025.00,0.0161
3024.00,0.0161
3023.00,0.0161
3022.00,0.0161
3021.00,0.0162
3020.00,0.0162
3019.00,0.0162
3018.00,0.0162
3017.00,0.0162
3016.00,0.0164
3015.00,0.0165
3014.00,0.0166
3013.00,0.0168
3012.00,0.0170
3011.00,0.0172
3010.00,0.0174
3009.00,0.0177
3008.00,0.0179
3007.00,0.0183
3006.00,0.0186
3005.00,0.0190
3004.00,0.0195
3003.00,0.0200
3002.00,0.0205
3001.00,0.0210
3000.00,0.0216
2999.00,0.0222
2998.00,0.0228
2997.00,0.0235
2996.00,0.0242
2995.00,0.0249
2994.00,0.0257
2993.00,0.0265
2992.00,0.0273
2991.00,0.0282
2990.00,0.0290
2989.00,0.0298
2988.00,0.0306
2987.00,0.0314
2986.00,0.0322
2985.00,0.0330
2984.00,0.0337
2983.00,0.0343
2982.00,0.0349
2981.00,0.0355
2980.00,0.0361
2979.00,0.0366
2978.00,0.0372
2977.00,0.0378
2976.00,0.0383
2975.00,0.0389
2974.00,0.0395
2973.00,0.0402
2972.00,0.0409
2971.00,0.0416
2970.00,0.0423
2969.00,0.0431
2968.00,0.0440
2967.00,0.0449
2966.00,0.0457
2965.00,0.0466
2964.00,0.0475
2963.00,0.0483
2962.00,0.0491
2961.00,0.0499
2960.00,0.0505
2959.00,0.0511
2958.00,0.0516
2957.00,0.0519
2956.00,0.0522
2955.00,0.0523
2954.00,0.0524
2953.00,0.0524
2952.00,0.0523
2951.00,0.0521
2950.00,0.0518
2949.00,0.0515
2948.00,0.0512
2947.00,0.0510
2946.00,0.0508
2945.00,0.0507
2944.00,0.0506
2943.00,0.0507
2942.00,0.0508
2941.00,0.0511
2940.00,0.0515
2939.00,0.0521
2938.00,0.0527
2937.00,0.0534
2936.00,0.0541
2935.00,0.0550
2934.00,0.0558
2933.00,0.0566
2932.00,0.0574
2931.00,0.0582
2930.00,0.0589
2929.00,0.0596
2928.00,0.0602
2927.00,0.0607
2926.00,0.0611
2925.00,0.0614
2924.00,0.0616
2923.00,0.0617
2922.00,0.0617
2921.00,0.0616
2920.00,0.0614
2919.00,0.0610
2918.00,0.0606
2917.00,0.0600
2916.00,0.0594
2915.00,0.0586
2914.00,0.0579
2913.00,0.0571
2912.00,0.0562
2911.00,0.0553
2910.00,0.0544
2909.00,0.0535
2908.00,0.0526
2907.00,0.0517
2906.00,0.0508
2905.00,0.0500
2904.00,0.0493
2903.00,0.0487
2902.00,0.0482
2901.00,0.0477
2900.00,0.0473
2899.00,0.0470
2898.00,0.0466
2897.00,0.0463
2896.00,0.0461
2895.00,0.0458
2894.00,0.0456
2893.00,0.0454
2892.00,0.0451
2891.00,0.0449
2890.00,0.0446
2889.00,0.0444
2888.00,0.0441
2887.00,0.0438
2886.00,0.0436
2885.00,0.0433
2884.00,0.0432
2883.00,0.0430
2882.00,0.0428
2881.00,0.0427
2880.00,0.0426
2879.00,0.0426
2878.00,0.0425
2877.00,0.0425
2876.00,0.0425
2875.00,0.0424
2874.00,0.0424
2873.00,0.0424
2872.00,0.0424
2871.00,0.0424
2870.00,0.0423
2869.00,0.0422
2868.00,0.0420
2867.00,0.0419
2866.00,0.0418
2865.00,0.0418
2864.00,0.0418
2863.00,0.0419
2862.00,0.0421
2861.00,0.0423
2860.00,0.0425
2859.00,0.0426
2858.00,0.0427
2857.00,0.0426
2856.00,0.0424
2855.00,0.0419
2854.00,0.0413
2853.00,0.0405
2852.00,0.0396
2851.00,0.0385
2850.00,0.0374
2849.00,0.0362
2848.00,0.0351
2847.00,0.0340
2846.00,0.0329
2845.00,0.0319
2844.00,0.0309
2843.00,0.0299
2842.00,0.0289
2841.00,0.0280
2840.00,0.0271
2839.00,0.0263
2838.00,0.0256
2837.00,0.0250
2836.00,0.0245
2835.00,0.0239
2834.00,0.0234
2833.00,0.0230
2832.00,0.0225
2831.00,0.0221
2830.00,0.0217
2829.00,0.0212
2828.00,0.0208
2827.00,0.0204
2826.00,0.0200
2825.00,0.0195
2824.00,0.0191
2823.00,0.0187
2822.00,0.0183
2821.00,0.0178
2820.00,0.0174
2819.00,0.0171
2818.00,0.0167
2817.00,0.0163
2816.00,0.0160
2815.00,0.0156
2814.00,0.0152
2813.00,0.0149
2812.00,0.0146
2811.00,0.0143
2810.00,0.0140
2809.00,0.0138
2808.00,0.0135
2807.00,0.0133
2806.00,0.0131
2805.00,0.0128
2804.00,0.0126
2803.00,0.0124
2802.00,0.0122
2801.00,0.0120
2800.00,0.0119
2799.00,0.0117
2798.00,0.0115
2797.00,0.0114
2796.00,0.0113
2795.00,0.0112
2794.00,0.0111
2793.00,0.0110
2792.00,0.0109
2791.00,0.0108
2790.00,0.0107
2789.00,0.0106
2788.00,0.0105
2787.00,0.0104
2786.00,0.0104
2785.00,0.0103
2784.00,0.0102
2783.00,0.0101
2782.00,0.0101
2781.00,0.0100
2780.00,0.0099
2779.00,0.0099
2778.00,0.0098
2777.00,0.0097
2776.00,0.0096
2775.00,0.0096
2774.00,0.0095
2773.00,0.0094
2772.00,0.0094
2771.00,0.0093
2770.00,0.0093
2769.00,0.0092
2768.00,0.0092
2767.00,0.0092
2766.00,0.0091
2765.00,0.0091
2764.00,0.0090
2763.00,0.0090
2762.00,0.0090
2761.00,0.0090
2760.00,0.0089
2759.00,0.0089
2758.00,0.0089
2757.00,0.0089
2756.00,0.0089
2755.00,0.0089
2754.00,0.0089
2753.00,0.0089
2752.00,0.0089
2751.00,0.0089
2750.00,0.0089
2749.00,0.0089
2748.00,0.0089
2747.00,0.0089
2746.00,0.0089
2745.00,0.0090
2744.00,0.0090
2743.00,0.0090
2742.00,0.0090
2741.00,0.0090
2740.00,0.0090
2739.00,0.0090
2738.00,0.0091
2737.00,0.0091
2736.00,0.0091
2735.00,0.0091
2734.00,0.0091
2733.00,0.0092
2732.00,0.0092
2731.00,0.0092
2730.00,0.0092
2729.00,0.0092
2728.00,0.0091
2727.00,0.0091
2726.00,0.0091
2725.00,0.0091
2724.00,0.0091
2723.00,0.0090
2722.00,0.0090
2721.00,0.0090
2720.00,0.0090
2719.00,0.0089
2718.00,0.0089
2717.00,0.0089
2716.00,0.0089
2715.00,0.0089
2714.00,0.0089
2713.00,0.0088
2712.00,0.0088
2711.00,0.0087
2710.00,0.0087
2709.00,0.0086
2708.00,0.0086
2707.00,0.0086
2706.00,0.0086
2705.00,0.0086
2704.00,0.0086
2703.00,0.0086
2702.00,0.0085
2701.00,0.0085
2700.00,0.0085
2699.00,0.0085
2698.00,0.0084
2697.00,0.0084
2696.00,0.0084
2695.00,0.0084
2694.00,0.0083
2693.00,0.0083
2692.00,0.0083
2691.00,0.0083
2690.00,0.0082
2689.00,0.0082
2688.00,0.0082
2687.00,0.0082
2686.00,0.0081
2685.00,0.0081
2684.00,0.0081
2683.00,0.0081
2682.00,0.0080
2681.00,0.0080
2680.00,0.0080
2679.00,0.0079
2678.00,0.0079
2677.00,0.0079
2676.00,0.0078
2675.00,0.0078
2674.00,0.0078
2673.00,0.0078
2672.00,0.0078
2671.00,0.0078
2670.00,0.0077
2669.00,0.0077
2668.00,0.0077
2667.00,0.0077
2666.00,0.0077
2665.00,0.0077
2664.00,0.0077
2663.00,0.0078
2662.00,0.0078
2661.00,0.0078
2660.00,0.0078
2659.00,0.0077
2658.00,0.0077
2657.00,0.0077
2656.00,0.0077
2655.00,0.0076
2654.00,0.0076
2653.00,0.0076
2652.00,0.0076
2651.00,0.0076
2650.00,0.0075
2649.00,0.0075
2648.00,0.0075
2647.00,0.0074
2646.00,0.0074
2645.00,0.0073
2644.00,0.0073
2643.00,0.0072
2642.00,0.0072
2641.00,0.0072
2640.00,0.0071
2639.00,0.0071
2638.00,0.0071
2637.00,0.0071
2636.00,0.0070
2635.00,0.0070
2634.00,0.0069
2633.00,0.0069
2632.00,0.0069
2631.00,0.0068
2630.00,0.0068
2629.00,0.0068
2628.00,0.0068
2627.00,0.0067
2626.00,0.0067
2625.00,0.0066
2624.00,0.0066
2623.00,0.0065
2622.00,0.0065
2621.00,0.0065
2620.00,0.0064
2619.00,0.0064
2618.00,0.0064
2617.00,0.0064
2616.00,0.0064
2615.00,0.0063
2614.00,0.0063
2613.00,0.0062
2612.00,0.0062
2611.00,0.0062
2610.00,0.0061
2609.00,0.0061
2608.00,0.0061
2607.00,0.0061
2606.00,0.0061
2605.00,0.0061
2604.00,0.0061
2603.00,0.0061
2602.00,0.0061
2601.00,0.0061
2600.00,0.0061
2599.00,0.0061
2598.00,0.0061
2597.00,0.0061
2596.00,0.0061
2595.00,0.0061
2594.00,0.0061
2593.00,0.0060
2592.00,0.0060
2591.00,0.0060
2590.00,0.0060
2589.00,0.0061
2588.00,0.0061
2587.00,0.0061
2586.00,0.0061
2585.00,0.0060
2584.00,0.0060
2583.00,0.0060
2582.00,0.0060
2581.00,0.0060
2580.00,0.0060
2579.00,0.0059
2578.00,0.0059
2577.00,0.0059
2576.00,0.0059
2575.00,0.0059
2574.00,0.0058
2573.00,0.0058
2572.00,0.0057
2571.00,0.0057
2570.00,0.0056
2569.00,0.0056
2568.00,0.0056
2567.00,0.0056
2566.00,0.0056
2565.00,0.0056
2564.00,0.0056
2563.00,0.0056
2562.00,0.0055
2561.00,0.0055
2560.00,0.0055
2559.00,0.0055
2558.00,0.0054
2557.00,0.0054
2556.00,0.0054
2555.00,0.0054
2554.00,0.0054
2553.00,0.0053
2552.00,0.0053
2551.00,0.0053
2550.00,0.0053
2549.00,0.0053
2548.00,0.0052
2547.00,0.0052
2546.00,0.0052
2545.00,0.0052
2544.00,0.0052
2543.00,0.0052
2542.00,0.0052
2541.00,0.0052
2540.00,0.0052
2539.00,0.0052
2538.00,0.0051
2537.00,0.0051
2536.00,0.0051
2535.00,0.0051
2534.00,0.0051
2533.00,0.0051
2532.00,0.0051
2531.00,0.0052
2530.00,0.0051
2529.00,0.0051
2528.00,0.0050
2527.00,0.0050
2526.00,0.0049
2525.00,0.0049
2524.00,0.0049
2523.00,0.0049
2522.00,0.0049
2521.00,0.0049
2520.00,0.0049
2519.00,0.0049
2518.00,0.0048
2517.00,0.0048
2516.00,0.0048
2515.00,0.0048
2514.00,0.0047
2513.00,0.0047
2512.00,0.0047
2511.00,0.0047
2510.00,0.0047
2509.00,0.0046
2508.00,0.0046
2507.00,0.0046
2506.00,0.0046
2505.00,0.0046
2504.00,0.0046
2503.00,0.0046
2502.00,0.0045
2501.00,0.0045
2500.00,0.0045
2499.00,0.0045
2498.00,0.0045
2497.00,0.0045
2496.00,0.0045
2495.00,0.0045
2494.00,0.0045
2493.00,0.0045
2492.00,0.0044
2491.00,0.0044
2490.00,0.0044
2489.00,0.0044
2488.00,0.0044
2487.00,0.0043
2486.00,0.0043
2485.00,0.0043
2484.00,0.0042
2483.00,0.0042
2482.00,0.0042
2481.00,0.0042
2480.00,0.0042
2479.00,0.0041
2478.00,0.0041
2477.00,0.0041
2476.00,0.0041
2475.00,0.0041
2474.00,0.0041
2473.00,0.0041
2472.00,0.0040
2471.00,0.0040
2470.00,0.0040
2469.00,0.0040
2468.00,0.0040
2467.00,0.0040
2466.00,0.0040
2465.00,0.0040
2464.00,0.0040
2463.00,0.0040
2462.00,0.0040
2461.00,0.0040
2460.00,0.0040
2459.00,0.0040
2458.00,0.0040
2457.00,0.0040
2456.00,0.0040
2455.00,0.0040
2454.00,0.0040
2453.00,0.0040
2452.00,0.0040
2451.00,0.0040
2450.00,0.0039
2449.00,0.0039
2448.00,0.0039
2447.00,0.0039
2446.00,0.0039
2445.00,0.0040
2444.00,0.0040
2443.00,0.0039
2442.00,0.0039
2441.00,0.0039
2440.00,0.0039
2439.00,0.0038
2438.00,0.0038
2437.00,0.0038
2436.00,0.0038
2435.00,0.0038
2434.00,0.0038
2433.00,0.0038
2432.00,0.0038
2431.00,0.0038
2430.00,0.0038
2429.00,0.0037
2428.00,0.0037
2427.00,0.0037
2426.00,0.0036
2425.00,0.0036
2424.00,0.0037
2423.00,0.0037
2422.00,0.0037
2421.00,0.0037
2420.00,0.0037
2419.00,0.0037
2418.00,0.0037
2417.00,0.0037
2416.00,0.0037
2415.00,0.0038
2414.00,0.0038
2413.00,0.0038
2412.00,0.0038
2411.00,0.0038
2410.00,0.0038
2409.00,0.0038
2408.00,0.0037
2407.00,0.0037
2406.00,0.0037
2405.00,0.0037
2404.00,0.0038
2403.00,0.0038
2402.00,0.0038
2401.00,0.0038
2400.00,0.0038
2399.00,0.0038
2398.00,0.0038
2397.00,0.0037
2396.00,0.0037
2395.00,0.0037
2394.00,0.0037
2393.00,0.0037
2392.00,0.0037
2391.00,0.0037
2390.00,0.0036
2389.00,0.0036
2388.00,0.0036
2387.00,0.0036
2386.00,0.0035
2385.00,0.0035
2384.00,0.0034
2383.00,0.0034
2382.00,0.0033
2381.00,0.0033
2380.00,0.0032
2379.00,0.0032
2378.00,0.0032
2377.00,0.0032
2376.00,0.0033
2375.00,0.0033
2374.00,0.0033
2373.00,0.0033
2372.00,0.0033
2371.00,0.0034
2370.00,0.0034
2369.00,0.0034
2368.00,0.0034
2367.00,0.0033
2366.00,0.0033
2365.00,0.0033
2364.00,0.0033
2363.00,0.0033
2362.00,0.0034
2361.00,0.0034
2360.00,0.0035
2359.00,0.0035
2358.00,0.0035
2357.00,0.0035
2356.00,0.0035
2355.00,0.0034
2354.00,0.0034
2353.00,0.0034
2352.00,0.0034
2351.00,0.0035
2350.00,0.0035
2349.00,0.0035
2348.00,0.0036
2347.00,0.0036
2346.00,0.0036
2345.00,0.0037
2344.00,0.0037
2343.00,0.0037
2342.00,0.0037
2341.00,0.0037
2340.00,0.0038
2339.00,0.0038
2338.00,0.0038
2337.00,0.0038
2336.00,0.0038
2335.00,0.0038
2334.00,0.0038
2333.00,0.0037
2332.00,0.0037
2331.00,0.0037
2330.00,0.0037
2329.00,0.0038
2328.00,0.0041
2327.00,0.0045
2326.00,0.0047
2325.00,0.0048
2324.00,0.0048
2323.00,0.0046
2322.00,0.0045
2321.00,0.0044
2320.00,0.0043
2319.00,0.0042
2318.00,0.0042
2317.00,0.0041
2316.00,0.0041
2315.00,0.0041
2314.00,0.0040
2313.00,0.0039
2312.00,0.0039
2311.00,0.0038
2310.00,0.0038
2309.00,0.0039
2308.00,0.0039
2307.00,0.0039
2306.00,0.0039
2305.00,0.0039
2304.00,0.0039
2303.00,0.0039
2302.00,0.0039
2301.00,0.0040
2300.00,0.0040
2299.00,0.0040
2298.00,0.0040
2297.00,0.0041
2296.00,0.0041
2295.00,0.0041
2294.00,0.0041
2293.00,0.0041
2292.00,0.0042
2291.00,0.0043
2290.00,0.0043
2289.00,0.0044
2288.00,0.0044
2287.00,0.0044
2286.00,0.0044
2285.00,0.0043
2284.00,0.0043
2283.00,0.0042
2282.00,0.0041
2281.00,0.0041
2280.00,0.0041
2279.00,0.0041
2278.00,0.0041
2277.00,0.0040
2276.00,0.0040
2275.00,0.0040
2274.00,0.0040
2273.00,0.0040
2272.00,0.0040
2271.00,0.0039
2270.00,0.0039
2269.00,0.0038
2268.00,0.0038
2267.00,0.0038
2266.00,0.0037
2265.00,0.0037
2264.00,0.0037
2263.00,0.0038
2262.00,0.0038
2261.00,0.0038
2260.00,0.0039
2259.00,0.0038
2258.00,0.0037
2257.00,0.0035
2256.00,0.0034
2255.00,0.0033
2254.00,0.0033
2253.00,0.0034
2252.00,0.0035
2251.00,0.0036
2250.00,0.0036
2249.00,0.0036
2248.00,0.0037
2247.00,0.0037
2246.00,0.0037
2245.00,0.0037
2244.00,0.0038
2243.00,0.0038
2242.00,0.0038
2241.00,0.0038
2240.00,0.0039
2239.00,0.0039
2238.00,0.0039
2237.00,0.0039
2236.00,0.0039
2235.00,0.0039
2234.00,0.0038
2233.00,0.0038
2232.00,0.0037
2231.00,0.0037
2230.00,0.0036
2229.00,0.0035
2228.00,0.0035
2227.00,0.0035
2226.00,0.0035
2225.00,0.0035
2224.00,0.0037
2223.00,0.0038
2222.00,0.0039
2221.00,0.0039
2220.00,0.0039
2219.00,0.0038
2218.00,0.0037
2217.00,0.0036
2216.00,0.0037
2215.00,0.0038
2214.00,0.0038
2213.00,0.0039
2212.00,0.0040
2211.00,0.0040
2210.00,0.0038
2209.00,0.0038
2208.00,0.0037
2207.00,0.0037
2206.00,0.0036
2205.00,0.0036
2204.00,0.0037
2203.00,0.0037
2202.00,0.0037
2201.00,0.0036
2200.00,0.0036
2199.00,0.0037
2198.00,0.0038
2197.00,0.0039
2196.00,0.0041
2195.00,0.0041
2194.00,0.0041
2193.00,0.0040
2192.00,0.0040
2191.00,0.0040
2190.00,0.0039
2189.00,0.0039
2188.00,0.0039
2187.00,0.0039
2186.00,0.0038
2185.00,0.0036
2184.00,0.0034
2183.00,0.0032
2182.00,0.0030
2181.00,0.0030
2180.00,0.0033
2179.00,0.0034
2178.00,0.0034
2177.00,0.0032
2176.00,0.0031
2175.00,0.0030
2174.00,0.0031
2173.00,0.0033
2172.00,0.0036
2171.00,0.0039
2170.00,0.0040
2169.00,0.0041
2168.00,0.0042
2167.00,0.0043
2166.00,0.0043
2165.00,0.0044
2164.00,0.0046
2163.00,0.0046
2162.00,0.0040
2161.00,0.0031
2160.00,0.0020
2159.00,0.0010
2158.00,0.0005
2157.00,0.0006
2156.00,0.0009
2155.00,0.0012
2154.00,0.0014
2153.00,0.0016
2152.00,0.0018
2151.00,0.0020
2150.00,0.0020
2149.00,0.0019
2148.00,0.0019
2147.00,0.0018
2146.00,0.0018
2145.00,0.0019
2144.00,0.0020
2143.00,0.0021
2142.00,0.0021
2141.00,0.0022
2140.00,0.0023
2139.00,0.0024
2138.00,0.0023
2137.00,0.0021
2136.00,0.0019
2135.00,0.0018
2134.00,0.0017
2133.00,0.0018
2132.00,0.0020
2131.00,0.0022
2130.00,0.0023
2129.00,0.0024
2128.00,0.0026
2127.00,0.0027
2126.00,0.0028
2125.00,0.0028
2124.00,0.0029
2123.00,0.0029
2122.00,0.0029
2121.00,0.0030
2120.00,0.0031
2119.00,0.0032
2118.00,0.0033
2117.00,0.0033
2116.00,0.0034
2115.00,0.0034
2114.00,0.0034
2113.00,0.0035
2112.00,0.0035
2111.00,0.0035
2110.00,0.0034
2109.00,0.0033
2108.00,0.0032
2107.00,0.0031
2106.00,0.0031
2105.00,0.0031
2104.00,0.0031
2103.00,0.0030
2102.00,0.0030
2101.00,0.0029
2100.00,0.0030
2099.00,0.0030
2098.00,0.0029
2097.00,0.0028
2096.00,0.0027
2095.00,0.0026
2094.00,0.0025
2093.00,0.0026
2092.00,0.0027
2091.00,0.0028
2090.00,0.0028
2089.00,0.0027
2088.00,0.0028
2087.00,0.0028
2086.00,0.0028
2085.00,0.0028
2084.00,0.0029
2083.00,0.0029
2082.00,0.0029
2081.00,0.0030
2080.00,0.0031
2079.00,0.0030
2078.00,0.0029
2077.00,0.0029
2076.00,0.0029
2075.00,0.0029
2074.00,0.0028
2073.00,0.0028
2072.00,0.0029
2071.00,0.0029
2070.00,0.0029
2069.00,0.0029
2068.00,0.0029
2067.00,0.0029
2066.00,0.0028
2065.00,0.0027
2064.00,0.0027
2063.00,0.0026
2062.00,0.0026
2061.00,0.0026
2060.00,0.0027
2059.00,0.0027
2058.00,0.0027
2057.00,0.0027
2056.00,0.0027
2055.00,0.0028
2054.00,0.0030
2053.00,0.0034
2052.00,0.0037
2051.00,0.0038
2050.00,0.0035
2049.00,0.0031
2048.00,0.0029
2047.00,0.0028
2046.00,0.0028
2045.00,0.0028
2044.00,0.0029
2043.00,0.0029
2042.00,0.0028
2041.00,0.0026
2040.00,0.0026
2039.00,0.0028
2038.00,0.0028
2037.00,0.0028
2036.00,0.0027
2035.00,0.0025
2034.00,0.0021
2033.00,0.0019
2032.00,0.0020
2031.00,0.0019
2030.00,0.0018
2029.00,0.0018
2028.00,0.0020
2027.00,0.0020
2026.00,0.0020
2025.00,0.0019
2024.00,0.0020
2023.00,0.0020
2022.00,0.0019
2021.00,0.0020
2020.00,0.0022
2019.00,0.0023
2018.00,0.0022
2017.00,0.0020
2016.00,0.0020
2015.00,0.0019
2014.00,0.0018
2013.00,0.0018
2012.00,0.0020
2011.00,0.0021
2010.00,0.0020
2009.00,0.0018
2008.00,0.0016
2007.00,0.0014
2006.00,0.0012
2005.00,0.0013
2004.00,0.0016
2003.00,0.0017
2002.00,0.0017
2001.00,0.0017
2000.00,0.0018
1999.00,0.0019
1998.00,0.0019
1997.00,0.0021
1996.00,0.0023
1995.00,0.0025
1994.00,0.0025
1993.00,0.0024
1992.00,0.0025
1991.00,0.0025
1990.00,0.0024
1989.00,0.0025
1988.00,0.0026
1987.00,0.0028
1986.00,0.0028
1985.00,0.0029
1984.00,0.0031
1983.00,0.0033
1982.00,0.0034
1981.00,0.0034
1980.00,0.0032
1979.00,0.0026
1978.00,0.0017
1977.00,0.0011
1976.00,0.0010
1975.00,0.0010
1974.00,0.0009
1973.00,0.0010
1972.00,0.0013
1971.00,0.0016
1970.00,0.0017
1969.00,0.0019
1968.00,0.0020
1967.00,0.0019
1966.00,0.0016
1965.00,0.0014
1964.00,0.0015
1963.00,0.0015
1962.00,0.0013
1961.00,0.0011
1960.00,0.0012
1959.00,0.0013
1958.00,0.0014
1957.00,0.0016
1956.00,0.0018
1955.00,0.0019
1954.00,0.0019
1953.00,0.0018
1952.00,0.0019
1951.00,0.0019
1950.00,0.0018
1949.00,0.0019
1948.00,0.0020
1947.00,0.0021
1946.00,0.0021
1945.00,0.0020
1944.00,0.0020
1943.00,0.0020
1942.00,0.0018
1941.00,0.0018
1940.00,0.0019
1939.00,0.0020
1938.00,0.0020
1937.00,0.0019
1936.00,0.0020
1935.00,0.0021
1934.00,0.0021
1933.00,0.0021
1932.00,0.0022
1931.00,0.0022
1930.00,0.0022
1929.00,0.0021
1928.00,0.0021
1927.00,0.0021
1926.00,0.0022
1925.00,0.0022
1924.00,0.0024
1923.00,0.0026
1922.00,0.0026
1921.00,0.0026
1920.00,0.0026
1919.00,0.0027
1918.00,0.0026
1917.00,0.0026
1916.00,0.0026
1915.00,0.0026
1914.00,0.0026
1913.00,0.0026
1912.00,0.0027
1911.00,0.0027
1910.00,0.0027
1909.00,0.0027
1908.00,0.0027
1907.00,0.0027
1906.00,0.0026
1905.00,0.0025
1904.00,0.0026
1903.00,0.0026
1902.00,0.0026
1901.00,0.0026
1900.00,0.0026
1899.00,0.0027
1898.00,0.0026
1897.00,0.0026
1896.00,0.0026
1895.00,0.0026
1894.00,0.0026
1893.00,0.0026
1892.00,0.0027
1891.00,0.0028
1890.00,0.0027
1889.00,0.0026
1888.00,0.0026
1887.00,0.0026
1886.00,0.0026
1885.00,0.0026
1884.00,0.0027
1883.00,0.0027
1882.00,0.0026
1881.00,0.0026
1880.00,0.0027
1879.00,0.0027
1878.00,0.0027
1877.00,0.0027
1876.00,0.0028
1875.00,0.0028
1874.00,0.0027
1873.00,0.0027
1872.00,0.0027
1871.00,0.0028
1870.00,0.0028
1869.00,0.0028
1868.00,0.0029
1867.00,0.0029
1866.00,0.0028
1865.00,0.0028
1864.00,0.0028
1863.00,0.0029
1862.00,0.0029
1861.00,0.0029
1860.00,0.0029
1859.00,0.0029
1858.00,0.0028
1857.00,0.0028
1856.00,0.0028
1855.00,0.0028
1854.00,0.0028
1853.00,0.0028
1852.00,0.0029
1851.00,0.0030
1850.00,0.0031
1849.00,0.0031
1848.00,0.0031
1847.00,0.0031
1846.00,0.0029
1845.00,0.0029
1844.00,0.0029
1843.00,0.0030
1842.00,0.0030
1841.00,0.0030
1840.00,0.0031
1839.00,0.0032
1838.00,0.0032
1837.00,0.0032
1836.00,0.0032
1835.00,0.0032
1834.00,0.0031
1833.00,0.0031
1832.00,0.0032
1831.00,0.0033
1830.00,0.0032
1829.00,0.0032
1828.00,0.0032
1827.00,0.0032
1826.00,0.0032
1825.00,0.0032
1824.00,0.0033
1823.00,0.0034
1822.00,0.0033
1821.00,0.0033
1820.00,0.0033
1819.00,0.0032
1818.00,0.0031
1817.00,0.0031
1816.00,0.0031
1815.00,0.0032
1814.00,0.0032
1813.00,0.0033
1812.00,0.0033
1811.00,0.0033
1810.00,0.0033
1809.00,0.0033
1808.00,0.0033
1807.00,0.0034
1806.00,0.0034
1805.00,0.0034
1804.00,0.0035
1803.00,0.0035
1802.00,0.0035
1801.00,0.0035
1800.00,0.0035
1799.00,0.0036
1798.00,0.0036
1797.00,0.0036
1796.00,0.0036
1795.00,0.0036
1794.00,0.0035
1793.00,0.0035
1792.00,0.0036
1791.00,0.0037
1790.00,0.0037
1789.00,0.0037
1788.00,0.0038
1787.00,0.0039
1786.00,0.0039
1785.00,0.0039
1784.00,0.0040
1783.00,0.0041
1782.00,0.0042
1781.00,0.0042
1780.00,0.0043
1779.00,0.0043
1778.00,0.0043
1777.00,0.0043
1776.00,0.0044
1775.00,0.0044
1774.00,0.0044
1773.00,0.0044
1772.00,0.0045
1771.00,0.0046
1770.00,0.0047
1769.00,0.0047
1768.00,0.0049
1767.00,0.0049
1766.00,0.0049
1765.00,0.0049
1764.00,0.0050
1763.00,0.0050
1762.00,0.0050
1761.00,0.0051
1760.00,0.0052
1759.00,0.0053
1758.00,0.0053
1757.00,0.0054
1756.00,0.0056
1755.00,0.0057
1754.00,0.0057
1753.00,0.0057
1752.00,0.0060
1751.00,0.0062
1750.00,0.0063
1749.00,0.0064
1748.00,0.0066
1747.00,0.0067
1746.00,0.0068
1745.00,0.0069
1744.00,0.0071
1743.00,0.0072
1742.00,0.0071
1741.00,0.0072
1740.00,0.0074
1739.00,0.0076
1738.00,0.0077
1737.00,0.0077
1736.00,0.0078
1735.00,0.0081
1734.00,0.0085
1733.00,0.0088
1732.00,0.0093
1731.00,0.0096
1730.00,0.0097
1729.00,0.0100
1728.00,0.0103
1727.00,0.0107
1726.00,0.0110
1725.00,0.0113
1724.00,0.0118
1723.00,0.0122
1722.00,0.0124
1721.00,0.0127
1720.00,0.0131
1719.00,0.0137
1718.00,0.0143
1717.00,0.0151
1716.00,0.0160
1715.00,0.0168
1714.00,0.0175
1713.00,0.0184
1712.00,0.0194
1711.00,0.0205
1710.00,0.0215
1709.00,0.0227
1708.00,0.0242
1707.00,0.0260
1706.00,0.0280
1705.00,0.0302
1704.00,0.0323
1703.00,0.0340
1702.00,0.0361
1701.00,0.0400
1700.00,0.0458
1699.00,0.0511
1698.00,0.0552
1697.00,0.0600
1696.00,0.0671
1695.00,0.0750
1694.00,0.0817
1693.00,0.0876
1692.00,0.0938
1691.00,0.1009
1690.00,0.1087
1689.00,0.1165
1688.00,0.1235
1687.00,0.1296
1686.00,0.1357
1685.00,0.1440
1684.00,0.1545
1683.00,0.1632
1682.00,0.1689
1681.00,0.1734
1680.00,0.1780
1679.00,0.1823
1678.00,0.1859
1677.00,0.1895
1676.00,0.1941
1675.00,0.1993
1674.00,0.2037
1673.00,0.2072
1672.00,0.2106
1671.00,0.2148
1670.00,0.2201
1669.00,0.2261
1668.00,0.2319
1667.00,0.2366
1666.00,0.2407
1665.00,0.2450
1664.00,0.2502
1663.00,0.2564
1662.00,0.2624
1661.00,0.2674
1660.00,0.2716
1659.00,0.2753
1658.00,0.2783
1657.00,0.2805
1656.00,0.2822
1655.00,0.2837
1654.00,0.2854
1653.00,0.2863
1652.00,0.2856
1651.00,0.2836
1650.00,0.2807
1649.00,0.2771
1648.00,0.2719
1647.00,0.2644
1646.00,0.2553
1645.00,0.2462
1644.00,0.2376
1643.00,0.2288
1642.00,0.2193
1641.00,0.2094
1640.00,0.1995
1639.00,0.1901
1638.00,0.1809
1637.00,0.1709
1636.00,0.1598
1635.00,0.1492
1634.00,0.1408
1633.00,0.1340
1632.00,0.1279
1631.00,0.1222
1630.00,0.1167
1629.00,0.1116
1628.00,0.1070
1627.00,0.1031
1626.00,0.0999
1625.00,0.0971
1624.00,0.0947
1623.00,0.0927
1622.00,0.0909
1621.00,0.0893
1620.00,0.0876
1619.00,0.0858
1618.00,0.0839
1617.00,0.0816
1616.00,0.0791
1615.00,0.0766
1614.00,0.0743
1613.00,0.0720
1612.00,0.0696
1611.00,0.0673
1610.00,0.0654
1609.00,0.0639
1608.00,0.0629
1607.00,0.0625
1606.00,0.0628
1605.00,0.0637
1604.00,0.0650
1603.00,0.0667
1602.00,0.0686
1601.00,0.0703
1600.00,0.0715
1599.00,0.0722
1598.00,0.0721
1597.00,0.0712
1596.00,0.0697
1595.00,0.0676
1594.00,0.0650
1593.00,0.0624
1592.00,0.0598
1591.00,0.0573
1590.00,0.0550
1589.00,0.0528
1588.00,0.0508
1587.00,0.0489
1586.00,0.0471
1585.00,0.0454
1584.00,0.0437
1583.00,0.0420
1582.00,0.0403
1581.00,0.0387
1580.00,0.0372
1579.00,0.0358
1578.00,0.0345
1577.00,0.0331
1576.00,0.0317
1575.00,0.0305
1574.00,0.0296
1573.00,0.0288
1572.00,0.0281
1571.00,0.0273
1570.00,0.0266
1569.00,0.0260
1568.00,0.0255
1567.00,0.0250
1566.00,0.0246
1565.00,0.0242
1564.00,0.0237
1563.00,0.0232
1562.00,0.0226
1561.00,0.0221
1560.00,0.0219
1559.00,0.0215
1558.00,0.0212
1557.00,0.0213
1556.00,0.0213
1555.00,0.0212
1554.00,0.0211
1553.00,0.0211
1552.00,0.0211
1551.00,0.0210
1550.00,0.0210
1549.00,0.0209
1548.00,0.0208
1547.00,0.0208
1546.00,0.0209
1545.00,0.0209
1544.00,0.0209
1543.00,0.0209
1542.00,0.0209
1541.00,0.0209
1540.00,0.0208
1539.00,0.0208
1538.00,0.0209
1537.00,0.0209
1536.00,0.0207
1535.00,0.0206
1534.00,0.0204
1533.00,0.0203
1532.00,0.0202
1531.00,0.0201
1530.00,0.0200
1529.00,0.0200
1528.00,0.0199
1527.00,0.0199
1526.00,0.0198
1525.00,0.0199
1524.00,0.0199
1523.00,0.0200
1522.00,0.0201
1521.00,0.0203
1520.00,0.0204
1519.00,0.0206
1518.00,0.0208
1517.00,0.0209
1516.00,0.0210
1515.00,0.0211
1514.00,0.0213
1513.00,0.0215
1512.00,0.0219
1511.00,0.0223
1510.00,0.0227
1509.00,0.0231
1508.00,0.0239
1507.00,0.0250
1506.00,0.0268
1505.00,0.0288
1504.00,0.0307
1503.00,0.0325
1502.00,0.0345
1501.00,0.0369
1500.00,0.0397
1499.00,0.0427
1498.00,0.0460
1497.00,0.0493
1496.00,0.0522
1495.00,0.0542
1494.00,0.0552
1493.00,0.0553
1492.00,0.0547
1491.00,0.0532
1490.00,0.0508
1489.00,0.0479
1488.00,0.0447
1487.00,0.0417
1486.00,0.0389
1485.00,0.0367
1484.00,0.0348
1483.00,0.0333
1482.00,0.0321
1481.00,0.0313
1480.00,0.0309
1479.00,0.0308
1478.00,0.0311
1477.00,0.0319
1476.00,0.0331
1475.00,0.0346
1474.00,0.0369
1473.00,0.0405
1472.00,0.0452
1471.00,0.0503
1470.00,0.0554
1469.00,0.0607
1468.00,0.0666
1467.00,0.0732
1466.00,0.0809
1465.00,0.0897
1464.00,0.0981
1463.00,0.1043
1462.00,0.1082
1461.00,0.1104
1460.00,0.1112
1459.00,0.1101
1458.00,0.1068
1457.00,0.1016
1456.00,0.0963
1455.00,0.0923
1454.00,0.0895
1453.00,0.0876
1452.00,0.0866
1451.00,0.0865
1450.00,0.0876
1449.00,0.0902
1448.00,0.0943
1447.00,0.0993
1446.00,0.1047
1445.00,0.1104
1444.00,0.1163
1443.00,0.1224
1442.00,0.1283
1441.00,0.1339
1440.00,0.1388
1439.00,0.1429
1438.00,0.1470
1437.00,0.1519
1436.00,0.1570
1435.00,0.1610
1434.00,0.1643
1433.00,0.1676
1432.00,0.1712
1431.00,0.1749
1430.00,0.1784
1429.00,0.1819
1428.00,0.1848
1427.00,0.1872
1426.00,0.1895
1425.00,0.1919
1424.00,0.1938
1423.00,0.1942
1422.00,0.1928
1421.00,0.1894
1420.00,0.1827
1419.00,0.1720
1418.00,0.1594
1417.00,0.1474
1416.00,0.1360
1415.00,0.1250
1414.00,0.1147
1413.00,0.1055
1412.00,0.0972
1411.00,0.0900
1410.00,0.0840
1409.00,0.0792
1408.00,0.0752
1407.00,0.0719
1406.00,0.0692
1405.00,0.0669
1404.00,0.0649
1403.00,0.0633
1402.00,0.0622
1401.00,0.0614
1400.00,0.0606
1399.00,0.0600
1398.00,0.0596
1397.00,0.0594
1396.00,0.0591
1395.00,0.0590
1394.00,0.0591
1393.00,0.0594
1392.00,0.0598
1391.00,0.0603
1390.00,0.0610
1389.00,0.0619
1388.00,0.0631
1387.00,0.0647
1386.00,0.0664
1385.00,0.0682
1384.00,0.0699
1383.00,0.0717
1382.00,0.0735
1381.00,0.0752
1380.00,0.0768
1379.00,0.0783
1378.00,0.0795
1377.00,0.0804
1376.00,0.0809
1375.00,0.0807
1374.00,0.0799
1373.00,0.0786
1372.00,0.0770
1371.00,0.0753
1370.00,0.0735
1369.00,0.0715
1368.00,0.0694
1367.00,0.0673
1366.00,0.0653
1365.00,0.0633
1364.00,0.0612
1363.00,0.0590
1362.00,0.0570
1361.00,0.0553
1360.00,0.0539
1359.00,0.0528
1358.00,0.0520
1357.00,0.0514
1356.00,0.0508
1355.00,0.0503
1354.00,0.0499
1353.00,0.0495
1352.00,0.0490
1351.00,0.0484
1350.00,0.0478
1349.00,0.0471
1348.00,0.0463
1347.00,0.0456
1346.00,0.0449
1345.00,0.0443
1344.00,0.0438
1343.00,0.0435
1342.00,0.0434
1341.00,0.0434
1340.00,0.0435
1339.00,0.0436
1338.00,0.0439
1337.00,0.0443
1336.00,0.0447
1335.00,0.0453
1334.00,0.0461
1333.00,0.0470
1332.00,0.0480
1331.00,0.0492
1330.00,0.0507
1329.00,0.0523
1328.00,0.0542
1327.00,0.0562
1326.00,0.0585
1325.00,0.0609
1324.00,0.0633
1323.00,0.0657
1322.00,0.0680
1321.00,0.0700
1320.00,0.0716
1319.00,0.0728
1318.00,0.0734
1317.00,0.0734
1316.00,0.0729
1315.00,0.0720
1314.00,0.0706
1313.00,0.0690
1312.00,0.0673
1311.00,0.0657
1310.00,0.0642
1309.00,0.0631
1308.00,0.0623
1307.00,0.0619
1306.00,0.0620
1305.00,0.0628
1304.00,0.0642
1303.00,0.0665
1302.00,0.0697
1301.00,0.0741
1300.00,0.0797
1299.00,0.0867
1298.00,0.0952
1297.00,0.1051
1296.00,0.1164
1295.00,0.1286
1294.00,0.1411
1293.00,0.1534
1292.00,0.1650
1291.00,0.1752
1290.00,0.1836
1289.00,0.1900
1288.00,0.1943
1287.00,0.1963
1286.00,0.1960
1285.00,0.1937
1284.00,0.1897
1283.00,0.1846
1282.00,0.1791
1281.00,0.1739
1280.00,0.1697
1279.00,0.1667
1278.00,0.1651
1277.00,0.1649
1276.00,0.1656
1275.00,0.1667
1274.00,0.1677
1273.00,0.1681
1272.00,0.1676
1271.00,0.1658
1270.00,0.1627
1269.00,0.1584
1268.00,0.1531
1267.00,0.1471
1266.00,0.1407
1265.00,0.1341
1264.00,0.1276
1263.00,0.1214
1262.00,0.1154
1261.00,0.1097
1260.00,0.1044
1259.00,0.0995
1258.00,0.0949
1257.00,0.0906
1256.00,0.0867
1255.00,0.0831
1254.00,0.0797
1253.00,0.0767
1252.00,0.0739
1251.00,0.0714
1250.00,0.0691
1249.00,0.0671
1248.00,0.0654
1247.00,0.0640
1246.00,0.0629
1245.00,0.0622
1244.00,0.0617
1243.00,0.0615
1242.00,0.0617
1241.00,0.0622
1240.00,0.0630
1239.00,0.0642
1238.00,0.0658
1237.00,0.0677
1236.00,0.0699
1235.00,0.0723
1234.00,0.0749
1233.00,0.0776
1232.00,0.0801
1231.00,0.0823
1230.00,0.0841
1229.00,0.0855
1228.00,0.0863
1227.00,0.0867
1226.00,0.0867
1225.00,0.0865
1224.00,0.0860
1223.00,0.0855
1222.00,0.0849
1221.00,0.0841
1220.00,0.0831
1219.00,0.0819
1218.00,0.0804
1217.00,0.0787
1216.00,0.0768
1215.00,0.0748
1214.00,0.0726
1213.00,0.0705
1212.00,0.0684
1211.00,0.0664
1210.00,0.0646
1209.00,0.0629
1208.00,0.0614
1207.00,0.0600
1206.00,0.0588
1205.00,0.0577
1204.00,0.0566
1203.00,0.0556
1202.00,0.0546
1201.00,0.0536
1200.00,0.0527
1199.00,0.0517
1198.00,0.0508
1197.00,0.0499
1196.00,0.0491
1195.00,0.0484
1194.00,0.0478
1193.00,0.0472
1192.00,0.0467
1191.00,0.0463
1190.00,0.0461
1189.00,0.0458
1188.00,0.0456
1187.00,0.0455
1186.00,0.0454
1185.00,0.0454
1184.00,0.0455
1183.00,0.0457
1182.00,0.0460
1181.00,0.0465
1180.00,0.0471
1179.00,0.0480
1178.00,0.0491
1177.00,0.0505
1176.00,0.0521
1175.00,0.0539
1174.00,0.0559
1173.00,0.0580
1172.00,0.0602
1171.00,0.0623
1170.00,0.0642
1169.00,0.0659
1168.00,0.0673
1167.00,0.0682
1166.00,0.0686
1165.00,0.0685
1164.00,0.0679
1163.00,0.0667
1162.00,0.0651
1161.00,0.0632
1160.00,0.0611
1159.00,0.0590
1158.00,0.0570
1157.00,0.0551
1156.00,0.0533
1155.00,0.0515
1154.00,0.0497
1153.00,0.0480
1152.00,0.0463
1151.00,0.0447
1150.00,0.0432
1149.00,0.0417
1148.00,0.0402
1147.00,0.0388
1146.00,0.0374
1145.00,0.0362
1144.00,0.0351
1143.00,0.0341
1142.00,0.0332
1141.00,0.0324
1140.00,0.0317
1139.00,0.0311
1138.00,0.0304
1137.00,0.0298
1136.00,0.0292
1135.00,0.0288
1134.00,0.0284
1133.00,0.0281
1132.00,0.0279
1131.00,0.0278
1130.00,0.0278
1129.00,0.0278
1128.00,0.0279
1127.00,0.0280
1126.00,0.0282
1125.00,0.0284
1124.00,0.0286
1123.00,0.0289
1122.00,0.0292
1121.00,0.0296
1120.00,0.0300
1119.00,0.0304
1118.00,0.0309
1117.00,0.0315
1116.00,0.0321
1115.00,0.0328
1114.00,0.0336
1113.00,0.0345
1112.00,0.0353
1111.00,0.0360
1110.00,0.0367
1109.00,0.0372
1108.00,0.0376
1107.00,0.0378
1106.00,0.0379
1105.00,0.0380
1104.00,0.0380
1103.00,0.0380
1102.00,0.0381
1101.00,0.0384
1100.00,0.0387
1099.00,0.0392
1098.00,0.0398
1097.00,0.0403
1096.00,0.0408
1095.00,0.0413
1094.00,0.0417
1093.00,0.0419
1092.00,0.0421
1091.00,0.0423
1090.00,0.0425
1089.00,0.0430
1088.00,0.0436
1087.00,0.0443
1086.00,0.0452
1085.00,0.0461
1084.00,0.0467
1083.00,0.0472
1082.00,0.0474
1081.00,0.0474
1080.00,0.0471
1079.00,0.0467
1078.00,0.0462
1077.00,0.0457
1076.00,0.0452
1075.00,0.0446
1074.00,0.0441
1073.00,0.0434
1072.00,0.0427
1071.00,0.0420
1070.00,0.0413
1069.00,0.0407
1068.00,0.0402
1067.00,0.0398
1066.00,0.0396
1065.00,0.0396
1064.00,0.0398
1063.00,0.0402
1062.00,0.0410
1061.00,0.0421
1060.00,0.0437
1059.00,0.0457
1058.00,0.0485
1057.00,0.0522
1056.00,0.0566
1055.00,0.0619
1054.00,0.0678
1053.00,0.0739
1052.00,0.0797
1051.00,0.0845
1050.00,0.0880
1049.00,0.0898
1048.00,0.0901
1047.00,0.0892
1046.00,0.0875
1045.00,0.0856
1044.00,0.0838
1043.00,0.0822
1042.00,0.0811
1041.00,0.0805
1040.00,0.0801
1039.00,0.0800
1038.00,0.0799
1037.00,0.0797
1036.00,0.0794
1035.00,0.0789
1034.00,0.0782
1033.00,0.0772
1032.00,0.0761
1031.00,0.0748
1030.00,0.0735
1029.00,0.0721
1028.00,0.0706
1027.00,0.0693
1026.00,0.0680
1025.00,0.0667
1024.00,0.0656
1023.00,0.0646
1022.00,0.0637
1021.00,0.0630
1020.00,0.0622
1019.00,0.0613
1018.00,0.0602
1017.00,0.0588
1016.00,0.0569
1015.00,0.0545
1014.00,0.0519
1013.00,0.0492
1012.00,0.0466
1011.00,0.0443
1010.00,0.0424
1009.00,0.0411
1008.00,0.0404
1007.00,0.0403
1006.00,0.0407
1005.00,0.0415
1004.00,0.0423
1003.00,0.0429
1002.00,0.0430
1001.00,0.0426
1000.00,0.0417
999.00,0.0405
998.00,0.0392
997.00,0.0380
996.00,0.0368
995.00,0.0359
994.00,0.0351
993.00,0.0345
992.00,0.0341
991.00,0.0338
990.00,0.0337
989.00,0.0336
988.00,0.0336
987.00,0.0336
986.00,0.0334
985.00,0.0331
984.00,0.0326
983.00,0.0321
982.00,0.0315
981.00,0.0308
980.00,0.0301
979.00,0.0294
978.00,0.0288
977.00,0.0283
976.00,0.0278
975.00,0.0273
974.00,0.0269
973.00,0.0264
972.00,0.0259
971.00,0.0254
970.00,0.0249
969.00,0.0244
968.00,0.0239
967.00,0.0234
966.00,0.0229
965.00,0.0225
964.00,0.0221
963.00,0.0217
962.00,0.0214
961.00,0.0210
960.00,0.0206
959.00,0.0202
958.00,0.0198
957.00,0.0195
956.00,0.0192
955.00,0.0189
954.00,0.0186
953.00,0.0184
952.00,0.0181
951.00,0.0180
950.00,0.0179
949.00,0.0178
948.00,0.0178
947.00,0.0178
946.00,0.0178
945.00,0.0179
944.00,0.0181
943.00,0.0183
942.00,0.0186
941.00,0.0191
940.00,0.0198
939.00,0.0206
938.00,0.0217
937.00,0.0228
936.00,0.0240
935.00,0.0251
934.00,0.0260
933.00,0.0265
932.00,0.0264
931.00,0.0259
930.00,0.0252
929.00,0.0245
928.00,0.0239
927.00,0.0236
926.00,0.0234
925.00,0.0234
924.00,0.0233
923.00,0.0233
922.00,0.0233
921.00,0.0235
920.00,0.0236
919.00,0.0239
918.00,0.0242
917.00,0.0245
916.00,0.0247
915.00,0.0250
914.00,0.0253
913.00,0.0256
912.00,0.0260
911.00,0.0263
910.00,0.0267
909.00,0.0271
908.00,0.0273
907.00,0.0276
906.00,0.0277
905.00,0.0279
904.00,0.0280
903.00,0.0281
902.00,0.0283
901.00,0.0285
900.00,0.0287
899.00,0.0290
898.00,0.0293
897.00,0.0295
896.00,0.0296
895.00,0.0296
894.00,0.0295
893.00,0.0292
892.00,0.0289
891.00,0.0286
890.00,0.0282
889.00,0.0279
888.00,0.0276
887.00,0.0274
886.00,0.0272
885.00,0.0272
884.00,0.0272
883.00,0.0272
882.00,0.0272
881.00,0.0273
880.00,0.0274
879.00,0.0276
878.00,0.0278
877.00,0.0281
876.00,0.0283
875.00,0.0285
874.00,0.0288
873.00,0.0291
872.00,0.0294
871.00,0.0298
870.00,0.0302
869.00,0.0307
868.00,0.0312
867.00,0.0319
866.00,0.0326
865.00,0.0335
864.00,0.0345
863.00,0.0356
862.00,0.0368
861.00,0.0381
860.00,0.0395
859.00,0.0410
858.00,0.0425
857.00,0.0441
856.00,0.0458
855.00,0.0475
854.00,0.0493
853.00,0.0512
852.00,0.0529
851.00,0.0547
850.00,0.0563
849.00,0.0578
848.00,0.0591
847.00,0.0603
846.00,0.0613
845.00,0.0622
844.00,0.0629
843.00,0.0634
842.00,0.0639
841.00,0.0643
840.00,0.0646
839.00,0.0648
838.00,0.0650
837.00,0.0652
836.00,0.0654
835.00,0.0656
834.00,0.0657
833.00,0.0657
832.00,0.0656
831.00,0.0654
830.00,0.0651
829.00,0.0646
828.00,0.0639
827.00,0.0628
826.00,0.0615
825.00,0.0600
824.00,0.0584
823.00,0.0566
822.00,0.0548
821.00,0.0531
820.00,0.0515
819.00,0.0500
818.00,0.0486
817.00,0.0474
816.00,0.0463
815.00,0.0454
814.00,0.0446
813.00,0.0439
812.00,0.0433
811.00,0.0429
810.00,0.0424
809.00,0.0421
808.00,0.0418
807.00,0.0416
806.00,0.0414
805.00,0.0413
804.00,0.0411
803.00,0.0411
802.00,0.0411
801.00,0.0412
800.00,0.0414
799.00,0.0416
798.00,0.0418
797.00,0.0420
796.00,0.0421
795.00,0.0423
794.00,0.0424
793.00,0.0425
792.00,0.0425
791.00,0.0425
790.00,0.0425
789.00,0.0425
788.00,0.0425
787.00,0.0426
786.00,0.0427
785.00,0.0428
784.00,0.0430
783.00,0.0433
782.00,0.0436
781.00,0.0439
780.00,0.0442
779.00,0.0444
778.00,0.0445
777.00,0.0447
776.00,0.0448
775.00,0.0449
774.00,0.0449
773.00,0.0450
772.00,0.0452
771.00,0.0453
770.00,0.0455
769.00,0.0458
768.00,0.0461
767.00,0.0464
766.00,0.0468
765.00,0.0473
764.00,0.0479
763.00,0.0486
762.00,0.0495
761.00,0.0504
760.00,0.0514
759.00,0.0524
758.00,0.0535
757.00,0.0547
756.00,0.0558
755.00,0.0570
754.00,0.0581
753.00,0.0593
752.00,0.0604
751.00,0.0616
750.00,0.0628
749.00,0.0640
748.00,0.0652
747.00,0.0663
746.00,0.0674
745.00,0.0685
744.00,0.0694
743.00,0.0703
742.00,0.0712
741.00,0.0721
740.00,0.0729
739.00,0.0737
738.00,0.0744
737.00,0.0750
736.00,0.0754
735.00,0.0755
734.00,0.0753
733.00,0.0748
732.00,0.0739
731.00,0.0727
730.00,0.0714
729.00,0.0698
728.00,0.0683
727.00,0.0667
726.00,0.0651
725.00,0.0637
724.00,0.0624
723.00,0.0613
722.00,0.0604
721.00,0.0596
720.00,0.0589
719.00,0.0583
718.00,0.0578
717.00,0.0574
716.00,0.0571
715.00,0.0569
714.00,0.0567
713.00,0.0567
712.00,0.0567
711.00,0.0568
710.00,0.0568
709.00,0.0570
708.00,0.0571
707.00,0.0572
706.00,0.0574
705.00,0.0575
704.00,0.0577
703.00,0.0579
702.00,0.0582
701.00,0.0585
700.00,0.0588
699.00,0.0591
698.00,0.0595
697.00,0.0599
696.00,0.0603
695.00,0.0608
694.00,0.0612
693.00,0.0617
692.00,0.0623
691.00,0.0629
690.00,0.0635
689.00,0.0643
688.00,0.0651
687.00,0.0660
686.00,0.0669
685.00,0.0678
684.00,0.0686
683.00,0.0694
682.00,0.0701
681.00,0.0708
680.00,0.0715
679.00,0.0722
678.00,0.0729
677.00,0.0737
676.00,0.0744
675.00,0.0753
674.00,0.0761
673.00,0.0770
672.00,0.0778
671.00,0.0785
670.00,0.0793
669.00,0.0805
668.00,0.0822
667.00,0.0840
666.00,0.0853
665.00,0.0865
664.00,0.0877
663.00,0.0891
662.00,0.0907
661.00,0.0923
660.00,0.0941
659.00,0.0959
658.00,0.0978
657.00,0.0997
656.00,0.1017
655.00,0.1037
654.00,0.1056
653.00,0.1072
652.00,0.1087
651.00,0.1100
650.00,0.1109
649.00,0.1115
648.00,0.1117
647.00,0.1114
646.00,0.1107
645.00,0.1097
644.00,0.1084
643.00,0.1068
642.00,0.1050
641.00,0.1031
640.00,0.1011
639.00,0.0992
638.00,0.0973
637.00,0.0956
636.00,0.0940
635.00,0.0924
634.00,0.0910
633.00,0.0896
632.00,0.0883
631.00,0.0872
630.00,0.0861
629.00,0.0851
628.00,0.0842
627.00,0.0833
626.00,0.0825
625.00,0.0817
624.00,0.0811
623.00,0.0805
622.00,0.0800
621.00,0.0797
620.00,0.0795
619.00,0.0794
618.00,0.0794
617.00,0.0793
616.00,0.0793
615.00,0.0793
614.00,0.0794
613.00,0.0794
612.00,0.0796
611.00,0.0798
610.00,0.0801
609.00,0.0803
608.00,0.0805
607.00,0.0808
606.00,0.0812
605.00,0.0819
604.00,0.0825
603.00,0.0831
602.00,0.0837
601.00,0.0842
600.00,0.0847
599.00,0.0851
598.00,0.0855
597.00,0.0860
596.00,0.0866
595.00,0.0872
594.00,0.0880
593.00,0.0889
592.00,0.0898
591.00,0.0908
590.00,0.0919
589.00,0.0930
588.00,0.0943
587.00,0.0958
586.00,0.0975
585.00,0.0994
584.00,0.1013
583.00,0.1032
582.00,0.1050
581.00,0.1068
580.00,0.1085
579.00,0.1099
578.00,0.1111
577.00,0.1121
576.00,0.1128
575.00,0.1132
574.00,0.1133
573.00,0.1132
572.00,0.1130
571.00,0.1127
570.00,0.1122
569.00,0.1115
568.00,0.1107
567.00,0.1096
566.00,0.1085
565.00,0.1072
564.00,0.1059
563.00,0.1044
562.00,0.1028
561.00,0.1012
560.00,0.0995
559.00,0.0979
558.00,0.0965
557.00,0.0951
556.00,0.0937
555.00,0.0923
554.00,0.0912
553.00,0.0903
552.00,0.0895
551.00,0.0888
550.00,0.0880
549.00,0.0873
548.00,0.0866
547.00,0.0860
546.00,0.0855
545.00,0.0852
544.00,0.0848
543.00,0.0844
542.00,0.0840
541.00,0.0835
540.00,0.0830
539.00,0.0826
538.00,0.0824
537.00,0.0821
536.00,0.0819
535.00,0.0816
534.00,0.0814
533.00,0.0813
532.00,0.0813
531.00,0.0812
530.00,0.0812
529.00,0.0811
528.00,0.0809
527.00,0.0807
526.00,0.0804
525.00,0.0801
524.00,0.0796
523.00,0.0793
522.00,0.0790
521.00,0.0788
520.00,0.0787
519.00,0.0786
518.00,0.0785
517.00,0.0783
516.00,0.0780
515.00,0.0778
514.00,0.0775
513.00,0.0773
512.00,0.0770
511.00,0.0768
510.00,0.0766
509.00,0.0763
508.00,0.0760
507.00,0.0757
506.00,0.0756
505.00,0.0757
504.00,0.0757
503.00,0.0756
502.00,0.0756
501.00,0.0756
500.00,0.0757
499.00,0.0759
498.00,0.0761
497.00,0.0762
496.00,0.0763
495.00,0.0763
494.00,0.0763
493.00,0.0764
492.00,0.0766
491.00,0.0769
490.00,0.0773
489.00,0.0776
488.00,0.0777
487.00,0.0777
486.00,0.0777
485.00,0.0777
484.00,0.0778
483.00,0.0781
482.00,0.0785
481.00,0.0788
480.00,0.0789
479.00,0.0789
478.00,0.0789
477.00,0.0789
476.00,0.0790
475.00,0.0792
474.00,0.0795
473.00,0.0799
472.00,0.0801
471.00,0.0800
470.00,0.0798
469.00,0.0794
468.00,0.0788
467.00,0.0783
466.00,0.0779
465.00,0.0775
464.00,0.0770
463.00,0.0766
462.00,0.0764
461.00,0.0764
460.00,0.0766
459.00,0.0768
458.00,0.0769
457.00,0.0768
456.00,0.0765
455.00,0.0763
454.00,0.0764
453.00,0.0767
452.00,0.0767
451.00,0.0765
450.00,0.0761
449.00,0.0756
448.00,0.0750
447.00,0.0744
446.00,0.0739
445.00,0.0735
444.00,0.0731
443.00,0.0726
442.00,0.0720
441.00,0.0713
440.00,0.0706
439.00,0.0702
438.00,0.0702
437.00,0.0702
436.00,0.0699
435.00,0.0693
434.00,0.0688
433.00,0.0685
432.00,0.0682
431.00,0.0678
430.00,0.0675
429.00,0.0671
428.00,0.0666
427.00,0.0665
426.00,0.0667
425.00,0.0671
424.00,0.0673
423.00,0.0674
422.00,0.0675
421.00,0.0676
420.00,0.0672
419.00,0.0665
418.00,0.0661
417.00,0.0661
416.00,0.0661
415.00,0.0659
414.00,0.0655
413.00,0.0653
412.00,0.0652
411.00,0.0656
410.00,0.0661
409.00,0.0665
408.00,0.0665
407.00,0.0669
406.00,0.0680
405.00,0.0691
404.00,0.0698
403.00,0.0700
402.00,0.0699
401.00,0.0695
400.00,0.0687
