Created as New Dataset,Sample 998 By YargerLab Date Wednesday, July 30 2025
cm-1,A
4000.00,0.0008
3999.00,0.0008
3998.00,0.0008
3997.00,0.0008
3996.00,0.0008
3995.00,0.0007
3994.00,0.0007
3993.00,0.0008
3992.00,0.0008
3991.00,0.0008
3990.00,0.0008
3989.00,0.0008
3988.00,0.0008
3987.00,0.0008
3986.00,0.0007
3985.00,0.0008
3984.00,0.0008
3983.00,0.0008
3982.00,0.0008
3981.00,0.0008
3980.00,0.0007
3979.00,0.0007
3978.00,0.0007
3977.00,0.0007
3976.00,0.0007
3975.00,0.0007
3974.00,0.0007
3973.00,0.0007
3972.00,0.0007
3971.00,0.0007
3970.00,0.0007
3969.00,0.0007
3968.00,0.0007
3967.00,0.0007
3966.00,0.0007
3965.00,0.0007
3964.00,0.0007
3963.00,0.0007
3962.00,0.0008
3961.00,0.0008
3960.00,0.0007
3959.00,0.0007
3958.00,0.0007
3957.00,0.0007
3956.00,0.0007
3955.00,0.0007
3954.00,0.0008
3953.00,0.0008
3952.00,0.0008
3951.00,0.0008
3950.00,0.0008
3949.00,0.0007
3948.00,0.0007
3947.00,0.0007
3946.00,0.0007
3945.00,0.0007
3944.00,0.0007
3943.00,0.0007
3942.00,0.0007
3941.00,0.0007
3940.00,0.0007
3939.00,0.0007
3938.00,0.0008
3937.00,0.0008
3936.00,0.0008
3935.00,0.0008
3934.00,0.0008
3933.00,0.0008
3932.00,0.0007
3931.00,0.0007
3930.00,0.0007
3929.00,0.0007
3928.00,0.0008
3927.00,0.0008
3926.00,0.0008
3925.00,0.0008
3924.00,0.0008
3923.00,0.0008
3922.00,0.0008
3921.00,0.0008
3920.00,0.0008
3919.00,0.0008
3918.00,0.0008
3917.00,0.0008
3916.00,0.0008
3915.00,0.0007
3914.00,0.0007
3913.00,0.0007
3912.00,0.0007
3911.00,0.0007
3910.00,0.0007
3909.00,0.0008
3908.00,0.0008
3907.00,0.0008
3906.00,0.0008
3905.00,0.0008
3904.00,0.0008
3903.00,0.0008
3902.00,0.0008
3901.00,0.0008
3900.00,0.0008
3899.00,0.0008
3898.00,0.0008
3897.00,0.0008
3896.00,0.0008
3895.00,0.0008
3894.00,0.0008
3893.00,0.0008
3892.00,0.0008
3891.00,0.0008
3890.00,0.0008
3889.00,0.0009
3888.00,0.0009
3887.00,0.0008
3886.00,0.0008
3885.00,0.0008
3884.00,0.0008
3883.00,0.0008
3882.00,0.0008
3881.00,0.0007
3880.00,0.0007
3879.00,0.0007
3878.00,0.0008
3877.00,0.0008
3876.00,0.0007
3875.00,0.0007
3874.00,0.0008
3873.00,0.0008
3872.00,0.0008
3871.00,0.0008
3870.00,0.0008
3869.00,0.0008
3868.00,0.0008
3867.00,0.0008
3866.00,0.0008
3865.00,0.0008
3864.00,0.0008
3863.00,0.0008
3862.00,0.0008
3861.00,0.0008
3860.00,0.0008
3859.00,0.0008
3858.00,0.0009
3857.00,0.0010
3856.00,0.0010
3855.00,0.0010
3854.00,0.0009
3853.00,0.0009
3852.00,0.0009
3851.00,0.0009
3850.00,0.0009
3849.00,0.0008
3848.00,0.0008
3847.00,0.0008
3846.00,0.0008
3845.00,0.0008
3844.00,0.0008
3843.00,0.0008
3842.00,0.0008
3841.00,0.0009
3840.00,0.0009
3839.00,0.0009
3838.00,0.0009
3837.00,0.0009
3836.00,0.0009
3835.00,0.0008
3834.00,0.0008
3833.00,0.0008
3832.00,0.0008
3831.00,0.0008
3830.00,0.0008
3829.00,0.0008
3828.00,0.0008
3827.00,0.0008
3826.00,0.0008
3825.00,0.0008
3824.00,0.0009
3823.00,0.0009
3822.00,0.0008
3821.00,0.0008
3820.00,0.0009
3819.00,0.0009
3818.00,0.0009
3817.00,0.0008
3816.00,0.0008
3815.00,0.0008
3814.00,0.0008
3813.00,0.0008
3812.00,0.0008
3811.00,0.0008
3810.00,0.0008
3809.00,0.0008
3808.00,0.0008
3807.00,0.0008
3806.00,0.0009
3805.00,0.0009
3804.00,0.0009
3803.00,0.0008
3802.00,0.0008
3801.00,0.0008
3800.00,0.0009
3799.00,0.0009
3798.00,0.0009
3797.00,0.0008
3796.00,0.0008
3795.00,0.0008
3794.00,0.0008
3793.00,0.0008
3792.00,0.0007
3791.00,0.0007
3790.00,0.0007
3789.00,0.0007
3788.00,0.0007
3787.00,0.0008
3786.00,0.0008
3785.00,0.0008
3784.00,0.0008
3783.00,0.0008
3782.00,0.0008
3781.00,0.0008
3780.00,0.0008
3779.00,0.0008
3778.00,0.0008
3777.00,0.0008
3776.00,0.0008
3775.00,0.0008
3774.00,0.0008
3773.00,0.0008
3772.00,0.0008
3771.00,0.0008
3770.00,0.0008
3769.00,0.0008
3768.00,0.0008
3767.00,0.0008
3766.00,0.0007
3765.00,0.0007
3764.00,0.0008
3763.00,0.0008
3762.00,0.0008
3761.00,0.0008
3760.00,0.0008
3759.00,0.0009
3758.00,0.0009
3757.00,0.0009
3756.00,0.0010
3755.00,0.0010
3754.00,0.0010
3753.00,0.0011
3752.00,0.0011
3751.00,0.0011
3750.00,0.0011
3749.00,0.0011
3748.00,0.0011
3747.00,0.0011
3746.00,0.0010
3745.00,0.0009
3744.00,0.0008
3743.00,0.0008
3742.00,0.0008
3741.00,0.0008
3740.00,0.0008
3739.00,0.0008
3738.00,0.0008
3737.00,0.0008
3736.00,0.0009
3735.00,0.0008
3734.00,0.0008
3733.00,0.0008
3732.00,0.0008
3731.00,0.0007
3730.00,0.0007
3729.00,0.0007
3728.00,0.0007
3727.00,0.0007
3726.00,0.0007
3725.00,0.0007
3724.00,0.0007
3723.00,0.0007
3722.00,0.0007
3721.00,0.0007
3720.00,0.0007
3719.00,0.0007
3718.00,0.0007
3717.00,0.0008
3716.00,0.0008
3715.00,0.0009
3714.00,0.0009
3713.00,0.0009
3712.00,0.0008
3711.00,0.0008
3710.00,0.0008
3709.00,0.0008
3708.00,0.0007
3707.00,0.0007
3706.00,0.0006
3705.00,0.0007
3704.00,0.0007
3703.00,0.0007
3702.00,0.0007
3701.00,0.0008
3700.00,0.0008
3699.00,0.0008
3698.00,0.0007
3697.00,0.0007
3696.00,0.0007
3695.00,0.0007
3694.00,0.0008
3693.00,0.0008
3692.00,0.0008
3691.00,0.0009
3690.00,0.0009
3689.00,0.0009
3688.00,0.0009
3687.00,0.0009
3686.00,0.0009
3685.00,0.0009
3684.00,0.0008
3683.00,0.0008
3682.00,0.0008
3681.00,0.0009
3680.00,0.0009
3679.00,0.0010
3678.00,0.0011
3677.00,0.0011
3676.00,0.0011
3675.00,0.0011
3674.00,0.0011
3673.00,0.0012
3672.00,0.0011
3671.00,0.0011
3670.00,0.0011
3669.00,0.0011
3668.00,0.0011
3667.00,0.0011
3666.00,0.0011
3665.00,0.0010
3664.00,0.0010
3663.00,0.0011
3662.00,0.0011
3661.00,0.0011
3660.00,0.0012
3659.00,0.0012
3658.00,0.0012
3657.00,0.0012
3656.00,0.0013
3655.00,0.0013
3654.00,0.0014
3653.00,0.0015
3652.00,0.0015
3651.00,0.0015
3650.00,0.0015
3649.00,0.0015
3648.00,0.0015
3647.00,0.0015
3646.00,0.0015
3645.00,0.0015
3644.00,0.0015
3643.00,0.0015
3642.00,0.0015
3641.00,0.0016
3640.00,0.0016
3639.00,0.0016
3638.00,0.0016
3637.00,0.0017
3636.00,0.0017
3635.00,0.0017
3634.00,0.0018
3633.00,0.0019
3632.00,0.0020
3631.00,0.0020
3630.00,0.0020
3629.00,0.0020
3628.00,0.0020
3627.00,0.0021
3626.00,0.0020
3625.00,0.0020
3624.00,0.0020
3623.00,0.0021
3622.00,0.0022
3621.00,0.0022
3620.00,0.0023
3619.00,0.0024
3618.00,0.0024
3617.00,0.0025
3616.00,0.0025
3615.00,0.0025
3614.00,0.0026
3613.00,0.0026
3612.00,0.0026
3611.00,0.0026
3610.00,0.0026
3609.00,0.0026
3608.00,0.0026
3607.00,0.0027
3606.00,0.0027
3605.00,0.0027
3604.00,0.0027
3603.00,0.0028
3602.00,0.0028
3601.00,0.0029
3600.00,0.0029
3599.00,0.0029
3598.00,0.0030
3597.00,0.0030
3596.00,0.0030
3595.00,0.0030
3594.00,0.0030
3593.00,0.0031
3592.00,0.0032
3591.00,0.0033
3590.00,0.0033
3589.00,0.0033
3588.00,0.0033
3587.00,0.0033
3586.00,0.0034
3585.00,0.0034
3584.00,0.0034
3583.00,0.0034
3582.00,0.0035
3581.00,0.0035
3580.00,0.0036
3579.00,0.0037
3578.00,0.0037
3577.00,0.0037
3576.00,0.0038
3575.00,0.0038
3574.00,0.0039
3573.00,0.0039
3572.00,0.0040
3571.00,0.0040
3570.00,0.0041
3569.00,0.0041
3568.00,0.0042
3567.00,0.0042
3566.00,0.0043
3565.00,0.0043
3564.00,0.0043
3563.00,0.0043
3562.00,0.0043
3561.00,0.0044
3560.00,0.0044
3559.00,0.0045
3558.00,0.0045
3557.00,0.0046
3556.00,0.0046
3555.00,0.0046
3554.00,0.0046
3553.00,0.0047
3552.00,0.0047
3551.00,0.0048
3550.00,0.0048
3549.00,0.0049
3548.00,0.0050
3547.00,0.0050
3546.00,0.0050
3545.00,0.0051
3544.00,0.0051
3543.00,0.0051
3542.00,0.0052
3541.00,0.0052
3540.00,0.0052
3539.00,0.0053
3538.00,0.0053
3537.00,0.0053
3536.00,0.0054
3535.00,0.0054
3534.00,0.0055
3533.00,0.0055
3532.00,0.0056
3531.00,0.0056
3530.00,0.0056
3529.00,0.0057
3528.00,0.0058
3527.00,0.0058
3526.00,0.0058
3525.00,0.0059
3524.00,0.0059
3523.00,0.0059
3522.00,0.0060
3521.00,0.0060
3520.00,0.0061
3519.00,0.0061
3518.00,0.0062
3517.00,0.0062
3516.00,0.0062
3515.00,0.0062
3514.00,0.0063
3513.00,0.0063
3512.00,0.0063
3511.00,0.0064
3510.00,0.0064
3509.00,0.0065
3508.00,0.0065
3507.00,0.0066
3506.00,0.0066
3505.00,0.0066
3504.00,0.0067
3503.00,0.0067
3502.00,0.0068
3501.00,0.0068
3500.00,0.0068
3499.00,0.0069
3498.00,0.0069
3497.00,0.0070
3496.00,0.0070
3495.00,0.0071
3494.00,0.0071
3493.00,0.0072
3492.00,0.0072
3491.00,0.0072
3490.00,0.0073
3489.00,0.0073
3488.00,0.0073
3487.00,0.0074
3486.00,0.0074
3485.00,0.0075
3484.00,0.0076
3483.00,0.0076
3482.00,0.0076
3481.00,0.0076
3480.00,0.0076
3479.00,0.0077
3478.00,0.0077
3477.00,0.0078
3476.00,0.0078
3475.00,0.0079
3474.00,0.0079
3473.00,0.0080
3472.00,0.0080
3471.00,0.0081
3470.00,0.0081
3469.00,0.0081
3468.00,0.0081
3467.00,0.0082
3466.00,0.0083
3465.00,0.0083
3464.00,0.0084
3463.00,0.0084
3462.00,0.0085
3461.00,0.0085
3460.00,0.0086
3459.00,0.0086
3458.00,0.0086
3457.00,0.0087
3456.00,0.0087
3455.00,0.0088
3454.00,0.0088
3453.00,0.0089
3452.00,0.0089
3451.00,0.0089
3450.00,0.0089
3449.00,0.0090
3448.00,0.0090
3447.00,0.0091
3446.00,0.0091
3445.00,0.0092
3444.00,0.0092
3443.00,0.0093
3442.00,0.0093
3441.00,0.0093
3440.00,0.0093
3439.00,0.0094
3438.00,0.0094
3437.00,0.0095
3436.00,0.0096
3435.00,0.0096
3434.00,0.0097
3433.00,0.0098
3432.00,0.0098
3431.00,0.0098
3430.00,0.0099
3429.00,0.0099
3428.00,0.0100
3427.00,0.0100
3426.00,0.0101
3425.00,0.0101
3424.00,0.0101
3423.00,0.0102
3422.00,0.0102
3421.00,0.0103
3420.00,0.0103
3419.00,0.0104
3418.00,0.0104
3417.00,0.0105
3416.00,0.0105
3415.00,0.0105
3414.00,0.0106
3413.00,0.0106
3412.00,0.0106
3411.00,0.0107
3410.00,0.0107
3409.00,0.0108
3408.00,0.0109
3407.00,0.0109
3406.00,0.0110
3405.00,0.0110
3404.00,0.0110
3403.00,0.0111
3402.00,0.0111
3401.00,0.0112
3400.00,0.0112
3399.00,0.0113
3398.00,0.0113
3397.00,0.0114
3396.00,0.0114
3395.00,0.0115
3394.00,0.0115
3393.00,0.0116
3392.00,0.0116
3391.00,0.0116
3390.00,0.0117
3389.00,0.0117
3388.00,0.0118
3387.00,0.0118
3386.00,0.0119
3385.00,0.0119
3384.00,0.0120
3383.00,0.0121
3382.00,0.0121
3381.00,0.0122
3380.00,0.0122
3379.00,0.0123
3378.00,0.0124
3377.00,0.0124
3376.00,0.0125
3375.00,0.0125
3374.00,0.0126
3373.00,0.0126
3372.00,0.0127
3371.00,0.0127
3370.00,0.0127
3369.00,0.0128
3368.00,0.0129
3367.00,0.0129
3366.00,0.0130
3365.00,0.0131
3364.00,0.0132
3363.00,0.0133
3362.00,0.0133
3361.00,0.0134
3360.00,0.0135
3359.00,0.0136
3358.00,0.0136
3357.00,0.0137
3356.00,0.0137
3355.00,0.0138
3354.00,0.0139
3353.00,0.0139
3352.00,0.0140
3351.00,0.0141
3350.00,0.0142
3349.00,0.0143
3348.00,0.0144
3347.00,0.0145
3346.00,0.0145
3345.00,0.0146
3344.00,0.0146
3343.00,0.0147
3342.00,0.0147
3341.00,0.0148
3340.00,0.0149
3339.00,0.0150
3338.00,0.0151
3337.00,0.0152
3336.00,0.0153
3335.00,0.0154
3334.00,0.0155
3333.00,0.0156
3332.00,0.0157
3331.00,0.0158
3330.00,0.0159
3329.00,0.0160
3328.00,0.0161
3327.00,0.0162
3326.00,0.0162
3325.00,0.0163
3324.00,0.0164
3323.00,0.0166
3322.00,0.0167
3321.00,0.0169
3320.00,0.0170
3319.00,0.0171
3318.00,0.0172
3317.00,0.0173
3316.00,0.0174
3315.00,0.0175
3314.00,0.0177
3313.00,0.0178
3312.00,0.0179
3311.00,0.0179
3310.00,0.0180
3309.00,0.0180
3308.00,0.0181
3307.00,0.0182
3306.00,0.0183
3305.00,0.0185
3304.00,0.0186
3303.00,0.0188
3302.00,0.0189
3301.00,0.0190
3300.00,0.0192
3299.00,0.0193
3298.00,0.0193
3297.00,0.0194
3296.00,0.0195
3295.00,0.0195
3294.00,0.0196
3293.00,0.0197
3292.00,0.0199
3291.00,0.0200
3290.00,0.0202
3289.00,0.0203
3288.00,0.0204
3287.00,0.0205
3286.00,0.0205
3285.00,0.0206
3284.00,0.0207
3283.00,0.0207
3282.00,0.0207
3281.00,0.0208
3280.00,0.0208
3279.00,0.0208
3278.00,0.0208
3277.00,0.0208
3276.00,0.0208
3275.00,0.0208
3274.00,0.0207
3273.00,0.0207
3272.00,0.0206
3271.00,0.0206
3270.00,0.0205
3269.00,0.0205
3268.00,0.0205
3267.00,0.0205
3266.00,0.0204
3265.00,0.0204
3264.00,0.0203
3263.00,0.0202
3262.00,0.0201
3261.00,0.0200
3260.00,0.0199
3259.00,0.0198
3258.00,0.0197
3257.00,0.0195
3256.00,0.0194
3255.00,0.0193
3254.00,0.0192
3253.00,0.0192
3252.00,0.0191
3251.00,0.0190
3250.00,0.0188
3249.00,0.0187
3248.00,0.0185
3247.00,0.0184
3246.00,0.0183
3245.00,0.0183
3244.00,0.0182
3243.00,0.0182
3242.00,0.0181
3241.00,0.0180
3240.00,0.0179
3239.00,0.0178
3238.00,0.0177
3237.00,0.0175
3236.00,0.0174
3235.00,0.0172
3234.00,0.0171
3233.00,0.0171
3232.00,0.0171
3231.00,0.0170
3230.00,0.0170
3229.00,0.0169
3228.00,0.0169
3227.00,0.0168
3226.00,0.0167
3225.00,0.0166
3224.00,0.0166
3223.00,0.0165
3222.00,0.0164
3221.00,0.0163
3220.00,0.0162
3219.00,0.0162
3218.00,0.0162
3217.00,0.0161
3216.00,0.0160
3215.00,0.0160
3214.00,0.0159
3213.00,0.0159
3212.00,0.0158
3211.00,0.0158
3210.00,0.0157
3209.00,0.0157
3208.00,0.0156
3207.00,0.0155
3206.00,0.0155
3205.00,0.0154
3204.00,0.0153
3203.00,0.0153
3202.00,0.0152
3201.00,0.0151
3200.00,0.0151
3199.00,0.0151
3198.00,0.0150
3197.00,0.0150
3196.00,0.0149
3195.00,0.0149
3194.00,0.0148
3193.00,0.0147
3192.00,0.0147
3191.00,0.0146
3190.00,0.0146
3189.00,0.0145
3188.00,0.0145
3187.00,0.0144
3186.00,0.0143
3185.00,0.0143
3184.00,0.0142
3183.00,0.0142
3182.00,0.0141
3181.00,0.0140
3180.00,0.0140
3179.00,0.0139
3178.00,0.0138
3177.00,0.0138
3176.00,0.0137
3175.00,0.0137
3174.00,0.0136
3173.00,0.0136
3172.00,0.0135
3171.00,0.0134
3170.00,0.0133
3169.00,0.0133
3168.00,0.0132
3167.00,0.0131
3166.00,0.0131
3165.00,0.0130
3164.00,0.0130
3163.00,0.0129
3162.00,0.0128
3161.00,0.0127
3160.00,0.0127
3159.00,0.0126
3158.00,0.0126
3157.00,0.0125
3156.00,0.0125
3155.00,0.0124
3154.00,0.0123
3153.00,0.0122
3152.00,0.0122
3151.00,0.0121
3150.00,0.0121
3149.00,0.0121
3148.00,0.0120
3147.00,0.0120
3146.00,0.0119
3145.00,0.0119
3144.00,0.0118
3143.00,0.0117
3142.00,0.0117
3141.00,0.0116
3140.00,0.0115
3139.00,0.0115
3138.00,0.0114
3137.00,0.0114
3136.00,0.0113
3135.00,0.0113
3134.00,0.0112
3133.00,0.0112
3132.00,0.0111
3131.00,0.0111
3130.00,0.0111
3129.00,0.0110
3128.00,0.0110
3127.00,0.0110
3126.00,0.0110
3125.00,0.0109
3124.00,0.0109
3123.00,0.0108
3122.00,0.0107
3121.00,0.0107
3120.00,0.0106
3119.00,0.0106
3118.00,0.0106
3117.00,0.0106
3116.00,0.0107
3115.00,0.0107
3114.00,0.0107
3113.00,0.0107
3112.00,0.0107
3111.00,0.0107
3110.00,0.0106
3109.00,0.0106
3108.00,0.0106
3107.00,0.0107
3106.00,0.0107
3105.00,0.0107
3104.00,0.0107
3103.00,0.0107
3102.00,0.0107
3101.00,0.0107
3100.00,0.0107
3099.00,0.0107
3098.00,0.0108
3097.00,0.0108
3096.00,0.0108
3095.00,0.0109
3094.00,0.0109
3093.00,0.0109
3092.00,0.0108
3091.00,0.0108
3090.00,0.0109
3089.00,0.0109
3088.00,0.0109
3087.00,0.0109
3086.00,0.0109
3085.00,0.0109
3084.00,0.0109
3083.00,0.0109
3082.00,0.0109
3081.00,0.0110
3080.00,0.0110
3079.00,0.0110
3078.00,0.0110
3077.00,0.0110
3076.00,0.0111
3075.00,0.0111
3074.00,0.0111
3073.00,0.0111
3072.00,0.0111
3071.00,0.0111
3070.00,0.0111
3069.00,0.0111
3068.00,0.0111
3067.00,0.0111
3066.00,0.0111
3065.00,0.0111
3064.00,0.0111
3063.00,0.0111
3062.00,0.0111
3061.00,0.0111
3060.00,0.0110
3059.00,0.0110
3058.00,0.0109
3057.00,0.0109
3056.00,0.0109
3055.00,0.0108
3054.00,0.0108
3053.00,0.0108
3052.00,0.0107
3051.00,0.0107
3050.00,0.0107
3049.00,0.0106
3048.00,0.0106
3047.00,0.0105
3046.00,0.0104
3045.00,0.0103
3044.00,0.0103
3043.00,0.0102
3042.00,0.0102
3041.00,0.0102
3040.00,0.0102
3039.00,0.0102
3038.00,0.0101
3037.00,0.0101
3036.00,0.0100
3035.00,0.0099
3034.00,0.0099
3033.00,0.0099
3032.00,0.0099
3031.00,0.0099
3030.00,0.0098
3029.00,0.0098
3028.00,0.0097
3027.00,0.0096
3026.00,0.0096
3025.00,0.0095
3024.00,0.0095
3023.00,0.0095
3022.00,0.0095
3021.00,0.0094
3020.00,0.0093
3019.00,0.0092
3018.00,0.0092
3017.00,0.0091
3016.00,0.0090
3015.00,0.0089
3014.00,0.0089
3013.00,0.0088
3012.00,0.0088
3011.00,0.0088
3010.00,0.0088
3009.00,0.0088
3008.00,0.0088
3007.00,0.0087
3006.00,0.0087
3005.00,0.0087
3004.00,0.0087
3003.00,0.0087
3002.00,0.0086
3001.00,0.0086
3000.00,0.0085
2999.00,0.0085
2998.00,0.0085
2997.00,0.0085
2996.00,0.0085
2995.00,0.0086
2994.00,0.0086
2993.00,0.0086
2992.00,0.0087
2991.00,0.0087
2990.00,0.0088
2989.00,0.0088
2988.00,0.0089
2987.00,0.0090
2986.00,0.0090
2985.00,0.0091
2984.00,0.0091
2983.00,0.0091
2982.00,0.0092
2981.00,0.0093
2980.00,0.0094
2979.00,0.0095
2978.00,0.0096
2977.00,0.0098
2976.00,0.0099
2975.00,0.0100
2974.00,0.0102
2973.00,0.0103
2972.00,0.0104
2971.00,0.0105
2970.00,0.0106
2969.00,0.0108
2968.00,0.0109
2967.00,0.0110
2966.00,0.0111
2965.00,0.0111
2964.00,0.0111
2963.00,0.0112
2962.00,0.0112
2961.00,0.0112
2960.00,0.0112
2959.00,0.0111
2958.00,0.0111
2957.00,0.0110
2956.00,0.0110
2955.00,0.0109
2954.00,0.0108
2953.00,0.0107
2952.00,0.0106
2951.00,0.0106
2950.00,0.0105
2949.00,0.0105
2948.00,0.0104
2947.00,0.0104
2946.00,0.0105
2945.00,0.0105
2944.00,0.0106
2943.00,0.0106
2942.00,0.0107
2941.00,0.0108
2940.00,0.0109
2939.00,0.0109
2938.00,0.0110
2937.00,0.0110
2936.00,0.0111
2935.00,0.0111
2934.00,0.0111
2933.00,0.0111
2932.00,0.0111
2931.00,0.0110
2930.00,0.0110
2929.00,0.0110
2928.00,0.0110
2927.00,0.0109
2926.00,0.0109
2925.00,0.0108
2924.00,0.0107
2923.00,0.0106
2922.00,0.0105
2921.00,0.0103
2920.00,0.0102
2919.00,0.0100
2918.00,0.0098
2917.00,0.0097
2916.00,0.0096
2915.00,0.0095
2914.00,0.0095
2913.00,0.0095
2912.00,0.0095
2911.00,0.0095
2910.00,0.0095
2909.00,0.0094
2908.00,0.0094
2907.00,0.0093
2906.00,0.0093
2905.00,0.0092
2904.00,0.0091
2903.00,0.0091
2902.00,0.0090
2901.00,0.0090
2900.00,0.0089
2899.00,0.0089
2898.00,0.0088
2897.00,0.0088
2896.00,0.0087
2895.00,0.0087
2894.00,0.0086
2893.00,0.0086
2892.00,0.0085
2891.00,0.0085
2890.00,0.0085
2889.00,0.0085
2888.00,0.0085
2887.00,0.0085
2886.00,0.0085
2885.00,0.0085
2884.00,0.0086
2883.00,0.0086
2882.00,0.0087
2881.00,0.0087
2880.00,0.0088
2879.00,0.0088
2878.00,0.0089
2877.00,0.0089
2876.00,0.0089
2875.00,0.0089
2874.00,0.0089
2873.00,0.0088
2872.00,0.0088
2871.00,0.0088
2870.00,0.0087
2869.00,0.0086
2868.00,0.0085
2867.00,0.0084
2866.00,0.0083
2865.00,0.0082
2864.00,0.0081
2863.00,0.0081
2862.00,0.0080
2861.00,0.0080
2860.00,0.0079
2859.00,0.0079
2858.00,0.0078
2857.00,0.0078
2856.00,0.0078
2855.00,0.0078
2854.00,0.0077
2853.00,0.0076
2852.00,0.0075
2851.00,0.0073
2850.00,0.0072
2849.00,0.0071
2848.00,0.0070
2847.00,0.0070
2846.00,0.0070
2845.00,0.0070
2844.00,0.0070
2843.00,0.0069
2842.00,0.0069
2841.00,0.0069
2840.00,0.0068
2839.00,0.0068
2838.00,0.0068
2837.00,0.0068
2836.00,0.0067
2835.00,0.0067
2834.00,0.0067
2833.00,0.0066
2832.00,0.0066
2831.00,0.0066
2830.00,0.0066
2829.00,0.0066
2828.00,0.0065
2827.00,0.0065
2826.00,0.0065
2825.00,0.0064
2824.00,0.0064
2823.00,0.0064
2822.00,0.0064
2821.00,0.0064
2820.00,0.0063
2819.00,0.0063
2818.00,0.0063
2817.00,0.0063
2816.00,0.0063
2815.00,0.0063
2814.00,0.0063
2813.00,0.0063
2812.00,0.0062
2811.00,0.0062
2810.00,0.0062
2809.00,0.0062
2808.00,0.0062
2807.00,0.0062
2806.00,0.0061
2805.00,0.0061
2804.00,0.0061
2803.00,0.0061
2802.00,0.0061
2801.00,0.0060
2800.00,0.0060
2799.00,0.0060
2798.00,0.0060
2797.00,0.0059
2796.00,0.0059
2795.00,0.0059
2794.00,0.0059
2793.00,0.0059
2792.00,0.0058
2791.00,0.0058
2790.00,0.0058
2789.00,0.0058
2788.00,0.0058
2787.00,0.0058
2786.00,0.0058
2785.00,0.0057
2784.00,0.0057
2783.00,0.0057
2782.00,0.0057
2781.00,0.0057
2780.00,0.0056
2779.00,0.0056
2778.00,0.0056
2777.00,0.0056
2776.00,0.0056
2775.00,0.0055
2774.00,0.0055
2773.00,0.0055
2772.00,0.0055
2771.00,0.0054
2770.00,0.0054
2769.00,0.0054
2768.00,0.0054
2767.00,0.0054
2766.00,0.0054
2765.00,0.0054
2764.00,0.0054
2763.00,0.0054
2762.00,0.0054
2761.00,0.0053
2760.00,0.0053
2759.00,0.0053
2758.00,0.0052
2757.00,0.0052
2756.00,0.0052
2755.00,0.0052
2754.00,0.0052
2753.00,0.0052
2752.00,0.0052
2751.00,0.0052
2750.00,0.0051
2749.00,0.0051
2748.00,0.0051
2747.00,0.0051
2746.00,0.0051
2745.00,0.0051
2744.00,0.0051
2743.00,0.0051
2742.00,0.0050
2741.00,0.0050
2740.00,0.0050
2739.00,0.0050
2738.00,0.0050
2737.00,0.0049
2736.00,0.0049
2735.00,0.0049
2734.00,0.0049
2733.00,0.0049
2732.00,0.0049
2731.00,0.0049
2730.00,0.0049
2729.00,0.0048
2728.00,0.0048
2727.00,0.0048
2726.00,0.0048
2725.00,0.0047
2724.00,0.0047
2723.00,0.0047
2722.00,0.0047
2721.00,0.0047
2720.00,0.0047
2719.00,0.0046
2718.00,0.0046
2717.00,0.0046
2716.00,0.0046
2715.00,0.0046
2714.00,0.0046
2713.00,0.0045
2712.00,0.0045
2711.00,0.0045
2710.00,0.0045
2709.00,0.0045
2708.00,0.0045
2707.00,0.0045
2706.00,0.0044
2705.00,0.0044
2704.00,0.0044
2703.00,0.0044
2702.00,0.0044
2701.00,0.0044
2700.00,0.0044
2699.00,0.0044
2698.00,0.0044
2697.00,0.0044
2696.00,0.0044
2695.00,0.0044
2694.00,0.0044
2693.00,0.0044
2692.00,0.0044
2691.00,0.0043
2690.00,0.0043
2689.00,0.0043
2688.00,0.0043
2687.00,0.0043
2686.00,0.0043
2685.00,0.0043
2684.00,0.0043
2683.00,0.0043
2682.00,0.0043
2681.00,0.0043
2680.00,0.0043
2679.00,0.0043
2678.00,0.0043
2677.00,0.0043
2676.00,0.0043
2675.00,0.0043
2674.00,0.0043
2673.00,0.0043
2672.00,0.0043
2671.00,0.0043
2670.00,0.0043
2669.00,0.0042
2668.00,0.0043
2667.00,0.0043
2666.00,0.0043
2665.00,0.0044
2664.00,0.0044
2663.00,0.0045
2662.00,0.0045
2661.00,0.0045
2660.00,0.0045
2659.00,0.0046
2658.00,0.0046
2657.00,0.0046
2656.00,0.0046
2655.00,0.0046
2654.00,0.0046
2653.00,0.0046
2652.00,0.0046
2651.00,0.0046
2650.00,0.0046
2649.00,0.0046
2648.00,0.0046
2647.00,0.0046
2646.00,0.0046
2645.00,0.0046
2644.00,0.0046
2643.00,0.0046
2642.00,0.0046
2641.00,0.0046
2640.00,0.0046
2639.00,0.0046
2638.00,0.0045
2637.00,0.0045
2636.00,0.0045
2635.00,0.0045
2634.00,0.0045
2633.00,0.0045
2632.00,0.0044
2631.00,0.0045
2630.00,0.0045
2629.00,0.0045
2628.00,0.0045
2627.00,0.0045
2626.00,0.0044
2625.00,0.0044
2624.00,0.0044
2623.00,0.0045
2622.00,0.0045
2621.00,0.0044
2620.00,0.0044
2619.00,0.0044
2618.00,0.0043
2617.00,0.0043
2616.00,0.0043
2615.00,0.0043
2614.00,0.0043
2613.00,0.0043
2612.00,0.0043
2611.00,0.0043
2610.00,0.0043
2609.00,0.0043
2608.00,0.0042
2607.00,0.0042
2606.00,0.0042
2605.00,0.0042
2604.00,0.0042
2603.00,0.0042
2602.00,0.0042
2601.00,0.0042
2600.00,0.0041
2599.00,0.0041
2598.00,0.0041
2597.00,0.0040
2596.00,0.0040
2595.00,0.0041
2594.00,0.0041
2593.00,0.0041
2592.00,0.0041
2591.00,0.0041
2590.00,0.0040
2589.00,0.0040
2588.00,0.0040
2587.00,0.0040
2586.00,0.0040
2585.00,0.0039
2584.00,0.0039
2583.00,0.0039
2582.00,0.0038
2581.00,0.0038
2580.00,0.0038
2579.00,0.0038
2578.00,0.0038
2577.00,0.0038
2576.00,0.0038
2575.00,0.0038
2574.00,0.0038
2573.00,0.0038
2572.00,0.0038
2571.00,0.0038
2570.00,0.0038
2569.00,0.0037
2568.00,0.0037
2567.00,0.0037
2566.00,0.0037
2565.00,0.0037
2564.00,0.0037
2563.00,0.0037
2562.00,0.0037
2561.00,0.0037
2560.00,0.0037
2559.00,0.0037
2558.00,0.0037
2557.00,0.0037
2556.00,0.0037
2555.00,0.0037
2554.00,0.0036
2553.00,0.0036
2552.00,0.0036
2551.00,0.0036
2550.00,0.0036
2549.00,0.0035
2548.00,0.0035
2547.00,0.0035
2546.00,0.0034
2545.00,0.0034
2544.00,0.0034
2543.00,0.0034
2542.00,0.0034
2541.00,0.0035
2540.00,0.0035
2539.00,0.0035
2538.00,0.0034
2537.00,0.0034
2536.00,0.0034
2535.00,0.0034
2534.00,0.0033
2533.00,0.0034
2532.00,0.0034
2531.00,0.0034
2530.00,0.0034
2529.00,0.0034
2528.00,0.0034
2527.00,0.0034
2526.00,0.0034
2525.00,0.0033
2524.00,0.0033
2523.00,0.0033
2522.00,0.0033
2521.00,0.0034
2520.00,0.0034
2519.00,0.0034
2518.00,0.0033
2517.00,0.0033
2516.00,0.0032
2515.00,0.0032
2514.00,0.0032
2513.00,0.0032
2512.00,0.0032
2511.00,0.0032
2510.00,0.0032
2509.00,0.0033
2508.00,0.0033
2507.00,0.0032
2506.00,0.0032
2505.00,0.0032
2504.00,0.0032
2503.00,0.0032
2502.00,0.0032
2501.00,0.0032
2500.00,0.0032
2499.00,0.0032
2498.00,0.0032
2497.00,0.0032
2496.00,0.0032
2495.00,0.0032
2494.00,0.0032
2493.00,0.0031
2492.00,0.0031
2491.00,0.0032
2490.00,0.0032
2489.00,0.0032
2488.00,0.0032
2487.00,0.0031
2486.00,0.0031
2485.00,0.0031
2484.00,0.0030
2483.00,0.0030
2482.00,0.0030
2481.00,0.0030
2480.00,0.0031
2479.00,0.0031
2478.00,0.0031
2477.00,0.0031
2476.00,0.0031
2475.00,0.0031
2474.00,0.0030
2473.00,0.0030
2472.00,0.0030
2471.00,0.0029
2470.00,0.0029
2469.00,0.0029
2468.00,0.0029
2467.00,0.0029
2466.00,0.0029
2465.00,0.0029
2464.00,0.0029
2463.00,0.0029
2462.00,0.0029
2461.00,0.0029
2460.00,0.0030
2459.00,0.0030
2458.00,0.0030
2457.00,0.0030
2456.00,0.0030
2455.00,0.0030
2454.00,0.0030
2453.00,0.0029
2452.00,0.0029
2451.00,0.0029
2450.00,0.0029
2449.00,0.0029
2448.00,0.0029
2447.00,0.0029
2446.00,0.0029
2445.00,0.0028
2444.00,0.0028
2443.00,0.0028
2442.00,0.0028
2441.00,0.0028
2440.00,0.0028
2439.00,0.0028
2438.00,0.0028
2437.00,0.0028
2436.00,0.0027
2435.00,0.0027
2434.00,0.0027
2433.00,0.0027
2432.00,0.0027
2431.00,0.0027
2430.00,0.0027
2429.00,0.0027
2428.00,0.0027
2427.00,0.0027
2426.00,0.0027
2425.00,0.0027
2424.00,0.0026
2423.00,0.0026
2422.00,0.0025
2421.00,0.0025
2420.00,0.0025
2419.00,0.0025
2418.00,0.0025
2417.00,0.0025
2416.00,0.0025
2415.00,0.0025
2414.00,0.0025
2413.00,0.0025
2412.00,0.0025
2411.00,0.0025
2410.00,0.0025
2409.00,0.0025
2408.00,0.0025
2407.00,0.0024
2406.00,0.0024
2405.00,0.0024
2404.00,0.0024
2403.00,0.0024
2402.00,0.0023
2401.00,0.0023
2400.00,0.0023
2399.00,0.0023
2398.00,0.0023
2397.00,0.0022
2396.00,0.0022
2395.00,0.0022
2394.00,0.0022
2393.00,0.0022
2392.00,0.0022
2391.00,0.0022
2390.00,0.0022
2389.00,0.0022
2388.00,0.0022
2387.00,0.0021
2386.00,0.0021
2385.00,0.0021
2384.00,0.0020
2383.00,0.0020
2382.00,0.0019
2381.00,0.0019
2380.00,0.0019
2379.00,0.0018
2378.00,0.0019
2377.00,0.0019
2376.00,0.0019
2375.00,0.0019
2374.00,0.0019
2373.00,0.0018
2372.00,0.0018
2371.00,0.0018
2370.00,0.0018
2369.00,0.0018
2368.00,0.0018
2367.00,0.0018
2366.00,0.0018
2365.00,0.0018
2364.00,0.0017
2363.00,0.0018
2362.00,0.0018
2361.00,0.0018
2360.00,0.0019
2359.00,0.0019
2358.00,0.0019
2357.00,0.0018
2356.00,0.0018
2355.00,0.0019
2354.00,0.0018
2353.00,0.0018
2352.00,0.0018
2351.00,0.0018
2350.00,0.0018
2349.00,0.0019
2348.00,0.0019
2347.00,0.0020
2346.00,0.0020
2345.00,0.0020
2344.00,0.0020
2343.00,0.0020
2342.00,0.0020
2341.00,0.0020
2340.00,0.0021
2339.00,0.0021
2338.00,0.0021
2337.00,0.0021
2336.00,0.0021
2335.00,0.0021
2334.00,0.0021
2333.00,0.0021
2332.00,0.0021
2331.00,0.0021
2330.00,0.0021
2329.00,0.0022
2328.00,0.0025
2327.00,0.0028
2326.00,0.0031
2325.00,0.0032
2324.00,0.0032
2323.00,0.0030
2322.00,0.0029
2321.00,0.0028
2320.00,0.0027
2319.00,0.0026
2318.00,0.0025
2317.00,0.0025
2316.00,0.0025
2315.00,0.0024
2314.00,0.0024
2313.00,0.0024
2312.00,0.0024
2311.00,0.0023
2310.00,0.0023
2309.00,0.0023
2308.00,0.0023
2307.00,0.0023
2306.00,0.0023
2305.00,0.0024
2304.00,0.0024
2303.00,0.0024
2302.00,0.0024
2301.00,0.0024
2300.00,0.0025
2299.00,0.0025
2298.00,0.0026
2297.00,0.0026
2296.00,0.0027
2295.00,0.0027
2294.00,0.0028
2293.00,0.0029
2292.00,0.0029
2291.00,0.0030
2290.00,0.0031
2289.00,0.0031
2288.00,0.0032
2287.00,0.0032
2286.00,0.0032
2285.00,0.0032
2284.00,0.0031
2283.00,0.0030
2282.00,0.0030
2281.00,0.0029
2280.00,0.0029
2279.00,0.0029
2278.00,0.0029
2277.00,0.0029
2276.00,0.0029
2275.00,0.0029
2274.00,0.0028
2273.00,0.0028
2272.00,0.0027
2271.00,0.0027
2270.00,0.0027
2269.00,0.0027
2268.00,0.0027
2267.00,0.0026
2266.00,0.0026
2265.00,0.0026
2264.00,0.0026
2263.00,0.0026
2262.00,0.0026
2261.00,0.0026
2260.00,0.0026
2259.00,0.0025
2258.00,0.0023
2257.00,0.0022
2256.00,0.0021
2255.00,0.0021
2254.00,0.0021
2253.00,0.0022
2252.00,0.0023
2251.00,0.0023
2250.00,0.0024
2249.00,0.0024
2248.00,0.0025
2247.00,0.0025
2246.00,0.0026
2245.00,0.0026
2244.00,0.0025
2243.00,0.0024
2242.00,0.0024
2241.00,0.0024
2240.00,0.0024
2239.00,0.0024
2238.00,0.0025
2237.00,0.0025
2236.00,0.0025
2235.00,0.0025
2234.00,0.0025
2233.00,0.0025
2232.00,0.0024
2231.00,0.0023
2230.00,0.0023
2229.00,0.0023
2228.00,0.0023
2227.00,0.0023
2226.00,0.0023
2225.00,0.0023
2224.00,0.0024
2223.00,0.0024
2222.00,0.0024
2221.00,0.0024
2220.00,0.0023
2219.00,0.0023
2218.00,0.0022
2217.00,0.0022
2216.00,0.0022
2215.00,0.0023
2214.00,0.0024
2213.00,0.0024
2212.00,0.0023
2211.00,0.0023
2210.00,0.0023
2209.00,0.0023
2208.00,0.0023
2207.00,0.0023
2206.00,0.0023
2205.00,0.0023
2204.00,0.0024
2203.00,0.0024
2202.00,0.0025
2201.00,0.0025
2200.00,0.0025
2199.00,0.0026
2198.00,0.0026
2197.00,0.0026
2196.00,0.0026
2195.00,0.0026
2194.00,0.0026
2193.00,0.0026
2192.00,0.0026
2191.00,0.0026
2190.00,0.0026
2189.00,0.0026
2188.00,0.0026
2187.00,0.0025
2186.00,0.0024
2185.00,0.0024
2184.00,0.0022
2183.00,0.0021
2182.00,0.0019
2181.00,0.0019
2180.00,0.0019
2179.00,0.0021
2178.00,0.0021
2177.00,0.0020
2176.00,0.0019
2175.00,0.0018
2174.00,0.0019
2173.00,0.0021
2172.00,0.0023
2171.00,0.0025
2170.00,0.0027
2169.00,0.0029
2168.00,0.0030
2167.00,0.0030
2166.00,0.0031
2165.00,0.0031
2164.00,0.0032
2163.00,0.0031
2162.00,0.0027
2161.00,0.0020
2160.00,0.0010
2159.00,0.0001
2158.00,-0.0003
2157.00,-0.0003
2156.00,-0.0001
2155.00,0.0002
2154.00,0.0005
2153.00,0.0007
2152.00,0.0008
2151.00,0.0010
2150.00,0.0010
2149.00,0.0011
2148.00,0.0010
2147.00,0.0009
2146.00,0.0007
2145.00,0.0007
2144.00,0.0007
2143.00,0.0007
2142.00,0.0008
2141.00,0.0009
2140.00,0.0010
2139.00,0.0011
2138.00,0.0010
2137.00,0.0009
2136.00,0.0008
2135.00,0.0006
2134.00,0.0005
2133.00,0.0006
2132.00,0.0008
2131.00,0.0009
2130.00,0.0011
2129.00,0.0012
2128.00,0.0013
2127.00,0.0014
2126.00,0.0014
2125.00,0.0015
2124.00,0.0016
2123.00,0.0017
2122.00,0.0018
2121.00,0.0019
2120.00,0.0019
2119.00,0.0020
2118.00,0.0020
2117.00,0.0021
2116.00,0.0022
2115.00,0.0021
2114.00,0.0021
2113.00,0.0022
2112.00,0.0022
2111.00,0.0022
2110.00,0.0022
2109.00,0.0021
2108.00,0.0021
2107.00,0.0020
2106.00,0.0020
2105.00,0.0020
2104.00,0.0020
2103.00,0.0020
2102.00,0.0020
2101.00,0.0021
2100.00,0.0021
2099.00,0.0021
2098.00,0.0021
2097.00,0.0020
2096.00,0.0019
2095.00,0.0018
2094.00,0.0017
2093.00,0.0017
2092.00,0.0018
2091.00,0.0019
2090.00,0.0019
2089.00,0.0020
2088.00,0.0020
2087.00,0.0021
2086.00,0.0021
2085.00,0.0021
2084.00,0.0022
2083.00,0.0023
2082.00,0.0023
2081.00,0.0024
2080.00,0.0025
2079.00,0.0024
2078.00,0.0024
2077.00,0.0023
2076.00,0.0022
2075.00,0.0022
2074.00,0.0022
2073.00,0.0022
2072.00,0.0022
2071.00,0.0022
2070.00,0.0022
2069.00,0.0022
2068.00,0.0022
2067.00,0.0022
2066.00,0.0022
2065.00,0.0021
2064.00,0.0021
2063.00,0.0021
2062.00,0.0021
2061.00,0.0020
2060.00,0.0020
2059.00,0.0020
2058.00,0.0020
2057.00,0.0020
2056.00,0.0019
2055.00,0.0019
2054.00,0.0021
2053.00,0.0024
2052.00,0.0027
2051.00,0.0029
2050.00,0.0028
2049.00,0.0026
2048.00,0.0024
2047.00,0.0022
2046.00,0.0021
2045.00,0.0021
2044.00,0.0022
2043.00,0.0023
2042.00,0.0023
2041.00,0.0022
2040.00,0.0022
2039.00,0.0022
2038.00,0.0022
2037.00,0.0021
2036.00,0.0020
2035.00,0.0019
2034.00,0.0018
2033.00,0.0017
2032.00,0.0017
2031.00,0.0017
2030.00,0.0016
2029.00,0.0015
2028.00,0.0015
2027.00,0.0015
2026.00,0.0016
2025.00,0.0016
2024.00,0.0015
2023.00,0.0015
2022.00,0.0014
2021.00,0.0014
2020.00,0.0015
2019.00,0.0016
2018.00,0.0017
2017.00,0.0016
2016.00,0.0015
2015.00,0.0014
2014.00,0.0014
2013.00,0.0015
2012.00,0.0015
2011.00,0.0015
2010.00,0.0014
2009.00,0.0011
2008.00,0.0009
2007.00,0.0007
2006.00,0.0007
2005.00,0.0008
2004.00,0.0010
2003.00,0.0011
2002.00,0.0012
2001.00,0.0012
2000.00,0.0013
1999.00,0.0014
1998.00,0.0015
1997.00,0.0016
1996.00,0.0016
1995.00,0.0016
1994.00,0.0016
1993.00,0.0016
1992.00,0.0017
1991.00,0.0018
1990.00,0.0019
1989.00,0.0020
1988.00,0.0020
1987.00,0.0022
1986.00,0.0023
1985.00,0.0025
1984.00,0.0028
1983.00,0.0030
1982.00,0.0031
1981.00,0.0031
1980.00,0.0028
1979.00,0.0023
1978.00,0.0016
1977.00,0.0010
1976.00,0.0007
1975.00,0.0007
1974.00,0.0007
1973.00,0.0008
1972.00,0.0009
1971.00,0.0009
1970.00,0.0009
1969.00,0.0008
1968.00,0.0007
1967.00,0.0007
1966.00,0.0008
1965.00,0.0008
1964.00,0.0007
1963.00,0.0006
1962.00,0.0004
1961.00,0.0003
1960.00,0.0003
1959.00,0.0003
1958.00,0.0004
1957.00,0.0006
1956.00,0.0008
1955.00,0.0010
1954.00,0.0011
1953.00,0.0011
1952.00,0.0012
1951.00,0.0012
1950.00,0.0012
1949.00,0.0012
1948.00,0.0011
1947.00,0.0010
1946.00,0.0010
1945.00,0.0011
1944.00,0.0012
1943.00,0.0013
1942.00,0.0014
1941.00,0.0013
1940.00,0.0013
1939.00,0.0012
1938.00,0.0012
1937.00,0.0012
1936.00,0.0012
1935.00,0.0012
1934.00,0.0012
1933.00,0.0012
1932.00,0.0012
1931.00,0.0012
1930.00,0.0012
1929.00,0.0012
1928.00,0.0012
1927.00,0.0012
1926.00,0.0013
1925.00,0.0014
1924.00,0.0014
1923.00,0.0014
1922.00,0.0015
1921.00,0.0015
1920.00,0.0015
1919.00,0.0015
1918.00,0.0015
1917.00,0.0015
1916.00,0.0015
1915.00,0.0016
1914.00,0.0016
1913.00,0.0016
1912.00,0.0016
1911.00,0.0016
1910.00,0.0016
1909.00,0.0016
1908.00,0.0016
1907.00,0.0015
1906.00,0.0015
1905.00,0.0014
1904.00,0.0014
1903.00,0.0015
1902.00,0.0015
1901.00,0.0016
1900.00,0.0016
1899.00,0.0016
1898.00,0.0016
1897.00,0.0015
1896.00,0.0015
1895.00,0.0015
1894.00,0.0016
1893.00,0.0016
1892.00,0.0016
1891.00,0.0016
1890.00,0.0016
1889.00,0.0016
1888.00,0.0016
1887.00,0.0016
1886.00,0.0016
1885.00,0.0016
1884.00,0.0016
1883.00,0.0016
1882.00,0.0016
1881.00,0.0016
1880.00,0.0016
1879.00,0.0016
1878.00,0.0015
1877.00,0.0015
1876.00,0.0015
1875.00,0.0015
1874.00,0.0015
1873.00,0.0015
1872.00,0.0015
1871.00,0.0015
1870.00,0.0015
1869.00,0.0015
1868.00,0.0016
1867.00,0.0016
1866.00,0.0016
1865.00,0.0015
1864.00,0.0016
1863.00,0.0016
1862.00,0.0016
1861.00,0.0016
1860.00,0.0016
1859.00,0.0016
1858.00,0.0015
1857.00,0.0015
1856.00,0.0015
1855.00,0.0016
1854.00,0.0016
1853.00,0.0016
1852.00,0.0016
1851.00,0.0016
1850.00,0.0016
1849.00,0.0016
1848.00,0.0016
1847.00,0.0015
1846.00,0.0015
1845.00,0.0015
1844.00,0.0015
1843.00,0.0016
1842.00,0.0016
1841.00,0.0016
1840.00,0.0016
1839.00,0.0016
1838.00,0.0016
1837.00,0.0016
1836.00,0.0016
1835.00,0.0016
1834.00,0.0016
1833.00,0.0016
1832.00,0.0016
1831.00,0.0016
1830.00,0.0016
1829.00,0.0016
1828.00,0.0016
1827.00,0.0016
1826.00,0.0016
1825.00,0.0016
1824.00,0.0017
1823.00,0.0017
1822.00,0.0017
1821.00,0.0017
1820.00,0.0016
1819.00,0.0016
1818.00,0.0015
1817.00,0.0014
1816.00,0.0014
1815.00,0.0015
1814.00,0.0016
1813.00,0.0016
1812.00,0.0017
1811.00,0.0017
1810.00,0.0017
1809.00,0.0017
1808.00,0.0017
1807.00,0.0017
1806.00,0.0018
1805.00,0.0018
1804.00,0.0018
1803.00,0.0018
1802.00,0.0018
1801.00,0.0018
1800.00,0.0018
1799.00,0.0018
1798.00,0.0018
1797.00,0.0019
1796.00,0.0019
1795.00,0.0019
1794.00,0.0019
1793.00,0.0019
1792.00,0.0019
1791.00,0.0019
1790.00,0.0019
1789.00,0.0019
1788.00,0.0020
1787.00,0.0020
1786.00,0.0021
1785.00,0.0021
1784.00,0.0021
1783.00,0.0021
1782.00,0.0020
1781.00,0.0020
1780.00,0.0020
1779.00,0.0020
1778.00,0.0020
1777.00,0.0020
1776.00,0.0020
1775.00,0.0021
1774.00,0.0021
1773.00,0.0021
1772.00,0.0022
1771.00,0.0022
1770.00,0.0022
1769.00,0.0022
1768.00,0.0023
1767.00,0.0023
1766.00,0.0023
1765.00,0.0024
1764.00,0.0024
1763.00,0.0024
1762.00,0.0025
1761.00,0.0026
1760.00,0.0027
1759.00,0.0028
1758.00,0.0029
1757.00,0.0030
1756.00,0.0031
1755.00,0.0032
1754.00,0.0033
1753.00,0.0035
1752.00,0.0036
1751.00,0.0038
1750.00,0.0039
1749.00,0.0040
1748.00,0.0041
1747.00,0.0043
1746.00,0.0045
1745.00,0.0047
1744.00,0.0049
1743.00,0.0052
1742.00,0.0054
1741.00,0.0057
1740.00,0.0060
1739.00,0.0064
1738.00,0.0067
1737.00,0.0070
1736.00,0.0073
1735.00,0.0076
1734.00,0.0080
1733.00,0.0083
1732.00,0.0085
1731.00,0.0086
1730.00,0.0087
1729.00,0.0089
1728.00,0.0090
1727.00,0.0091
1726.00,0.0092
1725.00,0.0093
1724.00,0.0094
1723.00,0.0095
1722.00,0.0095
1721.00,0.0096
1720.00,0.0096
1719.00,0.0097
1718.00,0.0097
1717.00,0.0097
1716.00,0.0098
1715.00,0.0098
1714.00,0.0097
1713.00,0.0097
1712.00,0.0097
1711.00,0.0097
1710.00,0.0098
1709.00,0.0099
1708.00,0.0100
1707.00,0.0101
1706.00,0.0103
1705.00,0.0106
1704.00,0.0109
1703.00,0.0112
1702.00,0.0117
1701.00,0.0124
1700.00,0.0132
1699.00,0.0139
1698.00,0.0144
1697.00,0.0149
1696.00,0.0155
1695.00,0.0161
1694.00,0.0165
1693.00,0.0167
1692.00,0.0170
1691.00,0.0174
1690.00,0.0178
1689.00,0.0183
1688.00,0.0187
1687.00,0.0192
1686.00,0.0198
1685.00,0.0205
1684.00,0.0214
1683.00,0.0220
1682.00,0.0224
1681.00,0.0227
1680.00,0.0232
1679.00,0.0238
1678.00,0.0243
1677.00,0.0248
1676.00,0.0255
1675.00,0.0261
1674.00,0.0267
1673.00,0.0272
1672.00,0.0277
1671.00,0.0282
1670.00,0.0289
1669.00,0.0296
1668.00,0.0303
1667.00,0.0308
1666.00,0.0314
1665.00,0.0320
1664.00,0.0327
1663.00,0.0335
1662.00,0.0342
1661.00,0.0349
1660.00,0.0356
1659.00,0.0363
1658.00,0.0369
1657.00,0.0376
1656.00,0.0382
1655.00,0.0389
1654.00,0.0398
1653.00,0.0407
1652.00,0.0413
1651.00,0.0415
1650.00,0.0416
1649.00,0.0416
1648.00,0.0419
1647.00,0.0422
1646.00,0.0424
1645.00,0.0425
1644.00,0.0425
1643.00,0.0426
1642.00,0.0426
1641.00,0.0427
1640.00,0.0428
1639.00,0.0430
1638.00,0.0431
1637.00,0.0433
1636.00,0.0436
1635.00,0.0439
1634.00,0.0442
1633.00,0.0443
1632.00,0.0446
1631.00,0.0448
1630.00,0.0452
1629.00,0.0455
1628.00,0.0458
1627.00,0.0460
1626.00,0.0462
1625.00,0.0463
1624.00,0.0463
1623.00,0.0462
1622.00,0.0459
1621.00,0.0454
1620.00,0.0450
1619.00,0.0446
1618.00,0.0441
1617.00,0.0433
1616.00,0.0424
1615.00,0.0414
1614.00,0.0405
1613.00,0.0395
1612.00,0.0385
1611.00,0.0375
1610.00,0.0364
1609.00,0.0353
1608.00,0.0342
1607.00,0.0332
1606.00,0.0322
1605.00,0.0313
1604.00,0.0305
1603.00,0.0296
1602.00,0.0289
1601.00,0.0281
1600.00,0.0274
1599.00,0.0268
1598.00,0.0262
1597.00,0.0256
1596.00,0.0251
1595.00,0.0246
1594.00,0.0241
1593.00,0.0237
1592.00,0.0232
1591.00,0.0228
1590.00,0.0224
1589.00,0.0221
1588.00,0.0217
1587.00,0.0215
1586.00,0.0213
1585.00,0.0211
1584.00,0.0209
1583.00,0.0208
1582.00,0.0207
1581.00,0.0206
1580.00,0.0205
1579.00,0.0205
1578.00,0.0206
1577.00,0.0209
1576.00,0.0211
1575.00,0.0213
1574.00,0.0215
1573.00,0.0216
1572.00,0.0217
1571.00,0.0219
1570.00,0.0223
1569.00,0.0227
1568.00,0.0231
1567.00,0.0235
1566.00,0.0239
1565.00,0.0244
1564.00,0.0248
1563.00,0.0253
1562.00,0.0257
1561.00,0.0262
1560.00,0.0269
1559.00,0.0279
1558.00,0.0288
1557.00,0.0295
1556.00,0.0299
1555.00,0.0305
1554.00,0.0311
1553.00,0.0318
1552.00,0.0324
1551.00,0.0329
1550.00,0.0336
1549.00,0.0342
1548.00,0.0347
1547.00,0.0351
1546.00,0.0356
1545.00,0.0361
1544.00,0.0365
1543.00,0.0369
1542.00,0.0372
1541.00,0.0377
1540.00,0.0382
1539.00,0.0387
1538.00,0.0390
1537.00,0.0391
1536.00,0.0392
1535.00,0.0394
1534.00,0.0396
1533.00,0.0399
1532.00,0.0401
1531.00,0.0403
1530.00,0.0404
1529.00,0.0406
1528.00,0.0407
1527.00,0.0408
1526.00,0.0408
1525.00,0.0409
1524.00,0.0409
1523.00,0.0409
1522.00,0.0411
1521.00,0.0412
1520.00,0.0413
1519.00,0.0414
1518.00,0.0414
1517.00,0.0415
1516.00,0.0414
1515.00,0.0412
1514.00,0.0410
1513.00,0.0406
1512.00,0.0402
1511.00,0.0397
1510.00,0.0391
1509.00,0.0386
1508.00,0.0380
1507.00,0.0372
1506.00,0.0364
1505.00,0.0356
1504.00,0.0349
1503.00,0.0342
1502.00,0.0335
1501.00,0.0328
1500.00,0.0321
1499.00,0.0314
1498.00,0.0307
1497.00,0.0299
1496.00,0.0292
1495.00,0.0284
1494.00,0.0277
1493.00,0.0270
1492.00,0.0263
1491.00,0.0256
1490.00,0.0248
1489.00,0.0241
1488.00,0.0235
1487.00,0.0229
1486.00,0.0224
1485.00,0.0220
1484.00,0.0215
1483.00,0.0212
1482.00,0.0208
1481.00,0.0205
1480.00,0.0203
1479.00,0.0201
1478.00,0.0200
1477.00,0.0199
1476.00,0.0199
1475.00,0.0200
1474.00,0.0202
1473.00,0.0204
1472.00,0.0208
1471.00,0.0211
1470.00,0.0213
1469.00,0.0214
1468.00,0.0214
1467.00,0.0215
1466.00,0.0215
1465.00,0.0216
1464.00,0.0217
1463.00,0.0218
1462.00,0.0218
1461.00,0.0219
1460.00,0.0221
1459.00,0.0223
1458.00,0.0226
1457.00,0.0230
1456.00,0.0233
1455.00,0.0235
1454.00,0.0236
1453.00,0.0236
1452.00,0.0236
1451.00,0.0236
1450.00,0.0236
1449.00,0.0237
1448.00,0.0237
1447.00,0.0236
1446.00,0.0236
1445.00,0.0235
1444.00,0.0235
1443.00,0.0234
1442.00,0.0233
1441.00,0.0232
1440.00,0.0230
1439.00,0.0229
1438.00,0.0227
1437.00,0.0225
1436.00,0.0222
1435.00,0.0219
1434.00,0.0217
1433.00,0.0214
1432.00,0.0212
1431.00,0.0209
1430.00,0.0208
1429.00,0.0206
1428.00,0.0205
1427.00,0.0204
1426.00,0.0204
1425.00,0.0203
1424.00,0.0203
1423.00,0.0203
1422.00,0.0203
1421.00,0.0204
1420.00,0.0205
1419.00,0.0206
1418.00,0.0208
1417.00,0.0209
1416.00,0.0209
1415.00,0.0210
1414.00,0.0211
1413.00,0.0212
1412.00,0.0213
1411.00,0.0213
1410.00,0.0214
1409.00,0.0214
1408.00,0.0214
1407.00,0.0215
1406.00,0.0215
1405.00,0.0215
1404.00,0.0214
1403.00,0.0214
1402.00,0.0214
1401.00,0.0214
1400.00,0.0213
1399.00,0.0213
1398.00,0.0213
1397.00,0.0213
1396.00,0.0214
1395.00,0.0214
1394.00,0.0215
1393.00,0.0216
1392.00,0.0216
1391.00,0.0217
1390.00,0.0217
1389.00,0.0218
1388.00,0.0218
1387.00,0.0218
1386.00,0.0217
1385.00,0.0216
1384.00,0.0215
1383.00,0.0213
1382.00,0.0212
1381.00,0.0210
1380.00,0.0209
1379.00,0.0207
1378.00,0.0206
1377.00,0.0204
1376.00,0.0203
1375.00,0.0202
1374.00,0.0202
1373.00,0.0202
1372.00,0.0201
1371.00,0.0201
1370.00,0.0201
1369.00,0.0200
1368.00,0.0200
1367.00,0.0198
1366.00,0.0197
1365.00,0.0196
1364.00,0.0194
1363.00,0.0192
1362.00,0.0191
1361.00,0.0190
1360.00,0.0189
1359.00,0.0189
1358.00,0.0189
1357.00,0.0188
1356.00,0.0188
1355.00,0.0188
1354.00,0.0188
1353.00,0.0189
1352.00,0.0189
1351.00,0.0189
1350.00,0.0189
1349.00,0.0190
1348.00,0.0190
1347.00,0.0190
1346.00,0.0191
1345.00,0.0191
1344.00,0.0191
1343.00,0.0191
1342.00,0.0191
1341.00,0.0191
1340.00,0.0191
1339.00,0.0191
1338.00,0.0191
1337.00,0.0191
1336.00,0.0190
1335.00,0.0190
1334.00,0.0189
1333.00,0.0189
1332.00,0.0189
1331.00,0.0188
1330.00,0.0188
1329.00,0.0188
1328.00,0.0188
1327.00,0.0188
1326.00,0.0188
1325.00,0.0189
1324.00,0.0189
1323.00,0.0189
1322.00,0.0190
1321.00,0.0190
1320.00,0.0190
1319.00,0.0190
1318.00,0.0191
1317.00,0.0191
1316.00,0.0192
1315.00,0.0192
1314.00,0.0193
1313.00,0.0193
1312.00,0.0193
1311.00,0.0193
1310.00,0.0193
1309.00,0.0194
1308.00,0.0194
1307.00,0.0194
1306.00,0.0194
1305.00,0.0195
1304.00,0.0195
1303.00,0.0195
1302.00,0.0195
1301.00,0.0195
1300.00,0.0196
1299.00,0.0196
1298.00,0.0196
1297.00,0.0197
1296.00,0.0198
1295.00,0.0198
1294.00,0.0199
1293.00,0.0200
1292.00,0.0200
1291.00,0.0201
1290.00,0.0201
1289.00,0.0202
1288.00,0.0202
1287.00,0.0203
1286.00,0.0203
1285.00,0.0204
1284.00,0.0205
1283.00,0.0205
1282.00,0.0206
1281.00,0.0207
1280.00,0.0207
1279.00,0.0208
1278.00,0.0208
1277.00,0.0209
1276.00,0.0209
1275.00,0.0209
1274.00,0.0210
1273.00,0.0211
1272.00,0.0211
1271.00,0.0212
1270.00,0.0213
1269.00,0.0214
1268.00,0.0215
1267.00,0.0216
1266.00,0.0217
1265.00,0.0218
1264.00,0.0219
1263.00,0.0220
1262.00,0.0221
1261.00,0.0222
1260.00,0.0223
1259.00,0.0225
1258.00,0.0226
1257.00,0.0227
1256.00,0.0228
1255.00,0.0229
1254.00,0.0231
1253.00,0.0232
1252.00,0.0234
1251.00,0.0235
1250.00,0.0236
1249.00,0.0238
1248.00,0.0239
1247.00,0.0241
1246.00,0.0242
1245.00,0.0243
1244.00,0.0245
1243.00,0.0246
1242.00,0.0248
1241.00,0.0249
1240.00,0.0250
1239.00,0.0251
1238.00,0.0252
1237.00,0.0253
1236.00,0.0253
1235.00,0.0254
1234.00,0.0255
1233.00,0.0255
1232.00,0.0255
1231.00,0.0255
1230.00,0.0255
1229.00,0.0255
1228.00,0.0254
1227.00,0.0254
1226.00,0.0254
1225.00,0.0253
1224.00,0.0252
1223.00,0.0250
1222.00,0.0250
1221.00,0.0248
1220.00,0.0247
1219.00,0.0245
1218.00,0.0244
1217.00,0.0242
1216.00,0.0240
1215.00,0.0239
1214.00,0.0237
1213.00,0.0235
1212.00,0.0233
1211.00,0.0231
1210.00,0.0230
1209.00,0.0229
1208.00,0.0228
1207.00,0.0227
1206.00,0.0226
1205.00,0.0225
1204.00,0.0224
1203.00,0.0224
1202.00,0.0223
1201.00,0.0223
1200.00,0.0222
1199.00,0.0222
1198.00,0.0222
1197.00,0.0222
1196.00,0.0221
1195.00,0.0222
1194.00,0.0222
1193.00,0.0223
1192.00,0.0223
1191.00,0.0224
1190.00,0.0225
1189.00,0.0225
1188.00,0.0226
1187.00,0.0227
1186.00,0.0228
1185.00,0.0229
1184.00,0.0229
1183.00,0.0231
1182.00,0.0232
1181.00,0.0233
1180.00,0.0234
1179.00,0.0236
1178.00,0.0237
1177.00,0.0239
1176.00,0.0240
1175.00,0.0242
1174.00,0.0244
1173.00,0.0245
1172.00,0.0246
1171.00,0.0247
1170.00,0.0247
1169.00,0.0247
1168.00,0.0247
1167.00,0.0246
1166.00,0.0247
1165.00,0.0247
1164.00,0.0247
1163.00,0.0247
1162.00,0.0247
1161.00,0.0246
1160.00,0.0246
1159.00,0.0245
1158.00,0.0244
1157.00,0.0243
1156.00,0.0242
1155.00,0.0241
1154.00,0.0240
1153.00,0.0239
1152.00,0.0238
1151.00,0.0236
1150.00,0.0235
1149.00,0.0233
1148.00,0.0231
1147.00,0.0230
1146.00,0.0228
1145.00,0.0226
1144.00,0.0224
1143.00,0.0223
1142.00,0.0221
1141.00,0.0220
1140.00,0.0220
1139.00,0.0219
1138.00,0.0219
1137.00,0.0218
1136.00,0.0217
1135.00,0.0217
1134.00,0.0217
1133.00,0.0217
1132.00,0.0217
1131.00,0.0217
1130.00,0.0217
1129.00,0.0217
1128.00,0.0217
1127.00,0.0217
1126.00,0.0216
1125.00,0.0216
1124.00,0.0216
1123.00,0.0216
1122.00,0.0216
1121.00,0.0215
1120.00,0.0215
1119.00,0.0214
1118.00,0.0214
1117.00,0.0214
1116.00,0.0214
1115.00,0.0214
1114.00,0.0215
1113.00,0.0215
1112.00,0.0215
1111.00,0.0215
1110.00,0.0215
1109.00,0.0215
1108.00,0.0215
1107.00,0.0215
1106.00,0.0216
1105.00,0.0216
1104.00,0.0216
1103.00,0.0216
1102.00,0.0217
1101.00,0.0217
1100.00,0.0216
1099.00,0.0216
1098.00,0.0217
1097.00,0.0217
1096.00,0.0217
1095.00,0.0218
1094.00,0.0218
1093.00,0.0218
1092.00,0.0218
1091.00,0.0219
1090.00,0.0220
1089.00,0.0220
1088.00,0.0220
1087.00,0.0221
1086.00,0.0222
1085.00,0.0223
1084.00,0.0224
1083.00,0.0225
1082.00,0.0226
1081.00,0.0227
1080.00,0.0228
1079.00,0.0228
1078.00,0.0229
1077.00,0.0229
1076.00,0.0229
1075.00,0.0229
1074.00,0.0229
1073.00,0.0228
1072.00,0.0227
1071.00,0.0227
1070.00,0.0227
1069.00,0.0227
1068.00,0.0227
1067.00,0.0227
1066.00,0.0227
1065.00,0.0227
1064.00,0.0226
1063.00,0.0226
1062.00,0.0225
1061.00,0.0225
1060.00,0.0225
1059.00,0.0225
1058.00,0.0225
1057.00,0.0226
1056.00,0.0225
1055.00,0.0225
1054.00,0.0225
1053.00,0.0224
1052.00,0.0224
1051.00,0.0224
1050.00,0.0224
1049.00,0.0224
1048.00,0.0223
1047.00,0.0222
1046.00,0.0221
1045.00,0.0221
1044.00,0.0219
1043.00,0.0218
1042.00,0.0218
1041.00,0.0217
1040.00,0.0216
1039.00,0.0216
1038.00,0.0215
1037.00,0.0215
1036.00,0.0214
1035.00,0.0213
1034.00,0.0214
1033.00,0.0214
1032.00,0.0214
1031.00,0.0214
1030.00,0.0214
1029.00,0.0213
1028.00,0.0212
1027.00,0.0212
1026.00,0.0211
1025.00,0.0210
1024.00,0.0209
1023.00,0.0209
1022.00,0.0209
1021.00,0.0208
1020.00,0.0206
1019.00,0.0204
1018.00,0.0203
1017.00,0.0202
1016.00,0.0200
1015.00,0.0199
1014.00,0.0198
1013.00,0.0197
1012.00,0.0195
1011.00,0.0193
1010.00,0.0192
1009.00,0.0190
1008.00,0.0188
1007.00,0.0187
1006.00,0.0186
1005.00,0.0184
1004.00,0.0183
1003.00,0.0182
1002.00,0.0181
1001.00,0.0180
1000.00,0.0179
999.00,0.0178
998.00,0.0178
997.00,0.0176
996.00,0.0175
995.00,0.0174
994.00,0.0173
993.00,0.0173
992.00,0.0172
991.00,0.0171
990.00,0.0171
989.00,0.0170
988.00,0.0169
987.00,0.0168
986.00,0.0167
985.00,0.0166
984.00,0.0165
983.00,0.0164
982.00,0.0164
981.00,0.0164
980.00,0.0163
979.00,0.0162
978.00,0.0162
977.00,0.0162
976.00,0.0161
975.00,0.0161
974.00,0.0161
973.00,0.0160
972.00,0.0159
971.00,0.0159
970.00,0.0159
969.00,0.0159
968.00,0.0158
967.00,0.0158
966.00,0.0158
965.00,0.0158
964.00,0.0157
963.00,0.0157
962.00,0.0158
961.00,0.0158
960.00,0.0158
959.00,0.0157
958.00,0.0157
957.00,0.0157
956.00,0.0156
955.00,0.0156
954.00,0.0156
953.00,0.0157
952.00,0.0156
951.00,0.0157
950.00,0.0157
949.00,0.0157
948.00,0.0157
947.00,0.0156
946.00,0.0157
945.00,0.0157
944.00,0.0157
943.00,0.0157
942.00,0.0157
941.00,0.0157
940.00,0.0157
939.00,0.0158
938.00,0.0158
937.00,0.0159
936.00,0.0159
935.00,0.0159
934.00,0.0159
933.00,0.0160
932.00,0.0160
931.00,0.0160
930.00,0.0160
929.00,0.0160
928.00,0.0160
927.00,0.0160
926.00,0.0160
925.00,0.0160
924.00,0.0160
923.00,0.0159
922.00,0.0160
921.00,0.0159
920.00,0.0159
919.00,0.0158
918.00,0.0158
917.00,0.0158
916.00,0.0158
915.00,0.0158
914.00,0.0158
913.00,0.0158
912.00,0.0158
911.00,0.0157
910.00,0.0157
909.00,0.0157
908.00,0.0156
907.00,0.0156
906.00,0.0156
905.00,0.0156
904.00,0.0156
903.00,0.0156
902.00,0.0156
901.00,0.0156
900.00,0.0155
899.00,0.0155
898.00,0.0155
897.00,0.0155
896.00,0.0155
895.00,0.0155
894.00,0.0156
893.00,0.0156
892.00,0.0155
891.00,0.0155
890.00,0.0155
889.00,0.0155
888.00,0.0154
887.00,0.0154
886.00,0.0154
885.00,0.0154
884.00,0.0154
883.00,0.0154
882.00,0.0155
881.00,0.0155
880.00,0.0154
879.00,0.0154
878.00,0.0154
877.00,0.0154
876.00,0.0153
875.00,0.0153
874.00,0.0153
873.00,0.0153
872.00,0.0152
871.00,0.0152
870.00,0.0152
869.00,0.0152
868.00,0.0151
867.00,0.0151
866.00,0.0152
865.00,0.0152
864.00,0.0153
863.00,0.0153
862.00,0.0154
861.00,0.0155
860.00,0.0155
859.00,0.0155
858.00,0.0156
857.00,0.0157
856.00,0.0157
855.00,0.0157
854.00,0.0159
853.00,0.0160
852.00,0.0161
851.00,0.0161
850.00,0.0162
849.00,0.0162
848.00,0.0161
847.00,0.0161
846.00,0.0161
845.00,0.0162
844.00,0.0162
843.00,0.0162
842.00,0.0163
841.00,0.0165
840.00,0.0165
839.00,0.0166
838.00,0.0168
837.00,0.0169
836.00,0.0169
835.00,0.0169
834.00,0.0171
833.00,0.0172
832.00,0.0172
831.00,0.0173
830.00,0.0174
829.00,0.0175
828.00,0.0175
827.00,0.0175
826.00,0.0176
825.00,0.0176
824.00,0.0176
823.00,0.0175
822.00,0.0176
821.00,0.0176
820.00,0.0175
819.00,0.0174
818.00,0.0175
817.00,0.0175
816.00,0.0175
815.00,0.0176
814.00,0.0177
813.00,0.0178
812.00,0.0178
811.00,0.0178
810.00,0.0180
809.00,0.0181
808.00,0.0181
807.00,0.0181
806.00,0.0182
805.00,0.0182
804.00,0.0182
803.00,0.0182
802.00,0.0183
801.00,0.0183
800.00,0.0183
799.00,0.0183
798.00,0.0185
797.00,0.0185
796.00,0.0186
795.00,0.0186
794.00,0.0188
793.00,0.0189
792.00,0.0190
791.00,0.0191
790.00,0.0193
789.00,0.0195
788.00,0.0196
787.00,0.0197
786.00,0.0198
785.00,0.0199
784.00,0.0199
783.00,0.0200
782.00,0.0202
781.00,0.0202
780.00,0.0202
779.00,0.0202
778.00,0.0203
777.00,0.0204
776.00,0.0205
775.00,0.0205
774.00,0.0207
773.00,0.0208
772.00,0.0208
771.00,0.0209
770.00,0.0210
769.00,0.0211
768.00,0.0212
767.00,0.0212
766.00,0.0213
765.00,0.0214
764.00,0.0215
763.00,0.0215
762.00,0.0217
761.00,0.0218
760.00,0.0218
759.00,0.0219
758.00,0.0220
757.00,0.0221
756.00,0.0222
755.00,0.0223
754.00,0.0224
753.00,0.0225
752.00,0.0226
751.00,0.0227
750.00,0.0229
749.00,0.0230
748.00,0.0232
747.00,0.0233
746.00,0.0235
745.00,0.0236
744.00,0.0237
743.00,0.0237
742.00,0.0238
741.00,0.0239
740.00,0.0238
739.00,0.0238
738.00,0.0238
737.00,0.0239
736.00,0.0239
735.00,0.0240
734.00,0.0242
733.00,0.0243
732.00,0.0244
731.00,0.0245
730.00,0.0246
729.00,0.0248
728.00,0.0249
727.00,0.0250
726.00,0.0252
725.00,0.0254
724.00,0.0255
723.00,0.0257
722.00,0.0259
721.00,0.0261
720.00,0.0263
719.00,0.0265
718.00,0.0268
717.00,0.0270
716.00,0.0271
715.00,0.0272
714.00,0.0275
713.00,0.0277
712.00,0.0278
711.00,0.0280
710.00,0.0283
709.00,0.0286
708.00,0.0289
707.00,0.0292
706.00,0.0295
705.00,0.0298
704.00,0.0300
703.00,0.0302
702.00,0.0305
701.00,0.0308
700.00,0.0309
699.00,0.0309
698.00,0.0310
697.00,0.0311
696.00,0.0311
695.00,0.0311
694.00,0.0312
693.00,0.0313
692.00,0.0313
691.00,0.0313
690.00,0.0313
689.00,0.0314
688.00,0.0314
687.00,0.0314
686.00,0.0316
685.00,0.0317
684.00,0.0318
683.00,0.0319
682.00,0.0321
681.00,0.0322
680.00,0.0322
679.00,0.0323
678.00,0.0324
677.00,0.0325
676.00,0.0324
675.00,0.0325
674.00,0.0326
673.00,0.0327
672.00,0.0328
671.00,0.0328
670.00,0.0331
669.00,0.0334
668.00,0.0336
667.00,0.0338
666.00,0.0339
665.00,0.0338
664.00,0.0337
663.00,0.0336
662.00,0.0337
661.00,0.0338
660.00,0.0338
659.00,0.0338
658.00,0.0339
657.00,0.0340
656.00,0.0341
655.00,0.0342
654.00,0.0345
653.00,0.0346
652.00,0.0346
651.00,0.0346
650.00,0.0347
649.00,0.0348
648.00,0.0348
647.00,0.0348
646.00,0.0350
645.00,0.0351
644.00,0.0351
643.00,0.0352
642.00,0.0353
641.00,0.0355
640.00,0.0355
639.00,0.0356
638.00,0.0357
637.00,0.0358
636.00,0.0359
635.00,0.0360
634.00,0.0363
633.00,0.0366
632.00,0.0367
631.00,0.0369
630.00,0.0372
629.00,0.0374
628.00,0.0375
627.00,0.0376
626.00,0.0378
625.00,0.0380
624.00,0.0380
623.00,0.0380
622.00,0.0380
621.00,0.0381
620.00,0.0380
619.00,0.0380
618.00,0.0381
617.00,0.0383
616.00,0.0383
615.00,0.0382
614.00,0.0383
613.00,0.0383
612.00,0.0379
611.00,0.0375
610.00,0.0372
609.00,0.0373
608.00,0.0377
607.00,0.0383
606.00,0.0387
605.00,0.0389
604.00,0.0389
603.00,0.0388
602.00,0.0389
601.00,0.0389
600.00,0.0389
599.00,0.0389
598.00,0.0391
597.00,0.0391
596.00,0.0391
595.00,0.0391
594.00,0.0393
593.00,0.0394
592.00,0.0394
591.00,0.0394
590.00,0.0397
589.00,0.0398
588.00,0.0397
587.00,0.0397
586.00,0.0397
585.00,0.0397
584.00,0.0397
583.00,0.0396
582.00,0.0398
581.00,0.0399
580.00,0.0400
579.00,0.0401
578.00,0.0403
577.00,0.0404
576.00,0.0404
575.00,0.0404
574.00,0.0405
573.00,0.0407
572.00,0.0407
571.00,0.0408
570.00,0.0410
569.00,0.0412
568.00,0.0412
567.00,0.0412
566.00,0.0414
565.00,0.0415
564.00,0.0415
563.00,0.0414
562.00,0.0415
561.00,0.0416
560.00,0.0416
559.00,0.0416
558.00,0.0419
557.00,0.0420
556.00,0.0419
555.00,0.0419
554.00,0.0421
553.00,0.0422
552.00,0.0421
551.00,0.0420
550.00,0.0422
549.00,0.0423
548.00,0.0422
547.00,0.0423
546.00,0.0426
545.00,0.0429
544.00,0.0429
543.00,0.0429
542.00,0.0430
541.00,0.0430
540.00,0.0429
539.00,0.0428
538.00,0.0430
537.00,0.0431
536.00,0.0431
535.00,0.0430
534.00,0.0432
533.00,0.0433
532.00,0.0432
531.00,0.0431
530.00,0.0431
529.00,0.0430
528.00,0.0429
527.00,0.0428
526.00,0.0431
525.00,0.0434
524.00,0.0433
523.00,0.0433
522.00,0.0434
521.00,0.0435
520.00,0.0434
519.00,0.0432
518.00,0.0434
517.00,0.0434
516.00,0.0433
515.00,0.0432
514.00,0.0433
513.00,0.0433
512.00,0.0431
511.00,0.0429
510.00,0.0429
509.00,0.0430
508.00,0.0430
507.00,0.0430
506.00,0.0432
505.00,0.0434
504.00,0.0433
503.00,0.0431
502.00,0.0431
501.00,0.0430
500.00,0.0427
499.00,0.0425
498.00,0.0428
497.00,0.0431
496.00,0.0431
495.00,0.0429
494.00,0.0429
493.00,0.0428
492.00,0.0425
491.00,0.0424
490.00,0.0427
489.00,0.0431
488.00,0.0432
487.00,0.0432
486.00,0.0433
485.00,0.0434
484.00,0.0432
483.00,0.0432
482.00,0.0435
481.00,0.0435
480.00,0.0431
479.00,0.0427
478.00,0.0427
477.00,0.0429
476.00,0.0428
475.00,0.0427
474.00,0.0430
473.00,0.0431
472.00,0.0427
471.00,0.0424
470.00,0.0427
469.00,0.0430
468.00,0.0430
467.00,0.0430
466.00,0.0433
465.00,0.0435
464.00,0.0434
463.00,0.0435
462.00,0.0440
461.00,0.0444
460.00,0.0441
459.00,0.0438
458.00,0.0439
457.00,0.0437
456.00,0.0430
455.00,0.0428
454.00,0.0432
453.00,0.0437
452.00,0.0436
451.00,0.0434
450.00,0.0437
449.00,0.0441
448.00,0.0441
447.00,0.0442
446.00,0.0446
445.00,0.0446
444.00,0.0440
443.00,0.0435
442.00,0.0438
441.00,0.0440
440.00,0.0436
439.00,0.0434
438.00,0.0438
437.00,0.0441
436.00,0.0439
435.00,0.0437
434.00,0.0439
433.00,0.0441
432.00,0.0439
431.00,0.0437
430.00,0.0441
429.00,0.0442
428.00,0.0437
427.00,0.0436
426.00,0.0442
425.00,0.0446
424.00,0.0443
423.00,0.0442
422.00,0.0451
421.00,0.0456
420.00,0.0445
419.00,0.0432
418.00,0.0434
417.00,0.0439
416.00,0.0438
415.00,0.0442
414.00,0.0455
413.00,0.0462
412.00,0.0454
411.00,0.0445
410.00,0.0447
409.00,0.0447
408.00,0.0435
407.00,0.0426
406.00,0.0434
405.00,0.0443
404.00,0.0443
403.00,0.0447
402.00,0.0467
401.00,0.0479
400.00,0.0464
