Created as New Dataset,Sample 739 By YargerLab Date Friday, June 27 2025
cm-1,A
4000.00,0.0017
3999.00,0.0017
3998.00,0.0017
3997.00,0.0017
3996.00,0.0017
3995.00,0.0018
3994.00,0.0018
3993.00,0.0018
3992.00,0.0018
3991.00,0.0018
3990.00,0.0018
3989.00,0.0018
3988.00,0.0018
3987.00,0.0018
3986.00,0.0018
3985.00,0.0018
3984.00,0.0018
3983.00,0.0018
3982.00,0.0018
3981.00,0.0018
3980.00,0.0018
3979.00,0.0018
3978.00,0.0018
3977.00,0.0018
3976.00,0.0018
3975.00,0.0018
3974.00,0.0018
3973.00,0.0018
3972.00,0.0018
3971.00,0.0018
3970.00,0.0019
3969.00,0.0019
3968.00,0.0019
3967.00,0.0019
3966.00,0.0019
3965.00,0.0019
3964.00,0.0019
3963.00,0.0019
3962.00,0.0019
3961.00,0.0019
3960.00,0.0019
3959.00,0.0018
3958.00,0.0018
3957.00,0.0018
3956.00,0.0019
3955.00,0.0019
3954.00,0.0019
3953.00,0.0019
3952.00,0.0019
3951.00,0.0019
3950.00,0.0019
3949.00,0.0019
3948.00,0.0018
3947.00,0.0018
3946.00,0.0018
3945.00,0.0018
3944.00,0.0018
3943.00,0.0018
3942.00,0.0018
3941.00,0.0018
3940.00,0.0018
3939.00,0.0018
3938.00,0.0018
3937.00,0.0018
3936.00,0.0018
3935.00,0.0018
3934.00,0.0018
3933.00,0.0018
3932.00,0.0018
3931.00,0.0018
3930.00,0.0018
3929.00,0.0018
3928.00,0.0018
3927.00,0.0018
3926.00,0.0018
3925.00,0.0018
3924.00,0.0018
3923.00,0.0018
3922.00,0.0018
3921.00,0.0019
3920.00,0.0019
3919.00,0.0019
3918.00,0.0019
3917.00,0.0018
3916.00,0.0018
3915.00,0.0018
3914.00,0.0018
3913.00,0.0017
3912.00,0.0017
3911.00,0.0017
3910.00,0.0017
3909.00,0.0018
3908.00,0.0018
3907.00,0.0019
3906.00,0.0019
3905.00,0.0020
3904.00,0.0020
3903.00,0.0020
3902.00,0.0020
3901.00,0.0020
3900.00,0.0020
3899.00,0.0020
3898.00,0.0020
3897.00,0.0020
3896.00,0.0019
3895.00,0.0019
3894.00,0.0019
3893.00,0.0018
3892.00,0.0018
3891.00,0.0018
3890.00,0.0018
3889.00,0.0019
3888.00,0.0019
3887.00,0.0019
3886.00,0.0019
3885.00,0.0019
3884.00,0.0019
3883.00,0.0019
3882.00,0.0019
3881.00,0.0019
3880.00,0.0019
3879.00,0.0019
3878.00,0.0019
3877.00,0.0018
3876.00,0.0018
3875.00,0.0019
3874.00,0.0019
3873.00,0.0020
3872.00,0.0020
3871.00,0.0020
3870.00,0.0020
3869.00,0.0020
3868.00,0.0020
3867.00,0.0020
3866.00,0.0020
3865.00,0.0020
3864.00,0.0020
3863.00,0.0019
3862.00,0.0019
3861.00,0.0018
3860.00,0.0018
3859.00,0.0019
3858.00,0.0019
3857.00,0.0020
3856.00,0.0021
3855.00,0.0022
3854.00,0.0023
3853.00,0.0023
3852.00,0.0023
3851.00,0.0024
3850.00,0.0023
3849.00,0.0022
3848.00,0.0021
3847.00,0.0020
3846.00,0.0019
3845.00,0.0018
3844.00,0.0018
3843.00,0.0019
3842.00,0.0019
3841.00,0.0020
3840.00,0.0020
3839.00,0.0021
3838.00,0.0021
3837.00,0.0021
3836.00,0.0021
3835.00,0.0021
3834.00,0.0021
3833.00,0.0020
3832.00,0.0019
3831.00,0.0019
3830.00,0.0018
3829.00,0.0017
3828.00,0.0017
3827.00,0.0017
3826.00,0.0017
3825.00,0.0018
3824.00,0.0018
3823.00,0.0018
3822.00,0.0019
3821.00,0.0019
3820.00,0.0020
3819.00,0.0020
3818.00,0.0020
3817.00,0.0020
3816.00,0.0020
3815.00,0.0019
3814.00,0.0019
3813.00,0.0018
3812.00,0.0017
3811.00,0.0017
3810.00,0.0017
3809.00,0.0017
3808.00,0.0017
3807.00,0.0017
3806.00,0.0017
3805.00,0.0018
3804.00,0.0019
3803.00,0.0019
3802.00,0.0019
3801.00,0.0020
3800.00,0.0020
3799.00,0.0020
3798.00,0.0019
3797.00,0.0018
3796.00,0.0017
3795.00,0.0017
3794.00,0.0016
3793.00,0.0015
3792.00,0.0015
3791.00,0.0015
3790.00,0.0015
3789.00,0.0015
3788.00,0.0015
3787.00,0.0015
3786.00,0.0015
3785.00,0.0015
3784.00,0.0015
3783.00,0.0015
3782.00,0.0015
3781.00,0.0015
3780.00,0.0015
3779.00,0.0016
3778.00,0.0016
3777.00,0.0016
3776.00,0.0015
3775.00,0.0015
3774.00,0.0016
3773.00,0.0016
3772.00,0.0016
3771.00,0.0017
3770.00,0.0017
3769.00,0.0017
3768.00,0.0017
3767.00,0.0017
3766.00,0.0017
3765.00,0.0017
3764.00,0.0017
3763.00,0.0017
3762.00,0.0017
3761.00,0.0017
3760.00,0.0017
3759.00,0.0017
3758.00,0.0016
3757.00,0.0017
3756.00,0.0017
3755.00,0.0018
3754.00,0.0018
3753.00,0.0019
3752.00,0.0020
3751.00,0.0020
3750.00,0.0021
3749.00,0.0021
3748.00,0.0022
3747.00,0.0022
3746.00,0.0022
3745.00,0.0022
3744.00,0.0021
3743.00,0.0021
3742.00,0.0020
3741.00,0.0019
3740.00,0.0019
3739.00,0.0019
3738.00,0.0018
3737.00,0.0018
3736.00,0.0018
3735.00,0.0018
3734.00,0.0018
3733.00,0.0018
3732.00,0.0018
3731.00,0.0018
3730.00,0.0017
3729.00,0.0017
3728.00,0.0016
3727.00,0.0016
3726.00,0.0016
3725.00,0.0015
3724.00,0.0015
3723.00,0.0015
3722.00,0.0015
3721.00,0.0015
3720.00,0.0015
3719.00,0.0014
3718.00,0.0014
3717.00,0.0014
3716.00,0.0014
3715.00,0.0015
3714.00,0.0015
3713.00,0.0016
3712.00,0.0016
3711.00,0.0017
3710.00,0.0017
3709.00,0.0017
3708.00,0.0017
3707.00,0.0016
3706.00,0.0015
3705.00,0.0015
3704.00,0.0015
3703.00,0.0015
3702.00,0.0014
3701.00,0.0014
3700.00,0.0014
3699.00,0.0014
3698.00,0.0014
3697.00,0.0014
3696.00,0.0014
3695.00,0.0014
3694.00,0.0014
3693.00,0.0015
3692.00,0.0016
3691.00,0.0016
3690.00,0.0016
3689.00,0.0016
3688.00,0.0016
3687.00,0.0016
3686.00,0.0016
3685.00,0.0016
3684.00,0.0015
3683.00,0.0015
3682.00,0.0015
3681.00,0.0015
3680.00,0.0015
3679.00,0.0016
3678.00,0.0017
3677.00,0.0018
3676.00,0.0018
3675.00,0.0019
3674.00,0.0019
3673.00,0.0020
3672.00,0.0020
3671.00,0.0020
3670.00,0.0020
3669.00,0.0019
3668.00,0.0018
3667.00,0.0018
3666.00,0.0017
3665.00,0.0016
3664.00,0.0015
3663.00,0.0015
3662.00,0.0015
3661.00,0.0015
3660.00,0.0015
3659.00,0.0015
3658.00,0.0015
3657.00,0.0015
3656.00,0.0016
3655.00,0.0016
3654.00,0.0017
3653.00,0.0018
3652.00,0.0019
3651.00,0.0020
3650.00,0.0020
3649.00,0.0020
3648.00,0.0020
3647.00,0.0020
3646.00,0.0020
3645.00,0.0019
3644.00,0.0019
3643.00,0.0018
3642.00,0.0017
3641.00,0.0017
3640.00,0.0017
3639.00,0.0017
3638.00,0.0017
3637.00,0.0017
3636.00,0.0017
3635.00,0.0018
3634.00,0.0018
3633.00,0.0019
3632.00,0.0020
3631.00,0.0021
3630.00,0.0022
3629.00,0.0023
3628.00,0.0024
3627.00,0.0025
3626.00,0.0025
3625.00,0.0025
3624.00,0.0025
3623.00,0.0025
3622.00,0.0025
3621.00,0.0026
3620.00,0.0027
3619.00,0.0028
3618.00,0.0029
3617.00,0.0030
3616.00,0.0031
3615.00,0.0031
3614.00,0.0031
3613.00,0.0031
3612.00,0.0032
3611.00,0.0032
3610.00,0.0032
3609.00,0.0032
3608.00,0.0032
3607.00,0.0031
3606.00,0.0031
3605.00,0.0031
3604.00,0.0031
3603.00,0.0031
3602.00,0.0031
3601.00,0.0031
3600.00,0.0031
3599.00,0.0031
3598.00,0.0032
3597.00,0.0033
3596.00,0.0033
3595.00,0.0034
3594.00,0.0034
3593.00,0.0035
3592.00,0.0035
3591.00,0.0036
3590.00,0.0037
3589.00,0.0038
3588.00,0.0039
3587.00,0.0040
3586.00,0.0040
3585.00,0.0041
3584.00,0.0041
3583.00,0.0042
3582.00,0.0042
3581.00,0.0042
3580.00,0.0043
3579.00,0.0044
3578.00,0.0044
3577.00,0.0045
3576.00,0.0046
3575.00,0.0047
3574.00,0.0048
3573.00,0.0049
3572.00,0.0050
3571.00,0.0051
3570.00,0.0053
3569.00,0.0054
3568.00,0.0056
3567.00,0.0057
3566.00,0.0058
3565.00,0.0060
3564.00,0.0061
3563.00,0.0061
3562.00,0.0062
3561.00,0.0063
3560.00,0.0065
3559.00,0.0066
3558.00,0.0067
3557.00,0.0068
3556.00,0.0069
3555.00,0.0071
3554.00,0.0072
3553.00,0.0073
3552.00,0.0075
3551.00,0.0077
3550.00,0.0078
3549.00,0.0080
3548.00,0.0082
3547.00,0.0084
3546.00,0.0085
3545.00,0.0087
3544.00,0.0089
3543.00,0.0091
3542.00,0.0093
3541.00,0.0094
3540.00,0.0096
3539.00,0.0097
3538.00,0.0099
3537.00,0.0101
3536.00,0.0104
3535.00,0.0106
3534.00,0.0108
3533.00,0.0110
3532.00,0.0112
3531.00,0.0114
3530.00,0.0116
3529.00,0.0118
3528.00,0.0120
3527.00,0.0123
3526.00,0.0125
3525.00,0.0127
3524.00,0.0130
3523.00,0.0132
3522.00,0.0135
3521.00,0.0137
3520.00,0.0139
3519.00,0.0142
3518.00,0.0144
3517.00,0.0147
3516.00,0.0149
3515.00,0.0152
3514.00,0.0155
3513.00,0.0158
3512.00,0.0161
3511.00,0.0164
3510.00,0.0167
3509.00,0.0171
3508.00,0.0174
3507.00,0.0178
3506.00,0.0181
3505.00,0.0185
3504.00,0.0189
3503.00,0.0193
3502.00,0.0198
3501.00,0.0202
3500.00,0.0206
3499.00,0.0210
3498.00,0.0215
3497.00,0.0220
3496.00,0.0224
3495.00,0.0229
3494.00,0.0234
3493.00,0.0239
3492.00,0.0245
3491.00,0.0250
3490.00,0.0256
3489.00,0.0262
3488.00,0.0268
3487.00,0.0275
3486.00,0.0282
3485.00,0.0289
3484.00,0.0296
3483.00,0.0304
3482.00,0.0313
3481.00,0.0322
3480.00,0.0332
3479.00,0.0342
3478.00,0.0353
3477.00,0.0365
3476.00,0.0378
3475.00,0.0393
3474.00,0.0408
3473.00,0.0425
3472.00,0.0443
3471.00,0.0463
3470.00,0.0484
3469.00,0.0506
3468.00,0.0529
3467.00,0.0553
3466.00,0.0577
3465.00,0.0602
3464.00,0.0627
3463.00,0.0651
3462.00,0.0675
3461.00,0.0698
3460.00,0.0719
3459.00,0.0739
3458.00,0.0756
3457.00,0.0770
3456.00,0.0783
3455.00,0.0792
3454.00,0.0798
3453.00,0.0801
3452.00,0.0800
3451.00,0.0795
3450.00,0.0786
3449.00,0.0774
3448.00,0.0758
3447.00,0.0739
3446.00,0.0718
3445.00,0.0696
3444.00,0.0674
3443.00,0.0652
3442.00,0.0630
3441.00,0.0610
3440.00,0.0591
3439.00,0.0574
3438.00,0.0558
3437.00,0.0544
3436.00,0.0531
3435.00,0.0519
3434.00,0.0508
3433.00,0.0498
3432.00,0.0490
3431.00,0.0481
3430.00,0.0474
3429.00,0.0468
3428.00,0.0462
3427.00,0.0456
3426.00,0.0451
3425.00,0.0446
3424.00,0.0442
3423.00,0.0438
3422.00,0.0435
3421.00,0.0431
3420.00,0.0428
3419.00,0.0425
3418.00,0.0421
3417.00,0.0419
3416.00,0.0416
3415.00,0.0414
3414.00,0.0412
3413.00,0.0409
3412.00,0.0407
3411.00,0.0405
3410.00,0.0403
3409.00,0.0401
3408.00,0.0399
3407.00,0.0397
3406.00,0.0395
3405.00,0.0394
3404.00,0.0392
3403.00,0.0391
3402.00,0.0389
3401.00,0.0387
3400.00,0.0386
3399.00,0.0384
3398.00,0.0382
3397.00,0.0381
3396.00,0.0379
3395.00,0.0377
3394.00,0.0376
3393.00,0.0374
3392.00,0.0373
3391.00,0.0372
3390.00,0.0370
3389.00,0.0369
3388.00,0.0367
3387.00,0.0366
3386.00,0.0364
3385.00,0.0363
3384.00,0.0361
3383.00,0.0360
3382.00,0.0358
3381.00,0.0357
3380.00,0.0356
3379.00,0.0354
3378.00,0.0353
3377.00,0.0352
3376.00,0.0351
3375.00,0.0350
3374.00,0.0348
3373.00,0.0347
3372.00,0.0346
3371.00,0.0344
3370.00,0.0343
3369.00,0.0342
3368.00,0.0341
3367.00,0.0339
3366.00,0.0338
3365.00,0.0337
3364.00,0.0336
3363.00,0.0335
3362.00,0.0333
3361.00,0.0332
3360.00,0.0331
3359.00,0.0330
3358.00,0.0329
3357.00,0.0328
3356.00,0.0326
3355.00,0.0325
3354.00,0.0324
3353.00,0.0323
3352.00,0.0322
3351.00,0.0321
3350.00,0.0320
3349.00,0.0318
3348.00,0.0317
3347.00,0.0316
3346.00,0.0315
3345.00,0.0313
3344.00,0.0312
3343.00,0.0311
3342.00,0.0310
3341.00,0.0309
3340.00,0.0308
3339.00,0.0307
3338.00,0.0306
3337.00,0.0305
3336.00,0.0304
3335.00,0.0303
3334.00,0.0302
3333.00,0.0301
3332.00,0.0300
3331.00,0.0299
3330.00,0.0298
3329.00,0.0297
3328.00,0.0296
3327.00,0.0295
3326.00,0.0294
3325.00,0.0293
3324.00,0.0293
3323.00,0.0292
3322.00,0.0291
3321.00,0.0290
3320.00,0.0290
3319.00,0.0289
3318.00,0.0289
3317.00,0.0288
3316.00,0.0288
3315.00,0.0287
3314.00,0.0287
3313.00,0.0286
3312.00,0.0286
3311.00,0.0285
3310.00,0.0284
3309.00,0.0284
3308.00,0.0283
3307.00,0.0283
3306.00,0.0283
3305.00,0.0283
3304.00,0.0283
3303.00,0.0283
3302.00,0.0283
3301.00,0.0282
3300.00,0.0282
3299.00,0.0282
3298.00,0.0281
3297.00,0.0281
3296.00,0.0281
3295.00,0.0280
3294.00,0.0280
3293.00,0.0280
3292.00,0.0281
3291.00,0.0281
3290.00,0.0282
3289.00,0.0283
3288.00,0.0283
3287.00,0.0284
3286.00,0.0284
3285.00,0.0284
3284.00,0.0284
3283.00,0.0285
3282.00,0.0285
3281.00,0.0285
3280.00,0.0285
3279.00,0.0286
3278.00,0.0286
3277.00,0.0286
3276.00,0.0286
3275.00,0.0286
3274.00,0.0285
3273.00,0.0285
3272.00,0.0285
3271.00,0.0285
3270.00,0.0286
3269.00,0.0288
3268.00,0.0290
3267.00,0.0292
3266.00,0.0293
3265.00,0.0294
3264.00,0.0295
3263.00,0.0295
3262.00,0.0296
3261.00,0.0296
3260.00,0.0297
3259.00,0.0297
3258.00,0.0297
3257.00,0.0297
3256.00,0.0297
3255.00,0.0298
3254.00,0.0299
3253.00,0.0300
3252.00,0.0300
3251.00,0.0300
3250.00,0.0300
3249.00,0.0299
3248.00,0.0299
3247.00,0.0300
3246.00,0.0301
3245.00,0.0302
3244.00,0.0303
3243.00,0.0304
3242.00,0.0305
3241.00,0.0305
3240.00,0.0306
3239.00,0.0307
3238.00,0.0307
3237.00,0.0308
3236.00,0.0308
3235.00,0.0308
3234.00,0.0308
3233.00,0.0309
3232.00,0.0311
3231.00,0.0312
3230.00,0.0313
3229.00,0.0314
3228.00,0.0315
3227.00,0.0316
3226.00,0.0317
3225.00,0.0317
3224.00,0.0318
3223.00,0.0319
3222.00,0.0320
3221.00,0.0321
3220.00,0.0322
3219.00,0.0323
3218.00,0.0323
3217.00,0.0324
3216.00,0.0325
3215.00,0.0326
3214.00,0.0327
3213.00,0.0329
3212.00,0.0330
3211.00,0.0331
3210.00,0.0332
3209.00,0.0333
3208.00,0.0335
3207.00,0.0336
3206.00,0.0337
3205.00,0.0338
3204.00,0.0339
3203.00,0.0340
3202.00,0.0341
3201.00,0.0342
3200.00,0.0343
3199.00,0.0344
3198.00,0.0345
3197.00,0.0346
3196.00,0.0347
3195.00,0.0348
3194.00,0.0348
3193.00,0.0349
3192.00,0.0350
3191.00,0.0351
3190.00,0.0351
3189.00,0.0352
3188.00,0.0353
3187.00,0.0354
3186.00,0.0355
3185.00,0.0356
3184.00,0.0356
3183.00,0.0357
3182.00,0.0358
3181.00,0.0358
3180.00,0.0359
3179.00,0.0360
3178.00,0.0360
3177.00,0.0361
3176.00,0.0361
3175.00,0.0362
3174.00,0.0362
3173.00,0.0363
3172.00,0.0364
3171.00,0.0364
3170.00,0.0364
3169.00,0.0365
3168.00,0.0365
3167.00,0.0365
3166.00,0.0366
3165.00,0.0366
3164.00,0.0366
3163.00,0.0366
3162.00,0.0366
3161.00,0.0366
3160.00,0.0366
3159.00,0.0367
3158.00,0.0366
3157.00,0.0366
3156.00,0.0365
3155.00,0.0363
3154.00,0.0362
3153.00,0.0362
3152.00,0.0364
3151.00,0.0365
3150.00,0.0367
3149.00,0.0369
3148.00,0.0371
3147.00,0.0372
3146.00,0.0373
3145.00,0.0373
3144.00,0.0374
3143.00,0.0374
3142.00,0.0374
3141.00,0.0374
3140.00,0.0374
3139.00,0.0374
3138.00,0.0376
3137.00,0.0377
3136.00,0.0379
3135.00,0.0379
3134.00,0.0380
3133.00,0.0379
3132.00,0.0379
3131.00,0.0379
3130.00,0.0379
3129.00,0.0380
3128.00,0.0380
3127.00,0.0381
3126.00,0.0381
3125.00,0.0381
3124.00,0.0381
3123.00,0.0380
3122.00,0.0379
3121.00,0.0378
3120.00,0.0377
3119.00,0.0377
3118.00,0.0377
3117.00,0.0377
3116.00,0.0378
3115.00,0.0379
3114.00,0.0380
3113.00,0.0381
3112.00,0.0381
3111.00,0.0381
3110.00,0.0382
3109.00,0.0382
3108.00,0.0383
3107.00,0.0384
3106.00,0.0385
3105.00,0.0386
3104.00,0.0387
3103.00,0.0387
3102.00,0.0387
3101.00,0.0388
3100.00,0.0388
3099.00,0.0389
3098.00,0.0389
3097.00,0.0390
3096.00,0.0390
3095.00,0.0391
3094.00,0.0391
3093.00,0.0391
3092.00,0.0391
3091.00,0.0392
3090.00,0.0393
3089.00,0.0394
3088.00,0.0395
3087.00,0.0397
3086.00,0.0399
3085.00,0.0401
3084.00,0.0403
3083.00,0.0406
3082.00,0.0409
3081.00,0.0413
3080.00,0.0417
3079.00,0.0421
3078.00,0.0426
3077.00,0.0431
3076.00,0.0436
3075.00,0.0441
3074.00,0.0445
3073.00,0.0449
3072.00,0.0452
3071.00,0.0453
3070.00,0.0453
3069.00,0.0452
3068.00,0.0449
3067.00,0.0444
3066.00,0.0438
3065.00,0.0432
3064.00,0.0425
3063.00,0.0418
3062.00,0.0410
3061.00,0.0403
3060.00,0.0395
3059.00,0.0389
3058.00,0.0383
3057.00,0.0379
3056.00,0.0375
3055.00,0.0373
3054.00,0.0370
3053.00,0.0368
3052.00,0.0365
3051.00,0.0363
3050.00,0.0362
3049.00,0.0361
3048.00,0.0359
3047.00,0.0358
3046.00,0.0357
3045.00,0.0357
3044.00,0.0357
3043.00,0.0357
3042.00,0.0357
3041.00,0.0358
3040.00,0.0358
3039.00,0.0359
3038.00,0.0359
3037.00,0.0359
3036.00,0.0359
3035.00,0.0359
3034.00,0.0358
3033.00,0.0357
3032.00,0.0355
3031.00,0.0354
3030.00,0.0352
3029.00,0.0350
3028.00,0.0348
3027.00,0.0346
3026.00,0.0343
3025.00,0.0342
3024.00,0.0340
3023.00,0.0338
3022.00,0.0337
3021.00,0.0336
3020.00,0.0335
3019.00,0.0334
3018.00,0.0333
3017.00,0.0332
3016.00,0.0332
3015.00,0.0332
3014.00,0.0332
3013.00,0.0333
3012.00,0.0333
3011.00,0.0335
3010.00,0.0336
3009.00,0.0338
3008.00,0.0340
3007.00,0.0342
3006.00,0.0344
3005.00,0.0346
3004.00,0.0349
3003.00,0.0352
3002.00,0.0355
3001.00,0.0358
3000.00,0.0362
2999.00,0.0366
2998.00,0.0370
2997.00,0.0375
2996.00,0.0381
2995.00,0.0387
2994.00,0.0393
2993.00,0.0400
2992.00,0.0406
2991.00,0.0412
2990.00,0.0419
2989.00,0.0425
2988.00,0.0431
2987.00,0.0436
2986.00,0.0442
2985.00,0.0448
2984.00,0.0455
2983.00,0.0463
2982.00,0.0472
2981.00,0.0483
2980.00,0.0495
2979.00,0.0508
2978.00,0.0522
2977.00,0.0535
2976.00,0.0548
2975.00,0.0561
2974.00,0.0573
2973.00,0.0586
2972.00,0.0598
2971.00,0.0612
2970.00,0.0628
2969.00,0.0645
2968.00,0.0664
2967.00,0.0683
2966.00,0.0704
2965.00,0.0726
2964.00,0.0749
2963.00,0.0772
2962.00,0.0796
2961.00,0.0819
2960.00,0.0841
2959.00,0.0862
2958.00,0.0880
2957.00,0.0895
2956.00,0.0907
2955.00,0.0916
2954.00,0.0919
2953.00,0.0917
2952.00,0.0910
2951.00,0.0897
2950.00,0.0881
2949.00,0.0864
2948.00,0.0849
2947.00,0.0838
2946.00,0.0832
2945.00,0.0835
2944.00,0.0844
2943.00,0.0860
2942.00,0.0883
2941.00,0.0910
2940.00,0.0942
2939.00,0.0977
2938.00,0.1015
2937.00,0.1056
2936.00,0.1099
2935.00,0.1144
2934.00,0.1190
2933.00,0.1236
2932.00,0.1283
2931.00,0.1329
2930.00,0.1372
2929.00,0.1411
2928.00,0.1444
2927.00,0.1469
2926.00,0.1487
2925.00,0.1498
2924.00,0.1502
2923.00,0.1500
2922.00,0.1493
2921.00,0.1480
2920.00,0.1463
2919.00,0.1441
2918.00,0.1414
2917.00,0.1382
2916.00,0.1347
2915.00,0.1309
2914.00,0.1269
2913.00,0.1228
2912.00,0.1188
2911.00,0.1149
2910.00,0.1113
2909.00,0.1078
2908.00,0.1045
2907.00,0.1014
2906.00,0.0983
2905.00,0.0954
2904.00,0.0927
2903.00,0.0901
2902.00,0.0877
2901.00,0.0855
2900.00,0.0835
2899.00,0.0816
2898.00,0.0798
2897.00,0.0782
2896.00,0.0768
2895.00,0.0755
2894.00,0.0744
2893.00,0.0733
2892.00,0.0725
2891.00,0.0717
2890.00,0.0710
2889.00,0.0704
2888.00,0.0700
2887.00,0.0695
2886.00,0.0691
2885.00,0.0687
2884.00,0.0683
2883.00,0.0680
2882.00,0.0678
2881.00,0.0678
2880.00,0.0680
2879.00,0.0685
2878.00,0.0693
2877.00,0.0705
2876.00,0.0720
2875.00,0.0737
2874.00,0.0755
2873.00,0.0771
2872.00,0.0783
2871.00,0.0788
2870.00,0.0785
2869.00,0.0776
2868.00,0.0763
2867.00,0.0752
2866.00,0.0747
2865.00,0.0748
2864.00,0.0759
2863.00,0.0777
2862.00,0.0802
2861.00,0.0832
2860.00,0.0863
2859.00,0.0891
2858.00,0.0913
2857.00,0.0926
2856.00,0.0928
2855.00,0.0918
2854.00,0.0898
2853.00,0.0871
2852.00,0.0838
2851.00,0.0802
2850.00,0.0765
2849.00,0.0728
2848.00,0.0693
2847.00,0.0661
2846.00,0.0633
2845.00,0.0609
2844.00,0.0589
2843.00,0.0571
2842.00,0.0554
2841.00,0.0540
2840.00,0.0527
2839.00,0.0518
2838.00,0.0513
2837.00,0.0513
2836.00,0.0516
2835.00,0.0521
2834.00,0.0526
2833.00,0.0528
2832.00,0.0526
2831.00,0.0518
2830.00,0.0504
2829.00,0.0486
2828.00,0.0465
2827.00,0.0443
2826.00,0.0421
2825.00,0.0402
2824.00,0.0384
2823.00,0.0369
2822.00,0.0357
2821.00,0.0346
2820.00,0.0337
2819.00,0.0330
2818.00,0.0323
2817.00,0.0317
2816.00,0.0312
2815.00,0.0308
2814.00,0.0304
2813.00,0.0300
2812.00,0.0296
2811.00,0.0293
2810.00,0.0290
2809.00,0.0287
2808.00,0.0284
2807.00,0.0282
2806.00,0.0279
2805.00,0.0277
2804.00,0.0275
2803.00,0.0273
2802.00,0.0271
2801.00,0.0269
2800.00,0.0267
2799.00,0.0266
2798.00,0.0264
2797.00,0.0263
2796.00,0.0262
2795.00,0.0261
2794.00,0.0260
2793.00,0.0258
2792.00,0.0257
2791.00,0.0256
2790.00,0.0255
2789.00,0.0254
2788.00,0.0254
2787.00,0.0254
2786.00,0.0254
2785.00,0.0253
2784.00,0.0253
2783.00,0.0253
2782.00,0.0253
2781.00,0.0253
2780.00,0.0253
2779.00,0.0254
2778.00,0.0254
2777.00,0.0254
2776.00,0.0255
2775.00,0.0255
2774.00,0.0256
2773.00,0.0257
2772.00,0.0257
2771.00,0.0258
2770.00,0.0259
2769.00,0.0259
2768.00,0.0260
2767.00,0.0260
2766.00,0.0261
2765.00,0.0262
2764.00,0.0262
2763.00,0.0263
2762.00,0.0264
2761.00,0.0265
2760.00,0.0265
2759.00,0.0265
2758.00,0.0266
2757.00,0.0266
2756.00,0.0267
2755.00,0.0267
2754.00,0.0268
2753.00,0.0268
2752.00,0.0268
2751.00,0.0269
2750.00,0.0269
2749.00,0.0269
2748.00,0.0269
2747.00,0.0270
2746.00,0.0270
2745.00,0.0271
2744.00,0.0271
2743.00,0.0271
2742.00,0.0272
2741.00,0.0273
2740.00,0.0273
2739.00,0.0275
2738.00,0.0276
2737.00,0.0277
2736.00,0.0279
2735.00,0.0281
2734.00,0.0282
2733.00,0.0284
2732.00,0.0285
2731.00,0.0286
2730.00,0.0286
2729.00,0.0286
2728.00,0.0286
2727.00,0.0285
2726.00,0.0284
2725.00,0.0284
2724.00,0.0283
2723.00,0.0282
2722.00,0.0280
2721.00,0.0279
2720.00,0.0278
2719.00,0.0278
2718.00,0.0277
2717.00,0.0276
2716.00,0.0275
2715.00,0.0275
2714.00,0.0274
2713.00,0.0274
2712.00,0.0274
2711.00,0.0273
2710.00,0.0273
2709.00,0.0273
2708.00,0.0273
2707.00,0.0273
2706.00,0.0274
2705.00,0.0274
2704.00,0.0274
2703.00,0.0274
2702.00,0.0274
2701.00,0.0274
2700.00,0.0274
2699.00,0.0274
2698.00,0.0275
2697.00,0.0275
2696.00,0.0275
2695.00,0.0276
2694.00,0.0276
2693.00,0.0277
2692.00,0.0277
2691.00,0.0277
2690.00,0.0278
2689.00,0.0278
2688.00,0.0278
2687.00,0.0278
2686.00,0.0278
2685.00,0.0278
2684.00,0.0278
2683.00,0.0278
2682.00,0.0278
2681.00,0.0278
2680.00,0.0277
2679.00,0.0277
2678.00,0.0277
2677.00,0.0277
2676.00,0.0277
2675.00,0.0277
2674.00,0.0277
2673.00,0.0277
2672.00,0.0277
2671.00,0.0278
2670.00,0.0278
2669.00,0.0278
2668.00,0.0279
2667.00,0.0279
2666.00,0.0280
2665.00,0.0280
2664.00,0.0280
2663.00,0.0280
2662.00,0.0280
2661.00,0.0280
2660.00,0.0279
2659.00,0.0279
2658.00,0.0278
2657.00,0.0277
2656.00,0.0276
2655.00,0.0275
2654.00,0.0274
2653.00,0.0273
2652.00,0.0273
2651.00,0.0272
2650.00,0.0271
2649.00,0.0271
2648.00,0.0270
2647.00,0.0270
2646.00,0.0269
2645.00,0.0269
2644.00,0.0268
2643.00,0.0268
2642.00,0.0267
2641.00,0.0267
2640.00,0.0267
2639.00,0.0267
2638.00,0.0266
2637.00,0.0266
2636.00,0.0266
2635.00,0.0265
2634.00,0.0265
2633.00,0.0264
2632.00,0.0264
2631.00,0.0264
2630.00,0.0264
2629.00,0.0264
2628.00,0.0264
2627.00,0.0264
2626.00,0.0263
2625.00,0.0263
2624.00,0.0262
2623.00,0.0262
2622.00,0.0262
2621.00,0.0262
2620.00,0.0261
2619.00,0.0261
2618.00,0.0261
2617.00,0.0261
2616.00,0.0260
2615.00,0.0260
2614.00,0.0259
2613.00,0.0258
2612.00,0.0258
2611.00,0.0258
2610.00,0.0257
2609.00,0.0257
2608.00,0.0256
2607.00,0.0255
2606.00,0.0255
2605.00,0.0254
2604.00,0.0253
2603.00,0.0253
2602.00,0.0252
2601.00,0.0251
2600.00,0.0250
2599.00,0.0250
2598.00,0.0249
2597.00,0.0248
2596.00,0.0247
2595.00,0.0247
2594.00,0.0246
2593.00,0.0245
2592.00,0.0244
2591.00,0.0244
2590.00,0.0243
2589.00,0.0242
2588.00,0.0242
2587.00,0.0242
2586.00,0.0241
2585.00,0.0241
2584.00,0.0241
2583.00,0.0240
2582.00,0.0240
2581.00,0.0239
2580.00,0.0239
2579.00,0.0239
2578.00,0.0238
2577.00,0.0238
2576.00,0.0237
2575.00,0.0237
2574.00,0.0236
2573.00,0.0237
2572.00,0.0237
2571.00,0.0237
2570.00,0.0237
2569.00,0.0237
2568.00,0.0237
2567.00,0.0237
2566.00,0.0237
2565.00,0.0238
2564.00,0.0238
2563.00,0.0239
2562.00,0.0239
2561.00,0.0239
2560.00,0.0240
2559.00,0.0240
2558.00,0.0241
2557.00,0.0241
2556.00,0.0241
2555.00,0.0241
2554.00,0.0241
2553.00,0.0241
2552.00,0.0240
2551.00,0.0240
2550.00,0.0239
2549.00,0.0239
2548.00,0.0238
2547.00,0.0237
2546.00,0.0236
2545.00,0.0235
2544.00,0.0234
2543.00,0.0234
2542.00,0.0233
2541.00,0.0232
2540.00,0.0231
2539.00,0.0230
2538.00,0.0229
2537.00,0.0228
2536.00,0.0227
2535.00,0.0227
2534.00,0.0226
2533.00,0.0225
2532.00,0.0225
2531.00,0.0224
2530.00,0.0223
2529.00,0.0223
2528.00,0.0223
2527.00,0.0223
2526.00,0.0222
2525.00,0.0222
2524.00,0.0222
2523.00,0.0221
2522.00,0.0221
2521.00,0.0220
2520.00,0.0220
2519.00,0.0220
2518.00,0.0219
2517.00,0.0219
2516.00,0.0218
2515.00,0.0217
2514.00,0.0216
2513.00,0.0216
2512.00,0.0215
2511.00,0.0214
2510.00,0.0214
2509.00,0.0213
2508.00,0.0213
2507.00,0.0212
2506.00,0.0211
2505.00,0.0210
2504.00,0.0209
2503.00,0.0209
2502.00,0.0209
2501.00,0.0209
2500.00,0.0208
2499.00,0.0208
2498.00,0.0207
2497.00,0.0207
2496.00,0.0207
2495.00,0.0207
2494.00,0.0207
2493.00,0.0207
2492.00,0.0207
2491.00,0.0207
2490.00,0.0207
2489.00,0.0207
2488.00,0.0208
2487.00,0.0208
2486.00,0.0208
2485.00,0.0208
2484.00,0.0207
2483.00,0.0207
2482.00,0.0207
2481.00,0.0207
2480.00,0.0207
2479.00,0.0206
2478.00,0.0206
2477.00,0.0205
2476.00,0.0205
2475.00,0.0205
2474.00,0.0205
2473.00,0.0205
2472.00,0.0205
2471.00,0.0205
2470.00,0.0204
2469.00,0.0204
2468.00,0.0203
2467.00,0.0203
2466.00,0.0202
2465.00,0.0202
2464.00,0.0203
2463.00,0.0203
2462.00,0.0203
2461.00,0.0203
2460.00,0.0204
2459.00,0.0204
2458.00,0.0205
2457.00,0.0205
2456.00,0.0205
2455.00,0.0206
2454.00,0.0206
2453.00,0.0206
2452.00,0.0206
2451.00,0.0206
2450.00,0.0206
2449.00,0.0206
2448.00,0.0206
2447.00,0.0206
2446.00,0.0206
2445.00,0.0206
2444.00,0.0205
2443.00,0.0204
2442.00,0.0204
2441.00,0.0203
2440.00,0.0203
2439.00,0.0203
2438.00,0.0202
2437.00,0.0202
2436.00,0.0202
2435.00,0.0202
2434.00,0.0201
2433.00,0.0201
2432.00,0.0200
2431.00,0.0200
2430.00,0.0199
2429.00,0.0199
2428.00,0.0198
2427.00,0.0198
2426.00,0.0197
2425.00,0.0197
2424.00,0.0196
2423.00,0.0196
2422.00,0.0195
2421.00,0.0195
2420.00,0.0195
2419.00,0.0194
2418.00,0.0194
2417.00,0.0193
2416.00,0.0192
2415.00,0.0192
2414.00,0.0191
2413.00,0.0191
2412.00,0.0190
2411.00,0.0190
2410.00,0.0189
2409.00,0.0187
2408.00,0.0186
2407.00,0.0185
2406.00,0.0183
2405.00,0.0182
2404.00,0.0181
2403.00,0.0180
2402.00,0.0180
2401.00,0.0179
2400.00,0.0178
2399.00,0.0177
2398.00,0.0177
2397.00,0.0176
2396.00,0.0175
2395.00,0.0174
2394.00,0.0173
2393.00,0.0172
2392.00,0.0172
2391.00,0.0171
2390.00,0.0170
2389.00,0.0169
2388.00,0.0168
2387.00,0.0167
2386.00,0.0166
2385.00,0.0165
2384.00,0.0164
2383.00,0.0163
2382.00,0.0162
2381.00,0.0161
2380.00,0.0161
2379.00,0.0160
2378.00,0.0160
2377.00,0.0159
2376.00,0.0159
2375.00,0.0158
2374.00,0.0157
2373.00,0.0156
2372.00,0.0154
2371.00,0.0153
2370.00,0.0152
2369.00,0.0151
2368.00,0.0151
2367.00,0.0151
2366.00,0.0150
2365.00,0.0150
2364.00,0.0149
2363.00,0.0148
2362.00,0.0148
2361.00,0.0147
2360.00,0.0146
2359.00,0.0145
2358.00,0.0145
2357.00,0.0144
2356.00,0.0143
2355.00,0.0143
2354.00,0.0142
2353.00,0.0141
2352.00,0.0140
2351.00,0.0140
2350.00,0.0139
2349.00,0.0139
2348.00,0.0138
2347.00,0.0138
2346.00,0.0138
2345.00,0.0138
2344.00,0.0137
2343.00,0.0137
2342.00,0.0136
2341.00,0.0135
2340.00,0.0135
2339.00,0.0134
2338.00,0.0133
2337.00,0.0133
2336.00,0.0131
2335.00,0.0130
2334.00,0.0129
2333.00,0.0128
2332.00,0.0128
2331.00,0.0127
2330.00,0.0127
2329.00,0.0128
2328.00,0.0130
2327.00,0.0133
2326.00,0.0136
2325.00,0.0136
2324.00,0.0135
2323.00,0.0132
2322.00,0.0130
2321.00,0.0128
2320.00,0.0126
2319.00,0.0124
2318.00,0.0122
2317.00,0.0120
2316.00,0.0119
2315.00,0.0119
2314.00,0.0118
2313.00,0.0117
2312.00,0.0116
2311.00,0.0115
2310.00,0.0114
2309.00,0.0113
2308.00,0.0113
2307.00,0.0112
2306.00,0.0112
2305.00,0.0111
2304.00,0.0111
2303.00,0.0110
2302.00,0.0109
2301.00,0.0109
2300.00,0.0108
2299.00,0.0107
2298.00,0.0107
2297.00,0.0107
2296.00,0.0107
2295.00,0.0107
2294.00,0.0107
2293.00,0.0108
2292.00,0.0108
2291.00,0.0108
2290.00,0.0108
2289.00,0.0108
2288.00,0.0108
2287.00,0.0107
2286.00,0.0107
2285.00,0.0106
2284.00,0.0105
2283.00,0.0103
2282.00,0.0102
2281.00,0.0101
2280.00,0.0100
2279.00,0.0100
2278.00,0.0099
2277.00,0.0099
2276.00,0.0098
2275.00,0.0097
2274.00,0.0096
2273.00,0.0095
2272.00,0.0094
2271.00,0.0094
2270.00,0.0093
2269.00,0.0092
2268.00,0.0091
2267.00,0.0090
2266.00,0.0089
2265.00,0.0089
2264.00,0.0088
2263.00,0.0088
2262.00,0.0088
2261.00,0.0089
2260.00,0.0089
2259.00,0.0088
2258.00,0.0087
2257.00,0.0085
2256.00,0.0084
2255.00,0.0082
2254.00,0.0082
2253.00,0.0082
2252.00,0.0082
2251.00,0.0082
2250.00,0.0081
2249.00,0.0081
2248.00,0.0081
2247.00,0.0082
2246.00,0.0081
2245.00,0.0081
2244.00,0.0081
2243.00,0.0080
2242.00,0.0080
2241.00,0.0080
2240.00,0.0081
2239.00,0.0081
2238.00,0.0081
2237.00,0.0080
2236.00,0.0080
2235.00,0.0080
2234.00,0.0080
2233.00,0.0080
2232.00,0.0080
2231.00,0.0079
2230.00,0.0078
2229.00,0.0077
2228.00,0.0076
2227.00,0.0075
2226.00,0.0074
2225.00,0.0074
2224.00,0.0074
2223.00,0.0074
2222.00,0.0074
2221.00,0.0074
2220.00,0.0074
2219.00,0.0073
2218.00,0.0072
2217.00,0.0071
2216.00,0.0071
2215.00,0.0071
2214.00,0.0071
2213.00,0.0071
2212.00,0.0070
2211.00,0.0069
2210.00,0.0068
2209.00,0.0067
2208.00,0.0067
2207.00,0.0067
2206.00,0.0067
2205.00,0.0068
2204.00,0.0069
2203.00,0.0068
2202.00,0.0066
2201.00,0.0065
2200.00,0.0063
2199.00,0.0063
2198.00,0.0063
2197.00,0.0064
2196.00,0.0065
2195.00,0.0065
2194.00,0.0064
2193.00,0.0064
2192.00,0.0064
2191.00,0.0064
2190.00,0.0065
2189.00,0.0066
2188.00,0.0067
2187.00,0.0068
2186.00,0.0067
2185.00,0.0066
2184.00,0.0063
2183.00,0.0060
2182.00,0.0057
2181.00,0.0057
2180.00,0.0058
2179.00,0.0058
2178.00,0.0056
2177.00,0.0054
2176.00,0.0053
2175.00,0.0053
2174.00,0.0054
2173.00,0.0057
2172.00,0.0059
2171.00,0.0061
2170.00,0.0062
2169.00,0.0063
2168.00,0.0065
2167.00,0.0065
2166.00,0.0066
2165.00,0.0067
2164.00,0.0070
2163.00,0.0070
2162.00,0.0065
2161.00,0.0054
2160.00,0.0039
2159.00,0.0026
2158.00,0.0019
2157.00,0.0018
2156.00,0.0020
2155.00,0.0023
2154.00,0.0025
2153.00,0.0028
2152.00,0.0031
2151.00,0.0031
2150.00,0.0029
2149.00,0.0028
2148.00,0.0027
2147.00,0.0027
2146.00,0.0026
2145.00,0.0027
2144.00,0.0028
2143.00,0.0029
2142.00,0.0029
2141.00,0.0029
2140.00,0.0029
2139.00,0.0028
2138.00,0.0027
2137.00,0.0026
2136.00,0.0025
2135.00,0.0023
2134.00,0.0022
2133.00,0.0022
2132.00,0.0024
2131.00,0.0026
2130.00,0.0028
2129.00,0.0030
2128.00,0.0031
2127.00,0.0031
2126.00,0.0032
2125.00,0.0033
2124.00,0.0034
2123.00,0.0035
2122.00,0.0036
2121.00,0.0036
2120.00,0.0037
2119.00,0.0038
2118.00,0.0039
2117.00,0.0041
2116.00,0.0042
2115.00,0.0042
2114.00,0.0041
2113.00,0.0040
2112.00,0.0039
2111.00,0.0039
2110.00,0.0037
2109.00,0.0036
2108.00,0.0036
2107.00,0.0035
2106.00,0.0034
2105.00,0.0034
2104.00,0.0034
2103.00,0.0034
2102.00,0.0034
2101.00,0.0035
2100.00,0.0035
2099.00,0.0035
2098.00,0.0034
2097.00,0.0032
2096.00,0.0031
2095.00,0.0030
2094.00,0.0030
2093.00,0.0031
2092.00,0.0033
2091.00,0.0033
2090.00,0.0034
2089.00,0.0035
2088.00,0.0036
2087.00,0.0037
2086.00,0.0037
2085.00,0.0038
2084.00,0.0038
2083.00,0.0038
2082.00,0.0037
2081.00,0.0037
2080.00,0.0037
2079.00,0.0037
2078.00,0.0036
2077.00,0.0034
2076.00,0.0033
2075.00,0.0032
2074.00,0.0030
2073.00,0.0029
2072.00,0.0029
2071.00,0.0029
2070.00,0.0028
2069.00,0.0027
2068.00,0.0026
2067.00,0.0025
2066.00,0.0024
2065.00,0.0024
2064.00,0.0024
2063.00,0.0024
2062.00,0.0023
2061.00,0.0022
2060.00,0.0022
2059.00,0.0022
2058.00,0.0022
2057.00,0.0022
2056.00,0.0021
2055.00,0.0022
2054.00,0.0025
2053.00,0.0031
2052.00,0.0036
2051.00,0.0036
2050.00,0.0033
2049.00,0.0029
2048.00,0.0026
2047.00,0.0025
2046.00,0.0024
2045.00,0.0025
2044.00,0.0025
2043.00,0.0025
2042.00,0.0024
2041.00,0.0024
2040.00,0.0024
2039.00,0.0024
2038.00,0.0023
2037.00,0.0023
2036.00,0.0023
2035.00,0.0021
2034.00,0.0019
2033.00,0.0018
2032.00,0.0019
2031.00,0.0020
2030.00,0.0019
2029.00,0.0020
2028.00,0.0020
2027.00,0.0020
2026.00,0.0018
2025.00,0.0017
2024.00,0.0018
2023.00,0.0018
2022.00,0.0018
2021.00,0.0018
2020.00,0.0019
2019.00,0.0020
2018.00,0.0020
2017.00,0.0020
2016.00,0.0021
2015.00,0.0021
2014.00,0.0019
2013.00,0.0019
2012.00,0.0019
2011.00,0.0019
2010.00,0.0017
2009.00,0.0016
2008.00,0.0015
2007.00,0.0012
2006.00,0.0010
2005.00,0.0010
2004.00,0.0012
2003.00,0.0015
2002.00,0.0016
2001.00,0.0019
2000.00,0.0021
1999.00,0.0023
1998.00,0.0024
1997.00,0.0025
1996.00,0.0026
1995.00,0.0027
1994.00,0.0027
1993.00,0.0027
1992.00,0.0028
1991.00,0.0029
1990.00,0.0030
1989.00,0.0032
1988.00,0.0034
1987.00,0.0034
1986.00,0.0034
1985.00,0.0035
1984.00,0.0038
1983.00,0.0041
1982.00,0.0043
1981.00,0.0043
1980.00,0.0041
1979.00,0.0035
1978.00,0.0027
1977.00,0.0022
1976.00,0.0019
1975.00,0.0017
1974.00,0.0014
1973.00,0.0013
1972.00,0.0014
1971.00,0.0014
1970.00,0.0015
1969.00,0.0016
1968.00,0.0017
1967.00,0.0017
1966.00,0.0017
1965.00,0.0018
1964.00,0.0019
1963.00,0.0019
1962.00,0.0018
1961.00,0.0018
1960.00,0.0019
1959.00,0.0018
1958.00,0.0018
1957.00,0.0018
1956.00,0.0020
1955.00,0.0021
1954.00,0.0021
1953.00,0.0022
1952.00,0.0023
1951.00,0.0023
1950.00,0.0022
1949.00,0.0022
1948.00,0.0023
1947.00,0.0023
1946.00,0.0023
1945.00,0.0024
1944.00,0.0024
1943.00,0.0024
1942.00,0.0023
1941.00,0.0023
1940.00,0.0024
1939.00,0.0025
1938.00,0.0025
1937.00,0.0025
1936.00,0.0026
1935.00,0.0026
1934.00,0.0025
1933.00,0.0025
1932.00,0.0025
1931.00,0.0025
1930.00,0.0025
1929.00,0.0025
1928.00,0.0025
1927.00,0.0025
1926.00,0.0024
1925.00,0.0025
1924.00,0.0027
1923.00,0.0028
1922.00,0.0029
1921.00,0.0030
1920.00,0.0030
1919.00,0.0029
1918.00,0.0029
1917.00,0.0029
1916.00,0.0029
1915.00,0.0029
1914.00,0.0029
1913.00,0.0029
1912.00,0.0029
1911.00,0.0029
1910.00,0.0028
1909.00,0.0028
1908.00,0.0029
1907.00,0.0029
1906.00,0.0028
1905.00,0.0028
1904.00,0.0028
1903.00,0.0028
1902.00,0.0028
1901.00,0.0028
1900.00,0.0029
1899.00,0.0029
1898.00,0.0029
1897.00,0.0030
1896.00,0.0030
1895.00,0.0030
1894.00,0.0030
1893.00,0.0030
1892.00,0.0030
1891.00,0.0030
1890.00,0.0030
1889.00,0.0030
1888.00,0.0031
1887.00,0.0031
1886.00,0.0031
1885.00,0.0031
1884.00,0.0032
1883.00,0.0032
1882.00,0.0032
1881.00,0.0032
1880.00,0.0032
1879.00,0.0032
1878.00,0.0032
1877.00,0.0032
1876.00,0.0033
1875.00,0.0033
1874.00,0.0033
1873.00,0.0033
1872.00,0.0034
1871.00,0.0034
1870.00,0.0033
1869.00,0.0033
1868.00,0.0033
1867.00,0.0034
1866.00,0.0033
1865.00,0.0034
1864.00,0.0034
1863.00,0.0034
1862.00,0.0034
1861.00,0.0034
1860.00,0.0034
1859.00,0.0034
1858.00,0.0034
1857.00,0.0034
1856.00,0.0034
1855.00,0.0034
1854.00,0.0034
1853.00,0.0034
1852.00,0.0034
1851.00,0.0034
1850.00,0.0034
1849.00,0.0035
1848.00,0.0036
1847.00,0.0036
1846.00,0.0037
1845.00,0.0037
1844.00,0.0037
1843.00,0.0037
1842.00,0.0037
1841.00,0.0037
1840.00,0.0037
1839.00,0.0037
1838.00,0.0037
1837.00,0.0038
1836.00,0.0038
1835.00,0.0039
1834.00,0.0038
1833.00,0.0039
1832.00,0.0039
1831.00,0.0039
1830.00,0.0038
1829.00,0.0038
1828.00,0.0038
1827.00,0.0038
1826.00,0.0038
1825.00,0.0038
1824.00,0.0039
1823.00,0.0040
1822.00,0.0039
1821.00,0.0039
1820.00,0.0038
1819.00,0.0038
1818.00,0.0037
1817.00,0.0037
1816.00,0.0038
1815.00,0.0038
1814.00,0.0039
1813.00,0.0040
1812.00,0.0041
1811.00,0.0041
1810.00,0.0041
1809.00,0.0042
1808.00,0.0043
1807.00,0.0043
1806.00,0.0044
1805.00,0.0044
1804.00,0.0045
1803.00,0.0045
1802.00,0.0046
1801.00,0.0047
1800.00,0.0048
1799.00,0.0049
1798.00,0.0050
1797.00,0.0051
1796.00,0.0052
1795.00,0.0053
1794.00,0.0054
1793.00,0.0056
1792.00,0.0058
1791.00,0.0060
1790.00,0.0062
1789.00,0.0064
1788.00,0.0065
1787.00,0.0066
1786.00,0.0067
1785.00,0.0067
1784.00,0.0068
1783.00,0.0067
1782.00,0.0066
1781.00,0.0065
1780.00,0.0064
1779.00,0.0064
1778.00,0.0063
1777.00,0.0063
1776.00,0.0064
1775.00,0.0064
1774.00,0.0063
1773.00,0.0063
1772.00,0.0062
1771.00,0.0061
1770.00,0.0061
1769.00,0.0061
1768.00,0.0061
1767.00,0.0061
1766.00,0.0061
1765.00,0.0061
1764.00,0.0061
1763.00,0.0061
1762.00,0.0061
1761.00,0.0061
1760.00,0.0061
1759.00,0.0061
1758.00,0.0061
1757.00,0.0060
1756.00,0.0061
1755.00,0.0061
1754.00,0.0061
1753.00,0.0061
1752.00,0.0061
1751.00,0.0061
1750.00,0.0061
1749.00,0.0062
1748.00,0.0063
1747.00,0.0063
1746.00,0.0063
1745.00,0.0063
1744.00,0.0063
1743.00,0.0064
1742.00,0.0064
1741.00,0.0064
1740.00,0.0065
1739.00,0.0065
1738.00,0.0065
1737.00,0.0066
1736.00,0.0067
1735.00,0.0068
1734.00,0.0068
1733.00,0.0069
1732.00,0.0071
1731.00,0.0072
1730.00,0.0073
1729.00,0.0073
1728.00,0.0075
1727.00,0.0075
1726.00,0.0076
1725.00,0.0076
1724.00,0.0077
1723.00,0.0078
1722.00,0.0079
1721.00,0.0079
1720.00,0.0080
1719.00,0.0081
1718.00,0.0082
1717.00,0.0083
1716.00,0.0084
1715.00,0.0086
1714.00,0.0087
1713.00,0.0089
1712.00,0.0090
1711.00,0.0091
1710.00,0.0092
1709.00,0.0093
1708.00,0.0094
1707.00,0.0096
1706.00,0.0096
1705.00,0.0098
1704.00,0.0099
1703.00,0.0101
1702.00,0.0102
1701.00,0.0103
1700.00,0.0106
1699.00,0.0108
1698.00,0.0109
1697.00,0.0110
1696.00,0.0112
1695.00,0.0114
1694.00,0.0116
1693.00,0.0117
1692.00,0.0120
1691.00,0.0122
1690.00,0.0124
1689.00,0.0127
1688.00,0.0130
1687.00,0.0132
1686.00,0.0135
1685.00,0.0138
1684.00,0.0144
1683.00,0.0150
1682.00,0.0155
1681.00,0.0159
1680.00,0.0164
1679.00,0.0169
1678.00,0.0173
1677.00,0.0178
1676.00,0.0186
1675.00,0.0195
1674.00,0.0204
1673.00,0.0212
1672.00,0.0222
1671.00,0.0233
1670.00,0.0247
1669.00,0.0264
1668.00,0.0282
1667.00,0.0298
1666.00,0.0312
1665.00,0.0326
1664.00,0.0345
1663.00,0.0366
1662.00,0.0388
1661.00,0.0409
1660.00,0.0431
1659.00,0.0452
1658.00,0.0473
1657.00,0.0493
1656.00,0.0513
1655.00,0.0537
1654.00,0.0575
1653.00,0.0631
1652.00,0.0684
1651.00,0.0721
1650.00,0.0750
1649.00,0.0785
1648.00,0.0842
1647.00,0.0925
1646.00,0.1021
1645.00,0.1113
1644.00,0.1194
1643.00,0.1266
1642.00,0.1331
1641.00,0.1389
1640.00,0.1441
1639.00,0.1485
1638.00,0.1530
1637.00,0.1590
1636.00,0.1679
1635.00,0.1779
1634.00,0.1859
1633.00,0.1913
1632.00,0.1950
1631.00,0.1973
1630.00,0.1979
1629.00,0.1964
1628.00,0.1928
1627.00,0.1873
1626.00,0.1805
1625.00,0.1726
1624.00,0.1636
1623.00,0.1542
1622.00,0.1453
1621.00,0.1375
1620.00,0.1307
1619.00,0.1242
1618.00,0.1177
1617.00,0.1111
1616.00,0.1051
1615.00,0.1002
1614.00,0.0961
1613.00,0.0924
1612.00,0.0889
1611.00,0.0857
1610.00,0.0828
1609.00,0.0803
1608.00,0.0781
1607.00,0.0763
1606.00,0.0748
1605.00,0.0736
1604.00,0.0729
1603.00,0.0725
1602.00,0.0725
1601.00,0.0730
1600.00,0.0740
1599.00,0.0755
1598.00,0.0776
1597.00,0.0807
1596.00,0.0847
1595.00,0.0900
1594.00,0.0967
1593.00,0.1051
1592.00,0.1151
1591.00,0.1265
1590.00,0.1391
1589.00,0.1523
1588.00,0.1652
1587.00,0.1772
1586.00,0.1876
1585.00,0.1961
1584.00,0.2028
1583.00,0.2073
1582.00,0.2098
1581.00,0.2107
1580.00,0.2103
1579.00,0.2089
1578.00,0.2066
1577.00,0.2037
1576.00,0.2007
1575.00,0.1973
1574.00,0.1933
1573.00,0.1889
1572.00,0.1843
1571.00,0.1791
1570.00,0.1731
1569.00,0.1671
1568.00,0.1615
1567.00,0.1561
1566.00,0.1506
1565.00,0.1449
1564.00,0.1395
1563.00,0.1346
1562.00,0.1300
1561.00,0.1254
1560.00,0.1201
1559.00,0.1144
1558.00,0.1092
1557.00,0.1051
1556.00,0.1016
1555.00,0.0979
1554.00,0.0942
1553.00,0.0907
1552.00,0.0875
1551.00,0.0846
1550.00,0.0817
1549.00,0.0789
1548.00,0.0765
1547.00,0.0743
1546.00,0.0721
1545.00,0.0701
1544.00,0.0683
1543.00,0.0667
1542.00,0.0652
1541.00,0.0638
1540.00,0.0626
1539.00,0.0616
1538.00,0.0608
1537.00,0.0601
1536.00,0.0594
1535.00,0.0589
1534.00,0.0588
1533.00,0.0591
1532.00,0.0596
1531.00,0.0603
1530.00,0.0611
1529.00,0.0623
1528.00,0.0639
1527.00,0.0657
1526.00,0.0676
1525.00,0.0690
1524.00,0.0700
1523.00,0.0704
1522.00,0.0704
1521.00,0.0701
1520.00,0.0692
1519.00,0.0678
1518.00,0.0657
1517.00,0.0633
1516.00,0.0609
1515.00,0.0587
1514.00,0.0567
1513.00,0.0547
1512.00,0.0529
1511.00,0.0511
1510.00,0.0495
1509.00,0.0480
1508.00,0.0465
1507.00,0.0449
1506.00,0.0434
1505.00,0.0422
1504.00,0.0413
1503.00,0.0404
1502.00,0.0394
1501.00,0.0386
1500.00,0.0378
1499.00,0.0371
1498.00,0.0364
1497.00,0.0358
1496.00,0.0353
1495.00,0.0349
1494.00,0.0344
1493.00,0.0340
1492.00,0.0337
1491.00,0.0335
1490.00,0.0333
1489.00,0.0332
1488.00,0.0333
1487.00,0.0334
1486.00,0.0335
1485.00,0.0337
1484.00,0.0341
1483.00,0.0347
1482.00,0.0354
1481.00,0.0364
1480.00,0.0376
1479.00,0.0389
1478.00,0.0403
1477.00,0.0419
1476.00,0.0438
1475.00,0.0458
1474.00,0.0482
1473.00,0.0521
1472.00,0.0575
1471.00,0.0635
1470.00,0.0689
1469.00,0.0734
1468.00,0.0766
1467.00,0.0783
1466.00,0.0787
1465.00,0.0790
1464.00,0.0802
1463.00,0.0825
1462.00,0.0857
1461.00,0.0897
1460.00,0.0946
1459.00,0.1007
1458.00,0.1091
1457.00,0.1203
1456.00,0.1317
1455.00,0.1409
1454.00,0.1493
1453.00,0.1589
1452.00,0.1702
1451.00,0.1825
1450.00,0.1949
1449.00,0.2076
1448.00,0.2198
1447.00,0.2303
1446.00,0.2386
1445.00,0.2453
1444.00,0.2504
1443.00,0.2535
1442.00,0.2541
1441.00,0.2523
1440.00,0.2481
1439.00,0.2418
1438.00,0.2343
1437.00,0.2261
1436.00,0.2180
1435.00,0.2104
1434.00,0.2033
1433.00,0.1961
1432.00,0.1884
1431.00,0.1797
1430.00,0.1705
1429.00,0.1612
1428.00,0.1523
1427.00,0.1439
1426.00,0.1359
1425.00,0.1283
1424.00,0.1212
1423.00,0.1151
1422.00,0.1101
1421.00,0.1059
1420.00,0.1021
1419.00,0.0991
1418.00,0.0967
1417.00,0.0949
1416.00,0.0935
1415.00,0.0923
1414.00,0.0915
1413.00,0.0909
1412.00,0.0905
1411.00,0.0904
1410.00,0.0904
1409.00,0.0906
1408.00,0.0908
1407.00,0.0912
1406.00,0.0919
1405.00,0.0926
1404.00,0.0934
1403.00,0.0941
1402.00,0.0946
1401.00,0.0949
1400.00,0.0952
1399.00,0.0954
1398.00,0.0955
1397.00,0.0953
1396.00,0.0948
1395.00,0.0942
1394.00,0.0935
1393.00,0.0926
1392.00,0.0916
1391.00,0.0906
1390.00,0.0896
1389.00,0.0889
1388.00,0.0884
1387.00,0.0883
1386.00,0.0889
1385.00,0.0901
1384.00,0.0925
1383.00,0.0965
1382.00,0.1022
1381.00,0.1093
1380.00,0.1170
1379.00,0.1242
1378.00,0.1295
1377.00,0.1321
1376.00,0.1316
1375.00,0.1282
1374.00,0.1228
1373.00,0.1169
1372.00,0.1121
1371.00,0.1090
1370.00,0.1076
1369.00,0.1074
1368.00,0.1077
1367.00,0.1077
1366.00,0.1068
1365.00,0.1051
1364.00,0.1029
1363.00,0.1007
1362.00,0.0991
1361.00,0.0981
1360.00,0.0978
1359.00,0.0981
1358.00,0.0992
1357.00,0.1011
1356.00,0.1039
1355.00,0.1074
1354.00,0.1114
1353.00,0.1153
1352.00,0.1189
1351.00,0.1219
1350.00,0.1241
1349.00,0.1253
1348.00,0.1251
1347.00,0.1235
1346.00,0.1210
1345.00,0.1180
1344.00,0.1153
1343.00,0.1133
1342.00,0.1121
1341.00,0.1119
1340.00,0.1128
1339.00,0.1145
1338.00,0.1168
1337.00,0.1189
1336.00,0.1203
1335.00,0.1206
1334.00,0.1194
1333.00,0.1171
1332.00,0.1141
1331.00,0.1113
1330.00,0.1093
1329.00,0.1085
1328.00,0.1091
1327.00,0.1112
1326.00,0.1147
1325.00,0.1195
1324.00,0.1255
1323.00,0.1326
1322.00,0.1402
1321.00,0.1479
1320.00,0.1546
1319.00,0.1592
1318.00,0.1609
1317.00,0.1594
1316.00,0.1552
1315.00,0.1493
1314.00,0.1425
1313.00,0.1358
1312.00,0.1298
1311.00,0.1249
1310.00,0.1214
1309.00,0.1195
1308.00,0.1191
1307.00,0.1197
1306.00,0.1207
1305.00,0.1209
1304.00,0.1199
1303.00,0.1176
1302.00,0.1145
1301.00,0.1113
1300.00,0.1087
1299.00,0.1068
1298.00,0.1057
1297.00,0.1052
1296.00,0.1049
1295.00,0.1047
1294.00,0.1048
1293.00,0.1053
1292.00,0.1066
1291.00,0.1088
1290.00,0.1118
1289.00,0.1153
1288.00,0.1189
1287.00,0.1224
1286.00,0.1259
1285.00,0.1296
1284.00,0.1337
1283.00,0.1382
1282.00,0.1425
1281.00,0.1461
1280.00,0.1479
1279.00,0.1473
1278.00,0.1441
1277.00,0.1386
1276.00,0.1315
1275.00,0.1237
1274.00,0.1159
1273.00,0.1086
1272.00,0.1021
1271.00,0.0963
1270.00,0.0911
1269.00,0.0864
1268.00,0.0820
1267.00,0.0781
1266.00,0.0746
1265.00,0.0715
1264.00,0.0689
1263.00,0.0668
1262.00,0.0653
1261.00,0.0643
1260.00,0.0638
1259.00,0.0642
1258.00,0.0654
1257.00,0.0676
1256.00,0.0709
1255.00,0.0752
1254.00,0.0801
1253.00,0.0851
1252.00,0.0895
1251.00,0.0935
1250.00,0.0974
1249.00,0.1022
1248.00,0.1087
1247.00,0.1168
1246.00,0.1260
1245.00,0.1348
1244.00,0.1417
1243.00,0.1455
1242.00,0.1459
1241.00,0.1434
1240.00,0.1389
1239.00,0.1333
1238.00,0.1274
1237.00,0.1217
1236.00,0.1163
1235.00,0.1116
1234.00,0.1079
1233.00,0.1055
1232.00,0.1048
1231.00,0.1056
1230.00,0.1075
1229.00,0.1096
1228.00,0.1111
1227.00,0.1117
1226.00,0.1112
1225.00,0.1101
1224.00,0.1089
1223.00,0.1083
1222.00,0.1083
1221.00,0.1092
1220.00,0.1105
1219.00,0.1116
1218.00,0.1119
1217.00,0.1109
1216.00,0.1090
1215.00,0.1066
1214.00,0.1043
1213.00,0.1027
1212.00,0.1024
1211.00,0.1041
1210.00,0.1081
1209.00,0.1148
1208.00,0.1237
1207.00,0.1335
1206.00,0.1418
1205.00,0.1466
1204.00,0.1464
1203.00,0.1416
1202.00,0.1332
1201.00,0.1229
1200.00,0.1124
1199.00,0.1025
1198.00,0.0939
1197.00,0.0867
1196.00,0.0809
1195.00,0.0764
1194.00,0.0733
1193.00,0.0713
1192.00,0.0702
1191.00,0.0696
1190.00,0.0693
1189.00,0.0688
1188.00,0.0683
1187.00,0.0676
1186.00,0.0670
1185.00,0.0667
1184.00,0.0666
1183.00,0.0671
1182.00,0.0683
1181.00,0.0707
1180.00,0.0744
1179.00,0.0797
1178.00,0.0862
1177.00,0.0934
1176.00,0.1009
1175.00,0.1084
1174.00,0.1159
1173.00,0.1227
1172.00,0.1276
1171.00,0.1292
1170.00,0.1267
1169.00,0.1206
1168.00,0.1123
1167.00,0.1032
1166.00,0.0945
1165.00,0.0868
1164.00,0.0803
1163.00,0.0750
1162.00,0.0709
1161.00,0.0679
1160.00,0.0656
1159.00,0.0642
1158.00,0.0635
1157.00,0.0636
1156.00,0.0647
1155.00,0.0670
1154.00,0.0711
1153.00,0.0777
1152.00,0.0871
1151.00,0.0987
1150.00,0.1101
1149.00,0.1178
1148.00,0.1182
1147.00,0.1107
1146.00,0.0975
1145.00,0.0827
1144.00,0.0695
1143.00,0.0593
1142.00,0.0522
1141.00,0.0475
1140.00,0.0447
1139.00,0.0432
1138.00,0.0424
1137.00,0.0421
1136.00,0.0417
1135.00,0.0412
1134.00,0.0403
1133.00,0.0390
1132.00,0.0375
1131.00,0.0359
1130.00,0.0344
1129.00,0.0329
1128.00,0.0316
1127.00,0.0304
1126.00,0.0294
1125.00,0.0286
1124.00,0.0279
1123.00,0.0273
1122.00,0.0269
1121.00,0.0266
1120.00,0.0263
1119.00,0.0263
1118.00,0.0263
1117.00,0.0266
1116.00,0.0269
1115.00,0.0274
1114.00,0.0281
1113.00,0.0288
1112.00,0.0296
1111.00,0.0306
1110.00,0.0316
1109.00,0.0328
1108.00,0.0340
1107.00,0.0353
1106.00,0.0367
1105.00,0.0383
1104.00,0.0402
1103.00,0.0425
1102.00,0.0450
1101.00,0.0474
1100.00,0.0490
1099.00,0.0496
1098.00,0.0491
1097.00,0.0479
1096.00,0.0462
1095.00,0.0446
1094.00,0.0430
1093.00,0.0416
1092.00,0.0402
1091.00,0.0390
1090.00,0.0380
1089.00,0.0374
1088.00,0.0371
1087.00,0.0373
1086.00,0.0378
1085.00,0.0385
1084.00,0.0391
1083.00,0.0396
1082.00,0.0399
1081.00,0.0399
1080.00,0.0396
1079.00,0.0391
1078.00,0.0382
1077.00,0.0372
1076.00,0.0361
1075.00,0.0351
1074.00,0.0343
1073.00,0.0337
1072.00,0.0332
1071.00,0.0329
1070.00,0.0329
1069.00,0.0332
1068.00,0.0337
1067.00,0.0346
1066.00,0.0358
1065.00,0.0375
1064.00,0.0398
1063.00,0.0428
1062.00,0.0467
1061.00,0.0516
1060.00,0.0577
1059.00,0.0655
1058.00,0.0753
1057.00,0.0874
1056.00,0.1014
1055.00,0.1158
1054.00,0.1276
1053.00,0.1338
1052.00,0.1329
1051.00,0.1256
1050.00,0.1144
1049.00,0.1023
1048.00,0.0915
1047.00,0.0833
1046.00,0.0779
1045.00,0.0751
1044.00,0.0746
1043.00,0.0759
1042.00,0.0788
1041.00,0.0832
1040.00,0.0893
1039.00,0.0974
1038.00,0.1076
1037.00,0.1199
1036.00,0.1334
1035.00,0.1467
1034.00,0.1587
1033.00,0.1683
1032.00,0.1751
1031.00,0.1790
1030.00,0.1801
1029.00,0.1787
1028.00,0.1749
1027.00,0.1689
1026.00,0.1612
1025.00,0.1523
1024.00,0.1431
1023.00,0.1344
1022.00,0.1267
1021.00,0.1204
1020.00,0.1151
1019.00,0.1105
1018.00,0.1058
1017.00,0.1008
1016.00,0.0956
1015.00,0.0905
1014.00,0.0857
1013.00,0.0816
1012.00,0.0781
1011.00,0.0753
1010.00,0.0731
1009.00,0.0712
1008.00,0.0692
1007.00,0.0670
1006.00,0.0647
1005.00,0.0626
1004.00,0.0613
1003.00,0.0615
1002.00,0.0632
1001.00,0.0662
1000.00,0.0694
999.00,0.0715
998.00,0.0713
997.00,0.0685
996.00,0.0642
995.00,0.0598
994.00,0.0562
993.00,0.0537
992.00,0.0524
991.00,0.0519
990.00,0.0521
989.00,0.0526
988.00,0.0534
987.00,0.0540
986.00,0.0543
985.00,0.0539
984.00,0.0528
983.00,0.0510
982.00,0.0489
981.00,0.0466
980.00,0.0446
979.00,0.0430
978.00,0.0417
977.00,0.0407
976.00,0.0400
975.00,0.0396
974.00,0.0395
973.00,0.0398
972.00,0.0402
971.00,0.0409
970.00,0.0416
969.00,0.0424
968.00,0.0432
967.00,0.0444
966.00,0.0461
965.00,0.0485
964.00,0.0515
963.00,0.0549
962.00,0.0582
961.00,0.0605
960.00,0.0616
959.00,0.0614
958.00,0.0599
957.00,0.0575
956.00,0.0547
955.00,0.0519
954.00,0.0493
953.00,0.0471
952.00,0.0454
951.00,0.0441
950.00,0.0431
949.00,0.0424
948.00,0.0420
947.00,0.0417
946.00,0.0415
945.00,0.0413
944.00,0.0411
943.00,0.0409
942.00,0.0404
941.00,0.0398
940.00,0.0390
939.00,0.0381
938.00,0.0372
937.00,0.0366
936.00,0.0362
935.00,0.0362
934.00,0.0366
933.00,0.0373
932.00,0.0383
931.00,0.0396
930.00,0.0411
929.00,0.0426
928.00,0.0441
927.00,0.0453
926.00,0.0463
925.00,0.0469
924.00,0.0474
923.00,0.0482
922.00,0.0494
921.00,0.0511
920.00,0.0533
919.00,0.0558
918.00,0.0584
917.00,0.0612
916.00,0.0641
915.00,0.0666
914.00,0.0682
913.00,0.0682
912.00,0.0667
911.00,0.0643
910.00,0.0621
909.00,0.0609
908.00,0.0611
907.00,0.0629
906.00,0.0665
905.00,0.0715
904.00,0.0772
903.00,0.0825
902.00,0.0863
901.00,0.0879
900.00,0.0877
899.00,0.0867
898.00,0.0860
897.00,0.0870
896.00,0.0910
895.00,0.0994
894.00,0.1130
893.00,0.1315
892.00,0.1523
891.00,0.1708
890.00,0.1824
889.00,0.1851
888.00,0.1808
887.00,0.1737
886.00,0.1668
885.00,0.1603
884.00,0.1525
883.00,0.1424
882.00,0.1307
881.00,0.1189
880.00,0.1087
879.00,0.1005
878.00,0.0942
877.00,0.0895
876.00,0.0859
875.00,0.0833
874.00,0.0815
873.00,0.0806
872.00,0.0806
871.00,0.0814
870.00,0.0830
869.00,0.0853
868.00,0.0887
867.00,0.0936
866.00,0.1002
865.00,0.1086
864.00,0.1183
863.00,0.1280
862.00,0.1359
861.00,0.1404
860.00,0.1416
859.00,0.1406
858.00,0.1388
857.00,0.1372
856.00,0.1355
855.00,0.1331
854.00,0.1299
853.00,0.1260
852.00,0.1222
851.00,0.1191
850.00,0.1169
849.00,0.1158
848.00,0.1156
847.00,0.1159
846.00,0.1165
845.00,0.1170
844.00,0.1173
843.00,0.1173
842.00,0.1173
841.00,0.1178
840.00,0.1191
839.00,0.1210
838.00,0.1226
837.00,0.1229
836.00,0.1215
835.00,0.1185
834.00,0.1149
833.00,0.1116
832.00,0.1093
831.00,0.1081
830.00,0.1078
829.00,0.1073
828.00,0.1058
827.00,0.1028
826.00,0.0981
825.00,0.0926
824.00,0.0870
823.00,0.0818
822.00,0.0774
821.00,0.0737
820.00,0.0705
819.00,0.0677
818.00,0.0653
817.00,0.0634
816.00,0.0620
815.00,0.0611
814.00,0.0609
813.00,0.0611
812.00,0.0616
811.00,0.0624
810.00,0.0636
809.00,0.0657
808.00,0.0694
807.00,0.0752
806.00,0.0828
805.00,0.0907
804.00,0.0965
803.00,0.0986
802.00,0.0970
801.00,0.0936
800.00,0.0904
799.00,0.0890
798.00,0.0897
797.00,0.0921
796.00,0.0953
795.00,0.0977
794.00,0.0983
793.00,0.0964
792.00,0.0924
791.00,0.0871
790.00,0.0817
789.00,0.0769
788.00,0.0731
787.00,0.0703
786.00,0.0684
785.00,0.0668
784.00,0.0654
783.00,0.0640
782.00,0.0626
781.00,0.0615
780.00,0.0608
779.00,0.0606
778.00,0.0608
777.00,0.0615
776.00,0.0624
775.00,0.0635
774.00,0.0647
773.00,0.0659
772.00,0.0668
771.00,0.0672
770.00,0.0672
769.00,0.0666
768.00,0.0656
767.00,0.0643
766.00,0.0628
765.00,0.0612
764.00,0.0597
763.00,0.0583
762.00,0.0572
761.00,0.0564
760.00,0.0558
759.00,0.0556
758.00,0.0557
757.00,0.0562
756.00,0.0568
755.00,0.0575
754.00,0.0581
753.00,0.0581
752.00,0.0576
751.00,0.0565
750.00,0.0552
749.00,0.0539
748.00,0.0527
747.00,0.0515
746.00,0.0505
745.00,0.0496
744.00,0.0492
743.00,0.0492
742.00,0.0498
741.00,0.0509
740.00,0.0528
739.00,0.0554
738.00,0.0587
737.00,0.0625
736.00,0.0666
735.00,0.0706
734.00,0.0736
733.00,0.0749
732.00,0.0741
731.00,0.0715
730.00,0.0679
729.00,0.0642
728.00,0.0610
727.00,0.0585
726.00,0.0566
725.00,0.0552
724.00,0.0540
723.00,0.0530
722.00,0.0521
721.00,0.0513
720.00,0.0506
719.00,0.0501
718.00,0.0498
717.00,0.0497
716.00,0.0497
715.00,0.0499
714.00,0.0501
713.00,0.0503
712.00,0.0505
711.00,0.0504
710.00,0.0503
709.00,0.0500
708.00,0.0498
707.00,0.0497
706.00,0.0496
705.00,0.0496
704.00,0.0497
703.00,0.0497
702.00,0.0499
701.00,0.0501
700.00,0.0504
699.00,0.0507
698.00,0.0511
697.00,0.0515
696.00,0.0519
695.00,0.0525
694.00,0.0532
693.00,0.0538
692.00,0.0546
691.00,0.0554
690.00,0.0564
689.00,0.0576
688.00,0.0590
687.00,0.0605
686.00,0.0621
685.00,0.0638
684.00,0.0656
683.00,0.0674
682.00,0.0692
681.00,0.0708
680.00,0.0723
679.00,0.0734
678.00,0.0742
677.00,0.0746
676.00,0.0747
675.00,0.0746
674.00,0.0744
673.00,0.0744
672.00,0.0745
671.00,0.0748
670.00,0.0751
669.00,0.0752
668.00,0.0745
667.00,0.0727
666.00,0.0701
665.00,0.0674
664.00,0.0648
663.00,0.0625
662.00,0.0608
661.00,0.0597
660.00,0.0590
659.00,0.0586
658.00,0.0583
657.00,0.0581
656.00,0.0579
655.00,0.0579
654.00,0.0581
653.00,0.0587
652.00,0.0595
651.00,0.0605
650.00,0.0616
649.00,0.0623
648.00,0.0625
647.00,0.0623
646.00,0.0617
645.00,0.0612
644.00,0.0607
643.00,0.0605
642.00,0.0605
641.00,0.0607
640.00,0.0610
639.00,0.0614
638.00,0.0618
637.00,0.0622
636.00,0.0625
635.00,0.0628
634.00,0.0631
633.00,0.0632
632.00,0.0631
631.00,0.0629
630.00,0.0625
629.00,0.0620
628.00,0.0614
627.00,0.0608
626.00,0.0600
625.00,0.0593
624.00,0.0585
623.00,0.0577
622.00,0.0572
621.00,0.0569
620.00,0.0569
619.00,0.0574
618.00,0.0585
617.00,0.0600
616.00,0.0618
615.00,0.0634
614.00,0.0643
613.00,0.0643
612.00,0.0638
611.00,0.0629
610.00,0.0621
609.00,0.0616
608.00,0.0614
607.00,0.0613
606.00,0.0613
605.00,0.0612
604.00,0.0612
603.00,0.0612
602.00,0.0613
601.00,0.0615
600.00,0.0617
599.00,0.0620
598.00,0.0625
597.00,0.0631
596.00,0.0638
595.00,0.0642
594.00,0.0643
593.00,0.0639
592.00,0.0632
591.00,0.0624
590.00,0.0615
589.00,0.0608
588.00,0.0602
587.00,0.0600
586.00,0.0603
585.00,0.0613
584.00,0.0635
583.00,0.0673
582.00,0.0733
581.00,0.0818
580.00,0.0916
579.00,0.1001
578.00,0.1042
577.00,0.1022
576.00,0.0949
575.00,0.0852
574.00,0.0758
573.00,0.0682
572.00,0.0626
571.00,0.0586
570.00,0.0557
569.00,0.0537
568.00,0.0523
567.00,0.0513
566.00,0.0508
565.00,0.0507
564.00,0.0511
563.00,0.0519
562.00,0.0531
561.00,0.0546
560.00,0.0565
559.00,0.0591
558.00,0.0626
557.00,0.0676
556.00,0.0745
555.00,0.0838
554.00,0.0947
553.00,0.1055
552.00,0.1132
551.00,0.1155
550.00,0.1119
549.00,0.1041
548.00,0.0953
547.00,0.0879
546.00,0.0829
545.00,0.0800
544.00,0.0789
543.00,0.0786
542.00,0.0789
541.00,0.0796
540.00,0.0812
539.00,0.0840
538.00,0.0885
537.00,0.0943
536.00,0.1008
535.00,0.1062
534.00,0.1083
533.00,0.1063
532.00,0.1012
531.00,0.0953
530.00,0.0913
529.00,0.0908
528.00,0.0939
527.00,0.0992
526.00,0.1035
525.00,0.1050
524.00,0.1037
523.00,0.1013
522.00,0.0983
521.00,0.0939
520.00,0.0878
519.00,0.0808
518.00,0.0744
517.00,0.0696
516.00,0.0664
515.00,0.0644
514.00,0.0632
513.00,0.0625
512.00,0.0622
511.00,0.0623
510.00,0.0627
509.00,0.0634
508.00,0.0644
507.00,0.0657
506.00,0.0674
505.00,0.0692
504.00,0.0713
503.00,0.0738
502.00,0.0769
501.00,0.0804
500.00,0.0841
499.00,0.0880
498.00,0.0922
497.00,0.0967
496.00,0.1014
495.00,0.1064
494.00,0.1114
493.00,0.1166
492.00,0.1219
491.00,0.1271
490.00,0.1322
489.00,0.1369
488.00,0.1411
487.00,0.1446
486.00,0.1478
485.00,0.1507
484.00,0.1533
483.00,0.1557
482.00,0.1579
481.00,0.1601
480.00,0.1623
479.00,0.1644
478.00,0.1664
477.00,0.1682
476.00,0.1697
475.00,0.1708
474.00,0.1710
473.00,0.1702
472.00,0.1689
471.00,0.1675
470.00,0.1665
469.00,0.1659
468.00,0.1658
467.00,0.1661
466.00,0.1663
465.00,0.1658
464.00,0.1640
463.00,0.1604
462.00,0.1553
461.00,0.1495
460.00,0.1440
459.00,0.1392
458.00,0.1351
457.00,0.1318
456.00,0.1292
455.00,0.1270
454.00,0.1251
453.00,0.1232
452.00,0.1214
451.00,0.1200
450.00,0.1190
449.00,0.1181
448.00,0.1171
447.00,0.1159
446.00,0.1146
445.00,0.1133
444.00,0.1121
443.00,0.1110
442.00,0.1100
441.00,0.1092
440.00,0.1085
439.00,0.1083
438.00,0.1089
437.00,0.1100
436.00,0.1113
435.00,0.1119
434.00,0.1112
433.00,0.1090
432.00,0.1060
431.00,0.1029
430.00,0.1003
429.00,0.0982
428.00,0.0966
427.00,0.0952
426.00,0.0941
425.00,0.0931
424.00,0.0920
423.00,0.0909
422.00,0.0900
421.00,0.0892
420.00,0.0881
419.00,0.0865
418.00,0.0844
417.00,0.0825
416.00,0.0813
415.00,0.0807
414.00,0.0804
413.00,0.0797
412.00,0.0784
411.00,0.0770
410.00,0.0762
409.00,0.0760
408.00,0.0760
407.00,0.0762
406.00,0.0767
405.00,0.0773
404.00,0.0776
403.00,0.0778
402.00,0.0778
401.00,0.0773
400.00,0.0768
