Created as New Dataset,Sample 709 By YargerLab Date Wednesday, June 18 2025
cm-1,A
4000.00,0.0023
3999.00,0.0023
3998.00,0.0023
3997.00,0.0023
3996.00,0.0023
3995.00,0.0023
3994.00,0.0023
3993.00,0.0023
3992.00,0.0023
3991.00,0.0023
3990.00,0.0023
3989.00,0.0023
3988.00,0.0023
3987.00,0.0023
3986.00,0.0023
3985.00,0.0023
3984.00,0.0023
3983.00,0.0023
3982.00,0.0023
3981.00,0.0023
3980.00,0.0023
3979.00,0.0023
3978.00,0.0023
3977.00,0.0023
3976.00,0.0023
3975.00,0.0023
3974.00,0.0023
3973.00,0.0023
3972.00,0.0023
3971.00,0.0023
3970.00,0.0023
3969.00,0.0023
3968.00,0.0023
3967.00,0.0023
3966.00,0.0024
3965.00,0.0023
3964.00,0.0023
3963.00,0.0023
3962.00,0.0023
3961.00,0.0023
3960.00,0.0023
3959.00,0.0023
3958.00,0.0023
3957.00,0.0023
3956.00,0.0023
3955.00,0.0023
3954.00,0.0023
3953.00,0.0023
3952.00,0.0023
3951.00,0.0023
3950.00,0.0023
3949.00,0.0023
3948.00,0.0023
3947.00,0.0022
3946.00,0.0022
3945.00,0.0022
3944.00,0.0022
3943.00,0.0022
3942.00,0.0022
3941.00,0.0023
3940.00,0.0023
3939.00,0.0023
3938.00,0.0023
3937.00,0.0023
3936.00,0.0023
3935.00,0.0023
3934.00,0.0022
3933.00,0.0022
3932.00,0.0022
3931.00,0.0022
3930.00,0.0022
3929.00,0.0022
3928.00,0.0022
3927.00,0.0022
3926.00,0.0022
3925.00,0.0022
3924.00,0.0023
3923.00,0.0023
3922.00,0.0023
3921.00,0.0023
3920.00,0.0022
3919.00,0.0022
3918.00,0.0022
3917.00,0.0022
3916.00,0.0022
3915.00,0.0022
3914.00,0.0022
3913.00,0.0022
3912.00,0.0022
3911.00,0.0023
3910.00,0.0023
3909.00,0.0023
3908.00,0.0023
3907.00,0.0022
3906.00,0.0022
3905.00,0.0022
3904.00,0.0022
3903.00,0.0022
3902.00,0.0022
3901.00,0.0022
3900.00,0.0022
3899.00,0.0022
3898.00,0.0022
3897.00,0.0022
3896.00,0.0021
3895.00,0.0021
3894.00,0.0021
3893.00,0.0022
3892.00,0.0022
3891.00,0.0022
3890.00,0.0022
3889.00,0.0022
3888.00,0.0022
3887.00,0.0021
3886.00,0.0021
3885.00,0.0021
3884.00,0.0021
3883.00,0.0021
3882.00,0.0021
3881.00,0.0021
3880.00,0.0021
3879.00,0.0022
3878.00,0.0022
3877.00,0.0021
3876.00,0.0021
3875.00,0.0021
3874.00,0.0021
3873.00,0.0021
3872.00,0.0022
3871.00,0.0022
3870.00,0.0022
3869.00,0.0022
3868.00,0.0022
3867.00,0.0022
3866.00,0.0022
3865.00,0.0022
3864.00,0.0022
3863.00,0.0022
3862.00,0.0022
3861.00,0.0022
3860.00,0.0022
3859.00,0.0022
3858.00,0.0022
3857.00,0.0022
3856.00,0.0023
3855.00,0.0023
3854.00,0.0023
3853.00,0.0022
3852.00,0.0022
3851.00,0.0021
3850.00,0.0021
3849.00,0.0021
3848.00,0.0021
3847.00,0.0021
3846.00,0.0021
3845.00,0.0022
3844.00,0.0022
3843.00,0.0021
3842.00,0.0021
3841.00,0.0021
3840.00,0.0020
3839.00,0.0021
3838.00,0.0021
3837.00,0.0021
3836.00,0.0021
3835.00,0.0021
3834.00,0.0022
3833.00,0.0022
3832.00,0.0021
3831.00,0.0021
3830.00,0.0021
3829.00,0.0021
3828.00,0.0021
3827.00,0.0021
3826.00,0.0021
3825.00,0.0021
3824.00,0.0021
3823.00,0.0021
3822.00,0.0021
3821.00,0.0021
3820.00,0.0022
3819.00,0.0022
3818.00,0.0022
3817.00,0.0021
3816.00,0.0021
3815.00,0.0021
3814.00,0.0021
3813.00,0.0021
3812.00,0.0021
3811.00,0.0021
3810.00,0.0021
3809.00,0.0021
3808.00,0.0021
3807.00,0.0021
3806.00,0.0021
3805.00,0.0021
3804.00,0.0021
3803.00,0.0021
3802.00,0.0021
3801.00,0.0021
3800.00,0.0021
3799.00,0.0021
3798.00,0.0021
3797.00,0.0021
3796.00,0.0021
3795.00,0.0021
3794.00,0.0021
3793.00,0.0021
3792.00,0.0021
3791.00,0.0021
3790.00,0.0022
3789.00,0.0022
3788.00,0.0022
3787.00,0.0021
3786.00,0.0021
3785.00,0.0021
3784.00,0.0021
3783.00,0.0021
3782.00,0.0021
3781.00,0.0021
3780.00,0.0022
3779.00,0.0022
3778.00,0.0022
3777.00,0.0022
3776.00,0.0022
3775.00,0.0022
3774.00,0.0022
3773.00,0.0022
3772.00,0.0022
3771.00,0.0022
3770.00,0.0021
3769.00,0.0021
3768.00,0.0021
3767.00,0.0021
3766.00,0.0021
3765.00,0.0021
3764.00,0.0021
3763.00,0.0021
3762.00,0.0021
3761.00,0.0021
3760.00,0.0021
3759.00,0.0021
3758.00,0.0021
3757.00,0.0021
3756.00,0.0021
3755.00,0.0021
3754.00,0.0021
3753.00,0.0021
3752.00,0.0021
3751.00,0.0021
3750.00,0.0020
3749.00,0.0020
3748.00,0.0020
3747.00,0.0020
3746.00,0.0020
3745.00,0.0019
3744.00,0.0019
3743.00,0.0019
3742.00,0.0019
3741.00,0.0019
3740.00,0.0018
3739.00,0.0018
3738.00,0.0018
3737.00,0.0018
3736.00,0.0018
3735.00,0.0018
3734.00,0.0019
3733.00,0.0019
3732.00,0.0018
3731.00,0.0019
3730.00,0.0019
3729.00,0.0019
3728.00,0.0019
3727.00,0.0019
3726.00,0.0019
3725.00,0.0019
3724.00,0.0018
3723.00,0.0018
3722.00,0.0018
3721.00,0.0018
3720.00,0.0019
3719.00,0.0019
3718.00,0.0019
3717.00,0.0019
3716.00,0.0020
3715.00,0.0020
3714.00,0.0020
3713.00,0.0019
3712.00,0.0019
3711.00,0.0018
3710.00,0.0018
3709.00,0.0018
3708.00,0.0018
3707.00,0.0018
3706.00,0.0018
3705.00,0.0018
3704.00,0.0019
3703.00,0.0019
3702.00,0.0019
3701.00,0.0019
3700.00,0.0019
3699.00,0.0019
3698.00,0.0019
3697.00,0.0019
3696.00,0.0019
3695.00,0.0019
3694.00,0.0019
3693.00,0.0019
3692.00,0.0019
3691.00,0.0019
3690.00,0.0018
3689.00,0.0018
3688.00,0.0018
3687.00,0.0018
3686.00,0.0018
3685.00,0.0018
3684.00,0.0018
3683.00,0.0019
3682.00,0.0019
3681.00,0.0019
3680.00,0.0019
3679.00,0.0019
3678.00,0.0019
3677.00,0.0018
3676.00,0.0018
3675.00,0.0018
3674.00,0.0018
3673.00,0.0018
3672.00,0.0018
3671.00,0.0018
3670.00,0.0018
3669.00,0.0018
3668.00,0.0018
3667.00,0.0018
3666.00,0.0018
3665.00,0.0018
3664.00,0.0018
3663.00,0.0018
3662.00,0.0018
3661.00,0.0019
3660.00,0.0019
3659.00,0.0019
3658.00,0.0019
3657.00,0.0018
3656.00,0.0018
3655.00,0.0018
3654.00,0.0017
3653.00,0.0017
3652.00,0.0017
3651.00,0.0017
3650.00,0.0017
3649.00,0.0017
3648.00,0.0017
3647.00,0.0017
3646.00,0.0018
3645.00,0.0018
3644.00,0.0018
3643.00,0.0018
3642.00,0.0018
3641.00,0.0018
3640.00,0.0018
3639.00,0.0019
3638.00,0.0019
3637.00,0.0018
3636.00,0.0018
3635.00,0.0018
3634.00,0.0018
3633.00,0.0018
3632.00,0.0018
3631.00,0.0018
3630.00,0.0018
3629.00,0.0018
3628.00,0.0018
3627.00,0.0018
3626.00,0.0018
3625.00,0.0018
3624.00,0.0019
3623.00,0.0019
3622.00,0.0019
3621.00,0.0019
3620.00,0.0019
3619.00,0.0019
3618.00,0.0020
3617.00,0.0020
3616.00,0.0020
3615.00,0.0020
3614.00,0.0021
3613.00,0.0021
3612.00,0.0022
3611.00,0.0022
3610.00,0.0021
3609.00,0.0021
3608.00,0.0021
3607.00,0.0021
3606.00,0.0021
3605.00,0.0021
3604.00,0.0021
3603.00,0.0021
3602.00,0.0021
3601.00,0.0021
3600.00,0.0021
3599.00,0.0021
3598.00,0.0021
3597.00,0.0021
3596.00,0.0021
3595.00,0.0021
3594.00,0.0021
3593.00,0.0021
3592.00,0.0022
3591.00,0.0022
3590.00,0.0022
3589.00,0.0022
3588.00,0.0022
3587.00,0.0022
3586.00,0.0022
3585.00,0.0022
3584.00,0.0022
3583.00,0.0022
3582.00,0.0023
3581.00,0.0023
3580.00,0.0023
3579.00,0.0024
3578.00,0.0024
3577.00,0.0024
3576.00,0.0024
3575.00,0.0024
3574.00,0.0024
3573.00,0.0024
3572.00,0.0025
3571.00,0.0024
3570.00,0.0024
3569.00,0.0024
3568.00,0.0024
3567.00,0.0024
3566.00,0.0025
3565.00,0.0025
3564.00,0.0025
3563.00,0.0026
3562.00,0.0026
3561.00,0.0027
3560.00,0.0027
3559.00,0.0028
3558.00,0.0028
3557.00,0.0028
3556.00,0.0028
3555.00,0.0029
3554.00,0.0029
3553.00,0.0029
3552.00,0.0030
3551.00,0.0030
3550.00,0.0030
3549.00,0.0030
3548.00,0.0030
3547.00,0.0030
3546.00,0.0031
3545.00,0.0031
3544.00,0.0032
3543.00,0.0032
3542.00,0.0032
3541.00,0.0033
3540.00,0.0033
3539.00,0.0034
3538.00,0.0034
3537.00,0.0034
3536.00,0.0035
3535.00,0.0035
3534.00,0.0036
3533.00,0.0036
3532.00,0.0037
3531.00,0.0037
3530.00,0.0037
3529.00,0.0038
3528.00,0.0038
3527.00,0.0038
3526.00,0.0039
3525.00,0.0039
3524.00,0.0040
3523.00,0.0040
3522.00,0.0041
3521.00,0.0042
3520.00,0.0042
3519.00,0.0043
3518.00,0.0044
3517.00,0.0044
3516.00,0.0045
3515.00,0.0046
3514.00,0.0047
3513.00,0.0048
3512.00,0.0048
3511.00,0.0049
3510.00,0.0050
3509.00,0.0051
3508.00,0.0052
3507.00,0.0053
3506.00,0.0054
3505.00,0.0055
3504.00,0.0056
3503.00,0.0057
3502.00,0.0058
3501.00,0.0059
3500.00,0.0060
3499.00,0.0061
3498.00,0.0063
3497.00,0.0064
3496.00,0.0065
3495.00,0.0067
3494.00,0.0069
3493.00,0.0070
3492.00,0.0072
3491.00,0.0074
3490.00,0.0076
3489.00,0.0077
3488.00,0.0079
3487.00,0.0081
3486.00,0.0083
3485.00,0.0086
3484.00,0.0088
3483.00,0.0090
3482.00,0.0092
3481.00,0.0095
3480.00,0.0097
3479.00,0.0099
3478.00,0.0102
3477.00,0.0105
3476.00,0.0107
3475.00,0.0111
3474.00,0.0114
3473.00,0.0118
3472.00,0.0121
3471.00,0.0125
3470.00,0.0130
3469.00,0.0135
3468.00,0.0142
3467.00,0.0148
3466.00,0.0156
3465.00,0.0164
3464.00,0.0173
3463.00,0.0184
3462.00,0.0196
3461.00,0.0210
3460.00,0.0225
3459.00,0.0241
3458.00,0.0259
3457.00,0.0277
3456.00,0.0296
3455.00,0.0315
3454.00,0.0334
3453.00,0.0350
3452.00,0.0364
3451.00,0.0374
3450.00,0.0381
3449.00,0.0384
3448.00,0.0382
3447.00,0.0378
3446.00,0.0370
3445.00,0.0359
3444.00,0.0346
3443.00,0.0332
3442.00,0.0318
3441.00,0.0303
3440.00,0.0288
3439.00,0.0273
3438.00,0.0260
3437.00,0.0247
3436.00,0.0235
3435.00,0.0223
3434.00,0.0213
3433.00,0.0203
3432.00,0.0194
3431.00,0.0185
3430.00,0.0177
3429.00,0.0170
3428.00,0.0164
3427.00,0.0158
3426.00,0.0153
3425.00,0.0148
3424.00,0.0144
3423.00,0.0140
3422.00,0.0136
3421.00,0.0133
3420.00,0.0130
3419.00,0.0127
3418.00,0.0125
3417.00,0.0123
3416.00,0.0121
3415.00,0.0119
3414.00,0.0118
3413.00,0.0116
3412.00,0.0115
3411.00,0.0114
3410.00,0.0113
3409.00,0.0112
3408.00,0.0111
3407.00,0.0110
3406.00,0.0109
3405.00,0.0109
3404.00,0.0108
3403.00,0.0107
3402.00,0.0106
3401.00,0.0106
3400.00,0.0105
3399.00,0.0105
3398.00,0.0104
3397.00,0.0104
3396.00,0.0104
3395.00,0.0104
3394.00,0.0103
3393.00,0.0103
3392.00,0.0103
3391.00,0.0103
3390.00,0.0103
3389.00,0.0103
3388.00,0.0103
3387.00,0.0102
3386.00,0.0102
3385.00,0.0102
3384.00,0.0102
3383.00,0.0102
3382.00,0.0103
3381.00,0.0103
3380.00,0.0103
3379.00,0.0102
3378.00,0.0102
3377.00,0.0102
3376.00,0.0102
3375.00,0.0103
3374.00,0.0103
3373.00,0.0102
3372.00,0.0102
3371.00,0.0102
3370.00,0.0102
3369.00,0.0103
3368.00,0.0103
3367.00,0.0103
3366.00,0.0103
3365.00,0.0104
3364.00,0.0104
3363.00,0.0104
3362.00,0.0104
3361.00,0.0105
3360.00,0.0105
3359.00,0.0105
3358.00,0.0106
3357.00,0.0106
3356.00,0.0106
3355.00,0.0106
3354.00,0.0106
3353.00,0.0107
3352.00,0.0108
3351.00,0.0108
3350.00,0.0108
3349.00,0.0109
3348.00,0.0109
3347.00,0.0109
3346.00,0.0110
3345.00,0.0110
3344.00,0.0110
3343.00,0.0110
3342.00,0.0110
3341.00,0.0110
3340.00,0.0110
3339.00,0.0111
3338.00,0.0111
3337.00,0.0111
3336.00,0.0112
3335.00,0.0112
3334.00,0.0113
3333.00,0.0113
3332.00,0.0114
3331.00,0.0114
3330.00,0.0115
3329.00,0.0115
3328.00,0.0115
3327.00,0.0116
3326.00,0.0116
3325.00,0.0116
3324.00,0.0117
3323.00,0.0118
3322.00,0.0118
3321.00,0.0119
3320.00,0.0120
3319.00,0.0120
3318.00,0.0121
3317.00,0.0121
3316.00,0.0122
3315.00,0.0122
3314.00,0.0123
3313.00,0.0124
3312.00,0.0124
3311.00,0.0124
3310.00,0.0125
3309.00,0.0125
3308.00,0.0126
3307.00,0.0126
3306.00,0.0127
3305.00,0.0128
3304.00,0.0129
3303.00,0.0130
3302.00,0.0131
3301.00,0.0131
3300.00,0.0132
3299.00,0.0133
3298.00,0.0133
3297.00,0.0134
3296.00,0.0135
3295.00,0.0135
3294.00,0.0136
3293.00,0.0136
3292.00,0.0137
3291.00,0.0138
3290.00,0.0140
3289.00,0.0141
3288.00,0.0142
3287.00,0.0143
3286.00,0.0144
3285.00,0.0145
3284.00,0.0146
3283.00,0.0147
3282.00,0.0148
3281.00,0.0149
3280.00,0.0150
3279.00,0.0150
3278.00,0.0151
3277.00,0.0151
3276.00,0.0151
3275.00,0.0152
3274.00,0.0152
3273.00,0.0152
3272.00,0.0153
3271.00,0.0154
3270.00,0.0156
3269.00,0.0158
3268.00,0.0160
3267.00,0.0161
3266.00,0.0163
3265.00,0.0164
3264.00,0.0164
3263.00,0.0165
3262.00,0.0166
3261.00,0.0166
3260.00,0.0167
3259.00,0.0167
3258.00,0.0167
3257.00,0.0167
3256.00,0.0168
3255.00,0.0169
3254.00,0.0170
3253.00,0.0171
3252.00,0.0172
3251.00,0.0172
3250.00,0.0173
3249.00,0.0173
3248.00,0.0173
3247.00,0.0174
3246.00,0.0175
3245.00,0.0177
3244.00,0.0178
3243.00,0.0179
3242.00,0.0179
3241.00,0.0180
3240.00,0.0180
3239.00,0.0181
3238.00,0.0181
3237.00,0.0182
3236.00,0.0182
3235.00,0.0183
3234.00,0.0184
3233.00,0.0185
3232.00,0.0186
3231.00,0.0187
3230.00,0.0188
3229.00,0.0189
3228.00,0.0190
3227.00,0.0191
3226.00,0.0191
3225.00,0.0192
3224.00,0.0192
3223.00,0.0193
3222.00,0.0194
3221.00,0.0194
3220.00,0.0195
3219.00,0.0196
3218.00,0.0196
3217.00,0.0197
3216.00,0.0198
3215.00,0.0199
3214.00,0.0200
3213.00,0.0201
3212.00,0.0202
3211.00,0.0202
3210.00,0.0203
3209.00,0.0205
3208.00,0.0206
3207.00,0.0207
3206.00,0.0207
3205.00,0.0208
3204.00,0.0209
3203.00,0.0210
3202.00,0.0211
3201.00,0.0212
3200.00,0.0213
3199.00,0.0213
3198.00,0.0214
3197.00,0.0215
3196.00,0.0215
3195.00,0.0216
3194.00,0.0216
3193.00,0.0217
3192.00,0.0218
3191.00,0.0218
3190.00,0.0219
3189.00,0.0219
3188.00,0.0220
3187.00,0.0220
3186.00,0.0221
3185.00,0.0222
3184.00,0.0222
3183.00,0.0223
3182.00,0.0223
3181.00,0.0224
3180.00,0.0224
3179.00,0.0225
3178.00,0.0225
3177.00,0.0226
3176.00,0.0226
3175.00,0.0227
3174.00,0.0227
3173.00,0.0227
3172.00,0.0228
3171.00,0.0228
3170.00,0.0228
3169.00,0.0228
3168.00,0.0229
3167.00,0.0230
3166.00,0.0230
3165.00,0.0230
3164.00,0.0230
3163.00,0.0230
3162.00,0.0230
3161.00,0.0231
3160.00,0.0231
3159.00,0.0231
3158.00,0.0231
3157.00,0.0231
3156.00,0.0231
3155.00,0.0230
3154.00,0.0229
3153.00,0.0230
3152.00,0.0231
3151.00,0.0233
3150.00,0.0235
3149.00,0.0236
3148.00,0.0237
3147.00,0.0238
3146.00,0.0239
3145.00,0.0240
3144.00,0.0241
3143.00,0.0242
3142.00,0.0242
3141.00,0.0242
3140.00,0.0242
3139.00,0.0243
3138.00,0.0244
3137.00,0.0245
3136.00,0.0246
3135.00,0.0247
3134.00,0.0248
3133.00,0.0248
3132.00,0.0248
3131.00,0.0249
3130.00,0.0249
3129.00,0.0250
3128.00,0.0251
3127.00,0.0251
3126.00,0.0252
3125.00,0.0252
3124.00,0.0252
3123.00,0.0252
3122.00,0.0251
3121.00,0.0251
3120.00,0.0251
3119.00,0.0252
3118.00,0.0252
3117.00,0.0253
3116.00,0.0254
3115.00,0.0255
3114.00,0.0256
3113.00,0.0257
3112.00,0.0258
3111.00,0.0258
3110.00,0.0259
3109.00,0.0260
3108.00,0.0261
3107.00,0.0262
3106.00,0.0262
3105.00,0.0263
3104.00,0.0263
3103.00,0.0264
3102.00,0.0264
3101.00,0.0264
3100.00,0.0265
3099.00,0.0265
3098.00,0.0265
3097.00,0.0266
3096.00,0.0266
3095.00,0.0266
3094.00,0.0267
3093.00,0.0267
3092.00,0.0267
3091.00,0.0267
3090.00,0.0267
3089.00,0.0267
3088.00,0.0267
3087.00,0.0267
3086.00,0.0268
3085.00,0.0268
3084.00,0.0269
3083.00,0.0270
3082.00,0.0270
3081.00,0.0271
3080.00,0.0272
3079.00,0.0274
3078.00,0.0276
3077.00,0.0278
3076.00,0.0280
3075.00,0.0283
3074.00,0.0285
3073.00,0.0286
3072.00,0.0287
3071.00,0.0288
3070.00,0.0288
3069.00,0.0287
3068.00,0.0285
3067.00,0.0283
3066.00,0.0281
3065.00,0.0278
3064.00,0.0276
3063.00,0.0273
3062.00,0.0270
3061.00,0.0266
3060.00,0.0263
3059.00,0.0260
3058.00,0.0257
3057.00,0.0255
3056.00,0.0253
3055.00,0.0251
3054.00,0.0249
3053.00,0.0248
3052.00,0.0246
3051.00,0.0245
3050.00,0.0244
3049.00,0.0243
3048.00,0.0242
3047.00,0.0241
3046.00,0.0240
3045.00,0.0239
3044.00,0.0238
3043.00,0.0238
3042.00,0.0237
3041.00,0.0237
3040.00,0.0237
3039.00,0.0236
3038.00,0.0236
3037.00,0.0235
3036.00,0.0234
3035.00,0.0234
3034.00,0.0233
3033.00,0.0232
3032.00,0.0232
3031.00,0.0231
3030.00,0.0231
3029.00,0.0230
3028.00,0.0229
3027.00,0.0228
3026.00,0.0227
3025.00,0.0226
3024.00,0.0225
3023.00,0.0224
3022.00,0.0223
3021.00,0.0222
3020.00,0.0221
3019.00,0.0220
3018.00,0.0220
3017.00,0.0219
3016.00,0.0218
3015.00,0.0218
3014.00,0.0218
3013.00,0.0218
3012.00,0.0218
3011.00,0.0218
3010.00,0.0218
3009.00,0.0218
3008.00,0.0218
3007.00,0.0218
3006.00,0.0218
3005.00,0.0219
3004.00,0.0219
3003.00,0.0220
3002.00,0.0221
3001.00,0.0221
3000.00,0.0222
2999.00,0.0224
2998.00,0.0225
2997.00,0.0227
2996.00,0.0229
2995.00,0.0232
2994.00,0.0235
2993.00,0.0238
2992.00,0.0241
2991.00,0.0244
2990.00,0.0247
2989.00,0.0249
2988.00,0.0251
2987.00,0.0252
2986.00,0.0254
2985.00,0.0255
2984.00,0.0257
2983.00,0.0259
2982.00,0.0261
2981.00,0.0265
2980.00,0.0270
2979.00,0.0275
2978.00,0.0280
2977.00,0.0285
2976.00,0.0289
2975.00,0.0293
2974.00,0.0296
2973.00,0.0298
2972.00,0.0300
2971.00,0.0302
2970.00,0.0305
2969.00,0.0308
2968.00,0.0313
2967.00,0.0318
2966.00,0.0324
2965.00,0.0331
2964.00,0.0340
2963.00,0.0349
2962.00,0.0360
2961.00,0.0371
2960.00,0.0383
2959.00,0.0394
2958.00,0.0403
2957.00,0.0412
2956.00,0.0419
2955.00,0.0423
2954.00,0.0426
2953.00,0.0427
2952.00,0.0426
2951.00,0.0423
2950.00,0.0417
2949.00,0.0410
2948.00,0.0403
2947.00,0.0397
2946.00,0.0394
2945.00,0.0394
2944.00,0.0396
2943.00,0.0402
2942.00,0.0409
2941.00,0.0418
2940.00,0.0428
2939.00,0.0440
2938.00,0.0452
2937.00,0.0465
2936.00,0.0479
2935.00,0.0494
2934.00,0.0511
2933.00,0.0530
2932.00,0.0550
2931.00,0.0570
2930.00,0.0589
2929.00,0.0606
2928.00,0.0620
2927.00,0.0631
2926.00,0.0637
2925.00,0.0640
2924.00,0.0639
2923.00,0.0635
2922.00,0.0629
2921.00,0.0620
2920.00,0.0608
2919.00,0.0596
2918.00,0.0583
2917.00,0.0569
2916.00,0.0555
2915.00,0.0540
2914.00,0.0525
2913.00,0.0510
2912.00,0.0495
2911.00,0.0480
2910.00,0.0465
2909.00,0.0450
2908.00,0.0436
2907.00,0.0423
2906.00,0.0411
2905.00,0.0400
2904.00,0.0391
2903.00,0.0383
2902.00,0.0376
2901.00,0.0370
2900.00,0.0364
2899.00,0.0358
2898.00,0.0353
2897.00,0.0348
2896.00,0.0344
2895.00,0.0340
2894.00,0.0337
2893.00,0.0334
2892.00,0.0331
2891.00,0.0329
2890.00,0.0327
2889.00,0.0325
2888.00,0.0324
2887.00,0.0323
2886.00,0.0322
2885.00,0.0321
2884.00,0.0320
2883.00,0.0320
2882.00,0.0320
2881.00,0.0320
2880.00,0.0322
2879.00,0.0324
2878.00,0.0327
2877.00,0.0331
2876.00,0.0336
2875.00,0.0341
2874.00,0.0348
2873.00,0.0354
2872.00,0.0359
2871.00,0.0362
2870.00,0.0362
2869.00,0.0358
2868.00,0.0353
2867.00,0.0348
2866.00,0.0345
2865.00,0.0345
2864.00,0.0348
2863.00,0.0353
2862.00,0.0361
2861.00,0.0370
2860.00,0.0378
2859.00,0.0386
2858.00,0.0391
2857.00,0.0392
2856.00,0.0390
2855.00,0.0385
2854.00,0.0378
2853.00,0.0368
2852.00,0.0357
2851.00,0.0345
2850.00,0.0333
2849.00,0.0322
2848.00,0.0312
2847.00,0.0304
2846.00,0.0297
2845.00,0.0291
2844.00,0.0287
2843.00,0.0283
2842.00,0.0279
2841.00,0.0274
2840.00,0.0271
2839.00,0.0268
2838.00,0.0267
2837.00,0.0267
2836.00,0.0268
2835.00,0.0268
2834.00,0.0268
2833.00,0.0266
2832.00,0.0262
2831.00,0.0257
2830.00,0.0250
2829.00,0.0242
2828.00,0.0234
2827.00,0.0226
2826.00,0.0219
2825.00,0.0213
2824.00,0.0207
2823.00,0.0202
2822.00,0.0198
2821.00,0.0194
2820.00,0.0191
2819.00,0.0188
2818.00,0.0186
2817.00,0.0184
2816.00,0.0182
2815.00,0.0180
2814.00,0.0179
2813.00,0.0177
2812.00,0.0176
2811.00,0.0174
2810.00,0.0173
2809.00,0.0172
2808.00,0.0171
2807.00,0.0170
2806.00,0.0169
2805.00,0.0169
2804.00,0.0168
2803.00,0.0167
2802.00,0.0167
2801.00,0.0166
2800.00,0.0165
2799.00,0.0165
2798.00,0.0164
2797.00,0.0164
2796.00,0.0163
2795.00,0.0163
2794.00,0.0163
2793.00,0.0162
2792.00,0.0162
2791.00,0.0162
2790.00,0.0161
2789.00,0.0161
2788.00,0.0161
2787.00,0.0161
2786.00,0.0162
2785.00,0.0162
2784.00,0.0162
2783.00,0.0162
2782.00,0.0162
2781.00,0.0162
2780.00,0.0163
2779.00,0.0163
2778.00,0.0163
2777.00,0.0164
2776.00,0.0164
2775.00,0.0165
2774.00,0.0165
2773.00,0.0166
2772.00,0.0167
2771.00,0.0167
2770.00,0.0167
2769.00,0.0168
2768.00,0.0168
2767.00,0.0168
2766.00,0.0169
2765.00,0.0169
2764.00,0.0170
2763.00,0.0170
2762.00,0.0171
2761.00,0.0171
2760.00,0.0172
2759.00,0.0172
2758.00,0.0172
2757.00,0.0173
2756.00,0.0173
2755.00,0.0173
2754.00,0.0173
2753.00,0.0173
2752.00,0.0173
2751.00,0.0173
2750.00,0.0173
2749.00,0.0173
2748.00,0.0173
2747.00,0.0174
2746.00,0.0174
2745.00,0.0174
2744.00,0.0174
2743.00,0.0174
2742.00,0.0174
2741.00,0.0174
2740.00,0.0175
2739.00,0.0175
2738.00,0.0175
2737.00,0.0176
2736.00,0.0177
2735.00,0.0177
2734.00,0.0178
2733.00,0.0178
2732.00,0.0179
2731.00,0.0179
2730.00,0.0179
2729.00,0.0179
2728.00,0.0179
2727.00,0.0179
2726.00,0.0179
2725.00,0.0180
2724.00,0.0180
2723.00,0.0180
2722.00,0.0180
2721.00,0.0180
2720.00,0.0180
2719.00,0.0180
2718.00,0.0179
2717.00,0.0179
2716.00,0.0179
2715.00,0.0179
2714.00,0.0179
2713.00,0.0179
2712.00,0.0179
2711.00,0.0180
2710.00,0.0180
2709.00,0.0180
2708.00,0.0180
2707.00,0.0180
2706.00,0.0180
2705.00,0.0180
2704.00,0.0180
2703.00,0.0180
2702.00,0.0180
2701.00,0.0181
2700.00,0.0181
2699.00,0.0181
2698.00,0.0181
2697.00,0.0181
2696.00,0.0181
2695.00,0.0181
2694.00,0.0181
2693.00,0.0181
2692.00,0.0182
2691.00,0.0182
2690.00,0.0182
2689.00,0.0182
2688.00,0.0182
2687.00,0.0182
2686.00,0.0181
2685.00,0.0181
2684.00,0.0181
2683.00,0.0181
2682.00,0.0180
2681.00,0.0180
2680.00,0.0180
2679.00,0.0180
2678.00,0.0180
2677.00,0.0180
2676.00,0.0180
2675.00,0.0180
2674.00,0.0180
2673.00,0.0180
2672.00,0.0180
2671.00,0.0181
2670.00,0.0181
2669.00,0.0181
2668.00,0.0181
2667.00,0.0181
2666.00,0.0182
2665.00,0.0182
2664.00,0.0183
2663.00,0.0183
2662.00,0.0183
2661.00,0.0183
2660.00,0.0183
2659.00,0.0183
2658.00,0.0183
2657.00,0.0183
2656.00,0.0182
2655.00,0.0182
2654.00,0.0181
2653.00,0.0181
2652.00,0.0181
2651.00,0.0180
2650.00,0.0180
2649.00,0.0180
2648.00,0.0180
2647.00,0.0180
2646.00,0.0179
2645.00,0.0179
2644.00,0.0178
2643.00,0.0178
2642.00,0.0178
2641.00,0.0178
2640.00,0.0177
2639.00,0.0177
2638.00,0.0177
2637.00,0.0176
2636.00,0.0176
2635.00,0.0176
2634.00,0.0175
2633.00,0.0175
2632.00,0.0175
2631.00,0.0174
2630.00,0.0174
2629.00,0.0174
2628.00,0.0173
2627.00,0.0173
2626.00,0.0173
2625.00,0.0172
2624.00,0.0172
2623.00,0.0172
2622.00,0.0172
2621.00,0.0171
2620.00,0.0171
2619.00,0.0171
2618.00,0.0171
2617.00,0.0170
2616.00,0.0170
2615.00,0.0170
2614.00,0.0170
2613.00,0.0169
2612.00,0.0169
2611.00,0.0169
2610.00,0.0168
2609.00,0.0168
2608.00,0.0168
2607.00,0.0167
2606.00,0.0167
2605.00,0.0167
2604.00,0.0166
2603.00,0.0166
2602.00,0.0166
2601.00,0.0165
2600.00,0.0165
2599.00,0.0164
2598.00,0.0163
2597.00,0.0163
2596.00,0.0162
2595.00,0.0161
2594.00,0.0160
2593.00,0.0160
2592.00,0.0160
2591.00,0.0159
2590.00,0.0159
2589.00,0.0158
2588.00,0.0158
2587.00,0.0157
2586.00,0.0157
2585.00,0.0157
2584.00,0.0157
2583.00,0.0156
2582.00,0.0156
2581.00,0.0155
2580.00,0.0155
2579.00,0.0155
2578.00,0.0155
2577.00,0.0154
2576.00,0.0154
2575.00,0.0154
2574.00,0.0154
2573.00,0.0154
2572.00,0.0154
2571.00,0.0154
2570.00,0.0155
2569.00,0.0155
2568.00,0.0155
2567.00,0.0155
2566.00,0.0155
2565.00,0.0156
2564.00,0.0156
2563.00,0.0156
2562.00,0.0156
2561.00,0.0155
2560.00,0.0155
2559.00,0.0156
2558.00,0.0156
2557.00,0.0157
2556.00,0.0157
2555.00,0.0157
2554.00,0.0157
2553.00,0.0157
2552.00,0.0156
2551.00,0.0156
2550.00,0.0156
2549.00,0.0155
2548.00,0.0155
2547.00,0.0154
2546.00,0.0154
2545.00,0.0153
2544.00,0.0153
2543.00,0.0152
2542.00,0.0151
2541.00,0.0150
2540.00,0.0149
2539.00,0.0149
2538.00,0.0148
2537.00,0.0148
2536.00,0.0147
2535.00,0.0146
2534.00,0.0145
2533.00,0.0145
2532.00,0.0145
2531.00,0.0145
2530.00,0.0144
2529.00,0.0144
2528.00,0.0144
2527.00,0.0143
2526.00,0.0143
2525.00,0.0142
2524.00,0.0142
2523.00,0.0142
2522.00,0.0141
2521.00,0.0141
2520.00,0.0141
2519.00,0.0140
2518.00,0.0139
2517.00,0.0139
2516.00,0.0138
2515.00,0.0137
2514.00,0.0137
2513.00,0.0136
2512.00,0.0136
2511.00,0.0135
2510.00,0.0135
2509.00,0.0134
2508.00,0.0134
2507.00,0.0134
2506.00,0.0133
2505.00,0.0133
2504.00,0.0132
2503.00,0.0132
2502.00,0.0131
2501.00,0.0131
2500.00,0.0130
2499.00,0.0130
2498.00,0.0130
2497.00,0.0129
2496.00,0.0129
2495.00,0.0130
2494.00,0.0130
2493.00,0.0129
2492.00,0.0129
2491.00,0.0129
2490.00,0.0129
2489.00,0.0129
2488.00,0.0129
2487.00,0.0130
2486.00,0.0129
2485.00,0.0129
2484.00,0.0128
2483.00,0.0128
2482.00,0.0127
2481.00,0.0127
2480.00,0.0127
2479.00,0.0127
2478.00,0.0128
2477.00,0.0128
2476.00,0.0128
2475.00,0.0128
2474.00,0.0127
2473.00,0.0127
2472.00,0.0127
2471.00,0.0127
2470.00,0.0127
2469.00,0.0127
2468.00,0.0126
2467.00,0.0126
2466.00,0.0126
2465.00,0.0126
2464.00,0.0127
2463.00,0.0127
2462.00,0.0127
2461.00,0.0127
2460.00,0.0128
2459.00,0.0129
2458.00,0.0129
2457.00,0.0130
2456.00,0.0130
2455.00,0.0130
2454.00,0.0130
2453.00,0.0130
2452.00,0.0130
2451.00,0.0130
2450.00,0.0129
2449.00,0.0129
2448.00,0.0130
2447.00,0.0129
2446.00,0.0129
2445.00,0.0129
2444.00,0.0129
2443.00,0.0129
2442.00,0.0129
2441.00,0.0129
2440.00,0.0129
2439.00,0.0129
2438.00,0.0128
2437.00,0.0128
2436.00,0.0128
2435.00,0.0128
2434.00,0.0127
2433.00,0.0127
2432.00,0.0127
2431.00,0.0127
2430.00,0.0127
2429.00,0.0127
2428.00,0.0126
2427.00,0.0126
2426.00,0.0125
2425.00,0.0125
2424.00,0.0125
2423.00,0.0125
2422.00,0.0125
2421.00,0.0124
2420.00,0.0123
2419.00,0.0123
2418.00,0.0123
2417.00,0.0122
2416.00,0.0122
2415.00,0.0122
2414.00,0.0121
2413.00,0.0121
2412.00,0.0120
2411.00,0.0120
2410.00,0.0119
2409.00,0.0118
2408.00,0.0117
2407.00,0.0115
2406.00,0.0114
2405.00,0.0113
2404.00,0.0113
2403.00,0.0112
2402.00,0.0111
2401.00,0.0111
2400.00,0.0110
2399.00,0.0110
2398.00,0.0109
2397.00,0.0108
2396.00,0.0107
2395.00,0.0106
2394.00,0.0105
2393.00,0.0105
2392.00,0.0104
2391.00,0.0103
2390.00,0.0102
2389.00,0.0101
2388.00,0.0100
2387.00,0.0099
2386.00,0.0098
2385.00,0.0097
2384.00,0.0096
2383.00,0.0094
2382.00,0.0093
2381.00,0.0092
2380.00,0.0091
2379.00,0.0091
2378.00,0.0090
2377.00,0.0090
2376.00,0.0089
2375.00,0.0089
2374.00,0.0088
2373.00,0.0087
2372.00,0.0086
2371.00,0.0085
2370.00,0.0085
2369.00,0.0084
2368.00,0.0083
2367.00,0.0082
2366.00,0.0082
2365.00,0.0081
2364.00,0.0081
2363.00,0.0081
2362.00,0.0080
2361.00,0.0080
2360.00,0.0079
2359.00,0.0079
2358.00,0.0079
2357.00,0.0079
2356.00,0.0079
2355.00,0.0078
2354.00,0.0077
2353.00,0.0076
2352.00,0.0075
2351.00,0.0075
2350.00,0.0075
2349.00,0.0076
2348.00,0.0077
2347.00,0.0076
2346.00,0.0076
2345.00,0.0075
2344.00,0.0074
2343.00,0.0074
2342.00,0.0074
2341.00,0.0075
2340.00,0.0075
2339.00,0.0076
2338.00,0.0075
2337.00,0.0075
2336.00,0.0075
2335.00,0.0074
2334.00,0.0073
2333.00,0.0073
2332.00,0.0072
2331.00,0.0071
2330.00,0.0071
2329.00,0.0074
2328.00,0.0077
2327.00,0.0082
2326.00,0.0085
2325.00,0.0085
2324.00,0.0083
2323.00,0.0080
2322.00,0.0078
2321.00,0.0076
2320.00,0.0074
2319.00,0.0073
2318.00,0.0073
2317.00,0.0072
2316.00,0.0072
2315.00,0.0071
2314.00,0.0069
2313.00,0.0068
2312.00,0.0067
2311.00,0.0065
2310.00,0.0065
2309.00,0.0064
2308.00,0.0065
2307.00,0.0065
2306.00,0.0065
2305.00,0.0065
2304.00,0.0065
2303.00,0.0065
2302.00,0.0065
2301.00,0.0065
2300.00,0.0065
2299.00,0.0065
2298.00,0.0065
2297.00,0.0065
2296.00,0.0065
2295.00,0.0066
2294.00,0.0066
2293.00,0.0068
2292.00,0.0069
2291.00,0.0070
2290.00,0.0071
2289.00,0.0072
2288.00,0.0072
2287.00,0.0072
2286.00,0.0071
2285.00,0.0070
2284.00,0.0069
2283.00,0.0067
2282.00,0.0067
2281.00,0.0066
2280.00,0.0066
2279.00,0.0065
2278.00,0.0064
2277.00,0.0063
2276.00,0.0062
2275.00,0.0061
2274.00,0.0061
2273.00,0.0061
2272.00,0.0060
2271.00,0.0060
2270.00,0.0060
2269.00,0.0060
2268.00,0.0060
2267.00,0.0059
2266.00,0.0058
2265.00,0.0058
2264.00,0.0058
2263.00,0.0058
2262.00,0.0059
2261.00,0.0059
2260.00,0.0058
2259.00,0.0058
2258.00,0.0057
2257.00,0.0056
2256.00,0.0055
2255.00,0.0054
2254.00,0.0053
2253.00,0.0053
2252.00,0.0053
2251.00,0.0053
2250.00,0.0053
2249.00,0.0053
2248.00,0.0054
2247.00,0.0053
2246.00,0.0053
2245.00,0.0053
2244.00,0.0053
2243.00,0.0053
2242.00,0.0053
2241.00,0.0053
2240.00,0.0053
2239.00,0.0052
2238.00,0.0052
2237.00,0.0052
2236.00,0.0052
2235.00,0.0053
2234.00,0.0052
2233.00,0.0052
2232.00,0.0052
2231.00,0.0051
2230.00,0.0050
2229.00,0.0050
2228.00,0.0050
2227.00,0.0050
2226.00,0.0050
2225.00,0.0050
2224.00,0.0050
2223.00,0.0049
2222.00,0.0049
2221.00,0.0049
2220.00,0.0048
2219.00,0.0048
2218.00,0.0049
2217.00,0.0049
2216.00,0.0050
2215.00,0.0050
2214.00,0.0050
2213.00,0.0049
2212.00,0.0049
2211.00,0.0049
2210.00,0.0048
2209.00,0.0048
2208.00,0.0048
2207.00,0.0047
2206.00,0.0046
2205.00,0.0044
2204.00,0.0044
2203.00,0.0044
2202.00,0.0045
2201.00,0.0046
2200.00,0.0046
2199.00,0.0046
2198.00,0.0045
2197.00,0.0045
2196.00,0.0045
2195.00,0.0044
2194.00,0.0044
2193.00,0.0044
2192.00,0.0045
2191.00,0.0046
2190.00,0.0048
2189.00,0.0048
2188.00,0.0048
2187.00,0.0047
2186.00,0.0045
2185.00,0.0043
2184.00,0.0040
2183.00,0.0039
2182.00,0.0039
2181.00,0.0041
2180.00,0.0044
2179.00,0.0044
2178.00,0.0041
2177.00,0.0038
2176.00,0.0036
2175.00,0.0036
2174.00,0.0037
2173.00,0.0039
2172.00,0.0041
2171.00,0.0044
2170.00,0.0047
2169.00,0.0049
2168.00,0.0051
2167.00,0.0052
2166.00,0.0053
2165.00,0.0055
2164.00,0.0056
2163.00,0.0054
2162.00,0.0046
2161.00,0.0031
2160.00,0.0013
2159.00,0.0000
2158.00,-0.0005
2157.00,-0.0003
2156.00,0.0002
2155.00,0.0007
2154.00,0.0011
2153.00,0.0015
2152.00,0.0017
2151.00,0.0018
2150.00,0.0018
2149.00,0.0018
2148.00,0.0017
2147.00,0.0016
2146.00,0.0015
2145.00,0.0015
2144.00,0.0016
2143.00,0.0016
2142.00,0.0016
2141.00,0.0016
2140.00,0.0016
2139.00,0.0014
2138.00,0.0013
2137.00,0.0011
2136.00,0.0009
2135.00,0.0007
2134.00,0.0007
2133.00,0.0010
2132.00,0.0012
2131.00,0.0015
2130.00,0.0016
2129.00,0.0017
2128.00,0.0018
2127.00,0.0019
2126.00,0.0020
2125.00,0.0022
2124.00,0.0023
2123.00,0.0024
2122.00,0.0025
2121.00,0.0025
2120.00,0.0026
2119.00,0.0026
2118.00,0.0027
2117.00,0.0028
2116.00,0.0030
2115.00,0.0031
2114.00,0.0031
2113.00,0.0030
2112.00,0.0030
2111.00,0.0030
2110.00,0.0030
2109.00,0.0030
2108.00,0.0030
2107.00,0.0030
2106.00,0.0029
2105.00,0.0029
2104.00,0.0029
2103.00,0.0029
2102.00,0.0030
2101.00,0.0030
2100.00,0.0029
2099.00,0.0028
2098.00,0.0026
2097.00,0.0024
2096.00,0.0022
2095.00,0.0021
2094.00,0.0022
2093.00,0.0024
2092.00,0.0026
2091.00,0.0027
2090.00,0.0028
2089.00,0.0028
2088.00,0.0028
2087.00,0.0028
2086.00,0.0028
2085.00,0.0027
2084.00,0.0027
2083.00,0.0027
2082.00,0.0027
2081.00,0.0027
2080.00,0.0028
2079.00,0.0028
2078.00,0.0028
2077.00,0.0028
2076.00,0.0028
2075.00,0.0026
2074.00,0.0025
2073.00,0.0024
2072.00,0.0024
2071.00,0.0023
2070.00,0.0022
2069.00,0.0022
2068.00,0.0022
2067.00,0.0022
2066.00,0.0022
2065.00,0.0022
2064.00,0.0022
2063.00,0.0021
2062.00,0.0021
2061.00,0.0021
2060.00,0.0022
2059.00,0.0023
2058.00,0.0024
2057.00,0.0025
2056.00,0.0025
2055.00,0.0026
2054.00,0.0029
2053.00,0.0034
2052.00,0.0038
2051.00,0.0039
2050.00,0.0036
2049.00,0.0031
2048.00,0.0029
2047.00,0.0027
2046.00,0.0025
2045.00,0.0025
2044.00,0.0026
2043.00,0.0027
2042.00,0.0028
2041.00,0.0030
2040.00,0.0031
2039.00,0.0031
2038.00,0.0030
2037.00,0.0028
2036.00,0.0026
2035.00,0.0023
2034.00,0.0021
2033.00,0.0021
2032.00,0.0021
2031.00,0.0022
2030.00,0.0022
2029.00,0.0022
2028.00,0.0023
2027.00,0.0023
2026.00,0.0022
2025.00,0.0022
2024.00,0.0021
2023.00,0.0020
2022.00,0.0019
2021.00,0.0018
2020.00,0.0019
2019.00,0.0020
2018.00,0.0020
2017.00,0.0021
2016.00,0.0021
2015.00,0.0021
2014.00,0.0021
2013.00,0.0022
2012.00,0.0023
2011.00,0.0023
2010.00,0.0020
2009.00,0.0017
2008.00,0.0014
2007.00,0.0012
2006.00,0.0011
2005.00,0.0013
2004.00,0.0015
2003.00,0.0017
2002.00,0.0018
2001.00,0.0018
2000.00,0.0019
1999.00,0.0019
1998.00,0.0020
1997.00,0.0021
1996.00,0.0022
1995.00,0.0024
1994.00,0.0025
1993.00,0.0027
1992.00,0.0028
1991.00,0.0028
1990.00,0.0028
1989.00,0.0028
1988.00,0.0029
1987.00,0.0031
1986.00,0.0032
1985.00,0.0034
1984.00,0.0036
1983.00,0.0039
1982.00,0.0043
1981.00,0.0046
1980.00,0.0044
1979.00,0.0037
1978.00,0.0028
1977.00,0.0021
1976.00,0.0018
1975.00,0.0016
1974.00,0.0015
1973.00,0.0015
1972.00,0.0015
1971.00,0.0015
1970.00,0.0015
1969.00,0.0016
1968.00,0.0017
1967.00,0.0017
1966.00,0.0016
1965.00,0.0015
1964.00,0.0015
1963.00,0.0013
1962.00,0.0011
1961.00,0.0009
1960.00,0.0009
1959.00,0.0009
1958.00,0.0010
1957.00,0.0012
1956.00,0.0014
1955.00,0.0015
1954.00,0.0016
1953.00,0.0017
1952.00,0.0018
1951.00,0.0018
1950.00,0.0017
1949.00,0.0017
1948.00,0.0018
1947.00,0.0017
1946.00,0.0017
1945.00,0.0018
1944.00,0.0018
1943.00,0.0019
1942.00,0.0018
1941.00,0.0018
1940.00,0.0018
1939.00,0.0018
1938.00,0.0017
1937.00,0.0017
1936.00,0.0017
1935.00,0.0018
1934.00,0.0018
1933.00,0.0019
1932.00,0.0020
1931.00,0.0020
1930.00,0.0019
1929.00,0.0018
1928.00,0.0018
1927.00,0.0018
1926.00,0.0019
1925.00,0.0020
1924.00,0.0021
1923.00,0.0022
1922.00,0.0022
1921.00,0.0023
1920.00,0.0023
1919.00,0.0023
1918.00,0.0023
1917.00,0.0022
1916.00,0.0021
1915.00,0.0020
1914.00,0.0020
1913.00,0.0020
1912.00,0.0021
1911.00,0.0021
1910.00,0.0021
1909.00,0.0021
1908.00,0.0021
1907.00,0.0021
1906.00,0.0021
1905.00,0.0021
1904.00,0.0021
1903.00,0.0020
1902.00,0.0020
1901.00,0.0020
1900.00,0.0020
1899.00,0.0020
1898.00,0.0021
1897.00,0.0021
1896.00,0.0021
1895.00,0.0021
1894.00,0.0021
1893.00,0.0021
1892.00,0.0021
1891.00,0.0021
1890.00,0.0021
1889.00,0.0021
1888.00,0.0022
1887.00,0.0022
1886.00,0.0021
1885.00,0.0021
1884.00,0.0021
1883.00,0.0021
1882.00,0.0021
1881.00,0.0021
1880.00,0.0022
1879.00,0.0022
1878.00,0.0022
1877.00,0.0022
1876.00,0.0022
1875.00,0.0022
1874.00,0.0022
1873.00,0.0023
1872.00,0.0023
1871.00,0.0024
1870.00,0.0024
1869.00,0.0024
1868.00,0.0024
1867.00,0.0023
1866.00,0.0022
1865.00,0.0022
1864.00,0.0023
1863.00,0.0023
1862.00,0.0023
1861.00,0.0023
1860.00,0.0023
1859.00,0.0023
1858.00,0.0023
1857.00,0.0024
1856.00,0.0024
1855.00,0.0024
1854.00,0.0023
1853.00,0.0023
1852.00,0.0024
1851.00,0.0024
1850.00,0.0024
1849.00,0.0024
1848.00,0.0025
1847.00,0.0025
1846.00,0.0025
1845.00,0.0025
1844.00,0.0025
1843.00,0.0025
1842.00,0.0024
1841.00,0.0024
1840.00,0.0024
1839.00,0.0024
1838.00,0.0024
1837.00,0.0024
1836.00,0.0024
1835.00,0.0024
1834.00,0.0024
1833.00,0.0024
1832.00,0.0025
1831.00,0.0025
1830.00,0.0024
1829.00,0.0024
1828.00,0.0025
1827.00,0.0026
1826.00,0.0026
1825.00,0.0026
1824.00,0.0026
1823.00,0.0026
1822.00,0.0025
1821.00,0.0025
1820.00,0.0024
1819.00,0.0024
1818.00,0.0023
1817.00,0.0022
1816.00,0.0023
1815.00,0.0024
1814.00,0.0024
1813.00,0.0025
1812.00,0.0026
1811.00,0.0026
1810.00,0.0026
1809.00,0.0027
1808.00,0.0027
1807.00,0.0027
1806.00,0.0027
1805.00,0.0028
1804.00,0.0029
1803.00,0.0030
1802.00,0.0030
1801.00,0.0030
1800.00,0.0030
1799.00,0.0030
1798.00,0.0030
1797.00,0.0031
1796.00,0.0031
1795.00,0.0032
1794.00,0.0033
1793.00,0.0034
1792.00,0.0035
1791.00,0.0035
1790.00,0.0036
1789.00,0.0036
1788.00,0.0038
1787.00,0.0039
1786.00,0.0041
1785.00,0.0042
1784.00,0.0042
1783.00,0.0041
1782.00,0.0040
1781.00,0.0040
1780.00,0.0040
1779.00,0.0039
1778.00,0.0039
1777.00,0.0039
1776.00,0.0039
1775.00,0.0039
1774.00,0.0039
1773.00,0.0039
1772.00,0.0040
1771.00,0.0040
1770.00,0.0040
1769.00,0.0041
1768.00,0.0041
1767.00,0.0040
1766.00,0.0040
1765.00,0.0040
1764.00,0.0040
1763.00,0.0041
1762.00,0.0041
1761.00,0.0041
1760.00,0.0041
1759.00,0.0041
1758.00,0.0041
1757.00,0.0041
1756.00,0.0041
1755.00,0.0041
1754.00,0.0040
1753.00,0.0040
1752.00,0.0041
1751.00,0.0041
1750.00,0.0041
1749.00,0.0041
1748.00,0.0041
1747.00,0.0041
1746.00,0.0042
1745.00,0.0043
1744.00,0.0043
1743.00,0.0044
1742.00,0.0043
1741.00,0.0044
1740.00,0.0044
1739.00,0.0045
1738.00,0.0045
1737.00,0.0045
1736.00,0.0046
1735.00,0.0047
1734.00,0.0048
1733.00,0.0049
1732.00,0.0050
1731.00,0.0052
1730.00,0.0053
1729.00,0.0054
1728.00,0.0055
1727.00,0.0056
1726.00,0.0057
1725.00,0.0059
1724.00,0.0060
1723.00,0.0061
1722.00,0.0062
1721.00,0.0063
1720.00,0.0064
1719.00,0.0065
1718.00,0.0066
1717.00,0.0067
1716.00,0.0069
1715.00,0.0071
1714.00,0.0072
1713.00,0.0073
1712.00,0.0073
1711.00,0.0074
1710.00,0.0074
1709.00,0.0075
1708.00,0.0076
1707.00,0.0077
1706.00,0.0078
1705.00,0.0079
1704.00,0.0080
1703.00,0.0080
1702.00,0.0081
1701.00,0.0083
1700.00,0.0086
1699.00,0.0087
1698.00,0.0087
1697.00,0.0089
1696.00,0.0094
1695.00,0.0099
1694.00,0.0103
1693.00,0.0107
1692.00,0.0110
1691.00,0.0113
1690.00,0.0117
1689.00,0.0120
1688.00,0.0122
1687.00,0.0122
1686.00,0.0124
1685.00,0.0128
1684.00,0.0135
1683.00,0.0141
1682.00,0.0143
1681.00,0.0144
1680.00,0.0146
1679.00,0.0147
1678.00,0.0148
1677.00,0.0151
1676.00,0.0155
1675.00,0.0160
1674.00,0.0164
1673.00,0.0166
1672.00,0.0170
1671.00,0.0174
1670.00,0.0181
1669.00,0.0188
1668.00,0.0196
1667.00,0.0201
1666.00,0.0205
1665.00,0.0209
1664.00,0.0215
1663.00,0.0223
1662.00,0.0231
1661.00,0.0239
1660.00,0.0246
1659.00,0.0253
1658.00,0.0259
1657.00,0.0265
1656.00,0.0269
1655.00,0.0277
1654.00,0.0294
1653.00,0.0324
1652.00,0.0354
1651.00,0.0371
1650.00,0.0383
1649.00,0.0399
1648.00,0.0428
1647.00,0.0475
1646.00,0.0531
1645.00,0.0586
1644.00,0.0635
1643.00,0.0681
1642.00,0.0724
1641.00,0.0765
1640.00,0.0802
1639.00,0.0833
1638.00,0.0864
1637.00,0.0905
1636.00,0.0962
1635.00,0.1018
1634.00,0.1053
1633.00,0.1063
1632.00,0.1057
1631.00,0.1042
1630.00,0.1018
1629.00,0.0985
1628.00,0.0945
1627.00,0.0899
1626.00,0.0853
1625.00,0.0807
1624.00,0.0761
1623.00,0.0718
1622.00,0.0679
1621.00,0.0643
1620.00,0.0611
1619.00,0.0580
1618.00,0.0553
1617.00,0.0530
1616.00,0.0511
1615.00,0.0493
1614.00,0.0477
1613.00,0.0462
1612.00,0.0448
1611.00,0.0435
1610.00,0.0424
1609.00,0.0416
1608.00,0.0408
1607.00,0.0402
1606.00,0.0398
1605.00,0.0395
1604.00,0.0393
1603.00,0.0393
1602.00,0.0396
1601.00,0.0402
1600.00,0.0409
1599.00,0.0419
1598.00,0.0433
1597.00,0.0451
1596.00,0.0474
1595.00,0.0504
1594.00,0.0540
1593.00,0.0582
1592.00,0.0630
1591.00,0.0681
1590.00,0.0733
1589.00,0.0784
1588.00,0.0832
1587.00,0.0875
1586.00,0.0914
1585.00,0.0950
1584.00,0.0983
1583.00,0.1012
1582.00,0.1039
1581.00,0.1060
1580.00,0.1075
1579.00,0.1083
1578.00,0.1088
1577.00,0.1098
1576.00,0.1112
1575.00,0.1119
1574.00,0.1111
1573.00,0.1094
1572.00,0.1075
1571.00,0.1057
1570.00,0.1040
1569.00,0.1022
1568.00,0.1001
1567.00,0.0975
1566.00,0.0945
1565.00,0.0914
1564.00,0.0883
1563.00,0.0851
1562.00,0.0817
1561.00,0.0783
1560.00,0.0751
1559.00,0.0720
1558.00,0.0692
1557.00,0.0663
1556.00,0.0635
1555.00,0.0607
1554.00,0.0580
1553.00,0.0555
1552.00,0.0532
1551.00,0.0511
1550.00,0.0490
1549.00,0.0470
1548.00,0.0452
1547.00,0.0435
1546.00,0.0420
1545.00,0.0406
1544.00,0.0392
1543.00,0.0380
1542.00,0.0368
1541.00,0.0358
1540.00,0.0351
1539.00,0.0347
1538.00,0.0342
1537.00,0.0337
1536.00,0.0332
1535.00,0.0328
1534.00,0.0328
1533.00,0.0331
1532.00,0.0334
1531.00,0.0338
1530.00,0.0342
1529.00,0.0348
1528.00,0.0356
1527.00,0.0365
1526.00,0.0372
1525.00,0.0375
1524.00,0.0373
1523.00,0.0367
1522.00,0.0360
1521.00,0.0349
1520.00,0.0337
1519.00,0.0322
1518.00,0.0306
1517.00,0.0290
1516.00,0.0275
1515.00,0.0263
1514.00,0.0252
1513.00,0.0244
1512.00,0.0237
1511.00,0.0231
1510.00,0.0225
1509.00,0.0219
1508.00,0.0214
1507.00,0.0210
1506.00,0.0207
1505.00,0.0204
1504.00,0.0202
1503.00,0.0199
1502.00,0.0196
1501.00,0.0193
1500.00,0.0190
1499.00,0.0188
1498.00,0.0186
1497.00,0.0185
1496.00,0.0184
1495.00,0.0184
1494.00,0.0182
1493.00,0.0181
1492.00,0.0180
1491.00,0.0180
1490.00,0.0179
1489.00,0.0178
1488.00,0.0177
1487.00,0.0177
1486.00,0.0177
1485.00,0.0178
1484.00,0.0180
1483.00,0.0183
1482.00,0.0188
1481.00,0.0194
1480.00,0.0202
1479.00,0.0209
1478.00,0.0218
1477.00,0.0228
1476.00,0.0238
1475.00,0.0248
1474.00,0.0261
1473.00,0.0281
1472.00,0.0308
1471.00,0.0335
1470.00,0.0359
1469.00,0.0376
1468.00,0.0387
1467.00,0.0391
1466.00,0.0390
1465.00,0.0391
1464.00,0.0398
1463.00,0.0409
1462.00,0.0425
1461.00,0.0444
1460.00,0.0467
1459.00,0.0497
1458.00,0.0541
1457.00,0.0598
1456.00,0.0655
1455.00,0.0700
1454.00,0.0739
1453.00,0.0783
1452.00,0.0835
1451.00,0.0890
1450.00,0.0944
1449.00,0.0998
1448.00,0.1050
1447.00,0.1092
1446.00,0.1121
1445.00,0.1140
1444.00,0.1148
1443.00,0.1145
1442.00,0.1128
1441.00,0.1100
1440.00,0.1064
1439.00,0.1024
1438.00,0.0985
1437.00,0.0951
1436.00,0.0920
1435.00,0.0891
1434.00,0.0863
1433.00,0.0834
1432.00,0.0804
1431.00,0.0773
1430.00,0.0742
1429.00,0.0711
1428.00,0.0681
1427.00,0.0654
1426.00,0.0630
1425.00,0.0608
1424.00,0.0590
1423.00,0.0573
1422.00,0.0559
1421.00,0.0548
1420.00,0.0541
1419.00,0.0537
1418.00,0.0535
1417.00,0.0531
1416.00,0.0527
1415.00,0.0523
1414.00,0.0522
1413.00,0.0521
1412.00,0.0522
1411.00,0.0523
1410.00,0.0526
1409.00,0.0528
1408.00,0.0531
1407.00,0.0535
1406.00,0.0540
1405.00,0.0545
1404.00,0.0550
1403.00,0.0553
1402.00,0.0555
1401.00,0.0556
1400.00,0.0556
1399.00,0.0557
1398.00,0.0555
1397.00,0.0551
1396.00,0.0545
1395.00,0.0539
1394.00,0.0532
1393.00,0.0524
1392.00,0.0515
1391.00,0.0506
1390.00,0.0497
1389.00,0.0491
1388.00,0.0486
1387.00,0.0484
1386.00,0.0483
1385.00,0.0486
1384.00,0.0494
1383.00,0.0509
1382.00,0.0533
1381.00,0.0562
1380.00,0.0593
1379.00,0.0621
1378.00,0.0640
1377.00,0.0648
1376.00,0.0644
1375.00,0.0631
1374.00,0.0613
1373.00,0.0594
1372.00,0.0580
1371.00,0.0574
1370.00,0.0576
1369.00,0.0583
1368.00,0.0590
1367.00,0.0593
1366.00,0.0590
1365.00,0.0581
1364.00,0.0571
1363.00,0.0561
1362.00,0.0553
1361.00,0.0548
1360.00,0.0546
1359.00,0.0547
1358.00,0.0553
1357.00,0.0564
1356.00,0.0581
1355.00,0.0602
1354.00,0.0626
1353.00,0.0649
1352.00,0.0669
1351.00,0.0684
1350.00,0.0693
1349.00,0.0693
1348.00,0.0686
1347.00,0.0671
1346.00,0.0653
1345.00,0.0634
1344.00,0.0617
1343.00,0.0604
1342.00,0.0596
1341.00,0.0594
1340.00,0.0599
1339.00,0.0609
1338.00,0.0621
1337.00,0.0632
1336.00,0.0638
1335.00,0.0636
1334.00,0.0626
1333.00,0.0610
1332.00,0.0592
1331.00,0.0577
1330.00,0.0567
1329.00,0.0566
1328.00,0.0574
1327.00,0.0590
1326.00,0.0615
1325.00,0.0647
1324.00,0.0685
1323.00,0.0728
1322.00,0.0771
1321.00,0.0811
1320.00,0.0841
1319.00,0.0855
1318.00,0.0848
1317.00,0.0823
1316.00,0.0784
1315.00,0.0739
1314.00,0.0694
1313.00,0.0653
1312.00,0.0618
1311.00,0.0592
1310.00,0.0575
1309.00,0.0566
1308.00,0.0566
1307.00,0.0572
1306.00,0.0578
1305.00,0.0580
1304.00,0.0576
1303.00,0.0565
1302.00,0.0551
1301.00,0.0537
1300.00,0.0528
1299.00,0.0523
1298.00,0.0524
1297.00,0.0528
1296.00,0.0535
1295.00,0.0542
1294.00,0.0552
1293.00,0.0565
1292.00,0.0581
1291.00,0.0602
1290.00,0.0626
1289.00,0.0650
1288.00,0.0673
1287.00,0.0694
1286.00,0.0714
1285.00,0.0735
1284.00,0.0758
1283.00,0.0781
1282.00,0.0802
1281.00,0.0814
1280.00,0.0814
1279.00,0.0800
1278.00,0.0772
1277.00,0.0733
1276.00,0.0690
1275.00,0.0645
1274.00,0.0602
1273.00,0.0563
1272.00,0.0527
1271.00,0.0496
1270.00,0.0469
1269.00,0.0444
1268.00,0.0422
1267.00,0.0403
1266.00,0.0386
1265.00,0.0371
1264.00,0.0360
1263.00,0.0351
1262.00,0.0345
1261.00,0.0342
1260.00,0.0343
1259.00,0.0348
1258.00,0.0358
1257.00,0.0374
1256.00,0.0396
1255.00,0.0422
1254.00,0.0447
1253.00,0.0469
1252.00,0.0486
1251.00,0.0498
1250.00,0.0510
1249.00,0.0529
1248.00,0.0556
1247.00,0.0589
1246.00,0.0623
1245.00,0.0651
1244.00,0.0665
1243.00,0.0663
1242.00,0.0644
1241.00,0.0613
1240.00,0.0574
1239.00,0.0534
1238.00,0.0497
1237.00,0.0465
1236.00,0.0439
1235.00,0.0419
1234.00,0.0407
1233.00,0.0404
1232.00,0.0409
1231.00,0.0422
1230.00,0.0437
1229.00,0.0448
1228.00,0.0451
1227.00,0.0445
1226.00,0.0431
1225.00,0.0415
1224.00,0.0401
1223.00,0.0393
1222.00,0.0393
1221.00,0.0398
1220.00,0.0405
1219.00,0.0410
1218.00,0.0408
1217.00,0.0399
1216.00,0.0385
1215.00,0.0370
1214.00,0.0360
1213.00,0.0358
1212.00,0.0367
1211.00,0.0390
1210.00,0.0428
1209.00,0.0482
1208.00,0.0544
1207.00,0.0602
1206.00,0.0640
1205.00,0.0650
1204.00,0.0630
1203.00,0.0589
1202.00,0.0536
1201.00,0.0481
1200.00,0.0431
1199.00,0.0389
1198.00,0.0355
1197.00,0.0329
1196.00,0.0309
1195.00,0.0296
1194.00,0.0289
1193.00,0.0287
1192.00,0.0288
1191.00,0.0291
1190.00,0.0294
1189.00,0.0295
1188.00,0.0294
1187.00,0.0292
1186.00,0.0289
1185.00,0.0285
1184.00,0.0283
1183.00,0.0282
1182.00,0.0286
1181.00,0.0295
1180.00,0.0311
1179.00,0.0337
1178.00,0.0371
1177.00,0.0410
1176.00,0.0454
1175.00,0.0499
1174.00,0.0543
1173.00,0.0582
1172.00,0.0606
1171.00,0.0610
1170.00,0.0593
1169.00,0.0559
1168.00,0.0516
1167.00,0.0472
1166.00,0.0431
1165.00,0.0396
1164.00,0.0366
1163.00,0.0342
1162.00,0.0324
1161.00,0.0311
1160.00,0.0301
1159.00,0.0295
1158.00,0.0292
1157.00,0.0291
1156.00,0.0294
1155.00,0.0302
1154.00,0.0318
1153.00,0.0345
1152.00,0.0386
1151.00,0.0437
1150.00,0.0486
1149.00,0.0515
1148.00,0.0511
1147.00,0.0474
1146.00,0.0415
1145.00,0.0352
1144.00,0.0298
1143.00,0.0259
1142.00,0.0232
1141.00,0.0216
1140.00,0.0207
1139.00,0.0202
1138.00,0.0199
1137.00,0.0197
1136.00,0.0195
1135.00,0.0191
1134.00,0.0186
1133.00,0.0181
1132.00,0.0174
1131.00,0.0167
1130.00,0.0160
1129.00,0.0155
1128.00,0.0150
1127.00,0.0146
1126.00,0.0143
1125.00,0.0141
1124.00,0.0139
1123.00,0.0137
1122.00,0.0136
1121.00,0.0136
1120.00,0.0136
1119.00,0.0136
1118.00,0.0137
1117.00,0.0138
1116.00,0.0139
1115.00,0.0142
1114.00,0.0145
1113.00,0.0148
1112.00,0.0152
1111.00,0.0158
1110.00,0.0164
1109.00,0.0170
1108.00,0.0177
1107.00,0.0184
1106.00,0.0191
1105.00,0.0200
1104.00,0.0209
1103.00,0.0220
1102.00,0.0230
1101.00,0.0238
1100.00,0.0243
1099.00,0.0244
1098.00,0.0239
1097.00,0.0230
1096.00,0.0220
1095.00,0.0210
1094.00,0.0202
1093.00,0.0195
1092.00,0.0189
1091.00,0.0184
1090.00,0.0180
1089.00,0.0176
1088.00,0.0174
1087.00,0.0174
1086.00,0.0176
1085.00,0.0179
1084.00,0.0181
1083.00,0.0184
1082.00,0.0185
1081.00,0.0185
1080.00,0.0183
1079.00,0.0180
1078.00,0.0176
1077.00,0.0171
1076.00,0.0166
1075.00,0.0162
1074.00,0.0159
1073.00,0.0157
1072.00,0.0156
1071.00,0.0156
1070.00,0.0157
1069.00,0.0160
1068.00,0.0164
1067.00,0.0171
1066.00,0.0180
1065.00,0.0192
1064.00,0.0208
1063.00,0.0228
1062.00,0.0253
1061.00,0.0283
1060.00,0.0319
1059.00,0.0362
1058.00,0.0414
1057.00,0.0474
1056.00,0.0535
1055.00,0.0588
1054.00,0.0618
1053.00,0.0616
1052.00,0.0584
1051.00,0.0534
1050.00,0.0480
1049.00,0.0435
1048.00,0.0403
1047.00,0.0384
1046.00,0.0377
1045.00,0.0379
1044.00,0.0389
1043.00,0.0404
1042.00,0.0426
1041.00,0.0454
1040.00,0.0490
1039.00,0.0534
1038.00,0.0585
1037.00,0.0642
1036.00,0.0699
1035.00,0.0750
1034.00,0.0789
1033.00,0.0811
1032.00,0.0814
1031.00,0.0799
1030.00,0.0768
1029.00,0.0723
1028.00,0.0667
1027.00,0.0606
1026.00,0.0546
1025.00,0.0492
1024.00,0.0447
1023.00,0.0411
1022.00,0.0383
1021.00,0.0361
1020.00,0.0343
1019.00,0.0326
1018.00,0.0311
1017.00,0.0297
1016.00,0.0283
1015.00,0.0272
1014.00,0.0263
1013.00,0.0256
1012.00,0.0251
1011.00,0.0246
1010.00,0.0242
1009.00,0.0237
1008.00,0.0230
1007.00,0.0222
1006.00,0.0216
1005.00,0.0213
1004.00,0.0215
1003.00,0.0225
1002.00,0.0241
1001.00,0.0261
1000.00,0.0279
999.00,0.0289
998.00,0.0286
997.00,0.0272
996.00,0.0253
995.00,0.0234
994.00,0.0221
993.00,0.0213
992.00,0.0209
991.00,0.0208
990.00,0.0210
989.00,0.0212
988.00,0.0215
987.00,0.0218
986.00,0.0220
985.00,0.0220
984.00,0.0217
983.00,0.0212
982.00,0.0204
981.00,0.0197
980.00,0.0190
979.00,0.0184
978.00,0.0180
977.00,0.0176
976.00,0.0174
975.00,0.0172
974.00,0.0172
973.00,0.0174
972.00,0.0176
971.00,0.0178
970.00,0.0181
969.00,0.0184
968.00,0.0187
967.00,0.0191
966.00,0.0197
965.00,0.0206
964.00,0.0219
963.00,0.0233
962.00,0.0248
961.00,0.0260
960.00,0.0269
959.00,0.0273
958.00,0.0274
957.00,0.0271
956.00,0.0265
955.00,0.0259
954.00,0.0253
953.00,0.0249
952.00,0.0245
951.00,0.0243
950.00,0.0241
949.00,0.0239
948.00,0.0237
947.00,0.0236
946.00,0.0236
945.00,0.0238
944.00,0.0241
943.00,0.0244
942.00,0.0245
941.00,0.0244
940.00,0.0240
939.00,0.0234
938.00,0.0228
937.00,0.0222
936.00,0.0217
935.00,0.0214
934.00,0.0213
933.00,0.0214
932.00,0.0216
931.00,0.0220
930.00,0.0226
929.00,0.0232
928.00,0.0239
927.00,0.0246
926.00,0.0252
925.00,0.0257
924.00,0.0262
923.00,0.0269
922.00,0.0278
921.00,0.0289
920.00,0.0302
919.00,0.0315
918.00,0.0327
917.00,0.0338
916.00,0.0348
915.00,0.0356
914.00,0.0358
913.00,0.0353
912.00,0.0341
911.00,0.0325
910.00,0.0309
909.00,0.0299
908.00,0.0295
907.00,0.0300
906.00,0.0313
905.00,0.0330
904.00,0.0349
903.00,0.0365
902.00,0.0376
901.00,0.0379
900.00,0.0375
899.00,0.0367
898.00,0.0358
897.00,0.0353
896.00,0.0358
895.00,0.0377
894.00,0.0419
893.00,0.0488
892.00,0.0582
891.00,0.0682
890.00,0.0757
889.00,0.0786
888.00,0.0774
887.00,0.0749
886.00,0.0736
885.00,0.0735
884.00,0.0726
883.00,0.0694
882.00,0.0640
881.00,0.0578
880.00,0.0521
879.00,0.0479
878.00,0.0450
877.00,0.0431
876.00,0.0417
875.00,0.0406
874.00,0.0398
873.00,0.0394
872.00,0.0393
871.00,0.0396
870.00,0.0402
869.00,0.0413
868.00,0.0429
867.00,0.0453
866.00,0.0488
865.00,0.0536
864.00,0.0591
863.00,0.0645
862.00,0.0689
861.00,0.0715
860.00,0.0724
859.00,0.0724
858.00,0.0722
857.00,0.0719
856.00,0.0714
855.00,0.0702
854.00,0.0680
853.00,0.0653
852.00,0.0624
851.00,0.0600
850.00,0.0584
849.00,0.0575
848.00,0.0574
847.00,0.0578
846.00,0.0587
845.00,0.0598
844.00,0.0608
843.00,0.0614
842.00,0.0617
841.00,0.0620
840.00,0.0624
839.00,0.0626
838.00,0.0618
837.00,0.0599
836.00,0.0569
835.00,0.0536
834.00,0.0506
833.00,0.0483
832.00,0.0469
831.00,0.0464
830.00,0.0465
829.00,0.0468
828.00,0.0465
827.00,0.0453
826.00,0.0432
825.00,0.0406
824.00,0.0379
823.00,0.0356
822.00,0.0338
821.00,0.0324
820.00,0.0312
819.00,0.0302
818.00,0.0294
817.00,0.0288
816.00,0.0284
815.00,0.0283
814.00,0.0284
813.00,0.0288
812.00,0.0293
811.00,0.0301
810.00,0.0311
809.00,0.0327
808.00,0.0353
807.00,0.0387
806.00,0.0427
805.00,0.0461
804.00,0.0480
803.00,0.0481
802.00,0.0469
801.00,0.0456
800.00,0.0449
799.00,0.0453
798.00,0.0467
797.00,0.0485
796.00,0.0502
795.00,0.0509
794.00,0.0502
793.00,0.0483
792.00,0.0456
791.00,0.0426
790.00,0.0398
789.00,0.0376
788.00,0.0359
787.00,0.0348
786.00,0.0340
785.00,0.0334
784.00,0.0328
783.00,0.0323
782.00,0.0319
781.00,0.0316
780.00,0.0315
779.00,0.0316
778.00,0.0318
777.00,0.0323
776.00,0.0329
775.00,0.0336
774.00,0.0344
773.00,0.0352
772.00,0.0358
771.00,0.0363
770.00,0.0365
769.00,0.0365
768.00,0.0362
767.00,0.0358
766.00,0.0353
765.00,0.0347
764.00,0.0340
763.00,0.0334
762.00,0.0328
761.00,0.0323
760.00,0.0319
759.00,0.0317
758.00,0.0316
757.00,0.0316
756.00,0.0317
755.00,0.0316
754.00,0.0312
753.00,0.0304
752.00,0.0292
751.00,0.0279
750.00,0.0268
749.00,0.0260
748.00,0.0257
747.00,0.0257
746.00,0.0259
745.00,0.0263
744.00,0.0267
743.00,0.0272
742.00,0.0279
741.00,0.0287
740.00,0.0298
739.00,0.0310
738.00,0.0326
737.00,0.0344
736.00,0.0365
735.00,0.0388
734.00,0.0407
733.00,0.0417
732.00,0.0415
731.00,0.0401
730.00,0.0379
729.00,0.0355
728.00,0.0336
727.00,0.0321
726.00,0.0311
725.00,0.0305
724.00,0.0299
723.00,0.0295
722.00,0.0291
721.00,0.0288
720.00,0.0286
719.00,0.0285
718.00,0.0285
717.00,0.0286
716.00,0.0286
715.00,0.0286
714.00,0.0287
713.00,0.0288
712.00,0.0288
711.00,0.0287
710.00,0.0286
709.00,0.0284
708.00,0.0283
707.00,0.0282
706.00,0.0281
705.00,0.0280
704.00,0.0279
703.00,0.0279
702.00,0.0279
701.00,0.0280
700.00,0.0281
699.00,0.0283
698.00,0.0285
697.00,0.0287
696.00,0.0289
695.00,0.0292
694.00,0.0296
693.00,0.0300
692.00,0.0304
691.00,0.0309
690.00,0.0315
689.00,0.0322
688.00,0.0330
687.00,0.0339
686.00,0.0349
685.00,0.0359
684.00,0.0370
683.00,0.0380
682.00,0.0390
681.00,0.0399
680.00,0.0406
679.00,0.0411
678.00,0.0412
677.00,0.0412
676.00,0.0410
675.00,0.0407
674.00,0.0404
673.00,0.0402
672.00,0.0402
671.00,0.0403
670.00,0.0404
669.00,0.0402
668.00,0.0394
667.00,0.0376
666.00,0.0354
665.00,0.0333
664.00,0.0317
663.00,0.0306
662.00,0.0299
661.00,0.0295
660.00,0.0293
659.00,0.0290
658.00,0.0288
657.00,0.0285
656.00,0.0283
655.00,0.0284
654.00,0.0286
653.00,0.0290
652.00,0.0295
651.00,0.0299
650.00,0.0302
649.00,0.0303
648.00,0.0302
647.00,0.0299
646.00,0.0295
645.00,0.0291
644.00,0.0289
643.00,0.0287
642.00,0.0288
641.00,0.0290
640.00,0.0294
639.00,0.0298
638.00,0.0304
637.00,0.0309
636.00,0.0314
635.00,0.0318
634.00,0.0322
633.00,0.0323
632.00,0.0321
631.00,0.0317
630.00,0.0313
629.00,0.0308
628.00,0.0303
627.00,0.0298
626.00,0.0292
625.00,0.0287
624.00,0.0283
623.00,0.0280
622.00,0.0278
621.00,0.0278
620.00,0.0281
619.00,0.0287
618.00,0.0297
617.00,0.0309
616.00,0.0321
615.00,0.0328
614.00,0.0330
613.00,0.0327
612.00,0.0322
611.00,0.0317
610.00,0.0313
609.00,0.0311
608.00,0.0308
607.00,0.0306
606.00,0.0304
605.00,0.0300
604.00,0.0297
603.00,0.0293
602.00,0.0290
601.00,0.0287
600.00,0.0285
599.00,0.0285
598.00,0.0287
597.00,0.0291
596.00,0.0294
595.00,0.0297
594.00,0.0299
593.00,0.0298
592.00,0.0296
591.00,0.0293
590.00,0.0291
589.00,0.0289
588.00,0.0288
587.00,0.0288
586.00,0.0291
585.00,0.0298
584.00,0.0313
583.00,0.0338
582.00,0.0377
581.00,0.0427
580.00,0.0479
579.00,0.0515
578.00,0.0521
577.00,0.0494
576.00,0.0444
575.00,0.0390
574.00,0.0342
573.00,0.0307
572.00,0.0283
571.00,0.0265
570.00,0.0253
569.00,0.0243
568.00,0.0237
567.00,0.0233
566.00,0.0232
565.00,0.0232
564.00,0.0235
563.00,0.0239
562.00,0.0247
561.00,0.0256
560.00,0.0268
559.00,0.0281
558.00,0.0300
557.00,0.0328
556.00,0.0367
555.00,0.0417
554.00,0.0471
553.00,0.0515
552.00,0.0536
551.00,0.0526
550.00,0.0490
549.00,0.0442
548.00,0.0399
547.00,0.0369
546.00,0.0353
545.00,0.0347
544.00,0.0346
543.00,0.0347
542.00,0.0350
541.00,0.0357
540.00,0.0372
539.00,0.0397
538.00,0.0432
537.00,0.0472
536.00,0.0505
535.00,0.0521
534.00,0.0510
533.00,0.0476
532.00,0.0431
531.00,0.0391
530.00,0.0369
529.00,0.0371
528.00,0.0393
527.00,0.0423
526.00,0.0443
525.00,0.0445
524.00,0.0435
523.00,0.0422
522.00,0.0408
521.00,0.0389
520.00,0.0362
519.00,0.0332
518.00,0.0305
517.00,0.0287
516.00,0.0275
515.00,0.0269
514.00,0.0266
513.00,0.0267
512.00,0.0269
511.00,0.0273
510.00,0.0279
509.00,0.0286
508.00,0.0297
507.00,0.0312
506.00,0.0329
505.00,0.0349
504.00,0.0370
503.00,0.0393
502.00,0.0420
501.00,0.0449
500.00,0.0479
499.00,0.0509
498.00,0.0542
497.00,0.0576
496.00,0.0611
495.00,0.0646
494.00,0.0679
493.00,0.0709
492.00,0.0735
491.00,0.0756
490.00,0.0771
489.00,0.0779
488.00,0.0781
487.00,0.0780
486.00,0.0776
485.00,0.0772
484.00,0.0767
483.00,0.0763
482.00,0.0760
481.00,0.0757
480.00,0.0756
479.00,0.0757
478.00,0.0759
477.00,0.0762
476.00,0.0764
475.00,0.0765
474.00,0.0763
473.00,0.0758
472.00,0.0751
471.00,0.0745
470.00,0.0740
469.00,0.0738
468.00,0.0736
467.00,0.0735
466.00,0.0733
465.00,0.0728
464.00,0.0718
463.00,0.0698
462.00,0.0670
461.00,0.0638
460.00,0.0608
459.00,0.0584
458.00,0.0567
457.00,0.0554
456.00,0.0547
455.00,0.0544
454.00,0.0543
453.00,0.0540
452.00,0.0535
451.00,0.0531
450.00,0.0528
449.00,0.0525
448.00,0.0520
447.00,0.0514
446.00,0.0507
445.00,0.0502
444.00,0.0498
443.00,0.0494
442.00,0.0489
441.00,0.0484
440.00,0.0479
439.00,0.0478
438.00,0.0480
437.00,0.0482
436.00,0.0480
435.00,0.0472
434.00,0.0461
433.00,0.0448
432.00,0.0436
431.00,0.0423
430.00,0.0410
429.00,0.0398
428.00,0.0389
427.00,0.0386
426.00,0.0385
425.00,0.0382
424.00,0.0376
423.00,0.0369
422.00,0.0366
421.00,0.0366
420.00,0.0370
419.00,0.0374
418.00,0.0374
417.00,0.0367
416.00,0.0356
415.00,0.0346
414.00,0.0342
413.00,0.0341
412.00,0.0339
411.00,0.0336
410.00,0.0332
409.00,0.0326
408.00,0.0321
407.00,0.0319
406.00,0.0322
405.00,0.0327
404.00,0.0329
403.00,0.0327
402.00,0.0328
401.00,0.0335
400.00,0.0347
