Created as New Dataset,Sample 1028 By YargerLab Date Friday, August 01 2025
cm-1,A
4000.00,0.0029
3999.00,0.0029
3998.00,0.0029
3997.00,0.0029
3996.00,0.0029
3995.00,0.0029
3994.00,0.0029
3993.00,0.0028
3992.00,0.0028
3991.00,0.0028
3990.00,0.0029
3989.00,0.0029
3988.00,0.0029
3987.00,0.0029
3986.00,0.0029
3985.00,0.0029
3984.00,0.0029
3983.00,0.0029
3982.00,0.0029
3981.00,0.0029
3980.00,0.0029
3979.00,0.0029
3978.00,0.0030
3977.00,0.0030
3976.00,0.0030
3975.00,0.0030
3974.00,0.0030
3973.00,0.0030
3972.00,0.0030
3971.00,0.0030
3970.00,0.0030
3969.00,0.0030
3968.00,0.0030
3967.00,0.0030
3966.00,0.0030
3965.00,0.0030
3964.00,0.0030
3963.00,0.0029
3962.00,0.0029
3961.00,0.0029
3960.00,0.0029
3959.00,0.0029
3958.00,0.0029
3957.00,0.0029
3956.00,0.0029
3955.00,0.0029
3954.00,0.0029
3953.00,0.0029
3952.00,0.0029
3951.00,0.0029
3950.00,0.0029
3949.00,0.0029
3948.00,0.0029
3947.00,0.0029
3946.00,0.0029
3945.00,0.0029
3944.00,0.0029
3943.00,0.0029
3942.00,0.0029
3941.00,0.0029
3940.00,0.0029
3939.00,0.0028
3938.00,0.0028
3937.00,0.0029
3936.00,0.0029
3935.00,0.0029
3934.00,0.0029
3933.00,0.0029
3932.00,0.0028
3931.00,0.0029
3930.00,0.0029
3929.00,0.0029
3928.00,0.0029
3927.00,0.0029
3926.00,0.0029
3925.00,0.0029
3924.00,0.0029
3923.00,0.0029
3922.00,0.0029
3921.00,0.0029
3920.00,0.0029
3919.00,0.0029
3918.00,0.0029
3917.00,0.0029
3916.00,0.0029
3915.00,0.0029
3914.00,0.0029
3913.00,0.0029
3912.00,0.0029
3911.00,0.0029
3910.00,0.0029
3909.00,0.0029
3908.00,0.0028
3907.00,0.0028
3906.00,0.0028
3905.00,0.0028
3904.00,0.0028
3903.00,0.0028
3902.00,0.0028
3901.00,0.0028
3900.00,0.0028
3899.00,0.0028
3898.00,0.0028
3897.00,0.0028
3896.00,0.0028
3895.00,0.0028
3894.00,0.0028
3893.00,0.0028
3892.00,0.0028
3891.00,0.0029
3890.00,0.0029
3889.00,0.0029
3888.00,0.0028
3887.00,0.0028
3886.00,0.0028
3885.00,0.0028
3884.00,0.0028
3883.00,0.0028
3882.00,0.0028
3881.00,0.0028
3880.00,0.0028
3879.00,0.0028
3878.00,0.0028
3877.00,0.0028
3876.00,0.0028
3875.00,0.0028
3874.00,0.0028
3873.00,0.0028
3872.00,0.0027
3871.00,0.0027
3870.00,0.0027
3869.00,0.0028
3868.00,0.0028
3867.00,0.0028
3866.00,0.0028
3865.00,0.0028
3864.00,0.0028
3863.00,0.0028
3862.00,0.0027
3861.00,0.0027
3860.00,0.0028
3859.00,0.0028
3858.00,0.0028
3857.00,0.0028
3856.00,0.0027
3855.00,0.0027
3854.00,0.0027
3853.00,0.0027
3852.00,0.0027
3851.00,0.0027
3850.00,0.0027
3849.00,0.0027
3848.00,0.0028
3847.00,0.0028
3846.00,0.0028
3845.00,0.0029
3844.00,0.0029
3843.00,0.0029
3842.00,0.0028
3841.00,0.0028
3840.00,0.0028
3839.00,0.0028
3838.00,0.0028
3837.00,0.0027
3836.00,0.0027
3835.00,0.0027
3834.00,0.0027
3833.00,0.0028
3832.00,0.0028
3831.00,0.0028
3830.00,0.0028
3829.00,0.0028
3828.00,0.0028
3827.00,0.0028
3826.00,0.0028
3825.00,0.0028
3824.00,0.0028
3823.00,0.0027
3822.00,0.0027
3821.00,0.0027
3820.00,0.0027
3819.00,0.0027
3818.00,0.0027
3817.00,0.0027
3816.00,0.0027
3815.00,0.0028
3814.00,0.0028
3813.00,0.0028
3812.00,0.0028
3811.00,0.0028
3810.00,0.0028
3809.00,0.0028
3808.00,0.0028
3807.00,0.0028
3806.00,0.0028
3805.00,0.0028
3804.00,0.0028
3803.00,0.0027
3802.00,0.0028
3801.00,0.0028
3800.00,0.0028
3799.00,0.0028
3798.00,0.0028
3797.00,0.0028
3796.00,0.0028
3795.00,0.0028
3794.00,0.0028
3793.00,0.0028
3792.00,0.0028
3791.00,0.0029
3790.00,0.0029
3789.00,0.0029
3788.00,0.0029
3787.00,0.0029
3786.00,0.0029
3785.00,0.0028
3784.00,0.0028
3783.00,0.0028
3782.00,0.0028
3781.00,0.0027
3780.00,0.0027
3779.00,0.0027
3778.00,0.0027
3777.00,0.0028
3776.00,0.0028
3775.00,0.0028
3774.00,0.0028
3773.00,0.0029
3772.00,0.0029
3771.00,0.0029
3770.00,0.0029
3769.00,0.0029
3768.00,0.0029
3767.00,0.0028
3766.00,0.0028
3765.00,0.0028
3764.00,0.0029
3763.00,0.0029
3762.00,0.0029
3761.00,0.0029
3760.00,0.0029
3759.00,0.0028
3758.00,0.0028
3757.00,0.0028
3756.00,0.0028
3755.00,0.0028
3754.00,0.0028
3753.00,0.0028
3752.00,0.0028
3751.00,0.0028
3750.00,0.0028
3749.00,0.0028
3748.00,0.0027
3747.00,0.0027
3746.00,0.0027
3745.00,0.0027
3744.00,0.0027
3743.00,0.0027
3742.00,0.0027
3741.00,0.0027
3740.00,0.0027
3739.00,0.0027
3738.00,0.0027
3737.00,0.0026
3736.00,0.0026
3735.00,0.0025
3734.00,0.0025
3733.00,0.0025
3732.00,0.0026
3731.00,0.0027
3730.00,0.0027
3729.00,0.0027
3728.00,0.0027
3727.00,0.0027
3726.00,0.0027
3725.00,0.0027
3724.00,0.0027
3723.00,0.0027
3722.00,0.0027
3721.00,0.0026
3720.00,0.0027
3719.00,0.0027
3718.00,0.0027
3717.00,0.0027
3716.00,0.0027
3715.00,0.0027
3714.00,0.0026
3713.00,0.0026
3712.00,0.0026
3711.00,0.0026
3710.00,0.0026
3709.00,0.0026
3708.00,0.0026
3707.00,0.0026
3706.00,0.0026
3705.00,0.0026
3704.00,0.0026
3703.00,0.0026
3702.00,0.0026
3701.00,0.0026
3700.00,0.0026
3699.00,0.0026
3698.00,0.0026
3697.00,0.0026
3696.00,0.0026
3695.00,0.0026
3694.00,0.0026
3693.00,0.0026
3692.00,0.0026
3691.00,0.0026
3690.00,0.0026
3689.00,0.0026
3688.00,0.0026
3687.00,0.0026
3686.00,0.0026
3685.00,0.0026
3684.00,0.0027
3683.00,0.0027
3682.00,0.0028
3681.00,0.0028
3680.00,0.0028
3679.00,0.0027
3678.00,0.0027
3677.00,0.0027
3676.00,0.0026
3675.00,0.0026
3674.00,0.0027
3673.00,0.0027
3672.00,0.0027
3671.00,0.0027
3670.00,0.0028
3669.00,0.0028
3668.00,0.0029
3667.00,0.0029
3666.00,0.0029
3665.00,0.0029
3664.00,0.0030
3663.00,0.0030
3662.00,0.0030
3661.00,0.0031
3660.00,0.0031
3659.00,0.0031
3658.00,0.0030
3657.00,0.0030
3656.00,0.0030
3655.00,0.0031
3654.00,0.0031
3653.00,0.0031
3652.00,0.0030
3651.00,0.0030
3650.00,0.0029
3649.00,0.0029
3648.00,0.0030
3647.00,0.0030
3646.00,0.0030
3645.00,0.0031
3644.00,0.0031
3643.00,0.0031
3642.00,0.0032
3641.00,0.0032
3640.00,0.0033
3639.00,0.0033
3638.00,0.0033
3637.00,0.0033
3636.00,0.0033
3635.00,0.0033
3634.00,0.0034
3633.00,0.0034
3632.00,0.0034
3631.00,0.0034
3630.00,0.0034
3629.00,0.0035
3628.00,0.0035
3627.00,0.0035
3626.00,0.0035
3625.00,0.0035
3624.00,0.0035
3623.00,0.0036
3622.00,0.0036
3621.00,0.0036
3620.00,0.0037
3619.00,0.0037
3618.00,0.0038
3617.00,0.0038
3616.00,0.0038
3615.00,0.0038
3614.00,0.0039
3613.00,0.0039
3612.00,0.0039
3611.00,0.0040
3610.00,0.0040
3609.00,0.0040
3608.00,0.0040
3607.00,0.0041
3606.00,0.0041
3605.00,0.0041
3604.00,0.0042
3603.00,0.0043
3602.00,0.0043
3601.00,0.0043
3600.00,0.0043
3599.00,0.0043
3598.00,0.0043
3597.00,0.0043
3596.00,0.0044
3595.00,0.0044
3594.00,0.0045
3593.00,0.0045
3592.00,0.0046
3591.00,0.0046
3590.00,0.0047
3589.00,0.0047
3588.00,0.0048
3587.00,0.0048
3586.00,0.0049
3585.00,0.0049
3584.00,0.0049
3583.00,0.0050
3582.00,0.0051
3581.00,0.0051
3580.00,0.0052
3579.00,0.0052
3578.00,0.0052
3577.00,0.0053
3576.00,0.0054
3575.00,0.0054
3574.00,0.0055
3573.00,0.0055
3572.00,0.0055
3571.00,0.0055
3570.00,0.0055
3569.00,0.0056
3568.00,0.0057
3567.00,0.0057
3566.00,0.0058
3565.00,0.0058
3564.00,0.0059
3563.00,0.0059
3562.00,0.0060
3561.00,0.0061
3560.00,0.0061
3559.00,0.0062
3558.00,0.0063
3557.00,0.0064
3556.00,0.0065
3555.00,0.0065
3554.00,0.0066
3553.00,0.0067
3552.00,0.0067
3551.00,0.0067
3550.00,0.0068
3549.00,0.0068
3548.00,0.0069
3547.00,0.0070
3546.00,0.0070
3545.00,0.0071
3544.00,0.0072
3543.00,0.0072
3542.00,0.0073
3541.00,0.0073
3540.00,0.0074
3539.00,0.0075
3538.00,0.0076
3537.00,0.0077
3536.00,0.0077
3535.00,0.0078
3534.00,0.0079
3533.00,0.0079
3532.00,0.0080
3531.00,0.0080
3530.00,0.0080
3529.00,0.0081
3528.00,0.0082
3527.00,0.0082
3526.00,0.0083
3525.00,0.0084
3524.00,0.0085
3523.00,0.0085
3522.00,0.0086
3521.00,0.0087
3520.00,0.0088
3519.00,0.0088
3518.00,0.0089
3517.00,0.0090
3516.00,0.0091
3515.00,0.0092
3514.00,0.0092
3513.00,0.0092
3512.00,0.0092
3511.00,0.0093
3510.00,0.0093
3509.00,0.0094
3508.00,0.0094
3507.00,0.0095
3506.00,0.0095
3505.00,0.0096
3504.00,0.0097
3503.00,0.0098
3502.00,0.0099
3501.00,0.0099
3500.00,0.0100
3499.00,0.0101
3498.00,0.0101
3497.00,0.0102
3496.00,0.0102
3495.00,0.0103
3494.00,0.0103
3493.00,0.0104
3492.00,0.0105
3491.00,0.0106
3490.00,0.0107
3489.00,0.0108
3488.00,0.0109
3487.00,0.0110
3486.00,0.0111
3485.00,0.0111
3484.00,0.0112
3483.00,0.0113
3482.00,0.0114
3481.00,0.0115
3480.00,0.0116
3479.00,0.0117
3478.00,0.0118
3477.00,0.0119
3476.00,0.0121
3475.00,0.0122
3474.00,0.0123
3473.00,0.0125
3472.00,0.0126
3471.00,0.0127
3470.00,0.0128
3469.00,0.0129
3468.00,0.0131
3467.00,0.0132
3466.00,0.0133
3465.00,0.0135
3464.00,0.0136
3463.00,0.0137
3462.00,0.0138
3461.00,0.0140
3460.00,0.0141
3459.00,0.0143
3458.00,0.0144
3457.00,0.0146
3456.00,0.0147
3455.00,0.0149
3454.00,0.0150
3453.00,0.0152
3452.00,0.0153
3451.00,0.0154
3450.00,0.0156
3449.00,0.0157
3448.00,0.0159
3447.00,0.0161
3446.00,0.0163
3445.00,0.0164
3444.00,0.0166
3443.00,0.0168
3442.00,0.0169
3441.00,0.0171
3440.00,0.0173
3439.00,0.0175
3438.00,0.0177
3437.00,0.0179
3436.00,0.0182
3435.00,0.0184
3434.00,0.0186
3433.00,0.0188
3432.00,0.0190
3431.00,0.0193
3430.00,0.0195
3429.00,0.0198
3428.00,0.0200
3427.00,0.0202
3426.00,0.0205
3425.00,0.0207
3424.00,0.0209
3423.00,0.0211
3422.00,0.0214
3421.00,0.0217
3420.00,0.0220
3419.00,0.0223
3418.00,0.0226
3417.00,0.0228
3416.00,0.0231
3415.00,0.0233
3414.00,0.0236
3413.00,0.0238
3412.00,0.0240
3411.00,0.0242
3410.00,0.0244
3409.00,0.0246
3408.00,0.0247
3407.00,0.0249
3406.00,0.0250
3405.00,0.0251
3404.00,0.0252
3403.00,0.0253
3402.00,0.0254
3401.00,0.0254
3400.00,0.0254
3399.00,0.0254
3398.00,0.0254
3397.00,0.0254
3396.00,0.0253
3395.00,0.0253
3394.00,0.0252
3393.00,0.0252
3392.00,0.0251
3391.00,0.0250
3390.00,0.0249
3389.00,0.0247
3388.00,0.0245
3387.00,0.0244
3386.00,0.0242
3385.00,0.0241
3384.00,0.0239
3383.00,0.0238
3382.00,0.0236
3381.00,0.0234
3380.00,0.0232
3379.00,0.0230
3378.00,0.0228
3377.00,0.0226
3376.00,0.0225
3375.00,0.0223
3374.00,0.0221
3373.00,0.0220
3372.00,0.0218
3371.00,0.0216
3370.00,0.0214
3369.00,0.0213
3368.00,0.0211
3367.00,0.0210
3366.00,0.0209
3365.00,0.0207
3364.00,0.0206
3363.00,0.0204
3362.00,0.0202
3361.00,0.0201
3360.00,0.0199
3359.00,0.0198
3358.00,0.0197
3357.00,0.0196
3356.00,0.0195
3355.00,0.0194
3354.00,0.0193
3353.00,0.0192
3352.00,0.0191
3351.00,0.0190
3350.00,0.0189
3349.00,0.0189
3348.00,0.0188
3347.00,0.0187
3346.00,0.0186
3345.00,0.0185
3344.00,0.0184
3343.00,0.0184
3342.00,0.0183
3341.00,0.0182
3340.00,0.0182
3339.00,0.0181
3338.00,0.0181
3337.00,0.0181
3336.00,0.0181
3335.00,0.0181
3334.00,0.0180
3333.00,0.0180
3332.00,0.0180
3331.00,0.0180
3330.00,0.0180
3329.00,0.0180
3328.00,0.0180
3327.00,0.0179
3326.00,0.0179
3325.00,0.0180
3324.00,0.0180
3323.00,0.0181
3322.00,0.0181
3321.00,0.0181
3320.00,0.0181
3319.00,0.0182
3318.00,0.0182
3317.00,0.0183
3316.00,0.0183
3315.00,0.0183
3314.00,0.0183
3313.00,0.0183
3312.00,0.0183
3311.00,0.0183
3310.00,0.0183
3309.00,0.0183
3308.00,0.0184
3307.00,0.0184
3306.00,0.0185
3305.00,0.0186
3304.00,0.0187
3303.00,0.0189
3302.00,0.0190
3301.00,0.0191
3300.00,0.0191
3299.00,0.0192
3298.00,0.0192
3297.00,0.0193
3296.00,0.0193
3295.00,0.0194
3294.00,0.0195
3293.00,0.0196
3292.00,0.0197
3291.00,0.0198
3290.00,0.0199
3289.00,0.0200
3288.00,0.0202
3287.00,0.0203
3286.00,0.0204
3285.00,0.0205
3284.00,0.0206
3283.00,0.0207
3282.00,0.0208
3281.00,0.0209
3280.00,0.0210
3279.00,0.0211
3278.00,0.0212
3277.00,0.0212
3276.00,0.0213
3275.00,0.0213
3274.00,0.0214
3273.00,0.0214
3272.00,0.0215
3271.00,0.0216
3270.00,0.0217
3269.00,0.0219
3268.00,0.0220
3267.00,0.0221
3266.00,0.0222
3265.00,0.0223
3264.00,0.0224
3263.00,0.0225
3262.00,0.0226
3261.00,0.0227
3260.00,0.0227
3259.00,0.0228
3258.00,0.0229
3257.00,0.0229
3256.00,0.0230
3255.00,0.0232
3254.00,0.0233
3253.00,0.0234
3252.00,0.0234
3251.00,0.0235
3250.00,0.0235
3249.00,0.0235
3248.00,0.0236
3247.00,0.0236
3246.00,0.0237
3245.00,0.0238
3244.00,0.0239
3243.00,0.0240
3242.00,0.0240
3241.00,0.0241
3240.00,0.0241
3239.00,0.0241
3238.00,0.0241
3237.00,0.0240
3236.00,0.0240
3235.00,0.0239
3234.00,0.0238
3233.00,0.0238
3232.00,0.0239
3231.00,0.0239
3230.00,0.0239
3229.00,0.0239
3228.00,0.0239
3227.00,0.0239
3226.00,0.0239
3225.00,0.0238
3224.00,0.0238
3223.00,0.0237
3222.00,0.0236
3221.00,0.0236
3220.00,0.0235
3219.00,0.0234
3218.00,0.0233
3217.00,0.0232
3216.00,0.0231
3215.00,0.0230
3214.00,0.0229
3213.00,0.0228
3212.00,0.0227
3211.00,0.0226
3210.00,0.0224
3209.00,0.0222
3208.00,0.0221
3207.00,0.0219
3206.00,0.0218
3205.00,0.0216
3204.00,0.0215
3203.00,0.0213
3202.00,0.0212
3201.00,0.0210
3200.00,0.0209
3199.00,0.0207
3198.00,0.0206
3197.00,0.0204
3196.00,0.0202
3195.00,0.0200
3194.00,0.0198
3193.00,0.0196
3192.00,0.0195
3191.00,0.0193
3190.00,0.0192
3189.00,0.0190
3188.00,0.0188
3187.00,0.0187
3186.00,0.0185
3185.00,0.0183
3184.00,0.0181
3183.00,0.0180
3182.00,0.0178
3181.00,0.0176
3180.00,0.0175
3179.00,0.0173
3178.00,0.0172
3177.00,0.0170
3176.00,0.0169
3175.00,0.0167
3174.00,0.0165
3173.00,0.0164
3172.00,0.0162
3171.00,0.0160
3170.00,0.0158
3169.00,0.0157
3168.00,0.0155
3167.00,0.0153
3166.00,0.0151
3165.00,0.0150
3164.00,0.0148
3163.00,0.0146
3162.00,0.0144
3161.00,0.0142
3160.00,0.0141
3159.00,0.0139
3158.00,0.0137
3157.00,0.0135
3156.00,0.0134
3155.00,0.0132
3154.00,0.0130
3153.00,0.0128
3152.00,0.0127
3151.00,0.0126
3150.00,0.0125
3149.00,0.0124
3148.00,0.0123
3147.00,0.0121
3146.00,0.0120
3145.00,0.0118
3144.00,0.0117
3143.00,0.0115
3142.00,0.0114
3141.00,0.0112
3140.00,0.0111
3139.00,0.0110
3138.00,0.0109
3137.00,0.0108
3136.00,0.0107
3135.00,0.0106
3134.00,0.0105
3133.00,0.0104
3132.00,0.0103
3131.00,0.0102
3130.00,0.0101
3129.00,0.0100
3128.00,0.0099
3127.00,0.0099
3126.00,0.0098
3125.00,0.0097
3124.00,0.0096
3123.00,0.0095
3122.00,0.0094
3121.00,0.0094
3120.00,0.0093
3119.00,0.0092
3118.00,0.0091
3117.00,0.0090
3116.00,0.0090
3115.00,0.0088
3114.00,0.0087
3113.00,0.0086
3112.00,0.0085
3111.00,0.0084
3110.00,0.0083
3109.00,0.0083
3108.00,0.0082
3107.00,0.0082
3106.00,0.0081
3105.00,0.0080
3104.00,0.0079
3103.00,0.0078
3102.00,0.0077
3101.00,0.0076
3100.00,0.0076
3099.00,0.0075
3098.00,0.0075
3097.00,0.0075
3096.00,0.0075
3095.00,0.0075
3094.00,0.0076
3093.00,0.0076
3092.00,0.0076
3091.00,0.0076
3090.00,0.0076
3089.00,0.0077
3088.00,0.0077
3087.00,0.0077
3086.00,0.0077
3085.00,0.0077
3084.00,0.0077
3083.00,0.0077
3082.00,0.0077
3081.00,0.0076
3080.00,0.0076
3079.00,0.0076
3078.00,0.0075
3077.00,0.0075
3076.00,0.0074
3075.00,0.0074
3074.00,0.0073
3073.00,0.0073
3072.00,0.0073
3071.00,0.0073
3070.00,0.0073
3069.00,0.0073
3068.00,0.0072
3067.00,0.0072
3066.00,0.0072
3065.00,0.0072
3064.00,0.0072
3063.00,0.0072
3062.00,0.0072
3061.00,0.0073
3060.00,0.0073
3059.00,0.0073
3058.00,0.0074
3057.00,0.0074
3056.00,0.0074
3055.00,0.0074
3054.00,0.0074
3053.00,0.0074
3052.00,0.0074
3051.00,0.0074
3050.00,0.0074
3049.00,0.0073
3048.00,0.0073
3047.00,0.0073
3046.00,0.0073
3045.00,0.0073
3044.00,0.0073
3043.00,0.0073
3042.00,0.0073
3041.00,0.0074
3040.00,0.0075
3039.00,0.0076
3038.00,0.0077
3037.00,0.0078
3036.00,0.0079
3035.00,0.0080
3034.00,0.0081
3033.00,0.0081
3032.00,0.0081
3031.00,0.0081
3030.00,0.0080
3029.00,0.0079
3028.00,0.0078
3027.00,0.0076
3026.00,0.0075
3025.00,0.0074
3024.00,0.0073
3023.00,0.0072
3022.00,0.0072
3021.00,0.0071
3020.00,0.0070
3019.00,0.0070
3018.00,0.0070
3017.00,0.0069
3016.00,0.0069
3015.00,0.0069
3014.00,0.0069
3013.00,0.0070
3012.00,0.0070
3011.00,0.0071
3010.00,0.0072
3009.00,0.0074
3008.00,0.0075
3007.00,0.0077
3006.00,0.0079
3005.00,0.0082
3004.00,0.0084
3003.00,0.0087
3002.00,0.0090
3001.00,0.0093
3000.00,0.0097
2999.00,0.0101
2998.00,0.0106
2997.00,0.0111
2996.00,0.0115
2995.00,0.0120
2994.00,0.0123
2993.00,0.0126
2992.00,0.0129
2991.00,0.0132
2990.00,0.0134
2989.00,0.0137
2988.00,0.0140
2987.00,0.0142
2986.00,0.0146
2985.00,0.0151
2984.00,0.0156
2983.00,0.0163
2982.00,0.0171
2981.00,0.0179
2980.00,0.0186
2979.00,0.0191
2978.00,0.0194
2977.00,0.0195
2976.00,0.0197
2975.00,0.0201
2974.00,0.0208
2973.00,0.0217
2972.00,0.0228
2971.00,0.0238
2970.00,0.0246
2969.00,0.0253
2968.00,0.0258
2967.00,0.0262
2966.00,0.0267
2965.00,0.0274
2964.00,0.0281
2963.00,0.0289
2962.00,0.0295
2961.00,0.0300
2960.00,0.0301
2959.00,0.0300
2958.00,0.0295
2957.00,0.0288
2956.00,0.0280
2955.00,0.0271
2954.00,0.0262
2953.00,0.0254
2952.00,0.0248
2951.00,0.0243
2950.00,0.0239
2949.00,0.0237
2948.00,0.0238
2947.00,0.0240
2946.00,0.0244
2945.00,0.0249
2944.00,0.0256
2943.00,0.0264
2942.00,0.0273
2941.00,0.0283
2940.00,0.0295
2939.00,0.0308
2938.00,0.0324
2937.00,0.0342
2936.00,0.0362
2935.00,0.0384
2934.00,0.0406
2933.00,0.0429
2932.00,0.0452
2931.00,0.0473
2930.00,0.0492
2929.00,0.0506
2928.00,0.0515
2927.00,0.0519
2926.00,0.0516
2925.00,0.0509
2924.00,0.0497
2923.00,0.0483
2922.00,0.0467
2921.00,0.0450
2920.00,0.0432
2919.00,0.0414
2918.00,0.0396
2917.00,0.0379
2916.00,0.0362
2915.00,0.0347
2914.00,0.0333
2913.00,0.0320
2912.00,0.0308
2911.00,0.0298
2910.00,0.0288
2909.00,0.0279
2908.00,0.0270
2907.00,0.0262
2906.00,0.0255
2905.00,0.0247
2904.00,0.0241
2903.00,0.0234
2902.00,0.0228
2901.00,0.0223
2900.00,0.0217
2899.00,0.0212
2898.00,0.0207
2897.00,0.0203
2896.00,0.0198
2895.00,0.0194
2894.00,0.0191
2893.00,0.0187
2892.00,0.0184
2891.00,0.0181
2890.00,0.0178
2889.00,0.0176
2888.00,0.0173
2887.00,0.0171
2886.00,0.0169
2885.00,0.0168
2884.00,0.0167
2883.00,0.0168
2882.00,0.0169
2881.00,0.0171
2880.00,0.0174
2879.00,0.0179
2878.00,0.0186
2877.00,0.0193
2876.00,0.0200
2875.00,0.0207
2874.00,0.0213
2873.00,0.0217
2872.00,0.0219
2871.00,0.0220
2870.00,0.0219
2869.00,0.0218
2868.00,0.0218
2867.00,0.0219
2866.00,0.0222
2865.00,0.0228
2864.00,0.0237
2863.00,0.0249
2862.00,0.0264
2861.00,0.0281
2860.00,0.0299
2859.00,0.0315
2858.00,0.0328
2857.00,0.0336
2856.00,0.0340
2855.00,0.0340
2854.00,0.0337
2853.00,0.0330
2852.00,0.0321
2851.00,0.0307
2850.00,0.0291
2849.00,0.0271
2848.00,0.0251
2847.00,0.0231
2846.00,0.0212
2845.00,0.0195
2844.00,0.0180
2843.00,0.0166
2842.00,0.0154
2841.00,0.0144
2840.00,0.0135
2839.00,0.0127
2838.00,0.0121
2837.00,0.0115
2836.00,0.0111
2835.00,0.0107
2834.00,0.0104
2833.00,0.0100
2832.00,0.0098
2831.00,0.0095
2830.00,0.0092
2829.00,0.0090
2828.00,0.0087
2827.00,0.0085
2826.00,0.0083
2825.00,0.0081
2824.00,0.0079
2823.00,0.0078
2822.00,0.0076
2821.00,0.0075
2820.00,0.0074
2819.00,0.0072
2818.00,0.0071
2817.00,0.0070
2816.00,0.0069
2815.00,0.0068
2814.00,0.0067
2813.00,0.0067
2812.00,0.0066
2811.00,0.0065
2810.00,0.0064
2809.00,0.0064
2808.00,0.0063
2807.00,0.0063
2806.00,0.0062
2805.00,0.0062
2804.00,0.0062
2803.00,0.0061
2802.00,0.0061
2801.00,0.0060
2800.00,0.0060
2799.00,0.0059
2798.00,0.0058
2797.00,0.0058
2796.00,0.0057
2795.00,0.0057
2794.00,0.0056
2793.00,0.0055
2792.00,0.0055
2791.00,0.0054
2790.00,0.0054
2789.00,0.0053
2788.00,0.0053
2787.00,0.0053
2786.00,0.0053
2785.00,0.0052
2784.00,0.0052
2783.00,0.0052
2782.00,0.0051
2781.00,0.0051
2780.00,0.0050
2779.00,0.0050
2778.00,0.0050
2777.00,0.0049
2776.00,0.0049
2775.00,0.0049
2774.00,0.0049
2773.00,0.0049
2772.00,0.0049
2771.00,0.0049
2770.00,0.0049
2769.00,0.0049
2768.00,0.0049
2767.00,0.0049
2766.00,0.0048
2765.00,0.0048
2764.00,0.0048
2763.00,0.0048
2762.00,0.0048
2761.00,0.0048
2760.00,0.0049
2759.00,0.0049
2758.00,0.0049
2757.00,0.0049
2756.00,0.0049
2755.00,0.0049
2754.00,0.0049
2753.00,0.0049
2752.00,0.0049
2751.00,0.0049
2750.00,0.0049
2749.00,0.0049
2748.00,0.0049
2747.00,0.0049
2746.00,0.0050
2745.00,0.0050
2744.00,0.0051
2743.00,0.0051
2742.00,0.0051
2741.00,0.0051
2740.00,0.0052
2739.00,0.0052
2738.00,0.0053
2737.00,0.0053
2736.00,0.0054
2735.00,0.0055
2734.00,0.0055
2733.00,0.0056
2732.00,0.0056
2731.00,0.0057
2730.00,0.0057
2729.00,0.0056
2728.00,0.0056
2727.00,0.0056
2726.00,0.0055
2725.00,0.0055
2724.00,0.0054
2723.00,0.0054
2722.00,0.0054
2721.00,0.0054
2720.00,0.0053
2719.00,0.0053
2718.00,0.0053
2717.00,0.0052
2716.00,0.0052
2715.00,0.0052
2714.00,0.0052
2713.00,0.0051
2712.00,0.0051
2711.00,0.0051
2710.00,0.0051
2709.00,0.0051
2708.00,0.0051
2707.00,0.0051
2706.00,0.0051
2705.00,0.0051
2704.00,0.0051
2703.00,0.0050
2702.00,0.0050
2701.00,0.0050
2700.00,0.0050
2699.00,0.0050
2698.00,0.0050
2697.00,0.0050
2696.00,0.0049
2695.00,0.0049
2694.00,0.0049
2693.00,0.0048
2692.00,0.0048
2691.00,0.0048
2690.00,0.0048
2689.00,0.0048
2688.00,0.0047
2687.00,0.0047
2686.00,0.0047
2685.00,0.0047
2684.00,0.0047
2683.00,0.0047
2682.00,0.0047
2681.00,0.0047
2680.00,0.0047
2679.00,0.0046
2678.00,0.0046
2677.00,0.0046
2676.00,0.0047
2675.00,0.0047
2674.00,0.0047
2673.00,0.0047
2672.00,0.0047
2671.00,0.0048
2670.00,0.0048
2669.00,0.0048
2668.00,0.0048
2667.00,0.0049
2666.00,0.0050
2665.00,0.0050
2664.00,0.0051
2663.00,0.0051
2662.00,0.0052
2661.00,0.0052
2660.00,0.0053
2659.00,0.0053
2658.00,0.0054
2657.00,0.0054
2656.00,0.0054
2655.00,0.0054
2654.00,0.0054
2653.00,0.0054
2652.00,0.0054
2651.00,0.0055
2650.00,0.0055
2649.00,0.0055
2648.00,0.0055
2647.00,0.0055
2646.00,0.0054
2645.00,0.0054
2644.00,0.0054
2643.00,0.0054
2642.00,0.0054
2641.00,0.0054
2640.00,0.0054
2639.00,0.0053
2638.00,0.0053
2637.00,0.0053
2636.00,0.0053
2635.00,0.0053
2634.00,0.0052
2633.00,0.0052
2632.00,0.0051
2631.00,0.0051
2630.00,0.0050
2629.00,0.0050
2628.00,0.0050
2627.00,0.0049
2626.00,0.0049
2625.00,0.0049
2624.00,0.0049
2623.00,0.0048
2622.00,0.0048
2621.00,0.0048
2620.00,0.0048
2619.00,0.0048
2618.00,0.0047
2617.00,0.0047
2616.00,0.0047
2615.00,0.0047
2614.00,0.0047
2613.00,0.0048
2612.00,0.0048
2611.00,0.0048
2610.00,0.0048
2609.00,0.0048
2608.00,0.0048
2607.00,0.0048
2606.00,0.0048
2605.00,0.0048
2604.00,0.0048
2603.00,0.0049
2602.00,0.0049
2601.00,0.0049
2600.00,0.0049
2599.00,0.0050
2598.00,0.0050
2597.00,0.0050
2596.00,0.0050
2595.00,0.0050
2594.00,0.0050
2593.00,0.0050
2592.00,0.0050
2591.00,0.0050
2590.00,0.0050
2589.00,0.0050
2588.00,0.0050
2587.00,0.0050
2586.00,0.0050
2585.00,0.0050
2584.00,0.0050
2583.00,0.0050
2582.00,0.0049
2581.00,0.0049
2580.00,0.0049
2579.00,0.0049
2578.00,0.0049
2577.00,0.0048
2576.00,0.0048
2575.00,0.0047
2574.00,0.0047
2573.00,0.0047
2572.00,0.0047
2571.00,0.0047
2570.00,0.0048
2569.00,0.0048
2568.00,0.0047
2567.00,0.0047
2566.00,0.0047
2565.00,0.0047
2564.00,0.0047
2563.00,0.0046
2562.00,0.0046
2561.00,0.0046
2560.00,0.0046
2559.00,0.0045
2558.00,0.0045
2557.00,0.0045
2556.00,0.0045
2555.00,0.0044
2554.00,0.0043
2553.00,0.0043
2552.00,0.0043
2551.00,0.0043
2550.00,0.0043
2549.00,0.0043
2548.00,0.0043
2547.00,0.0043
2546.00,0.0044
2545.00,0.0044
2544.00,0.0044
2543.00,0.0044
2542.00,0.0044
2541.00,0.0044
2540.00,0.0044
2539.00,0.0045
2538.00,0.0045
2537.00,0.0044
2536.00,0.0044
2535.00,0.0044
2534.00,0.0044
2533.00,0.0043
2532.00,0.0043
2531.00,0.0043
2530.00,0.0043
2529.00,0.0042
2528.00,0.0042
2527.00,0.0042
2526.00,0.0042
2525.00,0.0042
2524.00,0.0042
2523.00,0.0042
2522.00,0.0041
2521.00,0.0041
2520.00,0.0041
2519.00,0.0041
2518.00,0.0040
2517.00,0.0040
2516.00,0.0040
2515.00,0.0040
2514.00,0.0040
2513.00,0.0040
2512.00,0.0040
2511.00,0.0040
2510.00,0.0039
2509.00,0.0039
2508.00,0.0039
2507.00,0.0039
2506.00,0.0039
2505.00,0.0039
2504.00,0.0039
2503.00,0.0039
2502.00,0.0038
2501.00,0.0038
2500.00,0.0038
2499.00,0.0038
2498.00,0.0038
2497.00,0.0038
2496.00,0.0038
2495.00,0.0038
2494.00,0.0038
2493.00,0.0038
2492.00,0.0038
2491.00,0.0038
2490.00,0.0038
2489.00,0.0037
2488.00,0.0037
2487.00,0.0037
2486.00,0.0037
2485.00,0.0037
2484.00,0.0037
2483.00,0.0036
2482.00,0.0036
2481.00,0.0036
2480.00,0.0036
2479.00,0.0036
2478.00,0.0036
2477.00,0.0036
2476.00,0.0036
2475.00,0.0036
2474.00,0.0036
2473.00,0.0036
2472.00,0.0036
2471.00,0.0036
2470.00,0.0036
2469.00,0.0036
2468.00,0.0036
2467.00,0.0036
2466.00,0.0036
2465.00,0.0036
2464.00,0.0036
2463.00,0.0036
2462.00,0.0036
2461.00,0.0036
2460.00,0.0037
2459.00,0.0037
2458.00,0.0037
2457.00,0.0038
2456.00,0.0038
2455.00,0.0038
2454.00,0.0038
2453.00,0.0038
2452.00,0.0038
2451.00,0.0037
2450.00,0.0037
2449.00,0.0037
2448.00,0.0037
2447.00,0.0037
2446.00,0.0037
2445.00,0.0037
2444.00,0.0036
2443.00,0.0036
2442.00,0.0036
2441.00,0.0036
2440.00,0.0036
2439.00,0.0035
2438.00,0.0035
2437.00,0.0035
2436.00,0.0035
2435.00,0.0035
2434.00,0.0035
2433.00,0.0034
2432.00,0.0035
2431.00,0.0035
2430.00,0.0035
2429.00,0.0035
2428.00,0.0034
2427.00,0.0034
2426.00,0.0034
2425.00,0.0033
2424.00,0.0033
2423.00,0.0033
2422.00,0.0033
2421.00,0.0033
2420.00,0.0034
2419.00,0.0034
2418.00,0.0033
2417.00,0.0033
2416.00,0.0033
2415.00,0.0033
2414.00,0.0033
2413.00,0.0033
2412.00,0.0034
2411.00,0.0034
2410.00,0.0033
2409.00,0.0033
2408.00,0.0033
2407.00,0.0033
2406.00,0.0032
2405.00,0.0032
2404.00,0.0032
2403.00,0.0032
2402.00,0.0032
2401.00,0.0032
2400.00,0.0032
2399.00,0.0032
2398.00,0.0032
2397.00,0.0032
2396.00,0.0032
2395.00,0.0032
2394.00,0.0032
2393.00,0.0032
2392.00,0.0032
2391.00,0.0032
2390.00,0.0031
2389.00,0.0031
2388.00,0.0031
2387.00,0.0030
2386.00,0.0030
2385.00,0.0029
2384.00,0.0029
2383.00,0.0028
2382.00,0.0027
2381.00,0.0026
2380.00,0.0026
2379.00,0.0026
2378.00,0.0026
2377.00,0.0027
2376.00,0.0027
2375.00,0.0028
2374.00,0.0028
2373.00,0.0028
2372.00,0.0027
2371.00,0.0027
2370.00,0.0026
2369.00,0.0026
2368.00,0.0026
2367.00,0.0026
2366.00,0.0025
2365.00,0.0026
2364.00,0.0026
2363.00,0.0026
2362.00,0.0026
2361.00,0.0026
2360.00,0.0026
2359.00,0.0027
2358.00,0.0027
2357.00,0.0027
2356.00,0.0027
2355.00,0.0026
2354.00,0.0026
2353.00,0.0025
2352.00,0.0024
2351.00,0.0024
2350.00,0.0025
2349.00,0.0026
2348.00,0.0027
2347.00,0.0028
2346.00,0.0029
2345.00,0.0029
2344.00,0.0030
2343.00,0.0030
2342.00,0.0030
2341.00,0.0030
2340.00,0.0031
2339.00,0.0031
2338.00,0.0031
2337.00,0.0031
2336.00,0.0031
2335.00,0.0031
2334.00,0.0031
2333.00,0.0030
2332.00,0.0030
2331.00,0.0030
2330.00,0.0031
2329.00,0.0034
2328.00,0.0037
2327.00,0.0042
2326.00,0.0045
2325.00,0.0045
2324.00,0.0044
2323.00,0.0043
2322.00,0.0041
2321.00,0.0039
2320.00,0.0038
2319.00,0.0037
2318.00,0.0037
2317.00,0.0036
2316.00,0.0036
2315.00,0.0035
2314.00,0.0035
2313.00,0.0034
2312.00,0.0033
2311.00,0.0033
2310.00,0.0033
2309.00,0.0033
2308.00,0.0034
2307.00,0.0034
2306.00,0.0035
2305.00,0.0035
2304.00,0.0036
2303.00,0.0036
2302.00,0.0037
2301.00,0.0037
2300.00,0.0037
2299.00,0.0037
2298.00,0.0038
2297.00,0.0038
2296.00,0.0039
2295.00,0.0040
2294.00,0.0042
2293.00,0.0043
2292.00,0.0044
2291.00,0.0045
2290.00,0.0046
2289.00,0.0046
2288.00,0.0046
2287.00,0.0046
2286.00,0.0046
2285.00,0.0045
2284.00,0.0044
2283.00,0.0043
2282.00,0.0041
2281.00,0.0040
2280.00,0.0040
2279.00,0.0040
2278.00,0.0040
2277.00,0.0040
2276.00,0.0039
2275.00,0.0039
2274.00,0.0039
2273.00,0.0038
2272.00,0.0038
2271.00,0.0038
2270.00,0.0037
2269.00,0.0037
2268.00,0.0037
2267.00,0.0036
2266.00,0.0034
2265.00,0.0033
2264.00,0.0033
2263.00,0.0033
2262.00,0.0033
2261.00,0.0034
2260.00,0.0034
2259.00,0.0033
2258.00,0.0032
2257.00,0.0031
2256.00,0.0030
2255.00,0.0030
2254.00,0.0031
2253.00,0.0032
2252.00,0.0033
2251.00,0.0033
2250.00,0.0033
2249.00,0.0033
2248.00,0.0033
2247.00,0.0033
2246.00,0.0033
2245.00,0.0033
2244.00,0.0033
2243.00,0.0033
2242.00,0.0033
2241.00,0.0034
2240.00,0.0034
2239.00,0.0035
2238.00,0.0035
2237.00,0.0035
2236.00,0.0035
2235.00,0.0035
2234.00,0.0035
2233.00,0.0034
2232.00,0.0034
2231.00,0.0035
2230.00,0.0035
2229.00,0.0035
2228.00,0.0034
2227.00,0.0034
2226.00,0.0033
2225.00,0.0033
2224.00,0.0033
2223.00,0.0033
2222.00,0.0032
2221.00,0.0032
2220.00,0.0032
2219.00,0.0033
2218.00,0.0033
2217.00,0.0034
2216.00,0.0035
2215.00,0.0035
2214.00,0.0035
2213.00,0.0035
2212.00,0.0035
2211.00,0.0035
2210.00,0.0034
2209.00,0.0034
2208.00,0.0035
2207.00,0.0035
2206.00,0.0035
2205.00,0.0034
2204.00,0.0033
2203.00,0.0032
2202.00,0.0031
2201.00,0.0031
2200.00,0.0031
2199.00,0.0031
2198.00,0.0032
2197.00,0.0033
2196.00,0.0034
2195.00,0.0034
2194.00,0.0034
2193.00,0.0034
2192.00,0.0034
2191.00,0.0035
2190.00,0.0036
2189.00,0.0038
2188.00,0.0038
2187.00,0.0038
2186.00,0.0036
2185.00,0.0034
2184.00,0.0033
2183.00,0.0032
2182.00,0.0032
2181.00,0.0033
2180.00,0.0033
2179.00,0.0032
2178.00,0.0030
2177.00,0.0028
2176.00,0.0027
2175.00,0.0027
2174.00,0.0029
2173.00,0.0031
2172.00,0.0034
2171.00,0.0037
2170.00,0.0039
2169.00,0.0041
2168.00,0.0043
2167.00,0.0044
2166.00,0.0046
2165.00,0.0048
2164.00,0.0050
2163.00,0.0050
2162.00,0.0044
2161.00,0.0031
2160.00,0.0015
2159.00,0.0002
2158.00,-0.0005
2157.00,-0.0005
2156.00,-0.0002
2155.00,0.0001
2154.00,0.0004
2153.00,0.0007
2152.00,0.0010
2151.00,0.0011
2150.00,0.0013
2149.00,0.0014
2148.00,0.0014
2147.00,0.0014
2146.00,0.0014
2145.00,0.0014
2144.00,0.0015
2143.00,0.0016
2142.00,0.0016
2141.00,0.0017
2140.00,0.0018
2139.00,0.0017
2138.00,0.0014
2137.00,0.0011
2136.00,0.0009
2135.00,0.0008
2134.00,0.0009
2133.00,0.0011
2132.00,0.0013
2131.00,0.0016
2130.00,0.0017
2129.00,0.0018
2128.00,0.0018
2127.00,0.0019
2126.00,0.0019
2125.00,0.0019
2124.00,0.0020
2123.00,0.0021
2122.00,0.0022
2121.00,0.0024
2120.00,0.0025
2119.00,0.0027
2118.00,0.0028
2117.00,0.0029
2116.00,0.0030
2115.00,0.0030
2114.00,0.0029
2113.00,0.0029
2112.00,0.0029
2111.00,0.0028
2110.00,0.0028
2109.00,0.0028
2108.00,0.0028
2107.00,0.0028
2106.00,0.0028
2105.00,0.0028
2104.00,0.0027
2103.00,0.0027
2102.00,0.0027
2101.00,0.0026
2100.00,0.0027
2099.00,0.0026
2098.00,0.0025
2097.00,0.0024
2096.00,0.0022
2095.00,0.0021
2094.00,0.0022
2093.00,0.0023
2092.00,0.0024
2091.00,0.0026
2090.00,0.0026
2089.00,0.0026
2088.00,0.0027
2087.00,0.0027
2086.00,0.0028
2085.00,0.0028
2084.00,0.0029
2083.00,0.0030
2082.00,0.0030
2081.00,0.0031
2080.00,0.0031
2079.00,0.0031
2078.00,0.0031
2077.00,0.0031
2076.00,0.0030
2075.00,0.0029
2074.00,0.0027
2073.00,0.0027
2072.00,0.0027
2071.00,0.0026
2070.00,0.0026
2069.00,0.0026
2068.00,0.0027
2067.00,0.0027
2066.00,0.0028
2065.00,0.0028
2064.00,0.0027
2063.00,0.0027
2062.00,0.0027
2061.00,0.0026
2060.00,0.0025
2059.00,0.0025
2058.00,0.0024
2057.00,0.0023
2056.00,0.0022
2055.00,0.0022
2054.00,0.0024
2053.00,0.0027
2052.00,0.0031
2051.00,0.0031
2050.00,0.0029
2049.00,0.0026
2048.00,0.0025
2047.00,0.0025
2046.00,0.0024
2045.00,0.0023
2044.00,0.0023
2043.00,0.0024
2042.00,0.0025
2041.00,0.0026
2040.00,0.0027
2039.00,0.0028
2038.00,0.0027
2037.00,0.0026
2036.00,0.0026
2035.00,0.0025
2034.00,0.0023
2033.00,0.0022
2032.00,0.0021
2031.00,0.0021
2030.00,0.0020
2029.00,0.0020
2028.00,0.0020
2027.00,0.0020
2026.00,0.0021
2025.00,0.0022
2024.00,0.0022
2023.00,0.0021
2022.00,0.0019
2021.00,0.0018
2020.00,0.0019
2019.00,0.0021
2018.00,0.0021
2017.00,0.0019
2016.00,0.0017
2015.00,0.0016
2014.00,0.0015
2013.00,0.0016
2012.00,0.0018
2011.00,0.0018
2010.00,0.0017
2009.00,0.0014
2008.00,0.0011
2007.00,0.0009
2006.00,0.0008
2005.00,0.0009
2004.00,0.0010
2003.00,0.0011
2002.00,0.0012
2001.00,0.0014
2000.00,0.0018
1999.00,0.0021
1998.00,0.0022
1997.00,0.0023
1996.00,0.0023
1995.00,0.0022
1994.00,0.0021
1993.00,0.0021
1992.00,0.0022
1991.00,0.0023
1990.00,0.0024
1989.00,0.0024
1988.00,0.0025
1987.00,0.0026
1986.00,0.0027
1985.00,0.0028
1984.00,0.0031
1983.00,0.0034
1982.00,0.0036
1981.00,0.0037
1980.00,0.0035
1979.00,0.0029
1978.00,0.0021
1977.00,0.0016
1976.00,0.0014
1975.00,0.0014
1974.00,0.0014
1973.00,0.0014
1972.00,0.0014
1971.00,0.0014
1970.00,0.0014
1969.00,0.0015
1968.00,0.0015
1967.00,0.0015
1966.00,0.0015
1965.00,0.0015
1964.00,0.0016
1963.00,0.0018
1962.00,0.0018
1961.00,0.0016
1960.00,0.0015
1959.00,0.0013
1958.00,0.0013
1957.00,0.0013
1956.00,0.0015
1955.00,0.0016
1954.00,0.0017
1953.00,0.0017
1952.00,0.0018
1951.00,0.0017
1950.00,0.0017
1949.00,0.0017
1948.00,0.0018
1947.00,0.0018
1946.00,0.0018
1945.00,0.0017
1944.00,0.0017
1943.00,0.0016
1942.00,0.0016
1941.00,0.0016
1940.00,0.0016
1939.00,0.0016
1938.00,0.0017
1937.00,0.0018
1936.00,0.0019
1935.00,0.0020
1934.00,0.0020
1933.00,0.0020
1932.00,0.0020
1931.00,0.0021
1930.00,0.0021
1929.00,0.0021
1928.00,0.0021
1927.00,0.0021
1926.00,0.0020
1925.00,0.0020
1924.00,0.0021
1923.00,0.0022
1922.00,0.0023
1921.00,0.0024
1920.00,0.0025
1919.00,0.0026
1918.00,0.0026
1917.00,0.0026
1916.00,0.0026
1915.00,0.0027
1914.00,0.0027
1913.00,0.0029
1912.00,0.0031
1911.00,0.0033
1910.00,0.0034
1909.00,0.0035
1908.00,0.0036
1907.00,0.0035
1906.00,0.0034
1905.00,0.0033
1904.00,0.0032
1903.00,0.0030
1902.00,0.0029
1901.00,0.0028
1900.00,0.0028
1899.00,0.0027
1898.00,0.0027
1897.00,0.0027
1896.00,0.0028
1895.00,0.0029
1894.00,0.0030
1893.00,0.0030
1892.00,0.0030
1891.00,0.0029
1890.00,0.0029
1889.00,0.0028
1888.00,0.0027
1887.00,0.0026
1886.00,0.0026
1885.00,0.0026
1884.00,0.0026
1883.00,0.0026
1882.00,0.0025
1881.00,0.0025
1880.00,0.0025
1879.00,0.0026
1878.00,0.0026
1877.00,0.0025
1876.00,0.0025
1875.00,0.0025
1874.00,0.0025
1873.00,0.0025
1872.00,0.0026
1871.00,0.0026
1870.00,0.0025
1869.00,0.0025
1868.00,0.0026
1867.00,0.0026
1866.00,0.0027
1865.00,0.0027
1864.00,0.0027
1863.00,0.0028
1862.00,0.0027
1861.00,0.0027
1860.00,0.0027
1859.00,0.0027
1858.00,0.0027
1857.00,0.0027
1856.00,0.0028
1855.00,0.0028
1854.00,0.0028
1853.00,0.0028
1852.00,0.0028
1851.00,0.0029
1850.00,0.0030
1849.00,0.0030
1848.00,0.0031
1847.00,0.0031
1846.00,0.0031
1845.00,0.0032
1844.00,0.0032
1843.00,0.0031
1842.00,0.0030
1841.00,0.0029
1840.00,0.0029
1839.00,0.0028
1838.00,0.0028
1837.00,0.0028
1836.00,0.0028
1835.00,0.0027
1834.00,0.0027
1833.00,0.0027
1832.00,0.0028
1831.00,0.0028
1830.00,0.0028
1829.00,0.0028
1828.00,0.0028
1827.00,0.0028
1826.00,0.0029
1825.00,0.0029
1824.00,0.0029
1823.00,0.0029
1822.00,0.0028
1821.00,0.0028
1820.00,0.0028
1819.00,0.0027
1818.00,0.0026
1817.00,0.0026
1816.00,0.0026
1815.00,0.0027
1814.00,0.0027
1813.00,0.0027
1812.00,0.0028
1811.00,0.0028
1810.00,0.0028
1809.00,0.0028
1808.00,0.0029
1807.00,0.0029
1806.00,0.0029
1805.00,0.0030
1804.00,0.0030
1803.00,0.0031
1802.00,0.0031
1801.00,0.0031
1800.00,0.0031
1799.00,0.0031
1798.00,0.0031
1797.00,0.0032
1796.00,0.0033
1795.00,0.0033
1794.00,0.0033
1793.00,0.0033
1792.00,0.0033
1791.00,0.0033
1790.00,0.0032
1789.00,0.0032
1788.00,0.0032
1787.00,0.0033
1786.00,0.0033
1785.00,0.0033
1784.00,0.0033
1783.00,0.0033
1782.00,0.0033
1781.00,0.0033
1780.00,0.0033
1779.00,0.0033
1778.00,0.0034
1777.00,0.0034
1776.00,0.0035
1775.00,0.0035
1774.00,0.0035
1773.00,0.0035
1772.00,0.0036
1771.00,0.0037
1770.00,0.0037
1769.00,0.0038
1768.00,0.0037
1767.00,0.0036
1766.00,0.0035
1765.00,0.0035
1764.00,0.0036
1763.00,0.0037
1762.00,0.0037
1761.00,0.0038
1760.00,0.0039
1759.00,0.0039
1758.00,0.0039
1757.00,0.0038
1756.00,0.0038
1755.00,0.0037
1754.00,0.0036
1753.00,0.0037
1752.00,0.0037
1751.00,0.0036
1750.00,0.0036
1749.00,0.0035
1748.00,0.0036
1747.00,0.0036
1746.00,0.0037
1745.00,0.0037
1744.00,0.0038
1743.00,0.0038
1742.00,0.0038
1741.00,0.0038
1740.00,0.0038
1739.00,0.0039
1738.00,0.0039
1737.00,0.0039
1736.00,0.0040
1735.00,0.0040
1734.00,0.0040
1733.00,0.0041
1732.00,0.0042
1731.00,0.0044
1730.00,0.0045
1729.00,0.0046
1728.00,0.0046
1727.00,0.0047
1726.00,0.0048
1725.00,0.0049
1724.00,0.0050
1723.00,0.0051
1722.00,0.0052
1721.00,0.0052
1720.00,0.0053
1719.00,0.0053
1718.00,0.0053
1717.00,0.0054
1716.00,0.0056
1715.00,0.0058
1714.00,0.0059
1713.00,0.0060
1712.00,0.0062
1711.00,0.0064
1710.00,0.0065
1709.00,0.0067
1708.00,0.0069
1707.00,0.0071
1706.00,0.0074
1705.00,0.0077
1704.00,0.0080
1703.00,0.0084
1702.00,0.0088
1701.00,0.0094
1700.00,0.0100
1699.00,0.0104
1698.00,0.0107
1697.00,0.0113
1696.00,0.0123
1695.00,0.0134
1694.00,0.0142
1693.00,0.0149
1692.00,0.0157
1691.00,0.0166
1690.00,0.0176
1689.00,0.0185
1688.00,0.0192
1687.00,0.0199
1686.00,0.0207
1685.00,0.0220
1684.00,0.0236
1683.00,0.0249
1682.00,0.0257
1681.00,0.0264
1680.00,0.0272
1679.00,0.0281
1678.00,0.0289
1677.00,0.0298
1676.00,0.0309
1675.00,0.0319
1674.00,0.0326
1673.00,0.0332
1672.00,0.0339
1671.00,0.0347
1670.00,0.0357
1669.00,0.0366
1668.00,0.0374
1667.00,0.0380
1666.00,0.0386
1665.00,0.0393
1664.00,0.0403
1663.00,0.0413
1662.00,0.0422
1661.00,0.0429
1660.00,0.0435
1659.00,0.0442
1658.00,0.0448
1657.00,0.0453
1656.00,0.0459
1655.00,0.0467
1654.00,0.0478
1653.00,0.0487
1652.00,0.0492
1651.00,0.0493
1650.00,0.0496
1649.00,0.0501
1648.00,0.0508
1647.00,0.0514
1646.00,0.0516
1645.00,0.0517
1644.00,0.0517
1643.00,0.0519
1642.00,0.0520
1641.00,0.0520
1640.00,0.0518
1639.00,0.0516
1638.00,0.0512
1637.00,0.0509
1636.00,0.0508
1635.00,0.0506
1634.00,0.0505
1633.00,0.0508
1632.00,0.0517
1631.00,0.0532
1630.00,0.0556
1629.00,0.0588
1628.00,0.0630
1627.00,0.0672
1626.00,0.0708
1625.00,0.0738
1624.00,0.0765
1623.00,0.0785
1622.00,0.0791
1621.00,0.0783
1620.00,0.0766
1619.00,0.0741
1618.00,0.0706
1617.00,0.0663
1616.00,0.0624
1615.00,0.0599
1614.00,0.0587
1613.00,0.0582
1612.00,0.0582
1611.00,0.0579
1610.00,0.0569
1609.00,0.0550
1608.00,0.0524
1607.00,0.0493
1606.00,0.0459
1605.00,0.0426
1604.00,0.0396
1603.00,0.0367
1602.00,0.0342
1601.00,0.0321
1600.00,0.0303
1599.00,0.0289
1598.00,0.0279
1597.00,0.0271
1596.00,0.0268
1595.00,0.0269
1594.00,0.0274
1593.00,0.0286
1592.00,0.0303
1591.00,0.0326
1590.00,0.0354
1589.00,0.0385
1588.00,0.0416
1587.00,0.0444
1586.00,0.0467
1585.00,0.0482
1584.00,0.0491
1583.00,0.0492
1582.00,0.0485
1581.00,0.0473
1580.00,0.0458
1579.00,0.0440
1578.00,0.0418
1577.00,0.0394
1576.00,0.0367
1575.00,0.0344
1574.00,0.0326
1573.00,0.0312
1572.00,0.0301
1571.00,0.0292
1570.00,0.0284
1569.00,0.0276
1568.00,0.0266
1567.00,0.0255
1566.00,0.0241
1565.00,0.0225
1564.00,0.0209
1563.00,0.0195
1562.00,0.0183
1561.00,0.0173
1560.00,0.0161
1559.00,0.0148
1558.00,0.0139
1557.00,0.0133
1556.00,0.0129
1555.00,0.0125
1554.00,0.0123
1553.00,0.0120
1552.00,0.0117
1551.00,0.0116
1550.00,0.0114
1549.00,0.0112
1548.00,0.0110
1547.00,0.0109
1546.00,0.0108
1545.00,0.0106
1544.00,0.0104
1543.00,0.0100
1542.00,0.0097
1541.00,0.0094
1540.00,0.0094
1539.00,0.0094
1538.00,0.0094
1537.00,0.0094
1536.00,0.0094
1535.00,0.0093
1534.00,0.0093
1533.00,0.0092
1532.00,0.0091
1531.00,0.0091
1530.00,0.0090
1529.00,0.0091
1528.00,0.0091
1527.00,0.0092
1526.00,0.0093
1525.00,0.0093
1524.00,0.0094
1523.00,0.0095
1522.00,0.0098
1521.00,0.0102
1520.00,0.0105
1519.00,0.0109
1518.00,0.0113
1517.00,0.0118
1516.00,0.0124
1515.00,0.0130
1514.00,0.0135
1513.00,0.0140
1512.00,0.0145
1511.00,0.0148
1510.00,0.0151
1509.00,0.0152
1508.00,0.0154
1507.00,0.0159
1506.00,0.0167
1505.00,0.0173
1504.00,0.0180
1503.00,0.0187
1502.00,0.0199
1501.00,0.0215
1500.00,0.0239
1499.00,0.0269
1498.00,0.0302
1497.00,0.0333
1496.00,0.0349
1495.00,0.0348
1494.00,0.0335
1493.00,0.0317
1492.00,0.0296
1491.00,0.0272
1490.00,0.0247
1489.00,0.0225
1488.00,0.0206
1487.00,0.0191
1486.00,0.0178
1485.00,0.0167
1484.00,0.0158
1483.00,0.0151
1482.00,0.0146
1481.00,0.0142
1480.00,0.0140
1479.00,0.0140
1478.00,0.0142
1477.00,0.0145
1476.00,0.0149
1475.00,0.0155
1474.00,0.0164
1473.00,0.0181
1472.00,0.0206
1471.00,0.0234
1470.00,0.0264
1469.00,0.0296
1468.00,0.0328
1467.00,0.0359
1466.00,0.0385
1465.00,0.0402
1464.00,0.0410
1463.00,0.0411
1462.00,0.0411
1461.00,0.0412
1460.00,0.0412
1459.00,0.0411
1458.00,0.0406
1457.00,0.0394
1456.00,0.0378
1455.00,0.0363
1454.00,0.0353
1453.00,0.0346
1452.00,0.0344
1451.00,0.0345
1450.00,0.0350
1449.00,0.0359
1448.00,0.0371
1447.00,0.0385
1446.00,0.0400
1445.00,0.0418
1444.00,0.0437
1443.00,0.0457
1442.00,0.0477
1441.00,0.0495
1440.00,0.0509
1439.00,0.0522
1438.00,0.0535
1437.00,0.0549
1436.00,0.0562
1435.00,0.0571
1434.00,0.0580
1433.00,0.0589
1432.00,0.0599
1431.00,0.0608
1430.00,0.0616
1429.00,0.0621
1428.00,0.0624
1427.00,0.0624
1426.00,0.0624
1425.00,0.0624
1424.00,0.0623
1423.00,0.0620
1422.00,0.0614
1421.00,0.0606
1420.00,0.0593
1419.00,0.0571
1418.00,0.0545
1417.00,0.0518
1416.00,0.0492
1415.00,0.0469
1414.00,0.0448
1413.00,0.0431
1412.00,0.0418
1411.00,0.0411
1410.00,0.0410
1409.00,0.0416
1408.00,0.0427
1407.00,0.0443
1406.00,0.0466
1405.00,0.0493
1404.00,0.0520
1403.00,0.0541
1402.00,0.0556
1401.00,0.0565
1400.00,0.0567
1399.00,0.0558
1398.00,0.0540
1397.00,0.0515
1396.00,0.0486
1395.00,0.0452
1394.00,0.0418
1393.00,0.0388
1392.00,0.0366
1391.00,0.0351
1390.00,0.0345
1389.00,0.0351
1388.00,0.0364
1387.00,0.0376
1386.00,0.0378
1385.00,0.0368
1384.00,0.0353
1383.00,0.0341
1382.00,0.0336
1381.00,0.0336
1380.00,0.0339
1379.00,0.0341
1378.00,0.0341
1377.00,0.0337
1376.00,0.0328
1375.00,0.0315
1374.00,0.0300
1373.00,0.0286
1372.00,0.0278
1371.00,0.0278
1370.00,0.0285
1369.00,0.0301
1368.00,0.0324
1367.00,0.0348
1366.00,0.0368
1365.00,0.0382
1364.00,0.0390
1363.00,0.0402
1362.00,0.0420
1361.00,0.0440
1360.00,0.0450
1359.00,0.0443
1358.00,0.0420
1357.00,0.0392
1356.00,0.0366
1355.00,0.0346
1354.00,0.0333
1353.00,0.0324
1352.00,0.0319
1351.00,0.0317
1350.00,0.0317
1349.00,0.0319
1348.00,0.0319
1347.00,0.0317
1346.00,0.0313
1345.00,0.0305
1344.00,0.0295
1343.00,0.0283
1342.00,0.0271
1341.00,0.0259
1340.00,0.0247
1339.00,0.0237
1338.00,0.0230
1337.00,0.0226
1336.00,0.0226
1335.00,0.0229
1334.00,0.0236
1333.00,0.0243
1332.00,0.0250
1331.00,0.0256
1330.00,0.0261
1329.00,0.0265
1328.00,0.0267
1327.00,0.0267
1326.00,0.0267
1325.00,0.0268
1324.00,0.0268
1323.00,0.0270
1322.00,0.0273
1321.00,0.0275
1320.00,0.0277
1319.00,0.0276
1318.00,0.0274
1317.00,0.0270
1316.00,0.0265
1315.00,0.0259
1314.00,0.0254
1313.00,0.0251
1312.00,0.0249
1311.00,0.0251
1310.00,0.0255
1309.00,0.0263
1308.00,0.0275
1307.00,0.0291
1306.00,0.0312
1305.00,0.0338
1304.00,0.0367
1303.00,0.0398
1302.00,0.0425
1301.00,0.0444
1300.00,0.0454
1299.00,0.0458
1298.00,0.0460
1297.00,0.0465
1296.00,0.0474
1295.00,0.0486
1294.00,0.0500
1293.00,0.0512
1292.00,0.0523
1291.00,0.0534
1290.00,0.0545
1289.00,0.0559
1288.00,0.0575
1287.00,0.0593
1286.00,0.0609
1285.00,0.0622
1284.00,0.0629
1283.00,0.0627
1282.00,0.0617
1281.00,0.0599
1280.00,0.0576
1279.00,0.0553
1278.00,0.0532
1277.00,0.0514
1276.00,0.0501
1275.00,0.0491
1274.00,0.0483
1273.00,0.0477
1272.00,0.0469
1271.00,0.0461
1270.00,0.0452
1269.00,0.0442
1268.00,0.0432
1267.00,0.0420
1266.00,0.0407
1265.00,0.0394
1264.00,0.0380
1263.00,0.0366
1262.00,0.0352
1261.00,0.0339
1260.00,0.0327
1259.00,0.0315
1258.00,0.0306
1257.00,0.0297
1256.00,0.0291
1255.00,0.0285
1254.00,0.0282
1253.00,0.0280
1252.00,0.0281
1251.00,0.0284
1250.00,0.0291
1249.00,0.0300
1248.00,0.0313
1247.00,0.0328
1246.00,0.0344
1245.00,0.0358
1244.00,0.0370
1243.00,0.0379
1242.00,0.0386
1241.00,0.0393
1240.00,0.0403
1239.00,0.0416
1238.00,0.0434
1237.00,0.0455
1236.00,0.0476
1235.00,0.0493
1234.00,0.0503
1233.00,0.0504
1232.00,0.0497
1231.00,0.0482
1230.00,0.0463
1229.00,0.0443
1228.00,0.0424
1227.00,0.0407
1226.00,0.0392
1225.00,0.0379
1224.00,0.0369
1223.00,0.0361
1222.00,0.0357
1221.00,0.0356
1220.00,0.0359
1219.00,0.0365
1218.00,0.0373
1217.00,0.0383
1216.00,0.0392
1215.00,0.0398
1214.00,0.0399
1213.00,0.0393
1212.00,0.0381
1211.00,0.0365
1210.00,0.0346
1209.00,0.0328
1208.00,0.0313
1207.00,0.0302
1206.00,0.0297
1205.00,0.0297
1204.00,0.0303
1203.00,0.0314
1202.00,0.0331
1201.00,0.0352
1200.00,0.0376
1199.00,0.0403
1198.00,0.0431
1197.00,0.0459
1196.00,0.0481
1195.00,0.0494
1194.00,0.0494
1193.00,0.0482
1192.00,0.0461
1191.00,0.0434
1190.00,0.0404
1189.00,0.0373
1188.00,0.0344
1187.00,0.0316
1186.00,0.0292
1185.00,0.0272
1184.00,0.0256
1183.00,0.0243
1182.00,0.0233
1181.00,0.0226
1180.00,0.0220
1179.00,0.0216
1178.00,0.0213
1177.00,0.0211
1176.00,0.0209
1175.00,0.0208
1174.00,0.0207
1173.00,0.0206
1172.00,0.0205
1171.00,0.0204
1170.00,0.0201
1169.00,0.0199
1168.00,0.0196
1167.00,0.0194
1166.00,0.0192
1165.00,0.0192
1164.00,0.0194
1163.00,0.0199
1162.00,0.0209
1161.00,0.0226
1160.00,0.0251
1159.00,0.0287
1158.00,0.0331
1157.00,0.0379
1156.00,0.0422
1155.00,0.0448
1154.00,0.0449
1153.00,0.0424
1152.00,0.0379
1151.00,0.0326
1150.00,0.0277
1149.00,0.0237
1148.00,0.0209
1147.00,0.0189
1146.00,0.0177
1145.00,0.0169
1144.00,0.0165
1143.00,0.0161
1142.00,0.0159
1141.00,0.0159
1140.00,0.0160
1139.00,0.0163
1138.00,0.0170
1137.00,0.0180
1136.00,0.0196
1135.00,0.0220
1134.00,0.0255
1133.00,0.0302
1132.00,0.0357
1131.00,0.0414
1130.00,0.0463
1129.00,0.0495
1128.00,0.0505
1127.00,0.0496
1126.00,0.0473
1125.00,0.0440
1124.00,0.0401
1123.00,0.0359
1122.00,0.0320
1121.00,0.0285
1120.00,0.0258
1119.00,0.0239
1118.00,0.0226
1117.00,0.0219
1116.00,0.0215
1115.00,0.0213
1114.00,0.0211
1113.00,0.0206
1112.00,0.0199
1111.00,0.0191
1110.00,0.0183
1109.00,0.0178
1108.00,0.0175
1107.00,0.0177
1106.00,0.0183
1105.00,0.0197
1104.00,0.0217
1103.00,0.0245
1102.00,0.0275
1101.00,0.0303
1100.00,0.0321
1099.00,0.0324
1098.00,0.0311
1097.00,0.0286
1096.00,0.0256
1095.00,0.0225
1094.00,0.0199
1093.00,0.0178
1092.00,0.0163
1091.00,0.0152
1090.00,0.0145
1089.00,0.0140
1088.00,0.0137
1087.00,0.0135
1086.00,0.0133
1085.00,0.0132
1084.00,0.0131
1083.00,0.0131
1082.00,0.0132
1081.00,0.0134
1080.00,0.0136
1079.00,0.0138
1078.00,0.0141
1077.00,0.0143
1076.00,0.0145
1075.00,0.0148
1074.00,0.0150
1073.00,0.0153
1072.00,0.0156
1071.00,0.0160
1070.00,0.0164
1069.00,0.0169
1068.00,0.0175
1067.00,0.0181
1066.00,0.0188
1065.00,0.0198
1064.00,0.0211
1063.00,0.0229
1062.00,0.0253
1061.00,0.0286
1060.00,0.0330
1059.00,0.0384
1058.00,0.0448
1057.00,0.0517
1056.00,0.0584
1055.00,0.0639
1054.00,0.0680
1053.00,0.0708
1052.00,0.0726
1051.00,0.0737
1050.00,0.0741
1049.00,0.0733
1048.00,0.0711
1047.00,0.0676
1046.00,0.0629
1045.00,0.0576
1044.00,0.0522
1043.00,0.0470
1042.00,0.0424
1041.00,0.0387
1040.00,0.0360
1039.00,0.0342
1038.00,0.0334
1037.00,0.0334
1036.00,0.0338
1035.00,0.0344
1034.00,0.0353
1033.00,0.0369
1032.00,0.0396
1031.00,0.0436
1030.00,0.0490
1029.00,0.0551
1028.00,0.0606
1027.00,0.0639
1026.00,0.0640
1025.00,0.0610
1024.00,0.0556
1023.00,0.0495
1022.00,0.0436
1021.00,0.0385
1020.00,0.0345
1019.00,0.0312
1018.00,0.0285
1017.00,0.0263
1016.00,0.0246
1015.00,0.0231
1014.00,0.0219
1013.00,0.0211
1012.00,0.0207
1011.00,0.0207
1010.00,0.0212
1009.00,0.0222
1008.00,0.0238
1007.00,0.0256
1006.00,0.0274
1005.00,0.0291
1004.00,0.0302
1003.00,0.0305
1002.00,0.0301
1001.00,0.0292
1000.00,0.0280
999.00,0.0268
998.00,0.0257
997.00,0.0247
996.00,0.0239
995.00,0.0232
994.00,0.0225
993.00,0.0217
992.00,0.0207
991.00,0.0196
990.00,0.0184
989.00,0.0173
988.00,0.0164
987.00,0.0156
986.00,0.0150
985.00,0.0145
984.00,0.0142
983.00,0.0139
982.00,0.0136
981.00,0.0134
980.00,0.0133
979.00,0.0133
978.00,0.0133
977.00,0.0133
976.00,0.0133
975.00,0.0133
974.00,0.0132
973.00,0.0131
972.00,0.0130
971.00,0.0128
970.00,0.0127
969.00,0.0126
968.00,0.0125
967.00,0.0125
966.00,0.0125
965.00,0.0126
964.00,0.0126
963.00,0.0126
962.00,0.0123
961.00,0.0116
960.00,0.0104
959.00,0.0089
958.00,0.0074
957.00,0.0061
956.00,0.0050
955.00,0.0041
954.00,0.0034
953.00,0.0030
952.00,0.0029
951.00,0.0031
950.00,0.0037
949.00,0.0044
948.00,0.0051
947.00,0.0057
946.00,0.0062
945.00,0.0068
944.00,0.0076
943.00,0.0085
942.00,0.0095
941.00,0.0105
940.00,0.0115
939.00,0.0123
938.00,0.0131
937.00,0.0137
936.00,0.0143
935.00,0.0148
934.00,0.0152
933.00,0.0155
932.00,0.0155
931.00,0.0153
930.00,0.0150
929.00,0.0146
928.00,0.0144
927.00,0.0145
926.00,0.0148
925.00,0.0155
924.00,0.0163
923.00,0.0170
922.00,0.0174
921.00,0.0172
920.00,0.0165
919.00,0.0155
918.00,0.0143
917.00,0.0133
916.00,0.0124
915.00,0.0117
914.00,0.0113
913.00,0.0110
912.00,0.0108
911.00,0.0107
910.00,0.0107
909.00,0.0108
908.00,0.0109
907.00,0.0112
906.00,0.0117
905.00,0.0124
904.00,0.0134
903.00,0.0148
902.00,0.0163
901.00,0.0178
900.00,0.0190
899.00,0.0195
898.00,0.0192
897.00,0.0184
896.00,0.0175
895.00,0.0167
894.00,0.0165
893.00,0.0170
892.00,0.0182
891.00,0.0194
890.00,0.0201
889.00,0.0196
888.00,0.0181
887.00,0.0163
886.00,0.0147
885.00,0.0138
884.00,0.0134
883.00,0.0133
882.00,0.0134
881.00,0.0139
880.00,0.0146
879.00,0.0157
878.00,0.0174
877.00,0.0197
876.00,0.0227
875.00,0.0262
874.00,0.0303
873.00,0.0345
872.00,0.0385
871.00,0.0416
870.00,0.0431
869.00,0.0427
868.00,0.0407
867.00,0.0378
866.00,0.0349
865.00,0.0322
864.00,0.0298
863.00,0.0275
862.00,0.0254
861.00,0.0237
860.00,0.0225
859.00,0.0220
858.00,0.0224
857.00,0.0236
856.00,0.0255
855.00,0.0277
854.00,0.0299
853.00,0.0319
852.00,0.0339
851.00,0.0360
850.00,0.0378
849.00,0.0386
848.00,0.0381
847.00,0.0365
846.00,0.0344
845.00,0.0323
844.00,0.0305
843.00,0.0291
842.00,0.0281
841.00,0.0277
840.00,0.0280
839.00,0.0291
838.00,0.0311
837.00,0.0337
836.00,0.0362
835.00,0.0382
834.00,0.0393
833.00,0.0393
832.00,0.0382
831.00,0.0361
830.00,0.0334
829.00,0.0302
828.00,0.0270
827.00,0.0243
826.00,0.0227
825.00,0.0224
824.00,0.0242
823.00,0.0282
822.00,0.0341
821.00,0.0400
820.00,0.0440
819.00,0.0460
818.00,0.0476
817.00,0.0495
816.00,0.0504
815.00,0.0479
814.00,0.0417
813.00,0.0338
812.00,0.0267
811.00,0.0218
810.00,0.0187
809.00,0.0169
808.00,0.0159
807.00,0.0153
806.00,0.0149
805.00,0.0147
804.00,0.0145
803.00,0.0144
802.00,0.0143
801.00,0.0142
800.00,0.0141
799.00,0.0141
798.00,0.0140
797.00,0.0140
796.00,0.0140
795.00,0.0141
794.00,0.0141
793.00,0.0141
792.00,0.0142
791.00,0.0143
790.00,0.0143
789.00,0.0144
788.00,0.0145
787.00,0.0146
786.00,0.0147
785.00,0.0148
784.00,0.0149
783.00,0.0150
782.00,0.0152
781.00,0.0153
780.00,0.0155
779.00,0.0159
778.00,0.0167
777.00,0.0178
776.00,0.0190
775.00,0.0201
774.00,0.0207
773.00,0.0204
772.00,0.0197
771.00,0.0189
770.00,0.0183
769.00,0.0181
768.00,0.0181
767.00,0.0183
766.00,0.0185
765.00,0.0188
764.00,0.0193
763.00,0.0199
762.00,0.0206
761.00,0.0213
760.00,0.0219
759.00,0.0223
758.00,0.0224
757.00,0.0223
756.00,0.0222
755.00,0.0221
754.00,0.0222
753.00,0.0223
752.00,0.0225
751.00,0.0228
750.00,0.0231
749.00,0.0234
748.00,0.0238
747.00,0.0242
746.00,0.0246
745.00,0.0251
744.00,0.0257
743.00,0.0263
742.00,0.0271
741.00,0.0282
740.00,0.0296
739.00,0.0316
738.00,0.0342
737.00,0.0372
736.00,0.0400
735.00,0.0420
734.00,0.0425
733.00,0.0418
732.00,0.0409
731.00,0.0403
730.00,0.0404
729.00,0.0404
728.00,0.0400
727.00,0.0387
726.00,0.0366
725.00,0.0344
724.00,0.0325
723.00,0.0311
722.00,0.0302
721.00,0.0297
720.00,0.0298
719.00,0.0303
718.00,0.0311
717.00,0.0321
716.00,0.0331
715.00,0.0337
714.00,0.0338
713.00,0.0334
712.00,0.0329
711.00,0.0323
710.00,0.0317
709.00,0.0313
708.00,0.0311
707.00,0.0312
706.00,0.0314
705.00,0.0317
704.00,0.0322
703.00,0.0328
702.00,0.0334
701.00,0.0341
700.00,0.0348
699.00,0.0353
698.00,0.0356
697.00,0.0357
696.00,0.0354
695.00,0.0349
694.00,0.0345
693.00,0.0344
692.00,0.0347
691.00,0.0356
690.00,0.0368
689.00,0.0379
688.00,0.0386
687.00,0.0386
686.00,0.0381
685.00,0.0375
684.00,0.0371
683.00,0.0369
682.00,0.0370
681.00,0.0373
680.00,0.0377
679.00,0.0383
678.00,0.0390
677.00,0.0399
676.00,0.0411
675.00,0.0424
674.00,0.0436
673.00,0.0448
672.00,0.0456
671.00,0.0462
670.00,0.0466
669.00,0.0467
668.00,0.0467
667.00,0.0465
666.00,0.0462
665.00,0.0463
664.00,0.0469
663.00,0.0477
662.00,0.0484
661.00,0.0488
660.00,0.0488
659.00,0.0484
658.00,0.0478
657.00,0.0473
656.00,0.0469
655.00,0.0467
654.00,0.0468
653.00,0.0470
652.00,0.0473
651.00,0.0476
650.00,0.0478
649.00,0.0480
648.00,0.0482
647.00,0.0483
646.00,0.0485
645.00,0.0485
644.00,0.0484
643.00,0.0482
642.00,0.0480
641.00,0.0479
640.00,0.0477
639.00,0.0475
638.00,0.0473
637.00,0.0470
636.00,0.0469
635.00,0.0467
634.00,0.0466
633.00,0.0465
632.00,0.0464
631.00,0.0464
630.00,0.0464
629.00,0.0464
628.00,0.0466
627.00,0.0469
626.00,0.0473
625.00,0.0479
624.00,0.0486
623.00,0.0492
622.00,0.0498
621.00,0.0503
620.00,0.0506
619.00,0.0505
618.00,0.0501
617.00,0.0493
616.00,0.0484
615.00,0.0474
614.00,0.0466
613.00,0.0461
612.00,0.0459
611.00,0.0460
610.00,0.0465
609.00,0.0476
608.00,0.0492
607.00,0.0511
606.00,0.0532
605.00,0.0552
604.00,0.0570
603.00,0.0582
602.00,0.0589
601.00,0.0591
600.00,0.0591
599.00,0.0591
598.00,0.0590
597.00,0.0590
596.00,0.0591
595.00,0.0590
594.00,0.0588
593.00,0.0585
592.00,0.0583
591.00,0.0582
590.00,0.0581
589.00,0.0580
588.00,0.0578
587.00,0.0577
586.00,0.0576
585.00,0.0578
584.00,0.0582
583.00,0.0588
582.00,0.0595
581.00,0.0604
580.00,0.0617
579.00,0.0633
578.00,0.0650
577.00,0.0665
576.00,0.0673
575.00,0.0671
574.00,0.0661
573.00,0.0648
572.00,0.0634
571.00,0.0623
570.00,0.0613
569.00,0.0606
568.00,0.0602
567.00,0.0602
566.00,0.0606
565.00,0.0613
564.00,0.0622
563.00,0.0632
562.00,0.0642
561.00,0.0652
560.00,0.0658
559.00,0.0657
558.00,0.0649
557.00,0.0637
556.00,0.0624
555.00,0.0613
554.00,0.0606
553.00,0.0603
552.00,0.0605
551.00,0.0610
550.00,0.0618
549.00,0.0629
548.00,0.0642
547.00,0.0653
546.00,0.0659
545.00,0.0658
544.00,0.0650
543.00,0.0639
542.00,0.0625
541.00,0.0612
540.00,0.0600
539.00,0.0592
538.00,0.0587
537.00,0.0586
536.00,0.0588
535.00,0.0595
534.00,0.0604
533.00,0.0615
532.00,0.0624
531.00,0.0627
530.00,0.0625
529.00,0.0618
528.00,0.0608
527.00,0.0596
526.00,0.0584
525.00,0.0573
524.00,0.0564
523.00,0.0556
522.00,0.0551
521.00,0.0547
520.00,0.0545
519.00,0.0541
518.00,0.0537
517.00,0.0533
516.00,0.0531
515.00,0.0530
514.00,0.0528
513.00,0.0528
512.00,0.0528
511.00,0.0530
510.00,0.0532
509.00,0.0534
508.00,0.0536
507.00,0.0538
506.00,0.0540
505.00,0.0540
504.00,0.0539
503.00,0.0536
502.00,0.0532
501.00,0.0528
500.00,0.0525
499.00,0.0523
498.00,0.0522
497.00,0.0522
496.00,0.0524
495.00,0.0525
494.00,0.0526
493.00,0.0527
492.00,0.0527
491.00,0.0525
490.00,0.0522
489.00,0.0519
488.00,0.0515
487.00,0.0511
486.00,0.0506
485.00,0.0502
484.00,0.0501
483.00,0.0501
482.00,0.0501
481.00,0.0501
480.00,0.0501
479.00,0.0501
478.00,0.0501
477.00,0.0500
476.00,0.0499
475.00,0.0499
474.00,0.0500
473.00,0.0501
472.00,0.0502
471.00,0.0503
470.00,0.0503
469.00,0.0504
468.00,0.0505
467.00,0.0506
466.00,0.0506
465.00,0.0504
464.00,0.0503
463.00,0.0504
462.00,0.0506
461.00,0.0507
460.00,0.0506
459.00,0.0503
458.00,0.0499
457.00,0.0496
456.00,0.0496
455.00,0.0498
454.00,0.0501
453.00,0.0502
452.00,0.0500
451.00,0.0496
450.00,0.0491
449.00,0.0488
448.00,0.0488
447.00,0.0487
446.00,0.0486
445.00,0.0486
444.00,0.0489
443.00,0.0492
442.00,0.0495
441.00,0.0498
440.00,0.0500
439.00,0.0501
438.00,0.0501
437.00,0.0500
436.00,0.0497
435.00,0.0492
434.00,0.0486
433.00,0.0480
432.00,0.0476
431.00,0.0474
430.00,0.0474
429.00,0.0476
428.00,0.0479
427.00,0.0480
426.00,0.0481
425.00,0.0483
424.00,0.0484
423.00,0.0483
422.00,0.0481
421.00,0.0481
420.00,0.0486
419.00,0.0492
418.00,0.0493
417.00,0.0491
416.00,0.0491
415.00,0.0493
414.00,0.0496
413.00,0.0497
412.00,0.0499
411.00,0.0500
410.00,0.0498
409.00,0.0493
408.00,0.0483
407.00,0.0470
406.00,0.0456
405.00,0.0449
404.00,0.0448
403.00,0.0449
402.00,0.0449
401.00,0.0450
400.00,0.0457
