Created as New Dataset,Sample 731 By YargerLab Date Thursday, June 26 2025
cm-1,A
4000.00,0.0008
3999.00,0.0008
3998.00,0.0008
3997.00,0.0008
3996.00,0.0008
3995.00,0.0008
3994.00,0.0008
3993.00,0.0008
3992.00,0.0008
3991.00,0.0008
3990.00,0.0008
3989.00,0.0008
3988.00,0.0008
3987.00,0.0008
3986.00,0.0008
3985.00,0.0008
3984.00,0.0008
3983.00,0.0008
3982.00,0.0008
3981.00,0.0008
3980.00,0.0008
3979.00,0.0008
3978.00,0.0008
3977.00,0.0008
3976.00,0.0008
3975.00,0.0008
3974.00,0.0008
3973.00,0.0008
3972.00,0.0008
3971.00,0.0008
3970.00,0.0008
3969.00,0.0008
3968.00,0.0008
3967.00,0.0008
3966.00,0.0008
3965.00,0.0008
3964.00,0.0008
3963.00,0.0008
3962.00,0.0008
3961.00,0.0008
3960.00,0.0008
3959.00,0.0008
3958.00,0.0008
3957.00,0.0008
3956.00,0.0008
3955.00,0.0008
3954.00,0.0008
3953.00,0.0008
3952.00,0.0008
3951.00,0.0008
3950.00,0.0008
3949.00,0.0008
3948.00,0.0008
3947.00,0.0007
3946.00,0.0007
3945.00,0.0007
3944.00,0.0007
3943.00,0.0007
3942.00,0.0007
3941.00,0.0007
3940.00,0.0007
3939.00,0.0007
3938.00,0.0007
3937.00,0.0008
3936.00,0.0007
3935.00,0.0007
3934.00,0.0007
3933.00,0.0007
3932.00,0.0007
3931.00,0.0007
3930.00,0.0007
3929.00,0.0007
3928.00,0.0007
3927.00,0.0007
3926.00,0.0007
3925.00,0.0007
3924.00,0.0007
3923.00,0.0007
3922.00,0.0007
3921.00,0.0007
3920.00,0.0007
3919.00,0.0007
3918.00,0.0007
3917.00,0.0007
3916.00,0.0007
3915.00,0.0007
3914.00,0.0007
3913.00,0.0007
3912.00,0.0007
3911.00,0.0007
3910.00,0.0007
3909.00,0.0007
3908.00,0.0007
3907.00,0.0006
3906.00,0.0006
3905.00,0.0006
3904.00,0.0005
3903.00,0.0005
3902.00,0.0004
3901.00,0.0004
3900.00,0.0005
3899.00,0.0006
3898.00,0.0006
3897.00,0.0006
3896.00,0.0006
3895.00,0.0006
3894.00,0.0006
3893.00,0.0006
3892.00,0.0006
3891.00,0.0006
3890.00,0.0006
3889.00,0.0006
3888.00,0.0005
3887.00,0.0005
3886.00,0.0006
3885.00,0.0006
3884.00,0.0005
3883.00,0.0005
3882.00,0.0005
3881.00,0.0005
3880.00,0.0005
3879.00,0.0005
3878.00,0.0005
3877.00,0.0005
3876.00,0.0005
3875.00,0.0005
3874.00,0.0005
3873.00,0.0005
3872.00,0.0005
3871.00,0.0005
3870.00,0.0006
3869.00,0.0006
3868.00,0.0005
3867.00,0.0005
3866.00,0.0005
3865.00,0.0005
3864.00,0.0006
3863.00,0.0006
3862.00,0.0006
3861.00,0.0006
3860.00,0.0006
3859.00,0.0006
3858.00,0.0006
3857.00,0.0005
3856.00,0.0005
3855.00,0.0005
3854.00,0.0005
3853.00,0.0004
3852.00,0.0003
3851.00,0.0003
3850.00,0.0003
3849.00,0.0004
3848.00,0.0005
3847.00,0.0005
3846.00,0.0005
3845.00,0.0006
3844.00,0.0006
3843.00,0.0006
3842.00,0.0005
3841.00,0.0005
3840.00,0.0005
3839.00,0.0005
3838.00,0.0005
3837.00,0.0004
3836.00,0.0004
3835.00,0.0004
3834.00,0.0005
3833.00,0.0005
3832.00,0.0006
3831.00,0.0006
3830.00,0.0006
3829.00,0.0006
3828.00,0.0006
3827.00,0.0006
3826.00,0.0006
3825.00,0.0006
3824.00,0.0005
3823.00,0.0005
3822.00,0.0005
3821.00,0.0005
3820.00,0.0005
3819.00,0.0004
3818.00,0.0004
3817.00,0.0004
3816.00,0.0005
3815.00,0.0006
3814.00,0.0006
3813.00,0.0006
3812.00,0.0006
3811.00,0.0006
3810.00,0.0006
3809.00,0.0006
3808.00,0.0006
3807.00,0.0007
3806.00,0.0006
3805.00,0.0006
3804.00,0.0006
3803.00,0.0006
3802.00,0.0006
3801.00,0.0006
3800.00,0.0005
3799.00,0.0005
3798.00,0.0005
3797.00,0.0006
3796.00,0.0006
3795.00,0.0006
3794.00,0.0007
3793.00,0.0007
3792.00,0.0007
3791.00,0.0007
3790.00,0.0007
3789.00,0.0007
3788.00,0.0007
3787.00,0.0007
3786.00,0.0007
3785.00,0.0007
3784.00,0.0007
3783.00,0.0007
3782.00,0.0006
3781.00,0.0006
3780.00,0.0007
3779.00,0.0007
3778.00,0.0007
3777.00,0.0007
3776.00,0.0007
3775.00,0.0007
3774.00,0.0007
3773.00,0.0007
3772.00,0.0007
3771.00,0.0007
3770.00,0.0006
3769.00,0.0006
3768.00,0.0006
3767.00,0.0006
3766.00,0.0006
3765.00,0.0007
3764.00,0.0007
3763.00,0.0007
3762.00,0.0007
3761.00,0.0007
3760.00,0.0006
3759.00,0.0006
3758.00,0.0006
3757.00,0.0006
3756.00,0.0006
3755.00,0.0006
3754.00,0.0006
3753.00,0.0006
3752.00,0.0006
3751.00,0.0005
3750.00,0.0005
3749.00,0.0004
3748.00,0.0004
3747.00,0.0003
3746.00,0.0004
3745.00,0.0004
3744.00,0.0005
3743.00,0.0004
3742.00,0.0004
3741.00,0.0005
3740.00,0.0005
3739.00,0.0005
3738.00,0.0005
3737.00,0.0004
3736.00,0.0004
3735.00,0.0004
3734.00,0.0004
3733.00,0.0005
3732.00,0.0005
3731.00,0.0005
3730.00,0.0005
3729.00,0.0005
3728.00,0.0005
3727.00,0.0006
3726.00,0.0006
3725.00,0.0006
3724.00,0.0005
3723.00,0.0005
3722.00,0.0005
3721.00,0.0005
3720.00,0.0006
3719.00,0.0006
3718.00,0.0007
3717.00,0.0007
3716.00,0.0007
3715.00,0.0006
3714.00,0.0006
3713.00,0.0005
3712.00,0.0005
3711.00,0.0005
3710.00,0.0005
3709.00,0.0005
3708.00,0.0005
3707.00,0.0005
3706.00,0.0006
3705.00,0.0006
3704.00,0.0006
3703.00,0.0007
3702.00,0.0007
3701.00,0.0007
3700.00,0.0007
3699.00,0.0007
3698.00,0.0008
3697.00,0.0008
3696.00,0.0008
3695.00,0.0008
3694.00,0.0008
3693.00,0.0007
3692.00,0.0007
3691.00,0.0007
3690.00,0.0007
3689.00,0.0007
3688.00,0.0007
3687.00,0.0007
3686.00,0.0007
3685.00,0.0008
3684.00,0.0008
3683.00,0.0009
3682.00,0.0009
3681.00,0.0009
3680.00,0.0009
3679.00,0.0009
3678.00,0.0009
3677.00,0.0009
3676.00,0.0009
3675.00,0.0009
3674.00,0.0009
3673.00,0.0008
3672.00,0.0009
3671.00,0.0009
3670.00,0.0010
3669.00,0.0011
3668.00,0.0011
3667.00,0.0012
3666.00,0.0012
3665.00,0.0013
3664.00,0.0014
3663.00,0.0014
3662.00,0.0015
3661.00,0.0015
3660.00,0.0015
3659.00,0.0015
3658.00,0.0015
3657.00,0.0016
3656.00,0.0016
3655.00,0.0016
3654.00,0.0016
3653.00,0.0016
3652.00,0.0016
3651.00,0.0016
3650.00,0.0016
3649.00,0.0016
3648.00,0.0016
3647.00,0.0016
3646.00,0.0017
3645.00,0.0018
3644.00,0.0020
3643.00,0.0021
3642.00,0.0022
3641.00,0.0022
3640.00,0.0023
3639.00,0.0023
3638.00,0.0024
3637.00,0.0024
3636.00,0.0025
3635.00,0.0025
3634.00,0.0026
3633.00,0.0026
3632.00,0.0026
3631.00,0.0026
3630.00,0.0026
3629.00,0.0026
3628.00,0.0027
3627.00,0.0027
3626.00,0.0028
3625.00,0.0028
3624.00,0.0029
3623.00,0.0030
3622.00,0.0030
3621.00,0.0031
3620.00,0.0032
3619.00,0.0032
3618.00,0.0032
3617.00,0.0033
3616.00,0.0033
3615.00,0.0033
3614.00,0.0034
3613.00,0.0035
3612.00,0.0035
3611.00,0.0035
3610.00,0.0036
3609.00,0.0036
3608.00,0.0037
3607.00,0.0037
3606.00,0.0038
3605.00,0.0039
3604.00,0.0040
3603.00,0.0041
3602.00,0.0042
3601.00,0.0043
3600.00,0.0043
3599.00,0.0044
3598.00,0.0044
3597.00,0.0045
3596.00,0.0045
3595.00,0.0045
3594.00,0.0046
3593.00,0.0047
3592.00,0.0047
3591.00,0.0048
3590.00,0.0049
3589.00,0.0049
3588.00,0.0050
3587.00,0.0050
3586.00,0.0050
3585.00,0.0051
3584.00,0.0052
3583.00,0.0053
3582.00,0.0054
3581.00,0.0055
3580.00,0.0056
3579.00,0.0056
3578.00,0.0057
3577.00,0.0057
3576.00,0.0058
3575.00,0.0058
3574.00,0.0059
3573.00,0.0060
3572.00,0.0060
3571.00,0.0061
3570.00,0.0061
3569.00,0.0061
3568.00,0.0061
3567.00,0.0061
3566.00,0.0062
3565.00,0.0063
3564.00,0.0064
3563.00,0.0065
3562.00,0.0066
3561.00,0.0067
3560.00,0.0068
3559.00,0.0069
3558.00,0.0070
3557.00,0.0071
3556.00,0.0071
3555.00,0.0072
3554.00,0.0073
3553.00,0.0073
3552.00,0.0074
3551.00,0.0074
3550.00,0.0075
3549.00,0.0075
3548.00,0.0076
3547.00,0.0077
3546.00,0.0077
3545.00,0.0078
3544.00,0.0078
3543.00,0.0079
3542.00,0.0079
3541.00,0.0080
3540.00,0.0081
3539.00,0.0082
3538.00,0.0082
3537.00,0.0083
3536.00,0.0084
3535.00,0.0084
3534.00,0.0085
3533.00,0.0086
3532.00,0.0087
3531.00,0.0088
3530.00,0.0088
3529.00,0.0089
3528.00,0.0089
3527.00,0.0089
3526.00,0.0090
3525.00,0.0090
3524.00,0.0091
3523.00,0.0092
3522.00,0.0093
3521.00,0.0093
3520.00,0.0094
3519.00,0.0095
3518.00,0.0096
3517.00,0.0096
3516.00,0.0097
3515.00,0.0097
3514.00,0.0098
3513.00,0.0098
3512.00,0.0099
3511.00,0.0099
3510.00,0.0100
3509.00,0.0101
3508.00,0.0101
3507.00,0.0102
3506.00,0.0103
3505.00,0.0103
3504.00,0.0104
3503.00,0.0105
3502.00,0.0105
3501.00,0.0106
3500.00,0.0106
3499.00,0.0107
3498.00,0.0108
3497.00,0.0109
3496.00,0.0110
3495.00,0.0110
3494.00,0.0111
3493.00,0.0112
3492.00,0.0112
3491.00,0.0113
3490.00,0.0114
3489.00,0.0114
3488.00,0.0115
3487.00,0.0116
3486.00,0.0116
3485.00,0.0117
3484.00,0.0118
3483.00,0.0119
3482.00,0.0119
3481.00,0.0120
3480.00,0.0121
3479.00,0.0121
3478.00,0.0122
3477.00,0.0123
3476.00,0.0124
3475.00,0.0124
3474.00,0.0125
3473.00,0.0126
3472.00,0.0127
3471.00,0.0127
3470.00,0.0128
3469.00,0.0129
3468.00,0.0130
3467.00,0.0130
3466.00,0.0131
3465.00,0.0131
3464.00,0.0132
3463.00,0.0133
3462.00,0.0133
3461.00,0.0134
3460.00,0.0135
3459.00,0.0136
3458.00,0.0136
3457.00,0.0137
3456.00,0.0138
3455.00,0.0138
3454.00,0.0139
3453.00,0.0140
3452.00,0.0141
3451.00,0.0141
3450.00,0.0142
3449.00,0.0143
3448.00,0.0143
3447.00,0.0144
3446.00,0.0145
3445.00,0.0145
3444.00,0.0146
3443.00,0.0147
3442.00,0.0148
3441.00,0.0148
3440.00,0.0149
3439.00,0.0150
3438.00,0.0151
3437.00,0.0152
3436.00,0.0152
3435.00,0.0153
3434.00,0.0154
3433.00,0.0155
3432.00,0.0155
3431.00,0.0156
3430.00,0.0157
3429.00,0.0158
3428.00,0.0159
3427.00,0.0159
3426.00,0.0160
3425.00,0.0161
3424.00,0.0162
3423.00,0.0162
3422.00,0.0163
3421.00,0.0164
3420.00,0.0164
3419.00,0.0165
3418.00,0.0166
3417.00,0.0167
3416.00,0.0168
3415.00,0.0169
3414.00,0.0170
3413.00,0.0170
3412.00,0.0171
3411.00,0.0172
3410.00,0.0172
3409.00,0.0173
3408.00,0.0174
3407.00,0.0174
3406.00,0.0175
3405.00,0.0175
3404.00,0.0176
3403.00,0.0177
3402.00,0.0178
3401.00,0.0179
3400.00,0.0180
3399.00,0.0180
3398.00,0.0181
3397.00,0.0182
3396.00,0.0183
3395.00,0.0183
3394.00,0.0184
3393.00,0.0185
3392.00,0.0185
3391.00,0.0186
3390.00,0.0187
3389.00,0.0188
3388.00,0.0189
3387.00,0.0190
3386.00,0.0191
3385.00,0.0191
3384.00,0.0192
3383.00,0.0193
3382.00,0.0194
3381.00,0.0195
3380.00,0.0196
3379.00,0.0197
3378.00,0.0198
3377.00,0.0199
3376.00,0.0200
3375.00,0.0201
3374.00,0.0202
3373.00,0.0203
3372.00,0.0204
3371.00,0.0205
3370.00,0.0206
3369.00,0.0207
3368.00,0.0208
3367.00,0.0209
3366.00,0.0210
3365.00,0.0211
3364.00,0.0212
3363.00,0.0213
3362.00,0.0215
3361.00,0.0216
3360.00,0.0217
3359.00,0.0219
3358.00,0.0220
3357.00,0.0221
3356.00,0.0222
3355.00,0.0224
3354.00,0.0225
3353.00,0.0226
3352.00,0.0227
3351.00,0.0228
3350.00,0.0230
3349.00,0.0231
3348.00,0.0233
3347.00,0.0234
3346.00,0.0236
3345.00,0.0237
3344.00,0.0238
3343.00,0.0239
3342.00,0.0240
3341.00,0.0242
3340.00,0.0243
3339.00,0.0245
3338.00,0.0247
3337.00,0.0249
3336.00,0.0251
3335.00,0.0252
3334.00,0.0254
3333.00,0.0256
3332.00,0.0257
3331.00,0.0259
3330.00,0.0261
3329.00,0.0263
3328.00,0.0264
3327.00,0.0266
3326.00,0.0268
3325.00,0.0270
3324.00,0.0272
3323.00,0.0274
3322.00,0.0276
3321.00,0.0279
3320.00,0.0281
3319.00,0.0283
3318.00,0.0285
3317.00,0.0287
3316.00,0.0289
3315.00,0.0292
3314.00,0.0294
3313.00,0.0297
3312.00,0.0299
3311.00,0.0301
3310.00,0.0303
3309.00,0.0305
3308.00,0.0307
3307.00,0.0310
3306.00,0.0312
3305.00,0.0315
3304.00,0.0318
3303.00,0.0321
3302.00,0.0324
3301.00,0.0326
3300.00,0.0329
3299.00,0.0332
3298.00,0.0334
3297.00,0.0336
3296.00,0.0339
3295.00,0.0341
3294.00,0.0343
3293.00,0.0346
3292.00,0.0349
3291.00,0.0351
3290.00,0.0354
3289.00,0.0357
3288.00,0.0359
3287.00,0.0361
3286.00,0.0363
3285.00,0.0365
3284.00,0.0367
3283.00,0.0368
3282.00,0.0370
3281.00,0.0371
3280.00,0.0373
3279.00,0.0374
3278.00,0.0375
3277.00,0.0376
3276.00,0.0377
3275.00,0.0377
3274.00,0.0377
3273.00,0.0377
3272.00,0.0377
3271.00,0.0376
3270.00,0.0375
3269.00,0.0375
3268.00,0.0374
3267.00,0.0374
3266.00,0.0373
3265.00,0.0372
3264.00,0.0370
3263.00,0.0369
3262.00,0.0367
3261.00,0.0365
3260.00,0.0363
3259.00,0.0361
3258.00,0.0358
3257.00,0.0356
3256.00,0.0353
3255.00,0.0351
3254.00,0.0348
3253.00,0.0346
3252.00,0.0344
3251.00,0.0342
3250.00,0.0339
3249.00,0.0337
3248.00,0.0335
3247.00,0.0332
3246.00,0.0330
3245.00,0.0328
3244.00,0.0326
3243.00,0.0323
3242.00,0.0321
3241.00,0.0319
3240.00,0.0317
3239.00,0.0315
3238.00,0.0312
3237.00,0.0310
3236.00,0.0307
3235.00,0.0305
3234.00,0.0303
3233.00,0.0301
3232.00,0.0300
3231.00,0.0298
3230.00,0.0296
3229.00,0.0295
3228.00,0.0293
3227.00,0.0291
3226.00,0.0290
3225.00,0.0288
3224.00,0.0287
3223.00,0.0285
3222.00,0.0284
3221.00,0.0282
3220.00,0.0280
3219.00,0.0279
3218.00,0.0277
3217.00,0.0275
3216.00,0.0274
3215.00,0.0272
3214.00,0.0271
3213.00,0.0269
3212.00,0.0268
3211.00,0.0267
3210.00,0.0265
3209.00,0.0264
3208.00,0.0263
3207.00,0.0261
3206.00,0.0260
3205.00,0.0259
3204.00,0.0258
3203.00,0.0256
3202.00,0.0255
3201.00,0.0253
3200.00,0.0252
3199.00,0.0250
3198.00,0.0249
3197.00,0.0248
3196.00,0.0246
3195.00,0.0245
3194.00,0.0244
3193.00,0.0243
3192.00,0.0241
3191.00,0.0240
3190.00,0.0239
3189.00,0.0238
3188.00,0.0237
3187.00,0.0235
3186.00,0.0234
3185.00,0.0233
3184.00,0.0232
3183.00,0.0230
3182.00,0.0229
3181.00,0.0228
3180.00,0.0227
3179.00,0.0225
3178.00,0.0224
3177.00,0.0223
3176.00,0.0221
3175.00,0.0220
3174.00,0.0219
3173.00,0.0218
3172.00,0.0216
3171.00,0.0215
3170.00,0.0214
3169.00,0.0213
3168.00,0.0212
3167.00,0.0211
3166.00,0.0210
3165.00,0.0209
3164.00,0.0208
3163.00,0.0207
3162.00,0.0206
3161.00,0.0205
3160.00,0.0204
3159.00,0.0203
3158.00,0.0202
3157.00,0.0201
3156.00,0.0200
3155.00,0.0198
3154.00,0.0197
3153.00,0.0196
3152.00,0.0195
3151.00,0.0195
3150.00,0.0194
3149.00,0.0193
3148.00,0.0193
3147.00,0.0192
3146.00,0.0191
3145.00,0.0191
3144.00,0.0190
3143.00,0.0189
3142.00,0.0188
3141.00,0.0187
3140.00,0.0186
3139.00,0.0186
3138.00,0.0186
3137.00,0.0185
3136.00,0.0185
3135.00,0.0184
3134.00,0.0183
3133.00,0.0183
3132.00,0.0182
3131.00,0.0181
3130.00,0.0181
3129.00,0.0181
3128.00,0.0181
3127.00,0.0180
3126.00,0.0180
3125.00,0.0180
3124.00,0.0179
3123.00,0.0179
3122.00,0.0178
3121.00,0.0178
3120.00,0.0178
3119.00,0.0178
3118.00,0.0177
3117.00,0.0177
3116.00,0.0177
3115.00,0.0177
3114.00,0.0178
3113.00,0.0178
3112.00,0.0178
3111.00,0.0178
3110.00,0.0178
3109.00,0.0178
3108.00,0.0178
3107.00,0.0179
3106.00,0.0180
3105.00,0.0180
3104.00,0.0180
3103.00,0.0180
3102.00,0.0180
3101.00,0.0181
3100.00,0.0181
3099.00,0.0182
3098.00,0.0183
3097.00,0.0184
3096.00,0.0184
3095.00,0.0184
3094.00,0.0185
3093.00,0.0185
3092.00,0.0185
3091.00,0.0185
3090.00,0.0185
3089.00,0.0186
3088.00,0.0186
3087.00,0.0187
3086.00,0.0187
3085.00,0.0187
3084.00,0.0187
3083.00,0.0187
3082.00,0.0187
3081.00,0.0187
3080.00,0.0187
3079.00,0.0187
3078.00,0.0187
3077.00,0.0187
3076.00,0.0188
3075.00,0.0188
3074.00,0.0188
3073.00,0.0188
3072.00,0.0188
3071.00,0.0187
3070.00,0.0186
3069.00,0.0186
3068.00,0.0185
3067.00,0.0185
3066.00,0.0184
3065.00,0.0184
3064.00,0.0183
3063.00,0.0183
3062.00,0.0182
3061.00,0.0182
3060.00,0.0181
3059.00,0.0180
3058.00,0.0179
3057.00,0.0178
3056.00,0.0177
3055.00,0.0176
3054.00,0.0174
3053.00,0.0173
3052.00,0.0172
3051.00,0.0171
3050.00,0.0170
3049.00,0.0170
3048.00,0.0169
3047.00,0.0168
3046.00,0.0167
3045.00,0.0166
3044.00,0.0164
3043.00,0.0163
3042.00,0.0162
3041.00,0.0162
3040.00,0.0162
3039.00,0.0161
3038.00,0.0161
3037.00,0.0160
3036.00,0.0159
3035.00,0.0157
3034.00,0.0157
3033.00,0.0156
3032.00,0.0155
3031.00,0.0154
3030.00,0.0154
3029.00,0.0153
3028.00,0.0152
3027.00,0.0152
3026.00,0.0151
3025.00,0.0150
3024.00,0.0149
3023.00,0.0149
3022.00,0.0148
3021.00,0.0147
3020.00,0.0146
3019.00,0.0146
3018.00,0.0145
3017.00,0.0144
3016.00,0.0143
3015.00,0.0142
3014.00,0.0141
3013.00,0.0140
3012.00,0.0140
3011.00,0.0140
3010.00,0.0139
3009.00,0.0139
3008.00,0.0139
3007.00,0.0139
3006.00,0.0139
3005.00,0.0139
3004.00,0.0139
3003.00,0.0138
3002.00,0.0138
3001.00,0.0138
3000.00,0.0138
2999.00,0.0138
2998.00,0.0138
2997.00,0.0139
2996.00,0.0139
2995.00,0.0140
2994.00,0.0140
2993.00,0.0141
2992.00,0.0142
2991.00,0.0144
2990.00,0.0145
2989.00,0.0146
2988.00,0.0148
2987.00,0.0149
2986.00,0.0150
2985.00,0.0152
2984.00,0.0153
2983.00,0.0155
2982.00,0.0157
2981.00,0.0159
2980.00,0.0162
2979.00,0.0164
2978.00,0.0167
2977.00,0.0169
2976.00,0.0172
2975.00,0.0175
2974.00,0.0177
2973.00,0.0180
2972.00,0.0182
2971.00,0.0185
2970.00,0.0187
2969.00,0.0190
2968.00,0.0192
2967.00,0.0194
2966.00,0.0196
2965.00,0.0197
2964.00,0.0199
2963.00,0.0200
2962.00,0.0200
2961.00,0.0200
2960.00,0.0200
2959.00,0.0199
2958.00,0.0199
2957.00,0.0198
2956.00,0.0197
2955.00,0.0195
2954.00,0.0194
2953.00,0.0192
2952.00,0.0190
2951.00,0.0189
2950.00,0.0188
2949.00,0.0187
2948.00,0.0186
2947.00,0.0186
2946.00,0.0186
2945.00,0.0186
2944.00,0.0187
2943.00,0.0188
2942.00,0.0189
2941.00,0.0191
2940.00,0.0192
2939.00,0.0194
2938.00,0.0196
2937.00,0.0197
2936.00,0.0199
2935.00,0.0200
2934.00,0.0201
2933.00,0.0202
2932.00,0.0203
2931.00,0.0203
2930.00,0.0203
2929.00,0.0203
2928.00,0.0203
2927.00,0.0203
2926.00,0.0202
2925.00,0.0201
2924.00,0.0200
2923.00,0.0198
2922.00,0.0197
2921.00,0.0195
2920.00,0.0194
2919.00,0.0191
2918.00,0.0189
2917.00,0.0187
2916.00,0.0185
2915.00,0.0182
2914.00,0.0180
2913.00,0.0177
2912.00,0.0175
2911.00,0.0173
2910.00,0.0171
2909.00,0.0169
2908.00,0.0167
2907.00,0.0165
2906.00,0.0164
2905.00,0.0162
2904.00,0.0160
2903.00,0.0159
2902.00,0.0157
2901.00,0.0156
2900.00,0.0154
2899.00,0.0153
2898.00,0.0152
2897.00,0.0151
2896.00,0.0150
2895.00,0.0149
2894.00,0.0148
2893.00,0.0147
2892.00,0.0146
2891.00,0.0145
2890.00,0.0145
2889.00,0.0145
2888.00,0.0144
2887.00,0.0144
2886.00,0.0145
2885.00,0.0145
2884.00,0.0145
2883.00,0.0146
2882.00,0.0147
2881.00,0.0148
2880.00,0.0149
2879.00,0.0150
2878.00,0.0151
2877.00,0.0152
2876.00,0.0152
2875.00,0.0152
2874.00,0.0152
2873.00,0.0151
2872.00,0.0151
2871.00,0.0150
2870.00,0.0149
2869.00,0.0147
2868.00,0.0145
2867.00,0.0144
2866.00,0.0142
2865.00,0.0140
2864.00,0.0139
2863.00,0.0137
2862.00,0.0136
2861.00,0.0134
2860.00,0.0134
2859.00,0.0133
2858.00,0.0133
2857.00,0.0132
2856.00,0.0132
2855.00,0.0132
2854.00,0.0131
2853.00,0.0130
2852.00,0.0129
2851.00,0.0127
2850.00,0.0126
2849.00,0.0124
2848.00,0.0122
2847.00,0.0120
2846.00,0.0117
2845.00,0.0115
2844.00,0.0114
2843.00,0.0112
2842.00,0.0110
2841.00,0.0109
2840.00,0.0108
2839.00,0.0107
2838.00,0.0106
2837.00,0.0105
2836.00,0.0105
2835.00,0.0104
2834.00,0.0103
2833.00,0.0103
2832.00,0.0103
2831.00,0.0102
2830.00,0.0102
2829.00,0.0102
2828.00,0.0101
2827.00,0.0101
2826.00,0.0100
2825.00,0.0100
2824.00,0.0099
2823.00,0.0099
2822.00,0.0099
2821.00,0.0098
2820.00,0.0098
2819.00,0.0098
2818.00,0.0097
2817.00,0.0097
2816.00,0.0097
2815.00,0.0096
2814.00,0.0096
2813.00,0.0096
2812.00,0.0095
2811.00,0.0095
2810.00,0.0095
2809.00,0.0094
2808.00,0.0094
2807.00,0.0094
2806.00,0.0094
2805.00,0.0094
2804.00,0.0093
2803.00,0.0093
2802.00,0.0093
2801.00,0.0092
2800.00,0.0092
2799.00,0.0092
2798.00,0.0091
2797.00,0.0091
2796.00,0.0091
2795.00,0.0090
2794.00,0.0090
2793.00,0.0090
2792.00,0.0090
2791.00,0.0089
2790.00,0.0089
2789.00,0.0089
2788.00,0.0088
2787.00,0.0088
2786.00,0.0088
2785.00,0.0088
2784.00,0.0087
2783.00,0.0087
2782.00,0.0087
2781.00,0.0087
2780.00,0.0086
2779.00,0.0086
2778.00,0.0086
2777.00,0.0085
2776.00,0.0085
2775.00,0.0085
2774.00,0.0085
2773.00,0.0084
2772.00,0.0084
2771.00,0.0083
2770.00,0.0083
2769.00,0.0083
2768.00,0.0083
2767.00,0.0083
2766.00,0.0082
2765.00,0.0082
2764.00,0.0081
2763.00,0.0081
2762.00,0.0081
2761.00,0.0080
2760.00,0.0080
2759.00,0.0080
2758.00,0.0079
2757.00,0.0079
2756.00,0.0079
2755.00,0.0079
2754.00,0.0078
2753.00,0.0078
2752.00,0.0078
2751.00,0.0077
2750.00,0.0077
2749.00,0.0077
2748.00,0.0076
2747.00,0.0076
2746.00,0.0076
2745.00,0.0076
2744.00,0.0075
2743.00,0.0075
2742.00,0.0075
2741.00,0.0074
2740.00,0.0074
2739.00,0.0074
2738.00,0.0074
2737.00,0.0074
2736.00,0.0074
2735.00,0.0073
2734.00,0.0073
2733.00,0.0073
2732.00,0.0073
2731.00,0.0072
2730.00,0.0072
2729.00,0.0072
2728.00,0.0071
2727.00,0.0071
2726.00,0.0071
2725.00,0.0070
2724.00,0.0070
2723.00,0.0069
2722.00,0.0069
2721.00,0.0069
2720.00,0.0069
2719.00,0.0068
2718.00,0.0068
2717.00,0.0067
2716.00,0.0067
2715.00,0.0067
2714.00,0.0067
2713.00,0.0067
2712.00,0.0067
2711.00,0.0067
2710.00,0.0066
2709.00,0.0066
2708.00,0.0065
2707.00,0.0065
2706.00,0.0065
2705.00,0.0065
2704.00,0.0065
2703.00,0.0065
2702.00,0.0064
2701.00,0.0064
2700.00,0.0064
2699.00,0.0064
2698.00,0.0064
2697.00,0.0064
2696.00,0.0064
2695.00,0.0064
2694.00,0.0064
2693.00,0.0063
2692.00,0.0063
2691.00,0.0063
2690.00,0.0063
2689.00,0.0063
2688.00,0.0063
2687.00,0.0063
2686.00,0.0063
2685.00,0.0063
2684.00,0.0062
2683.00,0.0062
2682.00,0.0062
2681.00,0.0062
2680.00,0.0062
2679.00,0.0062
2678.00,0.0061
2677.00,0.0061
2676.00,0.0061
2675.00,0.0061
2674.00,0.0061
2673.00,0.0061
2672.00,0.0061
2671.00,0.0061
2670.00,0.0061
2669.00,0.0061
2668.00,0.0061
2667.00,0.0061
2666.00,0.0061
2665.00,0.0061
2664.00,0.0062
2663.00,0.0063
2662.00,0.0063
2661.00,0.0063
2660.00,0.0063
2659.00,0.0063
2658.00,0.0063
2657.00,0.0063
2656.00,0.0063
2655.00,0.0063
2654.00,0.0063
2653.00,0.0063
2652.00,0.0063
2651.00,0.0063
2650.00,0.0064
2649.00,0.0064
2648.00,0.0064
2647.00,0.0064
2646.00,0.0063
2645.00,0.0063
2644.00,0.0063
2643.00,0.0062
2642.00,0.0062
2641.00,0.0062
2640.00,0.0062
2639.00,0.0061
2638.00,0.0061
2637.00,0.0061
2636.00,0.0061
2635.00,0.0061
2634.00,0.0061
2633.00,0.0061
2632.00,0.0061
2631.00,0.0060
2630.00,0.0060
2629.00,0.0060
2628.00,0.0060
2627.00,0.0059
2626.00,0.0059
2625.00,0.0059
2624.00,0.0059
2623.00,0.0059
2622.00,0.0059
2621.00,0.0059
2620.00,0.0059
2619.00,0.0058
2618.00,0.0058
2617.00,0.0058
2616.00,0.0058
2615.00,0.0058
2614.00,0.0058
2613.00,0.0057
2612.00,0.0057
2611.00,0.0057
2610.00,0.0056
2609.00,0.0056
2608.00,0.0056
2607.00,0.0055
2606.00,0.0055
2605.00,0.0055
2604.00,0.0055
2603.00,0.0055
2602.00,0.0055
2601.00,0.0055
2600.00,0.0054
2599.00,0.0054
2598.00,0.0053
2597.00,0.0053
2596.00,0.0053
2595.00,0.0053
2594.00,0.0053
2593.00,0.0053
2592.00,0.0053
2591.00,0.0052
2590.00,0.0052
2589.00,0.0052
2588.00,0.0052
2587.00,0.0052
2586.00,0.0051
2585.00,0.0051
2584.00,0.0051
2583.00,0.0051
2582.00,0.0051
2581.00,0.0050
2580.00,0.0050
2579.00,0.0050
2578.00,0.0049
2577.00,0.0049
2576.00,0.0049
2575.00,0.0049
2574.00,0.0049
2573.00,0.0049
2572.00,0.0049
2571.00,0.0049
2570.00,0.0049
2569.00,0.0049
2568.00,0.0049
2567.00,0.0049
2566.00,0.0048
2565.00,0.0048
2564.00,0.0048
2563.00,0.0048
2562.00,0.0048
2561.00,0.0048
2560.00,0.0047
2559.00,0.0047
2558.00,0.0047
2557.00,0.0047
2556.00,0.0047
2555.00,0.0047
2554.00,0.0047
2553.00,0.0046
2552.00,0.0046
2551.00,0.0046
2550.00,0.0046
2549.00,0.0046
2548.00,0.0046
2547.00,0.0046
2546.00,0.0046
2545.00,0.0046
2544.00,0.0045
2543.00,0.0045
2542.00,0.0045
2541.00,0.0044
2540.00,0.0044
2539.00,0.0044
2538.00,0.0043
2537.00,0.0043
2536.00,0.0044
2535.00,0.0044
2534.00,0.0044
2533.00,0.0044
2532.00,0.0043
2531.00,0.0043
2530.00,0.0043
2529.00,0.0043
2528.00,0.0043
2527.00,0.0043
2526.00,0.0043
2525.00,0.0043
2524.00,0.0043
2523.00,0.0042
2522.00,0.0042
2521.00,0.0042
2520.00,0.0042
2519.00,0.0041
2518.00,0.0041
2517.00,0.0041
2516.00,0.0040
2515.00,0.0040
2514.00,0.0040
2513.00,0.0040
2512.00,0.0040
2511.00,0.0040
2510.00,0.0040
2509.00,0.0040
2508.00,0.0040
2507.00,0.0041
2506.00,0.0041
2505.00,0.0041
2504.00,0.0041
2503.00,0.0041
2502.00,0.0041
2501.00,0.0041
2500.00,0.0041
2499.00,0.0041
2498.00,0.0041
2497.00,0.0041
2496.00,0.0041
2495.00,0.0040
2494.00,0.0040
2493.00,0.0040
2492.00,0.0040
2491.00,0.0040
2490.00,0.0040
2489.00,0.0039
2488.00,0.0039
2487.00,0.0039
2486.00,0.0039
2485.00,0.0039
2484.00,0.0039
2483.00,0.0039
2482.00,0.0039
2481.00,0.0038
2480.00,0.0038
2479.00,0.0037
2478.00,0.0037
2477.00,0.0037
2476.00,0.0037
2475.00,0.0037
2474.00,0.0037
2473.00,0.0037
2472.00,0.0037
2471.00,0.0037
2470.00,0.0037
2469.00,0.0037
2468.00,0.0037
2467.00,0.0037
2466.00,0.0036
2465.00,0.0036
2464.00,0.0036
2463.00,0.0037
2462.00,0.0037
2461.00,0.0037
2460.00,0.0037
2459.00,0.0037
2458.00,0.0037
2457.00,0.0037
2456.00,0.0037
2455.00,0.0037
2454.00,0.0037
2453.00,0.0037
2452.00,0.0037
2451.00,0.0037
2450.00,0.0037
2449.00,0.0037
2448.00,0.0036
2447.00,0.0035
2446.00,0.0035
2445.00,0.0034
2444.00,0.0034
2443.00,0.0034
2442.00,0.0035
2441.00,0.0035
2440.00,0.0035
2439.00,0.0035
2438.00,0.0035
2437.00,0.0034
2436.00,0.0034
2435.00,0.0033
2434.00,0.0033
2433.00,0.0032
2432.00,0.0032
2431.00,0.0032
2430.00,0.0032
2429.00,0.0032
2428.00,0.0031
2427.00,0.0031
2426.00,0.0031
2425.00,0.0031
2424.00,0.0030
2423.00,0.0030
2422.00,0.0030
2421.00,0.0030
2420.00,0.0030
2419.00,0.0030
2418.00,0.0030
2417.00,0.0030
2416.00,0.0030
2415.00,0.0030
2414.00,0.0030
2413.00,0.0030
2412.00,0.0030
2411.00,0.0030
2410.00,0.0030
2409.00,0.0030
2408.00,0.0029
2407.00,0.0029
2406.00,0.0028
2405.00,0.0028
2404.00,0.0028
2403.00,0.0027
2402.00,0.0027
2401.00,0.0027
2400.00,0.0027
2399.00,0.0027
2398.00,0.0027
2397.00,0.0027
2396.00,0.0027
2395.00,0.0026
2394.00,0.0026
2393.00,0.0026
2392.00,0.0027
2391.00,0.0027
2390.00,0.0026
2389.00,0.0026
2388.00,0.0026
2387.00,0.0026
2386.00,0.0025
2385.00,0.0025
2384.00,0.0026
2383.00,0.0026
2382.00,0.0025
2381.00,0.0025
2380.00,0.0025
2379.00,0.0025
2378.00,0.0025
2377.00,0.0025
2376.00,0.0025
2375.00,0.0025
2374.00,0.0025
2373.00,0.0025
2372.00,0.0025
2371.00,0.0025
2370.00,0.0024
2369.00,0.0024
2368.00,0.0024
2367.00,0.0024
2366.00,0.0024
2365.00,0.0024
2364.00,0.0025
2363.00,0.0026
2362.00,0.0026
2361.00,0.0026
2360.00,0.0026
2359.00,0.0026
2358.00,0.0025
2357.00,0.0024
2356.00,0.0023
2355.00,0.0022
2354.00,0.0022
2353.00,0.0022
2352.00,0.0023
2351.00,0.0024
2350.00,0.0026
2349.00,0.0026
2348.00,0.0026
2347.00,0.0026
2346.00,0.0026
2345.00,0.0027
2344.00,0.0027
2343.00,0.0027
2342.00,0.0027
2341.00,0.0028
2340.00,0.0028
2339.00,0.0028
2338.00,0.0028
2337.00,0.0027
2336.00,0.0027
2335.00,0.0027
2334.00,0.0027
2333.00,0.0026
2332.00,0.0026
2331.00,0.0026
2330.00,0.0026
2329.00,0.0028
2328.00,0.0031
2327.00,0.0035
2326.00,0.0038
2325.00,0.0040
2324.00,0.0040
2323.00,0.0038
2322.00,0.0036
2321.00,0.0034
2320.00,0.0033
2319.00,0.0032
2318.00,0.0031
2317.00,0.0031
2316.00,0.0031
2315.00,0.0031
2314.00,0.0031
2313.00,0.0030
2312.00,0.0030
2311.00,0.0030
2310.00,0.0030
2309.00,0.0030
2308.00,0.0030
2307.00,0.0030
2306.00,0.0030
2305.00,0.0030
2304.00,0.0030
2303.00,0.0030
2302.00,0.0030
2301.00,0.0030
2300.00,0.0030
2299.00,0.0030
2298.00,0.0030
2297.00,0.0031
2296.00,0.0031
2295.00,0.0032
2294.00,0.0033
2293.00,0.0034
2292.00,0.0034
2291.00,0.0035
2290.00,0.0035
2289.00,0.0035
2288.00,0.0035
2287.00,0.0035
2286.00,0.0035
2285.00,0.0034
2284.00,0.0034
2283.00,0.0034
2282.00,0.0033
2281.00,0.0033
2280.00,0.0032
2279.00,0.0031
2278.00,0.0031
2277.00,0.0030
2276.00,0.0029
2275.00,0.0029
2274.00,0.0029
2273.00,0.0029
2272.00,0.0029
2271.00,0.0029
2270.00,0.0028
2269.00,0.0028
2268.00,0.0027
2267.00,0.0027
2266.00,0.0027
2265.00,0.0027
2264.00,0.0027
2263.00,0.0027
2262.00,0.0027
2261.00,0.0028
2260.00,0.0028
2259.00,0.0028
2258.00,0.0028
2257.00,0.0026
2256.00,0.0025
2255.00,0.0024
2254.00,0.0023
2253.00,0.0023
2252.00,0.0024
2251.00,0.0024
2250.00,0.0024
2249.00,0.0024
2248.00,0.0024
2247.00,0.0024
2246.00,0.0025
2245.00,0.0025
2244.00,0.0025
2243.00,0.0025
2242.00,0.0025
2241.00,0.0025
2240.00,0.0025
2239.00,0.0025
2238.00,0.0026
2237.00,0.0026
2236.00,0.0026
2235.00,0.0025
2234.00,0.0025
2233.00,0.0024
2232.00,0.0024
2231.00,0.0024
2230.00,0.0024
2229.00,0.0024
2228.00,0.0024
2227.00,0.0023
2226.00,0.0022
2225.00,0.0022
2224.00,0.0022
2223.00,0.0022
2222.00,0.0022
2221.00,0.0022
2220.00,0.0022
2219.00,0.0022
2218.00,0.0022
2217.00,0.0022
2216.00,0.0022
2215.00,0.0022
2214.00,0.0022
2213.00,0.0022
2212.00,0.0021
2211.00,0.0021
2210.00,0.0021
2209.00,0.0022
2208.00,0.0022
2207.00,0.0022
2206.00,0.0023
2205.00,0.0023
2204.00,0.0024
2203.00,0.0024
2202.00,0.0023
2201.00,0.0023
2200.00,0.0023
2199.00,0.0022
2198.00,0.0022
2197.00,0.0022
2196.00,0.0022
2195.00,0.0023
2194.00,0.0024
2193.00,0.0024
2192.00,0.0025
2191.00,0.0025
2190.00,0.0025
2189.00,0.0025
2188.00,0.0024
2187.00,0.0024
2186.00,0.0024
2185.00,0.0023
2184.00,0.0022
2183.00,0.0020
2182.00,0.0018
2181.00,0.0018
2180.00,0.0019
2179.00,0.0019
2178.00,0.0019
2177.00,0.0017
2176.00,0.0016
2175.00,0.0017
2174.00,0.0018
2173.00,0.0020
2172.00,0.0022
2171.00,0.0023
2170.00,0.0024
2169.00,0.0025
2168.00,0.0026
2167.00,0.0027
2166.00,0.0028
2165.00,0.0030
2164.00,0.0031
2163.00,0.0032
2162.00,0.0028
2161.00,0.0019
2160.00,0.0007
2159.00,-0.0005
2158.00,-0.0011
2157.00,-0.0011
2156.00,-0.0008
2155.00,-0.0005
2154.00,-0.0002
2153.00,0.0000
2152.00,0.0003
2151.00,0.0004
2150.00,0.0005
2149.00,0.0004
2148.00,0.0003
2147.00,0.0003
2146.00,0.0002
2145.00,0.0002
2144.00,0.0003
2143.00,0.0005
2142.00,0.0005
2141.00,0.0005
2140.00,0.0005
2139.00,0.0006
2138.00,0.0005
2137.00,0.0005
2136.00,0.0004
2135.00,0.0002
2134.00,0.0001
2133.00,0.0002
2132.00,0.0004
2131.00,0.0005
2130.00,0.0007
2129.00,0.0009
2128.00,0.0010
2127.00,0.0011
2126.00,0.0011
2125.00,0.0012
2124.00,0.0013
2123.00,0.0014
2122.00,0.0015
2121.00,0.0016
2120.00,0.0017
2119.00,0.0018
2118.00,0.0019
2117.00,0.0020
2116.00,0.0021
2115.00,0.0021
2114.00,0.0021
2113.00,0.0021
2112.00,0.0021
2111.00,0.0022
2110.00,0.0022
2109.00,0.0023
2108.00,0.0023
2107.00,0.0023
2106.00,0.0022
2105.00,0.0022
2104.00,0.0022
2103.00,0.0022
2102.00,0.0022
2101.00,0.0022
2100.00,0.0022
2099.00,0.0022
2098.00,0.0021
2097.00,0.0020
2096.00,0.0018
2095.00,0.0016
2094.00,0.0016
2093.00,0.0016
2092.00,0.0018
2091.00,0.0019
2090.00,0.0020
2089.00,0.0021
2088.00,0.0022
2087.00,0.0023
2086.00,0.0023
2085.00,0.0023
2084.00,0.0024
2083.00,0.0024
2082.00,0.0025
2081.00,0.0025
2080.00,0.0026
2079.00,0.0026
2078.00,0.0025
2077.00,0.0024
2076.00,0.0023
2075.00,0.0023
2074.00,0.0023
2073.00,0.0023
2072.00,0.0023
2071.00,0.0023
2070.00,0.0022
2069.00,0.0022
2068.00,0.0022
2067.00,0.0022
2066.00,0.0021
2065.00,0.0021
2064.00,0.0020
2063.00,0.0019
2062.00,0.0019
2061.00,0.0019
2060.00,0.0019
2059.00,0.0020
2058.00,0.0020
2057.00,0.0020
2056.00,0.0021
2055.00,0.0022
2054.00,0.0024
2053.00,0.0029
2052.00,0.0033
2051.00,0.0034
2050.00,0.0031
2049.00,0.0027
2048.00,0.0024
2047.00,0.0021
2046.00,0.0020
2045.00,0.0020
2044.00,0.0021
2043.00,0.0021
2042.00,0.0021
2041.00,0.0020
2040.00,0.0020
2039.00,0.0020
2038.00,0.0019
2037.00,0.0020
2036.00,0.0020
2035.00,0.0019
2034.00,0.0017
2033.00,0.0015
2032.00,0.0012
2031.00,0.0011
2030.00,0.0010
2029.00,0.0011
2028.00,0.0013
2027.00,0.0014
2026.00,0.0013
2025.00,0.0013
2024.00,0.0013
2023.00,0.0013
2022.00,0.0013
2021.00,0.0013
2020.00,0.0013
2019.00,0.0012
2018.00,0.0011
2017.00,0.0011
2016.00,0.0012
2015.00,0.0013
2014.00,0.0014
2013.00,0.0015
2012.00,0.0014
2011.00,0.0012
2010.00,0.0010
2009.00,0.0010
2008.00,0.0010
2007.00,0.0009
2006.00,0.0007
2005.00,0.0006
2004.00,0.0006
2003.00,0.0008
2002.00,0.0010
2001.00,0.0012
2000.00,0.0014
1999.00,0.0015
1998.00,0.0015
1997.00,0.0016
1996.00,0.0016
1995.00,0.0015
1994.00,0.0014
1993.00,0.0014
1992.00,0.0016
1991.00,0.0017
1990.00,0.0018
1989.00,0.0018
1988.00,0.0018
1987.00,0.0019
1986.00,0.0020
1985.00,0.0022
1984.00,0.0025
1983.00,0.0028
1982.00,0.0031
1981.00,0.0031
1980.00,0.0028
1979.00,0.0022
1978.00,0.0015
1977.00,0.0009
1976.00,0.0006
1975.00,0.0006
1974.00,0.0006
1973.00,0.0008
1972.00,0.0010
1971.00,0.0010
1970.00,0.0009
1969.00,0.0008
1968.00,0.0008
1967.00,0.0008
1966.00,0.0009
1965.00,0.0009
1964.00,0.0010
1963.00,0.0009
1962.00,0.0008
1961.00,0.0006
1960.00,0.0006
1959.00,0.0006
1958.00,0.0006
1957.00,0.0008
1956.00,0.0009
1955.00,0.0011
1954.00,0.0011
1953.00,0.0012
1952.00,0.0012
1951.00,0.0012
1950.00,0.0012
1949.00,0.0012
1948.00,0.0012
1947.00,0.0011
1946.00,0.0010
1945.00,0.0010
1944.00,0.0012
1943.00,0.0013
1942.00,0.0014
1941.00,0.0014
1940.00,0.0013
1939.00,0.0012
1938.00,0.0012
1937.00,0.0013
1936.00,0.0013
1935.00,0.0013
1934.00,0.0013
1933.00,0.0013
1932.00,0.0013
1931.00,0.0012
1930.00,0.0012
1929.00,0.0013
1928.00,0.0013
1927.00,0.0014
1926.00,0.0014
1925.00,0.0014
1924.00,0.0015
1923.00,0.0016
1922.00,0.0017
1921.00,0.0017
1920.00,0.0017
1919.00,0.0016
1918.00,0.0016
1917.00,0.0017
1916.00,0.0017
1915.00,0.0016
1914.00,0.0016
1913.00,0.0015
1912.00,0.0016
1911.00,0.0016
1910.00,0.0016
1909.00,0.0017
1908.00,0.0018
1907.00,0.0018
1906.00,0.0017
1905.00,0.0017
1904.00,0.0017
1903.00,0.0017
1902.00,0.0017
1901.00,0.0017
1900.00,0.0018
1899.00,0.0018
1898.00,0.0018
1897.00,0.0017
1896.00,0.0017
1895.00,0.0017
1894.00,0.0017
1893.00,0.0017
1892.00,0.0017
1891.00,0.0017
1890.00,0.0017
1889.00,0.0018
1888.00,0.0018
1887.00,0.0018
1886.00,0.0018
1885.00,0.0017
1884.00,0.0018
1883.00,0.0018
1882.00,0.0019
1881.00,0.0019
1880.00,0.0019
1879.00,0.0018
1878.00,0.0018
1877.00,0.0017
1876.00,0.0017
1875.00,0.0017
1874.00,0.0018
1873.00,0.0018
1872.00,0.0019
1871.00,0.0018
1870.00,0.0017
1869.00,0.0018
1868.00,0.0019
1867.00,0.0020
1866.00,0.0020
1865.00,0.0020
1864.00,0.0020
1863.00,0.0019
1862.00,0.0019
1861.00,0.0019
1860.00,0.0019
1859.00,0.0020
1858.00,0.0020
1857.00,0.0020
1856.00,0.0020
1855.00,0.0020
1854.00,0.0019
1853.00,0.0019
1852.00,0.0019
1851.00,0.0019
1850.00,0.0020
1849.00,0.0020
1848.00,0.0021
1847.00,0.0020
1846.00,0.0019
1845.00,0.0020
1844.00,0.0022
1843.00,0.0023
1842.00,0.0023
1841.00,0.0022
1840.00,0.0021
1839.00,0.0020
1838.00,0.0020
1837.00,0.0020
1836.00,0.0021
1835.00,0.0021
1834.00,0.0021
1833.00,0.0021
1832.00,0.0020
1831.00,0.0019
1830.00,0.0019
1829.00,0.0021
1828.00,0.0023
1827.00,0.0023
1826.00,0.0023
1825.00,0.0024
1824.00,0.0025
1823.00,0.0025
1822.00,0.0024
1821.00,0.0024
1820.00,0.0023
1819.00,0.0023
1818.00,0.0022
1817.00,0.0022
1816.00,0.0022
1815.00,0.0022
1814.00,0.0022
1813.00,0.0022
1812.00,0.0022
1811.00,0.0023
1810.00,0.0024
1809.00,0.0025
1808.00,0.0025
1807.00,0.0026
1806.00,0.0027
1805.00,0.0028
1804.00,0.0029
1803.00,0.0029
1802.00,0.0029
1801.00,0.0028
1800.00,0.0028
1799.00,0.0028
1798.00,0.0028
1797.00,0.0029
1796.00,0.0029
1795.00,0.0028
1794.00,0.0029
1793.00,0.0030
1792.00,0.0033
1791.00,0.0035
1790.00,0.0035
1789.00,0.0034
1788.00,0.0034
1787.00,0.0034
1786.00,0.0034
1785.00,0.0034
1784.00,0.0034
1783.00,0.0035
1782.00,0.0035
1781.00,0.0035
1780.00,0.0035
1779.00,0.0035
1778.00,0.0036
1777.00,0.0037
1776.00,0.0038
1775.00,0.0040
1774.00,0.0033
1773.00,0.0033
1772.00,0.0037
1771.00,0.0042
1770.00,0.0044
1769.00,0.0046
1768.00,0.0047
1767.00,0.0047
1766.00,0.0048
1765.00,0.0048
1764.00,0.0048
1763.00,0.0050
1762.00,0.0053
1761.00,0.0055
1760.00,0.0057
1759.00,0.0058
1758.00,0.0059
1757.00,0.0061
1756.00,0.0064
1755.00,0.0067
1754.00,0.0068
1753.00,0.0069
1752.00,0.0071
1751.00,0.0073
1750.00,0.0073
1749.00,0.0074
1748.00,0.0076
1747.00,0.0079
1746.00,0.0081
1745.00,0.0084
1744.00,0.0086
1743.00,0.0089
1742.00,0.0091
1741.00,0.0094
1740.00,0.0098
1739.00,0.0102
1738.00,0.0106
1737.00,0.0109
1736.00,0.0111
1735.00,0.0115
1734.00,0.0120
1733.00,0.0124
1732.00,0.0126
1731.00,0.0127
1730.00,0.0129
1729.00,0.0132
1728.00,0.0135
1727.00,0.0137
1726.00,0.0139
1725.00,0.0141
1724.00,0.0144
1723.00,0.0148
1722.00,0.0151
1721.00,0.0154
1720.00,0.0155
1719.00,0.0156
1718.00,0.0158
1717.00,0.0162
1716.00,0.0167
1715.00,0.0171
1714.00,0.0174
1713.00,0.0177
1712.00,0.0180
1711.00,0.0184
1710.00,0.0189
1709.00,0.0194
1708.00,0.0200
1707.00,0.0207
1706.00,0.0216
1705.00,0.0230
1704.00,0.0245
1703.00,0.0261
1702.00,0.0277
1701.00,0.0297
1700.00,0.0321
1699.00,0.0340
1698.00,0.0354
1697.00,0.0367
1696.00,0.0383
1695.00,0.0397
1694.00,0.0407
1693.00,0.0414
1692.00,0.0421
1691.00,0.0429
1690.00,0.0438
1689.00,0.0449
1688.00,0.0460
1687.00,0.0470
1686.00,0.0479
1685.00,0.0490
1684.00,0.0503
1683.00,0.0517
1682.00,0.0528
1681.00,0.0539
1680.00,0.0553
1679.00,0.0568
1678.00,0.0582
1677.00,0.0597
1676.00,0.0610
1675.00,0.0621
1674.00,0.0632
1673.00,0.0643
1672.00,0.0656
1671.00,0.0669
1670.00,0.0681
1669.00,0.0694
1668.00,0.0708
1667.00,0.0722
1666.00,0.0737
1665.00,0.0752
1664.00,0.0767
1663.00,0.0780
1662.00,0.0793
1661.00,0.0806
1660.00,0.0821
1659.00,0.0837
1658.00,0.0854
1657.00,0.0873
1656.00,0.0893
1655.00,0.0907
1654.00,0.0910
1653.00,0.0906
1652.00,0.0904
1651.00,0.0911
1650.00,0.0924
1649.00,0.0937
1648.00,0.0945
1647.00,0.0948
1646.00,0.0949
1645.00,0.0951
1644.00,0.0958
1643.00,0.0967
1642.00,0.0977
1641.00,0.0987
1640.00,0.0997
1639.00,0.1009
1638.00,0.1020
1637.00,0.1029
1636.00,0.1036
1635.00,0.1044
1634.00,0.1055
1633.00,0.1071
1632.00,0.1093
1631.00,0.1115
1630.00,0.1136
1629.00,0.1156
1628.00,0.1175
1627.00,0.1194
1626.00,0.1213
1625.00,0.1229
1624.00,0.1241
1623.00,0.1247
1622.00,0.1249
1621.00,0.1253
1620.00,0.1258
1619.00,0.1259
1618.00,0.1247
1617.00,0.1220
1616.00,0.1186
1615.00,0.1155
1614.00,0.1131
1613.00,0.1108
1612.00,0.1080
1611.00,0.1046
1610.00,0.1009
1609.00,0.0970
1608.00,0.0932
1607.00,0.0896
1606.00,0.0862
1605.00,0.0830
1604.00,0.0799
1603.00,0.0769
1602.00,0.0742
1601.00,0.0717
1600.00,0.0694
1599.00,0.0674
1598.00,0.0655
1597.00,0.0637
1596.00,0.0620
1595.00,0.0604
1594.00,0.0590
1593.00,0.0578
1592.00,0.0566
1591.00,0.0555
1590.00,0.0546
1589.00,0.0538
1588.00,0.0530
1587.00,0.0524
1586.00,0.0520
1585.00,0.0516
1584.00,0.0514
1583.00,0.0512
1582.00,0.0511
1581.00,0.0512
1580.00,0.0514
1579.00,0.0516
1578.00,0.0517
1577.00,0.0519
1576.00,0.0524
1575.00,0.0531
1574.00,0.0539
1573.00,0.0549
1572.00,0.0558
1571.00,0.0566
1570.00,0.0575
1569.00,0.0586
1568.00,0.0596
1567.00,0.0606
1566.00,0.0617
1565.00,0.0630
1564.00,0.0644
1563.00,0.0660
1562.00,0.0677
1561.00,0.0693
1560.00,0.0701
1559.00,0.0709
1558.00,0.0721
1557.00,0.0734
1556.00,0.0749
1555.00,0.0765
1554.00,0.0781
1553.00,0.0797
1552.00,0.0812
1551.00,0.0826
1550.00,0.0840
1549.00,0.0855
1548.00,0.0870
1547.00,0.0885
1546.00,0.0900
1545.00,0.0912
1544.00,0.0923
1543.00,0.0933
1542.00,0.0940
1541.00,0.0944
1540.00,0.0948
1539.00,0.0955
1538.00,0.0965
1537.00,0.0980
1536.00,0.0996
1535.00,0.1009
1534.00,0.1016
1533.00,0.1020
1532.00,0.1025
1531.00,0.1033
1530.00,0.1043
1529.00,0.1052
1528.00,0.1058
1527.00,0.1061
1526.00,0.1063
1525.00,0.1064
1524.00,0.1067
1523.00,0.1070
1522.00,0.1069
1521.00,0.1065
1520.00,0.1063
1519.00,0.1064
1518.00,0.1066
1517.00,0.1065
1516.00,0.1061
1515.00,0.1057
1514.00,0.1052
1513.00,0.1044
1512.00,0.1032
1511.00,0.1018
1510.00,0.1006
1509.00,0.0990
1508.00,0.0964
1507.00,0.0930
1506.00,0.0894
1505.00,0.0867
1504.00,0.0850
1503.00,0.0838
1502.00,0.0826
1501.00,0.0812
1500.00,0.0795
1499.00,0.0777
1498.00,0.0757
1497.00,0.0734
1496.00,0.0711
1495.00,0.0690
1494.00,0.0673
1493.00,0.0659
1492.00,0.0643
1491.00,0.0625
1490.00,0.0604
1489.00,0.0584
1488.00,0.0566
1487.00,0.0552
1486.00,0.0538
1485.00,0.0526
1484.00,0.0516
1483.00,0.0506
1482.00,0.0497
1481.00,0.0489
1480.00,0.0484
1479.00,0.0482
1478.00,0.0481
1477.00,0.0480
1476.00,0.0481
1475.00,0.0482
1474.00,0.0485
1473.00,0.0489
1472.00,0.0494
1471.00,0.0499
1470.00,0.0504
1469.00,0.0507
1468.00,0.0511
1467.00,0.0514
1466.00,0.0514
1465.00,0.0514
1464.00,0.0514
1463.00,0.0515
1462.00,0.0518
1461.00,0.0523
1460.00,0.0529
1459.00,0.0535
1458.00,0.0541
1457.00,0.0548
1456.00,0.0552
1455.00,0.0554
1454.00,0.0555
1453.00,0.0558
1452.00,0.0560
1451.00,0.0562
1450.00,0.0563
1449.00,0.0563
1448.00,0.0562
1447.00,0.0561
1446.00,0.0559
1445.00,0.0557
1444.00,0.0555
1443.00,0.0553
1442.00,0.0551
1441.00,0.0550
1440.00,0.0550
1439.00,0.0551
1438.00,0.0549
1437.00,0.0543
1436.00,0.0532
1435.00,0.0521
1434.00,0.0513
1433.00,0.0506
1432.00,0.0500
1431.00,0.0493
1430.00,0.0488
1429.00,0.0483
1428.00,0.0479
1427.00,0.0478
1426.00,0.0476
1425.00,0.0476
1424.00,0.0477
1423.00,0.0479
1422.00,0.0483
1421.00,0.0489
1420.00,0.0493
1419.00,0.0496
1418.00,0.0500
1417.00,0.0503
1416.00,0.0506
1415.00,0.0511
1414.00,0.0516
1413.00,0.0521
1412.00,0.0526
1411.00,0.0530
1410.00,0.0534
1409.00,0.0538
1408.00,0.0542
1407.00,0.0546
1406.00,0.0548
1405.00,0.0550
1404.00,0.0552
1403.00,0.0554
1402.00,0.0557
1401.00,0.0559
1400.00,0.0561
1399.00,0.0562
1398.00,0.0563
1397.00,0.0565
1396.00,0.0566
1395.00,0.0567
1394.00,0.0567
1393.00,0.0567
1392.00,0.0568
1391.00,0.0570
1390.00,0.0573
1389.00,0.0574
1388.00,0.0573
1387.00,0.0570
1386.00,0.0565
1385.00,0.0560
1384.00,0.0554
1383.00,0.0549
1382.00,0.0543
1381.00,0.0537
1380.00,0.0532
1379.00,0.0526
1378.00,0.0521
1377.00,0.0516
1376.00,0.0511
1375.00,0.0508
1374.00,0.0505
1373.00,0.0503
1372.00,0.0501
1371.00,0.0500
1370.00,0.0498
1369.00,0.0496
1368.00,0.0492
1367.00,0.0488
1366.00,0.0484
1365.00,0.0480
1364.00,0.0475
1363.00,0.0470
1362.00,0.0465
1361.00,0.0460
1360.00,0.0455
1359.00,0.0452
1358.00,0.0449
1357.00,0.0447
1356.00,0.0445
1355.00,0.0443
1354.00,0.0442
1353.00,0.0441
1352.00,0.0440
1351.00,0.0439
1350.00,0.0439
1349.00,0.0438
1348.00,0.0438
1347.00,0.0438
1346.00,0.0437
1345.00,0.0437
1344.00,0.0438
1343.00,0.0438
1342.00,0.0438
1341.00,0.0439
1340.00,0.0438
1339.00,0.0438
1338.00,0.0437
1337.00,0.0435
1336.00,0.0433
1335.00,0.0432
1334.00,0.0430
1333.00,0.0429
1332.00,0.0428
1331.00,0.0427
1330.00,0.0426
1329.00,0.0426
1328.00,0.0426
1327.00,0.0426
1326.00,0.0426
1325.00,0.0426
1324.00,0.0427
1323.00,0.0429
1322.00,0.0430
1321.00,0.0431
1320.00,0.0432
1319.00,0.0433
1318.00,0.0435
1317.00,0.0436
1316.00,0.0437
1315.00,0.0438
1314.00,0.0439
1313.00,0.0439
1312.00,0.0439
1311.00,0.0439
1310.00,0.0439
1309.00,0.0439
1308.00,0.0439
1307.00,0.0438
1306.00,0.0438
1305.00,0.0438
1304.00,0.0439
1303.00,0.0439
1302.00,0.0440
1301.00,0.0440
1300.00,0.0441
1299.00,0.0442
1298.00,0.0443
1297.00,0.0445
1296.00,0.0447
1295.00,0.0448
1294.00,0.0450
1293.00,0.0453
1292.00,0.0455
1291.00,0.0458
1290.00,0.0460
1289.00,0.0463
1288.00,0.0465
1287.00,0.0467
1286.00,0.0469
1285.00,0.0471
1284.00,0.0473
1283.00,0.0476
1282.00,0.0478
1281.00,0.0479
1280.00,0.0481
1279.00,0.0482
1278.00,0.0483
1277.00,0.0484
1276.00,0.0484
1275.00,0.0485
1274.00,0.0486
1273.00,0.0487
1272.00,0.0488
1271.00,0.0489
1270.00,0.0491
1269.00,0.0493
1268.00,0.0496
1267.00,0.0500
1266.00,0.0503
1265.00,0.0507
1264.00,0.0511
1263.00,0.0516
1262.00,0.0520
1261.00,0.0525
1260.00,0.0530
1259.00,0.0534
1258.00,0.0539
1257.00,0.0543
1256.00,0.0548
1255.00,0.0553
1254.00,0.0559
1253.00,0.0564
1252.00,0.0569
1251.00,0.0574
1250.00,0.0579
1249.00,0.0584
1248.00,0.0589
1247.00,0.0594
1246.00,0.0599
1245.00,0.0604
1244.00,0.0609
1243.00,0.0613
1242.00,0.0618
1241.00,0.0623
1240.00,0.0627
1239.00,0.0632
1238.00,0.0636
1237.00,0.0639
1236.00,0.0643
1235.00,0.0646
1234.00,0.0649
1233.00,0.0651
1232.00,0.0653
1231.00,0.0654
1230.00,0.0655
1229.00,0.0655
1228.00,0.0655
1227.00,0.0655
1226.00,0.0654
1225.00,0.0652
1224.00,0.0650
1223.00,0.0648
1222.00,0.0644
1221.00,0.0641
1220.00,0.0637
1219.00,0.0633
1218.00,0.0629
1217.00,0.0624
1216.00,0.0618
1215.00,0.0613
1214.00,0.0607
1213.00,0.0600
1212.00,0.0594
1211.00,0.0587
1210.00,0.0580
1209.00,0.0574
1208.00,0.0568
1207.00,0.0562
1206.00,0.0556
1205.00,0.0551
1204.00,0.0545
1203.00,0.0540
1202.00,0.0535
1201.00,0.0530
1200.00,0.0526
1199.00,0.0522
1198.00,0.0518
1197.00,0.0515
1196.00,0.0512
1195.00,0.0509
1194.00,0.0506
1193.00,0.0503
1192.00,0.0501
1191.00,0.0499
1190.00,0.0497
1189.00,0.0495
1188.00,0.0493
1187.00,0.0492
1186.00,0.0491
1185.00,0.0491
1184.00,0.0490
1183.00,0.0490
1182.00,0.0491
1181.00,0.0492
1180.00,0.0493
1179.00,0.0495
1178.00,0.0497
1177.00,0.0500
1176.00,0.0504
1175.00,0.0508
1174.00,0.0511
1173.00,0.0514
1172.00,0.0517
1171.00,0.0519
1170.00,0.0521
1169.00,0.0521
1168.00,0.0522
1167.00,0.0522
1166.00,0.0522
1165.00,0.0523
1164.00,0.0524
1163.00,0.0525
1162.00,0.0526
1161.00,0.0527
1160.00,0.0529
1159.00,0.0529
1158.00,0.0530
1157.00,0.0530
1156.00,0.0530
1155.00,0.0529
1154.00,0.0527
1153.00,0.0525
1152.00,0.0522
1151.00,0.0518
1150.00,0.0514
1149.00,0.0509
1148.00,0.0505
1147.00,0.0500
1146.00,0.0496
1145.00,0.0491
1144.00,0.0486
1143.00,0.0482
1142.00,0.0477
1141.00,0.0474
1140.00,0.0471
1139.00,0.0468
1138.00,0.0467
1137.00,0.0465
1136.00,0.0465
1135.00,0.0465
1134.00,0.0465
1133.00,0.0466
1132.00,0.0467
1131.00,0.0469
1130.00,0.0470
1129.00,0.0472
1128.00,0.0474
1127.00,0.0476
1126.00,0.0478
1125.00,0.0480
1124.00,0.0482
1123.00,0.0483
1122.00,0.0485
1121.00,0.0486
1120.00,0.0487
1119.00,0.0489
1118.00,0.0491
1117.00,0.0492
1116.00,0.0494
1115.00,0.0495
1114.00,0.0497
1113.00,0.0498
1112.00,0.0499
1111.00,0.0500
1110.00,0.0501
1109.00,0.0502
1108.00,0.0504
1107.00,0.0505
1106.00,0.0507
1105.00,0.0509
1104.00,0.0510
1103.00,0.0512
1102.00,0.0515
1101.00,0.0517
1100.00,0.0519
1099.00,0.0522
1098.00,0.0525
1097.00,0.0528
1096.00,0.0532
1095.00,0.0536
1094.00,0.0541
1093.00,0.0546
1092.00,0.0551
1091.00,0.0558
1090.00,0.0565
1089.00,0.0572
1088.00,0.0580
1087.00,0.0588
1086.00,0.0596
1085.00,0.0604
1084.00,0.0612
1083.00,0.0620
1082.00,0.0628
1081.00,0.0635
1080.00,0.0641
1079.00,0.0646
1078.00,0.0649
1077.00,0.0652
1076.00,0.0654
1075.00,0.0655
1074.00,0.0656
1073.00,0.0656
1072.00,0.0656
1071.00,0.0656
1070.00,0.0656
1069.00,0.0656
1068.00,0.0657
1067.00,0.0658
1066.00,0.0659
1065.00,0.0661
1064.00,0.0663
1063.00,0.0666
1062.00,0.0668
1061.00,0.0670
1060.00,0.0673
1059.00,0.0675
1058.00,0.0676
1057.00,0.0677
1056.00,0.0677
1055.00,0.0677
1054.00,0.0677
1053.00,0.0676
1052.00,0.0674
1051.00,0.0673
1050.00,0.0671
1049.00,0.0669
1048.00,0.0667
1047.00,0.0664
1046.00,0.0662
1045.00,0.0660
1044.00,0.0658
1043.00,0.0656
1042.00,0.0653
1041.00,0.0650
1040.00,0.0647
1039.00,0.0643
1038.00,0.0640
1037.00,0.0638
1036.00,0.0635
1035.00,0.0633
1034.00,0.0630
1033.00,0.0628
1032.00,0.0626
1031.00,0.0625
1030.00,0.0624
1029.00,0.0622
1028.00,0.0620
1027.00,0.0617
1026.00,0.0614
1025.00,0.0610
1024.00,0.0606
1023.00,0.0602
1022.00,0.0598
1021.00,0.0593
1020.00,0.0588
1019.00,0.0582
1018.00,0.0576
1017.00,0.0570
1016.00,0.0565
1015.00,0.0559
1014.00,0.0554
1013.00,0.0548
1012.00,0.0542
1011.00,0.0536
1010.00,0.0530
1009.00,0.0524
1008.00,0.0517
1007.00,0.0511
1006.00,0.0505
1005.00,0.0500
1004.00,0.0495
1003.00,0.0489
1002.00,0.0484
1001.00,0.0479
1000.00,0.0474
999.00,0.0469
998.00,0.0463
997.00,0.0458
996.00,0.0453
995.00,0.0448
994.00,0.0442
993.00,0.0436
992.00,0.0430
991.00,0.0424
990.00,0.0419
989.00,0.0414
988.00,0.0409
987.00,0.0404
986.00,0.0400
985.00,0.0396
984.00,0.0392
983.00,0.0390
982.00,0.0387
981.00,0.0386
980.00,0.0384
979.00,0.0384
978.00,0.0384
977.00,0.0384
976.00,0.0385
975.00,0.0386
974.00,0.0387
973.00,0.0388
972.00,0.0389
971.00,0.0390
970.00,0.0391
969.00,0.0391
968.00,0.0391
967.00,0.0392
966.00,0.0393
965.00,0.0393
964.00,0.0393
963.00,0.0393
962.00,0.0393
961.00,0.0393
960.00,0.0392
959.00,0.0391
958.00,0.0390
957.00,0.0389
956.00,0.0388
955.00,0.0387
954.00,0.0386
953.00,0.0386
952.00,0.0385
951.00,0.0385
950.00,0.0385
949.00,0.0386
948.00,0.0386
947.00,0.0387
946.00,0.0387
945.00,0.0388
944.00,0.0389
943.00,0.0391
942.00,0.0393
941.00,0.0394
940.00,0.0396
939.00,0.0398
938.00,0.0399
937.00,0.0401
936.00,0.0402
935.00,0.0404
934.00,0.0405
933.00,0.0406
932.00,0.0407
931.00,0.0407
930.00,0.0407
929.00,0.0407
928.00,0.0407
927.00,0.0406
926.00,0.0406
925.00,0.0405
924.00,0.0404
923.00,0.0403
922.00,0.0402
921.00,0.0400
920.00,0.0399
919.00,0.0397
918.00,0.0395
917.00,0.0394
916.00,0.0392
915.00,0.0391
914.00,0.0389
913.00,0.0388
912.00,0.0387
911.00,0.0386
910.00,0.0385
909.00,0.0383
908.00,0.0382
907.00,0.0381
906.00,0.0379
905.00,0.0378
904.00,0.0378
903.00,0.0377
902.00,0.0376
901.00,0.0375
900.00,0.0374
899.00,0.0372
898.00,0.0372
897.00,0.0371
896.00,0.0370
895.00,0.0369
894.00,0.0368
893.00,0.0368
892.00,0.0368
891.00,0.0367
890.00,0.0367
889.00,0.0367
888.00,0.0366
887.00,0.0366
886.00,0.0365
885.00,0.0365
884.00,0.0364
883.00,0.0364
882.00,0.0364
881.00,0.0363
880.00,0.0364
879.00,0.0364
878.00,0.0363
877.00,0.0363
876.00,0.0362
875.00,0.0361
874.00,0.0361
873.00,0.0360
872.00,0.0359
871.00,0.0359
870.00,0.0358
869.00,0.0358
868.00,0.0358
867.00,0.0359
866.00,0.0360
865.00,0.0361
864.00,0.0362
863.00,0.0364
862.00,0.0366
861.00,0.0368
860.00,0.0370
859.00,0.0372
858.00,0.0374
857.00,0.0377
856.00,0.0379
855.00,0.0382
854.00,0.0385
853.00,0.0387
852.00,0.0389
851.00,0.0390
850.00,0.0390
849.00,0.0390
848.00,0.0390
847.00,0.0390
846.00,0.0390
845.00,0.0390
844.00,0.0391
843.00,0.0393
842.00,0.0395
841.00,0.0398
840.00,0.0400
839.00,0.0402
838.00,0.0405
837.00,0.0409
836.00,0.0412
835.00,0.0416
834.00,0.0420
833.00,0.0424
832.00,0.0427
831.00,0.0431
830.00,0.0434
829.00,0.0436
828.00,0.0438
827.00,0.0440
826.00,0.0441
825.00,0.0442
824.00,0.0443
823.00,0.0444
822.00,0.0445
821.00,0.0447
820.00,0.0448
819.00,0.0450
818.00,0.0452
817.00,0.0454
816.00,0.0456
815.00,0.0458
814.00,0.0460
813.00,0.0463
812.00,0.0466
811.00,0.0469
810.00,0.0472
809.00,0.0474
808.00,0.0476
807.00,0.0478
806.00,0.0480
805.00,0.0483
804.00,0.0486
803.00,0.0489
802.00,0.0492
801.00,0.0495
800.00,0.0499
799.00,0.0502
798.00,0.0506
797.00,0.0510
796.00,0.0514
795.00,0.0518
794.00,0.0523
793.00,0.0527
792.00,0.0532
791.00,0.0537
790.00,0.0543
789.00,0.0548
788.00,0.0554
787.00,0.0559
786.00,0.0565
785.00,0.0570
784.00,0.0575
783.00,0.0579
782.00,0.0582
781.00,0.0585
780.00,0.0588
779.00,0.0590
778.00,0.0592
777.00,0.0593
776.00,0.0595
775.00,0.0596
774.00,0.0597
773.00,0.0599
772.00,0.0601
771.00,0.0603
770.00,0.0605
769.00,0.0607
768.00,0.0609
767.00,0.0611
766.00,0.0612
765.00,0.0614
764.00,0.0615
763.00,0.0617
762.00,0.0619
761.00,0.0621
760.00,0.0623
759.00,0.0626
758.00,0.0629
757.00,0.0632
756.00,0.0636
755.00,0.0640
754.00,0.0645
753.00,0.0650
752.00,0.0655
751.00,0.0659
750.00,0.0663
749.00,0.0668
748.00,0.0674
747.00,0.0679
746.00,0.0684
745.00,0.0688
744.00,0.0692
743.00,0.0695
742.00,0.0699
741.00,0.0702
740.00,0.0705
739.00,0.0708
738.00,0.0711
737.00,0.0715
736.00,0.0720
735.00,0.0724
734.00,0.0729
733.00,0.0734
732.00,0.0741
731.00,0.0748
730.00,0.0756
729.00,0.0765
728.00,0.0774
727.00,0.0783
726.00,0.0791
725.00,0.0801
724.00,0.0811
723.00,0.0821
722.00,0.0831
721.00,0.0841
720.00,0.0850
719.00,0.0858
718.00,0.0867
717.00,0.0875
716.00,0.0884
715.00,0.0892
714.00,0.0899
713.00,0.0906
712.00,0.0913
711.00,0.0920
710.00,0.0928
709.00,0.0937
708.00,0.0947
707.00,0.0957
706.00,0.0967
705.00,0.0977
704.00,0.0986
703.00,0.0995
702.00,0.1004
701.00,0.1012
700.00,0.1019
699.00,0.1025
698.00,0.1028
697.00,0.1030
696.00,0.1030
695.00,0.1030
694.00,0.1028
693.00,0.1027
692.00,0.1027
691.00,0.1026
690.00,0.1026
689.00,0.1026
688.00,0.1026
687.00,0.1027
686.00,0.1027
685.00,0.1028
684.00,0.1029
683.00,0.1031
682.00,0.1032
681.00,0.1033
680.00,0.1035
679.00,0.1037
678.00,0.1039
677.00,0.1041
676.00,0.1043
675.00,0.1046
674.00,0.1048
673.00,0.1051
672.00,0.1054
671.00,0.1058
670.00,0.1060
669.00,0.1061
668.00,0.1061
667.00,0.1062
666.00,0.1065
665.00,0.1069
664.00,0.1072
663.00,0.1075
662.00,0.1076
661.00,0.1078
660.00,0.1081
659.00,0.1083
658.00,0.1085
657.00,0.1087
656.00,0.1090
655.00,0.1092
654.00,0.1094
653.00,0.1096
652.00,0.1098
651.00,0.1099
650.00,0.1100
649.00,0.1102
648.00,0.1106
647.00,0.1109
646.00,0.1111
645.00,0.1114
644.00,0.1117
643.00,0.1121
642.00,0.1125
641.00,0.1129
640.00,0.1132
639.00,0.1135
638.00,0.1138
637.00,0.1141
636.00,0.1145
635.00,0.1147
634.00,0.1150
633.00,0.1152
632.00,0.1156
631.00,0.1160
630.00,0.1164
629.00,0.1167
628.00,0.1169
627.00,0.1172
626.00,0.1174
625.00,0.1177
624.00,0.1179
623.00,0.1181
622.00,0.1183
621.00,0.1185
620.00,0.1188
619.00,0.1190
618.00,0.1191
617.00,0.1191
616.00,0.1191
615.00,0.1191
614.00,0.1192
613.00,0.1192
612.00,0.1193
611.00,0.1193
610.00,0.1192
609.00,0.1192
608.00,0.1193
607.00,0.1194
606.00,0.1196
605.00,0.1198
604.00,0.1201
603.00,0.1204
602.00,0.1206
601.00,0.1207
600.00,0.1209
599.00,0.1210
598.00,0.1210
597.00,0.1212
596.00,0.1215
595.00,0.1218
594.00,0.1222
593.00,0.1225
592.00,0.1227
591.00,0.1227
590.00,0.1228
589.00,0.1228
588.00,0.1230
587.00,0.1234
586.00,0.1237
585.00,0.1241
584.00,0.1245
583.00,0.1248
582.00,0.1251
581.00,0.1253
580.00,0.1255
579.00,0.1258
578.00,0.1261
577.00,0.1264
576.00,0.1267
575.00,0.1269
574.00,0.1271
573.00,0.1273
572.00,0.1278
571.00,0.1283
570.00,0.1287
569.00,0.1290
568.00,0.1293
567.00,0.1296
566.00,0.1298
565.00,0.1300
564.00,0.1303
563.00,0.1306
562.00,0.1308
561.00,0.1314
560.00,0.1330
559.00,0.1351
558.00,0.1366
557.00,0.1368
556.00,0.1358
555.00,0.1346
554.00,0.1342
553.00,0.1344
552.00,0.1349
551.00,0.1352
550.00,0.1355
549.00,0.1359
548.00,0.1361
547.00,0.1363
546.00,0.1365
545.00,0.1367
544.00,0.1370
543.00,0.1373
542.00,0.1375
541.00,0.1379
540.00,0.1383
539.00,0.1387
538.00,0.1389
537.00,0.1392
536.00,0.1395
535.00,0.1399
534.00,0.1403
533.00,0.1407
532.00,0.1412
531.00,0.1417
530.00,0.1420
529.00,0.1423
528.00,0.1427
527.00,0.1431
526.00,0.1434
525.00,0.1437
524.00,0.1440
523.00,0.1442
522.00,0.1443
521.00,0.1444
520.00,0.1447
519.00,0.1450
518.00,0.1454
517.00,0.1458
516.00,0.1462
515.00,0.1464
514.00,0.1464
513.00,0.1465
512.00,0.1467
511.00,0.1469
510.00,0.1470
509.00,0.1471
508.00,0.1472
507.00,0.1474
506.00,0.1475
505.00,0.1478
504.00,0.1481
503.00,0.1484
502.00,0.1485
501.00,0.1485
500.00,0.1485
499.00,0.1485
498.00,0.1486
497.00,0.1486
496.00,0.1488
495.00,0.1488
494.00,0.1488
493.00,0.1489
492.00,0.1491
491.00,0.1492
490.00,0.1492
489.00,0.1492
488.00,0.1493
487.00,0.1495
486.00,0.1493
485.00,0.1490
484.00,0.1489
483.00,0.1488
482.00,0.1488
481.00,0.1489
480.00,0.1492
479.00,0.1493
478.00,0.1492
477.00,0.1491
476.00,0.1490
475.00,0.1489
474.00,0.1487
473.00,0.1487
472.00,0.1491
471.00,0.1495
470.00,0.1497
469.00,0.1498
468.00,0.1499
467.00,0.1500
466.00,0.1498
465.00,0.1498
464.00,0.1498
463.00,0.1499
462.00,0.1499
461.00,0.1501
460.00,0.1504
459.00,0.1505
458.00,0.1500
457.00,0.1495
456.00,0.1492
455.00,0.1492
454.00,0.1491
453.00,0.1489
452.00,0.1488
451.00,0.1485
450.00,0.1481
449.00,0.1479
448.00,0.1480
447.00,0.1480
446.00,0.1476
445.00,0.1470
444.00,0.1463
443.00,0.1457
442.00,0.1451
441.00,0.1447
440.00,0.1446
439.00,0.1445
438.00,0.1442
437.00,0.1440
436.00,0.1440
435.00,0.1439
434.00,0.1435
433.00,0.1431
432.00,0.1428
431.00,0.1429
430.00,0.1431
429.00,0.1437
428.00,0.1442
427.00,0.1444
426.00,0.1442
425.00,0.1439
424.00,0.1439
423.00,0.1440
422.00,0.1441
421.00,0.1442
420.00,0.1447
419.00,0.1451
418.00,0.1452
417.00,0.1450
416.00,0.1446
415.00,0.1439
414.00,0.1428
413.00,0.1421
412.00,0.1421
411.00,0.1423
410.00,0.1421
409.00,0.1415
408.00,0.1406
407.00,0.1397
406.00,0.1392
405.00,0.1396
404.00,0.1404
403.00,0.1409
402.00,0.1408
401.00,0.1410
400.00,0.1420
