Created as New Dataset,Sample 1043 By YargerLab Date Monday, August 04 2025
cm-1,A
4000.00,0.0028
3999.00,0.0028
3998.00,0.0029
3997.00,0.0029
3996.00,0.0029
3995.00,0.0029
3994.00,0.0029
3993.00,0.0029
3992.00,0.0029
3991.00,0.0029
3990.00,0.0029
3989.00,0.0029
3988.00,0.0029
3987.00,0.0029
3986.00,0.0029
3985.00,0.0029
3984.00,0.0029
3983.00,0.0029
3982.00,0.0029
3981.00,0.0029
3980.00,0.0029
3979.00,0.0029
3978.00,0.0028
3977.00,0.0028
3976.00,0.0028
3975.00,0.0028
3974.00,0.0028
3973.00,0.0028
3972.00,0.0029
3971.00,0.0029
3970.00,0.0029
3969.00,0.0029
3968.00,0.0028
3967.00,0.0028
3966.00,0.0028
3965.00,0.0028
3964.00,0.0029
3963.00,0.0029
3962.00,0.0029
3961.00,0.0029
3960.00,0.0029
3959.00,0.0029
3958.00,0.0029
3957.00,0.0029
3956.00,0.0029
3955.00,0.0029
3954.00,0.0029
3953.00,0.0029
3952.00,0.0029
3951.00,0.0029
3950.00,0.0029
3949.00,0.0029
3948.00,0.0029
3947.00,0.0029
3946.00,0.0029
3945.00,0.0029
3944.00,0.0029
3943.00,0.0029
3942.00,0.0029
3941.00,0.0029
3940.00,0.0029
3939.00,0.0029
3938.00,0.0029
3937.00,0.0029
3936.00,0.0029
3935.00,0.0029
3934.00,0.0029
3933.00,0.0029
3932.00,0.0029
3931.00,0.0029
3930.00,0.0029
3929.00,0.0029
3928.00,0.0030
3927.00,0.0030
3926.00,0.0030
3925.00,0.0029
3924.00,0.0029
3923.00,0.0029
3922.00,0.0029
3921.00,0.0029
3920.00,0.0030
3919.00,0.0030
3918.00,0.0030
3917.00,0.0030
3916.00,0.0030
3915.00,0.0030
3914.00,0.0030
3913.00,0.0030
3912.00,0.0029
3911.00,0.0029
3910.00,0.0029
3909.00,0.0029
3908.00,0.0030
3907.00,0.0030
3906.00,0.0031
3905.00,0.0031
3904.00,0.0032
3903.00,0.0032
3902.00,0.0032
3901.00,0.0032
3900.00,0.0032
3899.00,0.0032
3898.00,0.0031
3897.00,0.0031
3896.00,0.0031
3895.00,0.0031
3894.00,0.0031
3893.00,0.0031
3892.00,0.0031
3891.00,0.0030
3890.00,0.0030
3889.00,0.0031
3888.00,0.0031
3887.00,0.0031
3886.00,0.0031
3885.00,0.0031
3884.00,0.0031
3883.00,0.0031
3882.00,0.0031
3881.00,0.0031
3880.00,0.0031
3879.00,0.0031
3878.00,0.0031
3877.00,0.0031
3876.00,0.0031
3875.00,0.0031
3874.00,0.0031
3873.00,0.0032
3872.00,0.0032
3871.00,0.0032
3870.00,0.0032
3869.00,0.0032
3868.00,0.0033
3867.00,0.0032
3866.00,0.0032
3865.00,0.0032
3864.00,0.0032
3863.00,0.0032
3862.00,0.0031
3861.00,0.0031
3860.00,0.0031
3859.00,0.0031
3858.00,0.0031
3857.00,0.0032
3856.00,0.0033
3855.00,0.0034
3854.00,0.0034
3853.00,0.0035
3852.00,0.0035
3851.00,0.0036
3850.00,0.0035
3849.00,0.0034
3848.00,0.0033
3847.00,0.0033
3846.00,0.0032
3845.00,0.0031
3844.00,0.0031
3843.00,0.0031
3842.00,0.0031
3841.00,0.0032
3840.00,0.0032
3839.00,0.0033
3838.00,0.0033
3837.00,0.0033
3836.00,0.0033
3835.00,0.0033
3834.00,0.0033
3833.00,0.0033
3832.00,0.0032
3831.00,0.0031
3830.00,0.0031
3829.00,0.0031
3828.00,0.0031
3827.00,0.0031
3826.00,0.0031
3825.00,0.0031
3824.00,0.0032
3823.00,0.0032
3822.00,0.0032
3821.00,0.0032
3820.00,0.0033
3819.00,0.0033
3818.00,0.0033
3817.00,0.0033
3816.00,0.0033
3815.00,0.0033
3814.00,0.0032
3813.00,0.0032
3812.00,0.0031
3811.00,0.0031
3810.00,0.0032
3809.00,0.0032
3808.00,0.0032
3807.00,0.0031
3806.00,0.0032
3805.00,0.0032
3804.00,0.0032
3803.00,0.0033
3802.00,0.0033
3801.00,0.0033
3800.00,0.0033
3799.00,0.0033
3798.00,0.0032
3797.00,0.0032
3796.00,0.0032
3795.00,0.0031
3794.00,0.0031
3793.00,0.0030
3792.00,0.0030
3791.00,0.0030
3790.00,0.0029
3789.00,0.0029
3788.00,0.0029
3787.00,0.0029
3786.00,0.0029
3785.00,0.0029
3784.00,0.0029
3783.00,0.0030
3782.00,0.0030
3781.00,0.0030
3780.00,0.0030
3779.00,0.0030
3778.00,0.0030
3777.00,0.0030
3776.00,0.0030
3775.00,0.0030
3774.00,0.0030
3773.00,0.0030
3772.00,0.0030
3771.00,0.0030
3770.00,0.0030
3769.00,0.0030
3768.00,0.0031
3767.00,0.0031
3766.00,0.0031
3765.00,0.0031
3764.00,0.0031
3763.00,0.0031
3762.00,0.0031
3761.00,0.0031
3760.00,0.0032
3759.00,0.0032
3758.00,0.0032
3757.00,0.0032
3756.00,0.0032
3755.00,0.0033
3754.00,0.0034
3753.00,0.0034
3752.00,0.0035
3751.00,0.0035
3750.00,0.0035
3749.00,0.0036
3748.00,0.0036
3747.00,0.0036
3746.00,0.0036
3745.00,0.0036
3744.00,0.0035
3743.00,0.0035
3742.00,0.0035
3741.00,0.0034
3740.00,0.0034
3739.00,0.0034
3738.00,0.0034
3737.00,0.0034
3736.00,0.0034
3735.00,0.0034
3734.00,0.0034
3733.00,0.0034
3732.00,0.0034
3731.00,0.0034
3730.00,0.0033
3729.00,0.0032
3728.00,0.0032
3727.00,0.0031
3726.00,0.0031
3725.00,0.0030
3724.00,0.0030
3723.00,0.0030
3722.00,0.0030
3721.00,0.0030
3720.00,0.0030
3719.00,0.0030
3718.00,0.0030
3717.00,0.0030
3716.00,0.0031
3715.00,0.0031
3714.00,0.0031
3713.00,0.0032
3712.00,0.0032
3711.00,0.0031
3710.00,0.0031
3709.00,0.0031
3708.00,0.0031
3707.00,0.0030
3706.00,0.0030
3705.00,0.0030
3704.00,0.0030
3703.00,0.0029
3702.00,0.0029
3701.00,0.0029
3700.00,0.0029
3699.00,0.0029
3698.00,0.0029
3697.00,0.0029
3696.00,0.0029
3695.00,0.0029
3694.00,0.0029
3693.00,0.0030
3692.00,0.0030
3691.00,0.0030
3690.00,0.0031
3689.00,0.0031
3688.00,0.0031
3687.00,0.0031
3686.00,0.0031
3685.00,0.0031
3684.00,0.0030
3683.00,0.0030
3682.00,0.0030
3681.00,0.0030
3680.00,0.0030
3679.00,0.0031
3678.00,0.0032
3677.00,0.0032
3676.00,0.0033
3675.00,0.0033
3674.00,0.0033
3673.00,0.0034
3672.00,0.0033
3671.00,0.0033
3670.00,0.0033
3669.00,0.0032
3668.00,0.0032
3667.00,0.0031
3666.00,0.0031
3665.00,0.0031
3664.00,0.0030
3663.00,0.0030
3662.00,0.0030
3661.00,0.0030
3660.00,0.0030
3659.00,0.0030
3658.00,0.0030
3657.00,0.0031
3656.00,0.0031
3655.00,0.0031
3654.00,0.0032
3653.00,0.0033
3652.00,0.0034
3651.00,0.0035
3650.00,0.0036
3649.00,0.0036
3648.00,0.0036
3647.00,0.0035
3646.00,0.0035
3645.00,0.0035
3644.00,0.0034
3643.00,0.0033
3642.00,0.0032
3641.00,0.0032
3640.00,0.0032
3639.00,0.0032
3638.00,0.0032
3637.00,0.0032
3636.00,0.0032
3635.00,0.0033
3634.00,0.0033
3633.00,0.0034
3632.00,0.0035
3631.00,0.0036
3630.00,0.0036
3629.00,0.0036
3628.00,0.0036
3627.00,0.0036
3626.00,0.0036
3625.00,0.0036
3624.00,0.0036
3623.00,0.0036
3622.00,0.0036
3621.00,0.0036
3620.00,0.0036
3619.00,0.0036
3618.00,0.0037
3617.00,0.0038
3616.00,0.0038
3615.00,0.0038
3614.00,0.0039
3613.00,0.0039
3612.00,0.0039
3611.00,0.0039
3610.00,0.0040
3609.00,0.0040
3608.00,0.0040
3607.00,0.0040
3606.00,0.0039
3605.00,0.0039
3604.00,0.0039
3603.00,0.0040
3602.00,0.0040
3601.00,0.0040
3600.00,0.0040
3599.00,0.0040
3598.00,0.0040
3597.00,0.0040
3596.00,0.0041
3595.00,0.0041
3594.00,0.0042
3593.00,0.0042
3592.00,0.0042
3591.00,0.0043
3590.00,0.0044
3589.00,0.0044
3588.00,0.0044
3587.00,0.0044
3586.00,0.0044
3585.00,0.0044
3584.00,0.0045
3583.00,0.0045
3582.00,0.0045
3581.00,0.0045
3580.00,0.0045
3579.00,0.0045
3578.00,0.0045
3577.00,0.0046
3576.00,0.0046
3575.00,0.0047
3574.00,0.0048
3573.00,0.0048
3572.00,0.0049
3571.00,0.0050
3570.00,0.0051
3569.00,0.0052
3568.00,0.0052
3567.00,0.0052
3566.00,0.0052
3565.00,0.0052
3564.00,0.0052
3563.00,0.0052
3562.00,0.0052
3561.00,0.0053
3560.00,0.0053
3559.00,0.0053
3558.00,0.0053
3557.00,0.0054
3556.00,0.0054
3555.00,0.0055
3554.00,0.0055
3553.00,0.0056
3552.00,0.0056
3551.00,0.0057
3550.00,0.0057
3549.00,0.0058
3548.00,0.0058
3547.00,0.0059
3546.00,0.0059
3545.00,0.0059
3544.00,0.0059
3543.00,0.0059
3542.00,0.0060
3541.00,0.0060
3540.00,0.0061
3539.00,0.0061
3538.00,0.0061
3537.00,0.0062
3536.00,0.0062
3535.00,0.0062
3534.00,0.0062
3533.00,0.0063
3532.00,0.0064
3531.00,0.0064
3530.00,0.0065
3529.00,0.0065
3528.00,0.0065
3527.00,0.0066
3526.00,0.0066
3525.00,0.0067
3524.00,0.0067
3523.00,0.0067
3522.00,0.0067
3521.00,0.0067
3520.00,0.0067
3519.00,0.0067
3518.00,0.0067
3517.00,0.0068
3516.00,0.0068
3515.00,0.0068
3514.00,0.0069
3513.00,0.0069
3512.00,0.0070
3511.00,0.0070
3510.00,0.0070
3509.00,0.0070
3508.00,0.0070
3507.00,0.0071
3506.00,0.0071
3505.00,0.0072
3504.00,0.0072
3503.00,0.0072
3502.00,0.0072
3501.00,0.0072
3500.00,0.0072
3499.00,0.0073
3498.00,0.0073
3497.00,0.0073
3496.00,0.0073
3495.00,0.0073
3494.00,0.0073
3493.00,0.0074
3492.00,0.0074
3491.00,0.0074
3490.00,0.0074
3489.00,0.0075
3488.00,0.0075
3487.00,0.0075
3486.00,0.0075
3485.00,0.0076
3484.00,0.0076
3483.00,0.0077
3482.00,0.0077
3481.00,0.0077
3480.00,0.0077
3479.00,0.0077
3478.00,0.0077
3477.00,0.0078
3476.00,0.0078
3475.00,0.0079
3474.00,0.0079
3473.00,0.0079
3472.00,0.0079
3471.00,0.0080
3470.00,0.0080
3469.00,0.0080
3468.00,0.0081
3467.00,0.0081
3466.00,0.0082
3465.00,0.0082
3464.00,0.0082
3463.00,0.0083
3462.00,0.0083
3461.00,0.0083
3460.00,0.0083
3459.00,0.0083
3458.00,0.0084
3457.00,0.0084
3456.00,0.0084
3455.00,0.0084
3454.00,0.0085
3453.00,0.0085
3452.00,0.0085
3451.00,0.0086
3450.00,0.0086
3449.00,0.0086
3448.00,0.0087
3447.00,0.0087
3446.00,0.0087
3445.00,0.0088
3444.00,0.0088
3443.00,0.0088
3442.00,0.0089
3441.00,0.0089
3440.00,0.0090
3439.00,0.0090
3438.00,0.0090
3437.00,0.0091
3436.00,0.0091
3435.00,0.0092
3434.00,0.0092
3433.00,0.0092
3432.00,0.0093
3431.00,0.0093
3430.00,0.0094
3429.00,0.0094
3428.00,0.0095
3427.00,0.0095
3426.00,0.0095
3425.00,0.0095
3424.00,0.0096
3423.00,0.0096
3422.00,0.0097
3421.00,0.0098
3420.00,0.0098
3419.00,0.0099
3418.00,0.0099
3417.00,0.0099
3416.00,0.0100
3415.00,0.0100
3414.00,0.0101
3413.00,0.0101
3412.00,0.0102
3411.00,0.0102
3410.00,0.0102
3409.00,0.0103
3408.00,0.0103
3407.00,0.0103
3406.00,0.0103
3405.00,0.0104
3404.00,0.0104
3403.00,0.0104
3402.00,0.0104
3401.00,0.0104
3400.00,0.0105
3399.00,0.0105
3398.00,0.0105
3397.00,0.0104
3396.00,0.0104
3395.00,0.0104
3394.00,0.0104
3393.00,0.0104
3392.00,0.0104
3391.00,0.0104
3390.00,0.0104
3389.00,0.0104
3388.00,0.0104
3387.00,0.0104
3386.00,0.0103
3385.00,0.0103
3384.00,0.0103
3383.00,0.0102
3382.00,0.0102
3381.00,0.0102
3380.00,0.0101
3379.00,0.0101
3378.00,0.0101
3377.00,0.0100
3376.00,0.0100
3375.00,0.0100
3374.00,0.0100
3373.00,0.0099
3372.00,0.0099
3371.00,0.0099
3370.00,0.0099
3369.00,0.0098
3368.00,0.0098
3367.00,0.0097
3366.00,0.0097
3365.00,0.0096
3364.00,0.0096
3363.00,0.0096
3362.00,0.0095
3361.00,0.0095
3360.00,0.0095
3359.00,0.0094
3358.00,0.0094
3357.00,0.0094
3356.00,0.0094
3355.00,0.0094
3354.00,0.0093
3353.00,0.0093
3352.00,0.0093
3351.00,0.0092
3350.00,0.0092
3349.00,0.0092
3348.00,0.0092
3347.00,0.0091
3346.00,0.0091
3345.00,0.0091
3344.00,0.0091
3343.00,0.0090
3342.00,0.0090
3341.00,0.0090
3340.00,0.0090
3339.00,0.0089
3338.00,0.0089
3337.00,0.0088
3336.00,0.0088
3335.00,0.0088
3334.00,0.0088
3333.00,0.0088
3332.00,0.0088
3331.00,0.0088
3330.00,0.0088
3329.00,0.0088
3328.00,0.0088
3327.00,0.0088
3326.00,0.0088
3325.00,0.0088
3324.00,0.0088
3323.00,0.0088
3322.00,0.0088
3321.00,0.0087
3320.00,0.0087
3319.00,0.0087
3318.00,0.0087
3317.00,0.0087
3316.00,0.0087
3315.00,0.0087
3314.00,0.0087
3313.00,0.0087
3312.00,0.0087
3311.00,0.0087
3310.00,0.0087
3309.00,0.0087
3308.00,0.0087
3307.00,0.0087
3306.00,0.0087
3305.00,0.0087
3304.00,0.0088
3303.00,0.0088
3302.00,0.0088
3301.00,0.0088
3300.00,0.0088
3299.00,0.0088
3298.00,0.0088
3297.00,0.0088
3296.00,0.0088
3295.00,0.0088
3294.00,0.0088
3293.00,0.0088
3292.00,0.0088
3291.00,0.0089
3290.00,0.0089
3289.00,0.0089
3288.00,0.0089
3287.00,0.0089
3286.00,0.0089
3285.00,0.0089
3284.00,0.0089
3283.00,0.0089
3282.00,0.0089
3281.00,0.0089
3280.00,0.0089
3279.00,0.0089
3278.00,0.0090
3277.00,0.0090
3276.00,0.0090
3275.00,0.0090
3274.00,0.0090
3273.00,0.0090
3272.00,0.0090
3271.00,0.0090
3270.00,0.0090
3269.00,0.0090
3268.00,0.0090
3267.00,0.0090
3266.00,0.0090
3265.00,0.0090
3264.00,0.0090
3263.00,0.0090
3262.00,0.0091
3261.00,0.0091
3260.00,0.0090
3259.00,0.0090
3258.00,0.0090
3257.00,0.0091
3256.00,0.0091
3255.00,0.0091
3254.00,0.0091
3253.00,0.0091
3252.00,0.0091
3251.00,0.0090
3250.00,0.0090
3249.00,0.0090
3248.00,0.0090
3247.00,0.0090
3246.00,0.0091
3245.00,0.0091
3244.00,0.0091
3243.00,0.0090
3242.00,0.0090
3241.00,0.0090
3240.00,0.0090
3239.00,0.0090
3238.00,0.0090
3237.00,0.0090
3236.00,0.0089
3235.00,0.0089
3234.00,0.0089
3233.00,0.0089
3232.00,0.0089
3231.00,0.0089
3230.00,0.0089
3229.00,0.0089
3228.00,0.0089
3227.00,0.0089
3226.00,0.0089
3225.00,0.0089
3224.00,0.0088
3223.00,0.0088
3222.00,0.0088
3221.00,0.0088
3220.00,0.0087
3219.00,0.0087
3218.00,0.0087
3217.00,0.0086
3216.00,0.0086
3215.00,0.0086
3214.00,0.0086
3213.00,0.0085
3212.00,0.0085
3211.00,0.0084
3210.00,0.0084
3209.00,0.0084
3208.00,0.0084
3207.00,0.0083
3206.00,0.0083
3205.00,0.0083
3204.00,0.0082
3203.00,0.0082
3202.00,0.0081
3201.00,0.0081
3200.00,0.0081
3199.00,0.0081
3198.00,0.0080
3197.00,0.0080
3196.00,0.0079
3195.00,0.0079
3194.00,0.0078
3193.00,0.0078
3192.00,0.0078
3191.00,0.0077
3190.00,0.0077
3189.00,0.0077
3188.00,0.0076
3187.00,0.0076
3186.00,0.0075
3185.00,0.0075
3184.00,0.0075
3183.00,0.0074
3182.00,0.0074
3181.00,0.0074
3180.00,0.0074
3179.00,0.0073
3178.00,0.0073
3177.00,0.0072
3176.00,0.0072
3175.00,0.0072
3174.00,0.0072
3173.00,0.0071
3172.00,0.0071
3171.00,0.0070
3170.00,0.0069
3169.00,0.0069
3168.00,0.0069
3167.00,0.0068
3166.00,0.0068
3165.00,0.0067
3164.00,0.0066
3163.00,0.0066
3162.00,0.0066
3161.00,0.0065
3160.00,0.0065
3159.00,0.0064
3158.00,0.0064
3157.00,0.0064
3156.00,0.0063
3155.00,0.0063
3154.00,0.0063
3153.00,0.0063
3152.00,0.0063
3151.00,0.0062
3150.00,0.0062
3149.00,0.0061
3148.00,0.0061
3147.00,0.0060
3146.00,0.0060
3145.00,0.0060
3144.00,0.0059
3143.00,0.0059
3142.00,0.0058
3141.00,0.0058
3140.00,0.0058
3139.00,0.0057
3138.00,0.0057
3137.00,0.0057
3136.00,0.0057
3135.00,0.0057
3134.00,0.0056
3133.00,0.0056
3132.00,0.0056
3131.00,0.0056
3130.00,0.0056
3129.00,0.0055
3128.00,0.0055
3127.00,0.0054
3126.00,0.0054
3125.00,0.0054
3124.00,0.0054
3123.00,0.0053
3122.00,0.0053
3121.00,0.0053
3120.00,0.0053
3119.00,0.0053
3118.00,0.0053
3117.00,0.0052
3116.00,0.0052
3115.00,0.0051
3114.00,0.0051
3113.00,0.0051
3112.00,0.0050
3111.00,0.0050
3110.00,0.0050
3109.00,0.0050
3108.00,0.0050
3107.00,0.0050
3106.00,0.0050
3105.00,0.0050
3104.00,0.0049
3103.00,0.0049
3102.00,0.0049
3101.00,0.0049
3100.00,0.0048
3099.00,0.0048
3098.00,0.0048
3097.00,0.0048
3096.00,0.0047
3095.00,0.0047
3094.00,0.0048
3093.00,0.0048
3092.00,0.0048
3091.00,0.0048
3090.00,0.0048
3089.00,0.0048
3088.00,0.0048
3087.00,0.0048
3086.00,0.0048
3085.00,0.0048
3084.00,0.0048
3083.00,0.0048
3082.00,0.0048
3081.00,0.0047
3080.00,0.0047
3079.00,0.0047
3078.00,0.0047
3077.00,0.0046
3076.00,0.0046
3075.00,0.0046
3074.00,0.0046
3073.00,0.0046
3072.00,0.0046
3071.00,0.0046
3070.00,0.0046
3069.00,0.0046
3068.00,0.0045
3067.00,0.0045
3066.00,0.0045
3065.00,0.0045
3064.00,0.0045
3063.00,0.0045
3062.00,0.0045
3061.00,0.0045
3060.00,0.0045
3059.00,0.0045
3058.00,0.0045
3057.00,0.0045
3056.00,0.0045
3055.00,0.0045
3054.00,0.0045
3053.00,0.0045
3052.00,0.0045
3051.00,0.0045
3050.00,0.0045
3049.00,0.0045
3048.00,0.0045
3047.00,0.0045
3046.00,0.0044
3045.00,0.0044
3044.00,0.0044
3043.00,0.0044
3042.00,0.0044
3041.00,0.0044
3040.00,0.0044
3039.00,0.0044
3038.00,0.0045
3037.00,0.0045
3036.00,0.0045
3035.00,0.0045
3034.00,0.0046
3033.00,0.0045
3032.00,0.0045
3031.00,0.0045
3030.00,0.0045
3029.00,0.0045
3028.00,0.0045
3027.00,0.0045
3026.00,0.0044
3025.00,0.0044
3024.00,0.0044
3023.00,0.0043
3022.00,0.0043
3021.00,0.0043
3020.00,0.0043
3019.00,0.0043
3018.00,0.0043
3017.00,0.0043
3016.00,0.0044
3015.00,0.0044
3014.00,0.0044
3013.00,0.0044
3012.00,0.0044
3011.00,0.0044
3010.00,0.0044
3009.00,0.0044
3008.00,0.0045
3007.00,0.0045
3006.00,0.0046
3005.00,0.0046
3004.00,0.0047
3003.00,0.0048
3002.00,0.0049
3001.00,0.0049
3000.00,0.0050
2999.00,0.0052
2998.00,0.0053
2997.00,0.0054
2996.00,0.0056
2995.00,0.0057
2994.00,0.0059
2993.00,0.0060
2992.00,0.0061
2991.00,0.0063
2990.00,0.0064
2989.00,0.0065
2988.00,0.0066
2987.00,0.0068
2986.00,0.0069
2985.00,0.0070
2984.00,0.0072
2983.00,0.0073
2982.00,0.0074
2981.00,0.0076
2980.00,0.0078
2979.00,0.0081
2978.00,0.0083
2977.00,0.0085
2976.00,0.0086
2975.00,0.0088
2974.00,0.0089
2973.00,0.0091
2972.00,0.0093
2971.00,0.0096
2970.00,0.0098
2969.00,0.0100
2968.00,0.0102
2967.00,0.0103
2966.00,0.0105
2965.00,0.0106
2964.00,0.0107
2963.00,0.0108
2962.00,0.0110
2961.00,0.0111
2960.00,0.0111
2959.00,0.0111
2958.00,0.0111
2957.00,0.0110
2956.00,0.0109
2955.00,0.0108
2954.00,0.0106
2953.00,0.0105
2952.00,0.0103
2951.00,0.0102
2950.00,0.0102
2949.00,0.0101
2948.00,0.0101
2947.00,0.0101
2946.00,0.0102
2945.00,0.0103
2944.00,0.0104
2943.00,0.0106
2942.00,0.0107
2941.00,0.0109
2940.00,0.0111
2939.00,0.0114
2938.00,0.0116
2937.00,0.0119
2936.00,0.0122
2935.00,0.0125
2934.00,0.0129
2933.00,0.0133
2932.00,0.0136
2931.00,0.0139
2930.00,0.0142
2929.00,0.0144
2928.00,0.0145
2927.00,0.0145
2926.00,0.0145
2925.00,0.0143
2924.00,0.0140
2923.00,0.0136
2922.00,0.0132
2921.00,0.0128
2920.00,0.0124
2919.00,0.0120
2918.00,0.0116
2917.00,0.0112
2916.00,0.0109
2915.00,0.0107
2914.00,0.0105
2913.00,0.0103
2912.00,0.0102
2911.00,0.0101
2910.00,0.0100
2909.00,0.0098
2908.00,0.0097
2907.00,0.0096
2906.00,0.0095
2905.00,0.0093
2904.00,0.0092
2903.00,0.0090
2902.00,0.0089
2901.00,0.0088
2900.00,0.0088
2899.00,0.0087
2898.00,0.0086
2897.00,0.0085
2896.00,0.0084
2895.00,0.0084
2894.00,0.0083
2893.00,0.0083
2892.00,0.0082
2891.00,0.0082
2890.00,0.0081
2889.00,0.0081
2888.00,0.0081
2887.00,0.0080
2886.00,0.0080
2885.00,0.0080
2884.00,0.0079
2883.00,0.0079
2882.00,0.0080
2881.00,0.0080
2880.00,0.0081
2879.00,0.0082
2878.00,0.0083
2877.00,0.0084
2876.00,0.0086
2875.00,0.0087
2874.00,0.0089
2873.00,0.0090
2872.00,0.0090
2871.00,0.0091
2870.00,0.0091
2869.00,0.0090
2868.00,0.0090
2867.00,0.0090
2866.00,0.0090
2865.00,0.0091
2864.00,0.0092
2863.00,0.0093
2862.00,0.0095
2861.00,0.0097
2860.00,0.0100
2859.00,0.0102
2858.00,0.0103
2857.00,0.0104
2856.00,0.0104
2855.00,0.0103
2854.00,0.0101
2853.00,0.0099
2852.00,0.0096
2851.00,0.0092
2850.00,0.0088
2849.00,0.0084
2848.00,0.0080
2847.00,0.0077
2846.00,0.0074
2845.00,0.0072
2844.00,0.0070
2843.00,0.0068
2842.00,0.0066
2841.00,0.0064
2840.00,0.0062
2839.00,0.0060
2838.00,0.0059
2837.00,0.0058
2836.00,0.0057
2835.00,0.0056
2834.00,0.0055
2833.00,0.0054
2832.00,0.0053
2831.00,0.0053
2830.00,0.0052
2829.00,0.0051
2828.00,0.0051
2827.00,0.0050
2826.00,0.0049
2825.00,0.0048
2824.00,0.0048
2823.00,0.0047
2822.00,0.0047
2821.00,0.0047
2820.00,0.0046
2819.00,0.0046
2818.00,0.0045
2817.00,0.0045
2816.00,0.0044
2815.00,0.0044
2814.00,0.0044
2813.00,0.0044
2812.00,0.0043
2811.00,0.0043
2810.00,0.0043
2809.00,0.0043
2808.00,0.0042
2807.00,0.0042
2806.00,0.0042
2805.00,0.0042
2804.00,0.0042
2803.00,0.0042
2802.00,0.0041
2801.00,0.0041
2800.00,0.0041
2799.00,0.0041
2798.00,0.0041
2797.00,0.0041
2796.00,0.0041
2795.00,0.0041
2794.00,0.0040
2793.00,0.0040
2792.00,0.0040
2791.00,0.0040
2790.00,0.0039
2789.00,0.0039
2788.00,0.0039
2787.00,0.0039
2786.00,0.0039
2785.00,0.0039
2784.00,0.0038
2783.00,0.0038
2782.00,0.0038
2781.00,0.0038
2780.00,0.0038
2779.00,0.0038
2778.00,0.0038
2777.00,0.0038
2776.00,0.0038
2775.00,0.0038
2774.00,0.0038
2773.00,0.0037
2772.00,0.0037
2771.00,0.0037
2770.00,0.0037
2769.00,0.0037
2768.00,0.0037
2767.00,0.0037
2766.00,0.0037
2765.00,0.0037
2764.00,0.0037
2763.00,0.0037
2762.00,0.0037
2761.00,0.0037
2760.00,0.0037
2759.00,0.0037
2758.00,0.0037
2757.00,0.0037
2756.00,0.0037
2755.00,0.0037
2754.00,0.0037
2753.00,0.0037
2752.00,0.0037
2751.00,0.0037
2750.00,0.0037
2749.00,0.0037
2748.00,0.0037
2747.00,0.0037
2746.00,0.0037
2745.00,0.0037
2744.00,0.0037
2743.00,0.0037
2742.00,0.0037
2741.00,0.0038
2740.00,0.0037
2739.00,0.0037
2738.00,0.0037
2737.00,0.0037
2736.00,0.0037
2735.00,0.0037
2734.00,0.0037
2733.00,0.0038
2732.00,0.0038
2731.00,0.0038
2730.00,0.0038
2729.00,0.0038
2728.00,0.0038
2727.00,0.0038
2726.00,0.0038
2725.00,0.0038
2724.00,0.0038
2723.00,0.0038
2722.00,0.0038
2721.00,0.0038
2720.00,0.0038
2719.00,0.0037
2718.00,0.0037
2717.00,0.0037
2716.00,0.0037
2715.00,0.0037
2714.00,0.0037
2713.00,0.0037
2712.00,0.0037
2711.00,0.0037
2710.00,0.0037
2709.00,0.0037
2708.00,0.0037
2707.00,0.0037
2706.00,0.0036
2705.00,0.0036
2704.00,0.0036
2703.00,0.0036
2702.00,0.0036
2701.00,0.0036
2700.00,0.0036
2699.00,0.0036
2698.00,0.0036
2697.00,0.0036
2696.00,0.0036
2695.00,0.0036
2694.00,0.0036
2693.00,0.0036
2692.00,0.0036
2691.00,0.0036
2690.00,0.0036
2689.00,0.0036
2688.00,0.0036
2687.00,0.0035
2686.00,0.0035
2685.00,0.0035
2684.00,0.0035
2683.00,0.0035
2682.00,0.0035
2681.00,0.0035
2680.00,0.0035
2679.00,0.0035
2678.00,0.0035
2677.00,0.0035
2676.00,0.0035
2675.00,0.0035
2674.00,0.0035
2673.00,0.0035
2672.00,0.0035
2671.00,0.0035
2670.00,0.0035
2669.00,0.0036
2668.00,0.0036
2667.00,0.0036
2666.00,0.0037
2665.00,0.0037
2664.00,0.0038
2663.00,0.0038
2662.00,0.0038
2661.00,0.0039
2660.00,0.0039
2659.00,0.0039
2658.00,0.0039
2657.00,0.0040
2656.00,0.0040
2655.00,0.0040
2654.00,0.0040
2653.00,0.0040
2652.00,0.0040
2651.00,0.0040
2650.00,0.0040
2649.00,0.0040
2648.00,0.0040
2647.00,0.0040
2646.00,0.0040
2645.00,0.0040
2644.00,0.0040
2643.00,0.0040
2642.00,0.0040
2641.00,0.0040
2640.00,0.0040
2639.00,0.0040
2638.00,0.0040
2637.00,0.0040
2636.00,0.0039
2635.00,0.0039
2634.00,0.0039
2633.00,0.0039
2632.00,0.0039
2631.00,0.0039
2630.00,0.0039
2629.00,0.0038
2628.00,0.0038
2627.00,0.0038
2626.00,0.0038
2625.00,0.0038
2624.00,0.0038
2623.00,0.0038
2622.00,0.0038
2621.00,0.0038
2620.00,0.0037
2619.00,0.0037
2618.00,0.0037
2617.00,0.0037
2616.00,0.0037
2615.00,0.0037
2614.00,0.0037
2613.00,0.0037
2612.00,0.0036
2611.00,0.0037
2610.00,0.0037
2609.00,0.0037
2608.00,0.0037
2607.00,0.0037
2606.00,0.0037
2605.00,0.0037
2604.00,0.0036
2603.00,0.0037
2602.00,0.0037
2601.00,0.0037
2600.00,0.0037
2599.00,0.0038
2598.00,0.0038
2597.00,0.0038
2596.00,0.0037
2595.00,0.0037
2594.00,0.0037
2593.00,0.0036
2592.00,0.0036
2591.00,0.0036
2590.00,0.0036
2589.00,0.0036
2588.00,0.0036
2587.00,0.0036
2586.00,0.0036
2585.00,0.0036
2584.00,0.0036
2583.00,0.0036
2582.00,0.0036
2581.00,0.0036
2580.00,0.0036
2579.00,0.0036
2578.00,0.0036
2577.00,0.0036
2576.00,0.0036
2575.00,0.0036
2574.00,0.0036
2573.00,0.0036
2572.00,0.0036
2571.00,0.0035
2570.00,0.0035
2569.00,0.0035
2568.00,0.0035
2567.00,0.0035
2566.00,0.0035
2565.00,0.0035
2564.00,0.0035
2563.00,0.0035
2562.00,0.0035
2561.00,0.0035
2560.00,0.0035
2559.00,0.0035
2558.00,0.0035
2557.00,0.0035
2556.00,0.0035
2555.00,0.0034
2554.00,0.0034
2553.00,0.0034
2552.00,0.0034
2551.00,0.0033
2550.00,0.0033
2549.00,0.0033
2548.00,0.0033
2547.00,0.0033
2546.00,0.0034
2545.00,0.0034
2544.00,0.0034
2543.00,0.0034
2542.00,0.0034
2541.00,0.0034
2540.00,0.0034
2539.00,0.0034
2538.00,0.0033
2537.00,0.0033
2536.00,0.0034
2535.00,0.0034
2534.00,0.0034
2533.00,0.0034
2532.00,0.0034
2531.00,0.0034
2530.00,0.0033
2529.00,0.0033
2528.00,0.0033
2527.00,0.0033
2526.00,0.0033
2525.00,0.0033
2524.00,0.0033
2523.00,0.0033
2522.00,0.0033
2521.00,0.0033
2520.00,0.0033
2519.00,0.0032
2518.00,0.0032
2517.00,0.0032
2516.00,0.0032
2515.00,0.0033
2514.00,0.0033
2513.00,0.0033
2512.00,0.0032
2511.00,0.0032
2510.00,0.0032
2509.00,0.0032
2508.00,0.0032
2507.00,0.0032
2506.00,0.0031
2505.00,0.0031
2504.00,0.0031
2503.00,0.0031
2502.00,0.0031
2501.00,0.0031
2500.00,0.0031
2499.00,0.0031
2498.00,0.0031
2497.00,0.0031
2496.00,0.0031
2495.00,0.0031
2494.00,0.0031
2493.00,0.0031
2492.00,0.0031
2491.00,0.0031
2490.00,0.0031
2489.00,0.0031
2488.00,0.0031
2487.00,0.0031
2486.00,0.0031
2485.00,0.0031
2484.00,0.0031
2483.00,0.0031
2482.00,0.0030
2481.00,0.0030
2480.00,0.0030
2479.00,0.0030
2478.00,0.0030
2477.00,0.0030
2476.00,0.0030
2475.00,0.0031
2474.00,0.0031
2473.00,0.0031
2472.00,0.0031
2471.00,0.0031
2470.00,0.0031
2469.00,0.0030
2468.00,0.0030
2467.00,0.0030
2466.00,0.0030
2465.00,0.0030
2464.00,0.0031
2463.00,0.0031
2462.00,0.0031
2461.00,0.0031
2460.00,0.0031
2459.00,0.0031
2458.00,0.0032
2457.00,0.0032
2456.00,0.0032
2455.00,0.0032
2454.00,0.0032
2453.00,0.0032
2452.00,0.0032
2451.00,0.0032
2450.00,0.0032
2449.00,0.0032
2448.00,0.0032
2447.00,0.0031
2446.00,0.0031
2445.00,0.0031
2444.00,0.0031
2443.00,0.0031
2442.00,0.0030
2441.00,0.0030
2440.00,0.0030
2439.00,0.0030
2438.00,0.0030
2437.00,0.0030
2436.00,0.0030
2435.00,0.0030
2434.00,0.0030
2433.00,0.0030
2432.00,0.0030
2431.00,0.0030
2430.00,0.0030
2429.00,0.0030
2428.00,0.0030
2427.00,0.0030
2426.00,0.0030
2425.00,0.0030
2424.00,0.0030
2423.00,0.0030
2422.00,0.0030
2421.00,0.0030
2420.00,0.0030
2419.00,0.0030
2418.00,0.0030
2417.00,0.0030
2416.00,0.0029
2415.00,0.0029
2414.00,0.0029
2413.00,0.0029
2412.00,0.0029
2411.00,0.0029
2410.00,0.0029
2409.00,0.0029
2408.00,0.0029
2407.00,0.0028
2406.00,0.0028
2405.00,0.0027
2404.00,0.0028
2403.00,0.0028
2402.00,0.0028
2401.00,0.0028
2400.00,0.0028
2399.00,0.0028
2398.00,0.0028
2397.00,0.0028
2396.00,0.0028
2395.00,0.0028
2394.00,0.0028
2393.00,0.0028
2392.00,0.0028
2391.00,0.0028
2390.00,0.0027
2389.00,0.0027
2388.00,0.0027
2387.00,0.0026
2386.00,0.0026
2385.00,0.0026
2384.00,0.0025
2383.00,0.0025
2382.00,0.0025
2381.00,0.0025
2380.00,0.0024
2379.00,0.0024
2378.00,0.0024
2377.00,0.0024
2376.00,0.0024
2375.00,0.0024
2374.00,0.0024
2373.00,0.0024
2372.00,0.0024
2371.00,0.0024
2370.00,0.0023
2369.00,0.0023
2368.00,0.0022
2367.00,0.0022
2366.00,0.0023
2365.00,0.0023
2364.00,0.0024
2363.00,0.0025
2362.00,0.0025
2361.00,0.0025
2360.00,0.0025
2359.00,0.0024
2358.00,0.0024
2357.00,0.0023
2356.00,0.0023
2355.00,0.0022
2354.00,0.0022
2353.00,0.0021
2352.00,0.0021
2351.00,0.0021
2350.00,0.0022
2349.00,0.0024
2348.00,0.0026
2347.00,0.0028
2346.00,0.0029
2345.00,0.0028
2344.00,0.0027
2343.00,0.0027
2342.00,0.0027
2341.00,0.0027
2340.00,0.0027
2339.00,0.0027
2338.00,0.0027
2337.00,0.0027
2336.00,0.0027
2335.00,0.0027
2334.00,0.0027
2333.00,0.0027
2332.00,0.0027
2331.00,0.0027
2330.00,0.0027
2329.00,0.0028
2328.00,0.0030
2327.00,0.0034
2326.00,0.0037
2325.00,0.0038
2324.00,0.0038
2323.00,0.0036
2322.00,0.0034
2321.00,0.0032
2320.00,0.0031
2319.00,0.0030
2318.00,0.0030
2317.00,0.0030
2316.00,0.0030
2315.00,0.0030
2314.00,0.0030
2313.00,0.0029
2312.00,0.0028
2311.00,0.0028
2310.00,0.0027
2309.00,0.0027
2308.00,0.0028
2307.00,0.0028
2306.00,0.0029
2305.00,0.0029
2304.00,0.0030
2303.00,0.0030
2302.00,0.0030
2301.00,0.0030
2300.00,0.0030
2299.00,0.0031
2298.00,0.0032
2297.00,0.0033
2296.00,0.0034
2295.00,0.0034
2294.00,0.0035
2293.00,0.0036
2292.00,0.0037
2291.00,0.0038
2290.00,0.0039
2289.00,0.0040
2288.00,0.0041
2287.00,0.0041
2286.00,0.0040
2285.00,0.0040
2284.00,0.0039
2283.00,0.0038
2282.00,0.0038
2281.00,0.0038
2280.00,0.0038
2279.00,0.0037
2278.00,0.0037
2277.00,0.0036
2276.00,0.0036
2275.00,0.0035
2274.00,0.0034
2273.00,0.0033
2272.00,0.0032
2271.00,0.0032
2270.00,0.0032
2269.00,0.0032
2268.00,0.0032
2267.00,0.0032
2266.00,0.0032
2265.00,0.0033
2264.00,0.0033
2263.00,0.0034
2262.00,0.0034
2261.00,0.0034
2260.00,0.0034
2259.00,0.0034
2258.00,0.0034
2257.00,0.0034
2256.00,0.0033
2255.00,0.0033
2254.00,0.0032
2253.00,0.0032
2252.00,0.0032
2251.00,0.0032
2250.00,0.0033
2249.00,0.0033
2248.00,0.0033
2247.00,0.0033
2246.00,0.0033
2245.00,0.0033
2244.00,0.0032
2243.00,0.0032
2242.00,0.0032
2241.00,0.0032
2240.00,0.0032
2239.00,0.0032
2238.00,0.0033
2237.00,0.0033
2236.00,0.0033
2235.00,0.0033
2234.00,0.0032
2233.00,0.0033
2232.00,0.0033
2231.00,0.0033
2230.00,0.0033
2229.00,0.0032
2228.00,0.0032
2227.00,0.0032
2226.00,0.0032
2225.00,0.0032
2224.00,0.0032
2223.00,0.0033
2222.00,0.0033
2221.00,0.0033
2220.00,0.0033
2219.00,0.0032
2218.00,0.0030
2217.00,0.0029
2216.00,0.0029
2215.00,0.0030
2214.00,0.0032
2213.00,0.0033
2212.00,0.0033
2211.00,0.0032
2210.00,0.0032
2209.00,0.0032
2208.00,0.0032
2207.00,0.0032
2206.00,0.0032
2205.00,0.0031
2204.00,0.0031
2203.00,0.0031
2202.00,0.0031
2201.00,0.0032
2200.00,0.0033
2199.00,0.0034
2198.00,0.0034
2197.00,0.0034
2196.00,0.0033
2195.00,0.0033
2194.00,0.0033
2193.00,0.0033
2192.00,0.0034
2191.00,0.0035
2190.00,0.0036
2189.00,0.0037
2188.00,0.0037
2187.00,0.0037
2186.00,0.0037
2185.00,0.0035
2184.00,0.0032
2183.00,0.0029
2182.00,0.0027
2181.00,0.0026
2180.00,0.0027
2179.00,0.0029
2178.00,0.0030
2177.00,0.0030
2176.00,0.0029
2175.00,0.0029
2174.00,0.0029
2173.00,0.0030
2172.00,0.0032
2171.00,0.0035
2170.00,0.0037
2169.00,0.0039
2168.00,0.0040
2167.00,0.0041
2166.00,0.0042
2165.00,0.0044
2164.00,0.0047
2163.00,0.0047
2162.00,0.0042
2161.00,0.0032
2160.00,0.0020
2159.00,0.0010
2158.00,0.0005
2157.00,0.0005
2156.00,0.0007
2155.00,0.0009
2154.00,0.0011
2153.00,0.0013
2152.00,0.0015
2151.00,0.0017
2150.00,0.0019
2149.00,0.0019
2148.00,0.0019
2147.00,0.0019
2146.00,0.0018
2145.00,0.0017
2144.00,0.0017
2143.00,0.0017
2142.00,0.0017
2141.00,0.0018
2140.00,0.0018
2139.00,0.0018
2138.00,0.0017
2137.00,0.0015
2136.00,0.0014
2135.00,0.0013
2134.00,0.0013
2133.00,0.0014
2132.00,0.0016
2131.00,0.0017
2130.00,0.0018
2129.00,0.0018
2128.00,0.0019
2127.00,0.0020
2126.00,0.0021
2125.00,0.0022
2124.00,0.0023
2123.00,0.0024
2122.00,0.0024
2121.00,0.0025
2120.00,0.0025
2119.00,0.0026
2118.00,0.0027
2117.00,0.0028
2116.00,0.0029
2115.00,0.0030
2114.00,0.0031
2113.00,0.0031
2112.00,0.0031
2111.00,0.0030
2110.00,0.0029
2109.00,0.0028
2108.00,0.0027
2107.00,0.0027
2106.00,0.0027
2105.00,0.0027
2104.00,0.0028
2103.00,0.0029
2102.00,0.0029
2101.00,0.0028
2100.00,0.0028
2099.00,0.0027
2098.00,0.0026
2097.00,0.0024
2096.00,0.0023
2095.00,0.0023
2094.00,0.0024
2093.00,0.0025
2092.00,0.0026
2091.00,0.0027
2090.00,0.0027
2089.00,0.0027
2088.00,0.0027
2087.00,0.0027
2086.00,0.0028
2085.00,0.0028
2084.00,0.0029
2083.00,0.0029
2082.00,0.0029
2081.00,0.0030
2080.00,0.0030
2079.00,0.0031
2078.00,0.0031
2077.00,0.0030
2076.00,0.0029
2075.00,0.0029
2074.00,0.0029
2073.00,0.0029
2072.00,0.0030
2071.00,0.0030
2070.00,0.0029
2069.00,0.0029
2068.00,0.0028
2067.00,0.0028
2066.00,0.0028
2065.00,0.0028
2064.00,0.0028
2063.00,0.0028
2062.00,0.0027
2061.00,0.0027
2060.00,0.0028
2059.00,0.0029
2058.00,0.0029
2057.00,0.0030
2056.00,0.0030
2055.00,0.0030
2054.00,0.0032
2053.00,0.0035
2052.00,0.0038
2051.00,0.0039
2050.00,0.0038
2049.00,0.0035
2048.00,0.0032
2047.00,0.0030
2046.00,0.0028
2045.00,0.0028
2044.00,0.0028
2043.00,0.0028
2042.00,0.0028
2041.00,0.0028
2040.00,0.0029
2039.00,0.0031
2038.00,0.0032
2037.00,0.0031
2036.00,0.0029
2035.00,0.0027
2034.00,0.0024
2033.00,0.0023
2032.00,0.0024
2031.00,0.0025
2030.00,0.0026
2029.00,0.0025
2028.00,0.0025
2027.00,0.0024
2026.00,0.0024
2025.00,0.0023
2024.00,0.0022
2023.00,0.0021
2022.00,0.0021
2021.00,0.0021
2020.00,0.0022
2019.00,0.0023
2018.00,0.0023
2017.00,0.0024
2016.00,0.0024
2015.00,0.0025
2014.00,0.0025
2013.00,0.0024
2012.00,0.0023
2011.00,0.0021
2010.00,0.0020
2009.00,0.0020
2008.00,0.0019
2007.00,0.0018
2006.00,0.0017
2005.00,0.0017
2004.00,0.0018
2003.00,0.0019
2002.00,0.0020
2001.00,0.0021
2000.00,0.0023
1999.00,0.0024
1998.00,0.0025
1997.00,0.0025
1996.00,0.0026
1995.00,0.0026
1994.00,0.0026
1993.00,0.0026
1992.00,0.0026
1991.00,0.0026
1990.00,0.0026
1989.00,0.0027
1988.00,0.0027
1987.00,0.0028
1986.00,0.0028
1985.00,0.0029
1984.00,0.0030
1983.00,0.0032
1982.00,0.0033
1981.00,0.0034
1980.00,0.0032
1979.00,0.0028
1978.00,0.0022
1977.00,0.0018
1976.00,0.0016
1975.00,0.0017
1974.00,0.0018
1973.00,0.0018
1972.00,0.0018
1971.00,0.0018
1970.00,0.0017
1969.00,0.0016
1968.00,0.0015
1967.00,0.0014
1966.00,0.0014
1965.00,0.0014
1964.00,0.0015
1963.00,0.0016
1962.00,0.0016
1961.00,0.0015
1960.00,0.0015
1959.00,0.0015
1958.00,0.0015
1957.00,0.0016
1956.00,0.0016
1955.00,0.0017
1954.00,0.0018
1953.00,0.0018
1952.00,0.0019
1951.00,0.0019
1950.00,0.0019
1949.00,0.0019
1948.00,0.0018
1947.00,0.0018
1946.00,0.0019
1945.00,0.0019
1944.00,0.0019
1943.00,0.0019
1942.00,0.0019
1941.00,0.0019
1940.00,0.0020
1939.00,0.0020
1938.00,0.0019
1937.00,0.0019
1936.00,0.0018
1935.00,0.0018
1934.00,0.0018
1933.00,0.0018
1932.00,0.0019
1931.00,0.0020
1930.00,0.0020
1929.00,0.0020
1928.00,0.0020
1927.00,0.0020
1926.00,0.0020
1925.00,0.0019
1924.00,0.0020
1923.00,0.0021
1922.00,0.0021
1921.00,0.0022
1920.00,0.0022
1919.00,0.0022
1918.00,0.0021
1917.00,0.0021
1916.00,0.0021
1915.00,0.0022
1914.00,0.0022
1913.00,0.0022
1912.00,0.0023
1911.00,0.0023
1910.00,0.0024
1909.00,0.0025
1908.00,0.0025
1907.00,0.0025
1906.00,0.0024
1905.00,0.0023
1904.00,0.0023
1903.00,0.0023
1902.00,0.0023
1901.00,0.0023
1900.00,0.0023
1899.00,0.0023
1898.00,0.0023
1897.00,0.0023
1896.00,0.0023
1895.00,0.0024
1894.00,0.0024
1893.00,0.0024
1892.00,0.0024
1891.00,0.0023
1890.00,0.0023
1889.00,0.0022
1888.00,0.0022
1887.00,0.0023
1886.00,0.0023
1885.00,0.0023
1884.00,0.0023
1883.00,0.0023
1882.00,0.0022
1881.00,0.0022
1880.00,0.0022
1879.00,0.0022
1878.00,0.0023
1877.00,0.0023
1876.00,0.0023
1875.00,0.0023
1874.00,0.0023
1873.00,0.0023
1872.00,0.0022
1871.00,0.0023
1870.00,0.0023
1869.00,0.0023
1868.00,0.0023
1867.00,0.0023
1866.00,0.0023
1865.00,0.0023
1864.00,0.0023
1863.00,0.0023
1862.00,0.0023
1861.00,0.0023
1860.00,0.0023
1859.00,0.0023
1858.00,0.0023
1857.00,0.0023
1856.00,0.0023
1855.00,0.0023
1854.00,0.0024
1853.00,0.0024
1852.00,0.0024
1851.00,0.0024
1850.00,0.0023
1849.00,0.0024
1848.00,0.0024
1847.00,0.0024
1846.00,0.0024
1845.00,0.0023
1844.00,0.0023
1843.00,0.0024
1842.00,0.0024
1841.00,0.0024
1840.00,0.0023
1839.00,0.0023
1838.00,0.0023
1837.00,0.0023
1836.00,0.0023
1835.00,0.0023
1834.00,0.0023
1833.00,0.0023
1832.00,0.0024
1831.00,0.0024
1830.00,0.0023
1829.00,0.0023
1828.00,0.0023
1827.00,0.0023
1826.00,0.0023
1825.00,0.0023
1824.00,0.0023
1823.00,0.0023
1822.00,0.0023
1821.00,0.0023
1820.00,0.0022
1819.00,0.0021
1818.00,0.0021
1817.00,0.0020
1816.00,0.0020
1815.00,0.0021
1814.00,0.0022
1813.00,0.0023
1812.00,0.0023
1811.00,0.0023
1810.00,0.0023
1809.00,0.0023
1808.00,0.0023
1807.00,0.0023
1806.00,0.0024
1805.00,0.0024
1804.00,0.0024
1803.00,0.0024
1802.00,0.0023
1801.00,0.0023
1800.00,0.0024
1799.00,0.0024
1798.00,0.0024
1797.00,0.0024
1796.00,0.0024
1795.00,0.0025
1794.00,0.0025
1793.00,0.0025
1792.00,0.0025
1791.00,0.0025
1790.00,0.0025
1789.00,0.0025
1788.00,0.0025
1787.00,0.0025
1786.00,0.0025
1785.00,0.0026
1784.00,0.0026
1783.00,0.0026
1782.00,0.0025
1781.00,0.0025
1780.00,0.0025
1779.00,0.0025
1778.00,0.0025
1777.00,0.0025
1776.00,0.0025
1775.00,0.0025
1774.00,0.0026
1773.00,0.0026
1772.00,0.0027
1771.00,0.0027
1770.00,0.0027
1769.00,0.0026
1768.00,0.0025
1767.00,0.0026
1766.00,0.0026
1765.00,0.0026
1764.00,0.0026
1763.00,0.0027
1762.00,0.0027
1761.00,0.0027
1760.00,0.0027
1759.00,0.0027
1758.00,0.0026
1757.00,0.0026
1756.00,0.0027
1755.00,0.0027
1754.00,0.0028
1753.00,0.0027
1752.00,0.0027
1751.00,0.0028
1750.00,0.0028
1749.00,0.0027
1748.00,0.0027
1747.00,0.0027
1746.00,0.0027
1745.00,0.0027
1744.00,0.0027
1743.00,0.0028
1742.00,0.0028
1741.00,0.0029
1740.00,0.0029
1739.00,0.0029
1738.00,0.0030
1737.00,0.0030
1736.00,0.0030
1735.00,0.0030
1734.00,0.0030
1733.00,0.0030
1732.00,0.0031
1731.00,0.0031
1730.00,0.0031
1729.00,0.0031
1728.00,0.0031
1727.00,0.0032
1726.00,0.0033
1725.00,0.0033
1724.00,0.0034
1723.00,0.0034
1722.00,0.0035
1721.00,0.0036
1720.00,0.0037
1719.00,0.0037
1718.00,0.0038
1717.00,0.0038
1716.00,0.0039
1715.00,0.0039
1714.00,0.0040
1713.00,0.0040
1712.00,0.0042
1711.00,0.0043
1710.00,0.0045
1709.00,0.0047
1708.00,0.0049
1707.00,0.0050
1706.00,0.0052
1705.00,0.0054
1704.00,0.0057
1703.00,0.0060
1702.00,0.0064
1701.00,0.0068
1700.00,0.0071
1699.00,0.0075
1698.00,0.0080
1697.00,0.0085
1696.00,0.0092
1695.00,0.0100
1694.00,0.0107
1693.00,0.0114
1692.00,0.0122
1691.00,0.0131
1690.00,0.0140
1689.00,0.0149
1688.00,0.0159
1687.00,0.0170
1686.00,0.0182
1685.00,0.0191
1684.00,0.0197
1683.00,0.0202
1682.00,0.0209
1681.00,0.0219
1680.00,0.0230
1679.00,0.0241
1678.00,0.0252
1677.00,0.0263
1676.00,0.0272
1675.00,0.0278
1674.00,0.0284
1673.00,0.0292
1672.00,0.0303
1671.00,0.0313
1670.00,0.0319
1669.00,0.0322
1668.00,0.0326
1667.00,0.0333
1666.00,0.0342
1665.00,0.0353
1664.00,0.0361
1663.00,0.0366
1662.00,0.0367
1661.00,0.0369
1660.00,0.0374
1659.00,0.0381
1658.00,0.0388
1657.00,0.0397
1656.00,0.0409
1655.00,0.0420
1654.00,0.0419
1653.00,0.0398
1652.00,0.0379
1651.00,0.0376
1650.00,0.0383
1649.00,0.0392
1648.00,0.0395
1647.00,0.0387
1646.00,0.0372
1645.00,0.0360
1644.00,0.0355
1643.00,0.0353
1642.00,0.0351
1641.00,0.0348
1640.00,0.0344
1639.00,0.0340
1638.00,0.0337
1637.00,0.0330
1636.00,0.0314
1635.00,0.0294
1634.00,0.0280
1633.00,0.0274
1632.00,0.0274
1631.00,0.0276
1630.00,0.0278
1629.00,0.0280
1628.00,0.0281
1627.00,0.0284
1626.00,0.0288
1625.00,0.0293
1624.00,0.0295
1623.00,0.0293
1622.00,0.0288
1621.00,0.0285
1620.00,0.0284
1619.00,0.0282
1618.00,0.0274
1617.00,0.0259
1616.00,0.0242
1615.00,0.0229
1614.00,0.0223
1613.00,0.0221
1612.00,0.0220
1611.00,0.0218
1610.00,0.0214
1609.00,0.0207
1608.00,0.0199
1607.00,0.0189
1606.00,0.0179
1605.00,0.0170
1604.00,0.0161
1603.00,0.0153
1602.00,0.0145
1601.00,0.0139
1600.00,0.0133
1599.00,0.0128
1598.00,0.0125
1597.00,0.0122
1596.00,0.0121
1595.00,0.0120
1594.00,0.0120
1593.00,0.0122
1592.00,0.0126
1591.00,0.0131
1590.00,0.0137
1589.00,0.0144
1588.00,0.0151
1587.00,0.0157
1586.00,0.0161
1585.00,0.0163
1584.00,0.0164
1583.00,0.0162
1582.00,0.0158
1581.00,0.0154
1580.00,0.0150
1579.00,0.0147
1578.00,0.0143
1577.00,0.0136
1576.00,0.0128
1575.00,0.0120
1574.00,0.0115
1573.00,0.0112
1572.00,0.0110
1571.00,0.0108
1570.00,0.0105
1569.00,0.0101
1568.00,0.0099
1567.00,0.0097
1566.00,0.0094
1565.00,0.0091
1564.00,0.0088
1563.00,0.0086
1562.00,0.0084
1561.00,0.0083
1560.00,0.0080
1559.00,0.0074
1558.00,0.0069
1557.00,0.0067
1556.00,0.0066
1555.00,0.0065
1554.00,0.0064
1553.00,0.0064
1552.00,0.0063
1551.00,0.0063
1550.00,0.0062
1549.00,0.0061
1548.00,0.0061
1547.00,0.0061
1546.00,0.0061
1545.00,0.0060
1544.00,0.0059
1543.00,0.0058
1542.00,0.0057
1541.00,0.0056
1540.00,0.0055
1539.00,0.0055
1538.00,0.0055
1537.00,0.0055
1536.00,0.0055
1535.00,0.0055
1534.00,0.0054
1533.00,0.0053
1532.00,0.0053
1531.00,0.0053
1530.00,0.0054
1529.00,0.0054
1528.00,0.0054
1527.00,0.0055
1526.00,0.0055
1525.00,0.0055
1524.00,0.0056
1523.00,0.0056
1522.00,0.0057
1521.00,0.0057
1520.00,0.0058
1519.00,0.0059
1518.00,0.0059
1517.00,0.0060
1516.00,0.0062
1515.00,0.0063
1514.00,0.0065
1513.00,0.0067
1512.00,0.0069
1511.00,0.0070
1510.00,0.0072
1509.00,0.0074
1508.00,0.0075
1507.00,0.0076
1506.00,0.0078
1505.00,0.0081
1504.00,0.0085
1503.00,0.0090
1502.00,0.0095
1501.00,0.0102
1500.00,0.0111
1499.00,0.0120
1498.00,0.0129
1497.00,0.0136
1496.00,0.0141
1495.00,0.0142
1494.00,0.0142
1493.00,0.0140
1492.00,0.0136
1491.00,0.0130
1490.00,0.0122
1489.00,0.0113
1488.00,0.0105
1487.00,0.0099
1486.00,0.0094
1485.00,0.0090
1484.00,0.0087
1483.00,0.0085
1482.00,0.0082
1481.00,0.0080
1480.00,0.0079
1479.00,0.0079
1478.00,0.0079
1477.00,0.0080
1476.00,0.0082
1475.00,0.0084
1474.00,0.0088
1473.00,0.0093
1472.00,0.0100
1471.00,0.0110
1470.00,0.0121
1469.00,0.0134
1468.00,0.0149
1467.00,0.0163
1466.00,0.0175
1465.00,0.0184
1464.00,0.0191
1463.00,0.0196
1462.00,0.0201
1461.00,0.0206
1460.00,0.0210
1459.00,0.0211
1458.00,0.0205
1457.00,0.0192
1456.00,0.0179
1455.00,0.0170
1454.00,0.0166
1453.00,0.0164
1452.00,0.0163
1451.00,0.0164
1450.00,0.0165
1449.00,0.0168
1448.00,0.0172
1447.00,0.0177
1446.00,0.0184
1445.00,0.0192
1444.00,0.0202
1443.00,0.0212
1442.00,0.0221
1441.00,0.0231
1440.00,0.0240
1439.00,0.0248
1438.00,0.0254
1437.00,0.0256
1436.00,0.0256
1435.00,0.0256
1434.00,0.0260
1433.00,0.0265
1432.00,0.0269
1431.00,0.0272
1430.00,0.0274
1429.00,0.0276
1428.00,0.0280
1427.00,0.0285
1426.00,0.0291
1425.00,0.0296
1424.00,0.0299
1423.00,0.0301
1422.00,0.0302
1421.00,0.0302
1420.00,0.0296
1419.00,0.0282
1418.00,0.0264
1417.00,0.0250
1416.00,0.0238
1415.00,0.0227
1414.00,0.0216
1413.00,0.0207
1412.00,0.0197
1411.00,0.0190
1410.00,0.0184
1409.00,0.0181
1408.00,0.0180
1407.00,0.0180
1406.00,0.0181
1405.00,0.0184
1404.00,0.0186
1403.00,0.0189
1402.00,0.0191
1401.00,0.0193
1400.00,0.0191
1399.00,0.0187
1398.00,0.0180
1397.00,0.0174
1396.00,0.0166
1395.00,0.0157
1394.00,0.0148
1393.00,0.0141
1392.00,0.0136
1391.00,0.0134
1390.00,0.0133
1389.00,0.0135
1388.00,0.0137
1387.00,0.0140
1386.00,0.0142
1385.00,0.0142
1384.00,0.0142
1383.00,0.0143
1382.00,0.0144
1381.00,0.0146
1380.00,0.0148
1379.00,0.0150
1378.00,0.0151
1377.00,0.0152
1376.00,0.0151
1375.00,0.0149
1374.00,0.0145
1373.00,0.0141
1372.00,0.0139
1371.00,0.0138
1370.00,0.0139
1369.00,0.0141
1368.00,0.0144
1367.00,0.0149
1366.00,0.0153
1365.00,0.0156
1364.00,0.0157
1363.00,0.0158
1362.00,0.0158
1361.00,0.0160
1360.00,0.0161
1359.00,0.0159
1358.00,0.0154
1357.00,0.0147
1356.00,0.0140
1355.00,0.0134
1354.00,0.0129
1353.00,0.0126
1352.00,0.0124
1351.00,0.0122
1350.00,0.0121
1349.00,0.0121
1348.00,0.0120
1347.00,0.0120
1346.00,0.0118
1345.00,0.0117
1344.00,0.0115
1343.00,0.0113
1342.00,0.0111
1341.00,0.0109
1340.00,0.0106
1339.00,0.0104
1338.00,0.0102
1337.00,0.0102
1336.00,0.0102
1335.00,0.0103
1334.00,0.0105
1333.00,0.0107
1332.00,0.0109
1331.00,0.0112
1330.00,0.0114
1329.00,0.0117
1328.00,0.0119
1327.00,0.0121
1326.00,0.0123
1325.00,0.0126
1324.00,0.0129
1323.00,0.0133
1322.00,0.0136
1321.00,0.0139
1320.00,0.0142
1319.00,0.0144
1318.00,0.0145
1317.00,0.0145
1316.00,0.0144
1315.00,0.0143
1314.00,0.0141
1313.00,0.0139
1312.00,0.0137
1311.00,0.0136
1310.00,0.0136
1309.00,0.0137
1308.00,0.0138
1307.00,0.0141
1306.00,0.0145
1305.00,0.0150
1304.00,0.0157
1303.00,0.0165
1302.00,0.0173
1301.00,0.0180
1300.00,0.0188
1299.00,0.0196
1298.00,0.0204
1297.00,0.0215
1296.00,0.0227
1295.00,0.0241
1294.00,0.0255
1293.00,0.0269
1292.00,0.0282
1291.00,0.0294
1290.00,0.0304
1289.00,0.0313
1288.00,0.0321
1287.00,0.0327
1286.00,0.0330
1285.00,0.0332
1284.00,0.0331
1283.00,0.0328
1282.00,0.0322
1281.00,0.0316
1280.00,0.0309
1279.00,0.0302
1278.00,0.0297
1277.00,0.0294
1276.00,0.0292
1275.00,0.0290
1274.00,0.0290
1273.00,0.0289
1272.00,0.0287
1271.00,0.0285
1270.00,0.0281
1269.00,0.0276
1268.00,0.0270
1267.00,0.0262
1266.00,0.0254
1265.00,0.0245
1264.00,0.0236
1263.00,0.0227
1262.00,0.0218
1261.00,0.0209
1260.00,0.0200
1259.00,0.0192
1258.00,0.0185
1257.00,0.0179
1256.00,0.0173
1255.00,0.0167
1254.00,0.0163
1253.00,0.0160
1252.00,0.0158
1251.00,0.0156
1250.00,0.0156
1249.00,0.0157
1248.00,0.0159
1247.00,0.0161
1246.00,0.0164
1245.00,0.0167
1244.00,0.0170
1243.00,0.0173
1242.00,0.0176
1241.00,0.0179
1240.00,0.0181
1239.00,0.0185
1238.00,0.0189
1237.00,0.0194
1236.00,0.0199
1235.00,0.0204
1234.00,0.0207
1233.00,0.0209
1232.00,0.0209
1231.00,0.0208
1230.00,0.0205
1229.00,0.0202
1228.00,0.0199
1227.00,0.0195
1226.00,0.0192
1225.00,0.0189
1224.00,0.0187
1223.00,0.0185
1222.00,0.0184
1221.00,0.0183
1220.00,0.0183
1219.00,0.0184
1218.00,0.0185
1217.00,0.0187
1216.00,0.0188
1215.00,0.0188
1214.00,0.0188
1213.00,0.0186
1212.00,0.0182
1211.00,0.0177
1210.00,0.0172
1209.00,0.0167
1208.00,0.0162
1207.00,0.0158
1206.00,0.0155
1205.00,0.0154
1204.00,0.0154
1203.00,0.0155
1202.00,0.0158
1201.00,0.0162
1200.00,0.0167
1199.00,0.0173
1198.00,0.0179
1197.00,0.0185
1196.00,0.0189
1195.00,0.0192
1194.00,0.0192
1193.00,0.0190
1192.00,0.0185
1191.00,0.0178
1190.00,0.0171
1189.00,0.0163
1188.00,0.0156
1187.00,0.0149
1186.00,0.0143
1185.00,0.0138
1184.00,0.0134
1183.00,0.0131
1182.00,0.0128
1181.00,0.0126
1180.00,0.0125
1179.00,0.0124
1178.00,0.0124
1177.00,0.0124
1176.00,0.0125
1175.00,0.0125
1174.00,0.0126
1173.00,0.0127
1172.00,0.0128
1171.00,0.0129
1170.00,0.0129
1169.00,0.0130
1168.00,0.0130
1167.00,0.0130
1166.00,0.0130
1165.00,0.0130
1164.00,0.0131
1163.00,0.0132
1162.00,0.0135
1161.00,0.0139
1160.00,0.0145
1159.00,0.0153
1158.00,0.0163
1157.00,0.0173
1156.00,0.0182
1155.00,0.0187
1154.00,0.0187
1153.00,0.0181
1152.00,0.0170
1151.00,0.0157
1150.00,0.0144
1149.00,0.0133
1148.00,0.0124
1147.00,0.0117
1146.00,0.0113
1145.00,0.0109
1144.00,0.0107
1143.00,0.0105
1142.00,0.0103
1141.00,0.0102
1140.00,0.0102
1139.00,0.0103
1138.00,0.0105
1137.00,0.0108
1136.00,0.0112
1135.00,0.0119
1134.00,0.0128
1133.00,0.0140
1132.00,0.0155
1131.00,0.0169
1130.00,0.0181
1129.00,0.0189
1128.00,0.0191
1127.00,0.0189
1126.00,0.0182
1125.00,0.0173
1124.00,0.0163
1123.00,0.0152
1122.00,0.0142
1121.00,0.0133
1120.00,0.0126
1119.00,0.0121
1118.00,0.0118
1117.00,0.0116
1116.00,0.0115
1115.00,0.0114
1114.00,0.0114
1113.00,0.0113
1112.00,0.0112
1111.00,0.0110
1110.00,0.0109
1109.00,0.0107
1108.00,0.0107
1107.00,0.0108
1106.00,0.0110
1105.00,0.0113
1104.00,0.0118
1103.00,0.0124
1102.00,0.0131
1101.00,0.0138
1100.00,0.0142
1099.00,0.0144
1098.00,0.0141
1097.00,0.0136
1096.00,0.0128
1095.00,0.0120
1094.00,0.0113
1093.00,0.0108
1092.00,0.0104
1091.00,0.0100
1090.00,0.0098
1089.00,0.0096
1088.00,0.0095
1087.00,0.0094
1086.00,0.0093
1085.00,0.0093
1084.00,0.0093
1083.00,0.0093
1082.00,0.0093
1081.00,0.0093
1080.00,0.0094
1079.00,0.0094
1078.00,0.0095
1077.00,0.0096
1076.00,0.0097
1075.00,0.0098
1074.00,0.0098
1073.00,0.0100
1072.00,0.0101
1071.00,0.0102
1070.00,0.0104
1069.00,0.0105
1068.00,0.0107
1067.00,0.0109
1066.00,0.0112
1065.00,0.0116
1064.00,0.0121
1063.00,0.0127
1062.00,0.0135
1061.00,0.0145
1060.00,0.0156
1059.00,0.0170
1058.00,0.0186
1057.00,0.0202
1056.00,0.0218
1055.00,0.0229
1054.00,0.0237
1053.00,0.0241
1052.00,0.0242
1051.00,0.0241
1050.00,0.0239
1049.00,0.0234
1048.00,0.0227
1047.00,0.0218
1046.00,0.0206
1045.00,0.0193
1044.00,0.0181
1043.00,0.0169
1042.00,0.0158
1041.00,0.0150
1040.00,0.0144
1039.00,0.0139
1038.00,0.0136
1037.00,0.0135
1036.00,0.0135
1035.00,0.0137
1034.00,0.0139
1033.00,0.0144
1032.00,0.0150
1031.00,0.0160
1030.00,0.0172
1029.00,0.0186
1028.00,0.0199
1027.00,0.0207
1026.00,0.0208
1025.00,0.0202
1024.00,0.0192
1023.00,0.0179
1022.00,0.0166
1021.00,0.0156
1020.00,0.0147
1019.00,0.0139
1018.00,0.0133
1017.00,0.0128
1016.00,0.0124
1015.00,0.0120
1014.00,0.0117
1013.00,0.0114
1012.00,0.0111
1011.00,0.0110
1010.00,0.0110
1009.00,0.0111
1008.00,0.0114
1007.00,0.0118
1006.00,0.0123
1005.00,0.0128
1004.00,0.0132
1003.00,0.0133
1002.00,0.0133
1001.00,0.0131
1000.00,0.0129
999.00,0.0126
998.00,0.0122
997.00,0.0120
996.00,0.0117
995.00,0.0115
994.00,0.0113
993.00,0.0110
992.00,0.0108
991.00,0.0105
990.00,0.0102
989.00,0.0099
988.00,0.0096
987.00,0.0094
986.00,0.0092
985.00,0.0091
984.00,0.0089
983.00,0.0088
982.00,0.0087
981.00,0.0086
980.00,0.0085
979.00,0.0085
978.00,0.0084
977.00,0.0084
976.00,0.0084
975.00,0.0084
974.00,0.0083
973.00,0.0082
972.00,0.0082
971.00,0.0081
970.00,0.0081
969.00,0.0080
968.00,0.0080
967.00,0.0079
966.00,0.0080
965.00,0.0080
964.00,0.0080
963.00,0.0081
962.00,0.0081
961.00,0.0081
960.00,0.0080
959.00,0.0078
958.00,0.0077
957.00,0.0075
956.00,0.0073
955.00,0.0072
954.00,0.0071
953.00,0.0070
952.00,0.0070
951.00,0.0070
950.00,0.0071
949.00,0.0072
948.00,0.0072
947.00,0.0072
946.00,0.0072
945.00,0.0073
944.00,0.0074
943.00,0.0075
942.00,0.0077
941.00,0.0079
940.00,0.0082
939.00,0.0085
938.00,0.0087
937.00,0.0090
936.00,0.0092
935.00,0.0094
934.00,0.0096
933.00,0.0097
932.00,0.0097
931.00,0.0096
930.00,0.0095
929.00,0.0094
928.00,0.0093
927.00,0.0092
926.00,0.0092
925.00,0.0093
924.00,0.0094
923.00,0.0095
922.00,0.0095
921.00,0.0094
920.00,0.0093
919.00,0.0090
918.00,0.0087
917.00,0.0085
916.00,0.0082
915.00,0.0080
914.00,0.0079
913.00,0.0078
912.00,0.0077
911.00,0.0077
910.00,0.0077
909.00,0.0077
908.00,0.0077
907.00,0.0078
906.00,0.0080
905.00,0.0082
904.00,0.0085
903.00,0.0089
902.00,0.0093
901.00,0.0097
900.00,0.0100
899.00,0.0101
898.00,0.0101
897.00,0.0100
896.00,0.0097
895.00,0.0095
894.00,0.0094
893.00,0.0094
892.00,0.0095
891.00,0.0098
890.00,0.0099
889.00,0.0097
888.00,0.0094
887.00,0.0089
886.00,0.0085
885.00,0.0083
884.00,0.0082
883.00,0.0081
882.00,0.0082
881.00,0.0083
880.00,0.0084
879.00,0.0086
878.00,0.0090
877.00,0.0096
876.00,0.0104
875.00,0.0112
874.00,0.0122
873.00,0.0131
872.00,0.0141
871.00,0.0148
870.00,0.0151
869.00,0.0151
868.00,0.0147
867.00,0.0141
866.00,0.0135
865.00,0.0129
864.00,0.0124
863.00,0.0119
862.00,0.0115
861.00,0.0112
860.00,0.0110
859.00,0.0109
858.00,0.0111
857.00,0.0115
856.00,0.0120
855.00,0.0126
854.00,0.0132
853.00,0.0137
852.00,0.0142
851.00,0.0148
850.00,0.0152
849.00,0.0155
848.00,0.0156
847.00,0.0154
846.00,0.0150
845.00,0.0146
844.00,0.0143
843.00,0.0140
842.00,0.0138
841.00,0.0137
840.00,0.0137
839.00,0.0138
838.00,0.0141
837.00,0.0145
836.00,0.0150
835.00,0.0154
834.00,0.0155
833.00,0.0155
832.00,0.0152
831.00,0.0148
830.00,0.0141
829.00,0.0134
828.00,0.0126
827.00,0.0120
826.00,0.0116
825.00,0.0114
824.00,0.0117
823.00,0.0124
822.00,0.0137
821.00,0.0150
820.00,0.0161
819.00,0.0167
818.00,0.0170
817.00,0.0174
816.00,0.0176
815.00,0.0172
814.00,0.0161
813.00,0.0145
812.00,0.0130
811.00,0.0118
810.00,0.0110
809.00,0.0104
808.00,0.0099
807.00,0.0095
806.00,0.0092
805.00,0.0089
804.00,0.0088
803.00,0.0086
802.00,0.0085
801.00,0.0085
800.00,0.0085
799.00,0.0086
798.00,0.0086
797.00,0.0085
796.00,0.0085
795.00,0.0085
794.00,0.0085
793.00,0.0085
792.00,0.0085
791.00,0.0085
790.00,0.0086
789.00,0.0086
788.00,0.0086
787.00,0.0087
786.00,0.0087
785.00,0.0088
784.00,0.0088
783.00,0.0088
782.00,0.0089
781.00,0.0090
780.00,0.0091
779.00,0.0093
778.00,0.0095
777.00,0.0098
776.00,0.0100
775.00,0.0103
774.00,0.0104
773.00,0.0104
772.00,0.0103
771.00,0.0101
770.00,0.0100
769.00,0.0100
768.00,0.0101
767.00,0.0101
766.00,0.0102
765.00,0.0104
764.00,0.0105
763.00,0.0107
762.00,0.0109
761.00,0.0112
760.00,0.0114
759.00,0.0116
758.00,0.0117
757.00,0.0118
756.00,0.0118
755.00,0.0119
754.00,0.0120
753.00,0.0122
752.00,0.0123
751.00,0.0124
750.00,0.0126
749.00,0.0128
748.00,0.0130
747.00,0.0131
746.00,0.0133
745.00,0.0135
744.00,0.0137
743.00,0.0139
742.00,0.0142
741.00,0.0146
740.00,0.0151
739.00,0.0156
738.00,0.0163
737.00,0.0170
736.00,0.0177
735.00,0.0181
734.00,0.0183
733.00,0.0181
732.00,0.0178
731.00,0.0175
730.00,0.0174
729.00,0.0172
728.00,0.0170
727.00,0.0167
726.00,0.0162
725.00,0.0157
724.00,0.0151
723.00,0.0146
722.00,0.0143
721.00,0.0140
720.00,0.0139
719.00,0.0140
718.00,0.0141
717.00,0.0144
716.00,0.0146
715.00,0.0147
714.00,0.0146
713.00,0.0146
712.00,0.0145
711.00,0.0144
710.00,0.0143
709.00,0.0142
708.00,0.0142
707.00,0.0142
706.00,0.0143
705.00,0.0144
704.00,0.0145
703.00,0.0146
702.00,0.0148
701.00,0.0149
700.00,0.0150
699.00,0.0152
698.00,0.0153
697.00,0.0154
696.00,0.0155
695.00,0.0155
694.00,0.0155
693.00,0.0156
692.00,0.0158
691.00,0.0160
690.00,0.0163
689.00,0.0166
688.00,0.0168
687.00,0.0169
686.00,0.0169
685.00,0.0168
684.00,0.0168
683.00,0.0169
682.00,0.0169
681.00,0.0171
680.00,0.0172
679.00,0.0174
678.00,0.0176
677.00,0.0179
676.00,0.0181
675.00,0.0185
674.00,0.0188
673.00,0.0192
672.00,0.0196
671.00,0.0199
670.00,0.0202
669.00,0.0203
668.00,0.0202
667.00,0.0201
666.00,0.0202
665.00,0.0205
664.00,0.0209
663.00,0.0213
662.00,0.0216
661.00,0.0219
660.00,0.0221
659.00,0.0222
658.00,0.0223
657.00,0.0224
656.00,0.0226
655.00,0.0228
654.00,0.0229
653.00,0.0231
652.00,0.0234
651.00,0.0236
650.00,0.0237
649.00,0.0238
648.00,0.0239
647.00,0.0238
646.00,0.0238
645.00,0.0237
644.00,0.0235
643.00,0.0233
642.00,0.0231
641.00,0.0230
640.00,0.0229
639.00,0.0228
638.00,0.0226
637.00,0.0224
636.00,0.0222
635.00,0.0220
634.00,0.0218
633.00,0.0217
632.00,0.0215
631.00,0.0214
630.00,0.0213
629.00,0.0213
628.00,0.0213
627.00,0.0214
626.00,0.0215
625.00,0.0215
624.00,0.0216
623.00,0.0218
622.00,0.0219
621.00,0.0221
620.00,0.0222
619.00,0.0222
618.00,0.0220
617.00,0.0218
616.00,0.0216
615.00,0.0213
614.00,0.0211
613.00,0.0210
612.00,0.0210
611.00,0.0210
610.00,0.0212
609.00,0.0214
608.00,0.0218
607.00,0.0222
606.00,0.0226
605.00,0.0230
604.00,0.0234
603.00,0.0236
602.00,0.0238
601.00,0.0240
600.00,0.0241
599.00,0.0242
598.00,0.0243
597.00,0.0244
596.00,0.0245
595.00,0.0246
594.00,0.0247
593.00,0.0248
592.00,0.0249
591.00,0.0250
590.00,0.0250
589.00,0.0250
588.00,0.0250
587.00,0.0252
586.00,0.0253
585.00,0.0255
584.00,0.0257
583.00,0.0260
582.00,0.0264
581.00,0.0269
580.00,0.0275
579.00,0.0280
578.00,0.0284
577.00,0.0287
576.00,0.0288
575.00,0.0287
574.00,0.0286
573.00,0.0283
572.00,0.0281
571.00,0.0278
570.00,0.0274
569.00,0.0271
568.00,0.0270
567.00,0.0270
566.00,0.0270
565.00,0.0271
564.00,0.0272
563.00,0.0273
562.00,0.0275
561.00,0.0277
560.00,0.0278
559.00,0.0278
558.00,0.0277
557.00,0.0274
556.00,0.0271
555.00,0.0269
554.00,0.0266
553.00,0.0265
552.00,0.0263
551.00,0.0263
550.00,0.0264
549.00,0.0266
548.00,0.0270
547.00,0.0272
546.00,0.0274
545.00,0.0273
544.00,0.0272
543.00,0.0269
542.00,0.0265
541.00,0.0262
540.00,0.0259
539.00,0.0256
538.00,0.0256
537.00,0.0256
536.00,0.0257
535.00,0.0259
534.00,0.0261
533.00,0.0264
532.00,0.0267
531.00,0.0267
530.00,0.0266
529.00,0.0264
528.00,0.0262
527.00,0.0261
526.00,0.0259
525.00,0.0257
524.00,0.0256
523.00,0.0255
522.00,0.0254
521.00,0.0252
520.00,0.0251
519.00,0.0250
518.00,0.0248
517.00,0.0247
516.00,0.0246
515.00,0.0246
514.00,0.0247
513.00,0.0248
512.00,0.0249
511.00,0.0249
510.00,0.0248
509.00,0.0248
508.00,0.0249
507.00,0.0251
506.00,0.0252
505.00,0.0252
504.00,0.0253
503.00,0.0253
502.00,0.0254
501.00,0.0253
500.00,0.0252
499.00,0.0251
498.00,0.0251
497.00,0.0251
496.00,0.0252
495.00,0.0253
494.00,0.0253
493.00,0.0253
492.00,0.0253
491.00,0.0253
490.00,0.0252
489.00,0.0251
488.00,0.0251
487.00,0.0252
486.00,0.0255
485.00,0.0258
484.00,0.0260
483.00,0.0260
482.00,0.0260
481.00,0.0261
480.00,0.0262
479.00,0.0262
478.00,0.0260
477.00,0.0257
476.00,0.0256
475.00,0.0257
474.00,0.0256
473.00,0.0255
472.00,0.0253
471.00,0.0251
470.00,0.0252
469.00,0.0253
468.00,0.0254
467.00,0.0254
466.00,0.0252
465.00,0.0250
464.00,0.0247
463.00,0.0246
462.00,0.0247
461.00,0.0250
460.00,0.0252
459.00,0.0252
458.00,0.0250
457.00,0.0248
456.00,0.0248
455.00,0.0247
454.00,0.0246
453.00,0.0246
452.00,0.0246
451.00,0.0245
450.00,0.0244
449.00,0.0243
448.00,0.0242
447.00,0.0241
446.00,0.0240
445.00,0.0237
444.00,0.0234
443.00,0.0230
442.00,0.0227
441.00,0.0226
440.00,0.0228
439.00,0.0231
438.00,0.0233
437.00,0.0232
436.00,0.0228
435.00,0.0223
434.00,0.0220
433.00,0.0220
432.00,0.0220
431.00,0.0220
430.00,0.0218
429.00,0.0217
428.00,0.0216
427.00,0.0217
426.00,0.0217
425.00,0.0218
424.00,0.0219
423.00,0.0218
422.00,0.0214
421.00,0.0210
420.00,0.0209
419.00,0.0210
418.00,0.0207
417.00,0.0201
416.00,0.0196
415.00,0.0195
414.00,0.0198
413.00,0.0201
412.00,0.0203
411.00,0.0204
410.00,0.0206
409.00,0.0209
408.00,0.0210
407.00,0.0210
406.00,0.0211
405.00,0.0216
404.00,0.0223
403.00,0.0226
402.00,0.0227
401.00,0.0230
400.00,0.0234
