Created as New Dataset,Sample 781 By YargerLab Date Monday, July 07 2025
cm-1,A
4000.00,0.0056
3999.00,0.0056
3998.00,0.0056
3997.00,0.0055
3996.00,0.0055
3995.00,0.0054
3994.00,0.0054
3993.00,0.0054
3992.00,0.0054
3991.00,0.0054
3990.00,0.0055
3989.00,0.0055
3988.00,0.0055
3987.00,0.0055
3986.00,0.0055
3985.00,0.0055
3984.00,0.0055
3983.00,0.0055
3982.00,0.0055
3981.00,0.0055
3980.00,0.0055
3979.00,0.0055
3978.00,0.0055
3977.00,0.0055
3976.00,0.0054
3975.00,0.0054
3974.00,0.0054
3973.00,0.0054
3972.00,0.0054
3971.00,0.0054
3970.00,0.0054
3969.00,0.0054
3968.00,0.0054
3967.00,0.0054
3966.00,0.0054
3965.00,0.0054
3964.00,0.0054
3963.00,0.0053
3962.00,0.0053
3961.00,0.0053
3960.00,0.0053
3959.00,0.0053
3958.00,0.0053
3957.00,0.0053
3956.00,0.0053
3955.00,0.0053
3954.00,0.0054
3953.00,0.0054
3952.00,0.0054
3951.00,0.0054
3950.00,0.0054
3949.00,0.0054
3948.00,0.0054
3947.00,0.0054
3946.00,0.0054
3945.00,0.0054
3944.00,0.0054
3943.00,0.0053
3942.00,0.0053
3941.00,0.0052
3940.00,0.0052
3939.00,0.0052
3938.00,0.0052
3937.00,0.0052
3936.00,0.0052
3935.00,0.0053
3934.00,0.0053
3933.00,0.0054
3932.00,0.0054
3931.00,0.0053
3930.00,0.0053
3929.00,0.0053
3928.00,0.0054
3927.00,0.0054
3926.00,0.0054
3925.00,0.0054
3924.00,0.0054
3923.00,0.0054
3922.00,0.0053
3921.00,0.0052
3920.00,0.0052
3919.00,0.0053
3918.00,0.0053
3917.00,0.0054
3916.00,0.0054
3915.00,0.0054
3914.00,0.0054
3913.00,0.0054
3912.00,0.0054
3911.00,0.0054
3910.00,0.0054
3909.00,0.0054
3908.00,0.0054
3907.00,0.0054
3906.00,0.0054
3905.00,0.0055
3904.00,0.0055
3903.00,0.0055
3902.00,0.0054
3901.00,0.0054
3900.00,0.0053
3899.00,0.0053
3898.00,0.0052
3897.00,0.0052
3896.00,0.0051
3895.00,0.0052
3894.00,0.0052
3893.00,0.0053
3892.00,0.0054
3891.00,0.0054
3890.00,0.0054
3889.00,0.0054
3888.00,0.0054
3887.00,0.0053
3886.00,0.0053
3885.00,0.0053
3884.00,0.0053
3883.00,0.0053
3882.00,0.0053
3881.00,0.0053
3880.00,0.0053
3879.00,0.0053
3878.00,0.0053
3877.00,0.0053
3876.00,0.0052
3875.00,0.0052
3874.00,0.0052
3873.00,0.0052
3872.00,0.0052
3871.00,0.0052
3870.00,0.0052
3869.00,0.0052
3868.00,0.0053
3867.00,0.0053
3866.00,0.0053
3865.00,0.0053
3864.00,0.0052
3863.00,0.0051
3862.00,0.0051
3861.00,0.0050
3860.00,0.0050
3859.00,0.0050
3858.00,0.0051
3857.00,0.0051
3856.00,0.0052
3855.00,0.0052
3854.00,0.0052
3853.00,0.0052
3852.00,0.0052
3851.00,0.0052
3850.00,0.0052
3849.00,0.0052
3848.00,0.0052
3847.00,0.0052
3846.00,0.0052
3845.00,0.0052
3844.00,0.0052
3843.00,0.0052
3842.00,0.0052
3841.00,0.0052
3840.00,0.0052
3839.00,0.0052
3838.00,0.0053
3837.00,0.0053
3836.00,0.0053
3835.00,0.0053
3834.00,0.0053
3833.00,0.0053
3832.00,0.0053
3831.00,0.0053
3830.00,0.0053
3829.00,0.0053
3828.00,0.0052
3827.00,0.0052
3826.00,0.0052
3825.00,0.0052
3824.00,0.0053
3823.00,0.0053
3822.00,0.0053
3821.00,0.0053
3820.00,0.0053
3819.00,0.0053
3818.00,0.0053
3817.00,0.0054
3816.00,0.0054
3815.00,0.0055
3814.00,0.0055
3813.00,0.0055
3812.00,0.0054
3811.00,0.0054
3810.00,0.0054
3809.00,0.0054
3808.00,0.0054
3807.00,0.0053
3806.00,0.0053
3805.00,0.0053
3804.00,0.0053
3803.00,0.0053
3802.00,0.0054
3801.00,0.0054
3800.00,0.0054
3799.00,0.0054
3798.00,0.0053
3797.00,0.0052
3796.00,0.0051
3795.00,0.0051
3794.00,0.0051
3793.00,0.0051
3792.00,0.0051
3791.00,0.0052
3790.00,0.0052
3789.00,0.0053
3788.00,0.0053
3787.00,0.0053
3786.00,0.0053
3785.00,0.0053
3784.00,0.0053
3783.00,0.0053
3782.00,0.0054
3781.00,0.0054
3780.00,0.0054
3779.00,0.0054
3778.00,0.0054
3777.00,0.0054
3776.00,0.0054
3775.00,0.0054
3774.00,0.0054
3773.00,0.0053
3772.00,0.0053
3771.00,0.0053
3770.00,0.0053
3769.00,0.0053
3768.00,0.0054
3767.00,0.0055
3766.00,0.0055
3765.00,0.0055
3764.00,0.0054
3763.00,0.0054
3762.00,0.0054
3761.00,0.0054
3760.00,0.0054
3759.00,0.0055
3758.00,0.0054
3757.00,0.0054
3756.00,0.0054
3755.00,0.0053
3754.00,0.0053
3753.00,0.0052
3752.00,0.0052
3751.00,0.0052
3750.00,0.0052
3749.00,0.0052
3748.00,0.0051
3747.00,0.0051
3746.00,0.0052
3745.00,0.0053
3744.00,0.0053
3743.00,0.0053
3742.00,0.0053
3741.00,0.0052
3740.00,0.0052
3739.00,0.0052
3738.00,0.0052
3737.00,0.0053
3736.00,0.0053
3735.00,0.0052
3734.00,0.0052
3733.00,0.0052
3732.00,0.0051
3731.00,0.0051
3730.00,0.0051
3729.00,0.0051
3728.00,0.0051
3727.00,0.0050
3726.00,0.0050
3725.00,0.0050
3724.00,0.0050
3723.00,0.0051
3722.00,0.0051
3721.00,0.0052
3720.00,0.0053
3719.00,0.0054
3718.00,0.0054
3717.00,0.0054
3716.00,0.0054
3715.00,0.0054
3714.00,0.0054
3713.00,0.0053
3712.00,0.0053
3711.00,0.0053
3710.00,0.0053
3709.00,0.0053
3708.00,0.0053
3707.00,0.0054
3706.00,0.0054
3705.00,0.0055
3704.00,0.0054
3703.00,0.0054
3702.00,0.0053
3701.00,0.0053
3700.00,0.0053
3699.00,0.0053
3698.00,0.0053
3697.00,0.0054
3696.00,0.0054
3695.00,0.0055
3694.00,0.0056
3693.00,0.0056
3692.00,0.0057
3691.00,0.0057
3690.00,0.0058
3689.00,0.0058
3688.00,0.0059
3687.00,0.0059
3686.00,0.0060
3685.00,0.0061
3684.00,0.0062
3683.00,0.0063
3682.00,0.0064
3681.00,0.0066
3680.00,0.0067
3679.00,0.0068
3678.00,0.0068
3677.00,0.0067
3676.00,0.0068
3675.00,0.0068
3674.00,0.0069
3673.00,0.0069
3672.00,0.0070
3671.00,0.0070
3670.00,0.0071
3669.00,0.0072
3668.00,0.0073
3667.00,0.0075
3666.00,0.0076
3665.00,0.0077
3664.00,0.0078
3663.00,0.0079
3662.00,0.0080
3661.00,0.0080
3660.00,0.0081
3659.00,0.0081
3658.00,0.0082
3657.00,0.0084
3656.00,0.0085
3655.00,0.0086
3654.00,0.0087
3653.00,0.0088
3652.00,0.0088
3651.00,0.0090
3650.00,0.0091
3649.00,0.0092
3648.00,0.0094
3647.00,0.0096
3646.00,0.0097
3645.00,0.0098
3644.00,0.0099
3643.00,0.0100
3642.00,0.0101
3641.00,0.0102
3640.00,0.0103
3639.00,0.0105
3638.00,0.0107
3637.00,0.0109
3636.00,0.0112
3635.00,0.0114
3634.00,0.0115
3633.00,0.0116
3632.00,0.0117
3631.00,0.0118
3630.00,0.0120
3629.00,0.0123
3628.00,0.0126
3627.00,0.0129
3626.00,0.0131
3625.00,0.0132
3624.00,0.0133
3623.00,0.0135
3622.00,0.0136
3621.00,0.0138
3620.00,0.0140
3619.00,0.0143
3618.00,0.0145
3617.00,0.0148
3616.00,0.0151
3615.00,0.0153
3614.00,0.0156
3613.00,0.0158
3612.00,0.0160
3611.00,0.0161
3610.00,0.0163
3609.00,0.0166
3608.00,0.0169
3607.00,0.0173
3606.00,0.0177
3605.00,0.0181
3604.00,0.0183
3603.00,0.0185
3602.00,0.0187
3601.00,0.0189
3600.00,0.0191
3599.00,0.0194
3598.00,0.0197
3597.00,0.0201
3596.00,0.0205
3595.00,0.0209
3594.00,0.0212
3593.00,0.0215
3592.00,0.0218
3591.00,0.0220
3590.00,0.0223
3589.00,0.0225
3588.00,0.0229
3587.00,0.0234
3586.00,0.0238
3585.00,0.0243
3584.00,0.0246
3583.00,0.0250
3582.00,0.0253
3581.00,0.0256
3580.00,0.0260
3579.00,0.0263
3578.00,0.0266
3577.00,0.0270
3576.00,0.0274
3575.00,0.0278
3574.00,0.0282
3573.00,0.0285
3572.00,0.0289
3571.00,0.0292
3570.00,0.0294
3569.00,0.0297
3568.00,0.0301
3567.00,0.0305
3566.00,0.0310
3565.00,0.0315
3564.00,0.0320
3563.00,0.0324
3562.00,0.0328
3561.00,0.0332
3560.00,0.0336
3559.00,0.0339
3558.00,0.0342
3557.00,0.0345
3556.00,0.0349
3555.00,0.0352
3554.00,0.0356
3553.00,0.0360
3552.00,0.0364
3551.00,0.0367
3550.00,0.0371
3549.00,0.0374
3548.00,0.0378
3547.00,0.0381
3546.00,0.0385
3545.00,0.0389
3544.00,0.0393
3543.00,0.0396
3542.00,0.0398
3541.00,0.0401
3540.00,0.0404
3539.00,0.0407
3538.00,0.0410
3537.00,0.0413
3536.00,0.0416
3535.00,0.0419
3534.00,0.0422
3533.00,0.0426
3532.00,0.0429
3531.00,0.0432
3530.00,0.0435
3529.00,0.0436
3528.00,0.0438
3527.00,0.0440
3526.00,0.0443
3525.00,0.0447
3524.00,0.0450
3523.00,0.0453
3522.00,0.0455
3521.00,0.0457
3520.00,0.0458
3519.00,0.0460
3518.00,0.0462
3517.00,0.0465
3516.00,0.0468
3515.00,0.0471
3514.00,0.0473
3513.00,0.0475
3512.00,0.0476
3511.00,0.0478
3510.00,0.0480
3509.00,0.0482
3508.00,0.0483
3507.00,0.0485
3506.00,0.0486
3505.00,0.0487
3504.00,0.0489
3503.00,0.0491
3502.00,0.0493
3501.00,0.0495
3500.00,0.0496
3499.00,0.0498
3498.00,0.0499
3497.00,0.0499
3496.00,0.0500
3495.00,0.0502
3494.00,0.0503
3493.00,0.0505
3492.00,0.0507
3491.00,0.0508
3490.00,0.0509
3489.00,0.0510
3488.00,0.0511
3487.00,0.0513
3486.00,0.0515
3485.00,0.0516
3484.00,0.0518
3483.00,0.0519
3482.00,0.0520
3481.00,0.0522
3480.00,0.0524
3479.00,0.0525
3478.00,0.0527
3477.00,0.0528
3476.00,0.0529
3475.00,0.0531
3474.00,0.0532
3473.00,0.0534
3472.00,0.0535
3471.00,0.0536
3470.00,0.0537
3469.00,0.0537
3468.00,0.0538
3467.00,0.0539
3466.00,0.0540
3465.00,0.0541
3464.00,0.0542
3463.00,0.0543
3462.00,0.0544
3461.00,0.0545
3460.00,0.0546
3459.00,0.0547
3458.00,0.0548
3457.00,0.0548
3456.00,0.0549
3455.00,0.0550
3454.00,0.0551
3453.00,0.0553
3452.00,0.0554
3451.00,0.0555
3450.00,0.0556
3449.00,0.0557
3448.00,0.0558
3447.00,0.0559
3446.00,0.0559
3445.00,0.0559
3444.00,0.0560
3443.00,0.0561
3442.00,0.0561
3441.00,0.0561
3440.00,0.0561
3439.00,0.0562
3438.00,0.0563
3437.00,0.0564
3436.00,0.0565
3435.00,0.0566
3434.00,0.0566
3433.00,0.0567
3432.00,0.0567
3431.00,0.0567
3430.00,0.0567
3429.00,0.0567
3428.00,0.0567
3427.00,0.0567
3426.00,0.0567
3425.00,0.0567
3424.00,0.0568
3423.00,0.0568
3422.00,0.0568
3421.00,0.0567
3420.00,0.0567
3419.00,0.0566
3418.00,0.0565
3417.00,0.0565
3416.00,0.0565
3415.00,0.0565
3414.00,0.0565
3413.00,0.0565
3412.00,0.0566
3411.00,0.0566
3410.00,0.0566
3409.00,0.0566
3408.00,0.0565
3407.00,0.0564
3406.00,0.0563
3405.00,0.0563
3404.00,0.0562
3403.00,0.0561
3402.00,0.0560
3401.00,0.0560
3400.00,0.0559
3399.00,0.0558
3398.00,0.0557
3397.00,0.0556
3396.00,0.0555
3395.00,0.0554
3394.00,0.0553
3393.00,0.0551
3392.00,0.0550
3391.00,0.0549
3390.00,0.0548
3389.00,0.0548
3388.00,0.0546
3387.00,0.0545
3386.00,0.0543
3385.00,0.0541
3384.00,0.0539
3383.00,0.0537
3382.00,0.0535
3381.00,0.0534
3380.00,0.0532
3379.00,0.0531
3378.00,0.0529
3377.00,0.0528
3376.00,0.0526
3375.00,0.0525
3374.00,0.0523
3373.00,0.0520
3372.00,0.0517
3371.00,0.0514
3370.00,0.0512
3369.00,0.0511
3368.00,0.0510
3367.00,0.0509
3366.00,0.0507
3365.00,0.0506
3364.00,0.0504
3363.00,0.0502
3362.00,0.0500
3361.00,0.0499
3360.00,0.0498
3359.00,0.0496
3358.00,0.0495
3357.00,0.0493
3356.00,0.0492
3355.00,0.0489
3354.00,0.0487
3353.00,0.0484
3352.00,0.0480
3351.00,0.0478
3350.00,0.0476
3349.00,0.0475
3348.00,0.0474
3347.00,0.0473
3346.00,0.0472
3345.00,0.0470
3344.00,0.0468
3343.00,0.0467
3342.00,0.0466
3341.00,0.0464
3340.00,0.0461
3339.00,0.0459
3338.00,0.0458
3337.00,0.0457
3336.00,0.0456
3335.00,0.0456
3334.00,0.0455
3333.00,0.0454
3332.00,0.0453
3331.00,0.0452
3330.00,0.0450
3329.00,0.0449
3328.00,0.0447
3327.00,0.0445
3326.00,0.0443
3325.00,0.0442
3324.00,0.0441
3323.00,0.0441
3322.00,0.0440
3321.00,0.0440
3320.00,0.0439
3319.00,0.0439
3318.00,0.0438
3317.00,0.0438
3316.00,0.0438
3315.00,0.0437
3314.00,0.0435
3313.00,0.0433
3312.00,0.0430
3311.00,0.0427
3310.00,0.0424
3309.00,0.0422
3308.00,0.0420
3307.00,0.0419
3306.00,0.0419
3305.00,0.0419
3304.00,0.0421
3303.00,0.0422
3302.00,0.0424
3301.00,0.0425
3300.00,0.0424
3299.00,0.0423
3298.00,0.0421
3297.00,0.0418
3296.00,0.0416
3295.00,0.0414
3294.00,0.0412
3293.00,0.0411
3292.00,0.0411
3291.00,0.0412
3290.00,0.0413
3289.00,0.0414
3288.00,0.0415
3287.00,0.0414
3286.00,0.0413
3285.00,0.0412
3284.00,0.0410
3283.00,0.0409
3282.00,0.0407
3281.00,0.0406
3280.00,0.0405
3279.00,0.0403
3278.00,0.0401
3277.00,0.0398
3276.00,0.0396
3275.00,0.0394
3274.00,0.0392
3273.00,0.0390
3272.00,0.0388
3271.00,0.0387
3270.00,0.0386
3269.00,0.0386
3268.00,0.0387
3267.00,0.0387
3266.00,0.0386
3265.00,0.0384
3264.00,0.0381
3263.00,0.0379
3262.00,0.0377
3261.00,0.0375
3260.00,0.0373
3259.00,0.0372
3258.00,0.0370
3257.00,0.0368
3256.00,0.0367
3255.00,0.0365
3254.00,0.0363
3253.00,0.0361
3252.00,0.0359
3251.00,0.0356
3250.00,0.0353
3249.00,0.0351
3248.00,0.0348
3247.00,0.0345
3246.00,0.0343
3245.00,0.0342
3244.00,0.0340
3243.00,0.0339
3242.00,0.0338
3241.00,0.0337
3240.00,0.0335
3239.00,0.0334
3238.00,0.0332
3237.00,0.0330
3236.00,0.0328
3235.00,0.0325
3234.00,0.0322
3233.00,0.0320
3232.00,0.0318
3231.00,0.0316
3230.00,0.0314
3229.00,0.0312
3228.00,0.0310
3227.00,0.0308
3226.00,0.0306
3225.00,0.0305
3224.00,0.0303
3223.00,0.0300
3222.00,0.0298
3221.00,0.0295
3220.00,0.0293
3219.00,0.0291
3218.00,0.0289
3217.00,0.0287
3216.00,0.0285
3215.00,0.0283
3214.00,0.0281
3213.00,0.0279
3212.00,0.0277
3211.00,0.0276
3210.00,0.0274
3209.00,0.0272
3208.00,0.0270
3207.00,0.0268
3206.00,0.0266
3205.00,0.0265
3204.00,0.0263
3203.00,0.0262
3202.00,0.0260
3201.00,0.0258
3200.00,0.0256
3199.00,0.0254
3198.00,0.0252
3197.00,0.0250
3196.00,0.0249
3195.00,0.0248
3194.00,0.0246
3193.00,0.0244
3192.00,0.0242
3191.00,0.0240
3190.00,0.0238
3189.00,0.0236
3188.00,0.0234
3187.00,0.0233
3186.00,0.0232
3185.00,0.0231
3184.00,0.0229
3183.00,0.0227
3182.00,0.0225
3181.00,0.0224
3180.00,0.0222
3179.00,0.0221
3178.00,0.0219
3177.00,0.0217
3176.00,0.0216
3175.00,0.0215
3174.00,0.0213
3173.00,0.0212
3172.00,0.0211
3171.00,0.0209
3170.00,0.0207
3169.00,0.0206
3168.00,0.0205
3167.00,0.0204
3166.00,0.0203
3165.00,0.0201
3164.00,0.0200
3163.00,0.0199
3162.00,0.0198
3161.00,0.0197
3160.00,0.0196
3159.00,0.0194
3158.00,0.0193
3157.00,0.0192
3156.00,0.0191
3155.00,0.0189
3154.00,0.0188
3153.00,0.0187
3152.00,0.0186
3151.00,0.0185
3150.00,0.0183
3149.00,0.0182
3148.00,0.0181
3147.00,0.0181
3146.00,0.0180
3145.00,0.0179
3144.00,0.0179
3143.00,0.0178
3142.00,0.0176
3141.00,0.0174
3140.00,0.0173
3139.00,0.0171
3138.00,0.0170
3137.00,0.0170
3136.00,0.0170
3135.00,0.0169
3134.00,0.0168
3133.00,0.0167
3132.00,0.0165
3131.00,0.0165
3130.00,0.0164
3129.00,0.0164
3128.00,0.0164
3127.00,0.0163
3126.00,0.0162
3125.00,0.0160
3124.00,0.0159
3123.00,0.0158
3122.00,0.0158
3121.00,0.0157
3120.00,0.0157
3119.00,0.0157
3118.00,0.0156
3117.00,0.0156
3116.00,0.0155
3115.00,0.0154
3114.00,0.0153
3113.00,0.0152
3112.00,0.0151
3111.00,0.0150
3110.00,0.0149
3109.00,0.0148
3108.00,0.0148
3107.00,0.0147
3106.00,0.0146
3105.00,0.0145
3104.00,0.0144
3103.00,0.0144
3102.00,0.0144
3101.00,0.0144
3100.00,0.0144
3099.00,0.0143
3098.00,0.0143
3097.00,0.0142
3096.00,0.0142
3095.00,0.0141
3094.00,0.0141
3093.00,0.0140
3092.00,0.0140
3091.00,0.0139
3090.00,0.0138
3089.00,0.0137
3088.00,0.0136
3087.00,0.0135
3086.00,0.0134
3085.00,0.0133
3084.00,0.0133
3083.00,0.0133
3082.00,0.0132
3081.00,0.0132
3080.00,0.0132
3079.00,0.0131
3078.00,0.0131
3077.00,0.0130
3076.00,0.0130
3075.00,0.0129
3074.00,0.0128
3073.00,0.0128
3072.00,0.0127
3071.00,0.0127
3070.00,0.0126
3069.00,0.0126
3068.00,0.0126
3067.00,0.0126
3066.00,0.0126
3065.00,0.0126
3064.00,0.0125
3063.00,0.0125
3062.00,0.0124
3061.00,0.0124
3060.00,0.0123
3059.00,0.0123
3058.00,0.0123
3057.00,0.0122
3056.00,0.0122
3055.00,0.0122
3054.00,0.0121
3053.00,0.0121
3052.00,0.0120
3051.00,0.0120
3050.00,0.0120
3049.00,0.0119
3048.00,0.0119
3047.00,0.0119
3046.00,0.0118
3045.00,0.0118
3044.00,0.0118
3043.00,0.0118
3042.00,0.0118
3041.00,0.0118
3040.00,0.0119
3039.00,0.0119
3038.00,0.0119
3037.00,0.0118
3036.00,0.0117
3035.00,0.0117
3034.00,0.0117
3033.00,0.0117
3032.00,0.0118
3031.00,0.0119
3030.00,0.0120
3029.00,0.0120
3028.00,0.0120
3027.00,0.0119
3026.00,0.0119
3025.00,0.0119
3024.00,0.0120
3023.00,0.0121
3022.00,0.0122
3021.00,0.0124
3020.00,0.0126
3019.00,0.0128
3018.00,0.0131
3017.00,0.0131
3016.00,0.0130
3015.00,0.0129
3014.00,0.0130
3013.00,0.0133
3012.00,0.0137
3011.00,0.0141
3010.00,0.0145
3009.00,0.0148
3008.00,0.0151
3007.00,0.0155
3006.00,0.0160
3005.00,0.0165
3004.00,0.0170
3003.00,0.0174
3002.00,0.0179
3001.00,0.0185
3000.00,0.0190
2999.00,0.0196
2998.00,0.0203
2997.00,0.0211
2996.00,0.0218
2995.00,0.0226
2994.00,0.0234
2993.00,0.0242
2992.00,0.0249
2991.00,0.0257
2990.00,0.0264
2989.00,0.0271
2988.00,0.0277
2987.00,0.0283
2986.00,0.0289
2985.00,0.0295
2984.00,0.0301
2983.00,0.0307
2982.00,0.0312
2981.00,0.0318
2980.00,0.0323
2979.00,0.0329
2978.00,0.0334
2977.00,0.0340
2976.00,0.0345
2975.00,0.0349
2974.00,0.0354
2973.00,0.0360
2972.00,0.0365
2971.00,0.0370
2970.00,0.0376
2969.00,0.0381
2968.00,0.0387
2967.00,0.0393
2966.00,0.0399
2965.00,0.0404
2964.00,0.0409
2963.00,0.0413
2962.00,0.0417
2961.00,0.0420
2960.00,0.0424
2959.00,0.0427
2958.00,0.0431
2957.00,0.0434
2956.00,0.0436
2955.00,0.0438
2954.00,0.0439
2953.00,0.0439
2952.00,0.0439
2951.00,0.0438
2950.00,0.0436
2949.00,0.0434
2948.00,0.0431
2947.00,0.0428
2946.00,0.0425
2945.00,0.0421
2944.00,0.0417
2943.00,0.0413
2942.00,0.0410
2941.00,0.0407
2940.00,0.0404
2939.00,0.0402
2938.00,0.0400
2937.00,0.0398
2936.00,0.0396
2935.00,0.0396
2934.00,0.0395
2933.00,0.0396
2932.00,0.0396
2931.00,0.0397
2930.00,0.0398
2929.00,0.0400
2928.00,0.0403
2927.00,0.0406
2926.00,0.0408
2925.00,0.0410
2924.00,0.0411
2923.00,0.0411
2922.00,0.0410
2921.00,0.0409
2920.00,0.0407
2919.00,0.0404
2918.00,0.0401
2917.00,0.0397
2916.00,0.0393
2915.00,0.0389
2914.00,0.0384
2913.00,0.0378
2912.00,0.0372
2911.00,0.0367
2910.00,0.0362
2909.00,0.0358
2908.00,0.0354
2907.00,0.0351
2906.00,0.0349
2905.00,0.0347
2904.00,0.0346
2903.00,0.0345
2902.00,0.0344
2901.00,0.0343
2900.00,0.0344
2899.00,0.0345
2898.00,0.0346
2897.00,0.0348
2896.00,0.0349
2895.00,0.0351
2894.00,0.0351
2893.00,0.0351
2892.00,0.0351
2891.00,0.0351
2890.00,0.0351
2889.00,0.0351
2888.00,0.0352
2887.00,0.0353
2886.00,0.0352
2885.00,0.0351
2884.00,0.0351
2883.00,0.0351
2882.00,0.0350
2881.00,0.0349
2880.00,0.0347
2879.00,0.0346
2878.00,0.0345
2877.00,0.0343
2876.00,0.0341
2875.00,0.0338
2874.00,0.0335
2873.00,0.0334
2872.00,0.0332
2871.00,0.0331
2870.00,0.0330
2869.00,0.0328
2868.00,0.0326
2867.00,0.0324
2866.00,0.0321
2865.00,0.0318
2864.00,0.0315
2863.00,0.0312
2862.00,0.0308
2861.00,0.0304
2860.00,0.0300
2859.00,0.0296
2858.00,0.0292
2857.00,0.0288
2856.00,0.0283
2855.00,0.0278
2854.00,0.0272
2853.00,0.0266
2852.00,0.0259
2851.00,0.0252
2850.00,0.0245
2849.00,0.0238
2848.00,0.0232
2847.00,0.0226
2846.00,0.0220
2845.00,0.0214
2844.00,0.0209
2843.00,0.0205
2842.00,0.0200
2841.00,0.0195
2840.00,0.0190
2839.00,0.0186
2838.00,0.0182
2837.00,0.0179
2836.00,0.0177
2835.00,0.0174
2834.00,0.0172
2833.00,0.0170
2832.00,0.0167
2831.00,0.0165
2830.00,0.0162
2829.00,0.0159
2828.00,0.0156
2827.00,0.0153
2826.00,0.0149
2825.00,0.0146
2824.00,0.0143
2823.00,0.0141
2822.00,0.0138
2821.00,0.0136
2820.00,0.0134
2819.00,0.0132
2818.00,0.0131
2817.00,0.0129
2816.00,0.0127
2815.00,0.0126
2814.00,0.0124
2813.00,0.0123
2812.00,0.0122
2811.00,0.0122
2810.00,0.0121
2809.00,0.0120
2808.00,0.0119
2807.00,0.0118
2806.00,0.0117
2805.00,0.0116
2804.00,0.0116
2803.00,0.0115
2802.00,0.0114
2801.00,0.0113
2800.00,0.0113
2799.00,0.0112
2798.00,0.0111
2797.00,0.0110
2796.00,0.0109
2795.00,0.0108
2794.00,0.0108
2793.00,0.0108
2792.00,0.0108
2791.00,0.0107
2790.00,0.0107
2789.00,0.0106
2788.00,0.0106
2787.00,0.0105
2786.00,0.0104
2785.00,0.0104
2784.00,0.0103
2783.00,0.0103
2782.00,0.0103
2781.00,0.0103
2780.00,0.0103
2779.00,0.0103
2778.00,0.0103
2777.00,0.0102
2776.00,0.0101
2775.00,0.0101
2774.00,0.0100
2773.00,0.0100
2772.00,0.0100
2771.00,0.0099
2770.00,0.0099
2769.00,0.0099
2768.00,0.0099
2767.00,0.0099
2766.00,0.0099
2765.00,0.0099
2764.00,0.0099
2763.00,0.0098
2762.00,0.0098
2761.00,0.0098
2760.00,0.0099
2759.00,0.0099
2758.00,0.0099
2757.00,0.0098
2756.00,0.0098
2755.00,0.0097
2754.00,0.0097
2753.00,0.0097
2752.00,0.0097
2751.00,0.0097
2750.00,0.0097
2749.00,0.0097
2748.00,0.0096
2747.00,0.0096
2746.00,0.0096
2745.00,0.0097
2744.00,0.0097
2743.00,0.0097
2742.00,0.0097
2741.00,0.0096
2740.00,0.0096
2739.00,0.0096
2738.00,0.0096
2737.00,0.0096
2736.00,0.0095
2735.00,0.0095
2734.00,0.0095
2733.00,0.0095
2732.00,0.0095
2731.00,0.0095
2730.00,0.0094
2729.00,0.0094
2728.00,0.0094
2727.00,0.0094
2726.00,0.0094
2725.00,0.0094
2724.00,0.0093
2723.00,0.0093
2722.00,0.0093
2721.00,0.0093
2720.00,0.0093
2719.00,0.0093
2718.00,0.0093
2717.00,0.0093
2716.00,0.0093
2715.00,0.0092
2714.00,0.0092
2713.00,0.0091
2712.00,0.0091
2711.00,0.0091
2710.00,0.0091
2709.00,0.0091
2708.00,0.0091
2707.00,0.0091
2706.00,0.0092
2705.00,0.0092
2704.00,0.0092
2703.00,0.0092
2702.00,0.0092
2701.00,0.0091
2700.00,0.0090
2699.00,0.0089
2698.00,0.0089
2697.00,0.0090
2696.00,0.0090
2695.00,0.0090
2694.00,0.0090
2693.00,0.0089
2692.00,0.0089
2691.00,0.0088
2690.00,0.0088
2689.00,0.0088
2688.00,0.0089
2687.00,0.0089
2686.00,0.0088
2685.00,0.0088
2684.00,0.0089
2683.00,0.0089
2682.00,0.0089
2681.00,0.0089
2680.00,0.0088
2679.00,0.0088
2678.00,0.0089
2677.00,0.0089
2676.00,0.0089
2675.00,0.0088
2674.00,0.0088
2673.00,0.0087
2672.00,0.0087
2671.00,0.0087
2670.00,0.0087
2669.00,0.0088
2668.00,0.0089
2667.00,0.0089
2666.00,0.0089
2665.00,0.0089
2664.00,0.0089
2663.00,0.0089
2662.00,0.0090
2661.00,0.0091
2660.00,0.0092
2659.00,0.0092
2658.00,0.0093
2657.00,0.0093
2656.00,0.0092
2655.00,0.0092
2654.00,0.0092
2653.00,0.0092
2652.00,0.0092
2651.00,0.0092
2650.00,0.0092
2649.00,0.0092
2648.00,0.0092
2647.00,0.0091
2646.00,0.0091
2645.00,0.0090
2644.00,0.0090
2643.00,0.0089
2642.00,0.0090
2641.00,0.0091
2640.00,0.0092
2639.00,0.0092
2638.00,0.0092
2637.00,0.0091
2636.00,0.0091
2635.00,0.0090
2634.00,0.0090
2633.00,0.0089
2632.00,0.0089
2631.00,0.0089
2630.00,0.0090
2629.00,0.0090
2628.00,0.0090
2627.00,0.0090
2626.00,0.0090
2625.00,0.0089
2624.00,0.0089
2623.00,0.0089
2622.00,0.0089
2621.00,0.0088
2620.00,0.0089
2619.00,0.0089
2618.00,0.0088
2617.00,0.0088
2616.00,0.0087
2615.00,0.0087
2614.00,0.0087
2613.00,0.0086
2612.00,0.0087
2611.00,0.0087
2610.00,0.0087
2609.00,0.0088
2608.00,0.0088
2607.00,0.0088
2606.00,0.0088
2605.00,0.0088
2604.00,0.0088
2603.00,0.0087
2602.00,0.0087
2601.00,0.0086
2600.00,0.0086
2599.00,0.0086
2598.00,0.0086
2597.00,0.0086
2596.00,0.0085
2595.00,0.0085
2594.00,0.0085
2593.00,0.0086
2592.00,0.0086
2591.00,0.0086
2590.00,0.0087
2589.00,0.0087
2588.00,0.0087
2587.00,0.0088
2586.00,0.0088
2585.00,0.0088
2584.00,0.0088
2583.00,0.0088
2582.00,0.0088
2581.00,0.0088
2580.00,0.0088
2579.00,0.0088
2578.00,0.0087
2577.00,0.0086
2576.00,0.0085
2575.00,0.0085
2574.00,0.0085
2573.00,0.0086
2572.00,0.0086
2571.00,0.0087
2570.00,0.0087
2569.00,0.0087
2568.00,0.0086
2567.00,0.0085
2566.00,0.0085
2565.00,0.0085
2564.00,0.0085
2563.00,0.0086
2562.00,0.0086
2561.00,0.0086
2560.00,0.0086
2559.00,0.0085
2558.00,0.0085
2557.00,0.0085
2556.00,0.0085
2555.00,0.0085
2554.00,0.0085
2553.00,0.0085
2552.00,0.0085
2551.00,0.0084
2550.00,0.0084
2549.00,0.0083
2548.00,0.0083
2547.00,0.0084
2546.00,0.0083
2545.00,0.0083
2544.00,0.0083
2543.00,0.0082
2542.00,0.0082
2541.00,0.0082
2540.00,0.0082
2539.00,0.0082
2538.00,0.0081
2537.00,0.0081
2536.00,0.0081
2535.00,0.0082
2534.00,0.0082
2533.00,0.0082
2532.00,0.0082
2531.00,0.0081
2530.00,0.0081
2529.00,0.0080
2528.00,0.0080
2527.00,0.0081
2526.00,0.0082
2525.00,0.0082
2524.00,0.0082
2523.00,0.0080
2522.00,0.0079
2521.00,0.0078
2520.00,0.0078
2519.00,0.0078
2518.00,0.0079
2517.00,0.0081
2516.00,0.0082
2515.00,0.0083
2514.00,0.0084
2513.00,0.0083
2512.00,0.0082
2511.00,0.0081
2510.00,0.0079
2509.00,0.0078
2508.00,0.0077
2507.00,0.0077
2506.00,0.0078
2505.00,0.0079
2504.00,0.0079
2503.00,0.0079
2502.00,0.0078
2501.00,0.0078
2500.00,0.0078
2499.00,0.0079
2498.00,0.0080
2497.00,0.0080
2496.00,0.0080
2495.00,0.0079
2494.00,0.0078
2493.00,0.0078
2492.00,0.0079
2491.00,0.0079
2490.00,0.0079
2489.00,0.0079
2488.00,0.0079
2487.00,0.0079
2486.00,0.0080
2485.00,0.0080
2484.00,0.0080
2483.00,0.0079
2482.00,0.0078
2481.00,0.0077
2480.00,0.0077
2479.00,0.0076
2478.00,0.0076
2477.00,0.0075
2476.00,0.0075
2475.00,0.0076
2474.00,0.0076
2473.00,0.0076
2472.00,0.0077
2471.00,0.0078
2470.00,0.0078
2469.00,0.0077
2468.00,0.0077
2467.00,0.0077
2466.00,0.0077
2465.00,0.0077
2464.00,0.0078
2463.00,0.0078
2462.00,0.0078
2461.00,0.0079
2460.00,0.0079
2459.00,0.0080
2458.00,0.0080
2457.00,0.0081
2456.00,0.0081
2455.00,0.0081
2454.00,0.0081
2453.00,0.0081
2452.00,0.0081
2451.00,0.0081
2450.00,0.0081
2449.00,0.0080
2448.00,0.0080
2447.00,0.0080
2446.00,0.0079
2445.00,0.0078
2444.00,0.0078
2443.00,0.0078
2442.00,0.0077
2441.00,0.0077
2440.00,0.0078
2439.00,0.0078
2438.00,0.0079
2437.00,0.0079
2436.00,0.0079
2435.00,0.0079
2434.00,0.0079
2433.00,0.0079
2432.00,0.0080
2431.00,0.0080
2430.00,0.0079
2429.00,0.0079
2428.00,0.0078
2427.00,0.0078
2426.00,0.0078
2425.00,0.0079
2424.00,0.0080
2423.00,0.0081
2422.00,0.0082
2421.00,0.0083
2420.00,0.0083
2419.00,0.0083
2418.00,0.0082
2417.00,0.0081
2416.00,0.0080
2415.00,0.0080
2414.00,0.0080
2413.00,0.0081
2412.00,0.0081
2411.00,0.0082
2410.00,0.0082
2409.00,0.0083
2408.00,0.0083
2407.00,0.0083
2406.00,0.0083
2405.00,0.0083
2404.00,0.0083
2403.00,0.0083
2402.00,0.0082
2401.00,0.0082
2400.00,0.0081
2399.00,0.0081
2398.00,0.0081
2397.00,0.0081
2396.00,0.0081
2395.00,0.0081
2394.00,0.0081
2393.00,0.0081
2392.00,0.0082
2391.00,0.0082
2390.00,0.0083
2389.00,0.0083
2388.00,0.0082
2387.00,0.0082
2386.00,0.0081
2385.00,0.0080
2384.00,0.0078
2383.00,0.0077
2382.00,0.0076
2381.00,0.0075
2380.00,0.0075
2379.00,0.0075
2378.00,0.0075
2377.00,0.0076
2376.00,0.0077
2375.00,0.0077
2374.00,0.0077
2373.00,0.0077
2372.00,0.0077
2371.00,0.0077
2370.00,0.0076
2369.00,0.0076
2368.00,0.0076
2367.00,0.0077
2366.00,0.0077
2365.00,0.0078
2364.00,0.0079
2363.00,0.0079
2362.00,0.0078
2361.00,0.0078
2360.00,0.0078
2359.00,0.0078
2358.00,0.0078
2357.00,0.0080
2356.00,0.0081
2355.00,0.0083
2354.00,0.0084
2353.00,0.0083
2352.00,0.0082
2351.00,0.0081
2350.00,0.0081
2349.00,0.0081
2348.00,0.0082
2347.00,0.0082
2346.00,0.0082
2345.00,0.0082
2344.00,0.0083
2343.00,0.0083
2342.00,0.0084
2341.00,0.0085
2340.00,0.0086
2339.00,0.0086
2338.00,0.0086
2337.00,0.0085
2336.00,0.0084
2335.00,0.0084
2334.00,0.0085
2333.00,0.0085
2332.00,0.0086
2331.00,0.0086
2330.00,0.0088
2329.00,0.0091
2328.00,0.0094
2327.00,0.0098
2326.00,0.0101
2325.00,0.0101
2324.00,0.0100
2323.00,0.0098
2322.00,0.0096
2321.00,0.0094
2320.00,0.0093
2319.00,0.0091
2318.00,0.0091
2317.00,0.0091
2316.00,0.0091
2315.00,0.0091
2314.00,0.0090
2313.00,0.0089
2312.00,0.0088
2311.00,0.0087
2310.00,0.0086
2309.00,0.0086
2308.00,0.0085
2307.00,0.0085
2306.00,0.0086
2305.00,0.0086
2304.00,0.0087
2303.00,0.0087
2302.00,0.0087
2301.00,0.0087
2300.00,0.0088
2299.00,0.0089
2298.00,0.0091
2297.00,0.0092
2296.00,0.0093
2295.00,0.0094
2294.00,0.0095
2293.00,0.0096
2292.00,0.0097
2291.00,0.0097
2290.00,0.0097
2289.00,0.0097
2288.00,0.0098
2287.00,0.0098
2286.00,0.0098
2285.00,0.0098
2284.00,0.0097
2283.00,0.0096
2282.00,0.0094
2281.00,0.0093
2280.00,0.0093
2279.00,0.0091
2278.00,0.0090
2277.00,0.0088
2276.00,0.0087
2275.00,0.0087
2274.00,0.0086
2273.00,0.0086
2272.00,0.0087
2271.00,0.0088
2270.00,0.0089
2269.00,0.0090
2268.00,0.0092
2267.00,0.0092
2266.00,0.0092
2265.00,0.0090
2264.00,0.0089
2263.00,0.0087
2262.00,0.0087
2261.00,0.0087
2260.00,0.0088
2259.00,0.0090
2258.00,0.0090
2257.00,0.0089
2256.00,0.0087
2255.00,0.0086
2254.00,0.0086
2253.00,0.0088
2252.00,0.0090
2251.00,0.0090
2250.00,0.0089
2249.00,0.0088
2248.00,0.0089
2247.00,0.0090
2246.00,0.0091
2245.00,0.0091
2244.00,0.0091
2243.00,0.0091
2242.00,0.0091
2241.00,0.0091
2240.00,0.0092
2239.00,0.0092
2238.00,0.0091
2237.00,0.0089
2236.00,0.0088
2235.00,0.0088
2234.00,0.0089
2233.00,0.0091
2232.00,0.0093
2231.00,0.0095
2230.00,0.0094
2229.00,0.0093
2228.00,0.0091
2227.00,0.0089
2226.00,0.0089
2225.00,0.0090
2224.00,0.0090
2223.00,0.0090
2222.00,0.0089
2221.00,0.0089
2220.00,0.0091
2219.00,0.0093
2218.00,0.0095
2217.00,0.0097
2216.00,0.0097
2215.00,0.0094
2214.00,0.0088
2213.00,0.0083
2212.00,0.0081
2211.00,0.0081
2210.00,0.0083
2209.00,0.0087
2208.00,0.0089
2207.00,0.0090
2206.00,0.0088
2205.00,0.0085
2204.00,0.0085
2203.00,0.0086
2202.00,0.0089
2201.00,0.0093
2200.00,0.0097
2199.00,0.0100
2198.00,0.0100
2197.00,0.0099
2196.00,0.0097
2195.00,0.0094
2194.00,0.0091
2193.00,0.0090
2192.00,0.0092
2191.00,0.0097
2190.00,0.0102
2189.00,0.0106
2188.00,0.0108
2187.00,0.0108
2186.00,0.0105
2185.00,0.0101
2184.00,0.0095
2183.00,0.0088
2182.00,0.0082
2181.00,0.0083
2180.00,0.0088
2179.00,0.0092
2178.00,0.0091
2177.00,0.0090
2176.00,0.0091
2175.00,0.0094
2174.00,0.0097
2173.00,0.0098
2172.00,0.0100
2171.00,0.0104
2170.00,0.0107
2169.00,0.0109
2168.00,0.0111
2167.00,0.0112
2166.00,0.0112
2165.00,0.0111
2164.00,0.0109
2163.00,0.0105
2162.00,0.0097
2161.00,0.0086
2160.00,0.0074
2159.00,0.0061
2158.00,0.0050
2157.00,0.0045
2156.00,0.0045
2155.00,0.0048
2154.00,0.0051
2153.00,0.0056
2152.00,0.0061
2151.00,0.0065
2150.00,0.0066
2149.00,0.0067
2148.00,0.0072
2147.00,0.0077
2146.00,0.0080
2145.00,0.0081
2144.00,0.0082
2143.00,0.0083
2142.00,0.0082
2141.00,0.0080
2140.00,0.0078
2139.00,0.0076
2138.00,0.0073
2137.00,0.0069
2136.00,0.0066
2135.00,0.0066
2134.00,0.0070
2133.00,0.0077
2132.00,0.0083
2131.00,0.0087
2130.00,0.0088
2129.00,0.0088
2128.00,0.0088
2127.00,0.0088
2126.00,0.0087
2125.00,0.0087
2124.00,0.0089
2123.00,0.0092
2122.00,0.0093
2121.00,0.0095
2120.00,0.0097
2119.00,0.0098
2118.00,0.0099
2117.00,0.0100
2116.00,0.0100
2115.00,0.0099
2114.00,0.0098
2113.00,0.0097
2112.00,0.0096
2111.00,0.0095
2110.00,0.0093
2109.00,0.0092
2108.00,0.0093
2107.00,0.0093
2106.00,0.0092
2105.00,0.0091
2104.00,0.0091
2103.00,0.0091
2102.00,0.0092
2101.00,0.0093
2100.00,0.0094
2099.00,0.0095
2098.00,0.0093
2097.00,0.0090
2096.00,0.0088
2095.00,0.0086
2094.00,0.0085
2093.00,0.0085
2092.00,0.0086
2091.00,0.0086
2090.00,0.0088
2089.00,0.0090
2088.00,0.0093
2087.00,0.0095
2086.00,0.0096
2085.00,0.0095
2084.00,0.0094
2083.00,0.0093
2082.00,0.0093
2081.00,0.0093
2080.00,0.0094
2079.00,0.0094
2078.00,0.0093
2077.00,0.0092
2076.00,0.0092
2075.00,0.0091
2074.00,0.0091
2073.00,0.0090
2072.00,0.0089
2071.00,0.0087
2070.00,0.0084
2069.00,0.0081
2068.00,0.0080
2067.00,0.0081
2066.00,0.0083
2065.00,0.0086
2064.00,0.0086
2063.00,0.0085
2062.00,0.0083
2061.00,0.0082
2060.00,0.0082
2059.00,0.0083
2058.00,0.0084
2057.00,0.0087
2056.00,0.0091
2055.00,0.0094
2054.00,0.0095
2053.00,0.0095
2052.00,0.0094
2051.00,0.0091
2050.00,0.0085
2049.00,0.0081
2048.00,0.0080
2047.00,0.0081
2046.00,0.0081
2045.00,0.0081
2044.00,0.0082
2043.00,0.0084
2042.00,0.0086
2041.00,0.0088
2040.00,0.0090
2039.00,0.0089
2038.00,0.0085
2037.00,0.0081
2036.00,0.0079
2035.00,0.0080
2034.00,0.0081
2033.00,0.0081
2032.00,0.0081
2031.00,0.0079
2030.00,0.0074
2029.00,0.0071
2028.00,0.0073
2027.00,0.0076
2026.00,0.0076
2025.00,0.0075
2024.00,0.0074
2023.00,0.0074
2022.00,0.0075
2021.00,0.0076
2020.00,0.0076
2019.00,0.0077
2018.00,0.0077
2017.00,0.0079
2016.00,0.0082
2015.00,0.0083
2014.00,0.0077
2013.00,0.0063
2012.00,0.0045
2011.00,0.0031
2010.00,0.0029
2009.00,0.0037
2008.00,0.0050
2007.00,0.0057
2006.00,0.0059
2005.00,0.0060
2004.00,0.0064
2003.00,0.0068
2002.00,0.0071
2001.00,0.0074
2000.00,0.0077
1999.00,0.0078
1998.00,0.0077
1997.00,0.0075
1996.00,0.0073
1995.00,0.0070
1994.00,0.0068
1993.00,0.0066
1992.00,0.0066
1991.00,0.0064
1990.00,0.0062
1989.00,0.0062
1988.00,0.0063
1987.00,0.0065
1986.00,0.0066
1985.00,0.0068
1984.00,0.0073
1983.00,0.0078
1982.00,0.0081
1981.00,0.0084
1980.00,0.0084
1979.00,0.0078
1978.00,0.0067
1977.00,0.0059
1976.00,0.0057
1975.00,0.0058
1974.00,0.0061
1973.00,0.0065
1972.00,0.0068
1971.00,0.0068
1970.00,0.0066
1969.00,0.0064
1968.00,0.0062
1967.00,0.0061
1966.00,0.0059
1965.00,0.0056
1964.00,0.0054
1963.00,0.0052
1962.00,0.0049
1961.00,0.0048
1960.00,0.0050
1959.00,0.0051
1958.00,0.0051
1957.00,0.0051
1956.00,0.0054
1955.00,0.0058
1954.00,0.0060
1953.00,0.0061
1952.00,0.0062
1951.00,0.0062
1950.00,0.0061
1949.00,0.0061
1948.00,0.0062
1947.00,0.0064
1946.00,0.0063
1945.00,0.0062
1944.00,0.0062
1943.00,0.0061
1942.00,0.0061
1941.00,0.0061
1940.00,0.0061
1939.00,0.0062
1938.00,0.0062
1937.00,0.0062
1936.00,0.0063
1935.00,0.0064
1934.00,0.0063
1933.00,0.0062
1932.00,0.0061
1931.00,0.0060
1930.00,0.0060
1929.00,0.0060
1928.00,0.0061
1927.00,0.0061
1926.00,0.0060
1925.00,0.0061
1924.00,0.0064
1923.00,0.0066
1922.00,0.0067
1921.00,0.0066
1920.00,0.0064
1919.00,0.0062
1918.00,0.0062
1917.00,0.0063
1916.00,0.0064
1915.00,0.0065
1914.00,0.0065
1913.00,0.0065
1912.00,0.0066
1911.00,0.0066
1910.00,0.0065
1909.00,0.0064
1908.00,0.0065
1907.00,0.0066
1906.00,0.0066
1905.00,0.0066
1904.00,0.0066
1903.00,0.0066
1902.00,0.0065
1901.00,0.0064
1900.00,0.0065
1899.00,0.0066
1898.00,0.0067
1897.00,0.0066
1896.00,0.0066
1895.00,0.0065
1894.00,0.0064
1893.00,0.0065
1892.00,0.0066
1891.00,0.0066
1890.00,0.0066
1889.00,0.0066
1888.00,0.0067
1887.00,0.0069
1886.00,0.0071
1885.00,0.0072
1884.00,0.0072
1883.00,0.0070
1882.00,0.0068
1881.00,0.0066
1880.00,0.0066
1879.00,0.0066
1878.00,0.0065
1877.00,0.0065
1876.00,0.0065
1875.00,0.0065
1874.00,0.0064
1873.00,0.0065
1872.00,0.0065
1871.00,0.0065
1870.00,0.0064
1869.00,0.0063
1868.00,0.0063
1867.00,0.0064
1866.00,0.0063
1865.00,0.0063
1864.00,0.0064
1863.00,0.0065
1862.00,0.0065
1861.00,0.0065
1860.00,0.0065
1859.00,0.0066
1858.00,0.0066
1857.00,0.0065
1856.00,0.0066
1855.00,0.0066
1854.00,0.0066
1853.00,0.0067
1852.00,0.0068
1851.00,0.0069
1850.00,0.0068
1849.00,0.0068
1848.00,0.0068
1847.00,0.0068
1846.00,0.0067
1845.00,0.0065
1844.00,0.0065
1843.00,0.0065
1842.00,0.0065
1841.00,0.0065
1840.00,0.0067
1839.00,0.0068
1838.00,0.0068
1837.00,0.0068
1836.00,0.0068
1835.00,0.0067
1834.00,0.0066
1833.00,0.0066
1832.00,0.0065
1831.00,0.0065
1830.00,0.0064
1829.00,0.0065
1828.00,0.0065
1827.00,0.0066
1826.00,0.0065
1825.00,0.0065
1824.00,0.0066
1823.00,0.0066
1822.00,0.0066
1821.00,0.0066
1820.00,0.0065
1819.00,0.0064
1818.00,0.0062
1817.00,0.0061
1816.00,0.0062
1815.00,0.0064
1814.00,0.0065
1813.00,0.0066
1812.00,0.0067
1811.00,0.0068
1810.00,0.0068
1809.00,0.0068
1808.00,0.0068
1807.00,0.0067
1806.00,0.0067
1805.00,0.0066
1804.00,0.0066
1803.00,0.0066
1802.00,0.0066
1801.00,0.0067
1800.00,0.0068
1799.00,0.0069
1798.00,0.0068
1797.00,0.0068
1796.00,0.0068
1795.00,0.0068
1794.00,0.0067
1793.00,0.0066
1792.00,0.0066
1791.00,0.0067
1790.00,0.0067
1789.00,0.0067
1788.00,0.0068
1787.00,0.0069
1786.00,0.0069
1785.00,0.0069
1784.00,0.0070
1783.00,0.0071
1782.00,0.0071
1781.00,0.0071
1780.00,0.0072
1779.00,0.0072
1778.00,0.0072
1777.00,0.0073
1776.00,0.0074
1775.00,0.0074
1774.00,0.0073
1773.00,0.0072
1772.00,0.0072
1771.00,0.0072
1770.00,0.0072
1769.00,0.0072
1768.00,0.0073
1767.00,0.0075
1766.00,0.0076
1765.00,0.0077
1764.00,0.0079
1763.00,0.0080
1762.00,0.0080
1761.00,0.0079
1760.00,0.0079
1759.00,0.0080
1758.00,0.0080
1757.00,0.0081
1756.00,0.0082
1755.00,0.0082
1754.00,0.0082
1753.00,0.0082
1752.00,0.0083
1751.00,0.0083
1750.00,0.0083
1749.00,0.0085
1748.00,0.0088
1747.00,0.0090
1746.00,0.0090
1745.00,0.0091
1744.00,0.0093
1743.00,0.0094
1742.00,0.0094
1741.00,0.0095
1740.00,0.0096
1739.00,0.0098
1738.00,0.0098
1737.00,0.0098
1736.00,0.0099
1735.00,0.0101
1734.00,0.0101
1733.00,0.0102
1732.00,0.0104
1731.00,0.0107
1730.00,0.0109
1729.00,0.0112
1728.00,0.0115
1727.00,0.0118
1726.00,0.0120
1725.00,0.0122
1724.00,0.0126
1723.00,0.0129
1722.00,0.0130
1721.00,0.0132
1720.00,0.0135
1719.00,0.0138
1718.00,0.0141
1717.00,0.0145
1716.00,0.0150
1715.00,0.0156
1714.00,0.0160
1713.00,0.0166
1712.00,0.0175
1711.00,0.0184
1710.00,0.0192
1709.00,0.0200
1708.00,0.0210
1707.00,0.0221
1706.00,0.0234
1705.00,0.0248
1704.00,0.0264
1703.00,0.0278
1702.00,0.0294
1701.00,0.0319
1700.00,0.0356
1699.00,0.0391
1698.00,0.0420
1697.00,0.0457
1696.00,0.0511
1695.00,0.0569
1694.00,0.0619
1693.00,0.0666
1692.00,0.0718
1691.00,0.0778
1690.00,0.0844
1689.00,0.0912
1688.00,0.0976
1687.00,0.1034
1686.00,0.1095
1685.00,0.1180
1684.00,0.1292
1683.00,0.1391
1682.00,0.1464
1681.00,0.1532
1680.00,0.1606
1679.00,0.1680
1678.00,0.1748
1677.00,0.1817
1676.00,0.1901
1675.00,0.1993
1674.00,0.2076
1673.00,0.2146
1672.00,0.2215
1671.00,0.2292
1670.00,0.2378
1669.00,0.2469
1668.00,0.2553
1667.00,0.2624
1666.00,0.2686
1665.00,0.2749
1664.00,0.2824
1663.00,0.2907
1662.00,0.2986
1661.00,0.3055
1660.00,0.3120
1659.00,0.3181
1658.00,0.3235
1657.00,0.3283
1656.00,0.3326
1655.00,0.3370
1654.00,0.3419
1653.00,0.3472
1652.00,0.3507
1651.00,0.3523
1650.00,0.3528
1649.00,0.3529
1648.00,0.3525
1647.00,0.3508
1646.00,0.3473
1645.00,0.3430
1644.00,0.3388
1643.00,0.3343
1642.00,0.3288
1641.00,0.3223
1640.00,0.3153
1639.00,0.3082
1638.00,0.3005
1637.00,0.2909
1636.00,0.2789
1635.00,0.2660
1634.00,0.2547
1633.00,0.2453
1632.00,0.2369
1631.00,0.2284
1630.00,0.2194
1629.00,0.2099
1628.00,0.2004
1627.00,0.1917
1626.00,0.1837
1625.00,0.1761
1624.00,0.1683
1623.00,0.1606
1622.00,0.1535
1621.00,0.1475
1620.00,0.1423
1619.00,0.1373
1618.00,0.1320
1617.00,0.1261
1616.00,0.1204
1615.00,0.1154
1614.00,0.1113
1613.00,0.1074
1612.00,0.1035
1611.00,0.0996
1610.00,0.0958
1609.00,0.0921
1608.00,0.0886
1607.00,0.0853
1606.00,0.0822
1605.00,0.0793
1604.00,0.0764
1603.00,0.0737
1602.00,0.0712
1601.00,0.0688
1600.00,0.0664
1599.00,0.0642
1598.00,0.0622
1597.00,0.0602
1596.00,0.0584
1595.00,0.0566
1594.00,0.0550
1593.00,0.0534
1592.00,0.0519
1591.00,0.0504
1590.00,0.0491
1589.00,0.0478
1588.00,0.0465
1587.00,0.0452
1586.00,0.0441
1585.00,0.0431
1584.00,0.0420
1583.00,0.0411
1582.00,0.0402
1581.00,0.0394
1580.00,0.0385
1579.00,0.0377
1578.00,0.0369
1577.00,0.0362
1576.00,0.0355
1575.00,0.0348
1574.00,0.0342
1573.00,0.0336
1572.00,0.0330
1571.00,0.0323
1570.00,0.0317
1569.00,0.0313
1568.00,0.0308
1567.00,0.0304
1566.00,0.0301
1565.00,0.0297
1564.00,0.0293
1563.00,0.0289
1562.00,0.0283
1561.00,0.0277
1560.00,0.0270
1559.00,0.0268
1558.00,0.0268
1557.00,0.0266
1556.00,0.0265
1555.00,0.0264
1554.00,0.0263
1553.00,0.0261
1552.00,0.0260
1551.00,0.0258
1550.00,0.0257
1549.00,0.0255
1548.00,0.0252
1547.00,0.0250
1546.00,0.0247
1545.00,0.0245
1544.00,0.0243
1543.00,0.0241
1542.00,0.0238
1541.00,0.0237
1540.00,0.0236
1539.00,0.0235
1538.00,0.0233
1537.00,0.0233
1536.00,0.0232
1535.00,0.0231
1534.00,0.0230
1533.00,0.0230
1532.00,0.0229
1531.00,0.0228
1530.00,0.0228
1529.00,0.0227
1528.00,0.0226
1527.00,0.0225
1526.00,0.0224
1525.00,0.0223
1524.00,0.0223
1523.00,0.0223
1522.00,0.0224
1521.00,0.0225
1520.00,0.0225
1519.00,0.0225
1518.00,0.0226
1517.00,0.0229
1516.00,0.0232
1515.00,0.0235
1514.00,0.0238
1513.00,0.0243
1512.00,0.0248
1511.00,0.0253
1510.00,0.0259
1509.00,0.0266
1508.00,0.0280
1507.00,0.0306
1506.00,0.0338
1505.00,0.0367
1504.00,0.0393
1503.00,0.0420
1502.00,0.0449
1501.00,0.0482
1500.00,0.0516
1499.00,0.0551
1498.00,0.0587
1497.00,0.0621
1496.00,0.0648
1495.00,0.0664
1494.00,0.0669
1493.00,0.0667
1492.00,0.0655
1491.00,0.0634
1490.00,0.0604
1489.00,0.0570
1488.00,0.0535
1487.00,0.0501
1486.00,0.0470
1485.00,0.0445
1484.00,0.0424
1483.00,0.0406
1482.00,0.0392
1481.00,0.0382
1480.00,0.0378
1479.00,0.0377
1478.00,0.0380
1477.00,0.0389
1476.00,0.0404
1475.00,0.0423
1474.00,0.0451
1473.00,0.0495
1472.00,0.0553
1471.00,0.0615
1470.00,0.0677
1469.00,0.0742
1468.00,0.0813
1467.00,0.0890
1466.00,0.0978
1465.00,0.1073
1464.00,0.1157
1463.00,0.1215
1462.00,0.1247
1461.00,0.1259
1460.00,0.1252
1459.00,0.1222
1458.00,0.1165
1457.00,0.1085
1456.00,0.1007
1455.00,0.0951
1454.00,0.0913
1453.00,0.0888
1452.00,0.0872
1451.00,0.0866
1450.00,0.0875
1449.00,0.0901
1448.00,0.0944
1447.00,0.0999
1446.00,0.1060
1445.00,0.1125
1444.00,0.1194
1443.00,0.1264
1442.00,0.1333
1441.00,0.1396
1440.00,0.1449
1439.00,0.1490
1438.00,0.1520
1437.00,0.1545
1436.00,0.1561
1435.00,0.1564
1434.00,0.1559
1433.00,0.1554
1432.00,0.1551
1431.00,0.1554
1430.00,0.1570
1429.00,0.1603
1428.00,0.1650
1427.00,0.1705
1426.00,0.1765
1425.00,0.1830
1424.00,0.1887
1423.00,0.1922
1422.00,0.1929
1421.00,0.1906
1420.00,0.1843
1419.00,0.1737
1418.00,0.1611
1417.00,0.1490
1416.00,0.1375
1415.00,0.1262
1414.00,0.1153
1413.00,0.1050
1412.00,0.0956
1411.00,0.0871
1410.00,0.0800
1409.00,0.0741
1408.00,0.0691
1407.00,0.0646
1406.00,0.0608
1405.00,0.0575
1404.00,0.0545
1403.00,0.0521
1402.00,0.0502
1401.00,0.0486
1400.00,0.0471
1399.00,0.0457
1398.00,0.0447
1397.00,0.0439
1396.00,0.0432
1395.00,0.0427
1394.00,0.0425
1393.00,0.0426
1392.00,0.0429
1391.00,0.0433
1390.00,0.0440
1389.00,0.0449
1388.00,0.0460
1387.00,0.0475
1386.00,0.0492
1385.00,0.0510
1384.00,0.0528
1383.00,0.0546
1382.00,0.0566
1381.00,0.0586
1380.00,0.0604
1379.00,0.0620
1378.00,0.0635
1377.00,0.0648
1376.00,0.0657
1375.00,0.0665
1374.00,0.0671
1373.00,0.0673
1372.00,0.0671
1371.00,0.0666
1370.00,0.0659
1369.00,0.0649
1368.00,0.0636
1367.00,0.0621
1366.00,0.0604
1365.00,0.0586
1364.00,0.0564
1363.00,0.0541
1362.00,0.0520
1361.00,0.0500
1360.00,0.0483
1359.00,0.0468
1358.00,0.0455
1357.00,0.0444
1356.00,0.0432
1355.00,0.0422
1354.00,0.0413
1353.00,0.0405
1352.00,0.0398
1351.00,0.0391
1350.00,0.0385
1349.00,0.0380
1348.00,0.0376
1347.00,0.0373
1346.00,0.0370
1345.00,0.0368
1344.00,0.0367
1343.00,0.0366
1342.00,0.0367
1341.00,0.0369
1340.00,0.0372
1339.00,0.0376
1338.00,0.0382
1337.00,0.0390
1336.00,0.0398
1335.00,0.0408
1334.00,0.0418
1333.00,0.0431
1332.00,0.0444
1331.00,0.0459
1330.00,0.0477
1329.00,0.0498
1328.00,0.0521
1327.00,0.0547
1326.00,0.0575
1325.00,0.0605
1324.00,0.0636
1323.00,0.0666
1322.00,0.0696
1321.00,0.0724
1320.00,0.0747
1319.00,0.0765
1318.00,0.0778
1317.00,0.0784
1316.00,0.0782
1315.00,0.0773
1314.00,0.0759
1313.00,0.0741
1312.00,0.0722
1311.00,0.0704
1310.00,0.0687
1309.00,0.0672
1308.00,0.0662
1307.00,0.0656
1306.00,0.0658
1305.00,0.0668
1304.00,0.0686
1303.00,0.0715
1302.00,0.0753
1301.00,0.0804
1300.00,0.0868
1299.00,0.0947
1298.00,0.1043
1297.00,0.1154
1296.00,0.1277
1295.00,0.1409
1294.00,0.1546
1293.00,0.1682
1292.00,0.1812
1291.00,0.1931
1290.00,0.2033
1289.00,0.2115
1288.00,0.2173
1287.00,0.2205
1286.00,0.2211
1285.00,0.2194
1284.00,0.2160
1283.00,0.2114
1282.00,0.2066
1281.00,0.2023
1280.00,0.1990
1279.00,0.1970
1278.00,0.1965
1277.00,0.1973
1276.00,0.1989
1275.00,0.2007
1274.00,0.2022
1273.00,0.2030
1272.00,0.2027
1271.00,0.2009
1270.00,0.1978
1269.00,0.1934
1268.00,0.1877
1267.00,0.1809
1266.00,0.1733
1265.00,0.1653
1264.00,0.1572
1263.00,0.1493
1262.00,0.1417
1261.00,0.1345
1260.00,0.1278
1259.00,0.1216
1258.00,0.1161
1257.00,0.1110
1256.00,0.1065
1255.00,0.1024
1254.00,0.0988
1253.00,0.0956
1252.00,0.0928
1251.00,0.0903
1250.00,0.0882
1249.00,0.0864
1248.00,0.0849
1247.00,0.0837
1246.00,0.0829
1245.00,0.0824
1244.00,0.0822
1243.00,0.0822
1242.00,0.0825
1241.00,0.0830
1240.00,0.0838
1239.00,0.0847
1238.00,0.0859
1237.00,0.0872
1236.00,0.0885
1235.00,0.0899
1234.00,0.0913
1233.00,0.0926
1232.00,0.0938
1231.00,0.0947
1230.00,0.0953
1229.00,0.0958
1228.00,0.0959
1227.00,0.0959
1226.00,0.0958
1225.00,0.0956
1224.00,0.0953
1223.00,0.0951
1222.00,0.0949
1221.00,0.0948
1220.00,0.0946
1219.00,0.0944
1218.00,0.0940
1217.00,0.0935
1216.00,0.0926
1215.00,0.0916
1214.00,0.0904
1213.00,0.0890
1212.00,0.0875
1211.00,0.0859
1210.00,0.0842
1209.00,0.0826
1208.00,0.0809
1207.00,0.0793
1206.00,0.0777
1205.00,0.0762
1204.00,0.0746
1203.00,0.0731
1202.00,0.0718
1201.00,0.0706
1200.00,0.0695
1199.00,0.0684
1198.00,0.0674
1197.00,0.0663
1196.00,0.0653
1195.00,0.0644
1194.00,0.0636
1193.00,0.0629
1192.00,0.0622
1191.00,0.0616
1190.00,0.0612
1189.00,0.0608
1188.00,0.0604
1187.00,0.0601
1186.00,0.0599
1185.00,0.0599
1184.00,0.0599
1183.00,0.0601
1182.00,0.0603
1181.00,0.0607
1180.00,0.0611
1179.00,0.0618
1178.00,0.0627
1177.00,0.0637
1176.00,0.0648
1175.00,0.0659
1174.00,0.0671
1173.00,0.0681
1172.00,0.0689
1171.00,0.0695
1170.00,0.0698
1169.00,0.0699
1168.00,0.0696
1167.00,0.0691
1166.00,0.0684
1165.00,0.0675
1164.00,0.0663
1163.00,0.0650
1162.00,0.0637
1161.00,0.0624
1160.00,0.0610
1159.00,0.0597
1158.00,0.0586
1157.00,0.0575
1156.00,0.0565
1155.00,0.0556
1154.00,0.0548
1153.00,0.0539
1152.00,0.0531
1151.00,0.0523
1150.00,0.0516
1149.00,0.0509
1148.00,0.0502
1147.00,0.0495
1146.00,0.0489
1145.00,0.0482
1144.00,0.0476
1143.00,0.0469
1142.00,0.0463
1141.00,0.0456
1140.00,0.0448
1139.00,0.0441
1138.00,0.0435
1137.00,0.0429
1136.00,0.0425
1135.00,0.0421
1134.00,0.0420
1133.00,0.0418
1132.00,0.0417
1131.00,0.0416
1130.00,0.0416
1129.00,0.0416
1128.00,0.0416
1127.00,0.0417
1126.00,0.0418
1125.00,0.0420
1124.00,0.0420
1123.00,0.0421
1122.00,0.0422
1121.00,0.0423
1120.00,0.0424
1119.00,0.0425
1118.00,0.0426
1117.00,0.0428
1116.00,0.0429
1115.00,0.0429
1114.00,0.0430
1113.00,0.0431
1112.00,0.0430
1111.00,0.0430
1110.00,0.0430
1109.00,0.0431
1108.00,0.0430
1107.00,0.0430
1106.00,0.0431
1105.00,0.0432
1104.00,0.0431
1103.00,0.0432
1102.00,0.0433
1101.00,0.0434
1100.00,0.0435
1099.00,0.0436
1098.00,0.0437
1097.00,0.0438
1096.00,0.0437
1095.00,0.0437
1094.00,0.0437
1093.00,0.0437
1092.00,0.0437
1091.00,0.0437
1090.00,0.0437
1089.00,0.0437
1088.00,0.0436
1087.00,0.0436
1086.00,0.0436
1085.00,0.0437
1084.00,0.0437
1083.00,0.0437
1082.00,0.0440
1081.00,0.0443
1080.00,0.0447
1079.00,0.0451
1078.00,0.0455
1077.00,0.0460
1076.00,0.0462
1075.00,0.0463
1074.00,0.0463
1073.00,0.0461
1072.00,0.0456
1071.00,0.0450
1070.00,0.0445
1069.00,0.0439
1068.00,0.0433
1067.00,0.0427
1066.00,0.0423
1065.00,0.0420
1064.00,0.0416
1063.00,0.0413
1062.00,0.0412
1061.00,0.0411
1060.00,0.0409
1059.00,0.0408
1058.00,0.0407
1057.00,0.0407
1056.00,0.0406
1055.00,0.0406
1054.00,0.0406
1053.00,0.0406
1052.00,0.0405
1051.00,0.0404
1050.00,0.0404
1049.00,0.0403
1048.00,0.0402
1047.00,0.0401
1046.00,0.0400
1045.00,0.0400
1044.00,0.0399
1043.00,0.0398
1042.00,0.0398
1041.00,0.0398
1040.00,0.0399
1039.00,0.0400
1038.00,0.0403
1037.00,0.0406
1036.00,0.0409
1035.00,0.0411
1034.00,0.0414
1033.00,0.0416
1032.00,0.0418
1031.00,0.0420
1030.00,0.0423
1029.00,0.0427
1028.00,0.0431
1027.00,0.0436
1026.00,0.0444
1025.00,0.0452
1024.00,0.0462
1023.00,0.0473
1022.00,0.0484
1021.00,0.0495
1020.00,0.0503
1019.00,0.0509
1018.00,0.0511
1017.00,0.0509
1016.00,0.0502
1015.00,0.0492
1014.00,0.0479
1013.00,0.0465
1012.00,0.0452
1011.00,0.0440
1010.00,0.0433
1009.00,0.0429
1008.00,0.0429
1007.00,0.0433
1006.00,0.0443
1005.00,0.0453
1004.00,0.0460
1003.00,0.0464
1002.00,0.0465
1001.00,0.0463
1000.00,0.0457
999.00,0.0449
998.00,0.0439
997.00,0.0429
996.00,0.0417
995.00,0.0407
994.00,0.0399
993.00,0.0392
992.00,0.0385
991.00,0.0379
990.00,0.0374
989.00,0.0369
988.00,0.0366
987.00,0.0362
986.00,0.0360
985.00,0.0357
984.00,0.0354
983.00,0.0352
982.00,0.0351
981.00,0.0349
980.00,0.0346
979.00,0.0343
978.00,0.0341
977.00,0.0338
976.00,0.0335
975.00,0.0333
974.00,0.0331
973.00,0.0330
972.00,0.0328
971.00,0.0326
970.00,0.0324
969.00,0.0323
968.00,0.0321
967.00,0.0320
966.00,0.0320
965.00,0.0319
964.00,0.0317
963.00,0.0316
962.00,0.0316
961.00,0.0315
960.00,0.0313
959.00,0.0312
958.00,0.0311
957.00,0.0311
956.00,0.0309
955.00,0.0308
954.00,0.0308
953.00,0.0308
952.00,0.0307
951.00,0.0305
950.00,0.0305
949.00,0.0305
948.00,0.0305
947.00,0.0306
946.00,0.0309
945.00,0.0312
944.00,0.0315
943.00,0.0320
942.00,0.0326
941.00,0.0334
940.00,0.0344
939.00,0.0355
938.00,0.0367
937.00,0.0380
936.00,0.0392
935.00,0.0402
934.00,0.0408
933.00,0.0410
932.00,0.0406
931.00,0.0398
930.00,0.0390
929.00,0.0382
928.00,0.0375
927.00,0.0370
926.00,0.0366
925.00,0.0362
924.00,0.0358
923.00,0.0353
922.00,0.0349
921.00,0.0345
920.00,0.0342
919.00,0.0339
918.00,0.0338
917.00,0.0338
916.00,0.0337
915.00,0.0337
914.00,0.0337
913.00,0.0338
912.00,0.0337
911.00,0.0338
910.00,0.0339
909.00,0.0340
908.00,0.0342
907.00,0.0344
906.00,0.0347
905.00,0.0352
904.00,0.0356
903.00,0.0361
902.00,0.0367
901.00,0.0373
900.00,0.0378
899.00,0.0383
898.00,0.0388
897.00,0.0391
896.00,0.0392
895.00,0.0392
894.00,0.0391
893.00,0.0388
892.00,0.0383
891.00,0.0377
890.00,0.0371
889.00,0.0366
888.00,0.0360
887.00,0.0354
886.00,0.0350
885.00,0.0346
884.00,0.0342
883.00,0.0340
882.00,0.0340
881.00,0.0342
880.00,0.0343
879.00,0.0342
878.00,0.0341
877.00,0.0339
876.00,0.0337
875.00,0.0337
874.00,0.0338
873.00,0.0340
872.00,0.0342
871.00,0.0344
870.00,0.0347
869.00,0.0349
868.00,0.0352
867.00,0.0356
866.00,0.0362
865.00,0.0368
864.00,0.0375
863.00,0.0382
862.00,0.0391
861.00,0.0402
860.00,0.0412
859.00,0.0424
858.00,0.0437
857.00,0.0450
856.00,0.0464
855.00,0.0478
854.00,0.0495
853.00,0.0511
852.00,0.0527
851.00,0.0542
850.00,0.0557
849.00,0.0570
848.00,0.0580
847.00,0.0588
846.00,0.0593
845.00,0.0596
844.00,0.0596
843.00,0.0595
842.00,0.0592
841.00,0.0586
840.00,0.0578
839.00,0.0570
838.00,0.0562
837.00,0.0553
836.00,0.0543
835.00,0.0534
834.00,0.0525
833.00,0.0515
832.00,0.0505
831.00,0.0496
830.00,0.0487
829.00,0.0478
828.00,0.0468
827.00,0.0458
826.00,0.0450
825.00,0.0444
824.00,0.0437
823.00,0.0431
822.00,0.0427
821.00,0.0424
820.00,0.0419
819.00,0.0416
818.00,0.0413
817.00,0.0411
816.00,0.0409
815.00,0.0406
814.00,0.0405
813.00,0.0403
812.00,0.0402
811.00,0.0402
810.00,0.0403
809.00,0.0404
808.00,0.0403
807.00,0.0403
806.00,0.0403
805.00,0.0401
804.00,0.0399
803.00,0.0398
802.00,0.0398
801.00,0.0400
800.00,0.0402
799.00,0.0405
798.00,0.0410
797.00,0.0413
796.00,0.0415
795.00,0.0416
794.00,0.0418
793.00,0.0421
792.00,0.0423
791.00,0.0425
790.00,0.0429
789.00,0.0433
788.00,0.0437
787.00,0.0440
786.00,0.0444
785.00,0.0448
784.00,0.0452
783.00,0.0456
782.00,0.0461
781.00,0.0465
780.00,0.0469
779.00,0.0473
778.00,0.0477
777.00,0.0480
776.00,0.0483
775.00,0.0488
774.00,0.0494
773.00,0.0501
772.00,0.0508
771.00,0.0514
770.00,0.0521
769.00,0.0528
768.00,0.0533
767.00,0.0539
766.00,0.0546
765.00,0.0553
764.00,0.0559
763.00,0.0568
762.00,0.0578
761.00,0.0590
760.00,0.0600
759.00,0.0611
758.00,0.0623
757.00,0.0634
756.00,0.0644
755.00,0.0654
754.00,0.0665
753.00,0.0678
752.00,0.0690
751.00,0.0703
750.00,0.0717
749.00,0.0730
748.00,0.0742
747.00,0.0754
746.00,0.0767
745.00,0.0780
744.00,0.0793
743.00,0.0807
742.00,0.0820
741.00,0.0833
740.00,0.0845
739.00,0.0856
738.00,0.0866
737.00,0.0874
736.00,0.0882
735.00,0.0889
734.00,0.0895
733.00,0.0898
732.00,0.0895
731.00,0.0888
730.00,0.0877
729.00,0.0865
728.00,0.0851
727.00,0.0839
726.00,0.0828
725.00,0.0819
724.00,0.0810
723.00,0.0802
722.00,0.0796
721.00,0.0791
720.00,0.0787
719.00,0.0783
718.00,0.0781
717.00,0.0779
716.00,0.0777
715.00,0.0776
714.00,0.0777
713.00,0.0779
712.00,0.0779
711.00,0.0779
710.00,0.0781
709.00,0.0783
708.00,0.0785
707.00,0.0788
706.00,0.0791
705.00,0.0794
704.00,0.0798
703.00,0.0801
702.00,0.0806
701.00,0.0811
700.00,0.0816
699.00,0.0821
698.00,0.0826
697.00,0.0831
696.00,0.0837
695.00,0.0844
694.00,0.0853
693.00,0.0862
692.00,0.0870
691.00,0.0876
690.00,0.0882
689.00,0.0889
688.00,0.0897
687.00,0.0907
686.00,0.0918
685.00,0.0928
684.00,0.0937
683.00,0.0947
682.00,0.0957
681.00,0.0968
680.00,0.0977
679.00,0.0986
678.00,0.0996
677.00,0.1005
676.00,0.1013
675.00,0.1023
674.00,0.1036
673.00,0.1049
672.00,0.1061
671.00,0.1072
670.00,0.1087
669.00,0.1107
668.00,0.1131
667.00,0.1153
666.00,0.1165
665.00,0.1173
664.00,0.1183
663.00,0.1199
662.00,0.1221
661.00,0.1245
660.00,0.1268
659.00,0.1292
658.00,0.1316
657.00,0.1341
656.00,0.1367
655.00,0.1392
654.00,0.1416
653.00,0.1436
652.00,0.1455
651.00,0.1472
650.00,0.1489
649.00,0.1502
648.00,0.1510
647.00,0.1515
646.00,0.1516
645.00,0.1513
644.00,0.1507
643.00,0.1499
642.00,0.1490
641.00,0.1480
640.00,0.1467
639.00,0.1454
638.00,0.1444
637.00,0.1435
636.00,0.1425
635.00,0.1414
634.00,0.1404
633.00,0.1394
632.00,0.1383
631.00,0.1374
630.00,0.1365
629.00,0.1358
628.00,0.1351
627.00,0.1345
626.00,0.1341
625.00,0.1339
624.00,0.1336
623.00,0.1334
622.00,0.1333
621.00,0.1331
620.00,0.1329
619.00,0.1327
618.00,0.1327
617.00,0.1327
616.00,0.1328
615.00,0.1331
614.00,0.1336
613.00,0.1340
612.00,0.1341
611.00,0.1340
610.00,0.1340
609.00,0.1342
608.00,0.1343
607.00,0.1344
606.00,0.1346
605.00,0.1349
604.00,0.1351
603.00,0.1354
602.00,0.1359
601.00,0.1363
600.00,0.1367
599.00,0.1372
598.00,0.1379
597.00,0.1387
596.00,0.1396
595.00,0.1404
594.00,0.1414
593.00,0.1424
592.00,0.1434
591.00,0.1446
590.00,0.1462
589.00,0.1477
588.00,0.1492
587.00,0.1508
586.00,0.1528
585.00,0.1551
584.00,0.1573
583.00,0.1596
582.00,0.1619
581.00,0.1641
580.00,0.1660
579.00,0.1676
578.00,0.1691
577.00,0.1706
576.00,0.1717
575.00,0.1727
574.00,0.1736
573.00,0.1741
572.00,0.1743
571.00,0.1742
570.00,0.1741
569.00,0.1737
568.00,0.1730
567.00,0.1722
566.00,0.1715
565.00,0.1708
564.00,0.1699
563.00,0.1690
562.00,0.1682
561.00,0.1672
560.00,0.1661
559.00,0.1650
558.00,0.1641
557.00,0.1633
556.00,0.1624
555.00,0.1616
554.00,0.1610
553.00,0.1605
552.00,0.1599
551.00,0.1594
550.00,0.1592
549.00,0.1589
548.00,0.1582
547.00,0.1574
546.00,0.1568
545.00,0.1564
544.00,0.1558
543.00,0.1554
542.00,0.1553
541.00,0.1551
540.00,0.1546
539.00,0.1542
538.00,0.1539
537.00,0.1536
536.00,0.1531
535.00,0.1529
534.00,0.1531
533.00,0.1535
532.00,0.1536
531.00,0.1535
530.00,0.1536
529.00,0.1537
528.00,0.1536
527.00,0.1537
526.00,0.1540
525.00,0.1541
524.00,0.1538
523.00,0.1536
522.00,0.1538
521.00,0.1541
520.00,0.1542
519.00,0.1542
518.00,0.1543
517.00,0.1542
516.00,0.1539
515.00,0.1536
514.00,0.1537
513.00,0.1538
512.00,0.1537
511.00,0.1536
510.00,0.1539
509.00,0.1540
508.00,0.1536
507.00,0.1530
506.00,0.1527
505.00,0.1524
504.00,0.1521
503.00,0.1519
502.00,0.1523
501.00,0.1529
500.00,0.1533
499.00,0.1535
498.00,0.1540
497.00,0.1542
496.00,0.1540
495.00,0.1537
494.00,0.1538
493.00,0.1543
492.00,0.1547
491.00,0.1552
490.00,0.1560
489.00,0.1564
488.00,0.1561
487.00,0.1554
486.00,0.1550
485.00,0.1549
484.00,0.1547
483.00,0.1549
482.00,0.1555
481.00,0.1560
480.00,0.1561
479.00,0.1559
478.00,0.1560
477.00,0.1561
476.00,0.1558
475.00,0.1556
474.00,0.1561
473.00,0.1568
472.00,0.1571
471.00,0.1572
470.00,0.1572
469.00,0.1569
468.00,0.1561
467.00,0.1557
466.00,0.1559
465.00,0.1562
464.00,0.1559
463.00,0.1555
462.00,0.1553
461.00,0.1548
460.00,0.1539
459.00,0.1533
458.00,0.1537
457.00,0.1541
456.00,0.1536
455.00,0.1527
454.00,0.1520
453.00,0.1513
452.00,0.1506
451.00,0.1502
450.00,0.1503
449.00,0.1502
448.00,0.1494
447.00,0.1485
446.00,0.1481
445.00,0.1475
444.00,0.1463
443.00,0.1451
442.00,0.1445
441.00,0.1438
440.00,0.1428
439.00,0.1422
438.00,0.1426
437.00,0.1432
436.00,0.1430
435.00,0.1425
434.00,0.1421
433.00,0.1413
432.00,0.1399
431.00,0.1389
430.00,0.1391
429.00,0.1394
428.00,0.1388
427.00,0.1377
426.00,0.1372
425.00,0.1366
424.00,0.1355
423.00,0.1346
422.00,0.1342
421.00,0.1332
420.00,0.1303
419.00,0.1277
418.00,0.1281
417.00,0.1299
416.00,0.1310
415.00,0.1319
414.00,0.1331
413.00,0.1336
412.00,0.1325
411.00,0.1312
410.00,0.1308
409.00,0.1301
408.00,0.1281
407.00,0.1265
406.00,0.1264
405.00,0.1264
404.00,0.1250
403.00,0.1240
402.00,0.1248
401.00,0.1248
400.00,0.1219
