Created as New Dataset,Sample 999 By YargerLab Date Wednesday, July 30 2025
cm-1,A
4000.00,0.0016
3999.00,0.0016
3998.00,0.0015
3997.00,0.0015
3996.00,0.0015
3995.00,0.0016
3994.00,0.0016
3993.00,0.0016
3992.00,0.0015
3991.00,0.0015
3990.00,0.0015
3989.00,0.0015
3988.00,0.0016
3987.00,0.0016
3986.00,0.0016
3985.00,0.0016
3984.00,0.0016
3983.00,0.0016
3982.00,0.0016
3981.00,0.0016
3980.00,0.0016
3979.00,0.0015
3978.00,0.0015
3977.00,0.0016
3976.00,0.0016
3975.00,0.0016
3974.00,0.0016
3973.00,0.0016
3972.00,0.0016
3971.00,0.0016
3970.00,0.0015
3969.00,0.0015
3968.00,0.0015
3967.00,0.0015
3966.00,0.0015
3965.00,0.0015
3964.00,0.0015
3963.00,0.0015
3962.00,0.0015
3961.00,0.0016
3960.00,0.0016
3959.00,0.0015
3958.00,0.0015
3957.00,0.0015
3956.00,0.0015
3955.00,0.0015
3954.00,0.0016
3953.00,0.0015
3952.00,0.0015
3951.00,0.0015
3950.00,0.0014
3949.00,0.0014
3948.00,0.0014
3947.00,0.0014
3946.00,0.0014
3945.00,0.0014
3944.00,0.0014
3943.00,0.0015
3942.00,0.0015
3941.00,0.0015
3940.00,0.0015
3939.00,0.0016
3938.00,0.0016
3937.00,0.0016
3936.00,0.0015
3935.00,0.0015
3934.00,0.0014
3933.00,0.0014
3932.00,0.0015
3931.00,0.0015
3930.00,0.0015
3929.00,0.0014
3928.00,0.0014
3927.00,0.0014
3926.00,0.0014
3925.00,0.0014
3924.00,0.0014
3923.00,0.0015
3922.00,0.0015
3921.00,0.0014
3920.00,0.0014
3919.00,0.0014
3918.00,0.0015
3917.00,0.0015
3916.00,0.0015
3915.00,0.0015
3914.00,0.0015
3913.00,0.0015
3912.00,0.0015
3911.00,0.0015
3910.00,0.0015
3909.00,0.0014
3908.00,0.0014
3907.00,0.0014
3906.00,0.0013
3905.00,0.0013
3904.00,0.0013
3903.00,0.0012
3902.00,0.0012
3901.00,0.0012
3900.00,0.0012
3899.00,0.0013
3898.00,0.0014
3897.00,0.0014
3896.00,0.0014
3895.00,0.0014
3894.00,0.0014
3893.00,0.0014
3892.00,0.0014
3891.00,0.0015
3890.00,0.0015
3889.00,0.0014
3888.00,0.0014
3887.00,0.0013
3886.00,0.0013
3885.00,0.0013
3884.00,0.0013
3883.00,0.0013
3882.00,0.0013
3881.00,0.0014
3880.00,0.0014
3879.00,0.0015
3878.00,0.0014
3877.00,0.0014
3876.00,0.0014
3875.00,0.0014
3874.00,0.0014
3873.00,0.0014
3872.00,0.0013
3871.00,0.0013
3870.00,0.0013
3869.00,0.0013
3868.00,0.0013
3867.00,0.0012
3866.00,0.0013
3865.00,0.0013
3864.00,0.0014
3863.00,0.0014
3862.00,0.0014
3861.00,0.0014
3860.00,0.0014
3859.00,0.0014
3858.00,0.0014
3857.00,0.0014
3856.00,0.0013
3855.00,0.0013
3854.00,0.0013
3853.00,0.0013
3852.00,0.0012
3851.00,0.0012
3850.00,0.0012
3849.00,0.0013
3848.00,0.0014
3847.00,0.0014
3846.00,0.0014
3845.00,0.0014
3844.00,0.0014
3843.00,0.0014
3842.00,0.0014
3841.00,0.0014
3840.00,0.0014
3839.00,0.0014
3838.00,0.0014
3837.00,0.0014
3836.00,0.0014
3835.00,0.0014
3834.00,0.0014
3833.00,0.0014
3832.00,0.0014
3831.00,0.0014
3830.00,0.0014
3829.00,0.0015
3828.00,0.0015
3827.00,0.0015
3826.00,0.0016
3825.00,0.0015
3824.00,0.0015
3823.00,0.0015
3822.00,0.0015
3821.00,0.0015
3820.00,0.0014
3819.00,0.0013
3818.00,0.0013
3817.00,0.0013
3816.00,0.0014
3815.00,0.0015
3814.00,0.0015
3813.00,0.0015
3812.00,0.0015
3811.00,0.0016
3810.00,0.0016
3809.00,0.0015
3808.00,0.0015
3807.00,0.0015
3806.00,0.0015
3805.00,0.0015
3804.00,0.0014
3803.00,0.0014
3802.00,0.0013
3801.00,0.0013
3800.00,0.0013
3799.00,0.0013
3798.00,0.0014
3797.00,0.0014
3796.00,0.0015
3795.00,0.0015
3794.00,0.0015
3793.00,0.0016
3792.00,0.0016
3791.00,0.0016
3790.00,0.0016
3789.00,0.0016
3788.00,0.0016
3787.00,0.0016
3786.00,0.0016
3785.00,0.0016
3784.00,0.0016
3783.00,0.0016
3782.00,0.0016
3781.00,0.0016
3780.00,0.0016
3779.00,0.0016
3778.00,0.0016
3777.00,0.0016
3776.00,0.0015
3775.00,0.0015
3774.00,0.0015
3773.00,0.0016
3772.00,0.0016
3771.00,0.0016
3770.00,0.0016
3769.00,0.0016
3768.00,0.0015
3767.00,0.0015
3766.00,0.0015
3765.00,0.0015
3764.00,0.0015
3763.00,0.0015
3762.00,0.0015
3761.00,0.0016
3760.00,0.0016
3759.00,0.0015
3758.00,0.0015
3757.00,0.0014
3756.00,0.0014
3755.00,0.0014
3754.00,0.0014
3753.00,0.0014
3752.00,0.0013
3751.00,0.0013
3750.00,0.0013
3749.00,0.0013
3748.00,0.0012
3747.00,0.0011
3746.00,0.0011
3745.00,0.0012
3744.00,0.0012
3743.00,0.0012
3742.00,0.0012
3741.00,0.0012
3740.00,0.0012
3739.00,0.0012
3738.00,0.0012
3737.00,0.0012
3736.00,0.0012
3735.00,0.0013
3734.00,0.0013
3733.00,0.0013
3732.00,0.0013
3731.00,0.0013
3730.00,0.0013
3729.00,0.0013
3728.00,0.0013
3727.00,0.0013
3726.00,0.0013
3725.00,0.0013
3724.00,0.0013
3723.00,0.0013
3722.00,0.0014
3721.00,0.0014
3720.00,0.0014
3719.00,0.0014
3718.00,0.0015
3717.00,0.0015
3716.00,0.0015
3715.00,0.0015
3714.00,0.0014
3713.00,0.0014
3712.00,0.0014
3711.00,0.0014
3710.00,0.0014
3709.00,0.0014
3708.00,0.0014
3707.00,0.0014
3706.00,0.0014
3705.00,0.0014
3704.00,0.0014
3703.00,0.0014
3702.00,0.0014
3701.00,0.0014
3700.00,0.0014
3699.00,0.0015
3698.00,0.0015
3697.00,0.0015
3696.00,0.0015
3695.00,0.0016
3694.00,0.0016
3693.00,0.0016
3692.00,0.0015
3691.00,0.0015
3690.00,0.0015
3689.00,0.0015
3688.00,0.0014
3687.00,0.0014
3686.00,0.0014
3685.00,0.0014
3684.00,0.0015
3683.00,0.0015
3682.00,0.0016
3681.00,0.0016
3680.00,0.0016
3679.00,0.0015
3678.00,0.0015
3677.00,0.0014
3676.00,0.0014
3675.00,0.0013
3674.00,0.0013
3673.00,0.0013
3672.00,0.0013
3671.00,0.0014
3670.00,0.0015
3669.00,0.0016
3668.00,0.0017
3667.00,0.0017
3666.00,0.0017
3665.00,0.0018
3664.00,0.0018
3663.00,0.0018
3662.00,0.0018
3661.00,0.0019
3660.00,0.0019
3659.00,0.0019
3658.00,0.0019
3657.00,0.0019
3656.00,0.0019
3655.00,0.0019
3654.00,0.0018
3653.00,0.0018
3652.00,0.0017
3651.00,0.0017
3650.00,0.0016
3649.00,0.0016
3648.00,0.0015
3647.00,0.0016
3646.00,0.0017
3645.00,0.0018
3644.00,0.0019
3643.00,0.0020
3642.00,0.0021
3641.00,0.0021
3640.00,0.0022
3639.00,0.0022
3638.00,0.0022
3637.00,0.0022
3636.00,0.0022
3635.00,0.0023
3634.00,0.0023
3633.00,0.0023
3632.00,0.0023
3631.00,0.0023
3630.00,0.0023
3629.00,0.0023
3628.00,0.0023
3627.00,0.0023
3626.00,0.0024
3625.00,0.0024
3624.00,0.0025
3623.00,0.0025
3622.00,0.0024
3621.00,0.0024
3620.00,0.0024
3619.00,0.0024
3618.00,0.0025
3617.00,0.0025
3616.00,0.0025
3615.00,0.0025
3614.00,0.0026
3613.00,0.0026
3612.00,0.0027
3611.00,0.0027
3610.00,0.0027
3609.00,0.0027
3608.00,0.0028
3607.00,0.0028
3606.00,0.0029
3605.00,0.0030
3604.00,0.0031
3603.00,0.0032
3602.00,0.0033
3601.00,0.0033
3600.00,0.0033
3599.00,0.0032
3598.00,0.0032
3597.00,0.0032
3596.00,0.0032
3595.00,0.0032
3594.00,0.0033
3593.00,0.0034
3592.00,0.0034
3591.00,0.0034
3590.00,0.0034
3589.00,0.0034
3588.00,0.0035
3587.00,0.0035
3586.00,0.0035
3585.00,0.0036
3584.00,0.0036
3583.00,0.0037
3582.00,0.0038
3581.00,0.0039
3580.00,0.0039
3579.00,0.0039
3578.00,0.0040
3577.00,0.0040
3576.00,0.0041
3575.00,0.0041
3574.00,0.0041
3573.00,0.0041
3572.00,0.0041
3571.00,0.0041
3570.00,0.0040
3569.00,0.0040
3568.00,0.0041
3567.00,0.0041
3566.00,0.0041
3565.00,0.0042
3564.00,0.0042
3563.00,0.0043
3562.00,0.0044
3561.00,0.0045
3560.00,0.0046
3559.00,0.0047
3558.00,0.0048
3557.00,0.0048
3556.00,0.0048
3555.00,0.0048
3554.00,0.0048
3553.00,0.0048
3552.00,0.0048
3551.00,0.0048
3550.00,0.0048
3549.00,0.0048
3548.00,0.0049
3547.00,0.0050
3546.00,0.0051
3545.00,0.0051
3544.00,0.0051
3543.00,0.0052
3542.00,0.0052
3541.00,0.0053
3540.00,0.0053
3539.00,0.0054
3538.00,0.0054
3537.00,0.0054
3536.00,0.0055
3535.00,0.0055
3534.00,0.0055
3533.00,0.0056
3532.00,0.0056
3531.00,0.0057
3530.00,0.0057
3529.00,0.0057
3528.00,0.0057
3527.00,0.0058
3526.00,0.0058
3525.00,0.0058
3524.00,0.0059
3523.00,0.0060
3522.00,0.0061
3521.00,0.0061
3520.00,0.0062
3519.00,0.0062
3518.00,0.0062
3517.00,0.0062
3516.00,0.0062
3515.00,0.0062
3514.00,0.0063
3513.00,0.0063
3512.00,0.0064
3511.00,0.0064
3510.00,0.0064
3509.00,0.0064
3508.00,0.0065
3507.00,0.0065
3506.00,0.0065
3505.00,0.0066
3504.00,0.0066
3503.00,0.0067
3502.00,0.0067
3501.00,0.0067
3500.00,0.0068
3499.00,0.0068
3498.00,0.0068
3497.00,0.0069
3496.00,0.0069
3495.00,0.0070
3494.00,0.0070
3493.00,0.0070
3492.00,0.0070
3491.00,0.0070
3490.00,0.0070
3489.00,0.0070
3488.00,0.0071
3487.00,0.0072
3486.00,0.0073
3485.00,0.0073
3484.00,0.0073
3483.00,0.0073
3482.00,0.0074
3481.00,0.0074
3480.00,0.0075
3479.00,0.0076
3478.00,0.0076
3477.00,0.0076
3476.00,0.0077
3475.00,0.0077
3474.00,0.0077
3473.00,0.0078
3472.00,0.0078
3471.00,0.0079
3470.00,0.0079
3469.00,0.0080
3468.00,0.0081
3467.00,0.0081
3466.00,0.0081
3465.00,0.0081
3464.00,0.0081
3463.00,0.0081
3462.00,0.0082
3461.00,0.0082
3460.00,0.0082
3459.00,0.0083
3458.00,0.0083
3457.00,0.0084
3456.00,0.0084
3455.00,0.0085
3454.00,0.0085
3453.00,0.0085
3452.00,0.0085
3451.00,0.0086
3450.00,0.0086
3449.00,0.0086
3448.00,0.0087
3447.00,0.0087
3446.00,0.0087
3445.00,0.0087
3444.00,0.0087
3443.00,0.0088
3442.00,0.0088
3441.00,0.0089
3440.00,0.0089
3439.00,0.0090
3438.00,0.0091
3437.00,0.0092
3436.00,0.0092
3435.00,0.0092
3434.00,0.0093
3433.00,0.0093
3432.00,0.0093
3431.00,0.0093
3430.00,0.0094
3429.00,0.0094
3428.00,0.0094
3427.00,0.0094
3426.00,0.0094
3425.00,0.0094
3424.00,0.0095
3423.00,0.0095
3422.00,0.0096
3421.00,0.0097
3420.00,0.0097
3419.00,0.0098
3418.00,0.0098
3417.00,0.0098
3416.00,0.0098
3415.00,0.0099
3414.00,0.0099
3413.00,0.0100
3412.00,0.0101
3411.00,0.0101
3410.00,0.0102
3409.00,0.0102
3408.00,0.0102
3407.00,0.0103
3406.00,0.0103
3405.00,0.0103
3404.00,0.0103
3403.00,0.0103
3402.00,0.0104
3401.00,0.0105
3400.00,0.0106
3399.00,0.0106
3398.00,0.0106
3397.00,0.0107
3396.00,0.0107
3395.00,0.0107
3394.00,0.0108
3393.00,0.0108
3392.00,0.0109
3391.00,0.0109
3390.00,0.0109
3389.00,0.0110
3388.00,0.0110
3387.00,0.0110
3386.00,0.0111
3385.00,0.0111
3384.00,0.0112
3383.00,0.0112
3382.00,0.0112
3381.00,0.0113
3380.00,0.0113
3379.00,0.0114
3378.00,0.0114
3377.00,0.0115
3376.00,0.0115
3375.00,0.0116
3374.00,0.0116
3373.00,0.0117
3372.00,0.0117
3371.00,0.0118
3370.00,0.0118
3369.00,0.0119
3368.00,0.0119
3367.00,0.0119
3366.00,0.0120
3365.00,0.0120
3364.00,0.0120
3363.00,0.0121
3362.00,0.0121
3361.00,0.0122
3360.00,0.0123
3359.00,0.0124
3358.00,0.0125
3357.00,0.0125
3356.00,0.0126
3355.00,0.0127
3354.00,0.0127
3353.00,0.0128
3352.00,0.0128
3351.00,0.0129
3350.00,0.0129
3349.00,0.0130
3348.00,0.0130
3347.00,0.0131
3346.00,0.0131
3345.00,0.0132
3344.00,0.0133
3343.00,0.0133
3342.00,0.0134
3341.00,0.0135
3340.00,0.0135
3339.00,0.0136
3338.00,0.0136
3337.00,0.0137
3336.00,0.0137
3335.00,0.0138
3334.00,0.0139
3333.00,0.0140
3332.00,0.0141
3331.00,0.0142
3330.00,0.0143
3329.00,0.0143
3328.00,0.0144
3327.00,0.0144
3326.00,0.0145
3325.00,0.0145
3324.00,0.0146
3323.00,0.0147
3322.00,0.0147
3321.00,0.0148
3320.00,0.0150
3319.00,0.0151
3318.00,0.0152
3317.00,0.0152
3316.00,0.0153
3315.00,0.0154
3314.00,0.0155
3313.00,0.0156
3312.00,0.0157
3311.00,0.0158
3310.00,0.0159
3309.00,0.0160
3308.00,0.0161
3307.00,0.0162
3306.00,0.0163
3305.00,0.0164
3304.00,0.0164
3303.00,0.0165
3302.00,0.0166
3301.00,0.0167
3300.00,0.0167
3299.00,0.0168
3298.00,0.0169
3297.00,0.0169
3296.00,0.0170
3295.00,0.0171
3294.00,0.0172
3293.00,0.0173
3292.00,0.0173
3291.00,0.0174
3290.00,0.0174
3289.00,0.0175
3288.00,0.0175
3287.00,0.0176
3286.00,0.0177
3285.00,0.0177
3284.00,0.0178
3283.00,0.0178
3282.00,0.0178
3281.00,0.0178
3280.00,0.0179
3279.00,0.0179
3278.00,0.0179
3277.00,0.0179
3276.00,0.0179
3275.00,0.0179
3274.00,0.0179
3273.00,0.0179
3272.00,0.0179
3271.00,0.0179
3270.00,0.0178
3269.00,0.0178
3268.00,0.0177
3267.00,0.0177
3266.00,0.0176
3265.00,0.0175
3264.00,0.0174
3263.00,0.0174
3262.00,0.0173
3261.00,0.0173
3260.00,0.0173
3259.00,0.0173
3258.00,0.0172
3257.00,0.0171
3256.00,0.0170
3255.00,0.0168
3254.00,0.0167
3253.00,0.0166
3252.00,0.0166
3251.00,0.0165
3250.00,0.0164
3249.00,0.0163
3248.00,0.0162
3247.00,0.0161
3246.00,0.0161
3245.00,0.0160
3244.00,0.0160
3243.00,0.0159
3242.00,0.0158
3241.00,0.0157
3240.00,0.0156
3239.00,0.0156
3238.00,0.0155
3237.00,0.0154
3236.00,0.0154
3235.00,0.0153
3234.00,0.0153
3233.00,0.0152
3232.00,0.0151
3231.00,0.0150
3230.00,0.0149
3229.00,0.0149
3228.00,0.0149
3227.00,0.0148
3226.00,0.0148
3225.00,0.0147
3224.00,0.0147
3223.00,0.0146
3222.00,0.0146
3221.00,0.0145
3220.00,0.0145
3219.00,0.0144
3218.00,0.0143
3217.00,0.0143
3216.00,0.0142
3215.00,0.0142
3214.00,0.0142
3213.00,0.0141
3212.00,0.0141
3211.00,0.0141
3210.00,0.0140
3209.00,0.0139
3208.00,0.0139
3207.00,0.0139
3206.00,0.0139
3205.00,0.0139
3204.00,0.0138
3203.00,0.0138
3202.00,0.0138
3201.00,0.0137
3200.00,0.0137
3199.00,0.0136
3198.00,0.0136
3197.00,0.0135
3196.00,0.0135
3195.00,0.0135
3194.00,0.0134
3193.00,0.0134
3192.00,0.0133
3191.00,0.0132
3190.00,0.0132
3189.00,0.0131
3188.00,0.0131
3187.00,0.0130
3186.00,0.0130
3185.00,0.0129
3184.00,0.0129
3183.00,0.0128
3182.00,0.0128
3181.00,0.0128
3180.00,0.0127
3179.00,0.0127
3178.00,0.0126
3177.00,0.0126
3176.00,0.0125
3175.00,0.0124
3174.00,0.0124
3173.00,0.0123
3172.00,0.0122
3171.00,0.0122
3170.00,0.0121
3169.00,0.0121
3168.00,0.0121
3167.00,0.0121
3166.00,0.0120
3165.00,0.0119
3164.00,0.0118
3163.00,0.0118
3162.00,0.0117
3161.00,0.0117
3160.00,0.0117
3159.00,0.0116
3158.00,0.0116
3157.00,0.0115
3156.00,0.0114
3155.00,0.0114
3154.00,0.0113
3153.00,0.0113
3152.00,0.0113
3151.00,0.0113
3150.00,0.0112
3149.00,0.0111
3148.00,0.0111
3147.00,0.0110
3146.00,0.0110
3145.00,0.0109
3144.00,0.0109
3143.00,0.0109
3142.00,0.0108
3141.00,0.0108
3140.00,0.0107
3139.00,0.0107
3138.00,0.0107
3137.00,0.0106
3136.00,0.0106
3135.00,0.0105
3134.00,0.0105
3133.00,0.0104
3132.00,0.0104
3131.00,0.0104
3130.00,0.0103
3129.00,0.0103
3128.00,0.0102
3127.00,0.0102
3126.00,0.0102
3125.00,0.0102
3124.00,0.0102
3123.00,0.0101
3122.00,0.0100
3121.00,0.0100
3120.00,0.0100
3119.00,0.0099
3118.00,0.0099
3117.00,0.0099
3116.00,0.0099
3115.00,0.0099
3114.00,0.0099
3113.00,0.0099
3112.00,0.0099
3111.00,0.0098
3110.00,0.0098
3109.00,0.0098
3108.00,0.0098
3107.00,0.0098
3106.00,0.0098
3105.00,0.0098
3104.00,0.0098
3103.00,0.0098
3102.00,0.0098
3101.00,0.0098
3100.00,0.0099
3099.00,0.0099
3098.00,0.0099
3097.00,0.0099
3096.00,0.0099
3095.00,0.0099
3094.00,0.0100
3093.00,0.0100
3092.00,0.0101
3091.00,0.0101
3090.00,0.0101
3089.00,0.0100
3088.00,0.0100
3087.00,0.0100
3086.00,0.0100
3085.00,0.0100
3084.00,0.0100
3083.00,0.0100
3082.00,0.0100
3081.00,0.0100
3080.00,0.0100
3079.00,0.0101
3078.00,0.0101
3077.00,0.0101
3076.00,0.0101
3075.00,0.0101
3074.00,0.0101
3073.00,0.0101
3072.00,0.0101
3071.00,0.0101
3070.00,0.0101
3069.00,0.0101
3068.00,0.0101
3067.00,0.0101
3066.00,0.0101
3065.00,0.0101
3064.00,0.0101
3063.00,0.0101
3062.00,0.0101
3061.00,0.0101
3060.00,0.0101
3059.00,0.0101
3058.00,0.0101
3057.00,0.0100
3056.00,0.0100
3055.00,0.0100
3054.00,0.0100
3053.00,0.0099
3052.00,0.0098
3051.00,0.0098
3050.00,0.0097
3049.00,0.0096
3048.00,0.0096
3047.00,0.0096
3046.00,0.0096
3045.00,0.0096
3044.00,0.0095
3043.00,0.0095
3042.00,0.0095
3041.00,0.0095
3040.00,0.0094
3039.00,0.0094
3038.00,0.0094
3037.00,0.0094
3036.00,0.0093
3035.00,0.0093
3034.00,0.0093
3033.00,0.0092
3032.00,0.0091
3031.00,0.0091
3030.00,0.0090
3029.00,0.0090
3028.00,0.0090
3027.00,0.0089
3026.00,0.0089
3025.00,0.0089
3024.00,0.0088
3023.00,0.0088
3022.00,0.0087
3021.00,0.0087
3020.00,0.0086
3019.00,0.0085
3018.00,0.0084
3017.00,0.0083
3016.00,0.0082
3015.00,0.0081
3014.00,0.0082
3013.00,0.0082
3012.00,0.0083
3011.00,0.0083
3010.00,0.0083
3009.00,0.0083
3008.00,0.0083
3007.00,0.0082
3006.00,0.0081
3005.00,0.0081
3004.00,0.0080
3003.00,0.0080
3002.00,0.0080
3001.00,0.0080
3000.00,0.0080
2999.00,0.0080
2998.00,0.0080
2997.00,0.0080
2996.00,0.0079
2995.00,0.0079
2994.00,0.0079
2993.00,0.0079
2992.00,0.0080
2991.00,0.0081
2990.00,0.0081
2989.00,0.0082
2988.00,0.0082
2987.00,0.0082
2986.00,0.0082
2985.00,0.0082
2984.00,0.0082
2983.00,0.0082
2982.00,0.0083
2981.00,0.0083
2980.00,0.0085
2979.00,0.0086
2978.00,0.0087
2977.00,0.0088
2976.00,0.0089
2975.00,0.0090
2974.00,0.0091
2973.00,0.0092
2972.00,0.0094
2971.00,0.0095
2970.00,0.0096
2969.00,0.0098
2968.00,0.0099
2967.00,0.0100
2966.00,0.0101
2965.00,0.0102
2964.00,0.0103
2963.00,0.0104
2962.00,0.0105
2961.00,0.0105
2960.00,0.0106
2959.00,0.0106
2958.00,0.0106
2957.00,0.0105
2956.00,0.0105
2955.00,0.0105
2954.00,0.0105
2953.00,0.0104
2952.00,0.0104
2951.00,0.0103
2950.00,0.0102
2949.00,0.0102
2948.00,0.0101
2947.00,0.0101
2946.00,0.0101
2945.00,0.0101
2944.00,0.0102
2943.00,0.0103
2942.00,0.0104
2941.00,0.0105
2940.00,0.0106
2939.00,0.0107
2938.00,0.0108
2937.00,0.0109
2936.00,0.0110
2935.00,0.0111
2934.00,0.0112
2933.00,0.0113
2932.00,0.0113
2931.00,0.0114
2930.00,0.0115
2929.00,0.0116
2928.00,0.0116
2927.00,0.0117
2926.00,0.0117
2925.00,0.0117
2924.00,0.0117
2923.00,0.0117
2922.00,0.0117
2921.00,0.0116
2920.00,0.0115
2919.00,0.0114
2918.00,0.0113
2917.00,0.0111
2916.00,0.0109
2915.00,0.0108
2914.00,0.0106
2913.00,0.0105
2912.00,0.0104
2911.00,0.0102
2910.00,0.0101
2909.00,0.0100
2908.00,0.0098
2907.00,0.0097
2906.00,0.0096
2905.00,0.0095
2904.00,0.0094
2903.00,0.0093
2902.00,0.0092
2901.00,0.0091
2900.00,0.0091
2899.00,0.0090
2898.00,0.0090
2897.00,0.0089
2896.00,0.0088
2895.00,0.0088
2894.00,0.0087
2893.00,0.0086
2892.00,0.0086
2891.00,0.0086
2890.00,0.0085
2889.00,0.0085
2888.00,0.0084
2887.00,0.0084
2886.00,0.0084
2885.00,0.0084
2884.00,0.0085
2883.00,0.0085
2882.00,0.0085
2881.00,0.0085
2880.00,0.0086
2879.00,0.0086
2878.00,0.0087
2877.00,0.0087
2876.00,0.0087
2875.00,0.0087
2874.00,0.0087
2873.00,0.0087
2872.00,0.0086
2871.00,0.0086
2870.00,0.0086
2869.00,0.0086
2868.00,0.0085
2867.00,0.0085
2866.00,0.0084
2865.00,0.0084
2864.00,0.0084
2863.00,0.0083
2862.00,0.0083
2861.00,0.0083
2860.00,0.0083
2859.00,0.0083
2858.00,0.0084
2857.00,0.0084
2856.00,0.0085
2855.00,0.0085
2854.00,0.0085
2853.00,0.0085
2852.00,0.0085
2851.00,0.0085
2850.00,0.0084
2849.00,0.0083
2848.00,0.0081
2847.00,0.0080
2846.00,0.0078
2845.00,0.0077
2844.00,0.0076
2843.00,0.0074
2842.00,0.0073
2841.00,0.0072
2840.00,0.0072
2839.00,0.0071
2838.00,0.0071
2837.00,0.0070
2836.00,0.0069
2835.00,0.0069
2834.00,0.0068
2833.00,0.0068
2832.00,0.0067
2831.00,0.0067
2830.00,0.0067
2829.00,0.0066
2828.00,0.0066
2827.00,0.0066
2826.00,0.0066
2825.00,0.0066
2824.00,0.0065
2823.00,0.0065
2822.00,0.0065
2821.00,0.0065
2820.00,0.0065
2819.00,0.0064
2818.00,0.0064
2817.00,0.0063
2816.00,0.0063
2815.00,0.0063
2814.00,0.0063
2813.00,0.0063
2812.00,0.0063
2811.00,0.0063
2810.00,0.0062
2809.00,0.0062
2808.00,0.0062
2807.00,0.0062
2806.00,0.0062
2805.00,0.0061
2804.00,0.0061
2803.00,0.0061
2802.00,0.0061
2801.00,0.0061
2800.00,0.0061
2799.00,0.0060
2798.00,0.0060
2797.00,0.0060
2796.00,0.0059
2795.00,0.0059
2794.00,0.0059
2793.00,0.0059
2792.00,0.0059
2791.00,0.0059
2790.00,0.0059
2789.00,0.0059
2788.00,0.0059
2787.00,0.0059
2786.00,0.0058
2785.00,0.0058
2784.00,0.0058
2783.00,0.0058
2782.00,0.0058
2781.00,0.0057
2780.00,0.0057
2779.00,0.0057
2778.00,0.0057
2777.00,0.0057
2776.00,0.0057
2775.00,0.0057
2774.00,0.0057
2773.00,0.0056
2772.00,0.0056
2771.00,0.0056
2770.00,0.0056
2769.00,0.0056
2768.00,0.0056
2767.00,0.0056
2766.00,0.0056
2765.00,0.0055
2764.00,0.0055
2763.00,0.0054
2762.00,0.0054
2761.00,0.0054
2760.00,0.0055
2759.00,0.0055
2758.00,0.0054
2757.00,0.0054
2756.00,0.0054
2755.00,0.0054
2754.00,0.0054
2753.00,0.0054
2752.00,0.0054
2751.00,0.0053
2750.00,0.0053
2749.00,0.0053
2748.00,0.0053
2747.00,0.0053
2746.00,0.0053
2745.00,0.0053
2744.00,0.0052
2743.00,0.0052
2742.00,0.0052
2741.00,0.0052
2740.00,0.0052
2739.00,0.0052
2738.00,0.0052
2737.00,0.0052
2736.00,0.0052
2735.00,0.0051
2734.00,0.0051
2733.00,0.0051
2732.00,0.0051
2731.00,0.0051
2730.00,0.0050
2729.00,0.0050
2728.00,0.0050
2727.00,0.0050
2726.00,0.0050
2725.00,0.0050
2724.00,0.0050
2723.00,0.0050
2722.00,0.0049
2721.00,0.0049
2720.00,0.0049
2719.00,0.0049
2718.00,0.0049
2717.00,0.0049
2716.00,0.0049
2715.00,0.0049
2714.00,0.0049
2713.00,0.0049
2712.00,0.0049
2711.00,0.0049
2710.00,0.0048
2709.00,0.0048
2708.00,0.0048
2707.00,0.0048
2706.00,0.0048
2705.00,0.0048
2704.00,0.0048
2703.00,0.0048
2702.00,0.0048
2701.00,0.0048
2700.00,0.0048
2699.00,0.0047
2698.00,0.0047
2697.00,0.0047
2696.00,0.0047
2695.00,0.0047
2694.00,0.0047
2693.00,0.0047
2692.00,0.0047
2691.00,0.0047
2690.00,0.0047
2689.00,0.0047
2688.00,0.0046
2687.00,0.0046
2686.00,0.0046
2685.00,0.0046
2684.00,0.0046
2683.00,0.0046
2682.00,0.0046
2681.00,0.0046
2680.00,0.0046
2679.00,0.0046
2678.00,0.0046
2677.00,0.0046
2676.00,0.0046
2675.00,0.0046
2674.00,0.0046
2673.00,0.0046
2672.00,0.0046
2671.00,0.0046
2670.00,0.0046
2669.00,0.0046
2668.00,0.0046
2667.00,0.0046
2666.00,0.0047
2665.00,0.0047
2664.00,0.0047
2663.00,0.0047
2662.00,0.0048
2661.00,0.0048
2660.00,0.0048
2659.00,0.0049
2658.00,0.0049
2657.00,0.0049
2656.00,0.0049
2655.00,0.0049
2654.00,0.0049
2653.00,0.0049
2652.00,0.0049
2651.00,0.0049
2650.00,0.0049
2649.00,0.0050
2648.00,0.0050
2647.00,0.0050
2646.00,0.0050
2645.00,0.0049
2644.00,0.0049
2643.00,0.0049
2642.00,0.0049
2641.00,0.0050
2640.00,0.0049
2639.00,0.0049
2638.00,0.0049
2637.00,0.0049
2636.00,0.0049
2635.00,0.0049
2634.00,0.0049
2633.00,0.0049
2632.00,0.0048
2631.00,0.0048
2630.00,0.0048
2629.00,0.0048
2628.00,0.0048
2627.00,0.0049
2626.00,0.0049
2625.00,0.0049
2624.00,0.0048
2623.00,0.0048
2622.00,0.0048
2621.00,0.0048
2620.00,0.0047
2619.00,0.0047
2618.00,0.0047
2617.00,0.0047
2616.00,0.0047
2615.00,0.0047
2614.00,0.0047
2613.00,0.0047
2612.00,0.0046
2611.00,0.0046
2610.00,0.0046
2609.00,0.0046
2608.00,0.0045
2607.00,0.0045
2606.00,0.0045
2605.00,0.0045
2604.00,0.0045
2603.00,0.0045
2602.00,0.0045
2601.00,0.0046
2600.00,0.0046
2599.00,0.0045
2598.00,0.0045
2597.00,0.0045
2596.00,0.0045
2595.00,0.0045
2594.00,0.0044
2593.00,0.0044
2592.00,0.0044
2591.00,0.0044
2590.00,0.0044
2589.00,0.0044
2588.00,0.0044
2587.00,0.0044
2586.00,0.0044
2585.00,0.0043
2584.00,0.0043
2583.00,0.0043
2582.00,0.0043
2581.00,0.0043
2580.00,0.0043
2579.00,0.0043
2578.00,0.0043
2577.00,0.0043
2576.00,0.0043
2575.00,0.0043
2574.00,0.0043
2573.00,0.0042
2572.00,0.0042
2571.00,0.0042
2570.00,0.0042
2569.00,0.0043
2568.00,0.0043
2567.00,0.0043
2566.00,0.0043
2565.00,0.0042
2564.00,0.0042
2563.00,0.0042
2562.00,0.0042
2561.00,0.0041
2560.00,0.0042
2559.00,0.0042
2558.00,0.0042
2557.00,0.0042
2556.00,0.0041
2555.00,0.0041
2554.00,0.0041
2553.00,0.0040
2552.00,0.0041
2551.00,0.0041
2550.00,0.0041
2549.00,0.0041
2548.00,0.0040
2547.00,0.0040
2546.00,0.0040
2545.00,0.0041
2544.00,0.0041
2543.00,0.0041
2542.00,0.0040
2541.00,0.0039
2540.00,0.0039
2539.00,0.0040
2538.00,0.0040
2537.00,0.0041
2536.00,0.0041
2535.00,0.0041
2534.00,0.0040
2533.00,0.0039
2532.00,0.0039
2531.00,0.0039
2530.00,0.0039
2529.00,0.0039
2528.00,0.0039
2527.00,0.0039
2526.00,0.0039
2525.00,0.0038
2524.00,0.0038
2523.00,0.0038
2522.00,0.0039
2521.00,0.0039
2520.00,0.0039
2519.00,0.0039
2518.00,0.0039
2517.00,0.0039
2516.00,0.0038
2515.00,0.0038
2514.00,0.0037
2513.00,0.0037
2512.00,0.0037
2511.00,0.0037
2510.00,0.0038
2509.00,0.0038
2508.00,0.0038
2507.00,0.0038
2506.00,0.0038
2505.00,0.0038
2504.00,0.0038
2503.00,0.0038
2502.00,0.0038
2501.00,0.0037
2500.00,0.0037
2499.00,0.0037
2498.00,0.0037
2497.00,0.0037
2496.00,0.0037
2495.00,0.0037
2494.00,0.0037
2493.00,0.0037
2492.00,0.0037
2491.00,0.0037
2490.00,0.0037
2489.00,0.0037
2488.00,0.0036
2487.00,0.0036
2486.00,0.0036
2485.00,0.0036
2484.00,0.0037
2483.00,0.0036
2482.00,0.0036
2481.00,0.0036
2480.00,0.0036
2479.00,0.0037
2478.00,0.0037
2477.00,0.0037
2476.00,0.0036
2475.00,0.0036
2474.00,0.0036
2473.00,0.0036
2472.00,0.0036
2471.00,0.0036
2470.00,0.0036
2469.00,0.0035
2468.00,0.0035
2467.00,0.0035
2466.00,0.0035
2465.00,0.0036
2464.00,0.0036
2463.00,0.0035
2462.00,0.0035
2461.00,0.0035
2460.00,0.0036
2459.00,0.0036
2458.00,0.0036
2457.00,0.0036
2456.00,0.0036
2455.00,0.0036
2454.00,0.0036
2453.00,0.0036
2452.00,0.0036
2451.00,0.0036
2450.00,0.0036
2449.00,0.0035
2448.00,0.0035
2447.00,0.0035
2446.00,0.0035
2445.00,0.0035
2444.00,0.0035
2443.00,0.0035
2442.00,0.0035
2441.00,0.0035
2440.00,0.0034
2439.00,0.0034
2438.00,0.0034
2437.00,0.0034
2436.00,0.0033
2435.00,0.0033
2434.00,0.0033
2433.00,0.0033
2432.00,0.0033
2431.00,0.0033
2430.00,0.0032
2429.00,0.0032
2428.00,0.0033
2427.00,0.0033
2426.00,0.0034
2425.00,0.0034
2424.00,0.0034
2423.00,0.0033
2422.00,0.0033
2421.00,0.0033
2420.00,0.0033
2419.00,0.0033
2418.00,0.0032
2417.00,0.0032
2416.00,0.0032
2415.00,0.0032
2414.00,0.0032
2413.00,0.0032
2412.00,0.0033
2411.00,0.0033
2410.00,0.0033
2409.00,0.0032
2408.00,0.0031
2407.00,0.0031
2406.00,0.0030
2405.00,0.0030
2404.00,0.0030
2403.00,0.0031
2402.00,0.0031
2401.00,0.0031
2400.00,0.0031
2399.00,0.0031
2398.00,0.0031
2397.00,0.0031
2396.00,0.0030
2395.00,0.0030
2394.00,0.0030
2393.00,0.0030
2392.00,0.0030
2391.00,0.0030
2390.00,0.0030
2389.00,0.0030
2388.00,0.0029
2387.00,0.0029
2386.00,0.0029
2385.00,0.0029
2384.00,0.0028
2383.00,0.0028
2382.00,0.0028
2381.00,0.0028
2380.00,0.0028
2379.00,0.0028
2378.00,0.0028
2377.00,0.0029
2376.00,0.0029
2375.00,0.0028
2374.00,0.0028
2373.00,0.0027
2372.00,0.0026
2371.00,0.0026
2370.00,0.0026
2369.00,0.0026
2368.00,0.0026
2367.00,0.0027
2366.00,0.0027
2365.00,0.0028
2364.00,0.0028
2363.00,0.0028
2362.00,0.0028
2361.00,0.0028
2360.00,0.0028
2359.00,0.0028
2358.00,0.0027
2357.00,0.0027
2356.00,0.0027
2355.00,0.0027
2354.00,0.0027
2353.00,0.0027
2352.00,0.0028
2351.00,0.0028
2350.00,0.0028
2349.00,0.0029
2348.00,0.0029
2347.00,0.0029
2346.00,0.0029
2345.00,0.0030
2344.00,0.0030
2343.00,0.0030
2342.00,0.0030
2341.00,0.0030
2340.00,0.0030
2339.00,0.0031
2338.00,0.0031
2337.00,0.0032
2336.00,0.0031
2335.00,0.0031
2334.00,0.0030
2333.00,0.0030
2332.00,0.0029
2331.00,0.0029
2330.00,0.0030
2329.00,0.0032
2328.00,0.0035
2327.00,0.0038
2326.00,0.0041
2325.00,0.0042
2324.00,0.0041
2323.00,0.0040
2322.00,0.0039
2321.00,0.0037
2320.00,0.0037
2319.00,0.0036
2318.00,0.0036
2317.00,0.0036
2316.00,0.0036
2315.00,0.0035
2314.00,0.0035
2313.00,0.0034
2312.00,0.0034
2311.00,0.0034
2310.00,0.0033
2309.00,0.0033
2308.00,0.0034
2307.00,0.0034
2306.00,0.0034
2305.00,0.0034
2304.00,0.0034
2303.00,0.0034
2302.00,0.0034
2301.00,0.0034
2300.00,0.0034
2299.00,0.0034
2298.00,0.0035
2297.00,0.0036
2296.00,0.0037
2295.00,0.0038
2294.00,0.0039
2293.00,0.0040
2292.00,0.0040
2291.00,0.0040
2290.00,0.0040
2289.00,0.0040
2288.00,0.0041
2287.00,0.0041
2286.00,0.0041
2285.00,0.0040
2284.00,0.0039
2283.00,0.0039
2282.00,0.0038
2281.00,0.0037
2280.00,0.0037
2279.00,0.0037
2278.00,0.0037
2277.00,0.0037
2276.00,0.0038
2275.00,0.0038
2274.00,0.0037
2273.00,0.0036
2272.00,0.0036
2271.00,0.0035
2270.00,0.0035
2269.00,0.0035
2268.00,0.0034
2267.00,0.0033
2266.00,0.0033
2265.00,0.0034
2264.00,0.0035
2263.00,0.0036
2262.00,0.0036
2261.00,0.0035
2260.00,0.0034
2259.00,0.0035
2258.00,0.0035
2257.00,0.0035
2256.00,0.0034
2255.00,0.0032
2254.00,0.0032
2253.00,0.0032
2252.00,0.0032
2251.00,0.0032
2250.00,0.0032
2249.00,0.0032
2248.00,0.0032
2247.00,0.0032
2246.00,0.0032
2245.00,0.0032
2244.00,0.0032
2243.00,0.0032
2242.00,0.0032
2241.00,0.0033
2240.00,0.0033
2239.00,0.0033
2238.00,0.0033
2237.00,0.0033
2236.00,0.0033
2235.00,0.0032
2234.00,0.0031
2233.00,0.0031
2232.00,0.0031
2231.00,0.0032
2230.00,0.0033
2229.00,0.0033
2228.00,0.0033
2227.00,0.0033
2226.00,0.0033
2225.00,0.0033
2224.00,0.0032
2223.00,0.0031
2222.00,0.0030
2221.00,0.0031
2220.00,0.0032
2219.00,0.0033
2218.00,0.0033
2217.00,0.0031
2216.00,0.0030
2215.00,0.0029
2214.00,0.0029
2213.00,0.0029
2212.00,0.0031
2211.00,0.0032
2210.00,0.0033
2209.00,0.0033
2208.00,0.0033
2207.00,0.0033
2206.00,0.0032
2205.00,0.0031
2204.00,0.0030
2203.00,0.0030
2202.00,0.0032
2201.00,0.0033
2200.00,0.0035
2199.00,0.0037
2198.00,0.0037
2197.00,0.0036
2196.00,0.0034
2195.00,0.0033
2194.00,0.0032
2193.00,0.0032
2192.00,0.0033
2191.00,0.0034
2190.00,0.0034
2189.00,0.0034
2188.00,0.0035
2187.00,0.0036
2186.00,0.0038
2185.00,0.0038
2184.00,0.0035
2183.00,0.0031
2182.00,0.0028
2181.00,0.0026
2180.00,0.0026
2179.00,0.0028
2178.00,0.0029
2177.00,0.0029
2176.00,0.0029
2175.00,0.0028
2174.00,0.0027
2173.00,0.0028
2172.00,0.0029
2171.00,0.0031
2170.00,0.0032
2169.00,0.0033
2168.00,0.0034
2167.00,0.0035
2166.00,0.0038
2165.00,0.0041
2164.00,0.0043
2163.00,0.0043
2162.00,0.0039
2161.00,0.0031
2160.00,0.0021
2159.00,0.0012
2158.00,0.0006
2157.00,0.0005
2156.00,0.0006
2155.00,0.0008
2154.00,0.0010
2153.00,0.0013
2152.00,0.0016
2151.00,0.0018
2150.00,0.0019
2149.00,0.0019
2148.00,0.0018
2147.00,0.0017
2146.00,0.0017
2145.00,0.0017
2144.00,0.0017
2143.00,0.0017
2142.00,0.0018
2141.00,0.0018
2140.00,0.0019
2139.00,0.0019
2138.00,0.0019
2137.00,0.0018
2136.00,0.0016
2135.00,0.0014
2134.00,0.0012
2133.00,0.0013
2132.00,0.0014
2131.00,0.0015
2130.00,0.0016
2129.00,0.0017
2128.00,0.0019
2127.00,0.0021
2126.00,0.0022
2125.00,0.0024
2124.00,0.0025
2123.00,0.0025
2122.00,0.0026
2121.00,0.0027
2120.00,0.0028
2119.00,0.0029
2118.00,0.0029
2117.00,0.0030
2116.00,0.0031
2115.00,0.0031
2114.00,0.0031
2113.00,0.0031
2112.00,0.0030
2111.00,0.0030
2110.00,0.0029
2109.00,0.0029
2108.00,0.0029
2107.00,0.0030
2106.00,0.0032
2105.00,0.0033
2104.00,0.0033
2103.00,0.0032
2102.00,0.0032
2101.00,0.0031
2100.00,0.0030
2099.00,0.0030
2098.00,0.0029
2097.00,0.0028
2096.00,0.0028
2095.00,0.0028
2094.00,0.0028
2093.00,0.0028
2092.00,0.0028
2091.00,0.0028
2090.00,0.0029
2089.00,0.0029
2088.00,0.0029
2087.00,0.0029
2086.00,0.0030
2085.00,0.0031
2084.00,0.0031
2083.00,0.0032
2082.00,0.0031
2081.00,0.0031
2080.00,0.0031
2079.00,0.0031
2078.00,0.0032
2077.00,0.0033
2076.00,0.0033
2075.00,0.0032
2074.00,0.0030
2073.00,0.0029
2072.00,0.0028
2071.00,0.0028
2070.00,0.0029
2069.00,0.0029
2068.00,0.0029
2067.00,0.0028
2066.00,0.0028
2065.00,0.0029
2064.00,0.0030
2063.00,0.0032
2062.00,0.0033
2061.00,0.0033
2060.00,0.0033
2059.00,0.0033
2058.00,0.0033
2057.00,0.0033
2056.00,0.0033
2055.00,0.0032
2054.00,0.0034
2053.00,0.0037
2052.00,0.0040
2051.00,0.0040
2050.00,0.0037
2049.00,0.0033
2048.00,0.0031
2047.00,0.0031
2046.00,0.0033
2045.00,0.0034
2044.00,0.0035
2043.00,0.0035
2042.00,0.0033
2041.00,0.0031
2040.00,0.0031
2039.00,0.0031
2038.00,0.0031
2037.00,0.0032
2036.00,0.0031
2035.00,0.0030
2034.00,0.0028
2033.00,0.0025
2032.00,0.0023
2031.00,0.0022
2030.00,0.0022
2029.00,0.0025
2028.00,0.0028
2027.00,0.0031
2026.00,0.0031
2025.00,0.0031
2024.00,0.0029
2023.00,0.0028
2022.00,0.0028
2021.00,0.0028
2020.00,0.0026
2019.00,0.0023
2018.00,0.0020
2017.00,0.0020
2016.00,0.0022
2015.00,0.0027
2014.00,0.0037
2013.00,0.0053
2012.00,0.0070
2011.00,0.0079
2010.00,0.0072
2009.00,0.0053
2008.00,0.0033
2007.00,0.0020
2006.00,0.0013
2005.00,0.0011
2004.00,0.0011
2003.00,0.0012
2002.00,0.0014
2001.00,0.0018
2000.00,0.0022
1999.00,0.0025
1998.00,0.0027
1997.00,0.0026
1996.00,0.0025
1995.00,0.0024
1994.00,0.0023
1993.00,0.0024
1992.00,0.0025
1991.00,0.0026
1990.00,0.0027
1989.00,0.0028
1988.00,0.0030
1987.00,0.0031
1986.00,0.0033
1985.00,0.0034
1984.00,0.0035
1983.00,0.0038
1982.00,0.0041
1981.00,0.0044
1980.00,0.0044
1979.00,0.0040
1978.00,0.0034
1977.00,0.0028
1976.00,0.0024
1975.00,0.0022
1974.00,0.0020
1973.00,0.0019
1972.00,0.0018
1971.00,0.0019
1970.00,0.0020
1969.00,0.0021
1968.00,0.0022
1967.00,0.0023
1966.00,0.0023
1965.00,0.0024
1964.00,0.0023
1963.00,0.0022
1962.00,0.0020
1961.00,0.0018
1960.00,0.0017
1959.00,0.0016
1958.00,0.0016
1957.00,0.0016
1956.00,0.0016
1955.00,0.0017
1954.00,0.0018
1953.00,0.0019
1952.00,0.0021
1951.00,0.0022
1950.00,0.0022
1949.00,0.0021
1948.00,0.0020
1947.00,0.0020
1946.00,0.0020
1945.00,0.0020
1944.00,0.0020
1943.00,0.0021
1942.00,0.0022
1941.00,0.0023
1940.00,0.0024
1939.00,0.0024
1938.00,0.0023
1937.00,0.0022
1936.00,0.0022
1935.00,0.0023
1934.00,0.0024
1933.00,0.0025
1932.00,0.0024
1931.00,0.0024
1930.00,0.0022
1929.00,0.0021
1928.00,0.0021
1927.00,0.0020
1926.00,0.0020
1925.00,0.0021
1924.00,0.0021
1923.00,0.0023
1922.00,0.0024
1921.00,0.0024
1920.00,0.0024
1919.00,0.0024
1918.00,0.0024
1917.00,0.0025
1916.00,0.0025
1915.00,0.0024
1914.00,0.0023
1913.00,0.0023
1912.00,0.0023
1911.00,0.0023
1910.00,0.0023
1909.00,0.0024
1908.00,0.0024
1907.00,0.0024
1906.00,0.0024
1905.00,0.0024
1904.00,0.0024
1903.00,0.0024
1902.00,0.0025
1901.00,0.0025
1900.00,0.0026
1899.00,0.0026
1898.00,0.0025
1897.00,0.0025
1896.00,0.0025
1895.00,0.0025
1894.00,0.0025
1893.00,0.0024
1892.00,0.0023
1891.00,0.0023
1890.00,0.0023
1889.00,0.0024
1888.00,0.0024
1887.00,0.0024
1886.00,0.0024
1885.00,0.0024
1884.00,0.0024
1883.00,0.0024
1882.00,0.0023
1881.00,0.0023
1880.00,0.0024
1879.00,0.0024
1878.00,0.0024
1877.00,0.0024
1876.00,0.0024
1875.00,0.0024
1874.00,0.0024
1873.00,0.0024
1872.00,0.0023
1871.00,0.0022
1870.00,0.0021
1869.00,0.0021
1868.00,0.0022
1867.00,0.0023
1866.00,0.0023
1865.00,0.0024
1864.00,0.0025
1863.00,0.0025
1862.00,0.0025
1861.00,0.0025
1860.00,0.0025
1859.00,0.0024
1858.00,0.0024
1857.00,0.0025
1856.00,0.0025
1855.00,0.0025
1854.00,0.0024
1853.00,0.0024
1852.00,0.0025
1851.00,0.0025
1850.00,0.0024
1849.00,0.0024
1848.00,0.0024
1847.00,0.0024
1846.00,0.0023
1845.00,0.0024
1844.00,0.0025
1843.00,0.0026
1842.00,0.0026
1841.00,0.0024
1840.00,0.0023
1839.00,0.0022
1838.00,0.0022
1837.00,0.0023
1836.00,0.0024
1835.00,0.0025
1834.00,0.0025
1833.00,0.0025
1832.00,0.0023
1831.00,0.0022
1830.00,0.0022
1829.00,0.0023
1828.00,0.0023
1827.00,0.0023
1826.00,0.0023
1825.00,0.0024
1824.00,0.0024
1823.00,0.0024
1822.00,0.0024
1821.00,0.0023
1820.00,0.0023
1819.00,0.0023
1818.00,0.0022
1817.00,0.0022
1816.00,0.0022
1815.00,0.0023
1814.00,0.0023
1813.00,0.0023
1812.00,0.0023
1811.00,0.0024
1810.00,0.0024
1809.00,0.0025
1808.00,0.0025
1807.00,0.0025
1806.00,0.0025
1805.00,0.0025
1804.00,0.0025
1803.00,0.0025
1802.00,0.0024
1801.00,0.0024
1800.00,0.0024
1799.00,0.0024
1798.00,0.0024
1797.00,0.0025
1796.00,0.0025
1795.00,0.0024
1794.00,0.0023
1793.00,0.0023
1792.00,0.0025
1791.00,0.0026
1790.00,0.0027
1789.00,0.0027
1788.00,0.0027
1787.00,0.0027
1786.00,0.0027
1785.00,0.0028
1784.00,0.0028
1783.00,0.0027
1782.00,0.0026
1781.00,0.0025
1780.00,0.0026
1779.00,0.0026
1778.00,0.0026
1777.00,0.0026
1776.00,0.0026
1775.00,0.0025
1774.00,0.0024
1773.00,0.0024
1772.00,0.0025
1771.00,0.0027
1770.00,0.0028
1769.00,0.0029
1768.00,0.0030
1767.00,0.0030
1766.00,0.0030
1765.00,0.0030
1764.00,0.0029
1763.00,0.0030
1762.00,0.0031
1761.00,0.0033
1760.00,0.0034
1759.00,0.0034
1758.00,0.0034
1757.00,0.0036
1756.00,0.0038
1755.00,0.0039
1754.00,0.0040
1753.00,0.0040
1752.00,0.0041
1751.00,0.0042
1750.00,0.0042
1749.00,0.0043
1748.00,0.0045
1747.00,0.0047
1746.00,0.0049
1745.00,0.0051
1744.00,0.0053
1743.00,0.0056
1742.00,0.0058
1741.00,0.0060
1740.00,0.0063
1739.00,0.0067
1738.00,0.0071
1737.00,0.0073
1736.00,0.0076
1735.00,0.0079
1734.00,0.0084
1733.00,0.0087
1732.00,0.0088
1731.00,0.0088
1730.00,0.0089
1729.00,0.0092
1728.00,0.0094
1727.00,0.0095
1726.00,0.0096
1725.00,0.0096
1724.00,0.0097
1723.00,0.0098
1722.00,0.0099
1721.00,0.0099
1720.00,0.0099
1719.00,0.0099
1718.00,0.0099
1717.00,0.0099
1716.00,0.0099
1715.00,0.0099
1714.00,0.0099
1713.00,0.0099
1712.00,0.0099
1711.00,0.0100
1710.00,0.0101
1709.00,0.0101
1708.00,0.0101
1707.00,0.0101
1706.00,0.0103
1705.00,0.0106
1704.00,0.0111
1703.00,0.0115
1702.00,0.0119
1701.00,0.0124
1700.00,0.0130
1699.00,0.0135
1698.00,0.0138
1697.00,0.0141
1696.00,0.0146
1695.00,0.0152
1694.00,0.0156
1693.00,0.0158
1692.00,0.0161
1691.00,0.0165
1690.00,0.0170
1689.00,0.0176
1688.00,0.0182
1687.00,0.0187
1686.00,0.0192
1685.00,0.0196
1684.00,0.0202
1683.00,0.0208
1682.00,0.0212
1681.00,0.0218
1680.00,0.0224
1679.00,0.0231
1678.00,0.0237
1677.00,0.0243
1676.00,0.0249
1675.00,0.0255
1674.00,0.0260
1673.00,0.0265
1672.00,0.0270
1671.00,0.0276
1670.00,0.0282
1669.00,0.0288
1668.00,0.0295
1667.00,0.0302
1666.00,0.0309
1665.00,0.0316
1664.00,0.0324
1663.00,0.0332
1662.00,0.0339
1661.00,0.0347
1660.00,0.0356
1659.00,0.0364
1658.00,0.0373
1657.00,0.0383
1656.00,0.0393
1655.00,0.0402
1654.00,0.0407
1653.00,0.0408
1652.00,0.0408
1651.00,0.0409
1650.00,0.0412
1649.00,0.0416
1648.00,0.0420
1647.00,0.0421
1646.00,0.0420
1645.00,0.0419
1644.00,0.0420
1643.00,0.0422
1642.00,0.0424
1641.00,0.0425
1640.00,0.0426
1639.00,0.0428
1638.00,0.0429
1637.00,0.0428
1636.00,0.0426
1635.00,0.0424
1634.00,0.0424
1633.00,0.0426
1632.00,0.0430
1631.00,0.0434
1630.00,0.0437
1629.00,0.0439
1628.00,0.0441
1627.00,0.0442
1626.00,0.0444
1625.00,0.0444
1624.00,0.0443
1623.00,0.0440
1622.00,0.0436
1621.00,0.0433
1620.00,0.0432
1619.00,0.0430
1618.00,0.0425
1617.00,0.0414
1616.00,0.0401
1615.00,0.0390
1614.00,0.0382
1613.00,0.0375
1612.00,0.0368
1611.00,0.0358
1610.00,0.0348
1609.00,0.0338
1608.00,0.0328
1607.00,0.0319
1606.00,0.0310
1605.00,0.0302
1604.00,0.0294
1603.00,0.0286
1602.00,0.0279
1601.00,0.0272
1600.00,0.0266
1599.00,0.0260
1598.00,0.0255
1597.00,0.0249
1596.00,0.0244
1595.00,0.0239
1594.00,0.0235
1593.00,0.0230
1592.00,0.0227
1591.00,0.0223
1590.00,0.0220
1589.00,0.0217
1588.00,0.0215
1587.00,0.0212
1586.00,0.0210
1585.00,0.0208
1584.00,0.0207
1583.00,0.0205
1582.00,0.0204
1581.00,0.0203
1580.00,0.0203
1579.00,0.0203
1578.00,0.0203
1577.00,0.0203
1576.00,0.0204
1575.00,0.0204
1574.00,0.0205
1573.00,0.0206
1572.00,0.0208
1571.00,0.0209
1570.00,0.0212
1569.00,0.0215
1568.00,0.0218
1567.00,0.0222
1566.00,0.0225
1565.00,0.0230
1564.00,0.0235
1563.00,0.0242
1562.00,0.0249
1561.00,0.0255
1560.00,0.0258
1559.00,0.0262
1558.00,0.0269
1557.00,0.0276
1556.00,0.0283
1555.00,0.0290
1554.00,0.0298
1553.00,0.0305
1552.00,0.0312
1551.00,0.0318
1550.00,0.0324
1549.00,0.0330
1548.00,0.0337
1547.00,0.0343
1546.00,0.0348
1545.00,0.0353
1544.00,0.0356
1543.00,0.0359
1542.00,0.0362
1541.00,0.0363
1540.00,0.0364
1539.00,0.0366
1538.00,0.0369
1537.00,0.0372
1536.00,0.0376
1535.00,0.0378
1534.00,0.0379
1533.00,0.0379
1532.00,0.0380
1531.00,0.0382
1530.00,0.0384
1529.00,0.0386
1528.00,0.0387
1527.00,0.0387
1526.00,0.0387
1525.00,0.0387
1524.00,0.0387
1523.00,0.0388
1522.00,0.0388
1521.00,0.0386
1520.00,0.0385
1519.00,0.0385
1518.00,0.0385
1517.00,0.0386
1516.00,0.0386
1515.00,0.0386
1514.00,0.0385
1513.00,0.0383
1512.00,0.0379
1511.00,0.0374
1510.00,0.0370
1509.00,0.0364
1508.00,0.0355
1507.00,0.0343
1506.00,0.0332
1505.00,0.0324
1504.00,0.0319
1503.00,0.0314
1502.00,0.0309
1501.00,0.0304
1500.00,0.0298
1499.00,0.0292
1498.00,0.0285
1497.00,0.0278
1496.00,0.0270
1495.00,0.0263
1494.00,0.0256
1493.00,0.0250
1492.00,0.0243
1491.00,0.0236
1490.00,0.0229
1489.00,0.0222
1488.00,0.0216
1487.00,0.0212
1486.00,0.0208
1485.00,0.0204
1484.00,0.0201
1483.00,0.0198
1482.00,0.0195
1481.00,0.0193
1480.00,0.0192
1479.00,0.0191
1478.00,0.0190
1477.00,0.0190
1476.00,0.0190
1475.00,0.0191
1474.00,0.0192
1473.00,0.0193
1472.00,0.0196
1471.00,0.0200
1470.00,0.0202
1469.00,0.0204
1468.00,0.0206
1467.00,0.0207
1466.00,0.0208
1465.00,0.0208
1464.00,0.0208
1463.00,0.0209
1462.00,0.0210
1461.00,0.0211
1460.00,0.0212
1459.00,0.0214
1458.00,0.0217
1457.00,0.0220
1456.00,0.0222
1455.00,0.0222
1454.00,0.0222
1453.00,0.0222
1452.00,0.0223
1451.00,0.0224
1450.00,0.0224
1449.00,0.0224
1448.00,0.0224
1447.00,0.0224
1446.00,0.0224
1445.00,0.0224
1444.00,0.0223
1443.00,0.0223
1442.00,0.0222
1441.00,0.0222
1440.00,0.0222
1439.00,0.0222
1438.00,0.0221
1437.00,0.0219
1436.00,0.0216
1435.00,0.0213
1434.00,0.0210
1433.00,0.0207
1432.00,0.0205
1431.00,0.0203
1430.00,0.0201
1429.00,0.0200
1428.00,0.0199
1427.00,0.0199
1426.00,0.0198
1425.00,0.0197
1424.00,0.0197
1423.00,0.0198
1422.00,0.0200
1421.00,0.0202
1420.00,0.0203
1419.00,0.0203
1418.00,0.0203
1417.00,0.0204
1416.00,0.0204
1415.00,0.0205
1414.00,0.0205
1413.00,0.0206
1412.00,0.0207
1411.00,0.0207
1410.00,0.0208
1409.00,0.0208
1408.00,0.0208
1407.00,0.0208
1406.00,0.0207
1405.00,0.0206
1404.00,0.0206
1403.00,0.0206
1402.00,0.0206
1401.00,0.0206
1400.00,0.0205
1399.00,0.0205
1398.00,0.0205
1397.00,0.0205
1396.00,0.0205
1395.00,0.0206
1394.00,0.0206
1393.00,0.0206
1392.00,0.0207
1391.00,0.0207
1390.00,0.0208
1389.00,0.0208
1388.00,0.0209
1387.00,0.0209
1386.00,0.0208
1385.00,0.0207
1384.00,0.0206
1383.00,0.0204
1382.00,0.0203
1381.00,0.0202
1380.00,0.0201
1379.00,0.0200
1378.00,0.0199
1377.00,0.0198
1376.00,0.0196
1375.00,0.0195
1374.00,0.0195
1373.00,0.0195
1372.00,0.0195
1371.00,0.0196
1370.00,0.0196
1369.00,0.0196
1368.00,0.0196
1367.00,0.0195
1366.00,0.0194
1365.00,0.0193
1364.00,0.0192
1363.00,0.0190
1362.00,0.0189
1361.00,0.0188
1360.00,0.0187
1359.00,0.0187
1358.00,0.0186
1357.00,0.0186
1356.00,0.0185
1355.00,0.0185
1354.00,0.0185
1353.00,0.0185
1352.00,0.0185
1351.00,0.0185
1350.00,0.0185
1349.00,0.0185
1348.00,0.0185
1347.00,0.0185
1346.00,0.0185
1345.00,0.0186
1344.00,0.0186
1343.00,0.0186
1342.00,0.0186
1341.00,0.0185
1340.00,0.0185
1339.00,0.0185
1338.00,0.0185
1337.00,0.0185
1336.00,0.0185
1335.00,0.0185
1334.00,0.0185
1333.00,0.0184
1332.00,0.0184
1331.00,0.0185
1330.00,0.0185
1329.00,0.0185
1328.00,0.0185
1327.00,0.0185
1326.00,0.0185
1325.00,0.0186
1324.00,0.0186
1323.00,0.0187
1322.00,0.0187
1321.00,0.0187
1320.00,0.0187
1319.00,0.0188
1318.00,0.0188
1317.00,0.0189
1316.00,0.0190
1315.00,0.0190
1314.00,0.0191
1313.00,0.0191
1312.00,0.0191
1311.00,0.0191
1310.00,0.0191
1309.00,0.0191
1308.00,0.0192
1307.00,0.0192
1306.00,0.0193
1305.00,0.0194
1304.00,0.0194
1303.00,0.0194
1302.00,0.0195
1301.00,0.0195
1300.00,0.0195
1299.00,0.0196
1298.00,0.0197
1297.00,0.0198
1296.00,0.0198
1295.00,0.0199
1294.00,0.0200
1293.00,0.0201
1292.00,0.0202
1291.00,0.0202
1290.00,0.0203
1289.00,0.0204
1288.00,0.0205
1287.00,0.0205
1286.00,0.0206
1285.00,0.0206
1284.00,0.0206
1283.00,0.0207
1282.00,0.0208
1281.00,0.0208
1280.00,0.0209
1279.00,0.0210
1278.00,0.0211
1277.00,0.0211
1276.00,0.0211
1275.00,0.0211
1274.00,0.0211
1273.00,0.0212
1272.00,0.0213
1271.00,0.0214
1270.00,0.0215
1269.00,0.0215
1268.00,0.0216
1267.00,0.0217
1266.00,0.0218
1265.00,0.0219
1264.00,0.0220
1263.00,0.0221
1262.00,0.0222
1261.00,0.0223
1260.00,0.0224
1259.00,0.0225
1258.00,0.0226
1257.00,0.0227
1256.00,0.0228
1255.00,0.0230
1254.00,0.0231
1253.00,0.0233
1252.00,0.0234
1251.00,0.0236
1250.00,0.0237
1249.00,0.0238
1248.00,0.0239
1247.00,0.0241
1246.00,0.0242
1245.00,0.0243
1244.00,0.0245
1243.00,0.0246
1242.00,0.0247
1241.00,0.0249
1240.00,0.0250
1239.00,0.0251
1238.00,0.0252
1237.00,0.0253
1236.00,0.0253
1235.00,0.0254
1234.00,0.0254
1233.00,0.0255
1232.00,0.0255
1231.00,0.0255
1230.00,0.0255
1229.00,0.0255
1228.00,0.0255
1227.00,0.0255
1226.00,0.0255
1225.00,0.0255
1224.00,0.0254
1223.00,0.0254
1222.00,0.0253
1221.00,0.0252
1220.00,0.0251
1219.00,0.0249
1218.00,0.0248
1217.00,0.0246
1216.00,0.0245
1215.00,0.0244
1214.00,0.0242
1213.00,0.0241
1212.00,0.0240
1211.00,0.0239
1210.00,0.0238
1209.00,0.0238
1208.00,0.0237
1207.00,0.0236
1206.00,0.0235
1205.00,0.0234
1204.00,0.0233
1203.00,0.0232
1202.00,0.0232
1201.00,0.0232
1200.00,0.0231
1199.00,0.0231
1198.00,0.0232
1197.00,0.0232
1196.00,0.0233
1195.00,0.0233
1194.00,0.0234
1193.00,0.0234
1192.00,0.0235
1191.00,0.0235
1190.00,0.0236
1189.00,0.0237
1188.00,0.0239
1187.00,0.0240
1186.00,0.0241
1185.00,0.0241
1184.00,0.0242
1183.00,0.0243
1182.00,0.0245
1181.00,0.0246
1180.00,0.0248
1179.00,0.0250
1178.00,0.0252
1177.00,0.0254
1176.00,0.0256
1175.00,0.0258
1174.00,0.0260
1173.00,0.0262
1172.00,0.0264
1171.00,0.0265
1170.00,0.0266
1169.00,0.0267
1168.00,0.0268
1167.00,0.0269
1166.00,0.0269
1165.00,0.0269
1164.00,0.0270
1163.00,0.0270
1162.00,0.0271
1161.00,0.0272
1160.00,0.0273
1159.00,0.0273
1158.00,0.0273
1157.00,0.0273
1156.00,0.0273
1155.00,0.0272
1154.00,0.0272
1153.00,0.0271
1152.00,0.0270
1151.00,0.0269
1150.00,0.0268
1149.00,0.0267
1148.00,0.0267
1147.00,0.0266
1146.00,0.0265
1145.00,0.0264
1144.00,0.0263
1143.00,0.0262
1142.00,0.0261
1141.00,0.0260
1140.00,0.0259
1139.00,0.0259
1138.00,0.0258
1137.00,0.0258
1136.00,0.0258
1135.00,0.0258
1134.00,0.0259
1133.00,0.0260
1132.00,0.0260
1131.00,0.0261
1130.00,0.0261
1129.00,0.0262
1128.00,0.0263
1127.00,0.0263
1126.00,0.0264
1125.00,0.0265
1124.00,0.0265
1123.00,0.0265
1122.00,0.0266
1121.00,0.0265
1120.00,0.0265
1119.00,0.0265
1118.00,0.0265
1117.00,0.0266
1116.00,0.0266
1115.00,0.0266
1114.00,0.0266
1113.00,0.0266
1112.00,0.0266
1111.00,0.0266
1110.00,0.0266
1109.00,0.0266
1108.00,0.0266
1107.00,0.0267
1106.00,0.0268
1105.00,0.0269
1104.00,0.0269
1103.00,0.0269
1102.00,0.0269
1101.00,0.0270
1100.00,0.0270
1099.00,0.0271
1098.00,0.0271
1097.00,0.0271
1096.00,0.0271
1095.00,0.0272
1094.00,0.0272
1093.00,0.0273
1092.00,0.0273
1091.00,0.0274
1090.00,0.0275
1089.00,0.0275
1088.00,0.0275
1087.00,0.0276
1086.00,0.0277
1085.00,0.0278
1084.00,0.0280
1083.00,0.0281
1082.00,0.0282
1081.00,0.0283
1080.00,0.0284
1079.00,0.0285
1078.00,0.0286
1077.00,0.0287
1076.00,0.0286
1075.00,0.0285
1074.00,0.0284
1073.00,0.0284
1072.00,0.0283
1071.00,0.0283
1070.00,0.0282
1069.00,0.0282
1068.00,0.0281
1067.00,0.0280
1066.00,0.0279
1065.00,0.0278
1064.00,0.0277
1063.00,0.0277
1062.00,0.0277
1061.00,0.0277
1060.00,0.0277
1059.00,0.0277
1058.00,0.0277
1057.00,0.0276
1056.00,0.0276
1055.00,0.0275
1054.00,0.0273
1053.00,0.0272
1052.00,0.0272
1051.00,0.0271
1050.00,0.0271
1049.00,0.0270
1048.00,0.0270
1047.00,0.0269
1046.00,0.0268
1045.00,0.0267
1044.00,0.0267
1043.00,0.0266
1042.00,0.0265
1041.00,0.0264
1040.00,0.0263
1039.00,0.0263
1038.00,0.0262
1037.00,0.0261
1036.00,0.0260
1035.00,0.0259
1034.00,0.0259
1033.00,0.0258
1032.00,0.0258
1031.00,0.0258
1030.00,0.0258
1029.00,0.0258
1028.00,0.0258
1027.00,0.0257
1026.00,0.0257
1025.00,0.0257
1024.00,0.0257
1023.00,0.0256
1022.00,0.0255
1021.00,0.0254
1020.00,0.0252
1019.00,0.0251
1018.00,0.0250
1017.00,0.0249
1016.00,0.0247
1015.00,0.0246
1014.00,0.0244
1013.00,0.0242
1012.00,0.0240
1011.00,0.0239
1010.00,0.0238
1009.00,0.0237
1008.00,0.0235
1007.00,0.0231
1006.00,0.0225
1005.00,0.0221
1004.00,0.0221
1003.00,0.0222
1002.00,0.0225
1001.00,0.0226
1000.00,0.0225
999.00,0.0224
998.00,0.0223
997.00,0.0221
996.00,0.0220
995.00,0.0218
994.00,0.0217
993.00,0.0217
992.00,0.0216
991.00,0.0215
990.00,0.0213
989.00,0.0212
988.00,0.0210
987.00,0.0209
986.00,0.0208
985.00,0.0207
984.00,0.0206
983.00,0.0205
982.00,0.0204
981.00,0.0203
980.00,0.0202
979.00,0.0201
978.00,0.0200
977.00,0.0199
976.00,0.0198
975.00,0.0198
974.00,0.0197
973.00,0.0196
972.00,0.0196
971.00,0.0195
970.00,0.0194
969.00,0.0193
968.00,0.0193
967.00,0.0192
966.00,0.0192
965.00,0.0192
964.00,0.0192
963.00,0.0192
962.00,0.0192
961.00,0.0191
960.00,0.0191
959.00,0.0190
958.00,0.0190
957.00,0.0189
956.00,0.0189
955.00,0.0189
954.00,0.0188
953.00,0.0188
952.00,0.0188
951.00,0.0188
950.00,0.0188
949.00,0.0189
948.00,0.0188
947.00,0.0188
946.00,0.0188
945.00,0.0188
944.00,0.0188
943.00,0.0188
942.00,0.0188
941.00,0.0188
940.00,0.0188
939.00,0.0188
938.00,0.0188
937.00,0.0188
936.00,0.0188
935.00,0.0188
934.00,0.0189
933.00,0.0189
932.00,0.0189
931.00,0.0189
930.00,0.0188
929.00,0.0188
928.00,0.0187
927.00,0.0187
926.00,0.0187
925.00,0.0186
924.00,0.0186
923.00,0.0186
922.00,0.0185
921.00,0.0185
920.00,0.0185
919.00,0.0185
918.00,0.0184
917.00,0.0184
916.00,0.0184
915.00,0.0183
914.00,0.0183
913.00,0.0182
912.00,0.0182
911.00,0.0182
910.00,0.0182
909.00,0.0182
908.00,0.0181
907.00,0.0181
906.00,0.0180
905.00,0.0180
904.00,0.0179
903.00,0.0179
902.00,0.0179
901.00,0.0179
900.00,0.0179
899.00,0.0179
898.00,0.0179
897.00,0.0179
896.00,0.0179
895.00,0.0179
894.00,0.0178
893.00,0.0178
892.00,0.0178
891.00,0.0178
890.00,0.0178
889.00,0.0178
888.00,0.0177
887.00,0.0177
886.00,0.0177
885.00,0.0177
884.00,0.0177
883.00,0.0176
882.00,0.0176
881.00,0.0175
880.00,0.0175
879.00,0.0175
878.00,0.0175
877.00,0.0175
876.00,0.0175
875.00,0.0174
874.00,0.0173
873.00,0.0173
872.00,0.0173
871.00,0.0174
870.00,0.0173
869.00,0.0173
868.00,0.0172
867.00,0.0172
866.00,0.0172
865.00,0.0172
864.00,0.0172
863.00,0.0173
862.00,0.0173
861.00,0.0173
860.00,0.0174
859.00,0.0174
858.00,0.0175
857.00,0.0175
856.00,0.0176
855.00,0.0176
854.00,0.0176
853.00,0.0177
852.00,0.0178
851.00,0.0178
850.00,0.0178
849.00,0.0178
848.00,0.0179
847.00,0.0179
846.00,0.0179
845.00,0.0179
844.00,0.0178
843.00,0.0178
842.00,0.0179
841.00,0.0180
840.00,0.0182
839.00,0.0183
838.00,0.0184
837.00,0.0184
836.00,0.0185
835.00,0.0186
834.00,0.0187
833.00,0.0188
832.00,0.0189
831.00,0.0190
830.00,0.0191
829.00,0.0191
828.00,0.0192
827.00,0.0192
826.00,0.0192
825.00,0.0192
824.00,0.0192
823.00,0.0192
822.00,0.0192
821.00,0.0193
820.00,0.0193
819.00,0.0193
818.00,0.0193
817.00,0.0193
816.00,0.0193
815.00,0.0194
814.00,0.0194
813.00,0.0195
812.00,0.0195
811.00,0.0196
810.00,0.0196
809.00,0.0197
808.00,0.0198
807.00,0.0199
806.00,0.0200
805.00,0.0200
804.00,0.0201
803.00,0.0200
802.00,0.0201
801.00,0.0201
800.00,0.0202
799.00,0.0203
798.00,0.0204
797.00,0.0205
796.00,0.0206
795.00,0.0207
794.00,0.0208
793.00,0.0208
792.00,0.0209
791.00,0.0209
790.00,0.0210
789.00,0.0212
788.00,0.0213
787.00,0.0214
786.00,0.0216
785.00,0.0216
784.00,0.0217
783.00,0.0218
782.00,0.0219
781.00,0.0221
780.00,0.0222
779.00,0.0222
778.00,0.0223
777.00,0.0224
776.00,0.0225
775.00,0.0226
774.00,0.0226
773.00,0.0227
772.00,0.0227
771.00,0.0228
770.00,0.0228
769.00,0.0229
768.00,0.0229
767.00,0.0230
766.00,0.0231
765.00,0.0232
764.00,0.0233
763.00,0.0234
762.00,0.0236
761.00,0.0237
760.00,0.0238
759.00,0.0239
758.00,0.0240
757.00,0.0241
756.00,0.0241
755.00,0.0242
754.00,0.0243
753.00,0.0244
752.00,0.0246
751.00,0.0247
750.00,0.0248
749.00,0.0249
748.00,0.0250
747.00,0.0252
746.00,0.0254
745.00,0.0256
744.00,0.0257
743.00,0.0257
742.00,0.0257
741.00,0.0257
740.00,0.0258
739.00,0.0259
738.00,0.0259
737.00,0.0260
736.00,0.0261
735.00,0.0261
734.00,0.0262
733.00,0.0262
732.00,0.0263
731.00,0.0265
730.00,0.0266
729.00,0.0267
728.00,0.0268
727.00,0.0269
726.00,0.0270
725.00,0.0272
724.00,0.0275
723.00,0.0277
722.00,0.0279
721.00,0.0281
720.00,0.0282
719.00,0.0284
718.00,0.0286
717.00,0.0288
716.00,0.0290
715.00,0.0291
714.00,0.0293
713.00,0.0295
712.00,0.0296
711.00,0.0298
710.00,0.0300
709.00,0.0303
708.00,0.0305
707.00,0.0308
706.00,0.0311
705.00,0.0313
704.00,0.0316
703.00,0.0318
702.00,0.0321
701.00,0.0323
700.00,0.0325
699.00,0.0326
698.00,0.0328
697.00,0.0329
696.00,0.0329
695.00,0.0329
694.00,0.0329
693.00,0.0329
692.00,0.0330
691.00,0.0330
690.00,0.0330
689.00,0.0330
688.00,0.0330
687.00,0.0331
686.00,0.0331
685.00,0.0332
684.00,0.0332
683.00,0.0333
682.00,0.0334
681.00,0.0335
680.00,0.0336
679.00,0.0338
678.00,0.0339
677.00,0.0340
676.00,0.0341
675.00,0.0342
674.00,0.0343
673.00,0.0343
672.00,0.0344
671.00,0.0346
670.00,0.0348
669.00,0.0349
668.00,0.0350
667.00,0.0349
666.00,0.0349
665.00,0.0350
664.00,0.0352
663.00,0.0353
662.00,0.0354
661.00,0.0355
660.00,0.0357
659.00,0.0358
658.00,0.0359
657.00,0.0360
656.00,0.0361
655.00,0.0362
654.00,0.0362
653.00,0.0363
652.00,0.0363
651.00,0.0364
650.00,0.0366
649.00,0.0367
648.00,0.0368
647.00,0.0369
646.00,0.0369
645.00,0.0370
644.00,0.0372
643.00,0.0373
642.00,0.0374
641.00,0.0374
640.00,0.0375
639.00,0.0375
638.00,0.0376
637.00,0.0377
636.00,0.0379
635.00,0.0380
634.00,0.0381
633.00,0.0383
632.00,0.0385
631.00,0.0388
630.00,0.0391
629.00,0.0393
628.00,0.0394
627.00,0.0395
626.00,0.0396
625.00,0.0397
624.00,0.0398
623.00,0.0399
622.00,0.0400
621.00,0.0400
620.00,0.0401
619.00,0.0401
618.00,0.0401
617.00,0.0401
616.00,0.0403
615.00,0.0404
614.00,0.0406
613.00,0.0407
612.00,0.0408
611.00,0.0409
610.00,0.0411
609.00,0.0413
608.00,0.0416
607.00,0.0417
606.00,0.0418
605.00,0.0416
604.00,0.0414
603.00,0.0412
602.00,0.0411
601.00,0.0411
600.00,0.0413
599.00,0.0414
598.00,0.0415
597.00,0.0415
596.00,0.0415
595.00,0.0415
594.00,0.0415
593.00,0.0416
592.00,0.0417
591.00,0.0418
590.00,0.0419
589.00,0.0420
588.00,0.0421
587.00,0.0421
586.00,0.0421
585.00,0.0420
584.00,0.0421
583.00,0.0422
582.00,0.0423
581.00,0.0424
580.00,0.0425
579.00,0.0428
578.00,0.0430
577.00,0.0431
576.00,0.0432
575.00,0.0432
574.00,0.0432
573.00,0.0434
572.00,0.0435
571.00,0.0437
570.00,0.0438
569.00,0.0440
568.00,0.0441
567.00,0.0442
566.00,0.0442
565.00,0.0442
564.00,0.0443
563.00,0.0444
562.00,0.0445
561.00,0.0446
560.00,0.0446
559.00,0.0448
558.00,0.0449
557.00,0.0449
556.00,0.0449
555.00,0.0449
554.00,0.0449
553.00,0.0450
552.00,0.0452
551.00,0.0455
550.00,0.0457
549.00,0.0458
548.00,0.0459
547.00,0.0461
546.00,0.0463
545.00,0.0465
544.00,0.0465
543.00,0.0465
542.00,0.0466
541.00,0.0467
540.00,0.0469
539.00,0.0470
538.00,0.0470
537.00,0.0471
536.00,0.0472
535.00,0.0474
534.00,0.0476
533.00,0.0476
532.00,0.0476
531.00,0.0475
530.00,0.0475
529.00,0.0475
528.00,0.0478
527.00,0.0481
526.00,0.0482
525.00,0.0481
524.00,0.0480
523.00,0.0481
522.00,0.0482
521.00,0.0483
520.00,0.0485
519.00,0.0486
518.00,0.0487
517.00,0.0488
516.00,0.0487
515.00,0.0485
514.00,0.0483
513.00,0.0483
512.00,0.0485
511.00,0.0486
510.00,0.0487
509.00,0.0487
508.00,0.0487
507.00,0.0486
506.00,0.0485
505.00,0.0484
504.00,0.0484
503.00,0.0485
502.00,0.0486
501.00,0.0486
500.00,0.0486
499.00,0.0486
498.00,0.0487
497.00,0.0487
496.00,0.0487
495.00,0.0487
494.00,0.0486
493.00,0.0487
492.00,0.0489
491.00,0.0491
490.00,0.0491
489.00,0.0491
488.00,0.0493
487.00,0.0495
486.00,0.0496
485.00,0.0496
484.00,0.0496
483.00,0.0496
482.00,0.0496
481.00,0.0496
480.00,0.0496
479.00,0.0498
478.00,0.0499
477.00,0.0501
476.00,0.0503
475.00,0.0504
474.00,0.0503
473.00,0.0502
472.00,0.0502
471.00,0.0502
470.00,0.0502
469.00,0.0501
468.00,0.0500
467.00,0.0498
466.00,0.0497
465.00,0.0497
464.00,0.0498
463.00,0.0500
462.00,0.0502
461.00,0.0503
460.00,0.0504
459.00,0.0505
458.00,0.0503
457.00,0.0500
456.00,0.0497
455.00,0.0496
454.00,0.0497
453.00,0.0499
452.00,0.0501
451.00,0.0501
450.00,0.0498
449.00,0.0495
448.00,0.0493
447.00,0.0492
446.00,0.0492
445.00,0.0492
444.00,0.0491
443.00,0.0489
442.00,0.0485
441.00,0.0481
440.00,0.0476
439.00,0.0472
438.00,0.0470
437.00,0.0470
436.00,0.0471
435.00,0.0471
434.00,0.0469
433.00,0.0467
432.00,0.0464
431.00,0.0463
430.00,0.0465
429.00,0.0470
428.00,0.0476
427.00,0.0478
426.00,0.0476
425.00,0.0472
424.00,0.0471
423.00,0.0471
422.00,0.0469
421.00,0.0467
420.00,0.0466
419.00,0.0464
418.00,0.0460
417.00,0.0458
416.00,0.0458
415.00,0.0457
414.00,0.0455
413.00,0.0452
412.00,0.0452
411.00,0.0460
410.00,0.0470
409.00,0.0479
408.00,0.0481
407.00,0.0476
406.00,0.0468
405.00,0.0462
404.00,0.0461
403.00,0.0464
402.00,0.0465
401.00,0.0464
400.00,0.0463
