Created as New Dataset,Sample 1057 By YargerLab Date Monday, August 04 2025
cm-1,A
4000.00,0.0006
3999.00,0.0006
3998.00,0.0006
3997.00,0.0006
3996.00,0.0006
3995.00,0.0006
3994.00,0.0006
3993.00,0.0006
3992.00,0.0006
3991.00,0.0006
3990.00,0.0006
3989.00,0.0006
3988.00,0.0006
3987.00,0.0006
3986.00,0.0006
3985.00,0.0006
3984.00,0.0006
3983.00,0.0006
3982.00,0.0006
3981.00,0.0006
3980.00,0.0006
3979.00,0.0006
3978.00,0.0006
3977.00,0.0006
3976.00,0.0006
3975.00,0.0006
3974.00,0.0005
3973.00,0.0005
3972.00,0.0005
3971.00,0.0005
3970.00,0.0005
3969.00,0.0005
3968.00,0.0005
3967.00,0.0005
3966.00,0.0005
3965.00,0.0005
3964.00,0.0005
3963.00,0.0005
3962.00,0.0005
3961.00,0.0005
3960.00,0.0005
3959.00,0.0005
3958.00,0.0005
3957.00,0.0005
3956.00,0.0006
3955.00,0.0006
3954.00,0.0005
3953.00,0.0005
3952.00,0.0005
3951.00,0.0005
3950.00,0.0005
3949.00,0.0005
3948.00,0.0005
3947.00,0.0005
3946.00,0.0005
3945.00,0.0004
3944.00,0.0004
3943.00,0.0004
3942.00,0.0004
3941.00,0.0005
3940.00,0.0005
3939.00,0.0005
3938.00,0.0005
3937.00,0.0005
3936.00,0.0005
3935.00,0.0005
3934.00,0.0005
3933.00,0.0005
3932.00,0.0005
3931.00,0.0005
3930.00,0.0005
3929.00,0.0005
3928.00,0.0005
3927.00,0.0005
3926.00,0.0005
3925.00,0.0005
3924.00,0.0005
3923.00,0.0005
3922.00,0.0004
3921.00,0.0004
3920.00,0.0004
3919.00,0.0004
3918.00,0.0004
3917.00,0.0004
3916.00,0.0004
3915.00,0.0004
3914.00,0.0004
3913.00,0.0005
3912.00,0.0004
3911.00,0.0004
3910.00,0.0004
3909.00,0.0004
3908.00,0.0004
3907.00,0.0004
3906.00,0.0004
3905.00,0.0004
3904.00,0.0004
3903.00,0.0004
3902.00,0.0004
3901.00,0.0004
3900.00,0.0004
3899.00,0.0004
3898.00,0.0004
3897.00,0.0004
3896.00,0.0004
3895.00,0.0004
3894.00,0.0004
3893.00,0.0004
3892.00,0.0004
3891.00,0.0004
3890.00,0.0004
3889.00,0.0004
3888.00,0.0004
3887.00,0.0004
3886.00,0.0004
3885.00,0.0004
3884.00,0.0005
3883.00,0.0004
3882.00,0.0004
3881.00,0.0004
3880.00,0.0004
3879.00,0.0005
3878.00,0.0005
3877.00,0.0005
3876.00,0.0004
3875.00,0.0004
3874.00,0.0004
3873.00,0.0004
3872.00,0.0004
3871.00,0.0004
3870.00,0.0004
3869.00,0.0004
3868.00,0.0004
3867.00,0.0004
3866.00,0.0003
3865.00,0.0003
3864.00,0.0004
3863.00,0.0004
3862.00,0.0004
3861.00,0.0004
3860.00,0.0004
3859.00,0.0004
3858.00,0.0004
3857.00,0.0004
3856.00,0.0004
3855.00,0.0004
3854.00,0.0004
3853.00,0.0004
3852.00,0.0004
3851.00,0.0004
3850.00,0.0004
3849.00,0.0004
3848.00,0.0004
3847.00,0.0005
3846.00,0.0005
3845.00,0.0005
3844.00,0.0005
3843.00,0.0005
3842.00,0.0005
3841.00,0.0004
3840.00,0.0004
3839.00,0.0004
3838.00,0.0005
3837.00,0.0005
3836.00,0.0005
3835.00,0.0004
3834.00,0.0004
3833.00,0.0004
3832.00,0.0004
3831.00,0.0004
3830.00,0.0004
3829.00,0.0005
3828.00,0.0005
3827.00,0.0005
3826.00,0.0005
3825.00,0.0005
3824.00,0.0005
3823.00,0.0005
3822.00,0.0005
3821.00,0.0005
3820.00,0.0005
3819.00,0.0004
3818.00,0.0004
3817.00,0.0004
3816.00,0.0004
3815.00,0.0004
3814.00,0.0004
3813.00,0.0004
3812.00,0.0004
3811.00,0.0005
3810.00,0.0005
3809.00,0.0005
3808.00,0.0006
3807.00,0.0006
3806.00,0.0006
3805.00,0.0006
3804.00,0.0005
3803.00,0.0005
3802.00,0.0005
3801.00,0.0005
3800.00,0.0004
3799.00,0.0004
3798.00,0.0003
3797.00,0.0003
3796.00,0.0004
3795.00,0.0004
3794.00,0.0004
3793.00,0.0004
3792.00,0.0004
3791.00,0.0004
3790.00,0.0005
3789.00,0.0005
3788.00,0.0005
3787.00,0.0005
3786.00,0.0005
3785.00,0.0005
3784.00,0.0005
3783.00,0.0005
3782.00,0.0005
3781.00,0.0005
3780.00,0.0005
3779.00,0.0005
3778.00,0.0005
3777.00,0.0005
3776.00,0.0005
3775.00,0.0005
3774.00,0.0005
3773.00,0.0005
3772.00,0.0005
3771.00,0.0005
3770.00,0.0005
3769.00,0.0005
3768.00,0.0004
3767.00,0.0004
3766.00,0.0004
3765.00,0.0004
3764.00,0.0004
3763.00,0.0004
3762.00,0.0005
3761.00,0.0005
3760.00,0.0005
3759.00,0.0005
3758.00,0.0005
3757.00,0.0005
3756.00,0.0005
3755.00,0.0005
3754.00,0.0005
3753.00,0.0005
3752.00,0.0005
3751.00,0.0004
3750.00,0.0004
3749.00,0.0004
3748.00,0.0003
3747.00,0.0003
3746.00,0.0002
3745.00,0.0003
3744.00,0.0003
3743.00,0.0004
3742.00,0.0003
3741.00,0.0003
3740.00,0.0003
3739.00,0.0004
3738.00,0.0004
3737.00,0.0004
3736.00,0.0004
3735.00,0.0003
3734.00,0.0003
3733.00,0.0003
3732.00,0.0003
3731.00,0.0003
3730.00,0.0003
3729.00,0.0003
3728.00,0.0003
3727.00,0.0003
3726.00,0.0003
3725.00,0.0003
3724.00,0.0003
3723.00,0.0003
3722.00,0.0003
3721.00,0.0003
3720.00,0.0003
3719.00,0.0004
3718.00,0.0004
3717.00,0.0005
3716.00,0.0005
3715.00,0.0005
3714.00,0.0005
3713.00,0.0004
3712.00,0.0004
3711.00,0.0004
3710.00,0.0004
3709.00,0.0004
3708.00,0.0004
3707.00,0.0004
3706.00,0.0004
3705.00,0.0005
3704.00,0.0005
3703.00,0.0005
3702.00,0.0005
3701.00,0.0005
3700.00,0.0005
3699.00,0.0005
3698.00,0.0005
3697.00,0.0006
3696.00,0.0006
3695.00,0.0006
3694.00,0.0007
3693.00,0.0007
3692.00,0.0007
3691.00,0.0007
3690.00,0.0007
3689.00,0.0007
3688.00,0.0007
3687.00,0.0008
3686.00,0.0008
3685.00,0.0009
3684.00,0.0010
3683.00,0.0011
3682.00,0.0011
3681.00,0.0012
3680.00,0.0012
3679.00,0.0012
3678.00,0.0012
3677.00,0.0012
3676.00,0.0012
3675.00,0.0012
3674.00,0.0012
3673.00,0.0012
3672.00,0.0012
3671.00,0.0012
3670.00,0.0013
3669.00,0.0014
3668.00,0.0014
3667.00,0.0014
3666.00,0.0014
3665.00,0.0015
3664.00,0.0015
3663.00,0.0016
3662.00,0.0016
3661.00,0.0017
3660.00,0.0018
3659.00,0.0018
3658.00,0.0018
3657.00,0.0018
3656.00,0.0019
3655.00,0.0019
3654.00,0.0019
3653.00,0.0020
3652.00,0.0020
3651.00,0.0020
3650.00,0.0021
3649.00,0.0021
3648.00,0.0021
3647.00,0.0021
3646.00,0.0021
3645.00,0.0023
3644.00,0.0024
3643.00,0.0025
3642.00,0.0026
3641.00,0.0027
3640.00,0.0028
3639.00,0.0028
3638.00,0.0029
3637.00,0.0029
3636.00,0.0029
3635.00,0.0030
3634.00,0.0030
3633.00,0.0031
3632.00,0.0032
3631.00,0.0032
3630.00,0.0033
3629.00,0.0033
3628.00,0.0033
3627.00,0.0033
3626.00,0.0034
3625.00,0.0035
3624.00,0.0036
3623.00,0.0037
3622.00,0.0038
3621.00,0.0039
3620.00,0.0039
3619.00,0.0040
3618.00,0.0040
3617.00,0.0041
3616.00,0.0042
3615.00,0.0043
3614.00,0.0044
3613.00,0.0044
3612.00,0.0045
3611.00,0.0045
3610.00,0.0046
3609.00,0.0047
3608.00,0.0047
3607.00,0.0048
3606.00,0.0050
3605.00,0.0051
3604.00,0.0052
3603.00,0.0053
3602.00,0.0054
3601.00,0.0055
3600.00,0.0056
3599.00,0.0057
3598.00,0.0058
3597.00,0.0059
3596.00,0.0060
3595.00,0.0061
3594.00,0.0061
3593.00,0.0062
3592.00,0.0063
3591.00,0.0064
3590.00,0.0065
3589.00,0.0066
3588.00,0.0067
3587.00,0.0068
3586.00,0.0068
3585.00,0.0069
3584.00,0.0071
3583.00,0.0072
3582.00,0.0074
3581.00,0.0076
3580.00,0.0077
3579.00,0.0078
3578.00,0.0079
3577.00,0.0080
3576.00,0.0081
3575.00,0.0083
3574.00,0.0084
3573.00,0.0085
3572.00,0.0087
3571.00,0.0089
3570.00,0.0090
3569.00,0.0091
3568.00,0.0091
3567.00,0.0091
3566.00,0.0091
3565.00,0.0092
3564.00,0.0094
3563.00,0.0096
3562.00,0.0097
3561.00,0.0099
3560.00,0.0100
3559.00,0.0101
3558.00,0.0103
3557.00,0.0104
3556.00,0.0105
3555.00,0.0106
3554.00,0.0107
3553.00,0.0108
3552.00,0.0109
3551.00,0.0110
3550.00,0.0111
3549.00,0.0112
3548.00,0.0114
3547.00,0.0114
3546.00,0.0115
3545.00,0.0116
3544.00,0.0117
3543.00,0.0118
3542.00,0.0119
3541.00,0.0120
3540.00,0.0122
3539.00,0.0123
3538.00,0.0124
3537.00,0.0125
3536.00,0.0126
3535.00,0.0126
3534.00,0.0127
3533.00,0.0128
3532.00,0.0129
3531.00,0.0130
3530.00,0.0131
3529.00,0.0131
3528.00,0.0132
3527.00,0.0133
3526.00,0.0133
3525.00,0.0134
3524.00,0.0135
3523.00,0.0136
3522.00,0.0137
3521.00,0.0137
3520.00,0.0138
3519.00,0.0139
3518.00,0.0140
3517.00,0.0141
3516.00,0.0142
3515.00,0.0143
3514.00,0.0144
3513.00,0.0144
3512.00,0.0145
3511.00,0.0145
3510.00,0.0146
3509.00,0.0147
3508.00,0.0147
3507.00,0.0148
3506.00,0.0149
3505.00,0.0150
3504.00,0.0150
3503.00,0.0151
3502.00,0.0151
3501.00,0.0151
3500.00,0.0152
3499.00,0.0153
3498.00,0.0154
3497.00,0.0155
3496.00,0.0156
3495.00,0.0156
3494.00,0.0157
3493.00,0.0157
3492.00,0.0158
3491.00,0.0158
3490.00,0.0159
3489.00,0.0159
3488.00,0.0160
3487.00,0.0160
3486.00,0.0161
3485.00,0.0161
3484.00,0.0162
3483.00,0.0162
3482.00,0.0163
3481.00,0.0164
3480.00,0.0164
3479.00,0.0164
3478.00,0.0165
3477.00,0.0165
3476.00,0.0166
3475.00,0.0166
3474.00,0.0167
3473.00,0.0167
3472.00,0.0168
3471.00,0.0168
3470.00,0.0169
3469.00,0.0169
3468.00,0.0170
3467.00,0.0170
3466.00,0.0170
3465.00,0.0171
3464.00,0.0171
3463.00,0.0171
3462.00,0.0171
3461.00,0.0172
3460.00,0.0172
3459.00,0.0172
3458.00,0.0173
3457.00,0.0173
3456.00,0.0174
3455.00,0.0174
3454.00,0.0174
3453.00,0.0175
3452.00,0.0175
3451.00,0.0176
3450.00,0.0176
3449.00,0.0176
3448.00,0.0176
3447.00,0.0176
3446.00,0.0176
3445.00,0.0176
3444.00,0.0176
3443.00,0.0177
3442.00,0.0177
3441.00,0.0177
3440.00,0.0178
3439.00,0.0178
3438.00,0.0179
3437.00,0.0179
3436.00,0.0179
3435.00,0.0179
3434.00,0.0179
3433.00,0.0180
3432.00,0.0180
3431.00,0.0180
3430.00,0.0180
3429.00,0.0180
3428.00,0.0180
3427.00,0.0180
3426.00,0.0180
3425.00,0.0181
3424.00,0.0181
3423.00,0.0181
3422.00,0.0181
3421.00,0.0181
3420.00,0.0181
3419.00,0.0181
3418.00,0.0181
3417.00,0.0181
3416.00,0.0181
3415.00,0.0181
3414.00,0.0181
3413.00,0.0181
3412.00,0.0181
3411.00,0.0181
3410.00,0.0181
3409.00,0.0181
3408.00,0.0181
3407.00,0.0181
3406.00,0.0180
3405.00,0.0180
3404.00,0.0180
3403.00,0.0181
3402.00,0.0181
3401.00,0.0181
3400.00,0.0181
3399.00,0.0180
3398.00,0.0180
3397.00,0.0180
3396.00,0.0180
3395.00,0.0179
3394.00,0.0179
3393.00,0.0179
3392.00,0.0178
3391.00,0.0178
3390.00,0.0178
3389.00,0.0178
3388.00,0.0178
3387.00,0.0177
3386.00,0.0177
3385.00,0.0177
3384.00,0.0176
3383.00,0.0176
3382.00,0.0176
3381.00,0.0176
3380.00,0.0176
3379.00,0.0175
3378.00,0.0175
3377.00,0.0174
3376.00,0.0174
3375.00,0.0174
3374.00,0.0173
3373.00,0.0173
3372.00,0.0173
3371.00,0.0172
3370.00,0.0172
3369.00,0.0171
3368.00,0.0171
3367.00,0.0171
3366.00,0.0170
3365.00,0.0170
3364.00,0.0169
3363.00,0.0169
3362.00,0.0168
3361.00,0.0168
3360.00,0.0168
3359.00,0.0167
3358.00,0.0167
3357.00,0.0167
3356.00,0.0166
3355.00,0.0166
3354.00,0.0166
3353.00,0.0165
3352.00,0.0165
3351.00,0.0165
3350.00,0.0164
3349.00,0.0164
3348.00,0.0164
3347.00,0.0164
3346.00,0.0163
3345.00,0.0163
3344.00,0.0163
3343.00,0.0162
3342.00,0.0162
3341.00,0.0161
3340.00,0.0161
3339.00,0.0160
3338.00,0.0160
3337.00,0.0160
3336.00,0.0160
3335.00,0.0159
3334.00,0.0159
3333.00,0.0159
3332.00,0.0159
3331.00,0.0159
3330.00,0.0159
3329.00,0.0158
3328.00,0.0158
3327.00,0.0157
3326.00,0.0157
3325.00,0.0157
3324.00,0.0157
3323.00,0.0157
3322.00,0.0157
3321.00,0.0157
3320.00,0.0157
3319.00,0.0157
3318.00,0.0157
3317.00,0.0157
3316.00,0.0157
3315.00,0.0157
3314.00,0.0157
3313.00,0.0156
3312.00,0.0156
3311.00,0.0156
3310.00,0.0155
3309.00,0.0154
3308.00,0.0154
3307.00,0.0153
3306.00,0.0153
3305.00,0.0153
3304.00,0.0154
3303.00,0.0154
3302.00,0.0155
3301.00,0.0155
3300.00,0.0155
3299.00,0.0155
3298.00,0.0155
3297.00,0.0155
3296.00,0.0154
3295.00,0.0154
3294.00,0.0154
3293.00,0.0154
3292.00,0.0154
3291.00,0.0154
3290.00,0.0155
3289.00,0.0155
3288.00,0.0155
3287.00,0.0155
3286.00,0.0154
3285.00,0.0154
3284.00,0.0154
3283.00,0.0154
3282.00,0.0154
3281.00,0.0153
3280.00,0.0153
3279.00,0.0153
3278.00,0.0153
3277.00,0.0152
3276.00,0.0152
3275.00,0.0152
3274.00,0.0151
3273.00,0.0151
3272.00,0.0151
3271.00,0.0150
3270.00,0.0150
3269.00,0.0150
3268.00,0.0150
3267.00,0.0150
3266.00,0.0150
3265.00,0.0150
3264.00,0.0149
3263.00,0.0149
3262.00,0.0149
3261.00,0.0149
3260.00,0.0148
3259.00,0.0148
3258.00,0.0147
3257.00,0.0147
3256.00,0.0147
3255.00,0.0146
3254.00,0.0146
3253.00,0.0145
3252.00,0.0145
3251.00,0.0145
3250.00,0.0145
3249.00,0.0145
3248.00,0.0145
3247.00,0.0144
3246.00,0.0144
3245.00,0.0143
3244.00,0.0143
3243.00,0.0143
3242.00,0.0143
3241.00,0.0143
3240.00,0.0142
3239.00,0.0142
3238.00,0.0142
3237.00,0.0141
3236.00,0.0141
3235.00,0.0140
3234.00,0.0139
3233.00,0.0139
3232.00,0.0139
3231.00,0.0138
3230.00,0.0138
3229.00,0.0138
3228.00,0.0137
3227.00,0.0136
3226.00,0.0136
3225.00,0.0136
3224.00,0.0136
3223.00,0.0135
3222.00,0.0135
3221.00,0.0134
3220.00,0.0134
3219.00,0.0133
3218.00,0.0133
3217.00,0.0132
3216.00,0.0132
3215.00,0.0131
3214.00,0.0131
3213.00,0.0131
3212.00,0.0130
3211.00,0.0130
3210.00,0.0129
3209.00,0.0129
3208.00,0.0128
3207.00,0.0128
3206.00,0.0127
3205.00,0.0127
3204.00,0.0126
3203.00,0.0126
3202.00,0.0125
3201.00,0.0125
3200.00,0.0124
3199.00,0.0124
3198.00,0.0123
3197.00,0.0123
3196.00,0.0122
3195.00,0.0122
3194.00,0.0121
3193.00,0.0121
3192.00,0.0121
3191.00,0.0121
3190.00,0.0120
3189.00,0.0119
3188.00,0.0119
3187.00,0.0118
3186.00,0.0118
3185.00,0.0118
3184.00,0.0117
3183.00,0.0117
3182.00,0.0116
3181.00,0.0116
3180.00,0.0115
3179.00,0.0115
3178.00,0.0114
3177.00,0.0114
3176.00,0.0114
3175.00,0.0114
3174.00,0.0113
3173.00,0.0113
3172.00,0.0113
3171.00,0.0112
3170.00,0.0112
3169.00,0.0111
3168.00,0.0111
3167.00,0.0110
3166.00,0.0110
3165.00,0.0109
3164.00,0.0109
3163.00,0.0109
3162.00,0.0108
3161.00,0.0108
3160.00,0.0108
3159.00,0.0107
3158.00,0.0107
3157.00,0.0106
3156.00,0.0106
3155.00,0.0106
3154.00,0.0105
3153.00,0.0105
3152.00,0.0105
3151.00,0.0104
3150.00,0.0104
3149.00,0.0104
3148.00,0.0103
3147.00,0.0103
3146.00,0.0102
3145.00,0.0102
3144.00,0.0101
3143.00,0.0101
3142.00,0.0100
3141.00,0.0100
3140.00,0.0100
3139.00,0.0099
3138.00,0.0099
3137.00,0.0098
3136.00,0.0098
3135.00,0.0098
3134.00,0.0097
3133.00,0.0097
3132.00,0.0097
3131.00,0.0097
3130.00,0.0097
3129.00,0.0096
3128.00,0.0096
3127.00,0.0096
3126.00,0.0096
3125.00,0.0095
3124.00,0.0095
3123.00,0.0095
3122.00,0.0095
3121.00,0.0094
3120.00,0.0094
3119.00,0.0094
3118.00,0.0094
3117.00,0.0093
3116.00,0.0093
3115.00,0.0093
3114.00,0.0093
3113.00,0.0092
3112.00,0.0092
3111.00,0.0092
3110.00,0.0091
3109.00,0.0091
3108.00,0.0090
3107.00,0.0090
3106.00,0.0089
3105.00,0.0089
3104.00,0.0088
3103.00,0.0088
3102.00,0.0087
3101.00,0.0087
3100.00,0.0087
3099.00,0.0087
3098.00,0.0087
3097.00,0.0087
3096.00,0.0086
3095.00,0.0086
3094.00,0.0086
3093.00,0.0086
3092.00,0.0086
3091.00,0.0085
3090.00,0.0085
3089.00,0.0085
3088.00,0.0085
3087.00,0.0085
3086.00,0.0085
3085.00,0.0085
3084.00,0.0084
3083.00,0.0084
3082.00,0.0085
3081.00,0.0085
3080.00,0.0085
3079.00,0.0085
3078.00,0.0084
3077.00,0.0084
3076.00,0.0084
3075.00,0.0084
3074.00,0.0084
3073.00,0.0083
3072.00,0.0083
3071.00,0.0083
3070.00,0.0082
3069.00,0.0082
3068.00,0.0082
3067.00,0.0081
3066.00,0.0081
3065.00,0.0081
3064.00,0.0080
3063.00,0.0080
3062.00,0.0080
3061.00,0.0079
3060.00,0.0079
3059.00,0.0078
3058.00,0.0078
3057.00,0.0078
3056.00,0.0078
3055.00,0.0078
3054.00,0.0077
3053.00,0.0077
3052.00,0.0077
3051.00,0.0077
3050.00,0.0077
3049.00,0.0077
3048.00,0.0077
3047.00,0.0076
3046.00,0.0076
3045.00,0.0076
3044.00,0.0075
3043.00,0.0075
3042.00,0.0075
3041.00,0.0075
3040.00,0.0075
3039.00,0.0074
3038.00,0.0074
3037.00,0.0074
3036.00,0.0074
3035.00,0.0074
3034.00,0.0074
3033.00,0.0074
3032.00,0.0074
3031.00,0.0074
3030.00,0.0073
3029.00,0.0073
3028.00,0.0073
3027.00,0.0072
3026.00,0.0072
3025.00,0.0072
3024.00,0.0072
3023.00,0.0072
3022.00,0.0072
3021.00,0.0071
3020.00,0.0072
3019.00,0.0072
3018.00,0.0072
3017.00,0.0073
3016.00,0.0073
3015.00,0.0074
3014.00,0.0074
3013.00,0.0075
3012.00,0.0075
3011.00,0.0076
3010.00,0.0077
3009.00,0.0079
3008.00,0.0080
3007.00,0.0082
3006.00,0.0084
3005.00,0.0085
3004.00,0.0088
3003.00,0.0090
3002.00,0.0092
3001.00,0.0095
3000.00,0.0098
2999.00,0.0101
2998.00,0.0105
2997.00,0.0108
2996.00,0.0112
2995.00,0.0115
2994.00,0.0119
2993.00,0.0123
2992.00,0.0127
2991.00,0.0131
2990.00,0.0135
2989.00,0.0139
2988.00,0.0143
2987.00,0.0148
2986.00,0.0152
2985.00,0.0156
2984.00,0.0160
2983.00,0.0164
2982.00,0.0167
2981.00,0.0170
2980.00,0.0172
2979.00,0.0174
2978.00,0.0176
2977.00,0.0178
2976.00,0.0179
2975.00,0.0181
2974.00,0.0183
2973.00,0.0184
2972.00,0.0186
2971.00,0.0188
2970.00,0.0190
2969.00,0.0193
2968.00,0.0195
2967.00,0.0198
2966.00,0.0201
2965.00,0.0204
2964.00,0.0207
2963.00,0.0210
2962.00,0.0213
2961.00,0.0216
2960.00,0.0218
2959.00,0.0220
2958.00,0.0223
2957.00,0.0225
2956.00,0.0227
2955.00,0.0228
2954.00,0.0229
2953.00,0.0229
2952.00,0.0229
2951.00,0.0229
2950.00,0.0228
2949.00,0.0226
2948.00,0.0225
2947.00,0.0223
2946.00,0.0222
2945.00,0.0220
2944.00,0.0219
2943.00,0.0219
2942.00,0.0219
2941.00,0.0219
2940.00,0.0220
2939.00,0.0221
2938.00,0.0222
2937.00,0.0224
2936.00,0.0225
2935.00,0.0228
2934.00,0.0230
2933.00,0.0232
2932.00,0.0235
2931.00,0.0237
2930.00,0.0239
2929.00,0.0241
2928.00,0.0242
2927.00,0.0243
2926.00,0.0244
2925.00,0.0244
2924.00,0.0243
2923.00,0.0242
2922.00,0.0240
2921.00,0.0238
2920.00,0.0236
2919.00,0.0233
2918.00,0.0230
2917.00,0.0226
2916.00,0.0222
2915.00,0.0218
2914.00,0.0213
2913.00,0.0209
2912.00,0.0205
2911.00,0.0200
2910.00,0.0196
2909.00,0.0193
2908.00,0.0189
2907.00,0.0186
2906.00,0.0183
2905.00,0.0180
2904.00,0.0178
2903.00,0.0177
2902.00,0.0175
2901.00,0.0174
2900.00,0.0174
2899.00,0.0173
2898.00,0.0173
2897.00,0.0172
2896.00,0.0172
2895.00,0.0172
2894.00,0.0172
2893.00,0.0172
2892.00,0.0172
2891.00,0.0171
2890.00,0.0171
2889.00,0.0170
2888.00,0.0170
2887.00,0.0169
2886.00,0.0169
2885.00,0.0169
2884.00,0.0169
2883.00,0.0169
2882.00,0.0169
2881.00,0.0169
2880.00,0.0169
2879.00,0.0169
2878.00,0.0170
2877.00,0.0170
2876.00,0.0171
2875.00,0.0172
2874.00,0.0173
2873.00,0.0173
2872.00,0.0173
2871.00,0.0174
2870.00,0.0173
2869.00,0.0173
2868.00,0.0173
2867.00,0.0172
2866.00,0.0171
2865.00,0.0171
2864.00,0.0171
2863.00,0.0171
2862.00,0.0171
2861.00,0.0171
2860.00,0.0171
2859.00,0.0171
2858.00,0.0170
2857.00,0.0169
2856.00,0.0167
2855.00,0.0164
2854.00,0.0161
2853.00,0.0157
2852.00,0.0152
2851.00,0.0148
2850.00,0.0142
2849.00,0.0137
2848.00,0.0131
2847.00,0.0126
2846.00,0.0121
2845.00,0.0117
2844.00,0.0112
2843.00,0.0108
2842.00,0.0104
2841.00,0.0100
2840.00,0.0097
2839.00,0.0093
2838.00,0.0090
2837.00,0.0088
2836.00,0.0086
2835.00,0.0083
2834.00,0.0081
2833.00,0.0079
2832.00,0.0077
2831.00,0.0075
2830.00,0.0074
2829.00,0.0072
2828.00,0.0071
2827.00,0.0069
2826.00,0.0067
2825.00,0.0066
2824.00,0.0064
2823.00,0.0063
2822.00,0.0061
2821.00,0.0060
2820.00,0.0059
2819.00,0.0058
2818.00,0.0057
2817.00,0.0056
2816.00,0.0055
2815.00,0.0054
2814.00,0.0054
2813.00,0.0053
2812.00,0.0052
2811.00,0.0052
2810.00,0.0051
2809.00,0.0051
2808.00,0.0050
2807.00,0.0050
2806.00,0.0049
2805.00,0.0049
2804.00,0.0048
2803.00,0.0048
2802.00,0.0047
2801.00,0.0047
2800.00,0.0046
2799.00,0.0046
2798.00,0.0045
2797.00,0.0045
2796.00,0.0045
2795.00,0.0045
2794.00,0.0045
2793.00,0.0044
2792.00,0.0044
2791.00,0.0044
2790.00,0.0043
2789.00,0.0043
2788.00,0.0043
2787.00,0.0043
2786.00,0.0042
2785.00,0.0042
2784.00,0.0042
2783.00,0.0042
2782.00,0.0042
2781.00,0.0042
2780.00,0.0042
2779.00,0.0042
2778.00,0.0041
2777.00,0.0041
2776.00,0.0041
2775.00,0.0040
2774.00,0.0040
2773.00,0.0040
2772.00,0.0040
2771.00,0.0040
2770.00,0.0040
2769.00,0.0039
2768.00,0.0039
2767.00,0.0039
2766.00,0.0039
2765.00,0.0039
2764.00,0.0039
2763.00,0.0038
2762.00,0.0038
2761.00,0.0038
2760.00,0.0038
2759.00,0.0039
2758.00,0.0039
2757.00,0.0039
2756.00,0.0039
2755.00,0.0039
2754.00,0.0039
2753.00,0.0039
2752.00,0.0039
2751.00,0.0039
2750.00,0.0039
2749.00,0.0039
2748.00,0.0039
2747.00,0.0039
2746.00,0.0039
2745.00,0.0039
2744.00,0.0039
2743.00,0.0039
2742.00,0.0040
2741.00,0.0040
2740.00,0.0040
2739.00,0.0040
2738.00,0.0040
2737.00,0.0040
2736.00,0.0040
2735.00,0.0040
2734.00,0.0040
2733.00,0.0040
2732.00,0.0040
2731.00,0.0040
2730.00,0.0040
2729.00,0.0039
2728.00,0.0039
2727.00,0.0039
2726.00,0.0039
2725.00,0.0038
2724.00,0.0038
2723.00,0.0038
2722.00,0.0038
2721.00,0.0038
2720.00,0.0038
2719.00,0.0038
2718.00,0.0038
2717.00,0.0038
2716.00,0.0038
2715.00,0.0038
2714.00,0.0038
2713.00,0.0037
2712.00,0.0037
2711.00,0.0037
2710.00,0.0037
2709.00,0.0037
2708.00,0.0036
2707.00,0.0036
2706.00,0.0036
2705.00,0.0036
2704.00,0.0036
2703.00,0.0036
2702.00,0.0036
2701.00,0.0036
2700.00,0.0036
2699.00,0.0035
2698.00,0.0035
2697.00,0.0035
2696.00,0.0034
2695.00,0.0034
2694.00,0.0034
2693.00,0.0033
2692.00,0.0033
2691.00,0.0033
2690.00,0.0033
2689.00,0.0033
2688.00,0.0033
2687.00,0.0033
2686.00,0.0033
2685.00,0.0033
2684.00,0.0032
2683.00,0.0032
2682.00,0.0032
2681.00,0.0032
2680.00,0.0032
2679.00,0.0032
2678.00,0.0032
2677.00,0.0032
2676.00,0.0032
2675.00,0.0032
2674.00,0.0032
2673.00,0.0032
2672.00,0.0032
2671.00,0.0032
2670.00,0.0032
2669.00,0.0031
2668.00,0.0032
2667.00,0.0032
2666.00,0.0032
2665.00,0.0033
2664.00,0.0033
2663.00,0.0033
2662.00,0.0034
2661.00,0.0034
2660.00,0.0034
2659.00,0.0033
2658.00,0.0033
2657.00,0.0033
2656.00,0.0033
2655.00,0.0033
2654.00,0.0033
2653.00,0.0033
2652.00,0.0033
2651.00,0.0033
2650.00,0.0033
2649.00,0.0033
2648.00,0.0032
2647.00,0.0032
2646.00,0.0033
2645.00,0.0033
2644.00,0.0032
2643.00,0.0032
2642.00,0.0032
2641.00,0.0032
2640.00,0.0031
2639.00,0.0031
2638.00,0.0031
2637.00,0.0031
2636.00,0.0031
2635.00,0.0031
2634.00,0.0031
2633.00,0.0031
2632.00,0.0031
2631.00,0.0031
2630.00,0.0030
2629.00,0.0030
2628.00,0.0030
2627.00,0.0029
2626.00,0.0029
2625.00,0.0029
2624.00,0.0029
2623.00,0.0029
2622.00,0.0029
2621.00,0.0029
2620.00,0.0029
2619.00,0.0028
2618.00,0.0028
2617.00,0.0028
2616.00,0.0028
2615.00,0.0027
2614.00,0.0027
2613.00,0.0027
2612.00,0.0027
2611.00,0.0027
2610.00,0.0027
2609.00,0.0027
2608.00,0.0027
2607.00,0.0027
2606.00,0.0027
2605.00,0.0027
2604.00,0.0027
2603.00,0.0027
2602.00,0.0026
2601.00,0.0026
2600.00,0.0026
2599.00,0.0026
2598.00,0.0026
2597.00,0.0026
2596.00,0.0026
2595.00,0.0026
2594.00,0.0025
2593.00,0.0025
2592.00,0.0025
2591.00,0.0025
2590.00,0.0025
2589.00,0.0025
2588.00,0.0025
2587.00,0.0025
2586.00,0.0025
2585.00,0.0025
2584.00,0.0025
2583.00,0.0025
2582.00,0.0025
2581.00,0.0024
2580.00,0.0024
2579.00,0.0024
2578.00,0.0024
2577.00,0.0024
2576.00,0.0024
2575.00,0.0024
2574.00,0.0024
2573.00,0.0024
2572.00,0.0023
2571.00,0.0023
2570.00,0.0023
2569.00,0.0022
2568.00,0.0022
2567.00,0.0022
2566.00,0.0022
2565.00,0.0021
2564.00,0.0021
2563.00,0.0022
2562.00,0.0022
2561.00,0.0022
2560.00,0.0021
2559.00,0.0021
2558.00,0.0021
2557.00,0.0020
2556.00,0.0020
2555.00,0.0020
2554.00,0.0020
2553.00,0.0020
2552.00,0.0020
2551.00,0.0020
2550.00,0.0020
2549.00,0.0020
2548.00,0.0020
2547.00,0.0020
2546.00,0.0019
2545.00,0.0019
2544.00,0.0019
2543.00,0.0019
2542.00,0.0019
2541.00,0.0019
2540.00,0.0019
2539.00,0.0019
2538.00,0.0019
2537.00,0.0019
2536.00,0.0019
2535.00,0.0019
2534.00,0.0018
2533.00,0.0018
2532.00,0.0018
2531.00,0.0018
2530.00,0.0018
2529.00,0.0017
2528.00,0.0017
2527.00,0.0017
2526.00,0.0016
2525.00,0.0016
2524.00,0.0016
2523.00,0.0016
2522.00,0.0016
2521.00,0.0016
2520.00,0.0016
2519.00,0.0016
2518.00,0.0016
2517.00,0.0015
2516.00,0.0015
2515.00,0.0015
2514.00,0.0015
2513.00,0.0015
2512.00,0.0015
2511.00,0.0016
2510.00,0.0016
2509.00,0.0016
2508.00,0.0016
2507.00,0.0016
2506.00,0.0016
2505.00,0.0015
2504.00,0.0015
2503.00,0.0015
2502.00,0.0015
2501.00,0.0015
2500.00,0.0015
2499.00,0.0015
2498.00,0.0014
2497.00,0.0014
2496.00,0.0014
2495.00,0.0014
2494.00,0.0014
2493.00,0.0013
2492.00,0.0013
2491.00,0.0013
2490.00,0.0013
2489.00,0.0013
2488.00,0.0013
2487.00,0.0013
2486.00,0.0013
2485.00,0.0013
2484.00,0.0013
2483.00,0.0014
2482.00,0.0013
2481.00,0.0013
2480.00,0.0013
2479.00,0.0013
2478.00,0.0012
2477.00,0.0012
2476.00,0.0012
2475.00,0.0012
2474.00,0.0012
2473.00,0.0012
2472.00,0.0012
2471.00,0.0013
2470.00,0.0013
2469.00,0.0013
2468.00,0.0013
2467.00,0.0013
2466.00,0.0013
2465.00,0.0013
2464.00,0.0013
2463.00,0.0013
2462.00,0.0013
2461.00,0.0014
2460.00,0.0014
2459.00,0.0014
2458.00,0.0014
2457.00,0.0015
2456.00,0.0015
2455.00,0.0014
2454.00,0.0014
2453.00,0.0014
2452.00,0.0013
2451.00,0.0013
2450.00,0.0013
2449.00,0.0013
2448.00,0.0013
2447.00,0.0013
2446.00,0.0013
2445.00,0.0013
2444.00,0.0013
2443.00,0.0013
2442.00,0.0013
2441.00,0.0013
2440.00,0.0012
2439.00,0.0012
2438.00,0.0012
2437.00,0.0012
2436.00,0.0012
2435.00,0.0012
2434.00,0.0012
2433.00,0.0012
2432.00,0.0012
2431.00,0.0012
2430.00,0.0012
2429.00,0.0012
2428.00,0.0012
2427.00,0.0012
2426.00,0.0012
2425.00,0.0012
2424.00,0.0012
2423.00,0.0012
2422.00,0.0012
2421.00,0.0011
2420.00,0.0011
2419.00,0.0011
2418.00,0.0011
2417.00,0.0011
2416.00,0.0012
2415.00,0.0012
2414.00,0.0011
2413.00,0.0011
2412.00,0.0012
2411.00,0.0012
2410.00,0.0012
2409.00,0.0012
2408.00,0.0011
2407.00,0.0011
2406.00,0.0011
2405.00,0.0011
2404.00,0.0011
2403.00,0.0011
2402.00,0.0011
2401.00,0.0010
2400.00,0.0010
2399.00,0.0010
2398.00,0.0010
2397.00,0.0010
2396.00,0.0010
2395.00,0.0010
2394.00,0.0010
2393.00,0.0010
2392.00,0.0010
2391.00,0.0010
2390.00,0.0010
2389.00,0.0009
2388.00,0.0009
2387.00,0.0009
2386.00,0.0009
2385.00,0.0008
2384.00,0.0008
2383.00,0.0008
2382.00,0.0007
2381.00,0.0007
2380.00,0.0007
2379.00,0.0007
2378.00,0.0007
2377.00,0.0007
2376.00,0.0007
2375.00,0.0007
2374.00,0.0007
2373.00,0.0006
2372.00,0.0006
2371.00,0.0006
2370.00,0.0006
2369.00,0.0006
2368.00,0.0007
2367.00,0.0007
2366.00,0.0007
2365.00,0.0008
2364.00,0.0008
2363.00,0.0008
2362.00,0.0008
2361.00,0.0008
2360.00,0.0008
2359.00,0.0008
2358.00,0.0008
2357.00,0.0008
2356.00,0.0008
2355.00,0.0009
2354.00,0.0008
2353.00,0.0008
2352.00,0.0008
2351.00,0.0008
2350.00,0.0009
2349.00,0.0010
2348.00,0.0011
2347.00,0.0012
2346.00,0.0012
2345.00,0.0011
2344.00,0.0011
2343.00,0.0011
2342.00,0.0011
2341.00,0.0012
2340.00,0.0012
2339.00,0.0012
2338.00,0.0012
2337.00,0.0012
2336.00,0.0012
2335.00,0.0013
2334.00,0.0013
2333.00,0.0013
2332.00,0.0013
2331.00,0.0012
2330.00,0.0012
2329.00,0.0013
2328.00,0.0015
2327.00,0.0019
2326.00,0.0022
2325.00,0.0023
2324.00,0.0023
2323.00,0.0021
2322.00,0.0019
2321.00,0.0018
2320.00,0.0017
2319.00,0.0016
2318.00,0.0016
2317.00,0.0015
2316.00,0.0015
2315.00,0.0014
2314.00,0.0014
2313.00,0.0013
2312.00,0.0012
2311.00,0.0012
2310.00,0.0012
2309.00,0.0013
2308.00,0.0013
2307.00,0.0014
2306.00,0.0014
2305.00,0.0014
2304.00,0.0014
2303.00,0.0014
2302.00,0.0014
2301.00,0.0015
2300.00,0.0015
2299.00,0.0016
2298.00,0.0017
2297.00,0.0017
2296.00,0.0017
2295.00,0.0018
2294.00,0.0018
2293.00,0.0019
2292.00,0.0020
2291.00,0.0021
2290.00,0.0021
2289.00,0.0022
2288.00,0.0022
2287.00,0.0023
2286.00,0.0023
2285.00,0.0022
2284.00,0.0021
2283.00,0.0020
2282.00,0.0020
2281.00,0.0019
2280.00,0.0019
2279.00,0.0019
2278.00,0.0019
2277.00,0.0019
2276.00,0.0019
2275.00,0.0019
2274.00,0.0019
2273.00,0.0018
2272.00,0.0018
2271.00,0.0017
2270.00,0.0017
2269.00,0.0016
2268.00,0.0016
2267.00,0.0016
2266.00,0.0016
2265.00,0.0016
2264.00,0.0016
2263.00,0.0016
2262.00,0.0016
2261.00,0.0017
2260.00,0.0017
2259.00,0.0016
2258.00,0.0016
2257.00,0.0016
2256.00,0.0016
2255.00,0.0016
2254.00,0.0016
2253.00,0.0016
2252.00,0.0016
2251.00,0.0016
2250.00,0.0016
2249.00,0.0015
2248.00,0.0015
2247.00,0.0015
2246.00,0.0015
2245.00,0.0015
2244.00,0.0016
2243.00,0.0016
2242.00,0.0016
2241.00,0.0016
2240.00,0.0016
2239.00,0.0016
2238.00,0.0016
2237.00,0.0015
2236.00,0.0015
2235.00,0.0015
2234.00,0.0015
2233.00,0.0016
2232.00,0.0016
2231.00,0.0017
2230.00,0.0017
2229.00,0.0017
2228.00,0.0017
2227.00,0.0016
2226.00,0.0016
2225.00,0.0016
2224.00,0.0017
2223.00,0.0018
2222.00,0.0017
2221.00,0.0016
2220.00,0.0015
2219.00,0.0015
2218.00,0.0016
2217.00,0.0016
2216.00,0.0017
2215.00,0.0018
2214.00,0.0017
2213.00,0.0016
2212.00,0.0016
2211.00,0.0016
2210.00,0.0016
2209.00,0.0017
2208.00,0.0017
2207.00,0.0017
2206.00,0.0017
2205.00,0.0016
2204.00,0.0016
2203.00,0.0015
2202.00,0.0015
2201.00,0.0015
2200.00,0.0016
2199.00,0.0016
2198.00,0.0017
2197.00,0.0017
2196.00,0.0017
2195.00,0.0017
2194.00,0.0016
2193.00,0.0015
2192.00,0.0015
2191.00,0.0017
2190.00,0.0018
2189.00,0.0020
2188.00,0.0022
2187.00,0.0023
2186.00,0.0023
2185.00,0.0021
2184.00,0.0019
2183.00,0.0016
2182.00,0.0013
2181.00,0.0012
2180.00,0.0012
2179.00,0.0014
2178.00,0.0015
2177.00,0.0015
2176.00,0.0015
2175.00,0.0015
2174.00,0.0016
2173.00,0.0017
2172.00,0.0018
2171.00,0.0020
2170.00,0.0022
2169.00,0.0024
2168.00,0.0026
2167.00,0.0027
2166.00,0.0028
2165.00,0.0028
2164.00,0.0030
2163.00,0.0030
2162.00,0.0025
2161.00,0.0015
2160.00,0.0002
2159.00,-0.0009
2158.00,-0.0015
2157.00,-0.0016
2156.00,-0.0013
2155.00,-0.0010
2154.00,-0.0007
2153.00,-0.0004
2152.00,-0.0002
2151.00,-0.0001
2150.00,-0.0000
2149.00,0.0001
2148.00,0.0002
2147.00,0.0003
2146.00,0.0003
2145.00,0.0003
2144.00,0.0002
2143.00,0.0002
2142.00,0.0003
2141.00,0.0003
2140.00,0.0003
2139.00,0.0003
2138.00,0.0001
2137.00,-0.0001
2136.00,-0.0002
2135.00,-0.0003
2134.00,-0.0003
2133.00,-0.0002
2132.00,-0.0001
2131.00,0.0000
2130.00,0.0001
2129.00,0.0003
2128.00,0.0005
2127.00,0.0007
2126.00,0.0008
2125.00,0.0009
2124.00,0.0010
2123.00,0.0010
2122.00,0.0011
2121.00,0.0011
2120.00,0.0011
2119.00,0.0011
2118.00,0.0011
2117.00,0.0011
2116.00,0.0012
2115.00,0.0012
2114.00,0.0012
2113.00,0.0012
2112.00,0.0013
2111.00,0.0013
2110.00,0.0013
2109.00,0.0012
2108.00,0.0012
2107.00,0.0012
2106.00,0.0013
2105.00,0.0013
2104.00,0.0014
2103.00,0.0014
2102.00,0.0014
2101.00,0.0014
2100.00,0.0014
2099.00,0.0013
2098.00,0.0012
2097.00,0.0011
2096.00,0.0009
2095.00,0.0009
2094.00,0.0009
2093.00,0.0010
2092.00,0.0011
2091.00,0.0012
2090.00,0.0012
2089.00,0.0012
2088.00,0.0012
2087.00,0.0012
2086.00,0.0012
2085.00,0.0013
2084.00,0.0013
2083.00,0.0014
2082.00,0.0014
2081.00,0.0015
2080.00,0.0015
2079.00,0.0016
2078.00,0.0016
2077.00,0.0016
2076.00,0.0015
2075.00,0.0015
2074.00,0.0014
2073.00,0.0013
2072.00,0.0013
2071.00,0.0012
2070.00,0.0012
2069.00,0.0012
2068.00,0.0013
2067.00,0.0014
2066.00,0.0013
2065.00,0.0013
2064.00,0.0012
2063.00,0.0012
2062.00,0.0011
2061.00,0.0011
2060.00,0.0012
2059.00,0.0013
2058.00,0.0014
2057.00,0.0014
2056.00,0.0013
2055.00,0.0013
2054.00,0.0014
2053.00,0.0017
2052.00,0.0019
2051.00,0.0020
2050.00,0.0018
2049.00,0.0014
2048.00,0.0012
2047.00,0.0010
2046.00,0.0010
2045.00,0.0010
2044.00,0.0011
2043.00,0.0012
2042.00,0.0012
2041.00,0.0012
2040.00,0.0013
2039.00,0.0013
2038.00,0.0013
2037.00,0.0012
2036.00,0.0012
2035.00,0.0011
2034.00,0.0010
2033.00,0.0009
2032.00,0.0010
2031.00,0.0010
2030.00,0.0009
2029.00,0.0008
2028.00,0.0006
2027.00,0.0005
2026.00,0.0005
2025.00,0.0005
2024.00,0.0005
2023.00,0.0004
2022.00,0.0003
2021.00,0.0004
2020.00,0.0005
2019.00,0.0007
2018.00,0.0007
2017.00,0.0007
2016.00,0.0007
2015.00,0.0006
2014.00,0.0005
2013.00,0.0003
2012.00,0.0003
2011.00,0.0002
2010.00,0.0002
2009.00,0.0002
2008.00,0.0002
2007.00,-0.0000
2006.00,-0.0003
2005.00,-0.0004
2004.00,-0.0003
2003.00,-0.0001
2002.00,0.0000
2001.00,0.0002
2000.00,0.0005
1999.00,0.0007
1998.00,0.0009
1997.00,0.0009
1996.00,0.0009
1995.00,0.0008
1994.00,0.0007
1993.00,0.0006
1992.00,0.0007
1991.00,0.0007
1990.00,0.0007
1989.00,0.0007
1988.00,0.0008
1987.00,0.0009
1986.00,0.0009
1985.00,0.0010
1984.00,0.0013
1983.00,0.0016
1982.00,0.0018
1981.00,0.0019
1980.00,0.0017
1979.00,0.0013
1978.00,0.0007
1977.00,0.0002
1976.00,-0.0000
1975.00,-0.0001
1974.00,-0.0001
1973.00,-0.0001
1972.00,-0.0001
1971.00,-0.0001
1970.00,-0.0002
1969.00,-0.0003
1968.00,-0.0002
1967.00,-0.0001
1966.00,-0.0000
1965.00,-0.0001
1964.00,-0.0001
1963.00,-0.0001
1962.00,-0.0002
1961.00,-0.0004
1960.00,-0.0004
1959.00,-0.0005
1958.00,-0.0006
1957.00,-0.0006
1956.00,-0.0004
1955.00,-0.0002
1954.00,-0.0001
1953.00,-0.0000
1952.00,0.0001
1951.00,0.0001
1950.00,0.0000
1949.00,-0.0000
1948.00,-0.0000
1947.00,-0.0000
1946.00,-0.0001
1945.00,-0.0001
1944.00,-0.0001
1943.00,0.0000
1942.00,0.0001
1941.00,0.0002
1940.00,0.0002
1939.00,0.0002
1938.00,0.0001
1937.00,0.0001
1936.00,0.0002
1935.00,0.0003
1934.00,0.0003
1933.00,0.0003
1932.00,0.0003
1931.00,0.0003
1930.00,0.0002
1929.00,0.0002
1928.00,0.0002
1927.00,0.0002
1926.00,0.0002
1925.00,0.0002
1924.00,0.0003
1923.00,0.0003
1922.00,0.0004
1921.00,0.0004
1920.00,0.0004
1919.00,0.0004
1918.00,0.0003
1917.00,0.0003
1916.00,0.0004
1915.00,0.0004
1914.00,0.0004
1913.00,0.0004
1912.00,0.0004
1911.00,0.0005
1910.00,0.0004
1909.00,0.0004
1908.00,0.0004
1907.00,0.0004
1906.00,0.0004
1905.00,0.0005
1904.00,0.0006
1903.00,0.0006
1902.00,0.0006
1901.00,0.0006
1900.00,0.0006
1899.00,0.0007
1898.00,0.0006
1897.00,0.0006
1896.00,0.0007
1895.00,0.0007
1894.00,0.0006
1893.00,0.0006
1892.00,0.0005
1891.00,0.0005
1890.00,0.0005
1889.00,0.0005
1888.00,0.0006
1887.00,0.0007
1886.00,0.0007
1885.00,0.0007
1884.00,0.0007
1883.00,0.0007
1882.00,0.0007
1881.00,0.0006
1880.00,0.0006
1879.00,0.0006
1878.00,0.0006
1877.00,0.0006
1876.00,0.0006
1875.00,0.0006
1874.00,0.0006
1873.00,0.0006
1872.00,0.0005
1871.00,0.0005
1870.00,0.0004
1869.00,0.0004
1868.00,0.0005
1867.00,0.0006
1866.00,0.0006
1865.00,0.0006
1864.00,0.0007
1863.00,0.0007
1862.00,0.0007
1861.00,0.0007
1860.00,0.0008
1859.00,0.0008
1858.00,0.0008
1857.00,0.0008
1856.00,0.0008
1855.00,0.0008
1854.00,0.0008
1853.00,0.0008
1852.00,0.0007
1851.00,0.0007
1850.00,0.0007
1849.00,0.0007
1848.00,0.0007
1847.00,0.0007
1846.00,0.0007
1845.00,0.0007
1844.00,0.0008
1843.00,0.0009
1842.00,0.0008
1841.00,0.0008
1840.00,0.0009
1839.00,0.0009
1838.00,0.0009
1837.00,0.0009
1836.00,0.0009
1835.00,0.0009
1834.00,0.0008
1833.00,0.0007
1832.00,0.0007
1831.00,0.0007
1830.00,0.0007
1829.00,0.0008
1828.00,0.0008
1827.00,0.0008
1826.00,0.0008
1825.00,0.0008
1824.00,0.0009
1823.00,0.0009
1822.00,0.0009
1821.00,0.0010
1820.00,0.0010
1819.00,0.0009
1818.00,0.0008
1817.00,0.0008
1816.00,0.0008
1815.00,0.0008
1814.00,0.0009
1813.00,0.0009
1812.00,0.0009
1811.00,0.0009
1810.00,0.0009
1809.00,0.0009
1808.00,0.0010
1807.00,0.0011
1806.00,0.0011
1805.00,0.0011
1804.00,0.0011
1803.00,0.0011
1802.00,0.0011
1801.00,0.0011
1800.00,0.0011
1799.00,0.0011
1798.00,0.0012
1797.00,0.0012
1796.00,0.0012
1795.00,0.0012
1794.00,0.0012
1793.00,0.0012
1792.00,0.0013
1791.00,0.0014
1790.00,0.0014
1789.00,0.0014
1788.00,0.0015
1787.00,0.0015
1786.00,0.0015
1785.00,0.0015
1784.00,0.0015
1783.00,0.0015
1782.00,0.0015
1781.00,0.0015
1780.00,0.0016
1779.00,0.0016
1778.00,0.0016
1777.00,0.0016
1776.00,0.0015
1775.00,0.0015
1774.00,0.0015
1773.00,0.0015
1772.00,0.0016
1771.00,0.0017
1770.00,0.0018
1769.00,0.0019
1768.00,0.0020
1767.00,0.0021
1766.00,0.0021
1765.00,0.0021
1764.00,0.0021
1763.00,0.0021
1762.00,0.0021
1761.00,0.0022
1760.00,0.0022
1759.00,0.0023
1758.00,0.0023
1757.00,0.0024
1756.00,0.0024
1755.00,0.0025
1754.00,0.0025
1753.00,0.0025
1752.00,0.0025
1751.00,0.0025
1750.00,0.0025
1749.00,0.0025
1748.00,0.0026
1747.00,0.0027
1746.00,0.0027
1745.00,0.0028
1744.00,0.0029
1743.00,0.0030
1742.00,0.0030
1741.00,0.0031
1740.00,0.0033
1739.00,0.0034
1738.00,0.0034
1737.00,0.0034
1736.00,0.0035
1735.00,0.0037
1734.00,0.0038
1733.00,0.0039
1732.00,0.0040
1731.00,0.0041
1730.00,0.0043
1729.00,0.0045
1728.00,0.0047
1727.00,0.0049
1726.00,0.0051
1725.00,0.0052
1724.00,0.0054
1723.00,0.0056
1722.00,0.0058
1721.00,0.0059
1720.00,0.0061
1719.00,0.0063
1718.00,0.0064
1717.00,0.0066
1716.00,0.0069
1715.00,0.0073
1714.00,0.0077
1713.00,0.0081
1712.00,0.0085
1711.00,0.0091
1710.00,0.0095
1709.00,0.0100
1708.00,0.0106
1707.00,0.0113
1706.00,0.0120
1705.00,0.0128
1704.00,0.0137
1703.00,0.0148
1702.00,0.0159
1701.00,0.0173
1700.00,0.0190
1699.00,0.0207
1698.00,0.0224
1697.00,0.0244
1696.00,0.0269
1695.00,0.0295
1694.00,0.0321
1693.00,0.0347
1692.00,0.0376
1691.00,0.0407
1690.00,0.0438
1689.00,0.0469
1688.00,0.0501
1687.00,0.0534
1686.00,0.0567
1685.00,0.0595
1684.00,0.0619
1683.00,0.0642
1682.00,0.0670
1681.00,0.0700
1680.00,0.0730
1679.00,0.0760
1678.00,0.0789
1677.00,0.0816
1676.00,0.0838
1675.00,0.0853
1674.00,0.0869
1673.00,0.0891
1672.00,0.0919
1671.00,0.0943
1670.00,0.0958
1669.00,0.0969
1668.00,0.0984
1667.00,0.1008
1666.00,0.1037
1665.00,0.1066
1664.00,0.1090
1663.00,0.1104
1662.00,0.1112
1661.00,0.1124
1660.00,0.1142
1659.00,0.1163
1658.00,0.1184
1657.00,0.1210
1656.00,0.1240
1655.00,0.1265
1654.00,0.1253
1653.00,0.1197
1652.00,0.1153
1651.00,0.1153
1650.00,0.1175
1649.00,0.1195
1648.00,0.1194
1647.00,0.1163
1646.00,0.1119
1645.00,0.1086
1644.00,0.1068
1643.00,0.1056
1642.00,0.1040
1641.00,0.1018
1640.00,0.0994
1639.00,0.0971
1638.00,0.0947
1637.00,0.0911
1636.00,0.0855
1635.00,0.0794
1634.00,0.0749
1633.00,0.0722
1632.00,0.0703
1631.00,0.0684
1630.00,0.0661
1629.00,0.0635
1628.00,0.0609
1627.00,0.0588
1626.00,0.0574
1625.00,0.0565
1624.00,0.0559
1623.00,0.0553
1622.00,0.0550
1621.00,0.0553
1620.00,0.0559
1619.00,0.0564
1618.00,0.0560
1617.00,0.0544
1616.00,0.0523
1615.00,0.0504
1614.00,0.0491
1613.00,0.0482
1612.00,0.0473
1611.00,0.0462
1610.00,0.0450
1609.00,0.0437
1608.00,0.0421
1607.00,0.0404
1606.00,0.0385
1605.00,0.0364
1604.00,0.0343
1603.00,0.0321
1602.00,0.0301
1601.00,0.0283
1600.00,0.0267
1599.00,0.0254
1598.00,0.0243
1597.00,0.0235
1596.00,0.0229
1595.00,0.0226
1594.00,0.0226
1593.00,0.0230
1592.00,0.0237
1591.00,0.0248
1590.00,0.0261
1589.00,0.0275
1588.00,0.0290
1587.00,0.0301
1586.00,0.0309
1585.00,0.0312
1584.00,0.0309
1583.00,0.0301
1582.00,0.0289
1581.00,0.0274
1580.00,0.0260
1579.00,0.0248
1578.00,0.0235
1577.00,0.0221
1576.00,0.0206
1575.00,0.0194
1574.00,0.0185
1573.00,0.0181
1572.00,0.0177
1571.00,0.0172
1570.00,0.0165
1569.00,0.0158
1568.00,0.0152
1567.00,0.0148
1566.00,0.0145
1565.00,0.0141
1564.00,0.0137
1563.00,0.0133
1562.00,0.0131
1561.00,0.0128
1560.00,0.0123
1559.00,0.0115
1558.00,0.0110
1557.00,0.0108
1556.00,0.0109
1555.00,0.0109
1554.00,0.0109
1553.00,0.0108
1552.00,0.0107
1551.00,0.0105
1550.00,0.0104
1549.00,0.0103
1548.00,0.0102
1547.00,0.0101
1546.00,0.0100
1545.00,0.0098
1544.00,0.0095
1543.00,0.0093
1542.00,0.0092
1541.00,0.0091
1540.00,0.0090
1539.00,0.0090
1538.00,0.0091
1537.00,0.0091
1536.00,0.0092
1535.00,0.0092
1534.00,0.0092
1533.00,0.0092
1532.00,0.0092
1531.00,0.0093
1530.00,0.0094
1529.00,0.0094
1528.00,0.0095
1527.00,0.0095
1526.00,0.0096
1525.00,0.0097
1524.00,0.0098
1523.00,0.0100
1522.00,0.0103
1521.00,0.0105
1520.00,0.0108
1519.00,0.0110
1518.00,0.0112
1517.00,0.0115
1516.00,0.0118
1515.00,0.0120
1514.00,0.0122
1513.00,0.0124
1512.00,0.0126
1511.00,0.0126
1510.00,0.0127
1509.00,0.0128
1508.00,0.0130
1507.00,0.0135
1506.00,0.0143
1505.00,0.0152
1504.00,0.0163
1503.00,0.0174
1502.00,0.0188
1501.00,0.0204
1500.00,0.0222
1499.00,0.0241
1498.00,0.0261
1497.00,0.0278
1496.00,0.0292
1495.00,0.0300
1494.00,0.0304
1493.00,0.0305
1492.00,0.0301
1491.00,0.0289
1490.00,0.0272
1489.00,0.0253
1488.00,0.0235
1487.00,0.0218
1486.00,0.0204
1485.00,0.0191
1484.00,0.0180
1483.00,0.0171
1482.00,0.0163
1481.00,0.0158
1480.00,0.0154
1479.00,0.0153
1478.00,0.0154
1477.00,0.0157
1476.00,0.0161
1475.00,0.0168
1474.00,0.0179
1473.00,0.0194
1472.00,0.0216
1471.00,0.0241
1470.00,0.0268
1469.00,0.0298
1468.00,0.0331
1467.00,0.0366
1466.00,0.0403
1465.00,0.0441
1464.00,0.0476
1463.00,0.0505
1462.00,0.0527
1461.00,0.0543
1460.00,0.0551
1459.00,0.0548
1458.00,0.0527
1457.00,0.0490
1456.00,0.0450
1455.00,0.0424
1454.00,0.0409
1453.00,0.0399
1452.00,0.0392
1451.00,0.0390
1450.00,0.0393
1449.00,0.0403
1448.00,0.0419
1447.00,0.0439
1446.00,0.0464
1445.00,0.0491
1444.00,0.0519
1443.00,0.0545
1442.00,0.0569
1441.00,0.0592
1440.00,0.0612
1439.00,0.0629
1438.00,0.0640
1437.00,0.0644
1436.00,0.0642
1435.00,0.0641
1434.00,0.0644
1433.00,0.0649
1432.00,0.0652
1431.00,0.0653
1430.00,0.0655
1429.00,0.0662
1428.00,0.0676
1427.00,0.0694
1426.00,0.0715
1425.00,0.0737
1424.00,0.0755
1423.00,0.0768
1422.00,0.0776
1421.00,0.0774
1420.00,0.0753
1419.00,0.0709
1418.00,0.0657
1417.00,0.0612
1416.00,0.0573
1415.00,0.0536
1414.00,0.0502
1413.00,0.0471
1412.00,0.0445
1411.00,0.0423
1410.00,0.0407
1409.00,0.0396
1408.00,0.0390
1407.00,0.0386
1406.00,0.0385
1405.00,0.0384
1404.00,0.0384
1403.00,0.0384
1402.00,0.0383
1401.00,0.0380
1400.00,0.0371
1399.00,0.0357
1398.00,0.0340
1397.00,0.0324
1396.00,0.0307
1395.00,0.0288
1394.00,0.0271
1393.00,0.0258
1392.00,0.0249
1391.00,0.0243
1390.00,0.0239
1389.00,0.0238
1388.00,0.0237
1387.00,0.0240
1386.00,0.0245
1385.00,0.0253
1384.00,0.0262
1383.00,0.0272
1382.00,0.0282
1381.00,0.0292
1380.00,0.0300
1379.00,0.0307
1378.00,0.0311
1377.00,0.0314
1376.00,0.0314
1375.00,0.0312
1374.00,0.0308
1373.00,0.0304
1372.00,0.0301
1371.00,0.0297
1370.00,0.0292
1369.00,0.0287
1368.00,0.0281
1367.00,0.0277
1366.00,0.0274
1365.00,0.0273
1364.00,0.0272
1363.00,0.0273
1362.00,0.0273
1361.00,0.0273
1360.00,0.0270
1359.00,0.0264
1358.00,0.0254
1357.00,0.0243
1356.00,0.0230
1355.00,0.0218
1354.00,0.0208
1353.00,0.0201
1352.00,0.0195
1351.00,0.0191
1350.00,0.0189
1349.00,0.0188
1348.00,0.0187
1347.00,0.0186
1346.00,0.0186
1345.00,0.0186
1344.00,0.0186
1343.00,0.0186
1342.00,0.0186
1341.00,0.0187
1340.00,0.0189
1339.00,0.0191
1338.00,0.0194
1337.00,0.0198
1336.00,0.0203
1335.00,0.0208
1334.00,0.0214
1333.00,0.0219
1332.00,0.0225
1331.00,0.0231
1330.00,0.0238
1329.00,0.0245
1328.00,0.0252
1327.00,0.0261
1326.00,0.0270
1325.00,0.0280
1324.00,0.0290
1323.00,0.0300
1322.00,0.0310
1321.00,0.0319
1320.00,0.0325
1319.00,0.0330
1318.00,0.0331
1317.00,0.0330
1316.00,0.0327
1315.00,0.0322
1314.00,0.0315
1313.00,0.0308
1312.00,0.0301
1311.00,0.0295
1310.00,0.0291
1309.00,0.0289
1308.00,0.0289
1307.00,0.0291
1306.00,0.0295
1305.00,0.0302
1304.00,0.0312
1303.00,0.0325
1302.00,0.0342
1301.00,0.0364
1300.00,0.0391
1299.00,0.0424
1298.00,0.0464
1297.00,0.0510
1296.00,0.0562
1295.00,0.0616
1294.00,0.0671
1293.00,0.0724
1292.00,0.0772
1291.00,0.0813
1290.00,0.0847
1289.00,0.0872
1288.00,0.0888
1287.00,0.0895
1286.00,0.0895
1285.00,0.0887
1284.00,0.0873
1283.00,0.0855
1282.00,0.0835
1281.00,0.0816
1280.00,0.0800
1279.00,0.0788
1278.00,0.0781
1277.00,0.0778
1276.00,0.0777
1275.00,0.0777
1274.00,0.0775
1273.00,0.0772
1272.00,0.0764
1271.00,0.0751
1270.00,0.0733
1269.00,0.0710
1268.00,0.0684
1267.00,0.0655
1266.00,0.0624
1265.00,0.0594
1264.00,0.0563
1263.00,0.0533
1262.00,0.0506
1261.00,0.0479
1260.00,0.0455
1259.00,0.0433
1258.00,0.0413
1257.00,0.0395
1256.00,0.0379
1255.00,0.0365
1254.00,0.0352
1253.00,0.0342
1252.00,0.0333
1251.00,0.0326
1250.00,0.0321
1249.00,0.0319
1248.00,0.0319
1247.00,0.0321
1246.00,0.0325
1245.00,0.0331
1244.00,0.0339
1243.00,0.0347
1242.00,0.0355
1241.00,0.0362
1240.00,0.0369
1239.00,0.0375
1238.00,0.0380
1237.00,0.0385
1236.00,0.0389
1235.00,0.0394
1234.00,0.0397
1233.00,0.0399
1232.00,0.0401
1231.00,0.0401
1230.00,0.0400
1229.00,0.0399
1228.00,0.0397
1227.00,0.0395
1226.00,0.0394
1225.00,0.0393
1224.00,0.0393
1223.00,0.0394
1222.00,0.0396
1221.00,0.0398
1220.00,0.0400
1219.00,0.0400
1218.00,0.0399
1217.00,0.0395
1216.00,0.0389
1215.00,0.0380
1214.00,0.0368
1213.00,0.0356
1212.00,0.0342
1211.00,0.0329
1210.00,0.0317
1209.00,0.0305
1208.00,0.0296
1207.00,0.0287
1206.00,0.0281
1205.00,0.0276
1204.00,0.0274
1203.00,0.0273
1202.00,0.0275
1201.00,0.0279
1200.00,0.0285
1199.00,0.0292
1198.00,0.0300
1197.00,0.0308
1196.00,0.0316
1195.00,0.0322
1194.00,0.0325
1193.00,0.0324
1192.00,0.0318
1191.00,0.0310
1190.00,0.0299
1189.00,0.0287
1188.00,0.0275
1187.00,0.0264
1186.00,0.0254
1185.00,0.0246
1184.00,0.0239
1183.00,0.0234
1182.00,0.0230
1181.00,0.0228
1180.00,0.0228
1179.00,0.0228
1178.00,0.0230
1177.00,0.0232
1176.00,0.0236
1175.00,0.0239
1174.00,0.0243
1173.00,0.0247
1172.00,0.0250
1171.00,0.0252
1170.00,0.0254
1169.00,0.0254
1168.00,0.0254
1167.00,0.0252
1166.00,0.0251
1165.00,0.0251
1164.00,0.0253
1163.00,0.0256
1162.00,0.0262
1161.00,0.0270
1160.00,0.0279
1159.00,0.0287
1158.00,0.0295
1157.00,0.0300
1156.00,0.0301
1155.00,0.0298
1154.00,0.0292
1153.00,0.0282
1152.00,0.0270
1151.00,0.0256
1150.00,0.0243
1149.00,0.0229
1148.00,0.0216
1147.00,0.0204
1146.00,0.0194
1145.00,0.0185
1144.00,0.0178
1143.00,0.0173
1142.00,0.0168
1141.00,0.0166
1140.00,0.0164
1139.00,0.0165
1138.00,0.0168
1137.00,0.0174
1136.00,0.0183
1135.00,0.0196
1134.00,0.0213
1133.00,0.0231
1132.00,0.0250
1131.00,0.0267
1130.00,0.0278
1129.00,0.0281
1128.00,0.0276
1127.00,0.0264
1126.00,0.0248
1125.00,0.0231
1124.00,0.0215
1123.00,0.0201
1122.00,0.0191
1121.00,0.0183
1120.00,0.0178
1119.00,0.0174
1118.00,0.0171
1117.00,0.0170
1116.00,0.0170
1115.00,0.0170
1114.00,0.0171
1113.00,0.0172
1112.00,0.0173
1111.00,0.0174
1110.00,0.0176
1109.00,0.0178
1108.00,0.0180
1107.00,0.0183
1106.00,0.0187
1105.00,0.0193
1104.00,0.0199
1103.00,0.0205
1102.00,0.0212
1101.00,0.0217
1100.00,0.0220
1099.00,0.0220
1098.00,0.0217
1097.00,0.0213
1096.00,0.0208
1095.00,0.0202
1094.00,0.0197
1093.00,0.0192
1092.00,0.0188
1091.00,0.0183
1090.00,0.0180
1089.00,0.0178
1088.00,0.0176
1087.00,0.0176
1086.00,0.0175
1085.00,0.0176
1084.00,0.0177
1083.00,0.0179
1082.00,0.0181
1081.00,0.0185
1080.00,0.0189
1079.00,0.0193
1078.00,0.0198
1077.00,0.0204
1076.00,0.0209
1075.00,0.0214
1074.00,0.0220
1073.00,0.0226
1072.00,0.0233
1071.00,0.0240
1070.00,0.0250
1069.00,0.0261
1068.00,0.0275
1067.00,0.0291
1066.00,0.0309
1065.00,0.0330
1064.00,0.0352
1063.00,0.0376
1062.00,0.0400
1061.00,0.0422
1060.00,0.0441
1059.00,0.0455
1058.00,0.0461
1057.00,0.0460
1056.00,0.0450
1055.00,0.0431
1054.00,0.0407
1053.00,0.0379
1052.00,0.0349
1051.00,0.0321
1050.00,0.0296
1049.00,0.0274
1048.00,0.0256
1047.00,0.0242
1046.00,0.0231
1045.00,0.0222
1044.00,0.0216
1043.00,0.0211
1042.00,0.0207
1041.00,0.0205
1040.00,0.0204
1039.00,0.0203
1038.00,0.0203
1037.00,0.0204
1036.00,0.0205
1035.00,0.0208
1034.00,0.0212
1033.00,0.0216
1032.00,0.0221
1031.00,0.0225
1030.00,0.0227
1029.00,0.0226
1028.00,0.0224
1027.00,0.0219
1026.00,0.0215
1025.00,0.0211
1024.00,0.0208
1023.00,0.0207
1022.00,0.0208
1021.00,0.0210
1020.00,0.0213
1019.00,0.0215
1018.00,0.0216
1017.00,0.0216
1016.00,0.0213
1015.00,0.0208
1014.00,0.0202
1013.00,0.0195
1012.00,0.0190
1011.00,0.0185
1010.00,0.0183
1009.00,0.0183
1008.00,0.0186
1007.00,0.0192
1006.00,0.0201
1005.00,0.0210
1004.00,0.0218
1003.00,0.0223
1002.00,0.0225
1001.00,0.0223
1000.00,0.0218
999.00,0.0213
998.00,0.0206
997.00,0.0200
996.00,0.0194
995.00,0.0189
994.00,0.0185
993.00,0.0181
992.00,0.0176
991.00,0.0172
990.00,0.0168
989.00,0.0164
988.00,0.0160
987.00,0.0156
986.00,0.0152
985.00,0.0149
984.00,0.0146
983.00,0.0144
982.00,0.0142
981.00,0.0141
980.00,0.0140
979.00,0.0140
978.00,0.0140
977.00,0.0139
976.00,0.0139
975.00,0.0138
974.00,0.0137
973.00,0.0136
972.00,0.0135
971.00,0.0133
970.00,0.0131
969.00,0.0130
968.00,0.0128
967.00,0.0127
966.00,0.0126
965.00,0.0124
964.00,0.0123
963.00,0.0121
962.00,0.0120
961.00,0.0119
960.00,0.0117
959.00,0.0116
958.00,0.0115
957.00,0.0114
956.00,0.0113
955.00,0.0112
954.00,0.0112
953.00,0.0111
952.00,0.0111
951.00,0.0110
950.00,0.0110
949.00,0.0111
948.00,0.0111
947.00,0.0112
946.00,0.0114
945.00,0.0115
944.00,0.0117
943.00,0.0120
942.00,0.0123
941.00,0.0128
940.00,0.0134
939.00,0.0141
938.00,0.0149
937.00,0.0157
936.00,0.0165
935.00,0.0171
934.00,0.0176
933.00,0.0178
932.00,0.0178
931.00,0.0175
930.00,0.0172
929.00,0.0169
928.00,0.0166
927.00,0.0165
926.00,0.0165
925.00,0.0164
924.00,0.0163
923.00,0.0162
922.00,0.0159
921.00,0.0157
920.00,0.0154
919.00,0.0151
918.00,0.0149
917.00,0.0146
916.00,0.0144
915.00,0.0142
914.00,0.0140
913.00,0.0139
912.00,0.0138
911.00,0.0138
910.00,0.0139
909.00,0.0140
908.00,0.0141
907.00,0.0144
906.00,0.0147
905.00,0.0152
904.00,0.0158
903.00,0.0164
902.00,0.0170
901.00,0.0177
900.00,0.0183
899.00,0.0187
898.00,0.0191
897.00,0.0192
896.00,0.0193
895.00,0.0192
894.00,0.0189
893.00,0.0186
892.00,0.0181
891.00,0.0176
890.00,0.0172
889.00,0.0169
888.00,0.0166
887.00,0.0165
886.00,0.0165
885.00,0.0165
884.00,0.0167
883.00,0.0169
882.00,0.0172
881.00,0.0176
880.00,0.0180
879.00,0.0185
878.00,0.0191
877.00,0.0197
876.00,0.0205
875.00,0.0212
874.00,0.0220
873.00,0.0226
872.00,0.0231
871.00,0.0235
870.00,0.0237
869.00,0.0239
868.00,0.0239
867.00,0.0239
866.00,0.0240
865.00,0.0241
864.00,0.0242
863.00,0.0244
862.00,0.0246
861.00,0.0248
860.00,0.0251
859.00,0.0253
858.00,0.0257
857.00,0.0261
856.00,0.0266
855.00,0.0272
854.00,0.0277
853.00,0.0283
852.00,0.0288
851.00,0.0294
850.00,0.0299
849.00,0.0303
848.00,0.0308
847.00,0.0311
846.00,0.0314
845.00,0.0316
844.00,0.0317
843.00,0.0318
842.00,0.0318
841.00,0.0317
840.00,0.0316
839.00,0.0315
838.00,0.0314
837.00,0.0314
836.00,0.0313
835.00,0.0313
834.00,0.0313
833.00,0.0313
832.00,0.0313
831.00,0.0313
830.00,0.0312
829.00,0.0310
828.00,0.0309
827.00,0.0307
826.00,0.0305
825.00,0.0303
824.00,0.0301
823.00,0.0301
822.00,0.0301
821.00,0.0301
820.00,0.0302
819.00,0.0303
818.00,0.0304
817.00,0.0304
816.00,0.0303
815.00,0.0302
814.00,0.0300
813.00,0.0296
812.00,0.0290
811.00,0.0283
810.00,0.0273
809.00,0.0263
808.00,0.0252
807.00,0.0241
806.00,0.0231
805.00,0.0223
804.00,0.0217
803.00,0.0212
802.00,0.0209
801.00,0.0207
800.00,0.0206
799.00,0.0206
798.00,0.0206
797.00,0.0206
796.00,0.0207
795.00,0.0208
794.00,0.0209
793.00,0.0210
792.00,0.0211
791.00,0.0212
790.00,0.0213
789.00,0.0214
788.00,0.0216
787.00,0.0217
786.00,0.0218
785.00,0.0219
784.00,0.0220
783.00,0.0222
782.00,0.0224
781.00,0.0226
780.00,0.0229
779.00,0.0232
778.00,0.0234
777.00,0.0236
776.00,0.0236
775.00,0.0235
774.00,0.0234
773.00,0.0234
772.00,0.0234
771.00,0.0236
770.00,0.0238
769.00,0.0240
768.00,0.0244
767.00,0.0247
766.00,0.0251
765.00,0.0255
764.00,0.0259
763.00,0.0264
762.00,0.0268
761.00,0.0272
760.00,0.0277
759.00,0.0282
758.00,0.0287
757.00,0.0292
756.00,0.0297
755.00,0.0302
754.00,0.0308
753.00,0.0313
752.00,0.0319
751.00,0.0325
750.00,0.0331
749.00,0.0336
748.00,0.0341
747.00,0.0347
746.00,0.0352
745.00,0.0359
744.00,0.0365
743.00,0.0372
742.00,0.0380
741.00,0.0389
740.00,0.0398
739.00,0.0407
738.00,0.0416
737.00,0.0422
736.00,0.0425
735.00,0.0425
734.00,0.0422
733.00,0.0417
732.00,0.0411
731.00,0.0403
730.00,0.0396
729.00,0.0388
728.00,0.0380
727.00,0.0373
726.00,0.0366
725.00,0.0360
724.00,0.0354
723.00,0.0349
722.00,0.0344
721.00,0.0340
720.00,0.0338
719.00,0.0336
718.00,0.0336
717.00,0.0336
716.00,0.0336
715.00,0.0336
714.00,0.0335
713.00,0.0335
712.00,0.0334
711.00,0.0333
710.00,0.0332
709.00,0.0332
708.00,0.0331
707.00,0.0331
706.00,0.0332
705.00,0.0332
704.00,0.0333
703.00,0.0334
702.00,0.0335
701.00,0.0337
700.00,0.0338
699.00,0.0341
698.00,0.0344
697.00,0.0348
696.00,0.0353
695.00,0.0359
694.00,0.0365
693.00,0.0372
692.00,0.0378
691.00,0.0384
690.00,0.0389
689.00,0.0392
688.00,0.0395
687.00,0.0397
686.00,0.0399
685.00,0.0401
684.00,0.0402
683.00,0.0403
682.00,0.0404
681.00,0.0404
680.00,0.0405
679.00,0.0407
678.00,0.0410
677.00,0.0413
676.00,0.0417
675.00,0.0421
674.00,0.0425
673.00,0.0429
672.00,0.0435
671.00,0.0442
670.00,0.0450
669.00,0.0457
668.00,0.0463
667.00,0.0467
666.00,0.0471
665.00,0.0477
664.00,0.0485
663.00,0.0493
662.00,0.0500
661.00,0.0509
660.00,0.0518
659.00,0.0528
658.00,0.0538
657.00,0.0547
656.00,0.0557
655.00,0.0566
654.00,0.0574
653.00,0.0583
652.00,0.0591
651.00,0.0598
650.00,0.0603
649.00,0.0606
648.00,0.0607
647.00,0.0606
646.00,0.0604
645.00,0.0601
644.00,0.0597
643.00,0.0592
642.00,0.0586
641.00,0.0579
640.00,0.0572
639.00,0.0565
638.00,0.0557
637.00,0.0551
636.00,0.0545
635.00,0.0539
634.00,0.0534
633.00,0.0529
632.00,0.0525
631.00,0.0521
630.00,0.0519
629.00,0.0517
628.00,0.0516
627.00,0.0514
626.00,0.0513
625.00,0.0511
624.00,0.0509
623.00,0.0507
622.00,0.0505
621.00,0.0503
620.00,0.0503
619.00,0.0502
618.00,0.0502
617.00,0.0501
616.00,0.0500
615.00,0.0499
614.00,0.0498
613.00,0.0499
612.00,0.0500
611.00,0.0501
610.00,0.0503
609.00,0.0504
608.00,0.0506
607.00,0.0508
606.00,0.0509
605.00,0.0512
604.00,0.0514
603.00,0.0516
602.00,0.0518
601.00,0.0519
600.00,0.0521
599.00,0.0523
598.00,0.0525
597.00,0.0526
596.00,0.0526
595.00,0.0526
594.00,0.0526
593.00,0.0528
592.00,0.0532
591.00,0.0537
590.00,0.0543
589.00,0.0550
588.00,0.0559
587.00,0.0570
586.00,0.0583
585.00,0.0597
584.00,0.0611
583.00,0.0624
582.00,0.0635
581.00,0.0644
580.00,0.0650
579.00,0.0655
578.00,0.0657
577.00,0.0659
576.00,0.0660
575.00,0.0660
574.00,0.0660
573.00,0.0660
572.00,0.0661
571.00,0.0661
570.00,0.0660
569.00,0.0659
568.00,0.0657
567.00,0.0654
566.00,0.0651
565.00,0.0648
564.00,0.0645
563.00,0.0640
562.00,0.0634
561.00,0.0628
560.00,0.0622
559.00,0.0617
558.00,0.0613
557.00,0.0610
556.00,0.0608
555.00,0.0605
554.00,0.0602
553.00,0.0598
552.00,0.0595
551.00,0.0592
550.00,0.0590
549.00,0.0588
548.00,0.0586
547.00,0.0584
546.00,0.0580
545.00,0.0576
544.00,0.0572
543.00,0.0569
542.00,0.0566
541.00,0.0566
540.00,0.0566
539.00,0.0565
538.00,0.0565
537.00,0.0565
536.00,0.0567
535.00,0.0571
534.00,0.0577
533.00,0.0582
532.00,0.0585
531.00,0.0587
530.00,0.0588
529.00,0.0587
528.00,0.0585
527.00,0.0582
526.00,0.0577
525.00,0.0571
524.00,0.0566
523.00,0.0562
522.00,0.0559
521.00,0.0558
520.00,0.0559
519.00,0.0559
518.00,0.0558
517.00,0.0557
516.00,0.0556
515.00,0.0556
514.00,0.0554
513.00,0.0553
512.00,0.0554
511.00,0.0555
510.00,0.0558
509.00,0.0561
508.00,0.0562
507.00,0.0562
506.00,0.0561
505.00,0.0560
504.00,0.0559
503.00,0.0558
502.00,0.0556
501.00,0.0554
500.00,0.0553
499.00,0.0553
498.00,0.0553
497.00,0.0554
496.00,0.0555
495.00,0.0555
494.00,0.0554
493.00,0.0554
492.00,0.0554
491.00,0.0556
490.00,0.0559
489.00,0.0561
488.00,0.0563
487.00,0.0564
486.00,0.0564
485.00,0.0565
484.00,0.0566
483.00,0.0568
482.00,0.0570
481.00,0.0570
480.00,0.0571
479.00,0.0571
478.00,0.0570
477.00,0.0570
476.00,0.0571
475.00,0.0572
474.00,0.0574
473.00,0.0575
472.00,0.0575
471.00,0.0574
470.00,0.0572
469.00,0.0570
468.00,0.0568
467.00,0.0566
466.00,0.0564
465.00,0.0562
464.00,0.0559
463.00,0.0556
462.00,0.0552
461.00,0.0550
460.00,0.0546
459.00,0.0540
458.00,0.0534
457.00,0.0529
456.00,0.0530
455.00,0.0533
454.00,0.0536
453.00,0.0537
452.00,0.0536
451.00,0.0535
450.00,0.0535
449.00,0.0535
448.00,0.0535
447.00,0.0532
446.00,0.0527
445.00,0.0519
444.00,0.0510
443.00,0.0502
442.00,0.0498
441.00,0.0497
440.00,0.0497
439.00,0.0496
438.00,0.0495
437.00,0.0494
436.00,0.0491
435.00,0.0489
434.00,0.0486
433.00,0.0483
432.00,0.0480
431.00,0.0476
430.00,0.0473
429.00,0.0471
428.00,0.0469
427.00,0.0466
426.00,0.0462
425.00,0.0459
424.00,0.0456
423.00,0.0454
422.00,0.0455
421.00,0.0460
420.00,0.0469
419.00,0.0477
418.00,0.0480
417.00,0.0479
416.00,0.0476
415.00,0.0476
414.00,0.0478
413.00,0.0481
412.00,0.0482
411.00,0.0482
410.00,0.0483
409.00,0.0487
408.00,0.0489
407.00,0.0487
406.00,0.0482
405.00,0.0480
404.00,0.0478
403.00,0.0471
402.00,0.0460
401.00,0.0453
400.00,0.0459
