Created as New Dataset,Sample 973 By YargerLab Date Wednesday, July 30 2025
cm-1,A
4000.00,0.0009
3999.00,0.0009
3998.00,0.0009
3997.00,0.0009
3996.00,0.0009
3995.00,0.0009
3994.00,0.0009
3993.00,0.0009
3992.00,0.0009
3991.00,0.0009
3990.00,0.0009
3989.00,0.0009
3988.00,0.0009
3987.00,0.0009
3986.00,0.0009
3985.00,0.0009
3984.00,0.0009
3983.00,0.0009
3982.00,0.0009
3981.00,0.0009
3980.00,0.0009
3979.00,0.0009
3978.00,0.0009
3977.00,0.0009
3976.00,0.0009
3975.00,0.0009
3974.00,0.0009
3973.00,0.0009
3972.00,0.0009
3971.00,0.0009
3970.00,0.0009
3969.00,0.0009
3968.00,0.0009
3967.00,0.0009
3966.00,0.0009
3965.00,0.0009
3964.00,0.0009
3963.00,0.0009
3962.00,0.0009
3961.00,0.0009
3960.00,0.0008
3959.00,0.0008
3958.00,0.0009
3957.00,0.0009
3956.00,0.0009
3955.00,0.0009
3954.00,0.0009
3953.00,0.0009
3952.00,0.0009
3951.00,0.0009
3950.00,0.0009
3949.00,0.0009
3948.00,0.0009
3947.00,0.0009
3946.00,0.0009
3945.00,0.0009
3944.00,0.0009
3943.00,0.0009
3942.00,0.0009
3941.00,0.0009
3940.00,0.0009
3939.00,0.0009
3938.00,0.0009
3937.00,0.0009
3936.00,0.0009
3935.00,0.0009
3934.00,0.0009
3933.00,0.0008
3932.00,0.0008
3931.00,0.0008
3930.00,0.0008
3929.00,0.0009
3928.00,0.0009
3927.00,0.0009
3926.00,0.0009
3925.00,0.0009
3924.00,0.0009
3923.00,0.0009
3922.00,0.0009
3921.00,0.0009
3920.00,0.0009
3919.00,0.0009
3918.00,0.0009
3917.00,0.0009
3916.00,0.0008
3915.00,0.0008
3914.00,0.0008
3913.00,0.0009
3912.00,0.0009
3911.00,0.0009
3910.00,0.0009
3909.00,0.0009
3908.00,0.0008
3907.00,0.0008
3906.00,0.0008
3905.00,0.0008
3904.00,0.0008
3903.00,0.0008
3902.00,0.0008
3901.00,0.0008
3900.00,0.0008
3899.00,0.0008
3898.00,0.0008
3897.00,0.0008
3896.00,0.0008
3895.00,0.0008
3894.00,0.0008
3893.00,0.0008
3892.00,0.0009
3891.00,0.0009
3890.00,0.0009
3889.00,0.0009
3888.00,0.0009
3887.00,0.0008
3886.00,0.0008
3885.00,0.0008
3884.00,0.0008
3883.00,0.0008
3882.00,0.0008
3881.00,0.0008
3880.00,0.0008
3879.00,0.0008
3878.00,0.0008
3877.00,0.0008
3876.00,0.0008
3875.00,0.0008
3874.00,0.0009
3873.00,0.0009
3872.00,0.0009
3871.00,0.0008
3870.00,0.0008
3869.00,0.0009
3868.00,0.0008
3867.00,0.0008
3866.00,0.0008
3865.00,0.0008
3864.00,0.0008
3863.00,0.0008
3862.00,0.0009
3861.00,0.0009
3860.00,0.0009
3859.00,0.0009
3858.00,0.0009
3857.00,0.0008
3856.00,0.0008
3855.00,0.0008
3854.00,0.0008
3853.00,0.0008
3852.00,0.0008
3851.00,0.0008
3850.00,0.0008
3849.00,0.0008
3848.00,0.0008
3847.00,0.0008
3846.00,0.0009
3845.00,0.0009
3844.00,0.0009
3843.00,0.0009
3842.00,0.0009
3841.00,0.0009
3840.00,0.0009
3839.00,0.0008
3838.00,0.0008
3837.00,0.0008
3836.00,0.0008
3835.00,0.0008
3834.00,0.0008
3833.00,0.0008
3832.00,0.0008
3831.00,0.0009
3830.00,0.0009
3829.00,0.0009
3828.00,0.0009
3827.00,0.0009
3826.00,0.0009
3825.00,0.0009
3824.00,0.0009
3823.00,0.0009
3822.00,0.0009
3821.00,0.0009
3820.00,0.0009
3819.00,0.0009
3818.00,0.0008
3817.00,0.0008
3816.00,0.0008
3815.00,0.0008
3814.00,0.0008
3813.00,0.0008
3812.00,0.0008
3811.00,0.0008
3810.00,0.0008
3809.00,0.0009
3808.00,0.0009
3807.00,0.0009
3806.00,0.0010
3805.00,0.0009
3804.00,0.0009
3803.00,0.0008
3802.00,0.0008
3801.00,0.0008
3800.00,0.0008
3799.00,0.0008
3798.00,0.0008
3797.00,0.0008
3796.00,0.0008
3795.00,0.0008
3794.00,0.0009
3793.00,0.0009
3792.00,0.0009
3791.00,0.0009
3790.00,0.0009
3789.00,0.0009
3788.00,0.0010
3787.00,0.0009
3786.00,0.0009
3785.00,0.0009
3784.00,0.0009
3783.00,0.0009
3782.00,0.0009
3781.00,0.0009
3780.00,0.0009
3779.00,0.0009
3778.00,0.0009
3777.00,0.0009
3776.00,0.0009
3775.00,0.0009
3774.00,0.0009
3773.00,0.0009
3772.00,0.0009
3771.00,0.0009
3770.00,0.0009
3769.00,0.0009
3768.00,0.0009
3767.00,0.0009
3766.00,0.0009
3765.00,0.0009
3764.00,0.0009
3763.00,0.0009
3762.00,0.0009
3761.00,0.0009
3760.00,0.0009
3759.00,0.0009
3758.00,0.0009
3757.00,0.0009
3756.00,0.0009
3755.00,0.0009
3754.00,0.0009
3753.00,0.0009
3752.00,0.0009
3751.00,0.0008
3750.00,0.0008
3749.00,0.0008
3748.00,0.0008
3747.00,0.0008
3746.00,0.0008
3745.00,0.0008
3744.00,0.0008
3743.00,0.0008
3742.00,0.0008
3741.00,0.0008
3740.00,0.0008
3739.00,0.0008
3738.00,0.0008
3737.00,0.0009
3736.00,0.0008
3735.00,0.0008
3734.00,0.0007
3733.00,0.0007
3732.00,0.0007
3731.00,0.0007
3730.00,0.0008
3729.00,0.0008
3728.00,0.0008
3727.00,0.0008
3726.00,0.0008
3725.00,0.0008
3724.00,0.0008
3723.00,0.0008
3722.00,0.0008
3721.00,0.0008
3720.00,0.0008
3719.00,0.0008
3718.00,0.0008
3717.00,0.0008
3716.00,0.0009
3715.00,0.0009
3714.00,0.0009
3713.00,0.0009
3712.00,0.0009
3711.00,0.0009
3710.00,0.0009
3709.00,0.0008
3708.00,0.0008
3707.00,0.0008
3706.00,0.0008
3705.00,0.0008
3704.00,0.0008
3703.00,0.0008
3702.00,0.0008
3701.00,0.0007
3700.00,0.0007
3699.00,0.0007
3698.00,0.0007
3697.00,0.0007
3696.00,0.0008
3695.00,0.0008
3694.00,0.0008
3693.00,0.0009
3692.00,0.0009
3691.00,0.0009
3690.00,0.0009
3689.00,0.0009
3688.00,0.0009
3687.00,0.0009
3686.00,0.0009
3685.00,0.0009
3684.00,0.0009
3683.00,0.0009
3682.00,0.0009
3681.00,0.0009
3680.00,0.0010
3679.00,0.0010
3678.00,0.0010
3677.00,0.0010
3676.00,0.0010
3675.00,0.0010
3674.00,0.0011
3673.00,0.0010
3672.00,0.0010
3671.00,0.0010
3670.00,0.0010
3669.00,0.0010
3668.00,0.0010
3667.00,0.0010
3666.00,0.0010
3665.00,0.0010
3664.00,0.0010
3663.00,0.0011
3662.00,0.0012
3661.00,0.0012
3660.00,0.0012
3659.00,0.0012
3658.00,0.0012
3657.00,0.0012
3656.00,0.0012
3655.00,0.0012
3654.00,0.0013
3653.00,0.0013
3652.00,0.0013
3651.00,0.0013
3650.00,0.0013
3649.00,0.0013
3648.00,0.0013
3647.00,0.0013
3646.00,0.0013
3645.00,0.0013
3644.00,0.0014
3643.00,0.0014
3642.00,0.0015
3641.00,0.0015
3640.00,0.0015
3639.00,0.0015
3638.00,0.0015
3637.00,0.0015
3636.00,0.0015
3635.00,0.0015
3634.00,0.0015
3633.00,0.0015
3632.00,0.0015
3631.00,0.0015
3630.00,0.0015
3629.00,0.0015
3628.00,0.0015
3627.00,0.0016
3626.00,0.0016
3625.00,0.0016
3624.00,0.0017
3623.00,0.0017
3622.00,0.0017
3621.00,0.0017
3620.00,0.0017
3619.00,0.0018
3618.00,0.0018
3617.00,0.0019
3616.00,0.0019
3615.00,0.0019
3614.00,0.0020
3613.00,0.0020
3612.00,0.0020
3611.00,0.0020
3610.00,0.0020
3609.00,0.0021
3608.00,0.0021
3607.00,0.0022
3606.00,0.0022
3605.00,0.0022
3604.00,0.0023
3603.00,0.0023
3602.00,0.0023
3601.00,0.0024
3600.00,0.0024
3599.00,0.0024
3598.00,0.0024
3597.00,0.0025
3596.00,0.0025
3595.00,0.0025
3594.00,0.0026
3593.00,0.0026
3592.00,0.0027
3591.00,0.0027
3590.00,0.0027
3589.00,0.0027
3588.00,0.0028
3587.00,0.0028
3586.00,0.0029
3585.00,0.0029
3584.00,0.0030
3583.00,0.0030
3582.00,0.0030
3581.00,0.0031
3580.00,0.0031
3579.00,0.0032
3578.00,0.0032
3577.00,0.0033
3576.00,0.0033
3575.00,0.0033
3574.00,0.0034
3573.00,0.0034
3572.00,0.0035
3571.00,0.0035
3570.00,0.0036
3569.00,0.0036
3568.00,0.0036
3567.00,0.0036
3566.00,0.0037
3565.00,0.0037
3564.00,0.0038
3563.00,0.0038
3562.00,0.0039
3561.00,0.0039
3560.00,0.0039
3559.00,0.0040
3558.00,0.0040
3557.00,0.0041
3556.00,0.0041
3555.00,0.0042
3554.00,0.0043
3553.00,0.0043
3552.00,0.0044
3551.00,0.0044
3550.00,0.0044
3549.00,0.0044
3548.00,0.0045
3547.00,0.0045
3546.00,0.0045
3545.00,0.0046
3544.00,0.0046
3543.00,0.0046
3542.00,0.0046
3541.00,0.0046
3540.00,0.0046
3539.00,0.0047
3538.00,0.0047
3537.00,0.0048
3536.00,0.0048
3535.00,0.0049
3534.00,0.0049
3533.00,0.0049
3532.00,0.0049
3531.00,0.0049
3530.00,0.0049
3529.00,0.0050
3528.00,0.0050
3527.00,0.0050
3526.00,0.0050
3525.00,0.0050
3524.00,0.0051
3523.00,0.0051
3522.00,0.0052
3521.00,0.0052
3520.00,0.0053
3519.00,0.0053
3518.00,0.0053
3517.00,0.0053
3516.00,0.0054
3515.00,0.0054
3514.00,0.0054
3513.00,0.0054
3512.00,0.0054
3511.00,0.0054
3510.00,0.0054
3509.00,0.0054
3508.00,0.0055
3507.00,0.0055
3506.00,0.0055
3505.00,0.0056
3504.00,0.0056
3503.00,0.0057
3502.00,0.0057
3501.00,0.0057
3500.00,0.0057
3499.00,0.0057
3498.00,0.0057
3497.00,0.0057
3496.00,0.0057
3495.00,0.0057
3494.00,0.0058
3493.00,0.0058
3492.00,0.0059
3491.00,0.0059
3490.00,0.0059
3489.00,0.0059
3488.00,0.0059
3487.00,0.0059
3486.00,0.0060
3485.00,0.0060
3484.00,0.0060
3483.00,0.0060
3482.00,0.0061
3481.00,0.0061
3480.00,0.0061
3479.00,0.0061
3478.00,0.0061
3477.00,0.0062
3476.00,0.0062
3475.00,0.0062
3474.00,0.0062
3473.00,0.0063
3472.00,0.0063
3471.00,0.0063
3470.00,0.0064
3469.00,0.0064
3468.00,0.0064
3467.00,0.0064
3466.00,0.0064
3465.00,0.0064
3464.00,0.0064
3463.00,0.0064
3462.00,0.0064
3461.00,0.0064
3460.00,0.0064
3459.00,0.0064
3458.00,0.0064
3457.00,0.0064
3456.00,0.0064
3455.00,0.0064
3454.00,0.0064
3453.00,0.0064
3452.00,0.0065
3451.00,0.0065
3450.00,0.0065
3449.00,0.0065
3448.00,0.0065
3447.00,0.0065
3446.00,0.0065
3445.00,0.0065
3444.00,0.0065
3443.00,0.0065
3442.00,0.0065
3441.00,0.0065
3440.00,0.0065
3439.00,0.0065
3438.00,0.0066
3437.00,0.0066
3436.00,0.0066
3435.00,0.0066
3434.00,0.0066
3433.00,0.0065
3432.00,0.0065
3431.00,0.0066
3430.00,0.0066
3429.00,0.0066
3428.00,0.0066
3427.00,0.0066
3426.00,0.0066
3425.00,0.0065
3424.00,0.0065
3423.00,0.0065
3422.00,0.0065
3421.00,0.0065
3420.00,0.0065
3419.00,0.0065
3418.00,0.0065
3417.00,0.0065
3416.00,0.0065
3415.00,0.0065
3414.00,0.0065
3413.00,0.0065
3412.00,0.0065
3411.00,0.0064
3410.00,0.0064
3409.00,0.0064
3408.00,0.0064
3407.00,0.0064
3406.00,0.0064
3405.00,0.0064
3404.00,0.0064
3403.00,0.0064
3402.00,0.0064
3401.00,0.0064
3400.00,0.0064
3399.00,0.0064
3398.00,0.0064
3397.00,0.0064
3396.00,0.0064
3395.00,0.0064
3394.00,0.0064
3393.00,0.0064
3392.00,0.0064
3391.00,0.0063
3390.00,0.0063
3389.00,0.0063
3388.00,0.0063
3387.00,0.0064
3386.00,0.0064
3385.00,0.0064
3384.00,0.0064
3383.00,0.0064
3382.00,0.0064
3381.00,0.0064
3380.00,0.0063
3379.00,0.0063
3378.00,0.0063
3377.00,0.0063
3376.00,0.0063
3375.00,0.0063
3374.00,0.0063
3373.00,0.0063
3372.00,0.0062
3371.00,0.0062
3370.00,0.0062
3369.00,0.0062
3368.00,0.0061
3367.00,0.0062
3366.00,0.0062
3365.00,0.0062
3364.00,0.0062
3363.00,0.0062
3362.00,0.0062
3361.00,0.0062
3360.00,0.0062
3359.00,0.0062
3358.00,0.0062
3357.00,0.0062
3356.00,0.0062
3355.00,0.0062
3354.00,0.0062
3353.00,0.0062
3352.00,0.0061
3351.00,0.0061
3350.00,0.0061
3349.00,0.0061
3348.00,0.0061
3347.00,0.0061
3346.00,0.0061
3345.00,0.0061
3344.00,0.0061
3343.00,0.0061
3342.00,0.0061
3341.00,0.0061
3340.00,0.0061
3339.00,0.0061
3338.00,0.0060
3337.00,0.0060
3336.00,0.0061
3335.00,0.0061
3334.00,0.0061
3333.00,0.0061
3332.00,0.0061
3331.00,0.0061
3330.00,0.0061
3329.00,0.0060
3328.00,0.0060
3327.00,0.0060
3326.00,0.0060
3325.00,0.0060
3324.00,0.0060
3323.00,0.0060
3322.00,0.0060
3321.00,0.0060
3320.00,0.0060
3319.00,0.0060
3318.00,0.0060
3317.00,0.0060
3316.00,0.0059
3315.00,0.0059
3314.00,0.0059
3313.00,0.0059
3312.00,0.0059
3311.00,0.0059
3310.00,0.0058
3309.00,0.0058
3308.00,0.0057
3307.00,0.0057
3306.00,0.0057
3305.00,0.0057
3304.00,0.0058
3303.00,0.0058
3302.00,0.0059
3301.00,0.0059
3300.00,0.0059
3299.00,0.0058
3298.00,0.0058
3297.00,0.0058
3296.00,0.0058
3295.00,0.0058
3294.00,0.0057
3293.00,0.0057
3292.00,0.0057
3291.00,0.0057
3290.00,0.0058
3289.00,0.0058
3288.00,0.0058
3287.00,0.0058
3286.00,0.0058
3285.00,0.0058
3284.00,0.0058
3283.00,0.0057
3282.00,0.0057
3281.00,0.0057
3280.00,0.0057
3279.00,0.0057
3278.00,0.0057
3277.00,0.0057
3276.00,0.0057
3275.00,0.0057
3274.00,0.0056
3273.00,0.0056
3272.00,0.0056
3271.00,0.0056
3270.00,0.0056
3269.00,0.0056
3268.00,0.0056
3267.00,0.0056
3266.00,0.0056
3265.00,0.0056
3264.00,0.0056
3263.00,0.0056
3262.00,0.0056
3261.00,0.0056
3260.00,0.0056
3259.00,0.0056
3258.00,0.0056
3257.00,0.0056
3256.00,0.0055
3255.00,0.0055
3254.00,0.0055
3253.00,0.0055
3252.00,0.0055
3251.00,0.0055
3250.00,0.0055
3249.00,0.0054
3248.00,0.0054
3247.00,0.0054
3246.00,0.0054
3245.00,0.0054
3244.00,0.0054
3243.00,0.0054
3242.00,0.0054
3241.00,0.0054
3240.00,0.0054
3239.00,0.0054
3238.00,0.0054
3237.00,0.0054
3236.00,0.0053
3235.00,0.0053
3234.00,0.0053
3233.00,0.0053
3232.00,0.0053
3231.00,0.0053
3230.00,0.0053
3229.00,0.0053
3228.00,0.0053
3227.00,0.0053
3226.00,0.0053
3225.00,0.0052
3224.00,0.0052
3223.00,0.0052
3222.00,0.0052
3221.00,0.0052
3220.00,0.0052
3219.00,0.0052
3218.00,0.0052
3217.00,0.0052
3216.00,0.0052
3215.00,0.0052
3214.00,0.0052
3213.00,0.0051
3212.00,0.0051
3211.00,0.0051
3210.00,0.0051
3209.00,0.0051
3208.00,0.0051
3207.00,0.0051
3206.00,0.0050
3205.00,0.0050
3204.00,0.0050
3203.00,0.0050
3202.00,0.0049
3201.00,0.0049
3200.00,0.0049
3199.00,0.0049
3198.00,0.0049
3197.00,0.0049
3196.00,0.0049
3195.00,0.0049
3194.00,0.0049
3193.00,0.0049
3192.00,0.0049
3191.00,0.0049
3190.00,0.0049
3189.00,0.0048
3188.00,0.0048
3187.00,0.0048
3186.00,0.0048
3185.00,0.0048
3184.00,0.0048
3183.00,0.0048
3182.00,0.0048
3181.00,0.0048
3180.00,0.0048
3179.00,0.0048
3178.00,0.0048
3177.00,0.0048
3176.00,0.0048
3175.00,0.0048
3174.00,0.0048
3173.00,0.0047
3172.00,0.0047
3171.00,0.0047
3170.00,0.0047
3169.00,0.0047
3168.00,0.0047
3167.00,0.0047
3166.00,0.0047
3165.00,0.0047
3164.00,0.0047
3163.00,0.0046
3162.00,0.0046
3161.00,0.0046
3160.00,0.0046
3159.00,0.0045
3158.00,0.0045
3157.00,0.0045
3156.00,0.0045
3155.00,0.0045
3154.00,0.0045
3153.00,0.0045
3152.00,0.0045
3151.00,0.0045
3150.00,0.0045
3149.00,0.0045
3148.00,0.0045
3147.00,0.0045
3146.00,0.0045
3145.00,0.0044
3144.00,0.0044
3143.00,0.0044
3142.00,0.0044
3141.00,0.0044
3140.00,0.0044
3139.00,0.0044
3138.00,0.0044
3137.00,0.0044
3136.00,0.0044
3135.00,0.0044
3134.00,0.0043
3133.00,0.0043
3132.00,0.0043
3131.00,0.0043
3130.00,0.0043
3129.00,0.0043
3128.00,0.0043
3127.00,0.0042
3126.00,0.0042
3125.00,0.0042
3124.00,0.0042
3123.00,0.0043
3122.00,0.0043
3121.00,0.0043
3120.00,0.0043
3119.00,0.0043
3118.00,0.0043
3117.00,0.0043
3116.00,0.0043
3115.00,0.0043
3114.00,0.0042
3113.00,0.0042
3112.00,0.0042
3111.00,0.0042
3110.00,0.0042
3109.00,0.0041
3108.00,0.0041
3107.00,0.0041
3106.00,0.0041
3105.00,0.0041
3104.00,0.0041
3103.00,0.0041
3102.00,0.0041
3101.00,0.0041
3100.00,0.0041
3099.00,0.0040
3098.00,0.0040
3097.00,0.0040
3096.00,0.0040
3095.00,0.0040
3094.00,0.0040
3093.00,0.0040
3092.00,0.0040
3091.00,0.0040
3090.00,0.0040
3089.00,0.0040
3088.00,0.0040
3087.00,0.0040
3086.00,0.0041
3085.00,0.0041
3084.00,0.0041
3083.00,0.0041
3082.00,0.0041
3081.00,0.0041
3080.00,0.0041
3079.00,0.0040
3078.00,0.0040
3077.00,0.0040
3076.00,0.0040
3075.00,0.0040
3074.00,0.0040
3073.00,0.0040
3072.00,0.0040
3071.00,0.0040
3070.00,0.0040
3069.00,0.0040
3068.00,0.0040
3067.00,0.0040
3066.00,0.0039
3065.00,0.0039
3064.00,0.0039
3063.00,0.0039
3062.00,0.0039
3061.00,0.0039
3060.00,0.0039
3059.00,0.0039
3058.00,0.0038
3057.00,0.0038
3056.00,0.0038
3055.00,0.0038
3054.00,0.0038
3053.00,0.0038
3052.00,0.0038
3051.00,0.0038
3050.00,0.0038
3049.00,0.0038
3048.00,0.0038
3047.00,0.0038
3046.00,0.0038
3045.00,0.0038
3044.00,0.0038
3043.00,0.0038
3042.00,0.0038
3041.00,0.0038
3040.00,0.0037
3039.00,0.0037
3038.00,0.0037
3037.00,0.0037
3036.00,0.0037
3035.00,0.0037
3034.00,0.0038
3033.00,0.0038
3032.00,0.0038
3031.00,0.0038
3030.00,0.0038
3029.00,0.0038
3028.00,0.0038
3027.00,0.0038
3026.00,0.0038
3025.00,0.0038
3024.00,0.0038
3023.00,0.0038
3022.00,0.0038
3021.00,0.0038
3020.00,0.0038
3019.00,0.0038
3018.00,0.0039
3017.00,0.0039
3016.00,0.0039
3015.00,0.0039
3014.00,0.0040
3013.00,0.0040
3012.00,0.0041
3011.00,0.0041
3010.00,0.0042
3009.00,0.0043
3008.00,0.0044
3007.00,0.0045
3006.00,0.0045
3005.00,0.0046
3004.00,0.0047
3003.00,0.0048
3002.00,0.0049
3001.00,0.0051
3000.00,0.0053
2999.00,0.0055
2998.00,0.0056
2997.00,0.0058
2996.00,0.0060
2995.00,0.0062
2994.00,0.0065
2993.00,0.0067
2992.00,0.0069
2991.00,0.0071
2990.00,0.0073
2989.00,0.0076
2988.00,0.0078
2987.00,0.0080
2986.00,0.0082
2985.00,0.0084
2984.00,0.0086
2983.00,0.0088
2982.00,0.0089
2981.00,0.0091
2980.00,0.0092
2979.00,0.0093
2978.00,0.0095
2977.00,0.0096
2976.00,0.0097
2975.00,0.0098
2974.00,0.0099
2973.00,0.0100
2972.00,0.0102
2971.00,0.0103
2970.00,0.0104
2969.00,0.0105
2968.00,0.0106
2967.00,0.0107
2966.00,0.0108
2965.00,0.0110
2964.00,0.0112
2963.00,0.0113
2962.00,0.0115
2961.00,0.0116
2960.00,0.0117
2959.00,0.0119
2958.00,0.0120
2957.00,0.0121
2956.00,0.0122
2955.00,0.0123
2954.00,0.0124
2953.00,0.0125
2952.00,0.0125
2951.00,0.0125
2950.00,0.0125
2949.00,0.0125
2948.00,0.0125
2947.00,0.0125
2946.00,0.0124
2945.00,0.0124
2944.00,0.0124
2943.00,0.0124
2942.00,0.0123
2941.00,0.0123
2940.00,0.0123
2939.00,0.0123
2938.00,0.0124
2937.00,0.0125
2936.00,0.0125
2935.00,0.0126
2934.00,0.0127
2933.00,0.0127
2932.00,0.0128
2931.00,0.0129
2930.00,0.0130
2929.00,0.0131
2928.00,0.0132
2927.00,0.0132
2926.00,0.0132
2925.00,0.0132
2924.00,0.0132
2923.00,0.0132
2922.00,0.0131
2921.00,0.0131
2920.00,0.0130
2919.00,0.0129
2918.00,0.0128
2917.00,0.0126
2916.00,0.0125
2915.00,0.0123
2914.00,0.0121
2913.00,0.0119
2912.00,0.0117
2911.00,0.0115
2910.00,0.0113
2909.00,0.0111
2908.00,0.0110
2907.00,0.0108
2906.00,0.0107
2905.00,0.0105
2904.00,0.0104
2903.00,0.0103
2902.00,0.0103
2901.00,0.0102
2900.00,0.0102
2899.00,0.0102
2898.00,0.0102
2897.00,0.0102
2896.00,0.0102
2895.00,0.0102
2894.00,0.0102
2893.00,0.0102
2892.00,0.0102
2891.00,0.0102
2890.00,0.0101
2889.00,0.0101
2888.00,0.0101
2887.00,0.0101
2886.00,0.0101
2885.00,0.0100
2884.00,0.0100
2883.00,0.0100
2882.00,0.0100
2881.00,0.0100
2880.00,0.0100
2879.00,0.0100
2878.00,0.0101
2877.00,0.0101
2876.00,0.0101
2875.00,0.0101
2874.00,0.0102
2873.00,0.0102
2872.00,0.0102
2871.00,0.0102
2870.00,0.0101
2869.00,0.0101
2868.00,0.0101
2867.00,0.0100
2866.00,0.0100
2865.00,0.0100
2864.00,0.0099
2863.00,0.0099
2862.00,0.0099
2861.00,0.0098
2860.00,0.0098
2859.00,0.0098
2858.00,0.0097
2857.00,0.0096
2856.00,0.0095
2855.00,0.0093
2854.00,0.0091
2853.00,0.0089
2852.00,0.0087
2851.00,0.0085
2850.00,0.0082
2849.00,0.0080
2848.00,0.0077
2847.00,0.0075
2846.00,0.0073
2845.00,0.0071
2844.00,0.0069
2843.00,0.0067
2842.00,0.0065
2841.00,0.0063
2840.00,0.0062
2839.00,0.0060
2838.00,0.0059
2837.00,0.0058
2836.00,0.0057
2835.00,0.0056
2834.00,0.0054
2833.00,0.0053
2832.00,0.0053
2831.00,0.0052
2830.00,0.0051
2829.00,0.0050
2828.00,0.0049
2827.00,0.0048
2826.00,0.0047
2825.00,0.0046
2824.00,0.0045
2823.00,0.0045
2822.00,0.0044
2821.00,0.0043
2820.00,0.0043
2819.00,0.0042
2818.00,0.0041
2817.00,0.0041
2816.00,0.0040
2815.00,0.0040
2814.00,0.0039
2813.00,0.0038
2812.00,0.0038
2811.00,0.0037
2810.00,0.0036
2809.00,0.0036
2808.00,0.0035
2807.00,0.0035
2806.00,0.0034
2805.00,0.0034
2804.00,0.0033
2803.00,0.0033
2802.00,0.0033
2801.00,0.0032
2800.00,0.0032
2799.00,0.0032
2798.00,0.0031
2797.00,0.0031
2796.00,0.0031
2795.00,0.0031
2794.00,0.0030
2793.00,0.0030
2792.00,0.0030
2791.00,0.0030
2790.00,0.0029
2789.00,0.0029
2788.00,0.0029
2787.00,0.0029
2786.00,0.0029
2785.00,0.0028
2784.00,0.0028
2783.00,0.0028
2782.00,0.0028
2781.00,0.0028
2780.00,0.0027
2779.00,0.0027
2778.00,0.0027
2777.00,0.0027
2776.00,0.0026
2775.00,0.0026
2774.00,0.0026
2773.00,0.0026
2772.00,0.0026
2771.00,0.0026
2770.00,0.0026
2769.00,0.0026
2768.00,0.0025
2767.00,0.0025
2766.00,0.0025
2765.00,0.0025
2764.00,0.0025
2763.00,0.0025
2762.00,0.0025
2761.00,0.0025
2760.00,0.0025
2759.00,0.0025
2758.00,0.0025
2757.00,0.0025
2756.00,0.0024
2755.00,0.0025
2754.00,0.0025
2753.00,0.0025
2752.00,0.0025
2751.00,0.0025
2750.00,0.0025
2749.00,0.0025
2748.00,0.0025
2747.00,0.0024
2746.00,0.0024
2745.00,0.0025
2744.00,0.0025
2743.00,0.0025
2742.00,0.0025
2741.00,0.0025
2740.00,0.0025
2739.00,0.0025
2738.00,0.0025
2737.00,0.0025
2736.00,0.0025
2735.00,0.0025
2734.00,0.0025
2733.00,0.0025
2732.00,0.0025
2731.00,0.0025
2730.00,0.0025
2729.00,0.0025
2728.00,0.0025
2727.00,0.0024
2726.00,0.0024
2725.00,0.0024
2724.00,0.0024
2723.00,0.0024
2722.00,0.0024
2721.00,0.0024
2720.00,0.0024
2719.00,0.0024
2718.00,0.0024
2717.00,0.0024
2716.00,0.0024
2715.00,0.0024
2714.00,0.0023
2713.00,0.0023
2712.00,0.0023
2711.00,0.0023
2710.00,0.0023
2709.00,0.0023
2708.00,0.0023
2707.00,0.0023
2706.00,0.0023
2705.00,0.0022
2704.00,0.0022
2703.00,0.0022
2702.00,0.0022
2701.00,0.0022
2700.00,0.0022
2699.00,0.0022
2698.00,0.0022
2697.00,0.0022
2696.00,0.0022
2695.00,0.0022
2694.00,0.0022
2693.00,0.0022
2692.00,0.0022
2691.00,0.0021
2690.00,0.0021
2689.00,0.0021
2688.00,0.0021
2687.00,0.0021
2686.00,0.0021
2685.00,0.0021
2684.00,0.0021
2683.00,0.0021
2682.00,0.0021
2681.00,0.0020
2680.00,0.0020
2679.00,0.0020
2678.00,0.0021
2677.00,0.0021
2676.00,0.0021
2675.00,0.0021
2674.00,0.0021
2673.00,0.0021
2672.00,0.0021
2671.00,0.0020
2670.00,0.0020
2669.00,0.0020
2668.00,0.0021
2667.00,0.0021
2666.00,0.0021
2665.00,0.0022
2664.00,0.0022
2663.00,0.0023
2662.00,0.0023
2661.00,0.0023
2660.00,0.0023
2659.00,0.0023
2658.00,0.0023
2657.00,0.0023
2656.00,0.0024
2655.00,0.0024
2654.00,0.0024
2653.00,0.0024
2652.00,0.0024
2651.00,0.0024
2650.00,0.0024
2649.00,0.0024
2648.00,0.0024
2647.00,0.0024
2646.00,0.0024
2645.00,0.0024
2644.00,0.0024
2643.00,0.0023
2642.00,0.0023
2641.00,0.0024
2640.00,0.0023
2639.00,0.0023
2638.00,0.0023
2637.00,0.0023
2636.00,0.0023
2635.00,0.0022
2634.00,0.0022
2633.00,0.0022
2632.00,0.0022
2631.00,0.0022
2630.00,0.0022
2629.00,0.0022
2628.00,0.0022
2627.00,0.0022
2626.00,0.0022
2625.00,0.0022
2624.00,0.0022
2623.00,0.0021
2622.00,0.0021
2621.00,0.0021
2620.00,0.0021
2619.00,0.0021
2618.00,0.0021
2617.00,0.0021
2616.00,0.0021
2615.00,0.0021
2614.00,0.0021
2613.00,0.0021
2612.00,0.0021
2611.00,0.0021
2610.00,0.0020
2609.00,0.0020
2608.00,0.0020
2607.00,0.0020
2606.00,0.0020
2605.00,0.0020
2604.00,0.0019
2603.00,0.0019
2602.00,0.0019
2601.00,0.0019
2600.00,0.0020
2599.00,0.0020
2598.00,0.0019
2597.00,0.0019
2596.00,0.0019
2595.00,0.0019
2594.00,0.0018
2593.00,0.0018
2592.00,0.0018
2591.00,0.0018
2590.00,0.0019
2589.00,0.0019
2588.00,0.0019
2587.00,0.0019
2586.00,0.0019
2585.00,0.0019
2584.00,0.0019
2583.00,0.0019
2582.00,0.0019
2581.00,0.0019
2580.00,0.0019
2579.00,0.0018
2578.00,0.0018
2577.00,0.0018
2576.00,0.0018
2575.00,0.0018
2574.00,0.0018
2573.00,0.0018
2572.00,0.0018
2571.00,0.0018
2570.00,0.0018
2569.00,0.0018
2568.00,0.0018
2567.00,0.0018
2566.00,0.0017
2565.00,0.0017
2564.00,0.0017
2563.00,0.0017
2562.00,0.0017
2561.00,0.0017
2560.00,0.0017
2559.00,0.0017
2558.00,0.0016
2557.00,0.0016
2556.00,0.0016
2555.00,0.0016
2554.00,0.0016
2553.00,0.0016
2552.00,0.0016
2551.00,0.0015
2550.00,0.0016
2549.00,0.0016
2548.00,0.0016
2547.00,0.0016
2546.00,0.0015
2545.00,0.0015
2544.00,0.0015
2543.00,0.0016
2542.00,0.0016
2541.00,0.0016
2540.00,0.0015
2539.00,0.0015
2538.00,0.0015
2537.00,0.0015
2536.00,0.0015
2535.00,0.0015
2534.00,0.0015
2533.00,0.0015
2532.00,0.0015
2531.00,0.0015
2530.00,0.0015
2529.00,0.0014
2528.00,0.0014
2527.00,0.0014
2526.00,0.0014
2525.00,0.0014
2524.00,0.0014
2523.00,0.0014
2522.00,0.0014
2521.00,0.0014
2520.00,0.0014
2519.00,0.0014
2518.00,0.0014
2517.00,0.0014
2516.00,0.0013
2515.00,0.0013
2514.00,0.0012
2513.00,0.0012
2512.00,0.0012
2511.00,0.0012
2510.00,0.0013
2509.00,0.0013
2508.00,0.0013
2507.00,0.0013
2506.00,0.0013
2505.00,0.0012
2504.00,0.0012
2503.00,0.0012
2502.00,0.0012
2501.00,0.0012
2500.00,0.0012
2499.00,0.0012
2498.00,0.0012
2497.00,0.0012
2496.00,0.0012
2495.00,0.0012
2494.00,0.0012
2493.00,0.0012
2492.00,0.0012
2491.00,0.0013
2490.00,0.0012
2489.00,0.0012
2488.00,0.0012
2487.00,0.0012
2486.00,0.0012
2485.00,0.0011
2484.00,0.0011
2483.00,0.0011
2482.00,0.0011
2481.00,0.0011
2480.00,0.0011
2479.00,0.0011
2478.00,0.0011
2477.00,0.0011
2476.00,0.0011
2475.00,0.0011
2474.00,0.0011
2473.00,0.0011
2472.00,0.0011
2471.00,0.0011
2470.00,0.0011
2469.00,0.0011
2468.00,0.0011
2467.00,0.0011
2466.00,0.0011
2465.00,0.0011
2464.00,0.0011
2463.00,0.0012
2462.00,0.0012
2461.00,0.0013
2460.00,0.0013
2459.00,0.0012
2458.00,0.0012
2457.00,0.0012
2456.00,0.0012
2455.00,0.0012
2454.00,0.0012
2453.00,0.0012
2452.00,0.0012
2451.00,0.0012
2450.00,0.0012
2449.00,0.0012
2448.00,0.0012
2447.00,0.0012
2446.00,0.0012
2445.00,0.0012
2444.00,0.0012
2443.00,0.0012
2442.00,0.0011
2441.00,0.0011
2440.00,0.0011
2439.00,0.0011
2438.00,0.0011
2437.00,0.0011
2436.00,0.0011
2435.00,0.0011
2434.00,0.0011
2433.00,0.0011
2432.00,0.0011
2431.00,0.0011
2430.00,0.0011
2429.00,0.0011
2428.00,0.0011
2427.00,0.0011
2426.00,0.0011
2425.00,0.0010
2424.00,0.0010
2423.00,0.0010
2422.00,0.0009
2421.00,0.0009
2420.00,0.0009
2419.00,0.0010
2418.00,0.0010
2417.00,0.0010
2416.00,0.0010
2415.00,0.0010
2414.00,0.0009
2413.00,0.0009
2412.00,0.0009
2411.00,0.0009
2410.00,0.0009
2409.00,0.0009
2408.00,0.0009
2407.00,0.0009
2406.00,0.0009
2405.00,0.0008
2404.00,0.0008
2403.00,0.0008
2402.00,0.0008
2401.00,0.0008
2400.00,0.0009
2399.00,0.0009
2398.00,0.0009
2397.00,0.0009
2396.00,0.0009
2395.00,0.0008
2394.00,0.0008
2393.00,0.0008
2392.00,0.0008
2391.00,0.0008
2390.00,0.0008
2389.00,0.0008
2388.00,0.0007
2387.00,0.0007
2386.00,0.0006
2385.00,0.0006
2384.00,0.0006
2383.00,0.0006
2382.00,0.0005
2381.00,0.0005
2380.00,0.0004
2379.00,0.0004
2378.00,0.0004
2377.00,0.0004
2376.00,0.0005
2375.00,0.0005
2374.00,0.0006
2373.00,0.0006
2372.00,0.0006
2371.00,0.0005
2370.00,0.0005
2369.00,0.0005
2368.00,0.0005
2367.00,0.0005
2366.00,0.0005
2365.00,0.0006
2364.00,0.0006
2363.00,0.0006
2362.00,0.0006
2361.00,0.0006
2360.00,0.0006
2359.00,0.0006
2358.00,0.0006
2357.00,0.0006
2356.00,0.0007
2355.00,0.0007
2354.00,0.0007
2353.00,0.0007
2352.00,0.0007
2351.00,0.0007
2350.00,0.0008
2349.00,0.0008
2348.00,0.0009
2347.00,0.0009
2346.00,0.0009
2345.00,0.0009
2344.00,0.0009
2343.00,0.0010
2342.00,0.0010
2341.00,0.0011
2340.00,0.0011
2339.00,0.0011
2338.00,0.0011
2337.00,0.0011
2336.00,0.0011
2335.00,0.0011
2334.00,0.0011
2333.00,0.0010
2332.00,0.0010
2331.00,0.0010
2330.00,0.0011
2329.00,0.0013
2328.00,0.0016
2327.00,0.0020
2326.00,0.0023
2325.00,0.0024
2324.00,0.0023
2323.00,0.0021
2322.00,0.0019
2321.00,0.0018
2320.00,0.0017
2319.00,0.0017
2318.00,0.0016
2317.00,0.0015
2316.00,0.0015
2315.00,0.0014
2314.00,0.0014
2313.00,0.0013
2312.00,0.0013
2311.00,0.0013
2310.00,0.0013
2309.00,0.0013
2308.00,0.0013
2307.00,0.0013
2306.00,0.0013
2305.00,0.0013
2304.00,0.0014
2303.00,0.0014
2302.00,0.0014
2301.00,0.0015
2300.00,0.0015
2299.00,0.0015
2298.00,0.0015
2297.00,0.0016
2296.00,0.0016
2295.00,0.0017
2294.00,0.0018
2293.00,0.0019
2292.00,0.0020
2291.00,0.0020
2290.00,0.0021
2289.00,0.0021
2288.00,0.0021
2287.00,0.0022
2286.00,0.0021
2285.00,0.0021
2284.00,0.0020
2283.00,0.0019
2282.00,0.0018
2281.00,0.0018
2280.00,0.0018
2279.00,0.0018
2278.00,0.0017
2277.00,0.0017
2276.00,0.0017
2275.00,0.0017
2274.00,0.0017
2273.00,0.0017
2272.00,0.0017
2271.00,0.0017
2270.00,0.0017
2269.00,0.0016
2268.00,0.0015
2267.00,0.0015
2266.00,0.0014
2265.00,0.0014
2264.00,0.0014
2263.00,0.0014
2262.00,0.0014
2261.00,0.0014
2260.00,0.0014
2259.00,0.0014
2258.00,0.0014
2257.00,0.0014
2256.00,0.0013
2255.00,0.0013
2254.00,0.0012
2253.00,0.0012
2252.00,0.0012
2251.00,0.0012
2250.00,0.0012
2249.00,0.0013
2248.00,0.0013
2247.00,0.0013
2246.00,0.0013
2245.00,0.0013
2244.00,0.0012
2243.00,0.0013
2242.00,0.0013
2241.00,0.0013
2240.00,0.0013
2239.00,0.0013
2238.00,0.0012
2237.00,0.0013
2236.00,0.0013
2235.00,0.0014
2234.00,0.0015
2233.00,0.0015
2232.00,0.0014
2231.00,0.0014
2230.00,0.0013
2229.00,0.0013
2228.00,0.0014
2227.00,0.0014
2226.00,0.0013
2225.00,0.0013
2224.00,0.0013
2223.00,0.0013
2222.00,0.0012
2221.00,0.0012
2220.00,0.0012
2219.00,0.0012
2218.00,0.0012
2217.00,0.0013
2216.00,0.0013
2215.00,0.0013
2214.00,0.0013
2213.00,0.0013
2212.00,0.0013
2211.00,0.0013
2210.00,0.0012
2209.00,0.0012
2208.00,0.0012
2207.00,0.0013
2206.00,0.0013
2205.00,0.0014
2204.00,0.0014
2203.00,0.0014
2202.00,0.0013
2201.00,0.0013
2200.00,0.0014
2199.00,0.0014
2198.00,0.0014
2197.00,0.0014
2196.00,0.0014
2195.00,0.0013
2194.00,0.0012
2193.00,0.0012
2192.00,0.0012
2191.00,0.0013
2190.00,0.0014
2189.00,0.0015
2188.00,0.0015
2187.00,0.0015
2186.00,0.0015
2185.00,0.0013
2184.00,0.0011
2183.00,0.0010
2182.00,0.0010
2181.00,0.0011
2180.00,0.0012
2179.00,0.0012
2178.00,0.0010
2177.00,0.0008
2176.00,0.0006
2175.00,0.0007
2174.00,0.0008
2173.00,0.0009
2172.00,0.0012
2171.00,0.0014
2170.00,0.0017
2169.00,0.0019
2168.00,0.0020
2167.00,0.0020
2166.00,0.0021
2165.00,0.0022
2164.00,0.0025
2163.00,0.0025
2162.00,0.0021
2161.00,0.0012
2160.00,-0.0001
2159.00,-0.0013
2158.00,-0.0019
2157.00,-0.0019
2156.00,-0.0016
2155.00,-0.0012
2154.00,-0.0008
2153.00,-0.0004
2152.00,-0.0001
2151.00,-0.0000
2150.00,-0.0001
2149.00,-0.0002
2148.00,-0.0003
2147.00,-0.0004
2146.00,-0.0004
2145.00,-0.0004
2144.00,-0.0004
2143.00,-0.0004
2142.00,-0.0004
2141.00,-0.0004
2140.00,-0.0004
2139.00,-0.0005
2138.00,-0.0007
2137.00,-0.0009
2136.00,-0.0010
2135.00,-0.0011
2134.00,-0.0009
2133.00,-0.0007
2132.00,-0.0006
2131.00,-0.0005
2130.00,-0.0004
2129.00,-0.0004
2128.00,-0.0003
2127.00,-0.0002
2126.00,-0.0000
2125.00,0.0001
2124.00,0.0002
2123.00,0.0004
2122.00,0.0005
2121.00,0.0006
2120.00,0.0007
2119.00,0.0008
2118.00,0.0009
2117.00,0.0009
2116.00,0.0010
2115.00,0.0011
2114.00,0.0011
2113.00,0.0010
2112.00,0.0010
2111.00,0.0010
2110.00,0.0009
2109.00,0.0009
2108.00,0.0009
2107.00,0.0009
2106.00,0.0009
2105.00,0.0010
2104.00,0.0011
2103.00,0.0011
2102.00,0.0010
2101.00,0.0010
2100.00,0.0009
2099.00,0.0008
2098.00,0.0008
2097.00,0.0006
2096.00,0.0006
2095.00,0.0005
2094.00,0.0005
2093.00,0.0006
2092.00,0.0007
2091.00,0.0008
2090.00,0.0008
2089.00,0.0008
2088.00,0.0009
2087.00,0.0010
2086.00,0.0011
2085.00,0.0011
2084.00,0.0011
2083.00,0.0012
2082.00,0.0013
2081.00,0.0013
2080.00,0.0014
2079.00,0.0014
2078.00,0.0014
2077.00,0.0014
2076.00,0.0013
2075.00,0.0013
2074.00,0.0012
2073.00,0.0012
2072.00,0.0012
2071.00,0.0012
2070.00,0.0011
2069.00,0.0011
2068.00,0.0011
2067.00,0.0011
2066.00,0.0010
2065.00,0.0010
2064.00,0.0009
2063.00,0.0009
2062.00,0.0009
2061.00,0.0010
2060.00,0.0011
2059.00,0.0011
2058.00,0.0012
2057.00,0.0011
2056.00,0.0011
2055.00,0.0011
2054.00,0.0013
2053.00,0.0017
2052.00,0.0021
2051.00,0.0022
2050.00,0.0019
2049.00,0.0016
2048.00,0.0013
2047.00,0.0012
2046.00,0.0011
2045.00,0.0011
2044.00,0.0011
2043.00,0.0012
2042.00,0.0012
2041.00,0.0013
2040.00,0.0014
2039.00,0.0013
2038.00,0.0012
2037.00,0.0010
2036.00,0.0008
2035.00,0.0007
2034.00,0.0006
2033.00,0.0007
2032.00,0.0008
2031.00,0.0008
2030.00,0.0007
2029.00,0.0006
2028.00,0.0005
2027.00,0.0006
2026.00,0.0007
2025.00,0.0008
2024.00,0.0008
2023.00,0.0009
2022.00,0.0008
2021.00,0.0007
2020.00,0.0006
2019.00,0.0004
2018.00,0.0003
2017.00,0.0002
2016.00,0.0003
2015.00,0.0004
2014.00,0.0004
2013.00,0.0004
2012.00,0.0005
2011.00,0.0005
2010.00,0.0004
2009.00,0.0003
2008.00,0.0002
2007.00,0.0000
2006.00,-0.0001
2005.00,-0.0001
2004.00,-0.0000
2003.00,0.0001
2002.00,0.0002
2001.00,0.0003
2000.00,0.0004
1999.00,0.0005
1998.00,0.0006
1997.00,0.0007
1996.00,0.0008
1995.00,0.0010
1994.00,0.0010
1993.00,0.0010
1992.00,0.0010
1991.00,0.0009
1990.00,0.0009
1989.00,0.0009
1988.00,0.0009
1987.00,0.0010
1986.00,0.0010
1985.00,0.0012
1984.00,0.0014
1983.00,0.0017
1982.00,0.0018
1981.00,0.0019
1980.00,0.0016
1979.00,0.0012
1978.00,0.0006
1977.00,0.0002
1976.00,-0.0000
1975.00,-0.0001
1974.00,-0.0001
1973.00,-0.0000
1972.00,0.0001
1971.00,0.0002
1970.00,0.0003
1969.00,0.0004
1968.00,0.0005
1967.00,0.0005
1966.00,0.0002
1965.00,-0.0001
1964.00,-0.0002
1963.00,-0.0003
1962.00,-0.0004
1961.00,-0.0004
1960.00,-0.0004
1959.00,-0.0004
1958.00,-0.0003
1957.00,-0.0002
1956.00,-0.0000
1955.00,0.0000
1954.00,-0.0000
1953.00,-0.0001
1952.00,-0.0001
1951.00,-0.0000
1950.00,0.0000
1949.00,0.0001
1948.00,0.0003
1947.00,0.0003
1946.00,0.0003
1945.00,0.0002
1944.00,0.0002
1943.00,0.0002
1942.00,0.0002
1941.00,0.0002
1940.00,0.0002
1939.00,0.0002
1938.00,0.0002
1937.00,0.0001
1936.00,0.0002
1935.00,0.0002
1934.00,0.0001
1933.00,0.0001
1932.00,0.0001
1931.00,0.0002
1930.00,0.0002
1929.00,0.0002
1928.00,0.0002
1927.00,0.0002
1926.00,0.0002
1925.00,0.0003
1924.00,0.0005
1923.00,0.0006
1922.00,0.0006
1921.00,0.0006
1920.00,0.0006
1919.00,0.0006
1918.00,0.0006
1917.00,0.0006
1916.00,0.0005
1915.00,0.0004
1914.00,0.0004
1913.00,0.0004
1912.00,0.0004
1911.00,0.0005
1910.00,0.0006
1909.00,0.0006
1908.00,0.0006
1907.00,0.0006
1906.00,0.0006
1905.00,0.0006
1904.00,0.0006
1903.00,0.0006
1902.00,0.0006
1901.00,0.0006
1900.00,0.0006
1899.00,0.0006
1898.00,0.0005
1897.00,0.0005
1896.00,0.0005
1895.00,0.0005
1894.00,0.0006
1893.00,0.0006
1892.00,0.0006
1891.00,0.0006
1890.00,0.0006
1889.00,0.0006
1888.00,0.0006
1887.00,0.0006
1886.00,0.0005
1885.00,0.0005
1884.00,0.0005
1883.00,0.0005
1882.00,0.0005
1881.00,0.0005
1880.00,0.0006
1879.00,0.0006
1878.00,0.0006
1877.00,0.0006
1876.00,0.0006
1875.00,0.0006
1874.00,0.0006
1873.00,0.0006
1872.00,0.0006
1871.00,0.0006
1870.00,0.0006
1869.00,0.0006
1868.00,0.0007
1867.00,0.0007
1866.00,0.0007
1865.00,0.0007
1864.00,0.0007
1863.00,0.0007
1862.00,0.0007
1861.00,0.0007
1860.00,0.0007
1859.00,0.0007
1858.00,0.0007
1857.00,0.0007
1856.00,0.0007
1855.00,0.0007
1854.00,0.0007
1853.00,0.0007
1852.00,0.0007
1851.00,0.0007
1850.00,0.0007
1849.00,0.0007
1848.00,0.0008
1847.00,0.0008
1846.00,0.0008
1845.00,0.0007
1844.00,0.0007
1843.00,0.0007
1842.00,0.0007
1841.00,0.0007
1840.00,0.0007
1839.00,0.0007
1838.00,0.0008
1837.00,0.0008
1836.00,0.0008
1835.00,0.0008
1834.00,0.0008
1833.00,0.0008
1832.00,0.0008
1831.00,0.0008
1830.00,0.0008
1829.00,0.0008
1828.00,0.0008
1827.00,0.0008
1826.00,0.0009
1825.00,0.0009
1824.00,0.0009
1823.00,0.0009
1822.00,0.0008
1821.00,0.0008
1820.00,0.0007
1819.00,0.0006
1818.00,0.0005
1817.00,0.0005
1816.00,0.0005
1815.00,0.0006
1814.00,0.0007
1813.00,0.0007
1812.00,0.0008
1811.00,0.0009
1810.00,0.0008
1809.00,0.0008
1808.00,0.0008
1807.00,0.0008
1806.00,0.0009
1805.00,0.0009
1804.00,0.0009
1803.00,0.0009
1802.00,0.0009
1801.00,0.0009
1800.00,0.0010
1799.00,0.0010
1798.00,0.0010
1797.00,0.0010
1796.00,0.0010
1795.00,0.0010
1794.00,0.0010
1793.00,0.0010
1792.00,0.0010
1791.00,0.0010
1790.00,0.0010
1789.00,0.0010
1788.00,0.0010
1787.00,0.0010
1786.00,0.0010
1785.00,0.0011
1784.00,0.0011
1783.00,0.0011
1782.00,0.0011
1781.00,0.0011
1780.00,0.0011
1779.00,0.0011
1778.00,0.0011
1777.00,0.0011
1776.00,0.0012
1775.00,0.0012
1774.00,0.0012
1773.00,0.0012
1772.00,0.0012
1771.00,0.0012
1770.00,0.0012
1769.00,0.0013
1768.00,0.0013
1767.00,0.0013
1766.00,0.0013
1765.00,0.0013
1764.00,0.0013
1763.00,0.0014
1762.00,0.0014
1761.00,0.0014
1760.00,0.0014
1759.00,0.0015
1758.00,0.0015
1757.00,0.0015
1756.00,0.0015
1755.00,0.0015
1754.00,0.0015
1753.00,0.0016
1752.00,0.0016
1751.00,0.0017
1750.00,0.0017
1749.00,0.0017
1748.00,0.0018
1747.00,0.0018
1746.00,0.0018
1745.00,0.0018
1744.00,0.0019
1743.00,0.0019
1742.00,0.0019
1741.00,0.0019
1740.00,0.0019
1739.00,0.0020
1738.00,0.0020
1737.00,0.0020
1736.00,0.0021
1735.00,0.0022
1734.00,0.0022
1733.00,0.0022
1732.00,0.0023
1731.00,0.0024
1730.00,0.0024
1729.00,0.0025
1728.00,0.0025
1727.00,0.0026
1726.00,0.0027
1725.00,0.0028
1724.00,0.0029
1723.00,0.0030
1722.00,0.0031
1721.00,0.0032
1720.00,0.0033
1719.00,0.0036
1718.00,0.0038
1717.00,0.0040
1716.00,0.0042
1715.00,0.0044
1714.00,0.0045
1713.00,0.0048
1712.00,0.0051
1711.00,0.0054
1710.00,0.0058
1709.00,0.0062
1708.00,0.0067
1707.00,0.0074
1706.00,0.0081
1705.00,0.0089
1704.00,0.0097
1703.00,0.0104
1702.00,0.0111
1701.00,0.0124
1700.00,0.0143
1699.00,0.0159
1698.00,0.0171
1697.00,0.0185
1696.00,0.0203
1695.00,0.0224
1694.00,0.0243
1693.00,0.0258
1692.00,0.0274
1691.00,0.0291
1690.00,0.0309
1689.00,0.0327
1688.00,0.0343
1687.00,0.0356
1686.00,0.0368
1685.00,0.0385
1684.00,0.0409
1683.00,0.0430
1682.00,0.0443
1681.00,0.0454
1680.00,0.0463
1679.00,0.0472
1678.00,0.0479
1677.00,0.0485
1676.00,0.0493
1675.00,0.0502
1674.00,0.0511
1673.00,0.0517
1672.00,0.0521
1671.00,0.0524
1670.00,0.0527
1669.00,0.0533
1668.00,0.0538
1667.00,0.0542
1666.00,0.0544
1665.00,0.0546
1664.00,0.0548
1663.00,0.0551
1662.00,0.0556
1661.00,0.0560
1660.00,0.0562
1659.00,0.0564
1658.00,0.0564
1657.00,0.0563
1656.00,0.0561
1655.00,0.0556
1654.00,0.0552
1653.00,0.0550
1652.00,0.0551
1651.00,0.0550
1650.00,0.0544
1649.00,0.0534
1648.00,0.0522
1647.00,0.0509
1646.00,0.0496
1645.00,0.0483
1644.00,0.0470
1643.00,0.0456
1642.00,0.0441
1641.00,0.0425
1640.00,0.0409
1639.00,0.0394
1638.00,0.0379
1637.00,0.0362
1636.00,0.0344
1635.00,0.0328
1634.00,0.0314
1633.00,0.0303
1632.00,0.0292
1631.00,0.0281
1630.00,0.0271
1629.00,0.0262
1628.00,0.0255
1627.00,0.0250
1626.00,0.0246
1625.00,0.0245
1624.00,0.0245
1623.00,0.0247
1622.00,0.0250
1621.00,0.0251
1620.00,0.0251
1619.00,0.0250
1618.00,0.0247
1617.00,0.0242
1616.00,0.0236
1615.00,0.0231
1614.00,0.0225
1613.00,0.0220
1612.00,0.0215
1611.00,0.0210
1610.00,0.0205
1609.00,0.0199
1608.00,0.0193
1607.00,0.0185
1606.00,0.0176
1605.00,0.0167
1604.00,0.0157
1603.00,0.0148
1602.00,0.0140
1601.00,0.0132
1600.00,0.0126
1599.00,0.0120
1598.00,0.0116
1597.00,0.0113
1596.00,0.0111
1595.00,0.0111
1594.00,0.0112
1593.00,0.0115
1592.00,0.0119
1591.00,0.0125
1590.00,0.0132
1589.00,0.0139
1588.00,0.0145
1587.00,0.0150
1586.00,0.0152
1585.00,0.0153
1584.00,0.0150
1583.00,0.0146
1582.00,0.0141
1581.00,0.0134
1580.00,0.0127
1579.00,0.0121
1578.00,0.0115
1577.00,0.0109
1576.00,0.0104
1575.00,0.0099
1574.00,0.0096
1573.00,0.0093
1572.00,0.0090
1571.00,0.0088
1570.00,0.0085
1569.00,0.0083
1568.00,0.0081
1567.00,0.0079
1566.00,0.0077
1565.00,0.0075
1564.00,0.0073
1563.00,0.0072
1562.00,0.0070
1561.00,0.0068
1560.00,0.0066
1559.00,0.0065
1558.00,0.0063
1557.00,0.0062
1556.00,0.0062
1555.00,0.0061
1554.00,0.0060
1553.00,0.0059
1552.00,0.0059
1551.00,0.0058
1550.00,0.0058
1549.00,0.0057
1548.00,0.0056
1547.00,0.0056
1546.00,0.0056
1545.00,0.0056
1544.00,0.0055
1543.00,0.0055
1542.00,0.0055
1541.00,0.0055
1540.00,0.0054
1539.00,0.0053
1538.00,0.0053
1537.00,0.0053
1536.00,0.0053
1535.00,0.0053
1534.00,0.0053
1533.00,0.0053
1532.00,0.0052
1531.00,0.0052
1530.00,0.0053
1529.00,0.0053
1528.00,0.0053
1527.00,0.0054
1526.00,0.0055
1525.00,0.0055
1524.00,0.0056
1523.00,0.0057
1522.00,0.0058
1521.00,0.0059
1520.00,0.0060
1519.00,0.0061
1518.00,0.0063
1517.00,0.0064
1516.00,0.0065
1515.00,0.0066
1514.00,0.0067
1513.00,0.0068
1512.00,0.0069
1511.00,0.0070
1510.00,0.0072
1509.00,0.0074
1508.00,0.0076
1507.00,0.0079
1506.00,0.0083
1505.00,0.0087
1504.00,0.0091
1503.00,0.0096
1502.00,0.0102
1501.00,0.0109
1500.00,0.0117
1499.00,0.0126
1498.00,0.0135
1497.00,0.0144
1496.00,0.0151
1495.00,0.0156
1494.00,0.0158
1493.00,0.0158
1492.00,0.0156
1491.00,0.0152
1490.00,0.0146
1489.00,0.0139
1488.00,0.0131
1487.00,0.0123
1486.00,0.0115
1485.00,0.0108
1484.00,0.0102
1483.00,0.0096
1482.00,0.0092
1481.00,0.0088
1480.00,0.0086
1479.00,0.0086
1478.00,0.0086
1477.00,0.0087
1476.00,0.0090
1475.00,0.0094
1474.00,0.0100
1473.00,0.0108
1472.00,0.0119
1471.00,0.0130
1470.00,0.0142
1469.00,0.0154
1468.00,0.0167
1467.00,0.0182
1466.00,0.0198
1465.00,0.0217
1464.00,0.0235
1463.00,0.0248
1462.00,0.0258
1461.00,0.0263
1460.00,0.0266
1459.00,0.0264
1458.00,0.0258
1457.00,0.0248
1456.00,0.0237
1455.00,0.0226
1454.00,0.0217
1453.00,0.0210
1452.00,0.0203
1451.00,0.0199
1450.00,0.0198
1449.00,0.0200
1448.00,0.0205
1447.00,0.0212
1446.00,0.0221
1445.00,0.0230
1444.00,0.0241
1443.00,0.0252
1442.00,0.0263
1441.00,0.0274
1440.00,0.0283
1439.00,0.0292
1438.00,0.0301
1437.00,0.0313
1436.00,0.0325
1435.00,0.0334
1434.00,0.0339
1433.00,0.0343
1432.00,0.0347
1431.00,0.0351
1430.00,0.0356
1429.00,0.0362
1428.00,0.0370
1427.00,0.0378
1426.00,0.0387
1425.00,0.0398
1424.00,0.0409
1423.00,0.0419
1422.00,0.0423
1421.00,0.0424
1420.00,0.0419
1419.00,0.0408
1418.00,0.0393
1417.00,0.0375
1416.00,0.0355
1415.00,0.0334
1414.00,0.0313
1413.00,0.0293
1412.00,0.0275
1411.00,0.0260
1410.00,0.0248
1409.00,0.0238
1408.00,0.0231
1407.00,0.0226
1406.00,0.0222
1405.00,0.0219
1404.00,0.0217
1403.00,0.0215
1402.00,0.0213
1401.00,0.0209
1400.00,0.0203
1399.00,0.0196
1398.00,0.0187
1397.00,0.0179
1396.00,0.0170
1395.00,0.0161
1394.00,0.0153
1393.00,0.0147
1392.00,0.0142
1391.00,0.0138
1390.00,0.0136
1389.00,0.0136
1388.00,0.0136
1387.00,0.0138
1386.00,0.0142
1385.00,0.0145
1384.00,0.0150
1383.00,0.0154
1382.00,0.0159
1381.00,0.0165
1380.00,0.0169
1379.00,0.0173
1378.00,0.0176
1377.00,0.0178
1376.00,0.0179
1375.00,0.0180
1374.00,0.0180
1373.00,0.0180
1372.00,0.0178
1371.00,0.0177
1370.00,0.0174
1369.00,0.0172
1368.00,0.0169
1367.00,0.0167
1366.00,0.0165
1365.00,0.0164
1364.00,0.0163
1363.00,0.0163
1362.00,0.0162
1361.00,0.0161
1360.00,0.0158
1359.00,0.0153
1358.00,0.0147
1357.00,0.0140
1356.00,0.0133
1355.00,0.0126
1354.00,0.0120
1353.00,0.0116
1352.00,0.0112
1351.00,0.0110
1350.00,0.0108
1349.00,0.0106
1348.00,0.0105
1347.00,0.0104
1346.00,0.0104
1345.00,0.0104
1344.00,0.0104
1343.00,0.0104
1342.00,0.0104
1341.00,0.0104
1340.00,0.0104
1339.00,0.0105
1338.00,0.0105
1337.00,0.0106
1336.00,0.0107
1335.00,0.0109
1334.00,0.0110
1333.00,0.0113
1332.00,0.0115
1331.00,0.0118
1330.00,0.0121
1329.00,0.0125
1328.00,0.0129
1327.00,0.0133
1326.00,0.0138
1325.00,0.0143
1324.00,0.0148
1323.00,0.0154
1322.00,0.0160
1321.00,0.0165
1320.00,0.0169
1319.00,0.0172
1318.00,0.0175
1317.00,0.0176
1316.00,0.0176
1315.00,0.0174
1314.00,0.0172
1313.00,0.0169
1312.00,0.0166
1311.00,0.0163
1310.00,0.0161
1309.00,0.0159
1308.00,0.0159
1307.00,0.0159
1306.00,0.0160
1305.00,0.0163
1304.00,0.0166
1303.00,0.0171
1302.00,0.0178
1301.00,0.0186
1300.00,0.0197
1299.00,0.0210
1298.00,0.0226
1297.00,0.0244
1296.00,0.0265
1295.00,0.0287
1294.00,0.0311
1293.00,0.0335
1292.00,0.0359
1291.00,0.0382
1290.00,0.0403
1289.00,0.0422
1288.00,0.0437
1287.00,0.0449
1286.00,0.0457
1285.00,0.0461
1284.00,0.0460
1283.00,0.0456
1282.00,0.0450
1281.00,0.0442
1280.00,0.0433
1279.00,0.0426
1278.00,0.0420
1277.00,0.0418
1276.00,0.0417
1275.00,0.0419
1274.00,0.0421
1273.00,0.0424
1272.00,0.0425
1271.00,0.0425
1270.00,0.0422
1269.00,0.0417
1268.00,0.0409
1267.00,0.0399
1266.00,0.0386
1265.00,0.0372
1264.00,0.0357
1263.00,0.0341
1262.00,0.0326
1261.00,0.0311
1260.00,0.0296
1259.00,0.0282
1258.00,0.0269
1257.00,0.0257
1256.00,0.0246
1255.00,0.0237
1254.00,0.0228
1253.00,0.0220
1252.00,0.0214
1251.00,0.0208
1250.00,0.0204
1249.00,0.0201
1248.00,0.0200
1247.00,0.0200
1246.00,0.0201
1245.00,0.0203
1244.00,0.0206
1243.00,0.0209
1242.00,0.0213
1241.00,0.0216
1240.00,0.0219
1239.00,0.0222
1238.00,0.0224
1237.00,0.0226
1236.00,0.0229
1235.00,0.0231
1234.00,0.0233
1233.00,0.0235
1232.00,0.0236
1231.00,0.0236
1230.00,0.0237
1229.00,0.0236
1228.00,0.0236
1227.00,0.0235
1226.00,0.0234
1225.00,0.0233
1224.00,0.0233
1223.00,0.0232
1222.00,0.0231
1221.00,0.0231
1220.00,0.0230
1219.00,0.0229
1218.00,0.0227
1217.00,0.0224
1216.00,0.0220
1215.00,0.0215
1214.00,0.0210
1213.00,0.0203
1212.00,0.0197
1211.00,0.0190
1210.00,0.0184
1209.00,0.0178
1208.00,0.0173
1207.00,0.0169
1206.00,0.0166
1205.00,0.0164
1204.00,0.0163
1203.00,0.0162
1202.00,0.0163
1201.00,0.0164
1200.00,0.0167
1199.00,0.0169
1198.00,0.0173
1197.00,0.0176
1196.00,0.0179
1195.00,0.0181
1194.00,0.0181
1193.00,0.0180
1192.00,0.0178
1191.00,0.0173
1190.00,0.0168
1189.00,0.0163
1188.00,0.0157
1187.00,0.0152
1186.00,0.0148
1185.00,0.0144
1184.00,0.0141
1183.00,0.0139
1182.00,0.0137
1181.00,0.0136
1180.00,0.0135
1179.00,0.0135
1178.00,0.0136
1177.00,0.0137
1176.00,0.0138
1175.00,0.0140
1174.00,0.0141
1173.00,0.0144
1172.00,0.0146
1171.00,0.0148
1170.00,0.0150
1169.00,0.0151
1168.00,0.0152
1167.00,0.0153
1166.00,0.0153
1165.00,0.0154
1164.00,0.0155
1163.00,0.0157
1162.00,0.0159
1161.00,0.0163
1160.00,0.0166
1159.00,0.0170
1158.00,0.0172
1157.00,0.0174
1156.00,0.0173
1155.00,0.0171
1154.00,0.0167
1153.00,0.0163
1152.00,0.0157
1151.00,0.0150
1150.00,0.0144
1149.00,0.0137
1148.00,0.0131
1147.00,0.0125
1146.00,0.0120
1145.00,0.0115
1144.00,0.0111
1143.00,0.0108
1142.00,0.0105
1141.00,0.0103
1140.00,0.0102
1139.00,0.0102
1138.00,0.0103
1137.00,0.0106
1136.00,0.0110
1135.00,0.0116
1134.00,0.0123
1133.00,0.0132
1132.00,0.0141
1131.00,0.0148
1130.00,0.0153
1129.00,0.0154
1128.00,0.0152
1127.00,0.0147
1126.00,0.0140
1125.00,0.0133
1124.00,0.0127
1123.00,0.0121
1122.00,0.0117
1121.00,0.0114
1120.00,0.0112
1119.00,0.0111
1118.00,0.0110
1117.00,0.0110
1116.00,0.0110
1115.00,0.0111
1114.00,0.0111
1113.00,0.0112
1112.00,0.0112
1111.00,0.0113
1110.00,0.0113
1109.00,0.0114
1108.00,0.0115
1107.00,0.0116
1106.00,0.0118
1105.00,0.0120
1104.00,0.0123
1103.00,0.0126
1102.00,0.0128
1101.00,0.0129
1100.00,0.0129
1099.00,0.0128
1098.00,0.0127
1097.00,0.0124
1096.00,0.0121
1095.00,0.0118
1094.00,0.0115
1093.00,0.0112
1092.00,0.0110
1091.00,0.0108
1090.00,0.0106
1089.00,0.0105
1088.00,0.0103
1087.00,0.0103
1086.00,0.0102
1085.00,0.0102
1084.00,0.0102
1083.00,0.0103
1082.00,0.0104
1081.00,0.0105
1080.00,0.0107
1079.00,0.0109
1078.00,0.0112
1077.00,0.0114
1076.00,0.0117
1075.00,0.0120
1074.00,0.0122
1073.00,0.0125
1072.00,0.0128
1071.00,0.0131
1070.00,0.0136
1069.00,0.0141
1068.00,0.0147
1067.00,0.0154
1066.00,0.0163
1065.00,0.0173
1064.00,0.0184
1063.00,0.0195
1062.00,0.0207
1061.00,0.0217
1060.00,0.0225
1059.00,0.0231
1058.00,0.0233
1057.00,0.0232
1056.00,0.0228
1055.00,0.0220
1054.00,0.0211
1053.00,0.0199
1052.00,0.0188
1051.00,0.0178
1050.00,0.0169
1049.00,0.0162
1048.00,0.0156
1047.00,0.0153
1046.00,0.0152
1045.00,0.0152
1044.00,0.0153
1043.00,0.0155
1042.00,0.0157
1041.00,0.0159
1040.00,0.0162
1039.00,0.0164
1038.00,0.0167
1037.00,0.0169
1036.00,0.0171
1035.00,0.0173
1034.00,0.0174
1033.00,0.0176
1032.00,0.0177
1031.00,0.0177
1030.00,0.0176
1029.00,0.0174
1028.00,0.0171
1027.00,0.0167
1026.00,0.0163
1025.00,0.0159
1024.00,0.0156
1023.00,0.0154
1022.00,0.0153
1021.00,0.0152
1020.00,0.0152
1019.00,0.0152
1018.00,0.0151
1017.00,0.0150
1016.00,0.0147
1015.00,0.0144
1014.00,0.0140
1013.00,0.0135
1012.00,0.0131
1011.00,0.0127
1010.00,0.0124
1009.00,0.0122
1008.00,0.0122
1007.00,0.0123
1006.00,0.0125
1005.00,0.0129
1004.00,0.0132
1003.00,0.0134
1002.00,0.0135
1001.00,0.0134
1000.00,0.0133
999.00,0.0130
998.00,0.0127
997.00,0.0123
996.00,0.0120
995.00,0.0117
994.00,0.0114
993.00,0.0111
992.00,0.0108
991.00,0.0105
990.00,0.0103
989.00,0.0100
988.00,0.0098
987.00,0.0096
986.00,0.0094
985.00,0.0092
984.00,0.0090
983.00,0.0089
982.00,0.0088
981.00,0.0087
980.00,0.0087
979.00,0.0087
978.00,0.0086
977.00,0.0086
976.00,0.0085
975.00,0.0084
974.00,0.0084
973.00,0.0083
972.00,0.0082
971.00,0.0081
970.00,0.0080
969.00,0.0079
968.00,0.0078
967.00,0.0077
966.00,0.0077
965.00,0.0076
964.00,0.0075
963.00,0.0075
962.00,0.0074
961.00,0.0073
960.00,0.0073
959.00,0.0072
958.00,0.0071
957.00,0.0070
956.00,0.0069
955.00,0.0068
954.00,0.0067
953.00,0.0067
952.00,0.0066
951.00,0.0066
950.00,0.0066
949.00,0.0067
948.00,0.0067
947.00,0.0067
946.00,0.0068
945.00,0.0068
944.00,0.0069
943.00,0.0070
942.00,0.0072
941.00,0.0075
940.00,0.0078
939.00,0.0081
938.00,0.0086
937.00,0.0090
936.00,0.0095
935.00,0.0099
934.00,0.0102
933.00,0.0103
932.00,0.0103
931.00,0.0102
930.00,0.0101
929.00,0.0099
928.00,0.0098
927.00,0.0097
926.00,0.0096
925.00,0.0095
924.00,0.0094
923.00,0.0093
922.00,0.0091
921.00,0.0090
920.00,0.0088
919.00,0.0087
918.00,0.0085
917.00,0.0084
916.00,0.0082
915.00,0.0080
914.00,0.0079
913.00,0.0078
912.00,0.0077
911.00,0.0077
910.00,0.0077
909.00,0.0077
908.00,0.0078
907.00,0.0080
906.00,0.0082
905.00,0.0084
904.00,0.0087
903.00,0.0090
902.00,0.0093
901.00,0.0097
900.00,0.0100
899.00,0.0102
898.00,0.0104
897.00,0.0105
896.00,0.0105
895.00,0.0104
894.00,0.0103
893.00,0.0102
892.00,0.0099
891.00,0.0097
890.00,0.0094
889.00,0.0092
888.00,0.0091
887.00,0.0089
886.00,0.0089
885.00,0.0089
884.00,0.0090
883.00,0.0091
882.00,0.0092
881.00,0.0093
880.00,0.0096
879.00,0.0099
878.00,0.0102
877.00,0.0104
876.00,0.0107
875.00,0.0110
874.00,0.0113
873.00,0.0116
872.00,0.0118
871.00,0.0119
870.00,0.0121
869.00,0.0122
868.00,0.0122
867.00,0.0123
866.00,0.0123
865.00,0.0123
864.00,0.0124
863.00,0.0124
862.00,0.0125
861.00,0.0126
860.00,0.0128
859.00,0.0130
858.00,0.0132
857.00,0.0135
856.00,0.0138
855.00,0.0141
854.00,0.0144
853.00,0.0148
852.00,0.0152
851.00,0.0156
850.00,0.0160
849.00,0.0163
848.00,0.0166
847.00,0.0168
846.00,0.0171
845.00,0.0172
844.00,0.0173
843.00,0.0173
842.00,0.0173
841.00,0.0172
840.00,0.0171
839.00,0.0170
838.00,0.0168
837.00,0.0167
836.00,0.0166
835.00,0.0165
834.00,0.0165
833.00,0.0164
832.00,0.0163
831.00,0.0161
830.00,0.0160
829.00,0.0159
828.00,0.0158
827.00,0.0157
826.00,0.0156
825.00,0.0154
824.00,0.0153
823.00,0.0153
822.00,0.0152
821.00,0.0151
820.00,0.0151
819.00,0.0150
818.00,0.0150
817.00,0.0150
816.00,0.0149
815.00,0.0148
814.00,0.0147
813.00,0.0144
812.00,0.0141
811.00,0.0137
810.00,0.0132
809.00,0.0126
808.00,0.0121
807.00,0.0115
806.00,0.0109
805.00,0.0104
804.00,0.0100
803.00,0.0097
802.00,0.0094
801.00,0.0092
800.00,0.0091
799.00,0.0090
798.00,0.0090
797.00,0.0090
796.00,0.0089
795.00,0.0089
794.00,0.0089
793.00,0.0089
792.00,0.0089
791.00,0.0089
790.00,0.0089
789.00,0.0090
788.00,0.0090
787.00,0.0091
786.00,0.0091
785.00,0.0091
784.00,0.0092
783.00,0.0092
782.00,0.0093
781.00,0.0094
780.00,0.0095
779.00,0.0097
778.00,0.0098
777.00,0.0098
776.00,0.0099
775.00,0.0099
774.00,0.0099
773.00,0.0099
772.00,0.0099
771.00,0.0099
770.00,0.0099
769.00,0.0099
768.00,0.0100
767.00,0.0101
766.00,0.0103
765.00,0.0105
764.00,0.0107
763.00,0.0109
762.00,0.0111
761.00,0.0114
760.00,0.0116
759.00,0.0119
758.00,0.0121
757.00,0.0124
756.00,0.0126
755.00,0.0129
754.00,0.0132
753.00,0.0134
752.00,0.0136
751.00,0.0139
750.00,0.0141
749.00,0.0144
748.00,0.0147
747.00,0.0150
746.00,0.0152
745.00,0.0155
744.00,0.0157
743.00,0.0160
742.00,0.0164
741.00,0.0169
740.00,0.0174
739.00,0.0179
738.00,0.0184
737.00,0.0187
736.00,0.0188
735.00,0.0187
734.00,0.0186
733.00,0.0183
732.00,0.0180
731.00,0.0176
730.00,0.0172
729.00,0.0168
728.00,0.0164
727.00,0.0160
726.00,0.0156
725.00,0.0152
724.00,0.0149
723.00,0.0145
722.00,0.0142
721.00,0.0139
720.00,0.0137
719.00,0.0135
718.00,0.0134
717.00,0.0133
716.00,0.0132
715.00,0.0132
714.00,0.0132
713.00,0.0132
712.00,0.0132
711.00,0.0132
710.00,0.0131
709.00,0.0130
708.00,0.0129
707.00,0.0128
706.00,0.0128
705.00,0.0128
704.00,0.0128
703.00,0.0128
702.00,0.0129
701.00,0.0130
700.00,0.0131
699.00,0.0133
698.00,0.0135
697.00,0.0137
696.00,0.0140
695.00,0.0143
694.00,0.0146
693.00,0.0149
692.00,0.0152
691.00,0.0154
690.00,0.0155
689.00,0.0156
688.00,0.0157
687.00,0.0158
686.00,0.0159
685.00,0.0159
684.00,0.0159
683.00,0.0160
682.00,0.0160
681.00,0.0161
680.00,0.0162
679.00,0.0163
678.00,0.0165
677.00,0.0166
676.00,0.0168
675.00,0.0171
674.00,0.0174
673.00,0.0176
672.00,0.0179
671.00,0.0181
670.00,0.0185
669.00,0.0190
668.00,0.0197
667.00,0.0202
666.00,0.0204
665.00,0.0206
664.00,0.0209
663.00,0.0212
662.00,0.0217
661.00,0.0221
660.00,0.0226
659.00,0.0230
658.00,0.0235
657.00,0.0240
656.00,0.0245
655.00,0.0250
654.00,0.0255
653.00,0.0260
652.00,0.0264
651.00,0.0267
650.00,0.0269
649.00,0.0271
648.00,0.0271
647.00,0.0271
646.00,0.0270
645.00,0.0269
644.00,0.0267
643.00,0.0265
642.00,0.0263
641.00,0.0259
640.00,0.0254
639.00,0.0249
638.00,0.0244
637.00,0.0240
636.00,0.0237
635.00,0.0234
634.00,0.0231
633.00,0.0228
632.00,0.0225
631.00,0.0223
630.00,0.0221
629.00,0.0219
628.00,0.0218
627.00,0.0216
626.00,0.0215
625.00,0.0214
624.00,0.0213
623.00,0.0212
622.00,0.0211
621.00,0.0210
620.00,0.0209
619.00,0.0208
618.00,0.0207
617.00,0.0207
616.00,0.0206
615.00,0.0206
614.00,0.0205
613.00,0.0206
612.00,0.0208
611.00,0.0212
610.00,0.0215
609.00,0.0216
608.00,0.0214
607.00,0.0212
606.00,0.0211
605.00,0.0212
604.00,0.0213
603.00,0.0215
602.00,0.0215
601.00,0.0217
600.00,0.0218
599.00,0.0219
598.00,0.0219
597.00,0.0219
596.00,0.0220
595.00,0.0220
594.00,0.0220
593.00,0.0222
592.00,0.0223
591.00,0.0226
590.00,0.0229
589.00,0.0233
588.00,0.0237
587.00,0.0243
586.00,0.0249
585.00,0.0256
584.00,0.0264
583.00,0.0270
582.00,0.0276
581.00,0.0280
580.00,0.0284
579.00,0.0286
578.00,0.0288
577.00,0.0290
576.00,0.0292
575.00,0.0294
574.00,0.0295
573.00,0.0296
572.00,0.0297
571.00,0.0298
570.00,0.0298
569.00,0.0297
568.00,0.0294
567.00,0.0291
566.00,0.0288
565.00,0.0287
564.00,0.0286
563.00,0.0284
562.00,0.0281
561.00,0.0278
560.00,0.0275
559.00,0.0273
558.00,0.0271
557.00,0.0268
556.00,0.0265
555.00,0.0263
554.00,0.0262
553.00,0.0260
552.00,0.0259
551.00,0.0257
550.00,0.0255
549.00,0.0253
548.00,0.0251
547.00,0.0249
546.00,0.0247
545.00,0.0246
544.00,0.0243
543.00,0.0241
542.00,0.0239
541.00,0.0238
540.00,0.0238
539.00,0.0239
538.00,0.0239
537.00,0.0239
536.00,0.0239
535.00,0.0241
534.00,0.0244
533.00,0.0247
532.00,0.0251
531.00,0.0252
530.00,0.0252
529.00,0.0250
528.00,0.0247
527.00,0.0244
526.00,0.0242
525.00,0.0242
524.00,0.0241
523.00,0.0239
522.00,0.0238
521.00,0.0237
520.00,0.0236
519.00,0.0236
518.00,0.0234
517.00,0.0232
516.00,0.0231
515.00,0.0231
514.00,0.0232
513.00,0.0234
512.00,0.0235
511.00,0.0237
510.00,0.0239
509.00,0.0239
508.00,0.0239
507.00,0.0238
506.00,0.0236
505.00,0.0236
504.00,0.0235
503.00,0.0234
502.00,0.0232
501.00,0.0230
500.00,0.0230
499.00,0.0230
498.00,0.0230
497.00,0.0231
496.00,0.0232
495.00,0.0233
494.00,0.0233
493.00,0.0232
492.00,0.0232
491.00,0.0233
490.00,0.0235
489.00,0.0238
488.00,0.0240
487.00,0.0241
486.00,0.0242
485.00,0.0243
484.00,0.0244
483.00,0.0247
482.00,0.0249
481.00,0.0251
480.00,0.0252
479.00,0.0251
478.00,0.0248
477.00,0.0245
476.00,0.0244
475.00,0.0244
474.00,0.0245
473.00,0.0246
472.00,0.0248
471.00,0.0250
470.00,0.0252
469.00,0.0253
468.00,0.0253
467.00,0.0250
466.00,0.0247
465.00,0.0244
464.00,0.0243
463.00,0.0243
462.00,0.0242
461.00,0.0240
460.00,0.0238
459.00,0.0236
458.00,0.0235
457.00,0.0236
456.00,0.0237
455.00,0.0238
454.00,0.0240
453.00,0.0242
452.00,0.0242
451.00,0.0241
450.00,0.0239
449.00,0.0236
448.00,0.0235
447.00,0.0233
446.00,0.0232
445.00,0.0231
444.00,0.0230
443.00,0.0231
442.00,0.0232
441.00,0.0232
440.00,0.0232
439.00,0.0231
438.00,0.0229
437.00,0.0227
436.00,0.0224
435.00,0.0219
434.00,0.0215
433.00,0.0212
432.00,0.0211
431.00,0.0212
430.00,0.0212
429.00,0.0210
428.00,0.0206
427.00,0.0202
426.00,0.0202
425.00,0.0206
424.00,0.0210
423.00,0.0214
422.00,0.0217
421.00,0.0220
420.00,0.0225
419.00,0.0232
418.00,0.0236
417.00,0.0234
416.00,0.0229
415.00,0.0222
414.00,0.0216
413.00,0.0212
412.00,0.0210
411.00,0.0207
410.00,0.0206
409.00,0.0205
408.00,0.0203
407.00,0.0199
406.00,0.0193
405.00,0.0186
404.00,0.0182
403.00,0.0181
402.00,0.0183
401.00,0.0186
400.00,0.0193
