Created as New Dataset,Sample 003 By YargerLab Date Wednesday, August 06 2025
cm-1,A
4000.00,0.0025
3999.00,0.0025
3998.00,0.0024
3997.00,0.0024
3996.00,0.0024
3995.00,0.0024
3994.00,0.0024
3993.00,0.0025
3992.00,0.0025
3991.00,0.0025
3990.00,0.0025
3989.00,0.0025
3988.00,0.0025
3987.00,0.0025
3986.00,0.0025
3985.00,0.0025
3984.00,0.0025
3983.00,0.0025
3982.00,0.0025
3981.00,0.0025
3980.00,0.0025
3979.00,0.0024
3978.00,0.0024
3977.00,0.0024
3976.00,0.0024
3975.00,0.0024
3974.00,0.0025
3973.00,0.0025
3972.00,0.0025
3971.00,0.0025
3970.00,0.0025
3969.00,0.0025
3968.00,0.0025
3967.00,0.0025
3966.00,0.0025
3965.00,0.0025
3964.00,0.0025
3963.00,0.0025
3962.00,0.0025
3961.00,0.0025
3960.00,0.0025
3959.00,0.0025
3958.00,0.0025
3957.00,0.0025
3956.00,0.0025
3955.00,0.0024
3954.00,0.0024
3953.00,0.0024
3952.00,0.0024
3951.00,0.0024
3950.00,0.0024
3949.00,0.0024
3948.00,0.0025
3947.00,0.0025
3946.00,0.0025
3945.00,0.0025
3944.00,0.0025
3943.00,0.0025
3942.00,0.0025
3941.00,0.0025
3940.00,0.0025
3939.00,0.0025
3938.00,0.0025
3937.00,0.0025
3936.00,0.0025
3935.00,0.0025
3934.00,0.0025
3933.00,0.0025
3932.00,0.0025
3931.00,0.0025
3930.00,0.0025
3929.00,0.0025
3928.00,0.0025
3927.00,0.0025
3926.00,0.0025
3925.00,0.0025
3924.00,0.0025
3923.00,0.0025
3922.00,0.0025
3921.00,0.0025
3920.00,0.0025
3919.00,0.0025
3918.00,0.0025
3917.00,0.0025
3916.00,0.0025
3915.00,0.0025
3914.00,0.0025
3913.00,0.0025
3912.00,0.0025
3911.00,0.0025
3910.00,0.0025
3909.00,0.0025
3908.00,0.0025
3907.00,0.0025
3906.00,0.0025
3905.00,0.0025
3904.00,0.0025
3903.00,0.0025
3902.00,0.0025
3901.00,0.0025
3900.00,0.0025
3899.00,0.0024
3898.00,0.0024
3897.00,0.0024
3896.00,0.0024
3895.00,0.0024
3894.00,0.0025
3893.00,0.0025
3892.00,0.0025
3891.00,0.0025
3890.00,0.0025
3889.00,0.0025
3888.00,0.0025
3887.00,0.0024
3886.00,0.0024
3885.00,0.0024
3884.00,0.0024
3883.00,0.0024
3882.00,0.0024
3881.00,0.0024
3880.00,0.0024
3879.00,0.0025
3878.00,0.0025
3877.00,0.0025
3876.00,0.0025
3875.00,0.0025
3874.00,0.0025
3873.00,0.0025
3872.00,0.0025
3871.00,0.0025
3870.00,0.0025
3869.00,0.0024
3868.00,0.0024
3867.00,0.0024
3866.00,0.0024
3865.00,0.0024
3864.00,0.0023
3863.00,0.0024
3862.00,0.0024
3861.00,0.0024
3860.00,0.0024
3859.00,0.0024
3858.00,0.0024
3857.00,0.0025
3856.00,0.0025
3855.00,0.0025
3854.00,0.0025
3853.00,0.0025
3852.00,0.0025
3851.00,0.0025
3850.00,0.0025
3849.00,0.0025
3848.00,0.0024
3847.00,0.0024
3846.00,0.0024
3845.00,0.0025
3844.00,0.0025
3843.00,0.0025
3842.00,0.0025
3841.00,0.0025
3840.00,0.0025
3839.00,0.0025
3838.00,0.0024
3837.00,0.0024
3836.00,0.0024
3835.00,0.0024
3834.00,0.0024
3833.00,0.0024
3832.00,0.0024
3831.00,0.0024
3830.00,0.0025
3829.00,0.0025
3828.00,0.0025
3827.00,0.0025
3826.00,0.0024
3825.00,0.0024
3824.00,0.0024
3823.00,0.0024
3822.00,0.0024
3821.00,0.0024
3820.00,0.0024
3819.00,0.0024
3818.00,0.0025
3817.00,0.0025
3816.00,0.0024
3815.00,0.0024
3814.00,0.0024
3813.00,0.0025
3812.00,0.0024
3811.00,0.0024
3810.00,0.0024
3809.00,0.0024
3808.00,0.0024
3807.00,0.0024
3806.00,0.0024
3805.00,0.0024
3804.00,0.0025
3803.00,0.0025
3802.00,0.0025
3801.00,0.0025
3800.00,0.0025
3799.00,0.0025
3798.00,0.0025
3797.00,0.0024
3796.00,0.0024
3795.00,0.0024
3794.00,0.0024
3793.00,0.0024
3792.00,0.0024
3791.00,0.0024
3790.00,0.0024
3789.00,0.0024
3788.00,0.0024
3787.00,0.0024
3786.00,0.0024
3785.00,0.0024
3784.00,0.0024
3783.00,0.0024
3782.00,0.0025
3781.00,0.0025
3780.00,0.0024
3779.00,0.0024
3778.00,0.0024
3777.00,0.0024
3776.00,0.0024
3775.00,0.0024
3774.00,0.0024
3773.00,0.0024
3772.00,0.0024
3771.00,0.0024
3770.00,0.0025
3769.00,0.0025
3768.00,0.0025
3767.00,0.0025
3766.00,0.0025
3765.00,0.0024
3764.00,0.0024
3763.00,0.0025
3762.00,0.0025
3761.00,0.0025
3760.00,0.0024
3759.00,0.0024
3758.00,0.0024
3757.00,0.0024
3756.00,0.0024
3755.00,0.0025
3754.00,0.0025
3753.00,0.0025
3752.00,0.0025
3751.00,0.0024
3750.00,0.0024
3749.00,0.0024
3748.00,0.0024
3747.00,0.0024
3746.00,0.0024
3745.00,0.0024
3744.00,0.0024
3743.00,0.0024
3742.00,0.0024
3741.00,0.0024
3740.00,0.0024
3739.00,0.0023
3738.00,0.0023
3737.00,0.0023
3736.00,0.0023
3735.00,0.0023
3734.00,0.0023
3733.00,0.0023
3732.00,0.0023
3731.00,0.0022
3730.00,0.0022
3729.00,0.0022
3728.00,0.0022
3727.00,0.0022
3726.00,0.0022
3725.00,0.0022
3724.00,0.0022
3723.00,0.0022
3722.00,0.0022
3721.00,0.0023
3720.00,0.0023
3719.00,0.0023
3718.00,0.0022
3717.00,0.0022
3716.00,0.0022
3715.00,0.0022
3714.00,0.0022
3713.00,0.0022
3712.00,0.0022
3711.00,0.0022
3710.00,0.0022
3709.00,0.0022
3708.00,0.0022
3707.00,0.0022
3706.00,0.0022
3705.00,0.0022
3704.00,0.0022
3703.00,0.0022
3702.00,0.0022
3701.00,0.0022
3700.00,0.0022
3699.00,0.0022
3698.00,0.0022
3697.00,0.0022
3696.00,0.0022
3695.00,0.0022
3694.00,0.0022
3693.00,0.0022
3692.00,0.0022
3691.00,0.0022
3690.00,0.0022
3689.00,0.0022
3688.00,0.0022
3687.00,0.0022
3686.00,0.0023
3685.00,0.0023
3684.00,0.0022
3683.00,0.0022
3682.00,0.0022
3681.00,0.0022
3680.00,0.0022
3679.00,0.0022
3678.00,0.0023
3677.00,0.0023
3676.00,0.0022
3675.00,0.0021
3674.00,0.0022
3673.00,0.0022
3672.00,0.0022
3671.00,0.0022
3670.00,0.0022
3669.00,0.0022
3668.00,0.0022
3667.00,0.0022
3666.00,0.0021
3665.00,0.0021
3664.00,0.0021
3663.00,0.0021
3662.00,0.0021
3661.00,0.0022
3660.00,0.0022
3659.00,0.0022
3658.00,0.0022
3657.00,0.0021
3656.00,0.0021
3655.00,0.0021
3654.00,0.0021
3653.00,0.0022
3652.00,0.0022
3651.00,0.0022
3650.00,0.0021
3649.00,0.0021
3648.00,0.0021
3647.00,0.0021
3646.00,0.0021
3645.00,0.0021
3644.00,0.0021
3643.00,0.0021
3642.00,0.0021
3641.00,0.0021
3640.00,0.0020
3639.00,0.0020
3638.00,0.0020
3637.00,0.0020
3636.00,0.0020
3635.00,0.0020
3634.00,0.0020
3633.00,0.0020
3632.00,0.0021
3631.00,0.0020
3630.00,0.0020
3629.00,0.0019
3628.00,0.0019
3627.00,0.0020
3626.00,0.0020
3625.00,0.0021
3624.00,0.0021
3623.00,0.0021
3622.00,0.0021
3621.00,0.0021
3620.00,0.0021
3619.00,0.0021
3618.00,0.0021
3617.00,0.0021
3616.00,0.0021
3615.00,0.0020
3614.00,0.0020
3613.00,0.0020
3612.00,0.0021
3611.00,0.0021
3610.00,0.0021
3609.00,0.0021
3608.00,0.0021
3607.00,0.0020
3606.00,0.0020
3605.00,0.0020
3604.00,0.0020
3603.00,0.0019
3602.00,0.0019
3601.00,0.0019
3600.00,0.0019
3599.00,0.0020
3598.00,0.0020
3597.00,0.0020
3596.00,0.0020
3595.00,0.0020
3594.00,0.0020
3593.00,0.0020
3592.00,0.0020
3591.00,0.0020
3590.00,0.0020
3589.00,0.0020
3588.00,0.0020
3587.00,0.0019
3586.00,0.0019
3585.00,0.0019
3584.00,0.0019
3583.00,0.0019
3582.00,0.0019
3581.00,0.0019
3580.00,0.0019
3579.00,0.0019
3578.00,0.0019
3577.00,0.0019
3576.00,0.0019
3575.00,0.0019
3574.00,0.0019
3573.00,0.0019
3572.00,0.0019
3571.00,0.0019
3570.00,0.0019
3569.00,0.0020
3568.00,0.0020
3567.00,0.0020
3566.00,0.0020
3565.00,0.0020
3564.00,0.0020
3563.00,0.0020
3562.00,0.0020
3561.00,0.0020
3560.00,0.0021
3559.00,0.0021
3558.00,0.0021
3557.00,0.0021
3556.00,0.0021
3555.00,0.0021
3554.00,0.0021
3553.00,0.0021
3552.00,0.0021
3551.00,0.0021
3550.00,0.0021
3549.00,0.0021
3548.00,0.0021
3547.00,0.0021
3546.00,0.0021
3545.00,0.0021
3544.00,0.0021
3543.00,0.0021
3542.00,0.0022
3541.00,0.0022
3540.00,0.0022
3539.00,0.0023
3538.00,0.0023
3537.00,0.0023
3536.00,0.0023
3535.00,0.0023
3534.00,0.0023
3533.00,0.0023
3532.00,0.0024
3531.00,0.0024
3530.00,0.0024
3529.00,0.0024
3528.00,0.0024
3527.00,0.0025
3526.00,0.0025
3525.00,0.0025
3524.00,0.0025
3523.00,0.0025
3522.00,0.0025
3521.00,0.0025
3520.00,0.0026
3519.00,0.0026
3518.00,0.0026
3517.00,0.0026
3516.00,0.0026
3515.00,0.0026
3514.00,0.0026
3513.00,0.0027
3512.00,0.0027
3511.00,0.0027
3510.00,0.0027
3509.00,0.0028
3508.00,0.0028
3507.00,0.0028
3506.00,0.0029
3505.00,0.0029
3504.00,0.0029
3503.00,0.0029
3502.00,0.0029
3501.00,0.0029
3500.00,0.0029
3499.00,0.0030
3498.00,0.0030
3497.00,0.0031
3496.00,0.0031
3495.00,0.0031
3494.00,0.0031
3493.00,0.0031
3492.00,0.0032
3491.00,0.0032
3490.00,0.0032
3489.00,0.0033
3488.00,0.0033
3487.00,0.0034
3486.00,0.0034
3485.00,0.0034
3484.00,0.0035
3483.00,0.0035
3482.00,0.0036
3481.00,0.0036
3480.00,0.0036
3479.00,0.0037
3478.00,0.0037
3477.00,0.0038
3476.00,0.0038
3475.00,0.0038
3474.00,0.0038
3473.00,0.0039
3472.00,0.0039
3471.00,0.0040
3470.00,0.0041
3469.00,0.0041
3468.00,0.0042
3467.00,0.0043
3466.00,0.0043
3465.00,0.0044
3464.00,0.0045
3463.00,0.0045
3462.00,0.0045
3461.00,0.0046
3460.00,0.0046
3459.00,0.0047
3458.00,0.0047
3457.00,0.0048
3456.00,0.0049
3455.00,0.0050
3454.00,0.0051
3453.00,0.0051
3452.00,0.0052
3451.00,0.0053
3450.00,0.0054
3449.00,0.0054
3448.00,0.0055
3447.00,0.0056
3446.00,0.0057
3445.00,0.0057
3444.00,0.0058
3443.00,0.0059
3442.00,0.0060
3441.00,0.0061
3440.00,0.0062
3439.00,0.0063
3438.00,0.0064
3437.00,0.0064
3436.00,0.0065
3435.00,0.0066
3434.00,0.0067
3433.00,0.0068
3432.00,0.0069
3431.00,0.0070
3430.00,0.0072
3429.00,0.0073
3428.00,0.0074
3427.00,0.0075
3426.00,0.0076
3425.00,0.0078
3424.00,0.0079
3423.00,0.0080
3422.00,0.0081
3421.00,0.0083
3420.00,0.0084
3419.00,0.0085
3418.00,0.0087
3417.00,0.0088
3416.00,0.0089
3415.00,0.0089
3414.00,0.0090
3413.00,0.0091
3412.00,0.0093
3411.00,0.0094
3410.00,0.0095
3409.00,0.0096
3408.00,0.0097
3407.00,0.0098
3406.00,0.0098
3405.00,0.0099
3404.00,0.0100
3403.00,0.0100
3402.00,0.0101
3401.00,0.0101
3400.00,0.0101
3399.00,0.0101
3398.00,0.0101
3397.00,0.0101
3396.00,0.0101
3395.00,0.0101
3394.00,0.0101
3393.00,0.0101
3392.00,0.0101
3391.00,0.0100
3390.00,0.0100
3389.00,0.0100
3388.00,0.0099
3387.00,0.0098
3386.00,0.0097
3385.00,0.0097
3384.00,0.0096
3383.00,0.0096
3382.00,0.0095
3381.00,0.0094
3380.00,0.0093
3379.00,0.0092
3378.00,0.0091
3377.00,0.0091
3376.00,0.0090
3375.00,0.0089
3374.00,0.0089
3373.00,0.0088
3372.00,0.0088
3371.00,0.0087
3370.00,0.0087
3369.00,0.0086
3368.00,0.0086
3367.00,0.0085
3366.00,0.0084
3365.00,0.0084
3364.00,0.0083
3363.00,0.0082
3362.00,0.0082
3361.00,0.0081
3360.00,0.0081
3359.00,0.0081
3358.00,0.0080
3357.00,0.0080
3356.00,0.0079
3355.00,0.0079
3354.00,0.0078
3353.00,0.0078
3352.00,0.0078
3351.00,0.0077
3350.00,0.0077
3349.00,0.0077
3348.00,0.0076
3347.00,0.0076
3346.00,0.0076
3345.00,0.0075
3344.00,0.0075
3343.00,0.0075
3342.00,0.0075
3341.00,0.0075
3340.00,0.0075
3339.00,0.0074
3338.00,0.0074
3337.00,0.0074
3336.00,0.0074
3335.00,0.0074
3334.00,0.0074
3333.00,0.0074
3332.00,0.0074
3331.00,0.0075
3330.00,0.0074
3329.00,0.0074
3328.00,0.0074
3327.00,0.0074
3326.00,0.0074
3325.00,0.0074
3324.00,0.0074
3323.00,0.0074
3322.00,0.0075
3321.00,0.0075
3320.00,0.0075
3319.00,0.0075
3318.00,0.0075
3317.00,0.0075
3316.00,0.0075
3315.00,0.0076
3314.00,0.0076
3313.00,0.0076
3312.00,0.0077
3311.00,0.0077
3310.00,0.0077
3309.00,0.0078
3308.00,0.0078
3307.00,0.0079
3306.00,0.0079
3305.00,0.0080
3304.00,0.0080
3303.00,0.0080
3302.00,0.0080
3301.00,0.0080
3300.00,0.0081
3299.00,0.0081
3298.00,0.0082
3297.00,0.0082
3296.00,0.0082
3295.00,0.0083
3294.00,0.0083
3293.00,0.0084
3292.00,0.0084
3291.00,0.0084
3290.00,0.0085
3289.00,0.0085
3288.00,0.0086
3287.00,0.0086
3286.00,0.0087
3285.00,0.0087
3284.00,0.0088
3283.00,0.0089
3282.00,0.0089
3281.00,0.0090
3280.00,0.0090
3279.00,0.0091
3278.00,0.0091
3277.00,0.0091
3276.00,0.0092
3275.00,0.0093
3274.00,0.0093
3273.00,0.0094
3272.00,0.0094
3271.00,0.0095
3270.00,0.0096
3269.00,0.0096
3268.00,0.0096
3267.00,0.0097
3266.00,0.0097
3265.00,0.0098
3264.00,0.0098
3263.00,0.0099
3262.00,0.0100
3261.00,0.0100
3260.00,0.0101
3259.00,0.0101
3258.00,0.0102
3257.00,0.0103
3256.00,0.0103
3255.00,0.0104
3254.00,0.0105
3253.00,0.0105
3252.00,0.0106
3251.00,0.0106
3250.00,0.0106
3249.00,0.0107
3248.00,0.0107
3247.00,0.0107
3246.00,0.0108
3245.00,0.0108
3244.00,0.0109
3243.00,0.0110
3242.00,0.0110
3241.00,0.0111
3240.00,0.0111
3239.00,0.0111
3238.00,0.0111
3237.00,0.0111
3236.00,0.0111
3235.00,0.0111
3234.00,0.0111
3233.00,0.0111
3232.00,0.0112
3231.00,0.0112
3230.00,0.0112
3229.00,0.0112
3228.00,0.0112
3227.00,0.0113
3226.00,0.0113
3225.00,0.0113
3224.00,0.0113
3223.00,0.0113
3222.00,0.0113
3221.00,0.0113
3220.00,0.0112
3219.00,0.0112
3218.00,0.0112
3217.00,0.0111
3216.00,0.0111
3215.00,0.0111
3214.00,0.0110
3213.00,0.0110
3212.00,0.0110
3211.00,0.0109
3210.00,0.0109
3209.00,0.0108
3208.00,0.0108
3207.00,0.0107
3206.00,0.0107
3205.00,0.0106
3204.00,0.0106
3203.00,0.0106
3202.00,0.0105
3201.00,0.0105
3200.00,0.0105
3199.00,0.0104
3198.00,0.0103
3197.00,0.0103
3196.00,0.0102
3195.00,0.0101
3194.00,0.0100
3193.00,0.0099
3192.00,0.0098
3191.00,0.0098
3190.00,0.0097
3189.00,0.0096
3188.00,0.0096
3187.00,0.0096
3186.00,0.0095
3185.00,0.0095
3184.00,0.0094
3183.00,0.0093
3182.00,0.0093
3181.00,0.0092
3180.00,0.0092
3179.00,0.0091
3178.00,0.0091
3177.00,0.0090
3176.00,0.0089
3175.00,0.0088
3174.00,0.0088
3173.00,0.0087
3172.00,0.0086
3171.00,0.0086
3170.00,0.0085
3169.00,0.0084
3168.00,0.0083
3167.00,0.0083
3166.00,0.0082
3165.00,0.0081
3164.00,0.0081
3163.00,0.0080
3162.00,0.0079
3161.00,0.0078
3160.00,0.0077
3159.00,0.0077
3158.00,0.0076
3157.00,0.0075
3156.00,0.0074
3155.00,0.0073
3154.00,0.0072
3153.00,0.0071
3152.00,0.0071
3151.00,0.0070
3150.00,0.0070
3149.00,0.0070
3148.00,0.0069
3147.00,0.0069
3146.00,0.0068
3145.00,0.0067
3144.00,0.0066
3143.00,0.0066
3142.00,0.0065
3141.00,0.0065
3140.00,0.0064
3139.00,0.0064
3138.00,0.0064
3137.00,0.0063
3136.00,0.0063
3135.00,0.0062
3134.00,0.0062
3133.00,0.0061
3132.00,0.0061
3131.00,0.0060
3130.00,0.0060
3129.00,0.0059
3128.00,0.0059
3127.00,0.0059
3126.00,0.0059
3125.00,0.0058
3124.00,0.0057
3123.00,0.0057
3122.00,0.0057
3121.00,0.0056
3120.00,0.0056
3119.00,0.0056
3118.00,0.0055
3117.00,0.0055
3116.00,0.0055
3115.00,0.0054
3114.00,0.0054
3113.00,0.0053
3112.00,0.0052
3111.00,0.0052
3110.00,0.0052
3109.00,0.0051
3108.00,0.0051
3107.00,0.0050
3106.00,0.0050
3105.00,0.0050
3104.00,0.0050
3103.00,0.0049
3102.00,0.0049
3101.00,0.0049
3100.00,0.0048
3099.00,0.0048
3098.00,0.0048
3097.00,0.0048
3096.00,0.0048
3095.00,0.0048
3094.00,0.0048
3093.00,0.0048
3092.00,0.0048
3091.00,0.0048
3090.00,0.0048
3089.00,0.0048
3088.00,0.0049
3087.00,0.0049
3086.00,0.0049
3085.00,0.0049
3084.00,0.0049
3083.00,0.0049
3082.00,0.0049
3081.00,0.0049
3080.00,0.0049
3079.00,0.0049
3078.00,0.0048
3077.00,0.0048
3076.00,0.0048
3075.00,0.0047
3074.00,0.0047
3073.00,0.0047
3072.00,0.0047
3071.00,0.0047
3070.00,0.0047
3069.00,0.0047
3068.00,0.0047
3067.00,0.0047
3066.00,0.0047
3065.00,0.0047
3064.00,0.0047
3063.00,0.0047
3062.00,0.0047
3061.00,0.0047
3060.00,0.0047
3059.00,0.0047
3058.00,0.0047
3057.00,0.0047
3056.00,0.0047
3055.00,0.0047
3054.00,0.0047
3053.00,0.0047
3052.00,0.0047
3051.00,0.0047
3050.00,0.0047
3049.00,0.0047
3048.00,0.0047
3047.00,0.0047
3046.00,0.0047
3045.00,0.0047
3044.00,0.0046
3043.00,0.0046
3042.00,0.0046
3041.00,0.0047
3040.00,0.0047
3039.00,0.0047
3038.00,0.0048
3037.00,0.0049
3036.00,0.0049
3035.00,0.0050
3034.00,0.0050
3033.00,0.0050
3032.00,0.0050
3031.00,0.0050
3030.00,0.0050
3029.00,0.0049
3028.00,0.0049
3027.00,0.0048
3026.00,0.0047
3025.00,0.0047
3024.00,0.0046
3023.00,0.0046
3022.00,0.0045
3021.00,0.0045
3020.00,0.0044
3019.00,0.0044
3018.00,0.0044
3017.00,0.0043
3016.00,0.0043
3015.00,0.0043
3014.00,0.0043
3013.00,0.0043
3012.00,0.0043
3011.00,0.0044
3010.00,0.0044
3009.00,0.0044
3008.00,0.0045
3007.00,0.0045
3006.00,0.0046
3005.00,0.0047
3004.00,0.0048
3003.00,0.0049
3002.00,0.0050
3001.00,0.0051
3000.00,0.0053
2999.00,0.0055
2998.00,0.0057
2997.00,0.0059
2996.00,0.0061
2995.00,0.0063
2994.00,0.0065
2993.00,0.0066
2992.00,0.0067
2991.00,0.0068
2990.00,0.0070
2989.00,0.0071
2988.00,0.0072
2987.00,0.0073
2986.00,0.0075
2985.00,0.0078
2984.00,0.0081
2983.00,0.0085
2982.00,0.0089
2981.00,0.0093
2980.00,0.0097
2979.00,0.0099
2978.00,0.0101
2977.00,0.0103
2976.00,0.0105
2975.00,0.0107
2974.00,0.0111
2973.00,0.0116
2972.00,0.0121
2971.00,0.0126
2970.00,0.0130
2969.00,0.0134
2968.00,0.0136
2967.00,0.0138
2966.00,0.0140
2965.00,0.0143
2964.00,0.0146
2963.00,0.0149
2962.00,0.0151
2961.00,0.0153
2960.00,0.0153
2959.00,0.0152
2958.00,0.0149
2957.00,0.0146
2956.00,0.0142
2955.00,0.0137
2954.00,0.0132
2953.00,0.0128
2952.00,0.0124
2951.00,0.0121
2950.00,0.0119
2949.00,0.0117
2948.00,0.0117
2947.00,0.0118
2946.00,0.0120
2945.00,0.0122
2944.00,0.0126
2943.00,0.0129
2942.00,0.0134
2941.00,0.0139
2940.00,0.0145
2939.00,0.0151
2938.00,0.0159
2937.00,0.0167
2936.00,0.0177
2935.00,0.0187
2934.00,0.0198
2933.00,0.0209
2932.00,0.0220
2931.00,0.0230
2930.00,0.0240
2929.00,0.0248
2928.00,0.0254
2927.00,0.0258
2926.00,0.0258
2925.00,0.0257
2924.00,0.0253
2923.00,0.0248
2922.00,0.0241
2921.00,0.0234
2920.00,0.0227
2919.00,0.0219
2918.00,0.0211
2917.00,0.0204
2916.00,0.0196
2915.00,0.0189
2914.00,0.0182
2913.00,0.0175
2912.00,0.0170
2911.00,0.0164
2910.00,0.0159
2909.00,0.0154
2908.00,0.0150
2907.00,0.0145
2906.00,0.0142
2905.00,0.0138
2904.00,0.0135
2903.00,0.0131
2902.00,0.0128
2901.00,0.0125
2900.00,0.0122
2899.00,0.0120
2898.00,0.0117
2897.00,0.0114
2896.00,0.0112
2895.00,0.0109
2894.00,0.0107
2893.00,0.0105
2892.00,0.0103
2891.00,0.0102
2890.00,0.0100
2889.00,0.0099
2888.00,0.0097
2887.00,0.0096
2886.00,0.0095
2885.00,0.0095
2884.00,0.0094
2883.00,0.0094
2882.00,0.0095
2881.00,0.0096
2880.00,0.0097
2879.00,0.0100
2878.00,0.0103
2877.00,0.0106
2876.00,0.0110
2875.00,0.0114
2874.00,0.0117
2873.00,0.0119
2872.00,0.0120
2871.00,0.0121
2870.00,0.0120
2869.00,0.0120
2868.00,0.0120
2867.00,0.0120
2866.00,0.0122
2865.00,0.0125
2864.00,0.0130
2863.00,0.0136
2862.00,0.0143
2861.00,0.0152
2860.00,0.0161
2859.00,0.0169
2858.00,0.0176
2857.00,0.0181
2856.00,0.0184
2855.00,0.0186
2854.00,0.0186
2853.00,0.0185
2852.00,0.0182
2851.00,0.0177
2850.00,0.0170
2849.00,0.0161
2848.00,0.0151
2847.00,0.0142
2846.00,0.0133
2845.00,0.0124
2844.00,0.0116
2843.00,0.0109
2842.00,0.0102
2841.00,0.0097
2840.00,0.0092
2839.00,0.0087
2838.00,0.0084
2837.00,0.0081
2836.00,0.0078
2835.00,0.0076
2834.00,0.0074
2833.00,0.0072
2832.00,0.0070
2831.00,0.0068
2830.00,0.0067
2829.00,0.0065
2828.00,0.0064
2827.00,0.0063
2826.00,0.0062
2825.00,0.0061
2824.00,0.0060
2823.00,0.0059
2822.00,0.0058
2821.00,0.0057
2820.00,0.0056
2819.00,0.0056
2818.00,0.0055
2817.00,0.0054
2816.00,0.0054
2815.00,0.0053
2814.00,0.0053
2813.00,0.0052
2812.00,0.0052
2811.00,0.0051
2810.00,0.0051
2809.00,0.0051
2808.00,0.0050
2807.00,0.0050
2806.00,0.0050
2805.00,0.0049
2804.00,0.0049
2803.00,0.0049
2802.00,0.0049
2801.00,0.0049
2800.00,0.0048
2799.00,0.0048
2798.00,0.0047
2797.00,0.0047
2796.00,0.0047
2795.00,0.0047
2794.00,0.0047
2793.00,0.0047
2792.00,0.0046
2791.00,0.0046
2790.00,0.0045
2789.00,0.0045
2788.00,0.0044
2787.00,0.0044
2786.00,0.0044
2785.00,0.0044
2784.00,0.0043
2783.00,0.0043
2782.00,0.0043
2781.00,0.0042
2780.00,0.0042
2779.00,0.0042
2778.00,0.0042
2777.00,0.0042
2776.00,0.0042
2775.00,0.0042
2774.00,0.0042
2773.00,0.0042
2772.00,0.0041
2771.00,0.0041
2770.00,0.0041
2769.00,0.0041
2768.00,0.0041
2767.00,0.0041
2766.00,0.0041
2765.00,0.0041
2764.00,0.0041
2763.00,0.0041
2762.00,0.0041
2761.00,0.0041
2760.00,0.0041
2759.00,0.0041
2758.00,0.0041
2757.00,0.0041
2756.00,0.0041
2755.00,0.0041
2754.00,0.0041
2753.00,0.0041
2752.00,0.0041
2751.00,0.0041
2750.00,0.0041
2749.00,0.0041
2748.00,0.0041
2747.00,0.0041
2746.00,0.0041
2745.00,0.0041
2744.00,0.0041
2743.00,0.0042
2742.00,0.0042
2741.00,0.0042
2740.00,0.0042
2739.00,0.0042
2738.00,0.0043
2737.00,0.0043
2736.00,0.0043
2735.00,0.0044
2734.00,0.0044
2733.00,0.0045
2732.00,0.0045
2731.00,0.0045
2730.00,0.0045
2729.00,0.0045
2728.00,0.0045
2727.00,0.0045
2726.00,0.0044
2725.00,0.0044
2724.00,0.0044
2723.00,0.0044
2722.00,0.0043
2721.00,0.0043
2720.00,0.0043
2719.00,0.0043
2718.00,0.0043
2717.00,0.0043
2716.00,0.0043
2715.00,0.0042
2714.00,0.0042
2713.00,0.0042
2712.00,0.0042
2711.00,0.0042
2710.00,0.0042
2709.00,0.0042
2708.00,0.0042
2707.00,0.0042
2706.00,0.0042
2705.00,0.0042
2704.00,0.0042
2703.00,0.0042
2702.00,0.0041
2701.00,0.0041
2700.00,0.0041
2699.00,0.0041
2698.00,0.0041
2697.00,0.0041
2696.00,0.0041
2695.00,0.0041
2694.00,0.0041
2693.00,0.0040
2692.00,0.0040
2691.00,0.0040
2690.00,0.0040
2689.00,0.0040
2688.00,0.0040
2687.00,0.0040
2686.00,0.0039
2685.00,0.0039
2684.00,0.0039
2683.00,0.0039
2682.00,0.0039
2681.00,0.0039
2680.00,0.0039
2679.00,0.0039
2678.00,0.0039
2677.00,0.0039
2676.00,0.0039
2675.00,0.0039
2674.00,0.0039
2673.00,0.0039
2672.00,0.0039
2671.00,0.0040
2670.00,0.0040
2669.00,0.0040
2668.00,0.0040
2667.00,0.0041
2666.00,0.0041
2665.00,0.0041
2664.00,0.0042
2663.00,0.0042
2662.00,0.0043
2661.00,0.0043
2660.00,0.0043
2659.00,0.0043
2658.00,0.0044
2657.00,0.0044
2656.00,0.0044
2655.00,0.0044
2654.00,0.0044
2653.00,0.0044
2652.00,0.0044
2651.00,0.0044
2650.00,0.0044
2649.00,0.0044
2648.00,0.0044
2647.00,0.0044
2646.00,0.0044
2645.00,0.0044
2644.00,0.0044
2643.00,0.0044
2642.00,0.0043
2641.00,0.0043
2640.00,0.0043
2639.00,0.0043
2638.00,0.0043
2637.00,0.0043
2636.00,0.0043
2635.00,0.0043
2634.00,0.0042
2633.00,0.0042
2632.00,0.0042
2631.00,0.0041
2630.00,0.0041
2629.00,0.0041
2628.00,0.0041
2627.00,0.0041
2626.00,0.0041
2625.00,0.0041
2624.00,0.0040
2623.00,0.0040
2622.00,0.0040
2621.00,0.0040
2620.00,0.0039
2619.00,0.0039
2618.00,0.0039
2617.00,0.0039
2616.00,0.0039
2615.00,0.0039
2614.00,0.0039
2613.00,0.0039
2612.00,0.0039
2611.00,0.0039
2610.00,0.0039
2609.00,0.0039
2608.00,0.0039
2607.00,0.0039
2606.00,0.0039
2605.00,0.0039
2604.00,0.0039
2603.00,0.0039
2602.00,0.0039
2601.00,0.0039
2600.00,0.0039
2599.00,0.0040
2598.00,0.0040
2597.00,0.0040
2596.00,0.0040
2595.00,0.0039
2594.00,0.0039
2593.00,0.0038
2592.00,0.0038
2591.00,0.0039
2590.00,0.0039
2589.00,0.0039
2588.00,0.0040
2587.00,0.0040
2586.00,0.0040
2585.00,0.0040
2584.00,0.0039
2583.00,0.0039
2582.00,0.0038
2581.00,0.0038
2580.00,0.0038
2579.00,0.0038
2578.00,0.0038
2577.00,0.0039
2576.00,0.0039
2575.00,0.0039
2574.00,0.0038
2573.00,0.0038
2572.00,0.0038
2571.00,0.0037
2570.00,0.0037
2569.00,0.0037
2568.00,0.0037
2567.00,0.0037
2566.00,0.0037
2565.00,0.0037
2564.00,0.0037
2563.00,0.0037
2562.00,0.0037
2561.00,0.0037
2560.00,0.0037
2559.00,0.0037
2558.00,0.0036
2557.00,0.0036
2556.00,0.0035
2555.00,0.0035
2554.00,0.0035
2553.00,0.0035
2552.00,0.0035
2551.00,0.0035
2550.00,0.0035
2549.00,0.0035
2548.00,0.0035
2547.00,0.0035
2546.00,0.0035
2545.00,0.0035
2544.00,0.0035
2543.00,0.0035
2542.00,0.0035
2541.00,0.0035
2540.00,0.0035
2539.00,0.0035
2538.00,0.0035
2537.00,0.0035
2536.00,0.0036
2535.00,0.0036
2534.00,0.0036
2533.00,0.0035
2532.00,0.0035
2531.00,0.0035
2530.00,0.0035
2529.00,0.0035
2528.00,0.0035
2527.00,0.0035
2526.00,0.0035
2525.00,0.0034
2524.00,0.0034
2523.00,0.0033
2522.00,0.0033
2521.00,0.0033
2520.00,0.0033
2519.00,0.0032
2518.00,0.0032
2517.00,0.0032
2516.00,0.0033
2515.00,0.0033
2514.00,0.0033
2513.00,0.0033
2512.00,0.0033
2511.00,0.0033
2510.00,0.0032
2509.00,0.0032
2508.00,0.0032
2507.00,0.0032
2506.00,0.0032
2505.00,0.0032
2504.00,0.0032
2503.00,0.0032
2502.00,0.0032
2501.00,0.0032
2500.00,0.0031
2499.00,0.0031
2498.00,0.0031
2497.00,0.0031
2496.00,0.0031
2495.00,0.0031
2494.00,0.0031
2493.00,0.0031
2492.00,0.0031
2491.00,0.0031
2490.00,0.0031
2489.00,0.0031
2488.00,0.0031
2487.00,0.0031
2486.00,0.0031
2485.00,0.0031
2484.00,0.0031
2483.00,0.0031
2482.00,0.0031
2481.00,0.0031
2480.00,0.0031
2479.00,0.0030
2478.00,0.0030
2477.00,0.0030
2476.00,0.0030
2475.00,0.0030
2474.00,0.0030
2473.00,0.0030
2472.00,0.0030
2471.00,0.0030
2470.00,0.0030
2469.00,0.0030
2468.00,0.0030
2467.00,0.0030
2466.00,0.0030
2465.00,0.0030
2464.00,0.0030
2463.00,0.0030
2462.00,0.0031
2461.00,0.0031
2460.00,0.0032
2459.00,0.0032
2458.00,0.0032
2457.00,0.0032
2456.00,0.0031
2455.00,0.0031
2454.00,0.0031
2453.00,0.0031
2452.00,0.0031
2451.00,0.0031
2450.00,0.0030
2449.00,0.0030
2448.00,0.0030
2447.00,0.0030
2446.00,0.0030
2445.00,0.0030
2444.00,0.0030
2443.00,0.0029
2442.00,0.0029
2441.00,0.0029
2440.00,0.0029
2439.00,0.0029
2438.00,0.0029
2437.00,0.0029
2436.00,0.0029
2435.00,0.0029
2434.00,0.0029
2433.00,0.0029
2432.00,0.0029
2431.00,0.0029
2430.00,0.0029
2429.00,0.0029
2428.00,0.0028
2427.00,0.0028
2426.00,0.0028
2425.00,0.0028
2424.00,0.0028
2423.00,0.0029
2422.00,0.0029
2421.00,0.0029
2420.00,0.0029
2419.00,0.0028
2418.00,0.0028
2417.00,0.0028
2416.00,0.0028
2415.00,0.0028
2414.00,0.0028
2413.00,0.0028
2412.00,0.0028
2411.00,0.0029
2410.00,0.0029
2409.00,0.0028
2408.00,0.0027
2407.00,0.0027
2406.00,0.0026
2405.00,0.0026
2404.00,0.0027
2403.00,0.0027
2402.00,0.0027
2401.00,0.0027
2400.00,0.0027
2399.00,0.0027
2398.00,0.0027
2397.00,0.0027
2396.00,0.0026
2395.00,0.0026
2394.00,0.0026
2393.00,0.0026
2392.00,0.0026
2391.00,0.0026
2390.00,0.0026
2389.00,0.0026
2388.00,0.0026
2387.00,0.0026
2386.00,0.0026
2385.00,0.0025
2384.00,0.0025
2383.00,0.0024
2382.00,0.0023
2381.00,0.0022
2380.00,0.0021
2379.00,0.0021
2378.00,0.0020
2377.00,0.0020
2376.00,0.0020
2375.00,0.0020
2374.00,0.0020
2373.00,0.0020
2372.00,0.0021
2371.00,0.0021
2370.00,0.0020
2369.00,0.0020
2368.00,0.0019
2367.00,0.0019
2366.00,0.0019
2365.00,0.0020
2364.00,0.0020
2363.00,0.0021
2362.00,0.0020
2361.00,0.0020
2360.00,0.0020
2359.00,0.0020
2358.00,0.0019
2357.00,0.0019
2356.00,0.0020
2355.00,0.0020
2354.00,0.0021
2353.00,0.0021
2352.00,0.0021
2351.00,0.0021
2350.00,0.0020
2349.00,0.0021
2348.00,0.0021
2347.00,0.0022
2346.00,0.0022
2345.00,0.0023
2344.00,0.0022
2343.00,0.0022
2342.00,0.0022
2341.00,0.0022
2340.00,0.0023
2339.00,0.0023
2338.00,0.0024
2337.00,0.0024
2336.00,0.0024
2335.00,0.0024
2334.00,0.0025
2333.00,0.0025
2332.00,0.0025
2331.00,0.0025
2330.00,0.0025
2329.00,0.0026
2328.00,0.0029
2327.00,0.0032
2326.00,0.0035
2325.00,0.0036
2324.00,0.0036
2323.00,0.0034
2322.00,0.0032
2321.00,0.0030
2320.00,0.0029
2319.00,0.0029
2318.00,0.0028
2317.00,0.0028
2316.00,0.0028
2315.00,0.0028
2314.00,0.0028
2313.00,0.0027
2312.00,0.0027
2311.00,0.0026
2310.00,0.0026
2309.00,0.0026
2308.00,0.0025
2307.00,0.0025
2306.00,0.0025
2305.00,0.0025
2304.00,0.0026
2303.00,0.0026
2302.00,0.0027
2301.00,0.0027
2300.00,0.0028
2299.00,0.0028
2298.00,0.0029
2297.00,0.0029
2296.00,0.0030
2295.00,0.0031
2294.00,0.0032
2293.00,0.0033
2292.00,0.0034
2291.00,0.0034
2290.00,0.0035
2289.00,0.0035
2288.00,0.0035
2287.00,0.0035
2286.00,0.0035
2285.00,0.0035
2284.00,0.0034
2283.00,0.0034
2282.00,0.0034
2281.00,0.0033
2280.00,0.0034
2279.00,0.0034
2278.00,0.0033
2277.00,0.0033
2276.00,0.0032
2275.00,0.0032
2274.00,0.0031
2273.00,0.0030
2272.00,0.0030
2271.00,0.0030
2270.00,0.0031
2269.00,0.0031
2268.00,0.0031
2267.00,0.0030
2266.00,0.0030
2265.00,0.0029
2264.00,0.0029
2263.00,0.0028
2262.00,0.0028
2261.00,0.0027
2260.00,0.0027
2259.00,0.0027
2258.00,0.0027
2257.00,0.0026
2256.00,0.0026
2255.00,0.0025
2254.00,0.0024
2253.00,0.0024
2252.00,0.0025
2251.00,0.0025
2250.00,0.0026
2249.00,0.0026
2248.00,0.0026
2247.00,0.0026
2246.00,0.0027
2245.00,0.0027
2244.00,0.0027
2243.00,0.0028
2242.00,0.0028
2241.00,0.0029
2240.00,0.0029
2239.00,0.0029
2238.00,0.0029
2237.00,0.0029
2236.00,0.0029
2235.00,0.0029
2234.00,0.0029
2233.00,0.0029
2232.00,0.0028
2231.00,0.0028
2230.00,0.0028
2229.00,0.0028
2228.00,0.0029
2227.00,0.0029
2226.00,0.0030
2225.00,0.0030
2224.00,0.0029
2223.00,0.0028
2222.00,0.0027
2221.00,0.0026
2220.00,0.0026
2219.00,0.0027
2218.00,0.0027
2217.00,0.0028
2216.00,0.0027
2215.00,0.0027
2214.00,0.0026
2213.00,0.0026
2212.00,0.0026
2211.00,0.0026
2210.00,0.0026
2209.00,0.0027
2208.00,0.0027
2207.00,0.0027
2206.00,0.0028
2205.00,0.0028
2204.00,0.0028
2203.00,0.0028
2202.00,0.0028
2201.00,0.0028
2200.00,0.0027
2199.00,0.0026
2198.00,0.0026
2197.00,0.0025
2196.00,0.0025
2195.00,0.0026
2194.00,0.0027
2193.00,0.0027
2192.00,0.0027
2191.00,0.0027
2190.00,0.0027
2189.00,0.0027
2188.00,0.0028
2187.00,0.0028
2186.00,0.0027
2185.00,0.0027
2184.00,0.0026
2183.00,0.0026
2182.00,0.0025
2181.00,0.0026
2180.00,0.0027
2179.00,0.0026
2178.00,0.0025
2177.00,0.0022
2176.00,0.0021
2175.00,0.0021
2174.00,0.0021
2173.00,0.0024
2172.00,0.0027
2171.00,0.0030
2170.00,0.0033
2169.00,0.0034
2168.00,0.0034
2167.00,0.0034
2166.00,0.0034
2165.00,0.0035
2164.00,0.0036
2163.00,0.0036
2162.00,0.0031
2161.00,0.0020
2160.00,0.0008
2159.00,-0.0001
2158.00,-0.0005
2157.00,-0.0004
2156.00,-0.0000
2155.00,0.0003
2154.00,0.0005
2153.00,0.0008
2152.00,0.0009
2151.00,0.0011
2150.00,0.0012
2149.00,0.0012
2148.00,0.0011
2147.00,0.0010
2146.00,0.0009
2145.00,0.0009
2144.00,0.0009
2143.00,0.0010
2142.00,0.0010
2141.00,0.0011
2140.00,0.0011
2139.00,0.0011
2138.00,0.0010
2137.00,0.0009
2136.00,0.0007
2135.00,0.0005
2134.00,0.0004
2133.00,0.0005
2132.00,0.0007
2131.00,0.0009
2130.00,0.0010
2129.00,0.0012
2128.00,0.0013
2127.00,0.0014
2126.00,0.0015
2125.00,0.0016
2124.00,0.0017
2123.00,0.0018
2122.00,0.0019
2121.00,0.0019
2120.00,0.0019
2119.00,0.0020
2118.00,0.0021
2117.00,0.0021
2116.00,0.0022
2115.00,0.0022
2114.00,0.0022
2113.00,0.0023
2112.00,0.0023
2111.00,0.0023
2110.00,0.0023
2109.00,0.0023
2108.00,0.0023
2107.00,0.0023
2106.00,0.0023
2105.00,0.0022
2104.00,0.0022
2103.00,0.0022
2102.00,0.0022
2101.00,0.0021
2100.00,0.0020
2099.00,0.0019
2098.00,0.0018
2097.00,0.0017
2096.00,0.0016
2095.00,0.0016
2094.00,0.0016
2093.00,0.0017
2092.00,0.0017
2091.00,0.0018
2090.00,0.0019
2089.00,0.0020
2088.00,0.0021
2087.00,0.0022
2086.00,0.0022
2085.00,0.0023
2084.00,0.0023
2083.00,0.0024
2082.00,0.0025
2081.00,0.0025
2080.00,0.0026
2079.00,0.0026
2078.00,0.0026
2077.00,0.0026
2076.00,0.0025
2075.00,0.0024
2074.00,0.0023
2073.00,0.0023
2072.00,0.0022
2071.00,0.0022
2070.00,0.0022
2069.00,0.0023
2068.00,0.0023
2067.00,0.0022
2066.00,0.0022
2065.00,0.0021
2064.00,0.0021
2063.00,0.0021
2062.00,0.0021
2061.00,0.0021
2060.00,0.0020
2059.00,0.0019
2058.00,0.0019
2057.00,0.0020
2056.00,0.0021
2055.00,0.0023
2054.00,0.0025
2053.00,0.0029
2052.00,0.0031
2051.00,0.0032
2050.00,0.0029
2049.00,0.0026
2048.00,0.0023
2047.00,0.0021
2046.00,0.0019
2045.00,0.0019
2044.00,0.0020
2043.00,0.0022
2042.00,0.0024
2041.00,0.0025
2040.00,0.0026
2039.00,0.0027
2038.00,0.0026
2037.00,0.0024
2036.00,0.0021
2035.00,0.0019
2034.00,0.0018
2033.00,0.0018
2032.00,0.0019
2031.00,0.0020
2030.00,0.0020
2029.00,0.0020
2028.00,0.0020
2027.00,0.0019
2026.00,0.0018
2025.00,0.0017
2024.00,0.0017
2023.00,0.0017
2022.00,0.0018
2021.00,0.0019
2020.00,0.0021
2019.00,0.0021
2018.00,0.0020
2017.00,0.0018
2016.00,0.0017
2015.00,0.0017
2014.00,0.0016
2013.00,0.0016
2012.00,0.0016
2011.00,0.0017
2010.00,0.0018
2009.00,0.0017
2008.00,0.0014
2007.00,0.0012
2006.00,0.0010
2005.00,0.0011
2004.00,0.0012
2003.00,0.0014
2002.00,0.0014
2001.00,0.0015
2000.00,0.0015
1999.00,0.0016
1998.00,0.0017
1997.00,0.0019
1996.00,0.0020
1995.00,0.0021
1994.00,0.0021
1993.00,0.0021
1992.00,0.0020
1991.00,0.0020
1990.00,0.0021
1989.00,0.0021
1988.00,0.0023
1987.00,0.0024
1986.00,0.0025
1985.00,0.0028
1984.00,0.0031
1983.00,0.0033
1982.00,0.0035
1981.00,0.0035
1980.00,0.0032
1979.00,0.0027
1978.00,0.0023
1977.00,0.0020
1976.00,0.0018
1975.00,0.0017
1974.00,0.0016
1973.00,0.0014
1972.00,0.0013
1971.00,0.0012
1970.00,0.0012
1969.00,0.0011
1968.00,0.0011
1967.00,0.0012
1966.00,0.0012
1965.00,0.0013
1964.00,0.0013
1963.00,0.0014
1962.00,0.0013
1961.00,0.0012
1960.00,0.0011
1959.00,0.0010
1958.00,0.0011
1957.00,0.0013
1956.00,0.0015
1955.00,0.0017
1954.00,0.0017
1953.00,0.0018
1952.00,0.0018
1951.00,0.0017
1950.00,0.0016
1949.00,0.0015
1948.00,0.0015
1947.00,0.0015
1946.00,0.0015
1945.00,0.0015
1944.00,0.0015
1943.00,0.0015
1942.00,0.0015
1941.00,0.0016
1940.00,0.0017
1939.00,0.0017
1938.00,0.0018
1937.00,0.0018
1936.00,0.0018
1935.00,0.0017
1934.00,0.0017
1933.00,0.0017
1932.00,0.0017
1931.00,0.0017
1930.00,0.0017
1929.00,0.0017
1928.00,0.0018
1927.00,0.0018
1926.00,0.0019
1925.00,0.0019
1924.00,0.0019
1923.00,0.0019
1922.00,0.0020
1921.00,0.0020
1920.00,0.0020
1919.00,0.0020
1918.00,0.0020
1917.00,0.0020
1916.00,0.0020
1915.00,0.0020
1914.00,0.0021
1913.00,0.0022
1912.00,0.0023
1911.00,0.0024
1910.00,0.0025
1909.00,0.0027
1908.00,0.0027
1907.00,0.0027
1906.00,0.0027
1905.00,0.0026
1904.00,0.0025
1903.00,0.0024
1902.00,0.0023
1901.00,0.0022
1900.00,0.0022
1899.00,0.0022
1898.00,0.0022
1897.00,0.0023
1896.00,0.0024
1895.00,0.0024
1894.00,0.0024
1893.00,0.0024
1892.00,0.0024
1891.00,0.0023
1890.00,0.0023
1889.00,0.0023
1888.00,0.0022
1887.00,0.0022
1886.00,0.0022
1885.00,0.0021
1884.00,0.0021
1883.00,0.0021
1882.00,0.0022
1881.00,0.0022
1880.00,0.0022
1879.00,0.0022
1878.00,0.0022
1877.00,0.0021
1876.00,0.0021
1875.00,0.0021
1874.00,0.0020
1873.00,0.0020
1872.00,0.0020
1871.00,0.0020
1870.00,0.0020
1869.00,0.0020
1868.00,0.0021
1867.00,0.0021
1866.00,0.0021
1865.00,0.0021
1864.00,0.0021
1863.00,0.0021
1862.00,0.0021
1861.00,0.0021
1860.00,0.0021
1859.00,0.0022
1858.00,0.0022
1857.00,0.0022
1856.00,0.0022
1855.00,0.0022
1854.00,0.0022
1853.00,0.0022
1852.00,0.0022
1851.00,0.0022
1850.00,0.0023
1849.00,0.0023
1848.00,0.0023
1847.00,0.0023
1846.00,0.0023
1845.00,0.0023
1844.00,0.0024
1843.00,0.0024
1842.00,0.0024
1841.00,0.0023
1840.00,0.0022
1839.00,0.0022
1838.00,0.0022
1837.00,0.0022
1836.00,0.0022
1835.00,0.0022
1834.00,0.0022
1833.00,0.0021
1832.00,0.0021
1831.00,0.0021
1830.00,0.0021
1829.00,0.0022
1828.00,0.0022
1827.00,0.0022
1826.00,0.0022
1825.00,0.0022
1824.00,0.0023
1823.00,0.0023
1822.00,0.0023
1821.00,0.0022
1820.00,0.0022
1819.00,0.0021
1818.00,0.0020
1817.00,0.0020
1816.00,0.0020
1815.00,0.0021
1814.00,0.0021
1813.00,0.0022
1812.00,0.0022
1811.00,0.0022
1810.00,0.0022
1809.00,0.0022
1808.00,0.0022
1807.00,0.0023
1806.00,0.0023
1805.00,0.0023
1804.00,0.0023
1803.00,0.0023
1802.00,0.0023
1801.00,0.0023
1800.00,0.0024
1799.00,0.0024
1798.00,0.0025
1797.00,0.0024
1796.00,0.0024
1795.00,0.0024
1794.00,0.0024
1793.00,0.0024
1792.00,0.0025
1791.00,0.0025
1790.00,0.0025
1789.00,0.0025
1788.00,0.0025
1787.00,0.0025
1786.00,0.0025
1785.00,0.0025
1784.00,0.0025
1783.00,0.0024
1782.00,0.0024
1781.00,0.0024
1780.00,0.0024
1779.00,0.0025
1778.00,0.0025
1777.00,0.0025
1776.00,0.0025
1775.00,0.0025
1774.00,0.0025
1773.00,0.0025
1772.00,0.0026
1771.00,0.0026
1770.00,0.0026
1769.00,0.0026
1768.00,0.0026
1767.00,0.0026
1766.00,0.0026
1765.00,0.0026
1764.00,0.0026
1763.00,0.0026
1762.00,0.0026
1761.00,0.0027
1760.00,0.0027
1759.00,0.0026
1758.00,0.0026
1757.00,0.0025
1756.00,0.0025
1755.00,0.0025
1754.00,0.0025
1753.00,0.0024
1752.00,0.0024
1751.00,0.0024
1750.00,0.0024
1749.00,0.0024
1748.00,0.0024
1747.00,0.0024
1746.00,0.0024
1745.00,0.0024
1744.00,0.0024
1743.00,0.0024
1742.00,0.0024
1741.00,0.0025
1740.00,0.0025
1739.00,0.0025
1738.00,0.0025
1737.00,0.0025
1736.00,0.0024
1735.00,0.0024
1734.00,0.0025
1733.00,0.0026
1732.00,0.0026
1731.00,0.0026
1730.00,0.0026
1729.00,0.0026
1728.00,0.0027
1727.00,0.0028
1726.00,0.0028
1725.00,0.0029
1724.00,0.0029
1723.00,0.0029
1722.00,0.0029
1721.00,0.0029
1720.00,0.0029
1719.00,0.0028
1718.00,0.0029
1717.00,0.0029
1716.00,0.0030
1715.00,0.0031
1714.00,0.0031
1713.00,0.0032
1712.00,0.0032
1711.00,0.0033
1710.00,0.0033
1709.00,0.0034
1708.00,0.0035
1707.00,0.0035
1706.00,0.0036
1705.00,0.0036
1704.00,0.0037
1703.00,0.0039
1702.00,0.0040
1701.00,0.0041
1700.00,0.0042
1699.00,0.0046
1698.00,0.0047
1697.00,0.0047
1696.00,0.0049
1695.00,0.0052
1694.00,0.0056
1693.00,0.0058
1692.00,0.0060
1691.00,0.0062
1690.00,0.0064
1689.00,0.0066
1688.00,0.0068
1687.00,0.0069
1686.00,0.0071
1685.00,0.0071
1684.00,0.0071
1683.00,0.0070
1682.00,0.0070
1681.00,0.0070
1680.00,0.0071
1679.00,0.0071
1678.00,0.0072
1677.00,0.0072
1676.00,0.0072
1675.00,0.0071
1674.00,0.0070
1673.00,0.0070
1672.00,0.0069
1671.00,0.0068
1670.00,0.0066
1669.00,0.0064
1668.00,0.0064
1667.00,0.0063
1666.00,0.0064
1665.00,0.0064
1664.00,0.0064
1663.00,0.0063
1662.00,0.0062
1661.00,0.0062
1660.00,0.0062
1659.00,0.0062
1658.00,0.0062
1657.00,0.0063
1656.00,0.0065
1655.00,0.0065
1654.00,0.0063
1653.00,0.0058
1652.00,0.0055
1651.00,0.0055
1650.00,0.0056
1649.00,0.0057
1648.00,0.0057
1647.00,0.0055
1646.00,0.0053
1645.00,0.0053
1644.00,0.0054
1643.00,0.0055
1642.00,0.0056
1641.00,0.0058
1640.00,0.0059
1639.00,0.0060
1638.00,0.0061
1637.00,0.0063
1636.00,0.0065
1635.00,0.0070
1634.00,0.0077
1633.00,0.0085
1632.00,0.0096
1631.00,0.0109
1630.00,0.0128
1629.00,0.0151
1628.00,0.0180
1627.00,0.0208
1626.00,0.0234
1625.00,0.0257
1624.00,0.0279
1623.00,0.0299
1622.00,0.0311
1621.00,0.0315
1620.00,0.0313
1619.00,0.0307
1618.00,0.0295
1617.00,0.0277
1616.00,0.0260
1615.00,0.0249
1614.00,0.0244
1613.00,0.0245
1612.00,0.0248
1611.00,0.0251
1610.00,0.0251
1609.00,0.0245
1608.00,0.0235
1607.00,0.0222
1606.00,0.0207
1605.00,0.0191
1604.00,0.0176
1603.00,0.0162
1602.00,0.0149
1601.00,0.0138
1600.00,0.0130
1599.00,0.0123
1598.00,0.0118
1597.00,0.0116
1596.00,0.0115
1595.00,0.0117
1594.00,0.0122
1593.00,0.0130
1592.00,0.0141
1591.00,0.0156
1590.00,0.0173
1589.00,0.0192
1588.00,0.0211
1587.00,0.0229
1586.00,0.0244
1585.00,0.0255
1584.00,0.0262
1583.00,0.0264
1582.00,0.0263
1581.00,0.0258
1580.00,0.0251
1579.00,0.0243
1578.00,0.0234
1577.00,0.0222
1576.00,0.0209
1575.00,0.0196
1574.00,0.0186
1573.00,0.0179
1572.00,0.0173
1571.00,0.0168
1570.00,0.0164
1569.00,0.0160
1568.00,0.0155
1567.00,0.0149
1566.00,0.0142
1565.00,0.0133
1564.00,0.0124
1563.00,0.0116
1562.00,0.0109
1561.00,0.0102
1560.00,0.0096
1559.00,0.0090
1558.00,0.0084
1557.00,0.0081
1556.00,0.0077
1555.00,0.0074
1554.00,0.0072
1553.00,0.0071
1552.00,0.0069
1551.00,0.0067
1550.00,0.0066
1549.00,0.0064
1548.00,0.0064
1547.00,0.0063
1546.00,0.0062
1545.00,0.0061
1544.00,0.0061
1543.00,0.0059
1542.00,0.0059
1541.00,0.0058
1540.00,0.0058
1539.00,0.0058
1538.00,0.0058
1537.00,0.0057
1536.00,0.0055
1535.00,0.0054
1534.00,0.0054
1533.00,0.0054
1532.00,0.0054
1531.00,0.0054
1530.00,0.0054
1529.00,0.0054
1528.00,0.0054
1527.00,0.0054
1526.00,0.0055
1525.00,0.0055
1524.00,0.0055
1523.00,0.0056
1522.00,0.0057
1521.00,0.0060
1520.00,0.0062
1519.00,0.0064
1518.00,0.0066
1517.00,0.0069
1516.00,0.0072
1515.00,0.0075
1514.00,0.0077
1513.00,0.0080
1512.00,0.0082
1511.00,0.0084
1510.00,0.0084
1509.00,0.0084
1508.00,0.0084
1507.00,0.0085
1506.00,0.0087
1505.00,0.0089
1504.00,0.0091
1503.00,0.0093
1502.00,0.0096
1501.00,0.0103
1500.00,0.0114
1499.00,0.0129
1498.00,0.0147
1497.00,0.0163
1496.00,0.0172
1495.00,0.0173
1494.00,0.0167
1493.00,0.0156
1492.00,0.0144
1491.00,0.0131
1490.00,0.0119
1489.00,0.0107
1488.00,0.0098
1487.00,0.0091
1486.00,0.0086
1485.00,0.0082
1484.00,0.0079
1483.00,0.0076
1482.00,0.0074
1481.00,0.0072
1480.00,0.0071
1479.00,0.0071
1478.00,0.0071
1477.00,0.0071
1476.00,0.0072
1475.00,0.0074
1474.00,0.0076
1473.00,0.0082
1472.00,0.0092
1471.00,0.0104
1470.00,0.0117
1469.00,0.0132
1468.00,0.0146
1467.00,0.0160
1466.00,0.0169
1465.00,0.0173
1464.00,0.0172
1463.00,0.0169
1462.00,0.0168
1461.00,0.0167
1460.00,0.0169
1459.00,0.0170
1458.00,0.0171
1457.00,0.0170
1456.00,0.0166
1455.00,0.0162
1454.00,0.0158
1453.00,0.0155
1452.00,0.0154
1451.00,0.0155
1450.00,0.0156
1449.00,0.0158
1448.00,0.0161
1447.00,0.0165
1446.00,0.0169
1445.00,0.0175
1444.00,0.0182
1443.00,0.0189
1442.00,0.0197
1441.00,0.0203
1440.00,0.0209
1439.00,0.0215
1438.00,0.0220
1437.00,0.0228
1436.00,0.0236
1435.00,0.0244
1434.00,0.0251
1433.00,0.0259
1432.00,0.0266
1431.00,0.0273
1430.00,0.0277
1429.00,0.0279
1428.00,0.0278
1427.00,0.0275
1426.00,0.0271
1425.00,0.0266
1424.00,0.0260
1423.00,0.0254
1422.00,0.0249
1421.00,0.0244
1420.00,0.0239
1419.00,0.0232
1418.00,0.0224
1417.00,0.0216
1416.00,0.0210
1415.00,0.0205
1414.00,0.0201
1413.00,0.0200
1412.00,0.0200
1411.00,0.0202
1410.00,0.0208
1409.00,0.0215
1408.00,0.0226
1407.00,0.0238
1406.00,0.0254
1405.00,0.0273
1404.00,0.0291
1403.00,0.0307
1402.00,0.0319
1401.00,0.0327
1400.00,0.0331
1399.00,0.0330
1398.00,0.0322
1397.00,0.0310
1396.00,0.0294
1395.00,0.0275
1394.00,0.0256
1393.00,0.0239
1392.00,0.0225
1391.00,0.0214
1390.00,0.0209
1389.00,0.0208
1388.00,0.0213
1387.00,0.0218
1386.00,0.0218
1385.00,0.0214
1384.00,0.0206
1383.00,0.0199
1382.00,0.0195
1381.00,0.0195
1380.00,0.0196
1379.00,0.0197
1378.00,0.0196
1377.00,0.0193
1376.00,0.0186
1375.00,0.0176
1374.00,0.0165
1373.00,0.0155
1372.00,0.0149
1371.00,0.0148
1370.00,0.0152
1369.00,0.0161
1368.00,0.0175
1367.00,0.0191
1366.00,0.0204
1365.00,0.0214
1364.00,0.0221
1363.00,0.0230
1362.00,0.0243
1361.00,0.0258
1360.00,0.0268
1359.00,0.0269
1358.00,0.0259
1357.00,0.0244
1356.00,0.0228
1355.00,0.0216
1354.00,0.0207
1353.00,0.0201
1352.00,0.0198
1351.00,0.0197
1350.00,0.0197
1349.00,0.0198
1348.00,0.0199
1347.00,0.0199
1346.00,0.0198
1345.00,0.0194
1344.00,0.0189
1343.00,0.0183
1342.00,0.0175
1341.00,0.0167
1340.00,0.0159
1339.00,0.0151
1338.00,0.0145
1337.00,0.0141
1336.00,0.0140
1335.00,0.0141
1334.00,0.0144
1333.00,0.0147
1332.00,0.0150
1331.00,0.0153
1330.00,0.0154
1329.00,0.0155
1328.00,0.0154
1327.00,0.0152
1326.00,0.0149
1325.00,0.0145
1324.00,0.0142
1323.00,0.0140
1322.00,0.0138
1321.00,0.0136
1320.00,0.0135
1319.00,0.0133
1318.00,0.0130
1317.00,0.0127
1316.00,0.0124
1315.00,0.0121
1314.00,0.0119
1313.00,0.0119
1312.00,0.0120
1311.00,0.0123
1310.00,0.0127
1309.00,0.0134
1308.00,0.0142
1307.00,0.0152
1306.00,0.0164
1305.00,0.0180
1304.00,0.0197
1303.00,0.0214
1302.00,0.0228
1301.00,0.0237
1300.00,0.0239
1299.00,0.0235
1298.00,0.0229
1297.00,0.0223
1296.00,0.0218
1295.00,0.0216
1294.00,0.0214
1293.00,0.0212
1292.00,0.0210
1291.00,0.0208
1290.00,0.0207
1289.00,0.0210
1288.00,0.0217
1287.00,0.0227
1286.00,0.0238
1285.00,0.0250
1284.00,0.0258
1283.00,0.0261
1282.00,0.0259
1281.00,0.0250
1280.00,0.0237
1279.00,0.0221
1278.00,0.0205
1277.00,0.0190
1276.00,0.0178
1275.00,0.0168
1274.00,0.0160
1273.00,0.0154
1272.00,0.0148
1271.00,0.0144
1270.00,0.0140
1269.00,0.0136
1268.00,0.0134
1267.00,0.0132
1266.00,0.0131
1265.00,0.0129
1264.00,0.0126
1263.00,0.0123
1262.00,0.0120
1261.00,0.0117
1260.00,0.0114
1259.00,0.0111
1258.00,0.0109
1257.00,0.0107
1256.00,0.0106
1255.00,0.0106
1254.00,0.0107
1253.00,0.0108
1252.00,0.0110
1251.00,0.0114
1250.00,0.0120
1249.00,0.0128
1248.00,0.0137
1247.00,0.0147
1246.00,0.0158
1245.00,0.0169
1244.00,0.0178
1243.00,0.0186
1242.00,0.0192
1241.00,0.0197
1240.00,0.0204
1239.00,0.0211
1238.00,0.0221
1237.00,0.0233
1236.00,0.0246
1235.00,0.0256
1234.00,0.0263
1233.00,0.0265
1232.00,0.0261
1231.00,0.0253
1230.00,0.0241
1229.00,0.0228
1228.00,0.0215
1227.00,0.0204
1226.00,0.0194
1225.00,0.0186
1224.00,0.0179
1223.00,0.0174
1222.00,0.0171
1221.00,0.0170
1220.00,0.0171
1219.00,0.0174
1218.00,0.0179
1217.00,0.0185
1216.00,0.0191
1215.00,0.0196
1214.00,0.0198
1213.00,0.0196
1212.00,0.0190
1211.00,0.0181
1210.00,0.0170
1209.00,0.0160
1208.00,0.0151
1207.00,0.0145
1206.00,0.0142
1205.00,0.0143
1204.00,0.0147
1203.00,0.0155
1202.00,0.0167
1201.00,0.0181
1200.00,0.0197
1199.00,0.0215
1198.00,0.0235
1197.00,0.0255
1196.00,0.0272
1195.00,0.0285
1194.00,0.0291
1193.00,0.0289
1192.00,0.0279
1191.00,0.0265
1190.00,0.0248
1189.00,0.0229
1188.00,0.0209
1187.00,0.0190
1186.00,0.0173
1185.00,0.0159
1184.00,0.0147
1183.00,0.0137
1182.00,0.0128
1181.00,0.0122
1180.00,0.0116
1179.00,0.0112
1178.00,0.0108
1177.00,0.0105
1176.00,0.0103
1175.00,0.0101
1174.00,0.0100
1173.00,0.0099
1172.00,0.0097
1171.00,0.0097
1170.00,0.0097
1169.00,0.0097
1168.00,0.0097
1167.00,0.0098
1166.00,0.0099
1165.00,0.0102
1164.00,0.0106
1163.00,0.0112
1162.00,0.0121
1161.00,0.0133
1160.00,0.0151
1159.00,0.0173
1158.00,0.0201
1157.00,0.0231
1156.00,0.0259
1155.00,0.0278
1154.00,0.0282
1153.00,0.0271
1152.00,0.0247
1151.00,0.0216
1150.00,0.0185
1149.00,0.0159
1148.00,0.0139
1147.00,0.0125
1146.00,0.0116
1145.00,0.0110
1144.00,0.0106
1143.00,0.0104
1142.00,0.0103
1141.00,0.0103
1140.00,0.0105
1139.00,0.0108
1138.00,0.0113
1137.00,0.0121
1136.00,0.0133
1135.00,0.0150
1134.00,0.0173
1133.00,0.0202
1132.00,0.0237
1131.00,0.0274
1130.00,0.0306
1129.00,0.0330
1128.00,0.0340
1127.00,0.0338
1126.00,0.0327
1125.00,0.0308
1124.00,0.0285
1123.00,0.0259
1122.00,0.0232
1121.00,0.0208
1120.00,0.0187
1119.00,0.0172
1118.00,0.0162
1117.00,0.0156
1116.00,0.0153
1115.00,0.0151
1114.00,0.0149
1113.00,0.0146
1112.00,0.0142
1111.00,0.0137
1110.00,0.0132
1109.00,0.0128
1108.00,0.0126
1107.00,0.0127
1106.00,0.0131
1105.00,0.0139
1104.00,0.0151
1103.00,0.0169
1102.00,0.0189
1101.00,0.0208
1100.00,0.0222
1099.00,0.0227
1098.00,0.0221
1097.00,0.0206
1096.00,0.0187
1095.00,0.0165
1094.00,0.0146
1093.00,0.0130
1092.00,0.0117
1091.00,0.0107
1090.00,0.0100
1089.00,0.0095
1088.00,0.0092
1087.00,0.0090
1086.00,0.0088
1085.00,0.0086
1084.00,0.0085
1083.00,0.0084
1082.00,0.0083
1081.00,0.0083
1080.00,0.0083
1079.00,0.0084
1078.00,0.0085
1077.00,0.0086
1076.00,0.0087
1075.00,0.0089
1074.00,0.0091
1073.00,0.0093
1072.00,0.0096
1071.00,0.0100
1070.00,0.0104
1069.00,0.0109
1068.00,0.0114
1067.00,0.0119
1066.00,0.0125
1065.00,0.0132
1064.00,0.0142
1063.00,0.0154
1062.00,0.0171
1061.00,0.0192
1060.00,0.0219
1059.00,0.0251
1058.00,0.0289
1057.00,0.0330
1056.00,0.0370
1055.00,0.0405
1054.00,0.0430
1053.00,0.0447
1052.00,0.0457
1051.00,0.0464
1050.00,0.0467
1049.00,0.0465
1048.00,0.0457
1047.00,0.0441
1046.00,0.0418
1045.00,0.0390
1044.00,0.0359
1043.00,0.0328
1042.00,0.0298
1041.00,0.0273
1040.00,0.0252
1039.00,0.0238
1038.00,0.0230
1037.00,0.0227
1036.00,0.0228
1035.00,0.0231
1034.00,0.0236
1033.00,0.0244
1032.00,0.0258
1031.00,0.0281
1030.00,0.0313
1029.00,0.0350
1028.00,0.0385
1027.00,0.0411
1026.00,0.0419
1025.00,0.0407
1024.00,0.0381
1023.00,0.0345
1022.00,0.0308
1021.00,0.0273
1020.00,0.0243
1019.00,0.0218
1018.00,0.0198
1017.00,0.0182
1016.00,0.0169
1015.00,0.0158
1014.00,0.0150
1013.00,0.0144
1012.00,0.0141
1011.00,0.0141
1010.00,0.0144
1009.00,0.0150
1008.00,0.0160
1007.00,0.0172
1006.00,0.0184
1005.00,0.0196
1004.00,0.0204
1003.00,0.0208
1002.00,0.0207
1001.00,0.0202
1000.00,0.0195
999.00,0.0188
998.00,0.0182
997.00,0.0176
996.00,0.0171
995.00,0.0167
994.00,0.0163
993.00,0.0158
992.00,0.0152
991.00,0.0144
990.00,0.0136
989.00,0.0128
988.00,0.0121
987.00,0.0115
986.00,0.0110
985.00,0.0106
984.00,0.0103
983.00,0.0100
982.00,0.0098
981.00,0.0097
980.00,0.0096
979.00,0.0096
978.00,0.0096
977.00,0.0097
976.00,0.0097
975.00,0.0097
974.00,0.0096
973.00,0.0096
972.00,0.0095
971.00,0.0094
970.00,0.0093
969.00,0.0093
968.00,0.0093
967.00,0.0093
966.00,0.0095
965.00,0.0097
964.00,0.0100
963.00,0.0102
962.00,0.0103
961.00,0.0101
960.00,0.0097
959.00,0.0092
958.00,0.0086
957.00,0.0081
956.00,0.0077
955.00,0.0073
954.00,0.0071
953.00,0.0069
952.00,0.0068
951.00,0.0068
950.00,0.0069
949.00,0.0072
948.00,0.0074
947.00,0.0074
946.00,0.0074
945.00,0.0073
944.00,0.0075
943.00,0.0077
942.00,0.0080
941.00,0.0084
940.00,0.0088
939.00,0.0091
938.00,0.0094
937.00,0.0097
936.00,0.0099
935.00,0.0102
934.00,0.0104
933.00,0.0107
932.00,0.0108
931.00,0.0107
930.00,0.0105
929.00,0.0103
928.00,0.0102
927.00,0.0102
926.00,0.0104
925.00,0.0108
924.00,0.0113
923.00,0.0118
922.00,0.0121
921.00,0.0121
920.00,0.0117
919.00,0.0110
918.00,0.0102
917.00,0.0094
916.00,0.0087
915.00,0.0081
914.00,0.0078
913.00,0.0075
912.00,0.0073
911.00,0.0071
910.00,0.0070
909.00,0.0070
908.00,0.0071
907.00,0.0072
906.00,0.0075
905.00,0.0080
904.00,0.0087
903.00,0.0095
902.00,0.0106
901.00,0.0117
900.00,0.0126
899.00,0.0130
898.00,0.0129
897.00,0.0123
896.00,0.0116
895.00,0.0109
894.00,0.0106
893.00,0.0108
892.00,0.0116
891.00,0.0125
890.00,0.0131
889.00,0.0129
888.00,0.0119
887.00,0.0106
886.00,0.0095
885.00,0.0088
884.00,0.0084
883.00,0.0084
882.00,0.0085
881.00,0.0088
880.00,0.0093
879.00,0.0100
878.00,0.0111
877.00,0.0127
876.00,0.0146
875.00,0.0170
874.00,0.0197
873.00,0.0226
872.00,0.0254
871.00,0.0277
870.00,0.0290
869.00,0.0291
868.00,0.0282
867.00,0.0265
866.00,0.0246
865.00,0.0227
864.00,0.0209
863.00,0.0192
862.00,0.0175
861.00,0.0161
860.00,0.0150
859.00,0.0144
858.00,0.0143
857.00,0.0148
856.00,0.0158
855.00,0.0171
854.00,0.0184
853.00,0.0197
852.00,0.0211
851.00,0.0226
850.00,0.0239
849.00,0.0247
848.00,0.0246
847.00,0.0236
846.00,0.0221
845.00,0.0205
844.00,0.0190
843.00,0.0179
842.00,0.0171
841.00,0.0168
840.00,0.0169
839.00,0.0176
838.00,0.0190
837.00,0.0207
836.00,0.0227
835.00,0.0244
834.00,0.0256
833.00,0.0261
832.00,0.0258
831.00,0.0247
830.00,0.0230
829.00,0.0208
828.00,0.0186
827.00,0.0166
826.00,0.0152
825.00,0.0149
824.00,0.0159
823.00,0.0186
822.00,0.0227
821.00,0.0271
820.00,0.0305
819.00,0.0324
818.00,0.0338
817.00,0.0356
816.00,0.0371
815.00,0.0366
814.00,0.0333
813.00,0.0281
812.00,0.0228
811.00,0.0185
810.00,0.0155
809.00,0.0134
808.00,0.0120
807.00,0.0110
806.00,0.0102
805.00,0.0096
804.00,0.0091
803.00,0.0088
802.00,0.0085
801.00,0.0083
800.00,0.0081
799.00,0.0080
798.00,0.0079
797.00,0.0078
796.00,0.0077
795.00,0.0076
794.00,0.0075
793.00,0.0074
792.00,0.0073
791.00,0.0073
790.00,0.0073
789.00,0.0072
788.00,0.0072
787.00,0.0072
786.00,0.0071
785.00,0.0071
784.00,0.0071
783.00,0.0072
782.00,0.0072
781.00,0.0073
780.00,0.0074
779.00,0.0077
778.00,0.0081
777.00,0.0089
776.00,0.0099
775.00,0.0108
774.00,0.0111
773.00,0.0109
772.00,0.0101
771.00,0.0093
770.00,0.0086
769.00,0.0082
768.00,0.0081
767.00,0.0080
766.00,0.0080
765.00,0.0081
764.00,0.0083
763.00,0.0086
762.00,0.0090
761.00,0.0093
760.00,0.0096
759.00,0.0098
758.00,0.0097
757.00,0.0095
756.00,0.0092
755.00,0.0089
754.00,0.0086
753.00,0.0085
752.00,0.0084
751.00,0.0084
750.00,0.0085
749.00,0.0086
748.00,0.0087
747.00,0.0088
746.00,0.0089
745.00,0.0090
744.00,0.0093
743.00,0.0097
742.00,0.0101
741.00,0.0108
740.00,0.0118
739.00,0.0131
738.00,0.0150
737.00,0.0171
736.00,0.0191
735.00,0.0205
734.00,0.0208
733.00,0.0204
732.00,0.0198
731.00,0.0195
730.00,0.0197
729.00,0.0199
728.00,0.0198
727.00,0.0190
726.00,0.0176
725.00,0.0160
724.00,0.0144
723.00,0.0133
722.00,0.0126
721.00,0.0122
720.00,0.0122
719.00,0.0125
718.00,0.0132
717.00,0.0141
716.00,0.0149
715.00,0.0155
714.00,0.0156
713.00,0.0154
712.00,0.0149
711.00,0.0143
710.00,0.0137
709.00,0.0132
708.00,0.0129
707.00,0.0127
706.00,0.0128
705.00,0.0129
704.00,0.0131
703.00,0.0135
702.00,0.0139
701.00,0.0145
700.00,0.0150
699.00,0.0154
698.00,0.0156
697.00,0.0155
696.00,0.0152
695.00,0.0147
694.00,0.0143
693.00,0.0141
692.00,0.0143
691.00,0.0149
690.00,0.0158
689.00,0.0166
688.00,0.0171
687.00,0.0170
686.00,0.0164
685.00,0.0157
684.00,0.0150
683.00,0.0147
682.00,0.0145
681.00,0.0146
680.00,0.0148
679.00,0.0151
678.00,0.0156
677.00,0.0162
676.00,0.0169
675.00,0.0177
674.00,0.0186
673.00,0.0195
672.00,0.0201
671.00,0.0205
670.00,0.0207
669.00,0.0205
668.00,0.0201
667.00,0.0199
666.00,0.0196
665.00,0.0194
664.00,0.0195
663.00,0.0198
662.00,0.0200
661.00,0.0201
660.00,0.0198
659.00,0.0192
658.00,0.0184
657.00,0.0177
656.00,0.0170
655.00,0.0165
654.00,0.0161
653.00,0.0158
652.00,0.0155
651.00,0.0154
650.00,0.0153
649.00,0.0152
648.00,0.0152
647.00,0.0152
646.00,0.0151
645.00,0.0151
644.00,0.0150
643.00,0.0148
642.00,0.0146
641.00,0.0145
640.00,0.0143
639.00,0.0142
638.00,0.0141
637.00,0.0141
636.00,0.0141
635.00,0.0141
634.00,0.0141
633.00,0.0142
632.00,0.0142
631.00,0.0143
630.00,0.0143
629.00,0.0144
628.00,0.0145
627.00,0.0149
626.00,0.0153
625.00,0.0158
624.00,0.0164
623.00,0.0170
622.00,0.0175
621.00,0.0181
620.00,0.0184
619.00,0.0186
618.00,0.0183
617.00,0.0176
616.00,0.0167
615.00,0.0157
614.00,0.0149
613.00,0.0143
612.00,0.0139
611.00,0.0138
610.00,0.0142
609.00,0.0150
608.00,0.0163
607.00,0.0178
606.00,0.0194
605.00,0.0210
604.00,0.0224
603.00,0.0235
602.00,0.0242
601.00,0.0246
600.00,0.0246
599.00,0.0245
598.00,0.0243
597.00,0.0241
596.00,0.0240
595.00,0.0239
594.00,0.0238
593.00,0.0235
592.00,0.0231
591.00,0.0226
590.00,0.0221
589.00,0.0217
588.00,0.0214
587.00,0.0212
586.00,0.0211
585.00,0.0210
584.00,0.0211
583.00,0.0212
582.00,0.0214
581.00,0.0218
580.00,0.0226
579.00,0.0237
578.00,0.0250
577.00,0.0262
576.00,0.0268
575.00,0.0265
574.00,0.0254
573.00,0.0239
572.00,0.0225
571.00,0.0213
570.00,0.0203
569.00,0.0197
568.00,0.0193
567.00,0.0192
566.00,0.0195
565.00,0.0201
564.00,0.0209
563.00,0.0218
562.00,0.0228
561.00,0.0238
560.00,0.0246
559.00,0.0248
558.00,0.0244
557.00,0.0237
556.00,0.0228
555.00,0.0221
554.00,0.0215
553.00,0.0213
552.00,0.0216
551.00,0.0221
550.00,0.0229
549.00,0.0239
548.00,0.0250
547.00,0.0259
546.00,0.0264
545.00,0.0263
544.00,0.0257
543.00,0.0248
542.00,0.0238
541.00,0.0230
540.00,0.0224
539.00,0.0218
538.00,0.0213
537.00,0.0209
536.00,0.0210
535.00,0.0215
534.00,0.0225
533.00,0.0235
532.00,0.0244
531.00,0.0249
530.00,0.0249
529.00,0.0243
528.00,0.0232
527.00,0.0219
526.00,0.0206
525.00,0.0196
524.00,0.0187
523.00,0.0181
522.00,0.0176
521.00,0.0172
520.00,0.0168
519.00,0.0164
518.00,0.0160
517.00,0.0156
516.00,0.0153
515.00,0.0151
514.00,0.0151
513.00,0.0152
512.00,0.0153
511.00,0.0155
510.00,0.0156
509.00,0.0159
508.00,0.0162
507.00,0.0165
506.00,0.0166
505.00,0.0166
504.00,0.0164
503.00,0.0160
502.00,0.0155
501.00,0.0150
500.00,0.0145
499.00,0.0143
498.00,0.0142
497.00,0.0144
496.00,0.0147
495.00,0.0150
494.00,0.0153
493.00,0.0156
492.00,0.0158
491.00,0.0160
490.00,0.0162
489.00,0.0161
488.00,0.0159
487.00,0.0155
486.00,0.0152
485.00,0.0149
484.00,0.0146
483.00,0.0143
482.00,0.0141
481.00,0.0142
480.00,0.0143
479.00,0.0141
478.00,0.0136
477.00,0.0130
476.00,0.0126
475.00,0.0124
474.00,0.0123
473.00,0.0123
472.00,0.0125
471.00,0.0127
470.00,0.0129
469.00,0.0131
468.00,0.0132
467.00,0.0131
466.00,0.0128
465.00,0.0125
464.00,0.0124
463.00,0.0127
462.00,0.0129
461.00,0.0129
460.00,0.0126
459.00,0.0125
458.00,0.0125
457.00,0.0126
456.00,0.0126
455.00,0.0125
454.00,0.0125
453.00,0.0128
452.00,0.0131
451.00,0.0132
450.00,0.0129
449.00,0.0124
448.00,0.0121
447.00,0.0121
446.00,0.0124
445.00,0.0128
444.00,0.0131
443.00,0.0132
442.00,0.0131
441.00,0.0129
440.00,0.0128
439.00,0.0127
438.00,0.0126
437.00,0.0124
436.00,0.0123
435.00,0.0124
434.00,0.0123
433.00,0.0121
432.00,0.0120
431.00,0.0121
430.00,0.0125
429.00,0.0126
428.00,0.0124
427.00,0.0120
426.00,0.0118
425.00,0.0119
424.00,0.0120
423.00,0.0117
422.00,0.0111
421.00,0.0105
420.00,0.0105
419.00,0.0111
418.00,0.0118
417.00,0.0122
416.00,0.0122
415.00,0.0123
414.00,0.0126
413.00,0.0132
412.00,0.0139
411.00,0.0142
410.00,0.0141
409.00,0.0142
408.00,0.0145
407.00,0.0148
406.00,0.0145
405.00,0.0138
404.00,0.0133
403.00,0.0132
402.00,0.0131
401.00,0.0124
400.00,0.0114
