Created as New Dataset,Sample 987 By YargerLab Date Wednesday, July 30 2025
cm-1,A
4000.00,0.0022
3999.00,0.0022
3998.00,0.0021
3997.00,0.0021
3996.00,0.0021
3995.00,0.0021
3994.00,0.0021
3993.00,0.0021
3992.00,0.0021
3991.00,0.0022
3990.00,0.0022
3989.00,0.0022
3988.00,0.0022
3987.00,0.0021
3986.00,0.0021
3985.00,0.0021
3984.00,0.0022
3983.00,0.0022
3982.00,0.0022
3981.00,0.0022
3980.00,0.0022
3979.00,0.0022
3978.00,0.0022
3977.00,0.0022
3976.00,0.0021
3975.00,0.0021
3974.00,0.0021
3973.00,0.0021
3972.00,0.0021
3971.00,0.0021
3970.00,0.0021
3969.00,0.0021
3968.00,0.0021
3967.00,0.0021
3966.00,0.0021
3965.00,0.0021
3964.00,0.0021
3963.00,0.0021
3962.00,0.0021
3961.00,0.0021
3960.00,0.0022
3959.00,0.0022
3958.00,0.0022
3957.00,0.0022
3956.00,0.0021
3955.00,0.0021
3954.00,0.0021
3953.00,0.0021
3952.00,0.0020
3951.00,0.0020
3950.00,0.0020
3949.00,0.0020
3948.00,0.0020
3947.00,0.0020
3946.00,0.0020
3945.00,0.0020
3944.00,0.0020
3943.00,0.0021
3942.00,0.0021
3941.00,0.0021
3940.00,0.0021
3939.00,0.0021
3938.00,0.0021
3937.00,0.0021
3936.00,0.0021
3935.00,0.0021
3934.00,0.0021
3933.00,0.0021
3932.00,0.0021
3931.00,0.0021
3930.00,0.0021
3929.00,0.0021
3928.00,0.0021
3927.00,0.0021
3926.00,0.0021
3925.00,0.0020
3924.00,0.0020
3923.00,0.0021
3922.00,0.0020
3921.00,0.0020
3920.00,0.0020
3919.00,0.0020
3918.00,0.0020
3917.00,0.0021
3916.00,0.0021
3915.00,0.0021
3914.00,0.0020
3913.00,0.0020
3912.00,0.0020
3911.00,0.0020
3910.00,0.0021
3909.00,0.0021
3908.00,0.0021
3907.00,0.0020
3906.00,0.0020
3905.00,0.0020
3904.00,0.0020
3903.00,0.0020
3902.00,0.0020
3901.00,0.0020
3900.00,0.0020
3899.00,0.0020
3898.00,0.0020
3897.00,0.0020
3896.00,0.0020
3895.00,0.0020
3894.00,0.0020
3893.00,0.0020
3892.00,0.0020
3891.00,0.0020
3890.00,0.0020
3889.00,0.0020
3888.00,0.0020
3887.00,0.0020
3886.00,0.0020
3885.00,0.0020
3884.00,0.0020
3883.00,0.0019
3882.00,0.0019
3881.00,0.0019
3880.00,0.0019
3879.00,0.0020
3878.00,0.0020
3877.00,0.0020
3876.00,0.0020
3875.00,0.0020
3874.00,0.0020
3873.00,0.0020
3872.00,0.0019
3871.00,0.0019
3870.00,0.0019
3869.00,0.0019
3868.00,0.0019
3867.00,0.0019
3866.00,0.0019
3865.00,0.0019
3864.00,0.0019
3863.00,0.0020
3862.00,0.0020
3861.00,0.0020
3860.00,0.0020
3859.00,0.0020
3858.00,0.0020
3857.00,0.0019
3856.00,0.0019
3855.00,0.0019
3854.00,0.0019
3853.00,0.0018
3852.00,0.0018
3851.00,0.0018
3850.00,0.0019
3849.00,0.0019
3848.00,0.0020
3847.00,0.0020
3846.00,0.0020
3845.00,0.0020
3844.00,0.0020
3843.00,0.0020
3842.00,0.0019
3841.00,0.0019
3840.00,0.0019
3839.00,0.0019
3838.00,0.0019
3837.00,0.0019
3836.00,0.0019
3835.00,0.0020
3834.00,0.0020
3833.00,0.0020
3832.00,0.0020
3831.00,0.0020
3830.00,0.0020
3829.00,0.0020
3828.00,0.0020
3827.00,0.0020
3826.00,0.0020
3825.00,0.0020
3824.00,0.0020
3823.00,0.0019
3822.00,0.0020
3821.00,0.0020
3820.00,0.0020
3819.00,0.0020
3818.00,0.0019
3817.00,0.0019
3816.00,0.0019
3815.00,0.0020
3814.00,0.0020
3813.00,0.0020
3812.00,0.0020
3811.00,0.0020
3810.00,0.0020
3809.00,0.0020
3808.00,0.0020
3807.00,0.0020
3806.00,0.0020
3805.00,0.0020
3804.00,0.0020
3803.00,0.0019
3802.00,0.0019
3801.00,0.0019
3800.00,0.0019
3799.00,0.0019
3798.00,0.0019
3797.00,0.0019
3796.00,0.0019
3795.00,0.0019
3794.00,0.0019
3793.00,0.0020
3792.00,0.0020
3791.00,0.0020
3790.00,0.0021
3789.00,0.0021
3788.00,0.0021
3787.00,0.0020
3786.00,0.0020
3785.00,0.0021
3784.00,0.0021
3783.00,0.0021
3782.00,0.0021
3781.00,0.0021
3780.00,0.0021
3779.00,0.0021
3778.00,0.0021
3777.00,0.0021
3776.00,0.0021
3775.00,0.0021
3774.00,0.0021
3773.00,0.0021
3772.00,0.0021
3771.00,0.0021
3770.00,0.0021
3769.00,0.0021
3768.00,0.0020
3767.00,0.0020
3766.00,0.0020
3765.00,0.0020
3764.00,0.0020
3763.00,0.0020
3762.00,0.0020
3761.00,0.0020
3760.00,0.0020
3759.00,0.0020
3758.00,0.0020
3757.00,0.0020
3756.00,0.0020
3755.00,0.0020
3754.00,0.0019
3753.00,0.0019
3752.00,0.0019
3751.00,0.0019
3750.00,0.0019
3749.00,0.0019
3748.00,0.0019
3747.00,0.0018
3746.00,0.0018
3745.00,0.0018
3744.00,0.0019
3743.00,0.0019
3742.00,0.0019
3741.00,0.0019
3740.00,0.0019
3739.00,0.0018
3738.00,0.0018
3737.00,0.0018
3736.00,0.0018
3735.00,0.0018
3734.00,0.0018
3733.00,0.0018
3732.00,0.0018
3731.00,0.0018
3730.00,0.0018
3729.00,0.0018
3728.00,0.0018
3727.00,0.0018
3726.00,0.0018
3725.00,0.0018
3724.00,0.0018
3723.00,0.0018
3722.00,0.0019
3721.00,0.0019
3720.00,0.0019
3719.00,0.0020
3718.00,0.0020
3717.00,0.0020
3716.00,0.0020
3715.00,0.0020
3714.00,0.0021
3713.00,0.0020
3712.00,0.0020
3711.00,0.0019
3710.00,0.0019
3709.00,0.0019
3708.00,0.0018
3707.00,0.0019
3706.00,0.0019
3705.00,0.0019
3704.00,0.0019
3703.00,0.0020
3702.00,0.0020
3701.00,0.0020
3700.00,0.0020
3699.00,0.0020
3698.00,0.0020
3697.00,0.0020
3696.00,0.0020
3695.00,0.0020
3694.00,0.0020
3693.00,0.0020
3692.00,0.0019
3691.00,0.0019
3690.00,0.0019
3689.00,0.0019
3688.00,0.0019
3687.00,0.0020
3686.00,0.0020
3685.00,0.0021
3684.00,0.0021
3683.00,0.0022
3682.00,0.0022
3681.00,0.0022
3680.00,0.0022
3679.00,0.0021
3678.00,0.0021
3677.00,0.0021
3676.00,0.0021
3675.00,0.0021
3674.00,0.0021
3673.00,0.0022
3672.00,0.0022
3671.00,0.0023
3670.00,0.0023
3669.00,0.0023
3668.00,0.0023
3667.00,0.0023
3666.00,0.0024
3665.00,0.0024
3664.00,0.0025
3663.00,0.0025
3662.00,0.0025
3661.00,0.0026
3660.00,0.0026
3659.00,0.0026
3658.00,0.0026
3657.00,0.0026
3656.00,0.0026
3655.00,0.0026
3654.00,0.0026
3653.00,0.0026
3652.00,0.0026
3651.00,0.0026
3650.00,0.0026
3649.00,0.0026
3648.00,0.0026
3647.00,0.0027
3646.00,0.0027
3645.00,0.0028
3644.00,0.0029
3643.00,0.0029
3642.00,0.0030
3641.00,0.0031
3640.00,0.0031
3639.00,0.0032
3638.00,0.0032
3637.00,0.0032
3636.00,0.0032
3635.00,0.0032
3634.00,0.0032
3633.00,0.0033
3632.00,0.0033
3631.00,0.0033
3630.00,0.0033
3629.00,0.0034
3628.00,0.0034
3627.00,0.0034
3626.00,0.0035
3625.00,0.0036
3624.00,0.0036
3623.00,0.0037
3622.00,0.0038
3621.00,0.0038
3620.00,0.0038
3619.00,0.0038
3618.00,0.0038
3617.00,0.0039
3616.00,0.0040
3615.00,0.0041
3614.00,0.0041
3613.00,0.0042
3612.00,0.0042
3611.00,0.0043
3610.00,0.0043
3609.00,0.0043
3608.00,0.0043
3607.00,0.0044
3606.00,0.0044
3605.00,0.0045
3604.00,0.0046
3603.00,0.0047
3602.00,0.0047
3601.00,0.0048
3600.00,0.0048
3599.00,0.0049
3598.00,0.0049
3597.00,0.0049
3596.00,0.0050
3595.00,0.0050
3594.00,0.0050
3593.00,0.0051
3592.00,0.0051
3591.00,0.0052
3590.00,0.0052
3589.00,0.0053
3588.00,0.0053
3587.00,0.0053
3586.00,0.0054
3585.00,0.0055
3584.00,0.0055
3583.00,0.0056
3582.00,0.0057
3581.00,0.0058
3580.00,0.0059
3579.00,0.0059
3578.00,0.0060
3577.00,0.0061
3576.00,0.0062
3575.00,0.0063
3574.00,0.0063
3573.00,0.0064
3572.00,0.0064
3571.00,0.0065
3570.00,0.0065
3569.00,0.0065
3568.00,0.0065
3567.00,0.0065
3566.00,0.0065
3565.00,0.0066
3564.00,0.0067
3563.00,0.0068
3562.00,0.0069
3561.00,0.0069
3560.00,0.0070
3559.00,0.0071
3558.00,0.0072
3557.00,0.0073
3556.00,0.0074
3555.00,0.0075
3554.00,0.0075
3553.00,0.0076
3552.00,0.0076
3551.00,0.0077
3550.00,0.0077
3549.00,0.0078
3548.00,0.0079
3547.00,0.0079
3546.00,0.0080
3545.00,0.0081
3544.00,0.0081
3543.00,0.0082
3542.00,0.0082
3541.00,0.0083
3540.00,0.0084
3539.00,0.0085
3538.00,0.0085
3537.00,0.0086
3536.00,0.0087
3535.00,0.0087
3534.00,0.0088
3533.00,0.0088
3532.00,0.0089
3531.00,0.0089
3530.00,0.0090
3529.00,0.0090
3528.00,0.0091
3527.00,0.0091
3526.00,0.0092
3525.00,0.0093
3524.00,0.0093
3523.00,0.0094
3522.00,0.0095
3521.00,0.0095
3520.00,0.0096
3519.00,0.0097
3518.00,0.0097
3517.00,0.0098
3516.00,0.0099
3515.00,0.0099
3514.00,0.0100
3513.00,0.0101
3512.00,0.0101
3511.00,0.0102
3510.00,0.0102
3509.00,0.0102
3508.00,0.0103
3507.00,0.0104
3506.00,0.0104
3505.00,0.0105
3504.00,0.0106
3503.00,0.0107
3502.00,0.0107
3501.00,0.0108
3500.00,0.0109
3499.00,0.0109
3498.00,0.0110
3497.00,0.0110
3496.00,0.0111
3495.00,0.0111
3494.00,0.0112
3493.00,0.0112
3492.00,0.0113
3491.00,0.0114
3490.00,0.0114
3489.00,0.0115
3488.00,0.0116
3487.00,0.0117
3486.00,0.0118
3485.00,0.0118
3484.00,0.0119
3483.00,0.0119
3482.00,0.0120
3481.00,0.0121
3480.00,0.0121
3479.00,0.0122
3478.00,0.0123
3477.00,0.0123
3476.00,0.0124
3475.00,0.0125
3474.00,0.0125
3473.00,0.0126
3472.00,0.0127
3471.00,0.0127
3470.00,0.0128
3469.00,0.0129
3468.00,0.0129
3467.00,0.0130
3466.00,0.0130
3465.00,0.0131
3464.00,0.0131
3463.00,0.0132
3462.00,0.0133
3461.00,0.0133
3460.00,0.0134
3459.00,0.0135
3458.00,0.0135
3457.00,0.0136
3456.00,0.0136
3455.00,0.0137
3454.00,0.0138
3453.00,0.0138
3452.00,0.0139
3451.00,0.0140
3450.00,0.0140
3449.00,0.0141
3448.00,0.0142
3447.00,0.0142
3446.00,0.0143
3445.00,0.0143
3444.00,0.0144
3443.00,0.0144
3442.00,0.0145
3441.00,0.0146
3440.00,0.0147
3439.00,0.0148
3438.00,0.0149
3437.00,0.0150
3436.00,0.0150
3435.00,0.0151
3434.00,0.0152
3433.00,0.0152
3432.00,0.0153
3431.00,0.0154
3430.00,0.0154
3429.00,0.0155
3428.00,0.0156
3427.00,0.0157
3426.00,0.0158
3425.00,0.0159
3424.00,0.0159
3423.00,0.0160
3422.00,0.0160
3421.00,0.0161
3420.00,0.0162
3419.00,0.0163
3418.00,0.0164
3417.00,0.0164
3416.00,0.0165
3415.00,0.0166
3414.00,0.0167
3413.00,0.0167
3412.00,0.0168
3411.00,0.0168
3410.00,0.0169
3409.00,0.0169
3408.00,0.0170
3407.00,0.0171
3406.00,0.0172
3405.00,0.0173
3404.00,0.0174
3403.00,0.0174
3402.00,0.0175
3401.00,0.0175
3400.00,0.0176
3399.00,0.0176
3398.00,0.0177
3397.00,0.0177
3396.00,0.0178
3395.00,0.0179
3394.00,0.0180
3393.00,0.0180
3392.00,0.0181
3391.00,0.0182
3390.00,0.0182
3389.00,0.0183
3388.00,0.0184
3387.00,0.0184
3386.00,0.0185
3385.00,0.0186
3384.00,0.0187
3383.00,0.0187
3382.00,0.0188
3381.00,0.0189
3380.00,0.0190
3379.00,0.0191
3378.00,0.0192
3377.00,0.0193
3376.00,0.0193
3375.00,0.0194
3374.00,0.0195
3373.00,0.0195
3372.00,0.0196
3371.00,0.0197
3370.00,0.0198
3369.00,0.0199
3368.00,0.0200
3367.00,0.0200
3366.00,0.0201
3365.00,0.0202
3364.00,0.0202
3363.00,0.0204
3362.00,0.0205
3361.00,0.0206
3360.00,0.0207
3359.00,0.0208
3358.00,0.0209
3357.00,0.0210
3356.00,0.0211
3355.00,0.0211
3354.00,0.0212
3353.00,0.0213
3352.00,0.0214
3351.00,0.0214
3350.00,0.0215
3349.00,0.0217
3348.00,0.0218
3347.00,0.0219
3346.00,0.0220
3345.00,0.0221
3344.00,0.0222
3343.00,0.0223
3342.00,0.0224
3341.00,0.0225
3340.00,0.0226
3339.00,0.0227
3338.00,0.0228
3337.00,0.0229
3336.00,0.0230
3335.00,0.0231
3334.00,0.0232
3333.00,0.0234
3332.00,0.0235
3331.00,0.0236
3330.00,0.0237
3329.00,0.0238
3328.00,0.0239
3327.00,0.0240
3326.00,0.0242
3325.00,0.0243
3324.00,0.0244
3323.00,0.0246
3322.00,0.0247
3321.00,0.0248
3320.00,0.0249
3319.00,0.0251
3318.00,0.0252
3317.00,0.0253
3316.00,0.0255
3315.00,0.0256
3314.00,0.0257
3313.00,0.0258
3312.00,0.0260
3311.00,0.0261
3310.00,0.0262
3309.00,0.0262
3308.00,0.0263
3307.00,0.0265
3306.00,0.0266
3305.00,0.0268
3304.00,0.0270
3303.00,0.0272
3302.00,0.0273
3301.00,0.0275
3300.00,0.0276
3299.00,0.0277
3298.00,0.0278
3297.00,0.0279
3296.00,0.0279
3295.00,0.0280
3294.00,0.0281
3293.00,0.0282
3292.00,0.0284
3291.00,0.0285
3290.00,0.0286
3289.00,0.0287
3288.00,0.0288
3287.00,0.0289
3286.00,0.0290
3285.00,0.0291
3284.00,0.0291
3283.00,0.0292
3282.00,0.0292
3281.00,0.0293
3280.00,0.0293
3279.00,0.0293
3278.00,0.0293
3277.00,0.0293
3276.00,0.0292
3275.00,0.0292
3274.00,0.0291
3273.00,0.0291
3272.00,0.0290
3271.00,0.0290
3270.00,0.0289
3269.00,0.0289
3268.00,0.0289
3267.00,0.0289
3266.00,0.0288
3265.00,0.0287
3264.00,0.0286
3263.00,0.0285
3262.00,0.0284
3261.00,0.0282
3260.00,0.0281
3259.00,0.0279
3258.00,0.0278
3257.00,0.0276
3256.00,0.0275
3255.00,0.0274
3254.00,0.0273
3253.00,0.0272
3252.00,0.0270
3251.00,0.0269
3250.00,0.0267
3249.00,0.0265
3248.00,0.0264
3247.00,0.0263
3246.00,0.0262
3245.00,0.0261
3244.00,0.0260
3243.00,0.0259
3242.00,0.0258
3241.00,0.0257
3240.00,0.0256
3239.00,0.0255
3238.00,0.0254
3237.00,0.0252
3236.00,0.0251
3235.00,0.0249
3234.00,0.0248
3233.00,0.0247
3232.00,0.0247
3231.00,0.0246
3230.00,0.0246
3229.00,0.0245
3228.00,0.0244
3227.00,0.0243
3226.00,0.0242
3225.00,0.0241
3224.00,0.0240
3223.00,0.0239
3222.00,0.0239
3221.00,0.0238
3220.00,0.0237
3219.00,0.0236
3218.00,0.0235
3217.00,0.0234
3216.00,0.0234
3215.00,0.0233
3214.00,0.0232
3213.00,0.0232
3212.00,0.0231
3211.00,0.0231
3210.00,0.0230
3209.00,0.0229
3208.00,0.0228
3207.00,0.0228
3206.00,0.0227
3205.00,0.0226
3204.00,0.0225
3203.00,0.0224
3202.00,0.0223
3201.00,0.0223
3200.00,0.0222
3199.00,0.0221
3198.00,0.0221
3197.00,0.0220
3196.00,0.0219
3195.00,0.0218
3194.00,0.0217
3193.00,0.0217
3192.00,0.0216
3191.00,0.0215
3190.00,0.0214
3189.00,0.0213
3188.00,0.0212
3187.00,0.0211
3186.00,0.0210
3185.00,0.0210
3184.00,0.0209
3183.00,0.0208
3182.00,0.0207
3181.00,0.0206
3180.00,0.0205
3179.00,0.0204
3178.00,0.0204
3177.00,0.0203
3176.00,0.0202
3175.00,0.0201
3174.00,0.0200
3173.00,0.0199
3172.00,0.0198
3171.00,0.0198
3170.00,0.0197
3169.00,0.0196
3168.00,0.0195
3167.00,0.0194
3166.00,0.0193
3165.00,0.0192
3164.00,0.0192
3163.00,0.0191
3162.00,0.0190
3161.00,0.0189
3160.00,0.0189
3159.00,0.0188
3158.00,0.0187
3157.00,0.0186
3156.00,0.0185
3155.00,0.0184
3154.00,0.0183
3153.00,0.0182
3152.00,0.0182
3151.00,0.0181
3150.00,0.0181
3149.00,0.0180
3148.00,0.0179
3147.00,0.0179
3146.00,0.0178
3145.00,0.0177
3144.00,0.0177
3143.00,0.0176
3142.00,0.0175
3141.00,0.0174
3140.00,0.0174
3139.00,0.0173
3138.00,0.0172
3137.00,0.0172
3136.00,0.0172
3135.00,0.0171
3134.00,0.0171
3133.00,0.0170
3132.00,0.0169
3131.00,0.0169
3130.00,0.0169
3129.00,0.0168
3128.00,0.0168
3127.00,0.0167
3126.00,0.0167
3125.00,0.0167
3124.00,0.0167
3123.00,0.0166
3122.00,0.0165
3121.00,0.0164
3120.00,0.0163
3119.00,0.0163
3118.00,0.0162
3117.00,0.0162
3116.00,0.0163
3115.00,0.0163
3114.00,0.0163
3113.00,0.0163
3112.00,0.0163
3111.00,0.0163
3110.00,0.0163
3109.00,0.0163
3108.00,0.0163
3107.00,0.0163
3106.00,0.0164
3105.00,0.0164
3104.00,0.0164
3103.00,0.0164
3102.00,0.0163
3101.00,0.0163
3100.00,0.0163
3099.00,0.0163
3098.00,0.0163
3097.00,0.0163
3096.00,0.0164
3095.00,0.0164
3094.00,0.0164
3093.00,0.0164
3092.00,0.0164
3091.00,0.0164
3090.00,0.0164
3089.00,0.0164
3088.00,0.0165
3087.00,0.0165
3086.00,0.0165
3085.00,0.0165
3084.00,0.0164
3083.00,0.0164
3082.00,0.0164
3081.00,0.0163
3080.00,0.0163
3079.00,0.0163
3078.00,0.0164
3077.00,0.0164
3076.00,0.0165
3075.00,0.0165
3074.00,0.0166
3073.00,0.0166
3072.00,0.0165
3071.00,0.0165
3070.00,0.0165
3069.00,0.0164
3068.00,0.0164
3067.00,0.0164
3066.00,0.0164
3065.00,0.0164
3064.00,0.0164
3063.00,0.0163
3062.00,0.0163
3061.00,0.0162
3060.00,0.0162
3059.00,0.0161
3058.00,0.0160
3057.00,0.0160
3056.00,0.0159
3055.00,0.0159
3054.00,0.0158
3053.00,0.0157
3052.00,0.0156
3051.00,0.0156
3050.00,0.0155
3049.00,0.0154
3048.00,0.0154
3047.00,0.0153
3046.00,0.0152
3045.00,0.0151
3044.00,0.0150
3043.00,0.0150
3042.00,0.0149
3041.00,0.0149
3040.00,0.0149
3039.00,0.0148
3038.00,0.0148
3037.00,0.0147
3036.00,0.0146
3035.00,0.0145
3034.00,0.0145
3033.00,0.0144
3032.00,0.0144
3031.00,0.0144
3030.00,0.0143
3029.00,0.0143
3028.00,0.0142
3027.00,0.0141
3026.00,0.0140
3025.00,0.0140
3024.00,0.0139
3023.00,0.0139
3022.00,0.0139
3021.00,0.0138
3020.00,0.0137
3019.00,0.0136
3018.00,0.0135
3017.00,0.0135
3016.00,0.0134
3015.00,0.0133
3014.00,0.0132
3013.00,0.0132
3012.00,0.0132
3011.00,0.0132
3010.00,0.0132
3009.00,0.0132
3008.00,0.0132
3007.00,0.0132
3006.00,0.0132
3005.00,0.0132
3004.00,0.0132
3003.00,0.0131
3002.00,0.0131
3001.00,0.0131
3000.00,0.0131
2999.00,0.0131
2998.00,0.0131
2997.00,0.0132
2996.00,0.0132
2995.00,0.0133
2994.00,0.0133
2993.00,0.0134
2992.00,0.0135
2991.00,0.0136
2990.00,0.0137
2989.00,0.0138
2988.00,0.0139
2987.00,0.0141
2986.00,0.0142
2985.00,0.0143
2984.00,0.0145
2983.00,0.0146
2982.00,0.0147
2981.00,0.0149
2980.00,0.0151
2979.00,0.0153
2978.00,0.0155
2977.00,0.0157
2976.00,0.0159
2975.00,0.0161
2974.00,0.0163
2973.00,0.0165
2972.00,0.0167
2971.00,0.0169
2970.00,0.0170
2969.00,0.0172
2968.00,0.0173
2967.00,0.0174
2966.00,0.0175
2965.00,0.0177
2964.00,0.0178
2963.00,0.0178
2962.00,0.0179
2961.00,0.0179
2960.00,0.0179
2959.00,0.0179
2958.00,0.0179
2957.00,0.0178
2956.00,0.0178
2955.00,0.0177
2954.00,0.0176
2953.00,0.0175
2952.00,0.0174
2951.00,0.0173
2950.00,0.0173
2949.00,0.0173
2948.00,0.0172
2947.00,0.0173
2946.00,0.0173
2945.00,0.0174
2944.00,0.0175
2943.00,0.0176
2942.00,0.0177
2941.00,0.0179
2940.00,0.0180
2939.00,0.0182
2938.00,0.0183
2937.00,0.0185
2936.00,0.0186
2935.00,0.0187
2934.00,0.0188
2933.00,0.0189
2932.00,0.0189
2931.00,0.0189
2930.00,0.0189
2929.00,0.0189
2928.00,0.0189
2927.00,0.0188
2926.00,0.0188
2925.00,0.0187
2924.00,0.0186
2923.00,0.0185
2922.00,0.0184
2921.00,0.0182
2920.00,0.0180
2919.00,0.0178
2918.00,0.0176
2917.00,0.0174
2916.00,0.0171
2915.00,0.0170
2914.00,0.0168
2913.00,0.0167
2912.00,0.0165
2911.00,0.0164
2910.00,0.0163
2909.00,0.0162
2908.00,0.0161
2907.00,0.0160
2906.00,0.0159
2905.00,0.0157
2904.00,0.0156
2903.00,0.0155
2902.00,0.0154
2901.00,0.0153
2900.00,0.0152
2899.00,0.0151
2898.00,0.0151
2897.00,0.0150
2896.00,0.0149
2895.00,0.0148
2894.00,0.0147
2893.00,0.0147
2892.00,0.0146
2891.00,0.0146
2890.00,0.0145
2889.00,0.0145
2888.00,0.0144
2887.00,0.0144
2886.00,0.0144
2885.00,0.0144
2884.00,0.0145
2883.00,0.0145
2882.00,0.0146
2881.00,0.0146
2880.00,0.0147
2879.00,0.0147
2878.00,0.0147
2877.00,0.0148
2876.00,0.0148
2875.00,0.0147
2874.00,0.0147
2873.00,0.0147
2872.00,0.0146
2871.00,0.0146
2870.00,0.0145
2869.00,0.0144
2868.00,0.0143
2867.00,0.0141
2866.00,0.0140
2865.00,0.0139
2864.00,0.0138
2863.00,0.0137
2862.00,0.0136
2861.00,0.0135
2860.00,0.0135
2859.00,0.0134
2858.00,0.0134
2857.00,0.0133
2856.00,0.0133
2855.00,0.0132
2854.00,0.0131
2853.00,0.0130
2852.00,0.0128
2851.00,0.0127
2850.00,0.0125
2849.00,0.0124
2848.00,0.0122
2847.00,0.0120
2846.00,0.0119
2845.00,0.0117
2844.00,0.0116
2843.00,0.0115
2842.00,0.0114
2841.00,0.0113
2840.00,0.0112
2839.00,0.0111
2838.00,0.0110
2837.00,0.0109
2836.00,0.0108
2835.00,0.0107
2834.00,0.0107
2833.00,0.0106
2832.00,0.0106
2831.00,0.0105
2830.00,0.0105
2829.00,0.0104
2828.00,0.0104
2827.00,0.0103
2826.00,0.0103
2825.00,0.0102
2824.00,0.0102
2823.00,0.0102
2822.00,0.0102
2821.00,0.0101
2820.00,0.0101
2819.00,0.0100
2818.00,0.0100
2817.00,0.0099
2816.00,0.0099
2815.00,0.0099
2814.00,0.0098
2813.00,0.0098
2812.00,0.0097
2811.00,0.0097
2810.00,0.0097
2809.00,0.0097
2808.00,0.0096
2807.00,0.0096
2806.00,0.0096
2805.00,0.0095
2804.00,0.0095
2803.00,0.0095
2802.00,0.0095
2801.00,0.0095
2800.00,0.0094
2799.00,0.0094
2798.00,0.0094
2797.00,0.0093
2796.00,0.0093
2795.00,0.0093
2794.00,0.0092
2793.00,0.0092
2792.00,0.0092
2791.00,0.0092
2790.00,0.0091
2789.00,0.0091
2788.00,0.0091
2787.00,0.0091
2786.00,0.0090
2785.00,0.0090
2784.00,0.0089
2783.00,0.0089
2782.00,0.0089
2781.00,0.0088
2780.00,0.0088
2779.00,0.0088
2778.00,0.0088
2777.00,0.0088
2776.00,0.0087
2775.00,0.0087
2774.00,0.0087
2773.00,0.0087
2772.00,0.0087
2771.00,0.0087
2770.00,0.0087
2769.00,0.0086
2768.00,0.0086
2767.00,0.0085
2766.00,0.0085
2765.00,0.0084
2764.00,0.0084
2763.00,0.0084
2762.00,0.0084
2761.00,0.0084
2760.00,0.0084
2759.00,0.0084
2758.00,0.0083
2757.00,0.0083
2756.00,0.0083
2755.00,0.0082
2754.00,0.0082
2753.00,0.0082
2752.00,0.0082
2751.00,0.0082
2750.00,0.0081
2749.00,0.0081
2748.00,0.0080
2747.00,0.0080
2746.00,0.0080
2745.00,0.0080
2744.00,0.0080
2743.00,0.0080
2742.00,0.0079
2741.00,0.0079
2740.00,0.0079
2739.00,0.0079
2738.00,0.0079
2737.00,0.0078
2736.00,0.0078
2735.00,0.0078
2734.00,0.0077
2733.00,0.0077
2732.00,0.0077
2731.00,0.0077
2730.00,0.0077
2729.00,0.0077
2728.00,0.0076
2727.00,0.0076
2726.00,0.0076
2725.00,0.0076
2724.00,0.0076
2723.00,0.0075
2722.00,0.0075
2721.00,0.0075
2720.00,0.0074
2719.00,0.0074
2718.00,0.0074
2717.00,0.0074
2716.00,0.0074
2715.00,0.0073
2714.00,0.0073
2713.00,0.0073
2712.00,0.0073
2711.00,0.0072
2710.00,0.0072
2709.00,0.0072
2708.00,0.0072
2707.00,0.0071
2706.00,0.0071
2705.00,0.0071
2704.00,0.0071
2703.00,0.0071
2702.00,0.0071
2701.00,0.0071
2700.00,0.0070
2699.00,0.0070
2698.00,0.0070
2697.00,0.0070
2696.00,0.0070
2695.00,0.0070
2694.00,0.0070
2693.00,0.0069
2692.00,0.0069
2691.00,0.0069
2690.00,0.0069
2689.00,0.0069
2688.00,0.0069
2687.00,0.0069
2686.00,0.0068
2685.00,0.0068
2684.00,0.0068
2683.00,0.0068
2682.00,0.0068
2681.00,0.0067
2680.00,0.0067
2679.00,0.0067
2678.00,0.0067
2677.00,0.0067
2676.00,0.0067
2675.00,0.0067
2674.00,0.0067
2673.00,0.0067
2672.00,0.0067
2671.00,0.0067
2670.00,0.0067
2669.00,0.0067
2668.00,0.0067
2667.00,0.0067
2666.00,0.0068
2665.00,0.0068
2664.00,0.0068
2663.00,0.0069
2662.00,0.0069
2661.00,0.0069
2660.00,0.0069
2659.00,0.0070
2658.00,0.0070
2657.00,0.0070
2656.00,0.0070
2655.00,0.0070
2654.00,0.0070
2653.00,0.0070
2652.00,0.0070
2651.00,0.0070
2650.00,0.0070
2649.00,0.0070
2648.00,0.0070
2647.00,0.0069
2646.00,0.0069
2645.00,0.0069
2644.00,0.0069
2643.00,0.0069
2642.00,0.0069
2641.00,0.0069
2640.00,0.0068
2639.00,0.0068
2638.00,0.0068
2637.00,0.0068
2636.00,0.0068
2635.00,0.0068
2634.00,0.0068
2633.00,0.0068
2632.00,0.0068
2631.00,0.0067
2630.00,0.0067
2629.00,0.0067
2628.00,0.0067
2627.00,0.0067
2626.00,0.0067
2625.00,0.0067
2624.00,0.0067
2623.00,0.0067
2622.00,0.0066
2621.00,0.0066
2620.00,0.0066
2619.00,0.0065
2618.00,0.0065
2617.00,0.0065
2616.00,0.0065
2615.00,0.0065
2614.00,0.0065
2613.00,0.0065
2612.00,0.0065
2611.00,0.0064
2610.00,0.0064
2609.00,0.0064
2608.00,0.0064
2607.00,0.0064
2606.00,0.0064
2605.00,0.0064
2604.00,0.0064
2603.00,0.0063
2602.00,0.0063
2601.00,0.0063
2600.00,0.0062
2599.00,0.0062
2598.00,0.0062
2597.00,0.0062
2596.00,0.0062
2595.00,0.0062
2594.00,0.0061
2593.00,0.0061
2592.00,0.0061
2591.00,0.0061
2590.00,0.0060
2589.00,0.0060
2588.00,0.0060
2587.00,0.0060
2586.00,0.0060
2585.00,0.0060
2584.00,0.0060
2583.00,0.0059
2582.00,0.0059
2581.00,0.0059
2580.00,0.0059
2579.00,0.0059
2578.00,0.0059
2577.00,0.0059
2576.00,0.0059
2575.00,0.0059
2574.00,0.0058
2573.00,0.0058
2572.00,0.0058
2571.00,0.0058
2570.00,0.0057
2569.00,0.0057
2568.00,0.0056
2567.00,0.0056
2566.00,0.0056
2565.00,0.0056
2564.00,0.0056
2563.00,0.0056
2562.00,0.0056
2561.00,0.0056
2560.00,0.0056
2559.00,0.0056
2558.00,0.0055
2557.00,0.0055
2556.00,0.0055
2555.00,0.0055
2554.00,0.0055
2553.00,0.0055
2552.00,0.0055
2551.00,0.0055
2550.00,0.0055
2549.00,0.0054
2548.00,0.0054
2547.00,0.0054
2546.00,0.0054
2545.00,0.0054
2544.00,0.0053
2543.00,0.0053
2542.00,0.0053
2541.00,0.0053
2540.00,0.0053
2539.00,0.0053
2538.00,0.0053
2537.00,0.0053
2536.00,0.0053
2535.00,0.0053
2534.00,0.0053
2533.00,0.0053
2532.00,0.0053
2531.00,0.0053
2530.00,0.0053
2529.00,0.0053
2528.00,0.0052
2527.00,0.0052
2526.00,0.0051
2525.00,0.0051
2524.00,0.0051
2523.00,0.0051
2522.00,0.0051
2521.00,0.0050
2520.00,0.0050
2519.00,0.0050
2518.00,0.0050
2517.00,0.0051
2516.00,0.0051
2515.00,0.0051
2514.00,0.0051
2513.00,0.0050
2512.00,0.0050
2511.00,0.0050
2510.00,0.0050
2509.00,0.0050
2508.00,0.0050
2507.00,0.0050
2506.00,0.0050
2505.00,0.0050
2504.00,0.0050
2503.00,0.0050
2502.00,0.0049
2501.00,0.0049
2500.00,0.0049
2499.00,0.0049
2498.00,0.0049
2497.00,0.0049
2496.00,0.0048
2495.00,0.0048
2494.00,0.0048
2493.00,0.0048
2492.00,0.0048
2491.00,0.0048
2490.00,0.0048
2489.00,0.0048
2488.00,0.0047
2487.00,0.0047
2486.00,0.0047
2485.00,0.0047
2484.00,0.0047
2483.00,0.0047
2482.00,0.0047
2481.00,0.0047
2480.00,0.0047
2479.00,0.0047
2478.00,0.0047
2477.00,0.0047
2476.00,0.0047
2475.00,0.0046
2474.00,0.0046
2473.00,0.0046
2472.00,0.0046
2471.00,0.0046
2470.00,0.0046
2469.00,0.0046
2468.00,0.0046
2467.00,0.0047
2466.00,0.0047
2465.00,0.0047
2464.00,0.0047
2463.00,0.0047
2462.00,0.0047
2461.00,0.0047
2460.00,0.0046
2459.00,0.0046
2458.00,0.0046
2457.00,0.0046
2456.00,0.0047
2455.00,0.0047
2454.00,0.0047
2453.00,0.0047
2452.00,0.0047
2451.00,0.0047
2450.00,0.0046
2449.00,0.0046
2448.00,0.0045
2447.00,0.0045
2446.00,0.0045
2445.00,0.0045
2444.00,0.0044
2443.00,0.0044
2442.00,0.0044
2441.00,0.0044
2440.00,0.0044
2439.00,0.0044
2438.00,0.0044
2437.00,0.0044
2436.00,0.0044
2435.00,0.0043
2434.00,0.0043
2433.00,0.0043
2432.00,0.0043
2431.00,0.0042
2430.00,0.0042
2429.00,0.0041
2428.00,0.0041
2427.00,0.0041
2426.00,0.0041
2425.00,0.0041
2424.00,0.0041
2423.00,0.0041
2422.00,0.0041
2421.00,0.0041
2420.00,0.0041
2419.00,0.0041
2418.00,0.0040
2417.00,0.0040
2416.00,0.0040
2415.00,0.0040
2414.00,0.0040
2413.00,0.0040
2412.00,0.0040
2411.00,0.0039
2410.00,0.0039
2409.00,0.0039
2408.00,0.0038
2407.00,0.0038
2406.00,0.0037
2405.00,0.0037
2404.00,0.0037
2403.00,0.0037
2402.00,0.0037
2401.00,0.0037
2400.00,0.0037
2399.00,0.0037
2398.00,0.0037
2397.00,0.0037
2396.00,0.0037
2395.00,0.0036
2394.00,0.0036
2393.00,0.0036
2392.00,0.0037
2391.00,0.0036
2390.00,0.0036
2389.00,0.0036
2388.00,0.0035
2387.00,0.0034
2386.00,0.0034
2385.00,0.0033
2384.00,0.0032
2383.00,0.0032
2382.00,0.0031
2381.00,0.0031
2380.00,0.0031
2379.00,0.0031
2378.00,0.0031
2377.00,0.0031
2376.00,0.0032
2375.00,0.0031
2374.00,0.0031
2373.00,0.0030
2372.00,0.0030
2371.00,0.0029
2370.00,0.0029
2369.00,0.0029
2368.00,0.0029
2367.00,0.0029
2366.00,0.0029
2365.00,0.0029
2364.00,0.0030
2363.00,0.0030
2362.00,0.0031
2361.00,0.0031
2360.00,0.0031
2359.00,0.0031
2358.00,0.0031
2357.00,0.0031
2356.00,0.0032
2355.00,0.0032
2354.00,0.0032
2353.00,0.0031
2352.00,0.0031
2351.00,0.0031
2350.00,0.0032
2349.00,0.0032
2348.00,0.0032
2347.00,0.0033
2346.00,0.0032
2345.00,0.0033
2344.00,0.0033
2343.00,0.0033
2342.00,0.0034
2341.00,0.0034
2340.00,0.0035
2339.00,0.0035
2338.00,0.0035
2337.00,0.0035
2336.00,0.0035
2335.00,0.0035
2334.00,0.0035
2333.00,0.0034
2332.00,0.0034
2331.00,0.0034
2330.00,0.0035
2329.00,0.0037
2328.00,0.0041
2327.00,0.0045
2326.00,0.0048
2325.00,0.0049
2324.00,0.0048
2323.00,0.0045
2322.00,0.0043
2321.00,0.0042
2320.00,0.0041
2319.00,0.0041
2318.00,0.0041
2317.00,0.0041
2316.00,0.0040
2315.00,0.0040
2314.00,0.0039
2313.00,0.0038
2312.00,0.0038
2311.00,0.0037
2310.00,0.0037
2309.00,0.0037
2308.00,0.0038
2307.00,0.0038
2306.00,0.0038
2305.00,0.0039
2304.00,0.0039
2303.00,0.0039
2302.00,0.0039
2301.00,0.0039
2300.00,0.0039
2299.00,0.0040
2298.00,0.0040
2297.00,0.0041
2296.00,0.0042
2295.00,0.0042
2294.00,0.0043
2293.00,0.0044
2292.00,0.0045
2291.00,0.0046
2290.00,0.0047
2289.00,0.0048
2288.00,0.0049
2287.00,0.0049
2286.00,0.0048
2285.00,0.0048
2284.00,0.0046
2283.00,0.0045
2282.00,0.0044
2281.00,0.0044
2280.00,0.0043
2279.00,0.0043
2278.00,0.0043
2277.00,0.0043
2276.00,0.0043
2275.00,0.0043
2274.00,0.0042
2273.00,0.0042
2272.00,0.0042
2271.00,0.0042
2270.00,0.0041
2269.00,0.0040
2268.00,0.0039
2267.00,0.0039
2266.00,0.0039
2265.00,0.0039
2264.00,0.0039
2263.00,0.0040
2262.00,0.0040
2261.00,0.0040
2260.00,0.0041
2259.00,0.0041
2258.00,0.0040
2257.00,0.0040
2256.00,0.0038
2255.00,0.0037
2254.00,0.0035
2253.00,0.0035
2252.00,0.0035
2251.00,0.0035
2250.00,0.0036
2249.00,0.0037
2248.00,0.0038
2247.00,0.0038
2246.00,0.0038
2245.00,0.0038
2244.00,0.0037
2243.00,0.0037
2242.00,0.0037
2241.00,0.0037
2240.00,0.0037
2239.00,0.0037
2238.00,0.0038
2237.00,0.0038
2236.00,0.0038
2235.00,0.0038
2234.00,0.0037
2233.00,0.0037
2232.00,0.0036
2231.00,0.0036
2230.00,0.0035
2229.00,0.0035
2228.00,0.0035
2227.00,0.0036
2226.00,0.0036
2225.00,0.0037
2224.00,0.0037
2223.00,0.0037
2222.00,0.0037
2221.00,0.0037
2220.00,0.0037
2219.00,0.0038
2218.00,0.0037
2217.00,0.0037
2216.00,0.0037
2215.00,0.0037
2214.00,0.0037
2213.00,0.0036
2212.00,0.0036
2211.00,0.0036
2210.00,0.0035
2209.00,0.0035
2208.00,0.0036
2207.00,0.0036
2206.00,0.0036
2205.00,0.0036
2204.00,0.0035
2203.00,0.0035
2202.00,0.0035
2201.00,0.0036
2200.00,0.0037
2199.00,0.0038
2198.00,0.0037
2197.00,0.0036
2196.00,0.0036
2195.00,0.0036
2194.00,0.0037
2193.00,0.0037
2192.00,0.0038
2191.00,0.0038
2190.00,0.0038
2189.00,0.0039
2188.00,0.0040
2187.00,0.0040
2186.00,0.0039
2185.00,0.0037
2184.00,0.0035
2183.00,0.0032
2182.00,0.0030
2181.00,0.0030
2180.00,0.0031
2179.00,0.0031
2178.00,0.0030
2177.00,0.0028
2176.00,0.0027
2175.00,0.0028
2174.00,0.0030
2173.00,0.0033
2172.00,0.0035
2171.00,0.0038
2170.00,0.0040
2169.00,0.0043
2168.00,0.0044
2167.00,0.0045
2166.00,0.0045
2165.00,0.0045
2164.00,0.0048
2163.00,0.0048
2162.00,0.0044
2161.00,0.0032
2160.00,0.0017
2159.00,0.0005
2158.00,-0.0001
2157.00,-0.0000
2156.00,0.0003
2155.00,0.0007
2154.00,0.0010
2153.00,0.0012
2152.00,0.0014
2151.00,0.0015
2150.00,0.0015
2149.00,0.0015
2148.00,0.0016
2147.00,0.0016
2146.00,0.0016
2145.00,0.0017
2144.00,0.0017
2143.00,0.0017
2142.00,0.0016
2141.00,0.0015
2140.00,0.0015
2139.00,0.0015
2138.00,0.0015
2137.00,0.0014
2136.00,0.0013
2135.00,0.0011
2134.00,0.0011
2133.00,0.0012
2132.00,0.0013
2131.00,0.0015
2130.00,0.0017
2129.00,0.0019
2128.00,0.0020
2127.00,0.0021
2126.00,0.0023
2125.00,0.0025
2124.00,0.0026
2123.00,0.0028
2122.00,0.0028
2121.00,0.0029
2120.00,0.0029
2119.00,0.0029
2118.00,0.0030
2117.00,0.0032
2116.00,0.0033
2115.00,0.0034
2114.00,0.0034
2113.00,0.0034
2112.00,0.0034
2111.00,0.0033
2110.00,0.0033
2109.00,0.0033
2108.00,0.0034
2107.00,0.0034
2106.00,0.0035
2105.00,0.0034
2104.00,0.0033
2103.00,0.0032
2102.00,0.0032
2101.00,0.0032
2100.00,0.0032
2099.00,0.0031
2098.00,0.0030
2097.00,0.0028
2096.00,0.0027
2095.00,0.0027
2094.00,0.0027
2093.00,0.0029
2092.00,0.0031
2091.00,0.0032
2090.00,0.0033
2089.00,0.0033
2088.00,0.0033
2087.00,0.0032
2086.00,0.0032
2085.00,0.0032
2084.00,0.0033
2083.00,0.0034
2082.00,0.0035
2081.00,0.0035
2080.00,0.0035
2079.00,0.0034
2078.00,0.0034
2077.00,0.0033
2076.00,0.0034
2075.00,0.0034
2074.00,0.0034
2073.00,0.0034
2072.00,0.0034
2071.00,0.0033
2070.00,0.0033
2069.00,0.0032
2068.00,0.0031
2067.00,0.0030
2066.00,0.0030
2065.00,0.0029
2064.00,0.0029
2063.00,0.0029
2062.00,0.0029
2061.00,0.0029
2060.00,0.0030
2059.00,0.0031
2058.00,0.0031
2057.00,0.0030
2056.00,0.0030
2055.00,0.0030
2054.00,0.0033
2053.00,0.0037
2052.00,0.0041
2051.00,0.0042
2050.00,0.0040
2049.00,0.0037
2048.00,0.0033
2047.00,0.0031
2046.00,0.0029
2045.00,0.0029
2044.00,0.0029
2043.00,0.0029
2042.00,0.0029
2041.00,0.0029
2040.00,0.0029
2039.00,0.0029
2038.00,0.0029
2037.00,0.0030
2036.00,0.0030
2035.00,0.0029
2034.00,0.0026
2033.00,0.0024
2032.00,0.0023
2031.00,0.0022
2030.00,0.0020
2029.00,0.0020
2028.00,0.0019
2027.00,0.0019
2026.00,0.0019
2025.00,0.0020
2024.00,0.0020
2023.00,0.0020
2022.00,0.0020
2021.00,0.0020
2020.00,0.0021
2019.00,0.0021
2018.00,0.0021
2017.00,0.0020
2016.00,0.0020
2015.00,0.0019
2014.00,0.0020
2013.00,0.0021
2012.00,0.0022
2011.00,0.0023
2010.00,0.0023
2009.00,0.0022
2008.00,0.0019
2007.00,0.0016
2006.00,0.0013
2005.00,0.0012
2004.00,0.0014
2003.00,0.0016
2002.00,0.0018
2001.00,0.0019
2000.00,0.0020
1999.00,0.0020
1998.00,0.0020
1997.00,0.0022
1996.00,0.0024
1995.00,0.0025
1994.00,0.0026
1993.00,0.0026
1992.00,0.0025
1991.00,0.0024
1990.00,0.0024
1989.00,0.0024
1988.00,0.0025
1987.00,0.0026
1986.00,0.0028
1985.00,0.0029
1984.00,0.0032
1983.00,0.0035
1982.00,0.0038
1981.00,0.0040
1980.00,0.0040
1979.00,0.0035
1978.00,0.0028
1977.00,0.0021
1976.00,0.0017
1975.00,0.0015
1974.00,0.0014
1973.00,0.0015
1972.00,0.0017
1971.00,0.0017
1970.00,0.0016
1969.00,0.0015
1968.00,0.0014
1967.00,0.0015
1966.00,0.0016
1965.00,0.0017
1964.00,0.0018
1963.00,0.0017
1962.00,0.0016
1961.00,0.0014
1960.00,0.0013
1959.00,0.0013
1958.00,0.0015
1957.00,0.0017
1956.00,0.0019
1955.00,0.0020
1954.00,0.0020
1953.00,0.0019
1952.00,0.0019
1951.00,0.0019
1950.00,0.0018
1949.00,0.0019
1948.00,0.0019
1947.00,0.0019
1946.00,0.0019
1945.00,0.0018
1944.00,0.0019
1943.00,0.0019
1942.00,0.0019
1941.00,0.0019
1940.00,0.0019
1939.00,0.0019
1938.00,0.0019
1937.00,0.0020
1936.00,0.0020
1935.00,0.0020
1934.00,0.0019
1933.00,0.0019
1932.00,0.0019
1931.00,0.0019
1930.00,0.0019
1929.00,0.0020
1928.00,0.0020
1927.00,0.0021
1926.00,0.0021
1925.00,0.0021
1924.00,0.0020
1923.00,0.0020
1922.00,0.0021
1921.00,0.0022
1920.00,0.0022
1919.00,0.0023
1918.00,0.0022
1917.00,0.0022
1916.00,0.0022
1915.00,0.0022
1914.00,0.0022
1913.00,0.0022
1912.00,0.0022
1911.00,0.0022
1910.00,0.0022
1909.00,0.0022
1908.00,0.0023
1907.00,0.0023
1906.00,0.0023
1905.00,0.0023
1904.00,0.0023
1903.00,0.0023
1902.00,0.0022
1901.00,0.0023
1900.00,0.0023
1899.00,0.0023
1898.00,0.0023
1897.00,0.0022
1896.00,0.0022
1895.00,0.0023
1894.00,0.0023
1893.00,0.0023
1892.00,0.0023
1891.00,0.0023
1890.00,0.0023
1889.00,0.0023
1888.00,0.0023
1887.00,0.0024
1886.00,0.0023
1885.00,0.0023
1884.00,0.0023
1883.00,0.0023
1882.00,0.0023
1881.00,0.0023
1880.00,0.0023
1879.00,0.0023
1878.00,0.0024
1877.00,0.0024
1876.00,0.0024
1875.00,0.0024
1874.00,0.0024
1873.00,0.0024
1872.00,0.0023
1871.00,0.0021
1870.00,0.0020
1869.00,0.0019
1868.00,0.0020
1867.00,0.0021
1866.00,0.0022
1865.00,0.0023
1864.00,0.0023
1863.00,0.0023
1862.00,0.0023
1861.00,0.0023
1860.00,0.0023
1859.00,0.0023
1858.00,0.0023
1857.00,0.0023
1856.00,0.0023
1855.00,0.0023
1854.00,0.0023
1853.00,0.0023
1852.00,0.0023
1851.00,0.0023
1850.00,0.0023
1849.00,0.0022
1848.00,0.0021
1847.00,0.0021
1846.00,0.0020
1845.00,0.0021
1844.00,0.0023
1843.00,0.0024
1842.00,0.0024
1841.00,0.0024
1840.00,0.0024
1839.00,0.0023
1838.00,0.0023
1837.00,0.0023
1836.00,0.0023
1835.00,0.0024
1834.00,0.0024
1833.00,0.0023
1832.00,0.0022
1831.00,0.0021
1830.00,0.0021
1829.00,0.0022
1828.00,0.0022
1827.00,0.0023
1826.00,0.0023
1825.00,0.0024
1824.00,0.0025
1823.00,0.0025
1822.00,0.0025
1821.00,0.0025
1820.00,0.0024
1819.00,0.0023
1818.00,0.0023
1817.00,0.0022
1816.00,0.0023
1815.00,0.0023
1814.00,0.0023
1813.00,0.0023
1812.00,0.0023
1811.00,0.0023
1810.00,0.0023
1809.00,0.0024
1808.00,0.0025
1807.00,0.0025
1806.00,0.0025
1805.00,0.0025
1804.00,0.0025
1803.00,0.0025
1802.00,0.0025
1801.00,0.0024
1800.00,0.0025
1799.00,0.0025
1798.00,0.0025
1797.00,0.0025
1796.00,0.0025
1795.00,0.0025
1794.00,0.0025
1793.00,0.0025
1792.00,0.0026
1791.00,0.0027
1790.00,0.0028
1789.00,0.0028
1788.00,0.0028
1787.00,0.0028
1786.00,0.0028
1785.00,0.0028
1784.00,0.0028
1783.00,0.0027
1782.00,0.0027
1781.00,0.0027
1780.00,0.0027
1779.00,0.0028
1778.00,0.0028
1777.00,0.0027
1776.00,0.0026
1775.00,0.0026
1774.00,0.0025
1773.00,0.0025
1772.00,0.0026
1771.00,0.0027
1770.00,0.0028
1769.00,0.0029
1768.00,0.0031
1767.00,0.0031
1766.00,0.0031
1765.00,0.0031
1764.00,0.0031
1763.00,0.0031
1762.00,0.0031
1761.00,0.0032
1760.00,0.0033
1759.00,0.0033
1758.00,0.0033
1757.00,0.0034
1756.00,0.0035
1755.00,0.0036
1754.00,0.0036
1753.00,0.0037
1752.00,0.0037
1751.00,0.0037
1750.00,0.0037
1749.00,0.0037
1748.00,0.0038
1747.00,0.0039
1746.00,0.0041
1745.00,0.0042
1744.00,0.0043
1743.00,0.0044
1742.00,0.0045
1741.00,0.0046
1740.00,0.0047
1739.00,0.0049
1738.00,0.0050
1737.00,0.0051
1736.00,0.0052
1735.00,0.0054
1734.00,0.0055
1733.00,0.0057
1732.00,0.0056
1731.00,0.0056
1730.00,0.0056
1729.00,0.0058
1728.00,0.0060
1727.00,0.0061
1726.00,0.0062
1725.00,0.0063
1724.00,0.0064
1723.00,0.0065
1722.00,0.0066
1721.00,0.0067
1720.00,0.0068
1719.00,0.0070
1718.00,0.0071
1717.00,0.0074
1716.00,0.0077
1715.00,0.0080
1714.00,0.0083
1713.00,0.0086
1712.00,0.0090
1711.00,0.0093
1710.00,0.0097
1709.00,0.0100
1708.00,0.0104
1707.00,0.0109
1706.00,0.0115
1705.00,0.0122
1704.00,0.0131
1703.00,0.0140
1702.00,0.0149
1701.00,0.0161
1700.00,0.0175
1699.00,0.0188
1698.00,0.0198
1697.00,0.0209
1696.00,0.0222
1695.00,0.0234
1694.00,0.0242
1693.00,0.0247
1692.00,0.0253
1691.00,0.0260
1690.00,0.0266
1689.00,0.0273
1688.00,0.0281
1687.00,0.0290
1686.00,0.0297
1685.00,0.0304
1684.00,0.0310
1683.00,0.0317
1682.00,0.0324
1681.00,0.0333
1680.00,0.0342
1679.00,0.0351
1678.00,0.0360
1677.00,0.0369
1676.00,0.0377
1675.00,0.0385
1674.00,0.0391
1673.00,0.0398
1672.00,0.0406
1671.00,0.0414
1670.00,0.0422
1669.00,0.0429
1668.00,0.0438
1667.00,0.0447
1666.00,0.0456
1665.00,0.0466
1664.00,0.0475
1663.00,0.0483
1662.00,0.0489
1661.00,0.0497
1660.00,0.0506
1659.00,0.0515
1658.00,0.0523
1657.00,0.0532
1656.00,0.0543
1655.00,0.0554
1654.00,0.0560
1653.00,0.0559
1652.00,0.0558
1651.00,0.0560
1650.00,0.0565
1649.00,0.0572
1648.00,0.0579
1647.00,0.0583
1646.00,0.0584
1645.00,0.0587
1644.00,0.0591
1643.00,0.0597
1642.00,0.0603
1641.00,0.0608
1640.00,0.0613
1639.00,0.0618
1638.00,0.0624
1637.00,0.0629
1636.00,0.0631
1635.00,0.0631
1634.00,0.0634
1633.00,0.0639
1632.00,0.0646
1631.00,0.0655
1630.00,0.0661
1629.00,0.0665
1628.00,0.0668
1627.00,0.0670
1626.00,0.0672
1625.00,0.0672
1624.00,0.0669
1623.00,0.0663
1622.00,0.0655
1621.00,0.0649
1620.00,0.0645
1619.00,0.0641
1618.00,0.0631
1617.00,0.0612
1616.00,0.0590
1615.00,0.0571
1614.00,0.0557
1613.00,0.0545
1612.00,0.0533
1611.00,0.0518
1610.00,0.0502
1609.00,0.0486
1608.00,0.0470
1607.00,0.0456
1606.00,0.0443
1605.00,0.0432
1604.00,0.0421
1603.00,0.0410
1602.00,0.0400
1601.00,0.0392
1600.00,0.0384
1599.00,0.0377
1598.00,0.0371
1597.00,0.0365
1596.00,0.0359
1595.00,0.0354
1594.00,0.0349
1593.00,0.0344
1592.00,0.0341
1591.00,0.0337
1590.00,0.0334
1589.00,0.0332
1588.00,0.0330
1587.00,0.0329
1586.00,0.0328
1585.00,0.0327
1584.00,0.0327
1583.00,0.0327
1582.00,0.0327
1581.00,0.0328
1580.00,0.0329
1579.00,0.0331
1578.00,0.0334
1577.00,0.0337
1576.00,0.0338
1575.00,0.0340
1574.00,0.0342
1573.00,0.0346
1572.00,0.0350
1571.00,0.0354
1570.00,0.0358
1569.00,0.0362
1568.00,0.0367
1567.00,0.0372
1566.00,0.0378
1565.00,0.0384
1564.00,0.0390
1563.00,0.0397
1562.00,0.0405
1561.00,0.0414
1560.00,0.0418
1559.00,0.0418
1558.00,0.0421
1557.00,0.0428
1556.00,0.0435
1555.00,0.0443
1554.00,0.0451
1553.00,0.0458
1552.00,0.0465
1551.00,0.0471
1550.00,0.0478
1549.00,0.0484
1548.00,0.0491
1547.00,0.0499
1546.00,0.0505
1545.00,0.0510
1544.00,0.0515
1543.00,0.0519
1542.00,0.0524
1541.00,0.0527
1540.00,0.0530
1539.00,0.0532
1538.00,0.0537
1537.00,0.0542
1536.00,0.0549
1535.00,0.0555
1534.00,0.0558
1533.00,0.0559
1532.00,0.0561
1531.00,0.0565
1530.00,0.0570
1529.00,0.0574
1528.00,0.0576
1527.00,0.0578
1526.00,0.0578
1525.00,0.0579
1524.00,0.0581
1523.00,0.0583
1522.00,0.0584
1521.00,0.0582
1520.00,0.0581
1519.00,0.0583
1518.00,0.0585
1517.00,0.0587
1516.00,0.0587
1515.00,0.0587
1514.00,0.0587
1513.00,0.0586
1512.00,0.0581
1511.00,0.0576
1510.00,0.0571
1509.00,0.0566
1508.00,0.0556
1507.00,0.0538
1506.00,0.0521
1505.00,0.0509
1504.00,0.0502
1503.00,0.0497
1502.00,0.0493
1501.00,0.0486
1500.00,0.0479
1499.00,0.0470
1498.00,0.0460
1497.00,0.0449
1496.00,0.0436
1495.00,0.0425
1494.00,0.0415
1493.00,0.0407
1492.00,0.0398
1491.00,0.0387
1490.00,0.0374
1489.00,0.0361
1488.00,0.0352
1487.00,0.0345
1486.00,0.0339
1485.00,0.0334
1484.00,0.0328
1483.00,0.0323
1482.00,0.0317
1481.00,0.0312
1480.00,0.0309
1479.00,0.0306
1478.00,0.0305
1477.00,0.0303
1476.00,0.0303
1475.00,0.0303
1474.00,0.0304
1473.00,0.0306
1472.00,0.0308
1471.00,0.0312
1470.00,0.0315
1469.00,0.0318
1468.00,0.0320
1467.00,0.0322
1466.00,0.0322
1465.00,0.0322
1464.00,0.0322
1463.00,0.0323
1462.00,0.0324
1461.00,0.0326
1460.00,0.0328
1459.00,0.0331
1458.00,0.0334
1457.00,0.0336
1456.00,0.0337
1455.00,0.0338
1454.00,0.0338
1453.00,0.0339
1452.00,0.0340
1451.00,0.0341
1450.00,0.0341
1449.00,0.0340
1448.00,0.0339
1447.00,0.0338
1446.00,0.0337
1445.00,0.0336
1444.00,0.0335
1443.00,0.0334
1442.00,0.0333
1441.00,0.0331
1440.00,0.0330
1439.00,0.0329
1438.00,0.0328
1437.00,0.0324
1436.00,0.0318
1435.00,0.0314
1434.00,0.0310
1433.00,0.0307
1432.00,0.0304
1431.00,0.0301
1430.00,0.0298
1429.00,0.0296
1428.00,0.0294
1427.00,0.0293
1426.00,0.0292
1425.00,0.0292
1424.00,0.0291
1423.00,0.0292
1422.00,0.0294
1421.00,0.0296
1420.00,0.0298
1419.00,0.0298
1418.00,0.0299
1417.00,0.0300
1416.00,0.0303
1415.00,0.0305
1414.00,0.0308
1413.00,0.0311
1412.00,0.0313
1411.00,0.0315
1410.00,0.0318
1409.00,0.0320
1408.00,0.0322
1407.00,0.0325
1406.00,0.0327
1405.00,0.0329
1404.00,0.0331
1403.00,0.0334
1402.00,0.0336
1401.00,0.0338
1400.00,0.0340
1399.00,0.0341
1398.00,0.0343
1397.00,0.0344
1396.00,0.0346
1395.00,0.0348
1394.00,0.0349
1393.00,0.0350
1392.00,0.0351
1391.00,0.0352
1390.00,0.0352
1389.00,0.0353
1388.00,0.0351
1387.00,0.0349
1386.00,0.0347
1385.00,0.0344
1384.00,0.0342
1383.00,0.0339
1382.00,0.0336
1381.00,0.0332
1380.00,0.0329
1379.00,0.0326
1378.00,0.0323
1377.00,0.0320
1376.00,0.0317
1375.00,0.0314
1374.00,0.0311
1373.00,0.0309
1372.00,0.0309
1371.00,0.0308
1370.00,0.0307
1369.00,0.0305
1368.00,0.0303
1367.00,0.0301
1366.00,0.0299
1365.00,0.0296
1364.00,0.0292
1363.00,0.0288
1362.00,0.0285
1361.00,0.0283
1360.00,0.0281
1359.00,0.0280
1358.00,0.0278
1357.00,0.0277
1356.00,0.0276
1355.00,0.0275
1354.00,0.0274
1353.00,0.0274
1352.00,0.0274
1351.00,0.0273
1350.00,0.0273
1349.00,0.0273
1348.00,0.0272
1347.00,0.0272
1346.00,0.0272
1345.00,0.0272
1344.00,0.0272
1343.00,0.0272
1342.00,0.0271
1341.00,0.0270
1340.00,0.0269
1339.00,0.0268
1338.00,0.0268
1337.00,0.0268
1336.00,0.0268
1335.00,0.0267
1334.00,0.0267
1333.00,0.0266
1332.00,0.0265
1331.00,0.0265
1330.00,0.0264
1329.00,0.0264
1328.00,0.0264
1327.00,0.0264
1326.00,0.0264
1325.00,0.0264
1324.00,0.0264
1323.00,0.0264
1322.00,0.0264
1321.00,0.0265
1320.00,0.0265
1319.00,0.0265
1318.00,0.0266
1317.00,0.0267
1316.00,0.0267
1315.00,0.0268
1314.00,0.0268
1313.00,0.0269
1312.00,0.0269
1311.00,0.0269
1310.00,0.0269
1309.00,0.0269
1308.00,0.0268
1307.00,0.0268
1306.00,0.0268
1305.00,0.0268
1304.00,0.0268
1303.00,0.0268
1302.00,0.0267
1301.00,0.0267
1300.00,0.0267
1299.00,0.0267
1298.00,0.0267
1297.00,0.0267
1296.00,0.0268
1295.00,0.0268
1294.00,0.0268
1293.00,0.0268
1292.00,0.0269
1291.00,0.0270
1290.00,0.0270
1289.00,0.0271
1288.00,0.0272
1287.00,0.0272
1286.00,0.0273
1285.00,0.0273
1284.00,0.0274
1283.00,0.0274
1282.00,0.0274
1281.00,0.0274
1280.00,0.0275
1279.00,0.0275
1278.00,0.0276
1277.00,0.0276
1276.00,0.0276
1275.00,0.0277
1274.00,0.0277
1273.00,0.0277
1272.00,0.0278
1271.00,0.0278
1270.00,0.0279
1269.00,0.0281
1268.00,0.0282
1267.00,0.0283
1266.00,0.0285
1265.00,0.0287
1264.00,0.0289
1263.00,0.0291
1262.00,0.0293
1261.00,0.0296
1260.00,0.0298
1259.00,0.0301
1258.00,0.0304
1257.00,0.0307
1256.00,0.0310
1255.00,0.0313
1254.00,0.0316
1253.00,0.0319
1252.00,0.0322
1251.00,0.0325
1250.00,0.0328
1249.00,0.0331
1248.00,0.0334
1247.00,0.0337
1246.00,0.0339
1245.00,0.0341
1244.00,0.0344
1243.00,0.0346
1242.00,0.0348
1241.00,0.0349
1240.00,0.0351
1239.00,0.0352
1238.00,0.0353
1237.00,0.0354
1236.00,0.0354
1235.00,0.0355
1234.00,0.0356
1233.00,0.0356
1232.00,0.0356
1231.00,0.0355
1230.00,0.0355
1229.00,0.0354
1228.00,0.0353
1227.00,0.0352
1226.00,0.0350
1225.00,0.0349
1224.00,0.0347
1223.00,0.0345
1222.00,0.0342
1221.00,0.0340
1220.00,0.0337
1219.00,0.0334
1218.00,0.0331
1217.00,0.0328
1216.00,0.0325
1215.00,0.0321
1214.00,0.0317
1213.00,0.0314
1212.00,0.0310
1211.00,0.0306
1210.00,0.0302
1209.00,0.0298
1208.00,0.0294
1207.00,0.0290
1206.00,0.0287
1205.00,0.0283
1204.00,0.0280
1203.00,0.0276
1202.00,0.0272
1201.00,0.0269
1200.00,0.0265
1199.00,0.0262
1198.00,0.0259
1197.00,0.0256
1196.00,0.0253
1195.00,0.0251
1194.00,0.0249
1193.00,0.0247
1192.00,0.0245
1191.00,0.0243
1190.00,0.0242
1189.00,0.0240
1188.00,0.0238
1187.00,0.0237
1186.00,0.0236
1185.00,0.0235
1184.00,0.0234
1183.00,0.0233
1182.00,0.0232
1181.00,0.0232
1180.00,0.0232
1179.00,0.0233
1178.00,0.0234
1177.00,0.0235
1176.00,0.0237
1175.00,0.0239
1174.00,0.0241
1173.00,0.0243
1172.00,0.0245
1171.00,0.0247
1170.00,0.0249
1169.00,0.0252
1168.00,0.0254
1167.00,0.0257
1166.00,0.0260
1165.00,0.0263
1164.00,0.0266
1163.00,0.0269
1162.00,0.0272
1161.00,0.0276
1160.00,0.0279
1159.00,0.0282
1158.00,0.0284
1157.00,0.0286
1156.00,0.0288
1155.00,0.0289
1154.00,0.0290
1153.00,0.0291
1152.00,0.0290
1151.00,0.0290
1150.00,0.0289
1149.00,0.0288
1148.00,0.0286
1147.00,0.0285
1146.00,0.0283
1145.00,0.0281
1144.00,0.0278
1143.00,0.0276
1142.00,0.0274
1141.00,0.0272
1140.00,0.0270
1139.00,0.0269
1138.00,0.0267
1137.00,0.0267
1136.00,0.0267
1135.00,0.0267
1134.00,0.0268
1133.00,0.0268
1132.00,0.0269
1131.00,0.0270
1130.00,0.0272
1129.00,0.0273
1128.00,0.0274
1127.00,0.0276
1126.00,0.0277
1125.00,0.0278
1124.00,0.0280
1123.00,0.0281
1122.00,0.0282
1121.00,0.0283
1120.00,0.0284
1119.00,0.0285
1118.00,0.0286
1117.00,0.0287
1116.00,0.0289
1115.00,0.0291
1114.00,0.0292
1113.00,0.0294
1112.00,0.0295
1111.00,0.0296
1110.00,0.0298
1109.00,0.0299
1108.00,0.0301
1107.00,0.0303
1106.00,0.0305
1105.00,0.0307
1104.00,0.0309
1103.00,0.0310
1102.00,0.0311
1101.00,0.0313
1100.00,0.0314
1099.00,0.0316
1098.00,0.0318
1097.00,0.0320
1096.00,0.0322
1095.00,0.0325
1094.00,0.0328
1093.00,0.0331
1092.00,0.0335
1091.00,0.0339
1090.00,0.0343
1089.00,0.0348
1088.00,0.0353
1087.00,0.0358
1086.00,0.0363
1085.00,0.0367
1084.00,0.0372
1083.00,0.0376
1082.00,0.0380
1081.00,0.0383
1080.00,0.0386
1079.00,0.0387
1078.00,0.0387
1077.00,0.0387
1076.00,0.0386
1075.00,0.0384
1074.00,0.0382
1073.00,0.0380
1072.00,0.0377
1071.00,0.0375
1070.00,0.0373
1069.00,0.0372
1068.00,0.0372
1067.00,0.0372
1066.00,0.0372
1065.00,0.0374
1064.00,0.0375
1063.00,0.0376
1062.00,0.0378
1061.00,0.0380
1060.00,0.0382
1059.00,0.0384
1058.00,0.0386
1057.00,0.0388
1056.00,0.0390
1055.00,0.0391
1054.00,0.0393
1053.00,0.0394
1052.00,0.0395
1051.00,0.0395
1050.00,0.0396
1049.00,0.0396
1048.00,0.0397
1047.00,0.0398
1046.00,0.0398
1045.00,0.0398
1044.00,0.0399
1043.00,0.0399
1042.00,0.0400
1041.00,0.0400
1040.00,0.0401
1039.00,0.0401
1038.00,0.0401
1037.00,0.0401
1036.00,0.0401
1035.00,0.0402
1034.00,0.0403
1033.00,0.0404
1032.00,0.0405
1031.00,0.0405
1030.00,0.0406
1029.00,0.0406
1028.00,0.0406
1027.00,0.0405
1026.00,0.0405
1025.00,0.0404
1024.00,0.0402
1023.00,0.0400
1022.00,0.0397
1021.00,0.0395
1020.00,0.0391
1019.00,0.0387
1018.00,0.0383
1017.00,0.0378
1016.00,0.0374
1015.00,0.0369
1014.00,0.0365
1013.00,0.0361
1012.00,0.0356
1011.00,0.0351
1010.00,0.0347
1009.00,0.0343
1008.00,0.0338
1007.00,0.0335
1006.00,0.0331
1005.00,0.0328
1004.00,0.0325
1003.00,0.0322
1002.00,0.0319
1001.00,0.0316
1000.00,0.0313
999.00,0.0309
998.00,0.0306
997.00,0.0302
996.00,0.0298
995.00,0.0294
994.00,0.0290
993.00,0.0285
992.00,0.0280
991.00,0.0275
990.00,0.0270
989.00,0.0266
988.00,0.0261
987.00,0.0256
986.00,0.0251
985.00,0.0247
984.00,0.0243
983.00,0.0239
982.00,0.0235
981.00,0.0231
980.00,0.0229
979.00,0.0226
978.00,0.0224
977.00,0.0223
976.00,0.0222
975.00,0.0220
974.00,0.0219
973.00,0.0219
972.00,0.0218
971.00,0.0217
970.00,0.0217
969.00,0.0217
968.00,0.0217
967.00,0.0216
966.00,0.0216
965.00,0.0215
964.00,0.0215
963.00,0.0214
962.00,0.0214
961.00,0.0214
960.00,0.0213
959.00,0.0213
958.00,0.0214
957.00,0.0214
956.00,0.0213
955.00,0.0213
954.00,0.0213
953.00,0.0213
952.00,0.0213
951.00,0.0213
950.00,0.0213
949.00,0.0213
948.00,0.0212
947.00,0.0213
946.00,0.0213
945.00,0.0213
944.00,0.0214
943.00,0.0214
942.00,0.0215
941.00,0.0216
940.00,0.0216
939.00,0.0217
938.00,0.0218
937.00,0.0219
936.00,0.0219
935.00,0.0219
934.00,0.0219
933.00,0.0219
932.00,0.0220
931.00,0.0220
930.00,0.0219
929.00,0.0219
928.00,0.0218
927.00,0.0217
926.00,0.0217
925.00,0.0216
924.00,0.0215
923.00,0.0215
922.00,0.0214
921.00,0.0213
920.00,0.0212
919.00,0.0210
918.00,0.0209
917.00,0.0208
916.00,0.0207
915.00,0.0206
914.00,0.0204
913.00,0.0203
912.00,0.0201
911.00,0.0200
910.00,0.0199
909.00,0.0198
908.00,0.0197
907.00,0.0197
906.00,0.0197
905.00,0.0196
904.00,0.0196
903.00,0.0195
902.00,0.0194
901.00,0.0194
900.00,0.0193
899.00,0.0193
898.00,0.0193
897.00,0.0194
896.00,0.0194
895.00,0.0194
894.00,0.0194
893.00,0.0193
892.00,0.0193
891.00,0.0194
890.00,0.0194
889.00,0.0195
888.00,0.0195
887.00,0.0195
886.00,0.0195
885.00,0.0195
884.00,0.0195
883.00,0.0195
882.00,0.0195
881.00,0.0194
880.00,0.0194
879.00,0.0194
878.00,0.0194
877.00,0.0194
876.00,0.0194
875.00,0.0194
874.00,0.0194
873.00,0.0194
872.00,0.0194
871.00,0.0195
870.00,0.0196
869.00,0.0196
868.00,0.0197
867.00,0.0197
866.00,0.0198
865.00,0.0199
864.00,0.0200
863.00,0.0201
862.00,0.0202
861.00,0.0203
860.00,0.0204
859.00,0.0205
858.00,0.0207
857.00,0.0208
856.00,0.0210
855.00,0.0211
854.00,0.0212
853.00,0.0214
852.00,0.0215
851.00,0.0216
850.00,0.0217
849.00,0.0217
848.00,0.0217
847.00,0.0218
846.00,0.0218
845.00,0.0219
844.00,0.0219
843.00,0.0220
842.00,0.0222
841.00,0.0223
840.00,0.0224
839.00,0.0225
838.00,0.0226
837.00,0.0228
836.00,0.0229
835.00,0.0230
834.00,0.0231
833.00,0.0232
832.00,0.0234
831.00,0.0235
830.00,0.0236
829.00,0.0238
828.00,0.0239
827.00,0.0239
826.00,0.0239
825.00,0.0239
824.00,0.0239
823.00,0.0238
822.00,0.0238
821.00,0.0238
820.00,0.0238
819.00,0.0239
818.00,0.0239
817.00,0.0240
816.00,0.0241
815.00,0.0242
814.00,0.0243
813.00,0.0243
812.00,0.0244
811.00,0.0246
810.00,0.0247
809.00,0.0248
808.00,0.0249
807.00,0.0249
806.00,0.0250
805.00,0.0250
804.00,0.0251
803.00,0.0252
802.00,0.0253
801.00,0.0255
800.00,0.0257
799.00,0.0258
798.00,0.0260
797.00,0.0262
796.00,0.0263
795.00,0.0264
794.00,0.0266
793.00,0.0267
792.00,0.0269
791.00,0.0271
790.00,0.0273
789.00,0.0275
788.00,0.0277
787.00,0.0279
786.00,0.0282
785.00,0.0284
784.00,0.0286
783.00,0.0288
782.00,0.0290
781.00,0.0291
780.00,0.0293
779.00,0.0294
778.00,0.0295
777.00,0.0296
776.00,0.0297
775.00,0.0297
774.00,0.0298
773.00,0.0299
772.00,0.0300
771.00,0.0302
770.00,0.0304
769.00,0.0306
768.00,0.0307
767.00,0.0308
766.00,0.0309
765.00,0.0310
764.00,0.0312
763.00,0.0313
762.00,0.0314
761.00,0.0316
760.00,0.0318
759.00,0.0319
758.00,0.0321
757.00,0.0323
756.00,0.0324
755.00,0.0325
754.00,0.0326
753.00,0.0327
752.00,0.0329
751.00,0.0331
750.00,0.0332
749.00,0.0334
748.00,0.0336
747.00,0.0337
746.00,0.0338
745.00,0.0340
744.00,0.0341
743.00,0.0342
742.00,0.0344
741.00,0.0345
740.00,0.0345
739.00,0.0346
738.00,0.0347
737.00,0.0348
736.00,0.0349
735.00,0.0350
734.00,0.0352
733.00,0.0354
732.00,0.0356
731.00,0.0358
730.00,0.0360
729.00,0.0362
728.00,0.0364
727.00,0.0366
726.00,0.0369
725.00,0.0372
724.00,0.0375
723.00,0.0378
722.00,0.0381
721.00,0.0384
720.00,0.0387
719.00,0.0390
718.00,0.0394
717.00,0.0397
716.00,0.0400
715.00,0.0403
714.00,0.0406
713.00,0.0409
712.00,0.0412
711.00,0.0415
710.00,0.0418
709.00,0.0421
708.00,0.0425
707.00,0.0429
706.00,0.0434
705.00,0.0438
704.00,0.0441
703.00,0.0444
702.00,0.0447
701.00,0.0449
700.00,0.0451
699.00,0.0452
698.00,0.0453
697.00,0.0454
696.00,0.0454
695.00,0.0454
694.00,0.0454
693.00,0.0453
692.00,0.0453
691.00,0.0453
690.00,0.0453
689.00,0.0454
688.00,0.0455
687.00,0.0456
686.00,0.0456
685.00,0.0457
684.00,0.0458
683.00,0.0460
682.00,0.0461
681.00,0.0463
680.00,0.0464
679.00,0.0465
678.00,0.0466
677.00,0.0466
676.00,0.0467
675.00,0.0467
674.00,0.0468
673.00,0.0469
672.00,0.0470
671.00,0.0473
670.00,0.0476
669.00,0.0479
668.00,0.0481
667.00,0.0481
666.00,0.0481
665.00,0.0481
664.00,0.0483
663.00,0.0484
662.00,0.0485
661.00,0.0486
660.00,0.0486
659.00,0.0487
658.00,0.0488
657.00,0.0489
656.00,0.0491
655.00,0.0491
654.00,0.0492
653.00,0.0493
652.00,0.0494
651.00,0.0496
650.00,0.0496
649.00,0.0496
648.00,0.0497
647.00,0.0498
646.00,0.0498
645.00,0.0499
644.00,0.0500
643.00,0.0501
642.00,0.0503
641.00,0.0504
640.00,0.0505
639.00,0.0505
638.00,0.0505
637.00,0.0506
636.00,0.0508
635.00,0.0510
634.00,0.0511
633.00,0.0512
632.00,0.0513
631.00,0.0514
630.00,0.0515
629.00,0.0516
628.00,0.0518
627.00,0.0519
626.00,0.0521
625.00,0.0522
624.00,0.0524
623.00,0.0525
622.00,0.0526
621.00,0.0527
620.00,0.0528
619.00,0.0529
618.00,0.0529
617.00,0.0529
616.00,0.0530
615.00,0.0530
614.00,0.0532
613.00,0.0533
612.00,0.0534
611.00,0.0535
610.00,0.0536
609.00,0.0537
608.00,0.0537
607.00,0.0538
606.00,0.0538
605.00,0.0539
604.00,0.0540
603.00,0.0539
602.00,0.0539
601.00,0.0538
600.00,0.0539
599.00,0.0541
598.00,0.0543
597.00,0.0546
596.00,0.0547
595.00,0.0548
594.00,0.0548
593.00,0.0549
592.00,0.0550
591.00,0.0550
590.00,0.0551
589.00,0.0552
588.00,0.0553
587.00,0.0555
586.00,0.0556
585.00,0.0558
584.00,0.0560
583.00,0.0562
582.00,0.0564
581.00,0.0565
580.00,0.0567
579.00,0.0569
578.00,0.0570
577.00,0.0571
576.00,0.0571
575.00,0.0571
574.00,0.0572
573.00,0.0573
572.00,0.0574
571.00,0.0575
570.00,0.0575
569.00,0.0575
568.00,0.0576
567.00,0.0577
566.00,0.0576
565.00,0.0577
564.00,0.0578
563.00,0.0579
562.00,0.0581
561.00,0.0581
560.00,0.0580
559.00,0.0579
558.00,0.0579
557.00,0.0580
556.00,0.0581
555.00,0.0583
554.00,0.0584
553.00,0.0584
552.00,0.0585
551.00,0.0586
550.00,0.0586
549.00,0.0586
548.00,0.0587
547.00,0.0588
546.00,0.0589
545.00,0.0591
544.00,0.0593
543.00,0.0594
542.00,0.0594
541.00,0.0594
540.00,0.0595
539.00,0.0597
538.00,0.0597
537.00,0.0598
536.00,0.0598
535.00,0.0598
534.00,0.0598
533.00,0.0598
532.00,0.0598
531.00,0.0598
530.00,0.0598
529.00,0.0599
528.00,0.0600
527.00,0.0601
526.00,0.0601
525.00,0.0600
524.00,0.0600
523.00,0.0601
522.00,0.0601
521.00,0.0601
520.00,0.0602
519.00,0.0602
518.00,0.0602
517.00,0.0602
516.00,0.0604
515.00,0.0605
514.00,0.0606
513.00,0.0605
512.00,0.0603
511.00,0.0599
510.00,0.0597
509.00,0.0597
508.00,0.0597
507.00,0.0597
506.00,0.0597
505.00,0.0597
504.00,0.0597
503.00,0.0596
502.00,0.0595
501.00,0.0593
500.00,0.0593
499.00,0.0594
498.00,0.0594
497.00,0.0592
496.00,0.0591
495.00,0.0591
494.00,0.0592
493.00,0.0592
492.00,0.0593
491.00,0.0592
490.00,0.0591
489.00,0.0590
488.00,0.0591
487.00,0.0592
486.00,0.0593
485.00,0.0594
484.00,0.0595
483.00,0.0593
482.00,0.0590
481.00,0.0587
480.00,0.0584
479.00,0.0582
478.00,0.0578
477.00,0.0576
476.00,0.0577
475.00,0.0579
474.00,0.0581
473.00,0.0582
472.00,0.0584
471.00,0.0586
470.00,0.0586
469.00,0.0584
468.00,0.0582
467.00,0.0579
466.00,0.0578
465.00,0.0578
464.00,0.0580
463.00,0.0580
462.00,0.0577
461.00,0.0574
460.00,0.0573
459.00,0.0573
458.00,0.0573
457.00,0.0572
456.00,0.0572
455.00,0.0572
454.00,0.0571
453.00,0.0569
452.00,0.0568
451.00,0.0568
450.00,0.0568
449.00,0.0568
448.00,0.0567
447.00,0.0564
446.00,0.0561
445.00,0.0557
444.00,0.0554
443.00,0.0552
442.00,0.0553
441.00,0.0556
440.00,0.0559
439.00,0.0562
438.00,0.0564
437.00,0.0565
436.00,0.0566
435.00,0.0564
434.00,0.0559
433.00,0.0555
432.00,0.0554
431.00,0.0557
430.00,0.0561
429.00,0.0566
428.00,0.0568
427.00,0.0567
426.00,0.0563
425.00,0.0561
424.00,0.0562
423.00,0.0562
422.00,0.0561
421.00,0.0558
420.00,0.0554
419.00,0.0551
418.00,0.0550
417.00,0.0550
416.00,0.0549
415.00,0.0546
414.00,0.0541
413.00,0.0539
412.00,0.0543
411.00,0.0549
410.00,0.0554
409.00,0.0555
408.00,0.0552
407.00,0.0548
406.00,0.0544
405.00,0.0543
404.00,0.0542
403.00,0.0536
402.00,0.0525
401.00,0.0516
400.00,0.0517
