Created as New Dataset,Sample 949 By YargerLab Date Monday, July 28 2025
cm-1,A
4000.00,0.0040
3999.00,0.0040
3998.00,0.0040
3997.00,0.0040
3996.00,0.0040
3995.00,0.0040
3994.00,0.0040
3993.00,0.0040
3992.00,0.0040
3991.00,0.0040
3990.00,0.0040
3989.00,0.0040
3988.00,0.0040
3987.00,0.0040
3986.00,0.0040
3985.00,0.0040
3984.00,0.0040
3983.00,0.0040
3982.00,0.0040
3981.00,0.0040
3980.00,0.0040
3979.00,0.0040
3978.00,0.0040
3977.00,0.0040
3976.00,0.0040
3975.00,0.0040
3974.00,0.0040
3973.00,0.0040
3972.00,0.0040
3971.00,0.0040
3970.00,0.0040
3969.00,0.0040
3968.00,0.0041
3967.00,0.0041
3966.00,0.0041
3965.00,0.0041
3964.00,0.0041
3963.00,0.0040
3962.00,0.0040
3961.00,0.0040
3960.00,0.0040
3959.00,0.0040
3958.00,0.0040
3957.00,0.0040
3956.00,0.0040
3955.00,0.0040
3954.00,0.0040
3953.00,0.0040
3952.00,0.0040
3951.00,0.0040
3950.00,0.0040
3949.00,0.0040
3948.00,0.0040
3947.00,0.0041
3946.00,0.0041
3945.00,0.0041
3944.00,0.0041
3943.00,0.0041
3942.00,0.0041
3941.00,0.0041
3940.00,0.0041
3939.00,0.0041
3938.00,0.0040
3937.00,0.0040
3936.00,0.0040
3935.00,0.0040
3934.00,0.0040
3933.00,0.0040
3932.00,0.0040
3931.00,0.0040
3930.00,0.0041
3929.00,0.0041
3928.00,0.0041
3927.00,0.0041
3926.00,0.0040
3925.00,0.0040
3924.00,0.0040
3923.00,0.0040
3922.00,0.0040
3921.00,0.0040
3920.00,0.0040
3919.00,0.0041
3918.00,0.0041
3917.00,0.0041
3916.00,0.0041
3915.00,0.0041
3914.00,0.0041
3913.00,0.0041
3912.00,0.0041
3911.00,0.0041
3910.00,0.0040
3909.00,0.0040
3908.00,0.0041
3907.00,0.0041
3906.00,0.0041
3905.00,0.0041
3904.00,0.0041
3903.00,0.0041
3902.00,0.0042
3901.00,0.0042
3900.00,0.0042
3899.00,0.0042
3898.00,0.0042
3897.00,0.0042
3896.00,0.0042
3895.00,0.0041
3894.00,0.0041
3893.00,0.0041
3892.00,0.0041
3891.00,0.0041
3890.00,0.0041
3889.00,0.0041
3888.00,0.0042
3887.00,0.0041
3886.00,0.0041
3885.00,0.0041
3884.00,0.0041
3883.00,0.0041
3882.00,0.0041
3881.00,0.0041
3880.00,0.0041
3879.00,0.0041
3878.00,0.0041
3877.00,0.0041
3876.00,0.0041
3875.00,0.0041
3874.00,0.0041
3873.00,0.0041
3872.00,0.0042
3871.00,0.0042
3870.00,0.0042
3869.00,0.0042
3868.00,0.0042
3867.00,0.0042
3866.00,0.0042
3865.00,0.0042
3864.00,0.0042
3863.00,0.0041
3862.00,0.0041
3861.00,0.0041
3860.00,0.0041
3859.00,0.0041
3858.00,0.0041
3857.00,0.0041
3856.00,0.0042
3855.00,0.0042
3854.00,0.0043
3853.00,0.0043
3852.00,0.0043
3851.00,0.0043
3850.00,0.0043
3849.00,0.0042
3848.00,0.0042
3847.00,0.0041
3846.00,0.0041
3845.00,0.0041
3844.00,0.0041
3843.00,0.0041
3842.00,0.0041
3841.00,0.0042
3840.00,0.0042
3839.00,0.0042
3838.00,0.0043
3837.00,0.0043
3836.00,0.0043
3835.00,0.0043
3834.00,0.0042
3833.00,0.0042
3832.00,0.0042
3831.00,0.0042
3830.00,0.0042
3829.00,0.0042
3828.00,0.0041
3827.00,0.0041
3826.00,0.0041
3825.00,0.0041
3824.00,0.0041
3823.00,0.0041
3822.00,0.0042
3821.00,0.0042
3820.00,0.0042
3819.00,0.0042
3818.00,0.0042
3817.00,0.0042
3816.00,0.0042
3815.00,0.0042
3814.00,0.0042
3813.00,0.0042
3812.00,0.0041
3811.00,0.0041
3810.00,0.0041
3809.00,0.0041
3808.00,0.0041
3807.00,0.0041
3806.00,0.0041
3805.00,0.0042
3804.00,0.0042
3803.00,0.0042
3802.00,0.0042
3801.00,0.0041
3800.00,0.0041
3799.00,0.0041
3798.00,0.0041
3797.00,0.0041
3796.00,0.0041
3795.00,0.0041
3794.00,0.0041
3793.00,0.0041
3792.00,0.0041
3791.00,0.0041
3790.00,0.0041
3789.00,0.0040
3788.00,0.0040
3787.00,0.0040
3786.00,0.0040
3785.00,0.0040
3784.00,0.0041
3783.00,0.0041
3782.00,0.0041
3781.00,0.0041
3780.00,0.0041
3779.00,0.0041
3778.00,0.0041
3777.00,0.0041
3776.00,0.0041
3775.00,0.0041
3774.00,0.0041
3773.00,0.0041
3772.00,0.0041
3771.00,0.0041
3770.00,0.0041
3769.00,0.0041
3768.00,0.0041
3767.00,0.0042
3766.00,0.0042
3765.00,0.0041
3764.00,0.0041
3763.00,0.0041
3762.00,0.0041
3761.00,0.0041
3760.00,0.0042
3759.00,0.0042
3758.00,0.0042
3757.00,0.0042
3756.00,0.0042
3755.00,0.0042
3754.00,0.0042
3753.00,0.0043
3752.00,0.0043
3751.00,0.0043
3750.00,0.0043
3749.00,0.0043
3748.00,0.0043
3747.00,0.0043
3746.00,0.0043
3745.00,0.0043
3744.00,0.0042
3743.00,0.0042
3742.00,0.0042
3741.00,0.0042
3740.00,0.0042
3739.00,0.0041
3738.00,0.0041
3737.00,0.0042
3736.00,0.0042
3735.00,0.0042
3734.00,0.0042
3733.00,0.0042
3732.00,0.0041
3731.00,0.0041
3730.00,0.0041
3729.00,0.0040
3728.00,0.0040
3727.00,0.0040
3726.00,0.0040
3725.00,0.0040
3724.00,0.0040
3723.00,0.0040
3722.00,0.0040
3721.00,0.0040
3720.00,0.0040
3719.00,0.0040
3718.00,0.0040
3717.00,0.0040
3716.00,0.0040
3715.00,0.0040
3714.00,0.0040
3713.00,0.0040
3712.00,0.0041
3711.00,0.0041
3710.00,0.0041
3709.00,0.0041
3708.00,0.0041
3707.00,0.0040
3706.00,0.0040
3705.00,0.0040
3704.00,0.0040
3703.00,0.0040
3702.00,0.0040
3701.00,0.0039
3700.00,0.0039
3699.00,0.0039
3698.00,0.0039
3697.00,0.0039
3696.00,0.0039
3695.00,0.0039
3694.00,0.0039
3693.00,0.0040
3692.00,0.0040
3691.00,0.0041
3690.00,0.0041
3689.00,0.0041
3688.00,0.0041
3687.00,0.0042
3686.00,0.0042
3685.00,0.0042
3684.00,0.0042
3683.00,0.0042
3682.00,0.0042
3681.00,0.0042
3680.00,0.0042
3679.00,0.0042
3678.00,0.0043
3677.00,0.0043
3676.00,0.0044
3675.00,0.0044
3674.00,0.0044
3673.00,0.0044
3672.00,0.0045
3671.00,0.0045
3670.00,0.0044
3669.00,0.0044
3668.00,0.0044
3667.00,0.0044
3666.00,0.0044
3665.00,0.0044
3664.00,0.0044
3663.00,0.0043
3662.00,0.0043
3661.00,0.0044
3660.00,0.0044
3659.00,0.0044
3658.00,0.0044
3657.00,0.0044
3656.00,0.0045
3655.00,0.0045
3654.00,0.0046
3653.00,0.0046
3652.00,0.0047
3651.00,0.0048
3650.00,0.0048
3649.00,0.0048
3648.00,0.0049
3647.00,0.0049
3646.00,0.0049
3645.00,0.0048
3644.00,0.0048
3643.00,0.0048
3642.00,0.0048
3641.00,0.0047
3640.00,0.0048
3639.00,0.0048
3638.00,0.0048
3637.00,0.0049
3636.00,0.0049
3635.00,0.0050
3634.00,0.0051
3633.00,0.0051
3632.00,0.0052
3631.00,0.0052
3630.00,0.0053
3629.00,0.0053
3628.00,0.0053
3627.00,0.0053
3626.00,0.0054
3625.00,0.0054
3624.00,0.0054
3623.00,0.0054
3622.00,0.0054
3621.00,0.0055
3620.00,0.0055
3619.00,0.0055
3618.00,0.0056
3617.00,0.0056
3616.00,0.0057
3615.00,0.0058
3614.00,0.0058
3613.00,0.0059
3612.00,0.0059
3611.00,0.0060
3610.00,0.0061
3609.00,0.0061
3608.00,0.0062
3607.00,0.0062
3606.00,0.0062
3605.00,0.0063
3604.00,0.0063
3603.00,0.0064
3602.00,0.0064
3601.00,0.0065
3600.00,0.0065
3599.00,0.0066
3598.00,0.0066
3597.00,0.0067
3596.00,0.0067
3595.00,0.0068
3594.00,0.0069
3593.00,0.0070
3592.00,0.0070
3591.00,0.0071
3590.00,0.0072
3589.00,0.0072
3588.00,0.0073
3587.00,0.0073
3586.00,0.0074
3585.00,0.0075
3584.00,0.0076
3583.00,0.0077
3582.00,0.0077
3581.00,0.0078
3580.00,0.0078
3579.00,0.0079
3578.00,0.0080
3577.00,0.0081
3576.00,0.0082
3575.00,0.0083
3574.00,0.0084
3573.00,0.0085
3572.00,0.0086
3571.00,0.0086
3570.00,0.0087
3569.00,0.0088
3568.00,0.0089
3567.00,0.0089
3566.00,0.0090
3565.00,0.0091
3564.00,0.0092
3563.00,0.0093
3562.00,0.0094
3561.00,0.0095
3560.00,0.0095
3559.00,0.0096
3558.00,0.0096
3557.00,0.0097
3556.00,0.0098
3555.00,0.0099
3554.00,0.0100
3553.00,0.0100
3552.00,0.0101
3551.00,0.0102
3550.00,0.0103
3549.00,0.0104
3548.00,0.0105
3547.00,0.0106
3546.00,0.0106
3545.00,0.0107
3544.00,0.0107
3543.00,0.0108
3542.00,0.0108
3541.00,0.0109
3540.00,0.0109
3539.00,0.0110
3538.00,0.0111
3537.00,0.0112
3536.00,0.0112
3535.00,0.0113
3534.00,0.0113
3533.00,0.0114
3532.00,0.0115
3531.00,0.0115
3530.00,0.0116
3529.00,0.0116
3528.00,0.0117
3527.00,0.0117
3526.00,0.0118
3525.00,0.0118
3524.00,0.0119
3523.00,0.0119
3522.00,0.0119
3521.00,0.0120
3520.00,0.0120
3519.00,0.0120
3518.00,0.0121
3517.00,0.0121
3516.00,0.0121
3515.00,0.0122
3514.00,0.0122
3513.00,0.0122
3512.00,0.0123
3511.00,0.0123
3510.00,0.0123
3509.00,0.0124
3508.00,0.0124
3507.00,0.0125
3506.00,0.0125
3505.00,0.0126
3504.00,0.0126
3503.00,0.0126
3502.00,0.0126
3501.00,0.0126
3500.00,0.0127
3499.00,0.0127
3498.00,0.0127
3497.00,0.0128
3496.00,0.0128
3495.00,0.0129
3494.00,0.0129
3493.00,0.0129
3492.00,0.0130
3491.00,0.0130
3490.00,0.0130
3489.00,0.0130
3488.00,0.0131
3487.00,0.0131
3486.00,0.0131
3485.00,0.0131
3484.00,0.0132
3483.00,0.0133
3482.00,0.0133
3481.00,0.0134
3480.00,0.0134
3479.00,0.0134
3478.00,0.0134
3477.00,0.0135
3476.00,0.0135
3475.00,0.0135
3474.00,0.0136
3473.00,0.0136
3472.00,0.0137
3471.00,0.0138
3470.00,0.0138
3469.00,0.0139
3468.00,0.0139
3467.00,0.0140
3466.00,0.0140
3465.00,0.0140
3464.00,0.0141
3463.00,0.0141
3462.00,0.0141
3461.00,0.0142
3460.00,0.0142
3459.00,0.0142
3458.00,0.0143
3457.00,0.0143
3456.00,0.0143
3455.00,0.0144
3454.00,0.0144
3453.00,0.0144
3452.00,0.0144
3451.00,0.0145
3450.00,0.0145
3449.00,0.0146
3448.00,0.0146
3447.00,0.0147
3446.00,0.0147
3445.00,0.0147
3444.00,0.0148
3443.00,0.0148
3442.00,0.0148
3441.00,0.0149
3440.00,0.0149
3439.00,0.0149
3438.00,0.0150
3437.00,0.0150
3436.00,0.0150
3435.00,0.0151
3434.00,0.0151
3433.00,0.0151
3432.00,0.0152
3431.00,0.0152
3430.00,0.0153
3429.00,0.0153
3428.00,0.0154
3427.00,0.0154
3426.00,0.0153
3425.00,0.0153
3424.00,0.0154
3423.00,0.0154
3422.00,0.0155
3421.00,0.0156
3420.00,0.0156
3419.00,0.0157
3418.00,0.0157
3417.00,0.0157
3416.00,0.0157
3415.00,0.0157
3414.00,0.0157
3413.00,0.0157
3412.00,0.0158
3411.00,0.0158
3410.00,0.0158
3409.00,0.0158
3408.00,0.0159
3407.00,0.0159
3406.00,0.0159
3405.00,0.0159
3404.00,0.0158
3403.00,0.0158
3402.00,0.0158
3401.00,0.0158
3400.00,0.0158
3399.00,0.0158
3398.00,0.0157
3397.00,0.0157
3396.00,0.0157
3395.00,0.0157
3394.00,0.0157
3393.00,0.0156
3392.00,0.0156
3391.00,0.0155
3390.00,0.0154
3389.00,0.0154
3388.00,0.0153
3387.00,0.0153
3386.00,0.0152
3385.00,0.0152
3384.00,0.0151
3383.00,0.0151
3382.00,0.0150
3381.00,0.0149
3380.00,0.0149
3379.00,0.0148
3378.00,0.0148
3377.00,0.0147
3376.00,0.0147
3375.00,0.0146
3374.00,0.0146
3373.00,0.0145
3372.00,0.0144
3371.00,0.0143
3370.00,0.0142
3369.00,0.0141
3368.00,0.0141
3367.00,0.0140
3366.00,0.0140
3365.00,0.0140
3364.00,0.0140
3363.00,0.0139
3362.00,0.0139
3361.00,0.0138
3360.00,0.0137
3359.00,0.0137
3358.00,0.0137
3357.00,0.0136
3356.00,0.0136
3355.00,0.0136
3354.00,0.0135
3353.00,0.0134
3352.00,0.0133
3351.00,0.0133
3350.00,0.0132
3349.00,0.0133
3348.00,0.0133
3347.00,0.0133
3346.00,0.0132
3345.00,0.0132
3344.00,0.0131
3343.00,0.0130
3342.00,0.0130
3341.00,0.0130
3340.00,0.0129
3339.00,0.0129
3338.00,0.0128
3337.00,0.0128
3336.00,0.0129
3335.00,0.0129
3334.00,0.0129
3333.00,0.0129
3332.00,0.0129
3331.00,0.0128
3330.00,0.0128
3329.00,0.0128
3328.00,0.0127
3327.00,0.0126
3326.00,0.0126
3325.00,0.0126
3324.00,0.0126
3323.00,0.0126
3322.00,0.0126
3321.00,0.0126
3320.00,0.0126
3319.00,0.0126
3318.00,0.0126
3317.00,0.0126
3316.00,0.0126
3315.00,0.0126
3314.00,0.0126
3313.00,0.0125
3312.00,0.0125
3311.00,0.0124
3310.00,0.0123
3309.00,0.0122
3308.00,0.0121
3307.00,0.0121
3306.00,0.0121
3305.00,0.0121
3304.00,0.0122
3303.00,0.0123
3302.00,0.0124
3301.00,0.0124
3300.00,0.0124
3299.00,0.0124
3298.00,0.0123
3297.00,0.0122
3296.00,0.0122
3295.00,0.0121
3294.00,0.0121
3293.00,0.0121
3292.00,0.0122
3291.00,0.0122
3290.00,0.0123
3289.00,0.0123
3288.00,0.0123
3287.00,0.0124
3286.00,0.0124
3285.00,0.0124
3284.00,0.0123
3283.00,0.0123
3282.00,0.0123
3281.00,0.0122
3280.00,0.0122
3279.00,0.0122
3278.00,0.0122
3277.00,0.0121
3276.00,0.0121
3275.00,0.0121
3274.00,0.0121
3273.00,0.0120
3272.00,0.0120
3271.00,0.0120
3270.00,0.0120
3269.00,0.0120
3268.00,0.0120
3267.00,0.0121
3266.00,0.0121
3265.00,0.0120
3264.00,0.0120
3263.00,0.0120
3262.00,0.0120
3261.00,0.0119
3260.00,0.0119
3259.00,0.0119
3258.00,0.0119
3257.00,0.0118
3256.00,0.0118
3255.00,0.0118
3254.00,0.0118
3253.00,0.0118
3252.00,0.0118
3251.00,0.0118
3250.00,0.0118
3249.00,0.0117
3248.00,0.0117
3247.00,0.0117
3246.00,0.0117
3245.00,0.0117
3244.00,0.0117
3243.00,0.0117
3242.00,0.0117
3241.00,0.0117
3240.00,0.0116
3239.00,0.0116
3238.00,0.0115
3237.00,0.0114
3236.00,0.0114
3235.00,0.0113
3234.00,0.0112
3233.00,0.0112
3232.00,0.0112
3231.00,0.0112
3230.00,0.0112
3229.00,0.0112
3228.00,0.0112
3227.00,0.0112
3226.00,0.0112
3225.00,0.0111
3224.00,0.0111
3223.00,0.0111
3222.00,0.0110
3221.00,0.0110
3220.00,0.0110
3219.00,0.0109
3218.00,0.0108
3217.00,0.0108
3216.00,0.0107
3215.00,0.0107
3214.00,0.0107
3213.00,0.0107
3212.00,0.0106
3211.00,0.0106
3210.00,0.0105
3209.00,0.0105
3208.00,0.0104
3207.00,0.0103
3206.00,0.0103
3205.00,0.0102
3204.00,0.0101
3203.00,0.0101
3202.00,0.0100
3201.00,0.0100
3200.00,0.0100
3199.00,0.0099
3198.00,0.0099
3197.00,0.0098
3196.00,0.0097
3195.00,0.0097
3194.00,0.0097
3193.00,0.0097
3192.00,0.0096
3191.00,0.0096
3190.00,0.0096
3189.00,0.0095
3188.00,0.0094
3187.00,0.0094
3186.00,0.0093
3185.00,0.0093
3184.00,0.0093
3183.00,0.0092
3182.00,0.0092
3181.00,0.0091
3180.00,0.0091
3179.00,0.0090
3178.00,0.0090
3177.00,0.0089
3176.00,0.0089
3175.00,0.0088
3174.00,0.0088
3173.00,0.0087
3172.00,0.0087
3171.00,0.0086
3170.00,0.0086
3169.00,0.0085
3168.00,0.0085
3167.00,0.0085
3166.00,0.0084
3165.00,0.0084
3164.00,0.0083
3163.00,0.0083
3162.00,0.0083
3161.00,0.0082
3160.00,0.0082
3159.00,0.0082
3158.00,0.0081
3157.00,0.0080
3156.00,0.0080
3155.00,0.0079
3154.00,0.0079
3153.00,0.0078
3152.00,0.0078
3151.00,0.0077
3150.00,0.0077
3149.00,0.0077
3148.00,0.0076
3147.00,0.0076
3146.00,0.0075
3145.00,0.0075
3144.00,0.0075
3143.00,0.0075
3142.00,0.0074
3141.00,0.0074
3140.00,0.0073
3139.00,0.0073
3138.00,0.0073
3137.00,0.0072
3136.00,0.0072
3135.00,0.0072
3134.00,0.0071
3133.00,0.0071
3132.00,0.0071
3131.00,0.0070
3130.00,0.0070
3129.00,0.0070
3128.00,0.0070
3127.00,0.0070
3126.00,0.0069
3125.00,0.0069
3124.00,0.0069
3123.00,0.0069
3122.00,0.0069
3121.00,0.0069
3120.00,0.0069
3119.00,0.0069
3118.00,0.0068
3117.00,0.0068
3116.00,0.0067
3115.00,0.0067
3114.00,0.0067
3113.00,0.0067
3112.00,0.0067
3111.00,0.0067
3110.00,0.0067
3109.00,0.0066
3108.00,0.0066
3107.00,0.0066
3106.00,0.0065
3105.00,0.0065
3104.00,0.0065
3103.00,0.0065
3102.00,0.0064
3101.00,0.0064
3100.00,0.0064
3099.00,0.0064
3098.00,0.0064
3097.00,0.0063
3096.00,0.0063
3095.00,0.0063
3094.00,0.0063
3093.00,0.0063
3092.00,0.0063
3091.00,0.0063
3090.00,0.0064
3089.00,0.0063
3088.00,0.0063
3087.00,0.0063
3086.00,0.0063
3085.00,0.0063
3084.00,0.0063
3083.00,0.0063
3082.00,0.0063
3081.00,0.0063
3080.00,0.0063
3079.00,0.0063
3078.00,0.0063
3077.00,0.0062
3076.00,0.0062
3075.00,0.0062
3074.00,0.0062
3073.00,0.0062
3072.00,0.0062
3071.00,0.0062
3070.00,0.0061
3069.00,0.0061
3068.00,0.0061
3067.00,0.0061
3066.00,0.0061
3065.00,0.0061
3064.00,0.0061
3063.00,0.0061
3062.00,0.0061
3061.00,0.0061
3060.00,0.0061
3059.00,0.0061
3058.00,0.0061
3057.00,0.0061
3056.00,0.0061
3055.00,0.0061
3054.00,0.0061
3053.00,0.0061
3052.00,0.0061
3051.00,0.0062
3050.00,0.0062
3049.00,0.0061
3048.00,0.0061
3047.00,0.0061
3046.00,0.0061
3045.00,0.0061
3044.00,0.0061
3043.00,0.0061
3042.00,0.0061
3041.00,0.0061
3040.00,0.0061
3039.00,0.0061
3038.00,0.0061
3037.00,0.0062
3036.00,0.0062
3035.00,0.0062
3034.00,0.0063
3033.00,0.0063
3032.00,0.0063
3031.00,0.0063
3030.00,0.0063
3029.00,0.0063
3028.00,0.0062
3027.00,0.0062
3026.00,0.0062
3025.00,0.0062
3024.00,0.0063
3023.00,0.0063
3022.00,0.0063
3021.00,0.0063
3020.00,0.0063
3019.00,0.0063
3018.00,0.0063
3017.00,0.0064
3016.00,0.0064
3015.00,0.0064
3014.00,0.0065
3013.00,0.0066
3012.00,0.0067
3011.00,0.0068
3010.00,0.0069
3009.00,0.0070
3008.00,0.0072
3007.00,0.0073
3006.00,0.0075
3005.00,0.0076
3004.00,0.0078
3003.00,0.0080
3002.00,0.0083
3001.00,0.0085
3000.00,0.0088
2999.00,0.0091
2998.00,0.0094
2997.00,0.0097
2996.00,0.0100
2995.00,0.0103
2994.00,0.0106
2993.00,0.0109
2992.00,0.0112
2991.00,0.0115
2990.00,0.0118
2989.00,0.0121
2988.00,0.0124
2987.00,0.0127
2986.00,0.0130
2985.00,0.0134
2984.00,0.0138
2983.00,0.0142
2982.00,0.0146
2981.00,0.0150
2980.00,0.0153
2979.00,0.0155
2978.00,0.0157
2977.00,0.0159
2976.00,0.0160
2975.00,0.0163
2974.00,0.0166
2973.00,0.0169
2972.00,0.0173
2971.00,0.0177
2970.00,0.0180
2969.00,0.0182
2968.00,0.0184
2967.00,0.0186
2966.00,0.0187
2965.00,0.0189
2964.00,0.0192
2963.00,0.0194
2962.00,0.0196
2961.00,0.0198
2960.00,0.0199
2959.00,0.0200
2958.00,0.0199
2957.00,0.0198
2956.00,0.0197
2955.00,0.0196
2954.00,0.0194
2953.00,0.0193
2952.00,0.0192
2951.00,0.0190
2950.00,0.0189
2949.00,0.0188
2948.00,0.0187
2947.00,0.0186
2946.00,0.0186
2945.00,0.0186
2944.00,0.0187
2943.00,0.0187
2942.00,0.0188
2941.00,0.0189
2940.00,0.0190
2939.00,0.0191
2938.00,0.0193
2937.00,0.0196
2936.00,0.0199
2935.00,0.0203
2934.00,0.0207
2933.00,0.0211
2932.00,0.0215
2931.00,0.0219
2930.00,0.0222
2929.00,0.0225
2928.00,0.0227
2927.00,0.0229
2926.00,0.0229
2925.00,0.0228
2924.00,0.0227
2923.00,0.0225
2922.00,0.0222
2921.00,0.0219
2920.00,0.0215
2919.00,0.0211
2918.00,0.0207
2917.00,0.0204
2916.00,0.0200
2915.00,0.0197
2914.00,0.0194
2913.00,0.0191
2912.00,0.0189
2911.00,0.0186
2910.00,0.0183
2909.00,0.0181
2908.00,0.0178
2907.00,0.0175
2906.00,0.0173
2905.00,0.0171
2904.00,0.0169
2903.00,0.0167
2902.00,0.0166
2901.00,0.0165
2900.00,0.0164
2899.00,0.0163
2898.00,0.0162
2897.00,0.0162
2896.00,0.0161
2895.00,0.0161
2894.00,0.0160
2893.00,0.0160
2892.00,0.0160
2891.00,0.0159
2890.00,0.0159
2889.00,0.0158
2888.00,0.0158
2887.00,0.0157
2886.00,0.0157
2885.00,0.0157
2884.00,0.0157
2883.00,0.0157
2882.00,0.0157
2881.00,0.0158
2880.00,0.0158
2879.00,0.0159
2878.00,0.0160
2877.00,0.0161
2876.00,0.0162
2875.00,0.0163
2874.00,0.0163
2873.00,0.0164
2872.00,0.0164
2871.00,0.0163
2870.00,0.0163
2869.00,0.0162
2868.00,0.0160
2867.00,0.0160
2866.00,0.0159
2865.00,0.0159
2864.00,0.0159
2863.00,0.0161
2862.00,0.0162
2861.00,0.0165
2860.00,0.0167
2859.00,0.0169
2858.00,0.0170
2857.00,0.0170
2856.00,0.0170
2855.00,0.0168
2854.00,0.0166
2853.00,0.0163
2852.00,0.0160
2851.00,0.0156
2850.00,0.0152
2849.00,0.0147
2848.00,0.0142
2847.00,0.0137
2846.00,0.0133
2845.00,0.0129
2844.00,0.0125
2843.00,0.0122
2842.00,0.0118
2841.00,0.0115
2840.00,0.0112
2839.00,0.0109
2838.00,0.0107
2837.00,0.0105
2836.00,0.0103
2835.00,0.0101
2834.00,0.0099
2833.00,0.0098
2832.00,0.0096
2831.00,0.0094
2830.00,0.0093
2829.00,0.0091
2828.00,0.0089
2827.00,0.0088
2826.00,0.0086
2825.00,0.0085
2824.00,0.0083
2823.00,0.0082
2822.00,0.0081
2821.00,0.0080
2820.00,0.0079
2819.00,0.0078
2818.00,0.0077
2817.00,0.0076
2816.00,0.0075
2815.00,0.0074
2814.00,0.0074
2813.00,0.0073
2812.00,0.0073
2811.00,0.0073
2810.00,0.0072
2809.00,0.0072
2808.00,0.0071
2807.00,0.0071
2806.00,0.0070
2805.00,0.0070
2804.00,0.0069
2803.00,0.0069
2802.00,0.0068
2801.00,0.0068
2800.00,0.0068
2799.00,0.0068
2798.00,0.0067
2797.00,0.0067
2796.00,0.0067
2795.00,0.0067
2794.00,0.0066
2793.00,0.0066
2792.00,0.0066
2791.00,0.0066
2790.00,0.0065
2789.00,0.0065
2788.00,0.0065
2787.00,0.0064
2786.00,0.0064
2785.00,0.0064
2784.00,0.0063
2783.00,0.0063
2782.00,0.0063
2781.00,0.0063
2780.00,0.0063
2779.00,0.0063
2778.00,0.0063
2777.00,0.0062
2776.00,0.0062
2775.00,0.0062
2774.00,0.0062
2773.00,0.0062
2772.00,0.0061
2771.00,0.0061
2770.00,0.0061
2769.00,0.0060
2768.00,0.0060
2767.00,0.0060
2766.00,0.0060
2765.00,0.0060
2764.00,0.0060
2763.00,0.0060
2762.00,0.0060
2761.00,0.0060
2760.00,0.0060
2759.00,0.0060
2758.00,0.0060
2757.00,0.0060
2756.00,0.0059
2755.00,0.0059
2754.00,0.0060
2753.00,0.0060
2752.00,0.0060
2751.00,0.0060
2750.00,0.0060
2749.00,0.0060
2748.00,0.0060
2747.00,0.0060
2746.00,0.0060
2745.00,0.0060
2744.00,0.0060
2743.00,0.0060
2742.00,0.0060
2741.00,0.0060
2740.00,0.0060
2739.00,0.0060
2738.00,0.0060
2737.00,0.0060
2736.00,0.0060
2735.00,0.0060
2734.00,0.0061
2733.00,0.0061
2732.00,0.0061
2731.00,0.0061
2730.00,0.0061
2729.00,0.0060
2728.00,0.0060
2727.00,0.0060
2726.00,0.0060
2725.00,0.0060
2724.00,0.0060
2723.00,0.0060
2722.00,0.0060
2721.00,0.0059
2720.00,0.0059
2719.00,0.0059
2718.00,0.0059
2717.00,0.0059
2716.00,0.0059
2715.00,0.0059
2714.00,0.0059
2713.00,0.0059
2712.00,0.0059
2711.00,0.0059
2710.00,0.0058
2709.00,0.0058
2708.00,0.0058
2707.00,0.0058
2706.00,0.0058
2705.00,0.0058
2704.00,0.0058
2703.00,0.0058
2702.00,0.0058
2701.00,0.0058
2700.00,0.0058
2699.00,0.0058
2698.00,0.0057
2697.00,0.0057
2696.00,0.0057
2695.00,0.0057
2694.00,0.0057
2693.00,0.0057
2692.00,0.0057
2691.00,0.0057
2690.00,0.0057
2689.00,0.0056
2688.00,0.0056
2687.00,0.0056
2686.00,0.0056
2685.00,0.0056
2684.00,0.0056
2683.00,0.0056
2682.00,0.0056
2681.00,0.0056
2680.00,0.0056
2679.00,0.0056
2678.00,0.0056
2677.00,0.0056
2676.00,0.0056
2675.00,0.0056
2674.00,0.0056
2673.00,0.0056
2672.00,0.0056
2671.00,0.0056
2670.00,0.0056
2669.00,0.0057
2668.00,0.0057
2667.00,0.0057
2666.00,0.0057
2665.00,0.0058
2664.00,0.0058
2663.00,0.0059
2662.00,0.0059
2661.00,0.0059
2660.00,0.0060
2659.00,0.0060
2658.00,0.0060
2657.00,0.0060
2656.00,0.0060
2655.00,0.0060
2654.00,0.0061
2653.00,0.0060
2652.00,0.0060
2651.00,0.0060
2650.00,0.0060
2649.00,0.0060
2648.00,0.0061
2647.00,0.0061
2646.00,0.0061
2645.00,0.0061
2644.00,0.0060
2643.00,0.0060
2642.00,0.0060
2641.00,0.0060
2640.00,0.0060
2639.00,0.0061
2638.00,0.0061
2637.00,0.0060
2636.00,0.0060
2635.00,0.0060
2634.00,0.0060
2633.00,0.0059
2632.00,0.0059
2631.00,0.0059
2630.00,0.0059
2629.00,0.0059
2628.00,0.0059
2627.00,0.0059
2626.00,0.0059
2625.00,0.0059
2624.00,0.0059
2623.00,0.0058
2622.00,0.0058
2621.00,0.0058
2620.00,0.0058
2619.00,0.0058
2618.00,0.0058
2617.00,0.0058
2616.00,0.0058
2615.00,0.0058
2614.00,0.0058
2613.00,0.0058
2612.00,0.0057
2611.00,0.0057
2610.00,0.0057
2609.00,0.0057
2608.00,0.0057
2607.00,0.0057
2606.00,0.0057
2605.00,0.0057
2604.00,0.0057
2603.00,0.0057
2602.00,0.0057
2601.00,0.0057
2600.00,0.0057
2599.00,0.0057
2598.00,0.0057
2597.00,0.0057
2596.00,0.0057
2595.00,0.0057
2594.00,0.0057
2593.00,0.0057
2592.00,0.0057
2591.00,0.0057
2590.00,0.0057
2589.00,0.0057
2588.00,0.0057
2587.00,0.0057
2586.00,0.0057
2585.00,0.0057
2584.00,0.0057
2583.00,0.0057
2582.00,0.0057
2581.00,0.0057
2580.00,0.0057
2579.00,0.0057
2578.00,0.0057
2577.00,0.0057
2576.00,0.0057
2575.00,0.0057
2574.00,0.0057
2573.00,0.0056
2572.00,0.0056
2571.00,0.0056
2570.00,0.0056
2569.00,0.0057
2568.00,0.0056
2567.00,0.0056
2566.00,0.0056
2565.00,0.0056
2564.00,0.0056
2563.00,0.0056
2562.00,0.0057
2561.00,0.0056
2560.00,0.0056
2559.00,0.0056
2558.00,0.0055
2557.00,0.0055
2556.00,0.0055
2555.00,0.0055
2554.00,0.0055
2553.00,0.0055
2552.00,0.0055
2551.00,0.0055
2550.00,0.0055
2549.00,0.0055
2548.00,0.0054
2547.00,0.0054
2546.00,0.0054
2545.00,0.0054
2544.00,0.0054
2543.00,0.0054
2542.00,0.0054
2541.00,0.0054
2540.00,0.0054
2539.00,0.0054
2538.00,0.0054
2537.00,0.0054
2536.00,0.0054
2535.00,0.0054
2534.00,0.0054
2533.00,0.0054
2532.00,0.0054
2531.00,0.0054
2530.00,0.0053
2529.00,0.0053
2528.00,0.0053
2527.00,0.0053
2526.00,0.0052
2525.00,0.0052
2524.00,0.0052
2523.00,0.0053
2522.00,0.0052
2521.00,0.0052
2520.00,0.0052
2519.00,0.0052
2518.00,0.0052
2517.00,0.0052
2516.00,0.0051
2515.00,0.0051
2514.00,0.0051
2513.00,0.0051
2512.00,0.0051
2511.00,0.0051
2510.00,0.0051
2509.00,0.0051
2508.00,0.0051
2507.00,0.0051
2506.00,0.0050
2505.00,0.0050
2504.00,0.0050
2503.00,0.0050
2502.00,0.0050
2501.00,0.0050
2500.00,0.0050
2499.00,0.0050
2498.00,0.0050
2497.00,0.0050
2496.00,0.0051
2495.00,0.0051
2494.00,0.0051
2493.00,0.0051
2492.00,0.0051
2491.00,0.0050
2490.00,0.0050
2489.00,0.0050
2488.00,0.0050
2487.00,0.0050
2486.00,0.0050
2485.00,0.0050
2484.00,0.0050
2483.00,0.0050
2482.00,0.0049
2481.00,0.0049
2480.00,0.0049
2479.00,0.0049
2478.00,0.0049
2477.00,0.0049
2476.00,0.0049
2475.00,0.0049
2474.00,0.0049
2473.00,0.0049
2472.00,0.0049
2471.00,0.0049
2470.00,0.0049
2469.00,0.0049
2468.00,0.0049
2467.00,0.0049
2466.00,0.0049
2465.00,0.0049
2464.00,0.0049
2463.00,0.0050
2462.00,0.0050
2461.00,0.0050
2460.00,0.0050
2459.00,0.0051
2458.00,0.0051
2457.00,0.0051
2456.00,0.0051
2455.00,0.0052
2454.00,0.0051
2453.00,0.0051
2452.00,0.0051
2451.00,0.0051
2450.00,0.0051
2449.00,0.0051
2448.00,0.0050
2447.00,0.0050
2446.00,0.0050
2445.00,0.0049
2444.00,0.0049
2443.00,0.0049
2442.00,0.0050
2441.00,0.0050
2440.00,0.0049
2439.00,0.0049
2438.00,0.0049
2437.00,0.0048
2436.00,0.0048
2435.00,0.0049
2434.00,0.0049
2433.00,0.0050
2432.00,0.0050
2431.00,0.0050
2430.00,0.0049
2429.00,0.0049
2428.00,0.0048
2427.00,0.0048
2426.00,0.0048
2425.00,0.0049
2424.00,0.0049
2423.00,0.0049
2422.00,0.0049
2421.00,0.0049
2420.00,0.0049
2419.00,0.0049
2418.00,0.0049
2417.00,0.0048
2416.00,0.0048
2415.00,0.0048
2414.00,0.0048
2413.00,0.0048
2412.00,0.0048
2411.00,0.0048
2410.00,0.0048
2409.00,0.0048
2408.00,0.0048
2407.00,0.0048
2406.00,0.0048
2405.00,0.0047
2404.00,0.0048
2403.00,0.0048
2402.00,0.0048
2401.00,0.0048
2400.00,0.0048
2399.00,0.0048
2398.00,0.0047
2397.00,0.0047
2396.00,0.0047
2395.00,0.0047
2394.00,0.0047
2393.00,0.0047
2392.00,0.0047
2391.00,0.0047
2390.00,0.0047
2389.00,0.0047
2388.00,0.0046
2387.00,0.0046
2386.00,0.0046
2385.00,0.0045
2384.00,0.0045
2383.00,0.0044
2382.00,0.0044
2381.00,0.0043
2380.00,0.0043
2379.00,0.0042
2378.00,0.0041
2377.00,0.0041
2376.00,0.0041
2375.00,0.0041
2374.00,0.0041
2373.00,0.0041
2372.00,0.0041
2371.00,0.0041
2370.00,0.0041
2369.00,0.0041
2368.00,0.0040
2367.00,0.0040
2366.00,0.0039
2365.00,0.0039
2364.00,0.0039
2363.00,0.0039
2362.00,0.0040
2361.00,0.0040
2360.00,0.0041
2359.00,0.0041
2358.00,0.0041
2357.00,0.0041
2356.00,0.0041
2355.00,0.0041
2354.00,0.0041
2353.00,0.0041
2352.00,0.0042
2351.00,0.0042
2350.00,0.0042
2349.00,0.0042
2348.00,0.0042
2347.00,0.0042
2346.00,0.0043
2345.00,0.0043
2344.00,0.0044
2343.00,0.0044
2342.00,0.0043
2341.00,0.0043
2340.00,0.0043
2339.00,0.0044
2338.00,0.0045
2337.00,0.0045
2336.00,0.0045
2335.00,0.0045
2334.00,0.0045
2333.00,0.0045
2332.00,0.0045
2331.00,0.0045
2330.00,0.0045
2329.00,0.0047
2328.00,0.0049
2327.00,0.0053
2326.00,0.0056
2325.00,0.0057
2324.00,0.0057
2323.00,0.0055
2322.00,0.0053
2321.00,0.0052
2320.00,0.0051
2319.00,0.0050
2318.00,0.0049
2317.00,0.0049
2316.00,0.0049
2315.00,0.0049
2314.00,0.0049
2313.00,0.0049
2312.00,0.0048
2311.00,0.0048
2310.00,0.0048
2309.00,0.0048
2308.00,0.0048
2307.00,0.0048
2306.00,0.0048
2305.00,0.0049
2304.00,0.0049
2303.00,0.0049
2302.00,0.0049
2301.00,0.0049
2300.00,0.0050
2299.00,0.0050
2298.00,0.0050
2297.00,0.0051
2296.00,0.0052
2295.00,0.0053
2294.00,0.0054
2293.00,0.0055
2292.00,0.0056
2291.00,0.0056
2290.00,0.0057
2289.00,0.0057
2288.00,0.0057
2287.00,0.0057
2286.00,0.0057
2285.00,0.0057
2284.00,0.0056
2283.00,0.0056
2282.00,0.0055
2281.00,0.0055
2280.00,0.0054
2279.00,0.0054
2278.00,0.0053
2277.00,0.0052
2276.00,0.0052
2275.00,0.0052
2274.00,0.0052
2273.00,0.0052
2272.00,0.0052
2271.00,0.0053
2270.00,0.0053
2269.00,0.0053
2268.00,0.0052
2267.00,0.0051
2266.00,0.0051
2265.00,0.0051
2264.00,0.0051
2263.00,0.0051
2262.00,0.0051
2261.00,0.0051
2260.00,0.0052
2259.00,0.0052
2258.00,0.0052
2257.00,0.0051
2256.00,0.0050
2255.00,0.0049
2254.00,0.0048
2253.00,0.0049
2252.00,0.0049
2251.00,0.0049
2250.00,0.0049
2249.00,0.0049
2248.00,0.0049
2247.00,0.0048
2246.00,0.0048
2245.00,0.0048
2244.00,0.0049
2243.00,0.0049
2242.00,0.0050
2241.00,0.0050
2240.00,0.0051
2239.00,0.0051
2238.00,0.0051
2237.00,0.0051
2236.00,0.0051
2235.00,0.0051
2234.00,0.0050
2233.00,0.0050
2232.00,0.0050
2231.00,0.0050
2230.00,0.0050
2229.00,0.0050
2228.00,0.0050
2227.00,0.0050
2226.00,0.0049
2225.00,0.0049
2224.00,0.0049
2223.00,0.0049
2222.00,0.0049
2221.00,0.0050
2220.00,0.0050
2219.00,0.0050
2218.00,0.0050
2217.00,0.0050
2216.00,0.0050
2215.00,0.0049
2214.00,0.0048
2213.00,0.0048
2212.00,0.0048
2211.00,0.0049
2210.00,0.0050
2209.00,0.0051
2208.00,0.0051
2207.00,0.0051
2206.00,0.0050
2205.00,0.0050
2204.00,0.0049
2203.00,0.0049
2202.00,0.0049
2201.00,0.0049
2200.00,0.0049
2199.00,0.0050
2198.00,0.0050
2197.00,0.0051
2196.00,0.0052
2195.00,0.0053
2194.00,0.0053
2193.00,0.0052
2192.00,0.0052
2191.00,0.0052
2190.00,0.0051
2189.00,0.0051
2188.00,0.0050
2187.00,0.0050
2186.00,0.0050
2185.00,0.0050
2184.00,0.0049
2183.00,0.0048
2182.00,0.0047
2181.00,0.0047
2180.00,0.0047
2179.00,0.0048
2178.00,0.0047
2177.00,0.0046
2176.00,0.0045
2175.00,0.0046
2174.00,0.0048
2173.00,0.0049
2172.00,0.0051
2171.00,0.0053
2170.00,0.0055
2169.00,0.0057
2168.00,0.0058
2167.00,0.0060
2166.00,0.0061
2165.00,0.0061
2164.00,0.0062
2163.00,0.0061
2162.00,0.0058
2161.00,0.0050
2160.00,0.0039
2159.00,0.0029
2158.00,0.0022
2157.00,0.0021
2156.00,0.0022
2155.00,0.0026
2154.00,0.0029
2153.00,0.0031
2152.00,0.0033
2151.00,0.0033
2150.00,0.0034
2149.00,0.0034
2148.00,0.0035
2147.00,0.0035
2146.00,0.0035
2145.00,0.0034
2144.00,0.0034
2143.00,0.0033
2142.00,0.0033
2141.00,0.0034
2140.00,0.0035
2139.00,0.0036
2138.00,0.0036
2137.00,0.0035
2136.00,0.0032
2135.00,0.0030
2134.00,0.0030
2133.00,0.0031
2132.00,0.0033
2131.00,0.0035
2130.00,0.0036
2129.00,0.0038
2128.00,0.0039
2127.00,0.0039
2126.00,0.0040
2125.00,0.0040
2124.00,0.0041
2123.00,0.0043
2122.00,0.0044
2121.00,0.0045
2120.00,0.0046
2119.00,0.0047
2118.00,0.0047
2117.00,0.0048
2116.00,0.0048
2115.00,0.0048
2114.00,0.0048
2113.00,0.0048
2112.00,0.0048
2111.00,0.0048
2110.00,0.0048
2109.00,0.0048
2108.00,0.0047
2107.00,0.0047
2106.00,0.0047
2105.00,0.0047
2104.00,0.0047
2103.00,0.0047
2102.00,0.0047
2101.00,0.0046
2100.00,0.0046
2099.00,0.0044
2098.00,0.0043
2097.00,0.0042
2096.00,0.0042
2095.00,0.0042
2094.00,0.0043
2093.00,0.0044
2092.00,0.0045
2091.00,0.0045
2090.00,0.0046
2089.00,0.0046
2088.00,0.0046
2087.00,0.0046
2086.00,0.0046
2085.00,0.0046
2084.00,0.0046
2083.00,0.0046
2082.00,0.0046
2081.00,0.0047
2080.00,0.0047
2079.00,0.0048
2078.00,0.0048
2077.00,0.0048
2076.00,0.0048
2075.00,0.0047
2074.00,0.0047
2073.00,0.0046
2072.00,0.0046
2071.00,0.0046
2070.00,0.0045
2069.00,0.0045
2068.00,0.0045
2067.00,0.0044
2066.00,0.0043
2065.00,0.0043
2064.00,0.0043
2063.00,0.0043
2062.00,0.0044
2061.00,0.0044
2060.00,0.0044
2059.00,0.0044
2058.00,0.0045
2057.00,0.0045
2056.00,0.0044
2055.00,0.0045
2054.00,0.0047
2053.00,0.0051
2052.00,0.0054
2051.00,0.0054
2050.00,0.0051
2049.00,0.0048
2048.00,0.0046
2047.00,0.0045
2046.00,0.0045
2045.00,0.0045
2044.00,0.0044
2043.00,0.0044
2042.00,0.0043
2041.00,0.0043
2040.00,0.0044
2039.00,0.0044
2038.00,0.0044
2037.00,0.0043
2036.00,0.0042
2035.00,0.0040
2034.00,0.0039
2033.00,0.0039
2032.00,0.0039
2031.00,0.0038
2030.00,0.0038
2029.00,0.0038
2028.00,0.0039
2027.00,0.0040
2026.00,0.0041
2025.00,0.0041
2024.00,0.0040
2023.00,0.0039
2022.00,0.0038
2021.00,0.0039
2020.00,0.0040
2019.00,0.0041
2018.00,0.0041
2017.00,0.0040
2016.00,0.0039
2015.00,0.0037
2014.00,0.0036
2013.00,0.0035
2012.00,0.0035
2011.00,0.0036
2010.00,0.0037
2009.00,0.0035
2008.00,0.0032
2007.00,0.0029
2006.00,0.0028
2005.00,0.0029
2004.00,0.0031
2003.00,0.0033
2002.00,0.0034
2001.00,0.0034
2000.00,0.0036
1999.00,0.0038
1998.00,0.0039
1997.00,0.0040
1996.00,0.0040
1995.00,0.0041
1994.00,0.0041
1993.00,0.0041
1992.00,0.0041
1991.00,0.0042
1990.00,0.0042
1989.00,0.0043
1988.00,0.0045
1987.00,0.0046
1986.00,0.0046
1985.00,0.0047
1984.00,0.0048
1983.00,0.0051
1982.00,0.0053
1981.00,0.0054
1980.00,0.0052
1979.00,0.0046
1978.00,0.0038
1977.00,0.0032
1976.00,0.0028
1975.00,0.0027
1974.00,0.0028
1973.00,0.0029
1972.00,0.0031
1971.00,0.0033
1970.00,0.0033
1969.00,0.0033
1968.00,0.0032
1967.00,0.0031
1966.00,0.0030
1965.00,0.0030
1964.00,0.0031
1963.00,0.0031
1962.00,0.0030
1961.00,0.0030
1960.00,0.0030
1959.00,0.0030
1958.00,0.0031
1957.00,0.0032
1956.00,0.0033
1955.00,0.0033
1954.00,0.0033
1953.00,0.0033
1952.00,0.0034
1951.00,0.0035
1950.00,0.0034
1949.00,0.0034
1948.00,0.0034
1947.00,0.0033
1946.00,0.0033
1945.00,0.0033
1944.00,0.0034
1943.00,0.0035
1942.00,0.0035
1941.00,0.0035
1940.00,0.0035
1939.00,0.0035
1938.00,0.0034
1937.00,0.0033
1936.00,0.0032
1935.00,0.0033
1934.00,0.0033
1933.00,0.0034
1932.00,0.0035
1931.00,0.0035
1930.00,0.0035
1929.00,0.0035
1928.00,0.0035
1927.00,0.0034
1926.00,0.0034
1925.00,0.0034
1924.00,0.0034
1923.00,0.0036
1922.00,0.0037
1921.00,0.0038
1920.00,0.0039
1919.00,0.0039
1918.00,0.0039
1917.00,0.0039
1916.00,0.0039
1915.00,0.0039
1914.00,0.0039
1913.00,0.0039
1912.00,0.0040
1911.00,0.0041
1910.00,0.0042
1909.00,0.0042
1908.00,0.0042
1907.00,0.0041
1906.00,0.0040
1905.00,0.0039
1904.00,0.0039
1903.00,0.0038
1902.00,0.0038
1901.00,0.0037
1900.00,0.0037
1899.00,0.0037
1898.00,0.0037
1897.00,0.0038
1896.00,0.0038
1895.00,0.0039
1894.00,0.0039
1893.00,0.0039
1892.00,0.0039
1891.00,0.0039
1890.00,0.0039
1889.00,0.0039
1888.00,0.0039
1887.00,0.0039
1886.00,0.0039
1885.00,0.0039
1884.00,0.0039
1883.00,0.0039
1882.00,0.0038
1881.00,0.0038
1880.00,0.0038
1879.00,0.0038
1878.00,0.0038
1877.00,0.0038
1876.00,0.0039
1875.00,0.0039
1874.00,0.0038
1873.00,0.0038
1872.00,0.0038
1871.00,0.0038
1870.00,0.0038
1869.00,0.0038
1868.00,0.0039
1867.00,0.0039
1866.00,0.0039
1865.00,0.0039
1864.00,0.0039
1863.00,0.0039
1862.00,0.0039
1861.00,0.0039
1860.00,0.0039
1859.00,0.0039
1858.00,0.0039
1857.00,0.0039
1856.00,0.0039
1855.00,0.0039
1854.00,0.0039
1853.00,0.0039
1852.00,0.0039
1851.00,0.0039
1850.00,0.0039
1849.00,0.0039
1848.00,0.0040
1847.00,0.0040
1846.00,0.0040
1845.00,0.0040
1844.00,0.0040
1843.00,0.0040
1842.00,0.0040
1841.00,0.0040
1840.00,0.0040
1839.00,0.0039
1838.00,0.0039
1837.00,0.0039
1836.00,0.0039
1835.00,0.0039
1834.00,0.0039
1833.00,0.0039
1832.00,0.0039
1831.00,0.0039
1830.00,0.0039
1829.00,0.0038
1828.00,0.0039
1827.00,0.0039
1826.00,0.0039
1825.00,0.0039
1824.00,0.0040
1823.00,0.0040
1822.00,0.0039
1821.00,0.0039
1820.00,0.0038
1819.00,0.0037
1818.00,0.0036
1817.00,0.0036
1816.00,0.0036
1815.00,0.0037
1814.00,0.0038
1813.00,0.0038
1812.00,0.0038
1811.00,0.0039
1810.00,0.0039
1809.00,0.0039
1808.00,0.0039
1807.00,0.0039
1806.00,0.0038
1805.00,0.0038
1804.00,0.0038
1803.00,0.0038
1802.00,0.0039
1801.00,0.0039
1800.00,0.0039
1799.00,0.0040
1798.00,0.0040
1797.00,0.0040
1796.00,0.0040
1795.00,0.0040
1794.00,0.0040
1793.00,0.0040
1792.00,0.0040
1791.00,0.0041
1790.00,0.0041
1789.00,0.0041
1788.00,0.0041
1787.00,0.0041
1786.00,0.0041
1785.00,0.0041
1784.00,0.0041
1783.00,0.0041
1782.00,0.0040
1781.00,0.0040
1780.00,0.0040
1779.00,0.0041
1778.00,0.0041
1777.00,0.0041
1776.00,0.0041
1775.00,0.0042
1774.00,0.0041
1773.00,0.0041
1772.00,0.0041
1771.00,0.0042
1770.00,0.0042
1769.00,0.0042
1768.00,0.0042
1767.00,0.0042
1766.00,0.0042
1765.00,0.0042
1764.00,0.0042
1763.00,0.0043
1762.00,0.0043
1761.00,0.0043
1760.00,0.0044
1759.00,0.0044
1758.00,0.0044
1757.00,0.0044
1756.00,0.0044
1755.00,0.0044
1754.00,0.0044
1753.00,0.0044
1752.00,0.0044
1751.00,0.0044
1750.00,0.0044
1749.00,0.0044
1748.00,0.0045
1747.00,0.0045
1746.00,0.0045
1745.00,0.0046
1744.00,0.0046
1743.00,0.0047
1742.00,0.0047
1741.00,0.0047
1740.00,0.0047
1739.00,0.0047
1738.00,0.0048
1737.00,0.0048
1736.00,0.0049
1735.00,0.0049
1734.00,0.0049
1733.00,0.0049
1732.00,0.0051
1731.00,0.0052
1730.00,0.0052
1729.00,0.0053
1728.00,0.0053
1727.00,0.0054
1726.00,0.0054
1725.00,0.0055
1724.00,0.0057
1723.00,0.0058
1722.00,0.0059
1721.00,0.0060
1720.00,0.0061
1719.00,0.0062
1718.00,0.0063
1717.00,0.0065
1716.00,0.0068
1715.00,0.0071
1714.00,0.0073
1713.00,0.0076
1712.00,0.0079
1711.00,0.0082
1710.00,0.0085
1709.00,0.0089
1708.00,0.0094
1707.00,0.0100
1706.00,0.0106
1705.00,0.0114
1704.00,0.0123
1703.00,0.0132
1702.00,0.0141
1701.00,0.0153
1700.00,0.0169
1699.00,0.0185
1698.00,0.0200
1697.00,0.0216
1696.00,0.0236
1695.00,0.0258
1694.00,0.0279
1693.00,0.0299
1692.00,0.0320
1691.00,0.0342
1690.00,0.0366
1689.00,0.0390
1688.00,0.0414
1687.00,0.0437
1686.00,0.0460
1685.00,0.0484
1684.00,0.0509
1683.00,0.0532
1682.00,0.0554
1681.00,0.0576
1680.00,0.0598
1679.00,0.0619
1678.00,0.0639
1677.00,0.0659
1676.00,0.0678
1675.00,0.0695
1674.00,0.0710
1673.00,0.0727
1672.00,0.0744
1671.00,0.0760
1670.00,0.0773
1669.00,0.0782
1668.00,0.0793
1667.00,0.0805
1666.00,0.0818
1665.00,0.0831
1664.00,0.0842
1663.00,0.0850
1662.00,0.0856
1661.00,0.0862
1660.00,0.0870
1659.00,0.0878
1658.00,0.0887
1657.00,0.0896
1656.00,0.0908
1655.00,0.0917
1654.00,0.0913
1653.00,0.0890
1652.00,0.0870
1651.00,0.0865
1650.00,0.0868
1649.00,0.0870
1648.00,0.0863
1647.00,0.0843
1646.00,0.0816
1645.00,0.0793
1644.00,0.0775
1643.00,0.0760
1642.00,0.0743
1641.00,0.0724
1640.00,0.0704
1639.00,0.0685
1638.00,0.0666
1637.00,0.0643
1636.00,0.0612
1635.00,0.0581
1634.00,0.0558
1633.00,0.0542
1632.00,0.0532
1631.00,0.0523
1630.00,0.0515
1629.00,0.0507
1628.00,0.0501
1627.00,0.0497
1626.00,0.0494
1625.00,0.0491
1624.00,0.0486
1623.00,0.0479
1622.00,0.0471
1621.00,0.0463
1620.00,0.0455
1619.00,0.0443
1618.00,0.0427
1617.00,0.0407
1616.00,0.0386
1615.00,0.0371
1614.00,0.0361
1613.00,0.0354
1612.00,0.0348
1611.00,0.0341
1610.00,0.0333
1609.00,0.0323
1608.00,0.0312
1607.00,0.0299
1606.00,0.0286
1605.00,0.0274
1604.00,0.0261
1603.00,0.0250
1602.00,0.0239
1601.00,0.0229
1600.00,0.0220
1599.00,0.0213
1598.00,0.0207
1597.00,0.0202
1596.00,0.0198
1595.00,0.0195
1594.00,0.0194
1593.00,0.0194
1592.00,0.0196
1591.00,0.0200
1590.00,0.0205
1589.00,0.0211
1588.00,0.0218
1587.00,0.0223
1586.00,0.0227
1585.00,0.0229
1584.00,0.0229
1583.00,0.0226
1582.00,0.0222
1581.00,0.0217
1580.00,0.0211
1579.00,0.0205
1578.00,0.0198
1577.00,0.0191
1576.00,0.0183
1575.00,0.0177
1574.00,0.0172
1573.00,0.0168
1572.00,0.0165
1571.00,0.0162
1570.00,0.0158
1569.00,0.0155
1568.00,0.0152
1567.00,0.0149
1566.00,0.0146
1565.00,0.0142
1564.00,0.0138
1563.00,0.0134
1562.00,0.0131
1561.00,0.0127
1560.00,0.0123
1559.00,0.0119
1558.00,0.0117
1557.00,0.0115
1556.00,0.0113
1555.00,0.0112
1554.00,0.0111
1553.00,0.0110
1552.00,0.0108
1551.00,0.0107
1550.00,0.0106
1549.00,0.0105
1548.00,0.0104
1547.00,0.0103
1546.00,0.0102
1545.00,0.0101
1544.00,0.0100
1543.00,0.0100
1542.00,0.0099
1541.00,0.0098
1540.00,0.0097
1539.00,0.0097
1538.00,0.0097
1537.00,0.0096
1536.00,0.0096
1535.00,0.0096
1534.00,0.0095
1533.00,0.0095
1532.00,0.0095
1531.00,0.0095
1530.00,0.0095
1529.00,0.0094
1528.00,0.0095
1527.00,0.0095
1526.00,0.0095
1525.00,0.0096
1524.00,0.0096
1523.00,0.0096
1522.00,0.0097
1521.00,0.0098
1520.00,0.0099
1519.00,0.0100
1518.00,0.0102
1517.00,0.0103
1516.00,0.0105
1515.00,0.0108
1514.00,0.0110
1513.00,0.0112
1512.00,0.0114
1511.00,0.0117
1510.00,0.0120
1509.00,0.0123
1508.00,0.0127
1507.00,0.0133
1506.00,0.0139
1505.00,0.0145
1504.00,0.0151
1503.00,0.0159
1502.00,0.0168
1501.00,0.0180
1500.00,0.0194
1499.00,0.0209
1498.00,0.0225
1497.00,0.0241
1496.00,0.0252
1495.00,0.0257
1494.00,0.0258
1493.00,0.0256
1492.00,0.0251
1491.00,0.0242
1490.00,0.0231
1489.00,0.0219
1488.00,0.0207
1487.00,0.0196
1486.00,0.0185
1485.00,0.0175
1484.00,0.0167
1483.00,0.0160
1482.00,0.0154
1481.00,0.0150
1480.00,0.0147
1479.00,0.0145
1478.00,0.0145
1477.00,0.0147
1476.00,0.0151
1475.00,0.0157
1474.00,0.0165
1473.00,0.0177
1472.00,0.0192
1471.00,0.0210
1470.00,0.0229
1469.00,0.0251
1468.00,0.0275
1467.00,0.0299
1466.00,0.0325
1465.00,0.0349
1464.00,0.0369
1463.00,0.0384
1462.00,0.0396
1461.00,0.0404
1460.00,0.0409
1459.00,0.0408
1458.00,0.0398
1457.00,0.0379
1456.00,0.0358
1455.00,0.0340
1454.00,0.0327
1453.00,0.0318
1452.00,0.0311
1451.00,0.0306
1450.00,0.0305
1449.00,0.0308
1448.00,0.0314
1447.00,0.0324
1446.00,0.0337
1445.00,0.0352
1444.00,0.0370
1443.00,0.0389
1442.00,0.0409
1441.00,0.0429
1440.00,0.0448
1439.00,0.0465
1438.00,0.0481
1437.00,0.0496
1436.00,0.0509
1435.00,0.0521
1434.00,0.0531
1433.00,0.0541
1432.00,0.0550
1431.00,0.0558
1430.00,0.0566
1429.00,0.0576
1428.00,0.0588
1427.00,0.0601
1426.00,0.0615
1425.00,0.0630
1424.00,0.0644
1423.00,0.0653
1422.00,0.0659
1421.00,0.0659
1420.00,0.0649
1419.00,0.0627
1418.00,0.0598
1417.00,0.0568
1416.00,0.0538
1415.00,0.0506
1414.00,0.0474
1413.00,0.0444
1412.00,0.0415
1411.00,0.0389
1410.00,0.0368
1409.00,0.0351
1408.00,0.0337
1407.00,0.0327
1406.00,0.0320
1405.00,0.0315
1404.00,0.0311
1403.00,0.0308
1402.00,0.0305
1401.00,0.0302
1400.00,0.0297
1399.00,0.0289
1398.00,0.0281
1397.00,0.0273
1396.00,0.0264
1395.00,0.0254
1394.00,0.0245
1393.00,0.0237
1392.00,0.0231
1391.00,0.0228
1390.00,0.0228
1389.00,0.0231
1388.00,0.0236
1387.00,0.0243
1386.00,0.0249
1385.00,0.0253
1384.00,0.0255
1383.00,0.0258
1382.00,0.0262
1381.00,0.0268
1380.00,0.0274
1379.00,0.0279
1378.00,0.0284
1377.00,0.0286
1376.00,0.0287
1375.00,0.0285
1374.00,0.0282
1373.00,0.0279
1372.00,0.0276
1371.00,0.0274
1370.00,0.0273
1369.00,0.0274
1368.00,0.0276
1367.00,0.0279
1366.00,0.0281
1365.00,0.0281
1364.00,0.0278
1363.00,0.0276
1362.00,0.0274
1361.00,0.0273
1360.00,0.0270
1359.00,0.0264
1358.00,0.0255
1357.00,0.0244
1356.00,0.0234
1355.00,0.0225
1354.00,0.0218
1353.00,0.0213
1352.00,0.0208
1351.00,0.0205
1350.00,0.0203
1349.00,0.0201
1348.00,0.0199
1347.00,0.0198
1346.00,0.0196
1345.00,0.0194
1344.00,0.0191
1343.00,0.0188
1342.00,0.0186
1341.00,0.0183
1340.00,0.0181
1339.00,0.0179
1338.00,0.0178
1337.00,0.0178
1336.00,0.0178
1335.00,0.0180
1334.00,0.0183
1333.00,0.0187
1332.00,0.0192
1331.00,0.0196
1330.00,0.0201
1329.00,0.0207
1328.00,0.0212
1327.00,0.0217
1326.00,0.0223
1325.00,0.0230
1324.00,0.0236
1323.00,0.0244
1322.00,0.0251
1321.00,0.0259
1320.00,0.0266
1319.00,0.0272
1318.00,0.0276
1317.00,0.0278
1316.00,0.0278
1315.00,0.0277
1314.00,0.0275
1313.00,0.0271
1312.00,0.0267
1311.00,0.0262
1310.00,0.0259
1309.00,0.0257
1308.00,0.0256
1307.00,0.0258
1306.00,0.0262
1305.00,0.0269
1304.00,0.0279
1303.00,0.0290
1302.00,0.0304
1301.00,0.0318
1300.00,0.0332
1299.00,0.0348
1298.00,0.0367
1297.00,0.0389
1296.00,0.0416
1295.00,0.0446
1294.00,0.0479
1293.00,0.0512
1292.00,0.0545
1291.00,0.0577
1290.00,0.0607
1289.00,0.0634
1288.00,0.0658
1287.00,0.0677
1286.00,0.0692
1285.00,0.0701
1284.00,0.0703
1283.00,0.0699
1282.00,0.0689
1281.00,0.0677
1280.00,0.0663
1279.00,0.0650
1278.00,0.0640
1277.00,0.0633
1276.00,0.0631
1275.00,0.0631
1274.00,0.0634
1273.00,0.0638
1272.00,0.0640
1271.00,0.0640
1270.00,0.0637
1269.00,0.0631
1268.00,0.0622
1267.00,0.0609
1266.00,0.0592
1265.00,0.0574
1264.00,0.0554
1263.00,0.0532
1262.00,0.0510
1261.00,0.0489
1260.00,0.0467
1259.00,0.0447
1258.00,0.0429
1257.00,0.0412
1256.00,0.0396
1255.00,0.0382
1254.00,0.0369
1253.00,0.0359
1252.00,0.0349
1251.00,0.0342
1250.00,0.0336
1249.00,0.0332
1248.00,0.0330
1247.00,0.0329
1246.00,0.0330
1245.00,0.0332
1244.00,0.0334
1243.00,0.0337
1242.00,0.0339
1241.00,0.0343
1240.00,0.0347
1239.00,0.0352
1238.00,0.0359
1237.00,0.0368
1236.00,0.0376
1235.00,0.0384
1234.00,0.0391
1233.00,0.0396
1232.00,0.0398
1231.00,0.0398
1230.00,0.0396
1229.00,0.0392
1228.00,0.0388
1227.00,0.0384
1226.00,0.0379
1225.00,0.0375
1224.00,0.0371
1223.00,0.0368
1222.00,0.0365
1221.00,0.0363
1220.00,0.0362
1219.00,0.0361
1218.00,0.0360
1217.00,0.0360
1216.00,0.0358
1215.00,0.0356
1214.00,0.0352
1213.00,0.0347
1212.00,0.0339
1211.00,0.0331
1210.00,0.0322
1209.00,0.0313
1208.00,0.0306
1207.00,0.0299
1206.00,0.0294
1205.00,0.0290
1204.00,0.0288
1203.00,0.0287
1202.00,0.0288
1201.00,0.0291
1200.00,0.0294
1199.00,0.0298
1198.00,0.0302
1197.00,0.0307
1196.00,0.0311
1195.00,0.0313
1194.00,0.0314
1193.00,0.0311
1192.00,0.0306
1191.00,0.0299
1190.00,0.0291
1189.00,0.0283
1188.00,0.0274
1187.00,0.0265
1186.00,0.0258
1185.00,0.0252
1184.00,0.0247
1183.00,0.0243
1182.00,0.0240
1181.00,0.0239
1180.00,0.0237
1179.00,0.0237
1178.00,0.0237
1177.00,0.0239
1176.00,0.0240
1175.00,0.0243
1174.00,0.0245
1173.00,0.0248
1172.00,0.0251
1171.00,0.0253
1170.00,0.0255
1169.00,0.0257
1168.00,0.0257
1167.00,0.0258
1166.00,0.0258
1165.00,0.0258
1164.00,0.0257
1163.00,0.0257
1162.00,0.0258
1161.00,0.0260
1160.00,0.0263
1159.00,0.0269
1158.00,0.0277
1157.00,0.0286
1156.00,0.0294
1155.00,0.0298
1154.00,0.0297
1153.00,0.0290
1152.00,0.0278
1151.00,0.0263
1150.00,0.0248
1149.00,0.0235
1148.00,0.0223
1147.00,0.0214
1146.00,0.0208
1145.00,0.0203
1144.00,0.0198
1143.00,0.0195
1142.00,0.0192
1141.00,0.0190
1140.00,0.0188
1139.00,0.0187
1138.00,0.0187
1137.00,0.0189
1136.00,0.0192
1135.00,0.0197
1134.00,0.0206
1133.00,0.0217
1132.00,0.0231
1131.00,0.0246
1130.00,0.0259
1129.00,0.0268
1128.00,0.0273
1127.00,0.0272
1126.00,0.0267
1125.00,0.0260
1124.00,0.0250
1123.00,0.0240
1122.00,0.0229
1121.00,0.0219
1120.00,0.0210
1119.00,0.0204
1118.00,0.0199
1117.00,0.0196
1116.00,0.0194
1115.00,0.0193
1114.00,0.0193
1113.00,0.0193
1112.00,0.0191
1111.00,0.0189
1110.00,0.0187
1109.00,0.0185
1108.00,0.0184
1107.00,0.0184
1106.00,0.0185
1105.00,0.0188
1104.00,0.0193
1103.00,0.0200
1102.00,0.0208
1101.00,0.0217
1100.00,0.0222
1099.00,0.0224
1098.00,0.0221
1097.00,0.0215
1096.00,0.0207
1095.00,0.0199
1094.00,0.0192
1093.00,0.0186
1092.00,0.0181
1091.00,0.0177
1090.00,0.0174
1089.00,0.0172
1088.00,0.0170
1087.00,0.0170
1086.00,0.0169
1085.00,0.0169
1084.00,0.0168
1083.00,0.0168
1082.00,0.0169
1081.00,0.0169
1080.00,0.0170
1079.00,0.0171
1078.00,0.0173
1077.00,0.0176
1076.00,0.0177
1075.00,0.0179
1074.00,0.0180
1073.00,0.0181
1072.00,0.0181
1071.00,0.0181
1070.00,0.0181
1069.00,0.0181
1068.00,0.0182
1067.00,0.0182
1066.00,0.0184
1065.00,0.0187
1064.00,0.0190
1063.00,0.0195
1062.00,0.0202
1061.00,0.0211
1060.00,0.0222
1059.00,0.0235
1058.00,0.0250
1057.00,0.0266
1056.00,0.0281
1055.00,0.0293
1054.00,0.0302
1053.00,0.0308
1052.00,0.0311
1051.00,0.0311
1050.00,0.0310
1049.00,0.0306
1048.00,0.0300
1047.00,0.0291
1046.00,0.0281
1045.00,0.0270
1044.00,0.0258
1043.00,0.0247
1042.00,0.0236
1041.00,0.0227
1040.00,0.0219
1039.00,0.0213
1038.00,0.0211
1037.00,0.0210
1036.00,0.0210
1035.00,0.0212
1034.00,0.0215
1033.00,0.0219
1032.00,0.0226
1031.00,0.0236
1030.00,0.0249
1029.00,0.0263
1028.00,0.0276
1027.00,0.0284
1026.00,0.0287
1025.00,0.0284
1024.00,0.0277
1023.00,0.0267
1022.00,0.0258
1021.00,0.0249
1020.00,0.0241
1019.00,0.0235
1018.00,0.0229
1017.00,0.0224
1016.00,0.0218
1015.00,0.0211
1014.00,0.0205
1013.00,0.0199
1012.00,0.0193
1011.00,0.0190
1010.00,0.0188
1009.00,0.0189
1008.00,0.0191
1007.00,0.0196
1006.00,0.0202
1005.00,0.0209
1004.00,0.0214
1003.00,0.0218
1002.00,0.0219
1001.00,0.0219
1000.00,0.0216
999.00,0.0211
998.00,0.0207
997.00,0.0202
996.00,0.0197
995.00,0.0193
994.00,0.0189
993.00,0.0186
992.00,0.0181
991.00,0.0177
990.00,0.0172
989.00,0.0168
988.00,0.0164
987.00,0.0160
986.00,0.0158
985.00,0.0155
984.00,0.0152
983.00,0.0150
982.00,0.0149
981.00,0.0148
980.00,0.0147
979.00,0.0146
978.00,0.0146
977.00,0.0146
976.00,0.0145
975.00,0.0144
974.00,0.0144
973.00,0.0144
972.00,0.0143
971.00,0.0142
970.00,0.0141
969.00,0.0140
968.00,0.0139
967.00,0.0139
966.00,0.0139
965.00,0.0139
964.00,0.0140
963.00,0.0140
962.00,0.0140
961.00,0.0140
960.00,0.0138
959.00,0.0135
958.00,0.0133
957.00,0.0132
956.00,0.0130
955.00,0.0129
954.00,0.0128
953.00,0.0128
952.00,0.0127
951.00,0.0127
950.00,0.0128
949.00,0.0130
948.00,0.0131
947.00,0.0131
946.00,0.0131
945.00,0.0132
944.00,0.0133
943.00,0.0135
942.00,0.0138
941.00,0.0141
940.00,0.0145
939.00,0.0149
938.00,0.0154
937.00,0.0160
936.00,0.0164
935.00,0.0169
934.00,0.0173
933.00,0.0175
932.00,0.0175
931.00,0.0172
930.00,0.0169
929.00,0.0165
928.00,0.0162
927.00,0.0160
926.00,0.0160
925.00,0.0161
924.00,0.0161
923.00,0.0162
922.00,0.0162
921.00,0.0162
920.00,0.0159
919.00,0.0155
918.00,0.0150
917.00,0.0146
916.00,0.0143
915.00,0.0140
914.00,0.0138
913.00,0.0137
912.00,0.0136
911.00,0.0135
910.00,0.0135
909.00,0.0135
908.00,0.0135
907.00,0.0136
906.00,0.0138
905.00,0.0141
904.00,0.0144
903.00,0.0149
902.00,0.0155
901.00,0.0161
900.00,0.0166
899.00,0.0169
898.00,0.0170
897.00,0.0169
896.00,0.0166
895.00,0.0163
894.00,0.0162
893.00,0.0162
892.00,0.0163
891.00,0.0166
890.00,0.0167
889.00,0.0165
888.00,0.0159
887.00,0.0152
886.00,0.0146
885.00,0.0142
884.00,0.0139
883.00,0.0137
882.00,0.0137
881.00,0.0137
880.00,0.0138
879.00,0.0141
878.00,0.0146
877.00,0.0153
876.00,0.0161
875.00,0.0172
874.00,0.0184
873.00,0.0196
872.00,0.0208
871.00,0.0218
870.00,0.0225
869.00,0.0227
868.00,0.0225
867.00,0.0220
866.00,0.0214
865.00,0.0208
864.00,0.0202
863.00,0.0197
862.00,0.0193
861.00,0.0190
860.00,0.0188
859.00,0.0188
858.00,0.0192
857.00,0.0198
856.00,0.0207
855.00,0.0217
854.00,0.0228
853.00,0.0239
852.00,0.0248
851.00,0.0258
850.00,0.0268
849.00,0.0275
848.00,0.0278
847.00,0.0277
846.00,0.0273
845.00,0.0268
844.00,0.0263
843.00,0.0258
842.00,0.0254
841.00,0.0250
840.00,0.0248
839.00,0.0247
838.00,0.0249
837.00,0.0252
836.00,0.0256
835.00,0.0258
834.00,0.0259
833.00,0.0257
832.00,0.0252
831.00,0.0244
830.00,0.0235
829.00,0.0224
828.00,0.0212
827.00,0.0201
826.00,0.0194
825.00,0.0190
824.00,0.0191
823.00,0.0199
822.00,0.0214
821.00,0.0230
820.00,0.0241
819.00,0.0246
818.00,0.0250
817.00,0.0255
816.00,0.0259
815.00,0.0256
814.00,0.0244
813.00,0.0226
812.00,0.0206
811.00,0.0190
810.00,0.0178
809.00,0.0169
808.00,0.0162
807.00,0.0157
806.00,0.0152
805.00,0.0149
804.00,0.0145
803.00,0.0143
802.00,0.0142
801.00,0.0141
800.00,0.0139
799.00,0.0137
798.00,0.0136
797.00,0.0136
796.00,0.0135
795.00,0.0135
794.00,0.0136
793.00,0.0136
792.00,0.0136
791.00,0.0137
790.00,0.0137
789.00,0.0138
788.00,0.0138
787.00,0.0138
786.00,0.0138
785.00,0.0138
784.00,0.0138
783.00,0.0139
782.00,0.0140
781.00,0.0142
780.00,0.0143
779.00,0.0145
778.00,0.0148
777.00,0.0152
776.00,0.0155
775.00,0.0160
774.00,0.0163
773.00,0.0164
772.00,0.0162
771.00,0.0160
770.00,0.0159
769.00,0.0159
768.00,0.0159
767.00,0.0160
766.00,0.0162
765.00,0.0164
764.00,0.0167
763.00,0.0170
762.00,0.0174
761.00,0.0178
760.00,0.0182
759.00,0.0185
758.00,0.0188
757.00,0.0190
756.00,0.0191
755.00,0.0193
754.00,0.0196
753.00,0.0199
752.00,0.0201
751.00,0.0204
750.00,0.0208
749.00,0.0212
748.00,0.0215
747.00,0.0218
746.00,0.0222
745.00,0.0225
744.00,0.0229
743.00,0.0233
742.00,0.0239
741.00,0.0245
740.00,0.0252
739.00,0.0260
738.00,0.0271
737.00,0.0282
736.00,0.0293
735.00,0.0300
734.00,0.0304
733.00,0.0302
732.00,0.0297
731.00,0.0292
730.00,0.0289
729.00,0.0286
728.00,0.0281
727.00,0.0274
726.00,0.0265
725.00,0.0255
724.00,0.0245
723.00,0.0236
722.00,0.0230
721.00,0.0226
720.00,0.0224
719.00,0.0223
718.00,0.0225
717.00,0.0228
716.00,0.0230
715.00,0.0231
714.00,0.0232
713.00,0.0231
712.00,0.0228
711.00,0.0225
710.00,0.0224
709.00,0.0223
708.00,0.0222
707.00,0.0221
706.00,0.0222
705.00,0.0224
704.00,0.0225
703.00,0.0227
702.00,0.0229
701.00,0.0232
700.00,0.0234
699.00,0.0236
698.00,0.0239
697.00,0.0242
696.00,0.0243
695.00,0.0244
694.00,0.0245
693.00,0.0248
692.00,0.0250
691.00,0.0255
690.00,0.0261
689.00,0.0267
688.00,0.0271
687.00,0.0274
686.00,0.0275
685.00,0.0275
684.00,0.0274
683.00,0.0274
682.00,0.0276
681.00,0.0278
680.00,0.0282
679.00,0.0285
678.00,0.0291
677.00,0.0296
676.00,0.0301
675.00,0.0306
674.00,0.0313
673.00,0.0320
672.00,0.0326
671.00,0.0331
670.00,0.0336
669.00,0.0340
668.00,0.0343
667.00,0.0348
666.00,0.0355
665.00,0.0361
664.00,0.0366
663.00,0.0373
662.00,0.0380
661.00,0.0387
660.00,0.0391
659.00,0.0395
658.00,0.0400
657.00,0.0404
656.00,0.0409
655.00,0.0413
654.00,0.0419
653.00,0.0425
652.00,0.0430
651.00,0.0433
650.00,0.0436
649.00,0.0438
648.00,0.0439
647.00,0.0440
646.00,0.0440
645.00,0.0438
644.00,0.0434
643.00,0.0429
642.00,0.0425
641.00,0.0421
640.00,0.0416
639.00,0.0411
638.00,0.0407
637.00,0.0403
636.00,0.0398
635.00,0.0394
634.00,0.0390
633.00,0.0387
632.00,0.0384
631.00,0.0381
630.00,0.0380
629.00,0.0379
628.00,0.0377
627.00,0.0376
626.00,0.0376
625.00,0.0376
624.00,0.0376
623.00,0.0376
622.00,0.0379
621.00,0.0381
620.00,0.0382
619.00,0.0382
618.00,0.0381
617.00,0.0379
616.00,0.0375
615.00,0.0372
614.00,0.0370
613.00,0.0369
612.00,0.0367
611.00,0.0366
610.00,0.0369
609.00,0.0373
608.00,0.0377
607.00,0.0384
606.00,0.0391
605.00,0.0399
604.00,0.0405
603.00,0.0409
602.00,0.0412
601.00,0.0414
600.00,0.0414
599.00,0.0415
598.00,0.0418
597.00,0.0421
596.00,0.0424
595.00,0.0426
594.00,0.0429
593.00,0.0431
592.00,0.0432
591.00,0.0434
590.00,0.0438
589.00,0.0441
588.00,0.0443
587.00,0.0446
586.00,0.0452
585.00,0.0459
584.00,0.0466
583.00,0.0473
582.00,0.0482
581.00,0.0490
580.00,0.0498
579.00,0.0506
578.00,0.0517
577.00,0.0526
576.00,0.0531
575.00,0.0532
574.00,0.0531
573.00,0.0527
572.00,0.0521
571.00,0.0516
570.00,0.0513
569.00,0.0510
568.00,0.0506
567.00,0.0503
566.00,0.0503
565.00,0.0503
564.00,0.0503
563.00,0.0502
562.00,0.0503
561.00,0.0503
560.00,0.0500
559.00,0.0496
558.00,0.0493
557.00,0.0489
556.00,0.0483
555.00,0.0477
554.00,0.0473
553.00,0.0470
552.00,0.0466
551.00,0.0464
550.00,0.0467
549.00,0.0472
548.00,0.0475
547.00,0.0477
546.00,0.0479
545.00,0.0477
544.00,0.0471
543.00,0.0464
542.00,0.0459
541.00,0.0454
540.00,0.0448
539.00,0.0444
538.00,0.0444
537.00,0.0445
536.00,0.0444
535.00,0.0446
534.00,0.0450
533.00,0.0456
532.00,0.0459
531.00,0.0460
530.00,0.0461
529.00,0.0459
528.00,0.0454
527.00,0.0449
526.00,0.0446
525.00,0.0441
524.00,0.0435
523.00,0.0430
522.00,0.0430
521.00,0.0429
520.00,0.0427
519.00,0.0425
518.00,0.0426
517.00,0.0427
516.00,0.0424
515.00,0.0422
514.00,0.0422
513.00,0.0421
512.00,0.0420
511.00,0.0419
510.00,0.0421
509.00,0.0422
508.00,0.0422
507.00,0.0422
506.00,0.0425
505.00,0.0427
504.00,0.0425
503.00,0.0423
502.00,0.0423
501.00,0.0422
500.00,0.0419
499.00,0.0417
498.00,0.0419
497.00,0.0421
496.00,0.0421
495.00,0.0423
494.00,0.0427
493.00,0.0429
492.00,0.0426
491.00,0.0423
490.00,0.0424
489.00,0.0428
488.00,0.0430
487.00,0.0430
486.00,0.0431
485.00,0.0430
484.00,0.0427
483.00,0.0425
482.00,0.0427
481.00,0.0428
480.00,0.0426
479.00,0.0424
478.00,0.0425
477.00,0.0425
476.00,0.0423
475.00,0.0421
474.00,0.0423
473.00,0.0425
472.00,0.0423
471.00,0.0421
470.00,0.0425
469.00,0.0428
468.00,0.0427
467.00,0.0426
466.00,0.0429
465.00,0.0431
464.00,0.0428
463.00,0.0424
462.00,0.0425
461.00,0.0427
460.00,0.0426
459.00,0.0425
458.00,0.0427
457.00,0.0425
456.00,0.0419
455.00,0.0415
454.00,0.0419
453.00,0.0421
452.00,0.0417
451.00,0.0413
450.00,0.0414
449.00,0.0414
448.00,0.0411
447.00,0.0410
446.00,0.0415
445.00,0.0417
444.00,0.0411
443.00,0.0403
442.00,0.0402
441.00,0.0404
440.00,0.0401
439.00,0.0398
438.00,0.0397
437.00,0.0395
436.00,0.0390
435.00,0.0389
434.00,0.0393
433.00,0.0396
432.00,0.0392
431.00,0.0386
430.00,0.0386
429.00,0.0387
428.00,0.0383
427.00,0.0381
426.00,0.0384
425.00,0.0386
424.00,0.0381
423.00,0.0378
422.00,0.0385
421.00,0.0393
420.00,0.0390
419.00,0.0382
418.00,0.0383
417.00,0.0383
416.00,0.0375
415.00,0.0369
414.00,0.0377
413.00,0.0388
412.00,0.0391
411.00,0.0389
410.00,0.0390
409.00,0.0388
408.00,0.0379
407.00,0.0374
406.00,0.0382
405.00,0.0390
404.00,0.0383
403.00,0.0375
402.00,0.0378
401.00,0.0382
400.00,0.0376
