Created as New Dataset,Sample 809 By YargerLab Date Thursday, July 10 2025
cm-1,A
4000.00,0.0035
3999.00,0.0035
3998.00,0.0036
3997.00,0.0036
3996.00,0.0036
3995.00,0.0036
3994.00,0.0035
3993.00,0.0035
3992.00,0.0035
3991.00,0.0035
3990.00,0.0035
3989.00,0.0035
3988.00,0.0036
3987.00,0.0035
3986.00,0.0035
3985.00,0.0035
3984.00,0.0035
3983.00,0.0035
3982.00,0.0035
3981.00,0.0035
3980.00,0.0035
3979.00,0.0035
3978.00,0.0035
3977.00,0.0035
3976.00,0.0035
3975.00,0.0035
3974.00,0.0035
3973.00,0.0035
3972.00,0.0035
3971.00,0.0035
3970.00,0.0035
3969.00,0.0035
3968.00,0.0035
3967.00,0.0035
3966.00,0.0035
3965.00,0.0035
3964.00,0.0035
3963.00,0.0035
3962.00,0.0035
3961.00,0.0035
3960.00,0.0035
3959.00,0.0035
3958.00,0.0035
3957.00,0.0035
3956.00,0.0035
3955.00,0.0035
3954.00,0.0035
3953.00,0.0035
3952.00,0.0035
3951.00,0.0035
3950.00,0.0035
3949.00,0.0035
3948.00,0.0035
3947.00,0.0035
3946.00,0.0035
3945.00,0.0035
3944.00,0.0035
3943.00,0.0035
3942.00,0.0035
3941.00,0.0036
3940.00,0.0035
3939.00,0.0035
3938.00,0.0035
3937.00,0.0035
3936.00,0.0036
3935.00,0.0036
3934.00,0.0035
3933.00,0.0035
3932.00,0.0035
3931.00,0.0035
3930.00,0.0035
3929.00,0.0035
3928.00,0.0035
3927.00,0.0035
3926.00,0.0035
3925.00,0.0035
3924.00,0.0035
3923.00,0.0035
3922.00,0.0035
3921.00,0.0035
3920.00,0.0035
3919.00,0.0035
3918.00,0.0035
3917.00,0.0035
3916.00,0.0035
3915.00,0.0036
3914.00,0.0035
3913.00,0.0035
3912.00,0.0035
3911.00,0.0034
3910.00,0.0034
3909.00,0.0035
3908.00,0.0035
3907.00,0.0035
3906.00,0.0035
3905.00,0.0036
3904.00,0.0036
3903.00,0.0036
3902.00,0.0036
3901.00,0.0035
3900.00,0.0035
3899.00,0.0035
3898.00,0.0035
3897.00,0.0035
3896.00,0.0035
3895.00,0.0035
3894.00,0.0035
3893.00,0.0035
3892.00,0.0035
3891.00,0.0035
3890.00,0.0036
3889.00,0.0036
3888.00,0.0035
3887.00,0.0035
3886.00,0.0035
3885.00,0.0035
3884.00,0.0035
3883.00,0.0035
3882.00,0.0035
3881.00,0.0034
3880.00,0.0035
3879.00,0.0036
3878.00,0.0036
3877.00,0.0036
3876.00,0.0035
3875.00,0.0035
3874.00,0.0035
3873.00,0.0035
3872.00,0.0035
3871.00,0.0035
3870.00,0.0035
3869.00,0.0035
3868.00,0.0036
3867.00,0.0035
3866.00,0.0035
3865.00,0.0034
3864.00,0.0034
3863.00,0.0035
3862.00,0.0035
3861.00,0.0035
3860.00,0.0035
3859.00,0.0035
3858.00,0.0035
3857.00,0.0035
3856.00,0.0035
3855.00,0.0035
3854.00,0.0035
3853.00,0.0034
3852.00,0.0035
3851.00,0.0035
3850.00,0.0034
3849.00,0.0034
3848.00,0.0034
3847.00,0.0035
3846.00,0.0035
3845.00,0.0035
3844.00,0.0036
3843.00,0.0036
3842.00,0.0036
3841.00,0.0036
3840.00,0.0036
3839.00,0.0035
3838.00,0.0035
3837.00,0.0034
3836.00,0.0034
3835.00,0.0034
3834.00,0.0034
3833.00,0.0034
3832.00,0.0034
3831.00,0.0035
3830.00,0.0035
3829.00,0.0035
3828.00,0.0035
3827.00,0.0035
3826.00,0.0035
3825.00,0.0036
3824.00,0.0036
3823.00,0.0036
3822.00,0.0035
3821.00,0.0035
3820.00,0.0035
3819.00,0.0036
3818.00,0.0036
3817.00,0.0035
3816.00,0.0035
3815.00,0.0035
3814.00,0.0035
3813.00,0.0035
3812.00,0.0035
3811.00,0.0035
3810.00,0.0035
3809.00,0.0035
3808.00,0.0035
3807.00,0.0035
3806.00,0.0036
3805.00,0.0036
3804.00,0.0036
3803.00,0.0035
3802.00,0.0035
3801.00,0.0035
3800.00,0.0035
3799.00,0.0035
3798.00,0.0034
3797.00,0.0034
3796.00,0.0034
3795.00,0.0035
3794.00,0.0035
3793.00,0.0035
3792.00,0.0035
3791.00,0.0035
3790.00,0.0035
3789.00,0.0036
3788.00,0.0035
3787.00,0.0035
3786.00,0.0035
3785.00,0.0035
3784.00,0.0035
3783.00,0.0035
3782.00,0.0035
3781.00,0.0035
3780.00,0.0035
3779.00,0.0035
3778.00,0.0035
3777.00,0.0035
3776.00,0.0035
3775.00,0.0035
3774.00,0.0035
3773.00,0.0036
3772.00,0.0035
3771.00,0.0035
3770.00,0.0035
3769.00,0.0035
3768.00,0.0036
3767.00,0.0036
3766.00,0.0036
3765.00,0.0035
3764.00,0.0035
3763.00,0.0035
3762.00,0.0035
3761.00,0.0035
3760.00,0.0035
3759.00,0.0035
3758.00,0.0035
3757.00,0.0035
3756.00,0.0035
3755.00,0.0036
3754.00,0.0036
3753.00,0.0036
3752.00,0.0036
3751.00,0.0035
3750.00,0.0035
3749.00,0.0035
3748.00,0.0036
3747.00,0.0036
3746.00,0.0035
3745.00,0.0035
3744.00,0.0035
3743.00,0.0036
3742.00,0.0036
3741.00,0.0036
3740.00,0.0036
3739.00,0.0036
3738.00,0.0037
3737.00,0.0037
3736.00,0.0037
3735.00,0.0036
3734.00,0.0036
3733.00,0.0035
3732.00,0.0035
3731.00,0.0035
3730.00,0.0035
3729.00,0.0035
3728.00,0.0035
3727.00,0.0035
3726.00,0.0035
3725.00,0.0035
3724.00,0.0035
3723.00,0.0034
3722.00,0.0034
3721.00,0.0034
3720.00,0.0035
3719.00,0.0035
3718.00,0.0035
3717.00,0.0035
3716.00,0.0035
3715.00,0.0035
3714.00,0.0035
3713.00,0.0035
3712.00,0.0035
3711.00,0.0035
3710.00,0.0035
3709.00,0.0035
3708.00,0.0035
3707.00,0.0035
3706.00,0.0035
3705.00,0.0035
3704.00,0.0036
3703.00,0.0036
3702.00,0.0036
3701.00,0.0036
3700.00,0.0036
3699.00,0.0036
3698.00,0.0036
3697.00,0.0036
3696.00,0.0036
3695.00,0.0036
3694.00,0.0036
3693.00,0.0036
3692.00,0.0036
3691.00,0.0035
3690.00,0.0035
3689.00,0.0034
3688.00,0.0033
3687.00,0.0033
3686.00,0.0033
3685.00,0.0033
3684.00,0.0033
3683.00,0.0034
3682.00,0.0034
3681.00,0.0034
3680.00,0.0035
3679.00,0.0036
3678.00,0.0036
3677.00,0.0036
3676.00,0.0035
3675.00,0.0035
3674.00,0.0035
3673.00,0.0035
3672.00,0.0035
3671.00,0.0034
3670.00,0.0034
3669.00,0.0034
3668.00,0.0035
3667.00,0.0035
3666.00,0.0035
3665.00,0.0035
3664.00,0.0035
3663.00,0.0035
3662.00,0.0035
3661.00,0.0035
3660.00,0.0035
3659.00,0.0035
3658.00,0.0035
3657.00,0.0035
3656.00,0.0036
3655.00,0.0036
3654.00,0.0037
3653.00,0.0037
3652.00,0.0038
3651.00,0.0038
3650.00,0.0038
3649.00,0.0038
3648.00,0.0037
3647.00,0.0037
3646.00,0.0037
3645.00,0.0037
3644.00,0.0036
3643.00,0.0036
3642.00,0.0036
3641.00,0.0036
3640.00,0.0036
3639.00,0.0036
3638.00,0.0036
3637.00,0.0036
3636.00,0.0036
3635.00,0.0037
3634.00,0.0037
3633.00,0.0037
3632.00,0.0038
3631.00,0.0038
3630.00,0.0037
3629.00,0.0037
3628.00,0.0037
3627.00,0.0038
3626.00,0.0037
3625.00,0.0036
3624.00,0.0036
3623.00,0.0036
3622.00,0.0036
3621.00,0.0037
3620.00,0.0037
3619.00,0.0038
3618.00,0.0038
3617.00,0.0038
3616.00,0.0038
3615.00,0.0037
3614.00,0.0037
3613.00,0.0037
3612.00,0.0037
3611.00,0.0038
3610.00,0.0037
3609.00,0.0037
3608.00,0.0037
3607.00,0.0038
3606.00,0.0038
3605.00,0.0038
3604.00,0.0038
3603.00,0.0038
3602.00,0.0038
3601.00,0.0038
3600.00,0.0037
3599.00,0.0037
3598.00,0.0037
3597.00,0.0037
3596.00,0.0037
3595.00,0.0037
3594.00,0.0038
3593.00,0.0038
3592.00,0.0039
3591.00,0.0039
3590.00,0.0039
3589.00,0.0039
3588.00,0.0039
3587.00,0.0039
3586.00,0.0039
3585.00,0.0039
3584.00,0.0039
3583.00,0.0039
3582.00,0.0038
3581.00,0.0038
3580.00,0.0038
3579.00,0.0038
3578.00,0.0039
3577.00,0.0039
3576.00,0.0039
3575.00,0.0039
3574.00,0.0039
3573.00,0.0040
3572.00,0.0040
3571.00,0.0040
3570.00,0.0040
3569.00,0.0040
3568.00,0.0040
3567.00,0.0040
3566.00,0.0040
3565.00,0.0040
3564.00,0.0040
3563.00,0.0040
3562.00,0.0040
3561.00,0.0040
3560.00,0.0041
3559.00,0.0041
3558.00,0.0041
3557.00,0.0041
3556.00,0.0041
3555.00,0.0041
3554.00,0.0041
3553.00,0.0041
3552.00,0.0041
3551.00,0.0042
3550.00,0.0042
3549.00,0.0042
3548.00,0.0042
3547.00,0.0043
3546.00,0.0043
3545.00,0.0043
3544.00,0.0042
3543.00,0.0042
3542.00,0.0042
3541.00,0.0042
3540.00,0.0042
3539.00,0.0042
3538.00,0.0042
3537.00,0.0042
3536.00,0.0042
3535.00,0.0042
3534.00,0.0042
3533.00,0.0042
3532.00,0.0043
3531.00,0.0043
3530.00,0.0043
3529.00,0.0043
3528.00,0.0043
3527.00,0.0043
3526.00,0.0043
3525.00,0.0042
3524.00,0.0042
3523.00,0.0042
3522.00,0.0042
3521.00,0.0043
3520.00,0.0043
3519.00,0.0043
3518.00,0.0043
3517.00,0.0043
3516.00,0.0043
3515.00,0.0043
3514.00,0.0043
3513.00,0.0043
3512.00,0.0043
3511.00,0.0043
3510.00,0.0043
3509.00,0.0042
3508.00,0.0043
3507.00,0.0043
3506.00,0.0043
3505.00,0.0043
3504.00,0.0043
3503.00,0.0043
3502.00,0.0043
3501.00,0.0043
3500.00,0.0043
3499.00,0.0043
3498.00,0.0042
3497.00,0.0042
3496.00,0.0042
3495.00,0.0042
3494.00,0.0042
3493.00,0.0042
3492.00,0.0043
3491.00,0.0043
3490.00,0.0043
3489.00,0.0042
3488.00,0.0042
3487.00,0.0042
3486.00,0.0043
3485.00,0.0043
3484.00,0.0043
3483.00,0.0043
3482.00,0.0043
3481.00,0.0043
3480.00,0.0043
3479.00,0.0044
3478.00,0.0044
3477.00,0.0044
3476.00,0.0044
3475.00,0.0044
3474.00,0.0044
3473.00,0.0044
3472.00,0.0044
3471.00,0.0044
3470.00,0.0044
3469.00,0.0044
3468.00,0.0044
3467.00,0.0044
3466.00,0.0044
3465.00,0.0044
3464.00,0.0044
3463.00,0.0044
3462.00,0.0044
3461.00,0.0044
3460.00,0.0044
3459.00,0.0044
3458.00,0.0044
3457.00,0.0044
3456.00,0.0044
3455.00,0.0044
3454.00,0.0044
3453.00,0.0044
3452.00,0.0044
3451.00,0.0044
3450.00,0.0044
3449.00,0.0044
3448.00,0.0044
3447.00,0.0044
3446.00,0.0044
3445.00,0.0044
3444.00,0.0044
3443.00,0.0044
3442.00,0.0044
3441.00,0.0045
3440.00,0.0045
3439.00,0.0045
3438.00,0.0045
3437.00,0.0045
3436.00,0.0045
3435.00,0.0045
3434.00,0.0045
3433.00,0.0045
3432.00,0.0045
3431.00,0.0045
3430.00,0.0045
3429.00,0.0044
3428.00,0.0044
3427.00,0.0044
3426.00,0.0044
3425.00,0.0044
3424.00,0.0045
3423.00,0.0045
3422.00,0.0045
3421.00,0.0045
3420.00,0.0045
3419.00,0.0045
3418.00,0.0045
3417.00,0.0045
3416.00,0.0045
3415.00,0.0045
3414.00,0.0045
3413.00,0.0045
3412.00,0.0045
3411.00,0.0045
3410.00,0.0045
3409.00,0.0045
3408.00,0.0045
3407.00,0.0045
3406.00,0.0045
3405.00,0.0045
3404.00,0.0045
3403.00,0.0045
3402.00,0.0045
3401.00,0.0045
3400.00,0.0045
3399.00,0.0045
3398.00,0.0045
3397.00,0.0045
3396.00,0.0044
3395.00,0.0044
3394.00,0.0044
3393.00,0.0044
3392.00,0.0044
3391.00,0.0044
3390.00,0.0045
3389.00,0.0045
3388.00,0.0045
3387.00,0.0045
3386.00,0.0045
3385.00,0.0044
3384.00,0.0044
3383.00,0.0044
3382.00,0.0044
3381.00,0.0044
3380.00,0.0044
3379.00,0.0044
3378.00,0.0043
3377.00,0.0043
3376.00,0.0044
3375.00,0.0044
3374.00,0.0044
3373.00,0.0044
3372.00,0.0044
3371.00,0.0044
3370.00,0.0044
3369.00,0.0044
3368.00,0.0044
3367.00,0.0043
3366.00,0.0043
3365.00,0.0043
3364.00,0.0043
3363.00,0.0043
3362.00,0.0043
3361.00,0.0043
3360.00,0.0043
3359.00,0.0043
3358.00,0.0043
3357.00,0.0043
3356.00,0.0043
3355.00,0.0043
3354.00,0.0043
3353.00,0.0043
3352.00,0.0043
3351.00,0.0043
3350.00,0.0043
3349.00,0.0042
3348.00,0.0042
3347.00,0.0042
3346.00,0.0042
3345.00,0.0043
3344.00,0.0043
3343.00,0.0043
3342.00,0.0043
3341.00,0.0042
3340.00,0.0042
3339.00,0.0042
3338.00,0.0042
3337.00,0.0042
3336.00,0.0042
3335.00,0.0042
3334.00,0.0042
3333.00,0.0042
3332.00,0.0042
3331.00,0.0042
3330.00,0.0042
3329.00,0.0042
3328.00,0.0043
3327.00,0.0043
3326.00,0.0043
3325.00,0.0042
3324.00,0.0042
3323.00,0.0042
3322.00,0.0042
3321.00,0.0042
3320.00,0.0042
3319.00,0.0042
3318.00,0.0042
3317.00,0.0042
3316.00,0.0042
3315.00,0.0042
3314.00,0.0042
3313.00,0.0042
3312.00,0.0042
3311.00,0.0041
3310.00,0.0041
3309.00,0.0041
3308.00,0.0042
3307.00,0.0042
3306.00,0.0042
3305.00,0.0042
3304.00,0.0042
3303.00,0.0042
3302.00,0.0041
3301.00,0.0041
3300.00,0.0041
3299.00,0.0041
3298.00,0.0041
3297.00,0.0041
3296.00,0.0041
3295.00,0.0041
3294.00,0.0041
3293.00,0.0041
3292.00,0.0041
3291.00,0.0041
3290.00,0.0041
3289.00,0.0041
3288.00,0.0041
3287.00,0.0041
3286.00,0.0041
3285.00,0.0041
3284.00,0.0041
3283.00,0.0041
3282.00,0.0041
3281.00,0.0041
3280.00,0.0041
3279.00,0.0041
3278.00,0.0041
3277.00,0.0041
3276.00,0.0041
3275.00,0.0041
3274.00,0.0041
3273.00,0.0041
3272.00,0.0041
3271.00,0.0041
3270.00,0.0041
3269.00,0.0040
3268.00,0.0040
3267.00,0.0040
3266.00,0.0040
3265.00,0.0040
3264.00,0.0040
3263.00,0.0040
3262.00,0.0040
3261.00,0.0040
3260.00,0.0040
3259.00,0.0040
3258.00,0.0040
3257.00,0.0040
3256.00,0.0040
3255.00,0.0040
3254.00,0.0040
3253.00,0.0040
3252.00,0.0040
3251.00,0.0040
3250.00,0.0040
3249.00,0.0040
3248.00,0.0040
3247.00,0.0040
3246.00,0.0040
3245.00,0.0040
3244.00,0.0040
3243.00,0.0040
3242.00,0.0040
3241.00,0.0040
3240.00,0.0040
3239.00,0.0039
3238.00,0.0039
3237.00,0.0039
3236.00,0.0039
3235.00,0.0039
3234.00,0.0039
3233.00,0.0039
3232.00,0.0039
3231.00,0.0038
3230.00,0.0038
3229.00,0.0038
3228.00,0.0038
3227.00,0.0038
3226.00,0.0038
3225.00,0.0038
3224.00,0.0038
3223.00,0.0038
3222.00,0.0038
3221.00,0.0038
3220.00,0.0038
3219.00,0.0039
3218.00,0.0039
3217.00,0.0039
3216.00,0.0039
3215.00,0.0039
3214.00,0.0039
3213.00,0.0039
3212.00,0.0039
3211.00,0.0039
3210.00,0.0039
3209.00,0.0039
3208.00,0.0039
3207.00,0.0039
3206.00,0.0039
3205.00,0.0039
3204.00,0.0039
3203.00,0.0039
3202.00,0.0039
3201.00,0.0039
3200.00,0.0039
3199.00,0.0039
3198.00,0.0039
3197.00,0.0039
3196.00,0.0038
3195.00,0.0038
3194.00,0.0038
3193.00,0.0038
3192.00,0.0038
3191.00,0.0038
3190.00,0.0038
3189.00,0.0037
3188.00,0.0037
3187.00,0.0037
3186.00,0.0037
3185.00,0.0037
3184.00,0.0037
3183.00,0.0037
3182.00,0.0037
3181.00,0.0037
3180.00,0.0037
3179.00,0.0037
3178.00,0.0037
3177.00,0.0037
3176.00,0.0037
3175.00,0.0037
3174.00,0.0037
3173.00,0.0037
3172.00,0.0037
3171.00,0.0037
3170.00,0.0037
3169.00,0.0037
3168.00,0.0037
3167.00,0.0038
3166.00,0.0038
3165.00,0.0038
3164.00,0.0038
3163.00,0.0038
3162.00,0.0038
3161.00,0.0038
3160.00,0.0037
3159.00,0.0037
3158.00,0.0037
3157.00,0.0037
3156.00,0.0037
3155.00,0.0037
3154.00,0.0037
3153.00,0.0037
3152.00,0.0037
3151.00,0.0036
3150.00,0.0036
3149.00,0.0036
3148.00,0.0036
3147.00,0.0036
3146.00,0.0036
3145.00,0.0036
3144.00,0.0036
3143.00,0.0036
3142.00,0.0036
3141.00,0.0036
3140.00,0.0036
3139.00,0.0035
3138.00,0.0035
3137.00,0.0035
3136.00,0.0036
3135.00,0.0036
3134.00,0.0036
3133.00,0.0036
3132.00,0.0036
3131.00,0.0036
3130.00,0.0036
3129.00,0.0036
3128.00,0.0036
3127.00,0.0036
3126.00,0.0036
3125.00,0.0036
3124.00,0.0036
3123.00,0.0037
3122.00,0.0037
3121.00,0.0037
3120.00,0.0037
3119.00,0.0038
3118.00,0.0038
3117.00,0.0039
3116.00,0.0039
3115.00,0.0040
3114.00,0.0041
3113.00,0.0042
3112.00,0.0043
3111.00,0.0044
3110.00,0.0046
3109.00,0.0047
3108.00,0.0049
3107.00,0.0051
3106.00,0.0052
3105.00,0.0053
3104.00,0.0054
3103.00,0.0055
3102.00,0.0055
3101.00,0.0055
3100.00,0.0054
3099.00,0.0054
3098.00,0.0053
3097.00,0.0053
3096.00,0.0053
3095.00,0.0054
3094.00,0.0055
3093.00,0.0057
3092.00,0.0059
3091.00,0.0062
3090.00,0.0066
3089.00,0.0071
3088.00,0.0076
3087.00,0.0082
3086.00,0.0087
3085.00,0.0093
3084.00,0.0097
3083.00,0.0099
3082.00,0.0100
3081.00,0.0099
3080.00,0.0097
3079.00,0.0093
3078.00,0.0089
3077.00,0.0086
3076.00,0.0083
3075.00,0.0081
3074.00,0.0080
3073.00,0.0079
3072.00,0.0080
3071.00,0.0081
3070.00,0.0084
3069.00,0.0087
3068.00,0.0091
3067.00,0.0096
3066.00,0.0101
3065.00,0.0107
3064.00,0.0113
3063.00,0.0119
3062.00,0.0124
3061.00,0.0127
3060.00,0.0129
3059.00,0.0129
3058.00,0.0127
3057.00,0.0123
3056.00,0.0118
3055.00,0.0112
3054.00,0.0106
3053.00,0.0101
3052.00,0.0095
3051.00,0.0091
3050.00,0.0087
3049.00,0.0084
3048.00,0.0081
3047.00,0.0079
3046.00,0.0078
3045.00,0.0078
3044.00,0.0078
3043.00,0.0079
3042.00,0.0081
3041.00,0.0084
3040.00,0.0087
3039.00,0.0091
3038.00,0.0097
3037.00,0.0103
3036.00,0.0111
3035.00,0.0119
3034.00,0.0130
3033.00,0.0142
3032.00,0.0155
3031.00,0.0170
3030.00,0.0184
3029.00,0.0199
3028.00,0.0212
3027.00,0.0223
3026.00,0.0230
3025.00,0.0232
3024.00,0.0228
3023.00,0.0219
3022.00,0.0206
3021.00,0.0190
3020.00,0.0173
3019.00,0.0157
3018.00,0.0143
3017.00,0.0131
3016.00,0.0120
3015.00,0.0110
3014.00,0.0101
3013.00,0.0092
3012.00,0.0086
3011.00,0.0082
3010.00,0.0079
3009.00,0.0078
3008.00,0.0078
3007.00,0.0078
3006.00,0.0079
3005.00,0.0081
3004.00,0.0083
3003.00,0.0084
3002.00,0.0085
3001.00,0.0085
3000.00,0.0084
2999.00,0.0082
2998.00,0.0079
2997.00,0.0075
2996.00,0.0071
2995.00,0.0067
2994.00,0.0064
2993.00,0.0062
2992.00,0.0059
2991.00,0.0058
2990.00,0.0056
2989.00,0.0055
2988.00,0.0054
2987.00,0.0054
2986.00,0.0053
2985.00,0.0053
2984.00,0.0052
2983.00,0.0052
2982.00,0.0052
2981.00,0.0052
2980.00,0.0053
2979.00,0.0055
2978.00,0.0058
2977.00,0.0061
2976.00,0.0063
2975.00,0.0064
2974.00,0.0063
2973.00,0.0061
2972.00,0.0059
2971.00,0.0057
2970.00,0.0057
2969.00,0.0057
2968.00,0.0058
2967.00,0.0059
2966.00,0.0060
2965.00,0.0061
2964.00,0.0063
2963.00,0.0064
2962.00,0.0066
2961.00,0.0068
2960.00,0.0069
2959.00,0.0071
2958.00,0.0073
2957.00,0.0075
2956.00,0.0078
2955.00,0.0080
2954.00,0.0083
2953.00,0.0085
2952.00,0.0088
2951.00,0.0091
2950.00,0.0094
2949.00,0.0098
2948.00,0.0101
2947.00,0.0106
2946.00,0.0110
2945.00,0.0115
2944.00,0.0120
2943.00,0.0126
2942.00,0.0131
2941.00,0.0137
2940.00,0.0144
2939.00,0.0150
2938.00,0.0158
2937.00,0.0165
2936.00,0.0173
2935.00,0.0182
2934.00,0.0190
2933.00,0.0199
2932.00,0.0208
2931.00,0.0216
2930.00,0.0224
2929.00,0.0232
2928.00,0.0239
2927.00,0.0246
2926.00,0.0252
2925.00,0.0257
2924.00,0.0261
2923.00,0.0264
2922.00,0.0266
2921.00,0.0267
2920.00,0.0267
2919.00,0.0266
2918.00,0.0264
2917.00,0.0262
2916.00,0.0259
2915.00,0.0255
2914.00,0.0250
2913.00,0.0245
2912.00,0.0239
2911.00,0.0234
2910.00,0.0228
2909.00,0.0222
2908.00,0.0216
2907.00,0.0210
2906.00,0.0204
2905.00,0.0197
2904.00,0.0191
2903.00,0.0184
2902.00,0.0178
2901.00,0.0172
2900.00,0.0165
2899.00,0.0159
2898.00,0.0153
2897.00,0.0148
2896.00,0.0142
2895.00,0.0138
2894.00,0.0134
2893.00,0.0130
2892.00,0.0127
2891.00,0.0124
2890.00,0.0121
2889.00,0.0118
2888.00,0.0116
2887.00,0.0113
2886.00,0.0111
2885.00,0.0109
2884.00,0.0107
2883.00,0.0105
2882.00,0.0103
2881.00,0.0101
2880.00,0.0099
2879.00,0.0097
2878.00,0.0095
2877.00,0.0094
2876.00,0.0092
2875.00,0.0091
2874.00,0.0090
2873.00,0.0088
2872.00,0.0087
2871.00,0.0087
2870.00,0.0086
2869.00,0.0086
2868.00,0.0086
2867.00,0.0086
2866.00,0.0087
2865.00,0.0088
2864.00,0.0089
2863.00,0.0091
2862.00,0.0094
2861.00,0.0097
2860.00,0.0100
2859.00,0.0103
2858.00,0.0107
2857.00,0.0110
2856.00,0.0114
2855.00,0.0118
2854.00,0.0122
2853.00,0.0125
2852.00,0.0128
2851.00,0.0131
2850.00,0.0133
2849.00,0.0134
2848.00,0.0133
2847.00,0.0132
2846.00,0.0129
2845.00,0.0126
2844.00,0.0121
2843.00,0.0116
2842.00,0.0110
2841.00,0.0104
2840.00,0.0098
2839.00,0.0091
2838.00,0.0085
2837.00,0.0080
2836.00,0.0074
2835.00,0.0070
2834.00,0.0066
2833.00,0.0062
2832.00,0.0060
2831.00,0.0058
2830.00,0.0056
2829.00,0.0054
2828.00,0.0053
2827.00,0.0052
2826.00,0.0051
2825.00,0.0051
2824.00,0.0050
2823.00,0.0050
2822.00,0.0049
2821.00,0.0049
2820.00,0.0048
2819.00,0.0048
2818.00,0.0048
2817.00,0.0047
2816.00,0.0047
2815.00,0.0046
2814.00,0.0046
2813.00,0.0046
2812.00,0.0046
2811.00,0.0046
2810.00,0.0046
2809.00,0.0046
2808.00,0.0046
2807.00,0.0046
2806.00,0.0046
2805.00,0.0045
2804.00,0.0045
2803.00,0.0044
2802.00,0.0044
2801.00,0.0044
2800.00,0.0043
2799.00,0.0043
2798.00,0.0043
2797.00,0.0043
2796.00,0.0042
2795.00,0.0042
2794.00,0.0043
2793.00,0.0043
2792.00,0.0043
2791.00,0.0042
2790.00,0.0042
2789.00,0.0042
2788.00,0.0042
2787.00,0.0042
2786.00,0.0042
2785.00,0.0041
2784.00,0.0041
2783.00,0.0041
2782.00,0.0041
2781.00,0.0041
2780.00,0.0041
2779.00,0.0041
2778.00,0.0041
2777.00,0.0041
2776.00,0.0040
2775.00,0.0040
2774.00,0.0040
2773.00,0.0040
2772.00,0.0039
2771.00,0.0039
2770.00,0.0039
2769.00,0.0039
2768.00,0.0039
2767.00,0.0039
2766.00,0.0039
2765.00,0.0039
2764.00,0.0039
2763.00,0.0039
2762.00,0.0039
2761.00,0.0039
2760.00,0.0039
2759.00,0.0039
2758.00,0.0038
2757.00,0.0038
2756.00,0.0038
2755.00,0.0038
2754.00,0.0038
2753.00,0.0038
2752.00,0.0038
2751.00,0.0038
2750.00,0.0038
2749.00,0.0038
2748.00,0.0038
2747.00,0.0038
2746.00,0.0038
2745.00,0.0038
2744.00,0.0038
2743.00,0.0038
2742.00,0.0038
2741.00,0.0038
2740.00,0.0038
2739.00,0.0038
2738.00,0.0038
2737.00,0.0038
2736.00,0.0038
2735.00,0.0038
2734.00,0.0038
2733.00,0.0038
2732.00,0.0038
2731.00,0.0038
2730.00,0.0038
2729.00,0.0038
2728.00,0.0038
2727.00,0.0038
2726.00,0.0038
2725.00,0.0038
2724.00,0.0038
2723.00,0.0038
2722.00,0.0038
2721.00,0.0038
2720.00,0.0038
2719.00,0.0038
2718.00,0.0038
2717.00,0.0038
2716.00,0.0038
2715.00,0.0038
2714.00,0.0038
2713.00,0.0038
2712.00,0.0038
2711.00,0.0038
2710.00,0.0038
2709.00,0.0038
2708.00,0.0038
2707.00,0.0038
2706.00,0.0038
2705.00,0.0038
2704.00,0.0038
2703.00,0.0038
2702.00,0.0038
2701.00,0.0038
2700.00,0.0038
2699.00,0.0038
2698.00,0.0037
2697.00,0.0037
2696.00,0.0037
2695.00,0.0037
2694.00,0.0037
2693.00,0.0037
2692.00,0.0038
2691.00,0.0038
2690.00,0.0038
2689.00,0.0038
2688.00,0.0038
2687.00,0.0038
2686.00,0.0038
2685.00,0.0038
2684.00,0.0038
2683.00,0.0038
2682.00,0.0038
2681.00,0.0038
2680.00,0.0038
2679.00,0.0038
2678.00,0.0038
2677.00,0.0038
2676.00,0.0038
2675.00,0.0038
2674.00,0.0038
2673.00,0.0038
2672.00,0.0038
2671.00,0.0038
2670.00,0.0038
2669.00,0.0038
2668.00,0.0038
2667.00,0.0038
2666.00,0.0038
2665.00,0.0039
2664.00,0.0039
2663.00,0.0040
2662.00,0.0040
2661.00,0.0041
2660.00,0.0041
2659.00,0.0041
2658.00,0.0041
2657.00,0.0042
2656.00,0.0042
2655.00,0.0042
2654.00,0.0042
2653.00,0.0042
2652.00,0.0042
2651.00,0.0042
2650.00,0.0042
2649.00,0.0042
2648.00,0.0042
2647.00,0.0042
2646.00,0.0042
2645.00,0.0042
2644.00,0.0042
2643.00,0.0042
2642.00,0.0041
2641.00,0.0041
2640.00,0.0042
2639.00,0.0042
2638.00,0.0042
2637.00,0.0042
2636.00,0.0042
2635.00,0.0042
2634.00,0.0042
2633.00,0.0042
2632.00,0.0042
2631.00,0.0042
2630.00,0.0042
2629.00,0.0042
2628.00,0.0042
2627.00,0.0042
2626.00,0.0041
2625.00,0.0041
2624.00,0.0040
2623.00,0.0040
2622.00,0.0040
2621.00,0.0040
2620.00,0.0040
2619.00,0.0040
2618.00,0.0039
2617.00,0.0039
2616.00,0.0039
2615.00,0.0039
2614.00,0.0039
2613.00,0.0039
2612.00,0.0039
2611.00,0.0040
2610.00,0.0040
2609.00,0.0040
2608.00,0.0039
2607.00,0.0039
2606.00,0.0039
2605.00,0.0040
2604.00,0.0040
2603.00,0.0039
2602.00,0.0039
2601.00,0.0039
2600.00,0.0039
2599.00,0.0038
2598.00,0.0038
2597.00,0.0038
2596.00,0.0038
2595.00,0.0038
2594.00,0.0038
2593.00,0.0038
2592.00,0.0037
2591.00,0.0037
2590.00,0.0037
2589.00,0.0036
2588.00,0.0036
2587.00,0.0036
2586.00,0.0037
2585.00,0.0037
2584.00,0.0037
2583.00,0.0037
2582.00,0.0037
2581.00,0.0037
2580.00,0.0037
2579.00,0.0037
2578.00,0.0036
2577.00,0.0036
2576.00,0.0035
2575.00,0.0035
2574.00,0.0035
2573.00,0.0035
2572.00,0.0035
2571.00,0.0034
2570.00,0.0034
2569.00,0.0034
2568.00,0.0034
2567.00,0.0035
2566.00,0.0035
2565.00,0.0035
2564.00,0.0035
2563.00,0.0035
2562.00,0.0035
2561.00,0.0035
2560.00,0.0034
2559.00,0.0034
2558.00,0.0034
2557.00,0.0034
2556.00,0.0034
2555.00,0.0034
2554.00,0.0034
2553.00,0.0034
2552.00,0.0034
2551.00,0.0034
2550.00,0.0034
2549.00,0.0034
2548.00,0.0034
2547.00,0.0034
2546.00,0.0034
2545.00,0.0034
2544.00,0.0034
2543.00,0.0034
2542.00,0.0034
2541.00,0.0034
2540.00,0.0034
2539.00,0.0034
2538.00,0.0034
2537.00,0.0033
2536.00,0.0033
2535.00,0.0034
2534.00,0.0034
2533.00,0.0034
2532.00,0.0034
2531.00,0.0034
2530.00,0.0034
2529.00,0.0034
2528.00,0.0034
2527.00,0.0033
2526.00,0.0033
2525.00,0.0033
2524.00,0.0033
2523.00,0.0033
2522.00,0.0033
2521.00,0.0032
2520.00,0.0032
2519.00,0.0032
2518.00,0.0033
2517.00,0.0033
2516.00,0.0033
2515.00,0.0033
2514.00,0.0033
2513.00,0.0033
2512.00,0.0033
2511.00,0.0033
2510.00,0.0033
2509.00,0.0033
2508.00,0.0033
2507.00,0.0032
2506.00,0.0032
2505.00,0.0032
2504.00,0.0032
2503.00,0.0033
2502.00,0.0033
2501.00,0.0032
2500.00,0.0032
2499.00,0.0032
2498.00,0.0032
2497.00,0.0033
2496.00,0.0033
2495.00,0.0033
2494.00,0.0033
2493.00,0.0033
2492.00,0.0032
2491.00,0.0032
2490.00,0.0032
2489.00,0.0032
2488.00,0.0032
2487.00,0.0032
2486.00,0.0032
2485.00,0.0032
2484.00,0.0032
2483.00,0.0032
2482.00,0.0031
2481.00,0.0031
2480.00,0.0031
2479.00,0.0031
2478.00,0.0031
2477.00,0.0031
2476.00,0.0030
2475.00,0.0030
2474.00,0.0030
2473.00,0.0030
2472.00,0.0030
2471.00,0.0030
2470.00,0.0030
2469.00,0.0030
2468.00,0.0031
2467.00,0.0031
2466.00,0.0031
2465.00,0.0031
2464.00,0.0031
2463.00,0.0031
2462.00,0.0031
2461.00,0.0032
2460.00,0.0032
2459.00,0.0032
2458.00,0.0032
2457.00,0.0032
2456.00,0.0032
2455.00,0.0033
2454.00,0.0032
2453.00,0.0032
2452.00,0.0032
2451.00,0.0032
2450.00,0.0032
2449.00,0.0032
2448.00,0.0032
2447.00,0.0031
2446.00,0.0031
2445.00,0.0031
2444.00,0.0031
2443.00,0.0031
2442.00,0.0031
2441.00,0.0031
2440.00,0.0031
2439.00,0.0031
2438.00,0.0031
2437.00,0.0031
2436.00,0.0031
2435.00,0.0030
2434.00,0.0030
2433.00,0.0030
2432.00,0.0030
2431.00,0.0030
2430.00,0.0030
2429.00,0.0030
2428.00,0.0030
2427.00,0.0030
2426.00,0.0030
2425.00,0.0029
2424.00,0.0029
2423.00,0.0028
2422.00,0.0028
2421.00,0.0028
2420.00,0.0028
2419.00,0.0028
2418.00,0.0028
2417.00,0.0028
2416.00,0.0028
2415.00,0.0028
2414.00,0.0028
2413.00,0.0028
2412.00,0.0028
2411.00,0.0029
2410.00,0.0028
2409.00,0.0028
2408.00,0.0028
2407.00,0.0027
2406.00,0.0027
2405.00,0.0027
2404.00,0.0027
2403.00,0.0027
2402.00,0.0027
2401.00,0.0027
2400.00,0.0027
2399.00,0.0027
2398.00,0.0028
2397.00,0.0028
2396.00,0.0027
2395.00,0.0027
2394.00,0.0027
2393.00,0.0027
2392.00,0.0026
2391.00,0.0026
2390.00,0.0026
2389.00,0.0026
2388.00,0.0026
2387.00,0.0026
2386.00,0.0026
2385.00,0.0026
2384.00,0.0026
2383.00,0.0026
2382.00,0.0026
2381.00,0.0026
2380.00,0.0026
2379.00,0.0026
2378.00,0.0026
2377.00,0.0027
2376.00,0.0027
2375.00,0.0027
2374.00,0.0026
2373.00,0.0026
2372.00,0.0026
2371.00,0.0025
2370.00,0.0025
2369.00,0.0024
2368.00,0.0024
2367.00,0.0024
2366.00,0.0025
2365.00,0.0026
2364.00,0.0027
2363.00,0.0028
2362.00,0.0028
2361.00,0.0028
2360.00,0.0028
2359.00,0.0028
2358.00,0.0028
2357.00,0.0028
2356.00,0.0028
2355.00,0.0028
2354.00,0.0028
2353.00,0.0028
2352.00,0.0027
2351.00,0.0027
2350.00,0.0028
2349.00,0.0029
2348.00,0.0031
2347.00,0.0032
2346.00,0.0034
2345.00,0.0034
2344.00,0.0034
2343.00,0.0034
2342.00,0.0033
2341.00,0.0033
2340.00,0.0033
2339.00,0.0033
2338.00,0.0033
2337.00,0.0034
2336.00,0.0034
2335.00,0.0034
2334.00,0.0033
2333.00,0.0033
2332.00,0.0032
2331.00,0.0032
2330.00,0.0032
2329.00,0.0033
2328.00,0.0036
2327.00,0.0039
2326.00,0.0043
2325.00,0.0044
2324.00,0.0043
2323.00,0.0042
2322.00,0.0040
2321.00,0.0039
2320.00,0.0038
2319.00,0.0037
2318.00,0.0037
2317.00,0.0036
2316.00,0.0036
2315.00,0.0037
2314.00,0.0037
2313.00,0.0037
2312.00,0.0037
2311.00,0.0036
2310.00,0.0036
2309.00,0.0036
2308.00,0.0035
2307.00,0.0035
2306.00,0.0035
2305.00,0.0035
2304.00,0.0035
2303.00,0.0035
2302.00,0.0035
2301.00,0.0035
2300.00,0.0036
2299.00,0.0036
2298.00,0.0036
2297.00,0.0037
2296.00,0.0037
2295.00,0.0038
2294.00,0.0038
2293.00,0.0039
2292.00,0.0039
2291.00,0.0040
2290.00,0.0040
2289.00,0.0040
2288.00,0.0041
2287.00,0.0041
2286.00,0.0040
2285.00,0.0039
2284.00,0.0039
2283.00,0.0038
2282.00,0.0038
2281.00,0.0038
2280.00,0.0038
2279.00,0.0038
2278.00,0.0038
2277.00,0.0037
2276.00,0.0037
2275.00,0.0036
2274.00,0.0036
2273.00,0.0036
2272.00,0.0036
2271.00,0.0035
2270.00,0.0035
2269.00,0.0034
2268.00,0.0034
2267.00,0.0034
2266.00,0.0033
2265.00,0.0033
2264.00,0.0033
2263.00,0.0033
2262.00,0.0034
2261.00,0.0035
2260.00,0.0035
2259.00,0.0035
2258.00,0.0034
2257.00,0.0033
2256.00,0.0032
2255.00,0.0032
2254.00,0.0032
2253.00,0.0032
2252.00,0.0032
2251.00,0.0032
2250.00,0.0031
2249.00,0.0031
2248.00,0.0031
2247.00,0.0031
2246.00,0.0031
2245.00,0.0031
2244.00,0.0031
2243.00,0.0031
2242.00,0.0031
2241.00,0.0031
2240.00,0.0032
2239.00,0.0032
2238.00,0.0032
2237.00,0.0031
2236.00,0.0031
2235.00,0.0031
2234.00,0.0031
2233.00,0.0031
2232.00,0.0031
2231.00,0.0030
2230.00,0.0030
2229.00,0.0030
2228.00,0.0029
2227.00,0.0029
2226.00,0.0029
2225.00,0.0029
2224.00,0.0030
2223.00,0.0030
2222.00,0.0029
2221.00,0.0028
2220.00,0.0028
2219.00,0.0029
2218.00,0.0029
2217.00,0.0029
2216.00,0.0028
2215.00,0.0027
2214.00,0.0026
2213.00,0.0026
2212.00,0.0026
2211.00,0.0026
2210.00,0.0027
2209.00,0.0028
2208.00,0.0029
2207.00,0.0029
2206.00,0.0028
2205.00,0.0028
2204.00,0.0028
2203.00,0.0028
2202.00,0.0029
2201.00,0.0030
2200.00,0.0031
2199.00,0.0032
2198.00,0.0032
2197.00,0.0032
2196.00,0.0033
2195.00,0.0033
2194.00,0.0033
2193.00,0.0033
2192.00,0.0033
2191.00,0.0033
2190.00,0.0033
2189.00,0.0033
2188.00,0.0033
2187.00,0.0033
2186.00,0.0033
2185.00,0.0032
2184.00,0.0029
2183.00,0.0026
2182.00,0.0024
2181.00,0.0023
2180.00,0.0024
2179.00,0.0024
2178.00,0.0024
2177.00,0.0022
2176.00,0.0020
2175.00,0.0019
2174.00,0.0021
2173.00,0.0024
2172.00,0.0029
2171.00,0.0033
2170.00,0.0036
2169.00,0.0038
2168.00,0.0039
2167.00,0.0040
2166.00,0.0040
2165.00,0.0040
2164.00,0.0040
2163.00,0.0040
2162.00,0.0036
2161.00,0.0026
2160.00,0.0014
2159.00,0.0003
2158.00,-0.0002
2157.00,-0.0004
2156.00,-0.0003
2155.00,-0.0001
2154.00,0.0001
2153.00,0.0004
2152.00,0.0007
2151.00,0.0009
2150.00,0.0009
2149.00,0.0009
2148.00,0.0007
2147.00,0.0007
2146.00,0.0007
2145.00,0.0008
2144.00,0.0008
2143.00,0.0009
2142.00,0.0009
2141.00,0.0009
2140.00,0.0010
2139.00,0.0010
2138.00,0.0009
2137.00,0.0008
2136.00,0.0006
2135.00,0.0004
2134.00,0.0003
2133.00,0.0004
2132.00,0.0005
2131.00,0.0007
2130.00,0.0009
2129.00,0.0011
2128.00,0.0012
2127.00,0.0013
2126.00,0.0014
2125.00,0.0015
2124.00,0.0016
2123.00,0.0017
2122.00,0.0018
2121.00,0.0019
2120.00,0.0020
2119.00,0.0021
2118.00,0.0023
2117.00,0.0024
2116.00,0.0025
2115.00,0.0026
2114.00,0.0026
2113.00,0.0026
2112.00,0.0025
2111.00,0.0025
2110.00,0.0025
2109.00,0.0025
2108.00,0.0025
2107.00,0.0025
2106.00,0.0026
2105.00,0.0026
2104.00,0.0025
2103.00,0.0025
2102.00,0.0025
2101.00,0.0025
2100.00,0.0025
2099.00,0.0024
2098.00,0.0023
2097.00,0.0022
2096.00,0.0021
2095.00,0.0021
2094.00,0.0022
2093.00,0.0022
2092.00,0.0023
2091.00,0.0023
2090.00,0.0023
2089.00,0.0023
2088.00,0.0023
2087.00,0.0024
2086.00,0.0024
2085.00,0.0025
2084.00,0.0026
2083.00,0.0027
2082.00,0.0026
2081.00,0.0026
2080.00,0.0026
2079.00,0.0026
2078.00,0.0026
2077.00,0.0026
2076.00,0.0026
2075.00,0.0026
2074.00,0.0025
2073.00,0.0024
2072.00,0.0024
2071.00,0.0024
2070.00,0.0024
2069.00,0.0024
2068.00,0.0024
2067.00,0.0024
2066.00,0.0024
2065.00,0.0023
2064.00,0.0023
2063.00,0.0023
2062.00,0.0023
2061.00,0.0022
2060.00,0.0022
2059.00,0.0023
2058.00,0.0023
2057.00,0.0024
2056.00,0.0025
2055.00,0.0026
2054.00,0.0028
2053.00,0.0032
2052.00,0.0035
2051.00,0.0036
2050.00,0.0034
2049.00,0.0030
2048.00,0.0027
2047.00,0.0025
2046.00,0.0024
2045.00,0.0023
2044.00,0.0024
2043.00,0.0025
2042.00,0.0026
2041.00,0.0026
2040.00,0.0027
2039.00,0.0028
2038.00,0.0029
2037.00,0.0029
2036.00,0.0028
2035.00,0.0027
2034.00,0.0025
2033.00,0.0022
2032.00,0.0019
2031.00,0.0018
2030.00,0.0017
2029.00,0.0016
2028.00,0.0016
2027.00,0.0016
2026.00,0.0015
2025.00,0.0015
2024.00,0.0015
2023.00,0.0016
2022.00,0.0017
2021.00,0.0017
2020.00,0.0016
2019.00,0.0016
2018.00,0.0016
2017.00,0.0017
2016.00,0.0019
2015.00,0.0021
2014.00,0.0022
2013.00,0.0021
2012.00,0.0019
2011.00,0.0017
2010.00,0.0014
2009.00,0.0012
2008.00,0.0010
2007.00,0.0010
2006.00,0.0010
2005.00,0.0012
2004.00,0.0014
2003.00,0.0015
2002.00,0.0017
2001.00,0.0018
2000.00,0.0019
1999.00,0.0020
1998.00,0.0020
1997.00,0.0021
1996.00,0.0022
1995.00,0.0024
1994.00,0.0024
1993.00,0.0024
1992.00,0.0025
1991.00,0.0025
1990.00,0.0026
1989.00,0.0026
1988.00,0.0027
1987.00,0.0028
1986.00,0.0030
1985.00,0.0032
1984.00,0.0034
1983.00,0.0036
1982.00,0.0039
1981.00,0.0040
1980.00,0.0039
1979.00,0.0034
1978.00,0.0028
1977.00,0.0022
1976.00,0.0019
1975.00,0.0018
1974.00,0.0018
1973.00,0.0018
1972.00,0.0018
1971.00,0.0018
1970.00,0.0019
1969.00,0.0020
1968.00,0.0022
1967.00,0.0023
1966.00,0.0024
1965.00,0.0026
1964.00,0.0027
1963.00,0.0027
1962.00,0.0027
1961.00,0.0026
1960.00,0.0026
1959.00,0.0026
1958.00,0.0028
1957.00,0.0029
1956.00,0.0031
1955.00,0.0032
1954.00,0.0034
1953.00,0.0034
1952.00,0.0035
1951.00,0.0035
1950.00,0.0036
1949.00,0.0037
1948.00,0.0039
1947.00,0.0040
1946.00,0.0042
1945.00,0.0043
1944.00,0.0044
1943.00,0.0044
1942.00,0.0044
1941.00,0.0043
1940.00,0.0041
1939.00,0.0040
1938.00,0.0038
1937.00,0.0037
1936.00,0.0035
1935.00,0.0034
1934.00,0.0032
1933.00,0.0030
1932.00,0.0029
1931.00,0.0028
1930.00,0.0028
1929.00,0.0027
1928.00,0.0026
1927.00,0.0025
1926.00,0.0025
1925.00,0.0024
1924.00,0.0024
1923.00,0.0024
1922.00,0.0024
1921.00,0.0024
1920.00,0.0024
1919.00,0.0024
1918.00,0.0024
1917.00,0.0023
1916.00,0.0023
1915.00,0.0023
1914.00,0.0022
1913.00,0.0022
1912.00,0.0022
1911.00,0.0022
1910.00,0.0022
1909.00,0.0021
1908.00,0.0022
1907.00,0.0023
1906.00,0.0023
1905.00,0.0024
1904.00,0.0024
1903.00,0.0024
1902.00,0.0023
1901.00,0.0023
1900.00,0.0024
1899.00,0.0025
1898.00,0.0026
1897.00,0.0027
1896.00,0.0028
1895.00,0.0028
1894.00,0.0029
1893.00,0.0030
1892.00,0.0031
1891.00,0.0032
1890.00,0.0033
1889.00,0.0034
1888.00,0.0035
1887.00,0.0036
1886.00,0.0036
1885.00,0.0037
1884.00,0.0037
1883.00,0.0037
1882.00,0.0038
1881.00,0.0039
1880.00,0.0039
1879.00,0.0040
1878.00,0.0041
1877.00,0.0042
1876.00,0.0043
1875.00,0.0043
1874.00,0.0043
1873.00,0.0043
1872.00,0.0044
1871.00,0.0044
1870.00,0.0044
1869.00,0.0044
1868.00,0.0043
1867.00,0.0043
1866.00,0.0043
1865.00,0.0042
1864.00,0.0041
1863.00,0.0040
1862.00,0.0039
1861.00,0.0037
1860.00,0.0036
1859.00,0.0034
1858.00,0.0033
1857.00,0.0032
1856.00,0.0031
1855.00,0.0030
1854.00,0.0029
1853.00,0.0028
1852.00,0.0027
1851.00,0.0026
1850.00,0.0026
1849.00,0.0025
1848.00,0.0024
1847.00,0.0024
1846.00,0.0024
1845.00,0.0024
1844.00,0.0025
1843.00,0.0025
1842.00,0.0025
1841.00,0.0024
1840.00,0.0024
1839.00,0.0024
1838.00,0.0024
1837.00,0.0025
1836.00,0.0025
1835.00,0.0025
1834.00,0.0025
1833.00,0.0026
1832.00,0.0026
1831.00,0.0027
1830.00,0.0028
1829.00,0.0029
1828.00,0.0029
1827.00,0.0030
1826.00,0.0030
1825.00,0.0031
1824.00,0.0032
1823.00,0.0033
1822.00,0.0034
1821.00,0.0034
1820.00,0.0034
1819.00,0.0033
1818.00,0.0033
1817.00,0.0033
1816.00,0.0035
1815.00,0.0036
1814.00,0.0038
1813.00,0.0039
1812.00,0.0041
1811.00,0.0042
1810.00,0.0043
1809.00,0.0044
1808.00,0.0045
1807.00,0.0047
1806.00,0.0048
1805.00,0.0048
1804.00,0.0049
1803.00,0.0049
1802.00,0.0049
1801.00,0.0048
1800.00,0.0048
1799.00,0.0048
1798.00,0.0047
1797.00,0.0046
1796.00,0.0045
1795.00,0.0044
1794.00,0.0042
1793.00,0.0041
1792.00,0.0039
1791.00,0.0038
1790.00,0.0036
1789.00,0.0036
1788.00,0.0035
1787.00,0.0034
1786.00,0.0033
1785.00,0.0033
1784.00,0.0033
1783.00,0.0033
1782.00,0.0032
1781.00,0.0032
1780.00,0.0033
1779.00,0.0033
1778.00,0.0033
1777.00,0.0033
1776.00,0.0033
1775.00,0.0033
1774.00,0.0032
1773.00,0.0032
1772.00,0.0032
1771.00,0.0033
1770.00,0.0033
1769.00,0.0033
1768.00,0.0033
1767.00,0.0033
1766.00,0.0034
1765.00,0.0034
1764.00,0.0035
1763.00,0.0035
1762.00,0.0036
1761.00,0.0037
1760.00,0.0038
1759.00,0.0038
1758.00,0.0039
1757.00,0.0040
1756.00,0.0041
1755.00,0.0043
1754.00,0.0044
1753.00,0.0044
1752.00,0.0045
1751.00,0.0046
1750.00,0.0047
1749.00,0.0049
1748.00,0.0050
1747.00,0.0051
1746.00,0.0051
1745.00,0.0052
1744.00,0.0052
1743.00,0.0053
1742.00,0.0053
1741.00,0.0053
1740.00,0.0053
1739.00,0.0052
1738.00,0.0053
1737.00,0.0053
1736.00,0.0053
1735.00,0.0052
1734.00,0.0051
1733.00,0.0050
1732.00,0.0049
1731.00,0.0049
1730.00,0.0048
1729.00,0.0047
1728.00,0.0046
1727.00,0.0046
1726.00,0.0045
1725.00,0.0045
1724.00,0.0044
1723.00,0.0044
1722.00,0.0044
1721.00,0.0044
1720.00,0.0043
1719.00,0.0043
1718.00,0.0042
1717.00,0.0041
1716.00,0.0041
1715.00,0.0041
1714.00,0.0040
1713.00,0.0040
1712.00,0.0040
1711.00,0.0039
1710.00,0.0039
1709.00,0.0039
1708.00,0.0040
1707.00,0.0040
1706.00,0.0040
1705.00,0.0040
1704.00,0.0040
1703.00,0.0040
1702.00,0.0040
1701.00,0.0040
1700.00,0.0040
1699.00,0.0040
1698.00,0.0040
1697.00,0.0039
1696.00,0.0039
1695.00,0.0040
1694.00,0.0040
1693.00,0.0040
1692.00,0.0040
1691.00,0.0040
1690.00,0.0041
1689.00,0.0041
1688.00,0.0042
1687.00,0.0042
1686.00,0.0043
1685.00,0.0043
1684.00,0.0044
1683.00,0.0045
1682.00,0.0046
1681.00,0.0046
1680.00,0.0046
1679.00,0.0046
1678.00,0.0047
1677.00,0.0047
1676.00,0.0047
1675.00,0.0048
1674.00,0.0048
1673.00,0.0049
1672.00,0.0049
1671.00,0.0049
1670.00,0.0049
1669.00,0.0049
1668.00,0.0050
1667.00,0.0050
1666.00,0.0050
1665.00,0.0050
1664.00,0.0049
1663.00,0.0049
1662.00,0.0049
1661.00,0.0048
1660.00,0.0048
1659.00,0.0048
1658.00,0.0048
1657.00,0.0048
1656.00,0.0048
1655.00,0.0048
1654.00,0.0047
1653.00,0.0046
1652.00,0.0046
1651.00,0.0046
1650.00,0.0045
1649.00,0.0045
1648.00,0.0045
1647.00,0.0045
1646.00,0.0045
1645.00,0.0045
1644.00,0.0045
1643.00,0.0044
1642.00,0.0044
1641.00,0.0044
1640.00,0.0044
1639.00,0.0044
1638.00,0.0045
1637.00,0.0045
1636.00,0.0044
1635.00,0.0044
1634.00,0.0045
1633.00,0.0045
1632.00,0.0045
1631.00,0.0045
1630.00,0.0045
1629.00,0.0045
1628.00,0.0046
1627.00,0.0046
1626.00,0.0047
1625.00,0.0047
1624.00,0.0047
1623.00,0.0048
1622.00,0.0048
1621.00,0.0049
1620.00,0.0049
1619.00,0.0050
1618.00,0.0051
1617.00,0.0051
1616.00,0.0052
1615.00,0.0054
1614.00,0.0057
1613.00,0.0060
1612.00,0.0063
1611.00,0.0069
1610.00,0.0077
1609.00,0.0088
1608.00,0.0103
1607.00,0.0121
1606.00,0.0142
1605.00,0.0166
1604.00,0.0190
1603.00,0.0211
1602.00,0.0225
1601.00,0.0230
1600.00,0.0224
1599.00,0.0210
1598.00,0.0189
1597.00,0.0167
1596.00,0.0147
1595.00,0.0130
1594.00,0.0116
1593.00,0.0105
1592.00,0.0097
1591.00,0.0091
1590.00,0.0086
1589.00,0.0084
1588.00,0.0085
1587.00,0.0089
1586.00,0.0096
1585.00,0.0103
1584.00,0.0110
1583.00,0.0112
1582.00,0.0108
1581.00,0.0100
1580.00,0.0091
1579.00,0.0082
1578.00,0.0074
1577.00,0.0067
1576.00,0.0061
1575.00,0.0058
1574.00,0.0056
1573.00,0.0054
1572.00,0.0052
1571.00,0.0051
1570.00,0.0049
1569.00,0.0047
1568.00,0.0047
1567.00,0.0046
1566.00,0.0045
1565.00,0.0045
1564.00,0.0044
1563.00,0.0044
1562.00,0.0044
1561.00,0.0044
1560.00,0.0044
1559.00,0.0044
1558.00,0.0045
1557.00,0.0046
1556.00,0.0046
1555.00,0.0046
1554.00,0.0047
1553.00,0.0048
1552.00,0.0049
1551.00,0.0050
1550.00,0.0051
1549.00,0.0052
1548.00,0.0053
1547.00,0.0054
1546.00,0.0054
1545.00,0.0055
1544.00,0.0056
1543.00,0.0056
1542.00,0.0057
1541.00,0.0056
1540.00,0.0055
1539.00,0.0055
1538.00,0.0054
1537.00,0.0054
1536.00,0.0053
1535.00,0.0052
1534.00,0.0051
1533.00,0.0049
1532.00,0.0048
1531.00,0.0047
1530.00,0.0047
1529.00,0.0046
1528.00,0.0045
1527.00,0.0045
1526.00,0.0044
1525.00,0.0044
1524.00,0.0044
1523.00,0.0043
1522.00,0.0043
1521.00,0.0043
1520.00,0.0044
1519.00,0.0045
1518.00,0.0045
1517.00,0.0046
1516.00,0.0046
1515.00,0.0047
1514.00,0.0048
1513.00,0.0048
1512.00,0.0049
1511.00,0.0050
1510.00,0.0050
1509.00,0.0051
1508.00,0.0052
1507.00,0.0055
1506.00,0.0059
1505.00,0.0064
1504.00,0.0068
1503.00,0.0074
1502.00,0.0081
1501.00,0.0093
1500.00,0.0110
1499.00,0.0137
1498.00,0.0180
1497.00,0.0246
1496.00,0.0334
1495.00,0.0426
1494.00,0.0501
1493.00,0.0547
1492.00,0.0552
1491.00,0.0510
1490.00,0.0430
1489.00,0.0342
1488.00,0.0273
1487.00,0.0224
1486.00,0.0189
1485.00,0.0163
1484.00,0.0143
1483.00,0.0126
1482.00,0.0113
1481.00,0.0103
1480.00,0.0096
1479.00,0.0091
1478.00,0.0087
1477.00,0.0084
1476.00,0.0082
1475.00,0.0080
1474.00,0.0078
1473.00,0.0077
1472.00,0.0077
1471.00,0.0077
1470.00,0.0078
1469.00,0.0079
1468.00,0.0080
1467.00,0.0082
1466.00,0.0084
1465.00,0.0086
1464.00,0.0090
1463.00,0.0095
1462.00,0.0100
1461.00,0.0108
1460.00,0.0120
1459.00,0.0138
1458.00,0.0175
1457.00,0.0241
1456.00,0.0326
1455.00,0.0407
1454.00,0.0476
1453.00,0.0530
1452.00,0.0559
1451.00,0.0559
1450.00,0.0534
1449.00,0.0495
1448.00,0.0452
1447.00,0.0412
1446.00,0.0380
1445.00,0.0354
1444.00,0.0329
1443.00,0.0304
1442.00,0.0281
1441.00,0.0261
1440.00,0.0244
1439.00,0.0229
1438.00,0.0213
1437.00,0.0195
1436.00,0.0175
1435.00,0.0160
1434.00,0.0149
1433.00,0.0140
1432.00,0.0131
1431.00,0.0122
1430.00,0.0115
1429.00,0.0109
1428.00,0.0104
1427.00,0.0100
1426.00,0.0097
1425.00,0.0095
1424.00,0.0092
1423.00,0.0090
1422.00,0.0089
1421.00,0.0088
1420.00,0.0086
1419.00,0.0084
1418.00,0.0082
1417.00,0.0081
1416.00,0.0081
1415.00,0.0082
1414.00,0.0084
1413.00,0.0084
1412.00,0.0084
1411.00,0.0081
1410.00,0.0079
1409.00,0.0078
1408.00,0.0077
1407.00,0.0076
1406.00,0.0076
1405.00,0.0077
1404.00,0.0077
1403.00,0.0077
1402.00,0.0077
1401.00,0.0077
1400.00,0.0076
1399.00,0.0076
1398.00,0.0077
1397.00,0.0077
1396.00,0.0077
1395.00,0.0078
1394.00,0.0079
1393.00,0.0081
1392.00,0.0082
1391.00,0.0084
1390.00,0.0086
1389.00,0.0089
1388.00,0.0092
1387.00,0.0096
1386.00,0.0100
1385.00,0.0103
1384.00,0.0107
1383.00,0.0110
1382.00,0.0113
1381.00,0.0117
1380.00,0.0120
1379.00,0.0123
1378.00,0.0127
1377.00,0.0130
1376.00,0.0134
1375.00,0.0136
1374.00,0.0138
1373.00,0.0140
1372.00,0.0141
1371.00,0.0141
1370.00,0.0140
1369.00,0.0140
1368.00,0.0139
1367.00,0.0138
1366.00,0.0137
1365.00,0.0136
1364.00,0.0135
1363.00,0.0133
1362.00,0.0131
1361.00,0.0130
1360.00,0.0128
1359.00,0.0127
1358.00,0.0125
1357.00,0.0123
1356.00,0.0122
1355.00,0.0120
1354.00,0.0119
1353.00,0.0119
1352.00,0.0118
1351.00,0.0118
1350.00,0.0118
1349.00,0.0117
1348.00,0.0117
1347.00,0.0116
1346.00,0.0115
1345.00,0.0113
1344.00,0.0112
1343.00,0.0110
1342.00,0.0108
1341.00,0.0106
1340.00,0.0105
1339.00,0.0103
1338.00,0.0103
1337.00,0.0103
1336.00,0.0104
1335.00,0.0106
1334.00,0.0108
1333.00,0.0110
1332.00,0.0112
1331.00,0.0115
1330.00,0.0116
1329.00,0.0117
1328.00,0.0117
1327.00,0.0117
1326.00,0.0116
1325.00,0.0114
1324.00,0.0112
1323.00,0.0111
1322.00,0.0109
1321.00,0.0109
1320.00,0.0108
1319.00,0.0108
1318.00,0.0108
1317.00,0.0109
1316.00,0.0110
1315.00,0.0111
1314.00,0.0111
1313.00,0.0112
1312.00,0.0112
1311.00,0.0112
1310.00,0.0111
1309.00,0.0110
1308.00,0.0108
1307.00,0.0107
1306.00,0.0105
1305.00,0.0104
1304.00,0.0102
1303.00,0.0100
1302.00,0.0098
1301.00,0.0097
1300.00,0.0095
1299.00,0.0093
1298.00,0.0092
1297.00,0.0091
1296.00,0.0091
1295.00,0.0090
1294.00,0.0090
1293.00,0.0089
1292.00,0.0089
1291.00,0.0088
1290.00,0.0087
1289.00,0.0086
1288.00,0.0086
1287.00,0.0085
1286.00,0.0085
1285.00,0.0085
1284.00,0.0085
1283.00,0.0085
1282.00,0.0085
1281.00,0.0085
1280.00,0.0084
1279.00,0.0083
1278.00,0.0082
1277.00,0.0080
1276.00,0.0079
1275.00,0.0077
1274.00,0.0076
1273.00,0.0075
1272.00,0.0073
1271.00,0.0072
1270.00,0.0071
1269.00,0.0070
1268.00,0.0070
1267.00,0.0069
1266.00,0.0069
1265.00,0.0068
1264.00,0.0068
1263.00,0.0067
1262.00,0.0067
1261.00,0.0067
1260.00,0.0066
1259.00,0.0066
1258.00,0.0066
1257.00,0.0067
1256.00,0.0067
1255.00,0.0067
1254.00,0.0068
1253.00,0.0068
1252.00,0.0068
1251.00,0.0068
1250.00,0.0068
1249.00,0.0069
1248.00,0.0069
1247.00,0.0069
1246.00,0.0069
1245.00,0.0069
1244.00,0.0069
1243.00,0.0069
1242.00,0.0069
1241.00,0.0069
1240.00,0.0069
1239.00,0.0068
1238.00,0.0068
1237.00,0.0068
1236.00,0.0068
1235.00,0.0068
1234.00,0.0068
1233.00,0.0068
1232.00,0.0068
1231.00,0.0068
1230.00,0.0068
1229.00,0.0068
1228.00,0.0068
1227.00,0.0069
1226.00,0.0069
1225.00,0.0069
1224.00,0.0069
1223.00,0.0069
1222.00,0.0069
1221.00,0.0069
1220.00,0.0070
1219.00,0.0070
1218.00,0.0070
1217.00,0.0071
1216.00,0.0071
1215.00,0.0072
1214.00,0.0072
1213.00,0.0073
1212.00,0.0074
1211.00,0.0075
1210.00,0.0077
1209.00,0.0078
1208.00,0.0079
1207.00,0.0081
1206.00,0.0083
1205.00,0.0085
1204.00,0.0087
1203.00,0.0089
1202.00,0.0092
1201.00,0.0094
1200.00,0.0097
1199.00,0.0099
1198.00,0.0100
1197.00,0.0101
1196.00,0.0102
1195.00,0.0102
1194.00,0.0103
1193.00,0.0104
1192.00,0.0105
1191.00,0.0106
1190.00,0.0108
1189.00,0.0109
1188.00,0.0112
1187.00,0.0115
1186.00,0.0120
1185.00,0.0126
1184.00,0.0132
1183.00,0.0138
1182.00,0.0141
1181.00,0.0143
1180.00,0.0141
1179.00,0.0136
1178.00,0.0130
1177.00,0.0122
1176.00,0.0115
1175.00,0.0110
1174.00,0.0106
1173.00,0.0104
1172.00,0.0103
1171.00,0.0102
1170.00,0.0101
1169.00,0.0100
1168.00,0.0100
1167.00,0.0101
1166.00,0.0102
1165.00,0.0104
1164.00,0.0105
1163.00,0.0107
1162.00,0.0110
1161.00,0.0114
1160.00,0.0121
1159.00,0.0129
1158.00,0.0138
1157.00,0.0147
1156.00,0.0155
1155.00,0.0159
1154.00,0.0161
1153.00,0.0158
1152.00,0.0152
1151.00,0.0145
1150.00,0.0138
1149.00,0.0134
1148.00,0.0133
1147.00,0.0135
1146.00,0.0139
1145.00,0.0145
1144.00,0.0151
1143.00,0.0158
1142.00,0.0166
1141.00,0.0173
1140.00,0.0178
1139.00,0.0178
1138.00,0.0174
1137.00,0.0169
1136.00,0.0164
1135.00,0.0160
1134.00,0.0155
1133.00,0.0151
1132.00,0.0146
1131.00,0.0142
1130.00,0.0138
1129.00,0.0135
1128.00,0.0131
1127.00,0.0127
1126.00,0.0123
1125.00,0.0119
1124.00,0.0116
1123.00,0.0113
1122.00,0.0110
1121.00,0.0109
1120.00,0.0107
1119.00,0.0107
1118.00,0.0107
1117.00,0.0108
1116.00,0.0108
1115.00,0.0109
1114.00,0.0109
1113.00,0.0109
1112.00,0.0109
1111.00,0.0109
1110.00,0.0108
1109.00,0.0107
1108.00,0.0106
1107.00,0.0105
1106.00,0.0104
1105.00,0.0104
1104.00,0.0105
1103.00,0.0105
1102.00,0.0106
1101.00,0.0106
1100.00,0.0107
1099.00,0.0107
1098.00,0.0108
1097.00,0.0109
1096.00,0.0110
1095.00,0.0111
1094.00,0.0112
1093.00,0.0113
1092.00,0.0114
1091.00,0.0116
1090.00,0.0117
1089.00,0.0119
1088.00,0.0120
1087.00,0.0123
1086.00,0.0125
1085.00,0.0128
1084.00,0.0131
1083.00,0.0135
1082.00,0.0139
1081.00,0.0143
1080.00,0.0146
1079.00,0.0149
1078.00,0.0153
1077.00,0.0158
1076.00,0.0163
1075.00,0.0170
1074.00,0.0176
1073.00,0.0183
1072.00,0.0190
1071.00,0.0196
1070.00,0.0199
1069.00,0.0201
1068.00,0.0201
1067.00,0.0198
1066.00,0.0193
1065.00,0.0187
1064.00,0.0180
1063.00,0.0174
1062.00,0.0168
1061.00,0.0162
1060.00,0.0156
1059.00,0.0151
1058.00,0.0147
1057.00,0.0144
1056.00,0.0141
1055.00,0.0138
1054.00,0.0136
1053.00,0.0133
1052.00,0.0132
1051.00,0.0130
1050.00,0.0128
1049.00,0.0127
1048.00,0.0125
1047.00,0.0124
1046.00,0.0123
1045.00,0.0122
1044.00,0.0121
1043.00,0.0121
1042.00,0.0122
1041.00,0.0123
1040.00,0.0126
1039.00,0.0131
1038.00,0.0138
1037.00,0.0148
1036.00,0.0162
1035.00,0.0182
1034.00,0.0206
1033.00,0.0234
1032.00,0.0262
1031.00,0.0287
1030.00,0.0307
1029.00,0.0321
1028.00,0.0326
1027.00,0.0322
1026.00,0.0309
1025.00,0.0290
1024.00,0.0270
1023.00,0.0251
1022.00,0.0233
1021.00,0.0219
1020.00,0.0207
1019.00,0.0197
1018.00,0.0188
1017.00,0.0180
1016.00,0.0173
1015.00,0.0167
1014.00,0.0162
1013.00,0.0157
1012.00,0.0153
1011.00,0.0150
1010.00,0.0148
1009.00,0.0147
1008.00,0.0147
1007.00,0.0148
1006.00,0.0151
1005.00,0.0154
1004.00,0.0156
1003.00,0.0155
1002.00,0.0152
1001.00,0.0146
1000.00,0.0138
999.00,0.0130
998.00,0.0124
997.00,0.0119
996.00,0.0116
995.00,0.0114
994.00,0.0113
993.00,0.0113
992.00,0.0113
991.00,0.0114
990.00,0.0115
989.00,0.0116
988.00,0.0117
987.00,0.0119
986.00,0.0122
985.00,0.0125
984.00,0.0128
983.00,0.0131
982.00,0.0133
981.00,0.0135
980.00,0.0135
979.00,0.0134
978.00,0.0133
977.00,0.0131
976.00,0.0128
975.00,0.0126
974.00,0.0124
973.00,0.0123
972.00,0.0123
971.00,0.0125
970.00,0.0128
969.00,0.0133
968.00,0.0137
967.00,0.0141
966.00,0.0144
965.00,0.0146
964.00,0.0147
963.00,0.0146
962.00,0.0144
961.00,0.0140
960.00,0.0135
959.00,0.0130
958.00,0.0125
957.00,0.0121
956.00,0.0117
955.00,0.0115
954.00,0.0114
953.00,0.0113
952.00,0.0113
951.00,0.0113
950.00,0.0113
949.00,0.0114
948.00,0.0115
947.00,0.0117
946.00,0.0119
945.00,0.0121
944.00,0.0122
943.00,0.0122
942.00,0.0121
941.00,0.0120
940.00,0.0118
939.00,0.0116
938.00,0.0113
937.00,0.0109
936.00,0.0106
935.00,0.0102
934.00,0.0099
933.00,0.0097
932.00,0.0095
931.00,0.0093
930.00,0.0091
929.00,0.0090
928.00,0.0089
927.00,0.0089
926.00,0.0089
925.00,0.0090
924.00,0.0091
923.00,0.0092
922.00,0.0094
921.00,0.0095
920.00,0.0098
919.00,0.0101
918.00,0.0105
917.00,0.0111
916.00,0.0118
915.00,0.0127
914.00,0.0137
913.00,0.0148
912.00,0.0161
911.00,0.0174
910.00,0.0187
909.00,0.0199
908.00,0.0208
907.00,0.0213
906.00,0.0215
905.00,0.0211
904.00,0.0203
903.00,0.0191
902.00,0.0177
901.00,0.0161
900.00,0.0147
899.00,0.0133
898.00,0.0121
897.00,0.0111
896.00,0.0102
895.00,0.0096
894.00,0.0091
893.00,0.0087
892.00,0.0084
891.00,0.0082
890.00,0.0080
889.00,0.0078
888.00,0.0076
887.00,0.0074
886.00,0.0073
885.00,0.0072
884.00,0.0071
883.00,0.0070
882.00,0.0069
881.00,0.0069
880.00,0.0069
879.00,0.0069
878.00,0.0069
877.00,0.0069
876.00,0.0068
875.00,0.0068
874.00,0.0067
873.00,0.0067
872.00,0.0066
871.00,0.0065
870.00,0.0065
869.00,0.0065
868.00,0.0064
867.00,0.0064
866.00,0.0063
865.00,0.0062
864.00,0.0061
863.00,0.0061
862.00,0.0060
861.00,0.0060
860.00,0.0061
859.00,0.0061
858.00,0.0061
857.00,0.0061
856.00,0.0062
855.00,0.0063
854.00,0.0065
853.00,0.0067
852.00,0.0070
851.00,0.0074
850.00,0.0078
849.00,0.0084
848.00,0.0089
847.00,0.0095
846.00,0.0101
845.00,0.0107
844.00,0.0111
843.00,0.0114
842.00,0.0115
841.00,0.0114
840.00,0.0112
839.00,0.0109
838.00,0.0105
837.00,0.0099
836.00,0.0092
835.00,0.0085
834.00,0.0078
833.00,0.0073
832.00,0.0069
831.00,0.0065
830.00,0.0063
829.00,0.0062
828.00,0.0061
827.00,0.0060
826.00,0.0060
825.00,0.0059
824.00,0.0058
823.00,0.0057
822.00,0.0057
821.00,0.0057
820.00,0.0057
819.00,0.0057
818.00,0.0057
817.00,0.0057
816.00,0.0058
815.00,0.0059
814.00,0.0059
813.00,0.0060
812.00,0.0061
811.00,0.0061
810.00,0.0062
809.00,0.0063
808.00,0.0063
807.00,0.0063
806.00,0.0064
805.00,0.0065
804.00,0.0066
803.00,0.0067
802.00,0.0068
801.00,0.0070
800.00,0.0071
799.00,0.0073
798.00,0.0075
797.00,0.0078
796.00,0.0081
795.00,0.0085
794.00,0.0089
793.00,0.0093
792.00,0.0098
791.00,0.0103
790.00,0.0108
789.00,0.0114
788.00,0.0121
787.00,0.0127
786.00,0.0134
785.00,0.0141
784.00,0.0149
783.00,0.0158
782.00,0.0168
781.00,0.0179
780.00,0.0192
779.00,0.0207
778.00,0.0223
777.00,0.0242
776.00,0.0264
775.00,0.0287
774.00,0.0313
773.00,0.0340
772.00,0.0369
771.00,0.0401
770.00,0.0435
769.00,0.0469
768.00,0.0504
767.00,0.0538
766.00,0.0572
765.00,0.0606
764.00,0.0640
763.00,0.0676
762.00,0.0713
761.00,0.0750
760.00,0.0786
759.00,0.0821
758.00,0.0851
757.00,0.0874
756.00,0.0890
755.00,0.0898
754.00,0.0900
753.00,0.0898
752.00,0.0894
751.00,0.0890
750.00,0.0886
749.00,0.0883
748.00,0.0876
747.00,0.0862
746.00,0.0837
745.00,0.0800
744.00,0.0752
743.00,0.0697
742.00,0.0638
741.00,0.0580
740.00,0.0526
739.00,0.0477
738.00,0.0431
737.00,0.0388
736.00,0.0347
735.00,0.0308
734.00,0.0271
733.00,0.0237
732.00,0.0207
731.00,0.0183
730.00,0.0163
729.00,0.0149
728.00,0.0138
727.00,0.0131
726.00,0.0124
725.00,0.0120
724.00,0.0116
723.00,0.0114
722.00,0.0114
721.00,0.0114
720.00,0.0115
719.00,0.0117
718.00,0.0120
717.00,0.0125
716.00,0.0132
715.00,0.0142
714.00,0.0156
713.00,0.0175
712.00,0.0203
711.00,0.0242
710.00,0.0295
709.00,0.0364
708.00,0.0452
707.00,0.0560
706.00,0.0691
705.00,0.0844
704.00,0.1019
703.00,0.1214
702.00,0.1428
701.00,0.1656
700.00,0.1892
699.00,0.2133
698.00,0.2369
697.00,0.2585
696.00,0.2751
695.00,0.2825
694.00,0.2775
693.00,0.2598
692.00,0.2330
691.00,0.2027
690.00,0.1737
689.00,0.1486
688.00,0.1280
687.00,0.1118
686.00,0.0991
685.00,0.0890
684.00,0.0807
683.00,0.0738
682.00,0.0680
681.00,0.0630
680.00,0.0588
679.00,0.0551
678.00,0.0521
677.00,0.0495
676.00,0.0472
675.00,0.0452
674.00,0.0435
673.00,0.0420
672.00,0.0406
671.00,0.0394
670.00,0.0382
669.00,0.0368
668.00,0.0351
667.00,0.0335
666.00,0.0324
665.00,0.0315
664.00,0.0305
663.00,0.0294
662.00,0.0282
661.00,0.0271
660.00,0.0260
659.00,0.0249
658.00,0.0239
657.00,0.0230
656.00,0.0221
655.00,0.0212
654.00,0.0204
653.00,0.0197
652.00,0.0191
651.00,0.0185
650.00,0.0180
649.00,0.0176
648.00,0.0172
647.00,0.0167
646.00,0.0164
645.00,0.0161
644.00,0.0159
643.00,0.0157
642.00,0.0156
641.00,0.0156
640.00,0.0156
639.00,0.0158
638.00,0.0161
637.00,0.0165
636.00,0.0168
635.00,0.0172
634.00,0.0175
633.00,0.0178
632.00,0.0181
631.00,0.0185
630.00,0.0188
629.00,0.0191
628.00,0.0194
627.00,0.0196
626.00,0.0196
625.00,0.0198
624.00,0.0200
623.00,0.0204
622.00,0.0209
621.00,0.0212
620.00,0.0212
619.00,0.0208
618.00,0.0203
617.00,0.0197
616.00,0.0191
615.00,0.0187
614.00,0.0184
613.00,0.0182
612.00,0.0178
611.00,0.0174
610.00,0.0171
609.00,0.0169
608.00,0.0168
607.00,0.0168
606.00,0.0168
605.00,0.0168
604.00,0.0168
603.00,0.0169
602.00,0.0169
601.00,0.0170
600.00,0.0171
599.00,0.0172
598.00,0.0174
597.00,0.0175
596.00,0.0177
595.00,0.0178
594.00,0.0180
593.00,0.0182
592.00,0.0184
591.00,0.0186
590.00,0.0190
589.00,0.0193
588.00,0.0196
587.00,0.0199
586.00,0.0203
585.00,0.0207
584.00,0.0212
583.00,0.0216
582.00,0.0221
581.00,0.0227
580.00,0.0234
579.00,0.0243
578.00,0.0253
577.00,0.0264
576.00,0.0275
575.00,0.0286
574.00,0.0298
573.00,0.0311
572.00,0.0324
571.00,0.0337
570.00,0.0349
569.00,0.0359
568.00,0.0370
567.00,0.0380
566.00,0.0392
565.00,0.0404
564.00,0.0417
563.00,0.0429
562.00,0.0441
561.00,0.0453
560.00,0.0464
559.00,0.0475
558.00,0.0486
557.00,0.0499
556.00,0.0513
555.00,0.0528
554.00,0.0543
553.00,0.0559
552.00,0.0576
551.00,0.0594
550.00,0.0613
549.00,0.0635
548.00,0.0659
547.00,0.0685
546.00,0.0713
545.00,0.0743
544.00,0.0776
543.00,0.0808
542.00,0.0839
541.00,0.0867
540.00,0.0892
539.00,0.0909
538.00,0.0916
537.00,0.0911
536.00,0.0896
535.00,0.0870
534.00,0.0834
533.00,0.0793
532.00,0.0750
531.00,0.0707
530.00,0.0662
529.00,0.0620
528.00,0.0579
527.00,0.0540
526.00,0.0503
525.00,0.0472
524.00,0.0445
523.00,0.0423
522.00,0.0403
521.00,0.0385
520.00,0.0370
519.00,0.0356
518.00,0.0342
517.00,0.0331
516.00,0.0321
515.00,0.0313
514.00,0.0304
513.00,0.0296
512.00,0.0287
511.00,0.0278
510.00,0.0270
509.00,0.0263
508.00,0.0256
507.00,0.0247
506.00,0.0238
505.00,0.0230
504.00,0.0223
503.00,0.0216
502.00,0.0210
501.00,0.0204
500.00,0.0200
499.00,0.0197
498.00,0.0196
497.00,0.0195
496.00,0.0195
495.00,0.0193
494.00,0.0190
493.00,0.0187
492.00,0.0183
491.00,0.0180
490.00,0.0177
489.00,0.0174
488.00,0.0173
487.00,0.0172
486.00,0.0170
485.00,0.0169
484.00,0.0169
483.00,0.0168
482.00,0.0166
481.00,0.0165
480.00,0.0162
479.00,0.0160
478.00,0.0158
477.00,0.0158
476.00,0.0159
475.00,0.0160
474.00,0.0159
473.00,0.0157
472.00,0.0155
471.00,0.0154
470.00,0.0152
469.00,0.0151
468.00,0.0151
467.00,0.0151
466.00,0.0151
465.00,0.0151
464.00,0.0151
463.00,0.0152
462.00,0.0151
461.00,0.0148
460.00,0.0146
459.00,0.0146
458.00,0.0150
457.00,0.0154
456.00,0.0155
455.00,0.0152
454.00,0.0147
453.00,0.0142
452.00,0.0138
451.00,0.0135
450.00,0.0134
449.00,0.0133
448.00,0.0132
447.00,0.0131
446.00,0.0131
445.00,0.0130
444.00,0.0128
443.00,0.0126
442.00,0.0126
441.00,0.0126
440.00,0.0128
439.00,0.0129
438.00,0.0128
437.00,0.0126
436.00,0.0125
435.00,0.0126
434.00,0.0127
433.00,0.0129
432.00,0.0130
431.00,0.0129
430.00,0.0125
429.00,0.0121
428.00,0.0118
427.00,0.0115
426.00,0.0110
425.00,0.0104
424.00,0.0100
423.00,0.0100
422.00,0.0104
421.00,0.0106
420.00,0.0106
419.00,0.0102
418.00,0.0100
417.00,0.0100
416.00,0.0102
415.00,0.0104
414.00,0.0105
413.00,0.0101
412.00,0.0097
411.00,0.0100
410.00,0.0112
409.00,0.0128
408.00,0.0137
407.00,0.0137
406.00,0.0130
405.00,0.0126
404.00,0.0125
403.00,0.0125
402.00,0.0126
401.00,0.0129
400.00,0.0137
