Created as New Dataset,Sample 615 By YargerLab Date Friday, June 06 2025
cm-1,A
4000.00,0.0082
3999.00,0.0082
3998.00,0.0082
3997.00,0.0083
3996.00,0.0083
3995.00,0.0083
3994.00,0.0083
3993.00,0.0083
3992.00,0.0083
3991.00,0.0083
3990.00,0.0083
3989.00,0.0083
3988.00,0.0083
3987.00,0.0083
3986.00,0.0083
3985.00,0.0083
3984.00,0.0083
3983.00,0.0083
3982.00,0.0082
3981.00,0.0082
3980.00,0.0082
3979.00,0.0082
3978.00,0.0082
3977.00,0.0082
3976.00,0.0083
3975.00,0.0083
3974.00,0.0083
3973.00,0.0083
3972.00,0.0083
3971.00,0.0083
3970.00,0.0083
3969.00,0.0083
3968.00,0.0083
3967.00,0.0083
3966.00,0.0083
3965.00,0.0083
3964.00,0.0083
3963.00,0.0083
3962.00,0.0083
3961.00,0.0083
3960.00,0.0083
3959.00,0.0083
3958.00,0.0083
3957.00,0.0083
3956.00,0.0084
3955.00,0.0084
3954.00,0.0084
3953.00,0.0083
3952.00,0.0083
3951.00,0.0083
3950.00,0.0083
3949.00,0.0083
3948.00,0.0083
3947.00,0.0083
3946.00,0.0083
3945.00,0.0084
3944.00,0.0084
3943.00,0.0084
3942.00,0.0084
3941.00,0.0083
3940.00,0.0083
3939.00,0.0083
3938.00,0.0083
3937.00,0.0083
3936.00,0.0083
3935.00,0.0083
3934.00,0.0083
3933.00,0.0083
3932.00,0.0083
3931.00,0.0083
3930.00,0.0083
3929.00,0.0083
3928.00,0.0083
3927.00,0.0083
3926.00,0.0083
3925.00,0.0083
3924.00,0.0083
3923.00,0.0083
3922.00,0.0083
3921.00,0.0083
3920.00,0.0082
3919.00,0.0082
3918.00,0.0082
3917.00,0.0082
3916.00,0.0082
3915.00,0.0082
3914.00,0.0082
3913.00,0.0082
3912.00,0.0082
3911.00,0.0082
3910.00,0.0082
3909.00,0.0082
3908.00,0.0082
3907.00,0.0082
3906.00,0.0082
3905.00,0.0082
3904.00,0.0082
3903.00,0.0082
3902.00,0.0082
3901.00,0.0082
3900.00,0.0082
3899.00,0.0082
3898.00,0.0082
3897.00,0.0082
3896.00,0.0082
3895.00,0.0082
3894.00,0.0082
3893.00,0.0082
3892.00,0.0081
3891.00,0.0081
3890.00,0.0081
3889.00,0.0082
3888.00,0.0082
3887.00,0.0082
3886.00,0.0082
3885.00,0.0081
3884.00,0.0081
3883.00,0.0082
3882.00,0.0082
3881.00,0.0082
3880.00,0.0082
3879.00,0.0081
3878.00,0.0081
3877.00,0.0081
3876.00,0.0082
3875.00,0.0081
3874.00,0.0081
3873.00,0.0082
3872.00,0.0082
3871.00,0.0082
3870.00,0.0082
3869.00,0.0082
3868.00,0.0082
3867.00,0.0083
3866.00,0.0083
3865.00,0.0082
3864.00,0.0082
3863.00,0.0081
3862.00,0.0081
3861.00,0.0081
3860.00,0.0081
3859.00,0.0081
3858.00,0.0081
3857.00,0.0081
3856.00,0.0081
3855.00,0.0081
3854.00,0.0081
3853.00,0.0081
3852.00,0.0082
3851.00,0.0082
3850.00,0.0082
3849.00,0.0082
3848.00,0.0081
3847.00,0.0081
3846.00,0.0081
3845.00,0.0081
3844.00,0.0081
3843.00,0.0081
3842.00,0.0081
3841.00,0.0081
3840.00,0.0081
3839.00,0.0081
3838.00,0.0081
3837.00,0.0081
3836.00,0.0081
3835.00,0.0081
3834.00,0.0081
3833.00,0.0081
3832.00,0.0081
3831.00,0.0081
3830.00,0.0081
3829.00,0.0081
3828.00,0.0081
3827.00,0.0081
3826.00,0.0081
3825.00,0.0081
3824.00,0.0081
3823.00,0.0081
3822.00,0.0081
3821.00,0.0081
3820.00,0.0081
3819.00,0.0081
3818.00,0.0081
3817.00,0.0081
3816.00,0.0080
3815.00,0.0080
3814.00,0.0080
3813.00,0.0081
3812.00,0.0080
3811.00,0.0080
3810.00,0.0080
3809.00,0.0081
3808.00,0.0081
3807.00,0.0080
3806.00,0.0080
3805.00,0.0080
3804.00,0.0080
3803.00,0.0080
3802.00,0.0080
3801.00,0.0080
3800.00,0.0081
3799.00,0.0081
3798.00,0.0081
3797.00,0.0081
3796.00,0.0081
3795.00,0.0081
3794.00,0.0081
3793.00,0.0081
3792.00,0.0080
3791.00,0.0080
3790.00,0.0081
3789.00,0.0081
3788.00,0.0081
3787.00,0.0081
3786.00,0.0081
3785.00,0.0081
3784.00,0.0081
3783.00,0.0080
3782.00,0.0081
3781.00,0.0081
3780.00,0.0081
3779.00,0.0081
3778.00,0.0081
3777.00,0.0081
3776.00,0.0081
3775.00,0.0081
3774.00,0.0081
3773.00,0.0081
3772.00,0.0081
3771.00,0.0081
3770.00,0.0081
3769.00,0.0081
3768.00,0.0081
3767.00,0.0081
3766.00,0.0081
3765.00,0.0081
3764.00,0.0081
3763.00,0.0081
3762.00,0.0081
3761.00,0.0081
3760.00,0.0081
3759.00,0.0081
3758.00,0.0081
3757.00,0.0081
3756.00,0.0081
3755.00,0.0081
3754.00,0.0081
3753.00,0.0081
3752.00,0.0081
3751.00,0.0081
3750.00,0.0081
3749.00,0.0081
3748.00,0.0081
3747.00,0.0081
3746.00,0.0081
3745.00,0.0081
3744.00,0.0080
3743.00,0.0080
3742.00,0.0080
3741.00,0.0080
3740.00,0.0080
3739.00,0.0080
3738.00,0.0080
3737.00,0.0080
3736.00,0.0080
3735.00,0.0081
3734.00,0.0081
3733.00,0.0081
3732.00,0.0080
3731.00,0.0079
3730.00,0.0079
3729.00,0.0079
3728.00,0.0079
3727.00,0.0079
3726.00,0.0079
3725.00,0.0080
3724.00,0.0080
3723.00,0.0080
3722.00,0.0079
3721.00,0.0079
3720.00,0.0079
3719.00,0.0079
3718.00,0.0079
3717.00,0.0079
3716.00,0.0079
3715.00,0.0079
3714.00,0.0079
3713.00,0.0079
3712.00,0.0079
3711.00,0.0079
3710.00,0.0079
3709.00,0.0079
3708.00,0.0079
3707.00,0.0079
3706.00,0.0079
3705.00,0.0079
3704.00,0.0078
3703.00,0.0078
3702.00,0.0078
3701.00,0.0078
3700.00,0.0078
3699.00,0.0078
3698.00,0.0079
3697.00,0.0079
3696.00,0.0078
3695.00,0.0078
3694.00,0.0078
3693.00,0.0078
3692.00,0.0077
3691.00,0.0077
3690.00,0.0077
3689.00,0.0077
3688.00,0.0078
3687.00,0.0078
3686.00,0.0078
3685.00,0.0079
3684.00,0.0079
3683.00,0.0079
3682.00,0.0079
3681.00,0.0079
3680.00,0.0079
3679.00,0.0079
3678.00,0.0079
3677.00,0.0080
3676.00,0.0079
3675.00,0.0079
3674.00,0.0079
3673.00,0.0079
3672.00,0.0079
3671.00,0.0079
3670.00,0.0079
3669.00,0.0079
3668.00,0.0079
3667.00,0.0079
3666.00,0.0079
3665.00,0.0079
3664.00,0.0079
3663.00,0.0079
3662.00,0.0079
3661.00,0.0079
3660.00,0.0079
3659.00,0.0079
3658.00,0.0079
3657.00,0.0079
3656.00,0.0079
3655.00,0.0079
3654.00,0.0080
3653.00,0.0080
3652.00,0.0080
3651.00,0.0080
3650.00,0.0080
3649.00,0.0080
3648.00,0.0081
3647.00,0.0080
3646.00,0.0080
3645.00,0.0080
3644.00,0.0079
3643.00,0.0079
3642.00,0.0079
3641.00,0.0079
3640.00,0.0079
3639.00,0.0079
3638.00,0.0079
3637.00,0.0079
3636.00,0.0079
3635.00,0.0079
3634.00,0.0079
3633.00,0.0078
3632.00,0.0079
3631.00,0.0079
3630.00,0.0079
3629.00,0.0079
3628.00,0.0079
3627.00,0.0079
3626.00,0.0079
3625.00,0.0079
3624.00,0.0079
3623.00,0.0079
3622.00,0.0079
3621.00,0.0079
3620.00,0.0079
3619.00,0.0079
3618.00,0.0079
3617.00,0.0079
3616.00,0.0079
3615.00,0.0080
3614.00,0.0080
3613.00,0.0080
3612.00,0.0080
3611.00,0.0080
3610.00,0.0080
3609.00,0.0080
3608.00,0.0080
3607.00,0.0080
3606.00,0.0080
3605.00,0.0079
3604.00,0.0079
3603.00,0.0079
3602.00,0.0079
3601.00,0.0079
3600.00,0.0079
3599.00,0.0079
3598.00,0.0079
3597.00,0.0079
3596.00,0.0079
3595.00,0.0079
3594.00,0.0079
3593.00,0.0079
3592.00,0.0079
3591.00,0.0080
3590.00,0.0080
3589.00,0.0080
3588.00,0.0080
3587.00,0.0080
3586.00,0.0079
3585.00,0.0079
3584.00,0.0079
3583.00,0.0079
3582.00,0.0079
3581.00,0.0079
3580.00,0.0079
3579.00,0.0079
3578.00,0.0079
3577.00,0.0079
3576.00,0.0079
3575.00,0.0079
3574.00,0.0079
3573.00,0.0079
3572.00,0.0079
3571.00,0.0080
3570.00,0.0080
3569.00,0.0080
3568.00,0.0079
3567.00,0.0079
3566.00,0.0079
3565.00,0.0079
3564.00,0.0079
3563.00,0.0079
3562.00,0.0079
3561.00,0.0079
3560.00,0.0079
3559.00,0.0079
3558.00,0.0079
3557.00,0.0079
3556.00,0.0079
3555.00,0.0080
3554.00,0.0080
3553.00,0.0080
3552.00,0.0080
3551.00,0.0080
3550.00,0.0080
3549.00,0.0079
3548.00,0.0079
3547.00,0.0079
3546.00,0.0079
3545.00,0.0079
3544.00,0.0079
3543.00,0.0080
3542.00,0.0080
3541.00,0.0080
3540.00,0.0079
3539.00,0.0079
3538.00,0.0079
3537.00,0.0079
3536.00,0.0079
3535.00,0.0079
3534.00,0.0079
3533.00,0.0079
3532.00,0.0079
3531.00,0.0078
3530.00,0.0078
3529.00,0.0078
3528.00,0.0079
3527.00,0.0078
3526.00,0.0078
3525.00,0.0078
3524.00,0.0078
3523.00,0.0078
3522.00,0.0078
3521.00,0.0078
3520.00,0.0078
3519.00,0.0078
3518.00,0.0078
3517.00,0.0078
3516.00,0.0078
3515.00,0.0078
3514.00,0.0078
3513.00,0.0077
3512.00,0.0077
3511.00,0.0077
3510.00,0.0077
3509.00,0.0076
3508.00,0.0076
3507.00,0.0076
3506.00,0.0076
3505.00,0.0076
3504.00,0.0076
3503.00,0.0076
3502.00,0.0076
3501.00,0.0076
3500.00,0.0075
3499.00,0.0075
3498.00,0.0075
3497.00,0.0074
3496.00,0.0074
3495.00,0.0074
3494.00,0.0074
3493.00,0.0074
3492.00,0.0073
3491.00,0.0073
3490.00,0.0072
3489.00,0.0072
3488.00,0.0072
3487.00,0.0072
3486.00,0.0071
3485.00,0.0071
3484.00,0.0071
3483.00,0.0070
3482.00,0.0070
3481.00,0.0069
3480.00,0.0069
3479.00,0.0069
3478.00,0.0068
3477.00,0.0068
3476.00,0.0068
3475.00,0.0067
3474.00,0.0067
3473.00,0.0066
3472.00,0.0065
3471.00,0.0065
3470.00,0.0064
3469.00,0.0063
3468.00,0.0062
3467.00,0.0061
3466.00,0.0060
3465.00,0.0059
3464.00,0.0058
3463.00,0.0056
3462.00,0.0055
3461.00,0.0053
3460.00,0.0051
3459.00,0.0048
3458.00,0.0045
3457.00,0.0043
3456.00,0.0040
3455.00,0.0037
3454.00,0.0034
3453.00,0.0032
3452.00,0.0029
3451.00,0.0027
3450.00,0.0026
3449.00,0.0026
3448.00,0.0027
3447.00,0.0029
3446.00,0.0032
3445.00,0.0034
3444.00,0.0037
3443.00,0.0040
3442.00,0.0043
3441.00,0.0046
3440.00,0.0049
3439.00,0.0051
3438.00,0.0054
3437.00,0.0056
3436.00,0.0059
3435.00,0.0061
3434.00,0.0063
3433.00,0.0064
3432.00,0.0065
3431.00,0.0066
3430.00,0.0068
3429.00,0.0069
3428.00,0.0070
3427.00,0.0071
3426.00,0.0072
3425.00,0.0073
3424.00,0.0074
3423.00,0.0075
3422.00,0.0076
3421.00,0.0077
3420.00,0.0078
3419.00,0.0079
3418.00,0.0080
3417.00,0.0081
3416.00,0.0082
3415.00,0.0082
3414.00,0.0083
3413.00,0.0085
3412.00,0.0086
3411.00,0.0087
3410.00,0.0089
3409.00,0.0091
3408.00,0.0092
3407.00,0.0094
3406.00,0.0095
3405.00,0.0096
3404.00,0.0096
3403.00,0.0097
3402.00,0.0097
3401.00,0.0099
3400.00,0.0101
3399.00,0.0103
3398.00,0.0106
3397.00,0.0108
3396.00,0.0110
3395.00,0.0111
3394.00,0.0111
3393.00,0.0113
3392.00,0.0114
3391.00,0.0116
3390.00,0.0119
3389.00,0.0123
3388.00,0.0126
3387.00,0.0129
3386.00,0.0131
3385.00,0.0134
3384.00,0.0137
3383.00,0.0140
3382.00,0.0143
3381.00,0.0147
3380.00,0.0151
3379.00,0.0156
3378.00,0.0161
3377.00,0.0167
3376.00,0.0174
3375.00,0.0182
3374.00,0.0191
3373.00,0.0200
3372.00,0.0211
3371.00,0.0224
3370.00,0.0240
3369.00,0.0258
3368.00,0.0280
3367.00,0.0303
3366.00,0.0329
3365.00,0.0357
3364.00,0.0384
3363.00,0.0410
3362.00,0.0435
3361.00,0.0456
3360.00,0.0472
3359.00,0.0484
3358.00,0.0490
3357.00,0.0490
3356.00,0.0486
3355.00,0.0477
3354.00,0.0465
3353.00,0.0451
3352.00,0.0436
3351.00,0.0420
3350.00,0.0405
3349.00,0.0391
3348.00,0.0378
3347.00,0.0365
3346.00,0.0353
3345.00,0.0342
3344.00,0.0333
3343.00,0.0325
3342.00,0.0318
3341.00,0.0311
3340.00,0.0306
3339.00,0.0302
3338.00,0.0298
3337.00,0.0295
3336.00,0.0293
3335.00,0.0290
3334.00,0.0287
3333.00,0.0284
3332.00,0.0282
3331.00,0.0279
3330.00,0.0276
3329.00,0.0273
3328.00,0.0270
3327.00,0.0267
3326.00,0.0265
3325.00,0.0263
3324.00,0.0261
3323.00,0.0259
3322.00,0.0256
3321.00,0.0254
3320.00,0.0251
3319.00,0.0248
3318.00,0.0245
3317.00,0.0242
3316.00,0.0238
3315.00,0.0234
3314.00,0.0231
3313.00,0.0227
3312.00,0.0224
3311.00,0.0220
3310.00,0.0216
3309.00,0.0213
3308.00,0.0210
3307.00,0.0207
3306.00,0.0204
3305.00,0.0202
3304.00,0.0200
3303.00,0.0198
3302.00,0.0196
3301.00,0.0194
3300.00,0.0191
3299.00,0.0189
3298.00,0.0186
3297.00,0.0184
3296.00,0.0181
3295.00,0.0178
3294.00,0.0175
3293.00,0.0172
3292.00,0.0169
3291.00,0.0167
3290.00,0.0165
3289.00,0.0163
3288.00,0.0161
3287.00,0.0159
3286.00,0.0156
3285.00,0.0154
3284.00,0.0151
3283.00,0.0149
3282.00,0.0147
3281.00,0.0145
3280.00,0.0144
3279.00,0.0142
3278.00,0.0140
3277.00,0.0139
3276.00,0.0137
3275.00,0.0136
3274.00,0.0135
3273.00,0.0134
3272.00,0.0133
3271.00,0.0132
3270.00,0.0132
3269.00,0.0131
3268.00,0.0131
3267.00,0.0131
3266.00,0.0130
3265.00,0.0129
3264.00,0.0129
3263.00,0.0128
3262.00,0.0128
3261.00,0.0127
3260.00,0.0127
3259.00,0.0126
3258.00,0.0125
3257.00,0.0125
3256.00,0.0125
3255.00,0.0125
3254.00,0.0125
3253.00,0.0125
3252.00,0.0125
3251.00,0.0124
3250.00,0.0124
3249.00,0.0123
3248.00,0.0123
3247.00,0.0123
3246.00,0.0124
3245.00,0.0125
3244.00,0.0125
3243.00,0.0126
3242.00,0.0126
3241.00,0.0127
3240.00,0.0127
3239.00,0.0127
3238.00,0.0127
3237.00,0.0126
3236.00,0.0125
3235.00,0.0124
3234.00,0.0123
3233.00,0.0122
3232.00,0.0122
3231.00,0.0122
3230.00,0.0122
3229.00,0.0121
3228.00,0.0120
3227.00,0.0119
3226.00,0.0118
3225.00,0.0117
3224.00,0.0116
3223.00,0.0114
3222.00,0.0113
3221.00,0.0111
3220.00,0.0110
3219.00,0.0109
3218.00,0.0108
3217.00,0.0107
3216.00,0.0106
3215.00,0.0104
3214.00,0.0103
3213.00,0.0102
3212.00,0.0101
3211.00,0.0101
3210.00,0.0100
3209.00,0.0099
3208.00,0.0098
3207.00,0.0097
3206.00,0.0096
3205.00,0.0096
3204.00,0.0095
3203.00,0.0094
3202.00,0.0093
3201.00,0.0092
3200.00,0.0092
3199.00,0.0091
3198.00,0.0091
3197.00,0.0090
3196.00,0.0090
3195.00,0.0089
3194.00,0.0089
3193.00,0.0088
3192.00,0.0088
3191.00,0.0088
3190.00,0.0087
3189.00,0.0087
3188.00,0.0086
3187.00,0.0086
3186.00,0.0086
3185.00,0.0086
3184.00,0.0085
3183.00,0.0085
3182.00,0.0085
3181.00,0.0084
3180.00,0.0084
3179.00,0.0083
3178.00,0.0083
3177.00,0.0082
3176.00,0.0082
3175.00,0.0082
3174.00,0.0081
3173.00,0.0081
3172.00,0.0081
3171.00,0.0081
3170.00,0.0080
3169.00,0.0080
3168.00,0.0080
3167.00,0.0080
3166.00,0.0080
3165.00,0.0080
3164.00,0.0080
3163.00,0.0080
3162.00,0.0080
3161.00,0.0080
3160.00,0.0080
3159.00,0.0080
3158.00,0.0080
3157.00,0.0080
3156.00,0.0080
3155.00,0.0080
3154.00,0.0080
3153.00,0.0080
3152.00,0.0080
3151.00,0.0080
3150.00,0.0080
3149.00,0.0080
3148.00,0.0080
3147.00,0.0080
3146.00,0.0080
3145.00,0.0080
3144.00,0.0079
3143.00,0.0079
3142.00,0.0079
3141.00,0.0079
3140.00,0.0079
3139.00,0.0080
3138.00,0.0080
3137.00,0.0080
3136.00,0.0081
3135.00,0.0081
3134.00,0.0081
3133.00,0.0081
3132.00,0.0081
3131.00,0.0081
3130.00,0.0081
3129.00,0.0082
3128.00,0.0082
3127.00,0.0083
3126.00,0.0083
3125.00,0.0084
3124.00,0.0084
3123.00,0.0085
3122.00,0.0086
3121.00,0.0086
3120.00,0.0087
3119.00,0.0088
3118.00,0.0089
3117.00,0.0090
3116.00,0.0091
3115.00,0.0093
3114.00,0.0094
3113.00,0.0095
3112.00,0.0097
3111.00,0.0098
3110.00,0.0099
3109.00,0.0101
3108.00,0.0102
3107.00,0.0103
3106.00,0.0104
3105.00,0.0104
3104.00,0.0105
3103.00,0.0105
3102.00,0.0105
3101.00,0.0105
3100.00,0.0105
3099.00,0.0105
3098.00,0.0104
3097.00,0.0103
3096.00,0.0103
3095.00,0.0102
3094.00,0.0101
3093.00,0.0100
3092.00,0.0099
3091.00,0.0098
3090.00,0.0097
3089.00,0.0097
3088.00,0.0097
3087.00,0.0096
3086.00,0.0096
3085.00,0.0096
3084.00,0.0096
3083.00,0.0096
3082.00,0.0096
3081.00,0.0095
3080.00,0.0094
3079.00,0.0093
3078.00,0.0092
3077.00,0.0091
3076.00,0.0091
3075.00,0.0090
3074.00,0.0089
3073.00,0.0088
3072.00,0.0088
3071.00,0.0087
3070.00,0.0087
3069.00,0.0086
3068.00,0.0086
3067.00,0.0086
3066.00,0.0086
3065.00,0.0087
3064.00,0.0087
3063.00,0.0087
3062.00,0.0088
3061.00,0.0088
3060.00,0.0087
3059.00,0.0087
3058.00,0.0086
3057.00,0.0086
3056.00,0.0086
3055.00,0.0086
3054.00,0.0086
3053.00,0.0086
3052.00,0.0086
3051.00,0.0087
3050.00,0.0087
3049.00,0.0088
3048.00,0.0088
3047.00,0.0087
3046.00,0.0086
3045.00,0.0086
3044.00,0.0086
3043.00,0.0086
3042.00,0.0087
3041.00,0.0089
3040.00,0.0090
3039.00,0.0091
3038.00,0.0092
3037.00,0.0092
3036.00,0.0092
3035.00,0.0093
3034.00,0.0093
3033.00,0.0094
3032.00,0.0094
3031.00,0.0095
3030.00,0.0096
3029.00,0.0096
3028.00,0.0097
3027.00,0.0097
3026.00,0.0098
3025.00,0.0099
3024.00,0.0100
3023.00,0.0101
3022.00,0.0103
3021.00,0.0104
3020.00,0.0104
3019.00,0.0105
3018.00,0.0105
3017.00,0.0105
3016.00,0.0105
3015.00,0.0105
3014.00,0.0105
3013.00,0.0106
3012.00,0.0106
3011.00,0.0108
3010.00,0.0109
3009.00,0.0111
3008.00,0.0113
3007.00,0.0114
3006.00,0.0116
3005.00,0.0118
3004.00,0.0120
3003.00,0.0123
3002.00,0.0125
3001.00,0.0128
3000.00,0.0131
2999.00,0.0133
2998.00,0.0135
2997.00,0.0138
2996.00,0.0140
2995.00,0.0142
2994.00,0.0143
2993.00,0.0145
2992.00,0.0147
2991.00,0.0148
2990.00,0.0150
2989.00,0.0151
2988.00,0.0152
2987.00,0.0151
2986.00,0.0149
2985.00,0.0146
2984.00,0.0142
2983.00,0.0138
2982.00,0.0134
2981.00,0.0130
2980.00,0.0127
2979.00,0.0124
2978.00,0.0121
2977.00,0.0119
2976.00,0.0117
2975.00,0.0115
2974.00,0.0114
2973.00,0.0114
2972.00,0.0114
2971.00,0.0114
2970.00,0.0115
2969.00,0.0115
2968.00,0.0116
2967.00,0.0117
2966.00,0.0119
2965.00,0.0120
2964.00,0.0123
2963.00,0.0126
2962.00,0.0130
2961.00,0.0135
2960.00,0.0140
2959.00,0.0147
2958.00,0.0154
2957.00,0.0162
2956.00,0.0170
2955.00,0.0178
2954.00,0.0186
2953.00,0.0192
2952.00,0.0195
2951.00,0.0196
2950.00,0.0194
2949.00,0.0189
2948.00,0.0183
2947.00,0.0176
2946.00,0.0169
2945.00,0.0162
2944.00,0.0156
2943.00,0.0150
2942.00,0.0144
2941.00,0.0139
2940.00,0.0134
2939.00,0.0130
2938.00,0.0125
2937.00,0.0122
2936.00,0.0119
2935.00,0.0116
2934.00,0.0113
2933.00,0.0110
2932.00,0.0107
2931.00,0.0104
2930.00,0.0101
2929.00,0.0099
2928.00,0.0096
2927.00,0.0094
2926.00,0.0091
2925.00,0.0089
2924.00,0.0088
2923.00,0.0087
2922.00,0.0086
2921.00,0.0086
2920.00,0.0085
2919.00,0.0085
2918.00,0.0086
2917.00,0.0086
2916.00,0.0086
2915.00,0.0086
2914.00,0.0087
2913.00,0.0087
2912.00,0.0088
2911.00,0.0090
2910.00,0.0091
2909.00,0.0092
2908.00,0.0094
2907.00,0.0096
2906.00,0.0097
2905.00,0.0097
2904.00,0.0097
2903.00,0.0097
2902.00,0.0097
2901.00,0.0096
2900.00,0.0096
2899.00,0.0095
2898.00,0.0095
2897.00,0.0094
2896.00,0.0094
2895.00,0.0094
2894.00,0.0094
2893.00,0.0095
2892.00,0.0095
2891.00,0.0095
2890.00,0.0095
2889.00,0.0095
2888.00,0.0095
2887.00,0.0095
2886.00,0.0095
2885.00,0.0096
2884.00,0.0096
2883.00,0.0096
2882.00,0.0095
2881.00,0.0095
2880.00,0.0095
2879.00,0.0094
2878.00,0.0094
2877.00,0.0093
2876.00,0.0092
2875.00,0.0091
2874.00,0.0090
2873.00,0.0089
2872.00,0.0089
2871.00,0.0089
2870.00,0.0090
2869.00,0.0090
2868.00,0.0091
2867.00,0.0092
2866.00,0.0093
2865.00,0.0094
2864.00,0.0095
2863.00,0.0094
2862.00,0.0093
2861.00,0.0092
2860.00,0.0091
2859.00,0.0089
2858.00,0.0088
2857.00,0.0088
2856.00,0.0087
2855.00,0.0088
2854.00,0.0088
2853.00,0.0089
2852.00,0.0090
2851.00,0.0092
2850.00,0.0093
2849.00,0.0094
2848.00,0.0096
2847.00,0.0098
2846.00,0.0099
2845.00,0.0101
2844.00,0.0103
2843.00,0.0104
2842.00,0.0106
2841.00,0.0107
2840.00,0.0107
2839.00,0.0107
2838.00,0.0107
2837.00,0.0105
2836.00,0.0102
2835.00,0.0099
2834.00,0.0097
2833.00,0.0095
2832.00,0.0093
2831.00,0.0092
2830.00,0.0091
2829.00,0.0091
2828.00,0.0091
2827.00,0.0091
2826.00,0.0091
2825.00,0.0092
2824.00,0.0092
2823.00,0.0093
2822.00,0.0094
2821.00,0.0094
2820.00,0.0095
2819.00,0.0095
2818.00,0.0095
2817.00,0.0096
2816.00,0.0096
2815.00,0.0096
2814.00,0.0097
2813.00,0.0097
2812.00,0.0097
2811.00,0.0097
2810.00,0.0097
2809.00,0.0097
2808.00,0.0097
2807.00,0.0097
2806.00,0.0097
2805.00,0.0097
2804.00,0.0096
2803.00,0.0096
2802.00,0.0095
2801.00,0.0094
2800.00,0.0094
2799.00,0.0093
2798.00,0.0093
2797.00,0.0092
2796.00,0.0092
2795.00,0.0091
2794.00,0.0091
2793.00,0.0090
2792.00,0.0090
2791.00,0.0089
2790.00,0.0089
2789.00,0.0088
2788.00,0.0088
2787.00,0.0088
2786.00,0.0087
2785.00,0.0087
2784.00,0.0086
2783.00,0.0086
2782.00,0.0086
2781.00,0.0085
2780.00,0.0085
2779.00,0.0084
2778.00,0.0084
2777.00,0.0083
2776.00,0.0083
2775.00,0.0083
2774.00,0.0083
2773.00,0.0083
2772.00,0.0082
2771.00,0.0082
2770.00,0.0082
2769.00,0.0082
2768.00,0.0082
2767.00,0.0081
2766.00,0.0081
2765.00,0.0081
2764.00,0.0081
2763.00,0.0081
2762.00,0.0081
2761.00,0.0081
2760.00,0.0080
2759.00,0.0080
2758.00,0.0080
2757.00,0.0080
2756.00,0.0080
2755.00,0.0080
2754.00,0.0080
2753.00,0.0080
2752.00,0.0080
2751.00,0.0080
2750.00,0.0079
2749.00,0.0079
2748.00,0.0079
2747.00,0.0079
2746.00,0.0079
2745.00,0.0079
2744.00,0.0079
2743.00,0.0079
2742.00,0.0079
2741.00,0.0078
2740.00,0.0078
2739.00,0.0078
2738.00,0.0077
2737.00,0.0077
2736.00,0.0077
2735.00,0.0077
2734.00,0.0077
2733.00,0.0076
2732.00,0.0076
2731.00,0.0076
2730.00,0.0076
2729.00,0.0075
2728.00,0.0075
2727.00,0.0075
2726.00,0.0075
2725.00,0.0075
2724.00,0.0075
2723.00,0.0075
2722.00,0.0075
2721.00,0.0075
2720.00,0.0075
2719.00,0.0075
2718.00,0.0076
2717.00,0.0076
2716.00,0.0076
2715.00,0.0076
2714.00,0.0076
2713.00,0.0076
2712.00,0.0076
2711.00,0.0076
2710.00,0.0076
2709.00,0.0077
2708.00,0.0077
2707.00,0.0077
2706.00,0.0077
2705.00,0.0077
2704.00,0.0077
2703.00,0.0077
2702.00,0.0077
2701.00,0.0077
2700.00,0.0077
2699.00,0.0077
2698.00,0.0077
2697.00,0.0077
2696.00,0.0077
2695.00,0.0077
2694.00,0.0077
2693.00,0.0077
2692.00,0.0077
2691.00,0.0077
2690.00,0.0077
2689.00,0.0077
2688.00,0.0077
2687.00,0.0077
2686.00,0.0077
2685.00,0.0077
2684.00,0.0076
2683.00,0.0077
2682.00,0.0077
2681.00,0.0077
2680.00,0.0077
2679.00,0.0076
2678.00,0.0076
2677.00,0.0076
2676.00,0.0076
2675.00,0.0076
2674.00,0.0076
2673.00,0.0076
2672.00,0.0075
2671.00,0.0075
2670.00,0.0075
2669.00,0.0075
2668.00,0.0075
2667.00,0.0075
2666.00,0.0076
2665.00,0.0076
2664.00,0.0076
2663.00,0.0076
2662.00,0.0077
2661.00,0.0077
2660.00,0.0077
2659.00,0.0078
2658.00,0.0078
2657.00,0.0078
2656.00,0.0079
2655.00,0.0079
2654.00,0.0079
2653.00,0.0079
2652.00,0.0079
2651.00,0.0079
2650.00,0.0079
2649.00,0.0079
2648.00,0.0080
2647.00,0.0080
2646.00,0.0080
2645.00,0.0080
2644.00,0.0080
2643.00,0.0080
2642.00,0.0079
2641.00,0.0079
2640.00,0.0079
2639.00,0.0079
2638.00,0.0079
2637.00,0.0078
2636.00,0.0078
2635.00,0.0078
2634.00,0.0078
2633.00,0.0078
2632.00,0.0078
2631.00,0.0078
2630.00,0.0078
2629.00,0.0078
2628.00,0.0078
2627.00,0.0078
2626.00,0.0078
2625.00,0.0078
2624.00,0.0079
2623.00,0.0079
2622.00,0.0079
2621.00,0.0079
2620.00,0.0080
2619.00,0.0080
2618.00,0.0080
2617.00,0.0080
2616.00,0.0080
2615.00,0.0080
2614.00,0.0080
2613.00,0.0080
2612.00,0.0080
2611.00,0.0079
2610.00,0.0079
2609.00,0.0079
2608.00,0.0079
2607.00,0.0080
2606.00,0.0080
2605.00,0.0080
2604.00,0.0080
2603.00,0.0080
2602.00,0.0080
2601.00,0.0079
2600.00,0.0079
2599.00,0.0079
2598.00,0.0079
2597.00,0.0079
2596.00,0.0079
2595.00,0.0079
2594.00,0.0079
2593.00,0.0079
2592.00,0.0079
2591.00,0.0078
2590.00,0.0078
2589.00,0.0078
2588.00,0.0078
2587.00,0.0077
2586.00,0.0077
2585.00,0.0077
2584.00,0.0076
2583.00,0.0076
2582.00,0.0076
2581.00,0.0076
2580.00,0.0076
2579.00,0.0076
2578.00,0.0075
2577.00,0.0075
2576.00,0.0075
2575.00,0.0075
2574.00,0.0075
2573.00,0.0075
2572.00,0.0075
2571.00,0.0075
2570.00,0.0074
2569.00,0.0074
2568.00,0.0074
2567.00,0.0074
2566.00,0.0074
2565.00,0.0074
2564.00,0.0074
2563.00,0.0074
2562.00,0.0073
2561.00,0.0073
2560.00,0.0073
2559.00,0.0073
2558.00,0.0073
2557.00,0.0073
2556.00,0.0072
2555.00,0.0072
2554.00,0.0071
2553.00,0.0071
2552.00,0.0072
2551.00,0.0072
2550.00,0.0072
2549.00,0.0072
2548.00,0.0072
2547.00,0.0072
2546.00,0.0072
2545.00,0.0071
2544.00,0.0071
2543.00,0.0071
2542.00,0.0072
2541.00,0.0072
2540.00,0.0072
2539.00,0.0072
2538.00,0.0072
2537.00,0.0072
2536.00,0.0072
2535.00,0.0072
2534.00,0.0072
2533.00,0.0072
2532.00,0.0072
2531.00,0.0073
2530.00,0.0072
2529.00,0.0072
2528.00,0.0072
2527.00,0.0072
2526.00,0.0072
2525.00,0.0072
2524.00,0.0073
2523.00,0.0073
2522.00,0.0073
2521.00,0.0073
2520.00,0.0073
2519.00,0.0073
2518.00,0.0073
2517.00,0.0073
2516.00,0.0073
2515.00,0.0073
2514.00,0.0073
2513.00,0.0073
2512.00,0.0073
2511.00,0.0073
2510.00,0.0073
2509.00,0.0073
2508.00,0.0073
2507.00,0.0073
2506.00,0.0073
2505.00,0.0073
2504.00,0.0073
2503.00,0.0073
2502.00,0.0073
2501.00,0.0073
2500.00,0.0073
2499.00,0.0073
2498.00,0.0074
2497.00,0.0074
2496.00,0.0074
2495.00,0.0074
2494.00,0.0074
2493.00,0.0075
2492.00,0.0075
2491.00,0.0076
2490.00,0.0076
2489.00,0.0076
2488.00,0.0076
2487.00,0.0076
2486.00,0.0076
2485.00,0.0076
2484.00,0.0076
2483.00,0.0076
2482.00,0.0076
2481.00,0.0075
2480.00,0.0075
2479.00,0.0075
2478.00,0.0074
2477.00,0.0074
2476.00,0.0073
2475.00,0.0073
2474.00,0.0074
2473.00,0.0074
2472.00,0.0074
2471.00,0.0073
2470.00,0.0073
2469.00,0.0073
2468.00,0.0073
2467.00,0.0073
2466.00,0.0073
2465.00,0.0073
2464.00,0.0073
2463.00,0.0073
2462.00,0.0072
2461.00,0.0072
2460.00,0.0073
2459.00,0.0073
2458.00,0.0073
2457.00,0.0073
2456.00,0.0073
2455.00,0.0073
2454.00,0.0073
2453.00,0.0073
2452.00,0.0073
2451.00,0.0072
2450.00,0.0072
2449.00,0.0072
2448.00,0.0072
2447.00,0.0072
2446.00,0.0072
2445.00,0.0072
2444.00,0.0072
2443.00,0.0071
2442.00,0.0070
2441.00,0.0070
2440.00,0.0070
2439.00,0.0071
2438.00,0.0071
2437.00,0.0071
2436.00,0.0071
2435.00,0.0071
2434.00,0.0071
2433.00,0.0071
2432.00,0.0071
2431.00,0.0070
2430.00,0.0070
2429.00,0.0071
2428.00,0.0071
2427.00,0.0071
2426.00,0.0071
2425.00,0.0071
2424.00,0.0071
2423.00,0.0070
2422.00,0.0071
2421.00,0.0071
2420.00,0.0071
2419.00,0.0071
2418.00,0.0071
2417.00,0.0071
2416.00,0.0071
2415.00,0.0071
2414.00,0.0071
2413.00,0.0072
2412.00,0.0072
2411.00,0.0072
2410.00,0.0071
2409.00,0.0070
2408.00,0.0070
2407.00,0.0070
2406.00,0.0070
2405.00,0.0070
2404.00,0.0070
2403.00,0.0069
2402.00,0.0069
2401.00,0.0069
2400.00,0.0069
2399.00,0.0069
2398.00,0.0069
2397.00,0.0069
2396.00,0.0069
2395.00,0.0069
2394.00,0.0069
2393.00,0.0069
2392.00,0.0069
2391.00,0.0069
2390.00,0.0069
2389.00,0.0069
2388.00,0.0069
2387.00,0.0069
2386.00,0.0069
2385.00,0.0069
2384.00,0.0069
2383.00,0.0069
2382.00,0.0068
2381.00,0.0068
2380.00,0.0068
2379.00,0.0069
2378.00,0.0069
2377.00,0.0070
2376.00,0.0070
2375.00,0.0071
2374.00,0.0070
2373.00,0.0070
2372.00,0.0070
2371.00,0.0069
2370.00,0.0068
2369.00,0.0067
2368.00,0.0067
2367.00,0.0067
2366.00,0.0067
2365.00,0.0067
2364.00,0.0067
2363.00,0.0067
2362.00,0.0067
2361.00,0.0067
2360.00,0.0067
2359.00,0.0067
2358.00,0.0067
2357.00,0.0067
2356.00,0.0068
2355.00,0.0069
2354.00,0.0069
2353.00,0.0069
2352.00,0.0069
2351.00,0.0069
2350.00,0.0069
2349.00,0.0070
2348.00,0.0070
2347.00,0.0071
2346.00,0.0071
2345.00,0.0071
2344.00,0.0070
2343.00,0.0069
2342.00,0.0069
2341.00,0.0070
2340.00,0.0071
2339.00,0.0073
2338.00,0.0073
2337.00,0.0074
2336.00,0.0073
2335.00,0.0073
2334.00,0.0074
2333.00,0.0074
2332.00,0.0074
2331.00,0.0074
2330.00,0.0074
2329.00,0.0075
2328.00,0.0078
2327.00,0.0081
2326.00,0.0083
2325.00,0.0084
2324.00,0.0083
2323.00,0.0081
2322.00,0.0080
2321.00,0.0079
2320.00,0.0078
2319.00,0.0078
2318.00,0.0077
2317.00,0.0076
2316.00,0.0075
2315.00,0.0075
2314.00,0.0074
2313.00,0.0073
2312.00,0.0072
2311.00,0.0072
2310.00,0.0071
2309.00,0.0071
2308.00,0.0071
2307.00,0.0071
2306.00,0.0072
2305.00,0.0072
2304.00,0.0073
2303.00,0.0073
2302.00,0.0073
2301.00,0.0073
2300.00,0.0073
2299.00,0.0073
2298.00,0.0073
2297.00,0.0074
2296.00,0.0075
2295.00,0.0076
2294.00,0.0077
2293.00,0.0077
2292.00,0.0078
2291.00,0.0078
2290.00,0.0079
2289.00,0.0079
2288.00,0.0080
2287.00,0.0080
2286.00,0.0080
2285.00,0.0080
2284.00,0.0079
2283.00,0.0079
2282.00,0.0078
2281.00,0.0077
2280.00,0.0077
2279.00,0.0077
2278.00,0.0077
2277.00,0.0077
2276.00,0.0077
2275.00,0.0076
2274.00,0.0076
2273.00,0.0075
2272.00,0.0075
2271.00,0.0075
2270.00,0.0075
2269.00,0.0075
2268.00,0.0075
2267.00,0.0074
2266.00,0.0073
2265.00,0.0073
2264.00,0.0073
2263.00,0.0073
2262.00,0.0073
2261.00,0.0073
2260.00,0.0073
2259.00,0.0073
2258.00,0.0072
2257.00,0.0072
2256.00,0.0071
2255.00,0.0070
2254.00,0.0069
2253.00,0.0069
2252.00,0.0070
2251.00,0.0070
2250.00,0.0071
2249.00,0.0071
2248.00,0.0071
2247.00,0.0071
2246.00,0.0071
2245.00,0.0070
2244.00,0.0071
2243.00,0.0070
2242.00,0.0070
2241.00,0.0070
2240.00,0.0070
2239.00,0.0069
2238.00,0.0069
2237.00,0.0069
2236.00,0.0069
2235.00,0.0068
2234.00,0.0068
2233.00,0.0067
2232.00,0.0067
2231.00,0.0067
2230.00,0.0066
2229.00,0.0066
2228.00,0.0066
2227.00,0.0065
2226.00,0.0064
2225.00,0.0064
2224.00,0.0065
2223.00,0.0065
2222.00,0.0065
2221.00,0.0065
2220.00,0.0065
2219.00,0.0064
2218.00,0.0064
2217.00,0.0064
2216.00,0.0065
2215.00,0.0066
2214.00,0.0066
2213.00,0.0066
2212.00,0.0066
2211.00,0.0065
2210.00,0.0064
2209.00,0.0065
2208.00,0.0065
2207.00,0.0065
2206.00,0.0064
2205.00,0.0064
2204.00,0.0064
2203.00,0.0064
2202.00,0.0063
2201.00,0.0064
2200.00,0.0064
2199.00,0.0063
2198.00,0.0062
2197.00,0.0061
2196.00,0.0060
2195.00,0.0060
2194.00,0.0060
2193.00,0.0061
2192.00,0.0062
2191.00,0.0062
2190.00,0.0062
2189.00,0.0062
2188.00,0.0063
2187.00,0.0063
2186.00,0.0062
2185.00,0.0061
2184.00,0.0059
2183.00,0.0056
2182.00,0.0055
2181.00,0.0055
2180.00,0.0057
2179.00,0.0059
2178.00,0.0059
2177.00,0.0060
2176.00,0.0060
2175.00,0.0059
2174.00,0.0060
2173.00,0.0062
2172.00,0.0066
2171.00,0.0069
2170.00,0.0071
2169.00,0.0072
2168.00,0.0073
2167.00,0.0072
2166.00,0.0072
2165.00,0.0074
2164.00,0.0077
2163.00,0.0076
2162.00,0.0071
2161.00,0.0061
2160.00,0.0049
2159.00,0.0037
2158.00,0.0032
2157.00,0.0032
2156.00,0.0037
2155.00,0.0042
2154.00,0.0045
2153.00,0.0048
2152.00,0.0050
2151.00,0.0050
2150.00,0.0050
2149.00,0.0050
2148.00,0.0051
2147.00,0.0051
2146.00,0.0051
2145.00,0.0052
2144.00,0.0053
2143.00,0.0053
2142.00,0.0054
2141.00,0.0054
2140.00,0.0055
2139.00,0.0054
2138.00,0.0053
2137.00,0.0051
2136.00,0.0050
2135.00,0.0048
2134.00,0.0048
2133.00,0.0049
2132.00,0.0051
2131.00,0.0054
2130.00,0.0056
2129.00,0.0057
2128.00,0.0059
2127.00,0.0059
2126.00,0.0059
2125.00,0.0059
2124.00,0.0059
2123.00,0.0060
2122.00,0.0060
2121.00,0.0060
2120.00,0.0062
2119.00,0.0063
2118.00,0.0064
2117.00,0.0065
2116.00,0.0066
2115.00,0.0066
2114.00,0.0065
2113.00,0.0065
2112.00,0.0065
2111.00,0.0065
2110.00,0.0064
2109.00,0.0064
2108.00,0.0065
2107.00,0.0064
2106.00,0.0064
2105.00,0.0064
2104.00,0.0065
2103.00,0.0065
2102.00,0.0065
2101.00,0.0066
2100.00,0.0066
2099.00,0.0066
2098.00,0.0064
2097.00,0.0063
2096.00,0.0062
2095.00,0.0062
2094.00,0.0062
2093.00,0.0064
2092.00,0.0065
2091.00,0.0066
2090.00,0.0067
2089.00,0.0068
2088.00,0.0069
2087.00,0.0069
2086.00,0.0068
2085.00,0.0068
2084.00,0.0067
2083.00,0.0067
2082.00,0.0067
2081.00,0.0068
2080.00,0.0069
2079.00,0.0070
2078.00,0.0069
2077.00,0.0068
2076.00,0.0068
2075.00,0.0067
2074.00,0.0066
2073.00,0.0067
2072.00,0.0067
2071.00,0.0067
2070.00,0.0067
2069.00,0.0066
2068.00,0.0067
2067.00,0.0066
2066.00,0.0065
2065.00,0.0065
2064.00,0.0064
2063.00,0.0063
2062.00,0.0062
2061.00,0.0062
2060.00,0.0063
2059.00,0.0062
2058.00,0.0062
2057.00,0.0062
2056.00,0.0062
2055.00,0.0062
2054.00,0.0063
2053.00,0.0065
2052.00,0.0066
2051.00,0.0065
2050.00,0.0062
2049.00,0.0059
2048.00,0.0057
2047.00,0.0056
2046.00,0.0054
2045.00,0.0053
2044.00,0.0052
2043.00,0.0052
2042.00,0.0051
2041.00,0.0050
2040.00,0.0050
2039.00,0.0051
2038.00,0.0050
2037.00,0.0050
2036.00,0.0048
2035.00,0.0045
2034.00,0.0043
2033.00,0.0042
2032.00,0.0044
2031.00,0.0046
2030.00,0.0047
2029.00,0.0049
2028.00,0.0050
2027.00,0.0049
2026.00,0.0048
2025.00,0.0048
2024.00,0.0049
2023.00,0.0048
2022.00,0.0047
2021.00,0.0048
2020.00,0.0050
2019.00,0.0051
2018.00,0.0052
2017.00,0.0053
2016.00,0.0054
2015.00,0.0053
2014.00,0.0052
2013.00,0.0053
2012.00,0.0054
2011.00,0.0055
2010.00,0.0053
2009.00,0.0052
2008.00,0.0051
2007.00,0.0049
2006.00,0.0048
2005.00,0.0049
2004.00,0.0050
2003.00,0.0052
2002.00,0.0053
2001.00,0.0056
2000.00,0.0059
1999.00,0.0060
1998.00,0.0060
1997.00,0.0060
1996.00,0.0060
1995.00,0.0059
1994.00,0.0059
1993.00,0.0059
1992.00,0.0060
1991.00,0.0060
1990.00,0.0061
1989.00,0.0063
1988.00,0.0063
1987.00,0.0062
1986.00,0.0061
1985.00,0.0062
1984.00,0.0064
1983.00,0.0067
1982.00,0.0068
1981.00,0.0068
1980.00,0.0066
1979.00,0.0060
1978.00,0.0053
1977.00,0.0050
1976.00,0.0050
1975.00,0.0050
1974.00,0.0050
1973.00,0.0050
1972.00,0.0050
1971.00,0.0049
1970.00,0.0049
1969.00,0.0050
1968.00,0.0053
1967.00,0.0053
1966.00,0.0052
1965.00,0.0051
1964.00,0.0051
1963.00,0.0050
1962.00,0.0050
1961.00,0.0050
1960.00,0.0050
1959.00,0.0050
1958.00,0.0051
1957.00,0.0053
1956.00,0.0055
1955.00,0.0055
1954.00,0.0054
1953.00,0.0053
1952.00,0.0054
1951.00,0.0054
1950.00,0.0053
1949.00,0.0054
1948.00,0.0054
1947.00,0.0053
1946.00,0.0052
1945.00,0.0053
1944.00,0.0054
1943.00,0.0055
1942.00,0.0055
1941.00,0.0055
1940.00,0.0056
1939.00,0.0057
1938.00,0.0057
1937.00,0.0057
1936.00,0.0058
1935.00,0.0057
1934.00,0.0057
1933.00,0.0057
1932.00,0.0057
1931.00,0.0057
1930.00,0.0056
1929.00,0.0057
1928.00,0.0058
1927.00,0.0058
1926.00,0.0058
1925.00,0.0059
1924.00,0.0060
1923.00,0.0060
1922.00,0.0060
1921.00,0.0060
1920.00,0.0062
1919.00,0.0062
1918.00,0.0061
1917.00,0.0061
1916.00,0.0061
1915.00,0.0061
1914.00,0.0061
1913.00,0.0062
1912.00,0.0062
1911.00,0.0063
1910.00,0.0063
1909.00,0.0065
1908.00,0.0066
1907.00,0.0066
1906.00,0.0066
1905.00,0.0066
1904.00,0.0067
1903.00,0.0067
1902.00,0.0066
1901.00,0.0066
1900.00,0.0066
1899.00,0.0065
1898.00,0.0064
1897.00,0.0063
1896.00,0.0063
1895.00,0.0062
1894.00,0.0061
1893.00,0.0060
1892.00,0.0061
1891.00,0.0060
1890.00,0.0059
1889.00,0.0058
1888.00,0.0058
1887.00,0.0057
1886.00,0.0056
1885.00,0.0056
1884.00,0.0056
1883.00,0.0057
1882.00,0.0057
1881.00,0.0057
1880.00,0.0058
1879.00,0.0057
1878.00,0.0057
1877.00,0.0057
1876.00,0.0057
1875.00,0.0057
1874.00,0.0057
1873.00,0.0057
1872.00,0.0058
1871.00,0.0058
1870.00,0.0057
1869.00,0.0056
1868.00,0.0056
1867.00,0.0056
1866.00,0.0055
1865.00,0.0056
1864.00,0.0056
1863.00,0.0056
1862.00,0.0056
1861.00,0.0056
1860.00,0.0056
1859.00,0.0056
1858.00,0.0056
1857.00,0.0056
1856.00,0.0056
1855.00,0.0056
1854.00,0.0056
1853.00,0.0056
1852.00,0.0056
1851.00,0.0056
1850.00,0.0056
1849.00,0.0056
1848.00,0.0057
1847.00,0.0057
1846.00,0.0057
1845.00,0.0057
1844.00,0.0056
1843.00,0.0054
1842.00,0.0053
1841.00,0.0053
1840.00,0.0054
1839.00,0.0054
1838.00,0.0054
1837.00,0.0054
1836.00,0.0055
1835.00,0.0055
1834.00,0.0055
1833.00,0.0057
1832.00,0.0058
1831.00,0.0058
1830.00,0.0057
1829.00,0.0056
1828.00,0.0057
1827.00,0.0058
1826.00,0.0059
1825.00,0.0059
1824.00,0.0059
1823.00,0.0058
1822.00,0.0058
1821.00,0.0057
1820.00,0.0057
1819.00,0.0056
1818.00,0.0054
1817.00,0.0053
1816.00,0.0053
1815.00,0.0053
1814.00,0.0053
1813.00,0.0053
1812.00,0.0054
1811.00,0.0054
1810.00,0.0053
1809.00,0.0053
1808.00,0.0054
1807.00,0.0054
1806.00,0.0054
1805.00,0.0055
1804.00,0.0056
1803.00,0.0057
1802.00,0.0057
1801.00,0.0057
1800.00,0.0056
1799.00,0.0056
1798.00,0.0055
1797.00,0.0056
1796.00,0.0057
1795.00,0.0058
1794.00,0.0059
1793.00,0.0059
1792.00,0.0059
1791.00,0.0058
1790.00,0.0056
1789.00,0.0057
1788.00,0.0058
1787.00,0.0058
1786.00,0.0058
1785.00,0.0058
1784.00,0.0058
1783.00,0.0057
1782.00,0.0057
1781.00,0.0057
1780.00,0.0057
1779.00,0.0057
1778.00,0.0057
1777.00,0.0058
1776.00,0.0059
1775.00,0.0060
1774.00,0.0060
1773.00,0.0060
1772.00,0.0060
1771.00,0.0060
1770.00,0.0061
1769.00,0.0062
1768.00,0.0063
1767.00,0.0062
1766.00,0.0061
1765.00,0.0062
1764.00,0.0065
1763.00,0.0065
1762.00,0.0064
1761.00,0.0064
1760.00,0.0065
1759.00,0.0066
1758.00,0.0066
1757.00,0.0066
1756.00,0.0066
1755.00,0.0067
1754.00,0.0067
1753.00,0.0069
1752.00,0.0071
1751.00,0.0072
1750.00,0.0071
1749.00,0.0072
1748.00,0.0074
1747.00,0.0076
1746.00,0.0077
1745.00,0.0080
1744.00,0.0084
1743.00,0.0087
1742.00,0.0089
1741.00,0.0092
1740.00,0.0096
1739.00,0.0099
1738.00,0.0102
1737.00,0.0106
1736.00,0.0111
1735.00,0.0114
1734.00,0.0115
1733.00,0.0118
1732.00,0.0121
1731.00,0.0123
1730.00,0.0123
1729.00,0.0124
1728.00,0.0125
1727.00,0.0125
1726.00,0.0125
1725.00,0.0126
1724.00,0.0128
1723.00,0.0130
1722.00,0.0133
1721.00,0.0138
1720.00,0.0146
1719.00,0.0156
1718.00,0.0168
1717.00,0.0186
1716.00,0.0209
1715.00,0.0230
1714.00,0.0252
1713.00,0.0278
1712.00,0.0310
1711.00,0.0349
1710.00,0.0397
1709.00,0.0457
1708.00,0.0529
1707.00,0.0616
1706.00,0.0718
1705.00,0.0819
1704.00,0.0893
1703.00,0.0935
1702.00,0.0960
1701.00,0.0979
1700.00,0.0986
1699.00,0.0966
1698.00,0.0926
1697.00,0.0886
1696.00,0.0863
1695.00,0.0861
1694.00,0.0872
1693.00,0.0889
1692.00,0.0916
1691.00,0.0957
1690.00,0.1009
1689.00,0.1056
1688.00,0.1084
1687.00,0.1092
1686.00,0.1091
1685.00,0.1097
1684.00,0.1109
1683.00,0.1106
1682.00,0.1076
1681.00,0.1031
1680.00,0.0984
1679.00,0.0939
1678.00,0.0895
1677.00,0.0850
1676.00,0.0807
1675.00,0.0772
1674.00,0.0742
1673.00,0.0713
1672.00,0.0685
1671.00,0.0661
1670.00,0.0644
1669.00,0.0627
1668.00,0.0607
1667.00,0.0585
1666.00,0.0562
1665.00,0.0538
1664.00,0.0518
1663.00,0.0502
1662.00,0.0491
1661.00,0.0482
1660.00,0.0472
1659.00,0.0464
1658.00,0.0458
1657.00,0.0453
1656.00,0.0448
1655.00,0.0447
1654.00,0.0464
1653.00,0.0503
1652.00,0.0536
1651.00,0.0547
1650.00,0.0550
1649.00,0.0554
1648.00,0.0566
1647.00,0.0589
1646.00,0.0608
1645.00,0.0609
1644.00,0.0591
1643.00,0.0563
1642.00,0.0531
1641.00,0.0498
1640.00,0.0466
1639.00,0.0436
1638.00,0.0409
1637.00,0.0390
1636.00,0.0383
1635.00,0.0387
1634.00,0.0392
1633.00,0.0394
1632.00,0.0397
1631.00,0.0404
1630.00,0.0419
1629.00,0.0442
1628.00,0.0470
1627.00,0.0497
1626.00,0.0521
1625.00,0.0543
1624.00,0.0569
1623.00,0.0600
1622.00,0.0626
1621.00,0.0637
1620.00,0.0638
1619.00,0.0636
1618.00,0.0637
1617.00,0.0645
1616.00,0.0651
1615.00,0.0646
1614.00,0.0629
1613.00,0.0604
1612.00,0.0579
1611.00,0.0557
1610.00,0.0539
1609.00,0.0525
1608.00,0.0516
1607.00,0.0512
1606.00,0.0510
1605.00,0.0505
1604.00,0.0493
1603.00,0.0473
1602.00,0.0445
1601.00,0.0411
1600.00,0.0377
1599.00,0.0346
1598.00,0.0318
1597.00,0.0294
1596.00,0.0272
1595.00,0.0253
1594.00,0.0236
1593.00,0.0219
1592.00,0.0203
1591.00,0.0188
1590.00,0.0175
1589.00,0.0162
1588.00,0.0149
1587.00,0.0138
1586.00,0.0129
1585.00,0.0121
1584.00,0.0115
1583.00,0.0112
1582.00,0.0114
1581.00,0.0119
1580.00,0.0125
1579.00,0.0130
1578.00,0.0133
1577.00,0.0134
1576.00,0.0133
1575.00,0.0130
1574.00,0.0124
1573.00,0.0115
1572.00,0.0106
1571.00,0.0099
1570.00,0.0097
1569.00,0.0097
1568.00,0.0096
1567.00,0.0094
1566.00,0.0093
1565.00,0.0092
1564.00,0.0092
1563.00,0.0092
1562.00,0.0092
1561.00,0.0092
1560.00,0.0091
1559.00,0.0099
1558.00,0.0110
1557.00,0.0115
1556.00,0.0114
1555.00,0.0114
1554.00,0.0115
1553.00,0.0117
1552.00,0.0119
1551.00,0.0121
1550.00,0.0126
1549.00,0.0131
1548.00,0.0136
1547.00,0.0142
1546.00,0.0150
1545.00,0.0161
1544.00,0.0171
1543.00,0.0182
1542.00,0.0197
1541.00,0.0222
1540.00,0.0260
1539.00,0.0303
1538.00,0.0340
1537.00,0.0369
1536.00,0.0398
1535.00,0.0442
1534.00,0.0510
1533.00,0.0597
1532.00,0.0683
1531.00,0.0760
1530.00,0.0838
1529.00,0.0922
1528.00,0.1007
1527.00,0.1084
1526.00,0.1137
1525.00,0.1153
1524.00,0.1130
1523.00,0.1079
1522.00,0.1008
1521.00,0.0930
1520.00,0.0857
1519.00,0.0793
1518.00,0.0737
1517.00,0.0690
1516.00,0.0656
1515.00,0.0635
1514.00,0.0622
1513.00,0.0619
1512.00,0.0626
1511.00,0.0641
1510.00,0.0658
1509.00,0.0680
1508.00,0.0723
1507.00,0.0799
1506.00,0.0885
1505.00,0.0941
1504.00,0.0968
1503.00,0.0986
1502.00,0.1009
1501.00,0.1039
1500.00,0.1075
1499.00,0.1114
1498.00,0.1155
1497.00,0.1195
1496.00,0.1225
1495.00,0.1236
1494.00,0.1227
1493.00,0.1206
1492.00,0.1181
1491.00,0.1160
1490.00,0.1145
1489.00,0.1126
1488.00,0.1099
1487.00,0.1066
1486.00,0.1030
1485.00,0.0992
1484.00,0.0952
1483.00,0.0912
1482.00,0.0876
1481.00,0.0843
1480.00,0.0811
1479.00,0.0782
1478.00,0.0757
1477.00,0.0737
1476.00,0.0720
1475.00,0.0703
1474.00,0.0687
1473.00,0.0672
1472.00,0.0655
1471.00,0.0635
1470.00,0.0613
1469.00,0.0591
1468.00,0.0571
1467.00,0.0555
1466.00,0.0544
1465.00,0.0536
1464.00,0.0529
1463.00,0.0519
1462.00,0.0506
1461.00,0.0491
1460.00,0.0478
1459.00,0.0467
1458.00,0.0463
1457.00,0.0465
1456.00,0.0467
1455.00,0.0463
1454.00,0.0455
1453.00,0.0448
1452.00,0.0445
1451.00,0.0445
1450.00,0.0449
1449.00,0.0458
1448.00,0.0473
1447.00,0.0491
1446.00,0.0507
1445.00,0.0522
1444.00,0.0536
1443.00,0.0550
1442.00,0.0565
1441.00,0.0578
1440.00,0.0589
1439.00,0.0605
1438.00,0.0640
1437.00,0.0708
1436.00,0.0801
1435.00,0.0892
1434.00,0.0968
1433.00,0.1034
1432.00,0.1092
1431.00,0.1136
1430.00,0.1158
1429.00,0.1150
1428.00,0.1112
1427.00,0.1051
1426.00,0.0979
1425.00,0.0907
1424.00,0.0840
1423.00,0.0780
1422.00,0.0726
1421.00,0.0678
1420.00,0.0635
1419.00,0.0597
1418.00,0.0563
1417.00,0.0530
1416.00,0.0499
1415.00,0.0469
1414.00,0.0443
1413.00,0.0419
1412.00,0.0398
1411.00,0.0380
1410.00,0.0364
1409.00,0.0349
1408.00,0.0335
1407.00,0.0323
1406.00,0.0313
1405.00,0.0304
1404.00,0.0296
1403.00,0.0288
1402.00,0.0282
1401.00,0.0276
1400.00,0.0272
1399.00,0.0271
1398.00,0.0272
1397.00,0.0273
1396.00,0.0277
1395.00,0.0286
1394.00,0.0297
1393.00,0.0309
1392.00,0.0320
1391.00,0.0334
1390.00,0.0351
1389.00,0.0372
1388.00,0.0398
1387.00,0.0427
1386.00,0.0452
1385.00,0.0471
1384.00,0.0484
1383.00,0.0494
1382.00,0.0501
1381.00,0.0506
1380.00,0.0512
1379.00,0.0517
1378.00,0.0518
1377.00,0.0511
1376.00,0.0494
1375.00,0.0468
1374.00,0.0434
1373.00,0.0399
1372.00,0.0367
1371.00,0.0341
1370.00,0.0322
1369.00,0.0308
1368.00,0.0299
1367.00,0.0296
1366.00,0.0297
1365.00,0.0302
1364.00,0.0311
1363.00,0.0326
1362.00,0.0342
1361.00,0.0360
1360.00,0.0376
1359.00,0.0394
1358.00,0.0413
1357.00,0.0434
1356.00,0.0458
1355.00,0.0487
1354.00,0.0522
1353.00,0.0565
1352.00,0.0615
1351.00,0.0674
1350.00,0.0739
1349.00,0.0803
1348.00,0.0859
1347.00,0.0903
1346.00,0.0930
1345.00,0.0942
1344.00,0.0940
1343.00,0.0926
1342.00,0.0901
1341.00,0.0863
1340.00,0.0813
1339.00,0.0756
1338.00,0.0697
1337.00,0.0643
1336.00,0.0601
1335.00,0.0573
1334.00,0.0565
1333.00,0.0576
1332.00,0.0605
1331.00,0.0643
1330.00,0.0677
1329.00,0.0693
1328.00,0.0684
1327.00,0.0654
1326.00,0.0614
1325.00,0.0575
1324.00,0.0544
1323.00,0.0525
1322.00,0.0515
1321.00,0.0511
1320.00,0.0512
1319.00,0.0517
1318.00,0.0526
1317.00,0.0540
1316.00,0.0559
1315.00,0.0584
1314.00,0.0615
1313.00,0.0653
1312.00,0.0699
1311.00,0.0752
1310.00,0.0806
1309.00,0.0854
1308.00,0.0889
1307.00,0.0905
1306.00,0.0902
1305.00,0.0883
1304.00,0.0855
1303.00,0.0821
1302.00,0.0783
1301.00,0.0744
1300.00,0.0705
1299.00,0.0669
1298.00,0.0640
1297.00,0.0617
1296.00,0.0603
1295.00,0.0599
1294.00,0.0604
1293.00,0.0620
1292.00,0.0649
1291.00,0.0690
1290.00,0.0744
1289.00,0.0807
1288.00,0.0875
1287.00,0.0943
1286.00,0.1005
1285.00,0.1055
1284.00,0.1093
1283.00,0.1117
1282.00,0.1127
1281.00,0.1123
1280.00,0.1107
1279.00,0.1081
1278.00,0.1048
1277.00,0.1010
1276.00,0.0970
1275.00,0.0929
1274.00,0.0888
1273.00,0.0848
1272.00,0.0810
1271.00,0.0775
1270.00,0.0741
1269.00,0.0708
1268.00,0.0677
1267.00,0.0647
1266.00,0.0617
1265.00,0.0589
1264.00,0.0562
1263.00,0.0536
1262.00,0.0513
1261.00,0.0491
1260.00,0.0471
1259.00,0.0454
1258.00,0.0438
1257.00,0.0424
1256.00,0.0412
1255.00,0.0401
1254.00,0.0391
1253.00,0.0383
1252.00,0.0378
1251.00,0.0376
1250.00,0.0377
1249.00,0.0380
1248.00,0.0386
1247.00,0.0393
1246.00,0.0401
1245.00,0.0412
1244.00,0.0425
1243.00,0.0441
1242.00,0.0460
1241.00,0.0482
1240.00,0.0506
1239.00,0.0531
1238.00,0.0556
1237.00,0.0579
1236.00,0.0598
1235.00,0.0611
1234.00,0.0618
1233.00,0.0621
1232.00,0.0622
1231.00,0.0624
1230.00,0.0630
1229.00,0.0639
1228.00,0.0651
1227.00,0.0666
1226.00,0.0683
1225.00,0.0701
1224.00,0.0718
1223.00,0.0736
1222.00,0.0754
1221.00,0.0773
1220.00,0.0792
1219.00,0.0812
1218.00,0.0835
1217.00,0.0861
1216.00,0.0891
1215.00,0.0926
1214.00,0.0967
1213.00,0.1015
1212.00,0.1070
1211.00,0.1129
1210.00,0.1189
1209.00,0.1244
1208.00,0.1291
1207.00,0.1322
1206.00,0.1336
1205.00,0.1332
1204.00,0.1311
1203.00,0.1273
1202.00,0.1223
1201.00,0.1164
1200.00,0.1101
1199.00,0.1040
1198.00,0.0984
1197.00,0.0939
1196.00,0.0908
1195.00,0.0894
1194.00,0.0897
1193.00,0.0918
1192.00,0.0955
1191.00,0.1004
1190.00,0.1058
1189.00,0.1112
1188.00,0.1159
1187.00,0.1198
1186.00,0.1227
1185.00,0.1249
1184.00,0.1260
1183.00,0.1259
1182.00,0.1243
1181.00,0.1213
1180.00,0.1173
1179.00,0.1124
1178.00,0.1068
1177.00,0.1006
1176.00,0.0939
1175.00,0.0870
1174.00,0.0803
1173.00,0.0740
1172.00,0.0684
1171.00,0.0637
1170.00,0.0601
1169.00,0.0575
1168.00,0.0559
1167.00,0.0553
1166.00,0.0553
1165.00,0.0556
1164.00,0.0558
1163.00,0.0557
1162.00,0.0549
1161.00,0.0537
1160.00,0.0522
1159.00,0.0506
1158.00,0.0490
1157.00,0.0476
1156.00,0.0463
1155.00,0.0455
1154.00,0.0451
1153.00,0.0452
1152.00,0.0455
1151.00,0.0462
1150.00,0.0472
1149.00,0.0485
1148.00,0.0505
1147.00,0.0535
1146.00,0.0576
1145.00,0.0628
1144.00,0.0685
1143.00,0.0735
1142.00,0.0765
1141.00,0.0766
1140.00,0.0743
1139.00,0.0708
1138.00,0.0679
1137.00,0.0669
1136.00,0.0683
1135.00,0.0719
1134.00,0.0765
1133.00,0.0808
1132.00,0.0835
1131.00,0.0839
1130.00,0.0825
1129.00,0.0800
1128.00,0.0777
1127.00,0.0763
1126.00,0.0763
1125.00,0.0779
1124.00,0.0810
1123.00,0.0856
1122.00,0.0915
1121.00,0.0987
1120.00,0.1072
1119.00,0.1165
1118.00,0.1257
1117.00,0.1336
1116.00,0.1390
1115.00,0.1411
1114.00,0.1398
1113.00,0.1357
1112.00,0.1298
1111.00,0.1230
1110.00,0.1163
1109.00,0.1104
1108.00,0.1057
1107.00,0.1026
1106.00,0.1013
1105.00,0.1019
1104.00,0.1042
1103.00,0.1082
1102.00,0.1133
1101.00,0.1192
1100.00,0.1253
1099.00,0.1309
1098.00,0.1352
1097.00,0.1378
1096.00,0.1384
1095.00,0.1371
1094.00,0.1343
1093.00,0.1303
1092.00,0.1256
1091.00,0.1204
1090.00,0.1148
1089.00,0.1090
1088.00,0.1033
1087.00,0.0977
1086.00,0.0924
1085.00,0.0875
1084.00,0.0830
1083.00,0.0788
1082.00,0.0751
1081.00,0.0718
1080.00,0.0688
1079.00,0.0661
1078.00,0.0637
1077.00,0.0616
1076.00,0.0597
1075.00,0.0579
1074.00,0.0565
1073.00,0.0552
1072.00,0.0542
1071.00,0.0533
1070.00,0.0525
1069.00,0.0517
1068.00,0.0509
1067.00,0.0501
1066.00,0.0497
1065.00,0.0498
1064.00,0.0507
1063.00,0.0526
1062.00,0.0555
1061.00,0.0591
1060.00,0.0629
1059.00,0.0663
1058.00,0.0688
1057.00,0.0701
1056.00,0.0705
1055.00,0.0702
1054.00,0.0695
1053.00,0.0688
1052.00,0.0682
1051.00,0.0679
1050.00,0.0677
1049.00,0.0674
1048.00,0.0667
1047.00,0.0655
1046.00,0.0638
1045.00,0.0619
1044.00,0.0600
1043.00,0.0584
1042.00,0.0569
1041.00,0.0558
1040.00,0.0549
1039.00,0.0544
1038.00,0.0542
1037.00,0.0545
1036.00,0.0552
1035.00,0.0567
1034.00,0.0590
1033.00,0.0621
1032.00,0.0663
1031.00,0.0713
1030.00,0.0769
1029.00,0.0828
1028.00,0.0884
1027.00,0.0934
1026.00,0.0974
1025.00,0.1003
1024.00,0.1020
1023.00,0.1027
1022.00,0.1024
1021.00,0.1012
1020.00,0.0992
1019.00,0.0964
1018.00,0.0930
1017.00,0.0891
1016.00,0.0850
1015.00,0.0809
1014.00,0.0768
1013.00,0.0729
1012.00,0.0693
1011.00,0.0661
1010.00,0.0631
1009.00,0.0604
1008.00,0.0580
1007.00,0.0559
1006.00,0.0539
1005.00,0.0522
1004.00,0.0506
1003.00,0.0491
1002.00,0.0477
1001.00,0.0464
1000.00,0.0451
999.00,0.0440
998.00,0.0430
997.00,0.0423
996.00,0.0417
995.00,0.0412
994.00,0.0407
993.00,0.0403
992.00,0.0399
991.00,0.0396
990.00,0.0393
989.00,0.0392
988.00,0.0391
987.00,0.0391
986.00,0.0392
985.00,0.0393
984.00,0.0394
983.00,0.0396
982.00,0.0396
981.00,0.0395
980.00,0.0392
979.00,0.0388
978.00,0.0382
977.00,0.0376
976.00,0.0369
975.00,0.0362
974.00,0.0356
973.00,0.0350
972.00,0.0345
971.00,0.0341
970.00,0.0338
969.00,0.0335
968.00,0.0334
967.00,0.0334
966.00,0.0336
965.00,0.0339
964.00,0.0343
963.00,0.0345
962.00,0.0345
961.00,0.0342
960.00,0.0339
959.00,0.0335
958.00,0.0333
957.00,0.0332
956.00,0.0333
955.00,0.0336
954.00,0.0341
953.00,0.0348
952.00,0.0354
951.00,0.0358
950.00,0.0359
949.00,0.0356
948.00,0.0350
947.00,0.0342
946.00,0.0334
945.00,0.0325
944.00,0.0316
943.00,0.0308
942.00,0.0301
941.00,0.0294
940.00,0.0288
939.00,0.0283
938.00,0.0278
937.00,0.0275
936.00,0.0271
935.00,0.0268
934.00,0.0265
933.00,0.0262
932.00,0.0259
931.00,0.0256
930.00,0.0254
929.00,0.0251
928.00,0.0249
927.00,0.0247
926.00,0.0245
925.00,0.0244
924.00,0.0242
923.00,0.0241
922.00,0.0239
921.00,0.0237
920.00,0.0234
919.00,0.0232
918.00,0.0229
917.00,0.0227
916.00,0.0225
915.00,0.0223
914.00,0.0221
913.00,0.0219
912.00,0.0219
911.00,0.0219
910.00,0.0218
909.00,0.0218
908.00,0.0217
907.00,0.0216
906.00,0.0214
905.00,0.0211
904.00,0.0209
903.00,0.0206
902.00,0.0204
901.00,0.0203
900.00,0.0202
899.00,0.0201
898.00,0.0201
897.00,0.0201
896.00,0.0200
895.00,0.0198
894.00,0.0195
893.00,0.0189
892.00,0.0181
891.00,0.0171
890.00,0.0163
889.00,0.0159
888.00,0.0157
887.00,0.0158
886.00,0.0159
885.00,0.0159
884.00,0.0159
883.00,0.0162
882.00,0.0166
881.00,0.0173
880.00,0.0178
879.00,0.0183
878.00,0.0186
877.00,0.0189
876.00,0.0193
875.00,0.0197
874.00,0.0199
873.00,0.0199
872.00,0.0197
871.00,0.0194
870.00,0.0190
869.00,0.0187
868.00,0.0186
867.00,0.0188
866.00,0.0197
865.00,0.0215
864.00,0.0247
863.00,0.0299
862.00,0.0367
861.00,0.0436
860.00,0.0486
859.00,0.0498
858.00,0.0470
857.00,0.0416
856.00,0.0355
855.00,0.0304
854.00,0.0266
853.00,0.0241
852.00,0.0227
851.00,0.0219
850.00,0.0216
849.00,0.0218
848.00,0.0227
847.00,0.0243
846.00,0.0265
845.00,0.0288
844.00,0.0308
843.00,0.0319
842.00,0.0321
841.00,0.0315
840.00,0.0310
839.00,0.0312
838.00,0.0327
837.00,0.0360
836.00,0.0413
835.00,0.0489
834.00,0.0589
833.00,0.0710
832.00,0.0832
831.00,0.0923
830.00,0.0951
829.00,0.0910
828.00,0.0823
827.00,0.0720
826.00,0.0625
825.00,0.0548
824.00,0.0489
823.00,0.0445
822.00,0.0411
821.00,0.0382
820.00,0.0358
819.00,0.0338
818.00,0.0321
817.00,0.0308
816.00,0.0297
815.00,0.0288
814.00,0.0282
813.00,0.0277
812.00,0.0274
811.00,0.0274
810.00,0.0277
809.00,0.0282
808.00,0.0289
807.00,0.0300
806.00,0.0312
805.00,0.0325
804.00,0.0332
803.00,0.0333
802.00,0.0324
801.00,0.0309
800.00,0.0291
799.00,0.0279
798.00,0.0277
797.00,0.0286
796.00,0.0304
795.00,0.0326
794.00,0.0346
793.00,0.0361
792.00,0.0369
791.00,0.0374
790.00,0.0380
789.00,0.0393
788.00,0.0412
787.00,0.0433
786.00,0.0454
785.00,0.0469
784.00,0.0482
783.00,0.0497
782.00,0.0524
781.00,0.0567
780.00,0.0618
779.00,0.0655
778.00,0.0658
777.00,0.0623
776.00,0.0566
775.00,0.0505
774.00,0.0452
773.00,0.0409
772.00,0.0374
771.00,0.0345
770.00,0.0323
769.00,0.0307
768.00,0.0298
767.00,0.0297
766.00,0.0303
765.00,0.0314
764.00,0.0327
763.00,0.0339
762.00,0.0352
761.00,0.0366
760.00,0.0384
759.00,0.0408
758.00,0.0440
757.00,0.0486
756.00,0.0548
755.00,0.0622
754.00,0.0694
753.00,0.0744
752.00,0.0758
751.00,0.0738
750.00,0.0703
749.00,0.0671
748.00,0.0653
747.00,0.0648
746.00,0.0647
745.00,0.0643
744.00,0.0634
743.00,0.0627
742.00,0.0627
741.00,0.0640
740.00,0.0666
739.00,0.0699
738.00,0.0725
737.00,0.0727
736.00,0.0699
735.00,0.0645
734.00,0.0580
733.00,0.0517
732.00,0.0464
731.00,0.0421
730.00,0.0388
729.00,0.0360
728.00,0.0338
727.00,0.0321
726.00,0.0308
725.00,0.0299
724.00,0.0293
723.00,0.0290
722.00,0.0293
721.00,0.0302
720.00,0.0321
719.00,0.0349
718.00,0.0389
717.00,0.0439
716.00,0.0497
715.00,0.0565
714.00,0.0648
713.00,0.0752
712.00,0.0873
711.00,0.0996
710.00,0.1090
709.00,0.1126
708.00,0.1092
707.00,0.1002
706.00,0.0884
705.00,0.0769
704.00,0.0672
703.00,0.0597
702.00,0.0540
701.00,0.0497
700.00,0.0463
699.00,0.0437
698.00,0.0418
697.00,0.0404
696.00,0.0395
695.00,0.0390
694.00,0.0390
693.00,0.0394
692.00,0.0403
691.00,0.0418
690.00,0.0441
689.00,0.0472
688.00,0.0516
687.00,0.0577
686.00,0.0655
685.00,0.0743
684.00,0.0821
683.00,0.0871
682.00,0.0883
681.00,0.0868
680.00,0.0843
679.00,0.0821
678.00,0.0800
677.00,0.0775
676.00,0.0742
675.00,0.0704
674.00,0.0664
673.00,0.0625
672.00,0.0590
671.00,0.0559
670.00,0.0533
669.00,0.0511
668.00,0.0496
667.00,0.0485
666.00,0.0474
665.00,0.0465
664.00,0.0460
663.00,0.0459
662.00,0.0461
661.00,0.0464
660.00,0.0470
659.00,0.0477
658.00,0.0485
657.00,0.0495
656.00,0.0508
655.00,0.0522
654.00,0.0538
653.00,0.0555
652.00,0.0574
651.00,0.0594
650.00,0.0614
649.00,0.0630
648.00,0.0644
647.00,0.0651
646.00,0.0651
645.00,0.0643
644.00,0.0629
643.00,0.0607
642.00,0.0579
641.00,0.0546
640.00,0.0510
639.00,0.0475
638.00,0.0442
637.00,0.0413
636.00,0.0388
635.00,0.0368
634.00,0.0353
633.00,0.0342
632.00,0.0337
631.00,0.0337
630.00,0.0342
629.00,0.0352
628.00,0.0367
627.00,0.0387
626.00,0.0411
625.00,0.0436
624.00,0.0462
623.00,0.0489
622.00,0.0517
621.00,0.0548
620.00,0.0580
619.00,0.0615
618.00,0.0650
617.00,0.0684
616.00,0.0713
615.00,0.0737
614.00,0.0754
613.00,0.0763
612.00,0.0764
611.00,0.0757
610.00,0.0743
609.00,0.0725
608.00,0.0703
607.00,0.0678
606.00,0.0653
605.00,0.0628
604.00,0.0606
603.00,0.0590
602.00,0.0582
601.00,0.0586
600.00,0.0606
599.00,0.0634
598.00,0.0660
597.00,0.0670
596.00,0.0661
595.00,0.0636
594.00,0.0605
593.00,0.0574
592.00,0.0545
591.00,0.0517
590.00,0.0492
589.00,0.0471
588.00,0.0459
587.00,0.0462
586.00,0.0481
585.00,0.0514
584.00,0.0557
583.00,0.0601
582.00,0.0637
581.00,0.0658
580.00,0.0663
579.00,0.0656
578.00,0.0641
577.00,0.0624
576.00,0.0608
575.00,0.0594
574.00,0.0581
573.00,0.0569
572.00,0.0557
571.00,0.0547
570.00,0.0538
569.00,0.0530
568.00,0.0522
567.00,0.0515
566.00,0.0509
565.00,0.0506
564.00,0.0504
563.00,0.0503
562.00,0.0500
561.00,0.0492
560.00,0.0480
559.00,0.0467
558.00,0.0452
557.00,0.0436
556.00,0.0421
555.00,0.0407
554.00,0.0394
553.00,0.0384
552.00,0.0374
551.00,0.0367
550.00,0.0362
549.00,0.0360
548.00,0.0357
547.00,0.0354
546.00,0.0350
545.00,0.0346
544.00,0.0341
543.00,0.0337
542.00,0.0334
541.00,0.0330
540.00,0.0326
539.00,0.0320
538.00,0.0315
537.00,0.0309
536.00,0.0304
535.00,0.0300
534.00,0.0298
533.00,0.0297
532.00,0.0295
531.00,0.0294
530.00,0.0292
529.00,0.0290
528.00,0.0288
527.00,0.0285
526.00,0.0283
525.00,0.0280
524.00,0.0277
523.00,0.0275
522.00,0.0276
521.00,0.0277
520.00,0.0278
519.00,0.0279
518.00,0.0278
517.00,0.0277
516.00,0.0276
515.00,0.0278
514.00,0.0283
513.00,0.0290
512.00,0.0298
511.00,0.0304
510.00,0.0309
509.00,0.0310
508.00,0.0307
507.00,0.0303
506.00,0.0297
505.00,0.0290
504.00,0.0284
503.00,0.0279
502.00,0.0274
501.00,0.0268
500.00,0.0261
499.00,0.0253
498.00,0.0247
497.00,0.0242
496.00,0.0238
495.00,0.0234
494.00,0.0231
493.00,0.0227
492.00,0.0223
491.00,0.0221
490.00,0.0220
489.00,0.0220
488.00,0.0218
487.00,0.0217
486.00,0.0216
485.00,0.0217
484.00,0.0217
483.00,0.0218
482.00,0.0219
481.00,0.0220
480.00,0.0221
479.00,0.0223
478.00,0.0227
477.00,0.0230
476.00,0.0233
475.00,0.0239
474.00,0.0247
473.00,0.0255
472.00,0.0262
471.00,0.0266
470.00,0.0269
469.00,0.0270
468.00,0.0271
467.00,0.0271
466.00,0.0270
465.00,0.0269
464.00,0.0267
463.00,0.0266
462.00,0.0264
461.00,0.0261
460.00,0.0257
459.00,0.0255
458.00,0.0254
457.00,0.0254
456.00,0.0255
455.00,0.0257
454.00,0.0262
453.00,0.0268
452.00,0.0274
451.00,0.0278
450.00,0.0280
449.00,0.0279
448.00,0.0276
447.00,0.0272
446.00,0.0268
445.00,0.0263
444.00,0.0256
443.00,0.0249
442.00,0.0243
441.00,0.0240
440.00,0.0238
439.00,0.0237
438.00,0.0235
437.00,0.0233
436.00,0.0229
435.00,0.0227
434.00,0.0225
433.00,0.0225
432.00,0.0228
431.00,0.0233
430.00,0.0238
429.00,0.0239
428.00,0.0239
427.00,0.0241
426.00,0.0244
425.00,0.0248
424.00,0.0249
423.00,0.0249
422.00,0.0249
421.00,0.0251
420.00,0.0257
419.00,0.0270
418.00,0.0289
417.00,0.0304
416.00,0.0315
415.00,0.0326
414.00,0.0342
413.00,0.0362
412.00,0.0387
411.00,0.0416
410.00,0.0445
409.00,0.0467
408.00,0.0480
407.00,0.0485
406.00,0.0485
405.00,0.0484
404.00,0.0483
403.00,0.0486
402.00,0.0492
401.00,0.0496
400.00,0.0498
