Created as New Dataset,Sample 555 By YargerLab Date Thursday, June 05 2025
cm-1,A
4000.00,0.0009
3999.00,0.0009
3998.00,0.0009
3997.00,0.0009
3996.00,0.0009
3995.00,0.0009
3994.00,0.0009
3993.00,0.0009
3992.00,0.0009
3991.00,0.0008
3990.00,0.0008
3989.00,0.0008
3988.00,0.0009
3987.00,0.0009
3986.00,0.0009
3985.00,0.0009
3984.00,0.0009
3983.00,0.0009
3982.00,0.0009
3981.00,0.0009
3980.00,0.0009
3979.00,0.0009
3978.00,0.0009
3977.00,0.0009
3976.00,0.0009
3975.00,0.0009
3974.00,0.0009
3973.00,0.0009
3972.00,0.0009
3971.00,0.0009
3970.00,0.0009
3969.00,0.0009
3968.00,0.0009
3967.00,0.0009
3966.00,0.0009
3965.00,0.0009
3964.00,0.0009
3963.00,0.0009
3962.00,0.0009
3961.00,0.0009
3960.00,0.0009
3959.00,0.0009
3958.00,0.0009
3957.00,0.0009
3956.00,0.0009
3955.00,0.0009
3954.00,0.0009
3953.00,0.0009
3952.00,0.0010
3951.00,0.0010
3950.00,0.0010
3949.00,0.0009
3948.00,0.0009
3947.00,0.0009
3946.00,0.0009
3945.00,0.0010
3944.00,0.0010
3943.00,0.0009
3942.00,0.0009
3941.00,0.0009
3940.00,0.0009
3939.00,0.0009
3938.00,0.0009
3937.00,0.0009
3936.00,0.0009
3935.00,0.0009
3934.00,0.0010
3933.00,0.0010
3932.00,0.0010
3931.00,0.0010
3930.00,0.0010
3929.00,0.0010
3928.00,0.0010
3927.00,0.0010
3926.00,0.0010
3925.00,0.0009
3924.00,0.0009
3923.00,0.0009
3922.00,0.0010
3921.00,0.0010
3920.00,0.0010
3919.00,0.0010
3918.00,0.0010
3917.00,0.0010
3916.00,0.0010
3915.00,0.0009
3914.00,0.0009
3913.00,0.0009
3912.00,0.0009
3911.00,0.0009
3910.00,0.0009
3909.00,0.0009
3908.00,0.0009
3907.00,0.0010
3906.00,0.0010
3905.00,0.0011
3904.00,0.0011
3903.00,0.0012
3902.00,0.0012
3901.00,0.0012
3900.00,0.0012
3899.00,0.0011
3898.00,0.0011
3897.00,0.0011
3896.00,0.0011
3895.00,0.0010
3894.00,0.0010
3893.00,0.0010
3892.00,0.0010
3891.00,0.0009
3890.00,0.0010
3889.00,0.0010
3888.00,0.0010
3887.00,0.0010
3886.00,0.0010
3885.00,0.0010
3884.00,0.0010
3883.00,0.0010
3882.00,0.0010
3881.00,0.0010
3880.00,0.0010
3879.00,0.0010
3878.00,0.0010
3877.00,0.0010
3876.00,0.0010
3875.00,0.0010
3874.00,0.0011
3873.00,0.0011
3872.00,0.0011
3871.00,0.0011
3870.00,0.0011
3869.00,0.0012
3868.00,0.0012
3867.00,0.0012
3866.00,0.0012
3865.00,0.0012
3864.00,0.0012
3863.00,0.0011
3862.00,0.0010
3861.00,0.0010
3860.00,0.0009
3859.00,0.0010
3858.00,0.0010
3857.00,0.0012
3856.00,0.0014
3855.00,0.0015
3854.00,0.0015
3853.00,0.0015
3852.00,0.0015
3851.00,0.0015
3850.00,0.0014
3849.00,0.0013
3848.00,0.0012
3847.00,0.0011
3846.00,0.0010
3845.00,0.0010
3844.00,0.0010
3843.00,0.0010
3842.00,0.0011
3841.00,0.0011
3840.00,0.0012
3839.00,0.0012
3838.00,0.0013
3837.00,0.0013
3836.00,0.0012
3835.00,0.0012
3834.00,0.0012
3833.00,0.0011
3832.00,0.0010
3831.00,0.0010
3830.00,0.0010
3829.00,0.0009
3828.00,0.0009
3827.00,0.0009
3826.00,0.0009
3825.00,0.0010
3824.00,0.0010
3823.00,0.0011
3822.00,0.0011
3821.00,0.0011
3820.00,0.0011
3819.00,0.0012
3818.00,0.0012
3817.00,0.0012
3816.00,0.0011
3815.00,0.0011
3814.00,0.0010
3813.00,0.0010
3812.00,0.0010
3811.00,0.0010
3810.00,0.0010
3809.00,0.0011
3808.00,0.0010
3807.00,0.0010
3806.00,0.0011
3805.00,0.0011
3804.00,0.0012
3803.00,0.0012
3802.00,0.0012
3801.00,0.0012
3800.00,0.0012
3799.00,0.0012
3798.00,0.0011
3797.00,0.0011
3796.00,0.0010
3795.00,0.0010
3794.00,0.0009
3793.00,0.0009
3792.00,0.0008
3791.00,0.0008
3790.00,0.0008
3789.00,0.0008
3788.00,0.0008
3787.00,0.0008
3786.00,0.0008
3785.00,0.0008
3784.00,0.0008
3783.00,0.0008
3782.00,0.0009
3781.00,0.0009
3780.00,0.0009
3779.00,0.0009
3778.00,0.0009
3777.00,0.0009
3776.00,0.0009
3775.00,0.0009
3774.00,0.0009
3773.00,0.0010
3772.00,0.0010
3771.00,0.0010
3770.00,0.0010
3769.00,0.0010
3768.00,0.0010
3767.00,0.0010
3766.00,0.0010
3765.00,0.0010
3764.00,0.0010
3763.00,0.0010
3762.00,0.0010
3761.00,0.0010
3760.00,0.0010
3759.00,0.0011
3758.00,0.0011
3757.00,0.0011
3756.00,0.0011
3755.00,0.0012
3754.00,0.0013
3753.00,0.0013
3752.00,0.0014
3751.00,0.0015
3750.00,0.0015
3749.00,0.0016
3748.00,0.0017
3747.00,0.0017
3746.00,0.0017
3745.00,0.0016
3744.00,0.0015
3743.00,0.0015
3742.00,0.0015
3741.00,0.0014
3740.00,0.0013
3739.00,0.0013
3738.00,0.0013
3737.00,0.0013
3736.00,0.0012
3735.00,0.0012
3734.00,0.0012
3733.00,0.0012
3732.00,0.0011
3731.00,0.0011
3730.00,0.0011
3729.00,0.0011
3728.00,0.0011
3727.00,0.0011
3726.00,0.0011
3725.00,0.0011
3724.00,0.0011
3723.00,0.0011
3722.00,0.0011
3721.00,0.0010
3720.00,0.0010
3719.00,0.0010
3718.00,0.0010
3717.00,0.0010
3716.00,0.0010
3715.00,0.0011
3714.00,0.0012
3713.00,0.0012
3712.00,0.0012
3711.00,0.0013
3710.00,0.0013
3709.00,0.0012
3708.00,0.0012
3707.00,0.0012
3706.00,0.0012
3705.00,0.0011
3704.00,0.0011
3703.00,0.0011
3702.00,0.0011
3701.00,0.0011
3700.00,0.0011
3699.00,0.0011
3698.00,0.0011
3697.00,0.0011
3696.00,0.0011
3695.00,0.0011
3694.00,0.0011
3693.00,0.0012
3692.00,0.0013
3691.00,0.0014
3690.00,0.0015
3689.00,0.0015
3688.00,0.0015
3687.00,0.0015
3686.00,0.0016
3685.00,0.0015
3684.00,0.0015
3683.00,0.0015
3682.00,0.0015
3681.00,0.0015
3680.00,0.0016
3679.00,0.0018
3678.00,0.0019
3677.00,0.0020
3676.00,0.0021
3675.00,0.0021
3674.00,0.0022
3673.00,0.0023
3672.00,0.0024
3671.00,0.0024
3670.00,0.0024
3669.00,0.0024
3668.00,0.0024
3667.00,0.0023
3666.00,0.0023
3665.00,0.0023
3664.00,0.0023
3663.00,0.0023
3662.00,0.0024
3661.00,0.0025
3660.00,0.0026
3659.00,0.0026
3658.00,0.0027
3657.00,0.0028
3656.00,0.0029
3655.00,0.0030
3654.00,0.0031
3653.00,0.0032
3652.00,0.0034
3651.00,0.0036
3650.00,0.0037
3649.00,0.0038
3648.00,0.0038
3647.00,0.0039
3646.00,0.0039
3645.00,0.0039
3644.00,0.0038
3643.00,0.0038
3642.00,0.0038
3641.00,0.0038
3640.00,0.0039
3639.00,0.0040
3638.00,0.0040
3637.00,0.0041
3636.00,0.0042
3635.00,0.0043
3634.00,0.0044
3633.00,0.0046
3632.00,0.0047
3631.00,0.0049
3630.00,0.0050
3629.00,0.0052
3628.00,0.0053
3627.00,0.0054
3626.00,0.0054
3625.00,0.0054
3624.00,0.0055
3623.00,0.0055
3622.00,0.0055
3621.00,0.0056
3620.00,0.0057
3619.00,0.0059
3618.00,0.0060
3617.00,0.0061
3616.00,0.0063
3615.00,0.0064
3614.00,0.0065
3613.00,0.0066
3612.00,0.0067
3611.00,0.0068
3610.00,0.0069
3609.00,0.0070
3608.00,0.0071
3607.00,0.0072
3606.00,0.0072
3605.00,0.0073
3604.00,0.0073
3603.00,0.0074
3602.00,0.0075
3601.00,0.0076
3600.00,0.0077
3599.00,0.0078
3598.00,0.0079
3597.00,0.0079
3596.00,0.0080
3595.00,0.0081
3594.00,0.0082
3593.00,0.0083
3592.00,0.0084
3591.00,0.0086
3590.00,0.0087
3589.00,0.0089
3588.00,0.0091
3587.00,0.0092
3586.00,0.0093
3585.00,0.0094
3584.00,0.0095
3583.00,0.0096
3582.00,0.0096
3581.00,0.0097
3580.00,0.0098
3579.00,0.0098
3578.00,0.0099
3577.00,0.0100
3576.00,0.0102
3575.00,0.0103
3574.00,0.0104
3573.00,0.0105
3572.00,0.0106
3571.00,0.0107
3570.00,0.0109
3569.00,0.0110
3568.00,0.0112
3567.00,0.0114
3566.00,0.0115
3565.00,0.0116
3564.00,0.0117
3563.00,0.0118
3562.00,0.0118
3561.00,0.0119
3560.00,0.0120
3559.00,0.0121
3558.00,0.0122
3557.00,0.0124
3556.00,0.0125
3555.00,0.0126
3554.00,0.0128
3553.00,0.0129
3552.00,0.0130
3551.00,0.0131
3550.00,0.0132
3549.00,0.0133
3548.00,0.0135
3547.00,0.0136
3546.00,0.0138
3545.00,0.0139
3544.00,0.0140
3543.00,0.0140
3542.00,0.0141
3541.00,0.0142
3540.00,0.0142
3539.00,0.0143
3538.00,0.0145
3537.00,0.0146
3536.00,0.0147
3535.00,0.0149
3534.00,0.0150
3533.00,0.0151
3532.00,0.0152
3531.00,0.0153
3530.00,0.0154
3529.00,0.0155
3528.00,0.0156
3527.00,0.0158
3526.00,0.0159
3525.00,0.0160
3524.00,0.0161
3523.00,0.0162
3522.00,0.0162
3521.00,0.0163
3520.00,0.0164
3519.00,0.0165
3518.00,0.0166
3517.00,0.0167
3516.00,0.0168
3515.00,0.0169
3514.00,0.0170
3513.00,0.0172
3512.00,0.0173
3511.00,0.0174
3510.00,0.0175
3509.00,0.0176
3508.00,0.0177
3507.00,0.0178
3506.00,0.0179
3505.00,0.0181
3504.00,0.0182
3503.00,0.0184
3502.00,0.0185
3501.00,0.0186
3500.00,0.0187
3499.00,0.0188
3498.00,0.0189
3497.00,0.0190
3496.00,0.0191
3495.00,0.0192
3494.00,0.0193
3493.00,0.0195
3492.00,0.0196
3491.00,0.0197
3490.00,0.0198
3489.00,0.0199
3488.00,0.0200
3487.00,0.0201
3486.00,0.0203
3485.00,0.0204
3484.00,0.0205
3483.00,0.0206
3482.00,0.0208
3481.00,0.0209
3480.00,0.0210
3479.00,0.0211
3478.00,0.0212
3477.00,0.0213
3476.00,0.0214
3475.00,0.0215
3474.00,0.0216
3473.00,0.0218
3472.00,0.0219
3471.00,0.0220
3470.00,0.0221
3469.00,0.0222
3468.00,0.0224
3467.00,0.0225
3466.00,0.0227
3465.00,0.0228
3464.00,0.0229
3463.00,0.0230
3462.00,0.0231
3461.00,0.0232
3460.00,0.0233
3459.00,0.0234
3458.00,0.0235
3457.00,0.0236
3456.00,0.0237
3455.00,0.0238
3454.00,0.0239
3453.00,0.0240
3452.00,0.0241
3451.00,0.0242
3450.00,0.0244
3449.00,0.0245
3448.00,0.0247
3447.00,0.0248
3446.00,0.0250
3445.00,0.0251
3444.00,0.0252
3443.00,0.0253
3442.00,0.0254
3441.00,0.0255
3440.00,0.0256
3439.00,0.0257
3438.00,0.0259
3437.00,0.0260
3436.00,0.0261
3435.00,0.0262
3434.00,0.0263
3433.00,0.0264
3432.00,0.0266
3431.00,0.0267
3430.00,0.0268
3429.00,0.0270
3428.00,0.0271
3427.00,0.0272
3426.00,0.0274
3425.00,0.0275
3424.00,0.0276
3423.00,0.0277
3422.00,0.0278
3421.00,0.0280
3420.00,0.0281
3419.00,0.0282
3418.00,0.0283
3417.00,0.0284
3416.00,0.0286
3415.00,0.0287
3414.00,0.0288
3413.00,0.0289
3412.00,0.0291
3411.00,0.0292
3410.00,0.0293
3409.00,0.0295
3408.00,0.0296
3407.00,0.0297
3406.00,0.0298
3405.00,0.0299
3404.00,0.0300
3403.00,0.0301
3402.00,0.0302
3401.00,0.0303
3400.00,0.0304
3399.00,0.0306
3398.00,0.0307
3397.00,0.0308
3396.00,0.0310
3395.00,0.0311
3394.00,0.0312
3393.00,0.0313
3392.00,0.0314
3391.00,0.0316
3390.00,0.0317
3389.00,0.0318
3388.00,0.0320
3387.00,0.0321
3386.00,0.0322
3385.00,0.0323
3384.00,0.0324
3383.00,0.0326
3382.00,0.0327
3381.00,0.0328
3380.00,0.0329
3379.00,0.0331
3378.00,0.0333
3377.00,0.0334
3376.00,0.0336
3375.00,0.0337
3374.00,0.0339
3373.00,0.0340
3372.00,0.0341
3371.00,0.0342
3370.00,0.0344
3369.00,0.0346
3368.00,0.0347
3367.00,0.0349
3366.00,0.0351
3365.00,0.0353
3364.00,0.0355
3363.00,0.0357
3362.00,0.0359
3361.00,0.0361
3360.00,0.0362
3359.00,0.0364
3358.00,0.0366
3357.00,0.0368
3356.00,0.0370
3355.00,0.0372
3354.00,0.0374
3353.00,0.0375
3352.00,0.0377
3351.00,0.0379
3350.00,0.0381
3349.00,0.0383
3348.00,0.0386
3347.00,0.0388
3346.00,0.0390
3345.00,0.0392
3344.00,0.0394
3343.00,0.0396
3342.00,0.0398
3341.00,0.0400
3340.00,0.0402
3339.00,0.0405
3338.00,0.0407
3337.00,0.0410
3336.00,0.0412
3335.00,0.0415
3334.00,0.0417
3333.00,0.0420
3332.00,0.0423
3331.00,0.0425
3330.00,0.0428
3329.00,0.0431
3328.00,0.0433
3327.00,0.0436
3326.00,0.0439
3325.00,0.0442
3324.00,0.0445
3323.00,0.0449
3322.00,0.0452
3321.00,0.0456
3320.00,0.0459
3319.00,0.0463
3318.00,0.0466
3317.00,0.0469
3316.00,0.0472
3315.00,0.0476
3314.00,0.0479
3313.00,0.0482
3312.00,0.0485
3311.00,0.0488
3310.00,0.0492
3309.00,0.0495
3308.00,0.0499
3307.00,0.0502
3306.00,0.0506
3305.00,0.0510
3304.00,0.0514
3303.00,0.0518
3302.00,0.0522
3301.00,0.0526
3300.00,0.0530
3299.00,0.0534
3298.00,0.0537
3297.00,0.0541
3296.00,0.0544
3295.00,0.0548
3294.00,0.0551
3293.00,0.0555
3292.00,0.0559
3291.00,0.0563
3290.00,0.0566
3289.00,0.0570
3288.00,0.0573
3287.00,0.0576
3286.00,0.0579
3285.00,0.0581
3284.00,0.0584
3283.00,0.0586
3282.00,0.0588
3281.00,0.0590
3280.00,0.0592
3279.00,0.0593
3278.00,0.0593
3277.00,0.0594
3276.00,0.0594
3275.00,0.0594
3274.00,0.0594
3273.00,0.0593
3272.00,0.0593
3271.00,0.0592
3270.00,0.0591
3269.00,0.0590
3268.00,0.0589
3267.00,0.0587
3266.00,0.0585
3265.00,0.0583
3264.00,0.0580
3263.00,0.0577
3262.00,0.0574
3261.00,0.0571
3260.00,0.0568
3259.00,0.0564
3258.00,0.0561
3257.00,0.0557
3256.00,0.0553
3255.00,0.0549
3254.00,0.0546
3253.00,0.0542
3252.00,0.0538
3251.00,0.0534
3250.00,0.0530
3249.00,0.0526
3248.00,0.0522
3247.00,0.0519
3246.00,0.0516
3245.00,0.0513
3244.00,0.0510
3243.00,0.0507
3242.00,0.0504
3241.00,0.0501
3240.00,0.0497
3239.00,0.0494
3238.00,0.0490
3237.00,0.0486
3236.00,0.0483
3235.00,0.0479
3234.00,0.0476
3233.00,0.0473
3232.00,0.0471
3231.00,0.0469
3230.00,0.0467
3229.00,0.0465
3228.00,0.0463
3227.00,0.0461
3226.00,0.0458
3225.00,0.0456
3224.00,0.0453
3223.00,0.0451
3222.00,0.0448
3221.00,0.0446
3220.00,0.0443
3219.00,0.0441
3218.00,0.0439
3217.00,0.0437
3216.00,0.0434
3215.00,0.0432
3214.00,0.0430
3213.00,0.0428
3212.00,0.0426
3211.00,0.0424
3210.00,0.0421
3209.00,0.0419
3208.00,0.0417
3207.00,0.0415
3206.00,0.0413
3205.00,0.0411
3204.00,0.0409
3203.00,0.0407
3202.00,0.0405
3201.00,0.0402
3200.00,0.0400
3199.00,0.0398
3198.00,0.0396
3197.00,0.0395
3196.00,0.0393
3195.00,0.0391
3194.00,0.0389
3193.00,0.0387
3192.00,0.0385
3191.00,0.0383
3190.00,0.0381
3189.00,0.0379
3188.00,0.0377
3187.00,0.0375
3186.00,0.0373
3185.00,0.0371
3184.00,0.0368
3183.00,0.0366
3182.00,0.0364
3181.00,0.0362
3180.00,0.0360
3179.00,0.0358
3178.00,0.0357
3177.00,0.0355
3176.00,0.0353
3175.00,0.0351
3174.00,0.0349
3173.00,0.0347
3172.00,0.0345
3171.00,0.0343
3170.00,0.0341
3169.00,0.0339
3168.00,0.0337
3167.00,0.0336
3166.00,0.0334
3165.00,0.0333
3164.00,0.0331
3163.00,0.0329
3162.00,0.0328
3161.00,0.0326
3160.00,0.0324
3159.00,0.0322
3158.00,0.0321
3157.00,0.0319
3156.00,0.0317
3155.00,0.0315
3154.00,0.0313
3153.00,0.0312
3152.00,0.0310
3151.00,0.0309
3150.00,0.0308
3149.00,0.0307
3148.00,0.0306
3147.00,0.0305
3146.00,0.0303
3145.00,0.0302
3144.00,0.0301
3143.00,0.0299
3142.00,0.0298
3141.00,0.0296
3140.00,0.0295
3139.00,0.0294
3138.00,0.0293
3137.00,0.0292
3136.00,0.0292
3135.00,0.0291
3134.00,0.0290
3133.00,0.0289
3132.00,0.0288
3131.00,0.0287
3130.00,0.0286
3129.00,0.0286
3128.00,0.0285
3127.00,0.0284
3126.00,0.0284
3125.00,0.0283
3124.00,0.0282
3123.00,0.0282
3122.00,0.0281
3121.00,0.0280
3120.00,0.0279
3119.00,0.0279
3118.00,0.0278
3117.00,0.0278
3116.00,0.0279
3115.00,0.0279
3114.00,0.0279
3113.00,0.0280
3112.00,0.0280
3111.00,0.0280
3110.00,0.0280
3109.00,0.0280
3108.00,0.0280
3107.00,0.0281
3106.00,0.0282
3105.00,0.0282
3104.00,0.0283
3103.00,0.0283
3102.00,0.0283
3101.00,0.0283
3100.00,0.0284
3099.00,0.0285
3098.00,0.0286
3097.00,0.0287
3096.00,0.0287
3095.00,0.0288
3094.00,0.0288
3093.00,0.0288
3092.00,0.0288
3091.00,0.0288
3090.00,0.0288
3089.00,0.0289
3088.00,0.0289
3087.00,0.0289
3086.00,0.0290
3085.00,0.0290
3084.00,0.0290
3083.00,0.0290
3082.00,0.0289
3081.00,0.0289
3080.00,0.0289
3079.00,0.0289
3078.00,0.0290
3077.00,0.0290
3076.00,0.0290
3075.00,0.0290
3074.00,0.0290
3073.00,0.0290
3072.00,0.0290
3071.00,0.0289
3070.00,0.0288
3069.00,0.0287
3068.00,0.0286
3067.00,0.0285
3066.00,0.0284
3065.00,0.0284
3064.00,0.0283
3063.00,0.0282
3062.00,0.0281
3061.00,0.0280
3060.00,0.0279
3059.00,0.0277
3058.00,0.0276
3057.00,0.0274
3056.00,0.0273
3055.00,0.0272
3054.00,0.0270
3053.00,0.0268
3052.00,0.0266
3051.00,0.0264
3050.00,0.0263
3049.00,0.0261
3048.00,0.0260
3047.00,0.0258
3046.00,0.0256
3045.00,0.0254
3044.00,0.0253
3043.00,0.0251
3042.00,0.0250
3041.00,0.0249
3040.00,0.0249
3039.00,0.0248
3038.00,0.0246
3037.00,0.0245
3036.00,0.0243
3035.00,0.0241
3034.00,0.0240
3033.00,0.0239
3032.00,0.0239
3031.00,0.0238
3030.00,0.0237
3029.00,0.0236
3028.00,0.0235
3027.00,0.0233
3026.00,0.0232
3025.00,0.0230
3024.00,0.0229
3023.00,0.0227
3022.00,0.0226
3021.00,0.0224
3020.00,0.0223
3019.00,0.0221
3018.00,0.0220
3017.00,0.0219
3016.00,0.0218
3015.00,0.0217
3014.00,0.0216
3013.00,0.0216
3012.00,0.0215
3011.00,0.0215
3010.00,0.0214
3009.00,0.0214
3008.00,0.0214
3007.00,0.0214
3006.00,0.0214
3005.00,0.0213
3004.00,0.0213
3003.00,0.0213
3002.00,0.0213
3001.00,0.0214
3000.00,0.0214
2999.00,0.0214
2998.00,0.0214
2997.00,0.0215
2996.00,0.0216
2995.00,0.0217
2994.00,0.0218
2993.00,0.0220
2992.00,0.0222
2991.00,0.0224
2990.00,0.0227
2989.00,0.0229
2988.00,0.0232
2987.00,0.0234
2986.00,0.0237
2985.00,0.0240
2984.00,0.0243
2983.00,0.0246
2982.00,0.0249
2981.00,0.0252
2980.00,0.0256
2979.00,0.0260
2978.00,0.0264
2977.00,0.0268
2976.00,0.0272
2975.00,0.0276
2974.00,0.0280
2973.00,0.0284
2972.00,0.0288
2971.00,0.0292
2970.00,0.0295
2969.00,0.0299
2968.00,0.0302
2967.00,0.0305
2966.00,0.0307
2965.00,0.0310
2964.00,0.0311
2963.00,0.0313
2962.00,0.0314
2961.00,0.0314
2960.00,0.0314
2959.00,0.0313
2958.00,0.0311
2957.00,0.0310
2956.00,0.0307
2955.00,0.0305
2954.00,0.0302
2953.00,0.0300
2952.00,0.0298
2951.00,0.0296
2950.00,0.0295
2949.00,0.0293
2948.00,0.0293
2947.00,0.0292
2946.00,0.0293
2945.00,0.0294
2944.00,0.0296
2943.00,0.0298
2942.00,0.0300
2941.00,0.0303
2940.00,0.0306
2939.00,0.0308
2938.00,0.0311
2937.00,0.0313
2936.00,0.0316
2935.00,0.0318
2934.00,0.0320
2933.00,0.0321
2932.00,0.0322
2931.00,0.0322
2930.00,0.0322
2929.00,0.0322
2928.00,0.0321
2927.00,0.0320
2926.00,0.0319
2925.00,0.0317
2924.00,0.0315
2923.00,0.0312
2922.00,0.0309
2921.00,0.0306
2920.00,0.0302
2919.00,0.0299
2918.00,0.0295
2917.00,0.0291
2916.00,0.0287
2915.00,0.0283
2914.00,0.0279
2913.00,0.0275
2912.00,0.0271
2911.00,0.0267
2910.00,0.0264
2909.00,0.0261
2908.00,0.0258
2907.00,0.0255
2906.00,0.0252
2905.00,0.0250
2904.00,0.0247
2903.00,0.0245
2902.00,0.0243
2901.00,0.0241
2900.00,0.0239
2899.00,0.0237
2898.00,0.0235
2897.00,0.0234
2896.00,0.0232
2895.00,0.0231
2894.00,0.0230
2893.00,0.0229
2892.00,0.0228
2891.00,0.0227
2890.00,0.0226
2889.00,0.0225
2888.00,0.0224
2887.00,0.0224
2886.00,0.0224
2885.00,0.0225
2884.00,0.0226
2883.00,0.0227
2882.00,0.0229
2881.00,0.0230
2880.00,0.0231
2879.00,0.0232
2878.00,0.0233
2877.00,0.0234
2876.00,0.0235
2875.00,0.0235
2874.00,0.0235
2873.00,0.0234
2872.00,0.0232
2871.00,0.0231
2870.00,0.0228
2869.00,0.0225
2868.00,0.0223
2867.00,0.0220
2866.00,0.0217
2865.00,0.0215
2864.00,0.0212
2863.00,0.0210
2862.00,0.0208
2861.00,0.0207
2860.00,0.0206
2859.00,0.0205
2858.00,0.0204
2857.00,0.0203
2856.00,0.0202
2855.00,0.0201
2854.00,0.0200
2853.00,0.0198
2852.00,0.0196
2851.00,0.0193
2850.00,0.0189
2849.00,0.0186
2848.00,0.0183
2847.00,0.0180
2846.00,0.0177
2845.00,0.0174
2844.00,0.0171
2843.00,0.0169
2842.00,0.0167
2841.00,0.0165
2840.00,0.0163
2839.00,0.0161
2838.00,0.0160
2837.00,0.0159
2836.00,0.0157
2835.00,0.0156
2834.00,0.0155
2833.00,0.0154
2832.00,0.0154
2831.00,0.0153
2830.00,0.0152
2829.00,0.0152
2828.00,0.0151
2827.00,0.0150
2826.00,0.0150
2825.00,0.0149
2824.00,0.0148
2823.00,0.0147
2822.00,0.0147
2821.00,0.0146
2820.00,0.0146
2819.00,0.0145
2818.00,0.0145
2817.00,0.0144
2816.00,0.0144
2815.00,0.0144
2814.00,0.0143
2813.00,0.0143
2812.00,0.0142
2811.00,0.0142
2810.00,0.0141
2809.00,0.0140
2808.00,0.0140
2807.00,0.0140
2806.00,0.0139
2805.00,0.0139
2804.00,0.0138
2803.00,0.0137
2802.00,0.0137
2801.00,0.0136
2800.00,0.0135
2799.00,0.0135
2798.00,0.0135
2797.00,0.0135
2796.00,0.0134
2795.00,0.0134
2794.00,0.0133
2793.00,0.0132
2792.00,0.0132
2791.00,0.0131
2790.00,0.0131
2789.00,0.0131
2788.00,0.0130
2787.00,0.0130
2786.00,0.0130
2785.00,0.0129
2784.00,0.0129
2783.00,0.0128
2782.00,0.0128
2781.00,0.0127
2780.00,0.0127
2779.00,0.0126
2778.00,0.0126
2777.00,0.0125
2776.00,0.0124
2775.00,0.0124
2774.00,0.0123
2773.00,0.0123
2772.00,0.0123
2771.00,0.0122
2770.00,0.0122
2769.00,0.0122
2768.00,0.0121
2767.00,0.0120
2766.00,0.0120
2765.00,0.0119
2764.00,0.0119
2763.00,0.0118
2762.00,0.0118
2761.00,0.0118
2760.00,0.0117
2759.00,0.0117
2758.00,0.0116
2757.00,0.0116
2756.00,0.0115
2755.00,0.0115
2754.00,0.0114
2753.00,0.0114
2752.00,0.0114
2751.00,0.0113
2750.00,0.0113
2749.00,0.0113
2748.00,0.0112
2747.00,0.0112
2746.00,0.0111
2745.00,0.0111
2744.00,0.0110
2743.00,0.0110
2742.00,0.0110
2741.00,0.0109
2740.00,0.0109
2739.00,0.0109
2738.00,0.0108
2737.00,0.0108
2736.00,0.0107
2735.00,0.0107
2734.00,0.0107
2733.00,0.0106
2732.00,0.0106
2731.00,0.0105
2730.00,0.0105
2729.00,0.0104
2728.00,0.0103
2727.00,0.0103
2726.00,0.0103
2725.00,0.0102
2724.00,0.0102
2723.00,0.0101
2722.00,0.0101
2721.00,0.0101
2720.00,0.0100
2719.00,0.0100
2718.00,0.0099
2717.00,0.0099
2716.00,0.0099
2715.00,0.0098
2714.00,0.0098
2713.00,0.0097
2712.00,0.0097
2711.00,0.0096
2710.00,0.0096
2709.00,0.0096
2708.00,0.0095
2707.00,0.0095
2706.00,0.0095
2705.00,0.0094
2704.00,0.0094
2703.00,0.0094
2702.00,0.0094
2701.00,0.0093
2700.00,0.0093
2699.00,0.0093
2698.00,0.0093
2697.00,0.0092
2696.00,0.0092
2695.00,0.0092
2694.00,0.0092
2693.00,0.0092
2692.00,0.0092
2691.00,0.0092
2690.00,0.0092
2689.00,0.0091
2688.00,0.0091
2687.00,0.0091
2686.00,0.0091
2685.00,0.0090
2684.00,0.0090
2683.00,0.0090
2682.00,0.0089
2681.00,0.0089
2680.00,0.0089
2679.00,0.0089
2678.00,0.0089
2677.00,0.0089
2676.00,0.0089
2675.00,0.0089
2674.00,0.0089
2673.00,0.0089
2672.00,0.0089
2671.00,0.0088
2670.00,0.0088
2669.00,0.0088
2668.00,0.0088
2667.00,0.0088
2666.00,0.0089
2665.00,0.0089
2664.00,0.0089
2663.00,0.0090
2662.00,0.0090
2661.00,0.0090
2660.00,0.0090
2659.00,0.0090
2658.00,0.0090
2657.00,0.0091
2656.00,0.0091
2655.00,0.0090
2654.00,0.0090
2653.00,0.0090
2652.00,0.0090
2651.00,0.0090
2650.00,0.0090
2649.00,0.0090
2648.00,0.0089
2647.00,0.0089
2646.00,0.0089
2645.00,0.0089
2644.00,0.0089
2643.00,0.0089
2642.00,0.0088
2641.00,0.0088
2640.00,0.0088
2639.00,0.0088
2638.00,0.0087
2637.00,0.0087
2636.00,0.0087
2635.00,0.0086
2634.00,0.0086
2633.00,0.0086
2632.00,0.0086
2631.00,0.0085
2630.00,0.0085
2629.00,0.0084
2628.00,0.0084
2627.00,0.0084
2626.00,0.0084
2625.00,0.0084
2624.00,0.0084
2623.00,0.0084
2622.00,0.0083
2621.00,0.0083
2620.00,0.0083
2619.00,0.0083
2618.00,0.0082
2617.00,0.0082
2616.00,0.0082
2615.00,0.0082
2614.00,0.0081
2613.00,0.0081
2612.00,0.0081
2611.00,0.0081
2610.00,0.0080
2609.00,0.0080
2608.00,0.0080
2607.00,0.0080
2606.00,0.0079
2605.00,0.0079
2604.00,0.0079
2603.00,0.0078
2602.00,0.0078
2601.00,0.0078
2600.00,0.0077
2599.00,0.0077
2598.00,0.0077
2597.00,0.0077
2596.00,0.0077
2595.00,0.0076
2594.00,0.0076
2593.00,0.0075
2592.00,0.0075
2591.00,0.0075
2590.00,0.0074
2589.00,0.0074
2588.00,0.0074
2587.00,0.0074
2586.00,0.0074
2585.00,0.0073
2584.00,0.0073
2583.00,0.0073
2582.00,0.0073
2581.00,0.0072
2580.00,0.0072
2579.00,0.0071
2578.00,0.0071
2577.00,0.0071
2576.00,0.0071
2575.00,0.0071
2574.00,0.0070
2573.00,0.0070
2572.00,0.0070
2571.00,0.0069
2570.00,0.0069
2569.00,0.0069
2568.00,0.0069
2567.00,0.0069
2566.00,0.0069
2565.00,0.0069
2564.00,0.0069
2563.00,0.0068
2562.00,0.0068
2561.00,0.0068
2560.00,0.0068
2559.00,0.0067
2558.00,0.0067
2557.00,0.0067
2556.00,0.0067
2555.00,0.0066
2554.00,0.0066
2553.00,0.0066
2552.00,0.0065
2551.00,0.0065
2550.00,0.0065
2549.00,0.0065
2548.00,0.0065
2547.00,0.0065
2546.00,0.0065
2545.00,0.0065
2544.00,0.0065
2543.00,0.0064
2542.00,0.0064
2541.00,0.0064
2540.00,0.0064
2539.00,0.0063
2538.00,0.0063
2537.00,0.0063
2536.00,0.0063
2535.00,0.0063
2534.00,0.0062
2533.00,0.0062
2532.00,0.0062
2531.00,0.0062
2530.00,0.0062
2529.00,0.0062
2528.00,0.0062
2527.00,0.0061
2526.00,0.0061
2525.00,0.0061
2524.00,0.0061
2523.00,0.0061
2522.00,0.0061
2521.00,0.0061
2520.00,0.0061
2519.00,0.0061
2518.00,0.0061
2517.00,0.0060
2516.00,0.0060
2515.00,0.0060
2514.00,0.0059
2513.00,0.0059
2512.00,0.0059
2511.00,0.0059
2510.00,0.0059
2509.00,0.0059
2508.00,0.0059
2507.00,0.0059
2506.00,0.0059
2505.00,0.0058
2504.00,0.0058
2503.00,0.0058
2502.00,0.0058
2501.00,0.0058
2500.00,0.0058
2499.00,0.0058
2498.00,0.0057
2497.00,0.0057
2496.00,0.0057
2495.00,0.0057
2494.00,0.0057
2493.00,0.0057
2492.00,0.0056
2491.00,0.0056
2490.00,0.0055
2489.00,0.0055
2488.00,0.0055
2487.00,0.0055
2486.00,0.0055
2485.00,0.0055
2484.00,0.0054
2483.00,0.0054
2482.00,0.0054
2481.00,0.0054
2480.00,0.0054
2479.00,0.0054
2478.00,0.0053
2477.00,0.0053
2476.00,0.0053
2475.00,0.0053
2474.00,0.0053
2473.00,0.0053
2472.00,0.0053
2471.00,0.0053
2470.00,0.0053
2469.00,0.0053
2468.00,0.0053
2467.00,0.0053
2466.00,0.0053
2465.00,0.0052
2464.00,0.0052
2463.00,0.0052
2462.00,0.0051
2461.00,0.0052
2460.00,0.0052
2459.00,0.0052
2458.00,0.0053
2457.00,0.0052
2456.00,0.0052
2455.00,0.0052
2454.00,0.0051
2453.00,0.0051
2452.00,0.0051
2451.00,0.0051
2450.00,0.0051
2449.00,0.0050
2448.00,0.0050
2447.00,0.0050
2446.00,0.0049
2445.00,0.0049
2444.00,0.0049
2443.00,0.0048
2442.00,0.0048
2441.00,0.0048
2440.00,0.0048
2439.00,0.0047
2438.00,0.0047
2437.00,0.0047
2436.00,0.0046
2435.00,0.0046
2434.00,0.0046
2433.00,0.0045
2432.00,0.0045
2431.00,0.0045
2430.00,0.0045
2429.00,0.0045
2428.00,0.0044
2427.00,0.0044
2426.00,0.0044
2425.00,0.0044
2424.00,0.0043
2423.00,0.0043
2422.00,0.0043
2421.00,0.0043
2420.00,0.0043
2419.00,0.0043
2418.00,0.0043
2417.00,0.0042
2416.00,0.0042
2415.00,0.0042
2414.00,0.0042
2413.00,0.0042
2412.00,0.0042
2411.00,0.0042
2410.00,0.0041
2409.00,0.0041
2408.00,0.0040
2407.00,0.0040
2406.00,0.0040
2405.00,0.0040
2404.00,0.0039
2403.00,0.0039
2402.00,0.0039
2401.00,0.0039
2400.00,0.0038
2399.00,0.0038
2398.00,0.0038
2397.00,0.0037
2396.00,0.0037
2395.00,0.0037
2394.00,0.0037
2393.00,0.0037
2392.00,0.0037
2391.00,0.0037
2390.00,0.0037
2389.00,0.0037
2388.00,0.0037
2387.00,0.0037
2386.00,0.0036
2385.00,0.0035
2384.00,0.0035
2383.00,0.0034
2382.00,0.0033
2381.00,0.0032
2380.00,0.0032
2379.00,0.0031
2378.00,0.0031
2377.00,0.0031
2376.00,0.0031
2375.00,0.0031
2374.00,0.0031
2373.00,0.0031
2372.00,0.0031
2371.00,0.0030
2370.00,0.0029
2369.00,0.0028
2368.00,0.0028
2367.00,0.0028
2366.00,0.0029
2365.00,0.0029
2364.00,0.0029
2363.00,0.0029
2362.00,0.0029
2361.00,0.0030
2360.00,0.0031
2359.00,0.0031
2358.00,0.0031
2357.00,0.0031
2356.00,0.0030
2355.00,0.0030
2354.00,0.0031
2353.00,0.0031
2352.00,0.0031
2351.00,0.0031
2350.00,0.0031
2349.00,0.0031
2348.00,0.0031
2347.00,0.0032
2346.00,0.0033
2345.00,0.0034
2344.00,0.0034
2343.00,0.0034
2342.00,0.0033
2341.00,0.0033
2340.00,0.0033
2339.00,0.0034
2338.00,0.0034
2337.00,0.0034
2336.00,0.0035
2335.00,0.0035
2334.00,0.0035
2333.00,0.0034
2332.00,0.0034
2331.00,0.0034
2330.00,0.0034
2329.00,0.0036
2328.00,0.0039
2327.00,0.0042
2326.00,0.0046
2325.00,0.0047
2324.00,0.0045
2323.00,0.0043
2322.00,0.0041
2321.00,0.0039
2320.00,0.0038
2319.00,0.0037
2318.00,0.0037
2317.00,0.0037
2316.00,0.0037
2315.00,0.0036
2314.00,0.0036
2313.00,0.0035
2312.00,0.0035
2311.00,0.0034
2310.00,0.0033
2309.00,0.0033
2308.00,0.0032
2307.00,0.0032
2306.00,0.0032
2305.00,0.0033
2304.00,0.0034
2303.00,0.0034
2302.00,0.0035
2301.00,0.0035
2300.00,0.0036
2299.00,0.0036
2298.00,0.0037
2297.00,0.0038
2296.00,0.0039
2295.00,0.0039
2294.00,0.0040
2293.00,0.0041
2292.00,0.0042
2291.00,0.0042
2290.00,0.0043
2289.00,0.0044
2288.00,0.0044
2287.00,0.0045
2286.00,0.0044
2285.00,0.0044
2284.00,0.0043
2283.00,0.0043
2282.00,0.0042
2281.00,0.0042
2280.00,0.0041
2279.00,0.0041
2278.00,0.0040
2277.00,0.0039
2276.00,0.0039
2275.00,0.0039
2274.00,0.0039
2273.00,0.0039
2272.00,0.0038
2271.00,0.0038
2270.00,0.0037
2269.00,0.0037
2268.00,0.0036
2267.00,0.0036
2266.00,0.0035
2265.00,0.0035
2264.00,0.0034
2263.00,0.0034
2262.00,0.0034
2261.00,0.0034
2260.00,0.0034
2259.00,0.0034
2258.00,0.0034
2257.00,0.0034
2256.00,0.0033
2255.00,0.0032
2254.00,0.0032
2253.00,0.0032
2252.00,0.0032
2251.00,0.0032
2250.00,0.0032
2249.00,0.0032
2248.00,0.0033
2247.00,0.0034
2246.00,0.0034
2245.00,0.0034
2244.00,0.0034
2243.00,0.0033
2242.00,0.0033
2241.00,0.0033
2240.00,0.0032
2239.00,0.0032
2238.00,0.0031
2237.00,0.0031
2236.00,0.0032
2235.00,0.0033
2234.00,0.0034
2233.00,0.0035
2232.00,0.0035
2231.00,0.0036
2230.00,0.0035
2229.00,0.0035
2228.00,0.0035
2227.00,0.0034
2226.00,0.0033
2225.00,0.0033
2224.00,0.0033
2223.00,0.0033
2222.00,0.0033
2221.00,0.0033
2220.00,0.0032
2219.00,0.0031
2218.00,0.0030
2217.00,0.0031
2216.00,0.0032
2215.00,0.0033
2214.00,0.0033
2213.00,0.0033
2212.00,0.0032
2211.00,0.0030
2210.00,0.0028
2209.00,0.0027
2208.00,0.0027
2207.00,0.0028
2206.00,0.0029
2205.00,0.0031
2204.00,0.0032
2203.00,0.0033
2202.00,0.0034
2201.00,0.0035
2200.00,0.0036
2199.00,0.0035
2198.00,0.0033
2197.00,0.0032
2196.00,0.0031
2195.00,0.0032
2194.00,0.0032
2193.00,0.0033
2192.00,0.0034
2191.00,0.0035
2190.00,0.0036
2189.00,0.0036
2188.00,0.0035
2187.00,0.0034
2186.00,0.0032
2185.00,0.0030
2184.00,0.0028
2183.00,0.0026
2182.00,0.0026
2181.00,0.0027
2180.00,0.0030
2179.00,0.0031
2178.00,0.0030
2177.00,0.0028
2176.00,0.0026
2175.00,0.0026
2174.00,0.0028
2173.00,0.0032
2172.00,0.0036
2171.00,0.0040
2170.00,0.0041
2169.00,0.0042
2168.00,0.0043
2167.00,0.0042
2166.00,0.0041
2165.00,0.0042
2164.00,0.0045
2163.00,0.0045
2162.00,0.0039
2161.00,0.0025
2160.00,0.0007
2159.00,-0.0008
2158.00,-0.0014
2157.00,-0.0013
2156.00,-0.0008
2155.00,-0.0004
2154.00,-0.0000
2153.00,0.0003
2152.00,0.0006
2151.00,0.0008
2150.00,0.0009
2149.00,0.0010
2148.00,0.0010
2147.00,0.0010
2146.00,0.0010
2145.00,0.0010
2144.00,0.0011
2143.00,0.0011
2142.00,0.0012
2141.00,0.0013
2140.00,0.0013
2139.00,0.0013
2138.00,0.0012
2137.00,0.0011
2136.00,0.0009
2135.00,0.0007
2134.00,0.0006
2133.00,0.0006
2132.00,0.0008
2131.00,0.0010
2130.00,0.0013
2129.00,0.0015
2128.00,0.0017
2127.00,0.0019
2126.00,0.0021
2125.00,0.0022
2124.00,0.0023
2123.00,0.0024
2122.00,0.0025
2121.00,0.0026
2120.00,0.0026
2119.00,0.0027
2118.00,0.0027
2117.00,0.0028
2116.00,0.0029
2115.00,0.0030
2114.00,0.0030
2113.00,0.0031
2112.00,0.0032
2111.00,0.0032
2110.00,0.0031
2109.00,0.0030
2108.00,0.0029
2107.00,0.0029
2106.00,0.0029
2105.00,0.0029
2104.00,0.0030
2103.00,0.0030
2102.00,0.0030
2101.00,0.0030
2100.00,0.0029
2099.00,0.0028
2098.00,0.0027
2097.00,0.0025
2096.00,0.0024
2095.00,0.0023
2094.00,0.0023
2093.00,0.0024
2092.00,0.0026
2091.00,0.0027
2090.00,0.0029
2089.00,0.0030
2088.00,0.0031
2087.00,0.0031
2086.00,0.0031
2085.00,0.0031
2084.00,0.0031
2083.00,0.0031
2082.00,0.0031
2081.00,0.0032
2080.00,0.0033
2079.00,0.0033
2078.00,0.0033
2077.00,0.0031
2076.00,0.0030
2075.00,0.0028
2074.00,0.0027
2073.00,0.0027
2072.00,0.0029
2071.00,0.0029
2070.00,0.0029
2069.00,0.0029
2068.00,0.0029
2067.00,0.0029
2066.00,0.0028
2065.00,0.0028
2064.00,0.0029
2063.00,0.0029
2062.00,0.0029
2061.00,0.0028
2060.00,0.0029
2059.00,0.0029
2058.00,0.0029
2057.00,0.0029
2056.00,0.0030
2055.00,0.0031
2054.00,0.0034
2053.00,0.0038
2052.00,0.0041
2051.00,0.0040
2050.00,0.0037
2049.00,0.0033
2048.00,0.0030
2047.00,0.0028
2046.00,0.0026
2045.00,0.0025
2044.00,0.0026
2043.00,0.0026
2042.00,0.0025
2041.00,0.0026
2040.00,0.0026
2039.00,0.0027
2038.00,0.0026
2037.00,0.0026
2036.00,0.0027
2035.00,0.0026
2034.00,0.0025
2033.00,0.0024
2032.00,0.0023
2031.00,0.0022
2030.00,0.0022
2029.00,0.0022
2028.00,0.0023
2027.00,0.0023
2026.00,0.0021
2025.00,0.0019
2024.00,0.0017
2023.00,0.0016
2022.00,0.0016
2021.00,0.0017
2020.00,0.0018
2019.00,0.0018
2018.00,0.0017
2017.00,0.0016
2016.00,0.0017
2015.00,0.0018
2014.00,0.0019
2013.00,0.0020
2012.00,0.0021
2011.00,0.0021
2010.00,0.0019
2009.00,0.0016
2008.00,0.0012
2007.00,0.0009
2006.00,0.0008
2005.00,0.0009
2004.00,0.0011
2003.00,0.0013
2002.00,0.0014
2001.00,0.0016
2000.00,0.0018
1999.00,0.0019
1998.00,0.0020
1997.00,0.0022
1996.00,0.0023
1995.00,0.0024
1994.00,0.0023
1993.00,0.0022
1992.00,0.0023
1991.00,0.0024
1990.00,0.0025
1989.00,0.0026
1988.00,0.0027
1987.00,0.0027
1986.00,0.0027
1985.00,0.0028
1984.00,0.0031
1983.00,0.0034
1982.00,0.0036
1981.00,0.0036
1980.00,0.0033
1979.00,0.0026
1978.00,0.0020
1977.00,0.0016
1976.00,0.0014
1975.00,0.0012
1974.00,0.0010
1973.00,0.0010
1972.00,0.0011
1971.00,0.0012
1970.00,0.0012
1969.00,0.0012
1968.00,0.0013
1967.00,0.0013
1966.00,0.0014
1965.00,0.0015
1964.00,0.0017
1963.00,0.0016
1962.00,0.0014
1961.00,0.0011
1960.00,0.0010
1959.00,0.0009
1958.00,0.0008
1957.00,0.0010
1956.00,0.0012
1955.00,0.0013
1954.00,0.0014
1953.00,0.0014
1952.00,0.0014
1951.00,0.0013
1950.00,0.0013
1949.00,0.0014
1948.00,0.0015
1947.00,0.0016
1946.00,0.0016
1945.00,0.0017
1944.00,0.0017
1943.00,0.0016
1942.00,0.0015
1941.00,0.0016
1940.00,0.0016
1939.00,0.0017
1938.00,0.0017
1937.00,0.0018
1936.00,0.0018
1935.00,0.0019
1934.00,0.0018
1933.00,0.0018
1932.00,0.0018
1931.00,0.0018
1930.00,0.0018
1929.00,0.0019
1928.00,0.0019
1927.00,0.0019
1926.00,0.0019
1925.00,0.0019
1924.00,0.0020
1923.00,0.0020
1922.00,0.0021
1921.00,0.0022
1920.00,0.0023
1919.00,0.0023
1918.00,0.0022
1917.00,0.0022
1916.00,0.0023
1915.00,0.0023
1914.00,0.0023
1913.00,0.0023
1912.00,0.0023
1911.00,0.0023
1910.00,0.0022
1909.00,0.0022
1908.00,0.0023
1907.00,0.0024
1906.00,0.0024
1905.00,0.0023
1904.00,0.0023
1903.00,0.0023
1902.00,0.0023
1901.00,0.0023
1900.00,0.0024
1899.00,0.0024
1898.00,0.0024
1897.00,0.0024
1896.00,0.0024
1895.00,0.0025
1894.00,0.0025
1893.00,0.0025
1892.00,0.0026
1891.00,0.0025
1890.00,0.0024
1889.00,0.0024
1888.00,0.0024
1887.00,0.0024
1886.00,0.0024
1885.00,0.0024
1884.00,0.0025
1883.00,0.0026
1882.00,0.0026
1881.00,0.0025
1880.00,0.0025
1879.00,0.0025
1878.00,0.0025
1877.00,0.0025
1876.00,0.0025
1875.00,0.0026
1874.00,0.0026
1873.00,0.0026
1872.00,0.0026
1871.00,0.0025
1870.00,0.0024
1869.00,0.0022
1868.00,0.0023
1867.00,0.0023
1866.00,0.0024
1865.00,0.0024
1864.00,0.0025
1863.00,0.0025
1862.00,0.0026
1861.00,0.0026
1860.00,0.0026
1859.00,0.0027
1858.00,0.0027
1857.00,0.0027
1856.00,0.0027
1855.00,0.0028
1854.00,0.0028
1853.00,0.0028
1852.00,0.0028
1851.00,0.0028
1850.00,0.0028
1849.00,0.0028
1848.00,0.0028
1847.00,0.0028
1846.00,0.0027
1845.00,0.0026
1844.00,0.0025
1843.00,0.0025
1842.00,0.0026
1841.00,0.0026
1840.00,0.0027
1839.00,0.0027
1838.00,0.0028
1837.00,0.0029
1836.00,0.0029
1835.00,0.0030
1834.00,0.0029
1833.00,0.0029
1832.00,0.0029
1831.00,0.0028
1830.00,0.0027
1829.00,0.0027
1828.00,0.0028
1827.00,0.0029
1826.00,0.0028
1825.00,0.0028
1824.00,0.0028
1823.00,0.0029
1822.00,0.0029
1821.00,0.0030
1820.00,0.0030
1819.00,0.0030
1818.00,0.0030
1817.00,0.0029
1816.00,0.0030
1815.00,0.0031
1814.00,0.0032
1813.00,0.0033
1812.00,0.0033
1811.00,0.0034
1810.00,0.0034
1809.00,0.0034
1808.00,0.0035
1807.00,0.0036
1806.00,0.0036
1805.00,0.0037
1804.00,0.0037
1803.00,0.0037
1802.00,0.0036
1801.00,0.0036
1800.00,0.0036
1799.00,0.0036
1798.00,0.0037
1797.00,0.0038
1796.00,0.0040
1795.00,0.0040
1794.00,0.0040
1793.00,0.0040
1792.00,0.0039
1791.00,0.0039
1790.00,0.0039
1789.00,0.0040
1788.00,0.0041
1787.00,0.0042
1786.00,0.0043
1785.00,0.0044
1784.00,0.0044
1783.00,0.0045
1782.00,0.0045
1781.00,0.0045
1780.00,0.0046
1779.00,0.0047
1778.00,0.0047
1777.00,0.0048
1776.00,0.0049
1775.00,0.0049
1774.00,0.0050
1773.00,0.0051
1772.00,0.0052
1771.00,0.0054
1770.00,0.0053
1769.00,0.0051
1768.00,0.0051
1767.00,0.0053
1766.00,0.0055
1765.00,0.0058
1764.00,0.0059
1763.00,0.0060
1762.00,0.0062
1761.00,0.0063
1760.00,0.0066
1759.00,0.0067
1758.00,0.0069
1757.00,0.0070
1756.00,0.0073
1755.00,0.0076
1754.00,0.0078
1753.00,0.0081
1752.00,0.0084
1751.00,0.0088
1750.00,0.0091
1749.00,0.0093
1748.00,0.0096
1747.00,0.0100
1746.00,0.0103
1745.00,0.0107
1744.00,0.0112
1743.00,0.0116
1742.00,0.0120
1741.00,0.0123
1740.00,0.0127
1739.00,0.0133
1738.00,0.0137
1737.00,0.0141
1736.00,0.0144
1735.00,0.0153
1734.00,0.0159
1733.00,0.0163
1732.00,0.0167
1731.00,0.0171
1730.00,0.0175
1729.00,0.0180
1728.00,0.0184
1727.00,0.0188
1726.00,0.0191
1725.00,0.0195
1724.00,0.0200
1723.00,0.0205
1722.00,0.0208
1721.00,0.0211
1720.00,0.0213
1719.00,0.0216
1718.00,0.0220
1717.00,0.0228
1716.00,0.0236
1715.00,0.0241
1714.00,0.0242
1713.00,0.0244
1712.00,0.0248
1711.00,0.0254
1710.00,0.0261
1709.00,0.0269
1708.00,0.0278
1707.00,0.0287
1706.00,0.0298
1705.00,0.0313
1704.00,0.0327
1703.00,0.0340
1702.00,0.0356
1701.00,0.0382
1700.00,0.0418
1699.00,0.0447
1698.00,0.0468
1697.00,0.0490
1696.00,0.0515
1695.00,0.0540
1694.00,0.0554
1693.00,0.0559
1692.00,0.0564
1691.00,0.0571
1690.00,0.0582
1689.00,0.0595
1688.00,0.0606
1687.00,0.0616
1686.00,0.0630
1685.00,0.0652
1684.00,0.0679
1683.00,0.0700
1682.00,0.0710
1681.00,0.0717
1680.00,0.0730
1679.00,0.0745
1678.00,0.0760
1677.00,0.0774
1676.00,0.0791
1675.00,0.0811
1674.00,0.0827
1673.00,0.0841
1672.00,0.0855
1671.00,0.0872
1670.00,0.0892
1669.00,0.0914
1668.00,0.0934
1667.00,0.0950
1666.00,0.0964
1665.00,0.0979
1664.00,0.0998
1663.00,0.1021
1662.00,0.1042
1661.00,0.1061
1660.00,0.1078
1659.00,0.1094
1658.00,0.1109
1657.00,0.1122
1656.00,0.1132
1655.00,0.1144
1654.00,0.1168
1653.00,0.1199
1652.00,0.1223
1651.00,0.1231
1650.00,0.1229
1649.00,0.1227
1648.00,0.1232
1647.00,0.1245
1646.00,0.1260
1645.00,0.1269
1644.00,0.1276
1643.00,0.1282
1642.00,0.1289
1641.00,0.1298
1640.00,0.1308
1639.00,0.1317
1638.00,0.1326
1637.00,0.1342
1636.00,0.1367
1635.00,0.1394
1634.00,0.1414
1633.00,0.1428
1632.00,0.1444
1631.00,0.1463
1630.00,0.1486
1629.00,0.1511
1628.00,0.1537
1627.00,0.1560
1626.00,0.1579
1625.00,0.1595
1624.00,0.1613
1623.00,0.1628
1622.00,0.1635
1621.00,0.1633
1620.00,0.1626
1619.00,0.1617
1618.00,0.1604
1617.00,0.1583
1616.00,0.1554
1615.00,0.1520
1614.00,0.1480
1613.00,0.1437
1612.00,0.1393
1611.00,0.1348
1610.00,0.1302
1609.00,0.1254
1608.00,0.1206
1607.00,0.1161
1606.00,0.1118
1605.00,0.1077
1604.00,0.1038
1603.00,0.1001
1602.00,0.0967
1601.00,0.0936
1600.00,0.0906
1599.00,0.0880
1598.00,0.0856
1597.00,0.0833
1596.00,0.0812
1595.00,0.0793
1594.00,0.0775
1593.00,0.0759
1592.00,0.0743
1591.00,0.0729
1590.00,0.0717
1589.00,0.0706
1588.00,0.0697
1587.00,0.0689
1586.00,0.0683
1585.00,0.0679
1584.00,0.0676
1583.00,0.0674
1582.00,0.0674
1581.00,0.0675
1580.00,0.0676
1579.00,0.0677
1578.00,0.0682
1577.00,0.0693
1576.00,0.0709
1575.00,0.0723
1574.00,0.0731
1573.00,0.0733
1572.00,0.0735
1571.00,0.0743
1570.00,0.0758
1569.00,0.0775
1568.00,0.0789
1567.00,0.0801
1566.00,0.0815
1565.00,0.0831
1564.00,0.0847
1563.00,0.0859
1562.00,0.0869
1561.00,0.0881
1560.00,0.0903
1559.00,0.0935
1558.00,0.0965
1557.00,0.0981
1556.00,0.0990
1555.00,0.1005
1554.00,0.1026
1553.00,0.1046
1552.00,0.1063
1551.00,0.1079
1550.00,0.1097
1549.00,0.1115
1548.00,0.1130
1547.00,0.1142
1546.00,0.1155
1545.00,0.1169
1544.00,0.1182
1543.00,0.1194
1542.00,0.1207
1541.00,0.1226
1540.00,0.1251
1539.00,0.1274
1538.00,0.1287
1537.00,0.1290
1536.00,0.1290
1535.00,0.1294
1534.00,0.1304
1533.00,0.1316
1532.00,0.1324
1531.00,0.1329
1530.00,0.1333
1529.00,0.1338
1528.00,0.1343
1527.00,0.1346
1526.00,0.1349
1525.00,0.1349
1524.00,0.1348
1523.00,0.1347
1522.00,0.1351
1521.00,0.1357
1520.00,0.1358
1519.00,0.1354
1518.00,0.1348
1517.00,0.1345
1516.00,0.1340
1515.00,0.1330
1514.00,0.1316
1513.00,0.1299
1512.00,0.1278
1511.00,0.1255
1510.00,0.1231
1509.00,0.1207
1508.00,0.1181
1507.00,0.1154
1506.00,0.1125
1505.00,0.1097
1504.00,0.1071
1503.00,0.1047
1502.00,0.1023
1501.00,0.0999
1500.00,0.0974
1499.00,0.0950
1498.00,0.0925
1497.00,0.0901
1496.00,0.0877
1495.00,0.0855
1494.00,0.0833
1493.00,0.0810
1492.00,0.0786
1491.00,0.0761
1490.00,0.0737
1489.00,0.0715
1488.00,0.0696
1487.00,0.0679
1486.00,0.0665
1485.00,0.0651
1484.00,0.0639
1483.00,0.0629
1482.00,0.0620
1481.00,0.0612
1480.00,0.0605
1479.00,0.0600
1478.00,0.0597
1477.00,0.0594
1476.00,0.0594
1475.00,0.0596
1474.00,0.0602
1473.00,0.0612
1472.00,0.0624
1471.00,0.0634
1470.00,0.0639
1469.00,0.0643
1468.00,0.0646
1467.00,0.0648
1466.00,0.0650
1465.00,0.0652
1464.00,0.0655
1463.00,0.0657
1462.00,0.0659
1461.00,0.0661
1460.00,0.0663
1459.00,0.0667
1458.00,0.0676
1457.00,0.0690
1456.00,0.0703
1455.00,0.0709
1454.00,0.0711
1453.00,0.0712
1452.00,0.0714
1451.00,0.0715
1450.00,0.0715
1449.00,0.0715
1448.00,0.0714
1447.00,0.0712
1446.00,0.0711
1445.00,0.0708
1444.00,0.0706
1443.00,0.0704
1442.00,0.0701
1441.00,0.0697
1440.00,0.0693
1439.00,0.0687
1438.00,0.0680
1437.00,0.0672
1436.00,0.0663
1435.00,0.0654
1434.00,0.0647
1433.00,0.0640
1432.00,0.0633
1431.00,0.0627
1430.00,0.0621
1429.00,0.0615
1428.00,0.0611
1427.00,0.0609
1426.00,0.0608
1425.00,0.0609
1424.00,0.0611
1423.00,0.0613
1422.00,0.0615
1421.00,0.0617
1420.00,0.0622
1419.00,0.0629
1418.00,0.0637
1417.00,0.0643
1416.00,0.0649
1415.00,0.0655
1414.00,0.0662
1413.00,0.0669
1412.00,0.0675
1411.00,0.0680
1410.00,0.0685
1409.00,0.0689
1408.00,0.0692
1407.00,0.0695
1406.00,0.0698
1405.00,0.0700
1404.00,0.0703
1403.00,0.0705
1402.00,0.0706
1401.00,0.0706
1400.00,0.0707
1399.00,0.0708
1398.00,0.0709
1397.00,0.0710
1396.00,0.0711
1395.00,0.0713
1394.00,0.0715
1393.00,0.0717
1392.00,0.0718
1391.00,0.0720
1390.00,0.0720
1389.00,0.0720
1388.00,0.0719
1387.00,0.0716
1386.00,0.0712
1385.00,0.0706
1384.00,0.0700
1383.00,0.0694
1382.00,0.0687
1381.00,0.0679
1380.00,0.0672
1379.00,0.0666
1378.00,0.0660
1377.00,0.0654
1376.00,0.0649
1375.00,0.0644
1374.00,0.0641
1373.00,0.0638
1372.00,0.0636
1371.00,0.0634
1370.00,0.0633
1369.00,0.0630
1368.00,0.0626
1367.00,0.0620
1366.00,0.0613
1365.00,0.0605
1364.00,0.0597
1363.00,0.0590
1362.00,0.0584
1361.00,0.0579
1360.00,0.0575
1359.00,0.0573
1358.00,0.0570
1357.00,0.0568
1356.00,0.0566
1355.00,0.0565
1354.00,0.0563
1353.00,0.0562
1352.00,0.0561
1351.00,0.0560
1350.00,0.0559
1349.00,0.0558
1348.00,0.0558
1347.00,0.0558
1346.00,0.0557
1345.00,0.0557
1344.00,0.0557
1343.00,0.0556
1342.00,0.0555
1341.00,0.0554
1340.00,0.0553
1339.00,0.0552
1338.00,0.0552
1337.00,0.0551
1336.00,0.0549
1335.00,0.0548
1334.00,0.0546
1333.00,0.0545
1332.00,0.0543
1331.00,0.0542
1330.00,0.0542
1329.00,0.0541
1328.00,0.0541
1327.00,0.0541
1326.00,0.0541
1325.00,0.0542
1324.00,0.0543
1323.00,0.0544
1322.00,0.0545
1321.00,0.0546
1320.00,0.0548
1319.00,0.0549
1318.00,0.0550
1317.00,0.0551
1316.00,0.0552
1315.00,0.0553
1314.00,0.0554
1313.00,0.0554
1312.00,0.0554
1311.00,0.0554
1310.00,0.0554
1309.00,0.0554
1308.00,0.0554
1307.00,0.0553
1306.00,0.0553
1305.00,0.0553
1304.00,0.0553
1303.00,0.0553
1302.00,0.0553
1301.00,0.0554
1300.00,0.0555
1299.00,0.0556
1298.00,0.0558
1297.00,0.0560
1296.00,0.0562
1295.00,0.0564
1294.00,0.0567
1293.00,0.0570
1292.00,0.0573
1291.00,0.0576
1290.00,0.0579
1289.00,0.0581
1288.00,0.0584
1287.00,0.0586
1286.00,0.0589
1285.00,0.0591
1284.00,0.0593
1283.00,0.0595
1282.00,0.0597
1281.00,0.0599
1280.00,0.0601
1279.00,0.0602
1278.00,0.0603
1277.00,0.0604
1276.00,0.0605
1275.00,0.0606
1274.00,0.0607
1273.00,0.0607
1272.00,0.0609
1271.00,0.0610
1270.00,0.0613
1269.00,0.0615
1268.00,0.0618
1267.00,0.0622
1266.00,0.0626
1265.00,0.0631
1264.00,0.0635
1263.00,0.0641
1262.00,0.0646
1261.00,0.0651
1260.00,0.0657
1259.00,0.0663
1258.00,0.0668
1257.00,0.0674
1256.00,0.0680
1255.00,0.0686
1254.00,0.0692
1253.00,0.0698
1252.00,0.0705
1251.00,0.0711
1250.00,0.0717
1249.00,0.0723
1248.00,0.0729
1247.00,0.0735
1246.00,0.0741
1245.00,0.0747
1244.00,0.0753
1243.00,0.0759
1242.00,0.0765
1241.00,0.0770
1240.00,0.0775
1239.00,0.0780
1238.00,0.0784
1237.00,0.0788
1236.00,0.0792
1235.00,0.0796
1234.00,0.0798
1233.00,0.0801
1232.00,0.0802
1231.00,0.0803
1230.00,0.0804
1229.00,0.0803
1228.00,0.0803
1227.00,0.0801
1226.00,0.0800
1225.00,0.0798
1224.00,0.0795
1223.00,0.0792
1222.00,0.0788
1221.00,0.0784
1220.00,0.0780
1219.00,0.0775
1218.00,0.0770
1217.00,0.0764
1216.00,0.0757
1215.00,0.0750
1214.00,0.0743
1213.00,0.0736
1212.00,0.0728
1211.00,0.0720
1210.00,0.0713
1209.00,0.0705
1208.00,0.0698
1207.00,0.0690
1206.00,0.0683
1205.00,0.0677
1204.00,0.0670
1203.00,0.0664
1202.00,0.0658
1201.00,0.0652
1200.00,0.0646
1199.00,0.0641
1198.00,0.0637
1197.00,0.0632
1196.00,0.0628
1195.00,0.0625
1194.00,0.0621
1193.00,0.0618
1192.00,0.0615
1191.00,0.0613
1190.00,0.0610
1189.00,0.0607
1188.00,0.0605
1187.00,0.0603
1186.00,0.0601
1185.00,0.0600
1184.00,0.0599
1183.00,0.0599
1182.00,0.0599
1181.00,0.0600
1180.00,0.0601
1179.00,0.0603
1178.00,0.0606
1177.00,0.0609
1176.00,0.0613
1175.00,0.0618
1174.00,0.0622
1173.00,0.0626
1172.00,0.0629
1171.00,0.0631
1170.00,0.0633
1169.00,0.0635
1168.00,0.0637
1167.00,0.0639
1166.00,0.0641
1165.00,0.0643
1164.00,0.0646
1163.00,0.0649
1162.00,0.0653
1161.00,0.0656
1160.00,0.0658
1159.00,0.0661
1158.00,0.0663
1157.00,0.0664
1156.00,0.0665
1155.00,0.0664
1154.00,0.0663
1153.00,0.0660
1152.00,0.0657
1151.00,0.0653
1150.00,0.0648
1149.00,0.0642
1148.00,0.0636
1147.00,0.0629
1146.00,0.0623
1145.00,0.0616
1144.00,0.0609
1143.00,0.0603
1142.00,0.0597
1141.00,0.0592
1140.00,0.0588
1139.00,0.0585
1138.00,0.0582
1137.00,0.0580
1136.00,0.0579
1135.00,0.0578
1134.00,0.0578
1133.00,0.0579
1132.00,0.0580
1131.00,0.0582
1130.00,0.0585
1129.00,0.0587
1128.00,0.0589
1127.00,0.0592
1126.00,0.0594
1125.00,0.0597
1124.00,0.0599
1123.00,0.0601
1122.00,0.0603
1121.00,0.0605
1120.00,0.0606
1119.00,0.0608
1118.00,0.0611
1117.00,0.0613
1116.00,0.0615
1115.00,0.0616
1114.00,0.0618
1113.00,0.0619
1112.00,0.0621
1111.00,0.0623
1110.00,0.0624
1109.00,0.0626
1108.00,0.0628
1107.00,0.0630
1106.00,0.0633
1105.00,0.0636
1104.00,0.0639
1103.00,0.0642
1102.00,0.0644
1101.00,0.0647
1100.00,0.0650
1099.00,0.0653
1098.00,0.0657
1097.00,0.0661
1096.00,0.0666
1095.00,0.0671
1094.00,0.0677
1093.00,0.0683
1092.00,0.0691
1091.00,0.0699
1090.00,0.0708
1089.00,0.0718
1088.00,0.0729
1087.00,0.0739
1086.00,0.0750
1085.00,0.0760
1084.00,0.0771
1083.00,0.0782
1082.00,0.0792
1081.00,0.0800
1080.00,0.0807
1079.00,0.0812
1078.00,0.0815
1077.00,0.0818
1076.00,0.0819
1075.00,0.0818
1074.00,0.0817
1073.00,0.0815
1072.00,0.0812
1071.00,0.0811
1070.00,0.0810
1069.00,0.0811
1068.00,0.0813
1067.00,0.0816
1066.00,0.0819
1065.00,0.0823
1064.00,0.0828
1063.00,0.0833
1062.00,0.0838
1061.00,0.0843
1060.00,0.0847
1059.00,0.0851
1058.00,0.0854
1057.00,0.0857
1056.00,0.0860
1055.00,0.0861
1054.00,0.0862
1053.00,0.0861
1052.00,0.0861
1051.00,0.0860
1050.00,0.0858
1049.00,0.0856
1048.00,0.0855
1047.00,0.0853
1046.00,0.0851
1045.00,0.0849
1044.00,0.0847
1043.00,0.0844
1042.00,0.0842
1041.00,0.0838
1040.00,0.0835
1039.00,0.0833
1038.00,0.0830
1037.00,0.0827
1036.00,0.0825
1035.00,0.0823
1034.00,0.0821
1033.00,0.0820
1032.00,0.0819
1031.00,0.0818
1030.00,0.0817
1029.00,0.0815
1028.00,0.0813
1027.00,0.0810
1026.00,0.0806
1025.00,0.0802
1024.00,0.0797
1023.00,0.0792
1022.00,0.0785
1021.00,0.0779
1020.00,0.0772
1019.00,0.0764
1018.00,0.0756
1017.00,0.0748
1016.00,0.0739
1015.00,0.0730
1014.00,0.0721
1013.00,0.0713
1012.00,0.0704
1011.00,0.0696
1010.00,0.0687
1009.00,0.0679
1008.00,0.0671
1007.00,0.0662
1006.00,0.0655
1005.00,0.0647
1004.00,0.0641
1003.00,0.0635
1002.00,0.0628
1001.00,0.0621
1000.00,0.0613
999.00,0.0606
998.00,0.0598
997.00,0.0590
996.00,0.0582
995.00,0.0573
994.00,0.0564
993.00,0.0555
992.00,0.0546
991.00,0.0537
990.00,0.0528
989.00,0.0520
988.00,0.0512
987.00,0.0504
986.00,0.0497
985.00,0.0490
984.00,0.0485
983.00,0.0480
982.00,0.0477
981.00,0.0474
980.00,0.0471
979.00,0.0469
978.00,0.0468
977.00,0.0467
976.00,0.0468
975.00,0.0468
974.00,0.0469
973.00,0.0470
972.00,0.0470
971.00,0.0471
970.00,0.0472
969.00,0.0472
968.00,0.0472
967.00,0.0473
966.00,0.0473
965.00,0.0473
964.00,0.0473
963.00,0.0473
962.00,0.0472
961.00,0.0471
960.00,0.0470
959.00,0.0469
958.00,0.0467
957.00,0.0466
956.00,0.0464
955.00,0.0462
954.00,0.0461
953.00,0.0460
952.00,0.0459
951.00,0.0458
950.00,0.0458
949.00,0.0458
948.00,0.0458
947.00,0.0459
946.00,0.0461
945.00,0.0462
944.00,0.0464
943.00,0.0465
942.00,0.0468
941.00,0.0470
940.00,0.0473
939.00,0.0475
938.00,0.0477
937.00,0.0479
936.00,0.0481
935.00,0.0483
934.00,0.0484
933.00,0.0486
932.00,0.0486
931.00,0.0487
930.00,0.0487
929.00,0.0486
928.00,0.0486
927.00,0.0485
926.00,0.0484
925.00,0.0482
924.00,0.0480
923.00,0.0478
922.00,0.0476
921.00,0.0474
920.00,0.0472
919.00,0.0470
918.00,0.0468
917.00,0.0466
916.00,0.0465
915.00,0.0463
914.00,0.0461
913.00,0.0459
912.00,0.0456
911.00,0.0454
910.00,0.0453
909.00,0.0451
908.00,0.0450
907.00,0.0449
906.00,0.0448
905.00,0.0446
904.00,0.0445
903.00,0.0444
902.00,0.0443
901.00,0.0442
900.00,0.0440
899.00,0.0439
898.00,0.0438
897.00,0.0438
896.00,0.0437
895.00,0.0436
894.00,0.0435
893.00,0.0434
892.00,0.0434
891.00,0.0433
890.00,0.0433
889.00,0.0432
888.00,0.0432
887.00,0.0431
886.00,0.0431
885.00,0.0431
884.00,0.0430
883.00,0.0430
882.00,0.0430
881.00,0.0430
880.00,0.0430
879.00,0.0429
878.00,0.0428
877.00,0.0427
876.00,0.0427
875.00,0.0426
874.00,0.0426
873.00,0.0426
872.00,0.0425
871.00,0.0425
870.00,0.0425
869.00,0.0426
868.00,0.0426
867.00,0.0427
866.00,0.0428
865.00,0.0429
864.00,0.0431
863.00,0.0433
862.00,0.0435
861.00,0.0437
860.00,0.0440
859.00,0.0442
858.00,0.0445
857.00,0.0448
856.00,0.0451
855.00,0.0454
854.00,0.0457
853.00,0.0460
852.00,0.0462
851.00,0.0464
850.00,0.0465
849.00,0.0466
848.00,0.0466
847.00,0.0466
846.00,0.0466
845.00,0.0466
844.00,0.0467
843.00,0.0469
842.00,0.0472
841.00,0.0475
840.00,0.0477
839.00,0.0481
838.00,0.0484
837.00,0.0487
836.00,0.0491
835.00,0.0494
834.00,0.0498
833.00,0.0503
832.00,0.0507
831.00,0.0511
830.00,0.0514
829.00,0.0517
828.00,0.0520
827.00,0.0522
826.00,0.0524
825.00,0.0525
824.00,0.0526
823.00,0.0527
822.00,0.0528
821.00,0.0529
820.00,0.0531
819.00,0.0533
818.00,0.0535
817.00,0.0537
816.00,0.0540
815.00,0.0542
814.00,0.0545
813.00,0.0548
812.00,0.0551
811.00,0.0553
810.00,0.0556
809.00,0.0558
808.00,0.0562
807.00,0.0565
806.00,0.0568
805.00,0.0572
804.00,0.0575
803.00,0.0579
802.00,0.0582
801.00,0.0586
800.00,0.0590
799.00,0.0594
798.00,0.0598
797.00,0.0603
796.00,0.0608
795.00,0.0613
794.00,0.0618
793.00,0.0623
792.00,0.0630
791.00,0.0636
790.00,0.0642
789.00,0.0649
788.00,0.0655
787.00,0.0661
786.00,0.0667
785.00,0.0673
784.00,0.0678
783.00,0.0683
782.00,0.0687
781.00,0.0690
780.00,0.0693
779.00,0.0695
778.00,0.0697
777.00,0.0699
776.00,0.0701
775.00,0.0703
774.00,0.0705
773.00,0.0707
772.00,0.0709
771.00,0.0711
770.00,0.0713
769.00,0.0716
768.00,0.0718
767.00,0.0720
766.00,0.0722
765.00,0.0725
764.00,0.0727
763.00,0.0728
762.00,0.0730
761.00,0.0732
760.00,0.0735
759.00,0.0739
758.00,0.0742
757.00,0.0746
756.00,0.0749
755.00,0.0752
754.00,0.0757
753.00,0.0761
752.00,0.0767
751.00,0.0772
750.00,0.0778
749.00,0.0783
748.00,0.0788
747.00,0.0793
746.00,0.0797
745.00,0.0801
744.00,0.0805
743.00,0.0809
742.00,0.0812
741.00,0.0816
740.00,0.0819
739.00,0.0822
738.00,0.0826
737.00,0.0830
736.00,0.0834
735.00,0.0840
734.00,0.0845
733.00,0.0851
732.00,0.0857
731.00,0.0864
730.00,0.0873
729.00,0.0882
728.00,0.0892
727.00,0.0902
726.00,0.0913
725.00,0.0924
724.00,0.0935
723.00,0.0946
722.00,0.0957
721.00,0.0968
720.00,0.0979
719.00,0.0989
718.00,0.0999
717.00,0.1008
716.00,0.1018
715.00,0.1027
714.00,0.1035
713.00,0.1043
712.00,0.1052
711.00,0.1061
710.00,0.1070
709.00,0.1079
708.00,0.1089
707.00,0.1099
706.00,0.1109
705.00,0.1120
704.00,0.1130
703.00,0.1141
702.00,0.1150
701.00,0.1159
700.00,0.1167
699.00,0.1173
698.00,0.1178
697.00,0.1180
696.00,0.1182
695.00,0.1181
694.00,0.1180
693.00,0.1178
692.00,0.1176
691.00,0.1175
690.00,0.1175
689.00,0.1175
688.00,0.1176
687.00,0.1178
686.00,0.1179
685.00,0.1180
684.00,0.1181
683.00,0.1182
682.00,0.1183
681.00,0.1185
680.00,0.1187
679.00,0.1188
678.00,0.1189
677.00,0.1191
676.00,0.1194
675.00,0.1196
674.00,0.1199
673.00,0.1201
672.00,0.1203
671.00,0.1204
670.00,0.1205
669.00,0.1208
668.00,0.1214
667.00,0.1221
666.00,0.1222
665.00,0.1222
664.00,0.1222
663.00,0.1225
662.00,0.1227
661.00,0.1230
660.00,0.1233
659.00,0.1235
658.00,0.1237
657.00,0.1240
656.00,0.1242
655.00,0.1245
654.00,0.1246
653.00,0.1248
652.00,0.1249
651.00,0.1251
650.00,0.1253
649.00,0.1255
648.00,0.1258
647.00,0.1261
646.00,0.1263
645.00,0.1266
644.00,0.1268
643.00,0.1271
642.00,0.1274
641.00,0.1277
640.00,0.1280
639.00,0.1283
638.00,0.1285
637.00,0.1288
636.00,0.1293
635.00,0.1297
634.00,0.1301
633.00,0.1305
632.00,0.1308
631.00,0.1311
630.00,0.1314
629.00,0.1318
628.00,0.1322
627.00,0.1326
626.00,0.1329
625.00,0.1331
624.00,0.1334
623.00,0.1336
622.00,0.1337
621.00,0.1338
620.00,0.1340
619.00,0.1342
618.00,0.1344
617.00,0.1345
616.00,0.1346
615.00,0.1347
614.00,0.1348
613.00,0.1350
612.00,0.1351
611.00,0.1351
610.00,0.1351
609.00,0.1351
608.00,0.1352
607.00,0.1353
606.00,0.1354
605.00,0.1354
604.00,0.1355
603.00,0.1356
602.00,0.1357
601.00,0.1358
600.00,0.1361
599.00,0.1363
598.00,0.1365
597.00,0.1366
596.00,0.1367
595.00,0.1368
594.00,0.1370
593.00,0.1373
592.00,0.1376
591.00,0.1379
590.00,0.1381
589.00,0.1383
588.00,0.1386
587.00,0.1389
586.00,0.1392
585.00,0.1395
584.00,0.1400
583.00,0.1404
582.00,0.1408
581.00,0.1411
580.00,0.1414
579.00,0.1416
578.00,0.1418
577.00,0.1420
576.00,0.1424
575.00,0.1429
574.00,0.1431
573.00,0.1433
572.00,0.1434
571.00,0.1436
570.00,0.1438
569.00,0.1441
568.00,0.1446
567.00,0.1451
566.00,0.1455
565.00,0.1457
564.00,0.1460
563.00,0.1463
562.00,0.1465
561.00,0.1468
560.00,0.1472
559.00,0.1476
558.00,0.1479
557.00,0.1482
556.00,0.1485
555.00,0.1487
554.00,0.1487
553.00,0.1489
552.00,0.1492
551.00,0.1495
550.00,0.1498
549.00,0.1501
548.00,0.1504
547.00,0.1508
546.00,0.1510
545.00,0.1514
544.00,0.1518
543.00,0.1522
542.00,0.1525
541.00,0.1528
540.00,0.1533
539.00,0.1537
538.00,0.1541
537.00,0.1544
536.00,0.1546
535.00,0.1548
534.00,0.1549
533.00,0.1552
532.00,0.1556
531.00,0.1562
530.00,0.1565
529.00,0.1567
528.00,0.1568
527.00,0.1568
526.00,0.1568
525.00,0.1569
524.00,0.1571
523.00,0.1573
522.00,0.1574
521.00,0.1577
520.00,0.1580
519.00,0.1583
518.00,0.1583
517.00,0.1583
516.00,0.1586
515.00,0.1589
514.00,0.1591
513.00,0.1593
512.00,0.1595
511.00,0.1598
510.00,0.1600
509.00,0.1601
508.00,0.1602
507.00,0.1604
506.00,0.1604
505.00,0.1604
504.00,0.1604
503.00,0.1603
502.00,0.1601
501.00,0.1601
500.00,0.1603
499.00,0.1604
498.00,0.1603
497.00,0.1602
496.00,0.1602
495.00,0.1603
494.00,0.1602
493.00,0.1600
492.00,0.1599
491.00,0.1600
490.00,0.1601
489.00,0.1602
488.00,0.1603
487.00,0.1602
486.00,0.1599
485.00,0.1598
484.00,0.1600
483.00,0.1605
482.00,0.1608
481.00,0.1611
480.00,0.1612
479.00,0.1610
478.00,0.1605
477.00,0.1602
476.00,0.1603
475.00,0.1605
474.00,0.1605
473.00,0.1602
472.00,0.1599
471.00,0.1597
470.00,0.1594
469.00,0.1594
468.00,0.1596
467.00,0.1597
466.00,0.1597
465.00,0.1596
464.00,0.1597
463.00,0.1598
462.00,0.1598
461.00,0.1599
460.00,0.1600
459.00,0.1599
458.00,0.1597
457.00,0.1600
456.00,0.1607
455.00,0.1612
454.00,0.1611
453.00,0.1607
452.00,0.1602
451.00,0.1595
450.00,0.1587
449.00,0.1579
448.00,0.1575
447.00,0.1573
446.00,0.1570
445.00,0.1569
444.00,0.1569
443.00,0.1568
442.00,0.1564
441.00,0.1559
440.00,0.1555
439.00,0.1551
438.00,0.1545
437.00,0.1542
436.00,0.1542
435.00,0.1544
434.00,0.1543
433.00,0.1543
432.00,0.1545
431.00,0.1545
430.00,0.1543
429.00,0.1542
428.00,0.1544
427.00,0.1547
426.00,0.1547
425.00,0.1545
424.00,0.1547
423.00,0.1548
422.00,0.1546
421.00,0.1542
420.00,0.1539
419.00,0.1537
418.00,0.1533
417.00,0.1531
416.00,0.1535
415.00,0.1538
414.00,0.1539
413.00,0.1538
412.00,0.1536
411.00,0.1530
410.00,0.1524
409.00,0.1521
408.00,0.1522
407.00,0.1519
406.00,0.1505
405.00,0.1490
404.00,0.1482
403.00,0.1479
402.00,0.1472
401.00,0.1468
400.00,0.1471
