Created as New Dataset,Sample 626 By YargerLab Date Friday, June 06 2025
cm-1,A
4000.00,0.0071
3999.00,0.0071
3998.00,0.0071
3997.00,0.0071
3996.00,0.0071
3995.00,0.0071
3994.00,0.0071
3993.00,0.0071
3992.00,0.0071
3991.00,0.0071
3990.00,0.0071
3989.00,0.0071
3988.00,0.0071
3987.00,0.0071
3986.00,0.0071
3985.00,0.0071
3984.00,0.0071
3983.00,0.0071
3982.00,0.0071
3981.00,0.0071
3980.00,0.0071
3979.00,0.0071
3978.00,0.0071
3977.00,0.0071
3976.00,0.0071
3975.00,0.0071
3974.00,0.0071
3973.00,0.0071
3972.00,0.0071
3971.00,0.0071
3970.00,0.0071
3969.00,0.0072
3968.00,0.0072
3967.00,0.0072
3966.00,0.0072
3965.00,0.0072
3964.00,0.0072
3963.00,0.0072
3962.00,0.0072
3961.00,0.0071
3960.00,0.0071
3959.00,0.0072
3958.00,0.0072
3957.00,0.0072
3956.00,0.0072
3955.00,0.0072
3954.00,0.0071
3953.00,0.0071
3952.00,0.0071
3951.00,0.0071
3950.00,0.0071
3949.00,0.0071
3948.00,0.0071
3947.00,0.0071
3946.00,0.0071
3945.00,0.0071
3944.00,0.0072
3943.00,0.0071
3942.00,0.0071
3941.00,0.0071
3940.00,0.0071
3939.00,0.0072
3938.00,0.0072
3937.00,0.0072
3936.00,0.0072
3935.00,0.0072
3934.00,0.0072
3933.00,0.0072
3932.00,0.0072
3931.00,0.0072
3930.00,0.0071
3929.00,0.0071
3928.00,0.0071
3927.00,0.0072
3926.00,0.0072
3925.00,0.0072
3924.00,0.0072
3923.00,0.0071
3922.00,0.0071
3921.00,0.0071
3920.00,0.0071
3919.00,0.0071
3918.00,0.0071
3917.00,0.0071
3916.00,0.0071
3915.00,0.0071
3914.00,0.0071
3913.00,0.0071
3912.00,0.0070
3911.00,0.0070
3910.00,0.0070
3909.00,0.0070
3908.00,0.0070
3907.00,0.0070
3906.00,0.0070
3905.00,0.0070
3904.00,0.0069
3903.00,0.0069
3902.00,0.0070
3901.00,0.0070
3900.00,0.0070
3899.00,0.0070
3898.00,0.0070
3897.00,0.0070
3896.00,0.0070
3895.00,0.0069
3894.00,0.0069
3893.00,0.0070
3892.00,0.0070
3891.00,0.0069
3890.00,0.0069
3889.00,0.0069
3888.00,0.0069
3887.00,0.0069
3886.00,0.0069
3885.00,0.0069
3884.00,0.0069
3883.00,0.0069
3882.00,0.0069
3881.00,0.0069
3880.00,0.0069
3879.00,0.0069
3878.00,0.0069
3877.00,0.0069
3876.00,0.0069
3875.00,0.0069
3874.00,0.0069
3873.00,0.0069
3872.00,0.0069
3871.00,0.0069
3870.00,0.0069
3869.00,0.0069
3868.00,0.0069
3867.00,0.0069
3866.00,0.0069
3865.00,0.0069
3864.00,0.0069
3863.00,0.0069
3862.00,0.0069
3861.00,0.0069
3860.00,0.0069
3859.00,0.0069
3858.00,0.0068
3857.00,0.0068
3856.00,0.0067
3855.00,0.0068
3854.00,0.0068
3853.00,0.0069
3852.00,0.0069
3851.00,0.0069
3850.00,0.0070
3849.00,0.0069
3848.00,0.0069
3847.00,0.0069
3846.00,0.0068
3845.00,0.0068
3844.00,0.0068
3843.00,0.0068
3842.00,0.0068
3841.00,0.0068
3840.00,0.0069
3839.00,0.0069
3838.00,0.0069
3837.00,0.0069
3836.00,0.0069
3835.00,0.0069
3834.00,0.0069
3833.00,0.0069
3832.00,0.0069
3831.00,0.0069
3830.00,0.0069
3829.00,0.0069
3828.00,0.0069
3827.00,0.0069
3826.00,0.0069
3825.00,0.0068
3824.00,0.0068
3823.00,0.0068
3822.00,0.0068
3821.00,0.0068
3820.00,0.0068
3819.00,0.0068
3818.00,0.0068
3817.00,0.0068
3816.00,0.0068
3815.00,0.0068
3814.00,0.0068
3813.00,0.0068
3812.00,0.0068
3811.00,0.0068
3810.00,0.0068
3809.00,0.0068
3808.00,0.0068
3807.00,0.0068
3806.00,0.0068
3805.00,0.0068
3804.00,0.0068
3803.00,0.0068
3802.00,0.0068
3801.00,0.0068
3800.00,0.0067
3799.00,0.0068
3798.00,0.0068
3797.00,0.0068
3796.00,0.0068
3795.00,0.0068
3794.00,0.0068
3793.00,0.0068
3792.00,0.0068
3791.00,0.0068
3790.00,0.0067
3789.00,0.0067
3788.00,0.0067
3787.00,0.0068
3786.00,0.0068
3785.00,0.0068
3784.00,0.0068
3783.00,0.0068
3782.00,0.0068
3781.00,0.0068
3780.00,0.0068
3779.00,0.0068
3778.00,0.0069
3777.00,0.0069
3776.00,0.0069
3775.00,0.0068
3774.00,0.0068
3773.00,0.0068
3772.00,0.0068
3771.00,0.0068
3770.00,0.0068
3769.00,0.0068
3768.00,0.0068
3767.00,0.0069
3766.00,0.0069
3765.00,0.0069
3764.00,0.0069
3763.00,0.0069
3762.00,0.0068
3761.00,0.0068
3760.00,0.0068
3759.00,0.0068
3758.00,0.0068
3757.00,0.0068
3756.00,0.0068
3755.00,0.0068
3754.00,0.0068
3753.00,0.0067
3752.00,0.0067
3751.00,0.0067
3750.00,0.0067
3749.00,0.0067
3748.00,0.0067
3747.00,0.0067
3746.00,0.0067
3745.00,0.0067
3744.00,0.0067
3743.00,0.0067
3742.00,0.0067
3741.00,0.0067
3740.00,0.0067
3739.00,0.0067
3738.00,0.0067
3737.00,0.0067
3736.00,0.0067
3735.00,0.0067
3734.00,0.0067
3733.00,0.0066
3732.00,0.0066
3731.00,0.0066
3730.00,0.0066
3729.00,0.0067
3728.00,0.0067
3727.00,0.0067
3726.00,0.0067
3725.00,0.0067
3724.00,0.0067
3723.00,0.0066
3722.00,0.0066
3721.00,0.0066
3720.00,0.0066
3719.00,0.0066
3718.00,0.0066
3717.00,0.0066
3716.00,0.0066
3715.00,0.0066
3714.00,0.0066
3713.00,0.0066
3712.00,0.0066
3711.00,0.0066
3710.00,0.0066
3709.00,0.0066
3708.00,0.0066
3707.00,0.0066
3706.00,0.0066
3705.00,0.0065
3704.00,0.0066
3703.00,0.0066
3702.00,0.0066
3701.00,0.0066
3700.00,0.0066
3699.00,0.0065
3698.00,0.0065
3697.00,0.0064
3696.00,0.0064
3695.00,0.0064
3694.00,0.0063
3693.00,0.0063
3692.00,0.0062
3691.00,0.0062
3690.00,0.0062
3689.00,0.0062
3688.00,0.0062
3687.00,0.0062
3686.00,0.0062
3685.00,0.0062
3684.00,0.0062
3683.00,0.0061
3682.00,0.0061
3681.00,0.0060
3680.00,0.0059
3679.00,0.0058
3678.00,0.0057
3677.00,0.0056
3676.00,0.0056
3675.00,0.0055
3674.00,0.0054
3673.00,0.0054
3672.00,0.0054
3671.00,0.0055
3670.00,0.0054
3669.00,0.0054
3668.00,0.0054
3667.00,0.0054
3666.00,0.0054
3665.00,0.0053
3664.00,0.0053
3663.00,0.0052
3662.00,0.0052
3661.00,0.0052
3660.00,0.0052
3659.00,0.0051
3658.00,0.0051
3657.00,0.0051
3656.00,0.0052
3655.00,0.0052
3654.00,0.0052
3653.00,0.0052
3652.00,0.0052
3651.00,0.0052
3650.00,0.0052
3649.00,0.0052
3648.00,0.0053
3647.00,0.0053
3646.00,0.0053
3645.00,0.0054
3644.00,0.0054
3643.00,0.0055
3642.00,0.0055
3641.00,0.0055
3640.00,0.0055
3639.00,0.0055
3638.00,0.0055
3637.00,0.0055
3636.00,0.0056
3635.00,0.0057
3634.00,0.0058
3633.00,0.0058
3632.00,0.0059
3631.00,0.0060
3630.00,0.0060
3629.00,0.0061
3628.00,0.0061
3627.00,0.0061
3626.00,0.0061
3625.00,0.0061
3624.00,0.0061
3623.00,0.0061
3622.00,0.0061
3621.00,0.0061
3620.00,0.0061
3619.00,0.0061
3618.00,0.0061
3617.00,0.0061
3616.00,0.0062
3615.00,0.0062
3614.00,0.0062
3613.00,0.0062
3612.00,0.0062
3611.00,0.0062
3610.00,0.0062
3609.00,0.0063
3608.00,0.0063
3607.00,0.0063
3606.00,0.0063
3605.00,0.0063
3604.00,0.0063
3603.00,0.0063
3602.00,0.0063
3601.00,0.0063
3600.00,0.0063
3599.00,0.0063
3598.00,0.0063
3597.00,0.0063
3596.00,0.0063
3595.00,0.0063
3594.00,0.0063
3593.00,0.0062
3592.00,0.0062
3591.00,0.0062
3590.00,0.0062
3589.00,0.0062
3588.00,0.0062
3587.00,0.0062
3586.00,0.0062
3585.00,0.0062
3584.00,0.0062
3583.00,0.0063
3582.00,0.0063
3581.00,0.0063
3580.00,0.0063
3579.00,0.0063
3578.00,0.0063
3577.00,0.0063
3576.00,0.0062
3575.00,0.0062
3574.00,0.0062
3573.00,0.0062
3572.00,0.0062
3571.00,0.0061
3570.00,0.0061
3569.00,0.0062
3568.00,0.0062
3567.00,0.0062
3566.00,0.0062
3565.00,0.0062
3564.00,0.0062
3563.00,0.0062
3562.00,0.0062
3561.00,0.0062
3560.00,0.0061
3559.00,0.0061
3558.00,0.0061
3557.00,0.0062
3556.00,0.0062
3555.00,0.0062
3554.00,0.0062
3553.00,0.0062
3552.00,0.0062
3551.00,0.0062
3550.00,0.0062
3549.00,0.0062
3548.00,0.0062
3547.00,0.0063
3546.00,0.0063
3545.00,0.0063
3544.00,0.0063
3543.00,0.0062
3542.00,0.0062
3541.00,0.0063
3540.00,0.0063
3539.00,0.0063
3538.00,0.0063
3537.00,0.0063
3536.00,0.0063
3535.00,0.0063
3534.00,0.0063
3533.00,0.0063
3532.00,0.0062
3531.00,0.0062
3530.00,0.0062
3529.00,0.0062
3528.00,0.0062
3527.00,0.0062
3526.00,0.0062
3525.00,0.0062
3524.00,0.0062
3523.00,0.0063
3522.00,0.0063
3521.00,0.0063
3520.00,0.0063
3519.00,0.0063
3518.00,0.0063
3517.00,0.0063
3516.00,0.0063
3515.00,0.0063
3514.00,0.0062
3513.00,0.0062
3512.00,0.0062
3511.00,0.0062
3510.00,0.0062
3509.00,0.0062
3508.00,0.0062
3507.00,0.0062
3506.00,0.0062
3505.00,0.0062
3504.00,0.0062
3503.00,0.0062
3502.00,0.0062
3501.00,0.0061
3500.00,0.0061
3499.00,0.0061
3498.00,0.0061
3497.00,0.0061
3496.00,0.0061
3495.00,0.0062
3494.00,0.0062
3493.00,0.0062
3492.00,0.0062
3491.00,0.0062
3490.00,0.0062
3489.00,0.0062
3488.00,0.0062
3487.00,0.0061
3486.00,0.0061
3485.00,0.0061
3484.00,0.0062
3483.00,0.0062
3482.00,0.0062
3481.00,0.0062
3480.00,0.0061
3479.00,0.0061
3478.00,0.0061
3477.00,0.0061
3476.00,0.0061
3475.00,0.0061
3474.00,0.0062
3473.00,0.0062
3472.00,0.0062
3471.00,0.0062
3470.00,0.0062
3469.00,0.0061
3468.00,0.0061
3467.00,0.0061
3466.00,0.0061
3465.00,0.0061
3464.00,0.0061
3463.00,0.0061
3462.00,0.0061
3461.00,0.0061
3460.00,0.0061
3459.00,0.0061
3458.00,0.0061
3457.00,0.0061
3456.00,0.0061
3455.00,0.0061
3454.00,0.0061
3453.00,0.0062
3452.00,0.0062
3451.00,0.0062
3450.00,0.0062
3449.00,0.0062
3448.00,0.0062
3447.00,0.0061
3446.00,0.0061
3445.00,0.0061
3444.00,0.0061
3443.00,0.0061
3442.00,0.0062
3441.00,0.0062
3440.00,0.0062
3439.00,0.0062
3438.00,0.0062
3437.00,0.0062
3436.00,0.0062
3435.00,0.0063
3434.00,0.0063
3433.00,0.0063
3432.00,0.0063
3431.00,0.0063
3430.00,0.0063
3429.00,0.0063
3428.00,0.0063
3427.00,0.0063
3426.00,0.0063
3425.00,0.0063
3424.00,0.0064
3423.00,0.0064
3422.00,0.0064
3421.00,0.0065
3420.00,0.0065
3419.00,0.0066
3418.00,0.0066
3417.00,0.0066
3416.00,0.0066
3415.00,0.0066
3414.00,0.0066
3413.00,0.0066
3412.00,0.0066
3411.00,0.0067
3410.00,0.0067
3409.00,0.0068
3408.00,0.0069
3407.00,0.0069
3406.00,0.0069
3405.00,0.0070
3404.00,0.0070
3403.00,0.0070
3402.00,0.0070
3401.00,0.0070
3400.00,0.0071
3399.00,0.0072
3398.00,0.0073
3397.00,0.0073
3396.00,0.0074
3395.00,0.0075
3394.00,0.0075
3393.00,0.0076
3392.00,0.0078
3391.00,0.0079
3390.00,0.0081
3389.00,0.0082
3388.00,0.0084
3387.00,0.0085
3386.00,0.0087
3385.00,0.0089
3384.00,0.0091
3383.00,0.0092
3382.00,0.0093
3381.00,0.0095
3380.00,0.0096
3379.00,0.0098
3378.00,0.0100
3377.00,0.0101
3376.00,0.0103
3375.00,0.0105
3374.00,0.0106
3373.00,0.0107
3372.00,0.0108
3371.00,0.0108
3370.00,0.0109
3369.00,0.0111
3368.00,0.0114
3367.00,0.0118
3366.00,0.0122
3365.00,0.0126
3364.00,0.0131
3363.00,0.0135
3362.00,0.0139
3361.00,0.0143
3360.00,0.0148
3359.00,0.0153
3358.00,0.0159
3357.00,0.0165
3356.00,0.0171
3355.00,0.0177
3354.00,0.0182
3353.00,0.0188
3352.00,0.0194
3351.00,0.0202
3350.00,0.0212
3349.00,0.0222
3348.00,0.0233
3347.00,0.0245
3346.00,0.0256
3345.00,0.0269
3344.00,0.0283
3343.00,0.0299
3342.00,0.0315
3341.00,0.0333
3340.00,0.0351
3339.00,0.0370
3338.00,0.0389
3337.00,0.0409
3336.00,0.0428
3335.00,0.0445
3334.00,0.0459
3333.00,0.0471
3332.00,0.0480
3331.00,0.0487
3330.00,0.0491
3329.00,0.0494
3328.00,0.0495
3327.00,0.0495
3326.00,0.0494
3325.00,0.0493
3324.00,0.0491
3323.00,0.0489
3322.00,0.0485
3321.00,0.0480
3320.00,0.0474
3319.00,0.0465
3318.00,0.0456
3317.00,0.0445
3316.00,0.0433
3315.00,0.0421
3314.00,0.0409
3313.00,0.0397
3312.00,0.0384
3311.00,0.0371
3310.00,0.0359
3309.00,0.0348
3308.00,0.0338
3307.00,0.0328
3306.00,0.0320
3305.00,0.0312
3304.00,0.0305
3303.00,0.0299
3302.00,0.0293
3301.00,0.0288
3300.00,0.0282
3299.00,0.0277
3298.00,0.0272
3297.00,0.0267
3296.00,0.0263
3295.00,0.0259
3294.00,0.0256
3293.00,0.0252
3292.00,0.0249
3291.00,0.0246
3290.00,0.0243
3289.00,0.0239
3288.00,0.0236
3287.00,0.0232
3286.00,0.0228
3285.00,0.0224
3284.00,0.0220
3283.00,0.0216
3282.00,0.0213
3281.00,0.0210
3280.00,0.0207
3279.00,0.0204
3278.00,0.0202
3277.00,0.0200
3276.00,0.0199
3275.00,0.0197
3274.00,0.0196
3273.00,0.0196
3272.00,0.0195
3271.00,0.0195
3270.00,0.0195
3269.00,0.0195
3268.00,0.0196
3267.00,0.0196
3266.00,0.0196
3265.00,0.0196
3264.00,0.0195
3263.00,0.0195
3262.00,0.0194
3261.00,0.0194
3260.00,0.0193
3259.00,0.0192
3258.00,0.0190
3257.00,0.0189
3256.00,0.0188
3255.00,0.0188
3254.00,0.0187
3253.00,0.0187
3252.00,0.0186
3251.00,0.0185
3250.00,0.0185
3249.00,0.0184
3248.00,0.0183
3247.00,0.0183
3246.00,0.0184
3245.00,0.0184
3244.00,0.0185
3243.00,0.0185
3242.00,0.0185
3241.00,0.0185
3240.00,0.0184
3239.00,0.0182
3238.00,0.0181
3237.00,0.0179
3236.00,0.0177
3235.00,0.0175
3234.00,0.0173
3233.00,0.0171
3232.00,0.0169
3231.00,0.0167
3230.00,0.0165
3229.00,0.0162
3228.00,0.0160
3227.00,0.0157
3226.00,0.0155
3225.00,0.0152
3224.00,0.0149
3223.00,0.0147
3222.00,0.0144
3221.00,0.0142
3220.00,0.0140
3219.00,0.0138
3218.00,0.0136
3217.00,0.0135
3216.00,0.0133
3215.00,0.0132
3214.00,0.0130
3213.00,0.0129
3212.00,0.0128
3211.00,0.0126
3210.00,0.0125
3209.00,0.0124
3208.00,0.0123
3207.00,0.0122
3206.00,0.0121
3205.00,0.0119
3204.00,0.0118
3203.00,0.0117
3202.00,0.0116
3201.00,0.0115
3200.00,0.0114
3199.00,0.0114
3198.00,0.0112
3197.00,0.0111
3196.00,0.0110
3195.00,0.0110
3194.00,0.0109
3193.00,0.0108
3192.00,0.0108
3191.00,0.0107
3190.00,0.0107
3189.00,0.0107
3188.00,0.0107
3187.00,0.0106
3186.00,0.0106
3185.00,0.0106
3184.00,0.0105
3183.00,0.0105
3182.00,0.0105
3181.00,0.0105
3180.00,0.0105
3179.00,0.0105
3178.00,0.0105
3177.00,0.0105
3176.00,0.0104
3175.00,0.0104
3174.00,0.0103
3173.00,0.0103
3172.00,0.0103
3171.00,0.0102
3170.00,0.0102
3169.00,0.0102
3168.00,0.0101
3167.00,0.0101
3166.00,0.0101
3165.00,0.0101
3164.00,0.0101
3163.00,0.0101
3162.00,0.0100
3161.00,0.0100
3160.00,0.0100
3159.00,0.0100
3158.00,0.0100
3157.00,0.0100
3156.00,0.0100
3155.00,0.0100
3154.00,0.0100
3153.00,0.0100
3152.00,0.0100
3151.00,0.0101
3150.00,0.0101
3149.00,0.0102
3148.00,0.0103
3147.00,0.0103
3146.00,0.0103
3145.00,0.0103
3144.00,0.0103
3143.00,0.0103
3142.00,0.0103
3141.00,0.0103
3140.00,0.0104
3139.00,0.0104
3138.00,0.0104
3137.00,0.0105
3136.00,0.0105
3135.00,0.0106
3134.00,0.0106
3133.00,0.0107
3132.00,0.0107
3131.00,0.0108
3130.00,0.0109
3129.00,0.0110
3128.00,0.0110
3127.00,0.0111
3126.00,0.0112
3125.00,0.0113
3124.00,0.0113
3123.00,0.0114
3122.00,0.0115
3121.00,0.0117
3120.00,0.0118
3119.00,0.0119
3118.00,0.0121
3117.00,0.0123
3116.00,0.0125
3115.00,0.0127
3114.00,0.0130
3113.00,0.0132
3112.00,0.0134
3111.00,0.0136
3110.00,0.0139
3109.00,0.0141
3108.00,0.0143
3107.00,0.0145
3106.00,0.0147
3105.00,0.0148
3104.00,0.0149
3103.00,0.0149
3102.00,0.0149
3101.00,0.0149
3100.00,0.0148
3099.00,0.0147
3098.00,0.0145
3097.00,0.0143
3096.00,0.0141
3095.00,0.0139
3094.00,0.0137
3093.00,0.0136
3092.00,0.0134
3091.00,0.0133
3090.00,0.0132
3089.00,0.0132
3088.00,0.0132
3087.00,0.0132
3086.00,0.0133
3085.00,0.0134
3084.00,0.0134
3083.00,0.0134
3082.00,0.0133
3081.00,0.0133
3080.00,0.0132
3079.00,0.0132
3078.00,0.0131
3077.00,0.0130
3076.00,0.0128
3075.00,0.0125
3074.00,0.0123
3073.00,0.0120
3072.00,0.0118
3071.00,0.0115
3070.00,0.0114
3069.00,0.0113
3068.00,0.0113
3067.00,0.0113
3066.00,0.0115
3065.00,0.0116
3064.00,0.0118
3063.00,0.0118
3062.00,0.0119
3061.00,0.0118
3060.00,0.0116
3059.00,0.0115
3058.00,0.0113
3057.00,0.0111
3056.00,0.0110
3055.00,0.0110
3054.00,0.0109
3053.00,0.0109
3052.00,0.0108
3051.00,0.0108
3050.00,0.0108
3049.00,0.0108
3048.00,0.0108
3047.00,0.0107
3046.00,0.0106
3045.00,0.0106
3044.00,0.0106
3043.00,0.0107
3042.00,0.0108
3041.00,0.0110
3040.00,0.0112
3039.00,0.0113
3038.00,0.0114
3037.00,0.0115
3036.00,0.0115
3035.00,0.0116
3034.00,0.0116
3033.00,0.0117
3032.00,0.0119
3031.00,0.0120
3030.00,0.0121
3029.00,0.0122
3028.00,0.0122
3027.00,0.0122
3026.00,0.0121
3025.00,0.0120
3024.00,0.0119
3023.00,0.0118
3022.00,0.0117
3021.00,0.0116
3020.00,0.0114
3019.00,0.0113
3018.00,0.0111
3017.00,0.0110
3016.00,0.0110
3015.00,0.0109
3014.00,0.0109
3013.00,0.0109
3012.00,0.0109
3011.00,0.0110
3010.00,0.0111
3009.00,0.0113
3008.00,0.0114
3007.00,0.0116
3006.00,0.0117
3005.00,0.0119
3004.00,0.0120
3003.00,0.0121
3002.00,0.0121
3001.00,0.0122
3000.00,0.0121
2999.00,0.0121
2998.00,0.0119
2997.00,0.0117
2996.00,0.0114
2995.00,0.0108
2994.00,0.0102
2993.00,0.0095
2992.00,0.0088
2991.00,0.0082
2990.00,0.0077
2989.00,0.0073
2988.00,0.0068
2987.00,0.0063
2986.00,0.0056
2985.00,0.0047
2984.00,0.0035
2983.00,0.0024
2982.00,0.0015
2981.00,0.0011
2980.00,0.0013
2979.00,0.0018
2978.00,0.0024
2977.00,0.0029
2976.00,0.0033
2975.00,0.0035
2974.00,0.0036
2973.00,0.0036
2972.00,0.0037
2971.00,0.0040
2970.00,0.0045
2969.00,0.0052
2968.00,0.0060
2967.00,0.0068
2966.00,0.0076
2965.00,0.0085
2964.00,0.0095
2963.00,0.0107
2962.00,0.0119
2961.00,0.0133
2960.00,0.0147
2959.00,0.0161
2958.00,0.0174
2957.00,0.0185
2956.00,0.0193
2955.00,0.0199
2954.00,0.0201
2953.00,0.0200
2952.00,0.0196
2951.00,0.0189
2950.00,0.0181
2949.00,0.0172
2948.00,0.0163
2947.00,0.0154
2946.00,0.0147
2945.00,0.0142
2944.00,0.0138
2943.00,0.0134
2942.00,0.0132
2941.00,0.0129
2940.00,0.0128
2939.00,0.0126
2938.00,0.0125
2937.00,0.0125
2936.00,0.0125
2935.00,0.0124
2934.00,0.0124
2933.00,0.0123
2932.00,0.0121
2931.00,0.0120
2930.00,0.0120
2929.00,0.0119
2928.00,0.0118
2927.00,0.0118
2926.00,0.0117
2925.00,0.0115
2924.00,0.0114
2923.00,0.0112
2922.00,0.0111
2921.00,0.0109
2920.00,0.0107
2919.00,0.0105
2918.00,0.0103
2917.00,0.0102
2916.00,0.0100
2915.00,0.0099
2914.00,0.0098
2913.00,0.0098
2912.00,0.0097
2911.00,0.0096
2910.00,0.0095
2909.00,0.0094
2908.00,0.0093
2907.00,0.0092
2906.00,0.0090
2905.00,0.0089
2904.00,0.0088
2903.00,0.0088
2902.00,0.0087
2901.00,0.0086
2900.00,0.0085
2899.00,0.0084
2898.00,0.0082
2897.00,0.0081
2896.00,0.0080
2895.00,0.0078
2894.00,0.0077
2893.00,0.0076
2892.00,0.0076
2891.00,0.0075
2890.00,0.0075
2889.00,0.0075
2888.00,0.0076
2887.00,0.0076
2886.00,0.0077
2885.00,0.0078
2884.00,0.0079
2883.00,0.0080
2882.00,0.0081
2881.00,0.0083
2880.00,0.0086
2879.00,0.0088
2878.00,0.0090
2877.00,0.0092
2876.00,0.0093
2875.00,0.0094
2874.00,0.0096
2873.00,0.0097
2872.00,0.0099
2871.00,0.0101
2870.00,0.0102
2869.00,0.0103
2868.00,0.0103
2867.00,0.0103
2866.00,0.0102
2865.00,0.0102
2864.00,0.0101
2863.00,0.0100
2862.00,0.0099
2861.00,0.0098
2860.00,0.0098
2859.00,0.0098
2858.00,0.0099
2857.00,0.0100
2856.00,0.0100
2855.00,0.0101
2854.00,0.0101
2853.00,0.0101
2852.00,0.0102
2851.00,0.0104
2850.00,0.0105
2849.00,0.0108
2848.00,0.0111
2847.00,0.0114
2846.00,0.0117
2845.00,0.0120
2844.00,0.0121
2843.00,0.0121
2842.00,0.0120
2841.00,0.0118
2840.00,0.0115
2839.00,0.0112
2838.00,0.0109
2837.00,0.0107
2836.00,0.0105
2835.00,0.0103
2834.00,0.0102
2833.00,0.0100
2832.00,0.0099
2831.00,0.0099
2830.00,0.0098
2829.00,0.0098
2828.00,0.0097
2827.00,0.0097
2826.00,0.0097
2825.00,0.0096
2824.00,0.0096
2823.00,0.0096
2822.00,0.0096
2821.00,0.0097
2820.00,0.0097
2819.00,0.0097
2818.00,0.0097
2817.00,0.0097
2816.00,0.0097
2815.00,0.0097
2814.00,0.0098
2813.00,0.0098
2812.00,0.0098
2811.00,0.0098
2810.00,0.0098
2809.00,0.0098
2808.00,0.0098
2807.00,0.0098
2806.00,0.0098
2805.00,0.0098
2804.00,0.0097
2803.00,0.0097
2802.00,0.0096
2801.00,0.0095
2800.00,0.0094
2799.00,0.0094
2798.00,0.0093
2797.00,0.0092
2796.00,0.0092
2795.00,0.0091
2794.00,0.0091
2793.00,0.0090
2792.00,0.0089
2791.00,0.0088
2790.00,0.0087
2789.00,0.0086
2788.00,0.0085
2787.00,0.0085
2786.00,0.0085
2785.00,0.0084
2784.00,0.0084
2783.00,0.0083
2782.00,0.0083
2781.00,0.0083
2780.00,0.0083
2779.00,0.0082
2778.00,0.0082
2777.00,0.0082
2776.00,0.0082
2775.00,0.0082
2774.00,0.0082
2773.00,0.0082
2772.00,0.0083
2771.00,0.0083
2770.00,0.0083
2769.00,0.0082
2768.00,0.0082
2767.00,0.0082
2766.00,0.0082
2765.00,0.0082
2764.00,0.0082
2763.00,0.0082
2762.00,0.0082
2761.00,0.0082
2760.00,0.0082
2759.00,0.0081
2758.00,0.0081
2757.00,0.0081
2756.00,0.0081
2755.00,0.0081
2754.00,0.0081
2753.00,0.0081
2752.00,0.0081
2751.00,0.0080
2750.00,0.0080
2749.00,0.0080
2748.00,0.0080
2747.00,0.0080
2746.00,0.0080
2745.00,0.0080
2744.00,0.0080
2743.00,0.0080
2742.00,0.0080
2741.00,0.0080
2740.00,0.0080
2739.00,0.0080
2738.00,0.0079
2737.00,0.0079
2736.00,0.0079
2735.00,0.0079
2734.00,0.0079
2733.00,0.0079
2732.00,0.0079
2731.00,0.0079
2730.00,0.0079
2729.00,0.0079
2728.00,0.0079
2727.00,0.0079
2726.00,0.0079
2725.00,0.0080
2724.00,0.0080
2723.00,0.0080
2722.00,0.0081
2721.00,0.0081
2720.00,0.0081
2719.00,0.0081
2718.00,0.0081
2717.00,0.0080
2716.00,0.0080
2715.00,0.0080
2714.00,0.0080
2713.00,0.0080
2712.00,0.0080
2711.00,0.0080
2710.00,0.0080
2709.00,0.0080
2708.00,0.0080
2707.00,0.0080
2706.00,0.0079
2705.00,0.0080
2704.00,0.0080
2703.00,0.0080
2702.00,0.0080
2701.00,0.0080
2700.00,0.0080
2699.00,0.0080
2698.00,0.0080
2697.00,0.0080
2696.00,0.0080
2695.00,0.0080
2694.00,0.0080
2693.00,0.0080
2692.00,0.0080
2691.00,0.0079
2690.00,0.0079
2689.00,0.0079
2688.00,0.0079
2687.00,0.0079
2686.00,0.0079
2685.00,0.0079
2684.00,0.0078
2683.00,0.0078
2682.00,0.0078
2681.00,0.0078
2680.00,0.0078
2679.00,0.0078
2678.00,0.0078
2677.00,0.0078
2676.00,0.0078
2675.00,0.0078
2674.00,0.0078
2673.00,0.0078
2672.00,0.0078
2671.00,0.0078
2670.00,0.0078
2669.00,0.0077
2668.00,0.0077
2667.00,0.0078
2666.00,0.0078
2665.00,0.0078
2664.00,0.0079
2663.00,0.0079
2662.00,0.0079
2661.00,0.0079
2660.00,0.0080
2659.00,0.0080
2658.00,0.0080
2657.00,0.0080
2656.00,0.0080
2655.00,0.0080
2654.00,0.0081
2653.00,0.0080
2652.00,0.0080
2651.00,0.0080
2650.00,0.0080
2649.00,0.0081
2648.00,0.0081
2647.00,0.0081
2646.00,0.0081
2645.00,0.0081
2644.00,0.0081
2643.00,0.0081
2642.00,0.0081
2641.00,0.0081
2640.00,0.0081
2639.00,0.0080
2638.00,0.0080
2637.00,0.0080
2636.00,0.0080
2635.00,0.0080
2634.00,0.0080
2633.00,0.0080
2632.00,0.0080
2631.00,0.0080
2630.00,0.0080
2629.00,0.0080
2628.00,0.0081
2627.00,0.0081
2626.00,0.0081
2625.00,0.0082
2624.00,0.0082
2623.00,0.0082
2622.00,0.0082
2621.00,0.0082
2620.00,0.0082
2619.00,0.0082
2618.00,0.0082
2617.00,0.0082
2616.00,0.0082
2615.00,0.0082
2614.00,0.0081
2613.00,0.0081
2612.00,0.0081
2611.00,0.0081
2610.00,0.0080
2609.00,0.0080
2608.00,0.0080
2607.00,0.0080
2606.00,0.0080
2605.00,0.0079
2604.00,0.0079
2603.00,0.0079
2602.00,0.0078
2601.00,0.0078
2600.00,0.0078
2599.00,0.0078
2598.00,0.0078
2597.00,0.0077
2596.00,0.0077
2595.00,0.0077
2594.00,0.0077
2593.00,0.0077
2592.00,0.0077
2591.00,0.0076
2590.00,0.0076
2589.00,0.0076
2588.00,0.0076
2587.00,0.0076
2586.00,0.0076
2585.00,0.0076
2584.00,0.0075
2583.00,0.0075
2582.00,0.0075
2581.00,0.0075
2580.00,0.0075
2579.00,0.0075
2578.00,0.0075
2577.00,0.0074
2576.00,0.0074
2575.00,0.0074
2574.00,0.0074
2573.00,0.0073
2572.00,0.0073
2571.00,0.0073
2570.00,0.0073
2569.00,0.0072
2568.00,0.0072
2567.00,0.0072
2566.00,0.0072
2565.00,0.0072
2564.00,0.0071
2563.00,0.0071
2562.00,0.0071
2561.00,0.0072
2560.00,0.0072
2559.00,0.0073
2558.00,0.0073
2557.00,0.0073
2556.00,0.0072
2555.00,0.0072
2554.00,0.0072
2553.00,0.0072
2552.00,0.0072
2551.00,0.0072
2550.00,0.0072
2549.00,0.0073
2548.00,0.0073
2547.00,0.0073
2546.00,0.0073
2545.00,0.0073
2544.00,0.0073
2543.00,0.0073
2542.00,0.0073
2541.00,0.0073
2540.00,0.0073
2539.00,0.0073
2538.00,0.0073
2537.00,0.0073
2536.00,0.0073
2535.00,0.0073
2534.00,0.0073
2533.00,0.0073
2532.00,0.0073
2531.00,0.0073
2530.00,0.0072
2529.00,0.0072
2528.00,0.0072
2527.00,0.0072
2526.00,0.0071
2525.00,0.0071
2524.00,0.0070
2523.00,0.0070
2522.00,0.0070
2521.00,0.0070
2520.00,0.0070
2519.00,0.0070
2518.00,0.0070
2517.00,0.0070
2516.00,0.0070
2515.00,0.0070
2514.00,0.0070
2513.00,0.0070
2512.00,0.0070
2511.00,0.0070
2510.00,0.0069
2509.00,0.0069
2508.00,0.0069
2507.00,0.0069
2506.00,0.0068
2505.00,0.0068
2504.00,0.0068
2503.00,0.0068
2502.00,0.0068
2501.00,0.0068
2500.00,0.0068
2499.00,0.0068
2498.00,0.0068
2497.00,0.0068
2496.00,0.0068
2495.00,0.0068
2494.00,0.0069
2493.00,0.0069
2492.00,0.0070
2491.00,0.0070
2490.00,0.0070
2489.00,0.0070
2488.00,0.0071
2487.00,0.0071
2486.00,0.0071
2485.00,0.0071
2484.00,0.0070
2483.00,0.0070
2482.00,0.0069
2481.00,0.0069
2480.00,0.0068
2479.00,0.0068
2478.00,0.0068
2477.00,0.0068
2476.00,0.0068
2475.00,0.0068
2474.00,0.0068
2473.00,0.0068
2472.00,0.0068
2471.00,0.0068
2470.00,0.0068
2469.00,0.0068
2468.00,0.0069
2467.00,0.0069
2466.00,0.0069
2465.00,0.0068
2464.00,0.0068
2463.00,0.0069
2462.00,0.0069
2461.00,0.0069
2460.00,0.0070
2459.00,0.0071
2458.00,0.0071
2457.00,0.0072
2456.00,0.0072
2455.00,0.0072
2454.00,0.0072
2453.00,0.0072
2452.00,0.0071
2451.00,0.0071
2450.00,0.0071
2449.00,0.0071
2448.00,0.0071
2447.00,0.0071
2446.00,0.0071
2445.00,0.0071
2444.00,0.0070
2443.00,0.0070
2442.00,0.0069
2441.00,0.0068
2440.00,0.0068
2439.00,0.0068
2438.00,0.0068
2437.00,0.0068
2436.00,0.0067
2435.00,0.0067
2434.00,0.0067
2433.00,0.0067
2432.00,0.0067
2431.00,0.0066
2430.00,0.0066
2429.00,0.0066
2428.00,0.0066
2427.00,0.0066
2426.00,0.0067
2425.00,0.0067
2424.00,0.0067
2423.00,0.0067
2422.00,0.0066
2421.00,0.0066
2420.00,0.0066
2419.00,0.0066
2418.00,0.0066
2417.00,0.0066
2416.00,0.0066
2415.00,0.0066
2414.00,0.0066
2413.00,0.0066
2412.00,0.0066
2411.00,0.0065
2410.00,0.0065
2409.00,0.0064
2408.00,0.0063
2407.00,0.0063
2406.00,0.0063
2405.00,0.0063
2404.00,0.0063
2403.00,0.0064
2402.00,0.0064
2401.00,0.0063
2400.00,0.0063
2399.00,0.0063
2398.00,0.0063
2397.00,0.0063
2396.00,0.0063
2395.00,0.0063
2394.00,0.0062
2393.00,0.0062
2392.00,0.0062
2391.00,0.0062
2390.00,0.0062
2389.00,0.0062
2388.00,0.0062
2387.00,0.0062
2386.00,0.0062
2385.00,0.0062
2384.00,0.0061
2383.00,0.0061
2382.00,0.0060
2381.00,0.0060
2380.00,0.0060
2379.00,0.0060
2378.00,0.0060
2377.00,0.0060
2376.00,0.0061
2375.00,0.0061
2374.00,0.0060
2373.00,0.0060
2372.00,0.0060
2371.00,0.0059
2370.00,0.0059
2369.00,0.0058
2368.00,0.0058
2367.00,0.0058
2366.00,0.0059
2365.00,0.0060
2364.00,0.0061
2363.00,0.0061
2362.00,0.0062
2361.00,0.0062
2360.00,0.0061
2359.00,0.0060
2358.00,0.0059
2357.00,0.0059
2356.00,0.0059
2355.00,0.0060
2354.00,0.0060
2353.00,0.0060
2352.00,0.0059
2351.00,0.0057
2350.00,0.0055
2349.00,0.0056
2348.00,0.0058
2347.00,0.0062
2346.00,0.0064
2345.00,0.0065
2344.00,0.0064
2343.00,0.0063
2342.00,0.0062
2341.00,0.0063
2340.00,0.0063
2339.00,0.0063
2338.00,0.0063
2337.00,0.0063
2336.00,0.0063
2335.00,0.0063
2334.00,0.0063
2333.00,0.0063
2332.00,0.0062
2331.00,0.0062
2330.00,0.0061
2329.00,0.0063
2328.00,0.0066
2327.00,0.0069
2326.00,0.0072
2325.00,0.0073
2324.00,0.0072
2323.00,0.0070
2322.00,0.0068
2321.00,0.0067
2320.00,0.0066
2319.00,0.0065
2318.00,0.0064
2317.00,0.0064
2316.00,0.0064
2315.00,0.0063
2314.00,0.0063
2313.00,0.0062
2312.00,0.0061
2311.00,0.0060
2310.00,0.0059
2309.00,0.0059
2308.00,0.0059
2307.00,0.0059
2306.00,0.0059
2305.00,0.0059
2304.00,0.0060
2303.00,0.0060
2302.00,0.0060
2301.00,0.0061
2300.00,0.0061
2299.00,0.0062
2298.00,0.0062
2297.00,0.0063
2296.00,0.0064
2295.00,0.0065
2294.00,0.0066
2293.00,0.0067
2292.00,0.0068
2291.00,0.0069
2290.00,0.0070
2289.00,0.0071
2288.00,0.0071
2287.00,0.0071
2286.00,0.0071
2285.00,0.0070
2284.00,0.0069
2283.00,0.0068
2282.00,0.0068
2281.00,0.0067
2280.00,0.0067
2279.00,0.0066
2278.00,0.0066
2277.00,0.0066
2276.00,0.0066
2275.00,0.0066
2274.00,0.0065
2273.00,0.0065
2272.00,0.0064
2271.00,0.0064
2270.00,0.0063
2269.00,0.0063
2268.00,0.0062
2267.00,0.0062
2266.00,0.0061
2265.00,0.0061
2264.00,0.0060
2263.00,0.0060
2262.00,0.0060
2261.00,0.0060
2260.00,0.0060
2259.00,0.0060
2258.00,0.0059
2257.00,0.0058
2256.00,0.0057
2255.00,0.0056
2254.00,0.0056
2253.00,0.0057
2252.00,0.0057
2251.00,0.0056
2250.00,0.0055
2249.00,0.0055
2248.00,0.0055
2247.00,0.0054
2246.00,0.0054
2245.00,0.0053
2244.00,0.0052
2243.00,0.0051
2242.00,0.0050
2241.00,0.0050
2240.00,0.0051
2239.00,0.0051
2238.00,0.0051
2237.00,0.0051
2236.00,0.0050
2235.00,0.0050
2234.00,0.0049
2233.00,0.0049
2232.00,0.0049
2231.00,0.0048
2230.00,0.0048
2229.00,0.0048
2228.00,0.0049
2227.00,0.0049
2226.00,0.0049
2225.00,0.0050
2224.00,0.0051
2223.00,0.0051
2222.00,0.0050
2221.00,0.0050
2220.00,0.0051
2219.00,0.0051
2218.00,0.0052
2217.00,0.0053
2216.00,0.0053
2215.00,0.0053
2214.00,0.0053
2213.00,0.0052
2212.00,0.0052
2211.00,0.0051
2210.00,0.0049
2209.00,0.0048
2208.00,0.0046
2207.00,0.0045
2206.00,0.0044
2205.00,0.0044
2204.00,0.0045
2203.00,0.0045
2202.00,0.0046
2201.00,0.0047
2200.00,0.0048
2199.00,0.0049
2198.00,0.0050
2197.00,0.0050
2196.00,0.0050
2195.00,0.0050
2194.00,0.0049
2193.00,0.0048
2192.00,0.0048
2191.00,0.0048
2190.00,0.0048
2189.00,0.0049
2188.00,0.0049
2187.00,0.0049
2186.00,0.0049
2185.00,0.0048
2184.00,0.0046
2183.00,0.0043
2182.00,0.0041
2181.00,0.0041
2180.00,0.0042
2179.00,0.0044
2178.00,0.0044
2177.00,0.0044
2176.00,0.0044
2175.00,0.0046
2174.00,0.0049
2173.00,0.0052
2172.00,0.0056
2171.00,0.0058
2170.00,0.0059
2169.00,0.0061
2168.00,0.0062
2167.00,0.0061
2166.00,0.0060
2165.00,0.0061
2164.00,0.0063
2163.00,0.0063
2162.00,0.0056
2161.00,0.0045
2160.00,0.0031
2159.00,0.0021
2158.00,0.0018
2157.00,0.0019
2156.00,0.0023
2155.00,0.0027
2154.00,0.0030
2153.00,0.0032
2152.00,0.0034
2151.00,0.0036
2150.00,0.0036
2149.00,0.0036
2148.00,0.0036
2147.00,0.0036
2146.00,0.0035
2145.00,0.0035
2144.00,0.0035
2143.00,0.0035
2142.00,0.0035
2141.00,0.0035
2140.00,0.0036
2139.00,0.0035
2138.00,0.0035
2137.00,0.0034
2136.00,0.0032
2135.00,0.0031
2134.00,0.0030
2133.00,0.0030
2132.00,0.0031
2131.00,0.0032
2130.00,0.0033
2129.00,0.0035
2128.00,0.0037
2127.00,0.0038
2126.00,0.0039
2125.00,0.0041
2124.00,0.0042
2123.00,0.0043
2122.00,0.0044
2121.00,0.0044
2120.00,0.0045
2119.00,0.0045
2118.00,0.0046
2117.00,0.0047
2116.00,0.0047
2115.00,0.0048
2114.00,0.0047
2113.00,0.0047
2112.00,0.0047
2111.00,0.0047
2110.00,0.0046
2109.00,0.0046
2108.00,0.0046
2107.00,0.0046
2106.00,0.0046
2105.00,0.0047
2104.00,0.0048
2103.00,0.0049
2102.00,0.0049
2101.00,0.0049
2100.00,0.0048
2099.00,0.0047
2098.00,0.0046
2097.00,0.0045
2096.00,0.0044
2095.00,0.0043
2094.00,0.0043
2093.00,0.0044
2092.00,0.0045
2091.00,0.0046
2090.00,0.0047
2089.00,0.0048
2088.00,0.0049
2087.00,0.0050
2086.00,0.0050
2085.00,0.0051
2084.00,0.0051
2083.00,0.0051
2082.00,0.0050
2081.00,0.0050
2080.00,0.0050
2079.00,0.0051
2078.00,0.0051
2077.00,0.0051
2076.00,0.0051
2075.00,0.0050
2074.00,0.0049
2073.00,0.0048
2072.00,0.0048
2071.00,0.0048
2070.00,0.0048
2069.00,0.0048
2068.00,0.0048
2067.00,0.0048
2066.00,0.0046
2065.00,0.0045
2064.00,0.0044
2063.00,0.0044
2062.00,0.0044
2061.00,0.0044
2060.00,0.0045
2059.00,0.0045
2058.00,0.0044
2057.00,0.0043
2056.00,0.0042
2055.00,0.0041
2054.00,0.0043
2053.00,0.0047
2052.00,0.0049
2051.00,0.0049
2050.00,0.0044
2049.00,0.0038
2048.00,0.0035
2047.00,0.0032
2046.00,0.0031
2045.00,0.0031
2044.00,0.0031
2043.00,0.0029
2042.00,0.0027
2041.00,0.0026
2040.00,0.0027
2039.00,0.0027
2038.00,0.0028
2037.00,0.0028
2036.00,0.0027
2035.00,0.0025
2034.00,0.0023
2033.00,0.0021
2032.00,0.0021
2031.00,0.0021
2030.00,0.0022
2029.00,0.0023
2028.00,0.0025
2027.00,0.0024
2026.00,0.0023
2025.00,0.0022
2024.00,0.0023
2023.00,0.0024
2022.00,0.0024
2021.00,0.0026
2020.00,0.0027
2019.00,0.0028
2018.00,0.0027
2017.00,0.0027
2016.00,0.0028
2015.00,0.0028
2014.00,0.0029
2013.00,0.0031
2012.00,0.0033
2011.00,0.0034
2010.00,0.0032
2009.00,0.0031
2008.00,0.0030
2007.00,0.0030
2006.00,0.0031
2005.00,0.0034
2004.00,0.0037
2003.00,0.0039
2002.00,0.0040
2001.00,0.0040
2000.00,0.0039
1999.00,0.0039
1998.00,0.0038
1997.00,0.0039
1996.00,0.0041
1995.00,0.0042
1994.00,0.0042
1993.00,0.0041
1992.00,0.0041
1991.00,0.0040
1990.00,0.0039
1989.00,0.0039
1988.00,0.0040
1987.00,0.0041
1986.00,0.0041
1985.00,0.0042
1984.00,0.0045
1983.00,0.0048
1982.00,0.0050
1981.00,0.0051
1980.00,0.0050
1979.00,0.0045
1978.00,0.0039
1977.00,0.0034
1976.00,0.0032
1975.00,0.0030
1974.00,0.0029
1973.00,0.0029
1972.00,0.0032
1971.00,0.0033
1970.00,0.0034
1969.00,0.0034
1968.00,0.0035
1967.00,0.0036
1966.00,0.0036
1965.00,0.0036
1964.00,0.0037
1963.00,0.0036
1962.00,0.0034
1961.00,0.0033
1960.00,0.0033
1959.00,0.0033
1958.00,0.0032
1957.00,0.0033
1956.00,0.0034
1955.00,0.0034
1954.00,0.0034
1953.00,0.0034
1952.00,0.0036
1951.00,0.0036
1950.00,0.0036
1949.00,0.0036
1948.00,0.0036
1947.00,0.0036
1946.00,0.0035
1945.00,0.0036
1944.00,0.0038
1943.00,0.0040
1942.00,0.0040
1941.00,0.0039
1940.00,0.0039
1939.00,0.0039
1938.00,0.0039
1937.00,0.0040
1936.00,0.0041
1935.00,0.0042
1934.00,0.0042
1933.00,0.0043
1932.00,0.0045
1931.00,0.0046
1930.00,0.0046
1929.00,0.0045
1928.00,0.0045
1927.00,0.0045
1926.00,0.0044
1925.00,0.0044
1924.00,0.0045
1923.00,0.0046
1922.00,0.0046
1921.00,0.0046
1920.00,0.0046
1919.00,0.0046
1918.00,0.0046
1917.00,0.0045
1916.00,0.0045
1915.00,0.0044
1914.00,0.0043
1913.00,0.0043
1912.00,0.0043
1911.00,0.0042
1910.00,0.0041
1909.00,0.0041
1908.00,0.0041
1907.00,0.0041
1906.00,0.0040
1905.00,0.0040
1904.00,0.0040
1903.00,0.0039
1902.00,0.0038
1901.00,0.0037
1900.00,0.0038
1899.00,0.0039
1898.00,0.0039
1897.00,0.0039
1896.00,0.0040
1895.00,0.0040
1894.00,0.0040
1893.00,0.0040
1892.00,0.0041
1891.00,0.0041
1890.00,0.0042
1889.00,0.0042
1888.00,0.0042
1887.00,0.0042
1886.00,0.0041
1885.00,0.0041
1884.00,0.0040
1883.00,0.0040
1882.00,0.0039
1881.00,0.0039
1880.00,0.0038
1879.00,0.0038
1878.00,0.0037
1877.00,0.0037
1876.00,0.0037
1875.00,0.0037
1874.00,0.0036
1873.00,0.0037
1872.00,0.0039
1871.00,0.0041
1870.00,0.0042
1869.00,0.0043
1868.00,0.0042
1867.00,0.0041
1866.00,0.0040
1865.00,0.0039
1864.00,0.0039
1863.00,0.0039
1862.00,0.0039
1861.00,0.0040
1860.00,0.0040
1859.00,0.0041
1858.00,0.0041
1857.00,0.0041
1856.00,0.0041
1855.00,0.0042
1854.00,0.0042
1853.00,0.0043
1852.00,0.0044
1851.00,0.0045
1850.00,0.0046
1849.00,0.0046
1848.00,0.0048
1847.00,0.0048
1846.00,0.0048
1845.00,0.0047
1844.00,0.0045
1843.00,0.0043
1842.00,0.0041
1841.00,0.0039
1840.00,0.0039
1839.00,0.0039
1838.00,0.0039
1837.00,0.0039
1836.00,0.0039
1835.00,0.0039
1834.00,0.0039
1833.00,0.0040
1832.00,0.0041
1831.00,0.0043
1830.00,0.0042
1829.00,0.0042
1828.00,0.0042
1827.00,0.0042
1826.00,0.0043
1825.00,0.0043
1824.00,0.0042
1823.00,0.0040
1822.00,0.0038
1821.00,0.0037
1820.00,0.0036
1819.00,0.0036
1818.00,0.0036
1817.00,0.0036
1816.00,0.0036
1815.00,0.0036
1814.00,0.0037
1813.00,0.0038
1812.00,0.0040
1811.00,0.0040
1810.00,0.0041
1809.00,0.0041
1808.00,0.0041
1807.00,0.0041
1806.00,0.0041
1805.00,0.0041
1804.00,0.0043
1803.00,0.0045
1802.00,0.0047
1801.00,0.0047
1800.00,0.0047
1799.00,0.0046
1798.00,0.0045
1797.00,0.0045
1796.00,0.0046
1795.00,0.0047
1794.00,0.0048
1793.00,0.0049
1792.00,0.0049
1791.00,0.0049
1790.00,0.0047
1789.00,0.0046
1788.00,0.0045
1787.00,0.0045
1786.00,0.0046
1785.00,0.0046
1784.00,0.0047
1783.00,0.0047
1782.00,0.0047
1781.00,0.0047
1780.00,0.0047
1779.00,0.0047
1778.00,0.0047
1777.00,0.0047
1776.00,0.0048
1775.00,0.0048
1774.00,0.0047
1773.00,0.0046
1772.00,0.0046
1771.00,0.0048
1770.00,0.0050
1769.00,0.0052
1768.00,0.0053
1767.00,0.0052
1766.00,0.0051
1765.00,0.0051
1764.00,0.0053
1763.00,0.0055
1762.00,0.0055
1761.00,0.0056
1760.00,0.0056
1759.00,0.0057
1758.00,0.0058
1757.00,0.0059
1756.00,0.0059
1755.00,0.0059
1754.00,0.0058
1753.00,0.0059
1752.00,0.0061
1751.00,0.0063
1750.00,0.0064
1749.00,0.0065
1748.00,0.0065
1747.00,0.0065
1746.00,0.0065
1745.00,0.0066
1744.00,0.0068
1743.00,0.0069
1742.00,0.0069
1741.00,0.0069
1740.00,0.0071
1739.00,0.0072
1738.00,0.0073
1737.00,0.0075
1736.00,0.0077
1735.00,0.0077
1734.00,0.0077
1733.00,0.0077
1732.00,0.0080
1731.00,0.0084
1730.00,0.0087
1729.00,0.0088
1728.00,0.0089
1727.00,0.0089
1726.00,0.0090
1725.00,0.0091
1724.00,0.0093
1723.00,0.0095
1722.00,0.0097
1721.00,0.0100
1720.00,0.0105
1719.00,0.0110
1718.00,0.0114
1717.00,0.0121
1716.00,0.0133
1715.00,0.0146
1714.00,0.0158
1713.00,0.0170
1712.00,0.0182
1711.00,0.0194
1710.00,0.0207
1709.00,0.0221
1708.00,0.0237
1707.00,0.0253
1706.00,0.0270
1705.00,0.0286
1704.00,0.0300
1703.00,0.0310
1702.00,0.0320
1701.00,0.0340
1700.00,0.0367
1699.00,0.0389
1698.00,0.0409
1697.00,0.0444
1696.00,0.0509
1695.00,0.0595
1694.00,0.0686
1693.00,0.0779
1692.00,0.0882
1691.00,0.0993
1690.00,0.1100
1689.00,0.1182
1688.00,0.1226
1687.00,0.1234
1686.00,0.1226
1685.00,0.1229
1684.00,0.1264
1683.00,0.1316
1682.00,0.1368
1681.00,0.1422
1680.00,0.1481
1679.00,0.1532
1678.00,0.1559
1677.00,0.1556
1676.00,0.1522
1675.00,0.1457
1674.00,0.1370
1673.00,0.1276
1672.00,0.1180
1671.00,0.1082
1670.00,0.0985
1669.00,0.0897
1668.00,0.0824
1667.00,0.0765
1666.00,0.0718
1665.00,0.0676
1664.00,0.0638
1663.00,0.0605
1662.00,0.0577
1661.00,0.0554
1660.00,0.0534
1659.00,0.0517
1658.00,0.0506
1657.00,0.0498
1656.00,0.0494
1655.00,0.0496
1654.00,0.0522
1653.00,0.0579
1652.00,0.0636
1651.00,0.0675
1650.00,0.0707
1649.00,0.0735
1648.00,0.0758
1647.00,0.0771
1646.00,0.0766
1645.00,0.0742
1644.00,0.0706
1643.00,0.0664
1642.00,0.0622
1641.00,0.0581
1640.00,0.0544
1639.00,0.0515
1638.00,0.0492
1637.00,0.0477
1636.00,0.0472
1635.00,0.0479
1634.00,0.0494
1633.00,0.0510
1632.00,0.0529
1631.00,0.0549
1630.00,0.0572
1629.00,0.0594
1628.00,0.0612
1627.00,0.0624
1626.00,0.0630
1625.00,0.0632
1624.00,0.0634
1623.00,0.0637
1622.00,0.0639
1621.00,0.0637
1620.00,0.0631
1619.00,0.0622
1618.00,0.0610
1617.00,0.0596
1616.00,0.0581
1615.00,0.0565
1614.00,0.0548
1613.00,0.0527
1612.00,0.0505
1611.00,0.0485
1610.00,0.0469
1609.00,0.0460
1608.00,0.0460
1607.00,0.0469
1606.00,0.0484
1605.00,0.0498
1604.00,0.0503
1603.00,0.0493
1602.00,0.0468
1601.00,0.0433
1600.00,0.0395
1599.00,0.0361
1598.00,0.0332
1597.00,0.0309
1596.00,0.0289
1595.00,0.0274
1594.00,0.0260
1593.00,0.0249
1592.00,0.0237
1591.00,0.0227
1590.00,0.0217
1589.00,0.0209
1588.00,0.0200
1587.00,0.0193
1586.00,0.0187
1585.00,0.0183
1584.00,0.0179
1583.00,0.0176
1582.00,0.0176
1581.00,0.0178
1580.00,0.0182
1579.00,0.0188
1578.00,0.0195
1577.00,0.0207
1576.00,0.0221
1575.00,0.0231
1574.00,0.0235
1573.00,0.0231
1572.00,0.0221
1571.00,0.0208
1570.00,0.0194
1569.00,0.0183
1568.00,0.0174
1567.00,0.0168
1566.00,0.0163
1565.00,0.0160
1564.00,0.0157
1563.00,0.0154
1562.00,0.0152
1561.00,0.0152
1560.00,0.0152
1559.00,0.0151
1558.00,0.0151
1557.00,0.0152
1556.00,0.0152
1555.00,0.0152
1554.00,0.0152
1553.00,0.0154
1552.00,0.0156
1551.00,0.0160
1550.00,0.0165
1549.00,0.0169
1548.00,0.0172
1547.00,0.0177
1546.00,0.0185
1545.00,0.0195
1544.00,0.0204
1543.00,0.0211
1542.00,0.0221
1541.00,0.0238
1540.00,0.0266
1539.00,0.0305
1538.00,0.0347
1537.00,0.0392
1536.00,0.0447
1535.00,0.0524
1534.00,0.0638
1533.00,0.0777
1532.00,0.0907
1531.00,0.1016
1530.00,0.1111
1529.00,0.1195
1528.00,0.1262
1527.00,0.1300
1526.00,0.1303
1525.00,0.1272
1524.00,0.1218
1523.00,0.1150
1522.00,0.1068
1521.00,0.0983
1520.00,0.0910
1519.00,0.0850
1518.00,0.0798
1517.00,0.0746
1516.00,0.0698
1515.00,0.0658
1514.00,0.0624
1513.00,0.0593
1512.00,0.0569
1511.00,0.0554
1510.00,0.0545
1509.00,0.0544
1508.00,0.0556
1507.00,0.0594
1506.00,0.0649
1505.00,0.0701
1504.00,0.0747
1503.00,0.0797
1502.00,0.0853
1501.00,0.0915
1500.00,0.0981
1499.00,0.1046
1498.00,0.1108
1497.00,0.1163
1496.00,0.1203
1495.00,0.1224
1494.00,0.1230
1493.00,0.1223
1492.00,0.1210
1491.00,0.1193
1490.00,0.1174
1489.00,0.1147
1488.00,0.1111
1487.00,0.1071
1486.00,0.1030
1485.00,0.0989
1484.00,0.0949
1483.00,0.0910
1482.00,0.0875
1481.00,0.0843
1480.00,0.0814
1479.00,0.0788
1478.00,0.0764
1477.00,0.0741
1476.00,0.0717
1475.00,0.0691
1474.00,0.0666
1473.00,0.0643
1472.00,0.0625
1471.00,0.0610
1470.00,0.0598
1469.00,0.0588
1468.00,0.0580
1467.00,0.0574
1466.00,0.0570
1465.00,0.0564
1464.00,0.0557
1463.00,0.0547
1462.00,0.0537
1461.00,0.0528
1460.00,0.0521
1459.00,0.0516
1458.00,0.0513
1457.00,0.0512
1456.00,0.0509
1455.00,0.0504
1454.00,0.0499
1453.00,0.0495
1452.00,0.0494
1451.00,0.0497
1450.00,0.0504
1449.00,0.0518
1448.00,0.0540
1447.00,0.0567
1446.00,0.0595
1445.00,0.0620
1444.00,0.0642
1443.00,0.0658
1442.00,0.0671
1441.00,0.0685
1440.00,0.0705
1439.00,0.0737
1438.00,0.0792
1437.00,0.0876
1436.00,0.0974
1435.00,0.1058
1434.00,0.1124
1433.00,0.1176
1432.00,0.1209
1431.00,0.1210
1430.00,0.1173
1429.00,0.1109
1428.00,0.1031
1427.00,0.0954
1426.00,0.0882
1425.00,0.0817
1424.00,0.0758
1423.00,0.0708
1422.00,0.0665
1421.00,0.0628
1420.00,0.0593
1419.00,0.0559
1418.00,0.0527
1417.00,0.0498
1416.00,0.0470
1415.00,0.0444
1414.00,0.0421
1413.00,0.0400
1412.00,0.0381
1411.00,0.0363
1410.00,0.0348
1409.00,0.0333
1408.00,0.0320
1407.00,0.0309
1406.00,0.0299
1405.00,0.0290
1404.00,0.0279
1403.00,0.0269
1402.00,0.0261
1401.00,0.0255
1400.00,0.0250
1399.00,0.0247
1398.00,0.0244
1397.00,0.0241
1396.00,0.0240
1395.00,0.0242
1394.00,0.0245
1393.00,0.0251
1392.00,0.0258
1391.00,0.0269
1390.00,0.0283
1389.00,0.0299
1388.00,0.0314
1387.00,0.0329
1386.00,0.0340
1385.00,0.0350
1384.00,0.0361
1383.00,0.0376
1382.00,0.0396
1381.00,0.0415
1380.00,0.0428
1379.00,0.0433
1378.00,0.0425
1377.00,0.0407
1376.00,0.0382
1375.00,0.0355
1374.00,0.0328
1373.00,0.0306
1372.00,0.0287
1371.00,0.0274
1370.00,0.0266
1369.00,0.0261
1368.00,0.0260
1367.00,0.0263
1366.00,0.0269
1365.00,0.0281
1364.00,0.0297
1363.00,0.0319
1362.00,0.0343
1361.00,0.0368
1360.00,0.0393
1359.00,0.0422
1358.00,0.0456
1357.00,0.0498
1356.00,0.0550
1355.00,0.0618
1354.00,0.0705
1353.00,0.0809
1352.00,0.0924
1351.00,0.1039
1350.00,0.1135
1349.00,0.1193
1348.00,0.1205
1347.00,0.1179
1346.00,0.1134
1345.00,0.1087
1344.00,0.1053
1343.00,0.1033
1342.00,0.1024
1341.00,0.1016
1340.00,0.1001
1339.00,0.0973
1338.00,0.0933
1337.00,0.0881
1336.00,0.0824
1335.00,0.0766
1334.00,0.0709
1333.00,0.0658
1332.00,0.0613
1331.00,0.0578
1330.00,0.0553
1329.00,0.0537
1328.00,0.0530
1327.00,0.0532
1326.00,0.0545
1325.00,0.0571
1324.00,0.0610
1323.00,0.0660
1322.00,0.0716
1321.00,0.0770
1320.00,0.0818
1319.00,0.0856
1318.00,0.0888
1317.00,0.0917
1316.00,0.0949
1315.00,0.0985
1314.00,0.1023
1313.00,0.1060
1312.00,0.1090
1311.00,0.1114
1310.00,0.1127
1309.00,0.1127
1308.00,0.1111
1307.00,0.1081
1306.00,0.1040
1305.00,0.0993
1304.00,0.0945
1303.00,0.0898
1302.00,0.0854
1301.00,0.0814
1300.00,0.0778
1299.00,0.0746
1298.00,0.0720
1297.00,0.0699
1296.00,0.0684
1295.00,0.0677
1294.00,0.0676
1293.00,0.0680
1292.00,0.0685
1291.00,0.0688
1290.00,0.0685
1289.00,0.0674
1288.00,0.0658
1287.00,0.0639
1286.00,0.0620
1285.00,0.0603
1284.00,0.0588
1283.00,0.0575
1282.00,0.0565
1281.00,0.0556
1280.00,0.0549
1279.00,0.0545
1278.00,0.0542
1277.00,0.0541
1276.00,0.0542
1275.00,0.0544
1274.00,0.0549
1273.00,0.0554
1272.00,0.0560
1271.00,0.0564
1270.00,0.0562
1269.00,0.0553
1268.00,0.0535
1267.00,0.0510
1266.00,0.0481
1265.00,0.0450
1264.00,0.0422
1263.00,0.0397
1262.00,0.0376
1261.00,0.0359
1260.00,0.0345
1259.00,0.0334
1258.00,0.0325
1257.00,0.0319
1256.00,0.0315
1255.00,0.0314
1254.00,0.0314
1253.00,0.0315
1252.00,0.0317
1251.00,0.0321
1250.00,0.0327
1249.00,0.0333
1248.00,0.0341
1247.00,0.0351
1246.00,0.0363
1245.00,0.0379
1244.00,0.0399
1243.00,0.0426
1242.00,0.0462
1241.00,0.0507
1240.00,0.0559
1239.00,0.0615
1238.00,0.0671
1237.00,0.0726
1236.00,0.0786
1235.00,0.0861
1234.00,0.0953
1233.00,0.1064
1232.00,0.1189
1231.00,0.1324
1230.00,0.1465
1229.00,0.1604
1228.00,0.1737
1227.00,0.1854
1226.00,0.1946
1225.00,0.2005
1224.00,0.2030
1223.00,0.2023
1222.00,0.1990
1221.00,0.1939
1220.00,0.1877
1219.00,0.1811
1218.00,0.1743
1217.00,0.1676
1216.00,0.1610
1215.00,0.1544
1214.00,0.1479
1213.00,0.1414
1212.00,0.1349
1211.00,0.1284
1210.00,0.1222
1209.00,0.1161
1208.00,0.1103
1207.00,0.1048
1206.00,0.0996
1205.00,0.0947
1204.00,0.0902
1203.00,0.0862
1202.00,0.0826
1201.00,0.0798
1200.00,0.0777
1199.00,0.0769
1198.00,0.0775
1197.00,0.0799
1196.00,0.0845
1195.00,0.0914
1194.00,0.1002
1193.00,0.1101
1192.00,0.1199
1191.00,0.1279
1190.00,0.1329
1189.00,0.1339
1188.00,0.1312
1187.00,0.1257
1186.00,0.1186
1185.00,0.1110
1184.00,0.1038
1183.00,0.0971
1182.00,0.0909
1181.00,0.0850
1180.00,0.0795
1179.00,0.0744
1178.00,0.0698
1177.00,0.0658
1176.00,0.0625
1175.00,0.0598
1174.00,0.0577
1173.00,0.0562
1172.00,0.0553
1171.00,0.0551
1170.00,0.0560
1169.00,0.0581
1168.00,0.0614
1167.00,0.0657
1166.00,0.0700
1165.00,0.0732
1164.00,0.0741
1163.00,0.0724
1162.00,0.0685
1161.00,0.0634
1160.00,0.0583
1159.00,0.0544
1158.00,0.0523
1157.00,0.0526
1156.00,0.0557
1155.00,0.0613
1154.00,0.0684
1153.00,0.0748
1152.00,0.0783
1151.00,0.0778
1150.00,0.0740
1149.00,0.0684
1148.00,0.0626
1147.00,0.0575
1146.00,0.0533
1145.00,0.0498
1144.00,0.0470
1143.00,0.0447
1142.00,0.0432
1141.00,0.0422
1140.00,0.0418
1139.00,0.0420
1138.00,0.0426
1137.00,0.0434
1136.00,0.0440
1135.00,0.0447
1134.00,0.0454
1133.00,0.0465
1132.00,0.0481
1131.00,0.0507
1130.00,0.0547
1129.00,0.0604
1128.00,0.0683
1127.00,0.0786
1126.00,0.0913
1125.00,0.1059
1124.00,0.1213
1123.00,0.1361
1122.00,0.1486
1121.00,0.1576
1120.00,0.1624
1119.00,0.1629
1118.00,0.1600
1117.00,0.1545
1116.00,0.1474
1115.00,0.1396
1114.00,0.1317
1113.00,0.1243
1112.00,0.1176
1111.00,0.1122
1110.00,0.1084
1109.00,0.1064
1108.00,0.1064
1107.00,0.1087
1106.00,0.1130
1105.00,0.1189
1104.00,0.1254
1103.00,0.1313
1102.00,0.1355
1101.00,0.1371
1100.00,0.1358
1099.00,0.1320
1098.00,0.1265
1097.00,0.1201
1096.00,0.1133
1095.00,0.1067
1094.00,0.1003
1093.00,0.0943
1092.00,0.0887
1091.00,0.0835
1090.00,0.0786
1089.00,0.0742
1088.00,0.0702
1087.00,0.0667
1086.00,0.0636
1085.00,0.0608
1084.00,0.0583
1083.00,0.0562
1082.00,0.0543
1081.00,0.0526
1080.00,0.0510
1079.00,0.0498
1078.00,0.0487
1077.00,0.0478
1076.00,0.0472
1075.00,0.0468
1074.00,0.0469
1073.00,0.0472
1072.00,0.0476
1071.00,0.0477
1070.00,0.0474
1069.00,0.0465
1068.00,0.0452
1067.00,0.0440
1066.00,0.0432
1065.00,0.0429
1064.00,0.0432
1063.00,0.0444
1062.00,0.0467
1061.00,0.0501
1060.00,0.0547
1059.00,0.0605
1058.00,0.0668
1057.00,0.0728
1056.00,0.0777
1055.00,0.0806
1054.00,0.0815
1053.00,0.0806
1052.00,0.0785
1051.00,0.0762
1050.00,0.0739
1049.00,0.0715
1048.00,0.0688
1047.00,0.0661
1046.00,0.0634
1045.00,0.0610
1044.00,0.0591
1043.00,0.0578
1042.00,0.0571
1041.00,0.0568
1040.00,0.0568
1039.00,0.0571
1038.00,0.0576
1037.00,0.0583
1036.00,0.0589
1035.00,0.0598
1034.00,0.0608
1033.00,0.0622
1032.00,0.0639
1031.00,0.0664
1030.00,0.0698
1029.00,0.0743
1028.00,0.0798
1027.00,0.0863
1026.00,0.0936
1025.00,0.1010
1024.00,0.1080
1023.00,0.1136
1022.00,0.1173
1021.00,0.1186
1020.00,0.1176
1019.00,0.1146
1018.00,0.1102
1017.00,0.1049
1016.00,0.0991
1015.00,0.0933
1014.00,0.0877
1013.00,0.0824
1012.00,0.0775
1011.00,0.0731
1010.00,0.0692
1009.00,0.0658
1008.00,0.0627
1007.00,0.0599
1006.00,0.0577
1005.00,0.0559
1004.00,0.0545
1003.00,0.0535
1002.00,0.0525
1001.00,0.0512
1000.00,0.0496
999.00,0.0480
998.00,0.0464
997.00,0.0450
996.00,0.0437
995.00,0.0426
994.00,0.0416
993.00,0.0407
992.00,0.0398
991.00,0.0390
990.00,0.0383
989.00,0.0377
988.00,0.0371
987.00,0.0365
986.00,0.0360
985.00,0.0356
984.00,0.0350
983.00,0.0345
982.00,0.0341
981.00,0.0337
980.00,0.0332
979.00,0.0328
978.00,0.0324
977.00,0.0319
976.00,0.0315
975.00,0.0310
974.00,0.0308
973.00,0.0307
972.00,0.0309
971.00,0.0313
970.00,0.0316
969.00,0.0316
968.00,0.0313
967.00,0.0309
966.00,0.0310
965.00,0.0318
964.00,0.0331
963.00,0.0344
962.00,0.0349
961.00,0.0344
960.00,0.0334
959.00,0.0329
958.00,0.0332
957.00,0.0344
956.00,0.0360
955.00,0.0371
954.00,0.0374
953.00,0.0367
952.00,0.0353
951.00,0.0337
950.00,0.0321
949.00,0.0308
948.00,0.0296
947.00,0.0286
946.00,0.0278
945.00,0.0271
944.00,0.0264
943.00,0.0259
942.00,0.0254
941.00,0.0251
940.00,0.0248
939.00,0.0245
938.00,0.0243
937.00,0.0242
936.00,0.0240
935.00,0.0239
934.00,0.0239
933.00,0.0238
932.00,0.0237
931.00,0.0236
930.00,0.0236
929.00,0.0236
928.00,0.0235
927.00,0.0234
926.00,0.0234
925.00,0.0234
924.00,0.0232
923.00,0.0232
922.00,0.0231
921.00,0.0231
920.00,0.0229
919.00,0.0228
918.00,0.0228
917.00,0.0227
916.00,0.0226
915.00,0.0224
914.00,0.0223
913.00,0.0222
912.00,0.0220
911.00,0.0219
910.00,0.0218
909.00,0.0217
908.00,0.0215
907.00,0.0214
906.00,0.0213
905.00,0.0212
904.00,0.0211
903.00,0.0210
902.00,0.0209
901.00,0.0208
900.00,0.0206
899.00,0.0205
898.00,0.0204
897.00,0.0203
896.00,0.0202
895.00,0.0201
894.00,0.0200
893.00,0.0199
892.00,0.0198
891.00,0.0198
890.00,0.0198
889.00,0.0198
888.00,0.0199
887.00,0.0202
886.00,0.0207
885.00,0.0213
884.00,0.0217
883.00,0.0216
882.00,0.0212
881.00,0.0205
880.00,0.0198
879.00,0.0192
878.00,0.0189
877.00,0.0187
876.00,0.0185
875.00,0.0183
874.00,0.0182
873.00,0.0181
872.00,0.0180
871.00,0.0179
870.00,0.0179
869.00,0.0179
868.00,0.0180
867.00,0.0181
866.00,0.0185
865.00,0.0193
864.00,0.0208
863.00,0.0241
862.00,0.0305
861.00,0.0407
860.00,0.0523
859.00,0.0606
858.00,0.0616
857.00,0.0552
856.00,0.0456
855.00,0.0370
854.00,0.0310
853.00,0.0273
852.00,0.0250
851.00,0.0236
850.00,0.0227
849.00,0.0220
848.00,0.0213
847.00,0.0209
846.00,0.0207
845.00,0.0205
844.00,0.0205
843.00,0.0207
842.00,0.0213
841.00,0.0225
840.00,0.0248
839.00,0.0288
838.00,0.0350
837.00,0.0431
836.00,0.0519
835.00,0.0605
834.00,0.0682
833.00,0.0756
832.00,0.0832
831.00,0.0908
830.00,0.0966
829.00,0.0988
828.00,0.0964
827.00,0.0905
826.00,0.0827
825.00,0.0743
824.00,0.0665
823.00,0.0597
822.00,0.0539
821.00,0.0488
820.00,0.0441
819.00,0.0400
818.00,0.0365
817.00,0.0335
816.00,0.0310
815.00,0.0291
814.00,0.0277
813.00,0.0268
812.00,0.0265
811.00,0.0270
810.00,0.0281
809.00,0.0296
808.00,0.0309
807.00,0.0317
806.00,0.0316
805.00,0.0303
804.00,0.0285
803.00,0.0268
802.00,0.0261
801.00,0.0265
800.00,0.0287
799.00,0.0340
798.00,0.0439
797.00,0.0594
796.00,0.0791
795.00,0.0983
794.00,0.1109
793.00,0.1128
792.00,0.1056
791.00,0.0945
790.00,0.0837
789.00,0.0744
788.00,0.0663
787.00,0.0592
786.00,0.0531
785.00,0.0482
784.00,0.0445
783.00,0.0418
782.00,0.0398
781.00,0.0382
780.00,0.0367
779.00,0.0354
778.00,0.0346
777.00,0.0344
776.00,0.0350
775.00,0.0369
774.00,0.0394
773.00,0.0415
772.00,0.0420
771.00,0.0409
770.00,0.0393
769.00,0.0387
768.00,0.0408
767.00,0.0469
766.00,0.0570
765.00,0.0698
764.00,0.0818
763.00,0.0893
762.00,0.0900
761.00,0.0848
760.00,0.0765
759.00,0.0681
758.00,0.0610
757.00,0.0555
756.00,0.0515
755.00,0.0486
754.00,0.0468
753.00,0.0460
752.00,0.0466
751.00,0.0493
750.00,0.0547
749.00,0.0635
748.00,0.0756
747.00,0.0893
746.00,0.1016
745.00,0.1087
744.00,0.1086
743.00,0.1025
742.00,0.0931
741.00,0.0828
740.00,0.0732
739.00,0.0647
738.00,0.0576
737.00,0.0517
736.00,0.0467
735.00,0.0428
734.00,0.0397
733.00,0.0371
732.00,0.0351
731.00,0.0334
730.00,0.0321
729.00,0.0311
728.00,0.0302
727.00,0.0295
726.00,0.0291
725.00,0.0288
724.00,0.0287
723.00,0.0289
722.00,0.0296
721.00,0.0309
720.00,0.0329
719.00,0.0365
718.00,0.0425
717.00,0.0521
716.00,0.0661
715.00,0.0839
714.00,0.1024
713.00,0.1161
712.00,0.1208
711.00,0.1160
710.00,0.1051
709.00,0.0921
708.00,0.0799
707.00,0.0699
706.00,0.0623
705.00,0.0566
704.00,0.0524
703.00,0.0494
702.00,0.0473
701.00,0.0460
700.00,0.0451
699.00,0.0448
698.00,0.0452
697.00,0.0461
696.00,0.0476
695.00,0.0499
694.00,0.0533
693.00,0.0576
692.00,0.0628
691.00,0.0688
690.00,0.0754
689.00,0.0817
688.00,0.0866
687.00,0.0891
686.00,0.0886
685.00,0.0850
684.00,0.0794
683.00,0.0732
682.00,0.0677
681.00,0.0636
680.00,0.0610
679.00,0.0603
678.00,0.0615
677.00,0.0642
676.00,0.0675
675.00,0.0706
674.00,0.0723
673.00,0.0719
672.00,0.0695
671.00,0.0663
670.00,0.0631
669.00,0.0607
668.00,0.0593
667.00,0.0592
666.00,0.0596
665.00,0.0601
664.00,0.0604
663.00,0.0606
662.00,0.0603
661.00,0.0595
660.00,0.0580
659.00,0.0561
658.00,0.0540
657.00,0.0518
656.00,0.0496
655.00,0.0475
654.00,0.0456
653.00,0.0439
652.00,0.0422
651.00,0.0405
650.00,0.0390
649.00,0.0376
648.00,0.0363
647.00,0.0351
646.00,0.0342
645.00,0.0332
644.00,0.0323
643.00,0.0314
642.00,0.0307
641.00,0.0300
640.00,0.0292
639.00,0.0286
638.00,0.0282
637.00,0.0279
636.00,0.0277
635.00,0.0276
634.00,0.0280
633.00,0.0286
632.00,0.0296
631.00,0.0314
630.00,0.0344
629.00,0.0387
628.00,0.0445
627.00,0.0518
626.00,0.0598
625.00,0.0671
624.00,0.0721
623.00,0.0741
622.00,0.0732
621.00,0.0700
620.00,0.0653
619.00,0.0605
618.00,0.0561
617.00,0.0524
616.00,0.0494
615.00,0.0473
614.00,0.0462
613.00,0.0459
612.00,0.0465
611.00,0.0478
610.00,0.0496
609.00,0.0509
608.00,0.0512
607.00,0.0501
606.00,0.0481
605.00,0.0454
604.00,0.0425
603.00,0.0399
602.00,0.0380
601.00,0.0366
600.00,0.0354
599.00,0.0346
598.00,0.0342
597.00,0.0342
596.00,0.0347
595.00,0.0360
594.00,0.0385
593.00,0.0418
592.00,0.0451
591.00,0.0474
590.00,0.0483
589.00,0.0477
588.00,0.0468
587.00,0.0468
586.00,0.0482
585.00,0.0499
584.00,0.0503
583.00,0.0489
582.00,0.0461
581.00,0.0427
580.00,0.0395
579.00,0.0371
578.00,0.0355
577.00,0.0344
576.00,0.0334
575.00,0.0327
574.00,0.0325
573.00,0.0326
572.00,0.0329
571.00,0.0337
570.00,0.0349
569.00,0.0362
568.00,0.0374
567.00,0.0387
566.00,0.0400
565.00,0.0411
564.00,0.0416
563.00,0.0412
562.00,0.0400
561.00,0.0380
560.00,0.0358
559.00,0.0339
558.00,0.0325
557.00,0.0314
556.00,0.0303
555.00,0.0294
554.00,0.0287
553.00,0.0282
552.00,0.0275
551.00,0.0270
550.00,0.0268
549.00,0.0266
548.00,0.0262
547.00,0.0259
546.00,0.0257
545.00,0.0254
544.00,0.0250
543.00,0.0247
542.00,0.0246
541.00,0.0245
540.00,0.0242
539.00,0.0240
538.00,0.0239
537.00,0.0238
536.00,0.0234
535.00,0.0231
534.00,0.0230
533.00,0.0230
532.00,0.0228
531.00,0.0226
530.00,0.0226
529.00,0.0226
528.00,0.0224
527.00,0.0222
526.00,0.0223
525.00,0.0222
524.00,0.0218
523.00,0.0216
522.00,0.0216
521.00,0.0217
520.00,0.0216
519.00,0.0216
518.00,0.0219
517.00,0.0223
516.00,0.0226
515.00,0.0233
514.00,0.0243
513.00,0.0252
512.00,0.0254
511.00,0.0250
510.00,0.0245
509.00,0.0236
508.00,0.0226
507.00,0.0218
506.00,0.0214
505.00,0.0213
504.00,0.0211
503.00,0.0211
502.00,0.0212
501.00,0.0210
500.00,0.0204
499.00,0.0199
498.00,0.0198
497.00,0.0198
496.00,0.0196
495.00,0.0194
494.00,0.0196
493.00,0.0198
492.00,0.0196
491.00,0.0194
490.00,0.0196
489.00,0.0198
488.00,0.0198
487.00,0.0199
486.00,0.0203
485.00,0.0205
484.00,0.0205
483.00,0.0206
482.00,0.0213
481.00,0.0220
480.00,0.0226
479.00,0.0233
478.00,0.0244
477.00,0.0255
476.00,0.0264
475.00,0.0280
474.00,0.0309
473.00,0.0346
472.00,0.0382
471.00,0.0414
470.00,0.0443
469.00,0.0464
468.00,0.0473
467.00,0.0473
466.00,0.0467
465.00,0.0453
464.00,0.0431
463.00,0.0407
462.00,0.0387
461.00,0.0369
460.00,0.0349
459.00,0.0332
458.00,0.0319
457.00,0.0303
456.00,0.0284
455.00,0.0271
454.00,0.0269
453.00,0.0269
452.00,0.0263
451.00,0.0257
450.00,0.0253
449.00,0.0249
448.00,0.0241
447.00,0.0237
446.00,0.0239
445.00,0.0239
444.00,0.0232
443.00,0.0226
442.00,0.0226
441.00,0.0225
440.00,0.0220
439.00,0.0219
438.00,0.0225
437.00,0.0230
436.00,0.0229
435.00,0.0227
434.00,0.0229
433.00,0.0231
432.00,0.0226
431.00,0.0225
430.00,0.0230
429.00,0.0234
428.00,0.0229
427.00,0.0225
426.00,0.0230
425.00,0.0238
424.00,0.0240
423.00,0.0245
422.00,0.0260
421.00,0.0277
420.00,0.0288
419.00,0.0306
418.00,0.0338
417.00,0.0367
416.00,0.0384
415.00,0.0406
414.00,0.0438
413.00,0.0463
412.00,0.0468
411.00,0.0465
410.00,0.0467
409.00,0.0468
408.00,0.0458
407.00,0.0449
406.00,0.0443
405.00,0.0425
404.00,0.0389
403.00,0.0360
402.00,0.0354
401.00,0.0352
400.00,0.0336
