Created as New Dataset,Sample 897 By YargerLab Date Wednesday, July 23 2025
cm-1,A
4000.00,0.0017
3999.00,0.0017
3998.00,0.0017
3997.00,0.0017
3996.00,0.0017
3995.00,0.0017
3994.00,0.0017
3993.00,0.0017
3992.00,0.0017
3991.00,0.0017
3990.00,0.0017
3989.00,0.0017
3988.00,0.0017
3987.00,0.0017
3986.00,0.0017
3985.00,0.0018
3984.00,0.0018
3983.00,0.0018
3982.00,0.0017
3981.00,0.0017
3980.00,0.0017
3979.00,0.0017
3978.00,0.0017
3977.00,0.0017
3976.00,0.0017
3975.00,0.0017
3974.00,0.0017
3973.00,0.0017
3972.00,0.0017
3971.00,0.0017
3970.00,0.0018
3969.00,0.0018
3968.00,0.0018
3967.00,0.0018
3966.00,0.0018
3965.00,0.0018
3964.00,0.0018
3963.00,0.0018
3962.00,0.0018
3961.00,0.0018
3960.00,0.0018
3959.00,0.0018
3958.00,0.0018
3957.00,0.0018
3956.00,0.0018
3955.00,0.0018
3954.00,0.0018
3953.00,0.0018
3952.00,0.0017
3951.00,0.0017
3950.00,0.0017
3949.00,0.0017
3948.00,0.0017
3947.00,0.0017
3946.00,0.0017
3945.00,0.0017
3944.00,0.0017
3943.00,0.0017
3942.00,0.0017
3941.00,0.0017
3940.00,0.0017
3939.00,0.0017
3938.00,0.0017
3937.00,0.0017
3936.00,0.0017
3935.00,0.0017
3934.00,0.0016
3933.00,0.0016
3932.00,0.0016
3931.00,0.0016
3930.00,0.0017
3929.00,0.0017
3928.00,0.0017
3927.00,0.0017
3926.00,0.0017
3925.00,0.0017
3924.00,0.0017
3923.00,0.0017
3922.00,0.0017
3921.00,0.0016
3920.00,0.0016
3919.00,0.0016
3918.00,0.0016
3917.00,0.0016
3916.00,0.0016
3915.00,0.0017
3914.00,0.0017
3913.00,0.0017
3912.00,0.0017
3911.00,0.0017
3910.00,0.0017
3909.00,0.0017
3908.00,0.0017
3907.00,0.0017
3906.00,0.0016
3905.00,0.0016
3904.00,0.0015
3903.00,0.0015
3902.00,0.0014
3901.00,0.0014
3900.00,0.0014
3899.00,0.0015
3898.00,0.0015
3897.00,0.0016
3896.00,0.0016
3895.00,0.0016
3894.00,0.0016
3893.00,0.0016
3892.00,0.0016
3891.00,0.0016
3890.00,0.0016
3889.00,0.0016
3888.00,0.0015
3887.00,0.0015
3886.00,0.0015
3885.00,0.0015
3884.00,0.0015
3883.00,0.0015
3882.00,0.0015
3881.00,0.0015
3880.00,0.0015
3879.00,0.0016
3878.00,0.0016
3877.00,0.0016
3876.00,0.0016
3875.00,0.0016
3874.00,0.0016
3873.00,0.0016
3872.00,0.0015
3871.00,0.0014
3870.00,0.0014
3869.00,0.0014
3868.00,0.0014
3867.00,0.0014
3866.00,0.0014
3865.00,0.0014
3864.00,0.0015
3863.00,0.0015
3862.00,0.0015
3861.00,0.0015
3860.00,0.0015
3859.00,0.0015
3858.00,0.0015
3857.00,0.0016
3856.00,0.0016
3855.00,0.0015
3854.00,0.0015
3853.00,0.0014
3852.00,0.0014
3851.00,0.0014
3850.00,0.0014
3849.00,0.0014
3848.00,0.0015
3847.00,0.0015
3846.00,0.0015
3845.00,0.0015
3844.00,0.0015
3843.00,0.0015
3842.00,0.0015
3841.00,0.0015
3840.00,0.0015
3839.00,0.0015
3838.00,0.0014
3837.00,0.0014
3836.00,0.0014
3835.00,0.0014
3834.00,0.0014
3833.00,0.0014
3832.00,0.0014
3831.00,0.0015
3830.00,0.0015
3829.00,0.0015
3828.00,0.0015
3827.00,0.0015
3826.00,0.0015
3825.00,0.0015
3824.00,0.0015
3823.00,0.0014
3822.00,0.0014
3821.00,0.0014
3820.00,0.0015
3819.00,0.0015
3818.00,0.0014
3817.00,0.0014
3816.00,0.0014
3815.00,0.0015
3814.00,0.0016
3813.00,0.0016
3812.00,0.0016
3811.00,0.0016
3810.00,0.0016
3809.00,0.0016
3808.00,0.0016
3807.00,0.0015
3806.00,0.0015
3805.00,0.0015
3804.00,0.0014
3803.00,0.0013
3802.00,0.0013
3801.00,0.0014
3800.00,0.0014
3799.00,0.0015
3798.00,0.0015
3797.00,0.0015
3796.00,0.0015
3795.00,0.0016
3794.00,0.0016
3793.00,0.0016
3792.00,0.0017
3791.00,0.0017
3790.00,0.0017
3789.00,0.0017
3788.00,0.0017
3787.00,0.0017
3786.00,0.0017
3785.00,0.0017
3784.00,0.0017
3783.00,0.0017
3782.00,0.0016
3781.00,0.0016
3780.00,0.0016
3779.00,0.0016
3778.00,0.0017
3777.00,0.0017
3776.00,0.0017
3775.00,0.0017
3774.00,0.0017
3773.00,0.0017
3772.00,0.0017
3771.00,0.0016
3770.00,0.0016
3769.00,0.0016
3768.00,0.0016
3767.00,0.0016
3766.00,0.0016
3765.00,0.0016
3764.00,0.0016
3763.00,0.0016
3762.00,0.0015
3761.00,0.0015
3760.00,0.0015
3759.00,0.0015
3758.00,0.0015
3757.00,0.0015
3756.00,0.0015
3755.00,0.0014
3754.00,0.0014
3753.00,0.0014
3752.00,0.0014
3751.00,0.0013
3750.00,0.0013
3749.00,0.0012
3748.00,0.0013
3747.00,0.0013
3746.00,0.0013
3745.00,0.0012
3744.00,0.0013
3743.00,0.0013
3742.00,0.0013
3741.00,0.0013
3740.00,0.0012
3739.00,0.0012
3738.00,0.0012
3737.00,0.0011
3736.00,0.0011
3735.00,0.0012
3734.00,0.0012
3733.00,0.0012
3732.00,0.0012
3731.00,0.0012
3730.00,0.0013
3729.00,0.0013
3728.00,0.0013
3727.00,0.0013
3726.00,0.0014
3725.00,0.0014
3724.00,0.0015
3723.00,0.0015
3722.00,0.0015
3721.00,0.0015
3720.00,0.0015
3719.00,0.0015
3718.00,0.0015
3717.00,0.0015
3716.00,0.0015
3715.00,0.0015
3714.00,0.0015
3713.00,0.0014
3712.00,0.0013
3711.00,0.0013
3710.00,0.0013
3709.00,0.0014
3708.00,0.0014
3707.00,0.0014
3706.00,0.0015
3705.00,0.0015
3704.00,0.0015
3703.00,0.0015
3702.00,0.0015
3701.00,0.0015
3700.00,0.0016
3699.00,0.0016
3698.00,0.0015
3697.00,0.0015
3696.00,0.0016
3695.00,0.0015
3694.00,0.0015
3693.00,0.0015
3692.00,0.0015
3691.00,0.0015
3690.00,0.0014
3689.00,0.0014
3688.00,0.0014
3687.00,0.0014
3686.00,0.0014
3685.00,0.0015
3684.00,0.0015
3683.00,0.0015
3682.00,0.0015
3681.00,0.0015
3680.00,0.0015
3679.00,0.0015
3678.00,0.0015
3677.00,0.0014
3676.00,0.0014
3675.00,0.0014
3674.00,0.0014
3673.00,0.0013
3672.00,0.0013
3671.00,0.0012
3670.00,0.0013
3669.00,0.0014
3668.00,0.0015
3667.00,0.0015
3666.00,0.0016
3665.00,0.0016
3664.00,0.0017
3663.00,0.0017
3662.00,0.0017
3661.00,0.0017
3660.00,0.0018
3659.00,0.0018
3658.00,0.0018
3657.00,0.0018
3656.00,0.0018
3655.00,0.0018
3654.00,0.0018
3653.00,0.0017
3652.00,0.0017
3651.00,0.0016
3650.00,0.0016
3649.00,0.0016
3648.00,0.0016
3647.00,0.0017
3646.00,0.0018
3645.00,0.0019
3644.00,0.0020
3643.00,0.0021
3642.00,0.0022
3641.00,0.0023
3640.00,0.0023
3639.00,0.0024
3638.00,0.0024
3637.00,0.0024
3636.00,0.0024
3635.00,0.0024
3634.00,0.0025
3633.00,0.0026
3632.00,0.0026
3631.00,0.0026
3630.00,0.0026
3629.00,0.0026
3628.00,0.0026
3627.00,0.0026
3626.00,0.0027
3625.00,0.0027
3624.00,0.0028
3623.00,0.0029
3622.00,0.0029
3621.00,0.0030
3620.00,0.0031
3619.00,0.0031
3618.00,0.0031
3617.00,0.0031
3616.00,0.0031
3615.00,0.0031
3614.00,0.0031
3613.00,0.0032
3612.00,0.0033
3611.00,0.0033
3610.00,0.0033
3609.00,0.0034
3608.00,0.0035
3607.00,0.0036
3606.00,0.0037
3605.00,0.0038
3604.00,0.0038
3603.00,0.0039
3602.00,0.0040
3601.00,0.0040
3600.00,0.0041
3599.00,0.0041
3598.00,0.0042
3597.00,0.0042
3596.00,0.0043
3595.00,0.0043
3594.00,0.0044
3593.00,0.0044
3592.00,0.0045
3591.00,0.0045
3590.00,0.0046
3589.00,0.0046
3588.00,0.0047
3587.00,0.0048
3586.00,0.0048
3585.00,0.0049
3584.00,0.0049
3583.00,0.0050
3582.00,0.0051
3581.00,0.0052
3580.00,0.0053
3579.00,0.0054
3578.00,0.0054
3577.00,0.0055
3576.00,0.0056
3575.00,0.0056
3574.00,0.0057
3573.00,0.0057
3572.00,0.0058
3571.00,0.0058
3570.00,0.0059
3569.00,0.0059
3568.00,0.0060
3567.00,0.0060
3566.00,0.0061
3565.00,0.0062
3564.00,0.0062
3563.00,0.0063
3562.00,0.0064
3561.00,0.0065
3560.00,0.0066
3559.00,0.0067
3558.00,0.0068
3557.00,0.0069
3556.00,0.0069
3555.00,0.0070
3554.00,0.0071
3553.00,0.0071
3552.00,0.0072
3551.00,0.0072
3550.00,0.0073
3549.00,0.0073
3548.00,0.0074
3547.00,0.0075
3546.00,0.0075
3545.00,0.0076
3544.00,0.0077
3543.00,0.0078
3542.00,0.0079
3541.00,0.0080
3540.00,0.0080
3539.00,0.0081
3538.00,0.0082
3537.00,0.0082
3536.00,0.0083
3535.00,0.0083
3534.00,0.0083
3533.00,0.0084
3532.00,0.0084
3531.00,0.0085
3530.00,0.0085
3529.00,0.0086
3528.00,0.0086
3527.00,0.0087
3526.00,0.0088
3525.00,0.0088
3524.00,0.0089
3523.00,0.0090
3522.00,0.0091
3521.00,0.0091
3520.00,0.0092
3519.00,0.0093
3518.00,0.0094
3517.00,0.0095
3516.00,0.0096
3515.00,0.0096
3514.00,0.0097
3513.00,0.0098
3512.00,0.0099
3511.00,0.0100
3510.00,0.0100
3509.00,0.0101
3508.00,0.0101
3507.00,0.0102
3506.00,0.0103
3505.00,0.0103
3504.00,0.0104
3503.00,0.0105
3502.00,0.0105
3501.00,0.0106
3500.00,0.0107
3499.00,0.0108
3498.00,0.0109
3497.00,0.0110
3496.00,0.0111
3495.00,0.0112
3494.00,0.0112
3493.00,0.0113
3492.00,0.0114
3491.00,0.0114
3490.00,0.0115
3489.00,0.0116
3488.00,0.0116
3487.00,0.0117
3486.00,0.0118
3485.00,0.0118
3484.00,0.0119
3483.00,0.0120
3482.00,0.0121
3481.00,0.0121
3480.00,0.0122
3479.00,0.0123
3478.00,0.0124
3477.00,0.0124
3476.00,0.0125
3475.00,0.0126
3474.00,0.0127
3473.00,0.0128
3472.00,0.0129
3471.00,0.0129
3470.00,0.0130
3469.00,0.0130
3468.00,0.0131
3467.00,0.0131
3466.00,0.0132
3465.00,0.0132
3464.00,0.0133
3463.00,0.0133
3462.00,0.0134
3461.00,0.0134
3460.00,0.0135
3459.00,0.0135
3458.00,0.0136
3457.00,0.0137
3456.00,0.0137
3455.00,0.0138
3454.00,0.0138
3453.00,0.0139
3452.00,0.0139
3451.00,0.0140
3450.00,0.0140
3449.00,0.0141
3448.00,0.0141
3447.00,0.0141
3446.00,0.0142
3445.00,0.0142
3444.00,0.0143
3443.00,0.0144
3442.00,0.0144
3441.00,0.0145
3440.00,0.0145
3439.00,0.0146
3438.00,0.0146
3437.00,0.0146
3436.00,0.0146
3435.00,0.0146
3434.00,0.0146
3433.00,0.0147
3432.00,0.0147
3431.00,0.0148
3430.00,0.0148
3429.00,0.0149
3428.00,0.0149
3427.00,0.0149
3426.00,0.0150
3425.00,0.0150
3424.00,0.0151
3423.00,0.0151
3422.00,0.0152
3421.00,0.0152
3420.00,0.0152
3419.00,0.0153
3418.00,0.0153
3417.00,0.0154
3416.00,0.0154
3415.00,0.0154
3414.00,0.0154
3413.00,0.0155
3412.00,0.0155
3411.00,0.0155
3410.00,0.0155
3409.00,0.0156
3408.00,0.0156
3407.00,0.0156
3406.00,0.0157
3405.00,0.0157
3404.00,0.0157
3403.00,0.0157
3402.00,0.0157
3401.00,0.0158
3400.00,0.0158
3399.00,0.0159
3398.00,0.0159
3397.00,0.0160
3396.00,0.0160
3395.00,0.0160
3394.00,0.0161
3393.00,0.0161
3392.00,0.0161
3391.00,0.0162
3390.00,0.0162
3389.00,0.0163
3388.00,0.0164
3387.00,0.0165
3386.00,0.0165
3385.00,0.0166
3384.00,0.0166
3383.00,0.0166
3382.00,0.0167
3381.00,0.0167
3380.00,0.0168
3379.00,0.0168
3378.00,0.0169
3377.00,0.0170
3376.00,0.0171
3375.00,0.0171
3374.00,0.0172
3373.00,0.0172
3372.00,0.0172
3371.00,0.0172
3370.00,0.0172
3369.00,0.0173
3368.00,0.0173
3367.00,0.0174
3366.00,0.0175
3365.00,0.0176
3364.00,0.0177
3363.00,0.0178
3362.00,0.0179
3361.00,0.0180
3360.00,0.0180
3359.00,0.0181
3358.00,0.0182
3357.00,0.0183
3356.00,0.0184
3355.00,0.0184
3354.00,0.0184
3353.00,0.0185
3352.00,0.0185
3351.00,0.0185
3350.00,0.0186
3349.00,0.0187
3348.00,0.0188
3347.00,0.0188
3346.00,0.0189
3345.00,0.0189
3344.00,0.0189
3343.00,0.0190
3342.00,0.0190
3341.00,0.0190
3340.00,0.0191
3339.00,0.0191
3338.00,0.0192
3337.00,0.0193
3336.00,0.0194
3335.00,0.0195
3334.00,0.0196
3333.00,0.0197
3332.00,0.0198
3331.00,0.0198
3330.00,0.0198
3329.00,0.0198
3328.00,0.0198
3327.00,0.0198
3326.00,0.0198
3325.00,0.0199
3324.00,0.0199
3323.00,0.0200
3322.00,0.0201
3321.00,0.0202
3320.00,0.0203
3319.00,0.0203
3318.00,0.0204
3317.00,0.0204
3316.00,0.0205
3315.00,0.0205
3314.00,0.0206
3313.00,0.0206
3312.00,0.0205
3311.00,0.0205
3310.00,0.0205
3309.00,0.0205
3308.00,0.0205
3307.00,0.0205
3306.00,0.0206
3305.00,0.0207
3304.00,0.0208
3303.00,0.0210
3302.00,0.0211
3301.00,0.0212
3300.00,0.0213
3299.00,0.0213
3298.00,0.0213
3297.00,0.0213
3296.00,0.0212
3295.00,0.0213
3294.00,0.0213
3293.00,0.0214
3292.00,0.0215
3291.00,0.0216
3290.00,0.0216
3289.00,0.0217
3288.00,0.0218
3287.00,0.0218
3286.00,0.0218
3285.00,0.0218
3284.00,0.0218
3283.00,0.0218
3282.00,0.0218
3281.00,0.0218
3280.00,0.0218
3279.00,0.0218
3278.00,0.0218
3277.00,0.0218
3276.00,0.0218
3275.00,0.0217
3274.00,0.0216
3273.00,0.0215
3272.00,0.0215
3271.00,0.0214
3270.00,0.0214
3269.00,0.0215
3268.00,0.0215
3267.00,0.0215
3266.00,0.0215
3265.00,0.0215
3264.00,0.0214
3263.00,0.0213
3262.00,0.0212
3261.00,0.0211
3260.00,0.0210
3259.00,0.0209
3258.00,0.0208
3257.00,0.0207
3256.00,0.0206
3255.00,0.0205
3254.00,0.0205
3253.00,0.0204
3252.00,0.0204
3251.00,0.0203
3250.00,0.0202
3249.00,0.0201
3248.00,0.0199
3247.00,0.0198
3246.00,0.0198
3245.00,0.0197
3244.00,0.0197
3243.00,0.0197
3242.00,0.0196
3241.00,0.0196
3240.00,0.0195
3239.00,0.0194
3238.00,0.0193
3237.00,0.0192
3236.00,0.0190
3235.00,0.0189
3234.00,0.0188
3233.00,0.0188
3232.00,0.0188
3231.00,0.0188
3230.00,0.0188
3229.00,0.0188
3228.00,0.0188
3227.00,0.0187
3226.00,0.0187
3225.00,0.0187
3224.00,0.0186
3223.00,0.0186
3222.00,0.0185
3221.00,0.0185
3220.00,0.0184
3219.00,0.0184
3218.00,0.0183
3217.00,0.0183
3216.00,0.0183
3215.00,0.0182
3214.00,0.0182
3213.00,0.0181
3212.00,0.0181
3211.00,0.0180
3210.00,0.0180
3209.00,0.0179
3208.00,0.0179
3207.00,0.0179
3206.00,0.0178
3205.00,0.0178
3204.00,0.0178
3203.00,0.0177
3202.00,0.0177
3201.00,0.0176
3200.00,0.0176
3199.00,0.0175
3198.00,0.0175
3197.00,0.0174
3196.00,0.0174
3195.00,0.0173
3194.00,0.0172
3193.00,0.0172
3192.00,0.0171
3191.00,0.0171
3190.00,0.0170
3189.00,0.0169
3188.00,0.0169
3187.00,0.0168
3186.00,0.0167
3185.00,0.0167
3184.00,0.0166
3183.00,0.0165
3182.00,0.0165
3181.00,0.0164
3180.00,0.0164
3179.00,0.0163
3178.00,0.0162
3177.00,0.0161
3176.00,0.0161
3175.00,0.0160
3174.00,0.0160
3173.00,0.0159
3172.00,0.0158
3171.00,0.0158
3170.00,0.0157
3169.00,0.0156
3168.00,0.0156
3167.00,0.0155
3166.00,0.0154
3165.00,0.0154
3164.00,0.0153
3163.00,0.0152
3162.00,0.0151
3161.00,0.0150
3160.00,0.0150
3159.00,0.0149
3158.00,0.0148
3157.00,0.0147
3156.00,0.0146
3155.00,0.0145
3154.00,0.0144
3153.00,0.0144
3152.00,0.0143
3151.00,0.0143
3150.00,0.0142
3149.00,0.0142
3148.00,0.0142
3147.00,0.0141
3146.00,0.0141
3145.00,0.0140
3144.00,0.0140
3143.00,0.0139
3142.00,0.0138
3141.00,0.0138
3140.00,0.0137
3139.00,0.0136
3138.00,0.0136
3137.00,0.0136
3136.00,0.0135
3135.00,0.0135
3134.00,0.0134
3133.00,0.0134
3132.00,0.0134
3131.00,0.0133
3130.00,0.0133
3129.00,0.0132
3128.00,0.0132
3127.00,0.0132
3126.00,0.0131
3125.00,0.0131
3124.00,0.0130
3123.00,0.0129
3122.00,0.0129
3121.00,0.0128
3120.00,0.0127
3119.00,0.0127
3118.00,0.0127
3117.00,0.0126
3116.00,0.0126
3115.00,0.0126
3114.00,0.0126
3113.00,0.0127
3112.00,0.0127
3111.00,0.0127
3110.00,0.0126
3109.00,0.0126
3108.00,0.0126
3107.00,0.0126
3106.00,0.0126
3105.00,0.0126
3104.00,0.0126
3103.00,0.0126
3102.00,0.0126
3101.00,0.0126
3100.00,0.0125
3099.00,0.0125
3098.00,0.0126
3097.00,0.0126
3096.00,0.0126
3095.00,0.0126
3094.00,0.0126
3093.00,0.0125
3092.00,0.0125
3091.00,0.0125
3090.00,0.0125
3089.00,0.0125
3088.00,0.0125
3087.00,0.0125
3086.00,0.0124
3085.00,0.0124
3084.00,0.0124
3083.00,0.0124
3082.00,0.0123
3081.00,0.0123
3080.00,0.0123
3079.00,0.0123
3078.00,0.0123
3077.00,0.0124
3076.00,0.0124
3075.00,0.0125
3074.00,0.0125
3073.00,0.0125
3072.00,0.0125
3071.00,0.0124
3070.00,0.0124
3069.00,0.0123
3068.00,0.0123
3067.00,0.0123
3066.00,0.0123
3065.00,0.0123
3064.00,0.0123
3063.00,0.0124
3062.00,0.0124
3061.00,0.0124
3060.00,0.0123
3059.00,0.0123
3058.00,0.0122
3057.00,0.0122
3056.00,0.0121
3055.00,0.0121
3054.00,0.0120
3053.00,0.0120
3052.00,0.0119
3051.00,0.0119
3050.00,0.0119
3049.00,0.0118
3048.00,0.0118
3047.00,0.0118
3046.00,0.0117
3045.00,0.0116
3044.00,0.0115
3043.00,0.0115
3042.00,0.0114
3041.00,0.0114
3040.00,0.0114
3039.00,0.0114
3038.00,0.0114
3037.00,0.0113
3036.00,0.0112
3035.00,0.0112
3034.00,0.0111
3033.00,0.0111
3032.00,0.0111
3031.00,0.0111
3030.00,0.0111
3029.00,0.0111
3028.00,0.0111
3027.00,0.0110
3026.00,0.0109
3025.00,0.0109
3024.00,0.0109
3023.00,0.0108
3022.00,0.0108
3021.00,0.0108
3020.00,0.0107
3019.00,0.0106
3018.00,0.0105
3017.00,0.0105
3016.00,0.0104
3015.00,0.0104
3014.00,0.0103
3013.00,0.0102
3012.00,0.0102
3011.00,0.0102
3010.00,0.0102
3009.00,0.0102
3008.00,0.0102
3007.00,0.0102
3006.00,0.0102
3005.00,0.0101
3004.00,0.0101
3003.00,0.0101
3002.00,0.0100
3001.00,0.0100
3000.00,0.0100
2999.00,0.0100
2998.00,0.0100
2997.00,0.0100
2996.00,0.0101
2995.00,0.0101
2994.00,0.0102
2993.00,0.0102
2992.00,0.0103
2991.00,0.0104
2990.00,0.0105
2989.00,0.0107
2988.00,0.0108
2987.00,0.0109
2986.00,0.0109
2985.00,0.0108
2984.00,0.0107
2983.00,0.0106
2982.00,0.0106
2981.00,0.0107
2980.00,0.0109
2979.00,0.0111
2978.00,0.0114
2977.00,0.0117
2976.00,0.0119
2975.00,0.0122
2974.00,0.0123
2973.00,0.0125
2972.00,0.0126
2971.00,0.0128
2970.00,0.0130
2969.00,0.0132
2968.00,0.0134
2967.00,0.0136
2966.00,0.0138
2965.00,0.0139
2964.00,0.0140
2963.00,0.0141
2962.00,0.0142
2961.00,0.0143
2960.00,0.0144
2959.00,0.0145
2958.00,0.0145
2957.00,0.0145
2956.00,0.0145
2955.00,0.0145
2954.00,0.0145
2953.00,0.0145
2952.00,0.0145
2951.00,0.0146
2950.00,0.0146
2949.00,0.0146
2948.00,0.0146
2947.00,0.0146
2946.00,0.0146
2945.00,0.0146
2944.00,0.0146
2943.00,0.0146
2942.00,0.0146
2941.00,0.0147
2940.00,0.0147
2939.00,0.0147
2938.00,0.0148
2937.00,0.0148
2936.00,0.0148
2935.00,0.0147
2934.00,0.0147
2933.00,0.0147
2932.00,0.0146
2931.00,0.0146
2930.00,0.0146
2929.00,0.0146
2928.00,0.0146
2927.00,0.0146
2926.00,0.0146
2925.00,0.0146
2924.00,0.0146
2923.00,0.0145
2922.00,0.0145
2921.00,0.0145
2920.00,0.0145
2919.00,0.0144
2918.00,0.0143
2917.00,0.0142
2916.00,0.0141
2915.00,0.0140
2914.00,0.0139
2913.00,0.0137
2912.00,0.0136
2911.00,0.0134
2910.00,0.0133
2909.00,0.0132
2908.00,0.0131
2907.00,0.0130
2906.00,0.0129
2905.00,0.0128
2904.00,0.0127
2903.00,0.0127
2902.00,0.0126
2901.00,0.0125
2900.00,0.0125
2899.00,0.0124
2898.00,0.0124
2897.00,0.0123
2896.00,0.0123
2895.00,0.0123
2894.00,0.0123
2893.00,0.0122
2892.00,0.0122
2891.00,0.0122
2890.00,0.0121
2889.00,0.0121
2888.00,0.0121
2887.00,0.0122
2886.00,0.0122
2885.00,0.0122
2884.00,0.0122
2883.00,0.0123
2882.00,0.0123
2881.00,0.0124
2880.00,0.0124
2879.00,0.0125
2878.00,0.0125
2877.00,0.0125
2876.00,0.0125
2875.00,0.0125
2874.00,0.0124
2873.00,0.0123
2872.00,0.0123
2871.00,0.0122
2870.00,0.0122
2869.00,0.0121
2868.00,0.0120
2867.00,0.0119
2866.00,0.0118
2865.00,0.0117
2864.00,0.0116
2863.00,0.0115
2862.00,0.0114
2861.00,0.0113
2860.00,0.0112
2859.00,0.0111
2858.00,0.0110
2857.00,0.0109
2856.00,0.0108
2855.00,0.0107
2854.00,0.0107
2853.00,0.0106
2852.00,0.0106
2851.00,0.0105
2850.00,0.0104
2849.00,0.0104
2848.00,0.0103
2847.00,0.0102
2846.00,0.0101
2845.00,0.0100
2844.00,0.0098
2843.00,0.0097
2842.00,0.0096
2841.00,0.0095
2840.00,0.0094
2839.00,0.0093
2838.00,0.0092
2837.00,0.0091
2836.00,0.0091
2835.00,0.0090
2834.00,0.0090
2833.00,0.0089
2832.00,0.0089
2831.00,0.0088
2830.00,0.0088
2829.00,0.0087
2828.00,0.0086
2827.00,0.0086
2826.00,0.0085
2825.00,0.0085
2824.00,0.0084
2823.00,0.0084
2822.00,0.0083
2821.00,0.0083
2820.00,0.0082
2819.00,0.0082
2818.00,0.0082
2817.00,0.0081
2816.00,0.0081
2815.00,0.0081
2814.00,0.0080
2813.00,0.0080
2812.00,0.0079
2811.00,0.0079
2810.00,0.0079
2809.00,0.0078
2808.00,0.0078
2807.00,0.0078
2806.00,0.0078
2805.00,0.0077
2804.00,0.0077
2803.00,0.0077
2802.00,0.0076
2801.00,0.0076
2800.00,0.0076
2799.00,0.0075
2798.00,0.0075
2797.00,0.0075
2796.00,0.0075
2795.00,0.0075
2794.00,0.0075
2793.00,0.0074
2792.00,0.0074
2791.00,0.0074
2790.00,0.0074
2789.00,0.0073
2788.00,0.0073
2787.00,0.0073
2786.00,0.0073
2785.00,0.0073
2784.00,0.0073
2783.00,0.0072
2782.00,0.0072
2781.00,0.0072
2780.00,0.0072
2779.00,0.0071
2778.00,0.0071
2777.00,0.0071
2776.00,0.0070
2775.00,0.0070
2774.00,0.0070
2773.00,0.0070
2772.00,0.0070
2771.00,0.0070
2770.00,0.0069
2769.00,0.0069
2768.00,0.0069
2767.00,0.0068
2766.00,0.0068
2765.00,0.0068
2764.00,0.0068
2763.00,0.0068
2762.00,0.0068
2761.00,0.0068
2760.00,0.0067
2759.00,0.0067
2758.00,0.0067
2757.00,0.0067
2756.00,0.0067
2755.00,0.0066
2754.00,0.0066
2753.00,0.0066
2752.00,0.0066
2751.00,0.0066
2750.00,0.0065
2749.00,0.0065
2748.00,0.0065
2747.00,0.0065
2746.00,0.0065
2745.00,0.0065
2744.00,0.0065
2743.00,0.0065
2742.00,0.0064
2741.00,0.0064
2740.00,0.0064
2739.00,0.0064
2738.00,0.0064
2737.00,0.0064
2736.00,0.0064
2735.00,0.0064
2734.00,0.0063
2733.00,0.0063
2732.00,0.0063
2731.00,0.0063
2730.00,0.0063
2729.00,0.0062
2728.00,0.0062
2727.00,0.0062
2726.00,0.0062
2725.00,0.0061
2724.00,0.0061
2723.00,0.0061
2722.00,0.0061
2721.00,0.0061
2720.00,0.0061
2719.00,0.0061
2718.00,0.0061
2717.00,0.0060
2716.00,0.0060
2715.00,0.0060
2714.00,0.0060
2713.00,0.0059
2712.00,0.0059
2711.00,0.0059
2710.00,0.0059
2709.00,0.0059
2708.00,0.0059
2707.00,0.0059
2706.00,0.0058
2705.00,0.0058
2704.00,0.0058
2703.00,0.0058
2702.00,0.0058
2701.00,0.0057
2700.00,0.0057
2699.00,0.0057
2698.00,0.0057
2697.00,0.0058
2696.00,0.0058
2695.00,0.0057
2694.00,0.0057
2693.00,0.0057
2692.00,0.0057
2691.00,0.0057
2690.00,0.0056
2689.00,0.0056
2688.00,0.0056
2687.00,0.0056
2686.00,0.0056
2685.00,0.0056
2684.00,0.0056
2683.00,0.0056
2682.00,0.0056
2681.00,0.0055
2680.00,0.0055
2679.00,0.0055
2678.00,0.0055
2677.00,0.0055
2676.00,0.0055
2675.00,0.0055
2674.00,0.0055
2673.00,0.0055
2672.00,0.0055
2671.00,0.0054
2670.00,0.0054
2669.00,0.0054
2668.00,0.0055
2667.00,0.0055
2666.00,0.0055
2665.00,0.0056
2664.00,0.0056
2663.00,0.0057
2662.00,0.0057
2661.00,0.0057
2660.00,0.0057
2659.00,0.0057
2658.00,0.0058
2657.00,0.0058
2656.00,0.0058
2655.00,0.0058
2654.00,0.0058
2653.00,0.0058
2652.00,0.0058
2651.00,0.0058
2650.00,0.0058
2649.00,0.0058
2648.00,0.0058
2647.00,0.0058
2646.00,0.0058
2645.00,0.0057
2644.00,0.0057
2643.00,0.0057
2642.00,0.0057
2641.00,0.0057
2640.00,0.0057
2639.00,0.0057
2638.00,0.0056
2637.00,0.0056
2636.00,0.0056
2635.00,0.0056
2634.00,0.0056
2633.00,0.0056
2632.00,0.0056
2631.00,0.0056
2630.00,0.0055
2629.00,0.0055
2628.00,0.0055
2627.00,0.0055
2626.00,0.0055
2625.00,0.0055
2624.00,0.0055
2623.00,0.0055
2622.00,0.0054
2621.00,0.0054
2620.00,0.0054
2619.00,0.0054
2618.00,0.0054
2617.00,0.0054
2616.00,0.0054
2615.00,0.0054
2614.00,0.0054
2613.00,0.0054
2612.00,0.0054
2611.00,0.0054
2610.00,0.0053
2609.00,0.0053
2608.00,0.0053
2607.00,0.0053
2606.00,0.0052
2605.00,0.0052
2604.00,0.0052
2603.00,0.0052
2602.00,0.0051
2601.00,0.0051
2600.00,0.0051
2599.00,0.0051
2598.00,0.0051
2597.00,0.0051
2596.00,0.0051
2595.00,0.0051
2594.00,0.0051
2593.00,0.0051
2592.00,0.0051
2591.00,0.0050
2590.00,0.0050
2589.00,0.0049
2588.00,0.0049
2587.00,0.0049
2586.00,0.0049
2585.00,0.0049
2584.00,0.0049
2583.00,0.0049
2582.00,0.0049
2581.00,0.0049
2580.00,0.0049
2579.00,0.0049
2578.00,0.0049
2577.00,0.0048
2576.00,0.0048
2575.00,0.0048
2574.00,0.0048
2573.00,0.0047
2572.00,0.0047
2571.00,0.0047
2570.00,0.0047
2569.00,0.0047
2568.00,0.0047
2567.00,0.0047
2566.00,0.0047
2565.00,0.0047
2564.00,0.0047
2563.00,0.0047
2562.00,0.0047
2561.00,0.0047
2560.00,0.0046
2559.00,0.0046
2558.00,0.0046
2557.00,0.0046
2556.00,0.0046
2555.00,0.0046
2554.00,0.0045
2553.00,0.0045
2552.00,0.0045
2551.00,0.0045
2550.00,0.0045
2549.00,0.0045
2548.00,0.0044
2547.00,0.0044
2546.00,0.0044
2545.00,0.0044
2544.00,0.0044
2543.00,0.0045
2542.00,0.0045
2541.00,0.0044
2540.00,0.0044
2539.00,0.0044
2538.00,0.0043
2537.00,0.0043
2536.00,0.0043
2535.00,0.0043
2534.00,0.0043
2533.00,0.0043
2532.00,0.0042
2531.00,0.0042
2530.00,0.0042
2529.00,0.0042
2528.00,0.0042
2527.00,0.0042
2526.00,0.0042
2525.00,0.0042
2524.00,0.0042
2523.00,0.0042
2522.00,0.0042
2521.00,0.0042
2520.00,0.0041
2519.00,0.0041
2518.00,0.0041
2517.00,0.0041
2516.00,0.0042
2515.00,0.0042
2514.00,0.0042
2513.00,0.0042
2512.00,0.0042
2511.00,0.0041
2510.00,0.0041
2509.00,0.0041
2508.00,0.0041
2507.00,0.0041
2506.00,0.0041
2505.00,0.0041
2504.00,0.0040
2503.00,0.0040
2502.00,0.0040
2501.00,0.0040
2500.00,0.0040
2499.00,0.0040
2498.00,0.0040
2497.00,0.0040
2496.00,0.0040
2495.00,0.0040
2494.00,0.0040
2493.00,0.0040
2492.00,0.0040
2491.00,0.0040
2490.00,0.0039
2489.00,0.0039
2488.00,0.0039
2487.00,0.0039
2486.00,0.0040
2485.00,0.0040
2484.00,0.0040
2483.00,0.0040
2482.00,0.0040
2481.00,0.0040
2480.00,0.0040
2479.00,0.0040
2478.00,0.0039
2477.00,0.0039
2476.00,0.0039
2475.00,0.0038
2474.00,0.0038
2473.00,0.0038
2472.00,0.0038
2471.00,0.0038
2470.00,0.0038
2469.00,0.0038
2468.00,0.0038
2467.00,0.0038
2466.00,0.0038
2465.00,0.0038
2464.00,0.0038
2463.00,0.0038
2462.00,0.0038
2461.00,0.0038
2460.00,0.0038
2459.00,0.0039
2458.00,0.0039
2457.00,0.0039
2456.00,0.0040
2455.00,0.0040
2454.00,0.0039
2453.00,0.0039
2452.00,0.0039
2451.00,0.0039
2450.00,0.0039
2449.00,0.0039
2448.00,0.0039
2447.00,0.0038
2446.00,0.0038
2445.00,0.0037
2444.00,0.0037
2443.00,0.0036
2442.00,0.0036
2441.00,0.0036
2440.00,0.0036
2439.00,0.0037
2438.00,0.0036
2437.00,0.0036
2436.00,0.0036
2435.00,0.0036
2434.00,0.0036
2433.00,0.0036
2432.00,0.0036
2431.00,0.0036
2430.00,0.0036
2429.00,0.0035
2428.00,0.0035
2427.00,0.0035
2426.00,0.0035
2425.00,0.0035
2424.00,0.0035
2423.00,0.0035
2422.00,0.0035
2421.00,0.0034
2420.00,0.0034
2419.00,0.0034
2418.00,0.0034
2417.00,0.0034
2416.00,0.0034
2415.00,0.0034
2414.00,0.0034
2413.00,0.0034
2412.00,0.0034
2411.00,0.0034
2410.00,0.0033
2409.00,0.0033
2408.00,0.0032
2407.00,0.0032
2406.00,0.0031
2405.00,0.0031
2404.00,0.0031
2403.00,0.0031
2402.00,0.0032
2401.00,0.0032
2400.00,0.0032
2399.00,0.0033
2398.00,0.0033
2397.00,0.0033
2396.00,0.0033
2395.00,0.0033
2394.00,0.0033
2393.00,0.0032
2392.00,0.0032
2391.00,0.0032
2390.00,0.0031
2389.00,0.0031
2388.00,0.0030
2387.00,0.0030
2386.00,0.0030
2385.00,0.0030
2384.00,0.0029
2383.00,0.0029
2382.00,0.0029
2381.00,0.0028
2380.00,0.0028
2379.00,0.0028
2378.00,0.0028
2377.00,0.0028
2376.00,0.0028
2375.00,0.0028
2374.00,0.0028
2373.00,0.0027
2372.00,0.0027
2371.00,0.0027
2370.00,0.0027
2369.00,0.0027
2368.00,0.0027
2367.00,0.0027
2366.00,0.0027
2365.00,0.0027
2364.00,0.0027
2363.00,0.0027
2362.00,0.0028
2361.00,0.0028
2360.00,0.0028
2359.00,0.0027
2358.00,0.0027
2357.00,0.0028
2356.00,0.0028
2355.00,0.0028
2354.00,0.0028
2353.00,0.0028
2352.00,0.0027
2351.00,0.0026
2350.00,0.0027
2349.00,0.0028
2348.00,0.0030
2347.00,0.0032
2346.00,0.0033
2345.00,0.0032
2344.00,0.0031
2343.00,0.0031
2342.00,0.0030
2341.00,0.0031
2340.00,0.0031
2339.00,0.0032
2338.00,0.0031
2337.00,0.0031
2336.00,0.0031
2335.00,0.0031
2334.00,0.0031
2333.00,0.0031
2332.00,0.0031
2331.00,0.0031
2330.00,0.0032
2329.00,0.0033
2328.00,0.0037
2327.00,0.0041
2326.00,0.0044
2325.00,0.0045
2324.00,0.0044
2323.00,0.0042
2322.00,0.0040
2321.00,0.0038
2320.00,0.0037
2319.00,0.0037
2318.00,0.0036
2317.00,0.0035
2316.00,0.0035
2315.00,0.0035
2314.00,0.0034
2313.00,0.0034
2312.00,0.0034
2311.00,0.0034
2310.00,0.0034
2309.00,0.0034
2308.00,0.0034
2307.00,0.0034
2306.00,0.0034
2305.00,0.0034
2304.00,0.0034
2303.00,0.0035
2302.00,0.0035
2301.00,0.0036
2300.00,0.0036
2299.00,0.0037
2298.00,0.0037
2297.00,0.0038
2296.00,0.0038
2295.00,0.0039
2294.00,0.0039
2293.00,0.0040
2292.00,0.0041
2291.00,0.0042
2290.00,0.0043
2289.00,0.0044
2288.00,0.0045
2287.00,0.0045
2286.00,0.0044
2285.00,0.0043
2284.00,0.0042
2283.00,0.0041
2282.00,0.0041
2281.00,0.0040
2280.00,0.0040
2279.00,0.0040
2278.00,0.0040
2277.00,0.0040
2276.00,0.0040
2275.00,0.0040
2274.00,0.0039
2273.00,0.0039
2272.00,0.0039
2271.00,0.0039
2270.00,0.0038
2269.00,0.0037
2268.00,0.0036
2267.00,0.0035
2266.00,0.0035
2265.00,0.0035
2264.00,0.0035
2263.00,0.0036
2262.00,0.0037
2261.00,0.0038
2260.00,0.0038
2259.00,0.0038
2258.00,0.0036
2257.00,0.0034
2256.00,0.0033
2255.00,0.0032
2254.00,0.0031
2253.00,0.0031
2252.00,0.0032
2251.00,0.0033
2250.00,0.0033
2249.00,0.0033
2248.00,0.0033
2247.00,0.0033
2246.00,0.0033
2245.00,0.0033
2244.00,0.0034
2243.00,0.0034
2242.00,0.0034
2241.00,0.0034
2240.00,0.0034
2239.00,0.0033
2238.00,0.0033
2237.00,0.0033
2236.00,0.0034
2235.00,0.0034
2234.00,0.0034
2233.00,0.0034
2232.00,0.0035
2231.00,0.0035
2230.00,0.0034
2229.00,0.0034
2228.00,0.0034
2227.00,0.0035
2226.00,0.0034
2225.00,0.0034
2224.00,0.0035
2223.00,0.0035
2222.00,0.0034
2221.00,0.0034
2220.00,0.0033
2219.00,0.0032
2218.00,0.0032
2217.00,0.0032
2216.00,0.0032
2215.00,0.0031
2214.00,0.0031
2213.00,0.0030
2212.00,0.0030
2211.00,0.0030
2210.00,0.0031
2209.00,0.0031
2208.00,0.0031
2207.00,0.0032
2206.00,0.0032
2205.00,0.0033
2204.00,0.0034
2203.00,0.0035
2202.00,0.0035
2201.00,0.0036
2200.00,0.0036
2199.00,0.0036
2198.00,0.0036
2197.00,0.0035
2196.00,0.0036
2195.00,0.0036
2194.00,0.0036
2193.00,0.0036
2192.00,0.0037
2191.00,0.0036
2190.00,0.0036
2189.00,0.0036
2188.00,0.0036
2187.00,0.0036
2186.00,0.0035
2185.00,0.0034
2184.00,0.0032
2183.00,0.0030
2182.00,0.0027
2181.00,0.0027
2180.00,0.0028
2179.00,0.0030
2178.00,0.0031
2177.00,0.0030
2176.00,0.0030
2175.00,0.0030
2174.00,0.0031
2173.00,0.0032
2172.00,0.0034
2171.00,0.0036
2170.00,0.0038
2169.00,0.0040
2168.00,0.0041
2167.00,0.0042
2166.00,0.0042
2165.00,0.0043
2164.00,0.0044
2163.00,0.0042
2162.00,0.0036
2161.00,0.0025
2160.00,0.0012
2159.00,0.0001
2158.00,-0.0003
2157.00,-0.0002
2156.00,0.0001
2155.00,0.0004
2154.00,0.0006
2153.00,0.0009
2152.00,0.0011
2151.00,0.0012
2150.00,0.0012
2149.00,0.0012
2148.00,0.0012
2147.00,0.0013
2146.00,0.0013
2145.00,0.0014
2144.00,0.0014
2143.00,0.0015
2142.00,0.0015
2141.00,0.0016
2140.00,0.0016
2139.00,0.0015
2138.00,0.0014
2137.00,0.0012
2136.00,0.0010
2135.00,0.0008
2134.00,0.0008
2133.00,0.0009
2132.00,0.0011
2131.00,0.0013
2130.00,0.0015
2129.00,0.0017
2128.00,0.0019
2127.00,0.0020
2126.00,0.0021
2125.00,0.0023
2124.00,0.0024
2123.00,0.0025
2122.00,0.0025
2121.00,0.0025
2120.00,0.0025
2119.00,0.0025
2118.00,0.0026
2117.00,0.0028
2116.00,0.0029
2115.00,0.0030
2114.00,0.0030
2113.00,0.0030
2112.00,0.0030
2111.00,0.0030
2110.00,0.0030
2109.00,0.0030
2108.00,0.0030
2107.00,0.0030
2106.00,0.0030
2105.00,0.0030
2104.00,0.0029
2103.00,0.0029
2102.00,0.0029
2101.00,0.0029
2100.00,0.0028
2099.00,0.0028
2098.00,0.0026
2097.00,0.0025
2096.00,0.0023
2095.00,0.0023
2094.00,0.0023
2093.00,0.0024
2092.00,0.0025
2091.00,0.0026
2090.00,0.0028
2089.00,0.0028
2088.00,0.0029
2087.00,0.0029
2086.00,0.0029
2085.00,0.0029
2084.00,0.0029
2083.00,0.0029
2082.00,0.0029
2081.00,0.0029
2080.00,0.0029
2079.00,0.0029
2078.00,0.0029
2077.00,0.0029
2076.00,0.0029
2075.00,0.0028
2074.00,0.0027
2073.00,0.0027
2072.00,0.0027
2071.00,0.0026
2070.00,0.0026
2069.00,0.0025
2068.00,0.0025
2067.00,0.0025
2066.00,0.0025
2065.00,0.0025
2064.00,0.0024
2063.00,0.0024
2062.00,0.0023
2061.00,0.0023
2060.00,0.0023
2059.00,0.0024
2058.00,0.0025
2057.00,0.0025
2056.00,0.0025
2055.00,0.0026
2054.00,0.0028
2053.00,0.0032
2052.00,0.0035
2051.00,0.0035
2050.00,0.0033
2049.00,0.0029
2048.00,0.0027
2047.00,0.0026
2046.00,0.0026
2045.00,0.0026
2044.00,0.0026
2043.00,0.0026
2042.00,0.0026
2041.00,0.0025
2040.00,0.0025
2039.00,0.0025
2038.00,0.0025
2037.00,0.0025
2036.00,0.0024
2035.00,0.0022
2034.00,0.0021
2033.00,0.0021
2032.00,0.0022
2031.00,0.0022
2030.00,0.0020
2029.00,0.0018
2028.00,0.0017
2027.00,0.0016
2026.00,0.0016
2025.00,0.0015
2024.00,0.0015
2023.00,0.0016
2022.00,0.0016
2021.00,0.0018
2020.00,0.0018
2019.00,0.0018
2018.00,0.0017
2017.00,0.0017
2016.00,0.0017
2015.00,0.0018
2014.00,0.0018
2013.00,0.0018
2012.00,0.0019
2011.00,0.0019
2010.00,0.0017
2009.00,0.0014
2008.00,0.0012
2007.00,0.0010
2006.00,0.0010
2005.00,0.0010
2004.00,0.0012
2003.00,0.0013
2002.00,0.0014
2001.00,0.0014
2000.00,0.0015
1999.00,0.0016
1998.00,0.0017
1997.00,0.0018
1996.00,0.0018
1995.00,0.0018
1994.00,0.0018
1993.00,0.0018
1992.00,0.0019
1991.00,0.0020
1990.00,0.0021
1989.00,0.0023
1988.00,0.0025
1987.00,0.0027
1986.00,0.0028
1985.00,0.0028
1984.00,0.0030
1983.00,0.0032
1982.00,0.0033
1981.00,0.0034
1980.00,0.0032
1979.00,0.0026
1978.00,0.0019
1977.00,0.0013
1976.00,0.0010
1975.00,0.0010
1974.00,0.0010
1973.00,0.0010
1972.00,0.0010
1971.00,0.0010
1970.00,0.0011
1969.00,0.0012
1968.00,0.0013
1967.00,0.0014
1966.00,0.0015
1965.00,0.0014
1964.00,0.0013
1963.00,0.0012
1962.00,0.0010
1961.00,0.0008
1960.00,0.0008
1959.00,0.0008
1958.00,0.0009
1957.00,0.0010
1956.00,0.0011
1955.00,0.0012
1954.00,0.0012
1953.00,0.0012
1952.00,0.0013
1951.00,0.0014
1950.00,0.0014
1949.00,0.0014
1948.00,0.0014
1947.00,0.0015
1946.00,0.0015
1945.00,0.0015
1944.00,0.0015
1943.00,0.0015
1942.00,0.0015
1941.00,0.0015
1940.00,0.0015
1939.00,0.0014
1938.00,0.0013
1937.00,0.0013
1936.00,0.0014
1935.00,0.0014
1934.00,0.0014
1933.00,0.0014
1932.00,0.0015
1931.00,0.0015
1930.00,0.0015
1929.00,0.0014
1928.00,0.0014
1927.00,0.0013
1926.00,0.0013
1925.00,0.0014
1924.00,0.0014
1923.00,0.0015
1922.00,0.0016
1921.00,0.0016
1920.00,0.0017
1919.00,0.0017
1918.00,0.0017
1917.00,0.0017
1916.00,0.0017
1915.00,0.0017
1914.00,0.0017
1913.00,0.0018
1912.00,0.0018
1911.00,0.0018
1910.00,0.0017
1909.00,0.0017
1908.00,0.0017
1907.00,0.0017
1906.00,0.0017
1905.00,0.0018
1904.00,0.0018
1903.00,0.0018
1902.00,0.0018
1901.00,0.0018
1900.00,0.0018
1899.00,0.0018
1898.00,0.0018
1897.00,0.0018
1896.00,0.0018
1895.00,0.0018
1894.00,0.0018
1893.00,0.0018
1892.00,0.0017
1891.00,0.0017
1890.00,0.0017
1889.00,0.0018
1888.00,0.0019
1887.00,0.0019
1886.00,0.0019
1885.00,0.0019
1884.00,0.0019
1883.00,0.0019
1882.00,0.0018
1881.00,0.0018
1880.00,0.0018
1879.00,0.0018
1878.00,0.0018
1877.00,0.0018
1876.00,0.0018
1875.00,0.0018
1874.00,0.0018
1873.00,0.0018
1872.00,0.0017
1871.00,0.0017
1870.00,0.0016
1869.00,0.0016
1868.00,0.0017
1867.00,0.0018
1866.00,0.0018
1865.00,0.0019
1864.00,0.0020
1863.00,0.0020
1862.00,0.0020
1861.00,0.0019
1860.00,0.0019
1859.00,0.0019
1858.00,0.0018
1857.00,0.0019
1856.00,0.0019
1855.00,0.0019
1854.00,0.0019
1853.00,0.0019
1852.00,0.0019
1851.00,0.0019
1850.00,0.0019
1849.00,0.0019
1848.00,0.0019
1847.00,0.0019
1846.00,0.0019
1845.00,0.0018
1844.00,0.0018
1843.00,0.0018
1842.00,0.0019
1841.00,0.0019
1840.00,0.0019
1839.00,0.0019
1838.00,0.0019
1837.00,0.0019
1836.00,0.0019
1835.00,0.0019
1834.00,0.0019
1833.00,0.0019
1832.00,0.0019
1831.00,0.0019
1830.00,0.0018
1829.00,0.0018
1828.00,0.0018
1827.00,0.0018
1826.00,0.0018
1825.00,0.0018
1824.00,0.0019
1823.00,0.0020
1822.00,0.0019
1821.00,0.0019
1820.00,0.0019
1819.00,0.0018
1818.00,0.0017
1817.00,0.0017
1816.00,0.0017
1815.00,0.0018
1814.00,0.0018
1813.00,0.0018
1812.00,0.0018
1811.00,0.0019
1810.00,0.0019
1809.00,0.0019
1808.00,0.0020
1807.00,0.0020
1806.00,0.0020
1805.00,0.0020
1804.00,0.0020
1803.00,0.0020
1802.00,0.0019
1801.00,0.0019
1800.00,0.0020
1799.00,0.0020
1798.00,0.0020
1797.00,0.0020
1796.00,0.0020
1795.00,0.0021
1794.00,0.0020
1793.00,0.0020
1792.00,0.0021
1791.00,0.0021
1790.00,0.0022
1789.00,0.0022
1788.00,0.0022
1787.00,0.0022
1786.00,0.0022
1785.00,0.0022
1784.00,0.0022
1783.00,0.0022
1782.00,0.0021
1781.00,0.0021
1780.00,0.0021
1779.00,0.0021
1778.00,0.0021
1777.00,0.0021
1776.00,0.0021
1775.00,0.0021
1774.00,0.0021
1773.00,0.0021
1772.00,0.0021
1771.00,0.0022
1770.00,0.0022
1769.00,0.0023
1768.00,0.0023
1767.00,0.0024
1766.00,0.0024
1765.00,0.0024
1764.00,0.0024
1763.00,0.0024
1762.00,0.0024
1761.00,0.0025
1760.00,0.0025
1759.00,0.0025
1758.00,0.0025
1757.00,0.0025
1756.00,0.0026
1755.00,0.0026
1754.00,0.0027
1753.00,0.0026
1752.00,0.0026
1751.00,0.0025
1750.00,0.0025
1749.00,0.0025
1748.00,0.0025
1747.00,0.0026
1746.00,0.0027
1745.00,0.0027
1744.00,0.0028
1743.00,0.0029
1742.00,0.0029
1741.00,0.0029
1740.00,0.0030
1739.00,0.0031
1738.00,0.0032
1737.00,0.0033
1736.00,0.0034
1735.00,0.0035
1734.00,0.0036
1733.00,0.0037
1732.00,0.0038
1731.00,0.0038
1730.00,0.0038
1729.00,0.0040
1728.00,0.0042
1727.00,0.0044
1726.00,0.0045
1725.00,0.0047
1724.00,0.0048
1723.00,0.0050
1722.00,0.0051
1721.00,0.0053
1720.00,0.0054
1719.00,0.0056
1718.00,0.0058
1717.00,0.0061
1716.00,0.0064
1715.00,0.0067
1714.00,0.0069
1713.00,0.0073
1712.00,0.0077
1711.00,0.0081
1710.00,0.0085
1709.00,0.0090
1708.00,0.0095
1707.00,0.0100
1706.00,0.0107
1705.00,0.0114
1704.00,0.0123
1703.00,0.0131
1702.00,0.0139
1701.00,0.0151
1700.00,0.0167
1699.00,0.0182
1698.00,0.0194
1697.00,0.0206
1696.00,0.0222
1695.00,0.0239
1694.00,0.0253
1693.00,0.0264
1692.00,0.0276
1691.00,0.0289
1690.00,0.0303
1689.00,0.0317
1688.00,0.0331
1687.00,0.0345
1686.00,0.0358
1685.00,0.0373
1684.00,0.0390
1683.00,0.0405
1682.00,0.0419
1681.00,0.0431
1680.00,0.0444
1679.00,0.0458
1678.00,0.0470
1677.00,0.0482
1676.00,0.0495
1675.00,0.0507
1674.00,0.0519
1673.00,0.0529
1672.00,0.0539
1671.00,0.0549
1670.00,0.0559
1669.00,0.0569
1668.00,0.0580
1667.00,0.0590
1666.00,0.0600
1665.00,0.0609
1664.00,0.0619
1663.00,0.0628
1662.00,0.0636
1661.00,0.0644
1660.00,0.0653
1659.00,0.0662
1658.00,0.0671
1657.00,0.0680
1656.00,0.0689
1655.00,0.0698
1654.00,0.0703
1653.00,0.0703
1652.00,0.0703
1651.00,0.0704
1650.00,0.0705
1649.00,0.0706
1648.00,0.0706
1647.00,0.0703
1646.00,0.0699
1645.00,0.0695
1644.00,0.0693
1643.00,0.0690
1642.00,0.0687
1641.00,0.0683
1640.00,0.0678
1639.00,0.0674
1638.00,0.0669
1637.00,0.0662
1636.00,0.0653
1635.00,0.0643
1634.00,0.0636
1633.00,0.0631
1632.00,0.0628
1631.00,0.0624
1630.00,0.0619
1629.00,0.0613
1628.00,0.0606
1627.00,0.0600
1626.00,0.0595
1625.00,0.0590
1624.00,0.0583
1623.00,0.0574
1622.00,0.0567
1621.00,0.0560
1620.00,0.0555
1619.00,0.0549
1618.00,0.0541
1617.00,0.0530
1616.00,0.0518
1615.00,0.0507
1614.00,0.0497
1613.00,0.0489
1612.00,0.0480
1611.00,0.0471
1610.00,0.0461
1609.00,0.0452
1608.00,0.0442
1607.00,0.0434
1606.00,0.0426
1605.00,0.0419
1604.00,0.0411
1603.00,0.0404
1602.00,0.0398
1601.00,0.0392
1600.00,0.0386
1599.00,0.0380
1598.00,0.0374
1597.00,0.0369
1596.00,0.0363
1595.00,0.0358
1594.00,0.0353
1593.00,0.0348
1592.00,0.0344
1591.00,0.0339
1590.00,0.0335
1589.00,0.0331
1588.00,0.0328
1587.00,0.0324
1586.00,0.0322
1585.00,0.0319
1584.00,0.0317
1583.00,0.0315
1582.00,0.0314
1581.00,0.0313
1580.00,0.0312
1579.00,0.0312
1578.00,0.0312
1577.00,0.0312
1576.00,0.0311
1575.00,0.0311
1574.00,0.0311
1573.00,0.0312
1572.00,0.0312
1571.00,0.0312
1570.00,0.0312
1569.00,0.0314
1568.00,0.0316
1567.00,0.0318
1566.00,0.0320
1565.00,0.0322
1564.00,0.0325
1563.00,0.0328
1562.00,0.0332
1561.00,0.0334
1560.00,0.0334
1559.00,0.0335
1558.00,0.0339
1557.00,0.0345
1556.00,0.0349
1555.00,0.0353
1554.00,0.0357
1553.00,0.0361
1552.00,0.0365
1551.00,0.0368
1550.00,0.0372
1549.00,0.0377
1548.00,0.0381
1547.00,0.0384
1546.00,0.0387
1545.00,0.0390
1544.00,0.0392
1543.00,0.0395
1542.00,0.0397
1541.00,0.0400
1540.00,0.0402
1539.00,0.0405
1538.00,0.0408
1537.00,0.0409
1536.00,0.0410
1535.00,0.0411
1534.00,0.0412
1533.00,0.0413
1532.00,0.0414
1531.00,0.0416
1530.00,0.0417
1529.00,0.0418
1528.00,0.0418
1527.00,0.0418
1526.00,0.0417
1525.00,0.0417
1524.00,0.0417
1523.00,0.0417
1522.00,0.0416
1521.00,0.0416
1520.00,0.0416
1519.00,0.0415
1518.00,0.0415
1517.00,0.0414
1516.00,0.0414
1515.00,0.0414
1514.00,0.0413
1513.00,0.0411
1512.00,0.0408
1511.00,0.0405
1510.00,0.0402
1509.00,0.0399
1508.00,0.0394
1507.00,0.0389
1506.00,0.0386
1505.00,0.0385
1504.00,0.0384
1503.00,0.0383
1502.00,0.0381
1501.00,0.0380
1500.00,0.0378
1499.00,0.0377
1498.00,0.0375
1497.00,0.0373
1496.00,0.0370
1495.00,0.0367
1494.00,0.0363
1493.00,0.0358
1492.00,0.0351
1491.00,0.0343
1490.00,0.0334
1489.00,0.0325
1488.00,0.0317
1487.00,0.0310
1486.00,0.0304
1485.00,0.0298
1484.00,0.0292
1483.00,0.0286
1482.00,0.0281
1481.00,0.0277
1480.00,0.0273
1479.00,0.0271
1478.00,0.0269
1477.00,0.0269
1476.00,0.0270
1475.00,0.0272
1474.00,0.0275
1473.00,0.0280
1472.00,0.0287
1471.00,0.0295
1470.00,0.0303
1469.00,0.0311
1468.00,0.0319
1467.00,0.0327
1466.00,0.0335
1465.00,0.0344
1464.00,0.0351
1463.00,0.0358
1462.00,0.0363
1461.00,0.0366
1460.00,0.0368
1459.00,0.0369
1458.00,0.0367
1457.00,0.0364
1456.00,0.0360
1455.00,0.0356
1454.00,0.0352
1453.00,0.0349
1452.00,0.0347
1451.00,0.0346
1450.00,0.0346
1449.00,0.0346
1448.00,0.0348
1447.00,0.0351
1446.00,0.0355
1445.00,0.0360
1444.00,0.0365
1443.00,0.0370
1442.00,0.0376
1441.00,0.0381
1440.00,0.0386
1439.00,0.0391
1438.00,0.0394
1437.00,0.0397
1436.00,0.0398
1435.00,0.0399
1434.00,0.0399
1433.00,0.0398
1432.00,0.0397
1431.00,0.0396
1430.00,0.0396
1429.00,0.0398
1428.00,0.0401
1427.00,0.0405
1426.00,0.0410
1425.00,0.0414
1424.00,0.0419
1423.00,0.0423
1422.00,0.0426
1421.00,0.0427
1420.00,0.0425
1419.00,0.0419
1418.00,0.0411
1417.00,0.0403
1416.00,0.0394
1415.00,0.0384
1414.00,0.0375
1413.00,0.0365
1412.00,0.0356
1411.00,0.0347
1410.00,0.0339
1409.00,0.0333
1408.00,0.0327
1407.00,0.0322
1406.00,0.0318
1405.00,0.0314
1404.00,0.0311
1403.00,0.0309
1402.00,0.0307
1401.00,0.0305
1400.00,0.0303
1399.00,0.0301
1398.00,0.0300
1397.00,0.0299
1396.00,0.0299
1395.00,0.0299
1394.00,0.0299
1393.00,0.0299
1392.00,0.0300
1391.00,0.0300
1390.00,0.0301
1389.00,0.0301
1388.00,0.0302
1387.00,0.0302
1386.00,0.0302
1385.00,0.0302
1384.00,0.0301
1383.00,0.0301
1382.00,0.0300
1381.00,0.0300
1380.00,0.0299
1379.00,0.0298
1378.00,0.0298
1377.00,0.0297
1376.00,0.0296
1375.00,0.0295
1374.00,0.0295
1373.00,0.0294
1372.00,0.0294
1371.00,0.0293
1370.00,0.0291
1369.00,0.0289
1368.00,0.0286
1367.00,0.0283
1366.00,0.0279
1365.00,0.0275
1364.00,0.0270
1363.00,0.0265
1362.00,0.0261
1361.00,0.0258
1360.00,0.0254
1359.00,0.0251
1358.00,0.0248
1357.00,0.0245
1356.00,0.0243
1355.00,0.0240
1354.00,0.0238
1353.00,0.0236
1352.00,0.0235
1351.00,0.0233
1350.00,0.0232
1349.00,0.0231
1348.00,0.0230
1347.00,0.0229
1346.00,0.0228
1345.00,0.0228
1344.00,0.0228
1343.00,0.0227
1342.00,0.0227
1341.00,0.0227
1340.00,0.0227
1339.00,0.0227
1338.00,0.0228
1337.00,0.0229
1336.00,0.0230
1335.00,0.0231
1334.00,0.0232
1333.00,0.0232
1332.00,0.0233
1331.00,0.0235
1330.00,0.0237
1329.00,0.0239
1328.00,0.0241
1327.00,0.0244
1326.00,0.0247
1325.00,0.0250
1324.00,0.0253
1323.00,0.0257
1322.00,0.0260
1321.00,0.0263
1320.00,0.0266
1319.00,0.0269
1318.00,0.0271
1317.00,0.0273
1316.00,0.0274
1315.00,0.0274
1314.00,0.0274
1313.00,0.0273
1312.00,0.0272
1311.00,0.0271
1310.00,0.0269
1309.00,0.0268
1308.00,0.0266
1307.00,0.0265
1306.00,0.0265
1305.00,0.0265
1304.00,0.0267
1303.00,0.0269
1302.00,0.0272
1301.00,0.0276
1300.00,0.0281
1299.00,0.0288
1298.00,0.0296
1297.00,0.0305
1296.00,0.0315
1295.00,0.0326
1294.00,0.0338
1293.00,0.0350
1292.00,0.0362
1291.00,0.0373
1290.00,0.0383
1289.00,0.0393
1288.00,0.0400
1287.00,0.0406
1286.00,0.0410
1285.00,0.0411
1284.00,0.0411
1283.00,0.0409
1282.00,0.0407
1281.00,0.0403
1280.00,0.0400
1279.00,0.0397
1278.00,0.0396
1277.00,0.0395
1276.00,0.0396
1275.00,0.0397
1274.00,0.0399
1273.00,0.0401
1272.00,0.0403
1271.00,0.0404
1270.00,0.0404
1269.00,0.0403
1268.00,0.0400
1267.00,0.0397
1266.00,0.0393
1265.00,0.0388
1264.00,0.0383
1263.00,0.0377
1262.00,0.0372
1261.00,0.0366
1260.00,0.0360
1259.00,0.0355
1258.00,0.0351
1257.00,0.0346
1256.00,0.0342
1255.00,0.0339
1254.00,0.0336
1253.00,0.0334
1252.00,0.0332
1251.00,0.0330
1250.00,0.0329
1249.00,0.0329
1248.00,0.0329
1247.00,0.0329
1246.00,0.0330
1245.00,0.0331
1244.00,0.0332
1243.00,0.0333
1242.00,0.0334
1241.00,0.0336
1240.00,0.0337
1239.00,0.0339
1238.00,0.0342
1237.00,0.0344
1236.00,0.0346
1235.00,0.0348
1234.00,0.0350
1233.00,0.0351
1232.00,0.0352
1231.00,0.0353
1230.00,0.0354
1229.00,0.0354
1228.00,0.0353
1227.00,0.0352
1226.00,0.0351
1225.00,0.0350
1224.00,0.0348
1223.00,0.0346
1222.00,0.0344
1221.00,0.0342
1220.00,0.0339
1219.00,0.0336
1218.00,0.0333
1217.00,0.0330
1216.00,0.0327
1215.00,0.0323
1214.00,0.0319
1213.00,0.0315
1212.00,0.0311
1211.00,0.0307
1210.00,0.0303
1209.00,0.0298
1208.00,0.0294
1207.00,0.0290
1206.00,0.0286
1205.00,0.0282
1204.00,0.0277
1203.00,0.0274
1202.00,0.0270
1201.00,0.0266
1200.00,0.0263
1199.00,0.0260
1198.00,0.0257
1197.00,0.0254
1196.00,0.0252
1195.00,0.0249
1194.00,0.0246
1193.00,0.0244
1192.00,0.0241
1191.00,0.0239
1190.00,0.0238
1189.00,0.0236
1188.00,0.0234
1187.00,0.0233
1186.00,0.0232
1185.00,0.0231
1184.00,0.0231
1183.00,0.0230
1182.00,0.0231
1181.00,0.0231
1180.00,0.0231
1179.00,0.0231
1178.00,0.0233
1177.00,0.0234
1176.00,0.0236
1175.00,0.0238
1174.00,0.0241
1173.00,0.0244
1172.00,0.0246
1171.00,0.0248
1170.00,0.0250
1169.00,0.0251
1168.00,0.0252
1167.00,0.0254
1166.00,0.0255
1165.00,0.0256
1164.00,0.0256
1163.00,0.0257
1162.00,0.0258
1161.00,0.0258
1160.00,0.0258
1159.00,0.0258
1158.00,0.0258
1157.00,0.0258
1156.00,0.0257
1155.00,0.0256
1154.00,0.0255
1153.00,0.0254
1152.00,0.0252
1151.00,0.0250
1150.00,0.0248
1149.00,0.0246
1148.00,0.0244
1147.00,0.0242
1146.00,0.0241
1145.00,0.0239
1144.00,0.0236
1143.00,0.0234
1142.00,0.0232
1141.00,0.0230
1140.00,0.0227
1139.00,0.0226
1138.00,0.0224
1137.00,0.0223
1136.00,0.0222
1135.00,0.0221
1134.00,0.0221
1133.00,0.0222
1132.00,0.0222
1131.00,0.0222
1130.00,0.0223
1129.00,0.0224
1128.00,0.0225
1127.00,0.0226
1126.00,0.0228
1125.00,0.0230
1124.00,0.0231
1123.00,0.0232
1122.00,0.0234
1121.00,0.0235
1120.00,0.0236
1119.00,0.0238
1118.00,0.0239
1117.00,0.0241
1116.00,0.0242
1115.00,0.0243
1114.00,0.0245
1113.00,0.0247
1112.00,0.0248
1111.00,0.0249
1110.00,0.0251
1109.00,0.0252
1108.00,0.0253
1107.00,0.0254
1106.00,0.0256
1105.00,0.0258
1104.00,0.0259
1103.00,0.0260
1102.00,0.0262
1101.00,0.0263
1100.00,0.0263
1099.00,0.0264
1098.00,0.0265
1097.00,0.0266
1096.00,0.0268
1095.00,0.0269
1094.00,0.0271
1093.00,0.0273
1092.00,0.0275
1091.00,0.0276
1090.00,0.0279
1089.00,0.0282
1088.00,0.0284
1087.00,0.0287
1086.00,0.0289
1085.00,0.0292
1084.00,0.0294
1083.00,0.0295
1082.00,0.0297
1081.00,0.0299
1080.00,0.0300
1079.00,0.0300
1078.00,0.0301
1077.00,0.0301
1076.00,0.0300
1075.00,0.0299
1074.00,0.0298
1073.00,0.0297
1072.00,0.0295
1071.00,0.0294
1070.00,0.0293
1069.00,0.0293
1068.00,0.0293
1067.00,0.0292
1066.00,0.0292
1065.00,0.0292
1064.00,0.0292
1063.00,0.0293
1062.00,0.0294
1061.00,0.0295
1060.00,0.0296
1059.00,0.0298
1058.00,0.0299
1057.00,0.0301
1056.00,0.0302
1055.00,0.0303
1054.00,0.0303
1053.00,0.0304
1052.00,0.0304
1051.00,0.0305
1050.00,0.0306
1049.00,0.0307
1048.00,0.0307
1047.00,0.0307
1046.00,0.0307
1045.00,0.0307
1044.00,0.0307
1043.00,0.0307
1042.00,0.0306
1041.00,0.0306
1040.00,0.0305
1039.00,0.0304
1038.00,0.0305
1037.00,0.0306
1036.00,0.0306
1035.00,0.0306
1034.00,0.0307
1033.00,0.0307
1032.00,0.0307
1031.00,0.0307
1030.00,0.0308
1029.00,0.0309
1028.00,0.0310
1027.00,0.0311
1026.00,0.0313
1025.00,0.0314
1024.00,0.0314
1023.00,0.0314
1022.00,0.0315
1021.00,0.0314
1020.00,0.0313
1019.00,0.0312
1018.00,0.0310
1017.00,0.0307
1016.00,0.0304
1015.00,0.0300
1014.00,0.0296
1013.00,0.0292
1012.00,0.0288
1011.00,0.0284
1010.00,0.0281
1009.00,0.0278
1008.00,0.0275
1007.00,0.0273
1006.00,0.0271
1005.00,0.0270
1004.00,0.0269
1003.00,0.0267
1002.00,0.0266
1001.00,0.0264
1000.00,0.0260
999.00,0.0257
998.00,0.0254
997.00,0.0251
996.00,0.0247
995.00,0.0244
994.00,0.0240
993.00,0.0237
992.00,0.0233
991.00,0.0229
990.00,0.0225
989.00,0.0222
988.00,0.0218
987.00,0.0215
986.00,0.0212
985.00,0.0208
984.00,0.0205
983.00,0.0202
982.00,0.0200
981.00,0.0198
980.00,0.0196
979.00,0.0195
978.00,0.0194
977.00,0.0194
976.00,0.0193
975.00,0.0192
974.00,0.0192
973.00,0.0192
972.00,0.0191
971.00,0.0191
970.00,0.0191
969.00,0.0191
968.00,0.0190
967.00,0.0190
966.00,0.0190
965.00,0.0190
964.00,0.0189
963.00,0.0189
962.00,0.0189
961.00,0.0188
960.00,0.0186
959.00,0.0184
958.00,0.0183
957.00,0.0182
956.00,0.0181
955.00,0.0180
954.00,0.0179
953.00,0.0178
952.00,0.0177
951.00,0.0176
950.00,0.0175
949.00,0.0175
948.00,0.0174
947.00,0.0174
946.00,0.0174
945.00,0.0175
944.00,0.0175
943.00,0.0176
942.00,0.0178
941.00,0.0180
940.00,0.0181
939.00,0.0184
938.00,0.0186
937.00,0.0189
936.00,0.0191
935.00,0.0193
934.00,0.0195
933.00,0.0196
932.00,0.0196
931.00,0.0195
930.00,0.0195
929.00,0.0195
928.00,0.0194
927.00,0.0193
926.00,0.0193
925.00,0.0193
924.00,0.0191
923.00,0.0190
922.00,0.0189
921.00,0.0189
920.00,0.0188
919.00,0.0187
918.00,0.0186
917.00,0.0185
916.00,0.0184
915.00,0.0183
914.00,0.0182
913.00,0.0181
912.00,0.0180
911.00,0.0179
910.00,0.0179
909.00,0.0178
908.00,0.0177
907.00,0.0176
906.00,0.0176
905.00,0.0176
904.00,0.0176
903.00,0.0177
902.00,0.0178
901.00,0.0179
900.00,0.0179
899.00,0.0180
898.00,0.0181
897.00,0.0182
896.00,0.0182
895.00,0.0182
894.00,0.0183
893.00,0.0182
892.00,0.0181
891.00,0.0180
890.00,0.0179
889.00,0.0179
888.00,0.0178
887.00,0.0177
886.00,0.0177
885.00,0.0177
884.00,0.0176
883.00,0.0176
882.00,0.0176
881.00,0.0176
880.00,0.0175
879.00,0.0175
878.00,0.0175
877.00,0.0175
876.00,0.0174
875.00,0.0174
874.00,0.0175
873.00,0.0175
872.00,0.0175
871.00,0.0176
870.00,0.0176
869.00,0.0177
868.00,0.0178
867.00,0.0179
866.00,0.0180
865.00,0.0182
864.00,0.0183
863.00,0.0184
862.00,0.0186
861.00,0.0188
860.00,0.0189
859.00,0.0191
858.00,0.0193
857.00,0.0196
856.00,0.0198
855.00,0.0201
854.00,0.0204
853.00,0.0207
852.00,0.0209
851.00,0.0212
850.00,0.0214
849.00,0.0216
848.00,0.0217
847.00,0.0218
846.00,0.0219
845.00,0.0220
844.00,0.0220
843.00,0.0220
842.00,0.0220
841.00,0.0220
840.00,0.0220
839.00,0.0220
838.00,0.0221
837.00,0.0220
836.00,0.0220
835.00,0.0219
834.00,0.0219
833.00,0.0219
832.00,0.0218
831.00,0.0217
830.00,0.0217
829.00,0.0216
828.00,0.0215
827.00,0.0213
826.00,0.0213
825.00,0.0212
824.00,0.0212
823.00,0.0211
822.00,0.0211
821.00,0.0211
820.00,0.0210
819.00,0.0210
818.00,0.0210
817.00,0.0210
816.00,0.0210
815.00,0.0210
814.00,0.0211
813.00,0.0211
812.00,0.0211
811.00,0.0211
810.00,0.0212
809.00,0.0213
808.00,0.0213
807.00,0.0214
806.00,0.0215
805.00,0.0216
804.00,0.0216
803.00,0.0217
802.00,0.0219
801.00,0.0220
800.00,0.0221
799.00,0.0223
798.00,0.0224
797.00,0.0226
796.00,0.0227
795.00,0.0228
794.00,0.0230
793.00,0.0231
792.00,0.0232
791.00,0.0233
790.00,0.0236
789.00,0.0238
788.00,0.0240
787.00,0.0242
786.00,0.0244
785.00,0.0246
784.00,0.0248
783.00,0.0250
782.00,0.0252
781.00,0.0254
780.00,0.0255
779.00,0.0255
778.00,0.0256
777.00,0.0256
776.00,0.0255
775.00,0.0255
774.00,0.0255
773.00,0.0255
772.00,0.0255
771.00,0.0255
770.00,0.0257
769.00,0.0259
768.00,0.0261
767.00,0.0262
766.00,0.0264
765.00,0.0266
764.00,0.0266
763.00,0.0267
762.00,0.0269
761.00,0.0271
760.00,0.0272
759.00,0.0274
758.00,0.0276
757.00,0.0279
756.00,0.0281
755.00,0.0282
754.00,0.0284
753.00,0.0286
752.00,0.0287
751.00,0.0289
750.00,0.0293
749.00,0.0296
748.00,0.0298
747.00,0.0300
746.00,0.0303
745.00,0.0304
744.00,0.0306
743.00,0.0307
742.00,0.0310
741.00,0.0312
740.00,0.0313
739.00,0.0315
738.00,0.0317
737.00,0.0320
736.00,0.0321
735.00,0.0322
734.00,0.0323
733.00,0.0324
732.00,0.0324
731.00,0.0324
730.00,0.0325
729.00,0.0325
728.00,0.0325
727.00,0.0325
726.00,0.0325
725.00,0.0326
724.00,0.0326
723.00,0.0327
722.00,0.0328
721.00,0.0329
720.00,0.0330
719.00,0.0331
718.00,0.0332
717.00,0.0334
716.00,0.0336
715.00,0.0337
714.00,0.0339
713.00,0.0341
712.00,0.0342
711.00,0.0344
710.00,0.0346
709.00,0.0349
708.00,0.0350
707.00,0.0353
706.00,0.0356
705.00,0.0359
704.00,0.0361
703.00,0.0363
702.00,0.0366
701.00,0.0368
700.00,0.0369
699.00,0.0370
698.00,0.0373
697.00,0.0375
696.00,0.0376
695.00,0.0377
694.00,0.0379
693.00,0.0380
692.00,0.0380
691.00,0.0380
690.00,0.0382
689.00,0.0383
688.00,0.0384
687.00,0.0386
686.00,0.0389
685.00,0.0391
684.00,0.0392
683.00,0.0393
682.00,0.0396
681.00,0.0397
680.00,0.0399
679.00,0.0400
678.00,0.0403
677.00,0.0406
676.00,0.0408
675.00,0.0411
674.00,0.0415
673.00,0.0418
672.00,0.0419
671.00,0.0421
670.00,0.0424
669.00,0.0426
668.00,0.0429
667.00,0.0432
666.00,0.0436
665.00,0.0440
664.00,0.0443
663.00,0.0446
662.00,0.0450
661.00,0.0454
660.00,0.0457
659.00,0.0460
658.00,0.0463
657.00,0.0467
656.00,0.0470
655.00,0.0473
654.00,0.0477
653.00,0.0480
652.00,0.0481
651.00,0.0483
650.00,0.0485
649.00,0.0487
648.00,0.0488
647.00,0.0489
646.00,0.0490
645.00,0.0491
644.00,0.0492
643.00,0.0492
642.00,0.0492
641.00,0.0491
640.00,0.0489
639.00,0.0487
638.00,0.0486
637.00,0.0486
636.00,0.0484
635.00,0.0484
634.00,0.0484
633.00,0.0485
632.00,0.0485
631.00,0.0485
630.00,0.0486
629.00,0.0486
628.00,0.0486
627.00,0.0485
626.00,0.0486
625.00,0.0487
624.00,0.0488
623.00,0.0489
622.00,0.0492
621.00,0.0494
620.00,0.0494
619.00,0.0495
618.00,0.0496
617.00,0.0497
616.00,0.0497
615.00,0.0497
614.00,0.0499
613.00,0.0501
612.00,0.0501
611.00,0.0502
610.00,0.0503
609.00,0.0504
608.00,0.0505
607.00,0.0506
606.00,0.0508
605.00,0.0510
604.00,0.0510
603.00,0.0511
602.00,0.0515
601.00,0.0518
600.00,0.0520
599.00,0.0521
598.00,0.0524
597.00,0.0527
596.00,0.0527
595.00,0.0529
594.00,0.0532
593.00,0.0536
592.00,0.0540
591.00,0.0543
590.00,0.0546
589.00,0.0548
588.00,0.0549
587.00,0.0550
586.00,0.0555
585.00,0.0559
584.00,0.0561
583.00,0.0563
582.00,0.0567
581.00,0.0569
580.00,0.0571
579.00,0.0573
578.00,0.0576
577.00,0.0580
576.00,0.0581
575.00,0.0582
574.00,0.0584
573.00,0.0586
572.00,0.0586
571.00,0.0585
570.00,0.0586
569.00,0.0585
568.00,0.0583
567.00,0.0581
566.00,0.0581
565.00,0.0581
564.00,0.0580
563.00,0.0579
562.00,0.0579
561.00,0.0579
560.00,0.0577
559.00,0.0575
558.00,0.0575
557.00,0.0575
556.00,0.0573
555.00,0.0573
554.00,0.0574
553.00,0.0576
552.00,0.0575
551.00,0.0574
550.00,0.0574
549.00,0.0574
548.00,0.0573
547.00,0.0573
546.00,0.0574
545.00,0.0576
544.00,0.0577
543.00,0.0578
542.00,0.0583
541.00,0.0587
540.00,0.0587
539.00,0.0587
538.00,0.0586
537.00,0.0585
536.00,0.0583
535.00,0.0583
534.00,0.0585
533.00,0.0587
532.00,0.0587
531.00,0.0587
530.00,0.0588
529.00,0.0589
528.00,0.0588
527.00,0.0588
526.00,0.0589
525.00,0.0590
524.00,0.0590
523.00,0.0590
522.00,0.0592
521.00,0.0594
520.00,0.0591
519.00,0.0589
518.00,0.0589
517.00,0.0588
516.00,0.0586
515.00,0.0584
514.00,0.0585
513.00,0.0586
512.00,0.0586
511.00,0.0585
510.00,0.0586
509.00,0.0585
508.00,0.0582
507.00,0.0580
506.00,0.0581
505.00,0.0581
504.00,0.0578
503.00,0.0577
502.00,0.0578
501.00,0.0579
500.00,0.0577
499.00,0.0576
498.00,0.0577
497.00,0.0578
496.00,0.0576
495.00,0.0575
494.00,0.0578
493.00,0.0581
492.00,0.0580
491.00,0.0578
490.00,0.0577
489.00,0.0575
488.00,0.0571
487.00,0.0569
486.00,0.0573
485.00,0.0576
484.00,0.0574
483.00,0.0571
482.00,0.0571
481.00,0.0570
480.00,0.0566
479.00,0.0563
478.00,0.0565
477.00,0.0567
476.00,0.0565
475.00,0.0563
474.00,0.0564
473.00,0.0565
472.00,0.0563
471.00,0.0563
470.00,0.0568
469.00,0.0571
468.00,0.0568
467.00,0.0563
466.00,0.0564
465.00,0.0564
464.00,0.0561
463.00,0.0558
462.00,0.0561
461.00,0.0565
460.00,0.0564
459.00,0.0563
458.00,0.0567
457.00,0.0568
456.00,0.0563
455.00,0.0557
454.00,0.0558
453.00,0.0559
452.00,0.0556
451.00,0.0554
450.00,0.0555
449.00,0.0555
448.00,0.0551
447.00,0.0549
446.00,0.0552
445.00,0.0555
444.00,0.0553
443.00,0.0552
442.00,0.0555
441.00,0.0557
440.00,0.0554
439.00,0.0552
438.00,0.0557
437.00,0.0562
436.00,0.0561
435.00,0.0561
434.00,0.0564
433.00,0.0566
432.00,0.0561
431.00,0.0558
430.00,0.0561
429.00,0.0564
428.00,0.0563
427.00,0.0566
426.00,0.0576
425.00,0.0584
424.00,0.0582
423.00,0.0578
422.00,0.0582
421.00,0.0584
420.00,0.0572
419.00,0.0558
418.00,0.0558
417.00,0.0559
416.00,0.0554
415.00,0.0552
414.00,0.0560
413.00,0.0568
412.00,0.0567
411.00,0.0566
410.00,0.0571
409.00,0.0571
408.00,0.0561
407.00,0.0557
406.00,0.0571
405.00,0.0584
404.00,0.0576
403.00,0.0559
402.00,0.0550
401.00,0.0545
400.00,0.0531
