Created as New Dataset,Sample 562 By YargerLab Date Thursday, June 05 2025
cm-1,A
4000.00,0.0009
3999.00,0.0008
3998.00,0.0008
3997.00,0.0008
3996.00,0.0008
3995.00,0.0008
3994.00,0.0008
3993.00,0.0008
3992.00,0.0008
3991.00,0.0008
3990.00,0.0008
3989.00,0.0008
3988.00,0.0008
3987.00,0.0008
3986.00,0.0008
3985.00,0.0008
3984.00,0.0008
3983.00,0.0008
3982.00,0.0008
3981.00,0.0008
3980.00,0.0008
3979.00,0.0008
3978.00,0.0008
3977.00,0.0008
3976.00,0.0008
3975.00,0.0008
3974.00,0.0008
3973.00,0.0008
3972.00,0.0008
3971.00,0.0008
3970.00,0.0008
3969.00,0.0008
3968.00,0.0008
3967.00,0.0008
3966.00,0.0008
3965.00,0.0008
3964.00,0.0008
3963.00,0.0008
3962.00,0.0008
3961.00,0.0008
3960.00,0.0008
3959.00,0.0008
3958.00,0.0008
3957.00,0.0008
3956.00,0.0008
3955.00,0.0008
3954.00,0.0008
3953.00,0.0008
3952.00,0.0008
3951.00,0.0008
3950.00,0.0008
3949.00,0.0007
3948.00,0.0007
3947.00,0.0007
3946.00,0.0007
3945.00,0.0008
3944.00,0.0008
3943.00,0.0008
3942.00,0.0008
3941.00,0.0008
3940.00,0.0008
3939.00,0.0008
3938.00,0.0008
3937.00,0.0008
3936.00,0.0008
3935.00,0.0007
3934.00,0.0007
3933.00,0.0007
3932.00,0.0007
3931.00,0.0007
3930.00,0.0008
3929.00,0.0008
3928.00,0.0008
3927.00,0.0007
3926.00,0.0007
3925.00,0.0007
3924.00,0.0008
3923.00,0.0008
3922.00,0.0008
3921.00,0.0008
3920.00,0.0008
3919.00,0.0008
3918.00,0.0008
3917.00,0.0008
3916.00,0.0008
3915.00,0.0008
3914.00,0.0007
3913.00,0.0007
3912.00,0.0007
3911.00,0.0007
3910.00,0.0007
3909.00,0.0007
3908.00,0.0007
3907.00,0.0007
3906.00,0.0008
3905.00,0.0008
3904.00,0.0008
3903.00,0.0009
3902.00,0.0008
3901.00,0.0008
3900.00,0.0008
3899.00,0.0008
3898.00,0.0008
3897.00,0.0008
3896.00,0.0007
3895.00,0.0007
3894.00,0.0007
3893.00,0.0007
3892.00,0.0007
3891.00,0.0008
3890.00,0.0007
3889.00,0.0007
3888.00,0.0007
3887.00,0.0007
3886.00,0.0007
3885.00,0.0007
3884.00,0.0007
3883.00,0.0007
3882.00,0.0007
3881.00,0.0007
3880.00,0.0007
3879.00,0.0007
3878.00,0.0007
3877.00,0.0007
3876.00,0.0007
3875.00,0.0007
3874.00,0.0007
3873.00,0.0008
3872.00,0.0008
3871.00,0.0008
3870.00,0.0008
3869.00,0.0008
3868.00,0.0008
3867.00,0.0007
3866.00,0.0007
3865.00,0.0007
3864.00,0.0007
3863.00,0.0007
3862.00,0.0007
3861.00,0.0007
3860.00,0.0007
3859.00,0.0007
3858.00,0.0008
3857.00,0.0009
3856.00,0.0009
3855.00,0.0010
3854.00,0.0009
3853.00,0.0009
3852.00,0.0008
3851.00,0.0007
3850.00,0.0007
3849.00,0.0006
3848.00,0.0006
3847.00,0.0007
3846.00,0.0007
3845.00,0.0007
3844.00,0.0007
3843.00,0.0007
3842.00,0.0007
3841.00,0.0007
3840.00,0.0007
3839.00,0.0007
3838.00,0.0007
3837.00,0.0007
3836.00,0.0007
3835.00,0.0007
3834.00,0.0007
3833.00,0.0007
3832.00,0.0007
3831.00,0.0007
3830.00,0.0007
3829.00,0.0007
3828.00,0.0007
3827.00,0.0007
3826.00,0.0007
3825.00,0.0007
3824.00,0.0007
3823.00,0.0007
3822.00,0.0007
3821.00,0.0007
3820.00,0.0007
3819.00,0.0007
3818.00,0.0007
3817.00,0.0007
3816.00,0.0007
3815.00,0.0007
3814.00,0.0007
3813.00,0.0006
3812.00,0.0006
3811.00,0.0007
3810.00,0.0007
3809.00,0.0007
3808.00,0.0007
3807.00,0.0007
3806.00,0.0007
3805.00,0.0007
3804.00,0.0007
3803.00,0.0007
3802.00,0.0007
3801.00,0.0007
3800.00,0.0007
3799.00,0.0007
3798.00,0.0007
3797.00,0.0007
3796.00,0.0007
3795.00,0.0007
3794.00,0.0007
3793.00,0.0007
3792.00,0.0007
3791.00,0.0007
3790.00,0.0007
3789.00,0.0007
3788.00,0.0007
3787.00,0.0007
3786.00,0.0007
3785.00,0.0007
3784.00,0.0007
3783.00,0.0007
3782.00,0.0008
3781.00,0.0008
3780.00,0.0008
3779.00,0.0008
3778.00,0.0008
3777.00,0.0008
3776.00,0.0008
3775.00,0.0008
3774.00,0.0008
3773.00,0.0008
3772.00,0.0008
3771.00,0.0008
3770.00,0.0008
3769.00,0.0008
3768.00,0.0008
3767.00,0.0008
3766.00,0.0008
3765.00,0.0008
3764.00,0.0007
3763.00,0.0007
3762.00,0.0007
3761.00,0.0007
3760.00,0.0007
3759.00,0.0007
3758.00,0.0008
3757.00,0.0008
3756.00,0.0008
3755.00,0.0008
3754.00,0.0008
3753.00,0.0007
3752.00,0.0007
3751.00,0.0008
3750.00,0.0008
3749.00,0.0008
3748.00,0.0008
3747.00,0.0008
3746.00,0.0008
3745.00,0.0008
3744.00,0.0007
3743.00,0.0007
3742.00,0.0007
3741.00,0.0006
3740.00,0.0006
3739.00,0.0006
3738.00,0.0006
3737.00,0.0007
3736.00,0.0007
3735.00,0.0007
3734.00,0.0007
3733.00,0.0007
3732.00,0.0007
3731.00,0.0007
3730.00,0.0007
3729.00,0.0007
3728.00,0.0007
3727.00,0.0007
3726.00,0.0007
3725.00,0.0007
3724.00,0.0007
3723.00,0.0007
3722.00,0.0007
3721.00,0.0007
3720.00,0.0007
3719.00,0.0007
3718.00,0.0007
3717.00,0.0007
3716.00,0.0007
3715.00,0.0007
3714.00,0.0007
3713.00,0.0007
3712.00,0.0008
3711.00,0.0008
3710.00,0.0008
3709.00,0.0009
3708.00,0.0009
3707.00,0.0009
3706.00,0.0008
3705.00,0.0008
3704.00,0.0008
3703.00,0.0008
3702.00,0.0008
3701.00,0.0008
3700.00,0.0009
3699.00,0.0009
3698.00,0.0009
3697.00,0.0008
3696.00,0.0008
3695.00,0.0008
3694.00,0.0009
3693.00,0.0009
3692.00,0.0009
3691.00,0.0010
3690.00,0.0010
3689.00,0.0010
3688.00,0.0010
3687.00,0.0010
3686.00,0.0010
3685.00,0.0010
3684.00,0.0011
3683.00,0.0011
3682.00,0.0011
3681.00,0.0011
3680.00,0.0012
3679.00,0.0012
3678.00,0.0013
3677.00,0.0012
3676.00,0.0012
3675.00,0.0012
3674.00,0.0013
3673.00,0.0013
3672.00,0.0013
3671.00,0.0013
3670.00,0.0014
3669.00,0.0014
3668.00,0.0015
3667.00,0.0016
3666.00,0.0016
3665.00,0.0016
3664.00,0.0017
3663.00,0.0017
3662.00,0.0018
3661.00,0.0019
3660.00,0.0019
3659.00,0.0019
3658.00,0.0020
3657.00,0.0020
3656.00,0.0020
3655.00,0.0021
3654.00,0.0022
3653.00,0.0022
3652.00,0.0023
3651.00,0.0023
3650.00,0.0024
3649.00,0.0024
3648.00,0.0025
3647.00,0.0026
3646.00,0.0027
3645.00,0.0027
3644.00,0.0027
3643.00,0.0028
3642.00,0.0028
3641.00,0.0029
3640.00,0.0030
3639.00,0.0030
3638.00,0.0031
3637.00,0.0032
3636.00,0.0032
3635.00,0.0033
3634.00,0.0033
3633.00,0.0034
3632.00,0.0035
3631.00,0.0036
3630.00,0.0036
3629.00,0.0037
3628.00,0.0038
3627.00,0.0039
3626.00,0.0039
3625.00,0.0039
3624.00,0.0040
3623.00,0.0040
3622.00,0.0041
3621.00,0.0041
3620.00,0.0041
3619.00,0.0042
3618.00,0.0043
3617.00,0.0044
3616.00,0.0045
3615.00,0.0046
3614.00,0.0046
3613.00,0.0047
3612.00,0.0049
3611.00,0.0050
3610.00,0.0050
3609.00,0.0051
3608.00,0.0052
3607.00,0.0052
3606.00,0.0053
3605.00,0.0054
3604.00,0.0054
3603.00,0.0055
3602.00,0.0056
3601.00,0.0057
3600.00,0.0057
3599.00,0.0058
3598.00,0.0059
3597.00,0.0059
3596.00,0.0060
3595.00,0.0061
3594.00,0.0061
3593.00,0.0062
3592.00,0.0063
3591.00,0.0064
3590.00,0.0065
3589.00,0.0065
3588.00,0.0066
3587.00,0.0067
3586.00,0.0068
3585.00,0.0069
3584.00,0.0070
3583.00,0.0071
3582.00,0.0071
3581.00,0.0072
3580.00,0.0073
3579.00,0.0074
3578.00,0.0075
3577.00,0.0076
3576.00,0.0076
3575.00,0.0077
3574.00,0.0078
3573.00,0.0079
3572.00,0.0080
3571.00,0.0080
3570.00,0.0081
3569.00,0.0081
3568.00,0.0082
3567.00,0.0083
3566.00,0.0084
3565.00,0.0085
3564.00,0.0086
3563.00,0.0087
3562.00,0.0088
3561.00,0.0089
3560.00,0.0090
3559.00,0.0091
3558.00,0.0092
3557.00,0.0093
3556.00,0.0094
3555.00,0.0095
3554.00,0.0095
3553.00,0.0096
3552.00,0.0097
3551.00,0.0098
3550.00,0.0099
3549.00,0.0100
3548.00,0.0101
3547.00,0.0101
3546.00,0.0102
3545.00,0.0103
3544.00,0.0104
3543.00,0.0104
3542.00,0.0105
3541.00,0.0106
3540.00,0.0107
3539.00,0.0107
3538.00,0.0108
3537.00,0.0109
3536.00,0.0110
3535.00,0.0111
3534.00,0.0112
3533.00,0.0113
3532.00,0.0113
3531.00,0.0114
3530.00,0.0115
3529.00,0.0115
3528.00,0.0116
3527.00,0.0117
3526.00,0.0118
3525.00,0.0119
3524.00,0.0119
3523.00,0.0120
3522.00,0.0121
3521.00,0.0122
3520.00,0.0123
3519.00,0.0123
3518.00,0.0124
3517.00,0.0125
3516.00,0.0126
3515.00,0.0126
3514.00,0.0127
3513.00,0.0128
3512.00,0.0129
3511.00,0.0130
3510.00,0.0131
3509.00,0.0132
3508.00,0.0132
3507.00,0.0133
3506.00,0.0134
3505.00,0.0134
3504.00,0.0135
3503.00,0.0136
3502.00,0.0137
3501.00,0.0138
3500.00,0.0139
3499.00,0.0139
3498.00,0.0140
3497.00,0.0141
3496.00,0.0141
3495.00,0.0142
3494.00,0.0143
3493.00,0.0145
3492.00,0.0145
3491.00,0.0146
3490.00,0.0147
3489.00,0.0147
3488.00,0.0148
3487.00,0.0149
3486.00,0.0149
3485.00,0.0150
3484.00,0.0151
3483.00,0.0152
3482.00,0.0153
3481.00,0.0154
3480.00,0.0155
3479.00,0.0155
3478.00,0.0156
3477.00,0.0157
3476.00,0.0158
3475.00,0.0158
3474.00,0.0159
3473.00,0.0160
3472.00,0.0161
3471.00,0.0162
3470.00,0.0163
3469.00,0.0164
3468.00,0.0165
3467.00,0.0166
3466.00,0.0167
3465.00,0.0168
3464.00,0.0168
3463.00,0.0169
3462.00,0.0170
3461.00,0.0171
3460.00,0.0172
3459.00,0.0173
3458.00,0.0173
3457.00,0.0174
3456.00,0.0174
3455.00,0.0175
3454.00,0.0175
3453.00,0.0176
3452.00,0.0177
3451.00,0.0179
3450.00,0.0180
3449.00,0.0181
3448.00,0.0181
3447.00,0.0182
3446.00,0.0183
3445.00,0.0184
3444.00,0.0185
3443.00,0.0185
3442.00,0.0186
3441.00,0.0187
3440.00,0.0188
3439.00,0.0189
3438.00,0.0191
3437.00,0.0192
3436.00,0.0192
3435.00,0.0193
3434.00,0.0194
3433.00,0.0194
3432.00,0.0195
3431.00,0.0196
3430.00,0.0197
3429.00,0.0198
3428.00,0.0199
3427.00,0.0200
3426.00,0.0201
3425.00,0.0202
3424.00,0.0202
3423.00,0.0203
3422.00,0.0204
3421.00,0.0205
3420.00,0.0206
3419.00,0.0207
3418.00,0.0208
3417.00,0.0209
3416.00,0.0210
3415.00,0.0211
3414.00,0.0212
3413.00,0.0213
3412.00,0.0214
3411.00,0.0215
3410.00,0.0215
3409.00,0.0216
3408.00,0.0217
3407.00,0.0218
3406.00,0.0218
3405.00,0.0219
3404.00,0.0220
3403.00,0.0221
3402.00,0.0222
3401.00,0.0223
3400.00,0.0224
3399.00,0.0225
3398.00,0.0226
3397.00,0.0226
3396.00,0.0227
3395.00,0.0228
3394.00,0.0229
3393.00,0.0230
3392.00,0.0230
3391.00,0.0231
3390.00,0.0232
3389.00,0.0233
3388.00,0.0234
3387.00,0.0235
3386.00,0.0237
3385.00,0.0238
3384.00,0.0239
3383.00,0.0240
3382.00,0.0241
3381.00,0.0242
3380.00,0.0242
3379.00,0.0243
3378.00,0.0244
3377.00,0.0246
3376.00,0.0247
3375.00,0.0248
3374.00,0.0249
3373.00,0.0250
3372.00,0.0251
3371.00,0.0252
3370.00,0.0253
3369.00,0.0254
3368.00,0.0255
3367.00,0.0257
3366.00,0.0258
3365.00,0.0260
3364.00,0.0261
3363.00,0.0263
3362.00,0.0264
3361.00,0.0265
3360.00,0.0266
3359.00,0.0267
3358.00,0.0269
3357.00,0.0270
3356.00,0.0272
3355.00,0.0274
3354.00,0.0275
3353.00,0.0276
3352.00,0.0278
3351.00,0.0279
3350.00,0.0281
3349.00,0.0282
3348.00,0.0284
3347.00,0.0285
3346.00,0.0287
3345.00,0.0288
3344.00,0.0290
3343.00,0.0291
3342.00,0.0293
3341.00,0.0294
3340.00,0.0296
3339.00,0.0298
3338.00,0.0299
3337.00,0.0301
3336.00,0.0303
3335.00,0.0305
3334.00,0.0307
3333.00,0.0309
3332.00,0.0311
3331.00,0.0313
3330.00,0.0316
3329.00,0.0318
3328.00,0.0320
3327.00,0.0322
3326.00,0.0324
3325.00,0.0326
3324.00,0.0328
3323.00,0.0331
3322.00,0.0333
3321.00,0.0336
3320.00,0.0338
3319.00,0.0341
3318.00,0.0343
3317.00,0.0346
3316.00,0.0348
3315.00,0.0351
3314.00,0.0354
3313.00,0.0356
3312.00,0.0359
3311.00,0.0361
3310.00,0.0363
3309.00,0.0366
3308.00,0.0368
3307.00,0.0371
3306.00,0.0374
3305.00,0.0377
3304.00,0.0381
3303.00,0.0384
3302.00,0.0388
3301.00,0.0391
3300.00,0.0394
3299.00,0.0396
3298.00,0.0399
3297.00,0.0401
3296.00,0.0404
3295.00,0.0407
3294.00,0.0409
3293.00,0.0412
3292.00,0.0415
3291.00,0.0418
3290.00,0.0421
3289.00,0.0424
3288.00,0.0427
3287.00,0.0429
3286.00,0.0432
3285.00,0.0433
3284.00,0.0435
3283.00,0.0437
3282.00,0.0439
3281.00,0.0441
3280.00,0.0443
3279.00,0.0444
3278.00,0.0445
3277.00,0.0446
3276.00,0.0446
3275.00,0.0447
3274.00,0.0447
3273.00,0.0447
3272.00,0.0446
3271.00,0.0446
3270.00,0.0446
3269.00,0.0445
3268.00,0.0445
3267.00,0.0444
3266.00,0.0442
3265.00,0.0441
3264.00,0.0439
3263.00,0.0437
3262.00,0.0435
3261.00,0.0433
3260.00,0.0431
3259.00,0.0428
3258.00,0.0425
3257.00,0.0422
3256.00,0.0419
3255.00,0.0416
3254.00,0.0414
3253.00,0.0411
3252.00,0.0409
3251.00,0.0406
3250.00,0.0404
3249.00,0.0400
3248.00,0.0398
3247.00,0.0395
3246.00,0.0392
3245.00,0.0390
3244.00,0.0388
3243.00,0.0385
3242.00,0.0383
3241.00,0.0381
3240.00,0.0378
3239.00,0.0376
3238.00,0.0373
3237.00,0.0370
3236.00,0.0367
3235.00,0.0364
3234.00,0.0361
3233.00,0.0359
3232.00,0.0358
3231.00,0.0356
3230.00,0.0355
3229.00,0.0353
3228.00,0.0351
3227.00,0.0350
3226.00,0.0348
3225.00,0.0346
3224.00,0.0344
3223.00,0.0342
3222.00,0.0340
3221.00,0.0338
3220.00,0.0336
3219.00,0.0334
3218.00,0.0332
3217.00,0.0331
3216.00,0.0329
3215.00,0.0328
3214.00,0.0326
3213.00,0.0324
3212.00,0.0323
3211.00,0.0321
3210.00,0.0319
3209.00,0.0317
3208.00,0.0316
3207.00,0.0314
3206.00,0.0313
3205.00,0.0311
3204.00,0.0310
3203.00,0.0308
3202.00,0.0306
3201.00,0.0305
3200.00,0.0303
3199.00,0.0302
3198.00,0.0300
3197.00,0.0299
3196.00,0.0297
3195.00,0.0296
3194.00,0.0294
3193.00,0.0292
3192.00,0.0291
3191.00,0.0290
3190.00,0.0288
3189.00,0.0287
3188.00,0.0285
3187.00,0.0284
3186.00,0.0282
3185.00,0.0280
3184.00,0.0279
3183.00,0.0277
3182.00,0.0276
3181.00,0.0274
3180.00,0.0273
3179.00,0.0272
3178.00,0.0270
3177.00,0.0269
3176.00,0.0268
3175.00,0.0267
3174.00,0.0265
3173.00,0.0264
3172.00,0.0262
3171.00,0.0261
3170.00,0.0260
3169.00,0.0258
3168.00,0.0257
3167.00,0.0256
3166.00,0.0254
3165.00,0.0253
3164.00,0.0252
3163.00,0.0251
3162.00,0.0249
3161.00,0.0248
3160.00,0.0247
3159.00,0.0246
3158.00,0.0245
3157.00,0.0244
3156.00,0.0242
3155.00,0.0240
3154.00,0.0239
3153.00,0.0238
3152.00,0.0237
3151.00,0.0236
3150.00,0.0235
3149.00,0.0234
3148.00,0.0233
3147.00,0.0232
3146.00,0.0231
3145.00,0.0230
3144.00,0.0229
3143.00,0.0228
3142.00,0.0228
3141.00,0.0227
3140.00,0.0226
3139.00,0.0225
3138.00,0.0224
3137.00,0.0224
3136.00,0.0223
3135.00,0.0223
3134.00,0.0222
3133.00,0.0221
3132.00,0.0221
3131.00,0.0220
3130.00,0.0219
3129.00,0.0219
3128.00,0.0219
3127.00,0.0218
3126.00,0.0218
3125.00,0.0217
3124.00,0.0217
3123.00,0.0216
3122.00,0.0215
3121.00,0.0214
3120.00,0.0214
3119.00,0.0213
3118.00,0.0213
3117.00,0.0213
3116.00,0.0213
3115.00,0.0214
3114.00,0.0214
3113.00,0.0215
3112.00,0.0215
3111.00,0.0215
3110.00,0.0215
3109.00,0.0215
3108.00,0.0215
3107.00,0.0216
3106.00,0.0217
3105.00,0.0217
3104.00,0.0218
3103.00,0.0218
3102.00,0.0218
3101.00,0.0218
3100.00,0.0219
3099.00,0.0219
3098.00,0.0220
3097.00,0.0221
3096.00,0.0221
3095.00,0.0222
3094.00,0.0222
3093.00,0.0222
3092.00,0.0223
3091.00,0.0223
3090.00,0.0223
3089.00,0.0223
3088.00,0.0224
3087.00,0.0224
3086.00,0.0224
3085.00,0.0224
3084.00,0.0224
3083.00,0.0224
3082.00,0.0224
3081.00,0.0224
3080.00,0.0224
3079.00,0.0224
3078.00,0.0224
3077.00,0.0224
3076.00,0.0225
3075.00,0.0225
3074.00,0.0225
3073.00,0.0225
3072.00,0.0225
3071.00,0.0224
3070.00,0.0223
3069.00,0.0222
3068.00,0.0221
3067.00,0.0221
3066.00,0.0220
3065.00,0.0220
3064.00,0.0219
3063.00,0.0219
3062.00,0.0219
3061.00,0.0218
3060.00,0.0217
3059.00,0.0216
3058.00,0.0214
3057.00,0.0213
3056.00,0.0212
3055.00,0.0211
3054.00,0.0210
3053.00,0.0208
3052.00,0.0207
3051.00,0.0205
3050.00,0.0204
3049.00,0.0203
3048.00,0.0202
3047.00,0.0201
3046.00,0.0199
3045.00,0.0198
3044.00,0.0197
3043.00,0.0196
3042.00,0.0195
3041.00,0.0194
3040.00,0.0193
3039.00,0.0193
3038.00,0.0192
3037.00,0.0191
3036.00,0.0189
3035.00,0.0188
3034.00,0.0187
3033.00,0.0187
3032.00,0.0186
3031.00,0.0185
3030.00,0.0185
3029.00,0.0184
3028.00,0.0183
3027.00,0.0182
3026.00,0.0181
3025.00,0.0179
3024.00,0.0178
3023.00,0.0177
3022.00,0.0176
3021.00,0.0175
3020.00,0.0174
3019.00,0.0173
3018.00,0.0171
3017.00,0.0170
3016.00,0.0169
3015.00,0.0168
3014.00,0.0167
3013.00,0.0167
3012.00,0.0166
3011.00,0.0166
3010.00,0.0166
3009.00,0.0166
3008.00,0.0166
3007.00,0.0165
3006.00,0.0165
3005.00,0.0164
3004.00,0.0164
3003.00,0.0164
3002.00,0.0164
3001.00,0.0164
3000.00,0.0164
2999.00,0.0164
2998.00,0.0164
2997.00,0.0164
2996.00,0.0165
2995.00,0.0165
2994.00,0.0166
2993.00,0.0167
2992.00,0.0168
2991.00,0.0170
2990.00,0.0172
2989.00,0.0173
2988.00,0.0175
2987.00,0.0177
2986.00,0.0179
2985.00,0.0181
2984.00,0.0182
2983.00,0.0184
2982.00,0.0186
2981.00,0.0188
2980.00,0.0191
2979.00,0.0195
2978.00,0.0198
2977.00,0.0202
2976.00,0.0205
2975.00,0.0208
2974.00,0.0211
2973.00,0.0214
2972.00,0.0217
2971.00,0.0220
2970.00,0.0223
2969.00,0.0227
2968.00,0.0230
2967.00,0.0232
2966.00,0.0235
2965.00,0.0237
2964.00,0.0238
2963.00,0.0239
2962.00,0.0240
2961.00,0.0240
2960.00,0.0240
2959.00,0.0239
2958.00,0.0238
2957.00,0.0237
2956.00,0.0235
2955.00,0.0233
2954.00,0.0231
2953.00,0.0229
2952.00,0.0228
2951.00,0.0226
2950.00,0.0225
2949.00,0.0224
2948.00,0.0223
2947.00,0.0224
2946.00,0.0225
2945.00,0.0226
2944.00,0.0227
2943.00,0.0229
2942.00,0.0231
2941.00,0.0234
2940.00,0.0236
2939.00,0.0239
2938.00,0.0241
2937.00,0.0244
2936.00,0.0246
2935.00,0.0249
2934.00,0.0251
2933.00,0.0252
2932.00,0.0253
2931.00,0.0254
2930.00,0.0255
2929.00,0.0255
2928.00,0.0256
2927.00,0.0256
2926.00,0.0256
2925.00,0.0255
2924.00,0.0254
2923.00,0.0252
2922.00,0.0250
2921.00,0.0248
2920.00,0.0245
2919.00,0.0242
2918.00,0.0238
2917.00,0.0235
2916.00,0.0231
2915.00,0.0227
2914.00,0.0223
2913.00,0.0220
2912.00,0.0216
2911.00,0.0212
2910.00,0.0209
2909.00,0.0206
2908.00,0.0204
2907.00,0.0201
2906.00,0.0199
2905.00,0.0197
2904.00,0.0195
2903.00,0.0193
2902.00,0.0191
2901.00,0.0190
2900.00,0.0188
2899.00,0.0186
2898.00,0.0185
2897.00,0.0183
2896.00,0.0182
2895.00,0.0181
2894.00,0.0179
2893.00,0.0178
2892.00,0.0178
2891.00,0.0177
2890.00,0.0176
2889.00,0.0175
2888.00,0.0175
2887.00,0.0175
2886.00,0.0175
2885.00,0.0175
2884.00,0.0176
2883.00,0.0177
2882.00,0.0178
2881.00,0.0179
2880.00,0.0181
2879.00,0.0182
2878.00,0.0183
2877.00,0.0183
2876.00,0.0184
2875.00,0.0184
2874.00,0.0183
2873.00,0.0183
2872.00,0.0182
2871.00,0.0181
2870.00,0.0179
2869.00,0.0177
2868.00,0.0175
2867.00,0.0174
2866.00,0.0172
2865.00,0.0170
2864.00,0.0169
2863.00,0.0168
2862.00,0.0167
2861.00,0.0167
2860.00,0.0167
2859.00,0.0167
2858.00,0.0167
2857.00,0.0167
2856.00,0.0167
2855.00,0.0167
2854.00,0.0167
2853.00,0.0166
2852.00,0.0164
2851.00,0.0162
2850.00,0.0159
2849.00,0.0155
2848.00,0.0152
2847.00,0.0149
2846.00,0.0145
2845.00,0.0142
2844.00,0.0140
2843.00,0.0137
2842.00,0.0134
2841.00,0.0132
2840.00,0.0130
2839.00,0.0129
2838.00,0.0127
2837.00,0.0126
2836.00,0.0125
2835.00,0.0124
2834.00,0.0123
2833.00,0.0122
2832.00,0.0122
2831.00,0.0121
2830.00,0.0120
2829.00,0.0120
2828.00,0.0120
2827.00,0.0119
2826.00,0.0119
2825.00,0.0118
2824.00,0.0118
2823.00,0.0118
2822.00,0.0117
2821.00,0.0117
2820.00,0.0117
2819.00,0.0116
2818.00,0.0115
2817.00,0.0115
2816.00,0.0115
2815.00,0.0114
2814.00,0.0114
2813.00,0.0114
2812.00,0.0113
2811.00,0.0113
2810.00,0.0112
2809.00,0.0112
2808.00,0.0111
2807.00,0.0111
2806.00,0.0111
2805.00,0.0110
2804.00,0.0110
2803.00,0.0110
2802.00,0.0109
2801.00,0.0109
2800.00,0.0108
2799.00,0.0108
2798.00,0.0107
2797.00,0.0107
2796.00,0.0107
2795.00,0.0107
2794.00,0.0106
2793.00,0.0106
2792.00,0.0105
2791.00,0.0105
2790.00,0.0104
2789.00,0.0104
2788.00,0.0104
2787.00,0.0104
2786.00,0.0104
2785.00,0.0103
2784.00,0.0103
2783.00,0.0102
2782.00,0.0102
2781.00,0.0102
2780.00,0.0101
2779.00,0.0101
2778.00,0.0100
2777.00,0.0100
2776.00,0.0099
2775.00,0.0099
2774.00,0.0099
2773.00,0.0098
2772.00,0.0098
2771.00,0.0098
2770.00,0.0098
2769.00,0.0097
2768.00,0.0097
2767.00,0.0096
2766.00,0.0096
2765.00,0.0095
2764.00,0.0095
2763.00,0.0095
2762.00,0.0095
2761.00,0.0094
2760.00,0.0094
2759.00,0.0093
2758.00,0.0093
2757.00,0.0092
2756.00,0.0092
2755.00,0.0092
2754.00,0.0091
2753.00,0.0091
2752.00,0.0091
2751.00,0.0091
2750.00,0.0090
2749.00,0.0090
2748.00,0.0090
2747.00,0.0089
2746.00,0.0089
2745.00,0.0088
2744.00,0.0088
2743.00,0.0088
2742.00,0.0087
2741.00,0.0087
2740.00,0.0087
2739.00,0.0086
2738.00,0.0086
2737.00,0.0086
2736.00,0.0086
2735.00,0.0085
2734.00,0.0085
2733.00,0.0085
2732.00,0.0085
2731.00,0.0084
2730.00,0.0084
2729.00,0.0083
2728.00,0.0083
2727.00,0.0083
2726.00,0.0082
2725.00,0.0082
2724.00,0.0082
2723.00,0.0081
2722.00,0.0081
2721.00,0.0081
2720.00,0.0080
2719.00,0.0080
2718.00,0.0079
2717.00,0.0079
2716.00,0.0079
2715.00,0.0078
2714.00,0.0078
2713.00,0.0078
2712.00,0.0077
2711.00,0.0077
2710.00,0.0077
2709.00,0.0076
2708.00,0.0076
2707.00,0.0076
2706.00,0.0076
2705.00,0.0076
2704.00,0.0076
2703.00,0.0075
2702.00,0.0075
2701.00,0.0075
2700.00,0.0075
2699.00,0.0075
2698.00,0.0075
2697.00,0.0075
2696.00,0.0074
2695.00,0.0074
2694.00,0.0074
2693.00,0.0074
2692.00,0.0074
2691.00,0.0074
2690.00,0.0074
2689.00,0.0074
2688.00,0.0074
2687.00,0.0073
2686.00,0.0073
2685.00,0.0073
2684.00,0.0073
2683.00,0.0073
2682.00,0.0073
2681.00,0.0073
2680.00,0.0072
2679.00,0.0072
2678.00,0.0072
2677.00,0.0072
2676.00,0.0072
2675.00,0.0072
2674.00,0.0071
2673.00,0.0071
2672.00,0.0071
2671.00,0.0071
2670.00,0.0071
2669.00,0.0071
2668.00,0.0071
2667.00,0.0071
2666.00,0.0071
2665.00,0.0072
2664.00,0.0072
2663.00,0.0072
2662.00,0.0072
2661.00,0.0073
2660.00,0.0073
2659.00,0.0073
2658.00,0.0073
2657.00,0.0073
2656.00,0.0073
2655.00,0.0073
2654.00,0.0073
2653.00,0.0073
2652.00,0.0073
2651.00,0.0073
2650.00,0.0073
2649.00,0.0072
2648.00,0.0072
2647.00,0.0072
2646.00,0.0072
2645.00,0.0072
2644.00,0.0072
2643.00,0.0071
2642.00,0.0071
2641.00,0.0071
2640.00,0.0071
2639.00,0.0071
2638.00,0.0070
2637.00,0.0070
2636.00,0.0070
2635.00,0.0070
2634.00,0.0070
2633.00,0.0070
2632.00,0.0070
2631.00,0.0069
2630.00,0.0069
2629.00,0.0069
2628.00,0.0069
2627.00,0.0069
2626.00,0.0069
2625.00,0.0068
2624.00,0.0068
2623.00,0.0067
2622.00,0.0067
2621.00,0.0067
2620.00,0.0067
2619.00,0.0067
2618.00,0.0067
2617.00,0.0066
2616.00,0.0066
2615.00,0.0066
2614.00,0.0066
2613.00,0.0066
2612.00,0.0066
2611.00,0.0065
2610.00,0.0065
2609.00,0.0065
2608.00,0.0065
2607.00,0.0064
2606.00,0.0064
2605.00,0.0063
2604.00,0.0063
2603.00,0.0063
2602.00,0.0063
2601.00,0.0063
2600.00,0.0063
2599.00,0.0062
2598.00,0.0062
2597.00,0.0062
2596.00,0.0062
2595.00,0.0061
2594.00,0.0061
2593.00,0.0061
2592.00,0.0060
2591.00,0.0060
2590.00,0.0059
2589.00,0.0059
2588.00,0.0059
2587.00,0.0059
2586.00,0.0059
2585.00,0.0059
2584.00,0.0059
2583.00,0.0059
2582.00,0.0059
2581.00,0.0058
2580.00,0.0058
2579.00,0.0058
2578.00,0.0057
2577.00,0.0057
2576.00,0.0057
2575.00,0.0057
2574.00,0.0056
2573.00,0.0056
2572.00,0.0056
2571.00,0.0056
2570.00,0.0056
2569.00,0.0056
2568.00,0.0055
2567.00,0.0055
2566.00,0.0054
2565.00,0.0054
2564.00,0.0054
2563.00,0.0054
2562.00,0.0054
2561.00,0.0054
2560.00,0.0054
2559.00,0.0054
2558.00,0.0054
2557.00,0.0054
2556.00,0.0053
2555.00,0.0053
2554.00,0.0052
2553.00,0.0052
2552.00,0.0052
2551.00,0.0052
2550.00,0.0052
2549.00,0.0052
2548.00,0.0052
2547.00,0.0051
2546.00,0.0051
2545.00,0.0051
2544.00,0.0051
2543.00,0.0051
2542.00,0.0050
2541.00,0.0050
2540.00,0.0051
2539.00,0.0051
2538.00,0.0050
2537.00,0.0050
2536.00,0.0050
2535.00,0.0050
2534.00,0.0050
2533.00,0.0050
2532.00,0.0050
2531.00,0.0050
2530.00,0.0050
2529.00,0.0049
2528.00,0.0049
2527.00,0.0048
2526.00,0.0048
2525.00,0.0048
2524.00,0.0048
2523.00,0.0048
2522.00,0.0048
2521.00,0.0048
2520.00,0.0048
2519.00,0.0048
2518.00,0.0048
2517.00,0.0048
2516.00,0.0047
2515.00,0.0047
2514.00,0.0046
2513.00,0.0046
2512.00,0.0047
2511.00,0.0047
2510.00,0.0047
2509.00,0.0048
2508.00,0.0048
2507.00,0.0047
2506.00,0.0047
2505.00,0.0047
2504.00,0.0047
2503.00,0.0047
2502.00,0.0046
2501.00,0.0046
2500.00,0.0046
2499.00,0.0046
2498.00,0.0046
2497.00,0.0046
2496.00,0.0045
2495.00,0.0045
2494.00,0.0045
2493.00,0.0045
2492.00,0.0045
2491.00,0.0044
2490.00,0.0044
2489.00,0.0044
2488.00,0.0044
2487.00,0.0044
2486.00,0.0044
2485.00,0.0044
2484.00,0.0044
2483.00,0.0044
2482.00,0.0043
2481.00,0.0043
2480.00,0.0043
2479.00,0.0042
2478.00,0.0042
2477.00,0.0042
2476.00,0.0042
2475.00,0.0042
2474.00,0.0042
2473.00,0.0042
2472.00,0.0042
2471.00,0.0042
2470.00,0.0042
2469.00,0.0042
2468.00,0.0042
2467.00,0.0042
2466.00,0.0042
2465.00,0.0042
2464.00,0.0041
2463.00,0.0041
2462.00,0.0041
2461.00,0.0041
2460.00,0.0041
2459.00,0.0042
2458.00,0.0042
2457.00,0.0042
2456.00,0.0042
2455.00,0.0042
2454.00,0.0042
2453.00,0.0041
2452.00,0.0041
2451.00,0.0041
2450.00,0.0041
2449.00,0.0041
2448.00,0.0040
2447.00,0.0040
2446.00,0.0040
2445.00,0.0039
2444.00,0.0039
2443.00,0.0038
2442.00,0.0038
2441.00,0.0038
2440.00,0.0038
2439.00,0.0038
2438.00,0.0038
2437.00,0.0037
2436.00,0.0037
2435.00,0.0036
2434.00,0.0036
2433.00,0.0036
2432.00,0.0036
2431.00,0.0036
2430.00,0.0036
2429.00,0.0036
2428.00,0.0035
2427.00,0.0035
2426.00,0.0035
2425.00,0.0035
2424.00,0.0034
2423.00,0.0034
2422.00,0.0034
2421.00,0.0034
2420.00,0.0035
2419.00,0.0035
2418.00,0.0034
2417.00,0.0034
2416.00,0.0034
2415.00,0.0034
2414.00,0.0034
2413.00,0.0034
2412.00,0.0034
2411.00,0.0034
2410.00,0.0033
2409.00,0.0033
2408.00,0.0032
2407.00,0.0032
2406.00,0.0032
2405.00,0.0031
2404.00,0.0031
2403.00,0.0031
2402.00,0.0031
2401.00,0.0031
2400.00,0.0031
2399.00,0.0030
2398.00,0.0030
2397.00,0.0030
2396.00,0.0030
2395.00,0.0030
2394.00,0.0030
2393.00,0.0030
2392.00,0.0030
2391.00,0.0030
2390.00,0.0029
2389.00,0.0029
2388.00,0.0029
2387.00,0.0029
2386.00,0.0028
2385.00,0.0028
2384.00,0.0028
2383.00,0.0027
2382.00,0.0027
2381.00,0.0026
2380.00,0.0026
2379.00,0.0026
2378.00,0.0026
2377.00,0.0026
2376.00,0.0026
2375.00,0.0026
2374.00,0.0026
2373.00,0.0026
2372.00,0.0026
2371.00,0.0025
2370.00,0.0025
2369.00,0.0024
2368.00,0.0024
2367.00,0.0025
2366.00,0.0025
2365.00,0.0025
2364.00,0.0025
2363.00,0.0026
2362.00,0.0026
2361.00,0.0026
2360.00,0.0027
2359.00,0.0027
2358.00,0.0027
2357.00,0.0026
2356.00,0.0026
2355.00,0.0025
2354.00,0.0025
2353.00,0.0024
2352.00,0.0023
2351.00,0.0022
2350.00,0.0022
2349.00,0.0023
2348.00,0.0025
2347.00,0.0029
2346.00,0.0031
2345.00,0.0031
2344.00,0.0030
2343.00,0.0029
2342.00,0.0028
2341.00,0.0028
2340.00,0.0028
2339.00,0.0028
2338.00,0.0029
2337.00,0.0029
2336.00,0.0029
2335.00,0.0029
2334.00,0.0029
2333.00,0.0028
2332.00,0.0028
2331.00,0.0027
2330.00,0.0027
2329.00,0.0029
2328.00,0.0032
2327.00,0.0036
2326.00,0.0040
2325.00,0.0041
2324.00,0.0040
2323.00,0.0038
2322.00,0.0035
2321.00,0.0033
2320.00,0.0032
2319.00,0.0031
2318.00,0.0031
2317.00,0.0031
2316.00,0.0031
2315.00,0.0031
2314.00,0.0031
2313.00,0.0030
2312.00,0.0029
2311.00,0.0029
2310.00,0.0028
2309.00,0.0028
2308.00,0.0029
2307.00,0.0029
2306.00,0.0029
2305.00,0.0029
2304.00,0.0030
2303.00,0.0030
2302.00,0.0031
2301.00,0.0031
2300.00,0.0031
2299.00,0.0031
2298.00,0.0032
2297.00,0.0032
2296.00,0.0033
2295.00,0.0034
2294.00,0.0035
2293.00,0.0036
2292.00,0.0036
2291.00,0.0037
2290.00,0.0037
2289.00,0.0037
2288.00,0.0038
2287.00,0.0038
2286.00,0.0038
2285.00,0.0037
2284.00,0.0037
2283.00,0.0036
2282.00,0.0036
2281.00,0.0036
2280.00,0.0036
2279.00,0.0035
2278.00,0.0035
2277.00,0.0034
2276.00,0.0034
2275.00,0.0034
2274.00,0.0033
2273.00,0.0033
2272.00,0.0032
2271.00,0.0031
2270.00,0.0030
2269.00,0.0029
2268.00,0.0028
2267.00,0.0028
2266.00,0.0028
2265.00,0.0028
2264.00,0.0029
2263.00,0.0030
2262.00,0.0030
2261.00,0.0030
2260.00,0.0030
2259.00,0.0030
2258.00,0.0030
2257.00,0.0029
2256.00,0.0028
2255.00,0.0027
2254.00,0.0027
2253.00,0.0027
2252.00,0.0027
2251.00,0.0027
2250.00,0.0027
2249.00,0.0027
2248.00,0.0027
2247.00,0.0027
2246.00,0.0027
2245.00,0.0027
2244.00,0.0028
2243.00,0.0028
2242.00,0.0027
2241.00,0.0027
2240.00,0.0027
2239.00,0.0027
2238.00,0.0027
2237.00,0.0027
2236.00,0.0027
2235.00,0.0028
2234.00,0.0028
2233.00,0.0028
2232.00,0.0029
2231.00,0.0029
2230.00,0.0028
2229.00,0.0028
2228.00,0.0028
2227.00,0.0028
2226.00,0.0027
2225.00,0.0026
2224.00,0.0027
2223.00,0.0027
2222.00,0.0027
2221.00,0.0027
2220.00,0.0026
2219.00,0.0025
2218.00,0.0024
2217.00,0.0024
2216.00,0.0025
2215.00,0.0026
2214.00,0.0027
2213.00,0.0027
2212.00,0.0027
2211.00,0.0027
2210.00,0.0027
2209.00,0.0027
2208.00,0.0026
2207.00,0.0026
2206.00,0.0026
2205.00,0.0026
2204.00,0.0027
2203.00,0.0027
2202.00,0.0027
2201.00,0.0027
2200.00,0.0027
2199.00,0.0027
2198.00,0.0027
2197.00,0.0027
2196.00,0.0028
2195.00,0.0028
2194.00,0.0028
2193.00,0.0028
2192.00,0.0030
2191.00,0.0031
2190.00,0.0031
2189.00,0.0031
2188.00,0.0031
2187.00,0.0030
2186.00,0.0029
2185.00,0.0027
2184.00,0.0025
2183.00,0.0022
2182.00,0.0021
2181.00,0.0021
2180.00,0.0023
2179.00,0.0024
2178.00,0.0023
2177.00,0.0021
2176.00,0.0018
2175.00,0.0017
2174.00,0.0017
2173.00,0.0020
2172.00,0.0025
2171.00,0.0029
2170.00,0.0032
2169.00,0.0035
2168.00,0.0036
2167.00,0.0037
2166.00,0.0036
2165.00,0.0036
2164.00,0.0037
2163.00,0.0037
2162.00,0.0032
2161.00,0.0020
2160.00,0.0005
2159.00,-0.0007
2158.00,-0.0012
2157.00,-0.0011
2156.00,-0.0007
2155.00,-0.0003
2154.00,-0.0001
2153.00,0.0002
2152.00,0.0005
2151.00,0.0008
2150.00,0.0008
2149.00,0.0008
2148.00,0.0007
2147.00,0.0006
2146.00,0.0005
2145.00,0.0006
2144.00,0.0006
2143.00,0.0007
2142.00,0.0008
2141.00,0.0009
2140.00,0.0010
2139.00,0.0010
2138.00,0.0009
2137.00,0.0007
2136.00,0.0004
2135.00,0.0002
2134.00,0.0001
2133.00,0.0002
2132.00,0.0004
2131.00,0.0007
2130.00,0.0009
2129.00,0.0012
2128.00,0.0014
2127.00,0.0015
2126.00,0.0016
2125.00,0.0017
2124.00,0.0018
2123.00,0.0018
2122.00,0.0019
2121.00,0.0020
2120.00,0.0021
2119.00,0.0022
2118.00,0.0022
2117.00,0.0023
2116.00,0.0024
2115.00,0.0025
2114.00,0.0025
2113.00,0.0026
2112.00,0.0026
2111.00,0.0026
2110.00,0.0025
2109.00,0.0024
2108.00,0.0024
2107.00,0.0023
2106.00,0.0023
2105.00,0.0023
2104.00,0.0024
2103.00,0.0024
2102.00,0.0023
2101.00,0.0024
2100.00,0.0024
2099.00,0.0023
2098.00,0.0022
2097.00,0.0021
2096.00,0.0020
2095.00,0.0020
2094.00,0.0020
2093.00,0.0021
2092.00,0.0023
2091.00,0.0023
2090.00,0.0024
2089.00,0.0024
2088.00,0.0025
2087.00,0.0025
2086.00,0.0026
2085.00,0.0026
2084.00,0.0027
2083.00,0.0027
2082.00,0.0026
2081.00,0.0026
2080.00,0.0027
2079.00,0.0027
2078.00,0.0027
2077.00,0.0026
2076.00,0.0026
2075.00,0.0025
2074.00,0.0025
2073.00,0.0025
2072.00,0.0025
2071.00,0.0024
2070.00,0.0024
2069.00,0.0024
2068.00,0.0025
2067.00,0.0025
2066.00,0.0025
2065.00,0.0025
2064.00,0.0026
2063.00,0.0025
2062.00,0.0025
2061.00,0.0025
2060.00,0.0025
2059.00,0.0026
2058.00,0.0025
2057.00,0.0025
2056.00,0.0025
2055.00,0.0026
2054.00,0.0028
2053.00,0.0031
2052.00,0.0034
2051.00,0.0033
2050.00,0.0031
2049.00,0.0028
2048.00,0.0027
2047.00,0.0026
2046.00,0.0024
2045.00,0.0023
2044.00,0.0023
2043.00,0.0022
2042.00,0.0022
2041.00,0.0022
2040.00,0.0023
2039.00,0.0024
2038.00,0.0022
2037.00,0.0021
2036.00,0.0021
2035.00,0.0020
2034.00,0.0019
2033.00,0.0018
2032.00,0.0018
2031.00,0.0017
2030.00,0.0016
2029.00,0.0017
2028.00,0.0019
2027.00,0.0019
2026.00,0.0018
2025.00,0.0017
2024.00,0.0016
2023.00,0.0016
2022.00,0.0015
2021.00,0.0014
2020.00,0.0013
2019.00,0.0013
2018.00,0.0013
2017.00,0.0013
2016.00,0.0014
2015.00,0.0015
2014.00,0.0016
2013.00,0.0017
2012.00,0.0018
2011.00,0.0018
2010.00,0.0016
2009.00,0.0013
2008.00,0.0009
2007.00,0.0006
2006.00,0.0004
2005.00,0.0006
2004.00,0.0008
2003.00,0.0011
2002.00,0.0012
2001.00,0.0014
2000.00,0.0015
1999.00,0.0015
1998.00,0.0016
1997.00,0.0017
1996.00,0.0019
1995.00,0.0020
1994.00,0.0019
1993.00,0.0018
1992.00,0.0019
1991.00,0.0021
1990.00,0.0022
1989.00,0.0023
1988.00,0.0023
1987.00,0.0024
1986.00,0.0024
1985.00,0.0025
1984.00,0.0027
1983.00,0.0030
1982.00,0.0033
1981.00,0.0034
1980.00,0.0033
1979.00,0.0027
1978.00,0.0020
1977.00,0.0015
1976.00,0.0012
1975.00,0.0010
1974.00,0.0008
1973.00,0.0007
1972.00,0.0007
1971.00,0.0007
1970.00,0.0007
1969.00,0.0008
1968.00,0.0010
1967.00,0.0012
1966.00,0.0012
1965.00,0.0012
1964.00,0.0012
1963.00,0.0012
1962.00,0.0010
1961.00,0.0008
1960.00,0.0007
1959.00,0.0006
1958.00,0.0006
1957.00,0.0007
1956.00,0.0008
1955.00,0.0010
1954.00,0.0011
1953.00,0.0011
1952.00,0.0011
1951.00,0.0011
1950.00,0.0011
1949.00,0.0012
1948.00,0.0013
1947.00,0.0014
1946.00,0.0013
1945.00,0.0013
1944.00,0.0013
1943.00,0.0013
1942.00,0.0013
1941.00,0.0013
1940.00,0.0013
1939.00,0.0013
1938.00,0.0013
1937.00,0.0012
1936.00,0.0013
1935.00,0.0013
1934.00,0.0014
1933.00,0.0014
1932.00,0.0014
1931.00,0.0015
1930.00,0.0015
1929.00,0.0015
1928.00,0.0016
1927.00,0.0016
1926.00,0.0016
1925.00,0.0016
1924.00,0.0017
1923.00,0.0018
1922.00,0.0018
1921.00,0.0017
1920.00,0.0017
1919.00,0.0017
1918.00,0.0017
1917.00,0.0018
1916.00,0.0018
1915.00,0.0018
1914.00,0.0018
1913.00,0.0018
1912.00,0.0019
1911.00,0.0019
1910.00,0.0018
1909.00,0.0019
1908.00,0.0019
1907.00,0.0019
1906.00,0.0019
1905.00,0.0019
1904.00,0.0019
1903.00,0.0018
1902.00,0.0018
1901.00,0.0018
1900.00,0.0019
1899.00,0.0019
1898.00,0.0019
1897.00,0.0019
1896.00,0.0020
1895.00,0.0020
1894.00,0.0020
1893.00,0.0019
1892.00,0.0019
1891.00,0.0019
1890.00,0.0019
1889.00,0.0019
1888.00,0.0019
1887.00,0.0019
1886.00,0.0019
1885.00,0.0019
1884.00,0.0020
1883.00,0.0020
1882.00,0.0020
1881.00,0.0020
1880.00,0.0020
1879.00,0.0020
1878.00,0.0020
1877.00,0.0020
1876.00,0.0020
1875.00,0.0021
1874.00,0.0021
1873.00,0.0020
1872.00,0.0020
1871.00,0.0019
1870.00,0.0019
1869.00,0.0019
1868.00,0.0020
1867.00,0.0020
1866.00,0.0020
1865.00,0.0020
1864.00,0.0021
1863.00,0.0022
1862.00,0.0022
1861.00,0.0022
1860.00,0.0022
1859.00,0.0023
1858.00,0.0023
1857.00,0.0022
1856.00,0.0022
1855.00,0.0022
1854.00,0.0022
1853.00,0.0023
1852.00,0.0022
1851.00,0.0022
1850.00,0.0021
1849.00,0.0021
1848.00,0.0021
1847.00,0.0021
1846.00,0.0020
1845.00,0.0021
1844.00,0.0021
1843.00,0.0021
1842.00,0.0021
1841.00,0.0021
1840.00,0.0022
1839.00,0.0023
1838.00,0.0023
1837.00,0.0024
1836.00,0.0024
1835.00,0.0024
1834.00,0.0023
1833.00,0.0023
1832.00,0.0022
1831.00,0.0023
1830.00,0.0023
1829.00,0.0024
1828.00,0.0024
1827.00,0.0024
1826.00,0.0024
1825.00,0.0025
1824.00,0.0025
1823.00,0.0025
1822.00,0.0026
1821.00,0.0026
1820.00,0.0026
1819.00,0.0025
1818.00,0.0024
1817.00,0.0024
1816.00,0.0025
1815.00,0.0025
1814.00,0.0026
1813.00,0.0026
1812.00,0.0027
1811.00,0.0028
1810.00,0.0028
1809.00,0.0029
1808.00,0.0029
1807.00,0.0029
1806.00,0.0030
1805.00,0.0029
1804.00,0.0030
1803.00,0.0030
1802.00,0.0030
1801.00,0.0030
1800.00,0.0031
1799.00,0.0032
1798.00,0.0032
1797.00,0.0032
1796.00,0.0032
1795.00,0.0032
1794.00,0.0032
1793.00,0.0033
1792.00,0.0034
1791.00,0.0034
1790.00,0.0034
1789.00,0.0034
1788.00,0.0034
1787.00,0.0035
1786.00,0.0035
1785.00,0.0036
1784.00,0.0036
1783.00,0.0037
1782.00,0.0037
1781.00,0.0038
1780.00,0.0039
1779.00,0.0039
1778.00,0.0039
1777.00,0.0039
1776.00,0.0039
1775.00,0.0040
1774.00,0.0041
1773.00,0.0043
1772.00,0.0044
1771.00,0.0043
1770.00,0.0041
1769.00,0.0041
1768.00,0.0043
1767.00,0.0045
1766.00,0.0046
1765.00,0.0047
1764.00,0.0048
1763.00,0.0050
1762.00,0.0051
1761.00,0.0052
1760.00,0.0053
1759.00,0.0054
1758.00,0.0056
1757.00,0.0058
1756.00,0.0061
1755.00,0.0062
1754.00,0.0064
1753.00,0.0067
1752.00,0.0070
1751.00,0.0073
1750.00,0.0075
1749.00,0.0078
1748.00,0.0082
1747.00,0.0085
1746.00,0.0087
1745.00,0.0090
1744.00,0.0093
1743.00,0.0096
1742.00,0.0099
1741.00,0.0102
1740.00,0.0107
1739.00,0.0111
1738.00,0.0112
1737.00,0.0114
1736.00,0.0118
1735.00,0.0124
1734.00,0.0130
1733.00,0.0134
1732.00,0.0136
1731.00,0.0137
1730.00,0.0138
1729.00,0.0141
1728.00,0.0144
1727.00,0.0147
1726.00,0.0149
1725.00,0.0152
1724.00,0.0155
1723.00,0.0157
1722.00,0.0158
1721.00,0.0159
1720.00,0.0161
1719.00,0.0166
1718.00,0.0171
1717.00,0.0176
1716.00,0.0179
1715.00,0.0181
1714.00,0.0182
1713.00,0.0186
1712.00,0.0191
1711.00,0.0196
1710.00,0.0201
1709.00,0.0206
1708.00,0.0213
1707.00,0.0222
1706.00,0.0233
1705.00,0.0245
1704.00,0.0257
1703.00,0.0268
1702.00,0.0282
1701.00,0.0306
1700.00,0.0340
1699.00,0.0370
1698.00,0.0391
1697.00,0.0411
1696.00,0.0432
1695.00,0.0449
1694.00,0.0458
1693.00,0.0463
1692.00,0.0470
1691.00,0.0478
1690.00,0.0487
1689.00,0.0497
1688.00,0.0508
1687.00,0.0519
1686.00,0.0531
1685.00,0.0547
1684.00,0.0566
1683.00,0.0582
1682.00,0.0593
1681.00,0.0605
1680.00,0.0619
1679.00,0.0632
1678.00,0.0643
1677.00,0.0655
1676.00,0.0669
1675.00,0.0686
1674.00,0.0703
1673.00,0.0717
1672.00,0.0730
1671.00,0.0745
1670.00,0.0761
1669.00,0.0780
1668.00,0.0799
1667.00,0.0815
1666.00,0.0828
1665.00,0.0841
1664.00,0.0856
1663.00,0.0873
1662.00,0.0891
1661.00,0.0908
1660.00,0.0924
1659.00,0.0939
1658.00,0.0953
1657.00,0.0964
1656.00,0.0974
1655.00,0.0984
1654.00,0.0998
1653.00,0.1019
1652.00,0.1039
1651.00,0.1048
1650.00,0.1050
1649.00,0.1050
1648.00,0.1054
1647.00,0.1062
1646.00,0.1071
1645.00,0.1079
1644.00,0.1086
1643.00,0.1092
1642.00,0.1097
1641.00,0.1104
1640.00,0.1111
1639.00,0.1119
1638.00,0.1126
1637.00,0.1136
1636.00,0.1151
1635.00,0.1171
1634.00,0.1190
1633.00,0.1207
1632.00,0.1224
1631.00,0.1241
1630.00,0.1259
1629.00,0.1279
1628.00,0.1301
1627.00,0.1324
1626.00,0.1344
1625.00,0.1361
1624.00,0.1378
1623.00,0.1394
1622.00,0.1407
1621.00,0.1414
1620.00,0.1416
1619.00,0.1413
1618.00,0.1404
1617.00,0.1386
1616.00,0.1363
1615.00,0.1337
1614.00,0.1309
1613.00,0.1277
1612.00,0.1242
1611.00,0.1203
1610.00,0.1162
1609.00,0.1120
1608.00,0.1078
1607.00,0.1037
1606.00,0.0997
1605.00,0.0960
1604.00,0.0924
1603.00,0.0891
1602.00,0.0860
1601.00,0.0831
1600.00,0.0804
1599.00,0.0780
1598.00,0.0758
1597.00,0.0738
1596.00,0.0719
1595.00,0.0702
1594.00,0.0686
1593.00,0.0672
1592.00,0.0658
1591.00,0.0645
1590.00,0.0635
1589.00,0.0625
1588.00,0.0617
1587.00,0.0610
1586.00,0.0606
1585.00,0.0602
1584.00,0.0599
1583.00,0.0597
1582.00,0.0597
1581.00,0.0598
1580.00,0.0599
1579.00,0.0601
1578.00,0.0607
1577.00,0.0617
1576.00,0.0627
1575.00,0.0635
1574.00,0.0640
1573.00,0.0645
1572.00,0.0649
1571.00,0.0657
1570.00,0.0670
1569.00,0.0685
1568.00,0.0699
1567.00,0.0710
1566.00,0.0723
1565.00,0.0737
1564.00,0.0750
1563.00,0.0761
1562.00,0.0771
1561.00,0.0780
1560.00,0.0792
1559.00,0.0817
1558.00,0.0844
1557.00,0.0862
1556.00,0.0875
1555.00,0.0888
1554.00,0.0905
1553.00,0.0921
1552.00,0.0934
1551.00,0.0948
1550.00,0.0964
1549.00,0.0980
1548.00,0.0994
1547.00,0.1006
1546.00,0.1017
1545.00,0.1029
1544.00,0.1042
1543.00,0.1055
1542.00,0.1068
1541.00,0.1085
1540.00,0.1105
1539.00,0.1123
1538.00,0.1135
1537.00,0.1142
1536.00,0.1145
1535.00,0.1149
1534.00,0.1157
1533.00,0.1168
1532.00,0.1179
1531.00,0.1187
1530.00,0.1194
1529.00,0.1198
1528.00,0.1201
1527.00,0.1204
1526.00,0.1208
1525.00,0.1211
1524.00,0.1212
1523.00,0.1213
1522.00,0.1215
1521.00,0.1218
1520.00,0.1220
1519.00,0.1220
1518.00,0.1219
1517.00,0.1217
1516.00,0.1214
1515.00,0.1208
1514.00,0.1198
1513.00,0.1184
1512.00,0.1166
1511.00,0.1146
1510.00,0.1127
1509.00,0.1106
1508.00,0.1082
1507.00,0.1054
1506.00,0.1025
1505.00,0.1002
1504.00,0.0982
1503.00,0.0962
1502.00,0.0941
1501.00,0.0918
1500.00,0.0895
1499.00,0.0872
1498.00,0.0851
1497.00,0.0828
1496.00,0.0806
1495.00,0.0784
1494.00,0.0763
1493.00,0.0741
1492.00,0.0719
1491.00,0.0697
1490.00,0.0675
1489.00,0.0655
1488.00,0.0638
1487.00,0.0622
1486.00,0.0608
1485.00,0.0594
1484.00,0.0582
1483.00,0.0571
1482.00,0.0561
1481.00,0.0553
1480.00,0.0546
1479.00,0.0541
1478.00,0.0536
1477.00,0.0534
1476.00,0.0534
1475.00,0.0536
1474.00,0.0542
1473.00,0.0550
1472.00,0.0561
1471.00,0.0571
1470.00,0.0578
1469.00,0.0582
1468.00,0.0585
1467.00,0.0586
1466.00,0.0587
1465.00,0.0588
1464.00,0.0591
1463.00,0.0594
1462.00,0.0596
1461.00,0.0597
1460.00,0.0599
1459.00,0.0603
1458.00,0.0611
1457.00,0.0623
1456.00,0.0633
1455.00,0.0640
1454.00,0.0643
1453.00,0.0644
1452.00,0.0645
1451.00,0.0645
1450.00,0.0644
1449.00,0.0643
1448.00,0.0642
1447.00,0.0641
1446.00,0.0640
1445.00,0.0639
1444.00,0.0636
1443.00,0.0634
1442.00,0.0631
1441.00,0.0627
1440.00,0.0623
1439.00,0.0617
1438.00,0.0610
1437.00,0.0603
1436.00,0.0596
1435.00,0.0590
1434.00,0.0584
1433.00,0.0577
1432.00,0.0569
1431.00,0.0562
1430.00,0.0555
1429.00,0.0550
1428.00,0.0546
1427.00,0.0543
1426.00,0.0542
1425.00,0.0541
1424.00,0.0541
1423.00,0.0543
1422.00,0.0545
1421.00,0.0547
1420.00,0.0550
1419.00,0.0557
1418.00,0.0564
1417.00,0.0571
1416.00,0.0577
1415.00,0.0583
1414.00,0.0590
1413.00,0.0596
1412.00,0.0601
1411.00,0.0607
1410.00,0.0612
1409.00,0.0616
1408.00,0.0619
1407.00,0.0622
1406.00,0.0625
1405.00,0.0629
1404.00,0.0632
1403.00,0.0635
1402.00,0.0636
1401.00,0.0637
1400.00,0.0638
1399.00,0.0639
1398.00,0.0641
1397.00,0.0642
1396.00,0.0643
1395.00,0.0645
1394.00,0.0647
1393.00,0.0649
1392.00,0.0651
1391.00,0.0652
1390.00,0.0652
1389.00,0.0651
1388.00,0.0650
1387.00,0.0647
1386.00,0.0644
1385.00,0.0639
1384.00,0.0633
1383.00,0.0626
1382.00,0.0620
1381.00,0.0613
1380.00,0.0606
1379.00,0.0600
1378.00,0.0594
1377.00,0.0588
1376.00,0.0582
1375.00,0.0578
1374.00,0.0574
1373.00,0.0571
1372.00,0.0569
1371.00,0.0568
1370.00,0.0565
1369.00,0.0562
1368.00,0.0557
1367.00,0.0551
1366.00,0.0544
1365.00,0.0537
1364.00,0.0529
1363.00,0.0523
1362.00,0.0518
1361.00,0.0514
1360.00,0.0512
1359.00,0.0509
1358.00,0.0507
1357.00,0.0505
1356.00,0.0503
1355.00,0.0502
1354.00,0.0502
1353.00,0.0501
1352.00,0.0501
1351.00,0.0501
1350.00,0.0501
1349.00,0.0501
1348.00,0.0501
1347.00,0.0501
1346.00,0.0501
1345.00,0.0501
1344.00,0.0501
1343.00,0.0501
1342.00,0.0500
1341.00,0.0499
1340.00,0.0498
1339.00,0.0498
1338.00,0.0497
1337.00,0.0496
1336.00,0.0495
1335.00,0.0494
1334.00,0.0492
1333.00,0.0491
1332.00,0.0489
1331.00,0.0488
1330.00,0.0487
1329.00,0.0487
1328.00,0.0487
1327.00,0.0487
1326.00,0.0487
1325.00,0.0488
1324.00,0.0488
1323.00,0.0489
1322.00,0.0490
1321.00,0.0492
1320.00,0.0493
1319.00,0.0494
1318.00,0.0496
1317.00,0.0497
1316.00,0.0497
1315.00,0.0498
1314.00,0.0498
1313.00,0.0499
1312.00,0.0499
1311.00,0.0499
1310.00,0.0499
1309.00,0.0498
1308.00,0.0498
1307.00,0.0497
1306.00,0.0497
1305.00,0.0496
1304.00,0.0496
1303.00,0.0496
1302.00,0.0496
1301.00,0.0496
1300.00,0.0497
1299.00,0.0497
1298.00,0.0499
1297.00,0.0500
1296.00,0.0501
1295.00,0.0503
1294.00,0.0505
1293.00,0.0508
1292.00,0.0510
1291.00,0.0512
1290.00,0.0515
1289.00,0.0518
1288.00,0.0520
1287.00,0.0522
1286.00,0.0525
1285.00,0.0527
1284.00,0.0529
1283.00,0.0531
1282.00,0.0533
1281.00,0.0535
1280.00,0.0536
1279.00,0.0538
1278.00,0.0539
1277.00,0.0540
1276.00,0.0541
1275.00,0.0542
1274.00,0.0543
1273.00,0.0544
1272.00,0.0545
1271.00,0.0547
1270.00,0.0549
1269.00,0.0552
1268.00,0.0555
1267.00,0.0558
1266.00,0.0562
1265.00,0.0566
1264.00,0.0570
1263.00,0.0575
1262.00,0.0580
1261.00,0.0586
1260.00,0.0591
1259.00,0.0596
1258.00,0.0602
1257.00,0.0607
1256.00,0.0613
1255.00,0.0618
1254.00,0.0624
1253.00,0.0630
1252.00,0.0636
1251.00,0.0642
1250.00,0.0648
1249.00,0.0654
1248.00,0.0660
1247.00,0.0666
1246.00,0.0672
1245.00,0.0677
1244.00,0.0683
1243.00,0.0689
1242.00,0.0694
1241.00,0.0700
1240.00,0.0704
1239.00,0.0709
1238.00,0.0714
1237.00,0.0718
1236.00,0.0722
1235.00,0.0725
1234.00,0.0728
1233.00,0.0731
1232.00,0.0732
1231.00,0.0733
1230.00,0.0734
1229.00,0.0734
1228.00,0.0733
1227.00,0.0733
1226.00,0.0731
1225.00,0.0729
1224.00,0.0727
1223.00,0.0724
1222.00,0.0720
1221.00,0.0716
1220.00,0.0712
1219.00,0.0707
1218.00,0.0701
1217.00,0.0695
1216.00,0.0688
1215.00,0.0681
1214.00,0.0674
1213.00,0.0666
1212.00,0.0658
1211.00,0.0650
1210.00,0.0642
1209.00,0.0635
1208.00,0.0627
1207.00,0.0620
1206.00,0.0613
1205.00,0.0606
1204.00,0.0600
1203.00,0.0595
1202.00,0.0589
1201.00,0.0584
1200.00,0.0579
1199.00,0.0574
1198.00,0.0570
1197.00,0.0566
1196.00,0.0563
1195.00,0.0559
1194.00,0.0557
1193.00,0.0554
1192.00,0.0552
1191.00,0.0549
1190.00,0.0547
1189.00,0.0545
1188.00,0.0543
1187.00,0.0542
1186.00,0.0541
1185.00,0.0540
1184.00,0.0539
1183.00,0.0538
1182.00,0.0539
1181.00,0.0539
1180.00,0.0541
1179.00,0.0543
1178.00,0.0545
1177.00,0.0549
1176.00,0.0552
1175.00,0.0557
1174.00,0.0561
1173.00,0.0565
1172.00,0.0568
1171.00,0.0570
1170.00,0.0572
1169.00,0.0573
1168.00,0.0573
1167.00,0.0573
1166.00,0.0574
1165.00,0.0574
1164.00,0.0575
1163.00,0.0575
1162.00,0.0576
1161.00,0.0576
1160.00,0.0577
1159.00,0.0577
1158.00,0.0577
1157.00,0.0577
1156.00,0.0575
1155.00,0.0574
1154.00,0.0571
1153.00,0.0568
1152.00,0.0564
1151.00,0.0560
1150.00,0.0556
1149.00,0.0551
1148.00,0.0545
1147.00,0.0540
1146.00,0.0535
1145.00,0.0530
1144.00,0.0524
1143.00,0.0519
1142.00,0.0515
1141.00,0.0512
1140.00,0.0509
1139.00,0.0507
1138.00,0.0505
1137.00,0.0504
1136.00,0.0503
1135.00,0.0502
1134.00,0.0503
1133.00,0.0504
1132.00,0.0505
1131.00,0.0507
1130.00,0.0510
1129.00,0.0512
1128.00,0.0514
1127.00,0.0517
1126.00,0.0520
1125.00,0.0522
1124.00,0.0525
1123.00,0.0527
1122.00,0.0529
1121.00,0.0531
1120.00,0.0532
1119.00,0.0534
1118.00,0.0536
1117.00,0.0538
1116.00,0.0540
1115.00,0.0541
1114.00,0.0543
1113.00,0.0544
1112.00,0.0545
1111.00,0.0546
1110.00,0.0547
1109.00,0.0548
1108.00,0.0549
1107.00,0.0551
1106.00,0.0553
1105.00,0.0555
1104.00,0.0557
1103.00,0.0558
1102.00,0.0561
1101.00,0.0563
1100.00,0.0565
1099.00,0.0568
1098.00,0.0571
1097.00,0.0575
1096.00,0.0578
1095.00,0.0583
1094.00,0.0588
1093.00,0.0593
1092.00,0.0599
1091.00,0.0605
1090.00,0.0612
1089.00,0.0620
1088.00,0.0628
1087.00,0.0636
1086.00,0.0644
1085.00,0.0652
1084.00,0.0660
1083.00,0.0668
1082.00,0.0676
1081.00,0.0683
1080.00,0.0688
1079.00,0.0693
1078.00,0.0698
1077.00,0.0701
1076.00,0.0704
1075.00,0.0705
1074.00,0.0706
1073.00,0.0706
1072.00,0.0706
1071.00,0.0706
1070.00,0.0707
1069.00,0.0707
1068.00,0.0708
1067.00,0.0709
1066.00,0.0710
1065.00,0.0711
1064.00,0.0711
1063.00,0.0712
1062.00,0.0714
1061.00,0.0715
1060.00,0.0716
1059.00,0.0717
1058.00,0.0718
1057.00,0.0718
1056.00,0.0718
1055.00,0.0717
1054.00,0.0717
1053.00,0.0715
1052.00,0.0713
1051.00,0.0711
1050.00,0.0709
1049.00,0.0706
1048.00,0.0703
1047.00,0.0701
1046.00,0.0698
1045.00,0.0695
1044.00,0.0692
1043.00,0.0689
1042.00,0.0686
1041.00,0.0683
1040.00,0.0678
1039.00,0.0674
1038.00,0.0671
1037.00,0.0668
1036.00,0.0665
1035.00,0.0663
1034.00,0.0662
1033.00,0.0660
1032.00,0.0658
1031.00,0.0656
1030.00,0.0654
1029.00,0.0651
1028.00,0.0647
1027.00,0.0644
1026.00,0.0640
1025.00,0.0636
1024.00,0.0631
1023.00,0.0626
1022.00,0.0621
1021.00,0.0615
1020.00,0.0609
1019.00,0.0603
1018.00,0.0597
1017.00,0.0591
1016.00,0.0585
1015.00,0.0580
1014.00,0.0574
1013.00,0.0568
1012.00,0.0561
1011.00,0.0555
1010.00,0.0549
1009.00,0.0542
1008.00,0.0536
1007.00,0.0529
1006.00,0.0523
1005.00,0.0517
1004.00,0.0511
1003.00,0.0506
1002.00,0.0501
1001.00,0.0496
1000.00,0.0490
999.00,0.0485
998.00,0.0481
997.00,0.0476
996.00,0.0471
995.00,0.0466
994.00,0.0461
993.00,0.0456
992.00,0.0452
991.00,0.0447
990.00,0.0443
989.00,0.0439
988.00,0.0434
987.00,0.0430
986.00,0.0427
985.00,0.0424
984.00,0.0421
983.00,0.0419
982.00,0.0417
981.00,0.0416
980.00,0.0415
979.00,0.0414
978.00,0.0414
977.00,0.0415
976.00,0.0416
975.00,0.0417
974.00,0.0418
973.00,0.0419
972.00,0.0419
971.00,0.0420
970.00,0.0421
969.00,0.0421
968.00,0.0421
967.00,0.0421
966.00,0.0422
965.00,0.0422
964.00,0.0421
963.00,0.0421
962.00,0.0421
961.00,0.0420
960.00,0.0420
959.00,0.0419
958.00,0.0419
957.00,0.0418
956.00,0.0417
955.00,0.0416
954.00,0.0415
953.00,0.0414
952.00,0.0414
951.00,0.0414
950.00,0.0414
949.00,0.0415
948.00,0.0415
947.00,0.0415
946.00,0.0417
945.00,0.0418
944.00,0.0419
943.00,0.0420
942.00,0.0421
941.00,0.0423
940.00,0.0425
939.00,0.0427
938.00,0.0430
937.00,0.0432
936.00,0.0433
935.00,0.0435
934.00,0.0436
933.00,0.0438
932.00,0.0439
931.00,0.0440
930.00,0.0441
929.00,0.0440
928.00,0.0439
927.00,0.0438
926.00,0.0437
925.00,0.0436
924.00,0.0434
923.00,0.0432
922.00,0.0431
921.00,0.0429
920.00,0.0427
919.00,0.0425
918.00,0.0424
917.00,0.0422
916.00,0.0420
915.00,0.0418
914.00,0.0417
913.00,0.0415
912.00,0.0414
911.00,0.0413
910.00,0.0412
909.00,0.0411
908.00,0.0410
907.00,0.0410
906.00,0.0409
905.00,0.0409
904.00,0.0407
903.00,0.0406
902.00,0.0405
901.00,0.0404
900.00,0.0403
899.00,0.0403
898.00,0.0402
897.00,0.0402
896.00,0.0401
895.00,0.0400
894.00,0.0400
893.00,0.0400
892.00,0.0399
891.00,0.0399
890.00,0.0399
889.00,0.0399
888.00,0.0399
887.00,0.0399
886.00,0.0400
885.00,0.0400
884.00,0.0400
883.00,0.0400
882.00,0.0400
881.00,0.0401
880.00,0.0400
879.00,0.0399
878.00,0.0399
877.00,0.0399
876.00,0.0398
875.00,0.0397
874.00,0.0397
873.00,0.0396
872.00,0.0395
871.00,0.0394
870.00,0.0394
869.00,0.0394
868.00,0.0394
867.00,0.0395
866.00,0.0396
865.00,0.0397
864.00,0.0398
863.00,0.0399
862.00,0.0401
861.00,0.0404
860.00,0.0406
859.00,0.0409
858.00,0.0413
857.00,0.0416
856.00,0.0419
855.00,0.0422
854.00,0.0425
853.00,0.0427
852.00,0.0429
851.00,0.0431
850.00,0.0433
849.00,0.0434
848.00,0.0435
847.00,0.0435
846.00,0.0436
845.00,0.0437
844.00,0.0438
843.00,0.0440
842.00,0.0443
841.00,0.0446
840.00,0.0449
839.00,0.0453
838.00,0.0456
837.00,0.0460
836.00,0.0463
835.00,0.0467
834.00,0.0472
833.00,0.0476
832.00,0.0480
831.00,0.0483
830.00,0.0487
829.00,0.0490
828.00,0.0492
827.00,0.0494
826.00,0.0496
825.00,0.0498
824.00,0.0498
823.00,0.0498
822.00,0.0499
821.00,0.0500
820.00,0.0500
819.00,0.0502
818.00,0.0504
817.00,0.0506
816.00,0.0509
815.00,0.0512
814.00,0.0515
813.00,0.0518
812.00,0.0520
811.00,0.0522
810.00,0.0525
809.00,0.0528
808.00,0.0530
807.00,0.0533
806.00,0.0537
805.00,0.0540
804.00,0.0542
803.00,0.0545
802.00,0.0549
801.00,0.0553
800.00,0.0556
799.00,0.0560
798.00,0.0565
797.00,0.0570
796.00,0.0574
795.00,0.0579
794.00,0.0585
793.00,0.0591
792.00,0.0596
791.00,0.0602
790.00,0.0609
789.00,0.0616
788.00,0.0622
787.00,0.0628
786.00,0.0634
785.00,0.0640
784.00,0.0645
783.00,0.0650
782.00,0.0654
781.00,0.0658
780.00,0.0661
779.00,0.0663
778.00,0.0667
777.00,0.0670
776.00,0.0672
775.00,0.0674
774.00,0.0677
773.00,0.0679
772.00,0.0681
771.00,0.0683
770.00,0.0685
769.00,0.0688
768.00,0.0689
767.00,0.0691
766.00,0.0694
765.00,0.0697
764.00,0.0698
763.00,0.0700
762.00,0.0702
761.00,0.0705
760.00,0.0709
759.00,0.0713
758.00,0.0718
757.00,0.0722
756.00,0.0725
755.00,0.0730
754.00,0.0735
753.00,0.0741
752.00,0.0746
751.00,0.0751
750.00,0.0757
749.00,0.0763
748.00,0.0768
747.00,0.0773
746.00,0.0779
745.00,0.0783
744.00,0.0786
743.00,0.0790
742.00,0.0794
741.00,0.0798
740.00,0.0801
739.00,0.0805
738.00,0.0809
737.00,0.0813
736.00,0.0817
735.00,0.0822
734.00,0.0828
733.00,0.0835
732.00,0.0841
731.00,0.0848
730.00,0.0857
729.00,0.0866
728.00,0.0876
727.00,0.0886
726.00,0.0897
725.00,0.0909
724.00,0.0920
723.00,0.0930
722.00,0.0942
721.00,0.0952
720.00,0.0962
719.00,0.0972
718.00,0.0982
717.00,0.0992
716.00,0.1001
715.00,0.1009
714.00,0.1018
713.00,0.1027
712.00,0.1035
711.00,0.1044
710.00,0.1053
709.00,0.1063
708.00,0.1072
707.00,0.1082
706.00,0.1094
705.00,0.1105
704.00,0.1116
703.00,0.1126
702.00,0.1137
701.00,0.1146
700.00,0.1153
699.00,0.1158
698.00,0.1162
697.00,0.1165
696.00,0.1165
695.00,0.1163
694.00,0.1162
693.00,0.1160
692.00,0.1159
691.00,0.1158
690.00,0.1158
689.00,0.1159
688.00,0.1160
687.00,0.1161
686.00,0.1163
685.00,0.1164
684.00,0.1165
683.00,0.1166
682.00,0.1168
681.00,0.1170
680.00,0.1171
679.00,0.1172
678.00,0.1175
677.00,0.1177
676.00,0.1179
675.00,0.1181
674.00,0.1184
673.00,0.1187
672.00,0.1188
671.00,0.1190
670.00,0.1192
669.00,0.1195
668.00,0.1199
667.00,0.1203
666.00,0.1206
665.00,0.1207
664.00,0.1209
663.00,0.1212
662.00,0.1216
661.00,0.1220
660.00,0.1222
659.00,0.1225
658.00,0.1229
657.00,0.1231
656.00,0.1233
655.00,0.1235
654.00,0.1237
653.00,0.1239
652.00,0.1240
651.00,0.1241
650.00,0.1243
649.00,0.1245
648.00,0.1247
647.00,0.1250
646.00,0.1254
645.00,0.1258
644.00,0.1261
643.00,0.1264
642.00,0.1268
641.00,0.1271
640.00,0.1272
639.00,0.1274
638.00,0.1278
637.00,0.1282
636.00,0.1286
635.00,0.1290
634.00,0.1295
633.00,0.1299
632.00,0.1302
631.00,0.1306
630.00,0.1311
629.00,0.1315
628.00,0.1317
627.00,0.1320
626.00,0.1324
625.00,0.1327
624.00,0.1329
623.00,0.1331
622.00,0.1333
621.00,0.1335
620.00,0.1335
619.00,0.1336
618.00,0.1337
617.00,0.1339
616.00,0.1340
615.00,0.1340
614.00,0.1342
613.00,0.1343
612.00,0.1343
611.00,0.1342
610.00,0.1342
609.00,0.1343
608.00,0.1344
607.00,0.1345
606.00,0.1347
605.00,0.1348
604.00,0.1348
603.00,0.1349
602.00,0.1351
601.00,0.1353
600.00,0.1355
599.00,0.1356
598.00,0.1359
597.00,0.1362
596.00,0.1363
595.00,0.1365
594.00,0.1368
593.00,0.1371
592.00,0.1373
591.00,0.1375
590.00,0.1379
589.00,0.1381
588.00,0.1381
587.00,0.1382
586.00,0.1385
585.00,0.1388
584.00,0.1391
583.00,0.1394
582.00,0.1398
581.00,0.1402
580.00,0.1405
579.00,0.1408
578.00,0.1413
577.00,0.1416
576.00,0.1418
575.00,0.1421
574.00,0.1425
573.00,0.1429
572.00,0.1431
571.00,0.1434
570.00,0.1439
569.00,0.1444
568.00,0.1447
567.00,0.1450
566.00,0.1454
565.00,0.1458
564.00,0.1459
563.00,0.1462
562.00,0.1466
561.00,0.1471
560.00,0.1474
559.00,0.1478
558.00,0.1483
557.00,0.1488
556.00,0.1492
555.00,0.1496
554.00,0.1501
553.00,0.1504
552.00,0.1505
551.00,0.1506
550.00,0.1511
549.00,0.1517
548.00,0.1521
547.00,0.1525
546.00,0.1530
545.00,0.1535
544.00,0.1538
543.00,0.1540
542.00,0.1545
541.00,0.1549
540.00,0.1551
539.00,0.1554
538.00,0.1558
537.00,0.1562
536.00,0.1564
535.00,0.1565
534.00,0.1568
533.00,0.1571
532.00,0.1574
531.00,0.1577
530.00,0.1582
529.00,0.1585
528.00,0.1585
527.00,0.1586
526.00,0.1589
525.00,0.1592
524.00,0.1594
523.00,0.1596
522.00,0.1600
521.00,0.1604
520.00,0.1605
519.00,0.1607
518.00,0.1611
517.00,0.1616
516.00,0.1620
515.00,0.1623
514.00,0.1626
513.00,0.1626
512.00,0.1625
511.00,0.1627
510.00,0.1632
509.00,0.1637
508.00,0.1637
507.00,0.1636
506.00,0.1638
505.00,0.1639
504.00,0.1637
503.00,0.1637
502.00,0.1638
501.00,0.1640
500.00,0.1640
499.00,0.1641
498.00,0.1644
497.00,0.1647
496.00,0.1646
495.00,0.1647
494.00,0.1649
493.00,0.1650
492.00,0.1646
491.00,0.1643
490.00,0.1644
489.00,0.1645
488.00,0.1644
487.00,0.1644
486.00,0.1647
485.00,0.1650
484.00,0.1650
483.00,0.1651
482.00,0.1655
481.00,0.1658
480.00,0.1655
479.00,0.1652
478.00,0.1653
477.00,0.1655
476.00,0.1654
475.00,0.1654
474.00,0.1656
473.00,0.1656
472.00,0.1652
471.00,0.1651
470.00,0.1657
469.00,0.1661
468.00,0.1659
467.00,0.1656
466.00,0.1657
465.00,0.1659
464.00,0.1658
463.00,0.1658
462.00,0.1662
461.00,0.1664
460.00,0.1658
459.00,0.1653
458.00,0.1656
457.00,0.1661
456.00,0.1662
455.00,0.1660
454.00,0.1660
453.00,0.1656
452.00,0.1649
451.00,0.1644
450.00,0.1646
449.00,0.1648
448.00,0.1645
447.00,0.1643
446.00,0.1643
445.00,0.1639
444.00,0.1629
443.00,0.1621
442.00,0.1620
441.00,0.1620
440.00,0.1615
439.00,0.1611
438.00,0.1612
437.00,0.1613
436.00,0.1607
435.00,0.1601
434.00,0.1600
433.00,0.1599
432.00,0.1595
431.00,0.1592
430.00,0.1596
429.00,0.1598
428.00,0.1592
427.00,0.1585
426.00,0.1585
425.00,0.1585
424.00,0.1580
423.00,0.1578
422.00,0.1586
421.00,0.1594
420.00,0.1591
419.00,0.1588
418.00,0.1593
417.00,0.1594
416.00,0.1586
415.00,0.1582
414.00,0.1587
413.00,0.1587
412.00,0.1572
411.00,0.1556
410.00,0.1552
409.00,0.1552
408.00,0.1546
407.00,0.1545
406.00,0.1557
405.00,0.1565
404.00,0.1552
403.00,0.1532
402.00,0.1521
401.00,0.1508
400.00,0.1484
