Created as New Dataset,Sample 727 By YargerLab Date Thursday, June 26 2025
cm-1,A
4000.00,0.0002
3999.00,0.0002
3998.00,0.0002
3997.00,0.0002
3996.00,0.0002
3995.00,0.0002
3994.00,0.0002
3993.00,0.0002
3992.00,0.0002
3991.00,0.0002
3990.00,0.0002
3989.00,0.0002
3988.00,0.0002
3987.00,0.0002
3986.00,0.0002
3985.00,0.0003
3984.00,0.0003
3983.00,0.0003
3982.00,0.0003
3981.00,0.0003
3980.00,0.0002
3979.00,0.0002
3978.00,0.0002
3977.00,0.0002
3976.00,0.0002
3975.00,0.0003
3974.00,0.0003
3973.00,0.0003
3972.00,0.0003
3971.00,0.0003
3970.00,0.0002
3969.00,0.0002
3968.00,0.0002
3967.00,0.0002
3966.00,0.0002
3965.00,0.0002
3964.00,0.0002
3963.00,0.0003
3962.00,0.0003
3961.00,0.0003
3960.00,0.0003
3959.00,0.0002
3958.00,0.0002
3957.00,0.0002
3956.00,0.0002
3955.00,0.0002
3954.00,0.0002
3953.00,0.0002
3952.00,0.0002
3951.00,0.0002
3950.00,0.0002
3949.00,0.0002
3948.00,0.0002
3947.00,0.0002
3946.00,0.0002
3945.00,0.0002
3944.00,0.0002
3943.00,0.0002
3942.00,0.0002
3941.00,0.0003
3940.00,0.0003
3939.00,0.0003
3938.00,0.0003
3937.00,0.0002
3936.00,0.0002
3935.00,0.0002
3934.00,0.0001
3933.00,0.0001
3932.00,0.0001
3931.00,0.0002
3930.00,0.0002
3929.00,0.0002
3928.00,0.0001
3927.00,0.0001
3926.00,0.0002
3925.00,0.0002
3924.00,0.0002
3923.00,0.0002
3922.00,0.0001
3921.00,0.0001
3920.00,0.0001
3919.00,0.0001
3918.00,0.0001
3917.00,0.0001
3916.00,0.0001
3915.00,0.0001
3914.00,0.0001
3913.00,0.0002
3912.00,0.0002
3911.00,0.0002
3910.00,0.0002
3909.00,0.0002
3908.00,0.0001
3907.00,0.0001
3906.00,0.0000
3905.00,-0.0000
3904.00,-0.0001
3903.00,-0.0001
3902.00,-0.0001
3901.00,-0.0001
3900.00,-0.0000
3899.00,0.0000
3898.00,0.0001
3897.00,0.0001
3896.00,0.0001
3895.00,0.0001
3894.00,0.0000
3893.00,0.0000
3892.00,0.0001
3891.00,0.0001
3890.00,0.0001
3889.00,0.0000
3888.00,0.0000
3887.00,0.0000
3886.00,0.0000
3885.00,0.0001
3884.00,0.0000
3883.00,0.0000
3882.00,0.0000
3881.00,0.0000
3880.00,0.0001
3879.00,0.0001
3878.00,0.0001
3877.00,0.0001
3876.00,0.0001
3875.00,0.0002
3874.00,0.0002
3873.00,0.0001
3872.00,0.0001
3871.00,0.0001
3870.00,0.0001
3869.00,0.0001
3868.00,0.0001
3867.00,0.0000
3866.00,0.0000
3865.00,0.0000
3864.00,0.0001
3863.00,0.0001
3862.00,0.0001
3861.00,0.0001
3860.00,0.0001
3859.00,0.0001
3858.00,0.0001
3857.00,0.0000
3856.00,-0.0001
3855.00,-0.0001
3854.00,-0.0001
3853.00,-0.0001
3852.00,-0.0001
3851.00,-0.0001
3850.00,-0.0001
3849.00,0.0000
3848.00,0.0001
3847.00,0.0001
3846.00,0.0001
3845.00,0.0001
3844.00,0.0001
3843.00,0.0001
3842.00,0.0001
3841.00,0.0001
3840.00,0.0000
3839.00,0.0000
3838.00,0.0000
3837.00,-0.0000
3836.00,-0.0000
3835.00,-0.0000
3834.00,-0.0000
3833.00,0.0000
3832.00,0.0001
3831.00,0.0001
3830.00,0.0001
3829.00,0.0001
3828.00,0.0001
3827.00,0.0002
3826.00,0.0002
3825.00,0.0001
3824.00,0.0001
3823.00,0.0001
3822.00,0.0001
3821.00,0.0001
3820.00,0.0001
3819.00,0.0001
3818.00,0.0000
3817.00,0.0001
3816.00,0.0001
3815.00,0.0002
3814.00,0.0002
3813.00,0.0002
3812.00,0.0002
3811.00,0.0002
3810.00,0.0002
3809.00,0.0002
3808.00,0.0002
3807.00,0.0002
3806.00,0.0002
3805.00,0.0001
3804.00,0.0001
3803.00,0.0001
3802.00,0.0002
3801.00,0.0002
3800.00,0.0002
3799.00,0.0001
3798.00,0.0001
3797.00,0.0001
3796.00,0.0002
3795.00,0.0002
3794.00,0.0002
3793.00,0.0002
3792.00,0.0002
3791.00,0.0002
3790.00,0.0002
3789.00,0.0003
3788.00,0.0003
3787.00,0.0003
3786.00,0.0003
3785.00,0.0003
3784.00,0.0003
3783.00,0.0002
3782.00,0.0002
3781.00,0.0002
3780.00,0.0002
3779.00,0.0002
3778.00,0.0002
3777.00,0.0002
3776.00,0.0002
3775.00,0.0002
3774.00,0.0002
3773.00,0.0002
3772.00,0.0002
3771.00,0.0002
3770.00,0.0002
3769.00,0.0002
3768.00,0.0002
3767.00,0.0002
3766.00,0.0002
3765.00,0.0002
3764.00,0.0002
3763.00,0.0002
3762.00,0.0002
3761.00,0.0002
3760.00,0.0002
3759.00,0.0002
3758.00,0.0002
3757.00,0.0002
3756.00,0.0002
3755.00,0.0002
3754.00,0.0002
3753.00,0.0002
3752.00,0.0002
3751.00,0.0001
3750.00,0.0001
3749.00,0.0000
3748.00,0.0000
3747.00,-0.0001
3746.00,-0.0001
3745.00,-0.0000
3744.00,-0.0000
3743.00,-0.0000
3742.00,-0.0000
3741.00,-0.0000
3740.00,-0.0000
3739.00,-0.0000
3738.00,-0.0001
3737.00,-0.0001
3736.00,-0.0001
3735.00,-0.0001
3734.00,-0.0001
3733.00,-0.0001
3732.00,-0.0000
3731.00,-0.0000
3730.00,-0.0000
3729.00,0.0000
3728.00,0.0000
3727.00,0.0001
3726.00,0.0001
3725.00,0.0001
3724.00,0.0001
3723.00,0.0001
3722.00,0.0001
3721.00,0.0001
3720.00,0.0002
3719.00,0.0002
3718.00,0.0002
3717.00,0.0002
3716.00,0.0002
3715.00,0.0001
3714.00,0.0001
3713.00,0.0001
3712.00,0.0001
3711.00,0.0001
3710.00,0.0001
3709.00,0.0001
3708.00,0.0001
3707.00,0.0001
3706.00,0.0001
3705.00,0.0001
3704.00,0.0002
3703.00,0.0002
3702.00,0.0002
3701.00,0.0001
3700.00,0.0001
3699.00,0.0001
3698.00,0.0002
3697.00,0.0002
3696.00,0.0003
3695.00,0.0003
3694.00,0.0002
3693.00,0.0002
3692.00,0.0002
3691.00,0.0002
3690.00,0.0002
3689.00,0.0001
3688.00,0.0001
3687.00,0.0001
3686.00,0.0002
3685.00,0.0002
3684.00,0.0003
3683.00,0.0003
3682.00,0.0004
3681.00,0.0004
3680.00,0.0004
3679.00,0.0003
3678.00,0.0003
3677.00,0.0003
3676.00,0.0003
3675.00,0.0003
3674.00,0.0003
3673.00,0.0003
3672.00,0.0003
3671.00,0.0004
3670.00,0.0005
3669.00,0.0005
3668.00,0.0005
3667.00,0.0005
3666.00,0.0006
3665.00,0.0006
3664.00,0.0007
3663.00,0.0008
3662.00,0.0008
3661.00,0.0008
3660.00,0.0008
3659.00,0.0008
3658.00,0.0008
3657.00,0.0008
3656.00,0.0008
3655.00,0.0009
3654.00,0.0009
3653.00,0.0009
3652.00,0.0009
3651.00,0.0010
3650.00,0.0010
3649.00,0.0009
3648.00,0.0009
3647.00,0.0009
3646.00,0.0009
3645.00,0.0010
3644.00,0.0010
3643.00,0.0011
3642.00,0.0012
3641.00,0.0013
3640.00,0.0013
3639.00,0.0014
3638.00,0.0014
3637.00,0.0014
3636.00,0.0015
3635.00,0.0015
3634.00,0.0015
3633.00,0.0015
3632.00,0.0016
3631.00,0.0016
3630.00,0.0016
3629.00,0.0016
3628.00,0.0016
3627.00,0.0016
3626.00,0.0016
3625.00,0.0017
3624.00,0.0018
3623.00,0.0019
3622.00,0.0019
3621.00,0.0020
3620.00,0.0020
3619.00,0.0021
3618.00,0.0021
3617.00,0.0021
3616.00,0.0021
3615.00,0.0021
3614.00,0.0022
3613.00,0.0022
3612.00,0.0023
3611.00,0.0023
3610.00,0.0023
3609.00,0.0023
3608.00,0.0024
3607.00,0.0024
3606.00,0.0025
3605.00,0.0026
3604.00,0.0027
3603.00,0.0028
3602.00,0.0028
3601.00,0.0028
3600.00,0.0029
3599.00,0.0029
3598.00,0.0029
3597.00,0.0030
3596.00,0.0030
3595.00,0.0030
3594.00,0.0031
3593.00,0.0031
3592.00,0.0032
3591.00,0.0032
3590.00,0.0033
3589.00,0.0033
3588.00,0.0034
3587.00,0.0033
3586.00,0.0033
3585.00,0.0034
3584.00,0.0035
3583.00,0.0036
3582.00,0.0036
3581.00,0.0037
3580.00,0.0038
3579.00,0.0038
3578.00,0.0039
3577.00,0.0040
3576.00,0.0040
3575.00,0.0041
3574.00,0.0041
3573.00,0.0042
3572.00,0.0042
3571.00,0.0042
3570.00,0.0042
3569.00,0.0042
3568.00,0.0042
3567.00,0.0042
3566.00,0.0042
3565.00,0.0043
3564.00,0.0043
3563.00,0.0044
3562.00,0.0045
3561.00,0.0046
3560.00,0.0047
3559.00,0.0048
3558.00,0.0049
3557.00,0.0049
3556.00,0.0050
3555.00,0.0050
3554.00,0.0051
3553.00,0.0051
3552.00,0.0051
3551.00,0.0052
3550.00,0.0052
3549.00,0.0053
3548.00,0.0054
3547.00,0.0054
3546.00,0.0055
3545.00,0.0055
3544.00,0.0055
3543.00,0.0055
3542.00,0.0056
3541.00,0.0056
3540.00,0.0057
3539.00,0.0058
3538.00,0.0059
3537.00,0.0059
3536.00,0.0060
3535.00,0.0060
3534.00,0.0061
3533.00,0.0061
3532.00,0.0062
3531.00,0.0062
3530.00,0.0063
3529.00,0.0063
3528.00,0.0063
3527.00,0.0064
3526.00,0.0064
3525.00,0.0064
3524.00,0.0065
3523.00,0.0065
3522.00,0.0065
3521.00,0.0066
3520.00,0.0067
3519.00,0.0068
3518.00,0.0068
3517.00,0.0069
3516.00,0.0069
3515.00,0.0070
3514.00,0.0070
3513.00,0.0071
3512.00,0.0071
3511.00,0.0072
3510.00,0.0072
3509.00,0.0073
3508.00,0.0073
3507.00,0.0074
3506.00,0.0074
3505.00,0.0075
3504.00,0.0075
3503.00,0.0075
3502.00,0.0075
3501.00,0.0076
3500.00,0.0076
3499.00,0.0077
3498.00,0.0077
3497.00,0.0078
3496.00,0.0079
3495.00,0.0079
3494.00,0.0079
3493.00,0.0080
3492.00,0.0080
3491.00,0.0081
3490.00,0.0081
3489.00,0.0082
3488.00,0.0082
3487.00,0.0083
3486.00,0.0083
3485.00,0.0084
3484.00,0.0084
3483.00,0.0085
3482.00,0.0085
3481.00,0.0086
3480.00,0.0086
3479.00,0.0087
3478.00,0.0088
3477.00,0.0088
3476.00,0.0089
3475.00,0.0089
3474.00,0.0090
3473.00,0.0090
3472.00,0.0091
3471.00,0.0092
3470.00,0.0092
3469.00,0.0093
3468.00,0.0093
3467.00,0.0093
3466.00,0.0094
3465.00,0.0094
3464.00,0.0095
3463.00,0.0095
3462.00,0.0096
3461.00,0.0096
3460.00,0.0096
3459.00,0.0096
3458.00,0.0097
3457.00,0.0097
3456.00,0.0098
3455.00,0.0098
3454.00,0.0099
3453.00,0.0099
3452.00,0.0100
3451.00,0.0100
3450.00,0.0101
3449.00,0.0102
3448.00,0.0102
3447.00,0.0103
3446.00,0.0103
3445.00,0.0103
3444.00,0.0104
3443.00,0.0105
3442.00,0.0106
3441.00,0.0106
3440.00,0.0107
3439.00,0.0107
3438.00,0.0108
3437.00,0.0108
3436.00,0.0108
3435.00,0.0109
3434.00,0.0110
3433.00,0.0110
3432.00,0.0111
3431.00,0.0112
3430.00,0.0112
3429.00,0.0112
3428.00,0.0113
3427.00,0.0113
3426.00,0.0114
3425.00,0.0114
3424.00,0.0115
3423.00,0.0116
3422.00,0.0116
3421.00,0.0117
3420.00,0.0117
3419.00,0.0117
3418.00,0.0118
3417.00,0.0118
3416.00,0.0119
3415.00,0.0119
3414.00,0.0120
3413.00,0.0120
3412.00,0.0121
3411.00,0.0122
3410.00,0.0122
3409.00,0.0123
3408.00,0.0123
3407.00,0.0124
3406.00,0.0124
3405.00,0.0125
3404.00,0.0125
3403.00,0.0126
3402.00,0.0126
3401.00,0.0127
3400.00,0.0127
3399.00,0.0128
3398.00,0.0128
3397.00,0.0129
3396.00,0.0129
3395.00,0.0129
3394.00,0.0130
3393.00,0.0131
3392.00,0.0132
3391.00,0.0132
3390.00,0.0133
3389.00,0.0134
3388.00,0.0134
3387.00,0.0135
3386.00,0.0135
3385.00,0.0136
3384.00,0.0136
3383.00,0.0136
3382.00,0.0137
3381.00,0.0137
3380.00,0.0138
3379.00,0.0139
3378.00,0.0139
3377.00,0.0140
3376.00,0.0141
3375.00,0.0141
3374.00,0.0142
3373.00,0.0142
3372.00,0.0143
3371.00,0.0144
3370.00,0.0144
3369.00,0.0145
3368.00,0.0146
3367.00,0.0146
3366.00,0.0147
3365.00,0.0148
3364.00,0.0149
3363.00,0.0149
3362.00,0.0150
3361.00,0.0151
3360.00,0.0152
3359.00,0.0152
3358.00,0.0153
3357.00,0.0154
3356.00,0.0155
3355.00,0.0155
3354.00,0.0156
3353.00,0.0157
3352.00,0.0158
3351.00,0.0159
3350.00,0.0160
3349.00,0.0161
3348.00,0.0162
3347.00,0.0162
3346.00,0.0163
3345.00,0.0164
3344.00,0.0165
3343.00,0.0166
3342.00,0.0167
3341.00,0.0168
3340.00,0.0168
3339.00,0.0169
3338.00,0.0170
3337.00,0.0171
3336.00,0.0172
3335.00,0.0173
3334.00,0.0174
3333.00,0.0175
3332.00,0.0176
3331.00,0.0178
3330.00,0.0179
3329.00,0.0180
3328.00,0.0181
3327.00,0.0182
3326.00,0.0183
3325.00,0.0184
3324.00,0.0186
3323.00,0.0187
3322.00,0.0188
3321.00,0.0190
3320.00,0.0191
3319.00,0.0192
3318.00,0.0194
3317.00,0.0195
3316.00,0.0196
3315.00,0.0198
3314.00,0.0199
3313.00,0.0200
3312.00,0.0202
3311.00,0.0203
3310.00,0.0204
3309.00,0.0205
3308.00,0.0207
3307.00,0.0208
3306.00,0.0209
3305.00,0.0211
3304.00,0.0213
3303.00,0.0215
3302.00,0.0217
3301.00,0.0218
3300.00,0.0220
3299.00,0.0221
3298.00,0.0223
3297.00,0.0224
3296.00,0.0226
3295.00,0.0228
3294.00,0.0229
3293.00,0.0231
3292.00,0.0232
3291.00,0.0233
3290.00,0.0235
3289.00,0.0236
3288.00,0.0238
3287.00,0.0239
3286.00,0.0241
3285.00,0.0242
3284.00,0.0243
3283.00,0.0244
3282.00,0.0245
3281.00,0.0246
3280.00,0.0247
3279.00,0.0248
3278.00,0.0248
3277.00,0.0249
3276.00,0.0249
3275.00,0.0249
3274.00,0.0249
3273.00,0.0249
3272.00,0.0249
3271.00,0.0249
3270.00,0.0249
3269.00,0.0249
3268.00,0.0248
3267.00,0.0248
3266.00,0.0247
3265.00,0.0246
3264.00,0.0245
3263.00,0.0244
3262.00,0.0243
3261.00,0.0242
3260.00,0.0241
3259.00,0.0240
3258.00,0.0239
3257.00,0.0237
3256.00,0.0236
3255.00,0.0234
3254.00,0.0232
3253.00,0.0231
3252.00,0.0230
3251.00,0.0228
3250.00,0.0227
3249.00,0.0225
3248.00,0.0224
3247.00,0.0222
3246.00,0.0220
3245.00,0.0219
3244.00,0.0217
3243.00,0.0216
3242.00,0.0214
3241.00,0.0213
3240.00,0.0212
3239.00,0.0211
3238.00,0.0210
3237.00,0.0208
3236.00,0.0207
3235.00,0.0205
3234.00,0.0204
3233.00,0.0202
3232.00,0.0201
3231.00,0.0200
3230.00,0.0199
3229.00,0.0198
3228.00,0.0197
3227.00,0.0196
3226.00,0.0195
3225.00,0.0194
3224.00,0.0193
3223.00,0.0192
3222.00,0.0191
3221.00,0.0190
3220.00,0.0189
3219.00,0.0187
3218.00,0.0186
3217.00,0.0186
3216.00,0.0185
3215.00,0.0184
3214.00,0.0183
3213.00,0.0182
3212.00,0.0181
3211.00,0.0180
3210.00,0.0179
3209.00,0.0178
3208.00,0.0177
3207.00,0.0176
3206.00,0.0175
3205.00,0.0174
3204.00,0.0173
3203.00,0.0172
3202.00,0.0171
3201.00,0.0171
3200.00,0.0170
3199.00,0.0169
3198.00,0.0168
3197.00,0.0167
3196.00,0.0166
3195.00,0.0165
3194.00,0.0164
3193.00,0.0163
3192.00,0.0163
3191.00,0.0162
3190.00,0.0161
3189.00,0.0160
3188.00,0.0159
3187.00,0.0159
3186.00,0.0158
3185.00,0.0157
3184.00,0.0156
3183.00,0.0155
3182.00,0.0154
3181.00,0.0153
3180.00,0.0153
3179.00,0.0152
3178.00,0.0151
3177.00,0.0150
3176.00,0.0150
3175.00,0.0149
3174.00,0.0148
3173.00,0.0147
3172.00,0.0146
3171.00,0.0145
3170.00,0.0144
3169.00,0.0143
3168.00,0.0142
3167.00,0.0142
3166.00,0.0141
3165.00,0.0140
3164.00,0.0140
3163.00,0.0139
3162.00,0.0138
3161.00,0.0138
3160.00,0.0137
3159.00,0.0137
3158.00,0.0136
3157.00,0.0135
3156.00,0.0134
3155.00,0.0134
3154.00,0.0133
3153.00,0.0132
3152.00,0.0131
3151.00,0.0131
3150.00,0.0131
3149.00,0.0130
3148.00,0.0130
3147.00,0.0129
3146.00,0.0129
3145.00,0.0128
3144.00,0.0128
3143.00,0.0127
3142.00,0.0127
3141.00,0.0126
3140.00,0.0126
3139.00,0.0125
3138.00,0.0125
3137.00,0.0124
3136.00,0.0124
3135.00,0.0123
3134.00,0.0123
3133.00,0.0122
3132.00,0.0122
3131.00,0.0122
3130.00,0.0122
3129.00,0.0121
3128.00,0.0121
3127.00,0.0121
3126.00,0.0121
3125.00,0.0120
3124.00,0.0120
3123.00,0.0119
3122.00,0.0118
3121.00,0.0118
3120.00,0.0118
3119.00,0.0117
3118.00,0.0117
3117.00,0.0117
3116.00,0.0118
3115.00,0.0118
3114.00,0.0118
3113.00,0.0118
3112.00,0.0119
3111.00,0.0119
3110.00,0.0119
3109.00,0.0119
3108.00,0.0119
3107.00,0.0119
3106.00,0.0119
3105.00,0.0119
3104.00,0.0120
3103.00,0.0120
3102.00,0.0120
3101.00,0.0120
3100.00,0.0120
3099.00,0.0120
3098.00,0.0121
3097.00,0.0121
3096.00,0.0122
3095.00,0.0122
3094.00,0.0122
3093.00,0.0122
3092.00,0.0122
3091.00,0.0122
3090.00,0.0122
3089.00,0.0123
3088.00,0.0123
3087.00,0.0123
3086.00,0.0123
3085.00,0.0123
3084.00,0.0123
3083.00,0.0123
3082.00,0.0123
3081.00,0.0123
3080.00,0.0123
3079.00,0.0123
3078.00,0.0123
3077.00,0.0123
3076.00,0.0123
3075.00,0.0123
3074.00,0.0123
3073.00,0.0123
3072.00,0.0123
3071.00,0.0123
3070.00,0.0123
3069.00,0.0122
3068.00,0.0121
3067.00,0.0121
3066.00,0.0120
3065.00,0.0120
3064.00,0.0120
3063.00,0.0119
3062.00,0.0119
3061.00,0.0119
3060.00,0.0118
3059.00,0.0118
3058.00,0.0117
3057.00,0.0116
3056.00,0.0116
3055.00,0.0115
3054.00,0.0114
3053.00,0.0114
3052.00,0.0113
3051.00,0.0112
3050.00,0.0112
3049.00,0.0111
3048.00,0.0111
3047.00,0.0110
3046.00,0.0109
3045.00,0.0108
3044.00,0.0107
3043.00,0.0107
3042.00,0.0106
3041.00,0.0105
3040.00,0.0105
3039.00,0.0105
3038.00,0.0104
3037.00,0.0104
3036.00,0.0103
3035.00,0.0103
3034.00,0.0102
3033.00,0.0102
3032.00,0.0102
3031.00,0.0101
3030.00,0.0101
3029.00,0.0100
3028.00,0.0100
3027.00,0.0099
3026.00,0.0098
3025.00,0.0098
3024.00,0.0097
3023.00,0.0097
3022.00,0.0096
3021.00,0.0095
3020.00,0.0095
3019.00,0.0094
3018.00,0.0093
3017.00,0.0093
3016.00,0.0092
3015.00,0.0092
3014.00,0.0091
3013.00,0.0090
3012.00,0.0090
3011.00,0.0090
3010.00,0.0090
3009.00,0.0090
3008.00,0.0090
3007.00,0.0090
3006.00,0.0090
3005.00,0.0089
3004.00,0.0089
3003.00,0.0089
3002.00,0.0088
3001.00,0.0088
3000.00,0.0088
2999.00,0.0088
2998.00,0.0088
2997.00,0.0089
2996.00,0.0089
2995.00,0.0090
2994.00,0.0091
2993.00,0.0091
2992.00,0.0092
2991.00,0.0092
2990.00,0.0093
2989.00,0.0094
2988.00,0.0095
2987.00,0.0096
2986.00,0.0097
2985.00,0.0098
2984.00,0.0099
2983.00,0.0100
2982.00,0.0101
2981.00,0.0102
2980.00,0.0104
2979.00,0.0105
2978.00,0.0107
2977.00,0.0109
2976.00,0.0111
2975.00,0.0113
2974.00,0.0114
2973.00,0.0116
2972.00,0.0118
2971.00,0.0119
2970.00,0.0121
2969.00,0.0123
2968.00,0.0124
2967.00,0.0126
2966.00,0.0127
2965.00,0.0128
2964.00,0.0129
2963.00,0.0130
2962.00,0.0131
2961.00,0.0131
2960.00,0.0131
2959.00,0.0131
2958.00,0.0131
2957.00,0.0130
2956.00,0.0130
2955.00,0.0128
2954.00,0.0127
2953.00,0.0126
2952.00,0.0125
2951.00,0.0124
2950.00,0.0123
2949.00,0.0123
2948.00,0.0123
2947.00,0.0123
2946.00,0.0123
2945.00,0.0123
2944.00,0.0124
2943.00,0.0125
2942.00,0.0126
2941.00,0.0128
2940.00,0.0130
2939.00,0.0131
2938.00,0.0133
2937.00,0.0134
2936.00,0.0135
2935.00,0.0136
2934.00,0.0137
2933.00,0.0138
2932.00,0.0139
2931.00,0.0140
2930.00,0.0141
2929.00,0.0141
2928.00,0.0142
2927.00,0.0142
2926.00,0.0142
2925.00,0.0142
2924.00,0.0141
2923.00,0.0141
2922.00,0.0140
2921.00,0.0139
2920.00,0.0137
2919.00,0.0136
2918.00,0.0134
2917.00,0.0132
2916.00,0.0129
2915.00,0.0127
2914.00,0.0125
2913.00,0.0123
2912.00,0.0120
2911.00,0.0118
2910.00,0.0117
2909.00,0.0115
2908.00,0.0113
2907.00,0.0112
2906.00,0.0110
2905.00,0.0109
2904.00,0.0108
2903.00,0.0107
2902.00,0.0106
2901.00,0.0105
2900.00,0.0104
2899.00,0.0103
2898.00,0.0102
2897.00,0.0101
2896.00,0.0100
2895.00,0.0099
2894.00,0.0098
2893.00,0.0098
2892.00,0.0097
2891.00,0.0097
2890.00,0.0097
2889.00,0.0096
2888.00,0.0096
2887.00,0.0096
2886.00,0.0096
2885.00,0.0096
2884.00,0.0096
2883.00,0.0096
2882.00,0.0097
2881.00,0.0097
2880.00,0.0098
2879.00,0.0099
2878.00,0.0099
2877.00,0.0100
2876.00,0.0100
2875.00,0.0100
2874.00,0.0100
2873.00,0.0100
2872.00,0.0100
2871.00,0.0099
2870.00,0.0098
2869.00,0.0097
2868.00,0.0096
2867.00,0.0095
2866.00,0.0094
2865.00,0.0093
2864.00,0.0092
2863.00,0.0092
2862.00,0.0091
2861.00,0.0091
2860.00,0.0091
2859.00,0.0091
2858.00,0.0091
2857.00,0.0091
2856.00,0.0091
2855.00,0.0091
2854.00,0.0091
2853.00,0.0091
2852.00,0.0091
2851.00,0.0090
2850.00,0.0088
2849.00,0.0087
2848.00,0.0085
2847.00,0.0083
2846.00,0.0081
2845.00,0.0079
2844.00,0.0077
2843.00,0.0075
2842.00,0.0074
2841.00,0.0072
2840.00,0.0071
2839.00,0.0070
2838.00,0.0069
2837.00,0.0069
2836.00,0.0068
2835.00,0.0067
2834.00,0.0067
2833.00,0.0067
2832.00,0.0066
2831.00,0.0066
2830.00,0.0065
2829.00,0.0065
2828.00,0.0064
2827.00,0.0064
2826.00,0.0064
2825.00,0.0064
2824.00,0.0063
2823.00,0.0063
2822.00,0.0063
2821.00,0.0062
2820.00,0.0062
2819.00,0.0062
2818.00,0.0062
2817.00,0.0062
2816.00,0.0061
2815.00,0.0061
2814.00,0.0061
2813.00,0.0061
2812.00,0.0061
2811.00,0.0060
2810.00,0.0060
2809.00,0.0060
2808.00,0.0059
2807.00,0.0059
2806.00,0.0059
2805.00,0.0059
2804.00,0.0059
2803.00,0.0059
2802.00,0.0058
2801.00,0.0058
2800.00,0.0058
2799.00,0.0058
2798.00,0.0057
2797.00,0.0057
2796.00,0.0057
2795.00,0.0057
2794.00,0.0057
2793.00,0.0056
2792.00,0.0056
2791.00,0.0056
2790.00,0.0056
2789.00,0.0056
2788.00,0.0055
2787.00,0.0055
2786.00,0.0055
2785.00,0.0055
2784.00,0.0055
2783.00,0.0055
2782.00,0.0054
2781.00,0.0054
2780.00,0.0054
2779.00,0.0054
2778.00,0.0053
2777.00,0.0053
2776.00,0.0053
2775.00,0.0053
2774.00,0.0052
2773.00,0.0052
2772.00,0.0052
2771.00,0.0052
2770.00,0.0052
2769.00,0.0051
2768.00,0.0051
2767.00,0.0051
2766.00,0.0051
2765.00,0.0051
2764.00,0.0051
2763.00,0.0051
2762.00,0.0050
2761.00,0.0050
2760.00,0.0050
2759.00,0.0050
2758.00,0.0049
2757.00,0.0049
2756.00,0.0049
2755.00,0.0049
2754.00,0.0049
2753.00,0.0049
2752.00,0.0048
2751.00,0.0048
2750.00,0.0048
2749.00,0.0048
2748.00,0.0047
2747.00,0.0047
2746.00,0.0047
2745.00,0.0047
2744.00,0.0047
2743.00,0.0047
2742.00,0.0047
2741.00,0.0047
2740.00,0.0046
2739.00,0.0046
2738.00,0.0046
2737.00,0.0045
2736.00,0.0045
2735.00,0.0045
2734.00,0.0045
2733.00,0.0045
2732.00,0.0045
2731.00,0.0044
2730.00,0.0044
2729.00,0.0044
2728.00,0.0044
2727.00,0.0043
2726.00,0.0043
2725.00,0.0043
2724.00,0.0043
2723.00,0.0043
2722.00,0.0043
2721.00,0.0043
2720.00,0.0042
2719.00,0.0042
2718.00,0.0042
2717.00,0.0042
2716.00,0.0042
2715.00,0.0041
2714.00,0.0041
2713.00,0.0041
2712.00,0.0041
2711.00,0.0041
2710.00,0.0040
2709.00,0.0040
2708.00,0.0040
2707.00,0.0040
2706.00,0.0040
2705.00,0.0040
2704.00,0.0039
2703.00,0.0040
2702.00,0.0040
2701.00,0.0040
2700.00,0.0040
2699.00,0.0040
2698.00,0.0040
2697.00,0.0040
2696.00,0.0040
2695.00,0.0039
2694.00,0.0039
2693.00,0.0039
2692.00,0.0039
2691.00,0.0039
2690.00,0.0039
2689.00,0.0039
2688.00,0.0039
2687.00,0.0039
2686.00,0.0038
2685.00,0.0038
2684.00,0.0038
2683.00,0.0038
2682.00,0.0038
2681.00,0.0038
2680.00,0.0038
2679.00,0.0038
2678.00,0.0038
2677.00,0.0038
2676.00,0.0038
2675.00,0.0038
2674.00,0.0038
2673.00,0.0038
2672.00,0.0038
2671.00,0.0038
2670.00,0.0038
2669.00,0.0038
2668.00,0.0038
2667.00,0.0038
2666.00,0.0038
2665.00,0.0039
2664.00,0.0039
2663.00,0.0040
2662.00,0.0040
2661.00,0.0040
2660.00,0.0041
2659.00,0.0041
2658.00,0.0041
2657.00,0.0041
2656.00,0.0041
2655.00,0.0041
2654.00,0.0041
2653.00,0.0041
2652.00,0.0041
2651.00,0.0041
2650.00,0.0041
2649.00,0.0041
2648.00,0.0041
2647.00,0.0041
2646.00,0.0041
2645.00,0.0041
2644.00,0.0041
2643.00,0.0040
2642.00,0.0041
2641.00,0.0041
2640.00,0.0040
2639.00,0.0040
2638.00,0.0040
2637.00,0.0040
2636.00,0.0040
2635.00,0.0040
2634.00,0.0040
2633.00,0.0040
2632.00,0.0039
2631.00,0.0039
2630.00,0.0039
2629.00,0.0038
2628.00,0.0038
2627.00,0.0038
2626.00,0.0038
2625.00,0.0038
2624.00,0.0038
2623.00,0.0038
2622.00,0.0038
2621.00,0.0038
2620.00,0.0038
2619.00,0.0038
2618.00,0.0038
2617.00,0.0038
2616.00,0.0037
2615.00,0.0037
2614.00,0.0037
2613.00,0.0037
2612.00,0.0036
2611.00,0.0036
2610.00,0.0036
2609.00,0.0036
2608.00,0.0036
2607.00,0.0036
2606.00,0.0036
2605.00,0.0036
2604.00,0.0035
2603.00,0.0035
2602.00,0.0035
2601.00,0.0035
2600.00,0.0035
2599.00,0.0034
2598.00,0.0034
2597.00,0.0034
2596.00,0.0033
2595.00,0.0033
2594.00,0.0033
2593.00,0.0033
2592.00,0.0033
2591.00,0.0033
2590.00,0.0033
2589.00,0.0033
2588.00,0.0033
2587.00,0.0033
2586.00,0.0032
2585.00,0.0032
2584.00,0.0032
2583.00,0.0032
2582.00,0.0032
2581.00,0.0032
2580.00,0.0032
2579.00,0.0032
2578.00,0.0031
2577.00,0.0031
2576.00,0.0031
2575.00,0.0030
2574.00,0.0030
2573.00,0.0030
2572.00,0.0030
2571.00,0.0030
2570.00,0.0030
2569.00,0.0030
2568.00,0.0030
2567.00,0.0030
2566.00,0.0030
2565.00,0.0030
2564.00,0.0030
2563.00,0.0030
2562.00,0.0029
2561.00,0.0029
2560.00,0.0029
2559.00,0.0029
2558.00,0.0029
2557.00,0.0029
2556.00,0.0029
2555.00,0.0028
2554.00,0.0028
2553.00,0.0028
2552.00,0.0028
2551.00,0.0028
2550.00,0.0028
2549.00,0.0028
2548.00,0.0028
2547.00,0.0027
2546.00,0.0027
2545.00,0.0027
2544.00,0.0026
2543.00,0.0026
2542.00,0.0026
2541.00,0.0027
2540.00,0.0027
2539.00,0.0027
2538.00,0.0027
2537.00,0.0027
2536.00,0.0027
2535.00,0.0027
2534.00,0.0027
2533.00,0.0027
2532.00,0.0026
2531.00,0.0026
2530.00,0.0026
2529.00,0.0025
2528.00,0.0025
2527.00,0.0025
2526.00,0.0025
2525.00,0.0025
2524.00,0.0025
2523.00,0.0025
2522.00,0.0025
2521.00,0.0025
2520.00,0.0025
2519.00,0.0025
2518.00,0.0025
2517.00,0.0025
2516.00,0.0025
2515.00,0.0025
2514.00,0.0025
2513.00,0.0025
2512.00,0.0025
2511.00,0.0025
2510.00,0.0025
2509.00,0.0025
2508.00,0.0025
2507.00,0.0025
2506.00,0.0025
2505.00,0.0024
2504.00,0.0024
2503.00,0.0024
2502.00,0.0023
2501.00,0.0023
2500.00,0.0023
2499.00,0.0023
2498.00,0.0023
2497.00,0.0023
2496.00,0.0024
2495.00,0.0024
2494.00,0.0024
2493.00,0.0024
2492.00,0.0024
2491.00,0.0024
2490.00,0.0024
2489.00,0.0024
2488.00,0.0024
2487.00,0.0024
2486.00,0.0024
2485.00,0.0024
2484.00,0.0024
2483.00,0.0023
2482.00,0.0023
2481.00,0.0023
2480.00,0.0022
2479.00,0.0022
2478.00,0.0022
2477.00,0.0022
2476.00,0.0021
2475.00,0.0021
2474.00,0.0021
2473.00,0.0022
2472.00,0.0022
2471.00,0.0021
2470.00,0.0021
2469.00,0.0021
2468.00,0.0021
2467.00,0.0022
2466.00,0.0022
2465.00,0.0022
2464.00,0.0022
2463.00,0.0021
2462.00,0.0021
2461.00,0.0022
2460.00,0.0022
2459.00,0.0022
2458.00,0.0023
2457.00,0.0023
2456.00,0.0022
2455.00,0.0022
2454.00,0.0022
2453.00,0.0021
2452.00,0.0021
2451.00,0.0021
2450.00,0.0021
2449.00,0.0021
2448.00,0.0021
2447.00,0.0020
2446.00,0.0020
2445.00,0.0020
2444.00,0.0020
2443.00,0.0020
2442.00,0.0020
2441.00,0.0019
2440.00,0.0020
2439.00,0.0020
2438.00,0.0020
2437.00,0.0020
2436.00,0.0020
2435.00,0.0019
2434.00,0.0019
2433.00,0.0019
2432.00,0.0019
2431.00,0.0018
2430.00,0.0018
2429.00,0.0017
2428.00,0.0017
2427.00,0.0017
2426.00,0.0017
2425.00,0.0017
2424.00,0.0017
2423.00,0.0017
2422.00,0.0017
2421.00,0.0017
2420.00,0.0017
2419.00,0.0016
2418.00,0.0016
2417.00,0.0016
2416.00,0.0016
2415.00,0.0016
2414.00,0.0016
2413.00,0.0016
2412.00,0.0016
2411.00,0.0016
2410.00,0.0016
2409.00,0.0016
2408.00,0.0015
2407.00,0.0015
2406.00,0.0015
2405.00,0.0015
2404.00,0.0014
2403.00,0.0014
2402.00,0.0013
2401.00,0.0013
2400.00,0.0013
2399.00,0.0013
2398.00,0.0013
2397.00,0.0013
2396.00,0.0013
2395.00,0.0013
2394.00,0.0013
2393.00,0.0013
2392.00,0.0013
2391.00,0.0013
2390.00,0.0013
2389.00,0.0013
2388.00,0.0012
2387.00,0.0012
2386.00,0.0011
2385.00,0.0011
2384.00,0.0010
2383.00,0.0010
2382.00,0.0010
2381.00,0.0009
2380.00,0.0009
2379.00,0.0009
2378.00,0.0009
2377.00,0.0009
2376.00,0.0009
2375.00,0.0009
2374.00,0.0009
2373.00,0.0009
2372.00,0.0008
2371.00,0.0007
2370.00,0.0007
2369.00,0.0007
2368.00,0.0007
2367.00,0.0007
2366.00,0.0007
2365.00,0.0008
2364.00,0.0009
2363.00,0.0009
2362.00,0.0009
2361.00,0.0009
2360.00,0.0009
2359.00,0.0009
2358.00,0.0009
2357.00,0.0009
2356.00,0.0009
2355.00,0.0009
2354.00,0.0008
2353.00,0.0008
2352.00,0.0008
2351.00,0.0009
2350.00,0.0010
2349.00,0.0010
2348.00,0.0010
2347.00,0.0010
2346.00,0.0011
2345.00,0.0011
2344.00,0.0012
2343.00,0.0012
2342.00,0.0012
2341.00,0.0012
2340.00,0.0012
2339.00,0.0012
2338.00,0.0012
2337.00,0.0012
2336.00,0.0012
2335.00,0.0012
2334.00,0.0012
2333.00,0.0012
2332.00,0.0012
2331.00,0.0012
2330.00,0.0012
2329.00,0.0014
2328.00,0.0017
2327.00,0.0021
2326.00,0.0024
2325.00,0.0025
2324.00,0.0025
2323.00,0.0023
2322.00,0.0021
2321.00,0.0020
2320.00,0.0019
2319.00,0.0019
2318.00,0.0018
2317.00,0.0017
2316.00,0.0017
2315.00,0.0017
2314.00,0.0017
2313.00,0.0016
2312.00,0.0016
2311.00,0.0016
2310.00,0.0016
2309.00,0.0015
2308.00,0.0016
2307.00,0.0016
2306.00,0.0016
2305.00,0.0016
2304.00,0.0016
2303.00,0.0016
2302.00,0.0016
2301.00,0.0016
2300.00,0.0016
2299.00,0.0017
2298.00,0.0017
2297.00,0.0018
2296.00,0.0019
2295.00,0.0020
2294.00,0.0021
2293.00,0.0021
2292.00,0.0021
2291.00,0.0022
2290.00,0.0023
2289.00,0.0024
2288.00,0.0025
2287.00,0.0025
2286.00,0.0024
2285.00,0.0024
2284.00,0.0023
2283.00,0.0022
2282.00,0.0022
2281.00,0.0021
2280.00,0.0020
2279.00,0.0020
2278.00,0.0020
2277.00,0.0019
2276.00,0.0019
2275.00,0.0018
2274.00,0.0018
2273.00,0.0018
2272.00,0.0018
2271.00,0.0017
2270.00,0.0017
2269.00,0.0016
2268.00,0.0016
2267.00,0.0016
2266.00,0.0015
2265.00,0.0015
2264.00,0.0016
2263.00,0.0016
2262.00,0.0016
2261.00,0.0017
2260.00,0.0017
2259.00,0.0017
2258.00,0.0016
2257.00,0.0015
2256.00,0.0014
2255.00,0.0014
2254.00,0.0013
2253.00,0.0013
2252.00,0.0013
2251.00,0.0014
2250.00,0.0015
2249.00,0.0015
2248.00,0.0015
2247.00,0.0015
2246.00,0.0015
2245.00,0.0015
2244.00,0.0014
2243.00,0.0014
2242.00,0.0013
2241.00,0.0013
2240.00,0.0013
2239.00,0.0014
2238.00,0.0014
2237.00,0.0014
2236.00,0.0014
2235.00,0.0013
2234.00,0.0013
2233.00,0.0012
2232.00,0.0012
2231.00,0.0012
2230.00,0.0012
2229.00,0.0012
2228.00,0.0013
2227.00,0.0013
2226.00,0.0014
2225.00,0.0014
2224.00,0.0015
2223.00,0.0015
2222.00,0.0015
2221.00,0.0014
2220.00,0.0014
2219.00,0.0013
2218.00,0.0013
2217.00,0.0013
2216.00,0.0013
2215.00,0.0013
2214.00,0.0012
2213.00,0.0011
2212.00,0.0011
2211.00,0.0012
2210.00,0.0013
2209.00,0.0013
2208.00,0.0014
2207.00,0.0014
2206.00,0.0014
2205.00,0.0014
2204.00,0.0014
2203.00,0.0013
2202.00,0.0012
2201.00,0.0012
2200.00,0.0012
2199.00,0.0012
2198.00,0.0013
2197.00,0.0013
2196.00,0.0014
2195.00,0.0014
2194.00,0.0014
2193.00,0.0014
2192.00,0.0015
2191.00,0.0015
2190.00,0.0015
2189.00,0.0015
2188.00,0.0016
2187.00,0.0016
2186.00,0.0016
2185.00,0.0015
2184.00,0.0013
2183.00,0.0010
2182.00,0.0007
2181.00,0.0006
2180.00,0.0007
2179.00,0.0007
2178.00,0.0007
2177.00,0.0006
2176.00,0.0006
2175.00,0.0007
2174.00,0.0009
2173.00,0.0012
2172.00,0.0015
2171.00,0.0017
2170.00,0.0019
2169.00,0.0020
2168.00,0.0020
2167.00,0.0019
2166.00,0.0018
2165.00,0.0018
2164.00,0.0019
2163.00,0.0019
2162.00,0.0016
2161.00,0.0009
2160.00,-0.0000
2159.00,-0.0009
2158.00,-0.0015
2157.00,-0.0017
2156.00,-0.0016
2155.00,-0.0014
2154.00,-0.0012
2153.00,-0.0010
2152.00,-0.0008
2151.00,-0.0006
2150.00,-0.0005
2149.00,-0.0004
2148.00,-0.0005
2147.00,-0.0005
2146.00,-0.0006
2145.00,-0.0007
2144.00,-0.0006
2143.00,-0.0005
2142.00,-0.0004
2141.00,-0.0003
2140.00,-0.0002
2139.00,-0.0003
2138.00,-0.0003
2137.00,-0.0005
2136.00,-0.0007
2135.00,-0.0009
2134.00,-0.0010
2133.00,-0.0009
2132.00,-0.0007
2131.00,-0.0004
2130.00,-0.0003
2129.00,-0.0002
2128.00,-0.0000
2127.00,0.0001
2126.00,0.0002
2125.00,0.0003
2124.00,0.0004
2123.00,0.0004
2122.00,0.0005
2121.00,0.0007
2120.00,0.0008
2119.00,0.0010
2118.00,0.0011
2117.00,0.0012
2116.00,0.0013
2115.00,0.0013
2114.00,0.0013
2113.00,0.0012
2112.00,0.0011
2111.00,0.0011
2110.00,0.0010
2109.00,0.0010
2108.00,0.0010
2107.00,0.0011
2106.00,0.0011
2105.00,0.0011
2104.00,0.0011
2103.00,0.0011
2102.00,0.0012
2101.00,0.0012
2100.00,0.0012
2099.00,0.0012
2098.00,0.0010
2097.00,0.0008
2096.00,0.0007
2095.00,0.0006
2094.00,0.0006
2093.00,0.0007
2092.00,0.0007
2091.00,0.0008
2090.00,0.0009
2089.00,0.0010
2088.00,0.0011
2087.00,0.0012
2086.00,0.0012
2085.00,0.0012
2084.00,0.0012
2083.00,0.0012
2082.00,0.0012
2081.00,0.0012
2080.00,0.0013
2079.00,0.0013
2078.00,0.0013
2077.00,0.0012
2076.00,0.0012
2075.00,0.0012
2074.00,0.0012
2073.00,0.0012
2072.00,0.0012
2071.00,0.0012
2070.00,0.0012
2069.00,0.0012
2068.00,0.0012
2067.00,0.0011
2066.00,0.0010
2065.00,0.0010
2064.00,0.0010
2063.00,0.0010
2062.00,0.0011
2061.00,0.0012
2060.00,0.0012
2059.00,0.0012
2058.00,0.0012
2057.00,0.0011
2056.00,0.0011
2055.00,0.0011
2054.00,0.0014
2053.00,0.0019
2052.00,0.0023
2051.00,0.0024
2050.00,0.0021
2049.00,0.0017
2048.00,0.0013
2047.00,0.0011
2046.00,0.0010
2045.00,0.0010
2044.00,0.0010
2043.00,0.0011
2042.00,0.0012
2041.00,0.0013
2040.00,0.0014
2039.00,0.0015
2038.00,0.0014
2037.00,0.0013
2036.00,0.0012
2035.00,0.0011
2034.00,0.0008
2033.00,0.0006
2032.00,0.0003
2031.00,0.0001
2030.00,0.0000
2029.00,0.0000
2028.00,0.0001
2027.00,0.0001
2026.00,0.0001
2025.00,0.0002
2024.00,0.0003
2023.00,0.0004
2022.00,0.0004
2021.00,0.0003
2020.00,0.0002
2019.00,0.0002
2018.00,0.0002
2017.00,0.0003
2016.00,0.0004
2015.00,0.0005
2014.00,0.0005
2013.00,0.0006
2012.00,0.0007
2011.00,0.0007
2010.00,0.0006
2009.00,0.0004
2008.00,0.0001
2007.00,-0.0003
2006.00,-0.0005
2005.00,-0.0006
2004.00,-0.0004
2003.00,-0.0002
2002.00,-0.0000
2001.00,0.0001
2000.00,0.0003
1999.00,0.0004
1998.00,0.0005
1997.00,0.0005
1996.00,0.0005
1995.00,0.0005
1994.00,0.0006
1993.00,0.0009
1992.00,0.0011
1991.00,0.0012
1990.00,0.0011
1989.00,0.0011
1988.00,0.0012
1987.00,0.0013
1986.00,0.0014
1985.00,0.0014
1984.00,0.0016
1983.00,0.0018
1982.00,0.0020
1981.00,0.0020
1980.00,0.0018
1979.00,0.0013
1978.00,0.0007
1977.00,0.0001
1976.00,-0.0002
1975.00,-0.0002
1974.00,-0.0002
1973.00,-0.0001
1972.00,0.0000
1971.00,0.0000
1970.00,-0.0000
1969.00,-0.0001
1968.00,-0.0001
1967.00,-0.0001
1966.00,-0.0002
1965.00,-0.0002
1964.00,-0.0003
1963.00,-0.0003
1962.00,-0.0003
1961.00,-0.0002
1960.00,-0.0002
1959.00,-0.0002
1958.00,-0.0002
1957.00,-0.0002
1956.00,-0.0001
1955.00,0.0000
1954.00,0.0001
1953.00,0.0002
1952.00,0.0002
1951.00,0.0002
1950.00,0.0001
1949.00,0.0000
1948.00,0.0000
1947.00,-0.0000
1946.00,-0.0001
1945.00,-0.0003
1944.00,-0.0003
1943.00,-0.0002
1942.00,-0.0001
1941.00,0.0000
1940.00,0.0001
1939.00,0.0002
1938.00,0.0003
1937.00,0.0003
1936.00,0.0003
1935.00,0.0003
1934.00,0.0002
1933.00,0.0002
1932.00,0.0002
1931.00,0.0002
1930.00,0.0002
1929.00,0.0002
1928.00,0.0003
1927.00,0.0003
1926.00,0.0002
1925.00,0.0001
1924.00,0.0001
1923.00,0.0002
1922.00,0.0003
1921.00,0.0003
1920.00,0.0003
1919.00,0.0004
1918.00,0.0006
1917.00,0.0008
1916.00,0.0008
1915.00,0.0007
1914.00,0.0005
1913.00,0.0005
1912.00,0.0004
1911.00,0.0005
1910.00,0.0005
1909.00,0.0006
1908.00,0.0006
1907.00,0.0006
1906.00,0.0006
1905.00,0.0006
1904.00,0.0006
1903.00,0.0007
1902.00,0.0007
1901.00,0.0006
1900.00,0.0006
1899.00,0.0006
1898.00,0.0006
1897.00,0.0006
1896.00,0.0007
1895.00,0.0007
1894.00,0.0007
1893.00,0.0007
1892.00,0.0007
1891.00,0.0007
1890.00,0.0008
1889.00,0.0008
1888.00,0.0007
1887.00,0.0007
1886.00,0.0007
1885.00,0.0007
1884.00,0.0008
1883.00,0.0008
1882.00,0.0008
1881.00,0.0008
1880.00,0.0008
1879.00,0.0008
1878.00,0.0008
1877.00,0.0008
1876.00,0.0008
1875.00,0.0008
1874.00,0.0007
1873.00,0.0006
1872.00,0.0005
1871.00,0.0004
1870.00,0.0003
1869.00,0.0005
1868.00,0.0007
1867.00,0.0009
1866.00,0.0009
1865.00,0.0008
1864.00,0.0008
1863.00,0.0008
1862.00,0.0008
1861.00,0.0008
1860.00,0.0008
1859.00,0.0008
1858.00,0.0008
1857.00,0.0008
1856.00,0.0008
1855.00,0.0008
1854.00,0.0008
1853.00,0.0008
1852.00,0.0008
1851.00,0.0008
1850.00,0.0008
1849.00,0.0008
1848.00,0.0009
1847.00,0.0009
1846.00,0.0010
1845.00,0.0010
1844.00,0.0010
1843.00,0.0009
1842.00,0.0008
1841.00,0.0008
1840.00,0.0008
1839.00,0.0008
1838.00,0.0009
1837.00,0.0009
1836.00,0.0009
1835.00,0.0009
1834.00,0.0010
1833.00,0.0010
1832.00,0.0011
1831.00,0.0012
1830.00,0.0012
1829.00,0.0011
1828.00,0.0011
1827.00,0.0011
1826.00,0.0011
1825.00,0.0011
1824.00,0.0011
1823.00,0.0011
1822.00,0.0011
1821.00,0.0011
1820.00,0.0010
1819.00,0.0010
1818.00,0.0009
1817.00,0.0009
1816.00,0.0010
1815.00,0.0010
1814.00,0.0009
1813.00,0.0008
1812.00,0.0007
1811.00,0.0008
1810.00,0.0010
1809.00,0.0012
1808.00,0.0012
1807.00,0.0012
1806.00,0.0012
1805.00,0.0013
1804.00,0.0014
1803.00,0.0015
1802.00,0.0015
1801.00,0.0015
1800.00,0.0015
1799.00,0.0015
1798.00,0.0015
1797.00,0.0015
1796.00,0.0016
1795.00,0.0017
1794.00,0.0017
1793.00,0.0017
1792.00,0.0017
1791.00,0.0016
1790.00,0.0016
1789.00,0.0016
1788.00,0.0017
1787.00,0.0017
1786.00,0.0018
1785.00,0.0018
1784.00,0.0018
1783.00,0.0019
1782.00,0.0019
1781.00,0.0019
1780.00,0.0019
1779.00,0.0019
1778.00,0.0019
1777.00,0.0019
1776.00,0.0020
1775.00,0.0021
1774.00,0.0022
1773.00,0.0022
1772.00,0.0022
1771.00,0.0022
1770.00,0.0022
1769.00,0.0022
1768.00,0.0022
1767.00,0.0023
1766.00,0.0023
1765.00,0.0024
1764.00,0.0025
1763.00,0.0026
1762.00,0.0027
1761.00,0.0027
1760.00,0.0027
1759.00,0.0029
1758.00,0.0030
1757.00,0.0030
1756.00,0.0033
1755.00,0.0033
1754.00,0.0032
1753.00,0.0032
1752.00,0.0032
1751.00,0.0033
1750.00,0.0034
1749.00,0.0034
1748.00,0.0036
1747.00,0.0039
1746.00,0.0040
1745.00,0.0042
1744.00,0.0043
1743.00,0.0045
1742.00,0.0045
1741.00,0.0047
1740.00,0.0050
1739.00,0.0055
1738.00,0.0057
1737.00,0.0056
1736.00,0.0056
1735.00,0.0060
1734.00,0.0067
1733.00,0.0071
1732.00,0.0071
1731.00,0.0069
1730.00,0.0070
1729.00,0.0073
1728.00,0.0075
1727.00,0.0075
1726.00,0.0076
1725.00,0.0077
1724.00,0.0078
1723.00,0.0080
1722.00,0.0081
1721.00,0.0080
1720.00,0.0078
1719.00,0.0078
1718.00,0.0081
1717.00,0.0085
1716.00,0.0089
1715.00,0.0092
1714.00,0.0094
1713.00,0.0096
1712.00,0.0097
1711.00,0.0099
1710.00,0.0100
1709.00,0.0102
1708.00,0.0103
1707.00,0.0105
1706.00,0.0111
1705.00,0.0120
1704.00,0.0128
1703.00,0.0136
1702.00,0.0144
1701.00,0.0157
1700.00,0.0171
1699.00,0.0182
1698.00,0.0189
1697.00,0.0198
1696.00,0.0211
1695.00,0.0221
1694.00,0.0225
1693.00,0.0227
1692.00,0.0230
1691.00,0.0235
1690.00,0.0240
1689.00,0.0245
1688.00,0.0250
1687.00,0.0255
1686.00,0.0259
1685.00,0.0265
1684.00,0.0273
1683.00,0.0278
1682.00,0.0283
1681.00,0.0290
1680.00,0.0299
1679.00,0.0309
1678.00,0.0317
1677.00,0.0326
1676.00,0.0334
1675.00,0.0339
1674.00,0.0342
1673.00,0.0346
1672.00,0.0353
1671.00,0.0361
1670.00,0.0369
1669.00,0.0376
1668.00,0.0382
1667.00,0.0389
1666.00,0.0398
1665.00,0.0407
1664.00,0.0415
1663.00,0.0422
1662.00,0.0427
1661.00,0.0433
1660.00,0.0441
1659.00,0.0449
1658.00,0.0459
1657.00,0.0471
1656.00,0.0484
1655.00,0.0495
1654.00,0.0498
1653.00,0.0491
1652.00,0.0479
1651.00,0.0476
1650.00,0.0483
1649.00,0.0494
1648.00,0.0503
1647.00,0.0507
1646.00,0.0506
1645.00,0.0505
1644.00,0.0509
1643.00,0.0515
1642.00,0.0523
1641.00,0.0529
1640.00,0.0534
1639.00,0.0541
1638.00,0.0547
1637.00,0.0552
1636.00,0.0554
1635.00,0.0552
1634.00,0.0553
1633.00,0.0560
1632.00,0.0573
1631.00,0.0587
1630.00,0.0598
1629.00,0.0607
1628.00,0.0615
1627.00,0.0622
1626.00,0.0631
1625.00,0.0639
1624.00,0.0644
1623.00,0.0644
1622.00,0.0643
1621.00,0.0644
1620.00,0.0650
1619.00,0.0655
1618.00,0.0652
1617.00,0.0637
1616.00,0.0615
1615.00,0.0596
1614.00,0.0583
1613.00,0.0574
1612.00,0.0564
1611.00,0.0549
1610.00,0.0530
1609.00,0.0511
1608.00,0.0492
1607.00,0.0474
1606.00,0.0457
1605.00,0.0442
1604.00,0.0427
1603.00,0.0412
1602.00,0.0399
1601.00,0.0387
1600.00,0.0376
1599.00,0.0365
1598.00,0.0356
1597.00,0.0347
1596.00,0.0338
1595.00,0.0330
1594.00,0.0324
1593.00,0.0318
1592.00,0.0312
1591.00,0.0307
1590.00,0.0303
1589.00,0.0299
1588.00,0.0296
1587.00,0.0293
1586.00,0.0291
1585.00,0.0290
1584.00,0.0289
1583.00,0.0288
1582.00,0.0288
1581.00,0.0288
1580.00,0.0289
1579.00,0.0290
1578.00,0.0291
1577.00,0.0293
1576.00,0.0297
1575.00,0.0299
1574.00,0.0302
1573.00,0.0306
1572.00,0.0311
1571.00,0.0316
1570.00,0.0321
1569.00,0.0327
1568.00,0.0332
1567.00,0.0337
1566.00,0.0343
1565.00,0.0351
1564.00,0.0359
1563.00,0.0369
1562.00,0.0380
1561.00,0.0388
1560.00,0.0391
1559.00,0.0391
1558.00,0.0391
1557.00,0.0395
1556.00,0.0405
1555.00,0.0416
1554.00,0.0427
1553.00,0.0436
1552.00,0.0443
1551.00,0.0451
1550.00,0.0459
1549.00,0.0466
1548.00,0.0474
1547.00,0.0483
1546.00,0.0490
1545.00,0.0496
1544.00,0.0500
1543.00,0.0503
1542.00,0.0505
1541.00,0.0505
1540.00,0.0506
1539.00,0.0506
1538.00,0.0509
1537.00,0.0518
1536.00,0.0530
1535.00,0.0541
1534.00,0.0546
1533.00,0.0547
1532.00,0.0547
1531.00,0.0551
1530.00,0.0557
1529.00,0.0564
1528.00,0.0568
1527.00,0.0570
1526.00,0.0569
1525.00,0.0568
1524.00,0.0569
1523.00,0.0571
1522.00,0.0571
1521.00,0.0566
1520.00,0.0560
1519.00,0.0559
1518.00,0.0561
1517.00,0.0562
1516.00,0.0561
1515.00,0.0559
1514.00,0.0557
1513.00,0.0555
1512.00,0.0550
1511.00,0.0543
1510.00,0.0536
1509.00,0.0528
1508.00,0.0514
1507.00,0.0495
1506.00,0.0473
1505.00,0.0455
1504.00,0.0445
1503.00,0.0441
1502.00,0.0438
1501.00,0.0433
1500.00,0.0425
1499.00,0.0416
1498.00,0.0406
1497.00,0.0395
1496.00,0.0382
1495.00,0.0370
1494.00,0.0360
1493.00,0.0352
1492.00,0.0344
1491.00,0.0334
1490.00,0.0322
1489.00,0.0311
1488.00,0.0302
1487.00,0.0295
1486.00,0.0290
1485.00,0.0285
1484.00,0.0280
1483.00,0.0275
1482.00,0.0271
1481.00,0.0267
1480.00,0.0265
1479.00,0.0263
1478.00,0.0263
1477.00,0.0262
1476.00,0.0262
1475.00,0.0263
1474.00,0.0265
1473.00,0.0268
1472.00,0.0272
1471.00,0.0275
1470.00,0.0278
1469.00,0.0281
1468.00,0.0284
1467.00,0.0287
1466.00,0.0288
1465.00,0.0289
1464.00,0.0289
1463.00,0.0289
1462.00,0.0290
1461.00,0.0292
1460.00,0.0296
1459.00,0.0300
1458.00,0.0305
1457.00,0.0310
1456.00,0.0310
1455.00,0.0309
1454.00,0.0309
1453.00,0.0311
1452.00,0.0313
1451.00,0.0314
1450.00,0.0315
1449.00,0.0314
1448.00,0.0314
1447.00,0.0312
1446.00,0.0311
1445.00,0.0310
1444.00,0.0310
1443.00,0.0309
1442.00,0.0308
1441.00,0.0307
1440.00,0.0308
1439.00,0.0309
1438.00,0.0310
1437.00,0.0307
1436.00,0.0300
1435.00,0.0292
1434.00,0.0286
1433.00,0.0282
1432.00,0.0279
1431.00,0.0276
1430.00,0.0273
1429.00,0.0271
1428.00,0.0269
1427.00,0.0268
1426.00,0.0267
1425.00,0.0267
1424.00,0.0267
1423.00,0.0269
1422.00,0.0272
1421.00,0.0277
1420.00,0.0280
1419.00,0.0282
1418.00,0.0282
1417.00,0.0283
1416.00,0.0285
1415.00,0.0288
1414.00,0.0291
1413.00,0.0294
1412.00,0.0297
1411.00,0.0300
1410.00,0.0302
1409.00,0.0304
1408.00,0.0306
1407.00,0.0307
1406.00,0.0308
1405.00,0.0309
1404.00,0.0310
1403.00,0.0310
1402.00,0.0311
1401.00,0.0313
1400.00,0.0314
1399.00,0.0314
1398.00,0.0314
1397.00,0.0314
1396.00,0.0315
1395.00,0.0316
1394.00,0.0316
1393.00,0.0316
1392.00,0.0316
1391.00,0.0317
1390.00,0.0319
1389.00,0.0320
1388.00,0.0320
1387.00,0.0318
1386.00,0.0315
1385.00,0.0312
1384.00,0.0309
1383.00,0.0306
1382.00,0.0304
1381.00,0.0301
1380.00,0.0298
1379.00,0.0295
1378.00,0.0292
1377.00,0.0289
1376.00,0.0286
1375.00,0.0283
1374.00,0.0282
1373.00,0.0281
1372.00,0.0279
1371.00,0.0278
1370.00,0.0278
1369.00,0.0276
1368.00,0.0275
1367.00,0.0273
1366.00,0.0270
1365.00,0.0268
1364.00,0.0265
1363.00,0.0262
1362.00,0.0260
1361.00,0.0257
1360.00,0.0255
1359.00,0.0253
1358.00,0.0252
1357.00,0.0251
1356.00,0.0250
1355.00,0.0249
1354.00,0.0248
1353.00,0.0248
1352.00,0.0247
1351.00,0.0247
1350.00,0.0247
1349.00,0.0247
1348.00,0.0247
1347.00,0.0247
1346.00,0.0247
1345.00,0.0247
1344.00,0.0248
1343.00,0.0248
1342.00,0.0248
1341.00,0.0248
1340.00,0.0248
1339.00,0.0248
1338.00,0.0247
1337.00,0.0246
1336.00,0.0245
1335.00,0.0244
1334.00,0.0244
1333.00,0.0243
1332.00,0.0242
1331.00,0.0242
1330.00,0.0241
1329.00,0.0241
1328.00,0.0241
1327.00,0.0241
1326.00,0.0241
1325.00,0.0242
1324.00,0.0242
1323.00,0.0242
1322.00,0.0243
1321.00,0.0243
1320.00,0.0244
1319.00,0.0244
1318.00,0.0245
1317.00,0.0246
1316.00,0.0246
1315.00,0.0247
1314.00,0.0247
1313.00,0.0247
1312.00,0.0247
1311.00,0.0247
1310.00,0.0247
1309.00,0.0247
1308.00,0.0247
1307.00,0.0246
1306.00,0.0246
1305.00,0.0246
1304.00,0.0246
1303.00,0.0246
1302.00,0.0246
1301.00,0.0246
1300.00,0.0246
1299.00,0.0247
1298.00,0.0248
1297.00,0.0248
1296.00,0.0249
1295.00,0.0250
1294.00,0.0251
1293.00,0.0253
1292.00,0.0254
1291.00,0.0255
1290.00,0.0256
1289.00,0.0257
1288.00,0.0258
1287.00,0.0259
1286.00,0.0260
1285.00,0.0261
1284.00,0.0262
1283.00,0.0263
1282.00,0.0264
1281.00,0.0265
1280.00,0.0266
1279.00,0.0267
1278.00,0.0267
1277.00,0.0267
1276.00,0.0268
1275.00,0.0268
1274.00,0.0269
1273.00,0.0269
1272.00,0.0270
1271.00,0.0270
1270.00,0.0271
1269.00,0.0273
1268.00,0.0275
1267.00,0.0276
1266.00,0.0278
1265.00,0.0280
1264.00,0.0282
1263.00,0.0284
1262.00,0.0287
1261.00,0.0289
1260.00,0.0291
1259.00,0.0294
1258.00,0.0296
1257.00,0.0299
1256.00,0.0301
1255.00,0.0304
1254.00,0.0306
1253.00,0.0309
1252.00,0.0312
1251.00,0.0314
1250.00,0.0317
1249.00,0.0320
1248.00,0.0323
1247.00,0.0326
1246.00,0.0328
1245.00,0.0331
1244.00,0.0334
1243.00,0.0337
1242.00,0.0339
1241.00,0.0342
1240.00,0.0344
1239.00,0.0346
1238.00,0.0348
1237.00,0.0350
1236.00,0.0352
1235.00,0.0353
1234.00,0.0354
1233.00,0.0355
1232.00,0.0356
1231.00,0.0357
1230.00,0.0357
1229.00,0.0358
1228.00,0.0358
1227.00,0.0357
1226.00,0.0356
1225.00,0.0355
1224.00,0.0354
1223.00,0.0353
1222.00,0.0351
1221.00,0.0349
1220.00,0.0347
1219.00,0.0345
1218.00,0.0342
1217.00,0.0340
1216.00,0.0337
1215.00,0.0333
1214.00,0.0330
1213.00,0.0326
1212.00,0.0322
1211.00,0.0319
1210.00,0.0315
1209.00,0.0311
1208.00,0.0308
1207.00,0.0305
1206.00,0.0302
1205.00,0.0299
1204.00,0.0296
1203.00,0.0293
1202.00,0.0290
1201.00,0.0287
1200.00,0.0285
1199.00,0.0283
1198.00,0.0281
1197.00,0.0279
1196.00,0.0277
1195.00,0.0275
1194.00,0.0273
1193.00,0.0272
1192.00,0.0271
1191.00,0.0269
1190.00,0.0268
1189.00,0.0267
1188.00,0.0267
1187.00,0.0266
1186.00,0.0265
1185.00,0.0264
1184.00,0.0264
1183.00,0.0264
1182.00,0.0264
1181.00,0.0264
1180.00,0.0265
1179.00,0.0265
1178.00,0.0266
1177.00,0.0268
1176.00,0.0270
1175.00,0.0272
1174.00,0.0274
1173.00,0.0276
1172.00,0.0277
1171.00,0.0279
1170.00,0.0280
1169.00,0.0281
1168.00,0.0282
1167.00,0.0282
1166.00,0.0283
1165.00,0.0284
1164.00,0.0285
1163.00,0.0286
1162.00,0.0287
1161.00,0.0287
1160.00,0.0288
1159.00,0.0289
1158.00,0.0289
1157.00,0.0290
1156.00,0.0290
1155.00,0.0290
1154.00,0.0289
1153.00,0.0288
1152.00,0.0286
1151.00,0.0284
1150.00,0.0282
1149.00,0.0280
1148.00,0.0277
1147.00,0.0275
1146.00,0.0272
1145.00,0.0269
1144.00,0.0267
1143.00,0.0265
1142.00,0.0262
1141.00,0.0260
1140.00,0.0259
1139.00,0.0257
1138.00,0.0255
1137.00,0.0254
1136.00,0.0254
1135.00,0.0253
1134.00,0.0254
1133.00,0.0254
1132.00,0.0255
1131.00,0.0256
1130.00,0.0257
1129.00,0.0258
1128.00,0.0259
1127.00,0.0261
1126.00,0.0262
1125.00,0.0264
1124.00,0.0265
1123.00,0.0266
1122.00,0.0267
1121.00,0.0269
1120.00,0.0270
1119.00,0.0271
1118.00,0.0272
1117.00,0.0273
1116.00,0.0274
1115.00,0.0275
1114.00,0.0276
1113.00,0.0277
1112.00,0.0278
1111.00,0.0279
1110.00,0.0280
1109.00,0.0280
1108.00,0.0281
1107.00,0.0282
1106.00,0.0282
1105.00,0.0283
1104.00,0.0284
1103.00,0.0285
1102.00,0.0287
1101.00,0.0288
1100.00,0.0290
1099.00,0.0291
1098.00,0.0293
1097.00,0.0294
1096.00,0.0296
1095.00,0.0299
1094.00,0.0301
1093.00,0.0304
1092.00,0.0307
1091.00,0.0311
1090.00,0.0314
1089.00,0.0318
1088.00,0.0322
1087.00,0.0326
1086.00,0.0331
1085.00,0.0335
1084.00,0.0339
1083.00,0.0343
1082.00,0.0347
1081.00,0.0351
1080.00,0.0354
1079.00,0.0356
1078.00,0.0358
1077.00,0.0360
1076.00,0.0360
1075.00,0.0361
1074.00,0.0361
1073.00,0.0360
1072.00,0.0360
1071.00,0.0360
1070.00,0.0360
1069.00,0.0361
1068.00,0.0361
1067.00,0.0362
1066.00,0.0362
1065.00,0.0363
1064.00,0.0365
1063.00,0.0366
1062.00,0.0368
1061.00,0.0369
1060.00,0.0370
1059.00,0.0371
1058.00,0.0373
1057.00,0.0375
1056.00,0.0376
1055.00,0.0377
1054.00,0.0377
1053.00,0.0376
1052.00,0.0376
1051.00,0.0375
1050.00,0.0374
1049.00,0.0373
1048.00,0.0372
1047.00,0.0371
1046.00,0.0370
1045.00,0.0370
1044.00,0.0369
1043.00,0.0368
1042.00,0.0367
1041.00,0.0366
1040.00,0.0364
1039.00,0.0363
1038.00,0.0361
1037.00,0.0360
1036.00,0.0359
1035.00,0.0358
1034.00,0.0358
1033.00,0.0357
1032.00,0.0357
1031.00,0.0357
1030.00,0.0356
1029.00,0.0355
1028.00,0.0354
1027.00,0.0353
1026.00,0.0352
1025.00,0.0350
1024.00,0.0348
1023.00,0.0345
1022.00,0.0342
1021.00,0.0339
1020.00,0.0337
1019.00,0.0333
1018.00,0.0330
1017.00,0.0326
1016.00,0.0322
1015.00,0.0318
1014.00,0.0315
1013.00,0.0311
1012.00,0.0308
1011.00,0.0304
1010.00,0.0301
1009.00,0.0298
1008.00,0.0294
1007.00,0.0291
1006.00,0.0287
1005.00,0.0284
1004.00,0.0281
1003.00,0.0278
1002.00,0.0275
1001.00,0.0272
1000.00,0.0269
999.00,0.0265
998.00,0.0262
997.00,0.0259
996.00,0.0255
995.00,0.0252
994.00,0.0249
993.00,0.0246
992.00,0.0243
991.00,0.0240
990.00,0.0236
989.00,0.0233
988.00,0.0230
987.00,0.0228
986.00,0.0226
985.00,0.0224
984.00,0.0222
983.00,0.0220
982.00,0.0218
981.00,0.0216
980.00,0.0215
979.00,0.0215
978.00,0.0215
977.00,0.0215
976.00,0.0215
975.00,0.0215
974.00,0.0215
973.00,0.0215
972.00,0.0215
971.00,0.0216
970.00,0.0216
969.00,0.0216
968.00,0.0215
967.00,0.0215
966.00,0.0216
965.00,0.0216
964.00,0.0216
963.00,0.0216
962.00,0.0215
961.00,0.0215
960.00,0.0215
959.00,0.0214
958.00,0.0213
957.00,0.0213
956.00,0.0212
955.00,0.0211
954.00,0.0210
953.00,0.0210
952.00,0.0210
951.00,0.0210
950.00,0.0211
949.00,0.0211
948.00,0.0212
947.00,0.0213
946.00,0.0214
945.00,0.0215
944.00,0.0215
943.00,0.0216
942.00,0.0217
941.00,0.0218
940.00,0.0219
939.00,0.0220
938.00,0.0221
937.00,0.0222
936.00,0.0223
935.00,0.0224
934.00,0.0225
933.00,0.0226
932.00,0.0226
931.00,0.0227
930.00,0.0227
929.00,0.0226
928.00,0.0226
927.00,0.0226
926.00,0.0225
925.00,0.0225
924.00,0.0224
923.00,0.0223
922.00,0.0222
921.00,0.0221
920.00,0.0220
919.00,0.0219
918.00,0.0218
917.00,0.0217
916.00,0.0216
915.00,0.0216
914.00,0.0215
913.00,0.0214
912.00,0.0214
911.00,0.0213
910.00,0.0212
909.00,0.0211
908.00,0.0211
907.00,0.0210
906.00,0.0210
905.00,0.0209
904.00,0.0209
903.00,0.0208
902.00,0.0207
901.00,0.0207
900.00,0.0206
899.00,0.0205
898.00,0.0205
897.00,0.0205
896.00,0.0205
895.00,0.0205
894.00,0.0205
893.00,0.0205
892.00,0.0205
891.00,0.0205
890.00,0.0205
889.00,0.0205
888.00,0.0205
887.00,0.0205
886.00,0.0205
885.00,0.0205
884.00,0.0205
883.00,0.0205
882.00,0.0205
881.00,0.0206
880.00,0.0206
879.00,0.0205
878.00,0.0205
877.00,0.0205
876.00,0.0204
875.00,0.0204
874.00,0.0204
873.00,0.0204
872.00,0.0203
871.00,0.0203
870.00,0.0204
869.00,0.0204
868.00,0.0204
867.00,0.0205
866.00,0.0205
865.00,0.0205
864.00,0.0206
863.00,0.0206
862.00,0.0207
861.00,0.0209
860.00,0.0210
859.00,0.0212
858.00,0.0213
857.00,0.0215
856.00,0.0216
855.00,0.0218
854.00,0.0219
853.00,0.0221
852.00,0.0222
851.00,0.0223
850.00,0.0224
849.00,0.0224
848.00,0.0225
847.00,0.0225
846.00,0.0226
845.00,0.0226
844.00,0.0227
843.00,0.0228
842.00,0.0229
841.00,0.0230
840.00,0.0232
839.00,0.0234
838.00,0.0236
837.00,0.0238
836.00,0.0239
835.00,0.0240
834.00,0.0242
833.00,0.0244
832.00,0.0246
831.00,0.0248
830.00,0.0250
829.00,0.0252
828.00,0.0253
827.00,0.0254
826.00,0.0254
825.00,0.0254
824.00,0.0254
823.00,0.0254
822.00,0.0255
821.00,0.0255
820.00,0.0256
819.00,0.0257
818.00,0.0258
817.00,0.0260
816.00,0.0261
815.00,0.0263
814.00,0.0264
813.00,0.0266
812.00,0.0267
811.00,0.0269
810.00,0.0271
809.00,0.0272
808.00,0.0273
807.00,0.0275
806.00,0.0276
805.00,0.0278
804.00,0.0279
803.00,0.0281
802.00,0.0282
801.00,0.0284
800.00,0.0287
799.00,0.0289
798.00,0.0292
797.00,0.0294
796.00,0.0296
795.00,0.0298
794.00,0.0300
793.00,0.0302
792.00,0.0305
791.00,0.0309
790.00,0.0313
789.00,0.0317
788.00,0.0320
787.00,0.0323
786.00,0.0326
785.00,0.0329
784.00,0.0331
783.00,0.0334
782.00,0.0336
781.00,0.0337
780.00,0.0339
779.00,0.0340
778.00,0.0341
777.00,0.0342
776.00,0.0344
775.00,0.0345
774.00,0.0347
773.00,0.0348
772.00,0.0350
771.00,0.0351
770.00,0.0351
769.00,0.0352
768.00,0.0353
767.00,0.0354
766.00,0.0354
765.00,0.0356
764.00,0.0357
763.00,0.0359
762.00,0.0361
761.00,0.0362
760.00,0.0363
759.00,0.0365
758.00,0.0367
757.00,0.0369
756.00,0.0371
755.00,0.0373
754.00,0.0375
753.00,0.0377
752.00,0.0379
751.00,0.0382
750.00,0.0385
749.00,0.0388
748.00,0.0391
747.00,0.0394
746.00,0.0397
745.00,0.0399
744.00,0.0402
743.00,0.0404
742.00,0.0406
741.00,0.0407
740.00,0.0409
739.00,0.0411
738.00,0.0413
737.00,0.0414
736.00,0.0416
735.00,0.0419
734.00,0.0422
733.00,0.0426
732.00,0.0430
731.00,0.0434
730.00,0.0438
729.00,0.0442
728.00,0.0447
727.00,0.0452
726.00,0.0458
725.00,0.0464
724.00,0.0470
723.00,0.0477
722.00,0.0483
721.00,0.0488
720.00,0.0493
719.00,0.0497
718.00,0.0502
717.00,0.0506
716.00,0.0511
715.00,0.0516
714.00,0.0520
713.00,0.0525
712.00,0.0530
711.00,0.0534
710.00,0.0538
709.00,0.0542
708.00,0.0547
707.00,0.0552
706.00,0.0557
705.00,0.0563
704.00,0.0568
703.00,0.0573
702.00,0.0578
701.00,0.0582
700.00,0.0586
699.00,0.0589
698.00,0.0592
697.00,0.0593
696.00,0.0593
695.00,0.0592
694.00,0.0591
693.00,0.0590
692.00,0.0590
691.00,0.0590
690.00,0.0590
689.00,0.0590
688.00,0.0591
687.00,0.0591
686.00,0.0591
685.00,0.0592
684.00,0.0593
683.00,0.0595
682.00,0.0595
681.00,0.0596
680.00,0.0597
679.00,0.0598
678.00,0.0599
677.00,0.0601
676.00,0.0602
675.00,0.0604
674.00,0.0604
673.00,0.0605
672.00,0.0607
671.00,0.0611
670.00,0.0615
669.00,0.0617
668.00,0.0614
667.00,0.0611
666.00,0.0610
665.00,0.0613
664.00,0.0617
663.00,0.0620
662.00,0.0622
661.00,0.0623
660.00,0.0625
659.00,0.0626
658.00,0.0628
657.00,0.0629
656.00,0.0630
655.00,0.0631
654.00,0.0632
653.00,0.0632
652.00,0.0634
651.00,0.0636
650.00,0.0637
649.00,0.0638
648.00,0.0638
647.00,0.0639
646.00,0.0641
645.00,0.0644
644.00,0.0647
643.00,0.0649
642.00,0.0650
641.00,0.0651
640.00,0.0651
639.00,0.0653
638.00,0.0654
637.00,0.0657
636.00,0.0660
635.00,0.0662
634.00,0.0663
633.00,0.0665
632.00,0.0668
631.00,0.0671
630.00,0.0673
629.00,0.0675
628.00,0.0677
627.00,0.0678
626.00,0.0679
625.00,0.0681
624.00,0.0682
623.00,0.0684
622.00,0.0685
621.00,0.0687
620.00,0.0688
619.00,0.0689
618.00,0.0689
617.00,0.0689
616.00,0.0689
615.00,0.0690
614.00,0.0692
613.00,0.0693
612.00,0.0694
611.00,0.0695
610.00,0.0695
609.00,0.0696
608.00,0.0697
607.00,0.0697
606.00,0.0698
605.00,0.0699
604.00,0.0699
603.00,0.0699
602.00,0.0700
601.00,0.0702
600.00,0.0703
599.00,0.0705
598.00,0.0707
597.00,0.0708
596.00,0.0709
595.00,0.0710
594.00,0.0712
593.00,0.0713
592.00,0.0715
591.00,0.0716
590.00,0.0718
589.00,0.0719
588.00,0.0721
587.00,0.0723
586.00,0.0725
585.00,0.0727
584.00,0.0729
583.00,0.0731
582.00,0.0733
581.00,0.0735
580.00,0.0736
579.00,0.0738
578.00,0.0739
577.00,0.0742
576.00,0.0745
575.00,0.0748
574.00,0.0751
573.00,0.0755
572.00,0.0758
571.00,0.0759
570.00,0.0758
569.00,0.0755
568.00,0.0755
567.00,0.0756
566.00,0.0758
565.00,0.0761
564.00,0.0765
563.00,0.0768
562.00,0.0771
561.00,0.0774
560.00,0.0777
559.00,0.0779
558.00,0.0780
557.00,0.0781
556.00,0.0784
555.00,0.0787
554.00,0.0789
553.00,0.0791
552.00,0.0793
551.00,0.0795
550.00,0.0798
549.00,0.0801
548.00,0.0803
547.00,0.0804
546.00,0.0805
545.00,0.0807
544.00,0.0808
543.00,0.0810
542.00,0.0811
541.00,0.0813
540.00,0.0817
539.00,0.0821
538.00,0.0823
537.00,0.0824
536.00,0.0825
535.00,0.0826
534.00,0.0827
533.00,0.0829
532.00,0.0833
531.00,0.0835
530.00,0.0838
529.00,0.0842
528.00,0.0846
527.00,0.0848
526.00,0.0848
525.00,0.0847
524.00,0.0849
523.00,0.0851
522.00,0.0853
521.00,0.0855
520.00,0.0857
519.00,0.0857
518.00,0.0858
517.00,0.0859
516.00,0.0862
515.00,0.0864
514.00,0.0864
513.00,0.0864
512.00,0.0864
511.00,0.0865
510.00,0.0867
509.00,0.0870
508.00,0.0873
507.00,0.0876
506.00,0.0877
505.00,0.0879
504.00,0.0881
503.00,0.0884
502.00,0.0885
501.00,0.0885
500.00,0.0885
499.00,0.0885
498.00,0.0885
497.00,0.0885
496.00,0.0887
495.00,0.0887
494.00,0.0886
493.00,0.0886
492.00,0.0888
491.00,0.0889
490.00,0.0891
489.00,0.0892
488.00,0.0893
487.00,0.0893
486.00,0.0891
485.00,0.0889
484.00,0.0891
483.00,0.0893
482.00,0.0894
481.00,0.0894
480.00,0.0894
479.00,0.0894
478.00,0.0895
477.00,0.0897
476.00,0.0900
475.00,0.0900
474.00,0.0897
473.00,0.0894
472.00,0.0894
471.00,0.0896
470.00,0.0899
469.00,0.0902
468.00,0.0906
467.00,0.0908
466.00,0.0907
465.00,0.0906
464.00,0.0906
463.00,0.0908
462.00,0.0910
461.00,0.0913
460.00,0.0916
459.00,0.0918
458.00,0.0917
457.00,0.0914
456.00,0.0912
455.00,0.0909
454.00,0.0906
453.00,0.0904
452.00,0.0904
451.00,0.0906
450.00,0.0906
449.00,0.0907
448.00,0.0910
447.00,0.0913
446.00,0.0913
445.00,0.0911
444.00,0.0910
443.00,0.0908
442.00,0.0903
441.00,0.0899
440.00,0.0898
439.00,0.0900
438.00,0.0902
437.00,0.0903
436.00,0.0904
435.00,0.0903
434.00,0.0898
433.00,0.0893
432.00,0.0890
431.00,0.0890
430.00,0.0891
429.00,0.0894
428.00,0.0899
427.00,0.0904
426.00,0.0906
425.00,0.0909
424.00,0.0913
423.00,0.0915
422.00,0.0913
421.00,0.0909
420.00,0.0908
419.00,0.0909
418.00,0.0906
417.00,0.0899
416.00,0.0892
415.00,0.0889
414.00,0.0891
413.00,0.0898
412.00,0.0908
411.00,0.0912
410.00,0.0907
409.00,0.0900
408.00,0.0897
407.00,0.0895
406.00,0.0892
405.00,0.0887
404.00,0.0887
403.00,0.0893
402.00,0.0902
401.00,0.0913
400.00,0.0926
