Created as New Dataset,Sample 923 By YargerLab Date Saturday, July 26 2025
cm-1,A
4000.00,0.0068
3999.00,0.0068
3998.00,0.0068
3997.00,0.0068
3996.00,0.0068
3995.00,0.0068
3994.00,0.0068
3993.00,0.0068
3992.00,0.0068
3991.00,0.0068
3990.00,0.0068
3989.00,0.0068
3988.00,0.0068
3987.00,0.0068
3986.00,0.0069
3985.00,0.0069
3984.00,0.0069
3983.00,0.0069
3982.00,0.0068
3981.00,0.0068
3980.00,0.0068
3979.00,0.0068
3978.00,0.0068
3977.00,0.0068
3976.00,0.0068
3975.00,0.0068
3974.00,0.0068
3973.00,0.0068
3972.00,0.0069
3971.00,0.0069
3970.00,0.0069
3969.00,0.0069
3968.00,0.0069
3967.00,0.0069
3966.00,0.0069
3965.00,0.0069
3964.00,0.0069
3963.00,0.0069
3962.00,0.0069
3961.00,0.0068
3960.00,0.0068
3959.00,0.0068
3958.00,0.0068
3957.00,0.0068
3956.00,0.0068
3955.00,0.0068
3954.00,0.0068
3953.00,0.0068
3952.00,0.0068
3951.00,0.0068
3950.00,0.0068
3949.00,0.0068
3948.00,0.0068
3947.00,0.0068
3946.00,0.0068
3945.00,0.0067
3944.00,0.0067
3943.00,0.0067
3942.00,0.0067
3941.00,0.0067
3940.00,0.0067
3939.00,0.0067
3938.00,0.0067
3937.00,0.0067
3936.00,0.0067
3935.00,0.0067
3934.00,0.0067
3933.00,0.0068
3932.00,0.0068
3931.00,0.0068
3930.00,0.0068
3929.00,0.0068
3928.00,0.0068
3927.00,0.0068
3926.00,0.0068
3925.00,0.0068
3924.00,0.0068
3923.00,0.0068
3922.00,0.0068
3921.00,0.0068
3920.00,0.0068
3919.00,0.0068
3918.00,0.0068
3917.00,0.0068
3916.00,0.0068
3915.00,0.0068
3914.00,0.0068
3913.00,0.0068
3912.00,0.0068
3911.00,0.0068
3910.00,0.0068
3909.00,0.0068
3908.00,0.0068
3907.00,0.0068
3906.00,0.0068
3905.00,0.0068
3904.00,0.0067
3903.00,0.0067
3902.00,0.0067
3901.00,0.0067
3900.00,0.0067
3899.00,0.0067
3898.00,0.0067
3897.00,0.0068
3896.00,0.0068
3895.00,0.0067
3894.00,0.0067
3893.00,0.0067
3892.00,0.0067
3891.00,0.0067
3890.00,0.0067
3889.00,0.0067
3888.00,0.0067
3887.00,0.0067
3886.00,0.0067
3885.00,0.0067
3884.00,0.0067
3883.00,0.0067
3882.00,0.0067
3881.00,0.0067
3880.00,0.0067
3879.00,0.0067
3878.00,0.0067
3877.00,0.0067
3876.00,0.0067
3875.00,0.0067
3874.00,0.0067
3873.00,0.0067
3872.00,0.0067
3871.00,0.0067
3870.00,0.0067
3869.00,0.0067
3868.00,0.0067
3867.00,0.0067
3866.00,0.0067
3865.00,0.0067
3864.00,0.0067
3863.00,0.0066
3862.00,0.0066
3861.00,0.0067
3860.00,0.0067
3859.00,0.0067
3858.00,0.0067
3857.00,0.0066
3856.00,0.0066
3855.00,0.0066
3854.00,0.0067
3853.00,0.0067
3852.00,0.0067
3851.00,0.0067
3850.00,0.0067
3849.00,0.0067
3848.00,0.0067
3847.00,0.0066
3846.00,0.0066
3845.00,0.0066
3844.00,0.0066
3843.00,0.0066
3842.00,0.0066
3841.00,0.0066
3840.00,0.0066
3839.00,0.0066
3838.00,0.0066
3837.00,0.0066
3836.00,0.0066
3835.00,0.0066
3834.00,0.0066
3833.00,0.0066
3832.00,0.0066
3831.00,0.0066
3830.00,0.0066
3829.00,0.0066
3828.00,0.0066
3827.00,0.0066
3826.00,0.0066
3825.00,0.0066
3824.00,0.0066
3823.00,0.0066
3822.00,0.0066
3821.00,0.0066
3820.00,0.0066
3819.00,0.0066
3818.00,0.0065
3817.00,0.0065
3816.00,0.0065
3815.00,0.0065
3814.00,0.0066
3813.00,0.0066
3812.00,0.0066
3811.00,0.0065
3810.00,0.0065
3809.00,0.0065
3808.00,0.0065
3807.00,0.0066
3806.00,0.0066
3805.00,0.0066
3804.00,0.0066
3803.00,0.0066
3802.00,0.0066
3801.00,0.0066
3800.00,0.0066
3799.00,0.0066
3798.00,0.0066
3797.00,0.0065
3796.00,0.0065
3795.00,0.0065
3794.00,0.0065
3793.00,0.0065
3792.00,0.0065
3791.00,0.0065
3790.00,0.0066
3789.00,0.0066
3788.00,0.0066
3787.00,0.0065
3786.00,0.0065
3785.00,0.0065
3784.00,0.0065
3783.00,0.0065
3782.00,0.0065
3781.00,0.0065
3780.00,0.0065
3779.00,0.0065
3778.00,0.0065
3777.00,0.0065
3776.00,0.0065
3775.00,0.0065
3774.00,0.0065
3773.00,0.0065
3772.00,0.0065
3771.00,0.0065
3770.00,0.0065
3769.00,0.0066
3768.00,0.0066
3767.00,0.0066
3766.00,0.0065
3765.00,0.0065
3764.00,0.0065
3763.00,0.0065
3762.00,0.0065
3761.00,0.0065
3760.00,0.0065
3759.00,0.0065
3758.00,0.0065
3757.00,0.0064
3756.00,0.0064
3755.00,0.0064
3754.00,0.0064
3753.00,0.0064
3752.00,0.0064
3751.00,0.0064
3750.00,0.0064
3749.00,0.0065
3748.00,0.0065
3747.00,0.0065
3746.00,0.0065
3745.00,0.0065
3744.00,0.0065
3743.00,0.0065
3742.00,0.0065
3741.00,0.0065
3740.00,0.0064
3739.00,0.0064
3738.00,0.0064
3737.00,0.0064
3736.00,0.0063
3735.00,0.0063
3734.00,0.0063
3733.00,0.0063
3732.00,0.0063
3731.00,0.0063
3730.00,0.0063
3729.00,0.0063
3728.00,0.0063
3727.00,0.0063
3726.00,0.0063
3725.00,0.0063
3724.00,0.0063
3723.00,0.0063
3722.00,0.0063
3721.00,0.0063
3720.00,0.0062
3719.00,0.0062
3718.00,0.0062
3717.00,0.0063
3716.00,0.0063
3715.00,0.0063
3714.00,0.0063
3713.00,0.0063
3712.00,0.0062
3711.00,0.0062
3710.00,0.0062
3709.00,0.0061
3708.00,0.0062
3707.00,0.0062
3706.00,0.0062
3705.00,0.0061
3704.00,0.0061
3703.00,0.0061
3702.00,0.0061
3701.00,0.0061
3700.00,0.0061
3699.00,0.0061
3698.00,0.0061
3697.00,0.0061
3696.00,0.0061
3695.00,0.0061
3694.00,0.0061
3693.00,0.0061
3692.00,0.0061
3691.00,0.0061
3690.00,0.0060
3689.00,0.0060
3688.00,0.0060
3687.00,0.0060
3686.00,0.0061
3685.00,0.0061
3684.00,0.0061
3683.00,0.0061
3682.00,0.0061
3681.00,0.0061
3680.00,0.0062
3679.00,0.0062
3678.00,0.0061
3677.00,0.0061
3676.00,0.0061
3675.00,0.0061
3674.00,0.0061
3673.00,0.0061
3672.00,0.0061
3671.00,0.0062
3670.00,0.0062
3669.00,0.0062
3668.00,0.0061
3667.00,0.0061
3666.00,0.0061
3665.00,0.0060
3664.00,0.0060
3663.00,0.0060
3662.00,0.0061
3661.00,0.0061
3660.00,0.0061
3659.00,0.0061
3658.00,0.0061
3657.00,0.0061
3656.00,0.0061
3655.00,0.0061
3654.00,0.0061
3653.00,0.0061
3652.00,0.0061
3651.00,0.0061
3650.00,0.0061
3649.00,0.0061
3648.00,0.0061
3647.00,0.0060
3646.00,0.0060
3645.00,0.0060
3644.00,0.0060
3643.00,0.0060
3642.00,0.0060
3641.00,0.0060
3640.00,0.0060
3639.00,0.0060
3638.00,0.0060
3637.00,0.0060
3636.00,0.0060
3635.00,0.0060
3634.00,0.0060
3633.00,0.0060
3632.00,0.0059
3631.00,0.0059
3630.00,0.0059
3629.00,0.0059
3628.00,0.0059
3627.00,0.0059
3626.00,0.0059
3625.00,0.0059
3624.00,0.0059
3623.00,0.0058
3622.00,0.0058
3621.00,0.0058
3620.00,0.0058
3619.00,0.0059
3618.00,0.0059
3617.00,0.0060
3616.00,0.0060
3615.00,0.0060
3614.00,0.0060
3613.00,0.0060
3612.00,0.0061
3611.00,0.0061
3610.00,0.0061
3609.00,0.0061
3608.00,0.0061
3607.00,0.0061
3606.00,0.0061
3605.00,0.0061
3604.00,0.0061
3603.00,0.0061
3602.00,0.0061
3601.00,0.0061
3600.00,0.0061
3599.00,0.0061
3598.00,0.0060
3597.00,0.0060
3596.00,0.0060
3595.00,0.0060
3594.00,0.0060
3593.00,0.0060
3592.00,0.0060
3591.00,0.0060
3590.00,0.0061
3589.00,0.0061
3588.00,0.0061
3587.00,0.0062
3586.00,0.0062
3585.00,0.0061
3584.00,0.0061
3583.00,0.0061
3582.00,0.0061
3581.00,0.0061
3580.00,0.0061
3579.00,0.0062
3578.00,0.0062
3577.00,0.0062
3576.00,0.0062
3575.00,0.0062
3574.00,0.0063
3573.00,0.0063
3572.00,0.0063
3571.00,0.0063
3570.00,0.0063
3569.00,0.0063
3568.00,0.0063
3567.00,0.0063
3566.00,0.0064
3565.00,0.0064
3564.00,0.0065
3563.00,0.0065
3562.00,0.0065
3561.00,0.0066
3560.00,0.0066
3559.00,0.0066
3558.00,0.0066
3557.00,0.0066
3556.00,0.0067
3555.00,0.0067
3554.00,0.0067
3553.00,0.0068
3552.00,0.0068
3551.00,0.0068
3550.00,0.0069
3549.00,0.0069
3548.00,0.0069
3547.00,0.0070
3546.00,0.0070
3545.00,0.0071
3544.00,0.0071
3543.00,0.0072
3542.00,0.0072
3541.00,0.0073
3540.00,0.0073
3539.00,0.0073
3538.00,0.0074
3537.00,0.0074
3536.00,0.0075
3535.00,0.0075
3534.00,0.0076
3533.00,0.0076
3532.00,0.0077
3531.00,0.0077
3530.00,0.0078
3529.00,0.0079
3528.00,0.0079
3527.00,0.0080
3526.00,0.0080
3525.00,0.0081
3524.00,0.0081
3523.00,0.0081
3522.00,0.0082
3521.00,0.0082
3520.00,0.0083
3519.00,0.0084
3518.00,0.0085
3517.00,0.0085
3516.00,0.0086
3515.00,0.0086
3514.00,0.0086
3513.00,0.0087
3512.00,0.0087
3511.00,0.0088
3510.00,0.0088
3509.00,0.0089
3508.00,0.0090
3507.00,0.0091
3506.00,0.0091
3505.00,0.0092
3504.00,0.0093
3503.00,0.0094
3502.00,0.0095
3501.00,0.0095
3500.00,0.0096
3499.00,0.0097
3498.00,0.0098
3497.00,0.0099
3496.00,0.0099
3495.00,0.0100
3494.00,0.0101
3493.00,0.0102
3492.00,0.0103
3491.00,0.0104
3490.00,0.0105
3489.00,0.0106
3488.00,0.0108
3487.00,0.0109
3486.00,0.0110
3485.00,0.0111
3484.00,0.0112
3483.00,0.0114
3482.00,0.0115
3481.00,0.0116
3480.00,0.0117
3479.00,0.0119
3478.00,0.0120
3477.00,0.0122
3476.00,0.0123
3475.00,0.0125
3474.00,0.0127
3473.00,0.0128
3472.00,0.0130
3471.00,0.0132
3470.00,0.0134
3469.00,0.0136
3468.00,0.0138
3467.00,0.0139
3466.00,0.0141
3465.00,0.0143
3464.00,0.0145
3463.00,0.0147
3462.00,0.0148
3461.00,0.0150
3460.00,0.0152
3459.00,0.0154
3458.00,0.0156
3457.00,0.0158
3456.00,0.0161
3455.00,0.0163
3454.00,0.0164
3453.00,0.0166
3452.00,0.0169
3451.00,0.0171
3450.00,0.0173
3449.00,0.0175
3448.00,0.0178
3447.00,0.0180
3446.00,0.0182
3445.00,0.0184
3444.00,0.0187
3443.00,0.0189
3442.00,0.0192
3441.00,0.0195
3440.00,0.0197
3439.00,0.0200
3438.00,0.0203
3437.00,0.0206
3436.00,0.0209
3435.00,0.0212
3434.00,0.0215
3433.00,0.0218
3432.00,0.0221
3431.00,0.0224
3430.00,0.0227
3429.00,0.0231
3428.00,0.0234
3427.00,0.0238
3426.00,0.0241
3425.00,0.0245
3424.00,0.0249
3423.00,0.0252
3422.00,0.0256
3421.00,0.0260
3420.00,0.0264
3419.00,0.0268
3418.00,0.0271
3417.00,0.0275
3416.00,0.0278
3415.00,0.0282
3414.00,0.0285
3413.00,0.0289
3412.00,0.0292
3411.00,0.0295
3410.00,0.0297
3409.00,0.0300
3408.00,0.0303
3407.00,0.0305
3406.00,0.0307
3405.00,0.0309
3404.00,0.0311
3403.00,0.0313
3402.00,0.0314
3401.00,0.0315
3400.00,0.0316
3399.00,0.0316
3398.00,0.0316
3397.00,0.0316
3396.00,0.0316
3395.00,0.0316
3394.00,0.0316
3393.00,0.0315
3392.00,0.0314
3391.00,0.0313
3390.00,0.0311
3389.00,0.0310
3388.00,0.0308
3387.00,0.0306
3386.00,0.0304
3385.00,0.0302
3384.00,0.0300
3383.00,0.0298
3382.00,0.0296
3381.00,0.0294
3380.00,0.0292
3379.00,0.0289
3378.00,0.0287
3377.00,0.0285
3376.00,0.0282
3375.00,0.0280
3374.00,0.0278
3373.00,0.0276
3372.00,0.0274
3371.00,0.0272
3370.00,0.0270
3369.00,0.0268
3368.00,0.0266
3367.00,0.0264
3366.00,0.0261
3365.00,0.0259
3364.00,0.0257
3363.00,0.0255
3362.00,0.0253
3361.00,0.0252
3360.00,0.0250
3359.00,0.0248
3358.00,0.0247
3357.00,0.0245
3356.00,0.0244
3355.00,0.0243
3354.00,0.0242
3353.00,0.0241
3352.00,0.0240
3351.00,0.0239
3350.00,0.0238
3349.00,0.0236
3348.00,0.0235
3347.00,0.0235
3346.00,0.0234
3345.00,0.0233
3344.00,0.0232
3343.00,0.0232
3342.00,0.0231
3341.00,0.0230
3340.00,0.0230
3339.00,0.0229
3338.00,0.0229
3337.00,0.0229
3336.00,0.0229
3335.00,0.0228
3334.00,0.0228
3333.00,0.0228
3332.00,0.0228
3331.00,0.0228
3330.00,0.0228
3329.00,0.0228
3328.00,0.0228
3327.00,0.0228
3326.00,0.0228
3325.00,0.0229
3324.00,0.0229
3323.00,0.0229
3322.00,0.0230
3321.00,0.0230
3320.00,0.0231
3319.00,0.0231
3318.00,0.0231
3317.00,0.0232
3316.00,0.0232
3315.00,0.0233
3314.00,0.0233
3313.00,0.0234
3312.00,0.0235
3311.00,0.0236
3310.00,0.0237
3309.00,0.0239
3308.00,0.0240
3307.00,0.0241
3306.00,0.0242
3305.00,0.0243
3304.00,0.0243
3303.00,0.0244
3302.00,0.0245
3301.00,0.0246
3300.00,0.0247
3299.00,0.0249
3298.00,0.0250
3297.00,0.0252
3296.00,0.0253
3295.00,0.0254
3294.00,0.0256
3293.00,0.0257
3292.00,0.0258
3291.00,0.0260
3290.00,0.0261
3289.00,0.0263
3288.00,0.0264
3287.00,0.0265
3286.00,0.0267
3285.00,0.0268
3284.00,0.0269
3283.00,0.0271
3282.00,0.0273
3281.00,0.0274
3280.00,0.0276
3279.00,0.0277
3278.00,0.0279
3277.00,0.0280
3276.00,0.0282
3275.00,0.0283
3274.00,0.0285
3273.00,0.0287
3272.00,0.0288
3271.00,0.0290
3270.00,0.0292
3269.00,0.0293
3268.00,0.0294
3267.00,0.0296
3266.00,0.0297
3265.00,0.0299
3264.00,0.0300
3263.00,0.0302
3262.00,0.0303
3261.00,0.0305
3260.00,0.0306
3259.00,0.0308
3258.00,0.0310
3257.00,0.0312
3256.00,0.0314
3255.00,0.0315
3254.00,0.0317
3253.00,0.0319
3252.00,0.0320
3251.00,0.0321
3250.00,0.0322
3249.00,0.0324
3248.00,0.0325
3247.00,0.0326
3246.00,0.0328
3245.00,0.0330
3244.00,0.0331
3243.00,0.0332
3242.00,0.0334
3241.00,0.0335
3240.00,0.0336
3239.00,0.0337
3238.00,0.0337
3237.00,0.0338
3236.00,0.0338
3235.00,0.0338
3234.00,0.0338
3233.00,0.0339
3232.00,0.0339
3231.00,0.0340
3230.00,0.0340
3229.00,0.0341
3228.00,0.0341
3227.00,0.0341
3226.00,0.0341
3225.00,0.0341
3224.00,0.0341
3223.00,0.0342
3222.00,0.0342
3221.00,0.0341
3220.00,0.0341
3219.00,0.0341
3218.00,0.0340
3217.00,0.0339
3216.00,0.0338
3215.00,0.0337
3214.00,0.0336
3213.00,0.0335
3212.00,0.0334
3211.00,0.0333
3210.00,0.0332
3209.00,0.0331
3208.00,0.0329
3207.00,0.0328
3206.00,0.0326
3205.00,0.0325
3204.00,0.0323
3203.00,0.0322
3202.00,0.0320
3201.00,0.0319
3200.00,0.0317
3199.00,0.0315
3198.00,0.0313
3197.00,0.0312
3196.00,0.0310
3195.00,0.0308
3194.00,0.0306
3193.00,0.0304
3192.00,0.0302
3191.00,0.0300
3190.00,0.0298
3189.00,0.0296
3188.00,0.0294
3187.00,0.0292
3186.00,0.0290
3185.00,0.0288
3184.00,0.0285
3183.00,0.0283
3182.00,0.0281
3181.00,0.0279
3180.00,0.0277
3179.00,0.0275
3178.00,0.0273
3177.00,0.0271
3176.00,0.0269
3175.00,0.0267
3174.00,0.0265
3173.00,0.0262
3172.00,0.0260
3171.00,0.0258
3170.00,0.0255
3169.00,0.0253
3168.00,0.0251
3167.00,0.0248
3166.00,0.0246
3165.00,0.0244
3164.00,0.0242
3163.00,0.0240
3162.00,0.0237
3161.00,0.0235
3160.00,0.0232
3159.00,0.0230
3158.00,0.0227
3157.00,0.0225
3156.00,0.0223
3155.00,0.0221
3154.00,0.0219
3153.00,0.0216
3152.00,0.0214
3151.00,0.0212
3150.00,0.0210
3149.00,0.0209
3148.00,0.0207
3147.00,0.0205
3146.00,0.0203
3145.00,0.0201
3144.00,0.0199
3143.00,0.0197
3142.00,0.0195
3141.00,0.0193
3140.00,0.0191
3139.00,0.0190
3138.00,0.0188
3137.00,0.0187
3136.00,0.0185
3135.00,0.0184
3134.00,0.0183
3133.00,0.0181
3132.00,0.0179
3131.00,0.0178
3130.00,0.0176
3129.00,0.0175
3128.00,0.0174
3127.00,0.0173
3126.00,0.0172
3125.00,0.0171
3124.00,0.0170
3123.00,0.0169
3122.00,0.0168
3121.00,0.0167
3120.00,0.0166
3119.00,0.0165
3118.00,0.0163
3117.00,0.0162
3116.00,0.0160
3115.00,0.0159
3114.00,0.0157
3113.00,0.0156
3112.00,0.0154
3111.00,0.0153
3110.00,0.0151
3109.00,0.0150
3108.00,0.0149
3107.00,0.0147
3106.00,0.0146
3105.00,0.0144
3104.00,0.0143
3103.00,0.0142
3102.00,0.0141
3101.00,0.0141
3100.00,0.0140
3099.00,0.0139
3098.00,0.0139
3097.00,0.0138
3096.00,0.0138
3095.00,0.0138
3094.00,0.0138
3093.00,0.0138
3092.00,0.0139
3091.00,0.0139
3090.00,0.0140
3089.00,0.0140
3088.00,0.0141
3087.00,0.0141
3086.00,0.0141
3085.00,0.0141
3084.00,0.0141
3083.00,0.0141
3082.00,0.0141
3081.00,0.0140
3080.00,0.0139
3079.00,0.0139
3078.00,0.0138
3077.00,0.0137
3076.00,0.0136
3075.00,0.0136
3074.00,0.0135
3073.00,0.0134
3072.00,0.0134
3071.00,0.0134
3070.00,0.0133
3069.00,0.0133
3068.00,0.0133
3067.00,0.0133
3066.00,0.0133
3065.00,0.0133
3064.00,0.0133
3063.00,0.0133
3062.00,0.0133
3061.00,0.0134
3060.00,0.0134
3059.00,0.0135
3058.00,0.0135
3057.00,0.0136
3056.00,0.0136
3055.00,0.0136
3054.00,0.0136
3053.00,0.0136
3052.00,0.0136
3051.00,0.0136
3050.00,0.0135
3049.00,0.0135
3048.00,0.0135
3047.00,0.0134
3046.00,0.0134
3045.00,0.0134
3044.00,0.0134
3043.00,0.0134
3042.00,0.0135
3041.00,0.0135
3040.00,0.0137
3039.00,0.0138
3038.00,0.0140
3037.00,0.0142
3036.00,0.0144
3035.00,0.0146
3034.00,0.0147
3033.00,0.0147
3032.00,0.0147
3031.00,0.0146
3030.00,0.0145
3029.00,0.0144
3028.00,0.0142
3027.00,0.0140
3026.00,0.0138
3025.00,0.0136
3024.00,0.0134
3023.00,0.0132
3022.00,0.0130
3021.00,0.0128
3020.00,0.0126
3019.00,0.0125
3018.00,0.0124
3017.00,0.0123
3016.00,0.0123
3015.00,0.0123
3014.00,0.0122
3013.00,0.0122
3012.00,0.0123
3011.00,0.0123
3010.00,0.0124
3009.00,0.0125
3008.00,0.0127
3007.00,0.0128
3006.00,0.0131
3005.00,0.0134
3004.00,0.0137
3003.00,0.0141
3002.00,0.0145
3001.00,0.0149
3000.00,0.0154
2999.00,0.0160
2998.00,0.0167
2997.00,0.0174
2996.00,0.0181
2995.00,0.0188
2994.00,0.0194
2993.00,0.0200
2992.00,0.0204
2991.00,0.0208
2990.00,0.0211
2989.00,0.0215
2988.00,0.0220
2987.00,0.0225
2986.00,0.0232
2985.00,0.0241
2984.00,0.0251
2983.00,0.0265
2982.00,0.0279
2981.00,0.0294
2980.00,0.0308
2979.00,0.0318
2978.00,0.0324
2977.00,0.0328
2976.00,0.0332
2975.00,0.0340
2974.00,0.0353
2973.00,0.0370
2972.00,0.0388
2971.00,0.0405
2970.00,0.0419
2969.00,0.0428
2968.00,0.0435
2967.00,0.0440
2966.00,0.0445
2965.00,0.0452
2964.00,0.0461
2963.00,0.0470
2962.00,0.0479
2961.00,0.0484
2960.00,0.0486
2959.00,0.0482
2958.00,0.0473
2957.00,0.0460
2956.00,0.0444
2955.00,0.0426
2954.00,0.0408
2953.00,0.0392
2952.00,0.0378
2951.00,0.0367
2950.00,0.0359
2949.00,0.0354
2948.00,0.0352
2947.00,0.0354
2946.00,0.0359
2945.00,0.0366
2944.00,0.0376
2943.00,0.0388
2942.00,0.0402
2941.00,0.0417
2940.00,0.0435
2939.00,0.0455
2938.00,0.0478
2937.00,0.0505
2936.00,0.0535
2935.00,0.0568
2934.00,0.0603
2933.00,0.0639
2932.00,0.0676
2931.00,0.0711
2930.00,0.0742
2929.00,0.0769
2928.00,0.0789
2927.00,0.0801
2926.00,0.0804
2925.00,0.0800
2924.00,0.0789
2923.00,0.0773
2922.00,0.0754
2921.00,0.0732
2920.00,0.0709
2919.00,0.0684
2918.00,0.0660
2917.00,0.0635
2916.00,0.0611
2915.00,0.0588
2914.00,0.0566
2913.00,0.0545
2912.00,0.0526
2911.00,0.0509
2910.00,0.0493
2909.00,0.0479
2908.00,0.0465
2907.00,0.0452
2906.00,0.0440
2905.00,0.0428
2904.00,0.0417
2903.00,0.0406
2902.00,0.0395
2901.00,0.0385
2900.00,0.0375
2899.00,0.0366
2898.00,0.0357
2897.00,0.0349
2896.00,0.0341
2895.00,0.0334
2894.00,0.0328
2893.00,0.0322
2892.00,0.0316
2891.00,0.0311
2890.00,0.0306
2889.00,0.0301
2888.00,0.0296
2887.00,0.0292
2886.00,0.0288
2885.00,0.0284
2884.00,0.0282
2883.00,0.0281
2882.00,0.0282
2881.00,0.0284
2880.00,0.0289
2879.00,0.0297
2878.00,0.0306
2877.00,0.0317
2876.00,0.0330
2875.00,0.0342
2874.00,0.0352
2873.00,0.0359
2872.00,0.0364
2871.00,0.0365
2870.00,0.0363
2869.00,0.0361
2868.00,0.0360
2867.00,0.0361
2866.00,0.0366
2865.00,0.0375
2864.00,0.0390
2863.00,0.0411
2862.00,0.0436
2861.00,0.0465
2860.00,0.0495
2859.00,0.0524
2858.00,0.0549
2857.00,0.0567
2856.00,0.0579
2855.00,0.0585
2854.00,0.0586
2853.00,0.0582
2852.00,0.0573
2851.00,0.0558
2850.00,0.0536
2849.00,0.0509
2848.00,0.0479
2847.00,0.0447
2846.00,0.0416
2845.00,0.0388
2844.00,0.0362
2843.00,0.0338
2842.00,0.0318
2841.00,0.0299
2840.00,0.0283
2839.00,0.0269
2838.00,0.0257
2837.00,0.0247
2836.00,0.0238
2835.00,0.0230
2834.00,0.0224
2833.00,0.0217
2832.00,0.0212
2831.00,0.0206
2830.00,0.0201
2829.00,0.0197
2828.00,0.0193
2827.00,0.0189
2826.00,0.0186
2825.00,0.0182
2824.00,0.0179
2823.00,0.0176
2822.00,0.0173
2821.00,0.0170
2820.00,0.0168
2819.00,0.0166
2818.00,0.0164
2817.00,0.0162
2816.00,0.0160
2815.00,0.0159
2814.00,0.0157
2813.00,0.0156
2812.00,0.0154
2811.00,0.0153
2810.00,0.0151
2809.00,0.0150
2808.00,0.0149
2807.00,0.0148
2806.00,0.0147
2805.00,0.0146
2804.00,0.0145
2803.00,0.0144
2802.00,0.0142
2801.00,0.0141
2800.00,0.0141
2799.00,0.0140
2798.00,0.0139
2797.00,0.0138
2796.00,0.0137
2795.00,0.0136
2794.00,0.0135
2793.00,0.0134
2792.00,0.0133
2791.00,0.0132
2790.00,0.0131
2789.00,0.0130
2788.00,0.0129
2787.00,0.0128
2786.00,0.0127
2785.00,0.0127
2784.00,0.0126
2783.00,0.0125
2782.00,0.0125
2781.00,0.0124
2780.00,0.0123
2779.00,0.0123
2778.00,0.0122
2777.00,0.0121
2776.00,0.0121
2775.00,0.0120
2774.00,0.0120
2773.00,0.0120
2772.00,0.0119
2771.00,0.0119
2770.00,0.0119
2769.00,0.0119
2768.00,0.0119
2767.00,0.0119
2766.00,0.0118
2765.00,0.0118
2764.00,0.0118
2763.00,0.0118
2762.00,0.0118
2761.00,0.0118
2760.00,0.0118
2759.00,0.0118
2758.00,0.0118
2757.00,0.0118
2756.00,0.0118
2755.00,0.0118
2754.00,0.0118
2753.00,0.0118
2752.00,0.0118
2751.00,0.0118
2750.00,0.0118
2749.00,0.0118
2748.00,0.0119
2747.00,0.0119
2746.00,0.0119
2745.00,0.0119
2744.00,0.0120
2743.00,0.0120
2742.00,0.0120
2741.00,0.0121
2740.00,0.0122
2739.00,0.0122
2738.00,0.0123
2737.00,0.0124
2736.00,0.0125
2735.00,0.0127
2734.00,0.0128
2733.00,0.0129
2732.00,0.0130
2731.00,0.0131
2730.00,0.0131
2729.00,0.0132
2728.00,0.0131
2727.00,0.0131
2726.00,0.0130
2725.00,0.0129
2724.00,0.0128
2723.00,0.0128
2722.00,0.0127
2721.00,0.0126
2720.00,0.0126
2719.00,0.0125
2718.00,0.0124
2717.00,0.0124
2716.00,0.0123
2715.00,0.0123
2714.00,0.0122
2713.00,0.0122
2712.00,0.0121
2711.00,0.0121
2710.00,0.0121
2709.00,0.0120
2708.00,0.0120
2707.00,0.0120
2706.00,0.0120
2705.00,0.0120
2704.00,0.0120
2703.00,0.0120
2702.00,0.0120
2701.00,0.0119
2700.00,0.0119
2699.00,0.0119
2698.00,0.0118
2697.00,0.0117
2696.00,0.0117
2695.00,0.0117
2694.00,0.0116
2693.00,0.0116
2692.00,0.0116
2691.00,0.0115
2690.00,0.0115
2689.00,0.0114
2688.00,0.0114
2687.00,0.0113
2686.00,0.0113
2685.00,0.0113
2684.00,0.0113
2683.00,0.0112
2682.00,0.0112
2681.00,0.0112
2680.00,0.0112
2679.00,0.0112
2678.00,0.0112
2677.00,0.0112
2676.00,0.0112
2675.00,0.0112
2674.00,0.0112
2673.00,0.0113
2672.00,0.0113
2671.00,0.0113
2670.00,0.0114
2669.00,0.0114
2668.00,0.0115
2667.00,0.0115
2666.00,0.0116
2665.00,0.0117
2664.00,0.0118
2663.00,0.0119
2662.00,0.0119
2661.00,0.0120
2660.00,0.0120
2659.00,0.0121
2658.00,0.0121
2657.00,0.0121
2656.00,0.0121
2655.00,0.0121
2654.00,0.0121
2653.00,0.0121
2652.00,0.0121
2651.00,0.0121
2650.00,0.0121
2649.00,0.0121
2648.00,0.0121
2647.00,0.0121
2646.00,0.0121
2645.00,0.0121
2644.00,0.0121
2643.00,0.0121
2642.00,0.0120
2641.00,0.0120
2640.00,0.0120
2639.00,0.0119
2638.00,0.0118
2637.00,0.0118
2636.00,0.0117
2635.00,0.0117
2634.00,0.0116
2633.00,0.0115
2632.00,0.0115
2631.00,0.0114
2630.00,0.0113
2629.00,0.0113
2628.00,0.0112
2627.00,0.0111
2626.00,0.0111
2625.00,0.0110
2624.00,0.0109
2623.00,0.0109
2622.00,0.0109
2621.00,0.0108
2620.00,0.0108
2619.00,0.0108
2618.00,0.0108
2617.00,0.0108
2616.00,0.0108
2615.00,0.0108
2614.00,0.0108
2613.00,0.0108
2612.00,0.0108
2611.00,0.0108
2610.00,0.0108
2609.00,0.0108
2608.00,0.0108
2607.00,0.0108
2606.00,0.0108
2605.00,0.0109
2604.00,0.0109
2603.00,0.0109
2602.00,0.0110
2601.00,0.0110
2600.00,0.0110
2599.00,0.0110
2598.00,0.0111
2597.00,0.0111
2596.00,0.0111
2595.00,0.0111
2594.00,0.0111
2593.00,0.0111
2592.00,0.0111
2591.00,0.0111
2590.00,0.0111
2589.00,0.0112
2588.00,0.0112
2587.00,0.0112
2586.00,0.0112
2585.00,0.0112
2584.00,0.0112
2583.00,0.0111
2582.00,0.0111
2581.00,0.0110
2580.00,0.0110
2579.00,0.0110
2578.00,0.0109
2577.00,0.0109
2576.00,0.0108
2575.00,0.0108
2574.00,0.0107
2573.00,0.0107
2572.00,0.0107
2571.00,0.0108
2570.00,0.0108
2569.00,0.0108
2568.00,0.0108
2567.00,0.0108
2566.00,0.0108
2565.00,0.0108
2564.00,0.0107
2563.00,0.0107
2562.00,0.0106
2561.00,0.0105
2560.00,0.0105
2559.00,0.0104
2558.00,0.0103
2557.00,0.0103
2556.00,0.0102
2555.00,0.0102
2554.00,0.0101
2553.00,0.0101
2552.00,0.0101
2551.00,0.0101
2550.00,0.0101
2549.00,0.0101
2548.00,0.0101
2547.00,0.0101
2546.00,0.0101
2545.00,0.0101
2544.00,0.0101
2543.00,0.0101
2542.00,0.0101
2541.00,0.0101
2540.00,0.0101
2539.00,0.0101
2538.00,0.0101
2537.00,0.0102
2536.00,0.0102
2535.00,0.0102
2534.00,0.0102
2533.00,0.0102
2532.00,0.0102
2531.00,0.0101
2530.00,0.0101
2529.00,0.0101
2528.00,0.0101
2527.00,0.0100
2526.00,0.0100
2525.00,0.0099
2524.00,0.0099
2523.00,0.0099
2522.00,0.0098
2521.00,0.0098
2520.00,0.0098
2519.00,0.0097
2518.00,0.0097
2517.00,0.0097
2516.00,0.0097
2515.00,0.0096
2514.00,0.0096
2513.00,0.0096
2512.00,0.0095
2511.00,0.0095
2510.00,0.0095
2509.00,0.0095
2508.00,0.0095
2507.00,0.0095
2506.00,0.0094
2505.00,0.0094
2504.00,0.0094
2503.00,0.0094
2502.00,0.0094
2501.00,0.0094
2500.00,0.0093
2499.00,0.0093
2498.00,0.0093
2497.00,0.0092
2496.00,0.0092
2495.00,0.0092
2494.00,0.0092
2493.00,0.0091
2492.00,0.0091
2491.00,0.0091
2490.00,0.0091
2489.00,0.0090
2488.00,0.0090
2487.00,0.0090
2486.00,0.0090
2485.00,0.0090
2484.00,0.0090
2483.00,0.0090
2482.00,0.0089
2481.00,0.0089
2480.00,0.0089
2479.00,0.0089
2478.00,0.0089
2477.00,0.0089
2476.00,0.0089
2475.00,0.0089
2474.00,0.0088
2473.00,0.0088
2472.00,0.0088
2471.00,0.0087
2470.00,0.0087
2469.00,0.0087
2468.00,0.0088
2467.00,0.0088
2466.00,0.0088
2465.00,0.0088
2464.00,0.0088
2463.00,0.0088
2462.00,0.0088
2461.00,0.0088
2460.00,0.0088
2459.00,0.0088
2458.00,0.0088
2457.00,0.0089
2456.00,0.0089
2455.00,0.0089
2454.00,0.0089
2453.00,0.0089
2452.00,0.0089
2451.00,0.0089
2450.00,0.0088
2449.00,0.0088
2448.00,0.0088
2447.00,0.0088
2446.00,0.0087
2445.00,0.0087
2444.00,0.0086
2443.00,0.0086
2442.00,0.0086
2441.00,0.0086
2440.00,0.0086
2439.00,0.0085
2438.00,0.0085
2437.00,0.0085
2436.00,0.0084
2435.00,0.0084
2434.00,0.0084
2433.00,0.0084
2432.00,0.0084
2431.00,0.0084
2430.00,0.0083
2429.00,0.0083
2428.00,0.0083
2427.00,0.0084
2426.00,0.0084
2425.00,0.0084
2424.00,0.0084
2423.00,0.0083
2422.00,0.0083
2421.00,0.0083
2420.00,0.0083
2419.00,0.0083
2418.00,0.0083
2417.00,0.0083
2416.00,0.0083
2415.00,0.0083
2414.00,0.0083
2413.00,0.0083
2412.00,0.0083
2411.00,0.0083
2410.00,0.0083
2409.00,0.0083
2408.00,0.0082
2407.00,0.0082
2406.00,0.0082
2405.00,0.0081
2404.00,0.0081
2403.00,0.0081
2402.00,0.0081
2401.00,0.0082
2400.00,0.0081
2399.00,0.0081
2398.00,0.0081
2397.00,0.0081
2396.00,0.0080
2395.00,0.0080
2394.00,0.0080
2393.00,0.0080
2392.00,0.0080
2391.00,0.0079
2390.00,0.0079
2389.00,0.0079
2388.00,0.0079
2387.00,0.0079
2386.00,0.0079
2385.00,0.0079
2384.00,0.0078
2383.00,0.0077
2382.00,0.0076
2381.00,0.0075
2380.00,0.0075
2379.00,0.0074
2378.00,0.0074
2377.00,0.0074
2376.00,0.0075
2375.00,0.0075
2374.00,0.0075
2373.00,0.0075
2372.00,0.0075
2371.00,0.0075
2370.00,0.0074
2369.00,0.0074
2368.00,0.0074
2367.00,0.0074
2366.00,0.0074
2365.00,0.0074
2364.00,0.0075
2363.00,0.0075
2362.00,0.0075
2361.00,0.0075
2360.00,0.0074
2359.00,0.0075
2358.00,0.0075
2357.00,0.0075
2356.00,0.0076
2355.00,0.0077
2354.00,0.0077
2353.00,0.0076
2352.00,0.0076
2351.00,0.0075
2350.00,0.0075
2349.00,0.0075
2348.00,0.0076
2347.00,0.0077
2346.00,0.0077
2345.00,0.0076
2344.00,0.0076
2343.00,0.0076
2342.00,0.0077
2341.00,0.0077
2340.00,0.0078
2339.00,0.0078
2338.00,0.0079
2337.00,0.0079
2336.00,0.0078
2335.00,0.0078
2334.00,0.0078
2333.00,0.0077
2332.00,0.0077
2331.00,0.0077
2330.00,0.0077
2329.00,0.0080
2328.00,0.0083
2327.00,0.0088
2326.00,0.0091
2325.00,0.0092
2324.00,0.0091
2323.00,0.0088
2322.00,0.0086
2321.00,0.0084
2320.00,0.0083
2319.00,0.0082
2318.00,0.0082
2317.00,0.0081
2316.00,0.0081
2315.00,0.0080
2314.00,0.0080
2313.00,0.0079
2312.00,0.0078
2311.00,0.0077
2310.00,0.0077
2309.00,0.0077
2308.00,0.0077
2307.00,0.0077
2306.00,0.0077
2305.00,0.0078
2304.00,0.0078
2303.00,0.0079
2302.00,0.0079
2301.00,0.0079
2300.00,0.0080
2299.00,0.0080
2298.00,0.0081
2297.00,0.0082
2296.00,0.0083
2295.00,0.0084
2294.00,0.0085
2293.00,0.0086
2292.00,0.0086
2291.00,0.0088
2290.00,0.0089
2289.00,0.0090
2288.00,0.0090
2287.00,0.0090
2286.00,0.0089
2285.00,0.0088
2284.00,0.0088
2283.00,0.0087
2282.00,0.0087
2281.00,0.0086
2280.00,0.0085
2279.00,0.0084
2278.00,0.0084
2277.00,0.0083
2276.00,0.0082
2275.00,0.0082
2274.00,0.0081
2273.00,0.0081
2272.00,0.0081
2271.00,0.0081
2270.00,0.0080
2269.00,0.0079
2268.00,0.0077
2267.00,0.0076
2266.00,0.0075
2265.00,0.0075
2264.00,0.0075
2263.00,0.0075
2262.00,0.0075
2261.00,0.0075
2260.00,0.0075
2259.00,0.0075
2258.00,0.0074
2257.00,0.0073
2256.00,0.0072
2255.00,0.0071
2254.00,0.0071
2253.00,0.0071
2252.00,0.0072
2251.00,0.0073
2250.00,0.0074
2249.00,0.0075
2248.00,0.0075
2247.00,0.0075
2246.00,0.0074
2245.00,0.0074
2244.00,0.0074
2243.00,0.0074
2242.00,0.0074
2241.00,0.0074
2240.00,0.0075
2239.00,0.0075
2238.00,0.0075
2237.00,0.0075
2236.00,0.0074
2235.00,0.0074
2234.00,0.0073
2233.00,0.0072
2232.00,0.0073
2231.00,0.0073
2230.00,0.0073
2229.00,0.0074
2228.00,0.0074
2227.00,0.0074
2226.00,0.0074
2225.00,0.0075
2224.00,0.0075
2223.00,0.0076
2222.00,0.0075
2221.00,0.0074
2220.00,0.0073
2219.00,0.0073
2218.00,0.0073
2217.00,0.0073
2216.00,0.0074
2215.00,0.0075
2214.00,0.0075
2213.00,0.0075
2212.00,0.0076
2211.00,0.0076
2210.00,0.0076
2209.00,0.0075
2208.00,0.0074
2207.00,0.0073
2206.00,0.0073
2205.00,0.0073
2204.00,0.0072
2203.00,0.0072
2202.00,0.0072
2201.00,0.0072
2200.00,0.0073
2199.00,0.0073
2198.00,0.0073
2197.00,0.0073
2196.00,0.0073
2195.00,0.0073
2194.00,0.0072
2193.00,0.0071
2192.00,0.0072
2191.00,0.0072
2190.00,0.0074
2189.00,0.0075
2188.00,0.0076
2187.00,0.0076
2186.00,0.0076
2185.00,0.0075
2184.00,0.0072
2183.00,0.0068
2182.00,0.0066
2181.00,0.0066
2180.00,0.0067
2179.00,0.0069
2178.00,0.0069
2177.00,0.0067
2176.00,0.0065
2175.00,0.0064
2174.00,0.0064
2173.00,0.0067
2172.00,0.0071
2171.00,0.0075
2170.00,0.0078
2169.00,0.0080
2168.00,0.0081
2167.00,0.0081
2166.00,0.0082
2165.00,0.0084
2164.00,0.0086
2163.00,0.0086
2162.00,0.0081
2161.00,0.0070
2160.00,0.0055
2159.00,0.0042
2158.00,0.0035
2157.00,0.0034
2156.00,0.0037
2155.00,0.0041
2154.00,0.0044
2153.00,0.0046
2152.00,0.0048
2151.00,0.0049
2150.00,0.0050
2149.00,0.0050
2148.00,0.0050
2147.00,0.0050
2146.00,0.0050
2145.00,0.0051
2144.00,0.0051
2143.00,0.0050
2142.00,0.0050
2141.00,0.0050
2140.00,0.0052
2139.00,0.0053
2138.00,0.0052
2137.00,0.0050
2136.00,0.0047
2135.00,0.0045
2134.00,0.0044
2133.00,0.0045
2132.00,0.0047
2131.00,0.0049
2130.00,0.0050
2129.00,0.0052
2128.00,0.0053
2127.00,0.0054
2126.00,0.0055
2125.00,0.0056
2124.00,0.0057
2123.00,0.0058
2122.00,0.0058
2121.00,0.0059
2120.00,0.0060
2119.00,0.0060
2118.00,0.0061
2117.00,0.0062
2116.00,0.0063
2115.00,0.0062
2114.00,0.0062
2113.00,0.0062
2112.00,0.0062
2111.00,0.0062
2110.00,0.0062
2109.00,0.0062
2108.00,0.0062
2107.00,0.0062
2106.00,0.0062
2105.00,0.0062
2104.00,0.0061
2103.00,0.0061
2102.00,0.0061
2101.00,0.0062
2100.00,0.0062
2099.00,0.0062
2098.00,0.0060
2097.00,0.0058
2096.00,0.0057
2095.00,0.0056
2094.00,0.0056
2093.00,0.0058
2092.00,0.0060
2091.00,0.0061
2090.00,0.0061
2089.00,0.0061
2088.00,0.0061
2087.00,0.0061
2086.00,0.0062
2085.00,0.0063
2084.00,0.0064
2083.00,0.0065
2082.00,0.0065
2081.00,0.0065
2080.00,0.0065
2079.00,0.0066
2078.00,0.0067
2077.00,0.0068
2076.00,0.0067
2075.00,0.0067
2074.00,0.0066
2073.00,0.0065
2072.00,0.0065
2071.00,0.0064
2070.00,0.0064
2069.00,0.0064
2068.00,0.0063
2067.00,0.0063
2066.00,0.0062
2065.00,0.0062
2064.00,0.0063
2063.00,0.0063
2062.00,0.0063
2061.00,0.0063
2060.00,0.0062
2059.00,0.0061
2058.00,0.0060
2057.00,0.0059
2056.00,0.0059
2055.00,0.0059
2054.00,0.0062
2053.00,0.0066
2052.00,0.0070
2051.00,0.0070
2050.00,0.0065
2049.00,0.0060
2048.00,0.0057
2047.00,0.0055
2046.00,0.0055
2045.00,0.0055
2044.00,0.0057
2043.00,0.0058
2042.00,0.0060
2041.00,0.0062
2040.00,0.0064
2039.00,0.0065
2038.00,0.0064
2037.00,0.0063
2036.00,0.0062
2035.00,0.0060
2034.00,0.0057
2033.00,0.0055
2032.00,0.0054
2031.00,0.0054
2030.00,0.0054
2029.00,0.0054
2028.00,0.0055
2027.00,0.0056
2026.00,0.0057
2025.00,0.0057
2024.00,0.0056
2023.00,0.0055
2022.00,0.0054
2021.00,0.0053
2020.00,0.0054
2019.00,0.0055
2018.00,0.0056
2017.00,0.0056
2016.00,0.0056
2015.00,0.0054
2014.00,0.0053
2013.00,0.0054
2012.00,0.0055
2011.00,0.0056
2010.00,0.0054
2009.00,0.0051
2008.00,0.0048
2007.00,0.0045
2006.00,0.0044
2005.00,0.0044
2004.00,0.0045
2003.00,0.0048
2002.00,0.0050
2001.00,0.0051
2000.00,0.0053
1999.00,0.0054
1998.00,0.0055
1997.00,0.0057
1996.00,0.0059
1995.00,0.0059
1994.00,0.0057
1993.00,0.0055
1992.00,0.0055
1991.00,0.0056
1990.00,0.0058
1989.00,0.0060
1988.00,0.0063
1987.00,0.0064
1986.00,0.0066
1985.00,0.0067
1984.00,0.0069
1983.00,0.0071
1982.00,0.0073
1981.00,0.0073
1980.00,0.0071
1979.00,0.0065
1978.00,0.0057
1977.00,0.0052
1976.00,0.0051
1975.00,0.0051
1974.00,0.0052
1973.00,0.0053
1972.00,0.0054
1971.00,0.0053
1970.00,0.0050
1969.00,0.0048
1968.00,0.0048
1967.00,0.0048
1966.00,0.0050
1965.00,0.0051
1964.00,0.0053
1963.00,0.0052
1962.00,0.0050
1961.00,0.0047
1960.00,0.0046
1959.00,0.0046
1958.00,0.0047
1957.00,0.0049
1956.00,0.0051
1955.00,0.0052
1954.00,0.0052
1953.00,0.0053
1952.00,0.0053
1951.00,0.0054
1950.00,0.0054
1949.00,0.0054
1948.00,0.0054
1947.00,0.0054
1946.00,0.0054
1945.00,0.0054
1944.00,0.0054
1943.00,0.0055
1942.00,0.0055
1941.00,0.0054
1940.00,0.0053
1939.00,0.0053
1938.00,0.0053
1937.00,0.0054
1936.00,0.0054
1935.00,0.0054
1934.00,0.0054
1933.00,0.0054
1932.00,0.0055
1931.00,0.0055
1930.00,0.0056
1929.00,0.0057
1928.00,0.0058
1927.00,0.0059
1926.00,0.0059
1925.00,0.0059
1924.00,0.0059
1923.00,0.0059
1922.00,0.0059
1921.00,0.0060
1920.00,0.0061
1919.00,0.0061
1918.00,0.0062
1917.00,0.0062
1916.00,0.0062
1915.00,0.0063
1914.00,0.0064
1913.00,0.0066
1912.00,0.0069
1911.00,0.0074
1910.00,0.0079
1909.00,0.0083
1908.00,0.0085
1907.00,0.0084
1906.00,0.0081
1905.00,0.0077
1904.00,0.0073
1903.00,0.0070
1902.00,0.0068
1901.00,0.0067
1900.00,0.0067
1899.00,0.0067
1898.00,0.0067
1897.00,0.0069
1896.00,0.0070
1895.00,0.0072
1894.00,0.0073
1893.00,0.0073
1892.00,0.0072
1891.00,0.0071
1890.00,0.0068
1889.00,0.0066
1888.00,0.0065
1887.00,0.0064
1886.00,0.0063
1885.00,0.0062
1884.00,0.0061
1883.00,0.0061
1882.00,0.0061
1881.00,0.0060
1880.00,0.0060
1879.00,0.0061
1878.00,0.0061
1877.00,0.0061
1876.00,0.0062
1875.00,0.0062
1874.00,0.0061
1873.00,0.0061
1872.00,0.0061
1871.00,0.0061
1870.00,0.0061
1869.00,0.0061
1868.00,0.0061
1867.00,0.0062
1866.00,0.0063
1865.00,0.0063
1864.00,0.0064
1863.00,0.0064
1862.00,0.0063
1861.00,0.0064
1860.00,0.0064
1859.00,0.0065
1858.00,0.0065
1857.00,0.0064
1856.00,0.0064
1855.00,0.0063
1854.00,0.0063
1853.00,0.0064
1852.00,0.0065
1851.00,0.0066
1850.00,0.0067
1849.00,0.0069
1848.00,0.0071
1847.00,0.0072
1846.00,0.0073
1845.00,0.0073
1844.00,0.0072
1843.00,0.0071
1842.00,0.0069
1841.00,0.0067
1840.00,0.0066
1839.00,0.0065
1838.00,0.0064
1837.00,0.0063
1836.00,0.0063
1835.00,0.0062
1834.00,0.0062
1833.00,0.0061
1832.00,0.0060
1831.00,0.0060
1830.00,0.0060
1829.00,0.0060
1828.00,0.0061
1827.00,0.0061
1826.00,0.0061
1825.00,0.0062
1824.00,0.0062
1823.00,0.0062
1822.00,0.0062
1821.00,0.0061
1820.00,0.0060
1819.00,0.0059
1818.00,0.0058
1817.00,0.0058
1816.00,0.0058
1815.00,0.0059
1814.00,0.0060
1813.00,0.0060
1812.00,0.0061
1811.00,0.0061
1810.00,0.0061
1809.00,0.0061
1808.00,0.0062
1807.00,0.0062
1806.00,0.0062
1805.00,0.0062
1804.00,0.0063
1803.00,0.0064
1802.00,0.0064
1801.00,0.0064
1800.00,0.0065
1799.00,0.0065
1798.00,0.0066
1797.00,0.0067
1796.00,0.0067
1795.00,0.0068
1794.00,0.0068
1793.00,0.0068
1792.00,0.0068
1791.00,0.0068
1790.00,0.0068
1789.00,0.0067
1788.00,0.0066
1787.00,0.0066
1786.00,0.0066
1785.00,0.0066
1784.00,0.0066
1783.00,0.0065
1782.00,0.0065
1781.00,0.0066
1780.00,0.0066
1779.00,0.0067
1778.00,0.0068
1777.00,0.0069
1776.00,0.0071
1775.00,0.0072
1774.00,0.0073
1773.00,0.0074
1772.00,0.0074
1771.00,0.0073
1770.00,0.0073
1769.00,0.0072
1768.00,0.0071
1767.00,0.0070
1766.00,0.0069
1765.00,0.0069
1764.00,0.0069
1763.00,0.0070
1762.00,0.0072
1761.00,0.0073
1760.00,0.0075
1759.00,0.0075
1758.00,0.0074
1757.00,0.0072
1756.00,0.0071
1755.00,0.0069
1754.00,0.0068
1753.00,0.0067
1752.00,0.0067
1751.00,0.0066
1750.00,0.0066
1749.00,0.0065
1748.00,0.0065
1747.00,0.0065
1746.00,0.0065
1745.00,0.0065
1744.00,0.0066
1743.00,0.0066
1742.00,0.0066
1741.00,0.0066
1740.00,0.0066
1739.00,0.0067
1738.00,0.0067
1737.00,0.0067
1736.00,0.0068
1735.00,0.0069
1734.00,0.0070
1733.00,0.0070
1732.00,0.0071
1731.00,0.0071
1730.00,0.0072
1729.00,0.0073
1728.00,0.0074
1727.00,0.0075
1726.00,0.0075
1725.00,0.0077
1724.00,0.0078
1723.00,0.0079
1722.00,0.0079
1721.00,0.0079
1720.00,0.0079
1719.00,0.0079
1718.00,0.0080
1717.00,0.0080
1716.00,0.0082
1715.00,0.0083
1714.00,0.0084
1713.00,0.0084
1712.00,0.0085
1711.00,0.0086
1710.00,0.0086
1709.00,0.0086
1708.00,0.0086
1707.00,0.0085
1706.00,0.0084
1705.00,0.0084
1704.00,0.0084
1703.00,0.0084
1702.00,0.0084
1701.00,0.0084
1700.00,0.0084
1699.00,0.0084
1698.00,0.0084
1697.00,0.0085
1696.00,0.0085
1695.00,0.0086
1694.00,0.0086
1693.00,0.0085
1692.00,0.0085
1691.00,0.0085
1690.00,0.0084
1689.00,0.0084
1688.00,0.0084
1687.00,0.0084
1686.00,0.0083
1685.00,0.0082
1684.00,0.0082
1683.00,0.0082
1682.00,0.0082
1681.00,0.0082
1680.00,0.0082
1679.00,0.0082
1678.00,0.0082
1677.00,0.0082
1676.00,0.0082
1675.00,0.0083
1674.00,0.0082
1673.00,0.0082
1672.00,0.0082
1671.00,0.0081
1670.00,0.0081
1669.00,0.0081
1668.00,0.0082
1667.00,0.0083
1666.00,0.0083
1665.00,0.0083
1664.00,0.0084
1663.00,0.0084
1662.00,0.0084
1661.00,0.0085
1660.00,0.0086
1659.00,0.0086
1658.00,0.0086
1657.00,0.0086
1656.00,0.0087
1655.00,0.0087
1654.00,0.0086
1653.00,0.0087
1652.00,0.0089
1651.00,0.0090
1650.00,0.0091
1649.00,0.0092
1648.00,0.0094
1647.00,0.0098
1646.00,0.0102
1645.00,0.0107
1644.00,0.0112
1643.00,0.0117
1642.00,0.0123
1641.00,0.0128
1640.00,0.0134
1639.00,0.0139
1638.00,0.0143
1637.00,0.0149
1636.00,0.0161
1635.00,0.0178
1634.00,0.0199
1633.00,0.0225
1632.00,0.0259
1631.00,0.0302
1630.00,0.0357
1629.00,0.0426
1628.00,0.0507
1627.00,0.0590
1626.00,0.0667
1625.00,0.0737
1624.00,0.0801
1623.00,0.0855
1622.00,0.0891
1621.00,0.0908
1620.00,0.0907
1619.00,0.0889
1618.00,0.0850
1617.00,0.0794
1616.00,0.0740
1615.00,0.0706
1614.00,0.0695
1613.00,0.0701
1612.00,0.0714
1611.00,0.0728
1610.00,0.0733
1609.00,0.0724
1608.00,0.0701
1607.00,0.0668
1606.00,0.0626
1605.00,0.0582
1604.00,0.0538
1603.00,0.0495
1602.00,0.0456
1601.00,0.0421
1600.00,0.0393
1599.00,0.0371
1598.00,0.0354
1597.00,0.0344
1596.00,0.0340
1595.00,0.0345
1594.00,0.0358
1593.00,0.0380
1592.00,0.0413
1591.00,0.0456
1590.00,0.0507
1589.00,0.0564
1588.00,0.0622
1587.00,0.0676
1586.00,0.0721
1585.00,0.0755
1584.00,0.0777
1583.00,0.0786
1582.00,0.0783
1581.00,0.0770
1580.00,0.0752
1579.00,0.0730
1578.00,0.0703
1577.00,0.0668
1576.00,0.0628
1575.00,0.0591
1574.00,0.0562
1573.00,0.0541
1572.00,0.0524
1571.00,0.0510
1570.00,0.0495
1569.00,0.0481
1568.00,0.0466
1567.00,0.0449
1566.00,0.0427
1565.00,0.0401
1564.00,0.0373
1563.00,0.0347
1562.00,0.0325
1561.00,0.0304
1560.00,0.0280
1559.00,0.0254
1558.00,0.0236
1557.00,0.0225
1556.00,0.0218
1555.00,0.0212
1554.00,0.0206
1553.00,0.0201
1552.00,0.0196
1551.00,0.0192
1550.00,0.0189
1549.00,0.0186
1548.00,0.0183
1547.00,0.0180
1546.00,0.0178
1545.00,0.0175
1544.00,0.0171
1543.00,0.0167
1542.00,0.0164
1541.00,0.0160
1540.00,0.0158
1539.00,0.0157
1538.00,0.0156
1537.00,0.0155
1536.00,0.0153
1535.00,0.0151
1534.00,0.0150
1533.00,0.0148
1532.00,0.0147
1531.00,0.0147
1530.00,0.0146
1529.00,0.0146
1528.00,0.0147
1527.00,0.0149
1526.00,0.0151
1525.00,0.0153
1524.00,0.0155
1523.00,0.0158
1522.00,0.0163
1521.00,0.0169
1520.00,0.0175
1519.00,0.0181
1518.00,0.0188
1517.00,0.0197
1516.00,0.0208
1515.00,0.0217
1514.00,0.0226
1513.00,0.0234
1512.00,0.0241
1511.00,0.0246
1510.00,0.0250
1509.00,0.0252
1508.00,0.0253
1507.00,0.0253
1506.00,0.0254
1505.00,0.0257
1504.00,0.0262
1503.00,0.0270
1502.00,0.0283
1501.00,0.0306
1500.00,0.0341
1499.00,0.0389
1498.00,0.0446
1497.00,0.0499
1496.00,0.0531
1495.00,0.0532
1494.00,0.0510
1493.00,0.0474
1492.00,0.0431
1491.00,0.0387
1490.00,0.0345
1489.00,0.0310
1488.00,0.0283
1487.00,0.0261
1486.00,0.0244
1485.00,0.0231
1484.00,0.0221
1483.00,0.0213
1482.00,0.0207
1481.00,0.0202
1480.00,0.0200
1479.00,0.0199
1478.00,0.0199
1477.00,0.0202
1476.00,0.0205
1475.00,0.0211
1474.00,0.0220
1473.00,0.0238
1472.00,0.0266
1471.00,0.0303
1470.00,0.0347
1469.00,0.0396
1468.00,0.0446
1467.00,0.0488
1466.00,0.0516
1465.00,0.0524
1464.00,0.0517
1463.00,0.0504
1462.00,0.0494
1461.00,0.0490
1460.00,0.0490
1459.00,0.0493
1458.00,0.0492
1457.00,0.0486
1456.00,0.0474
1455.00,0.0462
1454.00,0.0453
1453.00,0.0448
1452.00,0.0447
1451.00,0.0450
1450.00,0.0457
1449.00,0.0465
1448.00,0.0474
1447.00,0.0485
1446.00,0.0498
1445.00,0.0516
1444.00,0.0537
1443.00,0.0558
1442.00,0.0579
1441.00,0.0597
1440.00,0.0613
1439.00,0.0626
1438.00,0.0639
1437.00,0.0654
1436.00,0.0672
1435.00,0.0692
1434.00,0.0715
1433.00,0.0738
1432.00,0.0761
1431.00,0.0780
1430.00,0.0791
1429.00,0.0796
1428.00,0.0792
1427.00,0.0780
1426.00,0.0763
1425.00,0.0742
1424.00,0.0719
1423.00,0.0696
1422.00,0.0676
1421.00,0.0658
1420.00,0.0637
1419.00,0.0614
1418.00,0.0591
1417.00,0.0572
1416.00,0.0557
1415.00,0.0545
1414.00,0.0538
1413.00,0.0536
1412.00,0.0541
1411.00,0.0553
1410.00,0.0573
1409.00,0.0600
1408.00,0.0635
1407.00,0.0678
1406.00,0.0728
1405.00,0.0783
1404.00,0.0838
1403.00,0.0887
1402.00,0.0926
1401.00,0.0955
1400.00,0.0970
1399.00,0.0969
1398.00,0.0951
1397.00,0.0920
1396.00,0.0878
1395.00,0.0826
1394.00,0.0771
1393.00,0.0720
1392.00,0.0678
1391.00,0.0646
1390.00,0.0627
1389.00,0.0625
1388.00,0.0636
1387.00,0.0648
1386.00,0.0647
1385.00,0.0630
1384.00,0.0605
1383.00,0.0583
1382.00,0.0572
1381.00,0.0571
1380.00,0.0574
1379.00,0.0575
1378.00,0.0573
1377.00,0.0563
1376.00,0.0545
1375.00,0.0516
1374.00,0.0481
1373.00,0.0450
1372.00,0.0430
1371.00,0.0426
1370.00,0.0439
1369.00,0.0469
1368.00,0.0512
1367.00,0.0561
1366.00,0.0604
1365.00,0.0633
1364.00,0.0653
1363.00,0.0676
1362.00,0.0715
1361.00,0.0765
1360.00,0.0805
1359.00,0.0814
1358.00,0.0790
1357.00,0.0745
1356.00,0.0698
1355.00,0.0659
1354.00,0.0633
1353.00,0.0616
1352.00,0.0607
1351.00,0.0605
1350.00,0.0608
1349.00,0.0615
1348.00,0.0621
1347.00,0.0625
1346.00,0.0622
1345.00,0.0613
1344.00,0.0597
1343.00,0.0577
1342.00,0.0554
1341.00,0.0528
1340.00,0.0501
1339.00,0.0476
1338.00,0.0456
1337.00,0.0442
1336.00,0.0437
1335.00,0.0439
1334.00,0.0447
1333.00,0.0459
1332.00,0.0470
1331.00,0.0480
1330.00,0.0486
1329.00,0.0488
1328.00,0.0484
1327.00,0.0477
1326.00,0.0465
1325.00,0.0452
1324.00,0.0439
1323.00,0.0428
1322.00,0.0418
1321.00,0.0409
1320.00,0.0401
1319.00,0.0392
1318.00,0.0381
1317.00,0.0369
1316.00,0.0358
1315.00,0.0348
1314.00,0.0341
1313.00,0.0338
1312.00,0.0341
1311.00,0.0350
1310.00,0.0365
1309.00,0.0386
1308.00,0.0414
1307.00,0.0448
1306.00,0.0489
1305.00,0.0539
1304.00,0.0596
1303.00,0.0654
1302.00,0.0704
1301.00,0.0734
1300.00,0.0739
1299.00,0.0723
1298.00,0.0695
1297.00,0.0667
1296.00,0.0646
1295.00,0.0631
1294.00,0.0618
1293.00,0.0603
1292.00,0.0586
1291.00,0.0569
1290.00,0.0558
1289.00,0.0557
1288.00,0.0569
1287.00,0.0593
1286.00,0.0625
1285.00,0.0657
1284.00,0.0684
1283.00,0.0699
1282.00,0.0698
1281.00,0.0679
1280.00,0.0644
1279.00,0.0599
1278.00,0.0551
1277.00,0.0506
1276.00,0.0466
1275.00,0.0433
1274.00,0.0406
1273.00,0.0383
1272.00,0.0363
1271.00,0.0346
1270.00,0.0331
1269.00,0.0319
1268.00,0.0311
1267.00,0.0305
1266.00,0.0300
1265.00,0.0296
1264.00,0.0291
1263.00,0.0284
1262.00,0.0277
1261.00,0.0270
1260.00,0.0264
1259.00,0.0259
1258.00,0.0256
1257.00,0.0254
1256.00,0.0254
1255.00,0.0255
1254.00,0.0259
1253.00,0.0265
1252.00,0.0274
1251.00,0.0288
1250.00,0.0306
1249.00,0.0330
1248.00,0.0359
1247.00,0.0392
1246.00,0.0428
1245.00,0.0462
1244.00,0.0493
1243.00,0.0519
1242.00,0.0541
1241.00,0.0561
1240.00,0.0583
1239.00,0.0609
1238.00,0.0643
1237.00,0.0681
1236.00,0.0720
1235.00,0.0754
1234.00,0.0776
1233.00,0.0781
1232.00,0.0768
1231.00,0.0741
1230.00,0.0703
1229.00,0.0660
1228.00,0.0619
1227.00,0.0582
1226.00,0.0550
1225.00,0.0523
1224.00,0.0501
1223.00,0.0485
1222.00,0.0475
1221.00,0.0472
1220.00,0.0476
1219.00,0.0486
1218.00,0.0502
1217.00,0.0522
1216.00,0.0543
1215.00,0.0559
1214.00,0.0567
1213.00,0.0562
1212.00,0.0545
1211.00,0.0517
1210.00,0.0485
1209.00,0.0453
1208.00,0.0427
1207.00,0.0408
1206.00,0.0398
1205.00,0.0400
1204.00,0.0414
1203.00,0.0439
1202.00,0.0474
1201.00,0.0518
1200.00,0.0567
1199.00,0.0623
1198.00,0.0683
1197.00,0.0745
1196.00,0.0802
1195.00,0.0845
1194.00,0.0867
1193.00,0.0866
1192.00,0.0844
1191.00,0.0805
1190.00,0.0754
1189.00,0.0696
1188.00,0.0636
1187.00,0.0577
1186.00,0.0522
1185.00,0.0473
1184.00,0.0432
1183.00,0.0398
1182.00,0.0370
1181.00,0.0348
1180.00,0.0331
1179.00,0.0316
1178.00,0.0304
1177.00,0.0294
1176.00,0.0286
1175.00,0.0279
1174.00,0.0273
1173.00,0.0269
1172.00,0.0265
1171.00,0.0263
1170.00,0.0261
1169.00,0.0259
1168.00,0.0260
1167.00,0.0262
1166.00,0.0267
1165.00,0.0274
1164.00,0.0286
1163.00,0.0304
1162.00,0.0330
1161.00,0.0366
1160.00,0.0418
1159.00,0.0485
1158.00,0.0567
1157.00,0.0657
1156.00,0.0740
1155.00,0.0797
1154.00,0.0813
1153.00,0.0783
1152.00,0.0713
1151.00,0.0623
1150.00,0.0532
1149.00,0.0453
1148.00,0.0393
1147.00,0.0351
1146.00,0.0324
1145.00,0.0307
1144.00,0.0297
1143.00,0.0291
1142.00,0.0290
1141.00,0.0292
1140.00,0.0299
1139.00,0.0310
1138.00,0.0328
1137.00,0.0353
1136.00,0.0390
1135.00,0.0442
1134.00,0.0513
1133.00,0.0604
1132.00,0.0711
1131.00,0.0823
1130.00,0.0924
1129.00,0.0997
1128.00,0.1035
1127.00,0.1038
1126.00,0.1014
1125.00,0.0967
1124.00,0.0903
1123.00,0.0827
1122.00,0.0745
1121.00,0.0667
1120.00,0.0601
1119.00,0.0549
1118.00,0.0513
1117.00,0.0490
1116.00,0.0476
1115.00,0.0469
1114.00,0.0461
1113.00,0.0451
1112.00,0.0437
1111.00,0.0421
1110.00,0.0404
1109.00,0.0390
1108.00,0.0382
1107.00,0.0383
1106.00,0.0394
1105.00,0.0421
1104.00,0.0464
1103.00,0.0524
1102.00,0.0595
1101.00,0.0662
1100.00,0.0711
1099.00,0.0728
1098.00,0.0709
1097.00,0.0661
1096.00,0.0594
1095.00,0.0523
1094.00,0.0457
1093.00,0.0402
1092.00,0.0360
1091.00,0.0328
1090.00,0.0305
1089.00,0.0288
1088.00,0.0275
1087.00,0.0265
1086.00,0.0257
1085.00,0.0252
1084.00,0.0247
1083.00,0.0244
1082.00,0.0243
1081.00,0.0242
1080.00,0.0242
1079.00,0.0242
1078.00,0.0244
1077.00,0.0246
1076.00,0.0249
1075.00,0.0253
1074.00,0.0259
1073.00,0.0265
1072.00,0.0273
1071.00,0.0283
1070.00,0.0295
1069.00,0.0307
1068.00,0.0322
1067.00,0.0337
1066.00,0.0355
1065.00,0.0376
1064.00,0.0404
1063.00,0.0442
1062.00,0.0491
1061.00,0.0555
1060.00,0.0635
1059.00,0.0733
1058.00,0.0847
1057.00,0.0969
1056.00,0.1087
1055.00,0.1188
1054.00,0.1264
1053.00,0.1314
1052.00,0.1347
1051.00,0.1367
1050.00,0.1379
1049.00,0.1379
1048.00,0.1362
1047.00,0.1325
1046.00,0.1267
1045.00,0.1194
1044.00,0.1109
1043.00,0.1020
1042.00,0.0933
1041.00,0.0855
1040.00,0.0792
1039.00,0.0747
1038.00,0.0721
1037.00,0.0712
1036.00,0.0715
1035.00,0.0724
1034.00,0.0738
1033.00,0.0762
1032.00,0.0805
1031.00,0.0873
1030.00,0.0968
1029.00,0.1078
1028.00,0.1184
1027.00,0.1261
1026.00,0.1289
1025.00,0.1264
1024.00,0.1194
1023.00,0.1096
1022.00,0.0988
1021.00,0.0884
1020.00,0.0791
1019.00,0.0710
1018.00,0.0642
1017.00,0.0585
1016.00,0.0539
1015.00,0.0502
1014.00,0.0473
1013.00,0.0452
1012.00,0.0439
1011.00,0.0437
1010.00,0.0446
1009.00,0.0468
1008.00,0.0502
1007.00,0.0544
1006.00,0.0589
1005.00,0.0631
1004.00,0.0663
1003.00,0.0679
1002.00,0.0678
1001.00,0.0663
1000.00,0.0642
999.00,0.0618
998.00,0.0596
997.00,0.0575
996.00,0.0558
995.00,0.0543
994.00,0.0529
993.00,0.0512
992.00,0.0490
991.00,0.0463
990.00,0.0435
989.00,0.0407
988.00,0.0383
987.00,0.0362
986.00,0.0345
985.00,0.0330
984.00,0.0319
983.00,0.0309
982.00,0.0302
981.00,0.0298
980.00,0.0295
979.00,0.0294
978.00,0.0295
977.00,0.0297
976.00,0.0298
975.00,0.0298
974.00,0.0297
973.00,0.0295
972.00,0.0293
971.00,0.0291
970.00,0.0289
969.00,0.0289
968.00,0.0289
967.00,0.0291
966.00,0.0295
965.00,0.0301
964.00,0.0310
963.00,0.0319
962.00,0.0325
961.00,0.0322
960.00,0.0309
959.00,0.0291
958.00,0.0271
957.00,0.0253
956.00,0.0239
955.00,0.0228
954.00,0.0220
953.00,0.0213
952.00,0.0210
951.00,0.0212
950.00,0.0219
949.00,0.0229
948.00,0.0236
947.00,0.0237
946.00,0.0233
945.00,0.0228
944.00,0.0228
943.00,0.0233
942.00,0.0241
941.00,0.0252
940.00,0.0262
939.00,0.0271
938.00,0.0279
937.00,0.0285
936.00,0.0291
935.00,0.0300
934.00,0.0310
933.00,0.0319
932.00,0.0323
931.00,0.0322
930.00,0.0314
929.00,0.0305
928.00,0.0299
927.00,0.0297
926.00,0.0303
925.00,0.0316
924.00,0.0335
923.00,0.0354
922.00,0.0369
921.00,0.0371
920.00,0.0360
919.00,0.0337
918.00,0.0308
917.00,0.0278
916.00,0.0253
915.00,0.0233
914.00,0.0219
913.00,0.0208
912.00,0.0201
911.00,0.0196
910.00,0.0194
909.00,0.0193
908.00,0.0195
907.00,0.0200
906.00,0.0209
905.00,0.0224
904.00,0.0246
903.00,0.0276
902.00,0.0314
901.00,0.0353
900.00,0.0385
899.00,0.0402
898.00,0.0398
897.00,0.0376
896.00,0.0347
895.00,0.0320
894.00,0.0307
893.00,0.0315
892.00,0.0341
891.00,0.0375
890.00,0.0397
889.00,0.0391
888.00,0.0357
887.00,0.0311
886.00,0.0271
885.00,0.0245
884.00,0.0233
883.00,0.0231
882.00,0.0235
881.00,0.0244
880.00,0.0260
879.00,0.0284
878.00,0.0320
877.00,0.0371
876.00,0.0436
875.00,0.0514
874.00,0.0602
873.00,0.0693
872.00,0.0779
871.00,0.0848
870.00,0.0888
869.00,0.0891
868.00,0.0862
867.00,0.0813
866.00,0.0756
865.00,0.0701
864.00,0.0646
863.00,0.0590
862.00,0.0535
861.00,0.0486
860.00,0.0446
859.00,0.0421
858.00,0.0415
857.00,0.0429
856.00,0.0459
855.00,0.0500
854.00,0.0544
853.00,0.0589
852.00,0.0639
851.00,0.0695
850.00,0.0750
849.00,0.0786
848.00,0.0789
847.00,0.0757
846.00,0.0704
845.00,0.0644
844.00,0.0588
843.00,0.0544
842.00,0.0514
841.00,0.0499
840.00,0.0500
839.00,0.0521
838.00,0.0563
837.00,0.0622
836.00,0.0688
835.00,0.0748
834.00,0.0792
833.00,0.0813
832.00,0.0808
831.00,0.0776
830.00,0.0722
829.00,0.0651
828.00,0.0574
827.00,0.0505
826.00,0.0457
825.00,0.0441
824.00,0.0469
823.00,0.0550
822.00,0.0678
821.00,0.0817
820.00,0.0921
819.00,0.0980
818.00,0.1023
817.00,0.1083
816.00,0.1144
815.00,0.1154
814.00,0.1073
813.00,0.0923
812.00,0.0757
811.00,0.0616
810.00,0.0513
809.00,0.0439
808.00,0.0388
807.00,0.0350
806.00,0.0321
805.00,0.0298
804.00,0.0281
803.00,0.0268
802.00,0.0257
801.00,0.0248
800.00,0.0241
799.00,0.0236
798.00,0.0232
797.00,0.0227
796.00,0.0223
795.00,0.0219
794.00,0.0216
793.00,0.0212
792.00,0.0209
791.00,0.0207
790.00,0.0205
789.00,0.0202
788.00,0.0200
787.00,0.0198
786.00,0.0197
785.00,0.0196
784.00,0.0195
783.00,0.0196
782.00,0.0196
781.00,0.0198
780.00,0.0202
779.00,0.0211
778.00,0.0228
777.00,0.0255
776.00,0.0290
775.00,0.0322
774.00,0.0337
773.00,0.0330
772.00,0.0306
771.00,0.0277
770.00,0.0253
769.00,0.0238
768.00,0.0230
767.00,0.0225
766.00,0.0223
765.00,0.0225
764.00,0.0231
763.00,0.0242
762.00,0.0256
761.00,0.0270
760.00,0.0281
759.00,0.0285
758.00,0.0281
757.00,0.0271
756.00,0.0259
755.00,0.0247
754.00,0.0238
753.00,0.0232
752.00,0.0228
751.00,0.0226
750.00,0.0226
749.00,0.0227
748.00,0.0229
747.00,0.0232
746.00,0.0236
745.00,0.0242
744.00,0.0249
743.00,0.0259
742.00,0.0273
741.00,0.0292
740.00,0.0320
739.00,0.0363
738.00,0.0422
737.00,0.0491
736.00,0.0557
735.00,0.0600
734.00,0.0612
733.00,0.0599
732.00,0.0580
731.00,0.0574
730.00,0.0584
729.00,0.0600
728.00,0.0604
727.00,0.0584
726.00,0.0541
725.00,0.0486
724.00,0.0435
723.00,0.0394
722.00,0.0369
721.00,0.0357
720.00,0.0358
719.00,0.0372
718.00,0.0398
717.00,0.0431
716.00,0.0464
715.00,0.0486
714.00,0.0493
713.00,0.0484
712.00,0.0466
711.00,0.0444
710.00,0.0422
709.00,0.0403
708.00,0.0389
707.00,0.0382
706.00,0.0381
705.00,0.0386
704.00,0.0395
703.00,0.0407
702.00,0.0422
701.00,0.0438
700.00,0.0454
699.00,0.0467
698.00,0.0475
697.00,0.0474
696.00,0.0465
695.00,0.0449
694.00,0.0433
693.00,0.0424
692.00,0.0428
691.00,0.0447
690.00,0.0476
689.00,0.0504
688.00,0.0519
687.00,0.0516
686.00,0.0497
685.00,0.0472
684.00,0.0450
683.00,0.0436
682.00,0.0429
681.00,0.0428
680.00,0.0432
679.00,0.0441
678.00,0.0455
677.00,0.0473
676.00,0.0497
675.00,0.0524
674.00,0.0554
673.00,0.0582
672.00,0.0604
671.00,0.0618
670.00,0.0622
669.00,0.0614
668.00,0.0594
667.00,0.0574
666.00,0.0561
665.00,0.0557
664.00,0.0562
663.00,0.0573
662.00,0.0583
661.00,0.0586
660.00,0.0577
659.00,0.0558
658.00,0.0531
657.00,0.0503
656.00,0.0476
655.00,0.0454
654.00,0.0436
653.00,0.0422
652.00,0.0412
651.00,0.0404
650.00,0.0398
649.00,0.0393
648.00,0.0388
647.00,0.0384
646.00,0.0381
645.00,0.0377
644.00,0.0374
643.00,0.0371
642.00,0.0368
641.00,0.0365
640.00,0.0363
639.00,0.0362
638.00,0.0360
637.00,0.0360
636.00,0.0360
635.00,0.0361
634.00,0.0362
633.00,0.0362
632.00,0.0362
631.00,0.0364
630.00,0.0367
629.00,0.0372
628.00,0.0379
627.00,0.0389
626.00,0.0402
625.00,0.0420
624.00,0.0442
623.00,0.0467
622.00,0.0494
621.00,0.0518
620.00,0.0534
619.00,0.0540
618.00,0.0531
617.00,0.0510
616.00,0.0479
615.00,0.0446
614.00,0.0415
613.00,0.0391
612.00,0.0377
611.00,0.0375
610.00,0.0386
609.00,0.0413
608.00,0.0454
607.00,0.0505
606.00,0.0561
605.00,0.0612
604.00,0.0655
603.00,0.0687
602.00,0.0707
601.00,0.0717
600.00,0.0721
599.00,0.0721
598.00,0.0718
597.00,0.0715
596.00,0.0710
595.00,0.0704
594.00,0.0697
593.00,0.0687
592.00,0.0674
591.00,0.0659
590.00,0.0641
589.00,0.0623
588.00,0.0606
587.00,0.0591
586.00,0.0579
585.00,0.0570
584.00,0.0565
583.00,0.0566
582.00,0.0572
581.00,0.0584
580.00,0.0609
579.00,0.0647
578.00,0.0695
577.00,0.0739
576.00,0.0761
575.00,0.0751
574.00,0.0713
573.00,0.0663
572.00,0.0613
571.00,0.0569
570.00,0.0534
569.00,0.0508
568.00,0.0493
567.00,0.0491
566.00,0.0501
565.00,0.0522
564.00,0.0550
563.00,0.0583
562.00,0.0619
561.00,0.0653
560.00,0.0678
559.00,0.0686
558.00,0.0676
557.00,0.0653
556.00,0.0627
555.00,0.0602
554.00,0.0585
553.00,0.0578
552.00,0.0586
551.00,0.0608
550.00,0.0643
549.00,0.0686
548.00,0.0728
547.00,0.0761
546.00,0.0778
545.00,0.0775
544.00,0.0757
543.00,0.0727
542.00,0.0694
541.00,0.0662
540.00,0.0637
539.00,0.0617
538.00,0.0605
537.00,0.0600
536.00,0.0607
535.00,0.0627
534.00,0.0658
533.00,0.0696
532.00,0.0730
531.00,0.0750
530.00,0.0747
529.00,0.0723
528.00,0.0685
527.00,0.0640
526.00,0.0594
525.00,0.0553
524.00,0.0518
523.00,0.0489
522.00,0.0466
521.00,0.0446
520.00,0.0430
519.00,0.0417
518.00,0.0406
517.00,0.0397
516.00,0.0389
515.00,0.0382
514.00,0.0378
513.00,0.0377
512.00,0.0379
511.00,0.0384
510.00,0.0392
509.00,0.0402
508.00,0.0413
507.00,0.0423
506.00,0.0429
505.00,0.0428
504.00,0.0420
503.00,0.0406
502.00,0.0389
501.00,0.0374
500.00,0.0363
499.00,0.0356
498.00,0.0352
497.00,0.0354
496.00,0.0361
495.00,0.0376
494.00,0.0394
493.00,0.0410
492.00,0.0420
491.00,0.0420
490.00,0.0412
489.00,0.0398
488.00,0.0382
487.00,0.0366
486.00,0.0351
485.00,0.0337
484.00,0.0327
483.00,0.0320
482.00,0.0315
481.00,0.0311
480.00,0.0307
479.00,0.0302
478.00,0.0297
477.00,0.0290
476.00,0.0284
475.00,0.0280
474.00,0.0277
473.00,0.0276
472.00,0.0276
471.00,0.0274
470.00,0.0271
469.00,0.0267
468.00,0.0264
467.00,0.0263
466.00,0.0262
465.00,0.0261
464.00,0.0257
463.00,0.0254
462.00,0.0252
461.00,0.0251
460.00,0.0251
459.00,0.0254
458.00,0.0258
457.00,0.0261
456.00,0.0263
455.00,0.0265
454.00,0.0265
453.00,0.0264
452.00,0.0262
451.00,0.0259
450.00,0.0254
449.00,0.0249
448.00,0.0244
447.00,0.0240
446.00,0.0236
445.00,0.0232
444.00,0.0230
443.00,0.0232
442.00,0.0240
441.00,0.0248
440.00,0.0255
439.00,0.0258
438.00,0.0256
437.00,0.0249
436.00,0.0239
435.00,0.0229
434.00,0.0221
433.00,0.0216
432.00,0.0211
431.00,0.0209
430.00,0.0208
429.00,0.0207
428.00,0.0205
427.00,0.0203
426.00,0.0199
425.00,0.0194
424.00,0.0188
423.00,0.0185
422.00,0.0187
421.00,0.0191
420.00,0.0194
419.00,0.0196
418.00,0.0199
417.00,0.0202
416.00,0.0207
415.00,0.0218
414.00,0.0238
413.00,0.0264
412.00,0.0290
411.00,0.0313
410.00,0.0332
409.00,0.0340
408.00,0.0335
407.00,0.0316
406.00,0.0291
405.00,0.0266
404.00,0.0243
403.00,0.0222
402.00,0.0207
401.00,0.0204
400.00,0.0215
