Created as New Dataset,Sample 850 By YargerLab Date Monday, July 21 2025
cm-1,A
4000.00,0.0042
3999.00,0.0043
3998.00,0.0043
3997.00,0.0043
3996.00,0.0043
3995.00,0.0043
3994.00,0.0043
3993.00,0.0042
3992.00,0.0042
3991.00,0.0042
3990.00,0.0042
3989.00,0.0042
3988.00,0.0042
3987.00,0.0042
3986.00,0.0042
3985.00,0.0042
3984.00,0.0042
3983.00,0.0042
3982.00,0.0042
3981.00,0.0042
3980.00,0.0042
3979.00,0.0042
3978.00,0.0042
3977.00,0.0042
3976.00,0.0042
3975.00,0.0041
3974.00,0.0042
3973.00,0.0042
3972.00,0.0042
3971.00,0.0042
3970.00,0.0042
3969.00,0.0042
3968.00,0.0042
3967.00,0.0042
3966.00,0.0042
3965.00,0.0041
3964.00,0.0041
3963.00,0.0041
3962.00,0.0041
3961.00,0.0042
3960.00,0.0042
3959.00,0.0042
3958.00,0.0042
3957.00,0.0042
3956.00,0.0042
3955.00,0.0042
3954.00,0.0042
3953.00,0.0042
3952.00,0.0042
3951.00,0.0042
3950.00,0.0041
3949.00,0.0041
3948.00,0.0041
3947.00,0.0041
3946.00,0.0041
3945.00,0.0041
3944.00,0.0041
3943.00,0.0041
3942.00,0.0041
3941.00,0.0041
3940.00,0.0041
3939.00,0.0041
3938.00,0.0041
3937.00,0.0041
3936.00,0.0041
3935.00,0.0041
3934.00,0.0041
3933.00,0.0041
3932.00,0.0041
3931.00,0.0041
3930.00,0.0041
3929.00,0.0041
3928.00,0.0041
3927.00,0.0041
3926.00,0.0041
3925.00,0.0041
3924.00,0.0042
3923.00,0.0042
3922.00,0.0041
3921.00,0.0041
3920.00,0.0041
3919.00,0.0041
3918.00,0.0041
3917.00,0.0041
3916.00,0.0041
3915.00,0.0041
3914.00,0.0041
3913.00,0.0041
3912.00,0.0042
3911.00,0.0042
3910.00,0.0042
3909.00,0.0042
3908.00,0.0042
3907.00,0.0041
3906.00,0.0041
3905.00,0.0041
3904.00,0.0040
3903.00,0.0040
3902.00,0.0040
3901.00,0.0040
3900.00,0.0039
3899.00,0.0040
3898.00,0.0040
3897.00,0.0040
3896.00,0.0040
3895.00,0.0040
3894.00,0.0041
3893.00,0.0041
3892.00,0.0041
3891.00,0.0041
3890.00,0.0041
3889.00,0.0040
3888.00,0.0040
3887.00,0.0040
3886.00,0.0040
3885.00,0.0040
3884.00,0.0040
3883.00,0.0039
3882.00,0.0039
3881.00,0.0040
3880.00,0.0041
3879.00,0.0041
3878.00,0.0041
3877.00,0.0041
3876.00,0.0040
3875.00,0.0040
3874.00,0.0040
3873.00,0.0040
3872.00,0.0040
3871.00,0.0039
3870.00,0.0039
3869.00,0.0040
3868.00,0.0040
3867.00,0.0039
3866.00,0.0039
3865.00,0.0039
3864.00,0.0040
3863.00,0.0040
3862.00,0.0039
3861.00,0.0040
3860.00,0.0040
3859.00,0.0040
3858.00,0.0040
3857.00,0.0040
3856.00,0.0040
3855.00,0.0040
3854.00,0.0039
3853.00,0.0039
3852.00,0.0039
3851.00,0.0038
3850.00,0.0038
3849.00,0.0039
3848.00,0.0040
3847.00,0.0041
3846.00,0.0041
3845.00,0.0041
3844.00,0.0041
3843.00,0.0041
3842.00,0.0040
3841.00,0.0040
3840.00,0.0040
3839.00,0.0040
3838.00,0.0040
3837.00,0.0040
3836.00,0.0040
3835.00,0.0040
3834.00,0.0040
3833.00,0.0040
3832.00,0.0040
3831.00,0.0041
3830.00,0.0041
3829.00,0.0040
3828.00,0.0041
3827.00,0.0041
3826.00,0.0041
3825.00,0.0041
3824.00,0.0040
3823.00,0.0040
3822.00,0.0040
3821.00,0.0040
3820.00,0.0040
3819.00,0.0040
3818.00,0.0039
3817.00,0.0040
3816.00,0.0041
3815.00,0.0041
3814.00,0.0041
3813.00,0.0041
3812.00,0.0041
3811.00,0.0041
3810.00,0.0042
3809.00,0.0042
3808.00,0.0042
3807.00,0.0042
3806.00,0.0042
3805.00,0.0041
3804.00,0.0040
3803.00,0.0040
3802.00,0.0040
3801.00,0.0041
3800.00,0.0040
3799.00,0.0040
3798.00,0.0040
3797.00,0.0040
3796.00,0.0041
3795.00,0.0042
3794.00,0.0042
3793.00,0.0042
3792.00,0.0042
3791.00,0.0042
3790.00,0.0042
3789.00,0.0042
3788.00,0.0042
3787.00,0.0042
3786.00,0.0042
3785.00,0.0042
3784.00,0.0042
3783.00,0.0042
3782.00,0.0042
3781.00,0.0042
3780.00,0.0042
3779.00,0.0042
3778.00,0.0042
3777.00,0.0042
3776.00,0.0042
3775.00,0.0042
3774.00,0.0042
3773.00,0.0042
3772.00,0.0043
3771.00,0.0042
3770.00,0.0042
3769.00,0.0042
3768.00,0.0042
3767.00,0.0042
3766.00,0.0041
3765.00,0.0042
3764.00,0.0042
3763.00,0.0042
3762.00,0.0041
3761.00,0.0042
3760.00,0.0042
3759.00,0.0042
3758.00,0.0041
3757.00,0.0041
3756.00,0.0041
3755.00,0.0041
3754.00,0.0040
3753.00,0.0040
3752.00,0.0040
3751.00,0.0040
3750.00,0.0039
3749.00,0.0038
3748.00,0.0038
3747.00,0.0038
3746.00,0.0037
3745.00,0.0038
3744.00,0.0039
3743.00,0.0040
3742.00,0.0039
3741.00,0.0038
3740.00,0.0039
3739.00,0.0040
3738.00,0.0040
3737.00,0.0039
3736.00,0.0039
3735.00,0.0039
3734.00,0.0039
3733.00,0.0038
3732.00,0.0039
3731.00,0.0040
3730.00,0.0041
3729.00,0.0040
3728.00,0.0040
3727.00,0.0041
3726.00,0.0041
3725.00,0.0041
3724.00,0.0041
3723.00,0.0041
3722.00,0.0041
3721.00,0.0041
3720.00,0.0041
3719.00,0.0041
3718.00,0.0041
3717.00,0.0041
3716.00,0.0041
3715.00,0.0041
3714.00,0.0041
3713.00,0.0041
3712.00,0.0041
3711.00,0.0040
3710.00,0.0040
3709.00,0.0040
3708.00,0.0040
3707.00,0.0041
3706.00,0.0041
3705.00,0.0041
3704.00,0.0041
3703.00,0.0042
3702.00,0.0042
3701.00,0.0042
3700.00,0.0042
3699.00,0.0042
3698.00,0.0042
3697.00,0.0041
3696.00,0.0042
3695.00,0.0042
3694.00,0.0042
3693.00,0.0042
3692.00,0.0042
3691.00,0.0043
3690.00,0.0043
3689.00,0.0042
3688.00,0.0043
3687.00,0.0044
3686.00,0.0044
3685.00,0.0044
3684.00,0.0045
3683.00,0.0046
3682.00,0.0047
3681.00,0.0047
3680.00,0.0047
3679.00,0.0047
3678.00,0.0047
3677.00,0.0046
3676.00,0.0045
3675.00,0.0046
3674.00,0.0046
3673.00,0.0045
3672.00,0.0044
3671.00,0.0045
3670.00,0.0047
3669.00,0.0047
3668.00,0.0047
3667.00,0.0048
3666.00,0.0050
3665.00,0.0051
3664.00,0.0051
3663.00,0.0052
3662.00,0.0053
3661.00,0.0053
3660.00,0.0052
3659.00,0.0052
3658.00,0.0053
3657.00,0.0053
3656.00,0.0053
3655.00,0.0053
3654.00,0.0053
3653.00,0.0054
3652.00,0.0053
3651.00,0.0053
3650.00,0.0054
3649.00,0.0055
3648.00,0.0054
3647.00,0.0054
3646.00,0.0056
3645.00,0.0057
3644.00,0.0058
3643.00,0.0059
3642.00,0.0060
3641.00,0.0061
3640.00,0.0062
3639.00,0.0062
3638.00,0.0063
3637.00,0.0064
3636.00,0.0065
3635.00,0.0065
3634.00,0.0066
3633.00,0.0067
3632.00,0.0067
3631.00,0.0067
3630.00,0.0068
3629.00,0.0069
3628.00,0.0070
3627.00,0.0070
3626.00,0.0071
3625.00,0.0072
3624.00,0.0073
3623.00,0.0074
3622.00,0.0074
3621.00,0.0075
3620.00,0.0076
3619.00,0.0076
3618.00,0.0077
3617.00,0.0077
3616.00,0.0079
3615.00,0.0080
3614.00,0.0081
3613.00,0.0082
3612.00,0.0083
3611.00,0.0085
3610.00,0.0086
3609.00,0.0087
3608.00,0.0089
3607.00,0.0090
3606.00,0.0091
3605.00,0.0092
3604.00,0.0094
3603.00,0.0095
3602.00,0.0096
3601.00,0.0097
3600.00,0.0098
3599.00,0.0100
3598.00,0.0101
3597.00,0.0102
3596.00,0.0104
3595.00,0.0105
3594.00,0.0107
3593.00,0.0107
3592.00,0.0109
3591.00,0.0110
3590.00,0.0111
3589.00,0.0112
3588.00,0.0113
3587.00,0.0115
3586.00,0.0116
3585.00,0.0118
3584.00,0.0120
3583.00,0.0122
3582.00,0.0124
3581.00,0.0125
3580.00,0.0127
3579.00,0.0128
3578.00,0.0130
3577.00,0.0131
3576.00,0.0133
3575.00,0.0135
3574.00,0.0136
3573.00,0.0138
3572.00,0.0140
3571.00,0.0142
3570.00,0.0143
3569.00,0.0145
3568.00,0.0146
3567.00,0.0147
3566.00,0.0148
3565.00,0.0149
3564.00,0.0151
3563.00,0.0154
3562.00,0.0156
3561.00,0.0158
3560.00,0.0159
3559.00,0.0161
3558.00,0.0163
3557.00,0.0164
3556.00,0.0166
3555.00,0.0168
3554.00,0.0170
3553.00,0.0171
3552.00,0.0172
3551.00,0.0173
3550.00,0.0174
3549.00,0.0176
3548.00,0.0177
3547.00,0.0179
3546.00,0.0181
3545.00,0.0182
3544.00,0.0183
3543.00,0.0185
3542.00,0.0187
3541.00,0.0188
3540.00,0.0190
3539.00,0.0191
3538.00,0.0193
3537.00,0.0194
3536.00,0.0195
3535.00,0.0196
3534.00,0.0197
3533.00,0.0198
3532.00,0.0199
3531.00,0.0201
3530.00,0.0202
3529.00,0.0203
3528.00,0.0203
3527.00,0.0205
3526.00,0.0206
3525.00,0.0207
3524.00,0.0207
3523.00,0.0208
3522.00,0.0209
3521.00,0.0210
3520.00,0.0211
3519.00,0.0212
3518.00,0.0214
3517.00,0.0215
3516.00,0.0216
3515.00,0.0216
3514.00,0.0217
3513.00,0.0218
3512.00,0.0219
3511.00,0.0219
3510.00,0.0220
3509.00,0.0221
3508.00,0.0222
3507.00,0.0223
3506.00,0.0224
3505.00,0.0225
3504.00,0.0225
3503.00,0.0226
3502.00,0.0226
3501.00,0.0227
3500.00,0.0228
3499.00,0.0229
3498.00,0.0230
3497.00,0.0230
3496.00,0.0231
3495.00,0.0232
3494.00,0.0232
3493.00,0.0233
3492.00,0.0234
3491.00,0.0234
3490.00,0.0235
3489.00,0.0236
3488.00,0.0236
3487.00,0.0236
3486.00,0.0237
3485.00,0.0237
3484.00,0.0238
3483.00,0.0238
3482.00,0.0239
3481.00,0.0240
3480.00,0.0240
3479.00,0.0241
3478.00,0.0241
3477.00,0.0242
3476.00,0.0243
3475.00,0.0243
3474.00,0.0244
3473.00,0.0244
3472.00,0.0245
3471.00,0.0246
3470.00,0.0246
3469.00,0.0247
3468.00,0.0248
3467.00,0.0248
3466.00,0.0248
3465.00,0.0248
3464.00,0.0249
3463.00,0.0249
3462.00,0.0250
3461.00,0.0250
3460.00,0.0251
3459.00,0.0251
3458.00,0.0252
3457.00,0.0252
3456.00,0.0252
3455.00,0.0253
3454.00,0.0253
3453.00,0.0254
3452.00,0.0254
3451.00,0.0255
3450.00,0.0255
3449.00,0.0255
3448.00,0.0255
3447.00,0.0255
3446.00,0.0255
3445.00,0.0255
3444.00,0.0256
3443.00,0.0256
3442.00,0.0256
3441.00,0.0257
3440.00,0.0257
3439.00,0.0257
3438.00,0.0258
3437.00,0.0258
3436.00,0.0258
3435.00,0.0258
3434.00,0.0258
3433.00,0.0258
3432.00,0.0258
3431.00,0.0258
3430.00,0.0258
3429.00,0.0258
3428.00,0.0258
3427.00,0.0258
3426.00,0.0258
3425.00,0.0258
3424.00,0.0258
3423.00,0.0258
3422.00,0.0258
3421.00,0.0258
3420.00,0.0258
3419.00,0.0257
3418.00,0.0257
3417.00,0.0257
3416.00,0.0257
3415.00,0.0257
3414.00,0.0257
3413.00,0.0257
3412.00,0.0257
3411.00,0.0256
3410.00,0.0256
3409.00,0.0256
3408.00,0.0256
3407.00,0.0255
3406.00,0.0255
3405.00,0.0255
3404.00,0.0254
3403.00,0.0254
3402.00,0.0254
3401.00,0.0254
3400.00,0.0253
3399.00,0.0253
3398.00,0.0252
3397.00,0.0251
3396.00,0.0251
3395.00,0.0250
3394.00,0.0250
3393.00,0.0249
3392.00,0.0248
3391.00,0.0248
3390.00,0.0247
3389.00,0.0247
3388.00,0.0246
3387.00,0.0246
3386.00,0.0245
3385.00,0.0245
3384.00,0.0244
3383.00,0.0243
3382.00,0.0242
3381.00,0.0242
3380.00,0.0241
3379.00,0.0240
3378.00,0.0240
3377.00,0.0239
3376.00,0.0238
3375.00,0.0237
3374.00,0.0236
3373.00,0.0236
3372.00,0.0235
3371.00,0.0234
3370.00,0.0233
3369.00,0.0232
3368.00,0.0231
3367.00,0.0231
3366.00,0.0230
3365.00,0.0230
3364.00,0.0229
3363.00,0.0229
3362.00,0.0228
3361.00,0.0227
3360.00,0.0226
3359.00,0.0225
3358.00,0.0224
3357.00,0.0223
3356.00,0.0223
3355.00,0.0222
3354.00,0.0221
3353.00,0.0220
3352.00,0.0219
3351.00,0.0218
3350.00,0.0218
3349.00,0.0218
3348.00,0.0218
3347.00,0.0217
3346.00,0.0216
3345.00,0.0215
3344.00,0.0214
3343.00,0.0213
3342.00,0.0213
3341.00,0.0212
3340.00,0.0211
3339.00,0.0211
3338.00,0.0210
3337.00,0.0210
3336.00,0.0210
3335.00,0.0209
3334.00,0.0209
3333.00,0.0209
3332.00,0.0208
3331.00,0.0208
3330.00,0.0207
3329.00,0.0206
3328.00,0.0205
3327.00,0.0204
3326.00,0.0204
3325.00,0.0203
3324.00,0.0203
3323.00,0.0203
3322.00,0.0203
3321.00,0.0203
3320.00,0.0203
3319.00,0.0202
3318.00,0.0202
3317.00,0.0201
3316.00,0.0201
3315.00,0.0200
3314.00,0.0199
3313.00,0.0199
3312.00,0.0198
3311.00,0.0197
3310.00,0.0196
3309.00,0.0195
3308.00,0.0194
3307.00,0.0194
3306.00,0.0193
3305.00,0.0193
3304.00,0.0194
3303.00,0.0195
3302.00,0.0195
3301.00,0.0195
3300.00,0.0195
3299.00,0.0194
3298.00,0.0193
3297.00,0.0192
3296.00,0.0191
3295.00,0.0191
3294.00,0.0190
3293.00,0.0190
3292.00,0.0190
3291.00,0.0190
3290.00,0.0190
3289.00,0.0190
3288.00,0.0190
3287.00,0.0190
3286.00,0.0189
3285.00,0.0189
3284.00,0.0188
3283.00,0.0188
3282.00,0.0187
3281.00,0.0186
3280.00,0.0186
3279.00,0.0185
3278.00,0.0185
3277.00,0.0184
3276.00,0.0183
3275.00,0.0182
3274.00,0.0181
3273.00,0.0180
3272.00,0.0179
3271.00,0.0178
3270.00,0.0178
3269.00,0.0178
3268.00,0.0178
3267.00,0.0178
3266.00,0.0177
3265.00,0.0176
3264.00,0.0176
3263.00,0.0175
3262.00,0.0174
3261.00,0.0173
3260.00,0.0173
3259.00,0.0172
3258.00,0.0171
3257.00,0.0170
3256.00,0.0170
3255.00,0.0169
3254.00,0.0168
3253.00,0.0167
3252.00,0.0167
3251.00,0.0166
3250.00,0.0165
3249.00,0.0164
3248.00,0.0163
3247.00,0.0162
3246.00,0.0161
3245.00,0.0161
3244.00,0.0160
3243.00,0.0160
3242.00,0.0159
3241.00,0.0158
3240.00,0.0157
3239.00,0.0157
3238.00,0.0155
3237.00,0.0154
3236.00,0.0153
3235.00,0.0152
3234.00,0.0152
3233.00,0.0151
3232.00,0.0150
3231.00,0.0150
3230.00,0.0149
3229.00,0.0149
3228.00,0.0148
3227.00,0.0147
3226.00,0.0147
3225.00,0.0146
3224.00,0.0145
3223.00,0.0144
3222.00,0.0143
3221.00,0.0142
3220.00,0.0141
3219.00,0.0141
3218.00,0.0140
3217.00,0.0139
3216.00,0.0138
3215.00,0.0137
3214.00,0.0136
3213.00,0.0135
3212.00,0.0135
3211.00,0.0134
3210.00,0.0133
3209.00,0.0133
3208.00,0.0132
3207.00,0.0131
3206.00,0.0130
3205.00,0.0129
3204.00,0.0129
3203.00,0.0128
3202.00,0.0127
3201.00,0.0126
3200.00,0.0126
3199.00,0.0125
3198.00,0.0124
3197.00,0.0123
3196.00,0.0123
3195.00,0.0122
3194.00,0.0121
3193.00,0.0121
3192.00,0.0120
3191.00,0.0120
3190.00,0.0119
3189.00,0.0118
3188.00,0.0117
3187.00,0.0117
3186.00,0.0116
3185.00,0.0115
3184.00,0.0115
3183.00,0.0114
3182.00,0.0114
3181.00,0.0113
3180.00,0.0113
3179.00,0.0112
3178.00,0.0111
3177.00,0.0110
3176.00,0.0110
3175.00,0.0109
3174.00,0.0108
3173.00,0.0108
3172.00,0.0107
3171.00,0.0107
3170.00,0.0107
3169.00,0.0106
3168.00,0.0106
3167.00,0.0106
3166.00,0.0105
3165.00,0.0104
3164.00,0.0104
3163.00,0.0103
3162.00,0.0103
3161.00,0.0102
3160.00,0.0102
3159.00,0.0102
3158.00,0.0101
3157.00,0.0100
3156.00,0.0100
3155.00,0.0100
3154.00,0.0099
3153.00,0.0099
3152.00,0.0099
3151.00,0.0098
3150.00,0.0097
3149.00,0.0096
3148.00,0.0096
3147.00,0.0095
3146.00,0.0095
3145.00,0.0095
3144.00,0.0094
3143.00,0.0094
3142.00,0.0093
3141.00,0.0093
3140.00,0.0093
3139.00,0.0092
3138.00,0.0092
3137.00,0.0091
3136.00,0.0091
3135.00,0.0091
3134.00,0.0090
3133.00,0.0090
3132.00,0.0090
3131.00,0.0089
3130.00,0.0089
3129.00,0.0088
3128.00,0.0088
3127.00,0.0088
3126.00,0.0087
3125.00,0.0087
3124.00,0.0087
3123.00,0.0086
3122.00,0.0086
3121.00,0.0086
3120.00,0.0086
3119.00,0.0086
3118.00,0.0085
3117.00,0.0085
3116.00,0.0085
3115.00,0.0085
3114.00,0.0085
3113.00,0.0084
3112.00,0.0084
3111.00,0.0084
3110.00,0.0084
3109.00,0.0083
3108.00,0.0083
3107.00,0.0082
3106.00,0.0082
3105.00,0.0082
3104.00,0.0082
3103.00,0.0082
3102.00,0.0081
3101.00,0.0081
3100.00,0.0081
3099.00,0.0081
3098.00,0.0081
3097.00,0.0080
3096.00,0.0080
3095.00,0.0080
3094.00,0.0079
3093.00,0.0079
3092.00,0.0079
3091.00,0.0079
3090.00,0.0078
3089.00,0.0078
3088.00,0.0078
3087.00,0.0077
3086.00,0.0077
3085.00,0.0077
3084.00,0.0076
3083.00,0.0076
3082.00,0.0076
3081.00,0.0076
3080.00,0.0076
3079.00,0.0076
3078.00,0.0075
3077.00,0.0075
3076.00,0.0075
3075.00,0.0075
3074.00,0.0075
3073.00,0.0075
3072.00,0.0075
3071.00,0.0074
3070.00,0.0074
3069.00,0.0074
3068.00,0.0074
3067.00,0.0074
3066.00,0.0074
3065.00,0.0073
3064.00,0.0073
3063.00,0.0073
3062.00,0.0073
3061.00,0.0073
3060.00,0.0073
3059.00,0.0073
3058.00,0.0072
3057.00,0.0072
3056.00,0.0072
3055.00,0.0072
3054.00,0.0071
3053.00,0.0071
3052.00,0.0071
3051.00,0.0071
3050.00,0.0071
3049.00,0.0071
3048.00,0.0071
3047.00,0.0071
3046.00,0.0071
3045.00,0.0071
3044.00,0.0071
3043.00,0.0071
3042.00,0.0071
3041.00,0.0071
3040.00,0.0071
3039.00,0.0071
3038.00,0.0071
3037.00,0.0071
3036.00,0.0071
3035.00,0.0071
3034.00,0.0071
3033.00,0.0071
3032.00,0.0071
3031.00,0.0071
3030.00,0.0071
3029.00,0.0071
3028.00,0.0071
3027.00,0.0072
3026.00,0.0072
3025.00,0.0072
3024.00,0.0073
3023.00,0.0073
3022.00,0.0074
3021.00,0.0074
3020.00,0.0075
3019.00,0.0075
3018.00,0.0076
3017.00,0.0076
3016.00,0.0077
3015.00,0.0078
3014.00,0.0080
3013.00,0.0081
3012.00,0.0082
3011.00,0.0083
3010.00,0.0085
3009.00,0.0086
3008.00,0.0088
3007.00,0.0090
3006.00,0.0092
3005.00,0.0094
3004.00,0.0097
3003.00,0.0100
3002.00,0.0102
3001.00,0.0105
3000.00,0.0108
2999.00,0.0111
2998.00,0.0114
2997.00,0.0117
2996.00,0.0120
2995.00,0.0124
2994.00,0.0127
2993.00,0.0130
2992.00,0.0134
2991.00,0.0137
2990.00,0.0141
2989.00,0.0145
2988.00,0.0148
2987.00,0.0152
2986.00,0.0155
2985.00,0.0158
2984.00,0.0161
2983.00,0.0164
2982.00,0.0167
2981.00,0.0170
2980.00,0.0172
2979.00,0.0175
2978.00,0.0177
2977.00,0.0179
2976.00,0.0181
2975.00,0.0183
2974.00,0.0186
2973.00,0.0189
2972.00,0.0191
2971.00,0.0194
2970.00,0.0196
2969.00,0.0199
2968.00,0.0201
2967.00,0.0204
2966.00,0.0206
2965.00,0.0208
2964.00,0.0210
2963.00,0.0212
2962.00,0.0214
2961.00,0.0216
2960.00,0.0217
2959.00,0.0219
2958.00,0.0220
2957.00,0.0221
2956.00,0.0221
2955.00,0.0222
2954.00,0.0222
2953.00,0.0223
2952.00,0.0223
2951.00,0.0222
2950.00,0.0222
2949.00,0.0221
2948.00,0.0220
2947.00,0.0218
2946.00,0.0217
2945.00,0.0216
2944.00,0.0214
2943.00,0.0212
2942.00,0.0211
2941.00,0.0209
2940.00,0.0208
2939.00,0.0207
2938.00,0.0206
2937.00,0.0205
2936.00,0.0205
2935.00,0.0205
2934.00,0.0205
2933.00,0.0205
2932.00,0.0206
2931.00,0.0206
2930.00,0.0207
2929.00,0.0208
2928.00,0.0208
2927.00,0.0209
2926.00,0.0210
2925.00,0.0210
2924.00,0.0211
2923.00,0.0211
2922.00,0.0210
2921.00,0.0210
2920.00,0.0209
2919.00,0.0208
2918.00,0.0207
2917.00,0.0205
2916.00,0.0204
2915.00,0.0202
2914.00,0.0200
2913.00,0.0198
2912.00,0.0196
2911.00,0.0193
2910.00,0.0191
2909.00,0.0189
2908.00,0.0187
2907.00,0.0185
2906.00,0.0184
2905.00,0.0183
2904.00,0.0182
2903.00,0.0181
2902.00,0.0181
2901.00,0.0181
2900.00,0.0181
2899.00,0.0181
2898.00,0.0181
2897.00,0.0182
2896.00,0.0182
2895.00,0.0183
2894.00,0.0183
2893.00,0.0184
2892.00,0.0184
2891.00,0.0184
2890.00,0.0184
2889.00,0.0184
2888.00,0.0184
2887.00,0.0184
2886.00,0.0183
2885.00,0.0183
2884.00,0.0183
2883.00,0.0183
2882.00,0.0182
2881.00,0.0182
2880.00,0.0182
2879.00,0.0181
2878.00,0.0181
2877.00,0.0180
2876.00,0.0179
2875.00,0.0178
2874.00,0.0177
2873.00,0.0176
2872.00,0.0175
2871.00,0.0174
2870.00,0.0173
2869.00,0.0172
2868.00,0.0171
2867.00,0.0170
2866.00,0.0169
2865.00,0.0167
2864.00,0.0166
2863.00,0.0165
2862.00,0.0163
2861.00,0.0161
2860.00,0.0160
2859.00,0.0158
2858.00,0.0156
2857.00,0.0154
2856.00,0.0152
2855.00,0.0149
2854.00,0.0147
2853.00,0.0144
2852.00,0.0141
2851.00,0.0138
2850.00,0.0135
2849.00,0.0132
2848.00,0.0129
2847.00,0.0127
2846.00,0.0125
2845.00,0.0122
2844.00,0.0120
2843.00,0.0118
2842.00,0.0115
2841.00,0.0113
2840.00,0.0111
2839.00,0.0109
2838.00,0.0108
2837.00,0.0106
2836.00,0.0105
2835.00,0.0104
2834.00,0.0102
2833.00,0.0101
2832.00,0.0100
2831.00,0.0099
2830.00,0.0097
2829.00,0.0096
2828.00,0.0094
2827.00,0.0093
2826.00,0.0091
2825.00,0.0090
2824.00,0.0088
2823.00,0.0087
2822.00,0.0086
2821.00,0.0085
2820.00,0.0084
2819.00,0.0083
2818.00,0.0082
2817.00,0.0081
2816.00,0.0080
2815.00,0.0080
2814.00,0.0079
2813.00,0.0078
2812.00,0.0077
2811.00,0.0077
2810.00,0.0076
2809.00,0.0076
2808.00,0.0075
2807.00,0.0075
2806.00,0.0075
2805.00,0.0074
2804.00,0.0074
2803.00,0.0074
2802.00,0.0073
2801.00,0.0073
2800.00,0.0073
2799.00,0.0072
2798.00,0.0072
2797.00,0.0071
2796.00,0.0071
2795.00,0.0071
2794.00,0.0071
2793.00,0.0071
2792.00,0.0070
2791.00,0.0070
2790.00,0.0070
2789.00,0.0069
2788.00,0.0069
2787.00,0.0069
2786.00,0.0069
2785.00,0.0069
2784.00,0.0069
2783.00,0.0069
2782.00,0.0068
2781.00,0.0068
2780.00,0.0068
2779.00,0.0068
2778.00,0.0067
2777.00,0.0067
2776.00,0.0067
2775.00,0.0067
2774.00,0.0067
2773.00,0.0066
2772.00,0.0066
2771.00,0.0066
2770.00,0.0066
2769.00,0.0066
2768.00,0.0066
2767.00,0.0066
2766.00,0.0066
2765.00,0.0065
2764.00,0.0065
2763.00,0.0065
2762.00,0.0065
2761.00,0.0065
2760.00,0.0065
2759.00,0.0065
2758.00,0.0065
2757.00,0.0065
2756.00,0.0065
2755.00,0.0065
2754.00,0.0065
2753.00,0.0065
2752.00,0.0065
2751.00,0.0065
2750.00,0.0065
2749.00,0.0064
2748.00,0.0064
2747.00,0.0064
2746.00,0.0064
2745.00,0.0064
2744.00,0.0065
2743.00,0.0065
2742.00,0.0065
2741.00,0.0065
2740.00,0.0065
2739.00,0.0064
2738.00,0.0064
2737.00,0.0064
2736.00,0.0065
2735.00,0.0065
2734.00,0.0064
2733.00,0.0064
2732.00,0.0064
2731.00,0.0064
2730.00,0.0064
2729.00,0.0064
2728.00,0.0064
2727.00,0.0064
2726.00,0.0064
2725.00,0.0063
2724.00,0.0063
2723.00,0.0063
2722.00,0.0063
2721.00,0.0063
2720.00,0.0063
2719.00,0.0063
2718.00,0.0063
2717.00,0.0063
2716.00,0.0063
2715.00,0.0062
2714.00,0.0062
2713.00,0.0062
2712.00,0.0062
2711.00,0.0062
2710.00,0.0062
2709.00,0.0062
2708.00,0.0062
2707.00,0.0062
2706.00,0.0062
2705.00,0.0062
2704.00,0.0062
2703.00,0.0062
2702.00,0.0062
2701.00,0.0062
2700.00,0.0062
2699.00,0.0062
2698.00,0.0061
2697.00,0.0061
2696.00,0.0061
2695.00,0.0061
2694.00,0.0061
2693.00,0.0061
2692.00,0.0061
2691.00,0.0061
2690.00,0.0061
2689.00,0.0061
2688.00,0.0061
2687.00,0.0061
2686.00,0.0061
2685.00,0.0060
2684.00,0.0060
2683.00,0.0060
2682.00,0.0060
2681.00,0.0060
2680.00,0.0060
2679.00,0.0060
2678.00,0.0060
2677.00,0.0060
2676.00,0.0060
2675.00,0.0060
2674.00,0.0060
2673.00,0.0060
2672.00,0.0061
2671.00,0.0061
2670.00,0.0061
2669.00,0.0061
2668.00,0.0061
2667.00,0.0061
2666.00,0.0062
2665.00,0.0062
2664.00,0.0063
2663.00,0.0063
2662.00,0.0064
2661.00,0.0064
2660.00,0.0065
2659.00,0.0065
2658.00,0.0065
2657.00,0.0065
2656.00,0.0065
2655.00,0.0065
2654.00,0.0066
2653.00,0.0066
2652.00,0.0066
2651.00,0.0066
2650.00,0.0066
2649.00,0.0066
2648.00,0.0066
2647.00,0.0066
2646.00,0.0066
2645.00,0.0065
2644.00,0.0065
2643.00,0.0065
2642.00,0.0065
2641.00,0.0065
2640.00,0.0065
2639.00,0.0065
2638.00,0.0065
2637.00,0.0065
2636.00,0.0065
2635.00,0.0065
2634.00,0.0065
2633.00,0.0065
2632.00,0.0065
2631.00,0.0065
2630.00,0.0065
2629.00,0.0064
2628.00,0.0064
2627.00,0.0064
2626.00,0.0064
2625.00,0.0064
2624.00,0.0064
2623.00,0.0063
2622.00,0.0063
2621.00,0.0063
2620.00,0.0063
2619.00,0.0063
2618.00,0.0063
2617.00,0.0063
2616.00,0.0063
2615.00,0.0063
2614.00,0.0063
2613.00,0.0063
2612.00,0.0063
2611.00,0.0063
2610.00,0.0062
2609.00,0.0062
2608.00,0.0062
2607.00,0.0062
2606.00,0.0061
2605.00,0.0061
2604.00,0.0062
2603.00,0.0062
2602.00,0.0062
2601.00,0.0062
2600.00,0.0062
2599.00,0.0062
2598.00,0.0062
2597.00,0.0062
2596.00,0.0062
2595.00,0.0062
2594.00,0.0062
2593.00,0.0062
2592.00,0.0062
2591.00,0.0062
2590.00,0.0061
2589.00,0.0061
2588.00,0.0061
2587.00,0.0061
2586.00,0.0061
2585.00,0.0061
2584.00,0.0061
2583.00,0.0061
2582.00,0.0061
2581.00,0.0061
2580.00,0.0061
2579.00,0.0061
2578.00,0.0061
2577.00,0.0061
2576.00,0.0061
2575.00,0.0061
2574.00,0.0061
2573.00,0.0061
2572.00,0.0061
2571.00,0.0062
2570.00,0.0061
2569.00,0.0061
2568.00,0.0061
2567.00,0.0060
2566.00,0.0060
2565.00,0.0060
2564.00,0.0060
2563.00,0.0060
2562.00,0.0060
2561.00,0.0060
2560.00,0.0060
2559.00,0.0060
2558.00,0.0060
2557.00,0.0059
2556.00,0.0059
2555.00,0.0059
2554.00,0.0059
2553.00,0.0059
2552.00,0.0059
2551.00,0.0059
2550.00,0.0058
2549.00,0.0058
2548.00,0.0058
2547.00,0.0058
2546.00,0.0058
2545.00,0.0058
2544.00,0.0059
2543.00,0.0059
2542.00,0.0059
2541.00,0.0059
2540.00,0.0059
2539.00,0.0059
2538.00,0.0059
2537.00,0.0058
2536.00,0.0058
2535.00,0.0057
2534.00,0.0057
2533.00,0.0057
2532.00,0.0057
2531.00,0.0057
2530.00,0.0057
2529.00,0.0057
2528.00,0.0057
2527.00,0.0057
2526.00,0.0057
2525.00,0.0057
2524.00,0.0057
2523.00,0.0057
2522.00,0.0057
2521.00,0.0057
2520.00,0.0057
2519.00,0.0056
2518.00,0.0056
2517.00,0.0056
2516.00,0.0056
2515.00,0.0056
2514.00,0.0056
2513.00,0.0055
2512.00,0.0056
2511.00,0.0056
2510.00,0.0056
2509.00,0.0056
2508.00,0.0057
2507.00,0.0056
2506.00,0.0056
2505.00,0.0056
2504.00,0.0056
2503.00,0.0056
2502.00,0.0056
2501.00,0.0056
2500.00,0.0057
2499.00,0.0057
2498.00,0.0056
2497.00,0.0056
2496.00,0.0056
2495.00,0.0056
2494.00,0.0056
2493.00,0.0056
2492.00,0.0056
2491.00,0.0055
2490.00,0.0055
2489.00,0.0054
2488.00,0.0054
2487.00,0.0055
2486.00,0.0055
2485.00,0.0055
2484.00,0.0055
2483.00,0.0055
2482.00,0.0055
2481.00,0.0055
2480.00,0.0055
2479.00,0.0055
2478.00,0.0055
2477.00,0.0055
2476.00,0.0055
2475.00,0.0055
2474.00,0.0055
2473.00,0.0055
2472.00,0.0055
2471.00,0.0056
2470.00,0.0056
2469.00,0.0056
2468.00,0.0056
2467.00,0.0056
2466.00,0.0056
2465.00,0.0055
2464.00,0.0056
2463.00,0.0056
2462.00,0.0056
2461.00,0.0057
2460.00,0.0057
2459.00,0.0057
2458.00,0.0057
2457.00,0.0057
2456.00,0.0058
2455.00,0.0058
2454.00,0.0058
2453.00,0.0058
2452.00,0.0058
2451.00,0.0058
2450.00,0.0057
2449.00,0.0057
2448.00,0.0057
2447.00,0.0057
2446.00,0.0056
2445.00,0.0056
2444.00,0.0056
2443.00,0.0056
2442.00,0.0055
2441.00,0.0055
2440.00,0.0056
2439.00,0.0056
2438.00,0.0055
2437.00,0.0055
2436.00,0.0055
2435.00,0.0056
2434.00,0.0056
2433.00,0.0056
2432.00,0.0056
2431.00,0.0056
2430.00,0.0056
2429.00,0.0056
2428.00,0.0056
2427.00,0.0056
2426.00,0.0055
2425.00,0.0055
2424.00,0.0055
2423.00,0.0055
2422.00,0.0056
2421.00,0.0056
2420.00,0.0056
2419.00,0.0056
2418.00,0.0056
2417.00,0.0056
2416.00,0.0057
2415.00,0.0056
2414.00,0.0056
2413.00,0.0056
2412.00,0.0056
2411.00,0.0056
2410.00,0.0056
2409.00,0.0056
2408.00,0.0055
2407.00,0.0055
2406.00,0.0055
2405.00,0.0054
2404.00,0.0054
2403.00,0.0054
2402.00,0.0054
2401.00,0.0054
2400.00,0.0055
2399.00,0.0055
2398.00,0.0055
2397.00,0.0054
2396.00,0.0054
2395.00,0.0054
2394.00,0.0054
2393.00,0.0054
2392.00,0.0054
2391.00,0.0054
2390.00,0.0054
2389.00,0.0054
2388.00,0.0054
2387.00,0.0054
2386.00,0.0053
2385.00,0.0053
2384.00,0.0052
2383.00,0.0051
2382.00,0.0051
2381.00,0.0051
2380.00,0.0051
2379.00,0.0051
2378.00,0.0050
2377.00,0.0050
2376.00,0.0050
2375.00,0.0050
2374.00,0.0050
2373.00,0.0050
2372.00,0.0050
2371.00,0.0050
2370.00,0.0050
2369.00,0.0049
2368.00,0.0049
2367.00,0.0049
2366.00,0.0049
2365.00,0.0049
2364.00,0.0050
2363.00,0.0051
2362.00,0.0051
2361.00,0.0051
2360.00,0.0051
2359.00,0.0051
2358.00,0.0051
2357.00,0.0051
2356.00,0.0051
2355.00,0.0052
2354.00,0.0052
2353.00,0.0052
2352.00,0.0052
2351.00,0.0052
2350.00,0.0053
2349.00,0.0054
2348.00,0.0055
2347.00,0.0056
2346.00,0.0055
2345.00,0.0055
2344.00,0.0055
2343.00,0.0055
2342.00,0.0055
2341.00,0.0056
2340.00,0.0057
2339.00,0.0057
2338.00,0.0057
2337.00,0.0057
2336.00,0.0057
2335.00,0.0057
2334.00,0.0057
2333.00,0.0057
2332.00,0.0057
2331.00,0.0057
2330.00,0.0058
2329.00,0.0060
2328.00,0.0064
2327.00,0.0069
2326.00,0.0072
2325.00,0.0073
2324.00,0.0073
2323.00,0.0070
2322.00,0.0068
2321.00,0.0066
2320.00,0.0065
2319.00,0.0064
2318.00,0.0063
2317.00,0.0063
2316.00,0.0063
2315.00,0.0063
2314.00,0.0063
2313.00,0.0062
2312.00,0.0063
2311.00,0.0062
2310.00,0.0062
2309.00,0.0062
2308.00,0.0062
2307.00,0.0062
2306.00,0.0062
2305.00,0.0062
2304.00,0.0062
2303.00,0.0062
2302.00,0.0062
2301.00,0.0062
2300.00,0.0063
2299.00,0.0063
2298.00,0.0064
2297.00,0.0064
2296.00,0.0065
2295.00,0.0066
2294.00,0.0066
2293.00,0.0067
2292.00,0.0069
2291.00,0.0070
2290.00,0.0071
2289.00,0.0071
2288.00,0.0072
2287.00,0.0072
2286.00,0.0071
2285.00,0.0071
2284.00,0.0070
2283.00,0.0069
2282.00,0.0068
2281.00,0.0067
2280.00,0.0067
2279.00,0.0067
2278.00,0.0066
2277.00,0.0066
2276.00,0.0066
2275.00,0.0066
2274.00,0.0066
2273.00,0.0066
2272.00,0.0067
2271.00,0.0066
2270.00,0.0066
2269.00,0.0065
2268.00,0.0065
2267.00,0.0064
2266.00,0.0063
2265.00,0.0062
2264.00,0.0063
2263.00,0.0063
2262.00,0.0063
2261.00,0.0063
2260.00,0.0065
2259.00,0.0066
2258.00,0.0065
2257.00,0.0064
2256.00,0.0063
2255.00,0.0061
2254.00,0.0060
2253.00,0.0059
2252.00,0.0060
2251.00,0.0060
2250.00,0.0060
2249.00,0.0061
2248.00,0.0062
2247.00,0.0062
2246.00,0.0062
2245.00,0.0062
2244.00,0.0063
2243.00,0.0063
2242.00,0.0063
2241.00,0.0062
2240.00,0.0062
2239.00,0.0062
2238.00,0.0061
2237.00,0.0061
2236.00,0.0062
2235.00,0.0062
2234.00,0.0062
2233.00,0.0062
2232.00,0.0062
2231.00,0.0062
2230.00,0.0061
2229.00,0.0061
2228.00,0.0062
2227.00,0.0061
2226.00,0.0060
2225.00,0.0061
2224.00,0.0062
2223.00,0.0062
2222.00,0.0061
2221.00,0.0061
2220.00,0.0062
2219.00,0.0062
2218.00,0.0062
2217.00,0.0062
2216.00,0.0063
2215.00,0.0062
2214.00,0.0060
2213.00,0.0060
2212.00,0.0060
2211.00,0.0061
2210.00,0.0060
2209.00,0.0061
2208.00,0.0063
2207.00,0.0063
2206.00,0.0062
2205.00,0.0063
2204.00,0.0064
2203.00,0.0065
2202.00,0.0064
2201.00,0.0064
2200.00,0.0064
2199.00,0.0064
2198.00,0.0064
2197.00,0.0065
2196.00,0.0067
2195.00,0.0068
2194.00,0.0067
2193.00,0.0067
2192.00,0.0068
2191.00,0.0067
2190.00,0.0066
2189.00,0.0066
2188.00,0.0067
2187.00,0.0068
2186.00,0.0066
2185.00,0.0064
2184.00,0.0062
2183.00,0.0059
2182.00,0.0057
2181.00,0.0058
2180.00,0.0062
2179.00,0.0063
2178.00,0.0061
2177.00,0.0059
2176.00,0.0059
2175.00,0.0058
2174.00,0.0057
2173.00,0.0059
2172.00,0.0063
2171.00,0.0067
2170.00,0.0069
2169.00,0.0072
2168.00,0.0076
2167.00,0.0078
2166.00,0.0078
2165.00,0.0079
2164.00,0.0082
2163.00,0.0082
2162.00,0.0074
2161.00,0.0062
2160.00,0.0047
2159.00,0.0034
2158.00,0.0027
2157.00,0.0027
2156.00,0.0032
2155.00,0.0034
2154.00,0.0035
2153.00,0.0037
2152.00,0.0040
2151.00,0.0042
2150.00,0.0042
2149.00,0.0043
2148.00,0.0044
2147.00,0.0044
2146.00,0.0043
2145.00,0.0043
2144.00,0.0044
2143.00,0.0045
2142.00,0.0046
2141.00,0.0047
2140.00,0.0048
2139.00,0.0048
2138.00,0.0045
2137.00,0.0042
2136.00,0.0041
2135.00,0.0040
2134.00,0.0039
2133.00,0.0040
2132.00,0.0043
2131.00,0.0045
2130.00,0.0046
2129.00,0.0048
2128.00,0.0051
2127.00,0.0052
2126.00,0.0052
2125.00,0.0053
2124.00,0.0055
2123.00,0.0057
2122.00,0.0057
2121.00,0.0058
2120.00,0.0060
2119.00,0.0061
2118.00,0.0062
2117.00,0.0063
2116.00,0.0065
2115.00,0.0064
2114.00,0.0063
2113.00,0.0063
2112.00,0.0063
2111.00,0.0064
2110.00,0.0063
2109.00,0.0063
2108.00,0.0064
2107.00,0.0063
2106.00,0.0062
2105.00,0.0062
2104.00,0.0063
2103.00,0.0063
2102.00,0.0062
2101.00,0.0062
2100.00,0.0063
2099.00,0.0062
2098.00,0.0060
2097.00,0.0059
2096.00,0.0058
2095.00,0.0057
2094.00,0.0056
2093.00,0.0057
2092.00,0.0059
2091.00,0.0060
2090.00,0.0060
2089.00,0.0060
2088.00,0.0062
2087.00,0.0062
2086.00,0.0062
2085.00,0.0062
2084.00,0.0062
2083.00,0.0062
2082.00,0.0062
2081.00,0.0061
2080.00,0.0062
2079.00,0.0062
2078.00,0.0061
2077.00,0.0061
2076.00,0.0061
2075.00,0.0061
2074.00,0.0060
2073.00,0.0060
2072.00,0.0061
2071.00,0.0060
2070.00,0.0059
2069.00,0.0059
2068.00,0.0060
2067.00,0.0060
2066.00,0.0060
2065.00,0.0060
2064.00,0.0061
2063.00,0.0060
2062.00,0.0057
2061.00,0.0056
2060.00,0.0058
2059.00,0.0058
2058.00,0.0058
2057.00,0.0058
2056.00,0.0059
2055.00,0.0060
2054.00,0.0062
2053.00,0.0067
2052.00,0.0073
2051.00,0.0074
2050.00,0.0069
2049.00,0.0064
2048.00,0.0061
2047.00,0.0058
2046.00,0.0055
2045.00,0.0055
2044.00,0.0057
2043.00,0.0058
2042.00,0.0056
2041.00,0.0057
2040.00,0.0059
2039.00,0.0060
2038.00,0.0057
2037.00,0.0057
2036.00,0.0058
2035.00,0.0057
2034.00,0.0052
2033.00,0.0051
2032.00,0.0053
2031.00,0.0052
2030.00,0.0050
2029.00,0.0050
2028.00,0.0052
2027.00,0.0052
2026.00,0.0049
2025.00,0.0048
2024.00,0.0050
2023.00,0.0050
2022.00,0.0048
2021.00,0.0049
2020.00,0.0052
2019.00,0.0051
2018.00,0.0048
2017.00,0.0047
2016.00,0.0049
2015.00,0.0050
2014.00,0.0048
2013.00,0.0049
2012.00,0.0053
2011.00,0.0054
2010.00,0.0051
2009.00,0.0048
2008.00,0.0046
2007.00,0.0043
2006.00,0.0039
2005.00,0.0039
2004.00,0.0043
2003.00,0.0044
2002.00,0.0042
2001.00,0.0042
2000.00,0.0045
1999.00,0.0047
1998.00,0.0046
1997.00,0.0047
1996.00,0.0049
1995.00,0.0051
1994.00,0.0051
1993.00,0.0052
1992.00,0.0054
1991.00,0.0054
1990.00,0.0053
1989.00,0.0053
1988.00,0.0056
1987.00,0.0057
1986.00,0.0056
1985.00,0.0058
1984.00,0.0062
1983.00,0.0066
1982.00,0.0067
1981.00,0.0068
1980.00,0.0067
1979.00,0.0061
1978.00,0.0052
1977.00,0.0045
1976.00,0.0044
1975.00,0.0042
1974.00,0.0040
1973.00,0.0040
1972.00,0.0044
1971.00,0.0045
1970.00,0.0045
1969.00,0.0045
1968.00,0.0046
1967.00,0.0044
1966.00,0.0041
1965.00,0.0041
1964.00,0.0042
1963.00,0.0040
1962.00,0.0038
1961.00,0.0037
1960.00,0.0037
1959.00,0.0037
1958.00,0.0036
1957.00,0.0038
1956.00,0.0041
1955.00,0.0042
1954.00,0.0041
1953.00,0.0042
1952.00,0.0043
1951.00,0.0043
1950.00,0.0041
1949.00,0.0043
1948.00,0.0044
1947.00,0.0044
1946.00,0.0043
1945.00,0.0044
1944.00,0.0046
1943.00,0.0046
1942.00,0.0044
1941.00,0.0044
1940.00,0.0044
1939.00,0.0042
1938.00,0.0040
1937.00,0.0041
1936.00,0.0043
1935.00,0.0041
1934.00,0.0040
1933.00,0.0041
1932.00,0.0043
1931.00,0.0042
1930.00,0.0041
1929.00,0.0043
1928.00,0.0044
1927.00,0.0043
1926.00,0.0042
1925.00,0.0045
1924.00,0.0048
1923.00,0.0047
1922.00,0.0044
1921.00,0.0045
1920.00,0.0046
1919.00,0.0044
1918.00,0.0042
1917.00,0.0044
1916.00,0.0046
1915.00,0.0046
1914.00,0.0044
1913.00,0.0046
1912.00,0.0049
1911.00,0.0048
1910.00,0.0046
1909.00,0.0047
1908.00,0.0049
1907.00,0.0047
1906.00,0.0045
1905.00,0.0047
1904.00,0.0049
1903.00,0.0048
1902.00,0.0045
1901.00,0.0046
1900.00,0.0048
1899.00,0.0047
1898.00,0.0045
1897.00,0.0047
1896.00,0.0050
1895.00,0.0049
1894.00,0.0045
1893.00,0.0045
1892.00,0.0048
1891.00,0.0048
1890.00,0.0045
1889.00,0.0045
1888.00,0.0048
1887.00,0.0047
1886.00,0.0045
1885.00,0.0045
1884.00,0.0048
1883.00,0.0048
1882.00,0.0045
1881.00,0.0045
1880.00,0.0048
1879.00,0.0048
1878.00,0.0045
1877.00,0.0045
1876.00,0.0047
1875.00,0.0048
1874.00,0.0045
1873.00,0.0044
1872.00,0.0047
1871.00,0.0049
1870.00,0.0048
1869.00,0.0048
1868.00,0.0051
1867.00,0.0050
1866.00,0.0046
1865.00,0.0045
1864.00,0.0047
1863.00,0.0048
1862.00,0.0046
1861.00,0.0045
1860.00,0.0048
1859.00,0.0049
1858.00,0.0046
1857.00,0.0045
1856.00,0.0047
1855.00,0.0048
1854.00,0.0046
1853.00,0.0045
1852.00,0.0047
1851.00,0.0048
1850.00,0.0046
1849.00,0.0046
1848.00,0.0047
1847.00,0.0047
1846.00,0.0043
1845.00,0.0042
1844.00,0.0044
1843.00,0.0045
1842.00,0.0044
1841.00,0.0045
1840.00,0.0048
1839.00,0.0049
1838.00,0.0047
1837.00,0.0046
1836.00,0.0048
1835.00,0.0048
1834.00,0.0045
1833.00,0.0044
1832.00,0.0048
1831.00,0.0050
1830.00,0.0048
1829.00,0.0046
1828.00,0.0048
1827.00,0.0048
1826.00,0.0045
1825.00,0.0045
1824.00,0.0047
1823.00,0.0048
1822.00,0.0045
1821.00,0.0044
1820.00,0.0045
1819.00,0.0045
1818.00,0.0042
1817.00,0.0040
1816.00,0.0044
1815.00,0.0046
1814.00,0.0044
1813.00,0.0045
1812.00,0.0049
1811.00,0.0050
1810.00,0.0047
1809.00,0.0045
1808.00,0.0047
1807.00,0.0048
1806.00,0.0046
1805.00,0.0044
1804.00,0.0047
1803.00,0.0049
1802.00,0.0047
1801.00,0.0045
1800.00,0.0047
1799.00,0.0050
1798.00,0.0048
1797.00,0.0045
1796.00,0.0047
1795.00,0.0048
1794.00,0.0045
1793.00,0.0041
1792.00,0.0044
1791.00,0.0048
1790.00,0.0045
1789.00,0.0042
1788.00,0.0044
1787.00,0.0048
1786.00,0.0046
1785.00,0.0043
1784.00,0.0046
1783.00,0.0051
1782.00,0.0051
1781.00,0.0048
1780.00,0.0048
1779.00,0.0052
1778.00,0.0050
1777.00,0.0046
1776.00,0.0046
1775.00,0.0050
1774.00,0.0050
1773.00,0.0045
1772.00,0.0044
1771.00,0.0048
1770.00,0.0048
1769.00,0.0044
1768.00,0.0044
1767.00,0.0049
1766.00,0.0050
1765.00,0.0046
1764.00,0.0045
1763.00,0.0049
1762.00,0.0051
1761.00,0.0047
1760.00,0.0046
1759.00,0.0049
1758.00,0.0052
1757.00,0.0049
1756.00,0.0046
1755.00,0.0048
1754.00,0.0051
1753.00,0.0050
1752.00,0.0049
1751.00,0.0054
1750.00,0.0060
1749.00,0.0060
1748.00,0.0056
1747.00,0.0056
1746.00,0.0060
1745.00,0.0061
1744.00,0.0057
1743.00,0.0054
1742.00,0.0055
1741.00,0.0055
1740.00,0.0053
1739.00,0.0051
1738.00,0.0052
1737.00,0.0052
1736.00,0.0049
1735.00,0.0048
1734.00,0.0053
1733.00,0.0059
1732.00,0.0062
1731.00,0.0061
1730.00,0.0061
1729.00,0.0064
1728.00,0.0064
1727.00,0.0062
1726.00,0.0062
1725.00,0.0067
1724.00,0.0071
1723.00,0.0069
1722.00,0.0065
1721.00,0.0066
1720.00,0.0072
1719.00,0.0076
1718.00,0.0075
1717.00,0.0077
1716.00,0.0084
1715.00,0.0085
1714.00,0.0082
1713.00,0.0085
1712.00,0.0093
1711.00,0.0099
1710.00,0.0099
1709.00,0.0100
1708.00,0.0110
1707.00,0.0121
1706.00,0.0123
1705.00,0.0125
1704.00,0.0132
1703.00,0.0138
1702.00,0.0139
1701.00,0.0145
1700.00,0.0172
1699.00,0.0203
1698.00,0.0219
1697.00,0.0230
1696.00,0.0253
1695.00,0.0286
1694.00,0.0311
1693.00,0.0330
1692.00,0.0357
1691.00,0.0393
1690.00,0.0425
1689.00,0.0449
1688.00,0.0475
1687.00,0.0508
1686.00,0.0540
1685.00,0.0570
1684.00,0.0603
1683.00,0.0645
1682.00,0.0682
1681.00,0.0709
1680.00,0.0735
1679.00,0.0766
1678.00,0.0795
1677.00,0.0819
1676.00,0.0843
1675.00,0.0877
1674.00,0.0912
1673.00,0.0939
1672.00,0.0962
1671.00,0.0991
1670.00,0.1020
1669.00,0.1043
1668.00,0.1062
1667.00,0.1087
1666.00,0.1115
1665.00,0.1139
1664.00,0.1160
1663.00,0.1181
1662.00,0.1203
1661.00,0.1222
1660.00,0.1240
1659.00,0.1259
1658.00,0.1278
1657.00,0.1295
1656.00,0.1309
1655.00,0.1325
1654.00,0.1330
1653.00,0.1315
1652.00,0.1304
1651.00,0.1313
1650.00,0.1329
1649.00,0.1342
1648.00,0.1341
1647.00,0.1321
1646.00,0.1292
1645.00,0.1270
1644.00,0.1257
1643.00,0.1247
1642.00,0.1232
1641.00,0.1211
1640.00,0.1189
1639.00,0.1168
1638.00,0.1147
1637.00,0.1113
1636.00,0.1061
1635.00,0.1008
1634.00,0.0970
1633.00,0.0943
1632.00,0.0921
1631.00,0.0899
1630.00,0.0874
1629.00,0.0843
1628.00,0.0808
1627.00,0.0777
1626.00,0.0752
1625.00,0.0726
1624.00,0.0698
1623.00,0.0669
1622.00,0.0645
1621.00,0.0623
1620.00,0.0605
1619.00,0.0590
1618.00,0.0573
1617.00,0.0550
1616.00,0.0522
1615.00,0.0502
1614.00,0.0489
1613.00,0.0478
1612.00,0.0463
1611.00,0.0449
1610.00,0.0436
1609.00,0.0423
1608.00,0.0407
1607.00,0.0392
1606.00,0.0381
1605.00,0.0371
1604.00,0.0359
1603.00,0.0347
1602.00,0.0337
1601.00,0.0328
1600.00,0.0317
1599.00,0.0308
1598.00,0.0301
1597.00,0.0295
1596.00,0.0288
1595.00,0.0279
1594.00,0.0272
1593.00,0.0267
1592.00,0.0260
1591.00,0.0253
1590.00,0.0247
1589.00,0.0243
1588.00,0.0237
1587.00,0.0231
1586.00,0.0227
1585.00,0.0224
1584.00,0.0219
1583.00,0.0214
1582.00,0.0211
1581.00,0.0208
1580.00,0.0204
1579.00,0.0200
1578.00,0.0198
1577.00,0.0197
1576.00,0.0191
1575.00,0.0184
1574.00,0.0182
1573.00,0.0181
1572.00,0.0177
1571.00,0.0173
1570.00,0.0172
1569.00,0.0172
1568.00,0.0169
1567.00,0.0166
1566.00,0.0166
1565.00,0.0167
1564.00,0.0163
1563.00,0.0154
1562.00,0.0146
1561.00,0.0146
1560.00,0.0149
1559.00,0.0139
1558.00,0.0135
1557.00,0.0143
1556.00,0.0146
1555.00,0.0143
1554.00,0.0142
1553.00,0.0147
1552.00,0.0149
1551.00,0.0146
1550.00,0.0143
1549.00,0.0144
1548.00,0.0144
1547.00,0.0139
1546.00,0.0136
1545.00,0.0140
1544.00,0.0142
1543.00,0.0136
1542.00,0.0130
1541.00,0.0137
1540.00,0.0141
1539.00,0.0132
1538.00,0.0125
1537.00,0.0129
1536.00,0.0134
1535.00,0.0132
1534.00,0.0127
1533.00,0.0128
1532.00,0.0133
1531.00,0.0132
1530.00,0.0127
1529.00,0.0128
1528.00,0.0133
1527.00,0.0132
1526.00,0.0125
1525.00,0.0123
1524.00,0.0129
1523.00,0.0131
1522.00,0.0124
1521.00,0.0120
1520.00,0.0127
1519.00,0.0131
1518.00,0.0129
1517.00,0.0128
1516.00,0.0133
1515.00,0.0135
1514.00,0.0131
1513.00,0.0131
1512.00,0.0139
1511.00,0.0146
1510.00,0.0147
1509.00,0.0150
1508.00,0.0161
1507.00,0.0168
1506.00,0.0168
1505.00,0.0176
1504.00,0.0194
1503.00,0.0210
1502.00,0.0221
1501.00,0.0232
1500.00,0.0248
1499.00,0.0265
1498.00,0.0277
1497.00,0.0288
1496.00,0.0300
1495.00,0.0309
1494.00,0.0311
1493.00,0.0310
1492.00,0.0311
1491.00,0.0310
1490.00,0.0297
1489.00,0.0279
1488.00,0.0266
1487.00,0.0252
1486.00,0.0236
1485.00,0.0223
1484.00,0.0216
1483.00,0.0211
1482.00,0.0202
1481.00,0.0194
1480.00,0.0193
1479.00,0.0194
1478.00,0.0192
1477.00,0.0193
1476.00,0.0203
1475.00,0.0215
1474.00,0.0223
1473.00,0.0236
1472.00,0.0261
1471.00,0.0289
1470.00,0.0312
1469.00,0.0336
1468.00,0.0367
1467.00,0.0403
1466.00,0.0434
1465.00,0.0465
1464.00,0.0499
1463.00,0.0529
1462.00,0.0542
1461.00,0.0545
1460.00,0.0547
1459.00,0.0546
1458.00,0.0523
1457.00,0.0478
1456.00,0.0447
1455.00,0.0434
1454.00,0.0421
1453.00,0.0405
1452.00,0.0399
1451.00,0.0401
1450.00,0.0404
1449.00,0.0406
1448.00,0.0420
1447.00,0.0445
1446.00,0.0468
1445.00,0.0487
1444.00,0.0512
1443.00,0.0545
1442.00,0.0573
1441.00,0.0591
1440.00,0.0609
1439.00,0.0631
1438.00,0.0646
1437.00,0.0651
1436.00,0.0656
1435.00,0.0669
1434.00,0.0676
1433.00,0.0674
1432.00,0.0673
1431.00,0.0681
1430.00,0.0690
1429.00,0.0696
1428.00,0.0710
1427.00,0.0736
1426.00,0.0765
1425.00,0.0785
1424.00,0.0801
1423.00,0.0817
1422.00,0.0825
1421.00,0.0815
1420.00,0.0791
1419.00,0.0760
1418.00,0.0721
1417.00,0.0673
1416.00,0.0626
1415.00,0.0586
1414.00,0.0548
1413.00,0.0506
1412.00,0.0462
1411.00,0.0429
1410.00,0.0402
1409.00,0.0373
1408.00,0.0346
1407.00,0.0328
1406.00,0.0315
1405.00,0.0299
1404.00,0.0279
1403.00,0.0268
1402.00,0.0263
1401.00,0.0256
1400.00,0.0245
1399.00,0.0239
1398.00,0.0239
1397.00,0.0236
1396.00,0.0227
1395.00,0.0223
1394.00,0.0225
1393.00,0.0226
1392.00,0.0224
1391.00,0.0224
1390.00,0.0230
1389.00,0.0236
1388.00,0.0238
1387.00,0.0242
1386.00,0.0252
1385.00,0.0261
1384.00,0.0266
1383.00,0.0272
1382.00,0.0283
1381.00,0.0293
1380.00,0.0299
1379.00,0.0305
1378.00,0.0313
1377.00,0.0322
1376.00,0.0325
1375.00,0.0327
1374.00,0.0329
1373.00,0.0330
1372.00,0.0328
1371.00,0.0325
1370.00,0.0323
1369.00,0.0321
1368.00,0.0314
1367.00,0.0305
1366.00,0.0299
1365.00,0.0294
1364.00,0.0286
1363.00,0.0276
1362.00,0.0265
1361.00,0.0256
1360.00,0.0247
1359.00,0.0239
1358.00,0.0234
1357.00,0.0229
1356.00,0.0223
1355.00,0.0218
1354.00,0.0213
1353.00,0.0209
1352.00,0.0205
1351.00,0.0202
1350.00,0.0199
1349.00,0.0197
1348.00,0.0194
1347.00,0.0191
1346.00,0.0190
1345.00,0.0189
1344.00,0.0188
1343.00,0.0188
1342.00,0.0191
1341.00,0.0193
1340.00,0.0195
1339.00,0.0195
1338.00,0.0196
1337.00,0.0196
1336.00,0.0198
1335.00,0.0201
1334.00,0.0205
1333.00,0.0210
1332.00,0.0215
1331.00,0.0221
1330.00,0.0229
1329.00,0.0237
1328.00,0.0246
1327.00,0.0257
1326.00,0.0269
1325.00,0.0282
1324.00,0.0294
1323.00,0.0308
1322.00,0.0321
1321.00,0.0334
1320.00,0.0344
1319.00,0.0353
1318.00,0.0360
1317.00,0.0363
1316.00,0.0362
1315.00,0.0360
1314.00,0.0357
1313.00,0.0350
1312.00,0.0342
1311.00,0.0334
1310.00,0.0327
1309.00,0.0321
1308.00,0.0316
1307.00,0.0314
1306.00,0.0314
1305.00,0.0318
1304.00,0.0324
1303.00,0.0334
1302.00,0.0350
1301.00,0.0370
1300.00,0.0394
1299.00,0.0425
1298.00,0.0463
1297.00,0.0505
1296.00,0.0552
1295.00,0.0603
1294.00,0.0655
1293.00,0.0707
1292.00,0.0756
1291.00,0.0801
1290.00,0.0840
1289.00,0.0872
1288.00,0.0895
1287.00,0.0909
1286.00,0.0915
1285.00,0.0912
1284.00,0.0902
1283.00,0.0888
1282.00,0.0872
1281.00,0.0856
1280.00,0.0843
1279.00,0.0835
1278.00,0.0832
1277.00,0.0834
1276.00,0.0839
1275.00,0.0846
1274.00,0.0853
1273.00,0.0859
1272.00,0.0860
1271.00,0.0857
1270.00,0.0849
1269.00,0.0836
1268.00,0.0818
1267.00,0.0796
1266.00,0.0772
1265.00,0.0745
1264.00,0.0716
1263.00,0.0688
1262.00,0.0660
1261.00,0.0632
1260.00,0.0604
1259.00,0.0578
1258.00,0.0555
1257.00,0.0534
1256.00,0.0513
1255.00,0.0495
1254.00,0.0479
1253.00,0.0465
1252.00,0.0451
1251.00,0.0440
1250.00,0.0431
1249.00,0.0423
1248.00,0.0416
1247.00,0.0410
1246.00,0.0407
1245.00,0.0404
1244.00,0.0402
1243.00,0.0401
1242.00,0.0402
1241.00,0.0404
1240.00,0.0407
1239.00,0.0410
1238.00,0.0415
1237.00,0.0420
1236.00,0.0425
1235.00,0.0430
1234.00,0.0436
1233.00,0.0441
1232.00,0.0445
1231.00,0.0449
1230.00,0.0453
1229.00,0.0455
1228.00,0.0455
1227.00,0.0455
1226.00,0.0455
1225.00,0.0454
1224.00,0.0452
1223.00,0.0451
1222.00,0.0450
1221.00,0.0449
1220.00,0.0448
1219.00,0.0446
1218.00,0.0445
1217.00,0.0442
1216.00,0.0437
1215.00,0.0433
1214.00,0.0428
1213.00,0.0423
1212.00,0.0416
1211.00,0.0409
1210.00,0.0403
1209.00,0.0397
1208.00,0.0390
1207.00,0.0383
1206.00,0.0378
1205.00,0.0372
1204.00,0.0365
1203.00,0.0360
1202.00,0.0355
1201.00,0.0350
1200.00,0.0344
1199.00,0.0339
1198.00,0.0335
1197.00,0.0331
1196.00,0.0326
1195.00,0.0323
1194.00,0.0320
1193.00,0.0316
1192.00,0.0313
1191.00,0.0310
1190.00,0.0308
1189.00,0.0307
1188.00,0.0305
1187.00,0.0304
1186.00,0.0304
1185.00,0.0304
1184.00,0.0303
1183.00,0.0303
1182.00,0.0305
1181.00,0.0306
1180.00,0.0308
1179.00,0.0311
1178.00,0.0315
1177.00,0.0319
1176.00,0.0322
1175.00,0.0327
1174.00,0.0332
1173.00,0.0336
1172.00,0.0340
1171.00,0.0343
1170.00,0.0346
1169.00,0.0347
1168.00,0.0347
1167.00,0.0345
1166.00,0.0343
1165.00,0.0339
1164.00,0.0334
1163.00,0.0329
1162.00,0.0324
1161.00,0.0319
1160.00,0.0313
1159.00,0.0308
1158.00,0.0304
1157.00,0.0300
1156.00,0.0295
1155.00,0.0291
1154.00,0.0287
1153.00,0.0284
1152.00,0.0280
1151.00,0.0277
1150.00,0.0274
1149.00,0.0270
1148.00,0.0267
1147.00,0.0263
1146.00,0.0261
1145.00,0.0257
1144.00,0.0253
1143.00,0.0249
1142.00,0.0246
1141.00,0.0243
1140.00,0.0240
1139.00,0.0237
1138.00,0.0235
1137.00,0.0233
1136.00,0.0231
1135.00,0.0229
1134.00,0.0228
1133.00,0.0227
1132.00,0.0226
1131.00,0.0226
1130.00,0.0226
1129.00,0.0226
1128.00,0.0226
1127.00,0.0226
1126.00,0.0227
1125.00,0.0227
1124.00,0.0228
1123.00,0.0228
1122.00,0.0230
1121.00,0.0230
1120.00,0.0230
1119.00,0.0231
1118.00,0.0232
1117.00,0.0232
1116.00,0.0232
1115.00,0.0233
1114.00,0.0234
1113.00,0.0234
1112.00,0.0234
1111.00,0.0235
1110.00,0.0236
1109.00,0.0236
1108.00,0.0236
1107.00,0.0236
1106.00,0.0237
1105.00,0.0237
1104.00,0.0237
1103.00,0.0237
1102.00,0.0238
1101.00,0.0238
1100.00,0.0237
1099.00,0.0238
1098.00,0.0238
1097.00,0.0239
1096.00,0.0239
1095.00,0.0239
1094.00,0.0240
1093.00,0.0240
1092.00,0.0239
1091.00,0.0239
1090.00,0.0239
1089.00,0.0238
1088.00,0.0238
1087.00,0.0238
1086.00,0.0239
1085.00,0.0239
1084.00,0.0239
1083.00,0.0240
1082.00,0.0241
1081.00,0.0242
1080.00,0.0242
1079.00,0.0244
1078.00,0.0246
1077.00,0.0247
1076.00,0.0248
1075.00,0.0248
1074.00,0.0249
1073.00,0.0248
1072.00,0.0245
1071.00,0.0243
1070.00,0.0241
1069.00,0.0238
1068.00,0.0236
1067.00,0.0233
1066.00,0.0232
1065.00,0.0229
1064.00,0.0227
1063.00,0.0226
1062.00,0.0225
1061.00,0.0224
1060.00,0.0223
1059.00,0.0222
1058.00,0.0222
1057.00,0.0221
1056.00,0.0220
1055.00,0.0220
1054.00,0.0220
1053.00,0.0221
1052.00,0.0220
1051.00,0.0220
1050.00,0.0220
1049.00,0.0219
1048.00,0.0219
1047.00,0.0218
1046.00,0.0219
1045.00,0.0219
1044.00,0.0218
1043.00,0.0218
1042.00,0.0218
1041.00,0.0218
1040.00,0.0218
1039.00,0.0218
1038.00,0.0219
1037.00,0.0220
1036.00,0.0221
1035.00,0.0222
1034.00,0.0224
1033.00,0.0225
1032.00,0.0226
1031.00,0.0228
1030.00,0.0230
1029.00,0.0233
1028.00,0.0235
1027.00,0.0238
1026.00,0.0241
1025.00,0.0245
1024.00,0.0249
1023.00,0.0253
1022.00,0.0258
1021.00,0.0262
1020.00,0.0265
1019.00,0.0267
1018.00,0.0269
1017.00,0.0268
1016.00,0.0265
1015.00,0.0261
1014.00,0.0255
1013.00,0.0249
1012.00,0.0242
1011.00,0.0236
1010.00,0.0232
1009.00,0.0230
1008.00,0.0229
1007.00,0.0229
1006.00,0.0232
1005.00,0.0235
1004.00,0.0239
1003.00,0.0241
1002.00,0.0243
1001.00,0.0242
1000.00,0.0239
999.00,0.0235
998.00,0.0231
997.00,0.0226
996.00,0.0221
995.00,0.0217
994.00,0.0214
993.00,0.0210
992.00,0.0207
991.00,0.0205
990.00,0.0203
989.00,0.0201
988.00,0.0199
987.00,0.0197
986.00,0.0196
985.00,0.0195
984.00,0.0193
983.00,0.0192
982.00,0.0191
981.00,0.0190
980.00,0.0189
979.00,0.0188
978.00,0.0187
977.00,0.0186
976.00,0.0185
975.00,0.0184
974.00,0.0183
973.00,0.0182
972.00,0.0181
971.00,0.0180
970.00,0.0180
969.00,0.0179
968.00,0.0178
967.00,0.0178
966.00,0.0178
965.00,0.0177
964.00,0.0176
963.00,0.0176
962.00,0.0175
961.00,0.0175
960.00,0.0175
959.00,0.0175
958.00,0.0174
957.00,0.0174
956.00,0.0173
955.00,0.0172
954.00,0.0172
953.00,0.0172
952.00,0.0171
951.00,0.0171
950.00,0.0172
949.00,0.0172
948.00,0.0171
947.00,0.0172
946.00,0.0172
945.00,0.0173
944.00,0.0174
943.00,0.0176
942.00,0.0179
941.00,0.0183
940.00,0.0187
939.00,0.0192
938.00,0.0197
937.00,0.0202
936.00,0.0207
935.00,0.0211
934.00,0.0213
933.00,0.0214
932.00,0.0212
931.00,0.0209
930.00,0.0206
929.00,0.0203
928.00,0.0200
927.00,0.0198
926.00,0.0196
925.00,0.0194
924.00,0.0192
923.00,0.0190
922.00,0.0188
921.00,0.0187
920.00,0.0185
919.00,0.0184
918.00,0.0183
917.00,0.0182
916.00,0.0182
915.00,0.0182
914.00,0.0182
913.00,0.0183
912.00,0.0182
911.00,0.0182
910.00,0.0183
909.00,0.0183
908.00,0.0183
907.00,0.0184
906.00,0.0186
905.00,0.0187
904.00,0.0189
903.00,0.0191
902.00,0.0194
901.00,0.0197
900.00,0.0199
899.00,0.0201
898.00,0.0203
897.00,0.0204
896.00,0.0204
895.00,0.0205
894.00,0.0204
893.00,0.0203
892.00,0.0200
891.00,0.0198
890.00,0.0196
889.00,0.0194
888.00,0.0191
887.00,0.0189
886.00,0.0187
885.00,0.0185
884.00,0.0183
883.00,0.0181
882.00,0.0180
881.00,0.0179
880.00,0.0178
879.00,0.0178
878.00,0.0177
877.00,0.0177
876.00,0.0176
875.00,0.0177
874.00,0.0177
873.00,0.0178
872.00,0.0179
871.00,0.0180
870.00,0.0181
869.00,0.0183
868.00,0.0184
867.00,0.0186
866.00,0.0189
865.00,0.0192
864.00,0.0195
863.00,0.0198
862.00,0.0202
861.00,0.0206
860.00,0.0210
859.00,0.0215
858.00,0.0221
857.00,0.0227
856.00,0.0232
855.00,0.0239
854.00,0.0245
853.00,0.0252
852.00,0.0258
851.00,0.0265
850.00,0.0271
849.00,0.0276
848.00,0.0280
847.00,0.0284
846.00,0.0287
845.00,0.0288
844.00,0.0289
843.00,0.0288
842.00,0.0286
841.00,0.0283
840.00,0.0280
839.00,0.0277
838.00,0.0274
837.00,0.0271
836.00,0.0266
835.00,0.0262
834.00,0.0258
833.00,0.0254
832.00,0.0249
831.00,0.0245
830.00,0.0242
829.00,0.0238
828.00,0.0234
827.00,0.0231
826.00,0.0229
825.00,0.0226
824.00,0.0223
823.00,0.0220
822.00,0.0218
821.00,0.0215
820.00,0.0213
819.00,0.0212
818.00,0.0211
817.00,0.0210
816.00,0.0209
815.00,0.0208
814.00,0.0207
813.00,0.0207
812.00,0.0206
811.00,0.0206
810.00,0.0206
809.00,0.0207
808.00,0.0207
807.00,0.0207
806.00,0.0207
805.00,0.0207
804.00,0.0206
803.00,0.0206
802.00,0.0206
801.00,0.0207
800.00,0.0207
799.00,0.0208
798.00,0.0208
797.00,0.0208
796.00,0.0208
795.00,0.0208
794.00,0.0208
793.00,0.0209
792.00,0.0209
791.00,0.0210
790.00,0.0211
789.00,0.0211
788.00,0.0212
787.00,0.0212
786.00,0.0213
785.00,0.0214
784.00,0.0215
783.00,0.0216
782.00,0.0217
781.00,0.0218
780.00,0.0219
779.00,0.0220
778.00,0.0222
777.00,0.0223
776.00,0.0225
775.00,0.0227
774.00,0.0229
773.00,0.0231
772.00,0.0234
771.00,0.0236
770.00,0.0239
769.00,0.0241
768.00,0.0243
767.00,0.0247
766.00,0.0250
765.00,0.0253
764.00,0.0255
763.00,0.0259
762.00,0.0262
761.00,0.0266
760.00,0.0270
759.00,0.0275
758.00,0.0279
757.00,0.0284
756.00,0.0289
755.00,0.0294
754.00,0.0299
753.00,0.0304
752.00,0.0309
751.00,0.0314
750.00,0.0319
749.00,0.0324
748.00,0.0329
747.00,0.0334
746.00,0.0338
745.00,0.0343
744.00,0.0347
743.00,0.0353
742.00,0.0359
741.00,0.0364
740.00,0.0369
739.00,0.0374
738.00,0.0378
737.00,0.0381
736.00,0.0384
735.00,0.0386
734.00,0.0388
733.00,0.0388
732.00,0.0387
731.00,0.0385
730.00,0.0381
729.00,0.0375
728.00,0.0370
727.00,0.0365
726.00,0.0361
725.00,0.0356
724.00,0.0352
723.00,0.0349
722.00,0.0346
721.00,0.0343
720.00,0.0341
719.00,0.0339
718.00,0.0337
717.00,0.0336
716.00,0.0335
715.00,0.0335
714.00,0.0335
713.00,0.0335
712.00,0.0336
711.00,0.0337
710.00,0.0337
709.00,0.0337
708.00,0.0337
707.00,0.0339
706.00,0.0340
705.00,0.0340
704.00,0.0342
703.00,0.0345
702.00,0.0346
701.00,0.0347
700.00,0.0349
699.00,0.0352
698.00,0.0354
697.00,0.0355
696.00,0.0358
695.00,0.0363
694.00,0.0365
693.00,0.0366
692.00,0.0369
691.00,0.0373
690.00,0.0375
689.00,0.0376
688.00,0.0380
687.00,0.0387
686.00,0.0391
685.00,0.0393
684.00,0.0397
683.00,0.0404
682.00,0.0408
681.00,0.0409
680.00,0.0412
679.00,0.0419
678.00,0.0424
677.00,0.0425
676.00,0.0428
675.00,0.0435
674.00,0.0442
673.00,0.0444
672.00,0.0447
671.00,0.0455
670.00,0.0463
669.00,0.0465
668.00,0.0468
667.00,0.0478
666.00,0.0487
665.00,0.0491
664.00,0.0496
663.00,0.0507
662.00,0.0518
661.00,0.0524
660.00,0.0530
659.00,0.0540
658.00,0.0553
657.00,0.0561
656.00,0.0568
655.00,0.0578
654.00,0.0590
653.00,0.0599
652.00,0.0603
651.00,0.0610
650.00,0.0618
649.00,0.0622
648.00,0.0623
647.00,0.0624
646.00,0.0627
645.00,0.0627
644.00,0.0622
643.00,0.0618
642.00,0.0616
641.00,0.0612
640.00,0.0604
639.00,0.0598
638.00,0.0596
637.00,0.0593
636.00,0.0587
635.00,0.0582
634.00,0.0578
633.00,0.0574
632.00,0.0568
631.00,0.0564
630.00,0.0563
629.00,0.0562
628.00,0.0559
627.00,0.0556
626.00,0.0555
625.00,0.0554
624.00,0.0552
623.00,0.0550
622.00,0.0549
621.00,0.0549
620.00,0.0548
619.00,0.0548
618.00,0.0550
617.00,0.0551
616.00,0.0550
615.00,0.0549
614.00,0.0549
613.00,0.0548
612.00,0.0548
611.00,0.0549
610.00,0.0552
609.00,0.0553
608.00,0.0554
607.00,0.0555
606.00,0.0557
605.00,0.0557
604.00,0.0557
603.00,0.0558
602.00,0.0561
601.00,0.0563
600.00,0.0564
599.00,0.0567
598.00,0.0571
597.00,0.0574
596.00,0.0575
595.00,0.0578
594.00,0.0581
593.00,0.0585
592.00,0.0588
591.00,0.0594
590.00,0.0601
589.00,0.0607
588.00,0.0612
587.00,0.0620
586.00,0.0629
585.00,0.0637
584.00,0.0643
583.00,0.0651
582.00,0.0661
581.00,0.0670
580.00,0.0677
579.00,0.0683
578.00,0.0691
577.00,0.0696
576.00,0.0698
575.00,0.0702
574.00,0.0707
573.00,0.0709
572.00,0.0708
571.00,0.0707
570.00,0.0709
569.00,0.0708
568.00,0.0705
567.00,0.0702
566.00,0.0701
565.00,0.0698
564.00,0.0693
563.00,0.0689
562.00,0.0687
561.00,0.0684
560.00,0.0679
559.00,0.0674
558.00,0.0673
557.00,0.0670
556.00,0.0665
555.00,0.0662
554.00,0.0662
553.00,0.0661
552.00,0.0658
551.00,0.0654
550.00,0.0653
549.00,0.0651
548.00,0.0647
547.00,0.0644
546.00,0.0644
545.00,0.0643
544.00,0.0640
543.00,0.0638
542.00,0.0639
541.00,0.0639
540.00,0.0637
539.00,0.0635
538.00,0.0636
537.00,0.0636
536.00,0.0633
535.00,0.0632
534.00,0.0633
533.00,0.0634
532.00,0.0633
531.00,0.0632
530.00,0.0633
529.00,0.0634
528.00,0.0634
527.00,0.0635
526.00,0.0638
525.00,0.0639
524.00,0.0638
523.00,0.0636
522.00,0.0638
521.00,0.0640
520.00,0.0640
519.00,0.0640
518.00,0.0641
517.00,0.0642
516.00,0.0640
515.00,0.0639
514.00,0.0639
513.00,0.0640
512.00,0.0639
511.00,0.0638
510.00,0.0639
509.00,0.0639
508.00,0.0639
507.00,0.0640
506.00,0.0643
505.00,0.0644
504.00,0.0641
503.00,0.0639
502.00,0.0639
501.00,0.0640
500.00,0.0641
499.00,0.0644
498.00,0.0647
497.00,0.0650
496.00,0.0650
495.00,0.0650
494.00,0.0652
493.00,0.0655
492.00,0.0656
491.00,0.0657
490.00,0.0657
489.00,0.0656
488.00,0.0655
487.00,0.0656
486.00,0.0658
485.00,0.0658
484.00,0.0657
483.00,0.0657
482.00,0.0659
481.00,0.0661
480.00,0.0662
479.00,0.0665
478.00,0.0668
477.00,0.0670
476.00,0.0669
475.00,0.0670
474.00,0.0672
473.00,0.0672
472.00,0.0669
471.00,0.0667
470.00,0.0666
469.00,0.0664
468.00,0.0662
467.00,0.0664
466.00,0.0665
465.00,0.0664
464.00,0.0662
463.00,0.0662
462.00,0.0663
461.00,0.0663
460.00,0.0660
459.00,0.0658
458.00,0.0655
457.00,0.0649
456.00,0.0644
455.00,0.0645
454.00,0.0648
453.00,0.0647
452.00,0.0641
451.00,0.0637
450.00,0.0635
449.00,0.0634
448.00,0.0632
447.00,0.0632
446.00,0.0633
445.00,0.0629
444.00,0.0622
443.00,0.0618
442.00,0.0618
441.00,0.0615
440.00,0.0609
439.00,0.0605
438.00,0.0604
437.00,0.0600
436.00,0.0593
435.00,0.0591
434.00,0.0592
433.00,0.0590
432.00,0.0584
431.00,0.0582
430.00,0.0583
429.00,0.0577
428.00,0.0568
427.00,0.0565
426.00,0.0571
425.00,0.0573
424.00,0.0568
423.00,0.0564
422.00,0.0566
421.00,0.0565
420.00,0.0556
419.00,0.0552
418.00,0.0555
417.00,0.0555
416.00,0.0549
415.00,0.0549
414.00,0.0555
413.00,0.0555
412.00,0.0543
411.00,0.0532
410.00,0.0536
409.00,0.0542
408.00,0.0540
407.00,0.0535
406.00,0.0535
405.00,0.0531
404.00,0.0522
403.00,0.0520
402.00,0.0535
401.00,0.0552
400.00,0.0558
