Created as New Dataset,Sample 682 By YargerLab Date Thursday, June 12 2025
cm-1,A
4000.00,0.0056
3999.00,0.0056
3998.00,0.0056
3997.00,0.0056
3996.00,0.0056
3995.00,0.0056
3994.00,0.0056
3993.00,0.0056
3992.00,0.0056
3991.00,0.0056
3990.00,0.0055
3989.00,0.0055
3988.00,0.0055
3987.00,0.0056
3986.00,0.0056
3985.00,0.0056
3984.00,0.0056
3983.00,0.0056
3982.00,0.0056
3981.00,0.0056
3980.00,0.0056
3979.00,0.0056
3978.00,0.0057
3977.00,0.0057
3976.00,0.0057
3975.00,0.0056
3974.00,0.0056
3973.00,0.0056
3972.00,0.0056
3971.00,0.0056
3970.00,0.0056
3969.00,0.0056
3968.00,0.0056
3967.00,0.0056
3966.00,0.0056
3965.00,0.0056
3964.00,0.0056
3963.00,0.0056
3962.00,0.0056
3961.00,0.0056
3960.00,0.0056
3959.00,0.0056
3958.00,0.0056
3957.00,0.0056
3956.00,0.0056
3955.00,0.0056
3954.00,0.0056
3953.00,0.0056
3952.00,0.0057
3951.00,0.0057
3950.00,0.0057
3949.00,0.0057
3948.00,0.0057
3947.00,0.0057
3946.00,0.0056
3945.00,0.0056
3944.00,0.0056
3943.00,0.0056
3942.00,0.0056
3941.00,0.0056
3940.00,0.0056
3939.00,0.0056
3938.00,0.0056
3937.00,0.0056
3936.00,0.0056
3935.00,0.0056
3934.00,0.0057
3933.00,0.0057
3932.00,0.0057
3931.00,0.0057
3930.00,0.0057
3929.00,0.0057
3928.00,0.0056
3927.00,0.0056
3926.00,0.0056
3925.00,0.0056
3924.00,0.0056
3923.00,0.0056
3922.00,0.0056
3921.00,0.0056
3920.00,0.0056
3919.00,0.0056
3918.00,0.0056
3917.00,0.0056
3916.00,0.0055
3915.00,0.0055
3914.00,0.0055
3913.00,0.0056
3912.00,0.0056
3911.00,0.0056
3910.00,0.0056
3909.00,0.0056
3908.00,0.0056
3907.00,0.0056
3906.00,0.0056
3905.00,0.0056
3904.00,0.0056
3903.00,0.0056
3902.00,0.0056
3901.00,0.0056
3900.00,0.0055
3899.00,0.0055
3898.00,0.0055
3897.00,0.0055
3896.00,0.0055
3895.00,0.0055
3894.00,0.0055
3893.00,0.0055
3892.00,0.0055
3891.00,0.0055
3890.00,0.0055
3889.00,0.0055
3888.00,0.0055
3887.00,0.0055
3886.00,0.0055
3885.00,0.0055
3884.00,0.0055
3883.00,0.0055
3882.00,0.0055
3881.00,0.0055
3880.00,0.0055
3879.00,0.0055
3878.00,0.0055
3877.00,0.0055
3876.00,0.0055
3875.00,0.0055
3874.00,0.0055
3873.00,0.0055
3872.00,0.0055
3871.00,0.0055
3870.00,0.0055
3869.00,0.0055
3868.00,0.0055
3867.00,0.0055
3866.00,0.0055
3865.00,0.0055
3864.00,0.0055
3863.00,0.0055
3862.00,0.0055
3861.00,0.0055
3860.00,0.0055
3859.00,0.0055
3858.00,0.0055
3857.00,0.0055
3856.00,0.0055
3855.00,0.0055
3854.00,0.0056
3853.00,0.0056
3852.00,0.0056
3851.00,0.0055
3850.00,0.0055
3849.00,0.0054
3848.00,0.0055
3847.00,0.0055
3846.00,0.0055
3845.00,0.0055
3844.00,0.0055
3843.00,0.0055
3842.00,0.0055
3841.00,0.0056
3840.00,0.0055
3839.00,0.0055
3838.00,0.0055
3837.00,0.0055
3836.00,0.0055
3835.00,0.0054
3834.00,0.0054
3833.00,0.0054
3832.00,0.0054
3831.00,0.0054
3830.00,0.0054
3829.00,0.0054
3828.00,0.0054
3827.00,0.0054
3826.00,0.0055
3825.00,0.0055
3824.00,0.0055
3823.00,0.0055
3822.00,0.0055
3821.00,0.0055
3820.00,0.0055
3819.00,0.0055
3818.00,0.0055
3817.00,0.0055
3816.00,0.0055
3815.00,0.0055
3814.00,0.0054
3813.00,0.0054
3812.00,0.0054
3811.00,0.0054
3810.00,0.0054
3809.00,0.0054
3808.00,0.0054
3807.00,0.0054
3806.00,0.0055
3805.00,0.0055
3804.00,0.0055
3803.00,0.0055
3802.00,0.0055
3801.00,0.0055
3800.00,0.0055
3799.00,0.0054
3798.00,0.0054
3797.00,0.0054
3796.00,0.0054
3795.00,0.0054
3794.00,0.0054
3793.00,0.0054
3792.00,0.0054
3791.00,0.0054
3790.00,0.0054
3789.00,0.0054
3788.00,0.0054
3787.00,0.0054
3786.00,0.0054
3785.00,0.0054
3784.00,0.0054
3783.00,0.0054
3782.00,0.0054
3781.00,0.0054
3780.00,0.0054
3779.00,0.0054
3778.00,0.0054
3777.00,0.0054
3776.00,0.0054
3775.00,0.0054
3774.00,0.0055
3773.00,0.0055
3772.00,0.0055
3771.00,0.0055
3770.00,0.0055
3769.00,0.0055
3768.00,0.0054
3767.00,0.0054
3766.00,0.0055
3765.00,0.0055
3764.00,0.0055
3763.00,0.0055
3762.00,0.0054
3761.00,0.0054
3760.00,0.0054
3759.00,0.0054
3758.00,0.0055
3757.00,0.0055
3756.00,0.0055
3755.00,0.0055
3754.00,0.0055
3753.00,0.0055
3752.00,0.0055
3751.00,0.0056
3750.00,0.0056
3749.00,0.0056
3748.00,0.0056
3747.00,0.0055
3746.00,0.0055
3745.00,0.0055
3744.00,0.0054
3743.00,0.0054
3742.00,0.0054
3741.00,0.0054
3740.00,0.0055
3739.00,0.0055
3738.00,0.0055
3737.00,0.0055
3736.00,0.0055
3735.00,0.0055
3734.00,0.0055
3733.00,0.0055
3732.00,0.0055
3731.00,0.0054
3730.00,0.0054
3729.00,0.0054
3728.00,0.0054
3727.00,0.0054
3726.00,0.0054
3725.00,0.0055
3724.00,0.0055
3723.00,0.0054
3722.00,0.0054
3721.00,0.0054
3720.00,0.0054
3719.00,0.0053
3718.00,0.0053
3717.00,0.0053
3716.00,0.0054
3715.00,0.0054
3714.00,0.0054
3713.00,0.0054
3712.00,0.0054
3711.00,0.0054
3710.00,0.0053
3709.00,0.0053
3708.00,0.0053
3707.00,0.0053
3706.00,0.0053
3705.00,0.0053
3704.00,0.0053
3703.00,0.0053
3702.00,0.0053
3701.00,0.0053
3700.00,0.0053
3699.00,0.0053
3698.00,0.0053
3697.00,0.0053
3696.00,0.0053
3695.00,0.0053
3694.00,0.0053
3693.00,0.0052
3692.00,0.0052
3691.00,0.0052
3690.00,0.0052
3689.00,0.0052
3688.00,0.0052
3687.00,0.0052
3686.00,0.0052
3685.00,0.0052
3684.00,0.0052
3683.00,0.0051
3682.00,0.0051
3681.00,0.0051
3680.00,0.0050
3679.00,0.0050
3678.00,0.0050
3677.00,0.0050
3676.00,0.0050
3675.00,0.0050
3674.00,0.0049
3673.00,0.0049
3672.00,0.0049
3671.00,0.0048
3670.00,0.0049
3669.00,0.0049
3668.00,0.0048
3667.00,0.0048
3666.00,0.0048
3665.00,0.0047
3664.00,0.0047
3663.00,0.0047
3662.00,0.0047
3661.00,0.0047
3660.00,0.0047
3659.00,0.0047
3658.00,0.0048
3657.00,0.0048
3656.00,0.0048
3655.00,0.0048
3654.00,0.0048
3653.00,0.0048
3652.00,0.0049
3651.00,0.0049
3650.00,0.0049
3649.00,0.0049
3648.00,0.0049
3647.00,0.0049
3646.00,0.0049
3645.00,0.0049
3644.00,0.0049
3643.00,0.0049
3642.00,0.0050
3641.00,0.0050
3640.00,0.0050
3639.00,0.0050
3638.00,0.0050
3637.00,0.0051
3636.00,0.0051
3635.00,0.0052
3634.00,0.0052
3633.00,0.0052
3632.00,0.0053
3631.00,0.0053
3630.00,0.0053
3629.00,0.0054
3628.00,0.0054
3627.00,0.0054
3626.00,0.0054
3625.00,0.0054
3624.00,0.0054
3623.00,0.0054
3622.00,0.0054
3621.00,0.0054
3620.00,0.0054
3619.00,0.0054
3618.00,0.0054
3617.00,0.0054
3616.00,0.0055
3615.00,0.0055
3614.00,0.0055
3613.00,0.0055
3612.00,0.0054
3611.00,0.0054
3610.00,0.0054
3609.00,0.0054
3608.00,0.0054
3607.00,0.0054
3606.00,0.0055
3605.00,0.0055
3604.00,0.0055
3603.00,0.0055
3602.00,0.0055
3601.00,0.0055
3600.00,0.0055
3599.00,0.0055
3598.00,0.0055
3597.00,0.0055
3596.00,0.0055
3595.00,0.0055
3594.00,0.0055
3593.00,0.0055
3592.00,0.0055
3591.00,0.0055
3590.00,0.0055
3589.00,0.0055
3588.00,0.0055
3587.00,0.0055
3586.00,0.0055
3585.00,0.0054
3584.00,0.0055
3583.00,0.0055
3582.00,0.0055
3581.00,0.0055
3580.00,0.0055
3579.00,0.0055
3578.00,0.0055
3577.00,0.0055
3576.00,0.0054
3575.00,0.0054
3574.00,0.0055
3573.00,0.0055
3572.00,0.0055
3571.00,0.0056
3570.00,0.0056
3569.00,0.0056
3568.00,0.0056
3567.00,0.0056
3566.00,0.0056
3565.00,0.0055
3564.00,0.0055
3563.00,0.0055
3562.00,0.0055
3561.00,0.0055
3560.00,0.0055
3559.00,0.0055
3558.00,0.0055
3557.00,0.0055
3556.00,0.0055
3555.00,0.0055
3554.00,0.0055
3553.00,0.0055
3552.00,0.0055
3551.00,0.0055
3550.00,0.0055
3549.00,0.0055
3548.00,0.0055
3547.00,0.0056
3546.00,0.0056
3545.00,0.0056
3544.00,0.0056
3543.00,0.0056
3542.00,0.0055
3541.00,0.0055
3540.00,0.0056
3539.00,0.0056
3538.00,0.0056
3537.00,0.0056
3536.00,0.0055
3535.00,0.0055
3534.00,0.0055
3533.00,0.0055
3532.00,0.0055
3531.00,0.0055
3530.00,0.0056
3529.00,0.0056
3528.00,0.0056
3527.00,0.0056
3526.00,0.0056
3525.00,0.0055
3524.00,0.0055
3523.00,0.0055
3522.00,0.0055
3521.00,0.0055
3520.00,0.0055
3519.00,0.0055
3518.00,0.0055
3517.00,0.0055
3516.00,0.0055
3515.00,0.0055
3514.00,0.0055
3513.00,0.0055
3512.00,0.0055
3511.00,0.0055
3510.00,0.0055
3509.00,0.0054
3508.00,0.0055
3507.00,0.0055
3506.00,0.0055
3505.00,0.0055
3504.00,0.0055
3503.00,0.0055
3502.00,0.0055
3501.00,0.0055
3500.00,0.0055
3499.00,0.0055
3498.00,0.0055
3497.00,0.0055
3496.00,0.0055
3495.00,0.0055
3494.00,0.0055
3493.00,0.0054
3492.00,0.0054
3491.00,0.0054
3490.00,0.0054
3489.00,0.0054
3488.00,0.0054
3487.00,0.0054
3486.00,0.0055
3485.00,0.0055
3484.00,0.0055
3483.00,0.0055
3482.00,0.0055
3481.00,0.0054
3480.00,0.0054
3479.00,0.0054
3478.00,0.0054
3477.00,0.0054
3476.00,0.0055
3475.00,0.0055
3474.00,0.0055
3473.00,0.0055
3472.00,0.0055
3471.00,0.0055
3470.00,0.0055
3469.00,0.0055
3468.00,0.0055
3467.00,0.0055
3466.00,0.0055
3465.00,0.0056
3464.00,0.0056
3463.00,0.0056
3462.00,0.0056
3461.00,0.0056
3460.00,0.0056
3459.00,0.0056
3458.00,0.0056
3457.00,0.0056
3456.00,0.0056
3455.00,0.0056
3454.00,0.0056
3453.00,0.0056
3452.00,0.0056
3451.00,0.0057
3450.00,0.0057
3449.00,0.0057
3448.00,0.0058
3447.00,0.0058
3446.00,0.0059
3445.00,0.0059
3444.00,0.0059
3443.00,0.0059
3442.00,0.0060
3441.00,0.0060
3440.00,0.0060
3439.00,0.0060
3438.00,0.0060
3437.00,0.0060
3436.00,0.0060
3435.00,0.0061
3434.00,0.0061
3433.00,0.0061
3432.00,0.0061
3431.00,0.0062
3430.00,0.0062
3429.00,0.0062
3428.00,0.0063
3427.00,0.0063
3426.00,0.0064
3425.00,0.0064
3424.00,0.0065
3423.00,0.0066
3422.00,0.0066
3421.00,0.0067
3420.00,0.0067
3419.00,0.0068
3418.00,0.0068
3417.00,0.0069
3416.00,0.0070
3415.00,0.0070
3414.00,0.0071
3413.00,0.0072
3412.00,0.0073
3411.00,0.0074
3410.00,0.0075
3409.00,0.0076
3408.00,0.0077
3407.00,0.0078
3406.00,0.0079
3405.00,0.0080
3404.00,0.0080
3403.00,0.0081
3402.00,0.0082
3401.00,0.0082
3400.00,0.0084
3399.00,0.0085
3398.00,0.0087
3397.00,0.0088
3396.00,0.0090
3395.00,0.0091
3394.00,0.0092
3393.00,0.0093
3392.00,0.0094
3391.00,0.0095
3390.00,0.0097
3389.00,0.0098
3388.00,0.0100
3387.00,0.0101
3386.00,0.0102
3385.00,0.0104
3384.00,0.0106
3383.00,0.0107
3382.00,0.0109
3381.00,0.0111
3380.00,0.0113
3379.00,0.0115
3378.00,0.0117
3377.00,0.0120
3376.00,0.0122
3375.00,0.0126
3374.00,0.0129
3373.00,0.0133
3372.00,0.0137
3371.00,0.0142
3370.00,0.0147
3369.00,0.0153
3368.00,0.0159
3367.00,0.0165
3366.00,0.0172
3365.00,0.0180
3364.00,0.0187
3363.00,0.0195
3362.00,0.0203
3361.00,0.0211
3360.00,0.0218
3359.00,0.0226
3358.00,0.0234
3357.00,0.0241
3356.00,0.0249
3355.00,0.0255
3354.00,0.0262
3353.00,0.0267
3352.00,0.0272
3351.00,0.0276
3350.00,0.0279
3349.00,0.0281
3348.00,0.0282
3347.00,0.0282
3346.00,0.0281
3345.00,0.0279
3344.00,0.0277
3343.00,0.0274
3342.00,0.0271
3341.00,0.0268
3340.00,0.0265
3339.00,0.0262
3338.00,0.0258
3337.00,0.0255
3336.00,0.0252
3335.00,0.0249
3334.00,0.0246
3333.00,0.0243
3332.00,0.0241
3331.00,0.0238
3330.00,0.0236
3329.00,0.0234
3328.00,0.0231
3327.00,0.0229
3326.00,0.0227
3325.00,0.0225
3324.00,0.0223
3323.00,0.0221
3322.00,0.0220
3321.00,0.0218
3320.00,0.0216
3319.00,0.0214
3318.00,0.0211
3317.00,0.0209
3316.00,0.0207
3315.00,0.0204
3314.00,0.0201
3313.00,0.0199
3312.00,0.0196
3311.00,0.0193
3310.00,0.0190
3309.00,0.0186
3308.00,0.0183
3307.00,0.0180
3306.00,0.0177
3305.00,0.0174
3304.00,0.0172
3303.00,0.0170
3302.00,0.0167
3301.00,0.0165
3300.00,0.0162
3299.00,0.0159
3298.00,0.0157
3297.00,0.0154
3296.00,0.0151
3295.00,0.0149
3294.00,0.0146
3293.00,0.0144
3292.00,0.0142
3291.00,0.0140
3290.00,0.0138
3289.00,0.0137
3288.00,0.0135
3287.00,0.0133
3286.00,0.0132
3285.00,0.0130
3284.00,0.0129
3283.00,0.0128
3282.00,0.0127
3281.00,0.0125
3280.00,0.0124
3279.00,0.0123
3278.00,0.0123
3277.00,0.0122
3276.00,0.0121
3275.00,0.0120
3274.00,0.0119
3273.00,0.0118
3272.00,0.0117
3271.00,0.0117
3270.00,0.0116
3269.00,0.0116
3268.00,0.0116
3267.00,0.0115
3266.00,0.0115
3265.00,0.0114
3264.00,0.0113
3263.00,0.0113
3262.00,0.0112
3261.00,0.0112
3260.00,0.0111
3259.00,0.0111
3258.00,0.0110
3257.00,0.0110
3256.00,0.0110
3255.00,0.0110
3254.00,0.0110
3253.00,0.0109
3252.00,0.0109
3251.00,0.0109
3250.00,0.0110
3249.00,0.0110
3248.00,0.0110
3247.00,0.0111
3246.00,0.0111
3245.00,0.0112
3244.00,0.0112
3243.00,0.0113
3242.00,0.0113
3241.00,0.0113
3240.00,0.0114
3239.00,0.0113
3238.00,0.0113
3237.00,0.0112
3236.00,0.0112
3235.00,0.0111
3234.00,0.0110
3233.00,0.0109
3232.00,0.0109
3231.00,0.0108
3230.00,0.0107
3229.00,0.0106
3228.00,0.0104
3227.00,0.0103
3226.00,0.0102
3225.00,0.0101
3224.00,0.0100
3223.00,0.0099
3222.00,0.0098
3221.00,0.0097
3220.00,0.0096
3219.00,0.0096
3218.00,0.0095
3217.00,0.0094
3216.00,0.0093
3215.00,0.0092
3214.00,0.0091
3213.00,0.0090
3212.00,0.0090
3211.00,0.0089
3210.00,0.0088
3209.00,0.0088
3208.00,0.0087
3207.00,0.0087
3206.00,0.0086
3205.00,0.0086
3204.00,0.0085
3203.00,0.0085
3202.00,0.0084
3201.00,0.0084
3200.00,0.0084
3199.00,0.0083
3198.00,0.0082
3197.00,0.0082
3196.00,0.0081
3195.00,0.0081
3194.00,0.0081
3193.00,0.0080
3192.00,0.0080
3191.00,0.0080
3190.00,0.0079
3189.00,0.0079
3188.00,0.0078
3187.00,0.0078
3186.00,0.0078
3185.00,0.0078
3184.00,0.0078
3183.00,0.0078
3182.00,0.0078
3181.00,0.0077
3180.00,0.0077
3179.00,0.0077
3178.00,0.0076
3177.00,0.0076
3176.00,0.0076
3175.00,0.0076
3174.00,0.0075
3173.00,0.0075
3172.00,0.0075
3171.00,0.0075
3170.00,0.0075
3169.00,0.0075
3168.00,0.0075
3167.00,0.0075
3166.00,0.0075
3165.00,0.0075
3164.00,0.0075
3163.00,0.0075
3162.00,0.0075
3161.00,0.0075
3160.00,0.0075
3159.00,0.0075
3158.00,0.0075
3157.00,0.0075
3156.00,0.0075
3155.00,0.0075
3154.00,0.0075
3153.00,0.0075
3152.00,0.0075
3151.00,0.0075
3150.00,0.0075
3149.00,0.0075
3148.00,0.0075
3147.00,0.0075
3146.00,0.0075
3145.00,0.0075
3144.00,0.0075
3143.00,0.0075
3142.00,0.0075
3141.00,0.0075
3140.00,0.0075
3139.00,0.0075
3138.00,0.0076
3137.00,0.0076
3136.00,0.0076
3135.00,0.0076
3134.00,0.0077
3133.00,0.0077
3132.00,0.0077
3131.00,0.0077
3130.00,0.0078
3129.00,0.0078
3128.00,0.0078
3127.00,0.0079
3126.00,0.0079
3125.00,0.0080
3124.00,0.0080
3123.00,0.0081
3122.00,0.0081
3121.00,0.0082
3120.00,0.0083
3119.00,0.0083
3118.00,0.0084
3117.00,0.0086
3116.00,0.0087
3115.00,0.0088
3114.00,0.0089
3113.00,0.0090
3112.00,0.0091
3111.00,0.0092
3110.00,0.0093
3109.00,0.0094
3108.00,0.0095
3107.00,0.0096
3106.00,0.0097
3105.00,0.0098
3104.00,0.0099
3103.00,0.0100
3102.00,0.0100
3101.00,0.0100
3100.00,0.0101
3099.00,0.0100
3098.00,0.0100
3097.00,0.0099
3096.00,0.0099
3095.00,0.0098
3094.00,0.0097
3093.00,0.0096
3092.00,0.0096
3091.00,0.0095
3090.00,0.0094
3089.00,0.0093
3088.00,0.0092
3087.00,0.0091
3086.00,0.0090
3085.00,0.0089
3084.00,0.0088
3083.00,0.0088
3082.00,0.0087
3081.00,0.0087
3080.00,0.0087
3079.00,0.0087
3078.00,0.0087
3077.00,0.0086
3076.00,0.0086
3075.00,0.0086
3074.00,0.0087
3073.00,0.0087
3072.00,0.0087
3071.00,0.0087
3070.00,0.0087
3069.00,0.0087
3068.00,0.0088
3067.00,0.0088
3066.00,0.0087
3065.00,0.0087
3064.00,0.0087
3063.00,0.0086
3062.00,0.0086
3061.00,0.0086
3060.00,0.0085
3059.00,0.0084
3058.00,0.0083
3057.00,0.0083
3056.00,0.0083
3055.00,0.0083
3054.00,0.0083
3053.00,0.0082
3052.00,0.0082
3051.00,0.0082
3050.00,0.0082
3049.00,0.0082
3048.00,0.0082
3047.00,0.0082
3046.00,0.0082
3045.00,0.0082
3044.00,0.0082
3043.00,0.0082
3042.00,0.0082
3041.00,0.0082
3040.00,0.0083
3039.00,0.0083
3038.00,0.0084
3037.00,0.0084
3036.00,0.0085
3035.00,0.0085
3034.00,0.0085
3033.00,0.0086
3032.00,0.0087
3031.00,0.0088
3030.00,0.0088
3029.00,0.0089
3028.00,0.0089
3027.00,0.0090
3026.00,0.0091
3025.00,0.0092
3024.00,0.0093
3023.00,0.0094
3022.00,0.0095
3021.00,0.0096
3020.00,0.0097
3019.00,0.0097
3018.00,0.0097
3017.00,0.0097
3016.00,0.0097
3015.00,0.0096
3014.00,0.0096
3013.00,0.0095
3012.00,0.0095
3011.00,0.0094
3010.00,0.0093
3009.00,0.0092
3008.00,0.0091
3007.00,0.0090
3006.00,0.0089
3005.00,0.0088
3004.00,0.0088
3003.00,0.0087
3002.00,0.0087
3001.00,0.0086
3000.00,0.0086
2999.00,0.0086
2998.00,0.0086
2997.00,0.0086
2996.00,0.0087
2995.00,0.0087
2994.00,0.0087
2993.00,0.0087
2992.00,0.0086
2991.00,0.0086
2990.00,0.0085
2989.00,0.0084
2988.00,0.0083
2987.00,0.0081
2986.00,0.0077
2985.00,0.0072
2984.00,0.0065
2983.00,0.0058
2982.00,0.0053
2981.00,0.0049
2980.00,0.0048
2979.00,0.0049
2978.00,0.0051
2977.00,0.0052
2976.00,0.0053
2975.00,0.0052
2974.00,0.0052
2973.00,0.0051
2972.00,0.0050
2971.00,0.0051
2970.00,0.0053
2969.00,0.0056
2968.00,0.0059
2967.00,0.0062
2966.00,0.0065
2965.00,0.0068
2964.00,0.0071
2963.00,0.0075
2962.00,0.0078
2961.00,0.0082
2960.00,0.0086
2959.00,0.0090
2958.00,0.0095
2957.00,0.0100
2956.00,0.0105
2955.00,0.0110
2954.00,0.0115
2953.00,0.0120
2952.00,0.0124
2951.00,0.0129
2950.00,0.0133
2949.00,0.0137
2948.00,0.0139
2947.00,0.0139
2946.00,0.0139
2945.00,0.0138
2944.00,0.0136
2943.00,0.0134
2942.00,0.0130
2941.00,0.0126
2940.00,0.0121
2939.00,0.0115
2938.00,0.0109
2937.00,0.0104
2936.00,0.0099
2935.00,0.0094
2934.00,0.0090
2933.00,0.0086
2932.00,0.0083
2931.00,0.0080
2930.00,0.0077
2929.00,0.0075
2928.00,0.0073
2927.00,0.0072
2926.00,0.0070
2925.00,0.0069
2924.00,0.0068
2923.00,0.0066
2922.00,0.0065
2921.00,0.0064
2920.00,0.0063
2919.00,0.0062
2918.00,0.0062
2917.00,0.0061
2916.00,0.0061
2915.00,0.0061
2914.00,0.0061
2913.00,0.0062
2912.00,0.0062
2911.00,0.0063
2910.00,0.0063
2909.00,0.0063
2908.00,0.0063
2907.00,0.0064
2906.00,0.0064
2905.00,0.0064
2904.00,0.0065
2903.00,0.0065
2902.00,0.0065
2901.00,0.0065
2900.00,0.0066
2899.00,0.0065
2898.00,0.0065
2897.00,0.0065
2896.00,0.0064
2895.00,0.0064
2894.00,0.0064
2893.00,0.0063
2892.00,0.0063
2891.00,0.0063
2890.00,0.0062
2889.00,0.0063
2888.00,0.0063
2887.00,0.0064
2886.00,0.0064
2885.00,0.0065
2884.00,0.0065
2883.00,0.0065
2882.00,0.0066
2881.00,0.0067
2880.00,0.0068
2879.00,0.0069
2878.00,0.0069
2877.00,0.0069
2876.00,0.0069
2875.00,0.0069
2874.00,0.0069
2873.00,0.0069
2872.00,0.0069
2871.00,0.0069
2870.00,0.0070
2869.00,0.0070
2868.00,0.0070
2867.00,0.0071
2866.00,0.0071
2865.00,0.0071
2864.00,0.0071
2863.00,0.0071
2862.00,0.0071
2861.00,0.0070
2860.00,0.0070
2859.00,0.0069
2858.00,0.0068
2857.00,0.0068
2856.00,0.0067
2855.00,0.0067
2854.00,0.0067
2853.00,0.0067
2852.00,0.0067
2851.00,0.0067
2850.00,0.0068
2849.00,0.0069
2848.00,0.0070
2847.00,0.0072
2846.00,0.0074
2845.00,0.0076
2844.00,0.0077
2843.00,0.0079
2842.00,0.0080
2841.00,0.0081
2840.00,0.0082
2839.00,0.0082
2838.00,0.0083
2837.00,0.0083
2836.00,0.0083
2835.00,0.0082
2834.00,0.0081
2833.00,0.0080
2832.00,0.0079
2831.00,0.0078
2830.00,0.0077
2829.00,0.0076
2828.00,0.0075
2827.00,0.0074
2826.00,0.0073
2825.00,0.0073
2824.00,0.0072
2823.00,0.0072
2822.00,0.0072
2821.00,0.0071
2820.00,0.0071
2819.00,0.0071
2818.00,0.0071
2817.00,0.0071
2816.00,0.0071
2815.00,0.0072
2814.00,0.0072
2813.00,0.0072
2812.00,0.0072
2811.00,0.0072
2810.00,0.0072
2809.00,0.0072
2808.00,0.0072
2807.00,0.0072
2806.00,0.0072
2805.00,0.0072
2804.00,0.0072
2803.00,0.0072
2802.00,0.0072
2801.00,0.0072
2800.00,0.0072
2799.00,0.0072
2798.00,0.0071
2797.00,0.0071
2796.00,0.0071
2795.00,0.0072
2794.00,0.0072
2793.00,0.0071
2792.00,0.0071
2791.00,0.0071
2790.00,0.0071
2789.00,0.0070
2788.00,0.0070
2787.00,0.0070
2786.00,0.0070
2785.00,0.0069
2784.00,0.0069
2783.00,0.0068
2782.00,0.0068
2781.00,0.0067
2780.00,0.0067
2779.00,0.0067
2778.00,0.0066
2777.00,0.0066
2776.00,0.0066
2775.00,0.0066
2774.00,0.0066
2773.00,0.0066
2772.00,0.0065
2771.00,0.0065
2770.00,0.0065
2769.00,0.0065
2768.00,0.0065
2767.00,0.0064
2766.00,0.0064
2765.00,0.0064
2764.00,0.0064
2763.00,0.0064
2762.00,0.0064
2761.00,0.0064
2760.00,0.0064
2759.00,0.0063
2758.00,0.0063
2757.00,0.0063
2756.00,0.0063
2755.00,0.0063
2754.00,0.0063
2753.00,0.0063
2752.00,0.0063
2751.00,0.0063
2750.00,0.0063
2749.00,0.0063
2748.00,0.0063
2747.00,0.0063
2746.00,0.0063
2745.00,0.0063
2744.00,0.0062
2743.00,0.0062
2742.00,0.0062
2741.00,0.0062
2740.00,0.0062
2739.00,0.0062
2738.00,0.0061
2737.00,0.0061
2736.00,0.0061
2735.00,0.0061
2734.00,0.0061
2733.00,0.0061
2732.00,0.0060
2731.00,0.0060
2730.00,0.0060
2729.00,0.0060
2728.00,0.0060
2727.00,0.0060
2726.00,0.0060
2725.00,0.0060
2724.00,0.0060
2723.00,0.0060
2722.00,0.0060
2721.00,0.0060
2720.00,0.0061
2719.00,0.0061
2718.00,0.0061
2717.00,0.0061
2716.00,0.0061
2715.00,0.0061
2714.00,0.0061
2713.00,0.0061
2712.00,0.0061
2711.00,0.0061
2710.00,0.0061
2709.00,0.0061
2708.00,0.0061
2707.00,0.0061
2706.00,0.0061
2705.00,0.0061
2704.00,0.0061
2703.00,0.0062
2702.00,0.0062
2701.00,0.0062
2700.00,0.0061
2699.00,0.0061
2698.00,0.0061
2697.00,0.0061
2696.00,0.0061
2695.00,0.0061
2694.00,0.0061
2693.00,0.0061
2692.00,0.0061
2691.00,0.0061
2690.00,0.0061
2689.00,0.0061
2688.00,0.0061
2687.00,0.0061
2686.00,0.0061
2685.00,0.0061
2684.00,0.0061
2683.00,0.0061
2682.00,0.0061
2681.00,0.0060
2680.00,0.0060
2679.00,0.0060
2678.00,0.0060
2677.00,0.0060
2676.00,0.0060
2675.00,0.0060
2674.00,0.0060
2673.00,0.0060
2672.00,0.0060
2671.00,0.0060
2670.00,0.0060
2669.00,0.0060
2668.00,0.0060
2667.00,0.0060
2666.00,0.0060
2665.00,0.0061
2664.00,0.0061
2663.00,0.0062
2662.00,0.0062
2661.00,0.0062
2660.00,0.0062
2659.00,0.0063
2658.00,0.0063
2657.00,0.0063
2656.00,0.0063
2655.00,0.0063
2654.00,0.0063
2653.00,0.0063
2652.00,0.0063
2651.00,0.0063
2650.00,0.0063
2649.00,0.0064
2648.00,0.0064
2647.00,0.0064
2646.00,0.0064
2645.00,0.0064
2644.00,0.0064
2643.00,0.0064
2642.00,0.0064
2641.00,0.0063
2640.00,0.0063
2639.00,0.0063
2638.00,0.0063
2637.00,0.0063
2636.00,0.0063
2635.00,0.0063
2634.00,0.0062
2633.00,0.0062
2632.00,0.0062
2631.00,0.0062
2630.00,0.0062
2629.00,0.0062
2628.00,0.0062
2627.00,0.0062
2626.00,0.0062
2625.00,0.0062
2624.00,0.0062
2623.00,0.0062
2622.00,0.0061
2621.00,0.0061
2620.00,0.0062
2619.00,0.0062
2618.00,0.0062
2617.00,0.0062
2616.00,0.0062
2615.00,0.0062
2614.00,0.0062
2613.00,0.0062
2612.00,0.0063
2611.00,0.0063
2610.00,0.0062
2609.00,0.0062
2608.00,0.0063
2607.00,0.0063
2606.00,0.0063
2605.00,0.0063
2604.00,0.0063
2603.00,0.0063
2602.00,0.0063
2601.00,0.0062
2600.00,0.0062
2599.00,0.0062
2598.00,0.0062
2597.00,0.0061
2596.00,0.0061
2595.00,0.0061
2594.00,0.0061
2593.00,0.0061
2592.00,0.0061
2591.00,0.0060
2590.00,0.0060
2589.00,0.0060
2588.00,0.0060
2587.00,0.0060
2586.00,0.0060
2585.00,0.0060
2584.00,0.0059
2583.00,0.0059
2582.00,0.0059
2581.00,0.0059
2580.00,0.0059
2579.00,0.0059
2578.00,0.0059
2577.00,0.0059
2576.00,0.0059
2575.00,0.0059
2574.00,0.0059
2573.00,0.0058
2572.00,0.0058
2571.00,0.0058
2570.00,0.0058
2569.00,0.0058
2568.00,0.0058
2567.00,0.0058
2566.00,0.0058
2565.00,0.0058
2564.00,0.0057
2563.00,0.0057
2562.00,0.0057
2561.00,0.0057
2560.00,0.0057
2559.00,0.0056
2558.00,0.0056
2557.00,0.0056
2556.00,0.0056
2555.00,0.0056
2554.00,0.0056
2553.00,0.0056
2552.00,0.0056
2551.00,0.0056
2550.00,0.0056
2549.00,0.0056
2548.00,0.0056
2547.00,0.0056
2546.00,0.0056
2545.00,0.0057
2544.00,0.0057
2543.00,0.0057
2542.00,0.0057
2541.00,0.0057
2540.00,0.0057
2539.00,0.0057
2538.00,0.0056
2537.00,0.0057
2536.00,0.0057
2535.00,0.0057
2534.00,0.0057
2533.00,0.0057
2532.00,0.0057
2531.00,0.0057
2530.00,0.0057
2529.00,0.0057
2528.00,0.0057
2527.00,0.0057
2526.00,0.0057
2525.00,0.0057
2524.00,0.0057
2523.00,0.0057
2522.00,0.0057
2521.00,0.0057
2520.00,0.0057
2519.00,0.0057
2518.00,0.0057
2517.00,0.0057
2516.00,0.0056
2515.00,0.0056
2514.00,0.0056
2513.00,0.0057
2512.00,0.0057
2511.00,0.0057
2510.00,0.0057
2509.00,0.0057
2508.00,0.0057
2507.00,0.0056
2506.00,0.0056
2505.00,0.0056
2504.00,0.0056
2503.00,0.0055
2502.00,0.0055
2501.00,0.0055
2500.00,0.0055
2499.00,0.0055
2498.00,0.0055
2497.00,0.0056
2496.00,0.0056
2495.00,0.0056
2494.00,0.0056
2493.00,0.0056
2492.00,0.0056
2491.00,0.0056
2490.00,0.0056
2489.00,0.0056
2488.00,0.0056
2487.00,0.0056
2486.00,0.0056
2485.00,0.0056
2484.00,0.0056
2483.00,0.0056
2482.00,0.0056
2481.00,0.0056
2480.00,0.0056
2479.00,0.0056
2478.00,0.0056
2477.00,0.0056
2476.00,0.0056
2475.00,0.0056
2474.00,0.0055
2473.00,0.0055
2472.00,0.0055
2471.00,0.0055
2470.00,0.0055
2469.00,0.0055
2468.00,0.0055
2467.00,0.0055
2466.00,0.0055
2465.00,0.0055
2464.00,0.0055
2463.00,0.0055
2462.00,0.0055
2461.00,0.0055
2460.00,0.0056
2459.00,0.0056
2458.00,0.0056
2457.00,0.0056
2456.00,0.0056
2455.00,0.0056
2454.00,0.0056
2453.00,0.0056
2452.00,0.0056
2451.00,0.0056
2450.00,0.0055
2449.00,0.0055
2448.00,0.0055
2447.00,0.0055
2446.00,0.0055
2445.00,0.0055
2444.00,0.0055
2443.00,0.0055
2442.00,0.0055
2441.00,0.0055
2440.00,0.0055
2439.00,0.0055
2438.00,0.0055
2437.00,0.0055
2436.00,0.0055
2435.00,0.0055
2434.00,0.0054
2433.00,0.0054
2432.00,0.0054
2431.00,0.0054
2430.00,0.0054
2429.00,0.0054
2428.00,0.0055
2427.00,0.0054
2426.00,0.0054
2425.00,0.0054
2424.00,0.0054
2423.00,0.0054
2422.00,0.0053
2421.00,0.0053
2420.00,0.0053
2419.00,0.0053
2418.00,0.0053
2417.00,0.0053
2416.00,0.0052
2415.00,0.0052
2414.00,0.0052
2413.00,0.0053
2412.00,0.0053
2411.00,0.0053
2410.00,0.0053
2409.00,0.0053
2408.00,0.0053
2407.00,0.0052
2406.00,0.0052
2405.00,0.0052
2404.00,0.0052
2403.00,0.0052
2402.00,0.0052
2401.00,0.0052
2400.00,0.0052
2399.00,0.0052
2398.00,0.0052
2397.00,0.0052
2396.00,0.0052
2395.00,0.0052
2394.00,0.0052
2393.00,0.0051
2392.00,0.0051
2391.00,0.0051
2390.00,0.0050
2389.00,0.0050
2388.00,0.0050
2387.00,0.0050
2386.00,0.0050
2385.00,0.0050
2384.00,0.0050
2383.00,0.0050
2382.00,0.0050
2381.00,0.0050
2380.00,0.0050
2379.00,0.0050
2378.00,0.0050
2377.00,0.0049
2376.00,0.0049
2375.00,0.0049
2374.00,0.0049
2373.00,0.0049
2372.00,0.0049
2371.00,0.0049
2370.00,0.0049
2369.00,0.0049
2368.00,0.0049
2367.00,0.0048
2366.00,0.0048
2365.00,0.0048
2364.00,0.0049
2363.00,0.0049
2362.00,0.0049
2361.00,0.0049
2360.00,0.0049
2359.00,0.0049
2358.00,0.0049
2357.00,0.0049
2356.00,0.0048
2355.00,0.0047
2354.00,0.0047
2353.00,0.0046
2352.00,0.0047
2351.00,0.0048
2350.00,0.0049
2349.00,0.0050
2348.00,0.0050
2347.00,0.0050
2346.00,0.0050
2345.00,0.0050
2344.00,0.0050
2343.00,0.0051
2342.00,0.0051
2341.00,0.0051
2340.00,0.0051
2339.00,0.0051
2338.00,0.0051
2337.00,0.0051
2336.00,0.0051
2335.00,0.0051
2334.00,0.0050
2333.00,0.0050
2332.00,0.0050
2331.00,0.0050
2330.00,0.0050
2329.00,0.0051
2328.00,0.0054
2327.00,0.0056
2326.00,0.0059
2325.00,0.0059
2324.00,0.0058
2323.00,0.0057
2322.00,0.0055
2321.00,0.0054
2320.00,0.0054
2319.00,0.0054
2318.00,0.0053
2317.00,0.0053
2316.00,0.0053
2315.00,0.0052
2314.00,0.0052
2313.00,0.0051
2312.00,0.0051
2311.00,0.0050
2310.00,0.0050
2309.00,0.0050
2308.00,0.0050
2307.00,0.0050
2306.00,0.0050
2305.00,0.0050
2304.00,0.0051
2303.00,0.0051
2302.00,0.0051
2301.00,0.0051
2300.00,0.0052
2299.00,0.0052
2298.00,0.0053
2297.00,0.0053
2296.00,0.0054
2295.00,0.0054
2294.00,0.0055
2293.00,0.0055
2292.00,0.0056
2291.00,0.0056
2290.00,0.0056
2289.00,0.0057
2288.00,0.0057
2287.00,0.0057
2286.00,0.0056
2285.00,0.0056
2284.00,0.0056
2283.00,0.0056
2282.00,0.0056
2281.00,0.0056
2280.00,0.0055
2279.00,0.0055
2278.00,0.0054
2277.00,0.0054
2276.00,0.0053
2275.00,0.0053
2274.00,0.0053
2273.00,0.0053
2272.00,0.0054
2271.00,0.0054
2270.00,0.0054
2269.00,0.0053
2268.00,0.0052
2267.00,0.0052
2266.00,0.0051
2265.00,0.0050
2264.00,0.0050
2263.00,0.0050
2262.00,0.0050
2261.00,0.0051
2260.00,0.0051
2259.00,0.0051
2258.00,0.0050
2257.00,0.0049
2256.00,0.0048
2255.00,0.0047
2254.00,0.0047
2253.00,0.0047
2252.00,0.0048
2251.00,0.0049
2250.00,0.0049
2249.00,0.0049
2248.00,0.0048
2247.00,0.0048
2246.00,0.0047
2245.00,0.0046
2244.00,0.0046
2243.00,0.0046
2242.00,0.0045
2241.00,0.0045
2240.00,0.0045
2239.00,0.0045
2238.00,0.0045
2237.00,0.0045
2236.00,0.0045
2235.00,0.0045
2234.00,0.0045
2233.00,0.0044
2232.00,0.0044
2231.00,0.0044
2230.00,0.0043
2229.00,0.0043
2228.00,0.0044
2227.00,0.0044
2226.00,0.0045
2225.00,0.0045
2224.00,0.0045
2223.00,0.0045
2222.00,0.0044
2221.00,0.0044
2220.00,0.0044
2219.00,0.0045
2218.00,0.0044
2217.00,0.0044
2216.00,0.0043
2215.00,0.0043
2214.00,0.0043
2213.00,0.0044
2212.00,0.0044
2211.00,0.0044
2210.00,0.0044
2209.00,0.0045
2208.00,0.0045
2207.00,0.0045
2206.00,0.0045
2205.00,0.0046
2204.00,0.0047
2203.00,0.0047
2202.00,0.0046
2201.00,0.0045
2200.00,0.0045
2199.00,0.0045
2198.00,0.0044
2197.00,0.0044
2196.00,0.0044
2195.00,0.0044
2194.00,0.0043
2193.00,0.0043
2192.00,0.0043
2191.00,0.0043
2190.00,0.0043
2189.00,0.0043
2188.00,0.0042
2187.00,0.0042
2186.00,0.0043
2185.00,0.0043
2184.00,0.0042
2183.00,0.0041
2182.00,0.0039
2181.00,0.0037
2180.00,0.0037
2179.00,0.0038
2178.00,0.0037
2177.00,0.0037
2176.00,0.0037
2175.00,0.0038
2174.00,0.0040
2173.00,0.0041
2172.00,0.0042
2171.00,0.0043
2170.00,0.0044
2169.00,0.0046
2168.00,0.0047
2167.00,0.0049
2166.00,0.0050
2165.00,0.0052
2164.00,0.0054
2163.00,0.0053
2162.00,0.0049
2161.00,0.0040
2160.00,0.0031
2159.00,0.0022
2158.00,0.0017
2157.00,0.0016
2156.00,0.0019
2155.00,0.0022
2154.00,0.0025
2153.00,0.0028
2152.00,0.0030
2151.00,0.0032
2150.00,0.0032
2149.00,0.0032
2148.00,0.0031
2147.00,0.0030
2146.00,0.0030
2145.00,0.0031
2144.00,0.0033
2143.00,0.0034
2142.00,0.0034
2141.00,0.0034
2140.00,0.0034
2139.00,0.0033
2138.00,0.0033
2137.00,0.0031
2136.00,0.0030
2135.00,0.0028
2134.00,0.0028
2133.00,0.0028
2132.00,0.0029
2131.00,0.0030
2130.00,0.0030
2129.00,0.0031
2128.00,0.0031
2127.00,0.0033
2126.00,0.0034
2125.00,0.0036
2124.00,0.0037
2123.00,0.0038
2122.00,0.0038
2121.00,0.0038
2120.00,0.0038
2119.00,0.0039
2118.00,0.0041
2117.00,0.0042
2116.00,0.0042
2115.00,0.0043
2114.00,0.0043
2113.00,0.0043
2112.00,0.0043
2111.00,0.0043
2110.00,0.0042
2109.00,0.0042
2108.00,0.0042
2107.00,0.0041
2106.00,0.0041
2105.00,0.0040
2104.00,0.0040
2103.00,0.0040
2102.00,0.0040
2101.00,0.0040
2100.00,0.0040
2099.00,0.0040
2098.00,0.0039
2097.00,0.0038
2096.00,0.0038
2095.00,0.0037
2094.00,0.0037
2093.00,0.0038
2092.00,0.0038
2091.00,0.0039
2090.00,0.0040
2089.00,0.0041
2088.00,0.0041
2087.00,0.0042
2086.00,0.0042
2085.00,0.0043
2084.00,0.0044
2083.00,0.0045
2082.00,0.0045
2081.00,0.0044
2080.00,0.0044
2079.00,0.0044
2078.00,0.0044
2077.00,0.0045
2076.00,0.0045
2075.00,0.0045
2074.00,0.0044
2073.00,0.0044
2072.00,0.0044
2071.00,0.0044
2070.00,0.0043
2069.00,0.0043
2068.00,0.0043
2067.00,0.0044
2066.00,0.0044
2065.00,0.0043
2064.00,0.0043
2063.00,0.0041
2062.00,0.0040
2061.00,0.0039
2060.00,0.0039
2059.00,0.0039
2058.00,0.0040
2057.00,0.0040
2056.00,0.0040
2055.00,0.0040
2054.00,0.0041
2053.00,0.0043
2052.00,0.0045
2051.00,0.0045
2050.00,0.0043
2049.00,0.0040
2048.00,0.0039
2047.00,0.0038
2046.00,0.0037
2045.00,0.0036
2044.00,0.0036
2043.00,0.0035
2042.00,0.0034
2041.00,0.0034
2040.00,0.0035
2039.00,0.0035
2038.00,0.0034
2037.00,0.0032
2036.00,0.0032
2035.00,0.0031
2034.00,0.0031
2033.00,0.0030
2032.00,0.0031
2031.00,0.0031
2030.00,0.0031
2029.00,0.0032
2028.00,0.0032
2027.00,0.0032
2026.00,0.0030
2025.00,0.0030
2024.00,0.0030
2023.00,0.0030
2022.00,0.0029
2021.00,0.0028
2020.00,0.0028
2019.00,0.0029
2018.00,0.0030
2017.00,0.0031
2016.00,0.0032
2015.00,0.0032
2014.00,0.0031
2013.00,0.0031
2012.00,0.0033
2011.00,0.0035
2010.00,0.0036
2009.00,0.0036
2008.00,0.0034
2007.00,0.0031
2006.00,0.0029
2005.00,0.0028
2004.00,0.0029
2003.00,0.0030
2002.00,0.0032
2001.00,0.0034
2000.00,0.0036
1999.00,0.0037
1998.00,0.0038
1997.00,0.0038
1996.00,0.0038
1995.00,0.0039
1994.00,0.0039
1993.00,0.0039
1992.00,0.0040
1991.00,0.0041
1990.00,0.0041
1989.00,0.0042
1988.00,0.0043
1987.00,0.0044
1986.00,0.0044
1985.00,0.0045
1984.00,0.0046
1983.00,0.0048
1982.00,0.0050
1981.00,0.0050
1980.00,0.0050
1979.00,0.0046
1978.00,0.0041
1977.00,0.0037
1976.00,0.0036
1975.00,0.0035
1974.00,0.0035
1973.00,0.0035
1972.00,0.0035
1971.00,0.0033
1970.00,0.0031
1969.00,0.0030
1968.00,0.0032
1967.00,0.0033
1966.00,0.0033
1965.00,0.0032
1964.00,0.0030
1963.00,0.0029
1962.00,0.0027
1961.00,0.0027
1960.00,0.0028
1959.00,0.0029
1958.00,0.0029
1957.00,0.0030
1956.00,0.0032
1955.00,0.0032
1954.00,0.0032
1953.00,0.0033
1952.00,0.0034
1951.00,0.0034
1950.00,0.0034
1949.00,0.0034
1948.00,0.0035
1947.00,0.0035
1946.00,0.0034
1945.00,0.0032
1944.00,0.0033
1943.00,0.0034
1942.00,0.0036
1941.00,0.0037
1940.00,0.0037
1939.00,0.0037
1938.00,0.0037
1937.00,0.0037
1936.00,0.0038
1935.00,0.0038
1934.00,0.0038
1933.00,0.0038
1932.00,0.0038
1931.00,0.0038
1930.00,0.0038
1929.00,0.0037
1928.00,0.0037
1927.00,0.0036
1926.00,0.0035
1925.00,0.0034
1924.00,0.0035
1923.00,0.0037
1922.00,0.0038
1921.00,0.0038
1920.00,0.0038
1919.00,0.0038
1918.00,0.0038
1917.00,0.0039
1916.00,0.0039
1915.00,0.0039
1914.00,0.0038
1913.00,0.0038
1912.00,0.0038
1911.00,0.0038
1910.00,0.0039
1909.00,0.0039
1908.00,0.0040
1907.00,0.0040
1906.00,0.0040
1905.00,0.0040
1904.00,0.0040
1903.00,0.0040
1902.00,0.0039
1901.00,0.0039
1900.00,0.0039
1899.00,0.0038
1898.00,0.0037
1897.00,0.0037
1896.00,0.0037
1895.00,0.0037
1894.00,0.0037
1893.00,0.0036
1892.00,0.0036
1891.00,0.0036
1890.00,0.0036
1889.00,0.0036
1888.00,0.0037
1887.00,0.0036
1886.00,0.0035
1885.00,0.0034
1884.00,0.0034
1883.00,0.0035
1882.00,0.0035
1881.00,0.0035
1880.00,0.0035
1879.00,0.0036
1878.00,0.0036
1877.00,0.0036
1876.00,0.0036
1875.00,0.0036
1874.00,0.0036
1873.00,0.0035
1872.00,0.0034
1871.00,0.0034
1870.00,0.0033
1869.00,0.0034
1868.00,0.0036
1867.00,0.0037
1866.00,0.0036
1865.00,0.0036
1864.00,0.0036
1863.00,0.0036
1862.00,0.0036
1861.00,0.0036
1860.00,0.0036
1859.00,0.0035
1858.00,0.0035
1857.00,0.0034
1856.00,0.0034
1855.00,0.0034
1854.00,0.0034
1853.00,0.0034
1852.00,0.0034
1851.00,0.0034
1850.00,0.0033
1849.00,0.0033
1848.00,0.0033
1847.00,0.0032
1846.00,0.0031
1845.00,0.0032
1844.00,0.0034
1843.00,0.0036
1842.00,0.0036
1841.00,0.0035
1840.00,0.0034
1839.00,0.0033
1838.00,0.0034
1837.00,0.0034
1836.00,0.0035
1835.00,0.0035
1834.00,0.0035
1833.00,0.0034
1832.00,0.0033
1831.00,0.0032
1830.00,0.0033
1829.00,0.0035
1828.00,0.0036
1827.00,0.0036
1826.00,0.0035
1825.00,0.0036
1824.00,0.0037
1823.00,0.0037
1822.00,0.0036
1821.00,0.0035
1820.00,0.0034
1819.00,0.0033
1818.00,0.0032
1817.00,0.0032
1816.00,0.0032
1815.00,0.0032
1814.00,0.0032
1813.00,0.0032
1812.00,0.0032
1811.00,0.0032
1810.00,0.0033
1809.00,0.0033
1808.00,0.0034
1807.00,0.0034
1806.00,0.0033
1805.00,0.0033
1804.00,0.0033
1803.00,0.0033
1802.00,0.0033
1801.00,0.0033
1800.00,0.0034
1799.00,0.0034
1798.00,0.0034
1797.00,0.0034
1796.00,0.0034
1795.00,0.0032
1794.00,0.0031
1793.00,0.0032
1792.00,0.0035
1791.00,0.0038
1790.00,0.0039
1789.00,0.0038
1788.00,0.0037
1787.00,0.0037
1786.00,0.0037
1785.00,0.0038
1784.00,0.0038
1783.00,0.0037
1782.00,0.0036
1781.00,0.0036
1780.00,0.0037
1779.00,0.0038
1778.00,0.0037
1777.00,0.0036
1776.00,0.0036
1775.00,0.0034
1774.00,0.0032
1773.00,0.0032
1772.00,0.0035
1771.00,0.0039
1770.00,0.0041
1769.00,0.0042
1768.00,0.0043
1767.00,0.0044
1766.00,0.0043
1765.00,0.0042
1764.00,0.0040
1763.00,0.0040
1762.00,0.0042
1761.00,0.0043
1760.00,0.0044
1759.00,0.0044
1758.00,0.0044
1757.00,0.0045
1756.00,0.0047
1755.00,0.0048
1754.00,0.0047
1753.00,0.0048
1752.00,0.0049
1751.00,0.0051
1750.00,0.0053
1749.00,0.0054
1748.00,0.0056
1747.00,0.0059
1746.00,0.0061
1745.00,0.0064
1744.00,0.0068
1743.00,0.0071
1742.00,0.0074
1741.00,0.0078
1740.00,0.0085
1739.00,0.0093
1738.00,0.0099
1737.00,0.0103
1736.00,0.0107
1735.00,0.0113
1734.00,0.0120
1733.00,0.0127
1732.00,0.0131
1731.00,0.0132
1730.00,0.0131
1729.00,0.0131
1728.00,0.0131
1727.00,0.0130
1726.00,0.0129
1725.00,0.0128
1724.00,0.0127
1723.00,0.0128
1722.00,0.0127
1721.00,0.0128
1720.00,0.0130
1719.00,0.0135
1718.00,0.0144
1717.00,0.0157
1716.00,0.0173
1715.00,0.0191
1714.00,0.0211
1713.00,0.0234
1712.00,0.0262
1711.00,0.0295
1710.00,0.0333
1709.00,0.0375
1708.00,0.0423
1707.00,0.0475
1706.00,0.0529
1705.00,0.0581
1704.00,0.0627
1703.00,0.0668
1702.00,0.0702
1701.00,0.0720
1700.00,0.0717
1699.00,0.0706
1698.00,0.0693
1697.00,0.0669
1696.00,0.0627
1695.00,0.0579
1694.00,0.0542
1693.00,0.0518
1692.00,0.0501
1691.00,0.0486
1690.00,0.0474
1689.00,0.0466
1688.00,0.0462
1687.00,0.0463
1686.00,0.0465
1685.00,0.0464
1684.00,0.0460
1683.00,0.0458
1682.00,0.0463
1681.00,0.0473
1680.00,0.0485
1679.00,0.0498
1678.00,0.0513
1677.00,0.0531
1676.00,0.0552
1675.00,0.0575
1674.00,0.0600
1673.00,0.0625
1672.00,0.0651
1671.00,0.0675
1670.00,0.0693
1669.00,0.0703
1668.00,0.0710
1667.00,0.0713
1666.00,0.0715
1665.00,0.0712
1664.00,0.0703
1663.00,0.0687
1662.00,0.0668
1661.00,0.0652
1660.00,0.0640
1659.00,0.0632
1658.00,0.0626
1657.00,0.0625
1656.00,0.0627
1655.00,0.0630
1654.00,0.0626
1653.00,0.0616
1652.00,0.0610
1651.00,0.0612
1650.00,0.0617
1649.00,0.0620
1648.00,0.0616
1647.00,0.0602
1646.00,0.0583
1645.00,0.0567
1644.00,0.0554
1643.00,0.0542
1642.00,0.0530
1641.00,0.0516
1640.00,0.0502
1639.00,0.0488
1638.00,0.0475
1637.00,0.0460
1636.00,0.0444
1635.00,0.0431
1634.00,0.0423
1633.00,0.0421
1632.00,0.0422
1631.00,0.0424
1630.00,0.0427
1629.00,0.0430
1628.00,0.0433
1627.00,0.0438
1626.00,0.0441
1625.00,0.0443
1624.00,0.0441
1623.00,0.0437
1622.00,0.0432
1621.00,0.0426
1620.00,0.0421
1619.00,0.0415
1618.00,0.0405
1617.00,0.0391
1616.00,0.0378
1615.00,0.0368
1614.00,0.0361
1613.00,0.0357
1612.00,0.0354
1611.00,0.0353
1610.00,0.0353
1609.00,0.0354
1608.00,0.0355
1607.00,0.0354
1606.00,0.0350
1605.00,0.0342
1604.00,0.0332
1603.00,0.0318
1602.00,0.0302
1601.00,0.0285
1600.00,0.0268
1599.00,0.0252
1598.00,0.0238
1597.00,0.0226
1596.00,0.0216
1595.00,0.0207
1594.00,0.0199
1593.00,0.0194
1592.00,0.0189
1591.00,0.0184
1590.00,0.0180
1589.00,0.0176
1588.00,0.0172
1587.00,0.0168
1586.00,0.0165
1585.00,0.0162
1584.00,0.0161
1583.00,0.0161
1582.00,0.0163
1581.00,0.0167
1580.00,0.0173
1579.00,0.0178
1578.00,0.0182
1577.00,0.0185
1576.00,0.0184
1575.00,0.0181
1574.00,0.0175
1573.00,0.0169
1572.00,0.0162
1571.00,0.0155
1570.00,0.0150
1569.00,0.0148
1568.00,0.0147
1567.00,0.0146
1566.00,0.0145
1565.00,0.0146
1564.00,0.0147
1563.00,0.0147
1562.00,0.0147
1561.00,0.0145
1560.00,0.0144
1559.00,0.0145
1558.00,0.0150
1557.00,0.0154
1556.00,0.0156
1555.00,0.0157
1554.00,0.0158
1553.00,0.0159
1552.00,0.0160
1551.00,0.0160
1550.00,0.0161
1549.00,0.0162
1548.00,0.0164
1547.00,0.0166
1546.00,0.0170
1545.00,0.0177
1544.00,0.0184
1543.00,0.0191
1542.00,0.0202
1541.00,0.0220
1540.00,0.0249
1539.00,0.0285
1538.00,0.0320
1537.00,0.0353
1536.00,0.0384
1535.00,0.0420
1534.00,0.0462
1533.00,0.0509
1532.00,0.0553
1531.00,0.0596
1530.00,0.0638
1529.00,0.0680
1528.00,0.0717
1527.00,0.0746
1526.00,0.0763
1525.00,0.0770
1524.00,0.0768
1523.00,0.0758
1522.00,0.0734
1521.00,0.0699
1520.00,0.0664
1519.00,0.0636
1518.00,0.0609
1517.00,0.0575
1516.00,0.0539
1515.00,0.0507
1514.00,0.0483
1513.00,0.0462
1512.00,0.0443
1511.00,0.0430
1510.00,0.0423
1509.00,0.0420
1508.00,0.0420
1507.00,0.0427
1506.00,0.0444
1505.00,0.0467
1504.00,0.0494
1503.00,0.0523
1502.00,0.0556
1501.00,0.0590
1500.00,0.0624
1499.00,0.0657
1498.00,0.0688
1497.00,0.0716
1496.00,0.0739
1495.00,0.0761
1494.00,0.0782
1493.00,0.0803
1492.00,0.0821
1491.00,0.0834
1490.00,0.0839
1489.00,0.0838
1488.00,0.0833
1487.00,0.0826
1486.00,0.0818
1485.00,0.0806
1484.00,0.0790
1483.00,0.0770
1482.00,0.0745
1481.00,0.0716
1480.00,0.0687
1479.00,0.0661
1478.00,0.0638
1477.00,0.0614
1476.00,0.0591
1475.00,0.0569
1474.00,0.0547
1473.00,0.0520
1472.00,0.0490
1471.00,0.0465
1470.00,0.0447
1469.00,0.0433
1468.00,0.0420
1467.00,0.0408
1466.00,0.0395
1465.00,0.0384
1464.00,0.0374
1463.00,0.0370
1462.00,0.0369
1461.00,0.0370
1460.00,0.0371
1459.00,0.0372
1458.00,0.0372
1457.00,0.0369
1456.00,0.0366
1455.00,0.0364
1454.00,0.0364
1453.00,0.0367
1452.00,0.0370
1451.00,0.0374
1450.00,0.0380
1449.00,0.0388
1448.00,0.0399
1447.00,0.0411
1446.00,0.0426
1445.00,0.0442
1444.00,0.0458
1443.00,0.0471
1442.00,0.0483
1441.00,0.0494
1440.00,0.0507
1439.00,0.0524
1438.00,0.0549
1437.00,0.0586
1436.00,0.0632
1435.00,0.0682
1434.00,0.0733
1433.00,0.0780
1432.00,0.0817
1431.00,0.0838
1430.00,0.0841
1429.00,0.0828
1428.00,0.0801
1427.00,0.0763
1426.00,0.0716
1425.00,0.0663
1424.00,0.0607
1423.00,0.0556
1422.00,0.0516
1421.00,0.0483
1420.00,0.0451
1419.00,0.0418
1418.00,0.0390
1417.00,0.0367
1416.00,0.0347
1415.00,0.0329
1414.00,0.0312
1413.00,0.0296
1412.00,0.0280
1411.00,0.0266
1410.00,0.0254
1409.00,0.0243
1408.00,0.0235
1407.00,0.0227
1406.00,0.0221
1405.00,0.0215
1404.00,0.0210
1403.00,0.0205
1402.00,0.0202
1401.00,0.0200
1400.00,0.0199
1399.00,0.0199
1398.00,0.0202
1397.00,0.0205
1396.00,0.0210
1395.00,0.0218
1394.00,0.0227
1393.00,0.0237
1392.00,0.0245
1391.00,0.0252
1390.00,0.0260
1389.00,0.0270
1388.00,0.0283
1387.00,0.0302
1386.00,0.0326
1385.00,0.0350
1384.00,0.0371
1383.00,0.0381
1382.00,0.0380
1381.00,0.0367
1380.00,0.0347
1379.00,0.0324
1378.00,0.0301
1377.00,0.0280
1376.00,0.0261
1375.00,0.0245
1374.00,0.0233
1373.00,0.0224
1372.00,0.0218
1371.00,0.0217
1370.00,0.0218
1369.00,0.0223
1368.00,0.0231
1367.00,0.0241
1366.00,0.0254
1365.00,0.0271
1364.00,0.0291
1363.00,0.0314
1362.00,0.0339
1361.00,0.0366
1360.00,0.0393
1359.00,0.0421
1358.00,0.0449
1357.00,0.0477
1356.00,0.0503
1355.00,0.0528
1354.00,0.0550
1353.00,0.0569
1352.00,0.0586
1351.00,0.0601
1350.00,0.0616
1349.00,0.0631
1348.00,0.0645
1347.00,0.0658
1346.00,0.0667
1345.00,0.0672
1344.00,0.0673
1343.00,0.0671
1342.00,0.0667
1341.00,0.0661
1340.00,0.0653
1339.00,0.0643
1338.00,0.0632
1337.00,0.0621
1336.00,0.0612
1335.00,0.0607
1334.00,0.0607
1333.00,0.0614
1332.00,0.0626
1331.00,0.0640
1330.00,0.0651
1329.00,0.0653
1328.00,0.0647
1327.00,0.0631
1326.00,0.0609
1325.00,0.0584
1324.00,0.0558
1323.00,0.0535
1322.00,0.0514
1321.00,0.0498
1320.00,0.0486
1319.00,0.0479
1318.00,0.0477
1317.00,0.0479
1316.00,0.0485
1315.00,0.0495
1314.00,0.0509
1313.00,0.0529
1312.00,0.0553
1311.00,0.0583
1310.00,0.0617
1309.00,0.0654
1308.00,0.0689
1307.00,0.0718
1306.00,0.0737
1305.00,0.0745
1304.00,0.0744
1303.00,0.0736
1302.00,0.0723
1301.00,0.0707
1300.00,0.0687
1299.00,0.0665
1298.00,0.0642
1297.00,0.0617
1296.00,0.0594
1295.00,0.0572
1294.00,0.0554
1293.00,0.0540
1292.00,0.0531
1291.00,0.0525
1290.00,0.0524
1289.00,0.0525
1288.00,0.0528
1287.00,0.0530
1286.00,0.0532
1285.00,0.0534
1284.00,0.0535
1283.00,0.0537
1282.00,0.0539
1281.00,0.0542
1280.00,0.0544
1279.00,0.0545
1278.00,0.0544
1277.00,0.0542
1276.00,0.0538
1275.00,0.0532
1274.00,0.0525
1273.00,0.0518
1272.00,0.0511
1271.00,0.0505
1270.00,0.0499
1269.00,0.0493
1268.00,0.0486
1267.00,0.0478
1266.00,0.0468
1265.00,0.0456
1264.00,0.0442
1263.00,0.0426
1262.00,0.0410
1261.00,0.0394
1260.00,0.0379
1259.00,0.0366
1258.00,0.0354
1257.00,0.0344
1256.00,0.0336
1255.00,0.0329
1254.00,0.0325
1253.00,0.0324
1252.00,0.0325
1251.00,0.0331
1250.00,0.0341
1249.00,0.0357
1248.00,0.0377
1247.00,0.0403
1246.00,0.0433
1245.00,0.0466
1244.00,0.0501
1243.00,0.0537
1242.00,0.0572
1241.00,0.0606
1240.00,0.0636
1239.00,0.0658
1238.00,0.0670
1237.00,0.0670
1236.00,0.0659
1235.00,0.0640
1234.00,0.0619
1233.00,0.0601
1232.00,0.0588
1231.00,0.0583
1230.00,0.0587
1229.00,0.0599
1228.00,0.0620
1227.00,0.0649
1226.00,0.0687
1225.00,0.0731
1224.00,0.0779
1223.00,0.0829
1222.00,0.0878
1221.00,0.0923
1220.00,0.0963
1219.00,0.0997
1218.00,0.1025
1217.00,0.1046
1216.00,0.1060
1215.00,0.1068
1214.00,0.1070
1213.00,0.1065
1212.00,0.1053
1211.00,0.1036
1210.00,0.1012
1209.00,0.0982
1208.00,0.0949
1207.00,0.0912
1206.00,0.0872
1205.00,0.0831
1204.00,0.0791
1203.00,0.0751
1202.00,0.0713
1201.00,0.0679
1200.00,0.0649
1199.00,0.0624
1198.00,0.0605
1197.00,0.0593
1196.00,0.0589
1195.00,0.0592
1194.00,0.0602
1193.00,0.0620
1192.00,0.0646
1191.00,0.0677
1190.00,0.0714
1189.00,0.0751
1188.00,0.0784
1187.00,0.0807
1186.00,0.0815
1185.00,0.0809
1184.00,0.0793
1183.00,0.0771
1182.00,0.0748
1181.00,0.0727
1180.00,0.0705
1179.00,0.0681
1178.00,0.0653
1177.00,0.0620
1176.00,0.0584
1175.00,0.0547
1174.00,0.0512
1173.00,0.0479
1172.00,0.0451
1171.00,0.0428
1170.00,0.0409
1169.00,0.0395
1168.00,0.0385
1167.00,0.0379
1166.00,0.0378
1165.00,0.0381
1164.00,0.0387
1163.00,0.0393
1162.00,0.0397
1161.00,0.0398
1160.00,0.0396
1159.00,0.0392
1158.00,0.0385
1157.00,0.0378
1156.00,0.0372
1155.00,0.0369
1154.00,0.0373
1153.00,0.0386
1152.00,0.0409
1151.00,0.0442
1150.00,0.0480
1149.00,0.0517
1148.00,0.0549
1147.00,0.0571
1146.00,0.0581
1145.00,0.0581
1144.00,0.0573
1143.00,0.0557
1142.00,0.0538
1141.00,0.0519
1140.00,0.0504
1139.00,0.0495
1138.00,0.0492
1137.00,0.0492
1136.00,0.0493
1135.00,0.0491
1134.00,0.0486
1133.00,0.0478
1132.00,0.0470
1131.00,0.0464
1130.00,0.0464
1129.00,0.0471
1128.00,0.0486
1127.00,0.0509
1126.00,0.0542
1125.00,0.0583
1124.00,0.0632
1123.00,0.0687
1122.00,0.0743
1121.00,0.0799
1120.00,0.0852
1119.00,0.0899
1118.00,0.0938
1117.00,0.0965
1116.00,0.0980
1115.00,0.0981
1114.00,0.0970
1113.00,0.0949
1112.00,0.0922
1111.00,0.0891
1110.00,0.0860
1109.00,0.0831
1108.00,0.0807
1107.00,0.0787
1106.00,0.0774
1105.00,0.0767
1104.00,0.0765
1103.00,0.0769
1102.00,0.0777
1101.00,0.0789
1100.00,0.0805
1099.00,0.0823
1098.00,0.0842
1097.00,0.0861
1096.00,0.0877
1095.00,0.0889
1094.00,0.0898
1093.00,0.0901
1092.00,0.0898
1091.00,0.0886
1090.00,0.0866
1089.00,0.0838
1088.00,0.0804
1087.00,0.0766
1086.00,0.0726
1085.00,0.0686
1084.00,0.0648
1083.00,0.0613
1082.00,0.0580
1081.00,0.0549
1080.00,0.0522
1079.00,0.0497
1078.00,0.0475
1077.00,0.0455
1076.00,0.0438
1075.00,0.0422
1074.00,0.0409
1073.00,0.0397
1072.00,0.0388
1071.00,0.0380
1070.00,0.0372
1069.00,0.0365
1068.00,0.0358
1067.00,0.0351
1066.00,0.0344
1065.00,0.0340
1064.00,0.0338
1063.00,0.0339
1062.00,0.0345
1061.00,0.0354
1060.00,0.0368
1059.00,0.0388
1058.00,0.0414
1057.00,0.0447
1056.00,0.0485
1055.00,0.0526
1054.00,0.0567
1053.00,0.0601
1052.00,0.0624
1051.00,0.0635
1050.00,0.0634
1049.00,0.0624
1048.00,0.0609
1047.00,0.0591
1046.00,0.0570
1045.00,0.0549
1044.00,0.0527
1043.00,0.0506
1042.00,0.0488
1041.00,0.0473
1040.00,0.0460
1039.00,0.0449
1038.00,0.0441
1037.00,0.0435
1036.00,0.0433
1035.00,0.0435
1034.00,0.0441
1033.00,0.0451
1032.00,0.0466
1031.00,0.0484
1030.00,0.0507
1029.00,0.0533
1028.00,0.0564
1027.00,0.0600
1026.00,0.0641
1025.00,0.0687
1024.00,0.0737
1023.00,0.0785
1022.00,0.0828
1021.00,0.0861
1020.00,0.0879
1019.00,0.0883
1018.00,0.0872
1017.00,0.0850
1016.00,0.0819
1015.00,0.0782
1014.00,0.0743
1013.00,0.0704
1012.00,0.0664
1011.00,0.0626
1010.00,0.0590
1009.00,0.0557
1008.00,0.0527
1007.00,0.0499
1006.00,0.0474
1005.00,0.0452
1004.00,0.0432
1003.00,0.0414
1002.00,0.0399
1001.00,0.0386
1000.00,0.0374
999.00,0.0363
998.00,0.0354
997.00,0.0347
996.00,0.0340
995.00,0.0334
994.00,0.0328
993.00,0.0323
992.00,0.0320
991.00,0.0317
990.00,0.0316
989.00,0.0317
988.00,0.0317
987.00,0.0318
986.00,0.0319
985.00,0.0318
984.00,0.0317
983.00,0.0314
982.00,0.0310
981.00,0.0304
980.00,0.0298
979.00,0.0291
978.00,0.0285
977.00,0.0278
976.00,0.0271
975.00,0.0265
974.00,0.0258
973.00,0.0253
972.00,0.0247
971.00,0.0243
970.00,0.0239
969.00,0.0236
968.00,0.0235
967.00,0.0234
966.00,0.0234
965.00,0.0236
964.00,0.0237
963.00,0.0240
962.00,0.0242
961.00,0.0245
960.00,0.0248
959.00,0.0250
958.00,0.0252
957.00,0.0255
956.00,0.0261
955.00,0.0271
954.00,0.0283
953.00,0.0297
952.00,0.0310
951.00,0.0317
950.00,0.0318
949.00,0.0313
948.00,0.0304
947.00,0.0292
946.00,0.0280
945.00,0.0270
944.00,0.0259
943.00,0.0250
942.00,0.0241
941.00,0.0232
940.00,0.0224
939.00,0.0217
938.00,0.0211
937.00,0.0206
936.00,0.0202
935.00,0.0198
934.00,0.0194
933.00,0.0191
932.00,0.0189
931.00,0.0187
930.00,0.0185
929.00,0.0184
928.00,0.0183
927.00,0.0182
926.00,0.0182
925.00,0.0182
924.00,0.0181
923.00,0.0181
922.00,0.0180
921.00,0.0180
920.00,0.0179
919.00,0.0178
918.00,0.0177
917.00,0.0175
916.00,0.0173
915.00,0.0171
914.00,0.0169
913.00,0.0167
912.00,0.0166
911.00,0.0164
910.00,0.0162
909.00,0.0161
908.00,0.0160
907.00,0.0159
906.00,0.0158
905.00,0.0157
904.00,0.0156
903.00,0.0154
902.00,0.0153
901.00,0.0152
900.00,0.0151
899.00,0.0150
898.00,0.0149
897.00,0.0148
896.00,0.0147
895.00,0.0146
894.00,0.0145
893.00,0.0144
892.00,0.0143
891.00,0.0143
890.00,0.0143
889.00,0.0142
888.00,0.0142
887.00,0.0141
886.00,0.0141
885.00,0.0141
884.00,0.0142
883.00,0.0143
882.00,0.0145
881.00,0.0149
880.00,0.0152
879.00,0.0156
878.00,0.0158
877.00,0.0159
876.00,0.0161
875.00,0.0164
874.00,0.0166
873.00,0.0165
872.00,0.0163
871.00,0.0158
870.00,0.0154
869.00,0.0151
868.00,0.0150
867.00,0.0151
866.00,0.0158
865.00,0.0172
864.00,0.0198
863.00,0.0240
862.00,0.0297
861.00,0.0362
860.00,0.0419
859.00,0.0450
858.00,0.0447
857.00,0.0414
856.00,0.0364
855.00,0.0312
854.00,0.0268
853.00,0.0236
852.00,0.0214
851.00,0.0199
850.00,0.0190
849.00,0.0183
848.00,0.0179
847.00,0.0177
846.00,0.0177
845.00,0.0179
844.00,0.0184
843.00,0.0190
842.00,0.0199
841.00,0.0210
840.00,0.0225
839.00,0.0248
838.00,0.0282
837.00,0.0328
836.00,0.0384
835.00,0.0443
834.00,0.0497
833.00,0.0537
832.00,0.0563
831.00,0.0578
830.00,0.0583
829.00,0.0581
828.00,0.0569
827.00,0.0546
826.00,0.0513
825.00,0.0472
824.00,0.0429
823.00,0.0388
822.00,0.0352
821.00,0.0322
820.00,0.0296
819.00,0.0275
818.00,0.0257
817.00,0.0241
816.00,0.0228
815.00,0.0218
814.00,0.0210
813.00,0.0206
812.00,0.0204
811.00,0.0204
810.00,0.0206
809.00,0.0210
808.00,0.0215
807.00,0.0220
806.00,0.0225
805.00,0.0228
804.00,0.0228
803.00,0.0225
802.00,0.0219
801.00,0.0211
800.00,0.0205
799.00,0.0201
798.00,0.0202
797.00,0.0208
796.00,0.0224
795.00,0.0255
794.00,0.0301
793.00,0.0356
792.00,0.0405
791.00,0.0436
790.00,0.0450
789.00,0.0459
788.00,0.0469
787.00,0.0481
786.00,0.0485
785.00,0.0478
784.00,0.0463
783.00,0.0446
782.00,0.0429
781.00,0.0416
780.00,0.0409
779.00,0.0413
778.00,0.0424
777.00,0.0439
776.00,0.0446
775.00,0.0439
774.00,0.0418
773.00,0.0388
772.00,0.0357
771.00,0.0329
770.00,0.0307
769.00,0.0291
768.00,0.0280
767.00,0.0273
766.00,0.0269
765.00,0.0270
764.00,0.0275
763.00,0.0289
762.00,0.0313
761.00,0.0346
760.00,0.0383
759.00,0.0420
758.00,0.0451
757.00,0.0472
756.00,0.0485
755.00,0.0488
754.00,0.0486
753.00,0.0482
752.00,0.0482
751.00,0.0491
750.00,0.0512
749.00,0.0546
748.00,0.0588
747.00,0.0627
746.00,0.0651
745.00,0.0652
744.00,0.0628
743.00,0.0586
742.00,0.0537
741.00,0.0487
740.00,0.0441
739.00,0.0402
738.00,0.0368
737.00,0.0339
736.00,0.0314
735.00,0.0292
734.00,0.0274
733.00,0.0258
732.00,0.0245
731.00,0.0235
730.00,0.0226
729.00,0.0220
728.00,0.0214
727.00,0.0211
726.00,0.0209
725.00,0.0209
724.00,0.0210
723.00,0.0215
722.00,0.0224
721.00,0.0240
720.00,0.0268
719.00,0.0310
718.00,0.0369
717.00,0.0439
716.00,0.0509
715.00,0.0568
714.00,0.0615
713.00,0.0655
712.00,0.0689
711.00,0.0707
710.00,0.0696
709.00,0.0655
708.00,0.0595
707.00,0.0533
706.00,0.0478
705.00,0.0435
704.00,0.0402
703.00,0.0375
702.00,0.0353
701.00,0.0335
700.00,0.0321
699.00,0.0310
698.00,0.0302
697.00,0.0298
696.00,0.0296
695.00,0.0297
694.00,0.0300
693.00,0.0307
692.00,0.0318
691.00,0.0335
690.00,0.0358
689.00,0.0386
688.00,0.0421
687.00,0.0458
686.00,0.0496
685.00,0.0529
684.00,0.0549
683.00,0.0552
682.00,0.0537
681.00,0.0510
680.00,0.0479
679.00,0.0453
678.00,0.0436
677.00,0.0427
676.00,0.0427
675.00,0.0433
674.00,0.0443
673.00,0.0451
672.00,0.0455
671.00,0.0453
670.00,0.0444
669.00,0.0424
668.00,0.0397
667.00,0.0374
666.00,0.0362
665.00,0.0356
664.00,0.0353
663.00,0.0351
662.00,0.0349
661.00,0.0349
660.00,0.0349
659.00,0.0350
658.00,0.0351
657.00,0.0351
656.00,0.0351
655.00,0.0350
654.00,0.0347
653.00,0.0343
652.00,0.0338
651.00,0.0332
650.00,0.0324
649.00,0.0315
648.00,0.0305
647.00,0.0295
646.00,0.0285
645.00,0.0275
644.00,0.0265
643.00,0.0255
642.00,0.0246
641.00,0.0238
640.00,0.0231
639.00,0.0224
638.00,0.0220
637.00,0.0217
636.00,0.0217
635.00,0.0218
634.00,0.0223
633.00,0.0231
632.00,0.0241
631.00,0.0254
630.00,0.0270
629.00,0.0289
628.00,0.0308
627.00,0.0329
626.00,0.0348
625.00,0.0363
624.00,0.0373
623.00,0.0378
622.00,0.0378
621.00,0.0376
620.00,0.0373
619.00,0.0370
618.00,0.0368
617.00,0.0369
616.00,0.0372
615.00,0.0375
614.00,0.0379
613.00,0.0383
612.00,0.0387
611.00,0.0390
610.00,0.0390
609.00,0.0389
608.00,0.0385
607.00,0.0380
606.00,0.0374
605.00,0.0367
604.00,0.0360
603.00,0.0354
602.00,0.0347
601.00,0.0340
600.00,0.0334
599.00,0.0328
598.00,0.0325
597.00,0.0325
596.00,0.0328
595.00,0.0333
594.00,0.0336
593.00,0.0334
592.00,0.0327
591.00,0.0316
590.00,0.0303
589.00,0.0291
588.00,0.0284
587.00,0.0280
586.00,0.0282
585.00,0.0287
584.00,0.0296
583.00,0.0306
582.00,0.0317
581.00,0.0327
580.00,0.0334
579.00,0.0338
578.00,0.0338
577.00,0.0338
576.00,0.0336
575.00,0.0332
574.00,0.0327
573.00,0.0321
572.00,0.0315
571.00,0.0311
570.00,0.0309
569.00,0.0308
568.00,0.0308
567.00,0.0307
566.00,0.0307
565.00,0.0306
564.00,0.0303
563.00,0.0300
562.00,0.0296
561.00,0.0292
560.00,0.0289
559.00,0.0286
558.00,0.0283
557.00,0.0281
556.00,0.0279
555.00,0.0276
554.00,0.0272
553.00,0.0267
552.00,0.0262
551.00,0.0257
550.00,0.0253
549.00,0.0248
548.00,0.0244
547.00,0.0239
546.00,0.0236
545.00,0.0232
544.00,0.0229
543.00,0.0227
542.00,0.0225
541.00,0.0224
540.00,0.0222
539.00,0.0221
538.00,0.0220
537.00,0.0220
536.00,0.0218
535.00,0.0216
534.00,0.0215
533.00,0.0213
532.00,0.0212
531.00,0.0211
530.00,0.0210
529.00,0.0209
528.00,0.0208
527.00,0.0206
526.00,0.0204
525.00,0.0203
524.00,0.0202
523.00,0.0201
522.00,0.0201
521.00,0.0201
520.00,0.0201
519.00,0.0201
518.00,0.0201
517.00,0.0202
516.00,0.0201
515.00,0.0200
514.00,0.0199
513.00,0.0200
512.00,0.0205
511.00,0.0212
510.00,0.0222
509.00,0.0233
508.00,0.0242
507.00,0.0249
506.00,0.0251
505.00,0.0248
504.00,0.0244
503.00,0.0238
502.00,0.0231
501.00,0.0223
500.00,0.0215
499.00,0.0209
498.00,0.0205
497.00,0.0201
496.00,0.0197
495.00,0.0194
494.00,0.0192
493.00,0.0193
492.00,0.0194
491.00,0.0195
490.00,0.0196
489.00,0.0197
488.00,0.0198
487.00,0.0199
486.00,0.0201
485.00,0.0202
484.00,0.0202
483.00,0.0204
482.00,0.0207
481.00,0.0211
480.00,0.0216
479.00,0.0222
478.00,0.0230
477.00,0.0240
476.00,0.0250
475.00,0.0259
474.00,0.0269
473.00,0.0279
472.00,0.0288
471.00,0.0297
470.00,0.0305
469.00,0.0311
468.00,0.0313
467.00,0.0311
466.00,0.0306
465.00,0.0299
464.00,0.0291
463.00,0.0283
462.00,0.0273
461.00,0.0264
460.00,0.0254
459.00,0.0244
458.00,0.0235
457.00,0.0226
456.00,0.0218
455.00,0.0212
454.00,0.0207
453.00,0.0203
452.00,0.0199
451.00,0.0196
450.00,0.0196
449.00,0.0196
448.00,0.0195
447.00,0.0192
446.00,0.0187
445.00,0.0181
444.00,0.0176
443.00,0.0175
442.00,0.0179
441.00,0.0184
440.00,0.0186
439.00,0.0183
438.00,0.0179
437.00,0.0175
436.00,0.0172
435.00,0.0168
434.00,0.0164
433.00,0.0161
432.00,0.0159
431.00,0.0159
430.00,0.0162
429.00,0.0166
428.00,0.0171
427.00,0.0176
426.00,0.0182
425.00,0.0188
424.00,0.0191
423.00,0.0194
422.00,0.0195
421.00,0.0198
420.00,0.0205
419.00,0.0218
418.00,0.0233
417.00,0.0244
416.00,0.0251
415.00,0.0257
414.00,0.0265
413.00,0.0273
412.00,0.0280
411.00,0.0288
410.00,0.0297
409.00,0.0306
408.00,0.0314
407.00,0.0316
406.00,0.0313
405.00,0.0305
404.00,0.0295
403.00,0.0287
402.00,0.0281
401.00,0.0276
400.00,0.0271
