Created as New Dataset,Sample 580 By YargerLab Date Thursday, June 05 2025
cm-1,A
4000.00,0.0009
3999.00,0.0009
3998.00,0.0009
3997.00,0.0009
3996.00,0.0010
3995.00,0.0010
3994.00,0.0010
3993.00,0.0010
3992.00,0.0010
3991.00,0.0009
3990.00,0.0009
3989.00,0.0009
3988.00,0.0009
3987.00,0.0009
3986.00,0.0010
3985.00,0.0010
3984.00,0.0010
3983.00,0.0010
3982.00,0.0010
3981.00,0.0010
3980.00,0.0010
3979.00,0.0009
3978.00,0.0009
3977.00,0.0009
3976.00,0.0009
3975.00,0.0009
3974.00,0.0009
3973.00,0.0009
3972.00,0.0009
3971.00,0.0009
3970.00,0.0009
3969.00,0.0009
3968.00,0.0009
3967.00,0.0009
3966.00,0.0009
3965.00,0.0009
3964.00,0.0009
3963.00,0.0010
3962.00,0.0010
3961.00,0.0010
3960.00,0.0010
3959.00,0.0010
3958.00,0.0009
3957.00,0.0009
3956.00,0.0009
3955.00,0.0009
3954.00,0.0009
3953.00,0.0009
3952.00,0.0009
3951.00,0.0009
3950.00,0.0009
3949.00,0.0009
3948.00,0.0009
3947.00,0.0010
3946.00,0.0009
3945.00,0.0009
3944.00,0.0009
3943.00,0.0009
3942.00,0.0009
3941.00,0.0009
3940.00,0.0009
3939.00,0.0009
3938.00,0.0009
3937.00,0.0009
3936.00,0.0009
3935.00,0.0009
3934.00,0.0009
3933.00,0.0009
3932.00,0.0009
3931.00,0.0009
3930.00,0.0009
3929.00,0.0009
3928.00,0.0009
3927.00,0.0009
3926.00,0.0009
3925.00,0.0009
3924.00,0.0009
3923.00,0.0009
3922.00,0.0008
3921.00,0.0008
3920.00,0.0008
3919.00,0.0008
3918.00,0.0009
3917.00,0.0009
3916.00,0.0009
3915.00,0.0009
3914.00,0.0009
3913.00,0.0009
3912.00,0.0009
3911.00,0.0009
3910.00,0.0008
3909.00,0.0008
3908.00,0.0008
3907.00,0.0008
3906.00,0.0008
3905.00,0.0008
3904.00,0.0008
3903.00,0.0008
3902.00,0.0008
3901.00,0.0008
3900.00,0.0008
3899.00,0.0008
3898.00,0.0008
3897.00,0.0008
3896.00,0.0008
3895.00,0.0008
3894.00,0.0008
3893.00,0.0008
3892.00,0.0008
3891.00,0.0008
3890.00,0.0008
3889.00,0.0008
3888.00,0.0008
3887.00,0.0007
3886.00,0.0007
3885.00,0.0007
3884.00,0.0007
3883.00,0.0007
3882.00,0.0007
3881.00,0.0008
3880.00,0.0008
3879.00,0.0008
3878.00,0.0008
3877.00,0.0008
3876.00,0.0007
3875.00,0.0007
3874.00,0.0007
3873.00,0.0008
3872.00,0.0008
3871.00,0.0008
3870.00,0.0008
3869.00,0.0008
3868.00,0.0008
3867.00,0.0007
3866.00,0.0007
3865.00,0.0007
3864.00,0.0007
3863.00,0.0008
3862.00,0.0007
3861.00,0.0007
3860.00,0.0007
3859.00,0.0007
3858.00,0.0008
3857.00,0.0008
3856.00,0.0009
3855.00,0.0009
3854.00,0.0008
3853.00,0.0008
3852.00,0.0007
3851.00,0.0007
3850.00,0.0007
3849.00,0.0006
3848.00,0.0007
3847.00,0.0007
3846.00,0.0007
3845.00,0.0007
3844.00,0.0007
3843.00,0.0007
3842.00,0.0007
3841.00,0.0007
3840.00,0.0007
3839.00,0.0007
3838.00,0.0007
3837.00,0.0007
3836.00,0.0007
3835.00,0.0007
3834.00,0.0007
3833.00,0.0007
3832.00,0.0007
3831.00,0.0007
3830.00,0.0008
3829.00,0.0008
3828.00,0.0007
3827.00,0.0007
3826.00,0.0007
3825.00,0.0007
3824.00,0.0007
3823.00,0.0007
3822.00,0.0007
3821.00,0.0007
3820.00,0.0007
3819.00,0.0007
3818.00,0.0007
3817.00,0.0007
3816.00,0.0007
3815.00,0.0007
3814.00,0.0008
3813.00,0.0008
3812.00,0.0008
3811.00,0.0007
3810.00,0.0008
3809.00,0.0008
3808.00,0.0008
3807.00,0.0007
3806.00,0.0007
3805.00,0.0008
3804.00,0.0008
3803.00,0.0008
3802.00,0.0007
3801.00,0.0007
3800.00,0.0007
3799.00,0.0007
3798.00,0.0007
3797.00,0.0008
3796.00,0.0008
3795.00,0.0008
3794.00,0.0008
3793.00,0.0008
3792.00,0.0008
3791.00,0.0008
3790.00,0.0008
3789.00,0.0008
3788.00,0.0008
3787.00,0.0008
3786.00,0.0008
3785.00,0.0008
3784.00,0.0008
3783.00,0.0008
3782.00,0.0008
3781.00,0.0008
3780.00,0.0008
3779.00,0.0008
3778.00,0.0008
3777.00,0.0008
3776.00,0.0008
3775.00,0.0008
3774.00,0.0008
3773.00,0.0009
3772.00,0.0009
3771.00,0.0008
3770.00,0.0008
3769.00,0.0008
3768.00,0.0008
3767.00,0.0008
3766.00,0.0008
3765.00,0.0008
3764.00,0.0008
3763.00,0.0008
3762.00,0.0008
3761.00,0.0008
3760.00,0.0008
3759.00,0.0008
3758.00,0.0008
3757.00,0.0008
3756.00,0.0008
3755.00,0.0008
3754.00,0.0008
3753.00,0.0008
3752.00,0.0007
3751.00,0.0007
3750.00,0.0007
3749.00,0.0007
3748.00,0.0006
3747.00,0.0006
3746.00,0.0006
3745.00,0.0006
3744.00,0.0006
3743.00,0.0006
3742.00,0.0006
3741.00,0.0007
3740.00,0.0007
3739.00,0.0007
3738.00,0.0007
3737.00,0.0007
3736.00,0.0007
3735.00,0.0007
3734.00,0.0007
3733.00,0.0007
3732.00,0.0007
3731.00,0.0007
3730.00,0.0007
3729.00,0.0008
3728.00,0.0008
3727.00,0.0008
3726.00,0.0008
3725.00,0.0008
3724.00,0.0008
3723.00,0.0008
3722.00,0.0008
3721.00,0.0008
3720.00,0.0008
3719.00,0.0008
3718.00,0.0008
3717.00,0.0008
3716.00,0.0008
3715.00,0.0008
3714.00,0.0008
3713.00,0.0008
3712.00,0.0008
3711.00,0.0008
3710.00,0.0008
3709.00,0.0008
3708.00,0.0008
3707.00,0.0008
3706.00,0.0009
3705.00,0.0009
3704.00,0.0009
3703.00,0.0010
3702.00,0.0010
3701.00,0.0010
3700.00,0.0010
3699.00,0.0011
3698.00,0.0011
3697.00,0.0011
3696.00,0.0011
3695.00,0.0011
3694.00,0.0011
3693.00,0.0012
3692.00,0.0012
3691.00,0.0012
3690.00,0.0012
3689.00,0.0012
3688.00,0.0012
3687.00,0.0012
3686.00,0.0012
3685.00,0.0012
3684.00,0.0013
3683.00,0.0014
3682.00,0.0014
3681.00,0.0014
3680.00,0.0014
3679.00,0.0015
3678.00,0.0015
3677.00,0.0015
3676.00,0.0016
3675.00,0.0016
3674.00,0.0017
3673.00,0.0017
3672.00,0.0017
3671.00,0.0018
3670.00,0.0018
3669.00,0.0019
3668.00,0.0020
3667.00,0.0020
3666.00,0.0020
3665.00,0.0021
3664.00,0.0021
3663.00,0.0022
3662.00,0.0023
3661.00,0.0023
3660.00,0.0024
3659.00,0.0024
3658.00,0.0025
3657.00,0.0025
3656.00,0.0026
3655.00,0.0026
3654.00,0.0026
3653.00,0.0027
3652.00,0.0027
3651.00,0.0027
3650.00,0.0027
3649.00,0.0029
3648.00,0.0030
3647.00,0.0031
3646.00,0.0031
3645.00,0.0032
3644.00,0.0033
3643.00,0.0033
3642.00,0.0034
3641.00,0.0035
3640.00,0.0036
3639.00,0.0037
3638.00,0.0038
3637.00,0.0039
3636.00,0.0039
3635.00,0.0040
3634.00,0.0041
3633.00,0.0042
3632.00,0.0042
3631.00,0.0043
3630.00,0.0043
3629.00,0.0044
3628.00,0.0046
3627.00,0.0046
3626.00,0.0047
3625.00,0.0048
3624.00,0.0048
3623.00,0.0049
3622.00,0.0050
3621.00,0.0050
3620.00,0.0051
3619.00,0.0052
3618.00,0.0053
3617.00,0.0053
3616.00,0.0054
3615.00,0.0055
3614.00,0.0056
3613.00,0.0057
3612.00,0.0058
3611.00,0.0059
3610.00,0.0060
3609.00,0.0060
3608.00,0.0062
3607.00,0.0063
3606.00,0.0064
3605.00,0.0065
3604.00,0.0066
3603.00,0.0066
3602.00,0.0067
3601.00,0.0068
3600.00,0.0069
3599.00,0.0070
3598.00,0.0070
3597.00,0.0071
3596.00,0.0072
3595.00,0.0073
3594.00,0.0074
3593.00,0.0075
3592.00,0.0076
3591.00,0.0076
3590.00,0.0077
3589.00,0.0078
3588.00,0.0079
3587.00,0.0081
3586.00,0.0082
3585.00,0.0083
3584.00,0.0084
3583.00,0.0085
3582.00,0.0086
3581.00,0.0087
3580.00,0.0088
3579.00,0.0089
3578.00,0.0090
3577.00,0.0091
3576.00,0.0092
3575.00,0.0093
3574.00,0.0094
3573.00,0.0095
3572.00,0.0096
3571.00,0.0096
3570.00,0.0097
3569.00,0.0097
3568.00,0.0098
3567.00,0.0099
3566.00,0.0101
3565.00,0.0103
3564.00,0.0104
3563.00,0.0105
3562.00,0.0106
3561.00,0.0107
3560.00,0.0108
3559.00,0.0110
3558.00,0.0111
3557.00,0.0112
3556.00,0.0113
3555.00,0.0113
3554.00,0.0114
3553.00,0.0115
3552.00,0.0116
3551.00,0.0117
3550.00,0.0118
3549.00,0.0119
3548.00,0.0120
3547.00,0.0121
3546.00,0.0122
3545.00,0.0123
3544.00,0.0124
3543.00,0.0125
3542.00,0.0126
3541.00,0.0127
3540.00,0.0128
3539.00,0.0129
3538.00,0.0130
3537.00,0.0131
3536.00,0.0132
3535.00,0.0133
3534.00,0.0134
3533.00,0.0135
3532.00,0.0136
3531.00,0.0137
3530.00,0.0138
3529.00,0.0138
3528.00,0.0139
3527.00,0.0140
3526.00,0.0141
3525.00,0.0142
3524.00,0.0144
3523.00,0.0145
3522.00,0.0146
3521.00,0.0147
3520.00,0.0148
3519.00,0.0149
3518.00,0.0149
3517.00,0.0150
3516.00,0.0151
3515.00,0.0152
3514.00,0.0153
3513.00,0.0154
3512.00,0.0155
3511.00,0.0156
3510.00,0.0157
3509.00,0.0158
3508.00,0.0159
3507.00,0.0159
3506.00,0.0160
3505.00,0.0161
3504.00,0.0162
3503.00,0.0163
3502.00,0.0165
3501.00,0.0166
3500.00,0.0167
3499.00,0.0168
3498.00,0.0169
3497.00,0.0170
3496.00,0.0171
3495.00,0.0172
3494.00,0.0173
3493.00,0.0174
3492.00,0.0175
3491.00,0.0176
3490.00,0.0177
3489.00,0.0177
3488.00,0.0178
3487.00,0.0180
3486.00,0.0181
3485.00,0.0182
3484.00,0.0183
3483.00,0.0184
3482.00,0.0185
3481.00,0.0186
3480.00,0.0187
3479.00,0.0188
3478.00,0.0190
3477.00,0.0191
3476.00,0.0192
3475.00,0.0193
3474.00,0.0194
3473.00,0.0195
3472.00,0.0196
3471.00,0.0197
3470.00,0.0198
3469.00,0.0199
3468.00,0.0200
3467.00,0.0201
3466.00,0.0202
3465.00,0.0203
3464.00,0.0204
3463.00,0.0205
3462.00,0.0206
3461.00,0.0207
3460.00,0.0208
3459.00,0.0209
3458.00,0.0210
3457.00,0.0211
3456.00,0.0212
3455.00,0.0213
3454.00,0.0214
3453.00,0.0216
3452.00,0.0217
3451.00,0.0217
3450.00,0.0218
3449.00,0.0219
3448.00,0.0220
3447.00,0.0221
3446.00,0.0223
3445.00,0.0224
3444.00,0.0225
3443.00,0.0226
3442.00,0.0228
3441.00,0.0229
3440.00,0.0229
3439.00,0.0230
3438.00,0.0231
3437.00,0.0232
3436.00,0.0233
3435.00,0.0235
3434.00,0.0236
3433.00,0.0237
3432.00,0.0238
3431.00,0.0239
3430.00,0.0240
3429.00,0.0241
3428.00,0.0243
3427.00,0.0244
3426.00,0.0245
3425.00,0.0246
3424.00,0.0247
3423.00,0.0248
3422.00,0.0249
3421.00,0.0251
3420.00,0.0252
3419.00,0.0253
3418.00,0.0254
3417.00,0.0255
3416.00,0.0256
3415.00,0.0257
3414.00,0.0258
3413.00,0.0259
3412.00,0.0260
3411.00,0.0262
3410.00,0.0263
3409.00,0.0264
3408.00,0.0265
3407.00,0.0266
3406.00,0.0267
3405.00,0.0268
3404.00,0.0268
3403.00,0.0269
3402.00,0.0270
3401.00,0.0271
3400.00,0.0272
3399.00,0.0274
3398.00,0.0275
3397.00,0.0276
3396.00,0.0277
3395.00,0.0278
3394.00,0.0279
3393.00,0.0280
3392.00,0.0281
3391.00,0.0283
3390.00,0.0284
3389.00,0.0286
3388.00,0.0287
3387.00,0.0288
3386.00,0.0289
3385.00,0.0290
3384.00,0.0292
3383.00,0.0293
3382.00,0.0294
3381.00,0.0295
3380.00,0.0296
3379.00,0.0297
3378.00,0.0299
3377.00,0.0300
3376.00,0.0301
3375.00,0.0303
3374.00,0.0304
3373.00,0.0305
3372.00,0.0307
3371.00,0.0308
3370.00,0.0309
3369.00,0.0310
3368.00,0.0312
3367.00,0.0313
3366.00,0.0315
3365.00,0.0317
3364.00,0.0319
3363.00,0.0321
3362.00,0.0322
3361.00,0.0324
3360.00,0.0326
3359.00,0.0328
3358.00,0.0330
3357.00,0.0332
3356.00,0.0334
3355.00,0.0335
3354.00,0.0337
3353.00,0.0338
3352.00,0.0340
3351.00,0.0341
3350.00,0.0343
3349.00,0.0345
3348.00,0.0348
3347.00,0.0350
3346.00,0.0352
3345.00,0.0353
3344.00,0.0355
3343.00,0.0357
3342.00,0.0359
3341.00,0.0360
3340.00,0.0362
3339.00,0.0364
3338.00,0.0367
3337.00,0.0369
3336.00,0.0372
3335.00,0.0375
3334.00,0.0378
3333.00,0.0380
3332.00,0.0382
3331.00,0.0384
3330.00,0.0387
3329.00,0.0389
3328.00,0.0391
3327.00,0.0393
3326.00,0.0396
3325.00,0.0399
3324.00,0.0402
3323.00,0.0405
3322.00,0.0408
3321.00,0.0411
3320.00,0.0414
3319.00,0.0417
3318.00,0.0420
3317.00,0.0423
3316.00,0.0426
3315.00,0.0429
3314.00,0.0432
3313.00,0.0435
3312.00,0.0437
3311.00,0.0440
3310.00,0.0443
3309.00,0.0446
3308.00,0.0449
3307.00,0.0452
3306.00,0.0456
3305.00,0.0460
3304.00,0.0464
3303.00,0.0468
3302.00,0.0472
3301.00,0.0476
3300.00,0.0479
3299.00,0.0482
3298.00,0.0485
3297.00,0.0488
3296.00,0.0491
3295.00,0.0494
3294.00,0.0497
3293.00,0.0500
3292.00,0.0504
3291.00,0.0507
3290.00,0.0511
3289.00,0.0515
3288.00,0.0518
3287.00,0.0521
3286.00,0.0523
3285.00,0.0526
3284.00,0.0528
3283.00,0.0530
3282.00,0.0532
3281.00,0.0534
3280.00,0.0535
3279.00,0.0536
3278.00,0.0537
3277.00,0.0537
3276.00,0.0538
3275.00,0.0538
3274.00,0.0537
3273.00,0.0537
3272.00,0.0536
3271.00,0.0536
3270.00,0.0536
3269.00,0.0536
3268.00,0.0535
3267.00,0.0534
3266.00,0.0532
3265.00,0.0530
3264.00,0.0528
3263.00,0.0525
3262.00,0.0523
3261.00,0.0520
3260.00,0.0517
3259.00,0.0514
3258.00,0.0510
3257.00,0.0506
3256.00,0.0503
3255.00,0.0500
3254.00,0.0497
3253.00,0.0494
3252.00,0.0491
3251.00,0.0488
3250.00,0.0484
3249.00,0.0480
3248.00,0.0476
3247.00,0.0473
3246.00,0.0470
3245.00,0.0468
3244.00,0.0465
3243.00,0.0463
3242.00,0.0460
3241.00,0.0457
3240.00,0.0454
3239.00,0.0451
3238.00,0.0448
3237.00,0.0444
3236.00,0.0441
3235.00,0.0437
3234.00,0.0434
3233.00,0.0432
3232.00,0.0430
3231.00,0.0429
3230.00,0.0427
3229.00,0.0425
3228.00,0.0423
3227.00,0.0421
3226.00,0.0419
3225.00,0.0416
3224.00,0.0414
3223.00,0.0412
3222.00,0.0409
3221.00,0.0407
3220.00,0.0405
3219.00,0.0403
3218.00,0.0401
3217.00,0.0399
3216.00,0.0397
3215.00,0.0394
3214.00,0.0392
3213.00,0.0390
3212.00,0.0388
3211.00,0.0387
3210.00,0.0385
3209.00,0.0383
3208.00,0.0381
3207.00,0.0379
3206.00,0.0377
3205.00,0.0375
3204.00,0.0374
3203.00,0.0372
3202.00,0.0370
3201.00,0.0368
3200.00,0.0366
3199.00,0.0364
3198.00,0.0362
3197.00,0.0361
3196.00,0.0359
3195.00,0.0357
3194.00,0.0355
3193.00,0.0353
3192.00,0.0351
3191.00,0.0349
3190.00,0.0347
3189.00,0.0345
3188.00,0.0344
3187.00,0.0342
3186.00,0.0340
3185.00,0.0338
3184.00,0.0336
3183.00,0.0335
3182.00,0.0333
3181.00,0.0331
3180.00,0.0329
3179.00,0.0327
3178.00,0.0325
3177.00,0.0324
3176.00,0.0322
3175.00,0.0321
3174.00,0.0319
3173.00,0.0318
3172.00,0.0316
3171.00,0.0314
3170.00,0.0313
3169.00,0.0311
3168.00,0.0309
3167.00,0.0307
3166.00,0.0306
3165.00,0.0304
3164.00,0.0302
3163.00,0.0301
3162.00,0.0299
3161.00,0.0298
3160.00,0.0296
3159.00,0.0295
3158.00,0.0293
3157.00,0.0292
3156.00,0.0290
3155.00,0.0289
3154.00,0.0287
3153.00,0.0286
3152.00,0.0285
3151.00,0.0284
3150.00,0.0283
3149.00,0.0282
3148.00,0.0281
3147.00,0.0280
3146.00,0.0278
3145.00,0.0277
3144.00,0.0276
3143.00,0.0275
3142.00,0.0274
3141.00,0.0272
3140.00,0.0271
3139.00,0.0270
3138.00,0.0270
3137.00,0.0269
3136.00,0.0269
3135.00,0.0268
3134.00,0.0267
3133.00,0.0266
3132.00,0.0266
3131.00,0.0265
3130.00,0.0264
3129.00,0.0263
3128.00,0.0263
3127.00,0.0263
3126.00,0.0262
3125.00,0.0261
3124.00,0.0260
3123.00,0.0259
3122.00,0.0258
3121.00,0.0257
3120.00,0.0257
3119.00,0.0256
3118.00,0.0256
3117.00,0.0256
3116.00,0.0256
3115.00,0.0257
3114.00,0.0258
3113.00,0.0258
3112.00,0.0259
3111.00,0.0259
3110.00,0.0258
3109.00,0.0259
3108.00,0.0259
3107.00,0.0260
3106.00,0.0261
3105.00,0.0261
3104.00,0.0261
3103.00,0.0261
3102.00,0.0261
3101.00,0.0261
3100.00,0.0262
3099.00,0.0263
3098.00,0.0264
3097.00,0.0265
3096.00,0.0265
3095.00,0.0266
3094.00,0.0266
3093.00,0.0266
3092.00,0.0266
3091.00,0.0266
3090.00,0.0266
3089.00,0.0267
3088.00,0.0267
3087.00,0.0268
3086.00,0.0268
3085.00,0.0268
3084.00,0.0268
3083.00,0.0268
3082.00,0.0268
3081.00,0.0267
3080.00,0.0267
3079.00,0.0267
3078.00,0.0267
3077.00,0.0268
3076.00,0.0269
3075.00,0.0270
3074.00,0.0270
3073.00,0.0270
3072.00,0.0269
3071.00,0.0269
3070.00,0.0268
3069.00,0.0267
3068.00,0.0266
3067.00,0.0265
3066.00,0.0265
3065.00,0.0265
3064.00,0.0265
3063.00,0.0264
3062.00,0.0263
3061.00,0.0262
3060.00,0.0260
3059.00,0.0258
3058.00,0.0257
3057.00,0.0255
3056.00,0.0254
3055.00,0.0253
3054.00,0.0251
3053.00,0.0250
3052.00,0.0248
3051.00,0.0247
3050.00,0.0246
3049.00,0.0245
3048.00,0.0243
3047.00,0.0242
3046.00,0.0239
3045.00,0.0237
3044.00,0.0236
3043.00,0.0234
3042.00,0.0233
3041.00,0.0233
3040.00,0.0232
3039.00,0.0232
3038.00,0.0231
3037.00,0.0229
3036.00,0.0228
3035.00,0.0226
3034.00,0.0225
3033.00,0.0225
3032.00,0.0224
3031.00,0.0224
3030.00,0.0223
3029.00,0.0222
3028.00,0.0221
3027.00,0.0219
3026.00,0.0218
3025.00,0.0216
3024.00,0.0215
3023.00,0.0214
3022.00,0.0213
3021.00,0.0212
3020.00,0.0210
3019.00,0.0209
3018.00,0.0207
3017.00,0.0206
3016.00,0.0205
3015.00,0.0204
3014.00,0.0203
3013.00,0.0202
3012.00,0.0202
3011.00,0.0202
3010.00,0.0202
3009.00,0.0202
3008.00,0.0202
3007.00,0.0202
3006.00,0.0202
3005.00,0.0202
3004.00,0.0202
3003.00,0.0201
3002.00,0.0201
3001.00,0.0201
3000.00,0.0201
2999.00,0.0201
2998.00,0.0202
2997.00,0.0203
2996.00,0.0204
2995.00,0.0205
2994.00,0.0206
2993.00,0.0207
2992.00,0.0209
2991.00,0.0211
2990.00,0.0213
2989.00,0.0216
2988.00,0.0218
2987.00,0.0221
2986.00,0.0223
2985.00,0.0226
2984.00,0.0229
2983.00,0.0232
2982.00,0.0234
2981.00,0.0238
2980.00,0.0241
2979.00,0.0245
2978.00,0.0249
2977.00,0.0253
2976.00,0.0256
2975.00,0.0260
2974.00,0.0264
2973.00,0.0268
2972.00,0.0272
2971.00,0.0275
2970.00,0.0279
2969.00,0.0282
2968.00,0.0285
2967.00,0.0288
2966.00,0.0290
2965.00,0.0293
2964.00,0.0295
2963.00,0.0296
2962.00,0.0297
2961.00,0.0298
2960.00,0.0298
2959.00,0.0297
2958.00,0.0296
2957.00,0.0295
2956.00,0.0293
2955.00,0.0290
2954.00,0.0287
2953.00,0.0285
2952.00,0.0283
2951.00,0.0281
2950.00,0.0279
2949.00,0.0278
2948.00,0.0277
2947.00,0.0277
2946.00,0.0278
2945.00,0.0279
2944.00,0.0281
2943.00,0.0283
2942.00,0.0286
2941.00,0.0289
2940.00,0.0292
2939.00,0.0295
2938.00,0.0298
2937.00,0.0300
2936.00,0.0303
2935.00,0.0306
2934.00,0.0308
2933.00,0.0309
2932.00,0.0310
2931.00,0.0311
2930.00,0.0312
2929.00,0.0313
2928.00,0.0313
2927.00,0.0313
2926.00,0.0312
2925.00,0.0310
2924.00,0.0309
2923.00,0.0306
2922.00,0.0303
2921.00,0.0300
2920.00,0.0297
2919.00,0.0293
2918.00,0.0289
2917.00,0.0284
2916.00,0.0280
2915.00,0.0276
2914.00,0.0271
2913.00,0.0267
2912.00,0.0263
2911.00,0.0260
2910.00,0.0256
2909.00,0.0253
2908.00,0.0250
2907.00,0.0247
2906.00,0.0244
2905.00,0.0241
2904.00,0.0239
2903.00,0.0237
2902.00,0.0234
2901.00,0.0232
2900.00,0.0231
2899.00,0.0229
2898.00,0.0227
2897.00,0.0225
2896.00,0.0224
2895.00,0.0222
2894.00,0.0221
2893.00,0.0220
2892.00,0.0219
2891.00,0.0218
2890.00,0.0217
2889.00,0.0216
2888.00,0.0216
2887.00,0.0216
2886.00,0.0216
2885.00,0.0216
2884.00,0.0217
2883.00,0.0218
2882.00,0.0219
2881.00,0.0221
2880.00,0.0222
2879.00,0.0223
2878.00,0.0224
2877.00,0.0225
2876.00,0.0225
2875.00,0.0225
2874.00,0.0224
2873.00,0.0224
2872.00,0.0222
2871.00,0.0221
2870.00,0.0219
2869.00,0.0217
2868.00,0.0215
2867.00,0.0212
2866.00,0.0210
2865.00,0.0208
2864.00,0.0206
2863.00,0.0205
2862.00,0.0204
2861.00,0.0203
2860.00,0.0202
2859.00,0.0202
2858.00,0.0202
2857.00,0.0202
2856.00,0.0201
2855.00,0.0200
2854.00,0.0199
2853.00,0.0197
2852.00,0.0195
2851.00,0.0193
2850.00,0.0190
2849.00,0.0187
2848.00,0.0183
2847.00,0.0179
2846.00,0.0176
2845.00,0.0172
2844.00,0.0169
2843.00,0.0166
2842.00,0.0163
2841.00,0.0160
2840.00,0.0158
2839.00,0.0156
2838.00,0.0155
2837.00,0.0154
2836.00,0.0153
2835.00,0.0152
2834.00,0.0151
2833.00,0.0150
2832.00,0.0149
2831.00,0.0149
2830.00,0.0148
2829.00,0.0147
2828.00,0.0147
2827.00,0.0146
2826.00,0.0145
2825.00,0.0144
2824.00,0.0144
2823.00,0.0143
2822.00,0.0143
2821.00,0.0142
2820.00,0.0142
2819.00,0.0141
2818.00,0.0141
2817.00,0.0140
2816.00,0.0140
2815.00,0.0139
2814.00,0.0138
2813.00,0.0138
2812.00,0.0137
2811.00,0.0137
2810.00,0.0136
2809.00,0.0136
2808.00,0.0136
2807.00,0.0136
2806.00,0.0135
2805.00,0.0135
2804.00,0.0134
2803.00,0.0134
2802.00,0.0133
2801.00,0.0133
2800.00,0.0132
2799.00,0.0132
2798.00,0.0131
2797.00,0.0131
2796.00,0.0131
2795.00,0.0130
2794.00,0.0130
2793.00,0.0129
2792.00,0.0128
2791.00,0.0128
2790.00,0.0127
2789.00,0.0127
2788.00,0.0127
2787.00,0.0127
2786.00,0.0127
2785.00,0.0126
2784.00,0.0126
2783.00,0.0125
2782.00,0.0125
2781.00,0.0124
2780.00,0.0124
2779.00,0.0124
2778.00,0.0123
2777.00,0.0123
2776.00,0.0122
2775.00,0.0121
2774.00,0.0121
2773.00,0.0120
2772.00,0.0120
2771.00,0.0119
2770.00,0.0119
2769.00,0.0119
2768.00,0.0119
2767.00,0.0118
2766.00,0.0118
2765.00,0.0117
2764.00,0.0116
2763.00,0.0116
2762.00,0.0116
2761.00,0.0115
2760.00,0.0115
2759.00,0.0114
2758.00,0.0114
2757.00,0.0113
2756.00,0.0113
2755.00,0.0113
2754.00,0.0112
2753.00,0.0112
2752.00,0.0112
2751.00,0.0111
2750.00,0.0111
2749.00,0.0111
2748.00,0.0110
2747.00,0.0110
2746.00,0.0109
2745.00,0.0109
2744.00,0.0109
2743.00,0.0108
2742.00,0.0108
2741.00,0.0107
2740.00,0.0107
2739.00,0.0107
2738.00,0.0106
2737.00,0.0106
2736.00,0.0106
2735.00,0.0105
2734.00,0.0105
2733.00,0.0104
2732.00,0.0104
2731.00,0.0103
2730.00,0.0103
2729.00,0.0102
2728.00,0.0102
2727.00,0.0101
2726.00,0.0101
2725.00,0.0101
2724.00,0.0100
2723.00,0.0100
2722.00,0.0099
2721.00,0.0099
2720.00,0.0099
2719.00,0.0098
2718.00,0.0098
2717.00,0.0098
2716.00,0.0097
2715.00,0.0097
2714.00,0.0096
2713.00,0.0096
2712.00,0.0096
2711.00,0.0095
2710.00,0.0095
2709.00,0.0095
2708.00,0.0095
2707.00,0.0094
2706.00,0.0094
2705.00,0.0094
2704.00,0.0094
2703.00,0.0093
2702.00,0.0093
2701.00,0.0093
2700.00,0.0093
2699.00,0.0093
2698.00,0.0093
2697.00,0.0092
2696.00,0.0092
2695.00,0.0092
2694.00,0.0092
2693.00,0.0091
2692.00,0.0091
2691.00,0.0091
2690.00,0.0091
2689.00,0.0091
2688.00,0.0091
2687.00,0.0090
2686.00,0.0090
2685.00,0.0090
2684.00,0.0090
2683.00,0.0090
2682.00,0.0089
2681.00,0.0089
2680.00,0.0089
2679.00,0.0089
2678.00,0.0089
2677.00,0.0088
2676.00,0.0088
2675.00,0.0088
2674.00,0.0088
2673.00,0.0087
2672.00,0.0087
2671.00,0.0087
2670.00,0.0087
2669.00,0.0087
2668.00,0.0088
2667.00,0.0088
2666.00,0.0088
2665.00,0.0088
2664.00,0.0089
2663.00,0.0089
2662.00,0.0089
2661.00,0.0089
2660.00,0.0090
2659.00,0.0090
2658.00,0.0090
2657.00,0.0090
2656.00,0.0090
2655.00,0.0090
2654.00,0.0090
2653.00,0.0090
2652.00,0.0090
2651.00,0.0089
2650.00,0.0089
2649.00,0.0089
2648.00,0.0089
2647.00,0.0089
2646.00,0.0089
2645.00,0.0088
2644.00,0.0088
2643.00,0.0088
2642.00,0.0087
2641.00,0.0087
2640.00,0.0087
2639.00,0.0086
2638.00,0.0086
2637.00,0.0086
2636.00,0.0086
2635.00,0.0086
2634.00,0.0086
2633.00,0.0086
2632.00,0.0085
2631.00,0.0085
2630.00,0.0085
2629.00,0.0084
2628.00,0.0084
2627.00,0.0084
2626.00,0.0083
2625.00,0.0083
2624.00,0.0083
2623.00,0.0083
2622.00,0.0083
2621.00,0.0082
2620.00,0.0082
2619.00,0.0082
2618.00,0.0082
2617.00,0.0081
2616.00,0.0081
2615.00,0.0081
2614.00,0.0080
2613.00,0.0080
2612.00,0.0080
2611.00,0.0080
2610.00,0.0080
2609.00,0.0079
2608.00,0.0079
2607.00,0.0079
2606.00,0.0078
2605.00,0.0077
2604.00,0.0077
2603.00,0.0077
2602.00,0.0077
2601.00,0.0076
2600.00,0.0076
2599.00,0.0076
2598.00,0.0076
2597.00,0.0076
2596.00,0.0076
2595.00,0.0076
2594.00,0.0075
2593.00,0.0075
2592.00,0.0075
2591.00,0.0075
2590.00,0.0074
2589.00,0.0074
2588.00,0.0074
2587.00,0.0074
2586.00,0.0074
2585.00,0.0074
2584.00,0.0073
2583.00,0.0073
2582.00,0.0072
2581.00,0.0072
2580.00,0.0071
2579.00,0.0071
2578.00,0.0071
2577.00,0.0071
2576.00,0.0071
2575.00,0.0070
2574.00,0.0070
2573.00,0.0070
2572.00,0.0070
2571.00,0.0069
2570.00,0.0069
2569.00,0.0069
2568.00,0.0069
2567.00,0.0069
2566.00,0.0069
2565.00,0.0069
2564.00,0.0069
2563.00,0.0069
2562.00,0.0069
2561.00,0.0068
2560.00,0.0068
2559.00,0.0067
2558.00,0.0067
2557.00,0.0066
2556.00,0.0066
2555.00,0.0066
2554.00,0.0066
2553.00,0.0065
2552.00,0.0065
2551.00,0.0065
2550.00,0.0065
2549.00,0.0065
2548.00,0.0065
2547.00,0.0065
2546.00,0.0064
2545.00,0.0064
2544.00,0.0063
2543.00,0.0063
2542.00,0.0063
2541.00,0.0063
2540.00,0.0063
2539.00,0.0063
2538.00,0.0063
2537.00,0.0063
2536.00,0.0063
2535.00,0.0063
2534.00,0.0063
2533.00,0.0063
2532.00,0.0062
2531.00,0.0062
2530.00,0.0061
2529.00,0.0061
2528.00,0.0061
2527.00,0.0061
2526.00,0.0061
2525.00,0.0061
2524.00,0.0061
2523.00,0.0061
2522.00,0.0061
2521.00,0.0061
2520.00,0.0061
2519.00,0.0061
2518.00,0.0060
2517.00,0.0060
2516.00,0.0060
2515.00,0.0059
2514.00,0.0059
2513.00,0.0059
2512.00,0.0059
2511.00,0.0059
2510.00,0.0059
2509.00,0.0059
2508.00,0.0059
2507.00,0.0059
2506.00,0.0058
2505.00,0.0058
2504.00,0.0058
2503.00,0.0058
2502.00,0.0058
2501.00,0.0058
2500.00,0.0057
2499.00,0.0057
2498.00,0.0057
2497.00,0.0057
2496.00,0.0057
2495.00,0.0057
2494.00,0.0057
2493.00,0.0057
2492.00,0.0057
2491.00,0.0056
2490.00,0.0056
2489.00,0.0056
2488.00,0.0056
2487.00,0.0056
2486.00,0.0056
2485.00,0.0055
2484.00,0.0055
2483.00,0.0055
2482.00,0.0055
2481.00,0.0055
2480.00,0.0055
2479.00,0.0055
2478.00,0.0054
2477.00,0.0054
2476.00,0.0054
2475.00,0.0054
2474.00,0.0054
2473.00,0.0054
2472.00,0.0053
2471.00,0.0053
2470.00,0.0053
2469.00,0.0053
2468.00,0.0052
2467.00,0.0052
2466.00,0.0052
2465.00,0.0052
2464.00,0.0052
2463.00,0.0052
2462.00,0.0053
2461.00,0.0053
2460.00,0.0053
2459.00,0.0053
2458.00,0.0053
2457.00,0.0053
2456.00,0.0053
2455.00,0.0052
2454.00,0.0052
2453.00,0.0052
2452.00,0.0052
2451.00,0.0051
2450.00,0.0051
2449.00,0.0051
2448.00,0.0051
2447.00,0.0050
2446.00,0.0050
2445.00,0.0050
2444.00,0.0050
2443.00,0.0049
2442.00,0.0049
2441.00,0.0048
2440.00,0.0048
2439.00,0.0047
2438.00,0.0047
2437.00,0.0047
2436.00,0.0047
2435.00,0.0046
2434.00,0.0046
2433.00,0.0046
2432.00,0.0046
2431.00,0.0046
2430.00,0.0046
2429.00,0.0045
2428.00,0.0045
2427.00,0.0045
2426.00,0.0045
2425.00,0.0045
2424.00,0.0045
2423.00,0.0044
2422.00,0.0044
2421.00,0.0044
2420.00,0.0044
2419.00,0.0044
2418.00,0.0044
2417.00,0.0044
2416.00,0.0044
2415.00,0.0044
2414.00,0.0043
2413.00,0.0043
2412.00,0.0043
2411.00,0.0042
2410.00,0.0042
2409.00,0.0041
2408.00,0.0040
2407.00,0.0040
2406.00,0.0040
2405.00,0.0039
2404.00,0.0040
2403.00,0.0040
2402.00,0.0040
2401.00,0.0040
2400.00,0.0040
2399.00,0.0040
2398.00,0.0039
2397.00,0.0039
2396.00,0.0039
2395.00,0.0039
2394.00,0.0039
2393.00,0.0039
2392.00,0.0039
2391.00,0.0039
2390.00,0.0039
2389.00,0.0039
2388.00,0.0038
2387.00,0.0037
2386.00,0.0036
2385.00,0.0036
2384.00,0.0035
2383.00,0.0035
2382.00,0.0035
2381.00,0.0035
2380.00,0.0034
2379.00,0.0034
2378.00,0.0034
2377.00,0.0034
2376.00,0.0035
2375.00,0.0034
2374.00,0.0034
2373.00,0.0034
2372.00,0.0033
2371.00,0.0033
2370.00,0.0033
2369.00,0.0032
2368.00,0.0032
2367.00,0.0032
2366.00,0.0032
2365.00,0.0033
2364.00,0.0034
2363.00,0.0034
2362.00,0.0035
2361.00,0.0035
2360.00,0.0035
2359.00,0.0034
2358.00,0.0034
2357.00,0.0034
2356.00,0.0034
2355.00,0.0034
2354.00,0.0034
2353.00,0.0034
2352.00,0.0034
2351.00,0.0034
2350.00,0.0033
2349.00,0.0034
2348.00,0.0035
2347.00,0.0037
2346.00,0.0038
2345.00,0.0039
2344.00,0.0038
2343.00,0.0037
2342.00,0.0036
2341.00,0.0036
2340.00,0.0036
2339.00,0.0037
2338.00,0.0037
2337.00,0.0037
2336.00,0.0037
2335.00,0.0037
2334.00,0.0036
2333.00,0.0036
2332.00,0.0036
2331.00,0.0036
2330.00,0.0036
2329.00,0.0038
2328.00,0.0041
2327.00,0.0045
2326.00,0.0049
2325.00,0.0050
2324.00,0.0049
2323.00,0.0047
2322.00,0.0045
2321.00,0.0043
2320.00,0.0041
2319.00,0.0040
2318.00,0.0039
2317.00,0.0039
2316.00,0.0039
2315.00,0.0039
2314.00,0.0039
2313.00,0.0038
2312.00,0.0038
2311.00,0.0037
2310.00,0.0037
2309.00,0.0037
2308.00,0.0037
2307.00,0.0037
2306.00,0.0038
2305.00,0.0038
2304.00,0.0038
2303.00,0.0038
2302.00,0.0038
2301.00,0.0038
2300.00,0.0038
2299.00,0.0039
2298.00,0.0039
2297.00,0.0039
2296.00,0.0040
2295.00,0.0041
2294.00,0.0042
2293.00,0.0043
2292.00,0.0044
2291.00,0.0044
2290.00,0.0045
2289.00,0.0046
2288.00,0.0046
2287.00,0.0046
2286.00,0.0046
2285.00,0.0046
2284.00,0.0045
2283.00,0.0044
2282.00,0.0043
2281.00,0.0043
2280.00,0.0042
2279.00,0.0042
2278.00,0.0041
2277.00,0.0041
2276.00,0.0041
2275.00,0.0041
2274.00,0.0041
2273.00,0.0040
2272.00,0.0040
2271.00,0.0040
2270.00,0.0040
2269.00,0.0040
2268.00,0.0040
2267.00,0.0039
2266.00,0.0038
2265.00,0.0037
2264.00,0.0036
2263.00,0.0036
2262.00,0.0037
2261.00,0.0037
2260.00,0.0037
2259.00,0.0037
2258.00,0.0036
2257.00,0.0035
2256.00,0.0034
2255.00,0.0033
2254.00,0.0033
2253.00,0.0034
2252.00,0.0034
2251.00,0.0034
2250.00,0.0034
2249.00,0.0034
2248.00,0.0034
2247.00,0.0035
2246.00,0.0035
2245.00,0.0035
2244.00,0.0036
2243.00,0.0035
2242.00,0.0035
2241.00,0.0034
2240.00,0.0034
2239.00,0.0035
2238.00,0.0035
2237.00,0.0035
2236.00,0.0036
2235.00,0.0035
2234.00,0.0034
2233.00,0.0033
2232.00,0.0033
2231.00,0.0032
2230.00,0.0031
2229.00,0.0031
2228.00,0.0031
2227.00,0.0031
2226.00,0.0032
2225.00,0.0033
2224.00,0.0033
2223.00,0.0033
2222.00,0.0033
2221.00,0.0032
2220.00,0.0032
2219.00,0.0032
2218.00,0.0031
2217.00,0.0031
2216.00,0.0030
2215.00,0.0030
2214.00,0.0029
2213.00,0.0029
2212.00,0.0029
2211.00,0.0029
2210.00,0.0030
2209.00,0.0031
2208.00,0.0032
2207.00,0.0032
2206.00,0.0033
2205.00,0.0033
2204.00,0.0032
2203.00,0.0031
2202.00,0.0030
2201.00,0.0030
2200.00,0.0030
2199.00,0.0031
2198.00,0.0031
2197.00,0.0031
2196.00,0.0032
2195.00,0.0033
2194.00,0.0034
2193.00,0.0035
2192.00,0.0036
2191.00,0.0036
2190.00,0.0036
2189.00,0.0036
2188.00,0.0036
2187.00,0.0035
2186.00,0.0033
2185.00,0.0032
2184.00,0.0030
2183.00,0.0028
2182.00,0.0027
2181.00,0.0027
2180.00,0.0029
2179.00,0.0030
2178.00,0.0029
2177.00,0.0027
2176.00,0.0026
2175.00,0.0025
2174.00,0.0025
2173.00,0.0027
2172.00,0.0029
2171.00,0.0031
2170.00,0.0032
2169.00,0.0034
2168.00,0.0036
2167.00,0.0037
2166.00,0.0038
2165.00,0.0039
2164.00,0.0040
2163.00,0.0039
2162.00,0.0034
2161.00,0.0022
2160.00,0.0008
2159.00,-0.0004
2158.00,-0.0009
2157.00,-0.0007
2156.00,-0.0003
2155.00,0.0000
2154.00,0.0003
2153.00,0.0005
2152.00,0.0007
2151.00,0.0007
2150.00,0.0007
2149.00,0.0006
2148.00,0.0007
2147.00,0.0007
2146.00,0.0009
2145.00,0.0011
2144.00,0.0012
2143.00,0.0012
2142.00,0.0012
2141.00,0.0013
2140.00,0.0013
2139.00,0.0012
2138.00,0.0010
2137.00,0.0007
2136.00,0.0005
2135.00,0.0004
2134.00,0.0005
2133.00,0.0007
2132.00,0.0011
2131.00,0.0013
2130.00,0.0016
2129.00,0.0017
2128.00,0.0019
2127.00,0.0019
2126.00,0.0020
2125.00,0.0021
2124.00,0.0021
2123.00,0.0022
2122.00,0.0023
2121.00,0.0024
2120.00,0.0025
2119.00,0.0026
2118.00,0.0027
2117.00,0.0028
2116.00,0.0029
2115.00,0.0030
2114.00,0.0031
2113.00,0.0031
2112.00,0.0031
2111.00,0.0031
2110.00,0.0030
2109.00,0.0030
2108.00,0.0030
2107.00,0.0030
2106.00,0.0030
2105.00,0.0031
2104.00,0.0031
2103.00,0.0031
2102.00,0.0031
2101.00,0.0031
2100.00,0.0030
2099.00,0.0030
2098.00,0.0028
2097.00,0.0026
2096.00,0.0024
2095.00,0.0022
2094.00,0.0022
2093.00,0.0022
2092.00,0.0024
2091.00,0.0026
2090.00,0.0027
2089.00,0.0029
2088.00,0.0030
2087.00,0.0030
2086.00,0.0031
2085.00,0.0031
2084.00,0.0032
2083.00,0.0032
2082.00,0.0032
2081.00,0.0032
2080.00,0.0032
2079.00,0.0032
2078.00,0.0031
2077.00,0.0031
2076.00,0.0031
2075.00,0.0031
2074.00,0.0030
2073.00,0.0030
2072.00,0.0029
2071.00,0.0029
2070.00,0.0029
2069.00,0.0029
2068.00,0.0030
2067.00,0.0029
2066.00,0.0029
2065.00,0.0029
2064.00,0.0028
2063.00,0.0028
2062.00,0.0027
2061.00,0.0027
2060.00,0.0026
2059.00,0.0026
2058.00,0.0027
2057.00,0.0028
2056.00,0.0029
2055.00,0.0030
2054.00,0.0033
2053.00,0.0037
2052.00,0.0041
2051.00,0.0041
2050.00,0.0037
2049.00,0.0033
2048.00,0.0030
2047.00,0.0029
2046.00,0.0028
2045.00,0.0028
2044.00,0.0028
2043.00,0.0028
2042.00,0.0027
2041.00,0.0027
2040.00,0.0028
2039.00,0.0028
2038.00,0.0027
2037.00,0.0027
2036.00,0.0025
2035.00,0.0023
2034.00,0.0020
2033.00,0.0020
2032.00,0.0021
2031.00,0.0021
2030.00,0.0020
2029.00,0.0019
2028.00,0.0018
2027.00,0.0017
2026.00,0.0016
2025.00,0.0016
2024.00,0.0017
2023.00,0.0018
2022.00,0.0018
2021.00,0.0019
2020.00,0.0019
2019.00,0.0019
2018.00,0.0017
2017.00,0.0016
2016.00,0.0016
2015.00,0.0016
2014.00,0.0017
2013.00,0.0019
2012.00,0.0021
2011.00,0.0022
2010.00,0.0020
2009.00,0.0016
2008.00,0.0012
2007.00,0.0009
2006.00,0.0008
2005.00,0.0009
2004.00,0.0011
2003.00,0.0013
2002.00,0.0014
2001.00,0.0015
2000.00,0.0017
1999.00,0.0018
1998.00,0.0019
1997.00,0.0020
1996.00,0.0021
1995.00,0.0022
1994.00,0.0022
1993.00,0.0024
1992.00,0.0026
1991.00,0.0026
1990.00,0.0025
1989.00,0.0024
1988.00,0.0023
1987.00,0.0023
1986.00,0.0023
1985.00,0.0025
1984.00,0.0028
1983.00,0.0031
1982.00,0.0034
1981.00,0.0035
1980.00,0.0033
1979.00,0.0029
1978.00,0.0022
1977.00,0.0018
1976.00,0.0016
1975.00,0.0013
1974.00,0.0011
1973.00,0.0011
1972.00,0.0012
1971.00,0.0013
1970.00,0.0013
1969.00,0.0014
1968.00,0.0015
1967.00,0.0016
1966.00,0.0016
1965.00,0.0016
1964.00,0.0016
1963.00,0.0015
1962.00,0.0013
1961.00,0.0011
1960.00,0.0010
1959.00,0.0010
1958.00,0.0011
1957.00,0.0014
1956.00,0.0017
1955.00,0.0018
1954.00,0.0018
1953.00,0.0018
1952.00,0.0017
1951.00,0.0017
1950.00,0.0016
1949.00,0.0016
1948.00,0.0017
1947.00,0.0016
1946.00,0.0016
1945.00,0.0016
1944.00,0.0017
1943.00,0.0018
1942.00,0.0017
1941.00,0.0016
1940.00,0.0016
1939.00,0.0016
1938.00,0.0016
1937.00,0.0017
1936.00,0.0018
1935.00,0.0019
1934.00,0.0019
1933.00,0.0019
1932.00,0.0019
1931.00,0.0019
1930.00,0.0019
1929.00,0.0019
1928.00,0.0020
1927.00,0.0020
1926.00,0.0019
1925.00,0.0020
1924.00,0.0020
1923.00,0.0021
1922.00,0.0021
1921.00,0.0022
1920.00,0.0023
1919.00,0.0023
1918.00,0.0023
1917.00,0.0022
1916.00,0.0021
1915.00,0.0021
1914.00,0.0022
1913.00,0.0022
1912.00,0.0023
1911.00,0.0023
1910.00,0.0023
1909.00,0.0023
1908.00,0.0024
1907.00,0.0024
1906.00,0.0024
1905.00,0.0023
1904.00,0.0023
1903.00,0.0022
1902.00,0.0022
1901.00,0.0022
1900.00,0.0022
1899.00,0.0023
1898.00,0.0023
1897.00,0.0025
1896.00,0.0026
1895.00,0.0026
1894.00,0.0025
1893.00,0.0025
1892.00,0.0025
1891.00,0.0024
1890.00,0.0024
1889.00,0.0023
1888.00,0.0024
1887.00,0.0024
1886.00,0.0025
1885.00,0.0025
1884.00,0.0026
1883.00,0.0025
1882.00,0.0025
1881.00,0.0025
1880.00,0.0025
1879.00,0.0025
1878.00,0.0025
1877.00,0.0025
1876.00,0.0025
1875.00,0.0025
1874.00,0.0025
1873.00,0.0025
1872.00,0.0025
1871.00,0.0025
1870.00,0.0025
1869.00,0.0025
1868.00,0.0025
1867.00,0.0025
1866.00,0.0024
1865.00,0.0025
1864.00,0.0025
1863.00,0.0025
1862.00,0.0024
1861.00,0.0024
1860.00,0.0025
1859.00,0.0025
1858.00,0.0025
1857.00,0.0026
1856.00,0.0027
1855.00,0.0027
1854.00,0.0027
1853.00,0.0027
1852.00,0.0027
1851.00,0.0027
1850.00,0.0027
1849.00,0.0028
1848.00,0.0028
1847.00,0.0029
1846.00,0.0028
1845.00,0.0027
1844.00,0.0025
1843.00,0.0023
1842.00,0.0022
1841.00,0.0024
1840.00,0.0026
1839.00,0.0028
1838.00,0.0028
1837.00,0.0029
1836.00,0.0029
1835.00,0.0029
1834.00,0.0028
1833.00,0.0029
1832.00,0.0030
1831.00,0.0031
1830.00,0.0030
1829.00,0.0029
1828.00,0.0029
1827.00,0.0029
1826.00,0.0029
1825.00,0.0030
1824.00,0.0030
1823.00,0.0031
1822.00,0.0031
1821.00,0.0031
1820.00,0.0032
1819.00,0.0031
1818.00,0.0030
1817.00,0.0029
1816.00,0.0030
1815.00,0.0031
1814.00,0.0032
1813.00,0.0033
1812.00,0.0034
1811.00,0.0035
1810.00,0.0034
1809.00,0.0034
1808.00,0.0034
1807.00,0.0034
1806.00,0.0035
1805.00,0.0036
1804.00,0.0036
1803.00,0.0037
1802.00,0.0037
1801.00,0.0037
1800.00,0.0037
1799.00,0.0037
1798.00,0.0037
1797.00,0.0038
1796.00,0.0039
1795.00,0.0040
1794.00,0.0040
1793.00,0.0039
1792.00,0.0038
1791.00,0.0037
1790.00,0.0037
1789.00,0.0038
1788.00,0.0041
1787.00,0.0042
1786.00,0.0043
1785.00,0.0044
1784.00,0.0044
1783.00,0.0044
1782.00,0.0044
1781.00,0.0045
1780.00,0.0046
1779.00,0.0045
1778.00,0.0045
1777.00,0.0046
1776.00,0.0047
1775.00,0.0049
1774.00,0.0049
1773.00,0.0049
1772.00,0.0048
1771.00,0.0047
1770.00,0.0046
1769.00,0.0048
1768.00,0.0050
1767.00,0.0051
1766.00,0.0052
1765.00,0.0054
1764.00,0.0057
1763.00,0.0059
1762.00,0.0059
1761.00,0.0059
1760.00,0.0061
1759.00,0.0063
1758.00,0.0065
1757.00,0.0068
1756.00,0.0070
1755.00,0.0071
1754.00,0.0073
1753.00,0.0076
1752.00,0.0079
1751.00,0.0081
1750.00,0.0083
1749.00,0.0087
1748.00,0.0092
1747.00,0.0095
1746.00,0.0099
1745.00,0.0102
1744.00,0.0107
1743.00,0.0111
1742.00,0.0114
1741.00,0.0117
1740.00,0.0121
1739.00,0.0124
1738.00,0.0127
1737.00,0.0130
1736.00,0.0134
1735.00,0.0137
1734.00,0.0139
1733.00,0.0141
1732.00,0.0145
1731.00,0.0152
1730.00,0.0158
1729.00,0.0163
1728.00,0.0167
1727.00,0.0170
1726.00,0.0173
1725.00,0.0177
1724.00,0.0181
1723.00,0.0184
1722.00,0.0187
1721.00,0.0189
1720.00,0.0192
1719.00,0.0195
1718.00,0.0197
1717.00,0.0200
1716.00,0.0203
1715.00,0.0207
1714.00,0.0212
1713.00,0.0218
1712.00,0.0224
1711.00,0.0231
1710.00,0.0237
1709.00,0.0243
1708.00,0.0251
1707.00,0.0261
1706.00,0.0274
1705.00,0.0288
1704.00,0.0301
1703.00,0.0312
1702.00,0.0326
1701.00,0.0350
1700.00,0.0382
1699.00,0.0409
1698.00,0.0428
1697.00,0.0448
1696.00,0.0470
1695.00,0.0487
1694.00,0.0497
1693.00,0.0506
1692.00,0.0515
1691.00,0.0526
1690.00,0.0537
1689.00,0.0548
1688.00,0.0557
1687.00,0.0564
1686.00,0.0571
1685.00,0.0587
1684.00,0.0612
1683.00,0.0633
1682.00,0.0646
1681.00,0.0659
1680.00,0.0673
1679.00,0.0686
1678.00,0.0696
1677.00,0.0706
1676.00,0.0722
1675.00,0.0741
1674.00,0.0758
1673.00,0.0770
1672.00,0.0782
1671.00,0.0797
1670.00,0.0817
1669.00,0.0839
1668.00,0.0858
1667.00,0.0871
1666.00,0.0882
1665.00,0.0892
1664.00,0.0907
1663.00,0.0927
1662.00,0.0948
1661.00,0.0966
1660.00,0.0980
1659.00,0.0993
1658.00,0.1004
1657.00,0.1010
1656.00,0.1012
1655.00,0.1015
1654.00,0.1033
1653.00,0.1071
1652.00,0.1098
1651.00,0.1103
1650.00,0.1102
1649.00,0.1101
1648.00,0.1107
1647.00,0.1122
1646.00,0.1138
1645.00,0.1147
1644.00,0.1151
1643.00,0.1155
1642.00,0.1159
1641.00,0.1164
1640.00,0.1170
1639.00,0.1174
1638.00,0.1178
1637.00,0.1189
1636.00,0.1215
1635.00,0.1246
1634.00,0.1268
1633.00,0.1283
1632.00,0.1295
1631.00,0.1309
1630.00,0.1326
1629.00,0.1347
1628.00,0.1373
1627.00,0.1396
1626.00,0.1414
1625.00,0.1429
1624.00,0.1449
1623.00,0.1471
1622.00,0.1485
1621.00,0.1487
1620.00,0.1479
1619.00,0.1466
1618.00,0.1453
1617.00,0.1441
1616.00,0.1426
1615.00,0.1404
1614.00,0.1375
1613.00,0.1340
1612.00,0.1302
1611.00,0.1263
1610.00,0.1223
1609.00,0.1181
1608.00,0.1140
1607.00,0.1100
1606.00,0.1061
1605.00,0.1024
1604.00,0.0988
1603.00,0.0954
1602.00,0.0923
1601.00,0.0894
1600.00,0.0866
1599.00,0.0841
1598.00,0.0818
1597.00,0.0797
1596.00,0.0777
1595.00,0.0758
1594.00,0.0742
1593.00,0.0726
1592.00,0.0711
1591.00,0.0698
1590.00,0.0686
1589.00,0.0676
1588.00,0.0667
1587.00,0.0659
1586.00,0.0653
1585.00,0.0649
1584.00,0.0645
1583.00,0.0643
1582.00,0.0642
1581.00,0.0642
1580.00,0.0641
1579.00,0.0640
1578.00,0.0642
1577.00,0.0648
1576.00,0.0658
1575.00,0.0667
1574.00,0.0674
1573.00,0.0680
1572.00,0.0685
1571.00,0.0693
1570.00,0.0707
1569.00,0.0723
1568.00,0.0735
1567.00,0.0746
1566.00,0.0757
1565.00,0.0771
1564.00,0.0783
1563.00,0.0790
1562.00,0.0792
1561.00,0.0794
1560.00,0.0807
1559.00,0.0844
1558.00,0.0880
1557.00,0.0896
1556.00,0.0907
1555.00,0.0920
1554.00,0.0937
1553.00,0.0952
1552.00,0.0965
1551.00,0.0980
1550.00,0.0997
1549.00,0.1014
1548.00,0.1025
1547.00,0.1033
1546.00,0.1042
1545.00,0.1054
1544.00,0.1066
1543.00,0.1076
1542.00,0.1086
1541.00,0.1104
1540.00,0.1132
1539.00,0.1157
1538.00,0.1169
1537.00,0.1172
1536.00,0.1173
1535.00,0.1176
1534.00,0.1190
1533.00,0.1209
1532.00,0.1222
1531.00,0.1227
1530.00,0.1229
1529.00,0.1231
1528.00,0.1236
1527.00,0.1242
1526.00,0.1249
1525.00,0.1251
1524.00,0.1250
1523.00,0.1250
1522.00,0.1257
1521.00,0.1269
1520.00,0.1276
1519.00,0.1277
1518.00,0.1278
1517.00,0.1282
1516.00,0.1286
1515.00,0.1281
1514.00,0.1270
1513.00,0.1254
1512.00,0.1236
1511.00,0.1217
1510.00,0.1195
1509.00,0.1172
1508.00,0.1151
1507.00,0.1135
1506.00,0.1118
1505.00,0.1095
1504.00,0.1072
1503.00,0.1049
1502.00,0.1026
1501.00,0.1002
1500.00,0.0978
1499.00,0.0956
1498.00,0.0933
1497.00,0.0911
1496.00,0.0889
1495.00,0.0866
1494.00,0.0844
1493.00,0.0822
1492.00,0.0799
1491.00,0.0777
1490.00,0.0756
1489.00,0.0737
1488.00,0.0718
1487.00,0.0700
1486.00,0.0683
1485.00,0.0667
1484.00,0.0652
1483.00,0.0639
1482.00,0.0627
1481.00,0.0618
1480.00,0.0609
1479.00,0.0603
1478.00,0.0597
1477.00,0.0595
1476.00,0.0594
1475.00,0.0595
1474.00,0.0599
1473.00,0.0607
1472.00,0.0618
1471.00,0.0627
1470.00,0.0632
1469.00,0.0635
1468.00,0.0637
1467.00,0.0638
1466.00,0.0638
1465.00,0.0641
1464.00,0.0643
1463.00,0.0645
1462.00,0.0646
1461.00,0.0647
1460.00,0.0647
1459.00,0.0650
1458.00,0.0658
1457.00,0.0671
1456.00,0.0683
1455.00,0.0689
1454.00,0.0693
1453.00,0.0695
1452.00,0.0696
1451.00,0.0697
1450.00,0.0696
1449.00,0.0695
1448.00,0.0695
1447.00,0.0695
1446.00,0.0694
1445.00,0.0691
1444.00,0.0688
1443.00,0.0686
1442.00,0.0682
1441.00,0.0678
1440.00,0.0673
1439.00,0.0666
1438.00,0.0658
1437.00,0.0651
1436.00,0.0646
1435.00,0.0640
1434.00,0.0633
1433.00,0.0625
1432.00,0.0618
1431.00,0.0611
1430.00,0.0605
1429.00,0.0600
1428.00,0.0595
1427.00,0.0592
1426.00,0.0589
1425.00,0.0589
1424.00,0.0590
1423.00,0.0592
1422.00,0.0592
1421.00,0.0592
1420.00,0.0595
1419.00,0.0603
1418.00,0.0612
1417.00,0.0619
1416.00,0.0625
1415.00,0.0631
1414.00,0.0636
1413.00,0.0641
1412.00,0.0647
1411.00,0.0653
1410.00,0.0657
1409.00,0.0661
1408.00,0.0664
1407.00,0.0667
1406.00,0.0670
1405.00,0.0674
1404.00,0.0677
1403.00,0.0680
1402.00,0.0680
1401.00,0.0680
1400.00,0.0682
1399.00,0.0684
1398.00,0.0686
1397.00,0.0687
1396.00,0.0688
1395.00,0.0690
1394.00,0.0693
1393.00,0.0694
1392.00,0.0695
1391.00,0.0695
1390.00,0.0695
1389.00,0.0694
1388.00,0.0693
1387.00,0.0692
1386.00,0.0689
1385.00,0.0685
1384.00,0.0679
1383.00,0.0673
1382.00,0.0666
1381.00,0.0659
1380.00,0.0652
1379.00,0.0646
1378.00,0.0640
1377.00,0.0635
1376.00,0.0630
1375.00,0.0627
1374.00,0.0624
1373.00,0.0622
1372.00,0.0620
1371.00,0.0617
1370.00,0.0615
1369.00,0.0611
1368.00,0.0606
1367.00,0.0600
1366.00,0.0593
1365.00,0.0585
1364.00,0.0579
1363.00,0.0574
1362.00,0.0570
1361.00,0.0566
1360.00,0.0562
1359.00,0.0558
1358.00,0.0556
1357.00,0.0553
1356.00,0.0551
1355.00,0.0550
1354.00,0.0548
1353.00,0.0547
1352.00,0.0546
1351.00,0.0545
1350.00,0.0545
1349.00,0.0544
1348.00,0.0543
1347.00,0.0543
1346.00,0.0543
1345.00,0.0542
1344.00,0.0542
1343.00,0.0542
1342.00,0.0541
1341.00,0.0541
1340.00,0.0541
1339.00,0.0540
1338.00,0.0539
1337.00,0.0538
1336.00,0.0536
1335.00,0.0534
1334.00,0.0532
1333.00,0.0530
1332.00,0.0528
1331.00,0.0527
1330.00,0.0526
1329.00,0.0525
1328.00,0.0525
1327.00,0.0525
1326.00,0.0525
1325.00,0.0525
1324.00,0.0526
1323.00,0.0526
1322.00,0.0527
1321.00,0.0528
1320.00,0.0529
1319.00,0.0531
1318.00,0.0532
1317.00,0.0533
1316.00,0.0533
1315.00,0.0534
1314.00,0.0534
1313.00,0.0534
1312.00,0.0534
1311.00,0.0534
1310.00,0.0533
1309.00,0.0533
1308.00,0.0532
1307.00,0.0532
1306.00,0.0531
1305.00,0.0531
1304.00,0.0531
1303.00,0.0531
1302.00,0.0531
1301.00,0.0531
1300.00,0.0531
1299.00,0.0531
1298.00,0.0532
1297.00,0.0534
1296.00,0.0536
1295.00,0.0538
1294.00,0.0541
1293.00,0.0543
1292.00,0.0546
1291.00,0.0548
1290.00,0.0550
1289.00,0.0553
1288.00,0.0555
1287.00,0.0557
1286.00,0.0559
1285.00,0.0561
1284.00,0.0563
1283.00,0.0566
1282.00,0.0568
1281.00,0.0569
1280.00,0.0571
1279.00,0.0572
1278.00,0.0573
1277.00,0.0574
1276.00,0.0575
1275.00,0.0575
1274.00,0.0576
1273.00,0.0577
1272.00,0.0579
1271.00,0.0581
1270.00,0.0583
1269.00,0.0586
1268.00,0.0588
1267.00,0.0592
1266.00,0.0595
1265.00,0.0599
1264.00,0.0603
1263.00,0.0608
1262.00,0.0613
1261.00,0.0619
1260.00,0.0624
1259.00,0.0630
1258.00,0.0635
1257.00,0.0640
1256.00,0.0646
1255.00,0.0652
1254.00,0.0657
1253.00,0.0663
1252.00,0.0669
1251.00,0.0675
1250.00,0.0680
1249.00,0.0686
1248.00,0.0692
1247.00,0.0698
1246.00,0.0704
1245.00,0.0710
1244.00,0.0716
1243.00,0.0722
1242.00,0.0727
1241.00,0.0733
1240.00,0.0738
1239.00,0.0743
1238.00,0.0748
1237.00,0.0753
1236.00,0.0757
1235.00,0.0761
1234.00,0.0764
1233.00,0.0766
1232.00,0.0769
1231.00,0.0770
1230.00,0.0772
1229.00,0.0772
1228.00,0.0772
1227.00,0.0771
1226.00,0.0770
1225.00,0.0768
1224.00,0.0767
1223.00,0.0764
1222.00,0.0762
1221.00,0.0758
1220.00,0.0755
1219.00,0.0750
1218.00,0.0745
1217.00,0.0739
1216.00,0.0733
1215.00,0.0727
1214.00,0.0720
1213.00,0.0712
1212.00,0.0705
1211.00,0.0698
1210.00,0.0690
1209.00,0.0682
1208.00,0.0675
1207.00,0.0667
1206.00,0.0660
1205.00,0.0654
1204.00,0.0647
1203.00,0.0641
1202.00,0.0635
1201.00,0.0629
1200.00,0.0623
1199.00,0.0618
1198.00,0.0613
1197.00,0.0609
1196.00,0.0604
1195.00,0.0600
1194.00,0.0597
1193.00,0.0593
1192.00,0.0590
1191.00,0.0587
1190.00,0.0585
1189.00,0.0582
1188.00,0.0580
1187.00,0.0578
1186.00,0.0576
1185.00,0.0574
1184.00,0.0573
1183.00,0.0572
1182.00,0.0572
1181.00,0.0572
1180.00,0.0573
1179.00,0.0575
1178.00,0.0578
1177.00,0.0581
1176.00,0.0584
1175.00,0.0588
1174.00,0.0592
1173.00,0.0596
1172.00,0.0600
1171.00,0.0602
1170.00,0.0604
1169.00,0.0605
1168.00,0.0606
1167.00,0.0607
1166.00,0.0609
1165.00,0.0611
1164.00,0.0613
1163.00,0.0616
1162.00,0.0619
1161.00,0.0621
1160.00,0.0624
1159.00,0.0626
1158.00,0.0627
1157.00,0.0629
1156.00,0.0629
1155.00,0.0628
1154.00,0.0626
1153.00,0.0624
1152.00,0.0621
1151.00,0.0617
1150.00,0.0613
1149.00,0.0608
1148.00,0.0602
1147.00,0.0597
1146.00,0.0591
1145.00,0.0584
1144.00,0.0578
1143.00,0.0573
1142.00,0.0568
1141.00,0.0563
1140.00,0.0559
1139.00,0.0556
1138.00,0.0553
1137.00,0.0551
1136.00,0.0549
1135.00,0.0548
1134.00,0.0548
1133.00,0.0548
1132.00,0.0548
1131.00,0.0550
1130.00,0.0552
1129.00,0.0554
1128.00,0.0557
1127.00,0.0559
1126.00,0.0562
1125.00,0.0564
1124.00,0.0566
1123.00,0.0568
1122.00,0.0570
1121.00,0.0571
1120.00,0.0573
1119.00,0.0575
1118.00,0.0577
1117.00,0.0579
1116.00,0.0581
1115.00,0.0582
1114.00,0.0584
1113.00,0.0585
1112.00,0.0587
1111.00,0.0589
1110.00,0.0590
1109.00,0.0592
1108.00,0.0594
1107.00,0.0595
1106.00,0.0597
1105.00,0.0599
1104.00,0.0602
1103.00,0.0604
1102.00,0.0607
1101.00,0.0609
1100.00,0.0612
1099.00,0.0615
1098.00,0.0618
1097.00,0.0622
1096.00,0.0626
1095.00,0.0631
1094.00,0.0636
1093.00,0.0643
1092.00,0.0649
1091.00,0.0657
1090.00,0.0665
1089.00,0.0673
1088.00,0.0682
1087.00,0.0691
1086.00,0.0701
1085.00,0.0710
1084.00,0.0719
1083.00,0.0728
1082.00,0.0736
1081.00,0.0743
1080.00,0.0749
1079.00,0.0755
1078.00,0.0759
1077.00,0.0761
1076.00,0.0762
1075.00,0.0763
1074.00,0.0762
1073.00,0.0761
1072.00,0.0760
1071.00,0.0760
1070.00,0.0759
1069.00,0.0760
1068.00,0.0761
1067.00,0.0762
1066.00,0.0765
1065.00,0.0767
1064.00,0.0771
1063.00,0.0775
1062.00,0.0778
1061.00,0.0782
1060.00,0.0785
1059.00,0.0788
1058.00,0.0790
1057.00,0.0791
1056.00,0.0792
1055.00,0.0793
1054.00,0.0793
1053.00,0.0793
1052.00,0.0792
1051.00,0.0791
1050.00,0.0790
1049.00,0.0789
1048.00,0.0788
1047.00,0.0786
1046.00,0.0785
1045.00,0.0783
1044.00,0.0781
1043.00,0.0779
1042.00,0.0777
1041.00,0.0775
1040.00,0.0772
1039.00,0.0770
1038.00,0.0767
1037.00,0.0764
1036.00,0.0762
1035.00,0.0760
1034.00,0.0759
1033.00,0.0758
1032.00,0.0758
1031.00,0.0757
1030.00,0.0756
1029.00,0.0754
1028.00,0.0752
1027.00,0.0750
1026.00,0.0747
1025.00,0.0743
1024.00,0.0739
1023.00,0.0735
1022.00,0.0730
1021.00,0.0724
1020.00,0.0718
1019.00,0.0712
1018.00,0.0706
1017.00,0.0699
1016.00,0.0692
1015.00,0.0685
1014.00,0.0678
1013.00,0.0670
1012.00,0.0663
1011.00,0.0656
1010.00,0.0648
1009.00,0.0640
1008.00,0.0633
1007.00,0.0626
1006.00,0.0619
1005.00,0.0613
1004.00,0.0606
1003.00,0.0600
1002.00,0.0593
1001.00,0.0586
1000.00,0.0579
999.00,0.0573
998.00,0.0566
997.00,0.0560
996.00,0.0553
995.00,0.0545
994.00,0.0538
993.00,0.0530
992.00,0.0522
991.00,0.0514
990.00,0.0506
989.00,0.0499
988.00,0.0492
987.00,0.0486
986.00,0.0480
985.00,0.0474
984.00,0.0469
983.00,0.0465
982.00,0.0461
981.00,0.0457
980.00,0.0455
979.00,0.0453
978.00,0.0453
977.00,0.0452
976.00,0.0453
975.00,0.0453
974.00,0.0453
973.00,0.0454
972.00,0.0455
971.00,0.0456
970.00,0.0456
969.00,0.0457
968.00,0.0457
967.00,0.0457
966.00,0.0457
965.00,0.0457
964.00,0.0457
963.00,0.0457
962.00,0.0457
961.00,0.0456
960.00,0.0455
959.00,0.0454
958.00,0.0452
957.00,0.0451
956.00,0.0450
955.00,0.0448
954.00,0.0447
953.00,0.0446
952.00,0.0446
951.00,0.0446
950.00,0.0446
949.00,0.0446
948.00,0.0447
947.00,0.0447
946.00,0.0448
945.00,0.0449
944.00,0.0450
943.00,0.0452
942.00,0.0453
941.00,0.0455
940.00,0.0457
939.00,0.0459
938.00,0.0461
937.00,0.0463
936.00,0.0465
935.00,0.0467
934.00,0.0468
933.00,0.0469
932.00,0.0469
931.00,0.0469
930.00,0.0469
929.00,0.0468
928.00,0.0468
927.00,0.0467
926.00,0.0466
925.00,0.0465
924.00,0.0464
923.00,0.0462
922.00,0.0460
921.00,0.0459
920.00,0.0457
919.00,0.0456
918.00,0.0454
917.00,0.0452
916.00,0.0450
915.00,0.0448
914.00,0.0447
913.00,0.0445
912.00,0.0444
911.00,0.0442
910.00,0.0440
909.00,0.0438
908.00,0.0436
907.00,0.0435
906.00,0.0434
905.00,0.0433
904.00,0.0432
903.00,0.0431
902.00,0.0430
901.00,0.0429
900.00,0.0428
899.00,0.0427
898.00,0.0426
897.00,0.0425
896.00,0.0425
895.00,0.0424
894.00,0.0424
893.00,0.0423
892.00,0.0423
891.00,0.0422
890.00,0.0422
889.00,0.0422
888.00,0.0421
887.00,0.0421
886.00,0.0421
885.00,0.0421
884.00,0.0420
883.00,0.0420
882.00,0.0419
881.00,0.0419
880.00,0.0419
879.00,0.0419
878.00,0.0418
877.00,0.0417
876.00,0.0416
875.00,0.0415
874.00,0.0414
873.00,0.0413
872.00,0.0413
871.00,0.0412
870.00,0.0412
869.00,0.0412
868.00,0.0413
867.00,0.0413
866.00,0.0414
865.00,0.0416
864.00,0.0417
863.00,0.0419
862.00,0.0420
861.00,0.0422
860.00,0.0424
859.00,0.0426
858.00,0.0429
857.00,0.0432
856.00,0.0435
855.00,0.0438
854.00,0.0441
853.00,0.0443
852.00,0.0445
851.00,0.0447
850.00,0.0448
849.00,0.0448
848.00,0.0449
847.00,0.0449
846.00,0.0450
845.00,0.0451
844.00,0.0452
843.00,0.0454
842.00,0.0455
841.00,0.0458
840.00,0.0461
839.00,0.0464
838.00,0.0467
837.00,0.0471
836.00,0.0474
835.00,0.0478
834.00,0.0481
833.00,0.0484
832.00,0.0487
831.00,0.0490
830.00,0.0493
829.00,0.0496
828.00,0.0498
827.00,0.0500
826.00,0.0501
825.00,0.0502
824.00,0.0503
823.00,0.0504
822.00,0.0504
821.00,0.0506
820.00,0.0507
819.00,0.0509
818.00,0.0512
817.00,0.0514
816.00,0.0516
815.00,0.0517
814.00,0.0519
813.00,0.0521
812.00,0.0524
811.00,0.0526
810.00,0.0529
809.00,0.0531
808.00,0.0533
807.00,0.0536
806.00,0.0538
805.00,0.0540
804.00,0.0543
803.00,0.0546
802.00,0.0549
801.00,0.0552
800.00,0.0555
799.00,0.0559
798.00,0.0562
797.00,0.0566
796.00,0.0570
795.00,0.0575
794.00,0.0579
793.00,0.0584
792.00,0.0590
791.00,0.0595
790.00,0.0600
789.00,0.0606
788.00,0.0612
787.00,0.0617
786.00,0.0622
785.00,0.0627
784.00,0.0632
783.00,0.0636
782.00,0.0639
781.00,0.0643
780.00,0.0646
779.00,0.0649
778.00,0.0651
777.00,0.0653
776.00,0.0655
775.00,0.0656
774.00,0.0658
773.00,0.0659
772.00,0.0661
771.00,0.0663
770.00,0.0666
769.00,0.0668
768.00,0.0670
767.00,0.0673
766.00,0.0676
765.00,0.0678
764.00,0.0680
763.00,0.0683
762.00,0.0685
761.00,0.0687
760.00,0.0690
759.00,0.0693
758.00,0.0696
757.00,0.0700
756.00,0.0703
755.00,0.0706
754.00,0.0709
753.00,0.0713
752.00,0.0717
751.00,0.0722
750.00,0.0727
749.00,0.0732
748.00,0.0737
747.00,0.0741
746.00,0.0745
745.00,0.0748
744.00,0.0751
743.00,0.0755
742.00,0.0758
741.00,0.0761
740.00,0.0763
739.00,0.0766
738.00,0.0768
737.00,0.0771
736.00,0.0774
735.00,0.0778
734.00,0.0783
733.00,0.0788
732.00,0.0793
731.00,0.0799
730.00,0.0806
729.00,0.0814
728.00,0.0822
727.00,0.0831
726.00,0.0840
725.00,0.0849
724.00,0.0858
723.00,0.0867
722.00,0.0876
721.00,0.0885
720.00,0.0893
719.00,0.0902
718.00,0.0910
717.00,0.0917
716.00,0.0925
715.00,0.0932
714.00,0.0939
713.00,0.0947
712.00,0.0955
711.00,0.0963
710.00,0.0971
709.00,0.0979
708.00,0.0988
707.00,0.0997
706.00,0.1006
705.00,0.1016
704.00,0.1025
703.00,0.1035
702.00,0.1044
701.00,0.1051
700.00,0.1058
699.00,0.1063
698.00,0.1066
697.00,0.1068
696.00,0.1068
695.00,0.1068
694.00,0.1066
693.00,0.1065
692.00,0.1065
691.00,0.1065
690.00,0.1065
689.00,0.1065
688.00,0.1067
687.00,0.1068
686.00,0.1070
685.00,0.1071
684.00,0.1073
683.00,0.1075
682.00,0.1077
681.00,0.1078
680.00,0.1079
679.00,0.1081
678.00,0.1083
677.00,0.1086
676.00,0.1088
675.00,0.1090
674.00,0.1092
673.00,0.1094
672.00,0.1094
671.00,0.1094
670.00,0.1093
669.00,0.1096
668.00,0.1107
667.00,0.1117
666.00,0.1120
665.00,0.1120
664.00,0.1119
663.00,0.1120
662.00,0.1122
661.00,0.1125
660.00,0.1127
659.00,0.1130
658.00,0.1132
657.00,0.1134
656.00,0.1137
655.00,0.1139
654.00,0.1141
653.00,0.1142
652.00,0.1144
651.00,0.1146
650.00,0.1148
649.00,0.1150
648.00,0.1153
647.00,0.1156
646.00,0.1159
645.00,0.1163
644.00,0.1166
643.00,0.1169
642.00,0.1171
641.00,0.1174
640.00,0.1176
639.00,0.1179
638.00,0.1182
637.00,0.1185
636.00,0.1189
635.00,0.1193
634.00,0.1196
633.00,0.1200
632.00,0.1204
631.00,0.1208
630.00,0.1211
629.00,0.1213
628.00,0.1216
627.00,0.1218
626.00,0.1220
625.00,0.1222
624.00,0.1224
623.00,0.1226
622.00,0.1228
621.00,0.1229
620.00,0.1231
619.00,0.1233
618.00,0.1235
617.00,0.1236
616.00,0.1238
615.00,0.1239
614.00,0.1239
613.00,0.1241
612.00,0.1242
611.00,0.1243
610.00,0.1243
609.00,0.1243
608.00,0.1243
607.00,0.1244
606.00,0.1245
605.00,0.1245
604.00,0.1245
603.00,0.1246
602.00,0.1247
601.00,0.1248
600.00,0.1250
599.00,0.1252
598.00,0.1253
597.00,0.1255
596.00,0.1257
595.00,0.1260
594.00,0.1261
593.00,0.1263
592.00,0.1266
591.00,0.1268
590.00,0.1270
589.00,0.1272
588.00,0.1274
587.00,0.1277
586.00,0.1279
585.00,0.1282
584.00,0.1285
583.00,0.1287
582.00,0.1289
581.00,0.1292
580.00,0.1296
579.00,0.1298
578.00,0.1300
577.00,0.1301
576.00,0.1305
575.00,0.1309
574.00,0.1313
573.00,0.1317
572.00,0.1321
571.00,0.1323
570.00,0.1326
569.00,0.1329
568.00,0.1333
567.00,0.1336
566.00,0.1339
565.00,0.1341
564.00,0.1343
563.00,0.1345
562.00,0.1347
561.00,0.1349
560.00,0.1352
559.00,0.1355
558.00,0.1357
557.00,0.1358
556.00,0.1361
555.00,0.1366
554.00,0.1369
553.00,0.1373
552.00,0.1376
551.00,0.1380
550.00,0.1382
549.00,0.1384
548.00,0.1386
547.00,0.1389
546.00,0.1392
545.00,0.1395
544.00,0.1398
543.00,0.1400
542.00,0.1401
541.00,0.1403
540.00,0.1406
539.00,0.1409
538.00,0.1410
537.00,0.1410
536.00,0.1412
535.00,0.1415
534.00,0.1418
533.00,0.1420
532.00,0.1423
531.00,0.1425
530.00,0.1426
529.00,0.1426
528.00,0.1427
527.00,0.1430
526.00,0.1434
525.00,0.1438
524.00,0.1441
523.00,0.1442
522.00,0.1443
521.00,0.1444
520.00,0.1447
519.00,0.1450
518.00,0.1452
517.00,0.1453
516.00,0.1455
515.00,0.1456
514.00,0.1456
513.00,0.1458
512.00,0.1461
511.00,0.1463
510.00,0.1464
509.00,0.1463
508.00,0.1462
507.00,0.1460
506.00,0.1457
505.00,0.1454
504.00,0.1452
503.00,0.1452
502.00,0.1452
501.00,0.1453
500.00,0.1454
499.00,0.1456
498.00,0.1456
497.00,0.1457
496.00,0.1459
495.00,0.1460
494.00,0.1460
493.00,0.1459
492.00,0.1459
491.00,0.1459
490.00,0.1459
489.00,0.1460
488.00,0.1462
487.00,0.1462
486.00,0.1457
485.00,0.1452
484.00,0.1449
483.00,0.1447
482.00,0.1445
481.00,0.1445
480.00,0.1447
479.00,0.1450
478.00,0.1450
477.00,0.1449
476.00,0.1447
475.00,0.1445
474.00,0.1443
473.00,0.1443
472.00,0.1445
471.00,0.1447
470.00,0.1447
469.00,0.1446
468.00,0.1447
467.00,0.1448
466.00,0.1449
465.00,0.1449
464.00,0.1449
463.00,0.1451
462.00,0.1452
461.00,0.1453
460.00,0.1452
459.00,0.1449
458.00,0.1446
457.00,0.1446
456.00,0.1448
455.00,0.1447
454.00,0.1445
453.00,0.1442
452.00,0.1441
451.00,0.1437
450.00,0.1430
449.00,0.1426
448.00,0.1426
447.00,0.1425
446.00,0.1421
445.00,0.1417
444.00,0.1416
443.00,0.1418
442.00,0.1420
441.00,0.1419
440.00,0.1415
439.00,0.1410
438.00,0.1405
437.00,0.1405
436.00,0.1410
435.00,0.1415
434.00,0.1414
433.00,0.1410
432.00,0.1406
431.00,0.1402
430.00,0.1399
429.00,0.1400
428.00,0.1407
427.00,0.1412
426.00,0.1409
425.00,0.1401
424.00,0.1396
423.00,0.1394
422.00,0.1391
421.00,0.1387
420.00,0.1384
419.00,0.1385
418.00,0.1388
417.00,0.1394
416.00,0.1403
415.00,0.1410
414.00,0.1411
413.00,0.1408
412.00,0.1402
411.00,0.1392
410.00,0.1379
409.00,0.1366
408.00,0.1358
407.00,0.1358
406.00,0.1361
405.00,0.1367
404.00,0.1371
403.00,0.1368
402.00,0.1358
401.00,0.1348
400.00,0.1341
