Created as New Dataset,Sample 1046 By YargerLab Date Monday, August 04 2025
cm-1,A
4000.00,0.0022
3999.00,0.0022
3998.00,0.0022
3997.00,0.0022
3996.00,0.0022
3995.00,0.0023
3994.00,0.0023
3993.00,0.0023
3992.00,0.0023
3991.00,0.0022
3990.00,0.0022
3989.00,0.0022
3988.00,0.0023
3987.00,0.0023
3986.00,0.0023
3985.00,0.0023
3984.00,0.0023
3983.00,0.0023
3982.00,0.0023
3981.00,0.0023
3980.00,0.0023
3979.00,0.0023
3978.00,0.0022
3977.00,0.0022
3976.00,0.0022
3975.00,0.0022
3974.00,0.0022
3973.00,0.0022
3972.00,0.0022
3971.00,0.0022
3970.00,0.0022
3969.00,0.0022
3968.00,0.0022
3967.00,0.0022
3966.00,0.0022
3965.00,0.0022
3964.00,0.0022
3963.00,0.0022
3962.00,0.0022
3961.00,0.0022
3960.00,0.0022
3959.00,0.0022
3958.00,0.0022
3957.00,0.0022
3956.00,0.0022
3955.00,0.0022
3954.00,0.0022
3953.00,0.0022
3952.00,0.0022
3951.00,0.0022
3950.00,0.0022
3949.00,0.0023
3948.00,0.0023
3947.00,0.0023
3946.00,0.0023
3945.00,0.0023
3944.00,0.0023
3943.00,0.0023
3942.00,0.0023
3941.00,0.0022
3940.00,0.0022
3939.00,0.0022
3938.00,0.0022
3937.00,0.0023
3936.00,0.0023
3935.00,0.0023
3934.00,0.0022
3933.00,0.0022
3932.00,0.0022
3931.00,0.0022
3930.00,0.0022
3929.00,0.0022
3928.00,0.0022
3927.00,0.0023
3926.00,0.0023
3925.00,0.0023
3924.00,0.0023
3923.00,0.0023
3922.00,0.0023
3921.00,0.0023
3920.00,0.0023
3919.00,0.0022
3918.00,0.0022
3917.00,0.0022
3916.00,0.0022
3915.00,0.0022
3914.00,0.0022
3913.00,0.0022
3912.00,0.0022
3911.00,0.0023
3910.00,0.0023
3909.00,0.0023
3908.00,0.0023
3907.00,0.0024
3906.00,0.0024
3905.00,0.0024
3904.00,0.0024
3903.00,0.0024
3902.00,0.0024
3901.00,0.0024
3900.00,0.0024
3899.00,0.0023
3898.00,0.0023
3897.00,0.0023
3896.00,0.0023
3895.00,0.0023
3894.00,0.0023
3893.00,0.0023
3892.00,0.0023
3891.00,0.0023
3890.00,0.0023
3889.00,0.0024
3888.00,0.0024
3887.00,0.0024
3886.00,0.0024
3885.00,0.0024
3884.00,0.0024
3883.00,0.0024
3882.00,0.0024
3881.00,0.0024
3880.00,0.0023
3879.00,0.0023
3878.00,0.0023
3877.00,0.0023
3876.00,0.0023
3875.00,0.0023
3874.00,0.0024
3873.00,0.0024
3872.00,0.0024
3871.00,0.0024
3870.00,0.0024
3869.00,0.0024
3868.00,0.0024
3867.00,0.0024
3866.00,0.0024
3865.00,0.0024
3864.00,0.0024
3863.00,0.0024
3862.00,0.0024
3861.00,0.0023
3860.00,0.0023
3859.00,0.0023
3858.00,0.0024
3857.00,0.0024
3856.00,0.0025
3855.00,0.0026
3854.00,0.0026
3853.00,0.0026
3852.00,0.0026
3851.00,0.0026
3850.00,0.0026
3849.00,0.0025
3848.00,0.0025
3847.00,0.0024
3846.00,0.0024
3845.00,0.0024
3844.00,0.0024
3843.00,0.0024
3842.00,0.0024
3841.00,0.0025
3840.00,0.0025
3839.00,0.0025
3838.00,0.0025
3837.00,0.0025
3836.00,0.0025
3835.00,0.0025
3834.00,0.0025
3833.00,0.0024
3832.00,0.0024
3831.00,0.0024
3830.00,0.0024
3829.00,0.0024
3828.00,0.0023
3827.00,0.0023
3826.00,0.0023
3825.00,0.0024
3824.00,0.0024
3823.00,0.0024
3822.00,0.0024
3821.00,0.0025
3820.00,0.0025
3819.00,0.0025
3818.00,0.0025
3817.00,0.0025
3816.00,0.0025
3815.00,0.0025
3814.00,0.0024
3813.00,0.0024
3812.00,0.0023
3811.00,0.0024
3810.00,0.0024
3809.00,0.0024
3808.00,0.0024
3807.00,0.0024
3806.00,0.0024
3805.00,0.0024
3804.00,0.0024
3803.00,0.0025
3802.00,0.0025
3801.00,0.0025
3800.00,0.0025
3799.00,0.0025
3798.00,0.0025
3797.00,0.0024
3796.00,0.0024
3795.00,0.0024
3794.00,0.0023
3793.00,0.0023
3792.00,0.0023
3791.00,0.0023
3790.00,0.0023
3789.00,0.0023
3788.00,0.0023
3787.00,0.0023
3786.00,0.0023
3785.00,0.0023
3784.00,0.0023
3783.00,0.0023
3782.00,0.0024
3781.00,0.0024
3780.00,0.0024
3779.00,0.0024
3778.00,0.0024
3777.00,0.0023
3776.00,0.0023
3775.00,0.0023
3774.00,0.0023
3773.00,0.0023
3772.00,0.0023
3771.00,0.0023
3770.00,0.0023
3769.00,0.0023
3768.00,0.0023
3767.00,0.0023
3766.00,0.0023
3765.00,0.0024
3764.00,0.0024
3763.00,0.0024
3762.00,0.0024
3761.00,0.0024
3760.00,0.0025
3759.00,0.0025
3758.00,0.0025
3757.00,0.0025
3756.00,0.0025
3755.00,0.0025
3754.00,0.0026
3753.00,0.0026
3752.00,0.0026
3751.00,0.0027
3750.00,0.0027
3749.00,0.0027
3748.00,0.0027
3747.00,0.0027
3746.00,0.0027
3745.00,0.0026
3744.00,0.0026
3743.00,0.0026
3742.00,0.0025
3741.00,0.0025
3740.00,0.0025
3739.00,0.0025
3738.00,0.0025
3737.00,0.0026
3736.00,0.0026
3735.00,0.0026
3734.00,0.0026
3733.00,0.0026
3732.00,0.0026
3731.00,0.0026
3730.00,0.0025
3729.00,0.0025
3728.00,0.0025
3727.00,0.0024
3726.00,0.0024
3725.00,0.0024
3724.00,0.0024
3723.00,0.0024
3722.00,0.0024
3721.00,0.0024
3720.00,0.0024
3719.00,0.0024
3718.00,0.0024
3717.00,0.0024
3716.00,0.0024
3715.00,0.0024
3714.00,0.0024
3713.00,0.0025
3712.00,0.0025
3711.00,0.0025
3710.00,0.0025
3709.00,0.0025
3708.00,0.0024
3707.00,0.0024
3706.00,0.0023
3705.00,0.0023
3704.00,0.0023
3703.00,0.0023
3702.00,0.0023
3701.00,0.0023
3700.00,0.0023
3699.00,0.0023
3698.00,0.0023
3697.00,0.0023
3696.00,0.0023
3695.00,0.0023
3694.00,0.0024
3693.00,0.0024
3692.00,0.0024
3691.00,0.0025
3690.00,0.0025
3689.00,0.0025
3688.00,0.0026
3687.00,0.0027
3686.00,0.0027
3685.00,0.0027
3684.00,0.0026
3683.00,0.0026
3682.00,0.0026
3681.00,0.0027
3680.00,0.0027
3679.00,0.0028
3678.00,0.0028
3677.00,0.0029
3676.00,0.0029
3675.00,0.0029
3674.00,0.0029
3673.00,0.0029
3672.00,0.0029
3671.00,0.0029
3670.00,0.0029
3669.00,0.0029
3668.00,0.0029
3667.00,0.0028
3666.00,0.0028
3665.00,0.0028
3664.00,0.0028
3663.00,0.0028
3662.00,0.0028
3661.00,0.0028
3660.00,0.0029
3659.00,0.0029
3658.00,0.0030
3657.00,0.0030
3656.00,0.0030
3655.00,0.0031
3654.00,0.0031
3653.00,0.0032
3652.00,0.0033
3651.00,0.0034
3650.00,0.0034
3649.00,0.0035
3648.00,0.0035
3647.00,0.0036
3646.00,0.0036
3645.00,0.0035
3644.00,0.0035
3643.00,0.0034
3642.00,0.0034
3641.00,0.0034
3640.00,0.0035
3639.00,0.0035
3638.00,0.0036
3637.00,0.0036
3636.00,0.0036
3635.00,0.0036
3634.00,0.0037
3633.00,0.0038
3632.00,0.0039
3631.00,0.0040
3630.00,0.0040
3629.00,0.0040
3628.00,0.0041
3627.00,0.0041
3626.00,0.0042
3625.00,0.0042
3624.00,0.0042
3623.00,0.0043
3622.00,0.0043
3621.00,0.0043
3620.00,0.0044
3619.00,0.0044
3618.00,0.0045
3617.00,0.0045
3616.00,0.0046
3615.00,0.0047
3614.00,0.0047
3613.00,0.0048
3612.00,0.0048
3611.00,0.0049
3610.00,0.0049
3609.00,0.0049
3608.00,0.0050
3607.00,0.0050
3606.00,0.0050
3605.00,0.0051
3604.00,0.0051
3603.00,0.0052
3602.00,0.0052
3601.00,0.0053
3600.00,0.0053
3599.00,0.0054
3598.00,0.0055
3597.00,0.0056
3596.00,0.0056
3595.00,0.0057
3594.00,0.0057
3593.00,0.0058
3592.00,0.0059
3591.00,0.0059
3590.00,0.0060
3589.00,0.0060
3588.00,0.0061
3587.00,0.0061
3586.00,0.0062
3585.00,0.0063
3584.00,0.0064
3583.00,0.0064
3582.00,0.0065
3581.00,0.0066
3580.00,0.0066
3579.00,0.0067
3578.00,0.0067
3577.00,0.0068
3576.00,0.0069
3575.00,0.0070
3574.00,0.0071
3573.00,0.0071
3572.00,0.0072
3571.00,0.0073
3570.00,0.0074
3569.00,0.0075
3568.00,0.0076
3567.00,0.0077
3566.00,0.0078
3565.00,0.0079
3564.00,0.0079
3563.00,0.0080
3562.00,0.0080
3561.00,0.0081
3560.00,0.0081
3559.00,0.0082
3558.00,0.0083
3557.00,0.0083
3556.00,0.0084
3555.00,0.0085
3554.00,0.0085
3553.00,0.0086
3552.00,0.0087
3551.00,0.0088
3550.00,0.0088
3549.00,0.0089
3548.00,0.0090
3547.00,0.0090
3546.00,0.0091
3545.00,0.0092
3544.00,0.0092
3543.00,0.0093
3542.00,0.0093
3541.00,0.0094
3540.00,0.0094
3539.00,0.0095
3538.00,0.0095
3537.00,0.0096
3536.00,0.0096
3535.00,0.0097
3534.00,0.0098
3533.00,0.0098
3532.00,0.0099
3531.00,0.0099
3530.00,0.0100
3529.00,0.0100
3528.00,0.0101
3527.00,0.0101
3526.00,0.0102
3525.00,0.0103
3524.00,0.0103
3523.00,0.0104
3522.00,0.0104
3521.00,0.0104
3520.00,0.0105
3519.00,0.0105
3518.00,0.0105
3517.00,0.0106
3516.00,0.0106
3515.00,0.0107
3514.00,0.0107
3513.00,0.0108
3512.00,0.0108
3511.00,0.0108
3510.00,0.0108
3509.00,0.0108
3508.00,0.0109
3507.00,0.0110
3506.00,0.0110
3505.00,0.0111
3504.00,0.0111
3503.00,0.0112
3502.00,0.0112
3501.00,0.0113
3500.00,0.0113
3499.00,0.0113
3498.00,0.0114
3497.00,0.0114
3496.00,0.0114
3495.00,0.0115
3494.00,0.0115
3493.00,0.0115
3492.00,0.0115
3491.00,0.0116
3490.00,0.0116
3489.00,0.0116
3488.00,0.0116
3487.00,0.0117
3486.00,0.0117
3485.00,0.0117
3484.00,0.0118
3483.00,0.0118
3482.00,0.0118
3481.00,0.0119
3480.00,0.0119
3479.00,0.0119
3478.00,0.0119
3477.00,0.0120
3476.00,0.0120
3475.00,0.0121
3474.00,0.0121
3473.00,0.0122
3472.00,0.0122
3471.00,0.0122
3470.00,0.0123
3469.00,0.0123
3468.00,0.0123
3467.00,0.0123
3466.00,0.0123
3465.00,0.0124
3464.00,0.0124
3463.00,0.0124
3462.00,0.0124
3461.00,0.0125
3460.00,0.0125
3459.00,0.0125
3458.00,0.0125
3457.00,0.0125
3456.00,0.0126
3455.00,0.0126
3454.00,0.0126
3453.00,0.0126
3452.00,0.0126
3451.00,0.0126
3450.00,0.0126
3449.00,0.0127
3448.00,0.0127
3447.00,0.0127
3446.00,0.0127
3445.00,0.0127
3444.00,0.0127
3443.00,0.0127
3442.00,0.0127
3441.00,0.0127
3440.00,0.0127
3439.00,0.0127
3438.00,0.0128
3437.00,0.0128
3436.00,0.0128
3435.00,0.0128
3434.00,0.0128
3433.00,0.0128
3432.00,0.0128
3431.00,0.0128
3430.00,0.0128
3429.00,0.0128
3428.00,0.0128
3427.00,0.0128
3426.00,0.0128
3425.00,0.0128
3424.00,0.0127
3423.00,0.0127
3422.00,0.0127
3421.00,0.0127
3420.00,0.0128
3419.00,0.0128
3418.00,0.0128
3417.00,0.0128
3416.00,0.0128
3415.00,0.0127
3414.00,0.0127
3413.00,0.0127
3412.00,0.0127
3411.00,0.0127
3410.00,0.0127
3409.00,0.0126
3408.00,0.0126
3407.00,0.0126
3406.00,0.0126
3405.00,0.0126
3404.00,0.0126
3403.00,0.0126
3402.00,0.0126
3401.00,0.0126
3400.00,0.0125
3399.00,0.0125
3398.00,0.0125
3397.00,0.0125
3396.00,0.0125
3395.00,0.0125
3394.00,0.0125
3393.00,0.0125
3392.00,0.0125
3391.00,0.0124
3390.00,0.0124
3389.00,0.0124
3388.00,0.0124
3387.00,0.0124
3386.00,0.0124
3385.00,0.0124
3384.00,0.0124
3383.00,0.0124
3382.00,0.0123
3381.00,0.0123
3380.00,0.0123
3379.00,0.0123
3378.00,0.0123
3377.00,0.0122
3376.00,0.0122
3375.00,0.0122
3374.00,0.0122
3373.00,0.0121
3372.00,0.0121
3371.00,0.0120
3370.00,0.0119
3369.00,0.0119
3368.00,0.0119
3367.00,0.0119
3366.00,0.0119
3365.00,0.0120
3364.00,0.0120
3363.00,0.0120
3362.00,0.0120
3361.00,0.0120
3360.00,0.0120
3359.00,0.0120
3358.00,0.0120
3357.00,0.0120
3356.00,0.0120
3355.00,0.0120
3354.00,0.0119
3353.00,0.0118
3352.00,0.0118
3351.00,0.0117
3350.00,0.0117
3349.00,0.0117
3348.00,0.0118
3347.00,0.0118
3346.00,0.0118
3345.00,0.0117
3344.00,0.0117
3343.00,0.0116
3342.00,0.0116
3341.00,0.0115
3340.00,0.0115
3339.00,0.0114
3338.00,0.0114
3337.00,0.0114
3336.00,0.0115
3335.00,0.0116
3334.00,0.0116
3333.00,0.0116
3332.00,0.0116
3331.00,0.0116
3330.00,0.0116
3329.00,0.0116
3328.00,0.0115
3327.00,0.0114
3326.00,0.0114
3325.00,0.0114
3324.00,0.0114
3323.00,0.0114
3322.00,0.0115
3321.00,0.0115
3320.00,0.0114
3319.00,0.0114
3318.00,0.0114
3317.00,0.0114
3316.00,0.0114
3315.00,0.0114
3314.00,0.0114
3313.00,0.0113
3312.00,0.0113
3311.00,0.0112
3310.00,0.0110
3309.00,0.0109
3308.00,0.0108
3307.00,0.0107
3306.00,0.0107
3305.00,0.0108
3304.00,0.0110
3303.00,0.0111
3302.00,0.0112
3301.00,0.0113
3300.00,0.0112
3299.00,0.0112
3298.00,0.0111
3297.00,0.0110
3296.00,0.0110
3295.00,0.0110
3294.00,0.0109
3293.00,0.0109
3292.00,0.0109
3291.00,0.0109
3290.00,0.0110
3289.00,0.0111
3288.00,0.0111
3287.00,0.0111
3286.00,0.0111
3285.00,0.0110
3284.00,0.0110
3283.00,0.0110
3282.00,0.0110
3281.00,0.0110
3280.00,0.0110
3279.00,0.0110
3278.00,0.0109
3277.00,0.0109
3276.00,0.0108
3275.00,0.0108
3274.00,0.0107
3273.00,0.0106
3272.00,0.0106
3271.00,0.0105
3270.00,0.0105
3269.00,0.0106
3268.00,0.0106
3267.00,0.0106
3266.00,0.0107
3265.00,0.0106
3264.00,0.0106
3263.00,0.0106
3262.00,0.0106
3261.00,0.0106
3260.00,0.0106
3259.00,0.0105
3258.00,0.0105
3257.00,0.0105
3256.00,0.0104
3255.00,0.0104
3254.00,0.0104
3253.00,0.0104
3252.00,0.0104
3251.00,0.0104
3250.00,0.0103
3249.00,0.0103
3248.00,0.0102
3247.00,0.0102
3246.00,0.0102
3245.00,0.0102
3244.00,0.0102
3243.00,0.0101
3242.00,0.0101
3241.00,0.0101
3240.00,0.0101
3239.00,0.0101
3238.00,0.0101
3237.00,0.0101
3236.00,0.0100
3235.00,0.0099
3234.00,0.0099
3233.00,0.0099
3232.00,0.0099
3231.00,0.0099
3230.00,0.0099
3229.00,0.0099
3228.00,0.0099
3227.00,0.0099
3226.00,0.0098
3225.00,0.0098
3224.00,0.0098
3223.00,0.0098
3222.00,0.0097
3221.00,0.0097
3220.00,0.0097
3219.00,0.0096
3218.00,0.0096
3217.00,0.0096
3216.00,0.0096
3215.00,0.0096
3214.00,0.0095
3213.00,0.0095
3212.00,0.0095
3211.00,0.0094
3210.00,0.0094
3209.00,0.0093
3208.00,0.0093
3207.00,0.0093
3206.00,0.0093
3205.00,0.0092
3204.00,0.0092
3203.00,0.0092
3202.00,0.0092
3201.00,0.0091
3200.00,0.0091
3199.00,0.0091
3198.00,0.0091
3197.00,0.0091
3196.00,0.0090
3195.00,0.0090
3194.00,0.0090
3193.00,0.0090
3192.00,0.0090
3191.00,0.0090
3190.00,0.0090
3189.00,0.0089
3188.00,0.0089
3187.00,0.0089
3186.00,0.0089
3185.00,0.0088
3184.00,0.0088
3183.00,0.0088
3182.00,0.0088
3181.00,0.0088
3180.00,0.0088
3179.00,0.0088
3178.00,0.0088
3177.00,0.0088
3176.00,0.0088
3175.00,0.0088
3174.00,0.0087
3173.00,0.0087
3172.00,0.0087
3171.00,0.0087
3170.00,0.0087
3169.00,0.0086
3168.00,0.0086
3167.00,0.0086
3166.00,0.0086
3165.00,0.0085
3164.00,0.0085
3163.00,0.0085
3162.00,0.0085
3161.00,0.0084
3160.00,0.0084
3159.00,0.0084
3158.00,0.0083
3157.00,0.0083
3156.00,0.0083
3155.00,0.0083
3154.00,0.0082
3153.00,0.0082
3152.00,0.0082
3151.00,0.0082
3150.00,0.0082
3149.00,0.0082
3148.00,0.0081
3147.00,0.0081
3146.00,0.0081
3145.00,0.0081
3144.00,0.0081
3143.00,0.0081
3142.00,0.0080
3141.00,0.0080
3140.00,0.0080
3139.00,0.0080
3138.00,0.0079
3137.00,0.0079
3136.00,0.0079
3135.00,0.0079
3134.00,0.0079
3133.00,0.0079
3132.00,0.0079
3131.00,0.0079
3130.00,0.0079
3129.00,0.0079
3128.00,0.0079
3127.00,0.0078
3126.00,0.0078
3125.00,0.0078
3124.00,0.0078
3123.00,0.0078
3122.00,0.0078
3121.00,0.0077
3120.00,0.0077
3119.00,0.0077
3118.00,0.0077
3117.00,0.0076
3116.00,0.0076
3115.00,0.0076
3114.00,0.0076
3113.00,0.0076
3112.00,0.0076
3111.00,0.0076
3110.00,0.0075
3109.00,0.0075
3108.00,0.0075
3107.00,0.0075
3106.00,0.0075
3105.00,0.0075
3104.00,0.0075
3103.00,0.0075
3102.00,0.0075
3101.00,0.0074
3100.00,0.0074
3099.00,0.0073
3098.00,0.0073
3097.00,0.0073
3096.00,0.0073
3095.00,0.0073
3094.00,0.0073
3093.00,0.0073
3092.00,0.0073
3091.00,0.0073
3090.00,0.0073
3089.00,0.0074
3088.00,0.0073
3087.00,0.0073
3086.00,0.0073
3085.00,0.0073
3084.00,0.0073
3083.00,0.0073
3082.00,0.0073
3081.00,0.0073
3080.00,0.0073
3079.00,0.0073
3078.00,0.0073
3077.00,0.0073
3076.00,0.0073
3075.00,0.0073
3074.00,0.0073
3073.00,0.0073
3072.00,0.0073
3071.00,0.0072
3070.00,0.0072
3069.00,0.0072
3068.00,0.0071
3067.00,0.0071
3066.00,0.0071
3065.00,0.0071
3064.00,0.0071
3063.00,0.0071
3062.00,0.0070
3061.00,0.0070
3060.00,0.0070
3059.00,0.0070
3058.00,0.0070
3057.00,0.0070
3056.00,0.0070
3055.00,0.0069
3054.00,0.0069
3053.00,0.0069
3052.00,0.0069
3051.00,0.0069
3050.00,0.0069
3049.00,0.0069
3048.00,0.0069
3047.00,0.0068
3046.00,0.0068
3045.00,0.0068
3044.00,0.0068
3043.00,0.0068
3042.00,0.0068
3041.00,0.0068
3040.00,0.0068
3039.00,0.0068
3038.00,0.0068
3037.00,0.0068
3036.00,0.0068
3035.00,0.0068
3034.00,0.0068
3033.00,0.0068
3032.00,0.0067
3031.00,0.0067
3030.00,0.0067
3029.00,0.0067
3028.00,0.0067
3027.00,0.0067
3026.00,0.0067
3025.00,0.0067
3024.00,0.0067
3023.00,0.0067
3022.00,0.0067
3021.00,0.0067
3020.00,0.0067
3019.00,0.0067
3018.00,0.0067
3017.00,0.0067
3016.00,0.0068
3015.00,0.0068
3014.00,0.0069
3013.00,0.0069
3012.00,0.0070
3011.00,0.0071
3010.00,0.0072
3009.00,0.0073
3008.00,0.0074
3007.00,0.0075
3006.00,0.0076
3005.00,0.0078
3004.00,0.0079
3003.00,0.0081
3002.00,0.0082
3001.00,0.0084
3000.00,0.0086
2999.00,0.0088
2998.00,0.0091
2997.00,0.0093
2996.00,0.0096
2995.00,0.0099
2994.00,0.0102
2993.00,0.0105
2992.00,0.0108
2991.00,0.0111
2990.00,0.0115
2989.00,0.0118
2988.00,0.0121
2987.00,0.0124
2986.00,0.0127
2985.00,0.0130
2984.00,0.0132
2983.00,0.0134
2982.00,0.0135
2981.00,0.0137
2980.00,0.0140
2979.00,0.0143
2978.00,0.0145
2977.00,0.0148
2976.00,0.0150
2975.00,0.0152
2974.00,0.0154
2973.00,0.0155
2972.00,0.0157
2971.00,0.0159
2970.00,0.0160
2969.00,0.0162
2968.00,0.0164
2967.00,0.0166
2966.00,0.0168
2965.00,0.0171
2964.00,0.0173
2963.00,0.0175
2962.00,0.0176
2961.00,0.0178
2960.00,0.0179
2959.00,0.0181
2958.00,0.0182
2957.00,0.0183
2956.00,0.0185
2955.00,0.0186
2954.00,0.0186
2953.00,0.0187
2952.00,0.0187
2951.00,0.0187
2950.00,0.0187
2949.00,0.0186
2948.00,0.0186
2947.00,0.0186
2946.00,0.0185
2945.00,0.0185
2944.00,0.0186
2943.00,0.0186
2942.00,0.0186
2941.00,0.0186
2940.00,0.0187
2939.00,0.0187
2938.00,0.0188
2937.00,0.0189
2936.00,0.0190
2935.00,0.0191
2934.00,0.0191
2933.00,0.0192
2932.00,0.0193
2931.00,0.0194
2930.00,0.0195
2929.00,0.0196
2928.00,0.0197
2927.00,0.0197
2926.00,0.0198
2925.00,0.0198
2924.00,0.0197
2923.00,0.0196
2922.00,0.0194
2921.00,0.0193
2920.00,0.0190
2919.00,0.0187
2918.00,0.0184
2917.00,0.0181
2916.00,0.0178
2915.00,0.0176
2914.00,0.0174
2913.00,0.0172
2912.00,0.0170
2911.00,0.0168
2910.00,0.0166
2909.00,0.0164
2908.00,0.0162
2907.00,0.0160
2906.00,0.0158
2905.00,0.0157
2904.00,0.0155
2903.00,0.0154
2902.00,0.0153
2901.00,0.0153
2900.00,0.0152
2899.00,0.0152
2898.00,0.0151
2897.00,0.0151
2896.00,0.0151
2895.00,0.0151
2894.00,0.0151
2893.00,0.0151
2892.00,0.0151
2891.00,0.0151
2890.00,0.0151
2889.00,0.0151
2888.00,0.0151
2887.00,0.0151
2886.00,0.0151
2885.00,0.0151
2884.00,0.0151
2883.00,0.0151
2882.00,0.0151
2881.00,0.0151
2880.00,0.0152
2879.00,0.0152
2878.00,0.0153
2877.00,0.0153
2876.00,0.0154
2875.00,0.0154
2874.00,0.0154
2873.00,0.0155
2872.00,0.0155
2871.00,0.0156
2870.00,0.0156
2869.00,0.0155
2868.00,0.0155
2867.00,0.0154
2866.00,0.0154
2865.00,0.0153
2864.00,0.0153
2863.00,0.0152
2862.00,0.0152
2861.00,0.0151
2860.00,0.0150
2859.00,0.0150
2858.00,0.0149
2857.00,0.0148
2856.00,0.0146
2855.00,0.0144
2854.00,0.0141
2853.00,0.0138
2852.00,0.0134
2851.00,0.0130
2850.00,0.0126
2849.00,0.0122
2848.00,0.0118
2847.00,0.0116
2846.00,0.0113
2845.00,0.0111
2844.00,0.0109
2843.00,0.0106
2842.00,0.0103
2841.00,0.0100
2840.00,0.0098
2839.00,0.0095
2838.00,0.0093
2837.00,0.0092
2836.00,0.0090
2835.00,0.0089
2834.00,0.0087
2833.00,0.0085
2832.00,0.0084
2831.00,0.0082
2830.00,0.0081
2829.00,0.0080
2828.00,0.0078
2827.00,0.0077
2826.00,0.0075
2825.00,0.0074
2824.00,0.0072
2823.00,0.0071
2822.00,0.0070
2821.00,0.0069
2820.00,0.0068
2819.00,0.0067
2818.00,0.0066
2817.00,0.0065
2816.00,0.0065
2815.00,0.0064
2814.00,0.0063
2813.00,0.0063
2812.00,0.0062
2811.00,0.0062
2810.00,0.0061
2809.00,0.0061
2808.00,0.0060
2807.00,0.0060
2806.00,0.0059
2805.00,0.0059
2804.00,0.0059
2803.00,0.0058
2802.00,0.0058
2801.00,0.0058
2800.00,0.0057
2799.00,0.0057
2798.00,0.0056
2797.00,0.0056
2796.00,0.0056
2795.00,0.0056
2794.00,0.0055
2793.00,0.0055
2792.00,0.0055
2791.00,0.0054
2790.00,0.0054
2789.00,0.0054
2788.00,0.0054
2787.00,0.0054
2786.00,0.0054
2785.00,0.0053
2784.00,0.0053
2783.00,0.0053
2782.00,0.0052
2781.00,0.0052
2780.00,0.0052
2779.00,0.0052
2778.00,0.0052
2777.00,0.0052
2776.00,0.0052
2775.00,0.0051
2774.00,0.0051
2773.00,0.0051
2772.00,0.0051
2771.00,0.0051
2770.00,0.0050
2769.00,0.0050
2768.00,0.0050
2767.00,0.0050
2766.00,0.0050
2765.00,0.0050
2764.00,0.0050
2763.00,0.0050
2762.00,0.0050
2761.00,0.0050
2760.00,0.0050
2759.00,0.0050
2758.00,0.0050
2757.00,0.0050
2756.00,0.0050
2755.00,0.0050
2754.00,0.0050
2753.00,0.0050
2752.00,0.0050
2751.00,0.0050
2750.00,0.0050
2749.00,0.0050
2748.00,0.0050
2747.00,0.0050
2746.00,0.0050
2745.00,0.0050
2744.00,0.0050
2743.00,0.0050
2742.00,0.0050
2741.00,0.0051
2740.00,0.0051
2739.00,0.0050
2738.00,0.0050
2737.00,0.0050
2736.00,0.0050
2735.00,0.0050
2734.00,0.0050
2733.00,0.0050
2732.00,0.0050
2731.00,0.0050
2730.00,0.0050
2729.00,0.0050
2728.00,0.0050
2727.00,0.0050
2726.00,0.0049
2725.00,0.0049
2724.00,0.0049
2723.00,0.0049
2722.00,0.0049
2721.00,0.0049
2720.00,0.0049
2719.00,0.0049
2718.00,0.0049
2717.00,0.0049
2716.00,0.0048
2715.00,0.0048
2714.00,0.0048
2713.00,0.0048
2712.00,0.0048
2711.00,0.0048
2710.00,0.0048
2709.00,0.0048
2708.00,0.0047
2707.00,0.0047
2706.00,0.0047
2705.00,0.0047
2704.00,0.0047
2703.00,0.0047
2702.00,0.0047
2701.00,0.0047
2700.00,0.0047
2699.00,0.0047
2698.00,0.0046
2697.00,0.0046
2696.00,0.0046
2695.00,0.0046
2694.00,0.0046
2693.00,0.0046
2692.00,0.0046
2691.00,0.0045
2690.00,0.0045
2689.00,0.0045
2688.00,0.0045
2687.00,0.0045
2686.00,0.0045
2685.00,0.0045
2684.00,0.0044
2683.00,0.0044
2682.00,0.0044
2681.00,0.0044
2680.00,0.0044
2679.00,0.0044
2678.00,0.0044
2677.00,0.0044
2676.00,0.0044
2675.00,0.0044
2674.00,0.0044
2673.00,0.0044
2672.00,0.0044
2671.00,0.0044
2670.00,0.0044
2669.00,0.0044
2668.00,0.0044
2667.00,0.0045
2666.00,0.0045
2665.00,0.0045
2664.00,0.0046
2663.00,0.0046
2662.00,0.0046
2661.00,0.0047
2660.00,0.0047
2659.00,0.0047
2658.00,0.0047
2657.00,0.0047
2656.00,0.0047
2655.00,0.0047
2654.00,0.0047
2653.00,0.0047
2652.00,0.0047
2651.00,0.0047
2650.00,0.0047
2649.00,0.0047
2648.00,0.0047
2647.00,0.0047
2646.00,0.0047
2645.00,0.0047
2644.00,0.0047
2643.00,0.0047
2642.00,0.0047
2641.00,0.0047
2640.00,0.0047
2639.00,0.0047
2638.00,0.0047
2637.00,0.0047
2636.00,0.0046
2635.00,0.0046
2634.00,0.0046
2633.00,0.0046
2632.00,0.0046
2631.00,0.0046
2630.00,0.0045
2629.00,0.0045
2628.00,0.0045
2627.00,0.0045
2626.00,0.0045
2625.00,0.0045
2624.00,0.0045
2623.00,0.0045
2622.00,0.0044
2621.00,0.0044
2620.00,0.0044
2619.00,0.0044
2618.00,0.0044
2617.00,0.0044
2616.00,0.0044
2615.00,0.0043
2614.00,0.0043
2613.00,0.0043
2612.00,0.0043
2611.00,0.0043
2610.00,0.0043
2609.00,0.0043
2608.00,0.0043
2607.00,0.0043
2606.00,0.0043
2605.00,0.0042
2604.00,0.0042
2603.00,0.0042
2602.00,0.0043
2601.00,0.0043
2600.00,0.0042
2599.00,0.0042
2598.00,0.0042
2597.00,0.0042
2596.00,0.0042
2595.00,0.0042
2594.00,0.0042
2593.00,0.0042
2592.00,0.0042
2591.00,0.0042
2590.00,0.0042
2589.00,0.0042
2588.00,0.0042
2587.00,0.0042
2586.00,0.0042
2585.00,0.0042
2584.00,0.0042
2583.00,0.0042
2582.00,0.0042
2581.00,0.0042
2580.00,0.0042
2579.00,0.0042
2578.00,0.0042
2577.00,0.0042
2576.00,0.0042
2575.00,0.0042
2574.00,0.0041
2573.00,0.0041
2572.00,0.0041
2571.00,0.0041
2570.00,0.0041
2569.00,0.0041
2568.00,0.0040
2567.00,0.0040
2566.00,0.0040
2565.00,0.0040
2564.00,0.0040
2563.00,0.0039
2562.00,0.0039
2561.00,0.0039
2560.00,0.0039
2559.00,0.0039
2558.00,0.0039
2557.00,0.0039
2556.00,0.0039
2555.00,0.0038
2554.00,0.0038
2553.00,0.0038
2552.00,0.0038
2551.00,0.0038
2550.00,0.0038
2549.00,0.0037
2548.00,0.0037
2547.00,0.0037
2546.00,0.0037
2545.00,0.0037
2544.00,0.0037
2543.00,0.0037
2542.00,0.0037
2541.00,0.0037
2540.00,0.0036
2539.00,0.0036
2538.00,0.0036
2537.00,0.0035
2536.00,0.0035
2535.00,0.0035
2534.00,0.0035
2533.00,0.0035
2532.00,0.0035
2531.00,0.0035
2530.00,0.0035
2529.00,0.0035
2528.00,0.0035
2527.00,0.0034
2526.00,0.0034
2525.00,0.0034
2524.00,0.0034
2523.00,0.0034
2522.00,0.0034
2521.00,0.0033
2520.00,0.0033
2519.00,0.0033
2518.00,0.0032
2517.00,0.0032
2516.00,0.0032
2515.00,0.0032
2514.00,0.0032
2513.00,0.0032
2512.00,0.0032
2511.00,0.0032
2510.00,0.0032
2509.00,0.0032
2508.00,0.0032
2507.00,0.0032
2506.00,0.0032
2505.00,0.0032
2504.00,0.0032
2503.00,0.0032
2502.00,0.0031
2501.00,0.0031
2500.00,0.0031
2499.00,0.0031
2498.00,0.0031
2497.00,0.0031
2496.00,0.0031
2495.00,0.0031
2494.00,0.0031
2493.00,0.0031
2492.00,0.0031
2491.00,0.0031
2490.00,0.0031
2489.00,0.0031
2488.00,0.0031
2487.00,0.0031
2486.00,0.0031
2485.00,0.0031
2484.00,0.0031
2483.00,0.0031
2482.00,0.0031
2481.00,0.0031
2480.00,0.0031
2479.00,0.0031
2478.00,0.0030
2477.00,0.0030
2476.00,0.0030
2475.00,0.0030
2474.00,0.0031
2473.00,0.0031
2472.00,0.0031
2471.00,0.0031
2470.00,0.0031
2469.00,0.0031
2468.00,0.0031
2467.00,0.0031
2466.00,0.0031
2465.00,0.0031
2464.00,0.0031
2463.00,0.0031
2462.00,0.0031
2461.00,0.0031
2460.00,0.0032
2459.00,0.0032
2458.00,0.0032
2457.00,0.0032
2456.00,0.0032
2455.00,0.0032
2454.00,0.0032
2453.00,0.0032
2452.00,0.0032
2451.00,0.0032
2450.00,0.0031
2449.00,0.0031
2448.00,0.0031
2447.00,0.0030
2446.00,0.0031
2445.00,0.0031
2444.00,0.0031
2443.00,0.0031
2442.00,0.0031
2441.00,0.0031
2440.00,0.0030
2439.00,0.0030
2438.00,0.0030
2437.00,0.0030
2436.00,0.0030
2435.00,0.0030
2434.00,0.0030
2433.00,0.0030
2432.00,0.0030
2431.00,0.0030
2430.00,0.0030
2429.00,0.0030
2428.00,0.0030
2427.00,0.0030
2426.00,0.0030
2425.00,0.0030
2424.00,0.0030
2423.00,0.0030
2422.00,0.0030
2421.00,0.0030
2420.00,0.0030
2419.00,0.0030
2418.00,0.0029
2417.00,0.0029
2416.00,0.0029
2415.00,0.0029
2414.00,0.0029
2413.00,0.0029
2412.00,0.0029
2411.00,0.0029
2410.00,0.0029
2409.00,0.0029
2408.00,0.0028
2407.00,0.0028
2406.00,0.0027
2405.00,0.0027
2404.00,0.0027
2403.00,0.0027
2402.00,0.0027
2401.00,0.0027
2400.00,0.0027
2399.00,0.0027
2398.00,0.0027
2397.00,0.0027
2396.00,0.0027
2395.00,0.0027
2394.00,0.0027
2393.00,0.0027
2392.00,0.0027
2391.00,0.0027
2390.00,0.0027
2389.00,0.0026
2388.00,0.0026
2387.00,0.0026
2386.00,0.0026
2385.00,0.0025
2384.00,0.0025
2383.00,0.0025
2382.00,0.0025
2381.00,0.0025
2380.00,0.0025
2379.00,0.0025
2378.00,0.0026
2377.00,0.0026
2376.00,0.0026
2375.00,0.0026
2374.00,0.0026
2373.00,0.0026
2372.00,0.0025
2371.00,0.0024
2370.00,0.0024
2369.00,0.0023
2368.00,0.0023
2367.00,0.0023
2366.00,0.0024
2365.00,0.0024
2364.00,0.0025
2363.00,0.0026
2362.00,0.0027
2361.00,0.0027
2360.00,0.0027
2359.00,0.0027
2358.00,0.0027
2357.00,0.0027
2356.00,0.0026
2355.00,0.0026
2354.00,0.0026
2353.00,0.0026
2352.00,0.0026
2351.00,0.0025
2350.00,0.0025
2349.00,0.0027
2348.00,0.0029
2347.00,0.0032
2346.00,0.0034
2345.00,0.0034
2344.00,0.0033
2343.00,0.0031
2342.00,0.0031
2341.00,0.0030
2340.00,0.0030
2339.00,0.0029
2338.00,0.0028
2337.00,0.0028
2336.00,0.0028
2335.00,0.0028
2334.00,0.0028
2333.00,0.0028
2332.00,0.0028
2331.00,0.0028
2330.00,0.0028
2329.00,0.0030
2328.00,0.0033
2327.00,0.0037
2326.00,0.0040
2325.00,0.0042
2324.00,0.0041
2323.00,0.0039
2322.00,0.0037
2321.00,0.0035
2320.00,0.0034
2319.00,0.0033
2318.00,0.0032
2317.00,0.0032
2316.00,0.0032
2315.00,0.0032
2314.00,0.0032
2313.00,0.0032
2312.00,0.0032
2311.00,0.0031
2310.00,0.0031
2309.00,0.0031
2308.00,0.0031
2307.00,0.0032
2306.00,0.0032
2305.00,0.0032
2304.00,0.0032
2303.00,0.0032
2302.00,0.0032
2301.00,0.0032
2300.00,0.0033
2299.00,0.0034
2298.00,0.0034
2297.00,0.0035
2296.00,0.0036
2295.00,0.0036
2294.00,0.0037
2293.00,0.0037
2292.00,0.0038
2291.00,0.0039
2290.00,0.0040
2289.00,0.0041
2288.00,0.0041
2287.00,0.0041
2286.00,0.0041
2285.00,0.0040
2284.00,0.0040
2283.00,0.0039
2282.00,0.0039
2281.00,0.0038
2280.00,0.0038
2279.00,0.0037
2278.00,0.0037
2277.00,0.0036
2276.00,0.0036
2275.00,0.0036
2274.00,0.0035
2273.00,0.0035
2272.00,0.0034
2271.00,0.0034
2270.00,0.0033
2269.00,0.0033
2268.00,0.0033
2267.00,0.0033
2266.00,0.0032
2265.00,0.0032
2264.00,0.0032
2263.00,0.0033
2262.00,0.0034
2261.00,0.0034
2260.00,0.0034
2259.00,0.0034
2258.00,0.0033
2257.00,0.0033
2256.00,0.0032
2255.00,0.0031
2254.00,0.0031
2253.00,0.0031
2252.00,0.0031
2251.00,0.0031
2250.00,0.0031
2249.00,0.0031
2248.00,0.0031
2247.00,0.0031
2246.00,0.0031
2245.00,0.0031
2244.00,0.0031
2243.00,0.0031
2242.00,0.0031
2241.00,0.0032
2240.00,0.0032
2239.00,0.0032
2238.00,0.0032
2237.00,0.0032
2236.00,0.0033
2235.00,0.0033
2234.00,0.0033
2233.00,0.0033
2232.00,0.0033
2231.00,0.0032
2230.00,0.0032
2229.00,0.0031
2228.00,0.0031
2227.00,0.0030
2226.00,0.0030
2225.00,0.0030
2224.00,0.0031
2223.00,0.0032
2222.00,0.0033
2221.00,0.0034
2220.00,0.0034
2219.00,0.0034
2218.00,0.0033
2217.00,0.0031
2216.00,0.0031
2215.00,0.0030
2214.00,0.0031
2213.00,0.0031
2212.00,0.0032
2211.00,0.0032
2210.00,0.0032
2209.00,0.0032
2208.00,0.0031
2207.00,0.0030
2206.00,0.0029
2205.00,0.0029
2204.00,0.0030
2203.00,0.0030
2202.00,0.0030
2201.00,0.0030
2200.00,0.0030
2199.00,0.0030
2198.00,0.0031
2197.00,0.0031
2196.00,0.0032
2195.00,0.0033
2194.00,0.0033
2193.00,0.0034
2192.00,0.0035
2191.00,0.0037
2190.00,0.0038
2189.00,0.0038
2188.00,0.0039
2187.00,0.0039
2186.00,0.0038
2185.00,0.0036
2184.00,0.0034
2183.00,0.0031
2182.00,0.0028
2181.00,0.0028
2180.00,0.0029
2179.00,0.0030
2178.00,0.0030
2177.00,0.0029
2176.00,0.0028
2175.00,0.0027
2174.00,0.0028
2173.00,0.0029
2172.00,0.0032
2171.00,0.0034
2170.00,0.0036
2169.00,0.0038
2168.00,0.0039
2167.00,0.0040
2166.00,0.0040
2165.00,0.0042
2164.00,0.0045
2163.00,0.0045
2162.00,0.0039
2161.00,0.0027
2160.00,0.0012
2159.00,0.0001
2158.00,-0.0003
2157.00,-0.0001
2156.00,0.0003
2155.00,0.0006
2154.00,0.0009
2153.00,0.0011
2152.00,0.0013
2151.00,0.0014
2150.00,0.0015
2149.00,0.0015
2148.00,0.0016
2147.00,0.0016
2146.00,0.0015
2145.00,0.0014
2144.00,0.0014
2143.00,0.0014
2142.00,0.0014
2141.00,0.0015
2140.00,0.0015
2139.00,0.0014
2138.00,0.0013
2137.00,0.0011
2136.00,0.0009
2135.00,0.0008
2134.00,0.0008
2133.00,0.0010
2132.00,0.0012
2131.00,0.0014
2130.00,0.0015
2129.00,0.0017
2128.00,0.0018
2127.00,0.0019
2126.00,0.0019
2125.00,0.0020
2124.00,0.0020
2123.00,0.0021
2122.00,0.0022
2121.00,0.0023
2120.00,0.0024
2119.00,0.0025
2118.00,0.0026
2117.00,0.0027
2116.00,0.0028
2115.00,0.0029
2114.00,0.0029
2113.00,0.0030
2112.00,0.0030
2111.00,0.0029
2110.00,0.0028
2109.00,0.0028
2108.00,0.0027
2107.00,0.0027
2106.00,0.0027
2105.00,0.0028
2104.00,0.0028
2103.00,0.0029
2102.00,0.0029
2101.00,0.0028
2100.00,0.0027
2099.00,0.0026
2098.00,0.0025
2097.00,0.0023
2096.00,0.0023
2095.00,0.0023
2094.00,0.0024
2093.00,0.0025
2092.00,0.0026
2091.00,0.0027
2090.00,0.0027
2089.00,0.0027
2088.00,0.0027
2087.00,0.0027
2086.00,0.0027
2085.00,0.0027
2084.00,0.0028
2083.00,0.0028
2082.00,0.0028
2081.00,0.0028
2080.00,0.0029
2079.00,0.0030
2078.00,0.0030
2077.00,0.0030
2076.00,0.0029
2075.00,0.0029
2074.00,0.0029
2073.00,0.0029
2072.00,0.0029
2071.00,0.0029
2070.00,0.0029
2069.00,0.0029
2068.00,0.0029
2067.00,0.0029
2066.00,0.0028
2065.00,0.0028
2064.00,0.0028
2063.00,0.0029
2062.00,0.0029
2061.00,0.0029
2060.00,0.0029
2059.00,0.0029
2058.00,0.0029
2057.00,0.0029
2056.00,0.0029
2055.00,0.0030
2054.00,0.0031
2053.00,0.0034
2052.00,0.0037
2051.00,0.0038
2050.00,0.0037
2049.00,0.0034
2048.00,0.0031
2047.00,0.0029
2046.00,0.0027
2045.00,0.0027
2044.00,0.0027
2043.00,0.0028
2042.00,0.0028
2041.00,0.0029
2040.00,0.0029
2039.00,0.0030
2038.00,0.0030
2037.00,0.0028
2036.00,0.0027
2035.00,0.0024
2034.00,0.0022
2033.00,0.0021
2032.00,0.0021
2031.00,0.0022
2030.00,0.0022
2029.00,0.0022
2028.00,0.0022
2027.00,0.0022
2026.00,0.0020
2025.00,0.0018
2024.00,0.0016
2023.00,0.0015
2022.00,0.0015
2021.00,0.0016
2020.00,0.0019
2019.00,0.0020
2018.00,0.0020
2017.00,0.0019
2016.00,0.0019
2015.00,0.0018
2014.00,0.0018
2013.00,0.0017
2012.00,0.0017
2011.00,0.0017
2010.00,0.0016
2009.00,0.0017
2008.00,0.0017
2007.00,0.0016
2006.00,0.0015
2005.00,0.0015
2004.00,0.0015
2003.00,0.0016
2002.00,0.0017
2001.00,0.0019
2000.00,0.0021
1999.00,0.0022
1998.00,0.0023
1997.00,0.0023
1996.00,0.0023
1995.00,0.0024
1994.00,0.0025
1993.00,0.0026
1992.00,0.0026
1991.00,0.0026
1990.00,0.0025
1989.00,0.0024
1988.00,0.0025
1987.00,0.0026
1986.00,0.0027
1985.00,0.0029
1984.00,0.0032
1983.00,0.0034
1982.00,0.0034
1981.00,0.0033
1980.00,0.0030
1979.00,0.0024
1978.00,0.0018
1977.00,0.0014
1976.00,0.0013
1975.00,0.0014
1974.00,0.0014
1973.00,0.0015
1972.00,0.0015
1971.00,0.0014
1970.00,0.0012
1969.00,0.0010
1968.00,0.0010
1967.00,0.0010
1966.00,0.0010
1965.00,0.0010
1964.00,0.0011
1963.00,0.0011
1962.00,0.0011
1961.00,0.0010
1960.00,0.0011
1959.00,0.0012
1958.00,0.0012
1957.00,0.0013
1956.00,0.0013
1955.00,0.0013
1954.00,0.0014
1953.00,0.0015
1952.00,0.0016
1951.00,0.0018
1950.00,0.0018
1949.00,0.0017
1948.00,0.0016
1947.00,0.0016
1946.00,0.0016
1945.00,0.0016
1944.00,0.0016
1943.00,0.0016
1942.00,0.0016
1941.00,0.0015
1940.00,0.0016
1939.00,0.0016
1938.00,0.0016
1937.00,0.0016
1936.00,0.0017
1935.00,0.0017
1934.00,0.0017
1933.00,0.0016
1932.00,0.0017
1931.00,0.0017
1930.00,0.0017
1929.00,0.0018
1928.00,0.0018
1927.00,0.0018
1926.00,0.0018
1925.00,0.0018
1924.00,0.0018
1923.00,0.0019
1922.00,0.0019
1921.00,0.0020
1920.00,0.0020
1919.00,0.0021
1918.00,0.0021
1917.00,0.0021
1916.00,0.0022
1915.00,0.0023
1914.00,0.0023
1913.00,0.0022
1912.00,0.0022
1911.00,0.0022
1910.00,0.0021
1909.00,0.0021
1908.00,0.0021
1907.00,0.0021
1906.00,0.0020
1905.00,0.0019
1904.00,0.0019
1903.00,0.0020
1902.00,0.0020
1901.00,0.0021
1900.00,0.0022
1899.00,0.0021
1898.00,0.0021
1897.00,0.0021
1896.00,0.0021
1895.00,0.0021
1894.00,0.0021
1893.00,0.0021
1892.00,0.0021
1891.00,0.0021
1890.00,0.0021
1889.00,0.0020
1888.00,0.0021
1887.00,0.0021
1886.00,0.0021
1885.00,0.0021
1884.00,0.0022
1883.00,0.0022
1882.00,0.0022
1881.00,0.0022
1880.00,0.0022
1879.00,0.0022
1878.00,0.0022
1877.00,0.0022
1876.00,0.0022
1875.00,0.0022
1874.00,0.0021
1873.00,0.0021
1872.00,0.0021
1871.00,0.0021
1870.00,0.0021
1869.00,0.0022
1868.00,0.0022
1867.00,0.0022
1866.00,0.0022
1865.00,0.0022
1864.00,0.0023
1863.00,0.0023
1862.00,0.0023
1861.00,0.0023
1860.00,0.0023
1859.00,0.0023
1858.00,0.0022
1857.00,0.0022
1856.00,0.0022
1855.00,0.0023
1854.00,0.0023
1853.00,0.0023
1852.00,0.0023
1851.00,0.0023
1850.00,0.0022
1849.00,0.0022
1848.00,0.0022
1847.00,0.0022
1846.00,0.0022
1845.00,0.0023
1844.00,0.0023
1843.00,0.0023
1842.00,0.0023
1841.00,0.0023
1840.00,0.0023
1839.00,0.0023
1838.00,0.0022
1837.00,0.0022
1836.00,0.0023
1835.00,0.0023
1834.00,0.0023
1833.00,0.0024
1832.00,0.0024
1831.00,0.0024
1830.00,0.0024
1829.00,0.0023
1828.00,0.0024
1827.00,0.0024
1826.00,0.0023
1825.00,0.0023
1824.00,0.0023
1823.00,0.0023
1822.00,0.0023
1821.00,0.0023
1820.00,0.0022
1819.00,0.0021
1818.00,0.0020
1817.00,0.0020
1816.00,0.0020
1815.00,0.0021
1814.00,0.0022
1813.00,0.0023
1812.00,0.0023
1811.00,0.0023
1810.00,0.0023
1809.00,0.0023
1808.00,0.0023
1807.00,0.0024
1806.00,0.0024
1805.00,0.0024
1804.00,0.0024
1803.00,0.0023
1802.00,0.0023
1801.00,0.0023
1800.00,0.0023
1799.00,0.0024
1798.00,0.0024
1797.00,0.0024
1796.00,0.0024
1795.00,0.0024
1794.00,0.0025
1793.00,0.0025
1792.00,0.0026
1791.00,0.0026
1790.00,0.0026
1789.00,0.0026
1788.00,0.0026
1787.00,0.0026
1786.00,0.0026
1785.00,0.0026
1784.00,0.0026
1783.00,0.0026
1782.00,0.0026
1781.00,0.0026
1780.00,0.0025
1779.00,0.0026
1778.00,0.0026
1777.00,0.0026
1776.00,0.0026
1775.00,0.0027
1774.00,0.0027
1773.00,0.0027
1772.00,0.0028
1771.00,0.0029
1770.00,0.0029
1769.00,0.0029
1768.00,0.0028
1767.00,0.0028
1766.00,0.0028
1765.00,0.0029
1764.00,0.0029
1763.00,0.0030
1762.00,0.0029
1761.00,0.0029
1760.00,0.0030
1759.00,0.0030
1758.00,0.0030
1757.00,0.0030
1756.00,0.0030
1755.00,0.0031
1754.00,0.0032
1753.00,0.0032
1752.00,0.0032
1751.00,0.0032
1750.00,0.0032
1749.00,0.0032
1748.00,0.0032
1747.00,0.0033
1746.00,0.0033
1745.00,0.0033
1744.00,0.0033
1743.00,0.0034
1742.00,0.0035
1741.00,0.0036
1740.00,0.0037
1739.00,0.0037
1738.00,0.0037
1737.00,0.0038
1736.00,0.0038
1735.00,0.0039
1734.00,0.0039
1733.00,0.0040
1732.00,0.0041
1731.00,0.0042
1730.00,0.0042
1729.00,0.0042
1728.00,0.0043
1727.00,0.0044
1726.00,0.0045
1725.00,0.0046
1724.00,0.0047
1723.00,0.0049
1722.00,0.0050
1721.00,0.0051
1720.00,0.0053
1719.00,0.0055
1718.00,0.0056
1717.00,0.0058
1716.00,0.0061
1715.00,0.0064
1714.00,0.0066
1713.00,0.0069
1712.00,0.0072
1711.00,0.0076
1710.00,0.0080
1709.00,0.0085
1708.00,0.0091
1707.00,0.0097
1706.00,0.0105
1705.00,0.0114
1704.00,0.0124
1703.00,0.0134
1702.00,0.0145
1701.00,0.0161
1700.00,0.0184
1699.00,0.0205
1698.00,0.0222
1697.00,0.0240
1696.00,0.0266
1695.00,0.0295
1694.00,0.0322
1693.00,0.0345
1692.00,0.0369
1691.00,0.0394
1690.00,0.0423
1689.00,0.0452
1688.00,0.0479
1687.00,0.0504
1686.00,0.0528
1685.00,0.0559
1684.00,0.0596
1683.00,0.0629
1682.00,0.0653
1681.00,0.0672
1680.00,0.0691
1679.00,0.0709
1678.00,0.0726
1677.00,0.0743
1676.00,0.0760
1675.00,0.0779
1674.00,0.0796
1673.00,0.0809
1672.00,0.0820
1671.00,0.0830
1670.00,0.0842
1669.00,0.0855
1668.00,0.0869
1667.00,0.0880
1666.00,0.0889
1665.00,0.0897
1664.00,0.0905
1663.00,0.0915
1662.00,0.0926
1661.00,0.0935
1660.00,0.0943
1659.00,0.0949
1658.00,0.0953
1657.00,0.0957
1656.00,0.0959
1655.00,0.0958
1654.00,0.0954
1653.00,0.0950
1652.00,0.0949
1651.00,0.0946
1650.00,0.0939
1649.00,0.0926
1648.00,0.0909
1647.00,0.0888
1646.00,0.0867
1645.00,0.0848
1644.00,0.0828
1643.00,0.0807
1642.00,0.0783
1641.00,0.0758
1640.00,0.0734
1639.00,0.0711
1638.00,0.0687
1637.00,0.0659
1636.00,0.0628
1635.00,0.0598
1634.00,0.0574
1633.00,0.0553
1632.00,0.0533
1631.00,0.0513
1630.00,0.0494
1629.00,0.0477
1628.00,0.0462
1627.00,0.0451
1626.00,0.0443
1625.00,0.0438
1624.00,0.0436
1623.00,0.0436
1622.00,0.0437
1621.00,0.0439
1620.00,0.0438
1619.00,0.0436
1618.00,0.0431
1617.00,0.0423
1616.00,0.0413
1615.00,0.0404
1614.00,0.0394
1613.00,0.0385
1612.00,0.0375
1611.00,0.0367
1610.00,0.0358
1609.00,0.0348
1608.00,0.0337
1607.00,0.0324
1606.00,0.0310
1605.00,0.0295
1604.00,0.0280
1603.00,0.0265
1602.00,0.0251
1601.00,0.0239
1600.00,0.0227
1599.00,0.0218
1598.00,0.0211
1597.00,0.0206
1596.00,0.0202
1595.00,0.0200
1594.00,0.0202
1593.00,0.0205
1592.00,0.0211
1591.00,0.0220
1590.00,0.0230
1589.00,0.0240
1588.00,0.0250
1587.00,0.0257
1586.00,0.0262
1585.00,0.0262
1584.00,0.0258
1583.00,0.0251
1582.00,0.0242
1581.00,0.0231
1580.00,0.0221
1579.00,0.0212
1578.00,0.0203
1577.00,0.0194
1576.00,0.0186
1575.00,0.0179
1574.00,0.0174
1573.00,0.0169
1572.00,0.0164
1571.00,0.0159
1570.00,0.0155
1569.00,0.0151
1568.00,0.0147
1567.00,0.0144
1566.00,0.0141
1565.00,0.0137
1564.00,0.0134
1563.00,0.0131
1562.00,0.0130
1561.00,0.0128
1560.00,0.0125
1559.00,0.0122
1558.00,0.0121
1557.00,0.0120
1556.00,0.0117
1555.00,0.0114
1554.00,0.0112
1553.00,0.0110
1552.00,0.0108
1551.00,0.0106
1550.00,0.0105
1549.00,0.0104
1548.00,0.0103
1547.00,0.0103
1546.00,0.0102
1545.00,0.0101
1544.00,0.0100
1543.00,0.0099
1542.00,0.0099
1541.00,0.0099
1540.00,0.0098
1539.00,0.0098
1538.00,0.0098
1537.00,0.0097
1536.00,0.0096
1535.00,0.0094
1534.00,0.0094
1533.00,0.0093
1532.00,0.0093
1531.00,0.0094
1530.00,0.0094
1529.00,0.0094
1528.00,0.0094
1527.00,0.0095
1526.00,0.0096
1525.00,0.0097
1524.00,0.0099
1523.00,0.0100
1522.00,0.0102
1521.00,0.0104
1520.00,0.0106
1519.00,0.0107
1518.00,0.0109
1517.00,0.0110
1516.00,0.0111
1515.00,0.0112
1514.00,0.0114
1513.00,0.0115
1512.00,0.0116
1511.00,0.0118
1510.00,0.0119
1509.00,0.0120
1508.00,0.0123
1507.00,0.0128
1506.00,0.0137
1505.00,0.0147
1504.00,0.0155
1503.00,0.0163
1502.00,0.0172
1501.00,0.0183
1500.00,0.0196
1499.00,0.0211
1498.00,0.0226
1497.00,0.0239
1496.00,0.0250
1495.00,0.0256
1494.00,0.0259
1493.00,0.0258
1492.00,0.0253
1491.00,0.0245
1490.00,0.0233
1489.00,0.0221
1488.00,0.0208
1487.00,0.0195
1486.00,0.0183
1485.00,0.0173
1484.00,0.0164
1483.00,0.0156
1482.00,0.0150
1481.00,0.0145
1480.00,0.0143
1479.00,0.0142
1478.00,0.0143
1477.00,0.0145
1476.00,0.0149
1475.00,0.0155
1474.00,0.0164
1473.00,0.0178
1472.00,0.0197
1471.00,0.0217
1470.00,0.0237
1469.00,0.0257
1468.00,0.0279
1467.00,0.0302
1466.00,0.0328
1465.00,0.0356
1464.00,0.0383
1463.00,0.0404
1462.00,0.0417
1461.00,0.0425
1460.00,0.0428
1459.00,0.0424
1458.00,0.0412
1457.00,0.0393
1456.00,0.0374
1455.00,0.0357
1454.00,0.0344
1453.00,0.0333
1452.00,0.0325
1451.00,0.0321
1450.00,0.0322
1449.00,0.0327
1448.00,0.0337
1447.00,0.0350
1446.00,0.0365
1445.00,0.0382
1444.00,0.0400
1443.00,0.0419
1442.00,0.0438
1441.00,0.0456
1440.00,0.0472
1439.00,0.0486
1438.00,0.0499
1437.00,0.0513
1436.00,0.0525
1435.00,0.0535
1434.00,0.0541
1433.00,0.0546
1432.00,0.0550
1431.00,0.0554
1430.00,0.0560
1429.00,0.0570
1428.00,0.0581
1427.00,0.0595
1426.00,0.0610
1425.00,0.0626
1424.00,0.0641
1423.00,0.0652
1422.00,0.0657
1421.00,0.0653
1420.00,0.0639
1419.00,0.0613
1418.00,0.0582
1417.00,0.0550
1416.00,0.0518
1415.00,0.0485
1414.00,0.0455
1413.00,0.0427
1412.00,0.0403
1411.00,0.0382
1410.00,0.0366
1409.00,0.0355
1408.00,0.0346
1407.00,0.0340
1406.00,0.0336
1405.00,0.0334
1404.00,0.0332
1403.00,0.0330
1402.00,0.0327
1401.00,0.0322
1400.00,0.0313
1399.00,0.0301
1398.00,0.0289
1397.00,0.0276
1396.00,0.0262
1395.00,0.0249
1394.00,0.0237
1393.00,0.0229
1392.00,0.0222
1391.00,0.0218
1390.00,0.0215
1389.00,0.0214
1388.00,0.0215
1387.00,0.0218
1386.00,0.0223
1385.00,0.0230
1384.00,0.0237
1383.00,0.0245
1382.00,0.0253
1381.00,0.0260
1380.00,0.0266
1379.00,0.0271
1378.00,0.0275
1377.00,0.0277
1376.00,0.0277
1375.00,0.0276
1374.00,0.0275
1373.00,0.0273
1372.00,0.0270
1371.00,0.0268
1370.00,0.0265
1369.00,0.0263
1368.00,0.0260
1367.00,0.0258
1366.00,0.0257
1365.00,0.0256
1364.00,0.0255
1363.00,0.0255
1362.00,0.0254
1361.00,0.0253
1360.00,0.0249
1359.00,0.0243
1358.00,0.0234
1357.00,0.0224
1356.00,0.0213
1355.00,0.0203
1354.00,0.0195
1353.00,0.0188
1352.00,0.0183
1351.00,0.0178
1350.00,0.0175
1349.00,0.0173
1348.00,0.0171
1347.00,0.0169
1346.00,0.0168
1345.00,0.0167
1344.00,0.0166
1343.00,0.0166
1342.00,0.0166
1341.00,0.0166
1340.00,0.0166
1339.00,0.0167
1338.00,0.0169
1337.00,0.0172
1336.00,0.0175
1335.00,0.0178
1334.00,0.0181
1333.00,0.0185
1332.00,0.0188
1331.00,0.0192
1330.00,0.0196
1329.00,0.0201
1328.00,0.0207
1327.00,0.0213
1326.00,0.0221
1325.00,0.0229
1324.00,0.0238
1323.00,0.0246
1322.00,0.0255
1321.00,0.0263
1320.00,0.0270
1319.00,0.0275
1318.00,0.0279
1317.00,0.0281
1316.00,0.0280
1315.00,0.0278
1314.00,0.0275
1313.00,0.0270
1312.00,0.0265
1311.00,0.0261
1310.00,0.0258
1309.00,0.0255
1308.00,0.0254
1307.00,0.0254
1306.00,0.0257
1305.00,0.0261
1304.00,0.0267
1303.00,0.0275
1302.00,0.0286
1301.00,0.0300
1300.00,0.0318
1299.00,0.0340
1298.00,0.0367
1297.00,0.0399
1296.00,0.0434
1295.00,0.0472
1294.00,0.0512
1293.00,0.0552
1292.00,0.0590
1291.00,0.0625
1290.00,0.0657
1289.00,0.0683
1288.00,0.0703
1287.00,0.0717
1286.00,0.0724
1285.00,0.0725
1284.00,0.0719
1283.00,0.0708
1282.00,0.0695
1281.00,0.0680
1280.00,0.0666
1279.00,0.0655
1278.00,0.0648
1277.00,0.0644
1276.00,0.0643
1275.00,0.0645
1274.00,0.0648
1273.00,0.0650
1272.00,0.0650
1271.00,0.0646
1270.00,0.0638
1269.00,0.0626
1268.00,0.0610
1267.00,0.0591
1266.00,0.0569
1265.00,0.0546
1264.00,0.0522
1263.00,0.0497
1262.00,0.0473
1261.00,0.0451
1260.00,0.0429
1259.00,0.0408
1258.00,0.0390
1257.00,0.0373
1256.00,0.0357
1255.00,0.0343
1254.00,0.0331
1253.00,0.0320
1252.00,0.0312
1251.00,0.0305
1250.00,0.0300
1249.00,0.0298
1248.00,0.0297
1247.00,0.0298
1246.00,0.0300
1245.00,0.0304
1244.00,0.0308
1243.00,0.0313
1242.00,0.0319
1241.00,0.0324
1240.00,0.0329
1239.00,0.0333
1238.00,0.0337
1237.00,0.0341
1236.00,0.0345
1235.00,0.0348
1234.00,0.0351
1233.00,0.0354
1232.00,0.0356
1231.00,0.0357
1230.00,0.0357
1229.00,0.0357
1228.00,0.0357
1227.00,0.0356
1226.00,0.0356
1225.00,0.0355
1224.00,0.0355
1223.00,0.0356
1222.00,0.0357
1221.00,0.0357
1220.00,0.0357
1219.00,0.0356
1218.00,0.0355
1217.00,0.0351
1216.00,0.0347
1215.00,0.0340
1214.00,0.0332
1213.00,0.0323
1212.00,0.0313
1211.00,0.0304
1210.00,0.0295
1209.00,0.0287
1208.00,0.0280
1207.00,0.0274
1206.00,0.0269
1205.00,0.0266
1204.00,0.0263
1203.00,0.0262
1202.00,0.0263
1201.00,0.0265
1200.00,0.0269
1199.00,0.0272
1198.00,0.0277
1197.00,0.0281
1196.00,0.0285
1195.00,0.0287
1194.00,0.0288
1193.00,0.0286
1192.00,0.0282
1191.00,0.0275
1190.00,0.0268
1189.00,0.0259
1188.00,0.0251
1187.00,0.0243
1186.00,0.0236
1185.00,0.0231
1184.00,0.0226
1183.00,0.0222
1182.00,0.0219
1181.00,0.0217
1180.00,0.0216
1179.00,0.0216
1178.00,0.0217
1177.00,0.0218
1176.00,0.0220
1175.00,0.0223
1174.00,0.0226
1173.00,0.0229
1172.00,0.0231
1171.00,0.0234
1170.00,0.0236
1169.00,0.0237
1168.00,0.0238
1167.00,0.0238
1166.00,0.0239
1165.00,0.0239
1164.00,0.0241
1163.00,0.0243
1162.00,0.0247
1161.00,0.0252
1160.00,0.0257
1159.00,0.0261
1158.00,0.0265
1157.00,0.0267
1156.00,0.0267
1155.00,0.0264
1154.00,0.0259
1153.00,0.0253
1152.00,0.0244
1151.00,0.0235
1150.00,0.0226
1149.00,0.0216
1148.00,0.0207
1147.00,0.0198
1146.00,0.0191
1145.00,0.0184
1144.00,0.0178
1143.00,0.0173
1142.00,0.0170
1141.00,0.0168
1140.00,0.0166
1139.00,0.0166
1138.00,0.0169
1137.00,0.0172
1136.00,0.0178
1135.00,0.0186
1134.00,0.0197
1133.00,0.0209
1132.00,0.0220
1131.00,0.0230
1130.00,0.0236
1129.00,0.0237
1128.00,0.0232
1127.00,0.0224
1126.00,0.0213
1125.00,0.0201
1124.00,0.0189
1123.00,0.0180
1122.00,0.0173
1121.00,0.0167
1120.00,0.0163
1119.00,0.0160
1118.00,0.0159
1117.00,0.0157
1116.00,0.0157
1115.00,0.0156
1114.00,0.0156
1113.00,0.0157
1112.00,0.0156
1111.00,0.0157
1110.00,0.0158
1109.00,0.0160
1108.00,0.0162
1107.00,0.0164
1106.00,0.0167
1105.00,0.0170
1104.00,0.0174
1103.00,0.0178
1102.00,0.0182
1101.00,0.0184
1100.00,0.0185
1099.00,0.0184
1098.00,0.0182
1097.00,0.0179
1096.00,0.0175
1095.00,0.0171
1094.00,0.0167
1093.00,0.0163
1092.00,0.0159
1091.00,0.0156
1090.00,0.0154
1089.00,0.0152
1088.00,0.0150
1087.00,0.0149
1086.00,0.0148
1085.00,0.0148
1084.00,0.0148
1083.00,0.0148
1082.00,0.0150
1081.00,0.0152
1080.00,0.0154
1079.00,0.0157
1078.00,0.0160
1077.00,0.0164
1076.00,0.0167
1075.00,0.0170
1074.00,0.0174
1073.00,0.0178
1072.00,0.0182
1071.00,0.0187
1070.00,0.0193
1069.00,0.0201
1068.00,0.0211
1067.00,0.0222
1066.00,0.0236
1065.00,0.0250
1064.00,0.0266
1063.00,0.0282
1062.00,0.0298
1061.00,0.0313
1060.00,0.0326
1059.00,0.0335
1058.00,0.0340
1057.00,0.0340
1056.00,0.0333
1055.00,0.0322
1054.00,0.0306
1053.00,0.0288
1052.00,0.0269
1051.00,0.0250
1050.00,0.0234
1049.00,0.0221
1048.00,0.0209
1047.00,0.0200
1046.00,0.0193
1045.00,0.0188
1044.00,0.0184
1043.00,0.0180
1042.00,0.0179
1041.00,0.0177
1040.00,0.0176
1039.00,0.0176
1038.00,0.0176
1037.00,0.0176
1036.00,0.0177
1035.00,0.0179
1034.00,0.0182
1033.00,0.0186
1032.00,0.0190
1031.00,0.0193
1030.00,0.0195
1029.00,0.0195
1028.00,0.0193
1027.00,0.0190
1026.00,0.0187
1025.00,0.0185
1024.00,0.0184
1023.00,0.0184
1022.00,0.0185
1021.00,0.0186
1020.00,0.0187
1019.00,0.0188
1018.00,0.0188
1017.00,0.0187
1016.00,0.0184
1015.00,0.0181
1014.00,0.0177
1013.00,0.0172
1012.00,0.0168
1011.00,0.0164
1010.00,0.0163
1009.00,0.0163
1008.00,0.0165
1007.00,0.0168
1006.00,0.0173
1005.00,0.0178
1004.00,0.0182
1003.00,0.0185
1002.00,0.0186
1001.00,0.0185
1000.00,0.0182
999.00,0.0178
998.00,0.0174
997.00,0.0171
996.00,0.0166
995.00,0.0163
994.00,0.0160
993.00,0.0157
992.00,0.0153
991.00,0.0150
990.00,0.0148
989.00,0.0145
988.00,0.0142
987.00,0.0140
986.00,0.0138
985.00,0.0136
984.00,0.0134
983.00,0.0132
982.00,0.0131
981.00,0.0131
980.00,0.0130
979.00,0.0129
978.00,0.0129
977.00,0.0129
976.00,0.0128
975.00,0.0127
974.00,0.0126
973.00,0.0125
972.00,0.0124
971.00,0.0122
970.00,0.0122
969.00,0.0121
968.00,0.0119
967.00,0.0118
966.00,0.0117
965.00,0.0116
964.00,0.0114
963.00,0.0113
962.00,0.0113
961.00,0.0113
960.00,0.0113
959.00,0.0112
958.00,0.0112
957.00,0.0111
956.00,0.0110
955.00,0.0109
954.00,0.0108
953.00,0.0108
952.00,0.0107
951.00,0.0107
950.00,0.0107
949.00,0.0108
948.00,0.0108
947.00,0.0109
946.00,0.0110
945.00,0.0112
944.00,0.0113
943.00,0.0115
942.00,0.0119
941.00,0.0123
940.00,0.0127
939.00,0.0132
938.00,0.0138
937.00,0.0144
936.00,0.0150
935.00,0.0155
934.00,0.0158
933.00,0.0161
932.00,0.0161
931.00,0.0160
930.00,0.0158
929.00,0.0157
928.00,0.0156
927.00,0.0155
926.00,0.0154
925.00,0.0153
924.00,0.0151
923.00,0.0150
922.00,0.0148
921.00,0.0146
920.00,0.0144
919.00,0.0142
918.00,0.0141
917.00,0.0139
916.00,0.0138
915.00,0.0136
914.00,0.0135
913.00,0.0134
912.00,0.0134
911.00,0.0134
910.00,0.0134
909.00,0.0135
908.00,0.0136
907.00,0.0137
906.00,0.0141
905.00,0.0145
904.00,0.0149
903.00,0.0153
902.00,0.0158
901.00,0.0162
900.00,0.0166
899.00,0.0169
898.00,0.0171
897.00,0.0172
896.00,0.0171
895.00,0.0170
894.00,0.0168
893.00,0.0165
892.00,0.0162
891.00,0.0158
890.00,0.0156
889.00,0.0153
888.00,0.0150
887.00,0.0148
886.00,0.0148
885.00,0.0148
884.00,0.0149
883.00,0.0150
882.00,0.0152
881.00,0.0155
880.00,0.0158
879.00,0.0161
878.00,0.0166
877.00,0.0172
876.00,0.0177
875.00,0.0182
874.00,0.0187
873.00,0.0192
872.00,0.0195
871.00,0.0197
870.00,0.0199
869.00,0.0200
868.00,0.0201
867.00,0.0201
866.00,0.0202
865.00,0.0204
864.00,0.0205
863.00,0.0206
862.00,0.0208
861.00,0.0210
860.00,0.0212
859.00,0.0214
858.00,0.0218
857.00,0.0222
856.00,0.0226
855.00,0.0230
854.00,0.0235
853.00,0.0240
852.00,0.0244
851.00,0.0249
850.00,0.0253
849.00,0.0257
848.00,0.0260
847.00,0.0263
846.00,0.0266
845.00,0.0267
844.00,0.0268
843.00,0.0268
842.00,0.0268
841.00,0.0268
840.00,0.0267
839.00,0.0266
838.00,0.0264
837.00,0.0263
836.00,0.0261
835.00,0.0260
834.00,0.0260
833.00,0.0260
832.00,0.0259
831.00,0.0258
830.00,0.0257
829.00,0.0256
828.00,0.0254
827.00,0.0252
826.00,0.0251
825.00,0.0250
824.00,0.0248
823.00,0.0247
822.00,0.0247
821.00,0.0247
820.00,0.0248
819.00,0.0247
818.00,0.0247
817.00,0.0247
816.00,0.0245
815.00,0.0243
814.00,0.0241
813.00,0.0238
812.00,0.0233
811.00,0.0227
810.00,0.0220
809.00,0.0212
808.00,0.0203
807.00,0.0194
806.00,0.0186
805.00,0.0179
804.00,0.0173
803.00,0.0169
802.00,0.0166
801.00,0.0164
800.00,0.0162
799.00,0.0161
798.00,0.0161
797.00,0.0162
796.00,0.0162
795.00,0.0162
794.00,0.0163
793.00,0.0163
792.00,0.0163
791.00,0.0163
790.00,0.0164
789.00,0.0165
788.00,0.0165
787.00,0.0165
786.00,0.0167
785.00,0.0168
784.00,0.0169
783.00,0.0170
782.00,0.0172
781.00,0.0174
780.00,0.0176
779.00,0.0178
778.00,0.0181
777.00,0.0183
776.00,0.0183
775.00,0.0182
774.00,0.0182
773.00,0.0182
772.00,0.0182
771.00,0.0182
770.00,0.0184
769.00,0.0186
768.00,0.0187
767.00,0.0189
766.00,0.0192
765.00,0.0194
764.00,0.0196
763.00,0.0198
762.00,0.0201
761.00,0.0205
760.00,0.0208
759.00,0.0212
758.00,0.0217
757.00,0.0221
756.00,0.0224
755.00,0.0227
754.00,0.0232
753.00,0.0236
752.00,0.0240
751.00,0.0245
750.00,0.0249
749.00,0.0254
748.00,0.0257
747.00,0.0261
746.00,0.0266
745.00,0.0271
744.00,0.0275
743.00,0.0281
742.00,0.0288
741.00,0.0295
740.00,0.0303
739.00,0.0310
738.00,0.0317
737.00,0.0321
736.00,0.0323
735.00,0.0322
734.00,0.0320
733.00,0.0315
732.00,0.0310
731.00,0.0303
730.00,0.0297
729.00,0.0291
728.00,0.0285
727.00,0.0278
726.00,0.0273
725.00,0.0268
724.00,0.0262
723.00,0.0257
722.00,0.0253
721.00,0.0251
720.00,0.0248
719.00,0.0246
718.00,0.0245
717.00,0.0245
716.00,0.0244
715.00,0.0243
714.00,0.0243
713.00,0.0243
712.00,0.0242
711.00,0.0242
710.00,0.0241
709.00,0.0241
708.00,0.0239
707.00,0.0239
706.00,0.0240
705.00,0.0240
704.00,0.0240
703.00,0.0241
702.00,0.0242
701.00,0.0244
700.00,0.0245
699.00,0.0247
698.00,0.0250
697.00,0.0254
696.00,0.0258
695.00,0.0263
694.00,0.0269
693.00,0.0274
692.00,0.0279
691.00,0.0282
690.00,0.0285
689.00,0.0288
688.00,0.0288
687.00,0.0289
686.00,0.0291
685.00,0.0292
684.00,0.0293
683.00,0.0294
682.00,0.0296
681.00,0.0298
680.00,0.0300
679.00,0.0302
678.00,0.0305
677.00,0.0308
676.00,0.0310
675.00,0.0314
674.00,0.0318
673.00,0.0323
672.00,0.0327
671.00,0.0331
670.00,0.0335
669.00,0.0341
668.00,0.0345
667.00,0.0351
666.00,0.0359
665.00,0.0367
664.00,0.0374
663.00,0.0382
662.00,0.0389
661.00,0.0397
660.00,0.0404
659.00,0.0411
658.00,0.0420
657.00,0.0428
656.00,0.0436
655.00,0.0444
654.00,0.0452
653.00,0.0458
652.00,0.0464
651.00,0.0468
650.00,0.0472
649.00,0.0475
648.00,0.0475
647.00,0.0474
646.00,0.0472
645.00,0.0469
644.00,0.0465
643.00,0.0460
642.00,0.0455
641.00,0.0451
640.00,0.0445
639.00,0.0438
638.00,0.0432
637.00,0.0426
636.00,0.0420
635.00,0.0414
634.00,0.0410
633.00,0.0407
632.00,0.0403
631.00,0.0400
630.00,0.0399
629.00,0.0397
628.00,0.0395
627.00,0.0393
626.00,0.0392
625.00,0.0391
624.00,0.0389
623.00,0.0387
622.00,0.0386
621.00,0.0386
620.00,0.0384
619.00,0.0384
618.00,0.0384
617.00,0.0383
616.00,0.0381
615.00,0.0380
614.00,0.0380
613.00,0.0380
612.00,0.0381
611.00,0.0382
610.00,0.0384
609.00,0.0386
608.00,0.0386
607.00,0.0388
606.00,0.0390
605.00,0.0393
604.00,0.0394
603.00,0.0396
602.00,0.0398
601.00,0.0400
600.00,0.0401
599.00,0.0403
598.00,0.0405
597.00,0.0406
596.00,0.0406
595.00,0.0407
594.00,0.0409
593.00,0.0412
592.00,0.0415
591.00,0.0418
590.00,0.0424
589.00,0.0430
588.00,0.0438
587.00,0.0447
586.00,0.0460
585.00,0.0472
584.00,0.0482
583.00,0.0491
582.00,0.0500
581.00,0.0507
580.00,0.0510
579.00,0.0513
578.00,0.0516
577.00,0.0519
576.00,0.0519
575.00,0.0519
574.00,0.0519
573.00,0.0520
572.00,0.0519
571.00,0.0518
570.00,0.0518
569.00,0.0518
568.00,0.0516
567.00,0.0513
566.00,0.0511
565.00,0.0507
564.00,0.0501
563.00,0.0495
562.00,0.0491
561.00,0.0488
560.00,0.0483
559.00,0.0479
558.00,0.0477
557.00,0.0476
556.00,0.0472
555.00,0.0468
554.00,0.0465
553.00,0.0461
552.00,0.0457
551.00,0.0453
550.00,0.0453
549.00,0.0452
548.00,0.0449
547.00,0.0444
546.00,0.0441
545.00,0.0437
544.00,0.0433
543.00,0.0430
542.00,0.0429
541.00,0.0429
540.00,0.0428
539.00,0.0428
538.00,0.0429
537.00,0.0430
536.00,0.0430
535.00,0.0432
534.00,0.0437
533.00,0.0441
532.00,0.0442
531.00,0.0442
530.00,0.0442
529.00,0.0440
528.00,0.0436
527.00,0.0433
526.00,0.0432
525.00,0.0430
524.00,0.0426
523.00,0.0422
522.00,0.0422
521.00,0.0421
520.00,0.0418
519.00,0.0416
518.00,0.0416
517.00,0.0416
516.00,0.0413
515.00,0.0411
514.00,0.0412
513.00,0.0413
512.00,0.0411
511.00,0.0409
510.00,0.0411
509.00,0.0414
508.00,0.0415
507.00,0.0417
506.00,0.0419
505.00,0.0419
504.00,0.0415
503.00,0.0412
502.00,0.0414
501.00,0.0415
500.00,0.0413
499.00,0.0410
498.00,0.0409
497.00,0.0409
496.00,0.0407
495.00,0.0407
494.00,0.0409
493.00,0.0410
492.00,0.0408
491.00,0.0406
490.00,0.0406
489.00,0.0406
488.00,0.0404
487.00,0.0407
486.00,0.0414
485.00,0.0419
484.00,0.0419
483.00,0.0416
482.00,0.0416
481.00,0.0416
480.00,0.0413
479.00,0.0411
478.00,0.0412
477.00,0.0413
476.00,0.0412
475.00,0.0413
474.00,0.0417
473.00,0.0420
472.00,0.0416
471.00,0.0412
470.00,0.0412
469.00,0.0412
468.00,0.0410
467.00,0.0410
466.00,0.0414
465.00,0.0416
464.00,0.0413
463.00,0.0409
462.00,0.0410
461.00,0.0411
460.00,0.0408
459.00,0.0405
458.00,0.0407
457.00,0.0407
456.00,0.0403
455.00,0.0399
454.00,0.0401
453.00,0.0403
452.00,0.0398
451.00,0.0394
450.00,0.0395
449.00,0.0397
448.00,0.0395
447.00,0.0394
446.00,0.0396
445.00,0.0394
444.00,0.0387
443.00,0.0380
442.00,0.0379
441.00,0.0381
440.00,0.0379
439.00,0.0380
438.00,0.0386
437.00,0.0389
436.00,0.0383
435.00,0.0378
434.00,0.0381
433.00,0.0383
432.00,0.0379
431.00,0.0376
430.00,0.0379
429.00,0.0383
428.00,0.0381
427.00,0.0379
426.00,0.0383
425.00,0.0385
424.00,0.0380
423.00,0.0375
422.00,0.0379
421.00,0.0384
420.00,0.0382
419.00,0.0381
418.00,0.0390
417.00,0.0392
416.00,0.0384
415.00,0.0379
414.00,0.0387
413.00,0.0395
412.00,0.0393
411.00,0.0390
410.00,0.0396
409.00,0.0399
408.00,0.0388
407.00,0.0377
406.00,0.0380
405.00,0.0381
404.00,0.0369
403.00,0.0358
402.00,0.0365
401.00,0.0378
400.00,0.0383
