Created as New Dataset,Sample 830 By YargerLab Date Tuesday, July 15 2025
cm-1,A
4000.00,0.0042
3999.00,0.0042
3998.00,0.0042
3997.00,0.0042
3996.00,0.0042
3995.00,0.0042
3994.00,0.0042
3993.00,0.0042
3992.00,0.0042
3991.00,0.0042
3990.00,0.0042
3989.00,0.0042
3988.00,0.0042
3987.00,0.0042
3986.00,0.0042
3985.00,0.0042
3984.00,0.0042
3983.00,0.0042
3982.00,0.0042
3981.00,0.0042
3980.00,0.0042
3979.00,0.0042
3978.00,0.0042
3977.00,0.0042
3976.00,0.0042
3975.00,0.0042
3974.00,0.0042
3973.00,0.0042
3972.00,0.0041
3971.00,0.0041
3970.00,0.0042
3969.00,0.0042
3968.00,0.0042
3967.00,0.0042
3966.00,0.0042
3965.00,0.0042
3964.00,0.0042
3963.00,0.0042
3962.00,0.0042
3961.00,0.0042
3960.00,0.0042
3959.00,0.0042
3958.00,0.0042
3957.00,0.0042
3956.00,0.0041
3955.00,0.0041
3954.00,0.0041
3953.00,0.0041
3952.00,0.0041
3951.00,0.0041
3950.00,0.0041
3949.00,0.0042
3948.00,0.0042
3947.00,0.0042
3946.00,0.0042
3945.00,0.0042
3944.00,0.0042
3943.00,0.0042
3942.00,0.0041
3941.00,0.0041
3940.00,0.0041
3939.00,0.0041
3938.00,0.0041
3937.00,0.0042
3936.00,0.0042
3935.00,0.0042
3934.00,0.0042
3933.00,0.0042
3932.00,0.0042
3931.00,0.0041
3930.00,0.0041
3929.00,0.0041
3928.00,0.0041
3927.00,0.0041
3926.00,0.0042
3925.00,0.0042
3924.00,0.0042
3923.00,0.0041
3922.00,0.0041
3921.00,0.0041
3920.00,0.0041
3919.00,0.0041
3918.00,0.0041
3917.00,0.0041
3916.00,0.0041
3915.00,0.0041
3914.00,0.0041
3913.00,0.0041
3912.00,0.0041
3911.00,0.0042
3910.00,0.0042
3909.00,0.0042
3908.00,0.0041
3907.00,0.0041
3906.00,0.0041
3905.00,0.0041
3904.00,0.0040
3903.00,0.0040
3902.00,0.0040
3901.00,0.0040
3900.00,0.0040
3899.00,0.0040
3898.00,0.0040
3897.00,0.0040
3896.00,0.0040
3895.00,0.0040
3894.00,0.0040
3893.00,0.0041
3892.00,0.0041
3891.00,0.0041
3890.00,0.0041
3889.00,0.0041
3888.00,0.0040
3887.00,0.0040
3886.00,0.0040
3885.00,0.0041
3884.00,0.0040
3883.00,0.0040
3882.00,0.0040
3881.00,0.0040
3880.00,0.0040
3879.00,0.0040
3878.00,0.0040
3877.00,0.0040
3876.00,0.0040
3875.00,0.0040
3874.00,0.0040
3873.00,0.0040
3872.00,0.0040
3871.00,0.0040
3870.00,0.0040
3869.00,0.0039
3868.00,0.0039
3867.00,0.0039
3866.00,0.0039
3865.00,0.0039
3864.00,0.0040
3863.00,0.0039
3862.00,0.0039
3861.00,0.0040
3860.00,0.0040
3859.00,0.0041
3858.00,0.0041
3857.00,0.0040
3856.00,0.0039
3855.00,0.0039
3854.00,0.0039
3853.00,0.0038
3852.00,0.0038
3851.00,0.0038
3850.00,0.0039
3849.00,0.0040
3848.00,0.0040
3847.00,0.0041
3846.00,0.0041
3845.00,0.0042
3844.00,0.0042
3843.00,0.0042
3842.00,0.0041
3841.00,0.0041
3840.00,0.0040
3839.00,0.0040
3838.00,0.0039
3837.00,0.0039
3836.00,0.0039
3835.00,0.0039
3834.00,0.0039
3833.00,0.0040
3832.00,0.0040
3831.00,0.0040
3830.00,0.0040
3829.00,0.0040
3828.00,0.0041
3827.00,0.0041
3826.00,0.0041
3825.00,0.0041
3824.00,0.0040
3823.00,0.0040
3822.00,0.0040
3821.00,0.0040
3820.00,0.0040
3819.00,0.0040
3818.00,0.0040
3817.00,0.0040
3816.00,0.0041
3815.00,0.0041
3814.00,0.0040
3813.00,0.0040
3812.00,0.0040
3811.00,0.0040
3810.00,0.0040
3809.00,0.0040
3808.00,0.0040
3807.00,0.0041
3806.00,0.0041
3805.00,0.0041
3804.00,0.0040
3803.00,0.0040
3802.00,0.0040
3801.00,0.0040
3800.00,0.0040
3799.00,0.0040
3798.00,0.0040
3797.00,0.0040
3796.00,0.0040
3795.00,0.0040
3794.00,0.0040
3793.00,0.0041
3792.00,0.0041
3791.00,0.0041
3790.00,0.0041
3789.00,0.0041
3788.00,0.0041
3787.00,0.0041
3786.00,0.0041
3785.00,0.0041
3784.00,0.0041
3783.00,0.0041
3782.00,0.0041
3781.00,0.0041
3780.00,0.0041
3779.00,0.0041
3778.00,0.0041
3777.00,0.0041
3776.00,0.0041
3775.00,0.0041
3774.00,0.0041
3773.00,0.0041
3772.00,0.0041
3771.00,0.0041
3770.00,0.0041
3769.00,0.0041
3768.00,0.0041
3767.00,0.0041
3766.00,0.0041
3765.00,0.0041
3764.00,0.0041
3763.00,0.0041
3762.00,0.0041
3761.00,0.0041
3760.00,0.0041
3759.00,0.0041
3758.00,0.0041
3757.00,0.0041
3756.00,0.0041
3755.00,0.0041
3754.00,0.0041
3753.00,0.0041
3752.00,0.0041
3751.00,0.0040
3750.00,0.0040
3749.00,0.0039
3748.00,0.0039
3747.00,0.0038
3746.00,0.0038
3745.00,0.0039
3744.00,0.0039
3743.00,0.0039
3742.00,0.0039
3741.00,0.0039
3740.00,0.0040
3739.00,0.0040
3738.00,0.0040
3737.00,0.0040
3736.00,0.0040
3735.00,0.0039
3734.00,0.0038
3733.00,0.0038
3732.00,0.0039
3731.00,0.0039
3730.00,0.0040
3729.00,0.0040
3728.00,0.0040
3727.00,0.0041
3726.00,0.0040
3725.00,0.0040
3724.00,0.0040
3723.00,0.0040
3722.00,0.0040
3721.00,0.0040
3720.00,0.0040
3719.00,0.0041
3718.00,0.0041
3717.00,0.0041
3716.00,0.0041
3715.00,0.0041
3714.00,0.0040
3713.00,0.0040
3712.00,0.0040
3711.00,0.0040
3710.00,0.0040
3709.00,0.0040
3708.00,0.0040
3707.00,0.0040
3706.00,0.0040
3705.00,0.0039
3704.00,0.0039
3703.00,0.0039
3702.00,0.0040
3701.00,0.0040
3700.00,0.0040
3699.00,0.0040
3698.00,0.0041
3697.00,0.0041
3696.00,0.0041
3695.00,0.0041
3694.00,0.0041
3693.00,0.0041
3692.00,0.0041
3691.00,0.0041
3690.00,0.0041
3689.00,0.0041
3688.00,0.0042
3687.00,0.0042
3686.00,0.0042
3685.00,0.0043
3684.00,0.0043
3683.00,0.0044
3682.00,0.0044
3681.00,0.0044
3680.00,0.0044
3679.00,0.0044
3678.00,0.0044
3677.00,0.0044
3676.00,0.0044
3675.00,0.0043
3674.00,0.0043
3673.00,0.0043
3672.00,0.0042
3671.00,0.0042
3670.00,0.0043
3669.00,0.0043
3668.00,0.0043
3667.00,0.0044
3666.00,0.0044
3665.00,0.0045
3664.00,0.0045
3663.00,0.0046
3662.00,0.0046
3661.00,0.0047
3660.00,0.0047
3659.00,0.0047
3658.00,0.0047
3657.00,0.0047
3656.00,0.0047
3655.00,0.0047
3654.00,0.0047
3653.00,0.0047
3652.00,0.0047
3651.00,0.0048
3650.00,0.0048
3649.00,0.0049
3648.00,0.0049
3647.00,0.0050
3646.00,0.0051
3645.00,0.0052
3644.00,0.0053
3643.00,0.0054
3642.00,0.0055
3641.00,0.0055
3640.00,0.0055
3639.00,0.0056
3638.00,0.0056
3637.00,0.0057
3636.00,0.0058
3635.00,0.0059
3634.00,0.0060
3633.00,0.0060
3632.00,0.0059
3631.00,0.0060
3630.00,0.0060
3629.00,0.0062
3628.00,0.0063
3627.00,0.0064
3626.00,0.0065
3625.00,0.0066
3624.00,0.0066
3623.00,0.0067
3622.00,0.0068
3621.00,0.0068
3620.00,0.0069
3619.00,0.0070
3618.00,0.0071
3617.00,0.0071
3616.00,0.0072
3615.00,0.0072
3614.00,0.0073
3613.00,0.0074
3612.00,0.0075
3611.00,0.0076
3610.00,0.0076
3609.00,0.0078
3608.00,0.0079
3607.00,0.0080
3606.00,0.0081
3605.00,0.0082
3604.00,0.0082
3603.00,0.0083
3602.00,0.0084
3601.00,0.0085
3600.00,0.0086
3599.00,0.0087
3598.00,0.0087
3597.00,0.0088
3596.00,0.0089
3595.00,0.0090
3594.00,0.0091
3593.00,0.0092
3592.00,0.0092
3591.00,0.0093
3590.00,0.0093
3589.00,0.0094
3588.00,0.0096
3587.00,0.0098
3586.00,0.0100
3585.00,0.0101
3584.00,0.0102
3583.00,0.0103
3582.00,0.0104
3581.00,0.0105
3580.00,0.0106
3579.00,0.0107
3578.00,0.0108
3577.00,0.0109
3576.00,0.0110
3575.00,0.0111
3574.00,0.0112
3573.00,0.0113
3572.00,0.0114
3571.00,0.0114
3570.00,0.0115
3569.00,0.0116
3568.00,0.0118
3567.00,0.0120
3566.00,0.0122
3565.00,0.0123
3564.00,0.0124
3563.00,0.0124
3562.00,0.0125
3561.00,0.0126
3560.00,0.0128
3559.00,0.0129
3558.00,0.0129
3557.00,0.0130
3556.00,0.0131
3555.00,0.0132
3554.00,0.0133
3553.00,0.0134
3552.00,0.0135
3551.00,0.0136
3550.00,0.0137
3549.00,0.0138
3548.00,0.0139
3547.00,0.0140
3546.00,0.0141
3545.00,0.0142
3544.00,0.0143
3543.00,0.0144
3542.00,0.0145
3541.00,0.0145
3540.00,0.0146
3539.00,0.0147
3538.00,0.0148
3537.00,0.0149
3536.00,0.0150
3535.00,0.0151
3534.00,0.0151
3533.00,0.0152
3532.00,0.0153
3531.00,0.0153
3530.00,0.0154
3529.00,0.0155
3528.00,0.0156
3527.00,0.0157
3526.00,0.0158
3525.00,0.0159
3524.00,0.0160
3523.00,0.0161
3522.00,0.0161
3521.00,0.0162
3520.00,0.0162
3519.00,0.0163
3518.00,0.0163
3517.00,0.0164
3516.00,0.0165
3515.00,0.0166
3514.00,0.0167
3513.00,0.0167
3512.00,0.0168
3511.00,0.0169
3510.00,0.0169
3509.00,0.0170
3508.00,0.0171
3507.00,0.0171
3506.00,0.0172
3505.00,0.0172
3504.00,0.0174
3503.00,0.0175
3502.00,0.0176
3501.00,0.0176
3500.00,0.0177
3499.00,0.0177
3498.00,0.0177
3497.00,0.0178
3496.00,0.0179
3495.00,0.0180
3494.00,0.0180
3493.00,0.0181
3492.00,0.0181
3491.00,0.0182
3490.00,0.0183
3489.00,0.0183
3488.00,0.0184
3487.00,0.0185
3486.00,0.0185
3485.00,0.0186
3484.00,0.0186
3483.00,0.0187
3482.00,0.0188
3481.00,0.0189
3480.00,0.0189
3479.00,0.0190
3478.00,0.0190
3477.00,0.0191
3476.00,0.0192
3475.00,0.0192
3474.00,0.0193
3473.00,0.0194
3472.00,0.0194
3471.00,0.0195
3470.00,0.0195
3469.00,0.0195
3468.00,0.0196
3467.00,0.0196
3466.00,0.0197
3465.00,0.0197
3464.00,0.0198
3463.00,0.0198
3462.00,0.0199
3461.00,0.0199
3460.00,0.0200
3459.00,0.0200
3458.00,0.0200
3457.00,0.0201
3456.00,0.0201
3455.00,0.0202
3454.00,0.0202
3453.00,0.0202
3452.00,0.0202
3451.00,0.0203
3450.00,0.0203
3449.00,0.0203
3448.00,0.0204
3447.00,0.0204
3446.00,0.0205
3445.00,0.0205
3444.00,0.0205
3443.00,0.0206
3442.00,0.0206
3441.00,0.0206
3440.00,0.0207
3439.00,0.0207
3438.00,0.0207
3437.00,0.0208
3436.00,0.0208
3435.00,0.0209
3434.00,0.0209
3433.00,0.0209
3432.00,0.0209
3431.00,0.0210
3430.00,0.0210
3429.00,0.0210
3428.00,0.0210
3427.00,0.0210
3426.00,0.0210
3425.00,0.0210
3424.00,0.0211
3423.00,0.0211
3422.00,0.0211
3421.00,0.0211
3420.00,0.0212
3419.00,0.0212
3418.00,0.0212
3417.00,0.0212
3416.00,0.0212
3415.00,0.0213
3414.00,0.0213
3413.00,0.0213
3412.00,0.0214
3411.00,0.0214
3410.00,0.0214
3409.00,0.0214
3408.00,0.0215
3407.00,0.0215
3406.00,0.0215
3405.00,0.0215
3404.00,0.0215
3403.00,0.0215
3402.00,0.0215
3401.00,0.0216
3400.00,0.0216
3399.00,0.0216
3398.00,0.0217
3397.00,0.0217
3396.00,0.0217
3395.00,0.0217
3394.00,0.0217
3393.00,0.0217
3392.00,0.0217
3391.00,0.0217
3390.00,0.0218
3389.00,0.0218
3388.00,0.0219
3387.00,0.0219
3386.00,0.0220
3385.00,0.0220
3384.00,0.0220
3383.00,0.0220
3382.00,0.0220
3381.00,0.0220
3380.00,0.0220
3379.00,0.0220
3378.00,0.0221
3377.00,0.0221
3376.00,0.0221
3375.00,0.0222
3374.00,0.0222
3373.00,0.0221
3372.00,0.0221
3371.00,0.0220
3370.00,0.0219
3369.00,0.0219
3368.00,0.0220
3367.00,0.0221
3366.00,0.0222
3365.00,0.0223
3364.00,0.0224
3363.00,0.0224
3362.00,0.0224
3361.00,0.0224
3360.00,0.0225
3359.00,0.0225
3358.00,0.0226
3357.00,0.0226
3356.00,0.0226
3355.00,0.0226
3354.00,0.0226
3353.00,0.0225
3352.00,0.0224
3351.00,0.0224
3350.00,0.0225
3349.00,0.0226
3348.00,0.0227
3347.00,0.0227
3346.00,0.0227
3345.00,0.0226
3344.00,0.0226
3343.00,0.0226
3342.00,0.0226
3341.00,0.0225
3340.00,0.0225
3339.00,0.0225
3338.00,0.0226
3337.00,0.0227
3336.00,0.0228
3335.00,0.0229
3334.00,0.0230
3333.00,0.0230
3332.00,0.0230
3331.00,0.0230
3330.00,0.0230
3329.00,0.0229
3328.00,0.0228
3327.00,0.0228
3326.00,0.0227
3325.00,0.0228
3324.00,0.0229
3323.00,0.0231
3322.00,0.0232
3321.00,0.0232
3320.00,0.0233
3319.00,0.0233
3318.00,0.0233
3317.00,0.0233
3316.00,0.0233
3315.00,0.0233
3314.00,0.0232
3313.00,0.0232
3312.00,0.0231
3311.00,0.0230
3310.00,0.0228
3309.00,0.0227
3308.00,0.0226
3307.00,0.0226
3306.00,0.0227
3305.00,0.0229
3304.00,0.0230
3303.00,0.0232
3302.00,0.0234
3301.00,0.0234
3300.00,0.0234
3299.00,0.0233
3298.00,0.0232
3297.00,0.0231
3296.00,0.0231
3295.00,0.0230
3294.00,0.0230
3293.00,0.0231
3292.00,0.0232
3291.00,0.0233
3290.00,0.0234
3289.00,0.0235
3288.00,0.0235
3287.00,0.0235
3286.00,0.0235
3285.00,0.0235
3284.00,0.0235
3283.00,0.0235
3282.00,0.0234
3281.00,0.0234
3280.00,0.0234
3279.00,0.0234
3278.00,0.0234
3277.00,0.0233
3276.00,0.0232
3275.00,0.0231
3274.00,0.0231
3273.00,0.0230
3272.00,0.0230
3271.00,0.0230
3270.00,0.0230
3269.00,0.0231
3268.00,0.0232
3267.00,0.0232
3266.00,0.0232
3265.00,0.0232
3264.00,0.0232
3263.00,0.0231
3262.00,0.0231
3261.00,0.0230
3260.00,0.0230
3259.00,0.0229
3258.00,0.0229
3257.00,0.0228
3256.00,0.0228
3255.00,0.0228
3254.00,0.0229
3253.00,0.0229
3252.00,0.0229
3251.00,0.0228
3250.00,0.0228
3249.00,0.0227
3248.00,0.0226
3247.00,0.0226
3246.00,0.0226
3245.00,0.0226
3244.00,0.0226
3243.00,0.0226
3242.00,0.0226
3241.00,0.0225
3240.00,0.0225
3239.00,0.0225
3238.00,0.0224
3237.00,0.0224
3236.00,0.0223
3235.00,0.0223
3234.00,0.0222
3233.00,0.0222
3232.00,0.0222
3231.00,0.0222
3230.00,0.0222
3229.00,0.0222
3228.00,0.0222
3227.00,0.0221
3226.00,0.0221
3225.00,0.0221
3224.00,0.0220
3223.00,0.0220
3222.00,0.0219
3221.00,0.0219
3220.00,0.0219
3219.00,0.0219
3218.00,0.0218
3217.00,0.0218
3216.00,0.0217
3215.00,0.0217
3214.00,0.0217
3213.00,0.0217
3212.00,0.0217
3211.00,0.0216
3210.00,0.0216
3209.00,0.0216
3208.00,0.0216
3207.00,0.0216
3206.00,0.0215
3205.00,0.0215
3204.00,0.0215
3203.00,0.0214
3202.00,0.0214
3201.00,0.0214
3200.00,0.0213
3199.00,0.0213
3198.00,0.0213
3197.00,0.0213
3196.00,0.0212
3195.00,0.0212
3194.00,0.0211
3193.00,0.0210
3192.00,0.0210
3191.00,0.0209
3190.00,0.0208
3189.00,0.0208
3188.00,0.0208
3187.00,0.0207
3186.00,0.0207
3185.00,0.0206
3184.00,0.0206
3183.00,0.0205
3182.00,0.0205
3181.00,0.0204
3180.00,0.0204
3179.00,0.0203
3178.00,0.0203
3177.00,0.0203
3176.00,0.0202
3175.00,0.0201
3174.00,0.0201
3173.00,0.0200
3172.00,0.0200
3171.00,0.0199
3170.00,0.0198
3169.00,0.0197
3168.00,0.0197
3167.00,0.0196
3166.00,0.0195
3165.00,0.0195
3164.00,0.0194
3163.00,0.0194
3162.00,0.0193
3161.00,0.0193
3160.00,0.0192
3159.00,0.0191
3158.00,0.0190
3157.00,0.0189
3156.00,0.0189
3155.00,0.0188
3154.00,0.0187
3153.00,0.0187
3152.00,0.0186
3151.00,0.0185
3150.00,0.0185
3149.00,0.0184
3148.00,0.0184
3147.00,0.0184
3146.00,0.0183
3145.00,0.0182
3144.00,0.0182
3143.00,0.0181
3142.00,0.0180
3141.00,0.0180
3140.00,0.0179
3139.00,0.0179
3138.00,0.0178
3137.00,0.0178
3136.00,0.0178
3135.00,0.0177
3134.00,0.0177
3133.00,0.0176
3132.00,0.0175
3131.00,0.0175
3130.00,0.0174
3129.00,0.0174
3128.00,0.0173
3127.00,0.0173
3126.00,0.0172
3125.00,0.0172
3124.00,0.0171
3123.00,0.0171
3122.00,0.0170
3121.00,0.0170
3120.00,0.0169
3119.00,0.0168
3118.00,0.0168
3117.00,0.0167
3116.00,0.0166
3115.00,0.0166
3114.00,0.0165
3113.00,0.0164
3112.00,0.0164
3111.00,0.0163
3110.00,0.0162
3109.00,0.0162
3108.00,0.0161
3107.00,0.0160
3106.00,0.0160
3105.00,0.0159
3104.00,0.0158
3103.00,0.0158
3102.00,0.0157
3101.00,0.0156
3100.00,0.0156
3099.00,0.0155
3098.00,0.0154
3097.00,0.0153
3096.00,0.0153
3095.00,0.0152
3094.00,0.0151
3093.00,0.0150
3092.00,0.0150
3091.00,0.0149
3090.00,0.0148
3089.00,0.0148
3088.00,0.0147
3087.00,0.0146
3086.00,0.0146
3085.00,0.0145
3084.00,0.0145
3083.00,0.0144
3082.00,0.0143
3081.00,0.0143
3080.00,0.0142
3079.00,0.0141
3078.00,0.0141
3077.00,0.0140
3076.00,0.0140
3075.00,0.0139
3074.00,0.0139
3073.00,0.0138
3072.00,0.0138
3071.00,0.0137
3070.00,0.0137
3069.00,0.0136
3068.00,0.0136
3067.00,0.0136
3066.00,0.0135
3065.00,0.0135
3064.00,0.0135
3063.00,0.0134
3062.00,0.0134
3061.00,0.0133
3060.00,0.0133
3059.00,0.0133
3058.00,0.0132
3057.00,0.0132
3056.00,0.0132
3055.00,0.0131
3054.00,0.0131
3053.00,0.0131
3052.00,0.0130
3051.00,0.0130
3050.00,0.0129
3049.00,0.0129
3048.00,0.0128
3047.00,0.0128
3046.00,0.0127
3045.00,0.0127
3044.00,0.0126
3043.00,0.0126
3042.00,0.0125
3041.00,0.0125
3040.00,0.0125
3039.00,0.0125
3038.00,0.0124
3037.00,0.0124
3036.00,0.0124
3035.00,0.0124
3034.00,0.0124
3033.00,0.0124
3032.00,0.0124
3031.00,0.0124
3030.00,0.0124
3029.00,0.0124
3028.00,0.0124
3027.00,0.0124
3026.00,0.0124
3025.00,0.0124
3024.00,0.0124
3023.00,0.0124
3022.00,0.0124
3021.00,0.0124
3020.00,0.0124
3019.00,0.0124
3018.00,0.0125
3017.00,0.0125
3016.00,0.0125
3015.00,0.0125
3014.00,0.0126
3013.00,0.0126
3012.00,0.0127
3011.00,0.0128
3010.00,0.0129
3009.00,0.0130
3008.00,0.0131
3007.00,0.0132
3006.00,0.0134
3005.00,0.0135
3004.00,0.0137
3003.00,0.0138
3002.00,0.0141
3001.00,0.0143
3000.00,0.0145
2999.00,0.0148
2998.00,0.0151
2997.00,0.0155
2996.00,0.0159
2995.00,0.0163
2994.00,0.0167
2993.00,0.0171
2992.00,0.0176
2991.00,0.0180
2990.00,0.0185
2989.00,0.0190
2988.00,0.0194
2987.00,0.0198
2986.00,0.0201
2985.00,0.0203
2984.00,0.0204
2983.00,0.0205
2982.00,0.0206
2981.00,0.0209
2980.00,0.0214
2979.00,0.0220
2978.00,0.0226
2977.00,0.0232
2976.00,0.0237
2975.00,0.0242
2974.00,0.0246
2973.00,0.0250
2972.00,0.0254
2971.00,0.0259
2970.00,0.0265
2969.00,0.0271
2968.00,0.0277
2967.00,0.0284
2966.00,0.0289
2965.00,0.0295
2964.00,0.0300
2963.00,0.0305
2962.00,0.0310
2961.00,0.0315
2960.00,0.0318
2959.00,0.0322
2958.00,0.0325
2957.00,0.0327
2956.00,0.0328
2955.00,0.0330
2954.00,0.0330
2953.00,0.0331
2952.00,0.0331
2951.00,0.0331
2950.00,0.0330
2949.00,0.0329
2948.00,0.0328
2947.00,0.0328
2946.00,0.0328
2945.00,0.0328
2944.00,0.0329
2943.00,0.0331
2942.00,0.0332
2941.00,0.0335
2940.00,0.0338
2939.00,0.0341
2938.00,0.0345
2937.00,0.0350
2936.00,0.0354
2935.00,0.0359
2934.00,0.0363
2933.00,0.0367
2932.00,0.0371
2931.00,0.0375
2930.00,0.0379
2929.00,0.0383
2928.00,0.0386
2927.00,0.0389
2926.00,0.0391
2925.00,0.0392
2924.00,0.0393
2923.00,0.0393
2922.00,0.0393
2921.00,0.0392
2920.00,0.0390
2919.00,0.0387
2918.00,0.0384
2917.00,0.0380
2916.00,0.0376
2915.00,0.0372
2914.00,0.0367
2913.00,0.0361
2912.00,0.0356
2911.00,0.0350
2910.00,0.0345
2909.00,0.0339
2908.00,0.0334
2907.00,0.0328
2906.00,0.0323
2905.00,0.0319
2904.00,0.0315
2903.00,0.0311
2902.00,0.0308
2901.00,0.0305
2900.00,0.0303
2899.00,0.0301
2898.00,0.0299
2897.00,0.0298
2896.00,0.0296
2895.00,0.0295
2894.00,0.0294
2893.00,0.0292
2892.00,0.0291
2891.00,0.0289
2890.00,0.0287
2889.00,0.0286
2888.00,0.0285
2887.00,0.0283
2886.00,0.0282
2885.00,0.0281
2884.00,0.0280
2883.00,0.0280
2882.00,0.0279
2881.00,0.0280
2880.00,0.0280
2879.00,0.0281
2878.00,0.0281
2877.00,0.0281
2876.00,0.0281
2875.00,0.0282
2874.00,0.0282
2873.00,0.0283
2872.00,0.0283
2871.00,0.0283
2870.00,0.0283
2869.00,0.0283
2868.00,0.0282
2867.00,0.0282
2866.00,0.0281
2865.00,0.0281
2864.00,0.0281
2863.00,0.0282
2862.00,0.0283
2861.00,0.0284
2860.00,0.0285
2859.00,0.0285
2858.00,0.0286
2857.00,0.0285
2856.00,0.0283
2855.00,0.0280
2854.00,0.0276
2853.00,0.0271
2852.00,0.0266
2851.00,0.0259
2850.00,0.0253
2849.00,0.0246
2848.00,0.0240
2847.00,0.0233
2846.00,0.0227
2845.00,0.0221
2844.00,0.0215
2843.00,0.0208
2842.00,0.0202
2841.00,0.0196
2840.00,0.0191
2839.00,0.0186
2838.00,0.0181
2837.00,0.0177
2836.00,0.0173
2835.00,0.0169
2834.00,0.0165
2833.00,0.0162
2832.00,0.0158
2831.00,0.0155
2830.00,0.0152
2829.00,0.0148
2828.00,0.0145
2827.00,0.0142
2826.00,0.0138
2825.00,0.0135
2824.00,0.0132
2823.00,0.0129
2822.00,0.0127
2821.00,0.0124
2820.00,0.0122
2819.00,0.0119
2818.00,0.0117
2817.00,0.0115
2816.00,0.0113
2815.00,0.0112
2814.00,0.0110
2813.00,0.0109
2812.00,0.0107
2811.00,0.0106
2810.00,0.0105
2809.00,0.0104
2808.00,0.0103
2807.00,0.0102
2806.00,0.0101
2805.00,0.0100
2804.00,0.0100
2803.00,0.0099
2802.00,0.0098
2801.00,0.0098
2800.00,0.0097
2799.00,0.0096
2798.00,0.0096
2797.00,0.0095
2796.00,0.0095
2795.00,0.0094
2794.00,0.0094
2793.00,0.0093
2792.00,0.0093
2791.00,0.0092
2790.00,0.0092
2789.00,0.0091
2788.00,0.0091
2787.00,0.0091
2786.00,0.0090
2785.00,0.0090
2784.00,0.0090
2783.00,0.0090
2782.00,0.0089
2781.00,0.0089
2780.00,0.0089
2779.00,0.0088
2778.00,0.0088
2777.00,0.0088
2776.00,0.0087
2775.00,0.0087
2774.00,0.0087
2773.00,0.0086
2772.00,0.0086
2771.00,0.0086
2770.00,0.0086
2769.00,0.0086
2768.00,0.0086
2767.00,0.0085
2766.00,0.0085
2765.00,0.0085
2764.00,0.0085
2763.00,0.0085
2762.00,0.0085
2761.00,0.0085
2760.00,0.0085
2759.00,0.0085
2758.00,0.0085
2757.00,0.0085
2756.00,0.0085
2755.00,0.0085
2754.00,0.0085
2753.00,0.0085
2752.00,0.0085
2751.00,0.0084
2750.00,0.0084
2749.00,0.0085
2748.00,0.0085
2747.00,0.0085
2746.00,0.0085
2745.00,0.0085
2744.00,0.0086
2743.00,0.0086
2742.00,0.0086
2741.00,0.0086
2740.00,0.0086
2739.00,0.0086
2738.00,0.0086
2737.00,0.0086
2736.00,0.0086
2735.00,0.0086
2734.00,0.0087
2733.00,0.0087
2732.00,0.0087
2731.00,0.0087
2730.00,0.0087
2729.00,0.0087
2728.00,0.0086
2727.00,0.0086
2726.00,0.0086
2725.00,0.0086
2724.00,0.0087
2723.00,0.0087
2722.00,0.0086
2721.00,0.0086
2720.00,0.0086
2719.00,0.0086
2718.00,0.0086
2717.00,0.0085
2716.00,0.0085
2715.00,0.0085
2714.00,0.0085
2713.00,0.0085
2712.00,0.0085
2711.00,0.0085
2710.00,0.0084
2709.00,0.0084
2708.00,0.0084
2707.00,0.0084
2706.00,0.0084
2705.00,0.0084
2704.00,0.0084
2703.00,0.0083
2702.00,0.0083
2701.00,0.0083
2700.00,0.0082
2699.00,0.0082
2698.00,0.0082
2697.00,0.0082
2696.00,0.0082
2695.00,0.0082
2694.00,0.0082
2693.00,0.0082
2692.00,0.0081
2691.00,0.0081
2690.00,0.0081
2689.00,0.0081
2688.00,0.0081
2687.00,0.0081
2686.00,0.0080
2685.00,0.0080
2684.00,0.0080
2683.00,0.0080
2682.00,0.0079
2681.00,0.0079
2680.00,0.0079
2679.00,0.0079
2678.00,0.0079
2677.00,0.0079
2676.00,0.0079
2675.00,0.0078
2674.00,0.0078
2673.00,0.0078
2672.00,0.0078
2671.00,0.0078
2670.00,0.0078
2669.00,0.0078
2668.00,0.0078
2667.00,0.0078
2666.00,0.0079
2665.00,0.0079
2664.00,0.0080
2663.00,0.0080
2662.00,0.0081
2661.00,0.0081
2660.00,0.0081
2659.00,0.0081
2658.00,0.0081
2657.00,0.0081
2656.00,0.0081
2655.00,0.0081
2654.00,0.0081
2653.00,0.0081
2652.00,0.0081
2651.00,0.0081
2650.00,0.0080
2649.00,0.0080
2648.00,0.0080
2647.00,0.0080
2646.00,0.0079
2645.00,0.0079
2644.00,0.0079
2643.00,0.0079
2642.00,0.0078
2641.00,0.0078
2640.00,0.0078
2639.00,0.0078
2638.00,0.0078
2637.00,0.0078
2636.00,0.0077
2635.00,0.0077
2634.00,0.0077
2633.00,0.0076
2632.00,0.0076
2631.00,0.0076
2630.00,0.0076
2629.00,0.0076
2628.00,0.0076
2627.00,0.0075
2626.00,0.0075
2625.00,0.0075
2624.00,0.0074
2623.00,0.0074
2622.00,0.0074
2621.00,0.0074
2620.00,0.0074
2619.00,0.0074
2618.00,0.0073
2617.00,0.0073
2616.00,0.0073
2615.00,0.0073
2614.00,0.0072
2613.00,0.0072
2612.00,0.0072
2611.00,0.0071
2610.00,0.0071
2609.00,0.0070
2608.00,0.0070
2607.00,0.0070
2606.00,0.0070
2605.00,0.0070
2604.00,0.0070
2603.00,0.0070
2602.00,0.0069
2601.00,0.0069
2600.00,0.0069
2599.00,0.0070
2598.00,0.0069
2597.00,0.0069
2596.00,0.0069
2595.00,0.0069
2594.00,0.0069
2593.00,0.0069
2592.00,0.0069
2591.00,0.0069
2590.00,0.0069
2589.00,0.0069
2588.00,0.0069
2587.00,0.0069
2586.00,0.0069
2585.00,0.0069
2584.00,0.0069
2583.00,0.0069
2582.00,0.0068
2581.00,0.0068
2580.00,0.0068
2579.00,0.0068
2578.00,0.0068
2577.00,0.0068
2576.00,0.0068
2575.00,0.0068
2574.00,0.0067
2573.00,0.0067
2572.00,0.0066
2571.00,0.0066
2570.00,0.0066
2569.00,0.0067
2568.00,0.0067
2567.00,0.0067
2566.00,0.0066
2565.00,0.0066
2564.00,0.0066
2563.00,0.0066
2562.00,0.0065
2561.00,0.0065
2560.00,0.0065
2559.00,0.0065
2558.00,0.0064
2557.00,0.0064
2556.00,0.0064
2555.00,0.0064
2554.00,0.0064
2553.00,0.0064
2552.00,0.0064
2551.00,0.0064
2550.00,0.0063
2549.00,0.0063
2548.00,0.0063
2547.00,0.0062
2546.00,0.0062
2545.00,0.0061
2544.00,0.0061
2543.00,0.0061
2542.00,0.0061
2541.00,0.0061
2540.00,0.0061
2539.00,0.0061
2538.00,0.0061
2537.00,0.0061
2536.00,0.0062
2535.00,0.0062
2534.00,0.0061
2533.00,0.0061
2532.00,0.0060
2531.00,0.0060
2530.00,0.0060
2529.00,0.0060
2528.00,0.0060
2527.00,0.0060
2526.00,0.0060
2525.00,0.0060
2524.00,0.0060
2523.00,0.0060
2522.00,0.0059
2521.00,0.0059
2520.00,0.0058
2519.00,0.0058
2518.00,0.0058
2517.00,0.0058
2516.00,0.0058
2515.00,0.0058
2514.00,0.0058
2513.00,0.0058
2512.00,0.0057
2511.00,0.0057
2510.00,0.0057
2509.00,0.0057
2508.00,0.0057
2507.00,0.0056
2506.00,0.0056
2505.00,0.0056
2504.00,0.0055
2503.00,0.0055
2502.00,0.0055
2501.00,0.0055
2500.00,0.0055
2499.00,0.0055
2498.00,0.0055
2497.00,0.0056
2496.00,0.0056
2495.00,0.0056
2494.00,0.0055
2493.00,0.0055
2492.00,0.0055
2491.00,0.0055
2490.00,0.0055
2489.00,0.0055
2488.00,0.0055
2487.00,0.0055
2486.00,0.0055
2485.00,0.0055
2484.00,0.0055
2483.00,0.0055
2482.00,0.0055
2481.00,0.0055
2480.00,0.0055
2479.00,0.0054
2478.00,0.0054
2477.00,0.0054
2476.00,0.0054
2475.00,0.0054
2474.00,0.0054
2473.00,0.0053
2472.00,0.0053
2471.00,0.0053
2470.00,0.0053
2469.00,0.0053
2468.00,0.0054
2467.00,0.0054
2466.00,0.0054
2465.00,0.0054
2464.00,0.0054
2463.00,0.0054
2462.00,0.0054
2461.00,0.0054
2460.00,0.0054
2459.00,0.0054
2458.00,0.0055
2457.00,0.0055
2456.00,0.0055
2455.00,0.0055
2454.00,0.0055
2453.00,0.0054
2452.00,0.0054
2451.00,0.0054
2450.00,0.0054
2449.00,0.0054
2448.00,0.0054
2447.00,0.0054
2446.00,0.0054
2445.00,0.0054
2444.00,0.0054
2443.00,0.0053
2442.00,0.0053
2441.00,0.0053
2440.00,0.0053
2439.00,0.0053
2438.00,0.0053
2437.00,0.0053
2436.00,0.0053
2435.00,0.0053
2434.00,0.0053
2433.00,0.0053
2432.00,0.0053
2431.00,0.0053
2430.00,0.0053
2429.00,0.0052
2428.00,0.0052
2427.00,0.0051
2426.00,0.0051
2425.00,0.0051
2424.00,0.0051
2423.00,0.0051
2422.00,0.0051
2421.00,0.0052
2420.00,0.0052
2419.00,0.0052
2418.00,0.0051
2417.00,0.0051
2416.00,0.0051
2415.00,0.0051
2414.00,0.0051
2413.00,0.0051
2412.00,0.0051
2411.00,0.0052
2410.00,0.0051
2409.00,0.0051
2408.00,0.0050
2407.00,0.0050
2406.00,0.0050
2405.00,0.0050
2404.00,0.0050
2403.00,0.0050
2402.00,0.0050
2401.00,0.0050
2400.00,0.0050
2399.00,0.0050
2398.00,0.0050
2397.00,0.0049
2396.00,0.0049
2395.00,0.0049
2394.00,0.0050
2393.00,0.0050
2392.00,0.0049
2391.00,0.0049
2390.00,0.0049
2389.00,0.0049
2388.00,0.0048
2387.00,0.0048
2386.00,0.0048
2385.00,0.0047
2384.00,0.0046
2383.00,0.0045
2382.00,0.0045
2381.00,0.0044
2380.00,0.0044
2379.00,0.0044
2378.00,0.0044
2377.00,0.0044
2376.00,0.0044
2375.00,0.0044
2374.00,0.0044
2373.00,0.0044
2372.00,0.0044
2371.00,0.0043
2370.00,0.0042
2369.00,0.0042
2368.00,0.0042
2367.00,0.0042
2366.00,0.0043
2365.00,0.0043
2364.00,0.0043
2363.00,0.0043
2362.00,0.0044
2361.00,0.0044
2360.00,0.0044
2359.00,0.0044
2358.00,0.0044
2357.00,0.0044
2356.00,0.0045
2355.00,0.0045
2354.00,0.0045
2353.00,0.0045
2352.00,0.0044
2351.00,0.0044
2350.00,0.0045
2349.00,0.0046
2348.00,0.0047
2347.00,0.0048
2346.00,0.0048
2345.00,0.0047
2344.00,0.0048
2343.00,0.0048
2342.00,0.0049
2341.00,0.0049
2340.00,0.0050
2339.00,0.0050
2338.00,0.0050
2337.00,0.0050
2336.00,0.0050
2335.00,0.0050
2334.00,0.0050
2333.00,0.0050
2332.00,0.0050
2331.00,0.0050
2330.00,0.0051
2329.00,0.0053
2328.00,0.0058
2327.00,0.0063
2326.00,0.0066
2325.00,0.0067
2324.00,0.0065
2323.00,0.0063
2322.00,0.0060
2321.00,0.0059
2320.00,0.0058
2319.00,0.0057
2318.00,0.0057
2317.00,0.0057
2316.00,0.0057
2315.00,0.0056
2314.00,0.0055
2313.00,0.0055
2312.00,0.0054
2311.00,0.0054
2310.00,0.0053
2309.00,0.0053
2308.00,0.0054
2307.00,0.0054
2306.00,0.0054
2305.00,0.0054
2304.00,0.0055
2303.00,0.0055
2302.00,0.0055
2301.00,0.0056
2300.00,0.0056
2299.00,0.0056
2298.00,0.0056
2297.00,0.0057
2296.00,0.0058
2295.00,0.0059
2294.00,0.0060
2293.00,0.0061
2292.00,0.0062
2291.00,0.0063
2290.00,0.0064
2289.00,0.0065
2288.00,0.0065
2287.00,0.0065
2286.00,0.0064
2285.00,0.0063
2284.00,0.0062
2283.00,0.0062
2282.00,0.0061
2281.00,0.0061
2280.00,0.0060
2279.00,0.0059
2278.00,0.0058
2277.00,0.0058
2276.00,0.0058
2275.00,0.0057
2274.00,0.0057
2273.00,0.0057
2272.00,0.0057
2271.00,0.0056
2270.00,0.0055
2269.00,0.0055
2268.00,0.0054
2267.00,0.0053
2266.00,0.0053
2265.00,0.0053
2264.00,0.0054
2263.00,0.0055
2262.00,0.0056
2261.00,0.0057
2260.00,0.0057
2259.00,0.0057
2258.00,0.0056
2257.00,0.0055
2256.00,0.0053
2255.00,0.0052
2254.00,0.0052
2253.00,0.0052
2252.00,0.0053
2251.00,0.0053
2250.00,0.0053
2249.00,0.0053
2248.00,0.0053
2247.00,0.0053
2246.00,0.0053
2245.00,0.0052
2244.00,0.0053
2243.00,0.0053
2242.00,0.0053
2241.00,0.0054
2240.00,0.0055
2239.00,0.0055
2238.00,0.0055
2237.00,0.0055
2236.00,0.0055
2235.00,0.0054
2234.00,0.0054
2233.00,0.0054
2232.00,0.0055
2231.00,0.0055
2230.00,0.0055
2229.00,0.0055
2228.00,0.0055
2227.00,0.0054
2226.00,0.0053
2225.00,0.0052
2224.00,0.0053
2223.00,0.0053
2222.00,0.0054
2221.00,0.0055
2220.00,0.0056
2219.00,0.0055
2218.00,0.0054
2217.00,0.0054
2216.00,0.0054
2215.00,0.0055
2214.00,0.0055
2213.00,0.0055
2212.00,0.0055
2211.00,0.0054
2210.00,0.0053
2209.00,0.0052
2208.00,0.0052
2207.00,0.0052
2206.00,0.0052
2205.00,0.0053
2204.00,0.0054
2203.00,0.0055
2202.00,0.0055
2201.00,0.0055
2200.00,0.0055
2199.00,0.0055
2198.00,0.0055
2197.00,0.0056
2196.00,0.0058
2195.00,0.0059
2194.00,0.0059
2193.00,0.0059
2192.00,0.0059
2191.00,0.0059
2190.00,0.0059
2189.00,0.0060
2188.00,0.0061
2187.00,0.0061
2186.00,0.0060
2185.00,0.0058
2184.00,0.0055
2183.00,0.0051
2182.00,0.0049
2181.00,0.0048
2180.00,0.0050
2179.00,0.0050
2178.00,0.0049
2177.00,0.0048
2176.00,0.0047
2175.00,0.0047
2174.00,0.0049
2173.00,0.0051
2172.00,0.0054
2171.00,0.0057
2170.00,0.0059
2169.00,0.0062
2168.00,0.0065
2167.00,0.0067
2166.00,0.0068
2165.00,0.0069
2164.00,0.0070
2163.00,0.0067
2162.00,0.0057
2161.00,0.0042
2160.00,0.0026
2159.00,0.0015
2158.00,0.0011
2157.00,0.0014
2156.00,0.0018
2155.00,0.0021
2154.00,0.0023
2153.00,0.0025
2152.00,0.0027
2151.00,0.0028
2150.00,0.0028
2149.00,0.0028
2148.00,0.0029
2147.00,0.0030
2146.00,0.0031
2145.00,0.0031
2144.00,0.0032
2143.00,0.0033
2142.00,0.0033
2141.00,0.0033
2140.00,0.0034
2139.00,0.0034
2138.00,0.0032
2137.00,0.0029
2136.00,0.0027
2135.00,0.0025
2134.00,0.0025
2133.00,0.0027
2132.00,0.0029
2131.00,0.0032
2130.00,0.0034
2129.00,0.0036
2128.00,0.0038
2127.00,0.0039
2126.00,0.0040
2125.00,0.0042
2124.00,0.0043
2123.00,0.0044
2122.00,0.0044
2121.00,0.0044
2120.00,0.0045
2119.00,0.0046
2118.00,0.0047
2117.00,0.0049
2116.00,0.0050
2115.00,0.0051
2114.00,0.0052
2113.00,0.0052
2112.00,0.0052
2111.00,0.0051
2110.00,0.0050
2109.00,0.0049
2108.00,0.0049
2107.00,0.0048
2106.00,0.0048
2105.00,0.0048
2104.00,0.0048
2103.00,0.0047
2102.00,0.0047
2101.00,0.0046
2100.00,0.0046
2099.00,0.0046
2098.00,0.0044
2097.00,0.0042
2096.00,0.0042
2095.00,0.0041
2094.00,0.0042
2093.00,0.0043
2092.00,0.0045
2091.00,0.0046
2090.00,0.0046
2089.00,0.0046
2088.00,0.0047
2087.00,0.0048
2086.00,0.0048
2085.00,0.0050
2084.00,0.0051
2083.00,0.0051
2082.00,0.0051
2081.00,0.0051
2080.00,0.0051
2079.00,0.0051
2078.00,0.0050
2077.00,0.0049
2076.00,0.0049
2075.00,0.0049
2074.00,0.0049
2073.00,0.0049
2072.00,0.0049
2071.00,0.0049
2070.00,0.0049
2069.00,0.0049
2068.00,0.0049
2067.00,0.0049
2066.00,0.0048
2065.00,0.0048
2064.00,0.0047
2063.00,0.0047
2062.00,0.0046
2061.00,0.0045
2060.00,0.0046
2059.00,0.0047
2058.00,0.0047
2057.00,0.0047
2056.00,0.0047
2055.00,0.0047
2054.00,0.0050
2053.00,0.0055
2052.00,0.0059
2051.00,0.0059
2050.00,0.0054
2049.00,0.0050
2048.00,0.0047
2047.00,0.0046
2046.00,0.0045
2045.00,0.0045
2044.00,0.0046
2043.00,0.0047
2042.00,0.0048
2041.00,0.0049
2040.00,0.0051
2039.00,0.0052
2038.00,0.0052
2037.00,0.0051
2036.00,0.0049
2035.00,0.0046
2034.00,0.0042
2033.00,0.0039
2032.00,0.0038
2031.00,0.0037
2030.00,0.0036
2029.00,0.0035
2028.00,0.0035
2027.00,0.0034
2026.00,0.0034
2025.00,0.0036
2024.00,0.0038
2023.00,0.0040
2022.00,0.0040
2021.00,0.0040
2020.00,0.0041
2019.00,0.0041
2018.00,0.0041
2017.00,0.0041
2016.00,0.0042
2015.00,0.0043
2014.00,0.0042
2013.00,0.0041
2012.00,0.0041
2011.00,0.0041
2010.00,0.0040
2009.00,0.0037
2008.00,0.0033
2007.00,0.0030
2006.00,0.0028
2005.00,0.0029
2004.00,0.0032
2003.00,0.0035
2002.00,0.0036
2001.00,0.0038
2000.00,0.0039
1999.00,0.0040
1998.00,0.0040
1997.00,0.0040
1996.00,0.0041
1995.00,0.0042
1994.00,0.0042
1993.00,0.0042
1992.00,0.0044
1991.00,0.0045
1990.00,0.0045
1989.00,0.0046
1988.00,0.0047
1987.00,0.0048
1986.00,0.0049
1985.00,0.0050
1984.00,0.0053
1983.00,0.0056
1982.00,0.0057
1981.00,0.0056
1980.00,0.0053
1979.00,0.0046
1978.00,0.0039
1977.00,0.0034
1976.00,0.0033
1975.00,0.0032
1974.00,0.0030
1973.00,0.0029
1972.00,0.0029
1971.00,0.0029
1970.00,0.0028
1969.00,0.0028
1968.00,0.0029
1967.00,0.0029
1966.00,0.0029
1965.00,0.0030
1964.00,0.0032
1963.00,0.0033
1962.00,0.0030
1961.00,0.0028
1960.00,0.0026
1959.00,0.0026
1958.00,0.0026
1957.00,0.0028
1956.00,0.0030
1955.00,0.0032
1954.00,0.0031
1953.00,0.0032
1952.00,0.0033
1951.00,0.0033
1950.00,0.0034
1949.00,0.0034
1948.00,0.0034
1947.00,0.0034
1946.00,0.0033
1945.00,0.0033
1944.00,0.0034
1943.00,0.0033
1942.00,0.0032
1941.00,0.0032
1940.00,0.0032
1939.00,0.0032
1938.00,0.0033
1937.00,0.0033
1936.00,0.0034
1935.00,0.0034
1934.00,0.0033
1933.00,0.0033
1932.00,0.0034
1931.00,0.0034
1930.00,0.0034
1929.00,0.0034
1928.00,0.0034
1927.00,0.0034
1926.00,0.0034
1925.00,0.0035
1924.00,0.0036
1923.00,0.0036
1922.00,0.0037
1921.00,0.0037
1920.00,0.0038
1919.00,0.0038
1918.00,0.0037
1917.00,0.0037
1916.00,0.0037
1915.00,0.0037
1914.00,0.0037
1913.00,0.0037
1912.00,0.0038
1911.00,0.0038
1910.00,0.0038
1909.00,0.0038
1908.00,0.0038
1907.00,0.0038
1906.00,0.0037
1905.00,0.0038
1904.00,0.0039
1903.00,0.0039
1902.00,0.0039
1901.00,0.0039
1900.00,0.0039
1899.00,0.0039
1898.00,0.0039
1897.00,0.0039
1896.00,0.0039
1895.00,0.0039
1894.00,0.0039
1893.00,0.0039
1892.00,0.0040
1891.00,0.0040
1890.00,0.0040
1889.00,0.0039
1888.00,0.0040
1887.00,0.0040
1886.00,0.0040
1885.00,0.0039
1884.00,0.0039
1883.00,0.0039
1882.00,0.0038
1881.00,0.0038
1880.00,0.0038
1879.00,0.0038
1878.00,0.0038
1877.00,0.0039
1876.00,0.0039
1875.00,0.0040
1874.00,0.0040
1873.00,0.0040
1872.00,0.0040
1871.00,0.0041
1870.00,0.0040
1869.00,0.0040
1868.00,0.0040
1867.00,0.0039
1866.00,0.0039
1865.00,0.0039
1864.00,0.0039
1863.00,0.0039
1862.00,0.0039
1861.00,0.0039
1860.00,0.0040
1859.00,0.0040
1858.00,0.0040
1857.00,0.0040
1856.00,0.0040
1855.00,0.0040
1854.00,0.0040
1853.00,0.0040
1852.00,0.0041
1851.00,0.0041
1850.00,0.0041
1849.00,0.0041
1848.00,0.0042
1847.00,0.0042
1846.00,0.0041
1845.00,0.0040
1844.00,0.0040
1843.00,0.0040
1842.00,0.0040
1841.00,0.0041
1840.00,0.0041
1839.00,0.0042
1838.00,0.0041
1837.00,0.0041
1836.00,0.0041
1835.00,0.0041
1834.00,0.0041
1833.00,0.0042
1832.00,0.0042
1831.00,0.0042
1830.00,0.0042
1829.00,0.0041
1828.00,0.0042
1827.00,0.0042
1826.00,0.0042
1825.00,0.0041
1824.00,0.0042
1823.00,0.0042
1822.00,0.0041
1821.00,0.0041
1820.00,0.0040
1819.00,0.0039
1818.00,0.0038
1817.00,0.0037
1816.00,0.0038
1815.00,0.0039
1814.00,0.0040
1813.00,0.0041
1812.00,0.0042
1811.00,0.0042
1810.00,0.0041
1809.00,0.0041
1808.00,0.0041
1807.00,0.0041
1806.00,0.0042
1805.00,0.0042
1804.00,0.0043
1803.00,0.0044
1802.00,0.0043
1801.00,0.0043
1800.00,0.0043
1799.00,0.0043
1798.00,0.0043
1797.00,0.0043
1796.00,0.0044
1795.00,0.0044
1794.00,0.0044
1793.00,0.0044
1792.00,0.0044
1791.00,0.0043
1790.00,0.0043
1789.00,0.0043
1788.00,0.0043
1787.00,0.0044
1786.00,0.0044
1785.00,0.0044
1784.00,0.0045
1783.00,0.0045
1782.00,0.0046
1781.00,0.0046
1780.00,0.0046
1779.00,0.0045
1778.00,0.0045
1777.00,0.0046
1776.00,0.0047
1775.00,0.0048
1774.00,0.0047
1773.00,0.0047
1772.00,0.0047
1771.00,0.0047
1770.00,0.0047
1769.00,0.0047
1768.00,0.0048
1767.00,0.0048
1766.00,0.0048
1765.00,0.0049
1764.00,0.0049
1763.00,0.0049
1762.00,0.0049
1761.00,0.0049
1760.00,0.0050
1759.00,0.0051
1758.00,0.0051
1757.00,0.0051
1756.00,0.0052
1755.00,0.0053
1754.00,0.0053
1753.00,0.0054
1752.00,0.0055
1751.00,0.0056
1750.00,0.0056
1749.00,0.0057
1748.00,0.0058
1747.00,0.0058
1746.00,0.0059
1745.00,0.0059
1744.00,0.0060
1743.00,0.0061
1742.00,0.0060
1741.00,0.0060
1740.00,0.0060
1739.00,0.0061
1738.00,0.0061
1737.00,0.0062
1736.00,0.0064
1735.00,0.0064
1734.00,0.0065
1733.00,0.0066
1732.00,0.0069
1731.00,0.0070
1730.00,0.0071
1729.00,0.0071
1728.00,0.0073
1727.00,0.0074
1726.00,0.0075
1725.00,0.0077
1724.00,0.0079
1723.00,0.0081
1722.00,0.0082
1721.00,0.0084
1720.00,0.0087
1719.00,0.0091
1718.00,0.0094
1717.00,0.0097
1716.00,0.0102
1715.00,0.0105
1714.00,0.0108
1713.00,0.0112
1712.00,0.0118
1711.00,0.0124
1710.00,0.0130
1709.00,0.0137
1708.00,0.0146
1707.00,0.0157
1706.00,0.0169
1705.00,0.0184
1704.00,0.0199
1703.00,0.0210
1702.00,0.0223
1701.00,0.0249
1700.00,0.0291
1699.00,0.0328
1698.00,0.0355
1697.00,0.0388
1696.00,0.0437
1695.00,0.0491
1694.00,0.0534
1693.00,0.0568
1692.00,0.0604
1691.00,0.0647
1690.00,0.0696
1689.00,0.0745
1688.00,0.0785
1687.00,0.0815
1686.00,0.0847
1685.00,0.0905
1684.00,0.0991
1683.00,0.1060
1682.00,0.1096
1681.00,0.1118
1680.00,0.1141
1679.00,0.1161
1678.00,0.1176
1677.00,0.1193
1676.00,0.1224
1675.00,0.1267
1674.00,0.1301
1673.00,0.1317
1672.00,0.1327
1671.00,0.1346
1670.00,0.1383
1669.00,0.1429
1668.00,0.1466
1667.00,0.1486
1666.00,0.1493
1665.00,0.1501
1664.00,0.1522
1663.00,0.1559
1662.00,0.1600
1661.00,0.1628
1660.00,0.1644
1659.00,0.1652
1658.00,0.1653
1657.00,0.1644
1656.00,0.1627
1655.00,0.1613
1654.00,0.1636
1653.00,0.1702
1652.00,0.1740
1651.00,0.1721
1650.00,0.1674
1649.00,0.1625
1648.00,0.1590
1647.00,0.1569
1646.00,0.1549
1645.00,0.1514
1644.00,0.1465
1643.00,0.1410
1642.00,0.1354
1641.00,0.1297
1640.00,0.1242
1639.00,0.1187
1638.00,0.1132
1637.00,0.1080
1636.00,0.1034
1635.00,0.0994
1634.00,0.0954
1633.00,0.0912
1632.00,0.0870
1631.00,0.0830
1630.00,0.0794
1629.00,0.0763
1628.00,0.0737
1627.00,0.0714
1626.00,0.0693
1625.00,0.0674
1624.00,0.0659
1623.00,0.0649
1622.00,0.0640
1621.00,0.0627
1620.00,0.0611
1619.00,0.0594
1618.00,0.0580
1617.00,0.0568
1616.00,0.0557
1615.00,0.0543
1614.00,0.0527
1613.00,0.0508
1612.00,0.0491
1611.00,0.0476
1610.00,0.0464
1609.00,0.0455
1608.00,0.0448
1607.00,0.0445
1606.00,0.0445
1605.00,0.0448
1604.00,0.0453
1603.00,0.0461
1602.00,0.0468
1601.00,0.0475
1600.00,0.0479
1599.00,0.0480
1598.00,0.0477
1597.00,0.0471
1596.00,0.0463
1595.00,0.0451
1594.00,0.0439
1593.00,0.0425
1592.00,0.0411
1591.00,0.0398
1590.00,0.0386
1589.00,0.0375
1588.00,0.0364
1587.00,0.0353
1586.00,0.0343
1585.00,0.0333
1584.00,0.0322
1583.00,0.0311
1582.00,0.0300
1581.00,0.0289
1580.00,0.0279
1579.00,0.0269
1578.00,0.0260
1577.00,0.0251
1576.00,0.0243
1575.00,0.0237
1574.00,0.0230
1573.00,0.0224
1572.00,0.0217
1571.00,0.0211
1570.00,0.0207
1569.00,0.0203
1568.00,0.0199
1567.00,0.0196
1566.00,0.0192
1565.00,0.0189
1564.00,0.0186
1563.00,0.0183
1562.00,0.0179
1561.00,0.0174
1560.00,0.0171
1559.00,0.0171
1558.00,0.0171
1557.00,0.0171
1556.00,0.0170
1555.00,0.0168
1554.00,0.0167
1553.00,0.0166
1552.00,0.0165
1551.00,0.0164
1550.00,0.0163
1549.00,0.0162
1548.00,0.0162
1547.00,0.0161
1546.00,0.0161
1545.00,0.0162
1544.00,0.0162
1543.00,0.0161
1542.00,0.0160
1541.00,0.0160
1540.00,0.0161
1539.00,0.0161
1538.00,0.0161
1537.00,0.0160
1536.00,0.0158
1535.00,0.0157
1534.00,0.0156
1533.00,0.0156
1532.00,0.0155
1531.00,0.0155
1530.00,0.0154
1529.00,0.0154
1528.00,0.0154
1527.00,0.0154
1526.00,0.0154
1525.00,0.0155
1524.00,0.0155
1523.00,0.0155
1522.00,0.0156
1521.00,0.0158
1520.00,0.0159
1519.00,0.0160
1518.00,0.0161
1517.00,0.0162
1516.00,0.0163
1515.00,0.0164
1514.00,0.0164
1513.00,0.0165
1512.00,0.0167
1511.00,0.0170
1510.00,0.0173
1509.00,0.0177
1508.00,0.0184
1507.00,0.0194
1506.00,0.0207
1505.00,0.0219
1504.00,0.0231
1503.00,0.0242
1502.00,0.0254
1501.00,0.0269
1500.00,0.0286
1499.00,0.0305
1498.00,0.0325
1497.00,0.0346
1496.00,0.0364
1495.00,0.0375
1494.00,0.0379
1493.00,0.0376
1492.00,0.0370
1491.00,0.0359
1490.00,0.0346
1489.00,0.0330
1488.00,0.0311
1487.00,0.0291
1486.00,0.0273
1485.00,0.0258
1484.00,0.0245
1483.00,0.0234
1482.00,0.0226
1481.00,0.0222
1480.00,0.0220
1479.00,0.0219
1478.00,0.0222
1477.00,0.0228
1476.00,0.0237
1475.00,0.0247
1474.00,0.0264
1473.00,0.0291
1472.00,0.0325
1471.00,0.0359
1470.00,0.0391
1469.00,0.0422
1468.00,0.0456
1467.00,0.0492
1466.00,0.0536
1465.00,0.0587
1464.00,0.0634
1463.00,0.0666
1462.00,0.0681
1461.00,0.0685
1460.00,0.0681
1459.00,0.0670
1458.00,0.0655
1457.00,0.0637
1456.00,0.0617
1455.00,0.0597
1454.00,0.0580
1453.00,0.0567
1452.00,0.0560
1451.00,0.0559
1450.00,0.0565
1449.00,0.0580
1448.00,0.0605
1447.00,0.0634
1446.00,0.0665
1445.00,0.0696
1444.00,0.0728
1443.00,0.0762
1442.00,0.0796
1441.00,0.0827
1440.00,0.0853
1439.00,0.0873
1438.00,0.0898
1437.00,0.0935
1436.00,0.0976
1435.00,0.1004
1434.00,0.1020
1433.00,0.1032
1432.00,0.1046
1431.00,0.1064
1430.00,0.1084
1429.00,0.1105
1428.00,0.1121
1427.00,0.1132
1426.00,0.1142
1425.00,0.1155
1424.00,0.1168
1423.00,0.1171
1422.00,0.1159
1421.00,0.1133
1420.00,0.1097
1419.00,0.1048
1418.00,0.0988
1417.00,0.0923
1416.00,0.0856
1415.00,0.0789
1414.00,0.0726
1413.00,0.0670
1412.00,0.0620
1411.00,0.0577
1410.00,0.0540
1409.00,0.0509
1408.00,0.0483
1407.00,0.0462
1406.00,0.0444
1405.00,0.0429
1404.00,0.0417
1403.00,0.0406
1402.00,0.0396
1401.00,0.0388
1400.00,0.0382
1399.00,0.0377
1398.00,0.0375
1397.00,0.0372
1396.00,0.0370
1395.00,0.0369
1394.00,0.0370
1393.00,0.0372
1392.00,0.0374
1391.00,0.0376
1390.00,0.0380
1389.00,0.0387
1388.00,0.0397
1387.00,0.0410
1386.00,0.0424
1385.00,0.0435
1384.00,0.0446
1383.00,0.0456
1382.00,0.0468
1381.00,0.0479
1380.00,0.0489
1379.00,0.0498
1378.00,0.0505
1377.00,0.0509
1376.00,0.0511
1375.00,0.0511
1374.00,0.0509
1373.00,0.0504
1372.00,0.0496
1371.00,0.0487
1370.00,0.0477
1369.00,0.0468
1368.00,0.0459
1367.00,0.0449
1366.00,0.0438
1365.00,0.0427
1364.00,0.0417
1363.00,0.0406
1362.00,0.0396
1361.00,0.0386
1360.00,0.0376
1359.00,0.0367
1358.00,0.0360
1357.00,0.0354
1356.00,0.0349
1355.00,0.0344
1354.00,0.0340
1353.00,0.0337
1352.00,0.0332
1351.00,0.0328
1350.00,0.0323
1349.00,0.0318
1348.00,0.0313
1347.00,0.0308
1346.00,0.0303
1345.00,0.0300
1344.00,0.0296
1343.00,0.0294
1342.00,0.0292
1341.00,0.0293
1340.00,0.0294
1339.00,0.0295
1338.00,0.0297
1337.00,0.0298
1336.00,0.0300
1335.00,0.0302
1334.00,0.0306
1333.00,0.0310
1332.00,0.0315
1331.00,0.0322
1330.00,0.0331
1329.00,0.0341
1328.00,0.0352
1327.00,0.0365
1326.00,0.0379
1325.00,0.0394
1324.00,0.0410
1323.00,0.0426
1322.00,0.0442
1321.00,0.0456
1320.00,0.0468
1319.00,0.0478
1318.00,0.0485
1317.00,0.0488
1316.00,0.0487
1315.00,0.0483
1314.00,0.0477
1313.00,0.0468
1312.00,0.0459
1311.00,0.0449
1310.00,0.0440
1309.00,0.0432
1308.00,0.0427
1307.00,0.0424
1306.00,0.0425
1305.00,0.0429
1304.00,0.0437
1303.00,0.0450
1302.00,0.0469
1301.00,0.0494
1300.00,0.0526
1299.00,0.0566
1298.00,0.0614
1297.00,0.0669
1296.00,0.0731
1295.00,0.0797
1294.00,0.0865
1293.00,0.0932
1292.00,0.0995
1291.00,0.1051
1290.00,0.1098
1289.00,0.1136
1288.00,0.1162
1287.00,0.1176
1286.00,0.1178
1285.00,0.1168
1284.00,0.1149
1283.00,0.1124
1282.00,0.1096
1281.00,0.1070
1280.00,0.1047
1279.00,0.1031
1278.00,0.1023
1277.00,0.1021
1276.00,0.1025
1275.00,0.1032
1274.00,0.1038
1273.00,0.1042
1272.00,0.1041
1271.00,0.1034
1270.00,0.1020
1269.00,0.0998
1268.00,0.0969
1267.00,0.0936
1266.00,0.0899
1265.00,0.0860
1264.00,0.0820
1263.00,0.0781
1262.00,0.0743
1261.00,0.0708
1260.00,0.0675
1259.00,0.0644
1258.00,0.0616
1257.00,0.0590
1256.00,0.0566
1255.00,0.0544
1254.00,0.0525
1253.00,0.0507
1252.00,0.0491
1251.00,0.0477
1250.00,0.0465
1249.00,0.0455
1248.00,0.0446
1247.00,0.0439
1246.00,0.0434
1245.00,0.0431
1244.00,0.0429
1243.00,0.0428
1242.00,0.0430
1241.00,0.0433
1240.00,0.0439
1239.00,0.0446
1238.00,0.0456
1237.00,0.0467
1236.00,0.0480
1235.00,0.0494
1234.00,0.0509
1233.00,0.0524
1232.00,0.0537
1231.00,0.0550
1230.00,0.0560
1229.00,0.0568
1228.00,0.0573
1227.00,0.0576
1226.00,0.0576
1225.00,0.0576
1224.00,0.0575
1223.00,0.0572
1222.00,0.0570
1221.00,0.0566
1220.00,0.0561
1219.00,0.0556
1218.00,0.0549
1217.00,0.0541
1216.00,0.0531
1215.00,0.0520
1214.00,0.0509
1213.00,0.0498
1212.00,0.0487
1211.00,0.0476
1210.00,0.0466
1209.00,0.0457
1208.00,0.0448
1207.00,0.0440
1206.00,0.0432
1205.00,0.0425
1204.00,0.0419
1203.00,0.0412
1202.00,0.0406
1201.00,0.0400
1200.00,0.0394
1199.00,0.0387
1198.00,0.0381
1197.00,0.0376
1196.00,0.0370
1195.00,0.0365
1194.00,0.0361
1193.00,0.0356
1192.00,0.0352
1191.00,0.0349
1190.00,0.0346
1189.00,0.0344
1188.00,0.0342
1187.00,0.0340
1186.00,0.0338
1185.00,0.0338
1184.00,0.0337
1183.00,0.0338
1182.00,0.0339
1181.00,0.0341
1180.00,0.0345
1179.00,0.0349
1178.00,0.0356
1177.00,0.0363
1176.00,0.0372
1175.00,0.0383
1174.00,0.0394
1173.00,0.0405
1172.00,0.0417
1171.00,0.0428
1170.00,0.0438
1169.00,0.0448
1168.00,0.0455
1167.00,0.0460
1166.00,0.0463
1165.00,0.0462
1164.00,0.0459
1163.00,0.0453
1162.00,0.0445
1161.00,0.0435
1160.00,0.0425
1159.00,0.0414
1158.00,0.0404
1157.00,0.0393
1156.00,0.0383
1155.00,0.0372
1154.00,0.0362
1153.00,0.0352
1152.00,0.0342
1151.00,0.0332
1150.00,0.0322
1149.00,0.0313
1148.00,0.0304
1147.00,0.0295
1146.00,0.0287
1145.00,0.0280
1144.00,0.0273
1143.00,0.0267
1142.00,0.0262
1141.00,0.0257
1140.00,0.0252
1139.00,0.0248
1138.00,0.0243
1137.00,0.0239
1136.00,0.0235
1135.00,0.0231
1134.00,0.0228
1133.00,0.0225
1132.00,0.0222
1131.00,0.0220
1130.00,0.0218
1129.00,0.0216
1128.00,0.0214
1127.00,0.0213
1126.00,0.0212
1125.00,0.0211
1124.00,0.0210
1123.00,0.0209
1122.00,0.0210
1121.00,0.0210
1120.00,0.0210
1119.00,0.0211
1118.00,0.0213
1117.00,0.0215
1116.00,0.0217
1115.00,0.0220
1114.00,0.0224
1113.00,0.0227
1112.00,0.0231
1111.00,0.0234
1110.00,0.0237
1109.00,0.0239
1108.00,0.0240
1107.00,0.0240
1106.00,0.0240
1105.00,0.0239
1104.00,0.0238
1103.00,0.0238
1102.00,0.0238
1101.00,0.0239
1100.00,0.0240
1099.00,0.0242
1098.00,0.0244
1097.00,0.0247
1096.00,0.0249
1095.00,0.0250
1094.00,0.0252
1093.00,0.0252
1092.00,0.0252
1091.00,0.0253
1090.00,0.0254
1089.00,0.0257
1088.00,0.0259
1087.00,0.0263
1086.00,0.0267
1085.00,0.0270
1084.00,0.0272
1083.00,0.0274
1082.00,0.0274
1081.00,0.0273
1080.00,0.0272
1079.00,0.0269
1078.00,0.0267
1077.00,0.0264
1076.00,0.0261
1075.00,0.0257
1074.00,0.0252
1073.00,0.0248
1072.00,0.0243
1071.00,0.0238
1070.00,0.0233
1069.00,0.0229
1068.00,0.0226
1067.00,0.0223
1066.00,0.0222
1065.00,0.0222
1064.00,0.0224
1063.00,0.0227
1062.00,0.0233
1061.00,0.0240
1060.00,0.0251
1059.00,0.0264
1058.00,0.0282
1057.00,0.0304
1056.00,0.0330
1055.00,0.0359
1054.00,0.0392
1053.00,0.0424
1052.00,0.0453
1051.00,0.0476
1050.00,0.0490
1049.00,0.0495
1048.00,0.0490
1047.00,0.0477
1046.00,0.0460
1045.00,0.0441
1044.00,0.0422
1043.00,0.0403
1042.00,0.0387
1041.00,0.0373
1040.00,0.0361
1039.00,0.0352
1038.00,0.0344
1037.00,0.0337
1036.00,0.0331
1035.00,0.0325
1034.00,0.0320
1033.00,0.0315
1032.00,0.0311
1031.00,0.0308
1030.00,0.0306
1029.00,0.0305
1028.00,0.0305
1027.00,0.0305
1026.00,0.0306
1025.00,0.0307
1024.00,0.0309
1023.00,0.0310
1022.00,0.0312
1021.00,0.0313
1020.00,0.0314
1019.00,0.0314
1018.00,0.0312
1017.00,0.0307
1016.00,0.0300
1015.00,0.0291
1014.00,0.0281
1013.00,0.0270
1012.00,0.0261
1011.00,0.0253
1010.00,0.0247
1009.00,0.0243
1008.00,0.0242
1007.00,0.0243
1006.00,0.0246
1005.00,0.0251
1004.00,0.0255
1003.00,0.0258
1002.00,0.0259
1001.00,0.0257
1000.00,0.0253
999.00,0.0248
998.00,0.0242
997.00,0.0237
996.00,0.0232
995.00,0.0228
994.00,0.0225
993.00,0.0222
992.00,0.0221
991.00,0.0220
990.00,0.0220
989.00,0.0221
988.00,0.0221
987.00,0.0221
986.00,0.0220
985.00,0.0219
984.00,0.0217
983.00,0.0214
982.00,0.0211
981.00,0.0208
980.00,0.0205
979.00,0.0201
978.00,0.0198
977.00,0.0195
976.00,0.0192
975.00,0.0189
974.00,0.0186
973.00,0.0183
972.00,0.0180
971.00,0.0177
970.00,0.0174
969.00,0.0170
968.00,0.0167
967.00,0.0165
966.00,0.0163
965.00,0.0162
964.00,0.0160
963.00,0.0158
962.00,0.0157
961.00,0.0155
960.00,0.0154
959.00,0.0152
958.00,0.0150
957.00,0.0148
956.00,0.0146
955.00,0.0144
954.00,0.0143
953.00,0.0142
952.00,0.0141
951.00,0.0140
950.00,0.0140
949.00,0.0140
948.00,0.0139
947.00,0.0140
946.00,0.0140
945.00,0.0141
944.00,0.0143
943.00,0.0145
942.00,0.0148
941.00,0.0152
940.00,0.0157
939.00,0.0162
938.00,0.0169
937.00,0.0176
936.00,0.0183
935.00,0.0189
934.00,0.0193
933.00,0.0196
932.00,0.0195
931.00,0.0193
930.00,0.0190
929.00,0.0188
928.00,0.0186
927.00,0.0185
926.00,0.0185
925.00,0.0185
924.00,0.0184
923.00,0.0184
922.00,0.0184
921.00,0.0185
920.00,0.0186
919.00,0.0187
918.00,0.0189
917.00,0.0191
916.00,0.0193
915.00,0.0194
914.00,0.0196
913.00,0.0199
912.00,0.0201
911.00,0.0203
910.00,0.0205
909.00,0.0207
908.00,0.0208
907.00,0.0209
906.00,0.0210
905.00,0.0211
904.00,0.0213
903.00,0.0214
902.00,0.0215
901.00,0.0216
900.00,0.0217
899.00,0.0218
898.00,0.0219
897.00,0.0219
896.00,0.0219
895.00,0.0219
894.00,0.0218
893.00,0.0216
892.00,0.0214
891.00,0.0211
890.00,0.0208
889.00,0.0205
888.00,0.0203
887.00,0.0201
886.00,0.0200
885.00,0.0200
884.00,0.0199
883.00,0.0199
882.00,0.0200
881.00,0.0200
880.00,0.0201
879.00,0.0201
878.00,0.0203
877.00,0.0204
876.00,0.0205
875.00,0.0207
874.00,0.0208
873.00,0.0210
872.00,0.0212
871.00,0.0215
870.00,0.0217
869.00,0.0220
868.00,0.0224
867.00,0.0228
866.00,0.0233
865.00,0.0239
864.00,0.0244
863.00,0.0251
862.00,0.0258
861.00,0.0266
860.00,0.0274
859.00,0.0284
858.00,0.0294
857.00,0.0304
856.00,0.0314
855.00,0.0324
854.00,0.0335
853.00,0.0345
852.00,0.0355
851.00,0.0365
850.00,0.0374
849.00,0.0383
848.00,0.0390
847.00,0.0396
846.00,0.0402
845.00,0.0406
844.00,0.0409
843.00,0.0412
842.00,0.0413
841.00,0.0414
840.00,0.0415
839.00,0.0415
838.00,0.0414
837.00,0.0414
836.00,0.0414
835.00,0.0414
834.00,0.0414
833.00,0.0414
832.00,0.0412
831.00,0.0410
830.00,0.0406
829.00,0.0402
828.00,0.0397
827.00,0.0391
826.00,0.0384
825.00,0.0375
824.00,0.0366
823.00,0.0355
822.00,0.0345
821.00,0.0334
820.00,0.0324
819.00,0.0314
818.00,0.0306
817.00,0.0298
816.00,0.0291
815.00,0.0284
814.00,0.0279
813.00,0.0274
812.00,0.0269
811.00,0.0264
810.00,0.0260
809.00,0.0257
808.00,0.0254
807.00,0.0251
806.00,0.0249
805.00,0.0247
804.00,0.0246
803.00,0.0246
802.00,0.0247
801.00,0.0249
800.00,0.0250
799.00,0.0252
798.00,0.0253
797.00,0.0255
796.00,0.0257
795.00,0.0258
794.00,0.0260
793.00,0.0262
792.00,0.0263
791.00,0.0263
790.00,0.0264
789.00,0.0265
788.00,0.0266
787.00,0.0267
786.00,0.0268
785.00,0.0271
784.00,0.0273
783.00,0.0275
782.00,0.0278
781.00,0.0280
780.00,0.0282
779.00,0.0285
778.00,0.0287
777.00,0.0288
776.00,0.0290
775.00,0.0292
774.00,0.0293
773.00,0.0295
772.00,0.0296
771.00,0.0298
770.00,0.0299
769.00,0.0301
768.00,0.0302
767.00,0.0304
766.00,0.0306
765.00,0.0309
764.00,0.0312
763.00,0.0316
762.00,0.0320
761.00,0.0325
760.00,0.0330
759.00,0.0336
758.00,0.0342
757.00,0.0349
756.00,0.0355
755.00,0.0361
754.00,0.0368
753.00,0.0374
752.00,0.0381
751.00,0.0388
750.00,0.0395
749.00,0.0402
748.00,0.0409
747.00,0.0416
746.00,0.0422
745.00,0.0429
744.00,0.0435
743.00,0.0440
742.00,0.0445
741.00,0.0451
740.00,0.0455
739.00,0.0460
738.00,0.0464
737.00,0.0467
736.00,0.0469
735.00,0.0469
734.00,0.0468
733.00,0.0466
732.00,0.0461
731.00,0.0455
730.00,0.0446
729.00,0.0437
728.00,0.0427
727.00,0.0417
726.00,0.0409
725.00,0.0402
724.00,0.0395
723.00,0.0388
722.00,0.0382
721.00,0.0375
720.00,0.0370
719.00,0.0366
718.00,0.0364
717.00,0.0362
716.00,0.0360
715.00,0.0359
714.00,0.0358
713.00,0.0357
712.00,0.0357
711.00,0.0358
710.00,0.0358
709.00,0.0359
708.00,0.0359
707.00,0.0360
706.00,0.0361
705.00,0.0362
704.00,0.0364
703.00,0.0365
702.00,0.0367
701.00,0.0368
700.00,0.0369
699.00,0.0371
698.00,0.0373
697.00,0.0376
696.00,0.0378
695.00,0.0382
694.00,0.0385
693.00,0.0388
692.00,0.0391
691.00,0.0394
690.00,0.0397
689.00,0.0401
688.00,0.0406
687.00,0.0410
686.00,0.0415
685.00,0.0420
684.00,0.0425
683.00,0.0430
682.00,0.0435
681.00,0.0440
680.00,0.0445
679.00,0.0450
678.00,0.0455
677.00,0.0460
676.00,0.0465
675.00,0.0470
674.00,0.0475
673.00,0.0480
672.00,0.0485
671.00,0.0489
670.00,0.0494
669.00,0.0503
668.00,0.0518
667.00,0.0533
666.00,0.0541
665.00,0.0546
664.00,0.0553
663.00,0.0562
662.00,0.0573
661.00,0.0583
660.00,0.0593
659.00,0.0603
658.00,0.0613
657.00,0.0624
656.00,0.0635
655.00,0.0645
654.00,0.0656
653.00,0.0665
652.00,0.0674
651.00,0.0680
650.00,0.0684
649.00,0.0686
648.00,0.0686
647.00,0.0684
646.00,0.0680
645.00,0.0674
644.00,0.0667
643.00,0.0659
642.00,0.0650
641.00,0.0641
640.00,0.0632
639.00,0.0623
638.00,0.0612
637.00,0.0602
636.00,0.0592
635.00,0.0584
634.00,0.0576
633.00,0.0569
632.00,0.0562
631.00,0.0555
630.00,0.0549
629.00,0.0543
628.00,0.0538
627.00,0.0533
626.00,0.0529
625.00,0.0526
624.00,0.0523
623.00,0.0521
622.00,0.0519
621.00,0.0517
620.00,0.0515
619.00,0.0515
618.00,0.0515
617.00,0.0516
616.00,0.0517
615.00,0.0518
614.00,0.0518
613.00,0.0518
612.00,0.0518
611.00,0.0519
610.00,0.0521
609.00,0.0523
608.00,0.0525
607.00,0.0528
606.00,0.0531
605.00,0.0534
604.00,0.0537
603.00,0.0540
602.00,0.0543
601.00,0.0546
600.00,0.0548
599.00,0.0551
598.00,0.0554
597.00,0.0557
596.00,0.0562
595.00,0.0566
594.00,0.0572
593.00,0.0578
592.00,0.0585
591.00,0.0592
590.00,0.0599
589.00,0.0606
588.00,0.0615
587.00,0.0625
586.00,0.0636
585.00,0.0647
584.00,0.0658
583.00,0.0669
582.00,0.0680
581.00,0.0690
580.00,0.0699
579.00,0.0706
578.00,0.0712
577.00,0.0717
576.00,0.0720
575.00,0.0721
574.00,0.0720
573.00,0.0718
572.00,0.0716
571.00,0.0714
570.00,0.0712
569.00,0.0707
568.00,0.0702
567.00,0.0695
566.00,0.0688
565.00,0.0680
564.00,0.0674
563.00,0.0667
562.00,0.0659
561.00,0.0651
560.00,0.0643
559.00,0.0636
558.00,0.0630
557.00,0.0626
556.00,0.0622
555.00,0.0616
554.00,0.0606
553.00,0.0595
552.00,0.0587
551.00,0.0583
550.00,0.0580
549.00,0.0579
548.00,0.0577
547.00,0.0574
546.00,0.0570
545.00,0.0566
544.00,0.0562
543.00,0.0559
542.00,0.0557
541.00,0.0555
540.00,0.0554
539.00,0.0552
538.00,0.0551
537.00,0.0551
536.00,0.0552
535.00,0.0553
534.00,0.0554
533.00,0.0552
532.00,0.0550
531.00,0.0549
530.00,0.0548
529.00,0.0547
528.00,0.0545
527.00,0.0542
526.00,0.0540
525.00,0.0538
524.00,0.0538
523.00,0.0537
522.00,0.0536
521.00,0.0535
520.00,0.0534
519.00,0.0533
518.00,0.0531
517.00,0.0528
516.00,0.0525
515.00,0.0523
514.00,0.0523
513.00,0.0524
512.00,0.0524
511.00,0.0522
510.00,0.0520
509.00,0.0518
508.00,0.0517
507.00,0.0516
506.00,0.0515
505.00,0.0515
504.00,0.0514
503.00,0.0514
502.00,0.0514
501.00,0.0514
500.00,0.0515
499.00,0.0516
498.00,0.0517
497.00,0.0518
496.00,0.0518
495.00,0.0517
494.00,0.0516
493.00,0.0516
492.00,0.0517
491.00,0.0520
490.00,0.0522
489.00,0.0524
488.00,0.0524
487.00,0.0524
486.00,0.0524
485.00,0.0523
484.00,0.0522
483.00,0.0521
482.00,0.0521
481.00,0.0520
480.00,0.0519
479.00,0.0519
478.00,0.0520
477.00,0.0520
476.00,0.0519
475.00,0.0519
474.00,0.0521
473.00,0.0524
472.00,0.0527
471.00,0.0527
470.00,0.0527
469.00,0.0526
468.00,0.0525
467.00,0.0525
466.00,0.0527
465.00,0.0529
464.00,0.0530
463.00,0.0528
462.00,0.0524
461.00,0.0519
460.00,0.0517
459.00,0.0518
458.00,0.0521
457.00,0.0525
456.00,0.0526
455.00,0.0528
454.00,0.0528
453.00,0.0528
452.00,0.0526
451.00,0.0523
450.00,0.0522
449.00,0.0523
448.00,0.0525
447.00,0.0525
446.00,0.0522
445.00,0.0517
444.00,0.0511
443.00,0.0504
442.00,0.0499
441.00,0.0497
440.00,0.0496
439.00,0.0496
438.00,0.0496
437.00,0.0494
436.00,0.0491
435.00,0.0489
434.00,0.0488
433.00,0.0488
432.00,0.0487
431.00,0.0486
430.00,0.0486
429.00,0.0486
428.00,0.0486
427.00,0.0484
426.00,0.0482
425.00,0.0476
424.00,0.0468
423.00,0.0461
422.00,0.0459
421.00,0.0460
420.00,0.0461
419.00,0.0461
418.00,0.0461
417.00,0.0463
416.00,0.0466
415.00,0.0472
414.00,0.0476
413.00,0.0478
412.00,0.0477
411.00,0.0474
410.00,0.0472
409.00,0.0471
408.00,0.0474
407.00,0.0481
406.00,0.0488
405.00,0.0491
404.00,0.0488
403.00,0.0484
402.00,0.0481
401.00,0.0474
400.00,0.0464
