Created as New Dataset,Sample 991 By YargerLab Date Wednesday, July 30 2025
cm-1,A
4000.00,0.0020
3999.00,0.0020
3998.00,0.0021
3997.00,0.0021
3996.00,0.0021
3995.00,0.0021
3994.00,0.0021
3993.00,0.0020
3992.00,0.0020
3991.00,0.0021
3990.00,0.0021
3989.00,0.0021
3988.00,0.0021
3987.00,0.0021
3986.00,0.0021
3985.00,0.0021
3984.00,0.0021
3983.00,0.0021
3982.00,0.0021
3981.00,0.0021
3980.00,0.0021
3979.00,0.0021
3978.00,0.0020
3977.00,0.0020
3976.00,0.0020
3975.00,0.0020
3974.00,0.0020
3973.00,0.0020
3972.00,0.0021
3971.00,0.0021
3970.00,0.0021
3969.00,0.0021
3968.00,0.0021
3967.00,0.0021
3966.00,0.0021
3965.00,0.0021
3964.00,0.0021
3963.00,0.0021
3962.00,0.0021
3961.00,0.0021
3960.00,0.0021
3959.00,0.0021
3958.00,0.0021
3957.00,0.0021
3956.00,0.0021
3955.00,0.0021
3954.00,0.0021
3953.00,0.0021
3952.00,0.0021
3951.00,0.0021
3950.00,0.0021
3949.00,0.0021
3948.00,0.0021
3947.00,0.0021
3946.00,0.0021
3945.00,0.0021
3944.00,0.0021
3943.00,0.0021
3942.00,0.0021
3941.00,0.0021
3940.00,0.0021
3939.00,0.0021
3938.00,0.0021
3937.00,0.0021
3936.00,0.0021
3935.00,0.0021
3934.00,0.0021
3933.00,0.0021
3932.00,0.0021
3931.00,0.0021
3930.00,0.0021
3929.00,0.0021
3928.00,0.0021
3927.00,0.0020
3926.00,0.0020
3925.00,0.0020
3924.00,0.0020
3923.00,0.0021
3922.00,0.0021
3921.00,0.0021
3920.00,0.0021
3919.00,0.0021
3918.00,0.0021
3917.00,0.0020
3916.00,0.0020
3915.00,0.0020
3914.00,0.0020
3913.00,0.0020
3912.00,0.0021
3911.00,0.0021
3910.00,0.0021
3909.00,0.0021
3908.00,0.0021
3907.00,0.0021
3906.00,0.0021
3905.00,0.0021
3904.00,0.0021
3903.00,0.0020
3902.00,0.0020
3901.00,0.0020
3900.00,0.0020
3899.00,0.0020
3898.00,0.0020
3897.00,0.0020
3896.00,0.0020
3895.00,0.0020
3894.00,0.0020
3893.00,0.0020
3892.00,0.0021
3891.00,0.0021
3890.00,0.0021
3889.00,0.0021
3888.00,0.0021
3887.00,0.0020
3886.00,0.0020
3885.00,0.0020
3884.00,0.0020
3883.00,0.0020
3882.00,0.0020
3881.00,0.0019
3880.00,0.0019
3879.00,0.0020
3878.00,0.0020
3877.00,0.0020
3876.00,0.0020
3875.00,0.0020
3874.00,0.0020
3873.00,0.0020
3872.00,0.0020
3871.00,0.0020
3870.00,0.0020
3869.00,0.0020
3868.00,0.0020
3867.00,0.0020
3866.00,0.0020
3865.00,0.0020
3864.00,0.0019
3863.00,0.0019
3862.00,0.0019
3861.00,0.0020
3860.00,0.0020
3859.00,0.0020
3858.00,0.0021
3857.00,0.0021
3856.00,0.0021
3855.00,0.0021
3854.00,0.0020
3853.00,0.0020
3852.00,0.0020
3851.00,0.0019
3850.00,0.0019
3849.00,0.0020
3848.00,0.0020
3847.00,0.0020
3846.00,0.0021
3845.00,0.0021
3844.00,0.0021
3843.00,0.0021
3842.00,0.0021
3841.00,0.0021
3840.00,0.0021
3839.00,0.0021
3838.00,0.0021
3837.00,0.0021
3836.00,0.0020
3835.00,0.0020
3834.00,0.0020
3833.00,0.0020
3832.00,0.0020
3831.00,0.0020
3830.00,0.0020
3829.00,0.0021
3828.00,0.0021
3827.00,0.0021
3826.00,0.0021
3825.00,0.0021
3824.00,0.0021
3823.00,0.0021
3822.00,0.0021
3821.00,0.0021
3820.00,0.0021
3819.00,0.0021
3818.00,0.0021
3817.00,0.0020
3816.00,0.0020
3815.00,0.0020
3814.00,0.0020
3813.00,0.0020
3812.00,0.0020
3811.00,0.0021
3810.00,0.0021
3809.00,0.0021
3808.00,0.0021
3807.00,0.0021
3806.00,0.0021
3805.00,0.0021
3804.00,0.0021
3803.00,0.0021
3802.00,0.0020
3801.00,0.0020
3800.00,0.0020
3799.00,0.0020
3798.00,0.0020
3797.00,0.0020
3796.00,0.0020
3795.00,0.0020
3794.00,0.0020
3793.00,0.0020
3792.00,0.0020
3791.00,0.0020
3790.00,0.0020
3789.00,0.0020
3788.00,0.0021
3787.00,0.0021
3786.00,0.0021
3785.00,0.0021
3784.00,0.0021
3783.00,0.0021
3782.00,0.0021
3781.00,0.0022
3780.00,0.0022
3779.00,0.0022
3778.00,0.0022
3777.00,0.0022
3776.00,0.0021
3775.00,0.0021
3774.00,0.0021
3773.00,0.0021
3772.00,0.0021
3771.00,0.0021
3770.00,0.0021
3769.00,0.0021
3768.00,0.0021
3767.00,0.0021
3766.00,0.0021
3765.00,0.0021
3764.00,0.0022
3763.00,0.0022
3762.00,0.0022
3761.00,0.0021
3760.00,0.0021
3759.00,0.0021
3758.00,0.0021
3757.00,0.0021
3756.00,0.0021
3755.00,0.0022
3754.00,0.0022
3753.00,0.0023
3752.00,0.0023
3751.00,0.0022
3750.00,0.0022
3749.00,0.0022
3748.00,0.0021
3747.00,0.0021
3746.00,0.0021
3745.00,0.0021
3744.00,0.0021
3743.00,0.0021
3742.00,0.0020
3741.00,0.0020
3740.00,0.0021
3739.00,0.0021
3738.00,0.0021
3737.00,0.0021
3736.00,0.0020
3735.00,0.0020
3734.00,0.0020
3733.00,0.0020
3732.00,0.0019
3731.00,0.0019
3730.00,0.0019
3729.00,0.0020
3728.00,0.0020
3727.00,0.0020
3726.00,0.0020
3725.00,0.0020
3724.00,0.0020
3723.00,0.0020
3722.00,0.0020
3721.00,0.0020
3720.00,0.0019
3719.00,0.0020
3718.00,0.0020
3717.00,0.0020
3716.00,0.0020
3715.00,0.0020
3714.00,0.0020
3713.00,0.0020
3712.00,0.0020
3711.00,0.0020
3710.00,0.0020
3709.00,0.0020
3708.00,0.0019
3707.00,0.0019
3706.00,0.0020
3705.00,0.0020
3704.00,0.0020
3703.00,0.0020
3702.00,0.0020
3701.00,0.0019
3700.00,0.0019
3699.00,0.0019
3698.00,0.0019
3697.00,0.0019
3696.00,0.0020
3695.00,0.0020
3694.00,0.0020
3693.00,0.0020
3692.00,0.0020
3691.00,0.0020
3690.00,0.0020
3689.00,0.0020
3688.00,0.0020
3687.00,0.0021
3686.00,0.0021
3685.00,0.0021
3684.00,0.0022
3683.00,0.0022
3682.00,0.0022
3681.00,0.0021
3680.00,0.0021
3679.00,0.0021
3678.00,0.0022
3677.00,0.0022
3676.00,0.0022
3675.00,0.0021
3674.00,0.0021
3673.00,0.0021
3672.00,0.0021
3671.00,0.0021
3670.00,0.0021
3669.00,0.0022
3668.00,0.0022
3667.00,0.0022
3666.00,0.0023
3665.00,0.0023
3664.00,0.0023
3663.00,0.0023
3662.00,0.0024
3661.00,0.0024
3660.00,0.0024
3659.00,0.0025
3658.00,0.0025
3657.00,0.0025
3656.00,0.0026
3655.00,0.0026
3654.00,0.0026
3653.00,0.0026
3652.00,0.0026
3651.00,0.0026
3650.00,0.0026
3649.00,0.0026
3648.00,0.0027
3647.00,0.0027
3646.00,0.0027
3645.00,0.0027
3644.00,0.0028
3643.00,0.0028
3642.00,0.0028
3641.00,0.0029
3640.00,0.0029
3639.00,0.0029
3638.00,0.0029
3637.00,0.0030
3636.00,0.0030
3635.00,0.0030
3634.00,0.0031
3633.00,0.0031
3632.00,0.0031
3631.00,0.0031
3630.00,0.0031
3629.00,0.0032
3628.00,0.0033
3627.00,0.0033
3626.00,0.0034
3625.00,0.0034
3624.00,0.0034
3623.00,0.0034
3622.00,0.0034
3621.00,0.0034
3620.00,0.0035
3619.00,0.0035
3618.00,0.0036
3617.00,0.0037
3616.00,0.0037
3615.00,0.0037
3614.00,0.0038
3613.00,0.0038
3612.00,0.0039
3611.00,0.0039
3610.00,0.0039
3609.00,0.0039
3608.00,0.0039
3607.00,0.0039
3606.00,0.0040
3605.00,0.0041
3604.00,0.0041
3603.00,0.0042
3602.00,0.0042
3601.00,0.0043
3600.00,0.0043
3599.00,0.0043
3598.00,0.0043
3597.00,0.0044
3596.00,0.0044
3595.00,0.0044
3594.00,0.0045
3593.00,0.0045
3592.00,0.0046
3591.00,0.0046
3590.00,0.0046
3589.00,0.0046
3588.00,0.0046
3587.00,0.0047
3586.00,0.0048
3585.00,0.0049
3584.00,0.0049
3583.00,0.0050
3582.00,0.0050
3581.00,0.0050
3580.00,0.0051
3579.00,0.0051
3578.00,0.0051
3577.00,0.0052
3576.00,0.0052
3575.00,0.0053
3574.00,0.0054
3573.00,0.0054
3572.00,0.0055
3571.00,0.0055
3570.00,0.0055
3569.00,0.0055
3568.00,0.0056
3567.00,0.0056
3566.00,0.0057
3565.00,0.0058
3564.00,0.0058
3563.00,0.0058
3562.00,0.0059
3561.00,0.0059
3560.00,0.0060
3559.00,0.0061
3558.00,0.0061
3557.00,0.0062
3556.00,0.0062
3555.00,0.0063
3554.00,0.0063
3553.00,0.0063
3552.00,0.0064
3551.00,0.0064
3550.00,0.0065
3549.00,0.0065
3548.00,0.0066
3547.00,0.0066
3546.00,0.0067
3545.00,0.0067
3544.00,0.0068
3543.00,0.0068
3542.00,0.0069
3541.00,0.0069
3540.00,0.0069
3539.00,0.0070
3538.00,0.0071
3537.00,0.0071
3536.00,0.0071
3535.00,0.0072
3534.00,0.0073
3533.00,0.0073
3532.00,0.0074
3531.00,0.0074
3530.00,0.0075
3529.00,0.0075
3528.00,0.0075
3527.00,0.0075
3526.00,0.0076
3525.00,0.0076
3524.00,0.0077
3523.00,0.0077
3522.00,0.0077
3521.00,0.0078
3520.00,0.0078
3519.00,0.0079
3518.00,0.0079
3517.00,0.0080
3516.00,0.0080
3515.00,0.0081
3514.00,0.0082
3513.00,0.0082
3512.00,0.0083
3511.00,0.0083
3510.00,0.0083
3509.00,0.0084
3508.00,0.0084
3507.00,0.0084
3506.00,0.0085
3505.00,0.0085
3504.00,0.0086
3503.00,0.0086
3502.00,0.0087
3501.00,0.0088
3500.00,0.0088
3499.00,0.0089
3498.00,0.0089
3497.00,0.0090
3496.00,0.0090
3495.00,0.0090
3494.00,0.0091
3493.00,0.0091
3492.00,0.0091
3491.00,0.0091
3490.00,0.0092
3489.00,0.0092
3488.00,0.0092
3487.00,0.0093
3486.00,0.0094
3485.00,0.0094
3484.00,0.0095
3483.00,0.0095
3482.00,0.0096
3481.00,0.0096
3480.00,0.0097
3479.00,0.0097
3478.00,0.0098
3477.00,0.0098
3476.00,0.0099
3475.00,0.0099
3474.00,0.0100
3473.00,0.0100
3472.00,0.0100
3471.00,0.0101
3470.00,0.0101
3469.00,0.0102
3468.00,0.0103
3467.00,0.0103
3466.00,0.0103
3465.00,0.0104
3464.00,0.0104
3463.00,0.0104
3462.00,0.0104
3461.00,0.0105
3460.00,0.0105
3459.00,0.0106
3458.00,0.0106
3457.00,0.0106
3456.00,0.0107
3455.00,0.0107
3454.00,0.0108
3453.00,0.0108
3452.00,0.0109
3451.00,0.0110
3450.00,0.0110
3449.00,0.0110
3448.00,0.0111
3447.00,0.0111
3446.00,0.0112
3445.00,0.0112
3444.00,0.0113
3443.00,0.0113
3442.00,0.0114
3441.00,0.0115
3440.00,0.0115
3439.00,0.0116
3438.00,0.0116
3437.00,0.0117
3436.00,0.0117
3435.00,0.0118
3434.00,0.0118
3433.00,0.0119
3432.00,0.0119
3431.00,0.0120
3430.00,0.0121
3429.00,0.0121
3428.00,0.0122
3427.00,0.0122
3426.00,0.0122
3425.00,0.0123
3424.00,0.0123
3423.00,0.0124
3422.00,0.0124
3421.00,0.0125
3420.00,0.0126
3419.00,0.0126
3418.00,0.0126
3417.00,0.0127
3416.00,0.0127
3415.00,0.0128
3414.00,0.0128
3413.00,0.0129
3412.00,0.0129
3411.00,0.0130
3410.00,0.0130
3409.00,0.0131
3408.00,0.0132
3407.00,0.0132
3406.00,0.0132
3405.00,0.0133
3404.00,0.0133
3403.00,0.0133
3402.00,0.0134
3401.00,0.0134
3400.00,0.0135
3399.00,0.0136
3398.00,0.0136
3397.00,0.0137
3396.00,0.0137
3395.00,0.0138
3394.00,0.0138
3393.00,0.0139
3392.00,0.0139
3391.00,0.0139
3390.00,0.0140
3389.00,0.0140
3388.00,0.0140
3387.00,0.0140
3386.00,0.0141
3385.00,0.0141
3384.00,0.0142
3383.00,0.0143
3382.00,0.0143
3381.00,0.0144
3380.00,0.0144
3379.00,0.0145
3378.00,0.0145
3377.00,0.0146
3376.00,0.0146
3375.00,0.0147
3374.00,0.0147
3373.00,0.0148
3372.00,0.0148
3371.00,0.0149
3370.00,0.0149
3369.00,0.0150
3368.00,0.0150
3367.00,0.0151
3366.00,0.0152
3365.00,0.0152
3364.00,0.0153
3363.00,0.0154
3362.00,0.0154
3361.00,0.0155
3360.00,0.0155
3359.00,0.0156
3358.00,0.0156
3357.00,0.0157
3356.00,0.0157
3355.00,0.0158
3354.00,0.0159
3353.00,0.0160
3352.00,0.0160
3351.00,0.0161
3350.00,0.0161
3349.00,0.0162
3348.00,0.0163
3347.00,0.0163
3346.00,0.0164
3345.00,0.0165
3344.00,0.0165
3343.00,0.0166
3342.00,0.0166
3341.00,0.0167
3340.00,0.0168
3339.00,0.0169
3338.00,0.0170
3337.00,0.0170
3336.00,0.0171
3335.00,0.0172
3334.00,0.0172
3333.00,0.0173
3332.00,0.0174
3331.00,0.0175
3330.00,0.0176
3329.00,0.0177
3328.00,0.0177
3327.00,0.0178
3326.00,0.0179
3325.00,0.0180
3324.00,0.0180
3323.00,0.0181
3322.00,0.0182
3321.00,0.0183
3320.00,0.0183
3319.00,0.0184
3318.00,0.0185
3317.00,0.0186
3316.00,0.0186
3315.00,0.0187
3314.00,0.0188
3313.00,0.0190
3312.00,0.0191
3311.00,0.0191
3310.00,0.0192
3309.00,0.0193
3308.00,0.0193
3307.00,0.0194
3306.00,0.0195
3305.00,0.0195
3304.00,0.0196
3303.00,0.0197
3302.00,0.0198
3301.00,0.0199
3300.00,0.0199
3299.00,0.0200
3298.00,0.0200
3297.00,0.0201
3296.00,0.0202
3295.00,0.0202
3294.00,0.0203
3293.00,0.0204
3292.00,0.0204
3291.00,0.0205
3290.00,0.0206
3289.00,0.0206
3288.00,0.0207
3287.00,0.0207
3286.00,0.0208
3285.00,0.0208
3284.00,0.0208
3283.00,0.0208
3282.00,0.0209
3281.00,0.0209
3280.00,0.0209
3279.00,0.0209
3278.00,0.0209
3277.00,0.0209
3276.00,0.0209
3275.00,0.0209
3274.00,0.0208
3273.00,0.0208
3272.00,0.0208
3271.00,0.0208
3270.00,0.0207
3269.00,0.0207
3268.00,0.0207
3267.00,0.0206
3266.00,0.0205
3265.00,0.0205
3264.00,0.0204
3263.00,0.0203
3262.00,0.0202
3261.00,0.0201
3260.00,0.0200
3259.00,0.0199
3258.00,0.0199
3257.00,0.0198
3256.00,0.0198
3255.00,0.0197
3254.00,0.0196
3253.00,0.0195
3252.00,0.0195
3251.00,0.0194
3250.00,0.0193
3249.00,0.0192
3248.00,0.0191
3247.00,0.0191
3246.00,0.0190
3245.00,0.0189
3244.00,0.0189
3243.00,0.0188
3242.00,0.0188
3241.00,0.0187
3240.00,0.0187
3239.00,0.0186
3238.00,0.0185
3237.00,0.0185
3236.00,0.0184
3235.00,0.0183
3234.00,0.0183
3233.00,0.0182
3232.00,0.0182
3231.00,0.0181
3230.00,0.0181
3229.00,0.0180
3228.00,0.0180
3227.00,0.0179
3226.00,0.0179
3225.00,0.0179
3224.00,0.0178
3223.00,0.0178
3222.00,0.0177
3221.00,0.0177
3220.00,0.0176
3219.00,0.0176
3218.00,0.0175
3217.00,0.0175
3216.00,0.0175
3215.00,0.0174
3214.00,0.0174
3213.00,0.0173
3212.00,0.0173
3211.00,0.0173
3210.00,0.0172
3209.00,0.0172
3208.00,0.0172
3207.00,0.0171
3206.00,0.0170
3205.00,0.0170
3204.00,0.0169
3203.00,0.0169
3202.00,0.0169
3201.00,0.0169
3200.00,0.0168
3199.00,0.0168
3198.00,0.0167
3197.00,0.0167
3196.00,0.0167
3195.00,0.0166
3194.00,0.0165
3193.00,0.0165
3192.00,0.0164
3191.00,0.0164
3190.00,0.0163
3189.00,0.0162
3188.00,0.0162
3187.00,0.0161
3186.00,0.0161
3185.00,0.0161
3184.00,0.0160
3183.00,0.0159
3182.00,0.0159
3181.00,0.0158
3180.00,0.0158
3179.00,0.0157
3178.00,0.0157
3177.00,0.0156
3176.00,0.0156
3175.00,0.0155
3174.00,0.0155
3173.00,0.0154
3172.00,0.0153
3171.00,0.0153
3170.00,0.0152
3169.00,0.0152
3168.00,0.0151
3167.00,0.0151
3166.00,0.0150
3165.00,0.0149
3164.00,0.0149
3163.00,0.0148
3162.00,0.0147
3161.00,0.0146
3160.00,0.0146
3159.00,0.0145
3158.00,0.0145
3157.00,0.0145
3156.00,0.0144
3155.00,0.0144
3154.00,0.0143
3153.00,0.0143
3152.00,0.0142
3151.00,0.0141
3150.00,0.0141
3149.00,0.0141
3148.00,0.0140
3147.00,0.0140
3146.00,0.0139
3145.00,0.0138
3144.00,0.0138
3143.00,0.0137
3142.00,0.0137
3141.00,0.0137
3140.00,0.0136
3139.00,0.0136
3138.00,0.0136
3137.00,0.0135
3136.00,0.0135
3135.00,0.0135
3134.00,0.0135
3133.00,0.0134
3132.00,0.0134
3131.00,0.0134
3130.00,0.0134
3129.00,0.0133
3128.00,0.0133
3127.00,0.0133
3126.00,0.0132
3125.00,0.0131
3124.00,0.0131
3123.00,0.0131
3122.00,0.0131
3121.00,0.0131
3120.00,0.0131
3119.00,0.0130
3118.00,0.0130
3117.00,0.0130
3116.00,0.0130
3115.00,0.0129
3114.00,0.0129
3113.00,0.0129
3112.00,0.0129
3111.00,0.0130
3110.00,0.0130
3109.00,0.0130
3108.00,0.0130
3107.00,0.0129
3106.00,0.0129
3105.00,0.0129
3104.00,0.0129
3103.00,0.0129
3102.00,0.0129
3101.00,0.0129
3100.00,0.0129
3099.00,0.0129
3098.00,0.0129
3097.00,0.0129
3096.00,0.0130
3095.00,0.0130
3094.00,0.0130
3093.00,0.0130
3092.00,0.0130
3091.00,0.0130
3090.00,0.0130
3089.00,0.0130
3088.00,0.0130
3087.00,0.0130
3086.00,0.0130
3085.00,0.0130
3084.00,0.0130
3083.00,0.0130
3082.00,0.0130
3081.00,0.0130
3080.00,0.0130
3079.00,0.0130
3078.00,0.0131
3077.00,0.0131
3076.00,0.0131
3075.00,0.0131
3074.00,0.0131
3073.00,0.0130
3072.00,0.0130
3071.00,0.0130
3070.00,0.0130
3069.00,0.0130
3068.00,0.0130
3067.00,0.0130
3066.00,0.0130
3065.00,0.0130
3064.00,0.0130
3063.00,0.0129
3062.00,0.0129
3061.00,0.0129
3060.00,0.0128
3059.00,0.0128
3058.00,0.0127
3057.00,0.0127
3056.00,0.0126
3055.00,0.0126
3054.00,0.0125
3053.00,0.0125
3052.00,0.0125
3051.00,0.0124
3050.00,0.0124
3049.00,0.0123
3048.00,0.0123
3047.00,0.0123
3046.00,0.0122
3045.00,0.0122
3044.00,0.0121
3043.00,0.0121
3042.00,0.0121
3041.00,0.0120
3040.00,0.0120
3039.00,0.0119
3038.00,0.0119
3037.00,0.0119
3036.00,0.0118
3035.00,0.0118
3034.00,0.0117
3033.00,0.0117
3032.00,0.0116
3031.00,0.0116
3030.00,0.0115
3029.00,0.0115
3028.00,0.0114
3027.00,0.0114
3026.00,0.0113
3025.00,0.0113
3024.00,0.0112
3023.00,0.0112
3022.00,0.0111
3021.00,0.0110
3020.00,0.0110
3019.00,0.0110
3018.00,0.0109
3017.00,0.0109
3016.00,0.0109
3015.00,0.0108
3014.00,0.0108
3013.00,0.0108
3012.00,0.0107
3011.00,0.0107
3010.00,0.0106
3009.00,0.0106
3008.00,0.0106
3007.00,0.0105
3006.00,0.0105
3005.00,0.0105
3004.00,0.0104
3003.00,0.0104
3002.00,0.0104
3001.00,0.0103
3000.00,0.0103
2999.00,0.0103
2998.00,0.0103
2997.00,0.0104
2996.00,0.0104
2995.00,0.0104
2994.00,0.0104
2993.00,0.0104
2992.00,0.0105
2991.00,0.0105
2990.00,0.0106
2989.00,0.0107
2988.00,0.0107
2987.00,0.0108
2986.00,0.0108
2985.00,0.0109
2984.00,0.0109
2983.00,0.0110
2982.00,0.0110
2981.00,0.0111
2980.00,0.0113
2979.00,0.0114
2978.00,0.0116
2977.00,0.0117
2976.00,0.0119
2975.00,0.0120
2974.00,0.0121
2973.00,0.0122
2972.00,0.0123
2971.00,0.0125
2970.00,0.0126
2969.00,0.0127
2968.00,0.0129
2967.00,0.0130
2966.00,0.0131
2965.00,0.0132
2964.00,0.0133
2963.00,0.0133
2962.00,0.0133
2961.00,0.0133
2960.00,0.0133
2959.00,0.0133
2958.00,0.0133
2957.00,0.0133
2956.00,0.0132
2955.00,0.0132
2954.00,0.0131
2953.00,0.0131
2952.00,0.0130
2951.00,0.0130
2950.00,0.0130
2949.00,0.0129
2948.00,0.0130
2947.00,0.0130
2946.00,0.0131
2945.00,0.0131
2944.00,0.0132
2943.00,0.0133
2942.00,0.0133
2941.00,0.0134
2940.00,0.0134
2939.00,0.0135
2938.00,0.0136
2937.00,0.0137
2936.00,0.0137
2935.00,0.0138
2934.00,0.0138
2933.00,0.0139
2932.00,0.0139
2931.00,0.0139
2930.00,0.0139
2929.00,0.0139
2928.00,0.0138
2927.00,0.0138
2926.00,0.0137
2925.00,0.0136
2924.00,0.0135
2923.00,0.0134
2922.00,0.0132
2921.00,0.0131
2920.00,0.0129
2919.00,0.0127
2918.00,0.0125
2917.00,0.0123
2916.00,0.0123
2915.00,0.0122
2914.00,0.0122
2913.00,0.0122
2912.00,0.0122
2911.00,0.0122
2910.00,0.0121
2909.00,0.0121
2908.00,0.0120
2907.00,0.0119
2906.00,0.0118
2905.00,0.0118
2904.00,0.0117
2903.00,0.0116
2902.00,0.0116
2901.00,0.0115
2900.00,0.0115
2899.00,0.0114
2898.00,0.0114
2897.00,0.0113
2896.00,0.0112
2895.00,0.0112
2894.00,0.0111
2893.00,0.0111
2892.00,0.0110
2891.00,0.0110
2890.00,0.0110
2889.00,0.0110
2888.00,0.0110
2887.00,0.0110
2886.00,0.0110
2885.00,0.0109
2884.00,0.0109
2883.00,0.0110
2882.00,0.0110
2881.00,0.0111
2880.00,0.0111
2879.00,0.0112
2878.00,0.0112
2877.00,0.0112
2876.00,0.0113
2875.00,0.0113
2874.00,0.0113
2873.00,0.0113
2872.00,0.0112
2871.00,0.0112
2870.00,0.0111
2869.00,0.0110
2868.00,0.0109
2867.00,0.0108
2866.00,0.0107
2865.00,0.0107
2864.00,0.0106
2863.00,0.0106
2862.00,0.0106
2861.00,0.0105
2860.00,0.0105
2859.00,0.0105
2858.00,0.0104
2857.00,0.0104
2856.00,0.0103
2855.00,0.0103
2854.00,0.0102
2853.00,0.0101
2852.00,0.0099
2851.00,0.0097
2850.00,0.0096
2849.00,0.0094
2848.00,0.0094
2847.00,0.0093
2846.00,0.0093
2845.00,0.0093
2844.00,0.0093
2843.00,0.0092
2842.00,0.0092
2841.00,0.0091
2840.00,0.0091
2839.00,0.0090
2838.00,0.0090
2837.00,0.0089
2836.00,0.0089
2835.00,0.0088
2834.00,0.0088
2833.00,0.0088
2832.00,0.0087
2831.00,0.0087
2830.00,0.0087
2829.00,0.0086
2828.00,0.0086
2827.00,0.0086
2826.00,0.0085
2825.00,0.0085
2824.00,0.0085
2823.00,0.0085
2822.00,0.0084
2821.00,0.0084
2820.00,0.0084
2819.00,0.0084
2818.00,0.0083
2817.00,0.0083
2816.00,0.0083
2815.00,0.0083
2814.00,0.0083
2813.00,0.0082
2812.00,0.0082
2811.00,0.0082
2810.00,0.0082
2809.00,0.0081
2808.00,0.0081
2807.00,0.0081
2806.00,0.0081
2805.00,0.0081
2804.00,0.0080
2803.00,0.0080
2802.00,0.0080
2801.00,0.0079
2800.00,0.0079
2799.00,0.0079
2798.00,0.0079
2797.00,0.0079
2796.00,0.0078
2795.00,0.0078
2794.00,0.0078
2793.00,0.0078
2792.00,0.0077
2791.00,0.0077
2790.00,0.0077
2789.00,0.0077
2788.00,0.0077
2787.00,0.0076
2786.00,0.0076
2785.00,0.0076
2784.00,0.0076
2783.00,0.0076
2782.00,0.0076
2781.00,0.0076
2780.00,0.0075
2779.00,0.0075
2778.00,0.0075
2777.00,0.0075
2776.00,0.0075
2775.00,0.0075
2774.00,0.0074
2773.00,0.0074
2772.00,0.0074
2771.00,0.0074
2770.00,0.0073
2769.00,0.0073
2768.00,0.0073
2767.00,0.0073
2766.00,0.0073
2765.00,0.0072
2764.00,0.0072
2763.00,0.0072
2762.00,0.0072
2761.00,0.0072
2760.00,0.0072
2759.00,0.0071
2758.00,0.0071
2757.00,0.0071
2756.00,0.0071
2755.00,0.0070
2754.00,0.0070
2753.00,0.0070
2752.00,0.0070
2751.00,0.0070
2750.00,0.0070
2749.00,0.0070
2748.00,0.0070
2747.00,0.0069
2746.00,0.0069
2745.00,0.0069
2744.00,0.0069
2743.00,0.0068
2742.00,0.0068
2741.00,0.0068
2740.00,0.0068
2739.00,0.0068
2738.00,0.0067
2737.00,0.0067
2736.00,0.0067
2735.00,0.0067
2734.00,0.0067
2733.00,0.0066
2732.00,0.0066
2731.00,0.0066
2730.00,0.0066
2729.00,0.0066
2728.00,0.0066
2727.00,0.0066
2726.00,0.0065
2725.00,0.0065
2724.00,0.0065
2723.00,0.0065
2722.00,0.0064
2721.00,0.0064
2720.00,0.0064
2719.00,0.0064
2718.00,0.0064
2717.00,0.0063
2716.00,0.0063
2715.00,0.0063
2714.00,0.0063
2713.00,0.0063
2712.00,0.0063
2711.00,0.0063
2710.00,0.0063
2709.00,0.0062
2708.00,0.0062
2707.00,0.0062
2706.00,0.0062
2705.00,0.0062
2704.00,0.0062
2703.00,0.0061
2702.00,0.0061
2701.00,0.0061
2700.00,0.0061
2699.00,0.0061
2698.00,0.0061
2697.00,0.0061
2696.00,0.0061
2695.00,0.0061
2694.00,0.0061
2693.00,0.0060
2692.00,0.0060
2691.00,0.0060
2690.00,0.0060
2689.00,0.0060
2688.00,0.0060
2687.00,0.0060
2686.00,0.0060
2685.00,0.0060
2684.00,0.0060
2683.00,0.0060
2682.00,0.0060
2681.00,0.0060
2680.00,0.0060
2679.00,0.0059
2678.00,0.0059
2677.00,0.0059
2676.00,0.0059
2675.00,0.0059
2674.00,0.0059
2673.00,0.0059
2672.00,0.0059
2671.00,0.0059
2670.00,0.0059
2669.00,0.0059
2668.00,0.0059
2667.00,0.0059
2666.00,0.0059
2665.00,0.0060
2664.00,0.0060
2663.00,0.0061
2662.00,0.0062
2661.00,0.0062
2660.00,0.0062
2659.00,0.0062
2658.00,0.0062
2657.00,0.0063
2656.00,0.0063
2655.00,0.0063
2654.00,0.0063
2653.00,0.0062
2652.00,0.0062
2651.00,0.0062
2650.00,0.0062
2649.00,0.0062
2648.00,0.0062
2647.00,0.0062
2646.00,0.0062
2645.00,0.0062
2644.00,0.0062
2643.00,0.0062
2642.00,0.0062
2641.00,0.0062
2640.00,0.0062
2639.00,0.0061
2638.00,0.0061
2637.00,0.0061
2636.00,0.0061
2635.00,0.0061
2634.00,0.0061
2633.00,0.0061
2632.00,0.0061
2631.00,0.0060
2630.00,0.0060
2629.00,0.0060
2628.00,0.0060
2627.00,0.0060
2626.00,0.0060
2625.00,0.0059
2624.00,0.0059
2623.00,0.0059
2622.00,0.0059
2621.00,0.0059
2620.00,0.0059
2619.00,0.0058
2618.00,0.0058
2617.00,0.0058
2616.00,0.0058
2615.00,0.0058
2614.00,0.0058
2613.00,0.0058
2612.00,0.0057
2611.00,0.0057
2610.00,0.0057
2609.00,0.0056
2608.00,0.0056
2607.00,0.0056
2606.00,0.0056
2605.00,0.0056
2604.00,0.0056
2603.00,0.0055
2602.00,0.0055
2601.00,0.0055
2600.00,0.0055
2599.00,0.0055
2598.00,0.0055
2597.00,0.0055
2596.00,0.0055
2595.00,0.0055
2594.00,0.0055
2593.00,0.0054
2592.00,0.0054
2591.00,0.0054
2590.00,0.0054
2589.00,0.0054
2588.00,0.0053
2587.00,0.0053
2586.00,0.0053
2585.00,0.0052
2584.00,0.0052
2583.00,0.0052
2582.00,0.0052
2581.00,0.0052
2580.00,0.0052
2579.00,0.0052
2578.00,0.0051
2577.00,0.0051
2576.00,0.0051
2575.00,0.0051
2574.00,0.0051
2573.00,0.0051
2572.00,0.0051
2571.00,0.0050
2570.00,0.0050
2569.00,0.0050
2568.00,0.0050
2567.00,0.0050
2566.00,0.0050
2565.00,0.0049
2564.00,0.0049
2563.00,0.0049
2562.00,0.0048
2561.00,0.0048
2560.00,0.0048
2559.00,0.0048
2558.00,0.0048
2557.00,0.0048
2556.00,0.0048
2555.00,0.0048
2554.00,0.0048
2553.00,0.0048
2552.00,0.0048
2551.00,0.0048
2550.00,0.0048
2549.00,0.0048
2548.00,0.0048
2547.00,0.0048
2546.00,0.0047
2545.00,0.0047
2544.00,0.0047
2543.00,0.0046
2542.00,0.0046
2541.00,0.0046
2540.00,0.0046
2539.00,0.0046
2538.00,0.0046
2537.00,0.0046
2536.00,0.0046
2535.00,0.0046
2534.00,0.0046
2533.00,0.0046
2532.00,0.0046
2531.00,0.0046
2530.00,0.0046
2529.00,0.0046
2528.00,0.0045
2527.00,0.0045
2526.00,0.0045
2525.00,0.0045
2524.00,0.0045
2523.00,0.0044
2522.00,0.0044
2521.00,0.0044
2520.00,0.0044
2519.00,0.0044
2518.00,0.0044
2517.00,0.0044
2516.00,0.0044
2515.00,0.0044
2514.00,0.0044
2513.00,0.0044
2512.00,0.0044
2511.00,0.0045
2510.00,0.0045
2509.00,0.0044
2508.00,0.0044
2507.00,0.0044
2506.00,0.0044
2505.00,0.0043
2504.00,0.0043
2503.00,0.0043
2502.00,0.0043
2501.00,0.0043
2500.00,0.0043
2499.00,0.0042
2498.00,0.0042
2497.00,0.0042
2496.00,0.0042
2495.00,0.0042
2494.00,0.0042
2493.00,0.0042
2492.00,0.0042
2491.00,0.0042
2490.00,0.0042
2489.00,0.0042
2488.00,0.0042
2487.00,0.0041
2486.00,0.0041
2485.00,0.0041
2484.00,0.0041
2483.00,0.0041
2482.00,0.0041
2481.00,0.0040
2480.00,0.0040
2479.00,0.0040
2478.00,0.0041
2477.00,0.0041
2476.00,0.0041
2475.00,0.0041
2474.00,0.0041
2473.00,0.0041
2472.00,0.0041
2471.00,0.0041
2470.00,0.0041
2469.00,0.0041
2468.00,0.0041
2467.00,0.0041
2466.00,0.0041
2465.00,0.0041
2464.00,0.0041
2463.00,0.0041
2462.00,0.0041
2461.00,0.0041
2460.00,0.0041
2459.00,0.0041
2458.00,0.0041
2457.00,0.0041
2456.00,0.0041
2455.00,0.0041
2454.00,0.0041
2453.00,0.0041
2452.00,0.0041
2451.00,0.0041
2450.00,0.0041
2449.00,0.0040
2448.00,0.0040
2447.00,0.0040
2446.00,0.0040
2445.00,0.0040
2444.00,0.0039
2443.00,0.0039
2442.00,0.0039
2441.00,0.0039
2440.00,0.0039
2439.00,0.0038
2438.00,0.0038
2437.00,0.0038
2436.00,0.0037
2435.00,0.0037
2434.00,0.0037
2433.00,0.0036
2432.00,0.0036
2431.00,0.0036
2430.00,0.0036
2429.00,0.0036
2428.00,0.0036
2427.00,0.0036
2426.00,0.0036
2425.00,0.0036
2424.00,0.0035
2423.00,0.0035
2422.00,0.0035
2421.00,0.0035
2420.00,0.0035
2419.00,0.0035
2418.00,0.0035
2417.00,0.0035
2416.00,0.0035
2415.00,0.0035
2414.00,0.0035
2413.00,0.0035
2412.00,0.0035
2411.00,0.0034
2410.00,0.0034
2409.00,0.0033
2408.00,0.0033
2407.00,0.0032
2406.00,0.0032
2405.00,0.0032
2404.00,0.0032
2403.00,0.0032
2402.00,0.0032
2401.00,0.0031
2400.00,0.0031
2399.00,0.0031
2398.00,0.0031
2397.00,0.0032
2396.00,0.0032
2395.00,0.0032
2394.00,0.0032
2393.00,0.0032
2392.00,0.0031
2391.00,0.0031
2390.00,0.0031
2389.00,0.0031
2388.00,0.0031
2387.00,0.0030
2386.00,0.0030
2385.00,0.0029
2384.00,0.0029
2383.00,0.0028
2382.00,0.0028
2381.00,0.0027
2380.00,0.0027
2379.00,0.0027
2378.00,0.0027
2377.00,0.0027
2376.00,0.0027
2375.00,0.0027
2374.00,0.0027
2373.00,0.0027
2372.00,0.0027
2371.00,0.0026
2370.00,0.0026
2369.00,0.0025
2368.00,0.0025
2367.00,0.0024
2366.00,0.0025
2365.00,0.0025
2364.00,0.0026
2363.00,0.0027
2362.00,0.0027
2361.00,0.0027
2360.00,0.0027
2359.00,0.0027
2358.00,0.0027
2357.00,0.0028
2356.00,0.0028
2355.00,0.0029
2354.00,0.0028
2353.00,0.0028
2352.00,0.0028
2351.00,0.0028
2350.00,0.0028
2349.00,0.0030
2348.00,0.0031
2347.00,0.0031
2346.00,0.0031
2345.00,0.0031
2344.00,0.0031
2343.00,0.0031
2342.00,0.0032
2341.00,0.0032
2340.00,0.0032
2339.00,0.0032
2338.00,0.0032
2337.00,0.0031
2336.00,0.0031
2335.00,0.0032
2334.00,0.0032
2333.00,0.0032
2332.00,0.0031
2331.00,0.0031
2330.00,0.0032
2329.00,0.0035
2328.00,0.0039
2327.00,0.0044
2326.00,0.0048
2325.00,0.0048
2324.00,0.0046
2323.00,0.0044
2322.00,0.0041
2321.00,0.0040
2320.00,0.0040
2319.00,0.0039
2318.00,0.0039
2317.00,0.0038
2316.00,0.0038
2315.00,0.0037
2314.00,0.0036
2313.00,0.0036
2312.00,0.0035
2311.00,0.0035
2310.00,0.0034
2309.00,0.0034
2308.00,0.0034
2307.00,0.0035
2306.00,0.0035
2305.00,0.0036
2304.00,0.0036
2303.00,0.0037
2302.00,0.0037
2301.00,0.0037
2300.00,0.0038
2299.00,0.0038
2298.00,0.0039
2297.00,0.0040
2296.00,0.0040
2295.00,0.0041
2294.00,0.0042
2293.00,0.0043
2292.00,0.0044
2291.00,0.0045
2290.00,0.0046
2289.00,0.0046
2288.00,0.0047
2287.00,0.0047
2286.00,0.0046
2285.00,0.0045
2284.00,0.0044
2283.00,0.0043
2282.00,0.0042
2281.00,0.0041
2280.00,0.0041
2279.00,0.0040
2278.00,0.0040
2277.00,0.0040
2276.00,0.0040
2275.00,0.0040
2274.00,0.0040
2273.00,0.0039
2272.00,0.0039
2271.00,0.0039
2270.00,0.0038
2269.00,0.0037
2268.00,0.0037
2267.00,0.0036
2266.00,0.0036
2265.00,0.0036
2264.00,0.0037
2263.00,0.0038
2262.00,0.0038
2261.00,0.0039
2260.00,0.0038
2259.00,0.0038
2258.00,0.0036
2257.00,0.0036
2256.00,0.0035
2255.00,0.0035
2254.00,0.0035
2253.00,0.0036
2252.00,0.0036
2251.00,0.0035
2250.00,0.0035
2249.00,0.0035
2248.00,0.0035
2247.00,0.0035
2246.00,0.0035
2245.00,0.0035
2244.00,0.0035
2243.00,0.0036
2242.00,0.0035
2241.00,0.0035
2240.00,0.0035
2239.00,0.0035
2238.00,0.0035
2237.00,0.0035
2236.00,0.0036
2235.00,0.0036
2234.00,0.0036
2233.00,0.0036
2232.00,0.0036
2231.00,0.0035
2230.00,0.0034
2229.00,0.0033
2228.00,0.0032
2227.00,0.0032
2226.00,0.0032
2225.00,0.0032
2224.00,0.0032
2223.00,0.0032
2222.00,0.0032
2221.00,0.0033
2220.00,0.0034
2219.00,0.0035
2218.00,0.0036
2217.00,0.0036
2216.00,0.0035
2215.00,0.0033
2214.00,0.0032
2213.00,0.0031
2212.00,0.0031
2211.00,0.0031
2210.00,0.0031
2209.00,0.0032
2208.00,0.0033
2207.00,0.0033
2206.00,0.0034
2205.00,0.0034
2204.00,0.0033
2203.00,0.0033
2202.00,0.0032
2201.00,0.0032
2200.00,0.0033
2199.00,0.0034
2198.00,0.0034
2197.00,0.0034
2196.00,0.0034
2195.00,0.0034
2194.00,0.0035
2193.00,0.0036
2192.00,0.0036
2191.00,0.0037
2190.00,0.0037
2189.00,0.0038
2188.00,0.0038
2187.00,0.0039
2186.00,0.0038
2185.00,0.0035
2184.00,0.0032
2183.00,0.0029
2182.00,0.0028
2181.00,0.0029
2180.00,0.0030
2179.00,0.0030
2178.00,0.0028
2177.00,0.0026
2176.00,0.0025
2175.00,0.0026
2174.00,0.0028
2173.00,0.0031
2172.00,0.0035
2171.00,0.0039
2170.00,0.0041
2169.00,0.0042
2168.00,0.0043
2167.00,0.0044
2166.00,0.0046
2165.00,0.0050
2164.00,0.0053
2163.00,0.0052
2162.00,0.0044
2161.00,0.0028
2160.00,0.0010
2159.00,-0.0003
2158.00,-0.0009
2157.00,-0.0008
2156.00,-0.0004
2155.00,0.0000
2154.00,0.0003
2153.00,0.0006
2152.00,0.0007
2151.00,0.0008
2150.00,0.0009
2149.00,0.0010
2148.00,0.0011
2147.00,0.0011
2146.00,0.0011
2145.00,0.0011
2144.00,0.0011
2143.00,0.0011
2142.00,0.0011
2141.00,0.0011
2140.00,0.0011
2139.00,0.0012
2138.00,0.0011
2137.00,0.0009
2136.00,0.0007
2135.00,0.0005
2134.00,0.0004
2133.00,0.0005
2132.00,0.0007
2131.00,0.0009
2130.00,0.0011
2129.00,0.0014
2128.00,0.0016
2127.00,0.0018
2126.00,0.0020
2125.00,0.0021
2124.00,0.0023
2123.00,0.0024
2122.00,0.0025
2121.00,0.0026
2120.00,0.0027
2119.00,0.0028
2118.00,0.0030
2117.00,0.0031
2116.00,0.0032
2115.00,0.0033
2114.00,0.0033
2113.00,0.0032
2112.00,0.0031
2111.00,0.0031
2110.00,0.0030
2109.00,0.0030
2108.00,0.0030
2107.00,0.0030
2106.00,0.0030
2105.00,0.0030
2104.00,0.0030
2103.00,0.0030
2102.00,0.0029
2101.00,0.0029
2100.00,0.0029
2099.00,0.0028
2098.00,0.0026
2097.00,0.0024
2096.00,0.0022
2095.00,0.0022
2094.00,0.0023
2093.00,0.0024
2092.00,0.0026
2091.00,0.0027
2090.00,0.0028
2089.00,0.0028
2088.00,0.0029
2087.00,0.0030
2086.00,0.0030
2085.00,0.0031
2084.00,0.0032
2083.00,0.0033
2082.00,0.0033
2081.00,0.0032
2080.00,0.0031
2079.00,0.0030
2078.00,0.0030
2077.00,0.0030
2076.00,0.0031
2075.00,0.0031
2074.00,0.0031
2073.00,0.0031
2072.00,0.0032
2071.00,0.0031
2070.00,0.0031
2069.00,0.0030
2068.00,0.0030
2067.00,0.0029
2066.00,0.0029
2065.00,0.0028
2064.00,0.0028
2063.00,0.0028
2062.00,0.0028
2061.00,0.0028
2060.00,0.0028
2059.00,0.0028
2058.00,0.0028
2057.00,0.0028
2056.00,0.0027
2055.00,0.0028
2054.00,0.0031
2053.00,0.0035
2052.00,0.0039
2051.00,0.0038
2050.00,0.0036
2049.00,0.0032
2048.00,0.0030
2047.00,0.0030
2046.00,0.0030
2045.00,0.0031
2044.00,0.0031
2043.00,0.0030
2042.00,0.0028
2041.00,0.0026
2040.00,0.0026
2039.00,0.0026
2038.00,0.0027
2037.00,0.0028
2036.00,0.0028
2035.00,0.0027
2034.00,0.0026
2033.00,0.0025
2032.00,0.0024
2031.00,0.0022
2030.00,0.0021
2029.00,0.0019
2028.00,0.0019
2027.00,0.0018
2026.00,0.0016
2025.00,0.0014
2024.00,0.0013
2023.00,0.0013
2022.00,0.0014
2021.00,0.0016
2020.00,0.0017
2019.00,0.0019
2018.00,0.0019
2017.00,0.0019
2016.00,0.0019
2015.00,0.0017
2014.00,0.0016
2013.00,0.0016
2012.00,0.0017
2011.00,0.0017
2010.00,0.0016
2009.00,0.0014
2008.00,0.0012
2007.00,0.0010
2006.00,0.0009
2005.00,0.0010
2004.00,0.0012
2003.00,0.0014
2002.00,0.0016
2001.00,0.0019
2000.00,0.0021
1999.00,0.0022
1998.00,0.0022
1997.00,0.0023
1996.00,0.0023
1995.00,0.0023
1994.00,0.0022
1993.00,0.0022
1992.00,0.0022
1991.00,0.0023
1990.00,0.0024
1989.00,0.0026
1988.00,0.0027
1987.00,0.0028
1986.00,0.0028
1985.00,0.0029
1984.00,0.0030
1983.00,0.0033
1982.00,0.0036
1981.00,0.0036
1980.00,0.0031
1979.00,0.0023
1978.00,0.0015
1977.00,0.0010
1976.00,0.0010
1975.00,0.0012
1974.00,0.0013
1973.00,0.0013
1972.00,0.0011
1971.00,0.0010
1970.00,0.0009
1969.00,0.0009
1968.00,0.0009
1967.00,0.0009
1966.00,0.0008
1965.00,0.0008
1964.00,0.0008
1963.00,0.0008
1962.00,0.0008
1961.00,0.0007
1960.00,0.0006
1959.00,0.0005
1958.00,0.0006
1957.00,0.0008
1956.00,0.0012
1955.00,0.0014
1954.00,0.0015
1953.00,0.0014
1952.00,0.0013
1951.00,0.0012
1950.00,0.0011
1949.00,0.0011
1948.00,0.0011
1947.00,0.0012
1946.00,0.0012
1945.00,0.0013
1944.00,0.0014
1943.00,0.0014
1942.00,0.0014
1941.00,0.0014
1940.00,0.0014
1939.00,0.0013
1938.00,0.0013
1937.00,0.0012
1936.00,0.0012
1935.00,0.0013
1934.00,0.0013
1933.00,0.0014
1932.00,0.0014
1931.00,0.0014
1930.00,0.0014
1929.00,0.0014
1928.00,0.0015
1927.00,0.0016
1926.00,0.0016
1925.00,0.0016
1924.00,0.0016
1923.00,0.0018
1922.00,0.0019
1921.00,0.0020
1920.00,0.0021
1919.00,0.0021
1918.00,0.0020
1917.00,0.0019
1916.00,0.0018
1915.00,0.0018
1914.00,0.0018
1913.00,0.0019
1912.00,0.0019
1911.00,0.0019
1910.00,0.0019
1909.00,0.0019
1908.00,0.0019
1907.00,0.0019
1906.00,0.0019
1905.00,0.0019
1904.00,0.0019
1903.00,0.0019
1902.00,0.0019
1901.00,0.0019
1900.00,0.0019
1899.00,0.0020
1898.00,0.0021
1897.00,0.0021
1896.00,0.0021
1895.00,0.0020
1894.00,0.0019
1893.00,0.0019
1892.00,0.0019
1891.00,0.0019
1890.00,0.0019
1889.00,0.0019
1888.00,0.0019
1887.00,0.0019
1886.00,0.0019
1885.00,0.0020
1884.00,0.0020
1883.00,0.0020
1882.00,0.0020
1881.00,0.0020
1880.00,0.0020
1879.00,0.0020
1878.00,0.0019
1877.00,0.0019
1876.00,0.0020
1875.00,0.0020
1874.00,0.0020
1873.00,0.0020
1872.00,0.0020
1871.00,0.0020
1870.00,0.0020
1869.00,0.0020
1868.00,0.0020
1867.00,0.0020
1866.00,0.0020
1865.00,0.0020
1864.00,0.0020
1863.00,0.0020
1862.00,0.0020
1861.00,0.0021
1860.00,0.0021
1859.00,0.0021
1858.00,0.0021
1857.00,0.0021
1856.00,0.0021
1855.00,0.0021
1854.00,0.0021
1853.00,0.0021
1852.00,0.0021
1851.00,0.0021
1850.00,0.0021
1849.00,0.0021
1848.00,0.0021
1847.00,0.0021
1846.00,0.0021
1845.00,0.0021
1844.00,0.0021
1843.00,0.0021
1842.00,0.0021
1841.00,0.0021
1840.00,0.0021
1839.00,0.0021
1838.00,0.0021
1837.00,0.0021
1836.00,0.0021
1835.00,0.0021
1834.00,0.0021
1833.00,0.0022
1832.00,0.0022
1831.00,0.0022
1830.00,0.0023
1829.00,0.0022
1828.00,0.0022
1827.00,0.0022
1826.00,0.0022
1825.00,0.0022
1824.00,0.0023
1823.00,0.0023
1822.00,0.0023
1821.00,0.0023
1820.00,0.0022
1819.00,0.0021
1818.00,0.0020
1817.00,0.0019
1816.00,0.0020
1815.00,0.0020
1814.00,0.0021
1813.00,0.0022
1812.00,0.0023
1811.00,0.0023
1810.00,0.0023
1809.00,0.0023
1808.00,0.0023
1807.00,0.0023
1806.00,0.0024
1805.00,0.0024
1804.00,0.0024
1803.00,0.0024
1802.00,0.0024
1801.00,0.0024
1800.00,0.0024
1799.00,0.0025
1798.00,0.0025
1797.00,0.0025
1796.00,0.0025
1795.00,0.0025
1794.00,0.0025
1793.00,0.0025
1792.00,0.0025
1791.00,0.0025
1790.00,0.0025
1789.00,0.0026
1788.00,0.0026
1787.00,0.0026
1786.00,0.0026
1785.00,0.0026
1784.00,0.0026
1783.00,0.0026
1782.00,0.0026
1781.00,0.0026
1780.00,0.0026
1779.00,0.0026
1778.00,0.0026
1777.00,0.0026
1776.00,0.0027
1775.00,0.0027
1774.00,0.0027
1773.00,0.0027
1772.00,0.0027
1771.00,0.0027
1770.00,0.0027
1769.00,0.0028
1768.00,0.0028
1767.00,0.0029
1766.00,0.0029
1765.00,0.0029
1764.00,0.0029
1763.00,0.0030
1762.00,0.0030
1761.00,0.0030
1760.00,0.0030
1759.00,0.0031
1758.00,0.0031
1757.00,0.0031
1756.00,0.0032
1755.00,0.0032
1754.00,0.0033
1753.00,0.0034
1752.00,0.0035
1751.00,0.0036
1750.00,0.0036
1749.00,0.0037
1748.00,0.0038
1747.00,0.0039
1746.00,0.0039
1745.00,0.0040
1744.00,0.0041
1743.00,0.0041
1742.00,0.0042
1741.00,0.0042
1740.00,0.0043
1739.00,0.0044
1738.00,0.0045
1737.00,0.0046
1736.00,0.0047
1735.00,0.0047
1734.00,0.0048
1733.00,0.0048
1732.00,0.0049
1731.00,0.0050
1730.00,0.0050
1729.00,0.0051
1728.00,0.0052
1727.00,0.0052
1726.00,0.0053
1725.00,0.0054
1724.00,0.0056
1723.00,0.0057
1722.00,0.0058
1721.00,0.0059
1720.00,0.0060
1719.00,0.0062
1718.00,0.0064
1717.00,0.0066
1716.00,0.0069
1715.00,0.0071
1714.00,0.0072
1713.00,0.0074
1712.00,0.0077
1711.00,0.0079
1710.00,0.0082
1709.00,0.0085
1708.00,0.0088
1707.00,0.0092
1706.00,0.0097
1705.00,0.0103
1704.00,0.0108
1703.00,0.0112
1702.00,0.0117
1701.00,0.0124
1700.00,0.0135
1699.00,0.0145
1698.00,0.0152
1697.00,0.0159
1696.00,0.0167
1695.00,0.0175
1694.00,0.0180
1693.00,0.0185
1692.00,0.0189
1691.00,0.0193
1690.00,0.0198
1689.00,0.0203
1688.00,0.0208
1687.00,0.0212
1686.00,0.0216
1685.00,0.0222
1684.00,0.0231
1683.00,0.0240
1682.00,0.0246
1681.00,0.0250
1680.00,0.0254
1679.00,0.0259
1678.00,0.0262
1677.00,0.0266
1676.00,0.0272
1675.00,0.0279
1674.00,0.0286
1673.00,0.0291
1672.00,0.0295
1671.00,0.0300
1670.00,0.0306
1669.00,0.0314
1668.00,0.0321
1667.00,0.0327
1666.00,0.0331
1665.00,0.0334
1664.00,0.0339
1663.00,0.0346
1662.00,0.0353
1661.00,0.0359
1660.00,0.0365
1659.00,0.0369
1658.00,0.0373
1657.00,0.0376
1656.00,0.0378
1655.00,0.0379
1654.00,0.0384
1653.00,0.0396
1652.00,0.0408
1651.00,0.0413
1650.00,0.0414
1649.00,0.0414
1648.00,0.0416
1647.00,0.0421
1646.00,0.0427
1645.00,0.0432
1644.00,0.0435
1643.00,0.0436
1642.00,0.0438
1641.00,0.0440
1640.00,0.0442
1639.00,0.0443
1638.00,0.0444
1637.00,0.0446
1636.00,0.0451
1635.00,0.0458
1634.00,0.0463
1633.00,0.0466
1632.00,0.0467
1631.00,0.0467
1630.00,0.0467
1629.00,0.0468
1628.00,0.0469
1627.00,0.0470
1626.00,0.0469
1625.00,0.0467
1624.00,0.0464
1623.00,0.0462
1622.00,0.0459
1621.00,0.0454
1620.00,0.0447
1619.00,0.0439
1618.00,0.0430
1617.00,0.0421
1616.00,0.0412
1615.00,0.0404
1614.00,0.0395
1613.00,0.0386
1612.00,0.0375
1611.00,0.0365
1610.00,0.0355
1609.00,0.0347
1608.00,0.0338
1607.00,0.0330
1606.00,0.0322
1605.00,0.0315
1604.00,0.0308
1603.00,0.0301
1602.00,0.0296
1601.00,0.0290
1600.00,0.0285
1599.00,0.0280
1598.00,0.0276
1597.00,0.0273
1596.00,0.0269
1595.00,0.0266
1594.00,0.0263
1593.00,0.0260
1592.00,0.0257
1591.00,0.0255
1590.00,0.0253
1589.00,0.0251
1588.00,0.0249
1587.00,0.0248
1586.00,0.0247
1585.00,0.0247
1584.00,0.0246
1583.00,0.0246
1582.00,0.0246
1581.00,0.0247
1580.00,0.0247
1579.00,0.0248
1578.00,0.0248
1577.00,0.0250
1576.00,0.0254
1575.00,0.0258
1574.00,0.0261
1573.00,0.0262
1572.00,0.0263
1571.00,0.0264
1570.00,0.0268
1569.00,0.0273
1568.00,0.0278
1567.00,0.0281
1566.00,0.0283
1565.00,0.0287
1564.00,0.0290
1563.00,0.0293
1562.00,0.0294
1561.00,0.0294
1560.00,0.0296
1559.00,0.0306
1558.00,0.0317
1557.00,0.0322
1556.00,0.0325
1555.00,0.0328
1554.00,0.0332
1553.00,0.0336
1552.00,0.0340
1551.00,0.0343
1550.00,0.0347
1549.00,0.0352
1548.00,0.0355
1547.00,0.0358
1546.00,0.0360
1545.00,0.0363
1544.00,0.0366
1543.00,0.0369
1542.00,0.0372
1541.00,0.0376
1540.00,0.0383
1539.00,0.0390
1538.00,0.0395
1537.00,0.0396
1536.00,0.0396
1535.00,0.0396
1534.00,0.0399
1533.00,0.0404
1532.00,0.0408
1531.00,0.0410
1530.00,0.0411
1529.00,0.0411
1528.00,0.0412
1527.00,0.0414
1526.00,0.0415
1525.00,0.0417
1524.00,0.0417
1523.00,0.0417
1522.00,0.0418
1521.00,0.0422
1520.00,0.0425
1519.00,0.0426
1518.00,0.0426
1517.00,0.0427
1516.00,0.0428
1515.00,0.0428
1514.00,0.0426
1513.00,0.0422
1512.00,0.0417
1511.00,0.0413
1510.00,0.0408
1509.00,0.0402
1508.00,0.0396
1507.00,0.0391
1506.00,0.0386
1505.00,0.0382
1504.00,0.0377
1503.00,0.0371
1502.00,0.0364
1501.00,0.0357
1500.00,0.0350
1499.00,0.0343
1498.00,0.0337
1497.00,0.0330
1496.00,0.0324
1495.00,0.0318
1494.00,0.0311
1493.00,0.0304
1492.00,0.0296
1491.00,0.0289
1490.00,0.0283
1489.00,0.0277
1488.00,0.0271
1487.00,0.0265
1486.00,0.0260
1485.00,0.0254
1484.00,0.0249
1483.00,0.0244
1482.00,0.0240
1481.00,0.0237
1480.00,0.0234
1479.00,0.0231
1478.00,0.0229
1477.00,0.0227
1476.00,0.0227
1475.00,0.0227
1474.00,0.0227
1473.00,0.0229
1472.00,0.0232
1471.00,0.0235
1470.00,0.0236
1469.00,0.0237
1468.00,0.0236
1467.00,0.0236
1466.00,0.0235
1465.00,0.0236
1464.00,0.0236
1463.00,0.0236
1462.00,0.0236
1461.00,0.0236
1460.00,0.0236
1459.00,0.0237
1458.00,0.0239
1457.00,0.0243
1456.00,0.0247
1455.00,0.0248
1454.00,0.0248
1453.00,0.0248
1452.00,0.0247
1451.00,0.0247
1450.00,0.0246
1449.00,0.0245
1448.00,0.0244
1447.00,0.0244
1446.00,0.0244
1445.00,0.0243
1444.00,0.0242
1443.00,0.0241
1442.00,0.0240
1441.00,0.0239
1440.00,0.0238
1439.00,0.0236
1438.00,0.0233
1437.00,0.0232
1436.00,0.0230
1435.00,0.0228
1434.00,0.0226
1433.00,0.0224
1432.00,0.0221
1431.00,0.0219
1430.00,0.0217
1429.00,0.0216
1428.00,0.0215
1427.00,0.0214
1426.00,0.0213
1425.00,0.0212
1424.00,0.0213
1423.00,0.0213
1422.00,0.0214
1421.00,0.0214
1420.00,0.0215
1419.00,0.0217
1418.00,0.0220
1417.00,0.0222
1416.00,0.0223
1415.00,0.0224
1414.00,0.0225
1413.00,0.0226
1412.00,0.0227
1411.00,0.0229
1410.00,0.0231
1409.00,0.0232
1408.00,0.0234
1407.00,0.0235
1406.00,0.0237
1405.00,0.0239
1404.00,0.0242
1403.00,0.0244
1402.00,0.0245
1401.00,0.0246
1400.00,0.0248
1399.00,0.0250
1398.00,0.0251
1397.00,0.0252
1396.00,0.0253
1395.00,0.0254
1394.00,0.0256
1393.00,0.0257
1392.00,0.0257
1391.00,0.0257
1390.00,0.0256
1389.00,0.0256
1388.00,0.0255
1387.00,0.0255
1386.00,0.0254
1385.00,0.0253
1384.00,0.0251
1383.00,0.0248
1382.00,0.0246
1381.00,0.0243
1380.00,0.0241
1379.00,0.0240
1378.00,0.0238
1377.00,0.0236
1376.00,0.0235
1375.00,0.0233
1374.00,0.0232
1373.00,0.0231
1372.00,0.0230
1371.00,0.0229
1370.00,0.0228
1369.00,0.0227
1368.00,0.0225
1367.00,0.0223
1366.00,0.0221
1365.00,0.0218
1364.00,0.0216
1363.00,0.0214
1362.00,0.0213
1361.00,0.0211
1360.00,0.0210
1359.00,0.0209
1358.00,0.0208
1357.00,0.0207
1356.00,0.0206
1355.00,0.0205
1354.00,0.0204
1353.00,0.0203
1352.00,0.0203
1351.00,0.0203
1350.00,0.0202
1349.00,0.0202
1348.00,0.0202
1347.00,0.0202
1346.00,0.0202
1345.00,0.0202
1344.00,0.0201
1343.00,0.0201
1342.00,0.0201
1341.00,0.0201
1340.00,0.0201
1339.00,0.0201
1338.00,0.0201
1337.00,0.0201
1336.00,0.0200
1335.00,0.0199
1334.00,0.0199
1333.00,0.0198
1332.00,0.0197
1331.00,0.0197
1330.00,0.0196
1329.00,0.0196
1328.00,0.0196
1327.00,0.0196
1326.00,0.0196
1325.00,0.0196
1324.00,0.0196
1323.00,0.0197
1322.00,0.0197
1321.00,0.0197
1320.00,0.0198
1319.00,0.0198
1318.00,0.0199
1317.00,0.0200
1316.00,0.0200
1315.00,0.0200
1314.00,0.0200
1313.00,0.0201
1312.00,0.0201
1311.00,0.0201
1310.00,0.0201
1309.00,0.0201
1308.00,0.0201
1307.00,0.0201
1306.00,0.0201
1305.00,0.0200
1304.00,0.0200
1303.00,0.0200
1302.00,0.0199
1301.00,0.0199
1300.00,0.0199
1299.00,0.0199
1298.00,0.0200
1297.00,0.0200
1296.00,0.0200
1295.00,0.0201
1294.00,0.0201
1293.00,0.0202
1292.00,0.0202
1291.00,0.0202
1290.00,0.0203
1289.00,0.0204
1288.00,0.0204
1287.00,0.0205
1286.00,0.0206
1285.00,0.0207
1284.00,0.0207
1283.00,0.0208
1282.00,0.0208
1281.00,0.0209
1280.00,0.0209
1279.00,0.0209
1278.00,0.0209
1277.00,0.0210
1276.00,0.0210
1275.00,0.0210
1274.00,0.0211
1273.00,0.0211
1272.00,0.0212
1271.00,0.0213
1270.00,0.0214
1269.00,0.0215
1268.00,0.0216
1267.00,0.0217
1266.00,0.0219
1265.00,0.0220
1264.00,0.0222
1263.00,0.0224
1262.00,0.0226
1261.00,0.0229
1260.00,0.0231
1259.00,0.0233
1258.00,0.0236
1257.00,0.0238
1256.00,0.0241
1255.00,0.0243
1254.00,0.0246
1253.00,0.0248
1252.00,0.0251
1251.00,0.0254
1250.00,0.0257
1249.00,0.0260
1248.00,0.0263
1247.00,0.0265
1246.00,0.0268
1245.00,0.0270
1244.00,0.0273
1243.00,0.0275
1242.00,0.0278
1241.00,0.0281
1240.00,0.0283
1239.00,0.0285
1238.00,0.0287
1237.00,0.0290
1236.00,0.0292
1235.00,0.0293
1234.00,0.0295
1233.00,0.0296
1232.00,0.0298
1231.00,0.0299
1230.00,0.0300
1229.00,0.0300
1228.00,0.0301
1227.00,0.0301
1226.00,0.0302
1225.00,0.0302
1224.00,0.0302
1223.00,0.0302
1222.00,0.0302
1221.00,0.0301
1220.00,0.0301
1219.00,0.0300
1218.00,0.0299
1217.00,0.0298
1216.00,0.0297
1215.00,0.0296
1214.00,0.0294
1213.00,0.0293
1212.00,0.0291
1211.00,0.0290
1210.00,0.0288
1209.00,0.0285
1208.00,0.0283
1207.00,0.0281
1206.00,0.0279
1205.00,0.0277
1204.00,0.0275
1203.00,0.0273
1202.00,0.0271
1201.00,0.0269
1200.00,0.0268
1199.00,0.0266
1198.00,0.0264
1197.00,0.0263
1196.00,0.0261
1195.00,0.0260
1194.00,0.0258
1193.00,0.0257
1192.00,0.0256
1191.00,0.0255
1190.00,0.0254
1189.00,0.0254
1188.00,0.0253
1187.00,0.0253
1186.00,0.0253
1185.00,0.0252
1184.00,0.0252
1183.00,0.0252
1182.00,0.0253
1181.00,0.0253
1180.00,0.0255
1179.00,0.0256
1178.00,0.0257
1177.00,0.0258
1176.00,0.0259
1175.00,0.0261
1174.00,0.0263
1173.00,0.0265
1172.00,0.0267
1171.00,0.0269
1170.00,0.0271
1169.00,0.0272
1168.00,0.0274
1167.00,0.0276
1166.00,0.0278
1165.00,0.0281
1164.00,0.0283
1163.00,0.0285
1162.00,0.0288
1161.00,0.0290
1160.00,0.0292
1159.00,0.0293
1158.00,0.0295
1157.00,0.0297
1156.00,0.0298
1155.00,0.0299
1154.00,0.0300
1153.00,0.0301
1152.00,0.0302
1151.00,0.0303
1150.00,0.0303
1149.00,0.0302
1148.00,0.0302
1147.00,0.0301
1146.00,0.0300
1145.00,0.0300
1144.00,0.0299
1143.00,0.0299
1142.00,0.0299
1141.00,0.0299
1140.00,0.0299
1139.00,0.0300
1138.00,0.0300
1137.00,0.0300
1136.00,0.0301
1135.00,0.0303
1134.00,0.0305
1133.00,0.0307
1132.00,0.0309
1131.00,0.0311
1130.00,0.0313
1129.00,0.0315
1128.00,0.0317
1127.00,0.0319
1126.00,0.0321
1125.00,0.0322
1124.00,0.0324
1123.00,0.0326
1122.00,0.0329
1121.00,0.0331
1120.00,0.0332
1119.00,0.0334
1118.00,0.0336
1117.00,0.0337
1116.00,0.0339
1115.00,0.0341
1114.00,0.0343
1113.00,0.0344
1112.00,0.0346
1111.00,0.0348
1110.00,0.0350
1109.00,0.0352
1108.00,0.0354
1107.00,0.0356
1106.00,0.0359
1105.00,0.0361
1104.00,0.0364
1103.00,0.0366
1102.00,0.0369
1101.00,0.0372
1100.00,0.0374
1099.00,0.0377
1098.00,0.0380
1097.00,0.0383
1096.00,0.0387
1095.00,0.0391
1094.00,0.0394
1093.00,0.0399
1092.00,0.0403
1091.00,0.0408
1090.00,0.0412
1089.00,0.0417
1088.00,0.0422
1087.00,0.0427
1086.00,0.0432
1085.00,0.0437
1084.00,0.0441
1083.00,0.0445
1082.00,0.0449
1081.00,0.0452
1080.00,0.0456
1079.00,0.0459
1078.00,0.0461
1077.00,0.0463
1076.00,0.0464
1075.00,0.0466
1074.00,0.0467
1073.00,0.0468
1072.00,0.0469
1071.00,0.0469
1070.00,0.0470
1069.00,0.0471
1068.00,0.0473
1067.00,0.0474
1066.00,0.0476
1065.00,0.0478
1064.00,0.0480
1063.00,0.0482
1062.00,0.0484
1061.00,0.0486
1060.00,0.0488
1059.00,0.0490
1058.00,0.0491
1057.00,0.0492
1056.00,0.0494
1055.00,0.0495
1054.00,0.0496
1053.00,0.0497
1052.00,0.0498
1051.00,0.0498
1050.00,0.0499
1049.00,0.0499
1048.00,0.0499
1047.00,0.0500
1046.00,0.0501
1045.00,0.0501
1044.00,0.0502
1043.00,0.0502
1042.00,0.0502
1041.00,0.0501
1040.00,0.0501
1039.00,0.0502
1038.00,0.0502
1037.00,0.0502
1036.00,0.0502
1035.00,0.0503
1034.00,0.0504
1033.00,0.0504
1032.00,0.0505
1031.00,0.0506
1030.00,0.0506
1029.00,0.0506
1028.00,0.0506
1027.00,0.0506
1026.00,0.0505
1025.00,0.0505
1024.00,0.0504
1023.00,0.0502
1022.00,0.0501
1021.00,0.0499
1020.00,0.0498
1019.00,0.0496
1018.00,0.0494
1017.00,0.0492
1016.00,0.0491
1015.00,0.0489
1014.00,0.0486
1013.00,0.0484
1012.00,0.0481
1011.00,0.0479
1010.00,0.0476
1009.00,0.0473
1008.00,0.0471
1007.00,0.0469
1006.00,0.0467
1005.00,0.0465
1004.00,0.0463
1003.00,0.0461
1002.00,0.0459
1001.00,0.0456
1000.00,0.0454
999.00,0.0452
998.00,0.0450
997.00,0.0448
996.00,0.0446
995.00,0.0443
994.00,0.0441
993.00,0.0439
992.00,0.0436
991.00,0.0433
990.00,0.0431
989.00,0.0428
988.00,0.0426
987.00,0.0424
986.00,0.0422
985.00,0.0420
984.00,0.0418
983.00,0.0416
982.00,0.0415
981.00,0.0413
980.00,0.0413
979.00,0.0412
978.00,0.0412
977.00,0.0413
976.00,0.0414
975.00,0.0415
974.00,0.0415
973.00,0.0416
972.00,0.0416
971.00,0.0417
970.00,0.0418
969.00,0.0419
968.00,0.0420
967.00,0.0420
966.00,0.0421
965.00,0.0421
964.00,0.0421
963.00,0.0422
962.00,0.0422
961.00,0.0423
960.00,0.0423
959.00,0.0423
958.00,0.0423
957.00,0.0423
956.00,0.0424
955.00,0.0424
954.00,0.0425
953.00,0.0425
952.00,0.0425
951.00,0.0425
950.00,0.0425
949.00,0.0424
948.00,0.0424
947.00,0.0423
946.00,0.0423
945.00,0.0422
944.00,0.0421
943.00,0.0421
942.00,0.0421
941.00,0.0421
940.00,0.0421
939.00,0.0421
938.00,0.0421
937.00,0.0421
936.00,0.0421
935.00,0.0421
934.00,0.0421
933.00,0.0420
932.00,0.0420
931.00,0.0420
930.00,0.0419
929.00,0.0418
928.00,0.0417
927.00,0.0416
926.00,0.0416
925.00,0.0415
924.00,0.0415
923.00,0.0414
922.00,0.0413
921.00,0.0411
920.00,0.0410
919.00,0.0408
918.00,0.0407
917.00,0.0405
916.00,0.0403
915.00,0.0401
914.00,0.0399
913.00,0.0397
912.00,0.0395
911.00,0.0393
910.00,0.0391
909.00,0.0389
908.00,0.0387
907.00,0.0385
906.00,0.0383
905.00,0.0380
904.00,0.0378
903.00,0.0376
902.00,0.0374
901.00,0.0372
900.00,0.0370
899.00,0.0368
898.00,0.0366
897.00,0.0364
896.00,0.0362
895.00,0.0361
894.00,0.0359
893.00,0.0357
892.00,0.0355
891.00,0.0352
890.00,0.0350
889.00,0.0348
888.00,0.0346
887.00,0.0345
886.00,0.0343
885.00,0.0340
884.00,0.0338
883.00,0.0336
882.00,0.0333
881.00,0.0330
880.00,0.0327
879.00,0.0325
878.00,0.0322
877.00,0.0320
876.00,0.0317
875.00,0.0315
874.00,0.0312
873.00,0.0308
872.00,0.0305
871.00,0.0302
870.00,0.0299
869.00,0.0297
868.00,0.0295
867.00,0.0294
866.00,0.0292
865.00,0.0291
864.00,0.0289
863.00,0.0287
862.00,0.0285
861.00,0.0283
860.00,0.0281
859.00,0.0280
858.00,0.0279
857.00,0.0277
856.00,0.0276
855.00,0.0275
854.00,0.0274
853.00,0.0273
852.00,0.0272
851.00,0.0271
850.00,0.0270
849.00,0.0269
848.00,0.0268
847.00,0.0267
846.00,0.0266
845.00,0.0265
844.00,0.0265
843.00,0.0265
842.00,0.0265
841.00,0.0266
840.00,0.0266
839.00,0.0267
838.00,0.0268
837.00,0.0269
836.00,0.0270
835.00,0.0271
834.00,0.0273
833.00,0.0274
832.00,0.0275
831.00,0.0276
830.00,0.0277
829.00,0.0279
828.00,0.0281
827.00,0.0282
826.00,0.0284
825.00,0.0285
824.00,0.0287
823.00,0.0288
822.00,0.0289
821.00,0.0291
820.00,0.0293
819.00,0.0295
818.00,0.0297
817.00,0.0299
816.00,0.0301
815.00,0.0302
814.00,0.0304
813.00,0.0305
812.00,0.0306
811.00,0.0308
810.00,0.0310
809.00,0.0312
808.00,0.0314
807.00,0.0316
806.00,0.0318
805.00,0.0320
804.00,0.0322
803.00,0.0324
802.00,0.0325
801.00,0.0326
800.00,0.0328
799.00,0.0330
798.00,0.0332
797.00,0.0335
796.00,0.0337
795.00,0.0339
794.00,0.0341
793.00,0.0343
792.00,0.0345
791.00,0.0347
790.00,0.0349
789.00,0.0352
788.00,0.0355
787.00,0.0357
786.00,0.0360
785.00,0.0362
784.00,0.0364
783.00,0.0367
782.00,0.0368
781.00,0.0369
780.00,0.0370
779.00,0.0371
778.00,0.0372
777.00,0.0372
776.00,0.0373
775.00,0.0373
774.00,0.0374
773.00,0.0374
772.00,0.0375
771.00,0.0376
770.00,0.0377
769.00,0.0378
768.00,0.0378
767.00,0.0379
766.00,0.0379
765.00,0.0380
764.00,0.0381
763.00,0.0382
762.00,0.0382
761.00,0.0383
760.00,0.0383
759.00,0.0383
758.00,0.0383
757.00,0.0383
756.00,0.0383
755.00,0.0384
754.00,0.0384
753.00,0.0385
752.00,0.0386
751.00,0.0387
750.00,0.0387
749.00,0.0387
748.00,0.0388
747.00,0.0388
746.00,0.0388
745.00,0.0388
744.00,0.0388
743.00,0.0388
742.00,0.0388
741.00,0.0388
740.00,0.0388
739.00,0.0388
738.00,0.0387
737.00,0.0387
736.00,0.0387
735.00,0.0387
734.00,0.0387
733.00,0.0387
732.00,0.0388
731.00,0.0389
730.00,0.0390
729.00,0.0390
728.00,0.0391
727.00,0.0392
726.00,0.0393
725.00,0.0394
724.00,0.0396
723.00,0.0398
722.00,0.0399
721.00,0.0400
720.00,0.0401
719.00,0.0402
718.00,0.0404
717.00,0.0405
716.00,0.0406
715.00,0.0407
714.00,0.0408
713.00,0.0410
712.00,0.0412
711.00,0.0413
710.00,0.0415
709.00,0.0416
708.00,0.0417
707.00,0.0419
706.00,0.0421
705.00,0.0424
704.00,0.0426
703.00,0.0428
702.00,0.0429
701.00,0.0431
700.00,0.0432
699.00,0.0432
698.00,0.0433
697.00,0.0433
696.00,0.0432
695.00,0.0432
694.00,0.0432
693.00,0.0431
692.00,0.0431
691.00,0.0431
690.00,0.0432
689.00,0.0432
688.00,0.0432
687.00,0.0433
686.00,0.0433
685.00,0.0433
684.00,0.0434
683.00,0.0434
682.00,0.0434
681.00,0.0435
680.00,0.0436
679.00,0.0436
678.00,0.0437
677.00,0.0437
676.00,0.0437
675.00,0.0438
674.00,0.0438
673.00,0.0439
672.00,0.0439
671.00,0.0439
670.00,0.0439
669.00,0.0441
668.00,0.0446
667.00,0.0450
666.00,0.0449
665.00,0.0447
664.00,0.0445
663.00,0.0445
662.00,0.0446
661.00,0.0447
660.00,0.0447
659.00,0.0448
658.00,0.0448
657.00,0.0448
656.00,0.0449
655.00,0.0449
654.00,0.0450
653.00,0.0451
652.00,0.0452
651.00,0.0452
650.00,0.0453
649.00,0.0453
648.00,0.0453
647.00,0.0453
646.00,0.0454
645.00,0.0454
644.00,0.0454
643.00,0.0454
642.00,0.0454
641.00,0.0454
640.00,0.0454
639.00,0.0454
638.00,0.0455
637.00,0.0455
636.00,0.0456
635.00,0.0457
634.00,0.0458
633.00,0.0459
632.00,0.0460
631.00,0.0461
630.00,0.0461
629.00,0.0461
628.00,0.0462
627.00,0.0462
626.00,0.0462
625.00,0.0463
624.00,0.0464
623.00,0.0466
622.00,0.0467
621.00,0.0467
620.00,0.0467
619.00,0.0467
618.00,0.0466
617.00,0.0466
616.00,0.0467
615.00,0.0468
614.00,0.0469
613.00,0.0470
612.00,0.0471
611.00,0.0472
610.00,0.0472
609.00,0.0472
608.00,0.0472
607.00,0.0472
606.00,0.0472
605.00,0.0473
604.00,0.0473
603.00,0.0473
602.00,0.0472
601.00,0.0472
600.00,0.0473
599.00,0.0475
598.00,0.0476
597.00,0.0477
596.00,0.0477
595.00,0.0478
594.00,0.0480
593.00,0.0481
592.00,0.0481
591.00,0.0481
590.00,0.0481
589.00,0.0481
588.00,0.0481
587.00,0.0481
586.00,0.0482
585.00,0.0484
584.00,0.0485
583.00,0.0487
582.00,0.0489
581.00,0.0491
580.00,0.0492
579.00,0.0493
578.00,0.0494
577.00,0.0495
576.00,0.0497
575.00,0.0499
574.00,0.0500
573.00,0.0501
572.00,0.0502
571.00,0.0503
570.00,0.0503
569.00,0.0504
568.00,0.0505
567.00,0.0507
566.00,0.0509
565.00,0.0511
564.00,0.0512
563.00,0.0513
562.00,0.0514
561.00,0.0514
560.00,0.0514
559.00,0.0514
558.00,0.0514
557.00,0.0515
556.00,0.0517
555.00,0.0519
554.00,0.0522
553.00,0.0524
552.00,0.0526
551.00,0.0528
550.00,0.0531
549.00,0.0533
548.00,0.0536
547.00,0.0538
546.00,0.0540
545.00,0.0542
544.00,0.0544
543.00,0.0546
542.00,0.0548
541.00,0.0550
540.00,0.0552
539.00,0.0554
538.00,0.0555
537.00,0.0557
536.00,0.0560
535.00,0.0563
534.00,0.0566
533.00,0.0568
532.00,0.0571
531.00,0.0572
530.00,0.0574
529.00,0.0576
528.00,0.0579
527.00,0.0582
526.00,0.0586
525.00,0.0588
524.00,0.0591
523.00,0.0593
522.00,0.0595
521.00,0.0598
520.00,0.0602
519.00,0.0606
518.00,0.0610
517.00,0.0614
516.00,0.0617
515.00,0.0620
514.00,0.0622
513.00,0.0623
512.00,0.0624
511.00,0.0626
510.00,0.0628
509.00,0.0632
508.00,0.0636
507.00,0.0641
506.00,0.0644
505.00,0.0646
504.00,0.0649
503.00,0.0651
502.00,0.0653
501.00,0.0656
500.00,0.0658
499.00,0.0661
498.00,0.0664
497.00,0.0668
496.00,0.0671
495.00,0.0674
494.00,0.0677
493.00,0.0679
492.00,0.0681
491.00,0.0682
490.00,0.0682
489.00,0.0684
488.00,0.0687
487.00,0.0692
486.00,0.0695
485.00,0.0698
484.00,0.0701
483.00,0.0703
482.00,0.0704
481.00,0.0705
480.00,0.0706
479.00,0.0707
478.00,0.0709
477.00,0.0712
476.00,0.0717
475.00,0.0721
474.00,0.0724
473.00,0.0727
472.00,0.0730
471.00,0.0731
470.00,0.0729
469.00,0.0728
468.00,0.0729
467.00,0.0731
466.00,0.0732
465.00,0.0732
464.00,0.0731
463.00,0.0733
462.00,0.0735
461.00,0.0739
460.00,0.0742
459.00,0.0742
458.00,0.0740
457.00,0.0738
456.00,0.0741
455.00,0.0745
454.00,0.0749
453.00,0.0753
452.00,0.0755
451.00,0.0754
450.00,0.0749
449.00,0.0745
448.00,0.0744
447.00,0.0747
446.00,0.0751
445.00,0.0756
444.00,0.0758
443.00,0.0755
442.00,0.0750
441.00,0.0744
440.00,0.0741
439.00,0.0738
438.00,0.0735
437.00,0.0733
436.00,0.0733
435.00,0.0733
434.00,0.0731
433.00,0.0727
432.00,0.0727
431.00,0.0730
430.00,0.0735
429.00,0.0740
428.00,0.0745
427.00,0.0750
426.00,0.0753
425.00,0.0753
424.00,0.0752
423.00,0.0750
422.00,0.0747
421.00,0.0746
420.00,0.0748
419.00,0.0747
418.00,0.0738
417.00,0.0730
416.00,0.0726
415.00,0.0724
414.00,0.0722
413.00,0.0720
412.00,0.0720
411.00,0.0721
410.00,0.0722
409.00,0.0723
408.00,0.0725
407.00,0.0724
406.00,0.0719
405.00,0.0715
404.00,0.0714
403.00,0.0714
402.00,0.0716
401.00,0.0721
400.00,0.0734
