Created as New Dataset,Sample 589 By YargerLab Date Thursday, June 05 2025
cm-1,A
4000.00,0.0026
3999.00,0.0026
3998.00,0.0026
3997.00,0.0026
3996.00,0.0026
3995.00,0.0026
3994.00,0.0026
3993.00,0.0026
3992.00,0.0026
3991.00,0.0025
3990.00,0.0025
3989.00,0.0025
3988.00,0.0026
3987.00,0.0026
3986.00,0.0026
3985.00,0.0026
3984.00,0.0026
3983.00,0.0026
3982.00,0.0026
3981.00,0.0026
3980.00,0.0026
3979.00,0.0026
3978.00,0.0026
3977.00,0.0026
3976.00,0.0026
3975.00,0.0026
3974.00,0.0026
3973.00,0.0026
3972.00,0.0026
3971.00,0.0026
3970.00,0.0026
3969.00,0.0026
3968.00,0.0026
3967.00,0.0026
3966.00,0.0026
3965.00,0.0026
3964.00,0.0026
3963.00,0.0026
3962.00,0.0026
3961.00,0.0026
3960.00,0.0026
3959.00,0.0026
3958.00,0.0026
3957.00,0.0026
3956.00,0.0026
3955.00,0.0026
3954.00,0.0026
3953.00,0.0026
3952.00,0.0026
3951.00,0.0026
3950.00,0.0026
3949.00,0.0026
3948.00,0.0025
3947.00,0.0025
3946.00,0.0025
3945.00,0.0025
3944.00,0.0025
3943.00,0.0026
3942.00,0.0026
3941.00,0.0026
3940.00,0.0026
3939.00,0.0025
3938.00,0.0025
3937.00,0.0025
3936.00,0.0025
3935.00,0.0025
3934.00,0.0025
3933.00,0.0025
3932.00,0.0025
3931.00,0.0025
3930.00,0.0025
3929.00,0.0025
3928.00,0.0025
3927.00,0.0025
3926.00,0.0025
3925.00,0.0025
3924.00,0.0025
3923.00,0.0025
3922.00,0.0025
3921.00,0.0025
3920.00,0.0025
3919.00,0.0025
3918.00,0.0025
3917.00,0.0025
3916.00,0.0025
3915.00,0.0025
3914.00,0.0025
3913.00,0.0025
3912.00,0.0025
3911.00,0.0025
3910.00,0.0025
3909.00,0.0025
3908.00,0.0025
3907.00,0.0025
3906.00,0.0025
3905.00,0.0024
3904.00,0.0024
3903.00,0.0024
3902.00,0.0024
3901.00,0.0024
3900.00,0.0024
3899.00,0.0024
3898.00,0.0024
3897.00,0.0025
3896.00,0.0024
3895.00,0.0024
3894.00,0.0024
3893.00,0.0024
3892.00,0.0024
3891.00,0.0024
3890.00,0.0024
3889.00,0.0024
3888.00,0.0024
3887.00,0.0024
3886.00,0.0024
3885.00,0.0024
3884.00,0.0023
3883.00,0.0023
3882.00,0.0023
3881.00,0.0023
3880.00,0.0024
3879.00,0.0024
3878.00,0.0024
3877.00,0.0024
3876.00,0.0023
3875.00,0.0023
3874.00,0.0023
3873.00,0.0023
3872.00,0.0024
3871.00,0.0023
3870.00,0.0023
3869.00,0.0023
3868.00,0.0023
3867.00,0.0022
3866.00,0.0022
3865.00,0.0022
3864.00,0.0023
3863.00,0.0023
3862.00,0.0023
3861.00,0.0023
3860.00,0.0023
3859.00,0.0023
3858.00,0.0023
3857.00,0.0024
3856.00,0.0024
3855.00,0.0023
3854.00,0.0023
3853.00,0.0023
3852.00,0.0022
3851.00,0.0022
3850.00,0.0022
3849.00,0.0022
3848.00,0.0022
3847.00,0.0023
3846.00,0.0023
3845.00,0.0023
3844.00,0.0023
3843.00,0.0023
3842.00,0.0023
3841.00,0.0022
3840.00,0.0022
3839.00,0.0022
3838.00,0.0022
3837.00,0.0022
3836.00,0.0022
3835.00,0.0022
3834.00,0.0023
3833.00,0.0023
3832.00,0.0023
3831.00,0.0023
3830.00,0.0023
3829.00,0.0023
3828.00,0.0023
3827.00,0.0023
3826.00,0.0023
3825.00,0.0023
3824.00,0.0023
3823.00,0.0023
3822.00,0.0022
3821.00,0.0022
3820.00,0.0022
3819.00,0.0022
3818.00,0.0022
3817.00,0.0022
3816.00,0.0022
3815.00,0.0022
3814.00,0.0022
3813.00,0.0022
3812.00,0.0022
3811.00,0.0022
3810.00,0.0022
3809.00,0.0022
3808.00,0.0022
3807.00,0.0022
3806.00,0.0022
3805.00,0.0023
3804.00,0.0023
3803.00,0.0022
3802.00,0.0022
3801.00,0.0022
3800.00,0.0021
3799.00,0.0021
3798.00,0.0021
3797.00,0.0021
3796.00,0.0022
3795.00,0.0022
3794.00,0.0022
3793.00,0.0023
3792.00,0.0023
3791.00,0.0023
3790.00,0.0023
3789.00,0.0023
3788.00,0.0023
3787.00,0.0023
3786.00,0.0023
3785.00,0.0023
3784.00,0.0023
3783.00,0.0023
3782.00,0.0023
3781.00,0.0023
3780.00,0.0023
3779.00,0.0023
3778.00,0.0023
3777.00,0.0023
3776.00,0.0023
3775.00,0.0023
3774.00,0.0023
3773.00,0.0023
3772.00,0.0023
3771.00,0.0023
3770.00,0.0023
3769.00,0.0023
3768.00,0.0023
3767.00,0.0022
3766.00,0.0022
3765.00,0.0022
3764.00,0.0023
3763.00,0.0023
3762.00,0.0023
3761.00,0.0022
3760.00,0.0023
3759.00,0.0023
3758.00,0.0023
3757.00,0.0023
3756.00,0.0023
3755.00,0.0022
3754.00,0.0022
3753.00,0.0022
3752.00,0.0021
3751.00,0.0021
3750.00,0.0021
3749.00,0.0021
3748.00,0.0021
3747.00,0.0021
3746.00,0.0021
3745.00,0.0021
3744.00,0.0021
3743.00,0.0021
3742.00,0.0021
3741.00,0.0020
3740.00,0.0020
3739.00,0.0020
3738.00,0.0019
3737.00,0.0019
3736.00,0.0019
3735.00,0.0019
3734.00,0.0019
3733.00,0.0019
3732.00,0.0019
3731.00,0.0020
3730.00,0.0020
3729.00,0.0021
3728.00,0.0021
3727.00,0.0021
3726.00,0.0021
3725.00,0.0021
3724.00,0.0021
3723.00,0.0021
3722.00,0.0021
3721.00,0.0021
3720.00,0.0020
3719.00,0.0020
3718.00,0.0020
3717.00,0.0020
3716.00,0.0021
3715.00,0.0021
3714.00,0.0021
3713.00,0.0021
3712.00,0.0021
3711.00,0.0021
3710.00,0.0021
3709.00,0.0021
3708.00,0.0021
3707.00,0.0020
3706.00,0.0020
3705.00,0.0020
3704.00,0.0020
3703.00,0.0020
3702.00,0.0020
3701.00,0.0021
3700.00,0.0021
3699.00,0.0021
3698.00,0.0021
3697.00,0.0021
3696.00,0.0021
3695.00,0.0021
3694.00,0.0021
3693.00,0.0020
3692.00,0.0020
3691.00,0.0020
3690.00,0.0019
3689.00,0.0018
3688.00,0.0018
3687.00,0.0018
3686.00,0.0018
3685.00,0.0019
3684.00,0.0019
3683.00,0.0019
3682.00,0.0019
3681.00,0.0019
3680.00,0.0019
3679.00,0.0018
3678.00,0.0018
3677.00,0.0017
3676.00,0.0017
3675.00,0.0017
3674.00,0.0017
3673.00,0.0017
3672.00,0.0016
3671.00,0.0016
3670.00,0.0016
3669.00,0.0017
3668.00,0.0017
3667.00,0.0017
3666.00,0.0017
3665.00,0.0017
3664.00,0.0017
3663.00,0.0017
3662.00,0.0017
3661.00,0.0017
3660.00,0.0016
3659.00,0.0016
3658.00,0.0016
3657.00,0.0016
3656.00,0.0016
3655.00,0.0016
3654.00,0.0016
3653.00,0.0016
3652.00,0.0016
3651.00,0.0016
3650.00,0.0016
3649.00,0.0016
3648.00,0.0016
3647.00,0.0016
3646.00,0.0017
3645.00,0.0017
3644.00,0.0017
3643.00,0.0017
3642.00,0.0017
3641.00,0.0017
3640.00,0.0017
3639.00,0.0017
3638.00,0.0017
3637.00,0.0017
3636.00,0.0017
3635.00,0.0018
3634.00,0.0018
3633.00,0.0018
3632.00,0.0018
3631.00,0.0018
3630.00,0.0018
3629.00,0.0018
3628.00,0.0019
3627.00,0.0019
3626.00,0.0019
3625.00,0.0019
3624.00,0.0019
3623.00,0.0019
3622.00,0.0019
3621.00,0.0019
3620.00,0.0019
3619.00,0.0019
3618.00,0.0020
3617.00,0.0020
3616.00,0.0020
3615.00,0.0020
3614.00,0.0021
3613.00,0.0021
3612.00,0.0021
3611.00,0.0021
3610.00,0.0020
3609.00,0.0020
3608.00,0.0020
3607.00,0.0021
3606.00,0.0020
3605.00,0.0020
3604.00,0.0020
3603.00,0.0020
3602.00,0.0020
3601.00,0.0020
3600.00,0.0020
3599.00,0.0020
3598.00,0.0020
3597.00,0.0020
3596.00,0.0020
3595.00,0.0020
3594.00,0.0021
3593.00,0.0021
3592.00,0.0021
3591.00,0.0021
3590.00,0.0021
3589.00,0.0021
3588.00,0.0021
3587.00,0.0021
3586.00,0.0021
3585.00,0.0021
3584.00,0.0021
3583.00,0.0021
3582.00,0.0021
3581.00,0.0022
3580.00,0.0022
3579.00,0.0022
3578.00,0.0022
3577.00,0.0023
3576.00,0.0023
3575.00,0.0023
3574.00,0.0023
3573.00,0.0023
3572.00,0.0023
3571.00,0.0023
3570.00,0.0023
3569.00,0.0023
3568.00,0.0023
3567.00,0.0023
3566.00,0.0024
3565.00,0.0024
3564.00,0.0024
3563.00,0.0024
3562.00,0.0024
3561.00,0.0025
3560.00,0.0025
3559.00,0.0025
3558.00,0.0026
3557.00,0.0026
3556.00,0.0026
3555.00,0.0026
3554.00,0.0027
3553.00,0.0027
3552.00,0.0027
3551.00,0.0027
3550.00,0.0027
3549.00,0.0028
3548.00,0.0028
3547.00,0.0028
3546.00,0.0029
3545.00,0.0029
3544.00,0.0030
3543.00,0.0030
3542.00,0.0031
3541.00,0.0031
3540.00,0.0031
3539.00,0.0032
3538.00,0.0032
3537.00,0.0032
3536.00,0.0032
3535.00,0.0033
3534.00,0.0033
3533.00,0.0033
3532.00,0.0034
3531.00,0.0034
3530.00,0.0034
3529.00,0.0034
3528.00,0.0035
3527.00,0.0035
3526.00,0.0036
3525.00,0.0036
3524.00,0.0037
3523.00,0.0037
3522.00,0.0038
3521.00,0.0039
3520.00,0.0040
3519.00,0.0041
3518.00,0.0042
3517.00,0.0042
3516.00,0.0043
3515.00,0.0044
3514.00,0.0045
3513.00,0.0046
3512.00,0.0047
3511.00,0.0048
3510.00,0.0049
3509.00,0.0050
3508.00,0.0051
3507.00,0.0052
3506.00,0.0053
3505.00,0.0054
3504.00,0.0055
3503.00,0.0057
3502.00,0.0059
3501.00,0.0060
3500.00,0.0061
3499.00,0.0062
3498.00,0.0064
3497.00,0.0066
3496.00,0.0068
3495.00,0.0070
3494.00,0.0072
3493.00,0.0074
3492.00,0.0076
3491.00,0.0078
3490.00,0.0080
3489.00,0.0083
3488.00,0.0085
3487.00,0.0088
3486.00,0.0091
3485.00,0.0093
3484.00,0.0096
3483.00,0.0099
3482.00,0.0102
3481.00,0.0105
3480.00,0.0108
3479.00,0.0111
3478.00,0.0114
3477.00,0.0117
3476.00,0.0121
3475.00,0.0125
3474.00,0.0130
3473.00,0.0135
3472.00,0.0140
3471.00,0.0146
3470.00,0.0153
3469.00,0.0160
3468.00,0.0168
3467.00,0.0178
3466.00,0.0188
3465.00,0.0200
3464.00,0.0214
3463.00,0.0229
3462.00,0.0247
3461.00,0.0266
3460.00,0.0288
3459.00,0.0311
3458.00,0.0335
3457.00,0.0361
3456.00,0.0387
3455.00,0.0412
3454.00,0.0434
3453.00,0.0454
3452.00,0.0468
3451.00,0.0477
3450.00,0.0480
3449.00,0.0476
3448.00,0.0468
3447.00,0.0455
3446.00,0.0438
3445.00,0.0419
3444.00,0.0400
3443.00,0.0379
3442.00,0.0359
3441.00,0.0339
3440.00,0.0320
3439.00,0.0302
3438.00,0.0285
3437.00,0.0269
3436.00,0.0255
3435.00,0.0242
3434.00,0.0229
3433.00,0.0218
3432.00,0.0208
3431.00,0.0198
3430.00,0.0190
3429.00,0.0182
3428.00,0.0174
3427.00,0.0167
3426.00,0.0161
3425.00,0.0155
3424.00,0.0150
3423.00,0.0145
3422.00,0.0141
3421.00,0.0137
3420.00,0.0133
3419.00,0.0130
3418.00,0.0127
3417.00,0.0124
3416.00,0.0122
3415.00,0.0120
3414.00,0.0118
3413.00,0.0116
3412.00,0.0114
3411.00,0.0112
3410.00,0.0110
3409.00,0.0109
3408.00,0.0107
3407.00,0.0106
3406.00,0.0106
3405.00,0.0105
3404.00,0.0104
3403.00,0.0103
3402.00,0.0103
3401.00,0.0102
3400.00,0.0101
3399.00,0.0101
3398.00,0.0101
3397.00,0.0100
3396.00,0.0100
3395.00,0.0100
3394.00,0.0099
3393.00,0.0099
3392.00,0.0099
3391.00,0.0099
3390.00,0.0098
3389.00,0.0098
3388.00,0.0098
3387.00,0.0097
3386.00,0.0097
3385.00,0.0097
3384.00,0.0097
3383.00,0.0097
3382.00,0.0097
3381.00,0.0097
3380.00,0.0097
3379.00,0.0097
3378.00,0.0097
3377.00,0.0098
3376.00,0.0098
3375.00,0.0098
3374.00,0.0098
3373.00,0.0098
3372.00,0.0098
3371.00,0.0098
3370.00,0.0098
3369.00,0.0098
3368.00,0.0098
3367.00,0.0098
3366.00,0.0099
3365.00,0.0099
3364.00,0.0099
3363.00,0.0099
3362.00,0.0099
3361.00,0.0099
3360.00,0.0100
3359.00,0.0100
3358.00,0.0100
3357.00,0.0100
3356.00,0.0101
3355.00,0.0101
3354.00,0.0102
3353.00,0.0102
3352.00,0.0103
3351.00,0.0103
3350.00,0.0103
3349.00,0.0104
3348.00,0.0104
3347.00,0.0104
3346.00,0.0104
3345.00,0.0105
3344.00,0.0105
3343.00,0.0105
3342.00,0.0106
3341.00,0.0106
3340.00,0.0107
3339.00,0.0107
3338.00,0.0107
3337.00,0.0108
3336.00,0.0108
3335.00,0.0109
3334.00,0.0109
3333.00,0.0110
3332.00,0.0110
3331.00,0.0111
3330.00,0.0111
3329.00,0.0112
3328.00,0.0112
3327.00,0.0113
3326.00,0.0114
3325.00,0.0114
3324.00,0.0115
3323.00,0.0116
3322.00,0.0116
3321.00,0.0117
3320.00,0.0117
3319.00,0.0118
3318.00,0.0118
3317.00,0.0119
3316.00,0.0120
3315.00,0.0120
3314.00,0.0121
3313.00,0.0122
3312.00,0.0123
3311.00,0.0124
3310.00,0.0124
3309.00,0.0125
3308.00,0.0125
3307.00,0.0126
3306.00,0.0127
3305.00,0.0128
3304.00,0.0129
3303.00,0.0129
3302.00,0.0130
3301.00,0.0131
3300.00,0.0132
3299.00,0.0133
3298.00,0.0134
3297.00,0.0135
3296.00,0.0135
3295.00,0.0136
3294.00,0.0136
3293.00,0.0137
3292.00,0.0139
3291.00,0.0140
3290.00,0.0141
3289.00,0.0143
3288.00,0.0144
3287.00,0.0146
3286.00,0.0147
3285.00,0.0148
3284.00,0.0149
3283.00,0.0150
3282.00,0.0151
3281.00,0.0152
3280.00,0.0153
3279.00,0.0155
3278.00,0.0155
3277.00,0.0156
3276.00,0.0156
3275.00,0.0157
3274.00,0.0158
3273.00,0.0158
3272.00,0.0159
3271.00,0.0160
3270.00,0.0162
3269.00,0.0164
3268.00,0.0166
3267.00,0.0168
3266.00,0.0170
3265.00,0.0171
3264.00,0.0172
3263.00,0.0173
3262.00,0.0173
3261.00,0.0174
3260.00,0.0175
3259.00,0.0176
3258.00,0.0176
3257.00,0.0177
3256.00,0.0178
3255.00,0.0179
3254.00,0.0180
3253.00,0.0180
3252.00,0.0181
3251.00,0.0182
3250.00,0.0182
3249.00,0.0182
3248.00,0.0183
3247.00,0.0184
3246.00,0.0185
3245.00,0.0186
3244.00,0.0187
3243.00,0.0189
3242.00,0.0190
3241.00,0.0191
3240.00,0.0192
3239.00,0.0193
3238.00,0.0194
3237.00,0.0194
3236.00,0.0195
3235.00,0.0195
3234.00,0.0196
3233.00,0.0197
3232.00,0.0199
3231.00,0.0200
3230.00,0.0202
3229.00,0.0203
3228.00,0.0204
3227.00,0.0204
3226.00,0.0205
3225.00,0.0206
3224.00,0.0206
3223.00,0.0207
3222.00,0.0208
3221.00,0.0209
3220.00,0.0209
3219.00,0.0210
3218.00,0.0211
3217.00,0.0212
3216.00,0.0213
3215.00,0.0214
3214.00,0.0215
3213.00,0.0216
3212.00,0.0217
3211.00,0.0218
3210.00,0.0220
3209.00,0.0221
3208.00,0.0222
3207.00,0.0223
3206.00,0.0224
3205.00,0.0225
3204.00,0.0226
3203.00,0.0228
3202.00,0.0229
3201.00,0.0230
3200.00,0.0231
3199.00,0.0231
3198.00,0.0232
3197.00,0.0233
3196.00,0.0233
3195.00,0.0234
3194.00,0.0235
3193.00,0.0235
3192.00,0.0236
3191.00,0.0237
3190.00,0.0237
3189.00,0.0238
3188.00,0.0239
3187.00,0.0239
3186.00,0.0240
3185.00,0.0241
3184.00,0.0241
3183.00,0.0242
3182.00,0.0242
3181.00,0.0242
3180.00,0.0243
3179.00,0.0243
3178.00,0.0244
3177.00,0.0244
3176.00,0.0245
3175.00,0.0245
3174.00,0.0246
3173.00,0.0246
3172.00,0.0246
3171.00,0.0247
3170.00,0.0247
3169.00,0.0247
3168.00,0.0248
3167.00,0.0248
3166.00,0.0249
3165.00,0.0249
3164.00,0.0250
3163.00,0.0250
3162.00,0.0250
3161.00,0.0251
3160.00,0.0251
3159.00,0.0251
3158.00,0.0251
3157.00,0.0251
3156.00,0.0250
3155.00,0.0250
3154.00,0.0249
3153.00,0.0250
3152.00,0.0251
3151.00,0.0252
3150.00,0.0254
3149.00,0.0256
3148.00,0.0257
3147.00,0.0259
3146.00,0.0260
3145.00,0.0261
3144.00,0.0262
3143.00,0.0262
3142.00,0.0263
3141.00,0.0263
3140.00,0.0263
3139.00,0.0264
3138.00,0.0266
3137.00,0.0267
3136.00,0.0269
3135.00,0.0270
3134.00,0.0271
3133.00,0.0271
3132.00,0.0271
3131.00,0.0272
3130.00,0.0272
3129.00,0.0273
3128.00,0.0274
3127.00,0.0274
3126.00,0.0275
3125.00,0.0275
3124.00,0.0275
3123.00,0.0275
3122.00,0.0275
3121.00,0.0275
3120.00,0.0275
3119.00,0.0276
3118.00,0.0277
3117.00,0.0278
3116.00,0.0279
3115.00,0.0280
3114.00,0.0281
3113.00,0.0282
3112.00,0.0283
3111.00,0.0283
3110.00,0.0284
3109.00,0.0285
3108.00,0.0286
3107.00,0.0287
3106.00,0.0288
3105.00,0.0289
3104.00,0.0290
3103.00,0.0290
3102.00,0.0291
3101.00,0.0291
3100.00,0.0291
3099.00,0.0292
3098.00,0.0292
3097.00,0.0292
3096.00,0.0292
3095.00,0.0293
3094.00,0.0293
3093.00,0.0293
3092.00,0.0292
3091.00,0.0292
3090.00,0.0292
3089.00,0.0293
3088.00,0.0293
3087.00,0.0293
3086.00,0.0294
3085.00,0.0294
3084.00,0.0295
3083.00,0.0295
3082.00,0.0296
3081.00,0.0297
3080.00,0.0299
3079.00,0.0300
3078.00,0.0302
3077.00,0.0305
3076.00,0.0308
3075.00,0.0311
3074.00,0.0314
3073.00,0.0316
3072.00,0.0318
3071.00,0.0320
3070.00,0.0320
3069.00,0.0320
3068.00,0.0318
3067.00,0.0316
3066.00,0.0313
3065.00,0.0309
3064.00,0.0306
3063.00,0.0302
3062.00,0.0297
3061.00,0.0293
3060.00,0.0289
3059.00,0.0285
3058.00,0.0282
3057.00,0.0279
3056.00,0.0276
3055.00,0.0274
3054.00,0.0272
3053.00,0.0270
3052.00,0.0268
3051.00,0.0266
3050.00,0.0265
3049.00,0.0263
3048.00,0.0262
3047.00,0.0261
3046.00,0.0260
3045.00,0.0259
3044.00,0.0258
3043.00,0.0258
3042.00,0.0257
3041.00,0.0257
3040.00,0.0257
3039.00,0.0256
3038.00,0.0256
3037.00,0.0255
3036.00,0.0255
3035.00,0.0254
3034.00,0.0254
3033.00,0.0253
3032.00,0.0252
3031.00,0.0251
3030.00,0.0250
3029.00,0.0249
3028.00,0.0248
3027.00,0.0247
3026.00,0.0246
3025.00,0.0244
3024.00,0.0243
3023.00,0.0242
3022.00,0.0240
3021.00,0.0239
3020.00,0.0238
3019.00,0.0237
3018.00,0.0236
3017.00,0.0235
3016.00,0.0234
3015.00,0.0233
3014.00,0.0232
3013.00,0.0232
3012.00,0.0231
3011.00,0.0231
3010.00,0.0230
3009.00,0.0230
3008.00,0.0230
3007.00,0.0229
3006.00,0.0229
3005.00,0.0229
3004.00,0.0228
3003.00,0.0228
3002.00,0.0228
3001.00,0.0228
3000.00,0.0229
2999.00,0.0230
2998.00,0.0231
2997.00,0.0232
2996.00,0.0235
2995.00,0.0237
2994.00,0.0240
2993.00,0.0243
2992.00,0.0247
2991.00,0.0250
2990.00,0.0253
2989.00,0.0255
2988.00,0.0257
2987.00,0.0258
2986.00,0.0258
2985.00,0.0258
2984.00,0.0257
2983.00,0.0257
2982.00,0.0259
2981.00,0.0263
2980.00,0.0268
2979.00,0.0274
2978.00,0.0281
2977.00,0.0287
2976.00,0.0292
2975.00,0.0295
2974.00,0.0298
2973.00,0.0299
2972.00,0.0301
2971.00,0.0303
2970.00,0.0305
2969.00,0.0309
2968.00,0.0313
2967.00,0.0318
2966.00,0.0324
2965.00,0.0331
2964.00,0.0341
2963.00,0.0352
2962.00,0.0365
2961.00,0.0379
2960.00,0.0394
2959.00,0.0408
2958.00,0.0420
2957.00,0.0432
2956.00,0.0441
2955.00,0.0447
2954.00,0.0452
2953.00,0.0454
2952.00,0.0453
2951.00,0.0449
2950.00,0.0442
2949.00,0.0433
2948.00,0.0423
2947.00,0.0415
2946.00,0.0410
2945.00,0.0409
2944.00,0.0411
2943.00,0.0417
2942.00,0.0425
2941.00,0.0436
2940.00,0.0448
2939.00,0.0462
2938.00,0.0476
2937.00,0.0491
2936.00,0.0508
2935.00,0.0526
2934.00,0.0545
2933.00,0.0567
2932.00,0.0591
2931.00,0.0616
2930.00,0.0640
2929.00,0.0663
2928.00,0.0682
2927.00,0.0696
2926.00,0.0705
2925.00,0.0708
2924.00,0.0707
2923.00,0.0702
2922.00,0.0693
2921.00,0.0681
2920.00,0.0666
2919.00,0.0650
2918.00,0.0633
2917.00,0.0615
2916.00,0.0598
2915.00,0.0581
2914.00,0.0563
2913.00,0.0545
2912.00,0.0527
2911.00,0.0509
2910.00,0.0491
2909.00,0.0473
2908.00,0.0456
2907.00,0.0440
2906.00,0.0426
2905.00,0.0414
2904.00,0.0403
2903.00,0.0393
2902.00,0.0386
2901.00,0.0378
2900.00,0.0372
2899.00,0.0366
2898.00,0.0360
2897.00,0.0355
2896.00,0.0350
2895.00,0.0346
2894.00,0.0343
2893.00,0.0339
2892.00,0.0336
2891.00,0.0333
2890.00,0.0331
2889.00,0.0329
2888.00,0.0327
2887.00,0.0326
2886.00,0.0326
2885.00,0.0325
2884.00,0.0325
2883.00,0.0324
2882.00,0.0325
2881.00,0.0325
2880.00,0.0327
2879.00,0.0329
2878.00,0.0332
2877.00,0.0337
2876.00,0.0343
2875.00,0.0350
2874.00,0.0358
2873.00,0.0366
2872.00,0.0373
2871.00,0.0378
2870.00,0.0378
2869.00,0.0374
2868.00,0.0368
2867.00,0.0361
2866.00,0.0356
2865.00,0.0355
2864.00,0.0357
2863.00,0.0363
2862.00,0.0372
2861.00,0.0383
2860.00,0.0395
2859.00,0.0405
2858.00,0.0412
2857.00,0.0415
2856.00,0.0414
2855.00,0.0409
2854.00,0.0400
2853.00,0.0389
2852.00,0.0377
2851.00,0.0363
2850.00,0.0350
2849.00,0.0337
2848.00,0.0326
2847.00,0.0317
2846.00,0.0309
2845.00,0.0303
2844.00,0.0299
2843.00,0.0295
2842.00,0.0291
2841.00,0.0287
2840.00,0.0283
2839.00,0.0280
2838.00,0.0279
2837.00,0.0280
2836.00,0.0281
2835.00,0.0283
2834.00,0.0283
2833.00,0.0282
2832.00,0.0278
2831.00,0.0271
2830.00,0.0263
2829.00,0.0254
2828.00,0.0244
2827.00,0.0235
2826.00,0.0226
2825.00,0.0219
2824.00,0.0213
2823.00,0.0207
2822.00,0.0203
2821.00,0.0199
2820.00,0.0196
2819.00,0.0193
2818.00,0.0190
2817.00,0.0188
2816.00,0.0186
2815.00,0.0184
2814.00,0.0182
2813.00,0.0181
2812.00,0.0179
2811.00,0.0178
2810.00,0.0177
2809.00,0.0176
2808.00,0.0175
2807.00,0.0174
2806.00,0.0173
2805.00,0.0172
2804.00,0.0172
2803.00,0.0171
2802.00,0.0170
2801.00,0.0170
2800.00,0.0169
2799.00,0.0169
2798.00,0.0168
2797.00,0.0168
2796.00,0.0167
2795.00,0.0167
2794.00,0.0166
2793.00,0.0166
2792.00,0.0165
2791.00,0.0165
2790.00,0.0165
2789.00,0.0165
2788.00,0.0165
2787.00,0.0165
2786.00,0.0165
2785.00,0.0166
2784.00,0.0166
2783.00,0.0166
2782.00,0.0166
2781.00,0.0167
2780.00,0.0167
2779.00,0.0168
2778.00,0.0168
2777.00,0.0168
2776.00,0.0169
2775.00,0.0169
2774.00,0.0170
2773.00,0.0171
2772.00,0.0171
2771.00,0.0172
2770.00,0.0173
2769.00,0.0174
2768.00,0.0174
2767.00,0.0175
2766.00,0.0175
2765.00,0.0176
2764.00,0.0176
2763.00,0.0177
2762.00,0.0177
2761.00,0.0178
2760.00,0.0178
2759.00,0.0179
2758.00,0.0180
2757.00,0.0180
2756.00,0.0180
2755.00,0.0181
2754.00,0.0181
2753.00,0.0181
2752.00,0.0181
2751.00,0.0181
2750.00,0.0181
2749.00,0.0181
2748.00,0.0181
2747.00,0.0182
2746.00,0.0182
2745.00,0.0182
2744.00,0.0182
2743.00,0.0183
2742.00,0.0183
2741.00,0.0183
2740.00,0.0183
2739.00,0.0184
2738.00,0.0184
2737.00,0.0185
2736.00,0.0186
2735.00,0.0186
2734.00,0.0187
2733.00,0.0188
2732.00,0.0188
2731.00,0.0189
2730.00,0.0189
2729.00,0.0189
2728.00,0.0189
2727.00,0.0189
2726.00,0.0189
2725.00,0.0190
2724.00,0.0190
2723.00,0.0190
2722.00,0.0190
2721.00,0.0189
2720.00,0.0189
2719.00,0.0189
2718.00,0.0189
2717.00,0.0189
2716.00,0.0189
2715.00,0.0189
2714.00,0.0189
2713.00,0.0189
2712.00,0.0189
2711.00,0.0189
2710.00,0.0190
2709.00,0.0190
2708.00,0.0191
2707.00,0.0191
2706.00,0.0191
2705.00,0.0191
2704.00,0.0192
2703.00,0.0192
2702.00,0.0192
2701.00,0.0192
2700.00,0.0192
2699.00,0.0192
2698.00,0.0192
2697.00,0.0192
2696.00,0.0192
2695.00,0.0192
2694.00,0.0193
2693.00,0.0193
2692.00,0.0193
2691.00,0.0193
2690.00,0.0193
2689.00,0.0193
2688.00,0.0193
2687.00,0.0193
2686.00,0.0193
2685.00,0.0193
2684.00,0.0193
2683.00,0.0192
2682.00,0.0192
2681.00,0.0192
2680.00,0.0192
2679.00,0.0191
2678.00,0.0191
2677.00,0.0192
2676.00,0.0191
2675.00,0.0191
2674.00,0.0191
2673.00,0.0191
2672.00,0.0192
2671.00,0.0192
2670.00,0.0192
2669.00,0.0193
2668.00,0.0193
2667.00,0.0193
2666.00,0.0193
2665.00,0.0194
2664.00,0.0194
2663.00,0.0195
2662.00,0.0195
2661.00,0.0195
2660.00,0.0195
2659.00,0.0194
2658.00,0.0194
2657.00,0.0194
2656.00,0.0193
2655.00,0.0193
2654.00,0.0192
2653.00,0.0192
2652.00,0.0192
2651.00,0.0191
2650.00,0.0191
2649.00,0.0190
2648.00,0.0190
2647.00,0.0190
2646.00,0.0190
2645.00,0.0189
2644.00,0.0189
2643.00,0.0189
2642.00,0.0188
2641.00,0.0188
2640.00,0.0188
2639.00,0.0187
2638.00,0.0187
2637.00,0.0186
2636.00,0.0186
2635.00,0.0186
2634.00,0.0186
2633.00,0.0185
2632.00,0.0185
2631.00,0.0185
2630.00,0.0185
2629.00,0.0184
2628.00,0.0184
2627.00,0.0184
2626.00,0.0183
2625.00,0.0183
2624.00,0.0183
2623.00,0.0183
2622.00,0.0182
2621.00,0.0182
2620.00,0.0181
2619.00,0.0181
2618.00,0.0181
2617.00,0.0181
2616.00,0.0181
2615.00,0.0181
2614.00,0.0180
2613.00,0.0180
2612.00,0.0179
2611.00,0.0178
2610.00,0.0178
2609.00,0.0177
2608.00,0.0177
2607.00,0.0176
2606.00,0.0176
2605.00,0.0176
2604.00,0.0176
2603.00,0.0175
2602.00,0.0175
2601.00,0.0175
2600.00,0.0174
2599.00,0.0174
2598.00,0.0173
2597.00,0.0172
2596.00,0.0171
2595.00,0.0170
2594.00,0.0170
2593.00,0.0169
2592.00,0.0169
2591.00,0.0169
2590.00,0.0169
2589.00,0.0168
2588.00,0.0168
2587.00,0.0167
2586.00,0.0166
2585.00,0.0166
2584.00,0.0165
2583.00,0.0165
2582.00,0.0165
2581.00,0.0164
2580.00,0.0164
2579.00,0.0164
2578.00,0.0163
2577.00,0.0163
2576.00,0.0163
2575.00,0.0163
2574.00,0.0163
2573.00,0.0163
2572.00,0.0163
2571.00,0.0163
2570.00,0.0163
2569.00,0.0163
2568.00,0.0164
2567.00,0.0164
2566.00,0.0165
2565.00,0.0165
2564.00,0.0166
2563.00,0.0166
2562.00,0.0166
2561.00,0.0166
2560.00,0.0166
2559.00,0.0166
2558.00,0.0166
2557.00,0.0166
2556.00,0.0167
2555.00,0.0167
2554.00,0.0167
2553.00,0.0167
2552.00,0.0167
2551.00,0.0166
2550.00,0.0166
2549.00,0.0165
2548.00,0.0165
2547.00,0.0164
2546.00,0.0164
2545.00,0.0163
2544.00,0.0162
2543.00,0.0161
2542.00,0.0160
2541.00,0.0159
2540.00,0.0159
2539.00,0.0158
2538.00,0.0157
2537.00,0.0157
2536.00,0.0156
2535.00,0.0156
2534.00,0.0155
2533.00,0.0154
2532.00,0.0154
2531.00,0.0153
2530.00,0.0153
2529.00,0.0153
2528.00,0.0153
2527.00,0.0153
2526.00,0.0153
2525.00,0.0152
2524.00,0.0151
2523.00,0.0151
2522.00,0.0150
2521.00,0.0150
2520.00,0.0150
2519.00,0.0149
2518.00,0.0149
2517.00,0.0148
2516.00,0.0147
2515.00,0.0146
2514.00,0.0145
2513.00,0.0145
2512.00,0.0144
2511.00,0.0144
2510.00,0.0144
2509.00,0.0143
2508.00,0.0142
2507.00,0.0141
2506.00,0.0140
2505.00,0.0140
2504.00,0.0139
2503.00,0.0139
2502.00,0.0139
2501.00,0.0139
2500.00,0.0138
2499.00,0.0138
2498.00,0.0137
2497.00,0.0137
2496.00,0.0137
2495.00,0.0137
2494.00,0.0137
2493.00,0.0137
2492.00,0.0137
2491.00,0.0136
2490.00,0.0136
2489.00,0.0136
2488.00,0.0136
2487.00,0.0136
2486.00,0.0136
2485.00,0.0136
2484.00,0.0136
2483.00,0.0136
2482.00,0.0136
2481.00,0.0135
2480.00,0.0135
2479.00,0.0135
2478.00,0.0134
2477.00,0.0134
2476.00,0.0134
2475.00,0.0135
2474.00,0.0135
2473.00,0.0135
2472.00,0.0135
2471.00,0.0135
2470.00,0.0134
2469.00,0.0134
2468.00,0.0133
2467.00,0.0133
2466.00,0.0133
2465.00,0.0133
2464.00,0.0133
2463.00,0.0134
2462.00,0.0134
2461.00,0.0135
2460.00,0.0135
2459.00,0.0136
2458.00,0.0137
2457.00,0.0137
2456.00,0.0137
2455.00,0.0137
2454.00,0.0137
2453.00,0.0138
2452.00,0.0138
2451.00,0.0138
2450.00,0.0138
2449.00,0.0138
2448.00,0.0138
2447.00,0.0138
2446.00,0.0138
2445.00,0.0138
2444.00,0.0138
2443.00,0.0137
2442.00,0.0137
2441.00,0.0137
2440.00,0.0137
2439.00,0.0137
2438.00,0.0137
2437.00,0.0137
2436.00,0.0137
2435.00,0.0137
2434.00,0.0137
2433.00,0.0136
2432.00,0.0136
2431.00,0.0136
2430.00,0.0135
2429.00,0.0135
2428.00,0.0134
2427.00,0.0134
2426.00,0.0134
2425.00,0.0133
2424.00,0.0133
2423.00,0.0132
2422.00,0.0132
2421.00,0.0132
2420.00,0.0132
2419.00,0.0131
2418.00,0.0131
2417.00,0.0131
2416.00,0.0130
2415.00,0.0130
2414.00,0.0129
2413.00,0.0129
2412.00,0.0128
2411.00,0.0127
2410.00,0.0126
2409.00,0.0125
2408.00,0.0123
2407.00,0.0122
2406.00,0.0121
2405.00,0.0120
2404.00,0.0119
2403.00,0.0118
2402.00,0.0118
2401.00,0.0117
2400.00,0.0116
2399.00,0.0115
2398.00,0.0114
2397.00,0.0114
2396.00,0.0113
2395.00,0.0112
2394.00,0.0112
2393.00,0.0111
2392.00,0.0110
2391.00,0.0109
2390.00,0.0108
2389.00,0.0107
2388.00,0.0106
2387.00,0.0105
2386.00,0.0104
2385.00,0.0103
2384.00,0.0102
2383.00,0.0101
2382.00,0.0099
2381.00,0.0098
2380.00,0.0098
2379.00,0.0097
2378.00,0.0097
2377.00,0.0097
2376.00,0.0096
2375.00,0.0096
2374.00,0.0095
2373.00,0.0094
2372.00,0.0093
2371.00,0.0092
2370.00,0.0091
2369.00,0.0090
2368.00,0.0089
2367.00,0.0089
2366.00,0.0089
2365.00,0.0088
2364.00,0.0088
2363.00,0.0088
2362.00,0.0088
2361.00,0.0088
2360.00,0.0088
2359.00,0.0087
2358.00,0.0086
2357.00,0.0085
2356.00,0.0085
2355.00,0.0084
2354.00,0.0083
2353.00,0.0082
2352.00,0.0081
2351.00,0.0081
2350.00,0.0081
2349.00,0.0082
2348.00,0.0083
2347.00,0.0083
2346.00,0.0082
2345.00,0.0081
2344.00,0.0081
2343.00,0.0080
2342.00,0.0080
2341.00,0.0080
2340.00,0.0079
2339.00,0.0079
2338.00,0.0078
2337.00,0.0078
2336.00,0.0077
2335.00,0.0076
2334.00,0.0075
2333.00,0.0074
2332.00,0.0073
2331.00,0.0072
2330.00,0.0072
2329.00,0.0074
2328.00,0.0078
2327.00,0.0082
2326.00,0.0085
2325.00,0.0085
2324.00,0.0084
2323.00,0.0081
2322.00,0.0078
2321.00,0.0076
2320.00,0.0076
2319.00,0.0075
2318.00,0.0075
2317.00,0.0074
2316.00,0.0073
2315.00,0.0072
2314.00,0.0071
2313.00,0.0070
2312.00,0.0069
2311.00,0.0068
2310.00,0.0067
2309.00,0.0067
2308.00,0.0067
2307.00,0.0066
2306.00,0.0066
2305.00,0.0066
2304.00,0.0065
2303.00,0.0065
2302.00,0.0066
2301.00,0.0065
2300.00,0.0065
2299.00,0.0065
2298.00,0.0065
2297.00,0.0065
2296.00,0.0065
2295.00,0.0066
2294.00,0.0066
2293.00,0.0067
2292.00,0.0067
2291.00,0.0068
2290.00,0.0068
2289.00,0.0068
2288.00,0.0068
2287.00,0.0068
2286.00,0.0068
2285.00,0.0067
2284.00,0.0067
2283.00,0.0066
2282.00,0.0065
2281.00,0.0064
2280.00,0.0063
2279.00,0.0062
2278.00,0.0061
2277.00,0.0061
2276.00,0.0061
2275.00,0.0060
2274.00,0.0060
2273.00,0.0060
2272.00,0.0059
2271.00,0.0059
2270.00,0.0058
2269.00,0.0057
2268.00,0.0056
2267.00,0.0055
2266.00,0.0054
2265.00,0.0054
2264.00,0.0054
2263.00,0.0055
2262.00,0.0055
2261.00,0.0055
2260.00,0.0056
2259.00,0.0055
2258.00,0.0054
2257.00,0.0053
2256.00,0.0052
2255.00,0.0051
2254.00,0.0050
2253.00,0.0050
2252.00,0.0051
2251.00,0.0051
2250.00,0.0051
2249.00,0.0050
2248.00,0.0050
2247.00,0.0049
2246.00,0.0048
2245.00,0.0049
2244.00,0.0049
2243.00,0.0050
2242.00,0.0050
2241.00,0.0050
2240.00,0.0050
2239.00,0.0050
2238.00,0.0049
2237.00,0.0049
2236.00,0.0049
2235.00,0.0049
2234.00,0.0049
2233.00,0.0049
2232.00,0.0048
2231.00,0.0048
2230.00,0.0047
2229.00,0.0047
2228.00,0.0047
2227.00,0.0047
2226.00,0.0048
2225.00,0.0048
2224.00,0.0048
2223.00,0.0047
2222.00,0.0046
2221.00,0.0045
2220.00,0.0045
2219.00,0.0045
2218.00,0.0044
2217.00,0.0044
2216.00,0.0044
2215.00,0.0044
2214.00,0.0044
2213.00,0.0044
2212.00,0.0044
2211.00,0.0044
2210.00,0.0043
2209.00,0.0042
2208.00,0.0041
2207.00,0.0040
2206.00,0.0040
2205.00,0.0041
2204.00,0.0042
2203.00,0.0042
2202.00,0.0041
2201.00,0.0040
2200.00,0.0040
2199.00,0.0040
2198.00,0.0041
2197.00,0.0041
2196.00,0.0042
2195.00,0.0042
2194.00,0.0042
2193.00,0.0042
2192.00,0.0043
2191.00,0.0043
2190.00,0.0044
2189.00,0.0043
2188.00,0.0043
2187.00,0.0042
2186.00,0.0042
2185.00,0.0041
2184.00,0.0040
2183.00,0.0038
2182.00,0.0036
2181.00,0.0036
2180.00,0.0038
2179.00,0.0038
2178.00,0.0037
2177.00,0.0035
2176.00,0.0035
2175.00,0.0035
2174.00,0.0036
2173.00,0.0038
2172.00,0.0041
2171.00,0.0044
2170.00,0.0046
2169.00,0.0047
2168.00,0.0048
2167.00,0.0047
2166.00,0.0047
2165.00,0.0048
2164.00,0.0050
2163.00,0.0050
2162.00,0.0046
2161.00,0.0036
2160.00,0.0022
2159.00,0.0009
2158.00,0.0001
2157.00,-0.0001
2156.00,0.0002
2155.00,0.0005
2154.00,0.0007
2153.00,0.0011
2152.00,0.0014
2151.00,0.0017
2150.00,0.0018
2149.00,0.0017
2148.00,0.0016
2147.00,0.0014
2146.00,0.0013
2145.00,0.0013
2144.00,0.0013
2143.00,0.0014
2142.00,0.0015
2141.00,0.0017
2140.00,0.0018
2139.00,0.0017
2138.00,0.0015
2137.00,0.0012
2136.00,0.0010
2135.00,0.0008
2134.00,0.0008
2133.00,0.0009
2132.00,0.0011
2131.00,0.0012
2130.00,0.0014
2129.00,0.0015
2128.00,0.0017
2127.00,0.0018
2126.00,0.0018
2125.00,0.0019
2124.00,0.0020
2123.00,0.0021
2122.00,0.0022
2121.00,0.0022
2120.00,0.0023
2119.00,0.0023
2118.00,0.0024
2117.00,0.0025
2116.00,0.0026
2115.00,0.0026
2114.00,0.0025
2113.00,0.0025
2112.00,0.0024
2111.00,0.0024
2110.00,0.0024
2109.00,0.0024
2108.00,0.0024
2107.00,0.0024
2106.00,0.0024
2105.00,0.0024
2104.00,0.0024
2103.00,0.0024
2102.00,0.0023
2101.00,0.0023
2100.00,0.0023
2099.00,0.0023
2098.00,0.0022
2097.00,0.0021
2096.00,0.0019
2095.00,0.0018
2094.00,0.0018
2093.00,0.0019
2092.00,0.0020
2091.00,0.0022
2090.00,0.0022
2089.00,0.0023
2088.00,0.0024
2087.00,0.0024
2086.00,0.0024
2085.00,0.0025
2084.00,0.0025
2083.00,0.0026
2082.00,0.0025
2081.00,0.0025
2080.00,0.0025
2079.00,0.0024
2078.00,0.0024
2077.00,0.0023
2076.00,0.0023
2075.00,0.0022
2074.00,0.0021
2073.00,0.0021
2072.00,0.0021
2071.00,0.0021
2070.00,0.0020
2069.00,0.0019
2068.00,0.0018
2067.00,0.0018
2066.00,0.0018
2065.00,0.0018
2064.00,0.0018
2063.00,0.0018
2062.00,0.0018
2061.00,0.0018
2060.00,0.0019
2059.00,0.0019
2058.00,0.0020
2057.00,0.0021
2056.00,0.0022
2055.00,0.0023
2054.00,0.0025
2053.00,0.0029
2052.00,0.0032
2051.00,0.0032
2050.00,0.0030
2049.00,0.0026
2048.00,0.0023
2047.00,0.0022
2046.00,0.0022
2045.00,0.0023
2044.00,0.0023
2043.00,0.0023
2042.00,0.0022
2041.00,0.0023
2040.00,0.0024
2039.00,0.0025
2038.00,0.0025
2037.00,0.0025
2036.00,0.0024
2035.00,0.0022
2034.00,0.0019
2033.00,0.0018
2032.00,0.0018
2031.00,0.0018
2030.00,0.0016
2029.00,0.0015
2028.00,0.0014
2027.00,0.0013
2026.00,0.0014
2025.00,0.0015
2024.00,0.0016
2023.00,0.0016
2022.00,0.0015
2021.00,0.0014
2020.00,0.0013
2019.00,0.0013
2018.00,0.0014
2017.00,0.0016
2016.00,0.0019
2015.00,0.0020
2014.00,0.0020
2013.00,0.0020
2012.00,0.0021
2011.00,0.0021
2010.00,0.0020
2009.00,0.0018
2008.00,0.0016
2007.00,0.0014
2006.00,0.0011
2005.00,0.0010
2004.00,0.0011
2003.00,0.0012
2002.00,0.0013
2001.00,0.0014
2000.00,0.0015
1999.00,0.0016
1998.00,0.0017
1997.00,0.0018
1996.00,0.0019
1995.00,0.0021
1994.00,0.0022
1993.00,0.0023
1992.00,0.0024
1991.00,0.0024
1990.00,0.0025
1989.00,0.0026
1988.00,0.0027
1987.00,0.0027
1986.00,0.0027
1985.00,0.0029
1984.00,0.0031
1983.00,0.0034
1982.00,0.0036
1981.00,0.0036
1980.00,0.0034
1979.00,0.0029
1978.00,0.0023
1977.00,0.0017
1976.00,0.0015
1975.00,0.0014
1974.00,0.0013
1973.00,0.0014
1972.00,0.0016
1971.00,0.0016
1970.00,0.0015
1969.00,0.0014
1968.00,0.0014
1967.00,0.0014
1966.00,0.0014
1965.00,0.0014
1964.00,0.0015
1963.00,0.0014
1962.00,0.0012
1961.00,0.0011
1960.00,0.0012
1959.00,0.0013
1958.00,0.0014
1957.00,0.0015
1956.00,0.0016
1955.00,0.0016
1954.00,0.0016
1953.00,0.0015
1952.00,0.0015
1951.00,0.0015
1950.00,0.0014
1949.00,0.0014
1948.00,0.0014
1947.00,0.0014
1946.00,0.0014
1945.00,0.0015
1944.00,0.0016
1943.00,0.0017
1942.00,0.0017
1941.00,0.0017
1940.00,0.0016
1939.00,0.0016
1938.00,0.0015
1937.00,0.0015
1936.00,0.0016
1935.00,0.0016
1934.00,0.0016
1933.00,0.0016
1932.00,0.0016
1931.00,0.0016
1930.00,0.0016
1929.00,0.0017
1928.00,0.0017
1927.00,0.0017
1926.00,0.0017
1925.00,0.0017
1924.00,0.0017
1923.00,0.0018
1922.00,0.0018
1921.00,0.0018
1920.00,0.0018
1919.00,0.0019
1918.00,0.0019
1917.00,0.0019
1916.00,0.0018
1915.00,0.0018
1914.00,0.0018
1913.00,0.0019
1912.00,0.0019
1911.00,0.0020
1910.00,0.0020
1909.00,0.0019
1908.00,0.0019
1907.00,0.0019
1906.00,0.0019
1905.00,0.0019
1904.00,0.0019
1903.00,0.0019
1902.00,0.0018
1901.00,0.0018
1900.00,0.0018
1899.00,0.0018
1898.00,0.0018
1897.00,0.0018
1896.00,0.0019
1895.00,0.0018
1894.00,0.0018
1893.00,0.0018
1892.00,0.0018
1891.00,0.0018
1890.00,0.0018
1889.00,0.0018
1888.00,0.0018
1887.00,0.0019
1886.00,0.0019
1885.00,0.0019
1884.00,0.0019
1883.00,0.0019
1882.00,0.0019
1881.00,0.0019
1880.00,0.0019
1879.00,0.0019
1878.00,0.0019
1877.00,0.0019
1876.00,0.0019
1875.00,0.0019
1874.00,0.0019
1873.00,0.0019
1872.00,0.0020
1871.00,0.0020
1870.00,0.0021
1869.00,0.0021
1868.00,0.0021
1867.00,0.0020
1866.00,0.0020
1865.00,0.0020
1864.00,0.0020
1863.00,0.0020
1862.00,0.0020
1861.00,0.0020
1860.00,0.0021
1859.00,0.0020
1858.00,0.0020
1857.00,0.0020
1856.00,0.0020
1855.00,0.0020
1854.00,0.0020
1853.00,0.0020
1852.00,0.0021
1851.00,0.0021
1850.00,0.0021
1849.00,0.0022
1848.00,0.0022
1847.00,0.0022
1846.00,0.0022
1845.00,0.0022
1844.00,0.0022
1843.00,0.0022
1842.00,0.0022
1841.00,0.0021
1840.00,0.0021
1839.00,0.0021
1838.00,0.0021
1837.00,0.0021
1836.00,0.0021
1835.00,0.0022
1834.00,0.0022
1833.00,0.0022
1832.00,0.0022
1831.00,0.0022
1830.00,0.0022
1829.00,0.0022
1828.00,0.0022
1827.00,0.0022
1826.00,0.0023
1825.00,0.0023
1824.00,0.0024
1823.00,0.0023
1822.00,0.0022
1821.00,0.0022
1820.00,0.0021
1819.00,0.0020
1818.00,0.0019
1817.00,0.0019
1816.00,0.0019
1815.00,0.0020
1814.00,0.0020
1813.00,0.0021
1812.00,0.0022
1811.00,0.0022
1810.00,0.0023
1809.00,0.0023
1808.00,0.0024
1807.00,0.0024
1806.00,0.0024
1805.00,0.0025
1804.00,0.0026
1803.00,0.0027
1802.00,0.0027
1801.00,0.0027
1800.00,0.0026
1799.00,0.0026
1798.00,0.0027
1797.00,0.0027
1796.00,0.0028
1795.00,0.0028
1794.00,0.0028
1793.00,0.0029
1792.00,0.0030
1791.00,0.0031
1790.00,0.0032
1789.00,0.0033
1788.00,0.0034
1787.00,0.0035
1786.00,0.0037
1785.00,0.0037
1784.00,0.0038
1783.00,0.0037
1782.00,0.0036
1781.00,0.0036
1780.00,0.0035
1779.00,0.0035
1778.00,0.0034
1777.00,0.0035
1776.00,0.0035
1775.00,0.0036
1774.00,0.0036
1773.00,0.0035
1772.00,0.0035
1771.00,0.0035
1770.00,0.0034
1769.00,0.0034
1768.00,0.0034
1767.00,0.0033
1766.00,0.0033
1765.00,0.0033
1764.00,0.0033
1763.00,0.0033
1762.00,0.0033
1761.00,0.0033
1760.00,0.0033
1759.00,0.0033
1758.00,0.0033
1757.00,0.0033
1756.00,0.0033
1755.00,0.0033
1754.00,0.0033
1753.00,0.0033
1752.00,0.0034
1751.00,0.0034
1750.00,0.0034
1749.00,0.0034
1748.00,0.0033
1747.00,0.0034
1746.00,0.0034
1745.00,0.0034
1744.00,0.0034
1743.00,0.0034
1742.00,0.0033
1741.00,0.0033
1740.00,0.0033
1739.00,0.0033
1738.00,0.0033
1737.00,0.0034
1736.00,0.0034
1735.00,0.0034
1734.00,0.0034
1733.00,0.0034
1732.00,0.0034
1731.00,0.0035
1730.00,0.0035
1729.00,0.0035
1728.00,0.0035
1727.00,0.0036
1726.00,0.0036
1725.00,0.0036
1724.00,0.0037
1723.00,0.0038
1722.00,0.0038
1721.00,0.0039
1720.00,0.0040
1719.00,0.0041
1718.00,0.0042
1717.00,0.0043
1716.00,0.0044
1715.00,0.0045
1714.00,0.0046
1713.00,0.0047
1712.00,0.0047
1711.00,0.0048
1710.00,0.0048
1709.00,0.0049
1708.00,0.0050
1707.00,0.0052
1706.00,0.0053
1705.00,0.0053
1704.00,0.0054
1703.00,0.0054
1702.00,0.0054
1701.00,0.0054
1700.00,0.0055
1699.00,0.0055
1698.00,0.0056
1697.00,0.0056
1696.00,0.0057
1695.00,0.0058
1694.00,0.0059
1693.00,0.0060
1692.00,0.0061
1691.00,0.0062
1690.00,0.0063
1689.00,0.0064
1688.00,0.0065
1687.00,0.0065
1686.00,0.0066
1685.00,0.0067
1684.00,0.0069
1683.00,0.0071
1682.00,0.0073
1681.00,0.0074
1680.00,0.0076
1679.00,0.0078
1678.00,0.0079
1677.00,0.0081
1676.00,0.0084
1675.00,0.0087
1674.00,0.0089
1673.00,0.0092
1672.00,0.0095
1671.00,0.0099
1670.00,0.0103
1669.00,0.0108
1668.00,0.0114
1667.00,0.0119
1666.00,0.0124
1665.00,0.0130
1664.00,0.0137
1663.00,0.0144
1662.00,0.0152
1661.00,0.0160
1660.00,0.0168
1659.00,0.0178
1658.00,0.0187
1657.00,0.0197
1656.00,0.0208
1655.00,0.0221
1654.00,0.0240
1653.00,0.0266
1652.00,0.0292
1651.00,0.0313
1650.00,0.0333
1649.00,0.0357
1648.00,0.0393
1647.00,0.0443
1646.00,0.0502
1645.00,0.0563
1644.00,0.0622
1643.00,0.0679
1642.00,0.0734
1641.00,0.0786
1640.00,0.0833
1639.00,0.0875
1638.00,0.0915
1637.00,0.0961
1636.00,0.1014
1635.00,0.1062
1634.00,0.1092
1633.00,0.1103
1632.00,0.1102
1631.00,0.1089
1630.00,0.1062
1629.00,0.1021
1628.00,0.0968
1627.00,0.0912
1626.00,0.0857
1625.00,0.0805
1624.00,0.0752
1623.00,0.0698
1622.00,0.0650
1621.00,0.0612
1620.00,0.0581
1619.00,0.0554
1618.00,0.0526
1617.00,0.0497
1616.00,0.0470
1615.00,0.0449
1614.00,0.0433
1613.00,0.0421
1612.00,0.0409
1611.00,0.0397
1610.00,0.0387
1609.00,0.0379
1608.00,0.0372
1607.00,0.0366
1606.00,0.0363
1605.00,0.0362
1604.00,0.0362
1603.00,0.0364
1602.00,0.0369
1601.00,0.0376
1600.00,0.0385
1599.00,0.0397
1598.00,0.0412
1597.00,0.0432
1596.00,0.0458
1595.00,0.0490
1594.00,0.0530
1593.00,0.0577
1592.00,0.0632
1591.00,0.0691
1590.00,0.0752
1589.00,0.0813
1588.00,0.0870
1587.00,0.0922
1586.00,0.0969
1585.00,0.1011
1584.00,0.1051
1583.00,0.1086
1582.00,0.1116
1581.00,0.1142
1580.00,0.1163
1579.00,0.1178
1578.00,0.1189
1577.00,0.1196
1576.00,0.1197
1575.00,0.1192
1574.00,0.1182
1573.00,0.1170
1572.00,0.1157
1571.00,0.1140
1570.00,0.1116
1569.00,0.1086
1568.00,0.1057
1567.00,0.1029
1566.00,0.0999
1565.00,0.0966
1564.00,0.0933
1563.00,0.0903
1562.00,0.0877
1561.00,0.0849
1560.00,0.0811
1559.00,0.0755
1558.00,0.0699
1557.00,0.0663
1556.00,0.0637
1555.00,0.0612
1554.00,0.0585
1553.00,0.0559
1552.00,0.0536
1551.00,0.0515
1550.00,0.0493
1549.00,0.0471
1548.00,0.0453
1547.00,0.0438
1546.00,0.0424
1545.00,0.0410
1544.00,0.0397
1543.00,0.0385
1542.00,0.0373
1541.00,0.0361
1540.00,0.0348
1539.00,0.0338
1538.00,0.0332
1537.00,0.0329
1536.00,0.0327
1535.00,0.0327
1534.00,0.0326
1533.00,0.0327
1532.00,0.0330
1531.00,0.0334
1530.00,0.0341
1529.00,0.0350
1528.00,0.0361
1527.00,0.0371
1526.00,0.0380
1525.00,0.0384
1524.00,0.0385
1523.00,0.0382
1522.00,0.0373
1521.00,0.0358
1520.00,0.0341
1519.00,0.0324
1518.00,0.0307
1517.00,0.0289
1516.00,0.0271
1515.00,0.0256
1514.00,0.0245
1513.00,0.0237
1512.00,0.0230
1511.00,0.0225
1510.00,0.0220
1509.00,0.0216
1508.00,0.0212
1507.00,0.0206
1506.00,0.0198
1505.00,0.0193
1504.00,0.0190
1503.00,0.0187
1502.00,0.0185
1501.00,0.0182
1500.00,0.0179
1499.00,0.0176
1498.00,0.0172
1497.00,0.0169
1496.00,0.0167
1495.00,0.0166
1494.00,0.0164
1493.00,0.0164
1492.00,0.0164
1491.00,0.0165
1490.00,0.0164
1489.00,0.0164
1488.00,0.0164
1487.00,0.0165
1486.00,0.0166
1485.00,0.0167
1484.00,0.0171
1483.00,0.0175
1482.00,0.0180
1481.00,0.0187
1480.00,0.0195
1479.00,0.0203
1478.00,0.0212
1477.00,0.0223
1476.00,0.0233
1475.00,0.0244
1474.00,0.0256
1473.00,0.0274
1472.00,0.0299
1471.00,0.0327
1470.00,0.0352
1469.00,0.0373
1468.00,0.0385
1467.00,0.0389
1466.00,0.0385
1465.00,0.0380
1464.00,0.0382
1463.00,0.0392
1462.00,0.0409
1461.00,0.0433
1460.00,0.0463
1459.00,0.0500
1458.00,0.0548
1457.00,0.0606
1456.00,0.0663
1455.00,0.0711
1454.00,0.0758
1453.00,0.0812
1452.00,0.0874
1451.00,0.0939
1450.00,0.1001
1449.00,0.1061
1448.00,0.1115
1447.00,0.1156
1446.00,0.1184
1445.00,0.1202
1444.00,0.1208
1443.00,0.1199
1442.00,0.1175
1441.00,0.1138
1440.00,0.1095
1439.00,0.1049
1438.00,0.1000
1437.00,0.0948
1436.00,0.0897
1435.00,0.0856
1434.00,0.0822
1433.00,0.0792
1432.00,0.0758
1431.00,0.0720
1430.00,0.0680
1429.00,0.0642
1428.00,0.0609
1427.00,0.0581
1426.00,0.0559
1425.00,0.0539
1424.00,0.0520
1423.00,0.0506
1422.00,0.0496
1421.00,0.0489
1420.00,0.0484
1419.00,0.0481
1418.00,0.0479
1417.00,0.0478
1416.00,0.0478
1415.00,0.0479
1414.00,0.0482
1413.00,0.0484
1412.00,0.0487
1411.00,0.0490
1410.00,0.0494
1409.00,0.0498
1408.00,0.0502
1407.00,0.0507
1406.00,0.0514
1405.00,0.0520
1404.00,0.0525
1403.00,0.0529
1402.00,0.0533
1401.00,0.0536
1400.00,0.0538
1399.00,0.0537
1398.00,0.0534
1397.00,0.0530
1396.00,0.0524
1395.00,0.0515
1394.00,0.0505
1393.00,0.0495
1392.00,0.0485
1391.00,0.0476
1390.00,0.0468
1389.00,0.0460
1388.00,0.0453
1387.00,0.0447
1386.00,0.0444
1385.00,0.0445
1384.00,0.0453
1383.00,0.0469
1382.00,0.0494
1381.00,0.0526
1380.00,0.0560
1379.00,0.0591
1378.00,0.0612
1377.00,0.0620
1376.00,0.0615
1375.00,0.0600
1374.00,0.0577
1373.00,0.0556
1372.00,0.0541
1371.00,0.0537
1370.00,0.0541
1369.00,0.0551
1368.00,0.0561
1367.00,0.0567
1366.00,0.0566
1365.00,0.0559
1364.00,0.0549
1363.00,0.0538
1362.00,0.0529
1361.00,0.0522
1360.00,0.0520
1359.00,0.0523
1358.00,0.0531
1357.00,0.0544
1356.00,0.0563
1355.00,0.0588
1354.00,0.0615
1353.00,0.0641
1352.00,0.0665
1351.00,0.0684
1350.00,0.0695
1349.00,0.0698
1348.00,0.0690
1347.00,0.0675
1346.00,0.0654
1345.00,0.0631
1344.00,0.0612
1343.00,0.0597
1342.00,0.0588
1341.00,0.0585
1340.00,0.0589
1339.00,0.0598
1338.00,0.0610
1337.00,0.0621
1336.00,0.0628
1335.00,0.0627
1334.00,0.0617
1333.00,0.0600
1332.00,0.0579
1331.00,0.0562
1330.00,0.0551
1329.00,0.0549
1328.00,0.0559
1327.00,0.0578
1326.00,0.0607
1325.00,0.0643
1324.00,0.0686
1323.00,0.0733
1322.00,0.0782
1321.00,0.0826
1320.00,0.0859
1319.00,0.0874
1318.00,0.0865
1317.00,0.0835
1316.00,0.0791
1315.00,0.0740
1314.00,0.0689
1313.00,0.0642
1312.00,0.0603
1311.00,0.0574
1310.00,0.0555
1309.00,0.0547
1308.00,0.0548
1307.00,0.0554
1306.00,0.0562
1305.00,0.0566
1304.00,0.0561
1303.00,0.0549
1302.00,0.0532
1301.00,0.0516
1300.00,0.0504
1299.00,0.0497
1298.00,0.0496
1297.00,0.0497
1296.00,0.0501
1295.00,0.0505
1294.00,0.0512
1293.00,0.0524
1292.00,0.0540
1291.00,0.0562
1290.00,0.0588
1289.00,0.0616
1288.00,0.0642
1287.00,0.0666
1286.00,0.0689
1285.00,0.0713
1284.00,0.0740
1283.00,0.0768
1282.00,0.0792
1281.00,0.0806
1280.00,0.0806
1279.00,0.0789
1278.00,0.0756
1277.00,0.0712
1276.00,0.0661
1275.00,0.0609
1274.00,0.0560
1273.00,0.0515
1272.00,0.0476
1271.00,0.0442
1270.00,0.0413
1269.00,0.0387
1268.00,0.0365
1267.00,0.0345
1266.00,0.0328
1265.00,0.0314
1264.00,0.0303
1263.00,0.0295
1262.00,0.0290
1261.00,0.0287
1260.00,0.0289
1259.00,0.0294
1258.00,0.0305
1257.00,0.0323
1256.00,0.0346
1255.00,0.0374
1254.00,0.0402
1253.00,0.0427
1252.00,0.0446
1251.00,0.0460
1250.00,0.0474
1249.00,0.0495
1248.00,0.0525
1247.00,0.0563
1246.00,0.0602
1245.00,0.0634
1244.00,0.0651
1243.00,0.0650
1242.00,0.0629
1241.00,0.0594
1240.00,0.0550
1239.00,0.0505
1238.00,0.0463
1237.00,0.0427
1236.00,0.0398
1235.00,0.0377
1234.00,0.0364
1233.00,0.0361
1232.00,0.0368
1231.00,0.0382
1230.00,0.0400
1229.00,0.0415
1228.00,0.0420
1227.00,0.0414
1226.00,0.0400
1225.00,0.0382
1224.00,0.0366
1223.00,0.0356
1222.00,0.0354
1221.00,0.0359
1220.00,0.0366
1219.00,0.0372
1218.00,0.0371
1217.00,0.0362
1216.00,0.0348
1215.00,0.0334
1214.00,0.0324
1213.00,0.0321
1212.00,0.0329
1211.00,0.0352
1210.00,0.0392
1209.00,0.0449
1208.00,0.0517
1207.00,0.0583
1206.00,0.0629
1205.00,0.0644
1204.00,0.0624
1203.00,0.0579
1202.00,0.0520
1201.00,0.0459
1200.00,0.0403
1199.00,0.0356
1198.00,0.0319
1197.00,0.0291
1196.00,0.0270
1195.00,0.0257
1194.00,0.0250
1193.00,0.0248
1192.00,0.0250
1191.00,0.0254
1190.00,0.0258
1189.00,0.0261
1188.00,0.0261
1187.00,0.0259
1186.00,0.0256
1185.00,0.0253
1184.00,0.0250
1183.00,0.0250
1182.00,0.0254
1181.00,0.0263
1180.00,0.0280
1179.00,0.0306
1178.00,0.0342
1177.00,0.0385
1176.00,0.0431
1175.00,0.0479
1174.00,0.0528
1173.00,0.0570
1172.00,0.0598
1171.00,0.0605
1170.00,0.0586
1169.00,0.0548
1168.00,0.0499
1167.00,0.0449
1166.00,0.0402
1165.00,0.0362
1164.00,0.0328
1163.00,0.0302
1162.00,0.0282
1161.00,0.0267
1160.00,0.0257
1159.00,0.0251
1158.00,0.0248
1157.00,0.0247
1156.00,0.0250
1155.00,0.0257
1154.00,0.0272
1153.00,0.0299
1152.00,0.0343
1151.00,0.0398
1150.00,0.0454
1149.00,0.0491
1148.00,0.0493
1147.00,0.0457
1146.00,0.0395
1145.00,0.0326
1144.00,0.0267
1143.00,0.0223
1142.00,0.0194
1141.00,0.0177
1140.00,0.0167
1139.00,0.0162
1138.00,0.0160
1137.00,0.0158
1136.00,0.0156
1135.00,0.0152
1134.00,0.0147
1133.00,0.0141
1132.00,0.0133
1131.00,0.0125
1130.00,0.0118
1129.00,0.0112
1128.00,0.0106
1127.00,0.0102
1126.00,0.0098
1125.00,0.0095
1124.00,0.0092
1123.00,0.0090
1122.00,0.0089
1121.00,0.0088
1120.00,0.0088
1119.00,0.0088
1118.00,0.0088
1117.00,0.0088
1116.00,0.0089
1115.00,0.0092
1114.00,0.0094
1113.00,0.0098
1112.00,0.0102
1111.00,0.0107
1110.00,0.0114
1109.00,0.0121
1108.00,0.0128
1107.00,0.0136
1106.00,0.0144
1105.00,0.0153
1104.00,0.0164
1103.00,0.0175
1102.00,0.0187
1101.00,0.0197
1100.00,0.0203
1099.00,0.0203
1098.00,0.0199
1097.00,0.0190
1096.00,0.0179
1095.00,0.0169
1094.00,0.0160
1093.00,0.0153
1092.00,0.0147
1091.00,0.0142
1090.00,0.0138
1089.00,0.0135
1088.00,0.0133
1087.00,0.0134
1086.00,0.0137
1085.00,0.0140
1084.00,0.0143
1083.00,0.0147
1082.00,0.0149
1081.00,0.0151
1080.00,0.0150
1079.00,0.0147
1078.00,0.0143
1077.00,0.0137
1076.00,0.0131
1075.00,0.0126
1074.00,0.0122
1073.00,0.0120
1072.00,0.0118
1071.00,0.0119
1070.00,0.0120
1069.00,0.0124
1068.00,0.0129
1067.00,0.0136
1066.00,0.0146
1065.00,0.0158
1064.00,0.0173
1063.00,0.0193
1062.00,0.0218
1061.00,0.0248
1060.00,0.0285
1059.00,0.0330
1058.00,0.0384
1057.00,0.0447
1056.00,0.0514
1055.00,0.0573
1054.00,0.0608
1053.00,0.0608
1052.00,0.0575
1051.00,0.0522
1050.00,0.0463
1049.00,0.0413
1048.00,0.0376
1047.00,0.0354
1046.00,0.0345
1045.00,0.0347
1044.00,0.0357
1043.00,0.0373
1042.00,0.0395
1041.00,0.0424
1040.00,0.0461
1039.00,0.0506
1038.00,0.0560
1037.00,0.0620
1036.00,0.0681
1035.00,0.0735
1034.00,0.0774
1033.00,0.0795
1032.00,0.0796
1031.00,0.0778
1030.00,0.0744
1029.00,0.0696
1028.00,0.0638
1027.00,0.0576
1026.00,0.0515
1025.00,0.0460
1024.00,0.0414
1023.00,0.0377
1022.00,0.0349
1021.00,0.0327
1020.00,0.0308
1019.00,0.0292
1018.00,0.0278
1017.00,0.0264
1016.00,0.0252
1015.00,0.0242
1014.00,0.0234
1013.00,0.0228
1012.00,0.0223
1011.00,0.0218
1010.00,0.0214
1009.00,0.0208
1008.00,0.0202
1007.00,0.0195
1006.00,0.0188
1005.00,0.0185
1004.00,0.0187
1003.00,0.0195
1002.00,0.0212
1001.00,0.0234
1000.00,0.0255
999.00,0.0267
998.00,0.0266
997.00,0.0252
996.00,0.0231
995.00,0.0210
994.00,0.0195
993.00,0.0185
992.00,0.0180
991.00,0.0178
990.00,0.0179
989.00,0.0182
988.00,0.0184
987.00,0.0187
986.00,0.0189
985.00,0.0189
984.00,0.0186
983.00,0.0180
982.00,0.0172
981.00,0.0164
980.00,0.0156
979.00,0.0150
978.00,0.0145
977.00,0.0140
976.00,0.0137
975.00,0.0136
974.00,0.0136
973.00,0.0138
972.00,0.0141
971.00,0.0145
970.00,0.0148
969.00,0.0151
968.00,0.0154
967.00,0.0158
966.00,0.0164
965.00,0.0174
964.00,0.0188
963.00,0.0204
962.00,0.0221
961.00,0.0235
960.00,0.0244
959.00,0.0248
958.00,0.0247
957.00,0.0243
956.00,0.0237
955.00,0.0230
954.00,0.0224
953.00,0.0219
952.00,0.0216
951.00,0.0214
950.00,0.0212
949.00,0.0211
948.00,0.0209
947.00,0.0209
946.00,0.0210
945.00,0.0212
944.00,0.0215
943.00,0.0218
942.00,0.0219
941.00,0.0218
940.00,0.0214
939.00,0.0207
938.00,0.0199
937.00,0.0192
936.00,0.0186
935.00,0.0183
934.00,0.0182
933.00,0.0183
932.00,0.0186
931.00,0.0191
930.00,0.0198
929.00,0.0206
928.00,0.0214
927.00,0.0222
926.00,0.0229
925.00,0.0235
924.00,0.0241
923.00,0.0247
922.00,0.0256
921.00,0.0267
920.00,0.0281
919.00,0.0295
918.00,0.0308
917.00,0.0320
916.00,0.0331
915.00,0.0339
914.00,0.0342
913.00,0.0337
912.00,0.0324
911.00,0.0305
910.00,0.0288
909.00,0.0276
908.00,0.0271
907.00,0.0275
906.00,0.0286
905.00,0.0304
904.00,0.0325
903.00,0.0343
902.00,0.0355
901.00,0.0359
900.00,0.0355
899.00,0.0346
898.00,0.0335
897.00,0.0329
896.00,0.0334
895.00,0.0355
894.00,0.0400
893.00,0.0476
892.00,0.0579
891.00,0.0688
890.00,0.0768
889.00,0.0797
888.00,0.0783
887.00,0.0757
886.00,0.0745
885.00,0.0743
884.00,0.0729
883.00,0.0688
882.00,0.0625
881.00,0.0556
880.00,0.0498
879.00,0.0456
878.00,0.0428
877.00,0.0409
876.00,0.0395
875.00,0.0384
874.00,0.0377
873.00,0.0372
872.00,0.0372
871.00,0.0374
870.00,0.0380
869.00,0.0391
868.00,0.0407
867.00,0.0432
866.00,0.0468
865.00,0.0517
864.00,0.0575
863.00,0.0633
862.00,0.0682
861.00,0.0712
860.00,0.0723
859.00,0.0723
858.00,0.0720
857.00,0.0718
856.00,0.0712
855.00,0.0698
854.00,0.0673
853.00,0.0642
852.00,0.0609
851.00,0.0581
850.00,0.0562
849.00,0.0552
848.00,0.0549
847.00,0.0552
846.00,0.0560
845.00,0.0571
844.00,0.0580
843.00,0.0587
842.00,0.0591
841.00,0.0594
840.00,0.0599
839.00,0.0602
838.00,0.0594
837.00,0.0572
836.00,0.0537
835.00,0.0499
834.00,0.0466
833.00,0.0441
832.00,0.0427
831.00,0.0423
830.00,0.0426
829.00,0.0430
828.00,0.0428
827.00,0.0416
826.00,0.0393
825.00,0.0364
824.00,0.0335
823.00,0.0311
822.00,0.0292
821.00,0.0278
820.00,0.0268
819.00,0.0259
818.00,0.0252
817.00,0.0246
816.00,0.0243
815.00,0.0243
814.00,0.0246
813.00,0.0251
812.00,0.0257
811.00,0.0265
810.00,0.0276
809.00,0.0293
808.00,0.0318
807.00,0.0353
806.00,0.0394
805.00,0.0431
804.00,0.0453
803.00,0.0456
802.00,0.0445
801.00,0.0430
800.00,0.0423
799.00,0.0426
798.00,0.0440
797.00,0.0460
796.00,0.0478
795.00,0.0487
794.00,0.0482
793.00,0.0463
792.00,0.0434
791.00,0.0401
790.00,0.0371
789.00,0.0347
788.00,0.0329
787.00,0.0317
786.00,0.0309
785.00,0.0303
784.00,0.0298
783.00,0.0293
782.00,0.0289
781.00,0.0286
780.00,0.0284
779.00,0.0284
778.00,0.0287
777.00,0.0291
776.00,0.0297
775.00,0.0305
774.00,0.0313
773.00,0.0322
772.00,0.0329
771.00,0.0333
770.00,0.0335
769.00,0.0335
768.00,0.0332
767.00,0.0327
766.00,0.0322
765.00,0.0317
764.00,0.0310
763.00,0.0304
762.00,0.0299
761.00,0.0294
760.00,0.0291
759.00,0.0290
758.00,0.0289
757.00,0.0290
756.00,0.0290
755.00,0.0289
754.00,0.0284
753.00,0.0275
752.00,0.0262
751.00,0.0248
750.00,0.0236
749.00,0.0229
748.00,0.0226
747.00,0.0226
746.00,0.0228
745.00,0.0231
744.00,0.0235
743.00,0.0241
742.00,0.0247
741.00,0.0256
740.00,0.0266
739.00,0.0278
738.00,0.0294
737.00,0.0312
736.00,0.0333
735.00,0.0355
734.00,0.0374
733.00,0.0384
732.00,0.0381
731.00,0.0366
730.00,0.0344
729.00,0.0322
728.00,0.0303
727.00,0.0289
726.00,0.0280
725.00,0.0274
724.00,0.0270
723.00,0.0266
722.00,0.0264
721.00,0.0263
720.00,0.0261
719.00,0.0261
718.00,0.0260
717.00,0.0261
716.00,0.0261
715.00,0.0262
714.00,0.0264
713.00,0.0265
712.00,0.0265
711.00,0.0264
710.00,0.0262
709.00,0.0260
708.00,0.0259
707.00,0.0257
706.00,0.0256
705.00,0.0256
704.00,0.0256
703.00,0.0256
702.00,0.0257
701.00,0.0257
700.00,0.0258
699.00,0.0259
698.00,0.0260
697.00,0.0262
696.00,0.0264
695.00,0.0266
694.00,0.0269
693.00,0.0273
692.00,0.0277
691.00,0.0281
690.00,0.0287
689.00,0.0294
688.00,0.0301
687.00,0.0309
686.00,0.0318
685.00,0.0328
684.00,0.0339
683.00,0.0349
682.00,0.0359
681.00,0.0368
680.00,0.0375
679.00,0.0380
678.00,0.0382
677.00,0.0382
676.00,0.0378
675.00,0.0374
674.00,0.0370
673.00,0.0367
672.00,0.0365
671.00,0.0363
670.00,0.0360
669.00,0.0352
668.00,0.0336
667.00,0.0317
666.00,0.0299
665.00,0.0285
664.00,0.0272
663.00,0.0262
662.00,0.0254
661.00,0.0250
660.00,0.0248
659.00,0.0247
658.00,0.0246
657.00,0.0245
656.00,0.0244
655.00,0.0243
654.00,0.0244
653.00,0.0247
652.00,0.0251
651.00,0.0255
650.00,0.0258
649.00,0.0258
648.00,0.0256
647.00,0.0253
646.00,0.0249
645.00,0.0246
644.00,0.0244
643.00,0.0243
642.00,0.0244
641.00,0.0246
640.00,0.0250
639.00,0.0255
638.00,0.0261
637.00,0.0267
636.00,0.0272
635.00,0.0275
634.00,0.0278
633.00,0.0279
632.00,0.0278
631.00,0.0276
630.00,0.0272
629.00,0.0267
628.00,0.0261
627.00,0.0254
626.00,0.0249
625.00,0.0244
624.00,0.0240
623.00,0.0237
622.00,0.0235
621.00,0.0234
620.00,0.0236
619.00,0.0241
618.00,0.0251
617.00,0.0263
616.00,0.0276
615.00,0.0285
614.00,0.0287
613.00,0.0284
612.00,0.0278
611.00,0.0272
610.00,0.0268
609.00,0.0265
608.00,0.0264
607.00,0.0262
606.00,0.0260
605.00,0.0257
604.00,0.0253
603.00,0.0249
602.00,0.0245
601.00,0.0241
600.00,0.0239
599.00,0.0239
598.00,0.0240
597.00,0.0243
596.00,0.0247
595.00,0.0251
594.00,0.0254
593.00,0.0255
592.00,0.0253
591.00,0.0250
590.00,0.0246
589.00,0.0244
588.00,0.0242
587.00,0.0241
586.00,0.0243
585.00,0.0250
584.00,0.0263
583.00,0.0287
582.00,0.0324
581.00,0.0373
580.00,0.0426
579.00,0.0466
578.00,0.0476
577.00,0.0451
576.00,0.0400
575.00,0.0342
574.00,0.0291
573.00,0.0254
572.00,0.0229
571.00,0.0212
570.00,0.0200
569.00,0.0192
568.00,0.0186
567.00,0.0182
566.00,0.0181
565.00,0.0182
564.00,0.0185
563.00,0.0189
562.00,0.0196
561.00,0.0204
560.00,0.0214
559.00,0.0228
558.00,0.0247
557.00,0.0274
556.00,0.0312
555.00,0.0360
554.00,0.0414
553.00,0.0459
552.00,0.0481
551.00,0.0471
550.00,0.0436
549.00,0.0389
548.00,0.0347
547.00,0.0317
546.00,0.0301
545.00,0.0297
544.00,0.0297
543.00,0.0300
542.00,0.0303
541.00,0.0310
540.00,0.0323
539.00,0.0346
538.00,0.0380
537.00,0.0420
536.00,0.0457
535.00,0.0475
534.00,0.0468
533.00,0.0435
532.00,0.0390
531.00,0.0348
530.00,0.0323
529.00,0.0321
528.00,0.0340
527.00,0.0366
526.00,0.0385
525.00,0.0388
524.00,0.0381
523.00,0.0371
522.00,0.0361
521.00,0.0344
520.00,0.0319
519.00,0.0288
518.00,0.0260
517.00,0.0238
516.00,0.0225
515.00,0.0219
514.00,0.0217
513.00,0.0217
512.00,0.0220
511.00,0.0224
510.00,0.0232
509.00,0.0241
508.00,0.0251
507.00,0.0263
506.00,0.0276
505.00,0.0293
504.00,0.0312
503.00,0.0335
502.00,0.0360
501.00,0.0387
500.00,0.0415
499.00,0.0446
498.00,0.0480
497.00,0.0516
496.00,0.0554
495.00,0.0591
494.00,0.0627
493.00,0.0662
492.00,0.0693
491.00,0.0718
490.00,0.0736
489.00,0.0748
488.00,0.0753
487.00,0.0754
486.00,0.0751
485.00,0.0745
484.00,0.0738
483.00,0.0733
482.00,0.0729
481.00,0.0727
480.00,0.0727
479.00,0.0729
478.00,0.0730
477.00,0.0731
476.00,0.0730
475.00,0.0728
474.00,0.0724
473.00,0.0719
472.00,0.0714
471.00,0.0707
470.00,0.0700
469.00,0.0694
468.00,0.0689
467.00,0.0685
466.00,0.0680
465.00,0.0672
464.00,0.0657
463.00,0.0634
462.00,0.0604
461.00,0.0573
460.00,0.0546
459.00,0.0527
458.00,0.0514
457.00,0.0507
456.00,0.0502
455.00,0.0499
454.00,0.0495
453.00,0.0492
452.00,0.0488
451.00,0.0484
450.00,0.0480
449.00,0.0474
448.00,0.0466
447.00,0.0457
446.00,0.0450
445.00,0.0445
444.00,0.0440
443.00,0.0435
442.00,0.0432
441.00,0.0428
440.00,0.0424
439.00,0.0420
438.00,0.0418
437.00,0.0420
436.00,0.0422
435.00,0.0419
434.00,0.0409
433.00,0.0394
432.00,0.0376
431.00,0.0358
430.00,0.0343
429.00,0.0332
428.00,0.0325
427.00,0.0321
426.00,0.0318
425.00,0.0314
424.00,0.0308
423.00,0.0302
422.00,0.0298
421.00,0.0296
420.00,0.0295
419.00,0.0295
418.00,0.0292
417.00,0.0286
416.00,0.0280
415.00,0.0277
414.00,0.0277
413.00,0.0278
412.00,0.0278
411.00,0.0277
410.00,0.0273
409.00,0.0265
408.00,0.0255
407.00,0.0250
406.00,0.0254
405.00,0.0261
404.00,0.0269
403.00,0.0277
402.00,0.0288
401.00,0.0297
400.00,0.0303
