Created as New Dataset,Sample 927 By YargerLab Date Saturday, July 26 2025
cm-1,A
4000.00,0.0040
3999.00,0.0040
3998.00,0.0040
3997.00,0.0040
3996.00,0.0040
3995.00,0.0040
3994.00,0.0040
3993.00,0.0040
3992.00,0.0040
3991.00,0.0040
3990.00,0.0040
3989.00,0.0040
3988.00,0.0040
3987.00,0.0040
3986.00,0.0040
3985.00,0.0040
3984.00,0.0039
3983.00,0.0039
3982.00,0.0039
3981.00,0.0040
3980.00,0.0040
3979.00,0.0039
3978.00,0.0039
3977.00,0.0039
3976.00,0.0039
3975.00,0.0039
3974.00,0.0040
3973.00,0.0040
3972.00,0.0040
3971.00,0.0039
3970.00,0.0039
3969.00,0.0039
3968.00,0.0039
3967.00,0.0039
3966.00,0.0039
3965.00,0.0039
3964.00,0.0039
3963.00,0.0039
3962.00,0.0039
3961.00,0.0039
3960.00,0.0039
3959.00,0.0039
3958.00,0.0039
3957.00,0.0039
3956.00,0.0039
3955.00,0.0039
3954.00,0.0039
3953.00,0.0039
3952.00,0.0039
3951.00,0.0039
3950.00,0.0039
3949.00,0.0039
3948.00,0.0039
3947.00,0.0039
3946.00,0.0039
3945.00,0.0039
3944.00,0.0039
3943.00,0.0039
3942.00,0.0039
3941.00,0.0039
3940.00,0.0039
3939.00,0.0039
3938.00,0.0039
3937.00,0.0039
3936.00,0.0039
3935.00,0.0039
3934.00,0.0039
3933.00,0.0039
3932.00,0.0039
3931.00,0.0039
3930.00,0.0039
3929.00,0.0039
3928.00,0.0039
3927.00,0.0039
3926.00,0.0039
3925.00,0.0039
3924.00,0.0039
3923.00,0.0039
3922.00,0.0039
3921.00,0.0039
3920.00,0.0039
3919.00,0.0039
3918.00,0.0039
3917.00,0.0039
3916.00,0.0039
3915.00,0.0039
3914.00,0.0039
3913.00,0.0039
3912.00,0.0039
3911.00,0.0039
3910.00,0.0040
3909.00,0.0040
3908.00,0.0040
3907.00,0.0039
3906.00,0.0039
3905.00,0.0039
3904.00,0.0039
3903.00,0.0039
3902.00,0.0039
3901.00,0.0039
3900.00,0.0039
3899.00,0.0039
3898.00,0.0039
3897.00,0.0039
3896.00,0.0039
3895.00,0.0039
3894.00,0.0039
3893.00,0.0039
3892.00,0.0039
3891.00,0.0039
3890.00,0.0039
3889.00,0.0039
3888.00,0.0039
3887.00,0.0039
3886.00,0.0039
3885.00,0.0040
3884.00,0.0040
3883.00,0.0040
3882.00,0.0039
3881.00,0.0039
3880.00,0.0039
3879.00,0.0039
3878.00,0.0039
3877.00,0.0039
3876.00,0.0039
3875.00,0.0039
3874.00,0.0039
3873.00,0.0040
3872.00,0.0039
3871.00,0.0039
3870.00,0.0039
3869.00,0.0039
3868.00,0.0039
3867.00,0.0039
3866.00,0.0039
3865.00,0.0039
3864.00,0.0039
3863.00,0.0039
3862.00,0.0039
3861.00,0.0039
3860.00,0.0039
3859.00,0.0040
3858.00,0.0040
3857.00,0.0041
3856.00,0.0041
3855.00,0.0041
3854.00,0.0040
3853.00,0.0040
3852.00,0.0040
3851.00,0.0039
3850.00,0.0039
3849.00,0.0039
3848.00,0.0039
3847.00,0.0039
3846.00,0.0039
3845.00,0.0039
3844.00,0.0039
3843.00,0.0039
3842.00,0.0039
3841.00,0.0039
3840.00,0.0039
3839.00,0.0039
3838.00,0.0040
3837.00,0.0040
3836.00,0.0040
3835.00,0.0040
3834.00,0.0040
3833.00,0.0039
3832.00,0.0039
3831.00,0.0039
3830.00,0.0039
3829.00,0.0039
3828.00,0.0039
3827.00,0.0040
3826.00,0.0040
3825.00,0.0040
3824.00,0.0040
3823.00,0.0040
3822.00,0.0040
3821.00,0.0040
3820.00,0.0041
3819.00,0.0041
3818.00,0.0040
3817.00,0.0040
3816.00,0.0040
3815.00,0.0040
3814.00,0.0040
3813.00,0.0040
3812.00,0.0040
3811.00,0.0040
3810.00,0.0040
3809.00,0.0040
3808.00,0.0040
3807.00,0.0040
3806.00,0.0040
3805.00,0.0040
3804.00,0.0040
3803.00,0.0040
3802.00,0.0040
3801.00,0.0040
3800.00,0.0040
3799.00,0.0040
3798.00,0.0039
3797.00,0.0039
3796.00,0.0040
3795.00,0.0040
3794.00,0.0040
3793.00,0.0040
3792.00,0.0039
3791.00,0.0039
3790.00,0.0039
3789.00,0.0039
3788.00,0.0039
3787.00,0.0039
3786.00,0.0039
3785.00,0.0039
3784.00,0.0040
3783.00,0.0040
3782.00,0.0040
3781.00,0.0040
3780.00,0.0040
3779.00,0.0040
3778.00,0.0040
3777.00,0.0040
3776.00,0.0040
3775.00,0.0040
3774.00,0.0040
3773.00,0.0040
3772.00,0.0040
3771.00,0.0040
3770.00,0.0040
3769.00,0.0041
3768.00,0.0041
3767.00,0.0041
3766.00,0.0040
3765.00,0.0040
3764.00,0.0040
3763.00,0.0040
3762.00,0.0040
3761.00,0.0040
3760.00,0.0040
3759.00,0.0040
3758.00,0.0040
3757.00,0.0040
3756.00,0.0040
3755.00,0.0040
3754.00,0.0040
3753.00,0.0040
3752.00,0.0041
3751.00,0.0041
3750.00,0.0041
3749.00,0.0041
3748.00,0.0041
3747.00,0.0041
3746.00,0.0041
3745.00,0.0041
3744.00,0.0041
3743.00,0.0041
3742.00,0.0040
3741.00,0.0039
3740.00,0.0039
3739.00,0.0039
3738.00,0.0039
3737.00,0.0039
3736.00,0.0039
3735.00,0.0040
3734.00,0.0040
3733.00,0.0039
3732.00,0.0039
3731.00,0.0039
3730.00,0.0039
3729.00,0.0039
3728.00,0.0039
3727.00,0.0039
3726.00,0.0039
3725.00,0.0039
3724.00,0.0039
3723.00,0.0039
3722.00,0.0039
3721.00,0.0039
3720.00,0.0039
3719.00,0.0039
3718.00,0.0039
3717.00,0.0039
3716.00,0.0040
3715.00,0.0040
3714.00,0.0040
3713.00,0.0040
3712.00,0.0040
3711.00,0.0040
3710.00,0.0040
3709.00,0.0040
3708.00,0.0039
3707.00,0.0039
3706.00,0.0039
3705.00,0.0039
3704.00,0.0039
3703.00,0.0039
3702.00,0.0039
3701.00,0.0039
3700.00,0.0039
3699.00,0.0039
3698.00,0.0039
3697.00,0.0039
3696.00,0.0039
3695.00,0.0039
3694.00,0.0040
3693.00,0.0040
3692.00,0.0040
3691.00,0.0041
3690.00,0.0041
3689.00,0.0041
3688.00,0.0042
3687.00,0.0042
3686.00,0.0042
3685.00,0.0042
3684.00,0.0043
3683.00,0.0043
3682.00,0.0043
3681.00,0.0044
3680.00,0.0044
3679.00,0.0044
3678.00,0.0044
3677.00,0.0045
3676.00,0.0045
3675.00,0.0046
3674.00,0.0047
3673.00,0.0047
3672.00,0.0047
3671.00,0.0046
3670.00,0.0047
3669.00,0.0047
3668.00,0.0048
3667.00,0.0048
3666.00,0.0048
3665.00,0.0048
3664.00,0.0049
3663.00,0.0049
3662.00,0.0049
3661.00,0.0050
3660.00,0.0050
3659.00,0.0050
3658.00,0.0051
3657.00,0.0051
3656.00,0.0052
3655.00,0.0053
3654.00,0.0053
3653.00,0.0054
3652.00,0.0054
3651.00,0.0054
3650.00,0.0054
3649.00,0.0055
3648.00,0.0056
3647.00,0.0056
3646.00,0.0057
3645.00,0.0058
3644.00,0.0058
3643.00,0.0058
3642.00,0.0059
3641.00,0.0060
3640.00,0.0060
3639.00,0.0061
3638.00,0.0062
3637.00,0.0063
3636.00,0.0064
3635.00,0.0065
3634.00,0.0066
3633.00,0.0066
3632.00,0.0067
3631.00,0.0068
3630.00,0.0068
3629.00,0.0069
3628.00,0.0070
3627.00,0.0071
3626.00,0.0072
3625.00,0.0073
3624.00,0.0074
3623.00,0.0075
3622.00,0.0075
3621.00,0.0076
3620.00,0.0077
3619.00,0.0078
3618.00,0.0079
3617.00,0.0081
3616.00,0.0081
3615.00,0.0082
3614.00,0.0083
3613.00,0.0084
3612.00,0.0086
3611.00,0.0087
3610.00,0.0088
3609.00,0.0089
3608.00,0.0091
3607.00,0.0092
3606.00,0.0093
3605.00,0.0094
3604.00,0.0095
3603.00,0.0096
3602.00,0.0097
3601.00,0.0098
3600.00,0.0100
3599.00,0.0101
3598.00,0.0103
3597.00,0.0104
3596.00,0.0106
3595.00,0.0107
3594.00,0.0108
3593.00,0.0110
3592.00,0.0111
3591.00,0.0112
3590.00,0.0114
3589.00,0.0115
3588.00,0.0117
3587.00,0.0118
3586.00,0.0120
3585.00,0.0122
3584.00,0.0123
3583.00,0.0124
3582.00,0.0126
3581.00,0.0127
3580.00,0.0129
3579.00,0.0131
3578.00,0.0133
3577.00,0.0135
3576.00,0.0136
3575.00,0.0138
3574.00,0.0140
3573.00,0.0141
3572.00,0.0143
3571.00,0.0144
3570.00,0.0146
3569.00,0.0147
3568.00,0.0149
3567.00,0.0151
3566.00,0.0153
3565.00,0.0154
3564.00,0.0156
3563.00,0.0158
3562.00,0.0160
3561.00,0.0162
3560.00,0.0164
3559.00,0.0165
3558.00,0.0167
3557.00,0.0168
3556.00,0.0170
3555.00,0.0171
3554.00,0.0173
3553.00,0.0174
3552.00,0.0176
3551.00,0.0178
3550.00,0.0179
3549.00,0.0181
3548.00,0.0182
3547.00,0.0183
3546.00,0.0185
3545.00,0.0187
3544.00,0.0189
3543.00,0.0190
3542.00,0.0191
3541.00,0.0193
3540.00,0.0194
3539.00,0.0195
3538.00,0.0196
3537.00,0.0198
3536.00,0.0199
3535.00,0.0200
3534.00,0.0202
3533.00,0.0203
3532.00,0.0204
3531.00,0.0205
3530.00,0.0206
3529.00,0.0208
3528.00,0.0209
3527.00,0.0210
3526.00,0.0211
3525.00,0.0212
3524.00,0.0213
3523.00,0.0214
3522.00,0.0215
3521.00,0.0215
3520.00,0.0216
3519.00,0.0217
3518.00,0.0218
3517.00,0.0219
3516.00,0.0220
3515.00,0.0221
3514.00,0.0221
3513.00,0.0222
3512.00,0.0223
3511.00,0.0224
3510.00,0.0225
3509.00,0.0225
3508.00,0.0226
3507.00,0.0227
3506.00,0.0227
3505.00,0.0228
3504.00,0.0229
3503.00,0.0229
3502.00,0.0230
3501.00,0.0231
3500.00,0.0231
3499.00,0.0232
3498.00,0.0233
3497.00,0.0234
3496.00,0.0235
3495.00,0.0236
3494.00,0.0236
3493.00,0.0236
3492.00,0.0237
3491.00,0.0237
3490.00,0.0238
3489.00,0.0238
3488.00,0.0239
3487.00,0.0239
3486.00,0.0240
3485.00,0.0240
3484.00,0.0241
3483.00,0.0242
3482.00,0.0243
3481.00,0.0244
3480.00,0.0244
3479.00,0.0245
3478.00,0.0245
3477.00,0.0246
3476.00,0.0247
3475.00,0.0247
3474.00,0.0248
3473.00,0.0249
3472.00,0.0249
3471.00,0.0250
3470.00,0.0251
3469.00,0.0251
3468.00,0.0252
3467.00,0.0253
3466.00,0.0253
3465.00,0.0253
3464.00,0.0254
3463.00,0.0254
3462.00,0.0255
3461.00,0.0255
3460.00,0.0256
3459.00,0.0256
3458.00,0.0257
3457.00,0.0258
3456.00,0.0258
3455.00,0.0259
3454.00,0.0259
3453.00,0.0259
3452.00,0.0260
3451.00,0.0260
3450.00,0.0260
3449.00,0.0260
3448.00,0.0261
3447.00,0.0262
3446.00,0.0262
3445.00,0.0263
3444.00,0.0263
3443.00,0.0264
3442.00,0.0264
3441.00,0.0264
3440.00,0.0264
3439.00,0.0265
3438.00,0.0265
3437.00,0.0266
3436.00,0.0266
3435.00,0.0266
3434.00,0.0266
3433.00,0.0267
3432.00,0.0267
3431.00,0.0268
3430.00,0.0268
3429.00,0.0269
3428.00,0.0269
3427.00,0.0269
3426.00,0.0270
3425.00,0.0270
3424.00,0.0270
3423.00,0.0270
3422.00,0.0270
3421.00,0.0270
3420.00,0.0270
3419.00,0.0271
3418.00,0.0271
3417.00,0.0271
3416.00,0.0271
3415.00,0.0271
3414.00,0.0272
3413.00,0.0272
3412.00,0.0272
3411.00,0.0272
3410.00,0.0272
3409.00,0.0272
3408.00,0.0272
3407.00,0.0272
3406.00,0.0272
3405.00,0.0272
3404.00,0.0271
3403.00,0.0271
3402.00,0.0270
3401.00,0.0270
3400.00,0.0270
3399.00,0.0270
3398.00,0.0270
3397.00,0.0269
3396.00,0.0269
3395.00,0.0268
3394.00,0.0267
3393.00,0.0266
3392.00,0.0265
3391.00,0.0265
3390.00,0.0264
3389.00,0.0264
3388.00,0.0263
3387.00,0.0262
3386.00,0.0262
3385.00,0.0261
3384.00,0.0260
3383.00,0.0259
3382.00,0.0258
3381.00,0.0257
3380.00,0.0256
3379.00,0.0255
3378.00,0.0254
3377.00,0.0253
3376.00,0.0253
3375.00,0.0251
3374.00,0.0250
3373.00,0.0249
3372.00,0.0248
3371.00,0.0246
3370.00,0.0245
3369.00,0.0244
3368.00,0.0244
3367.00,0.0243
3366.00,0.0243
3365.00,0.0242
3364.00,0.0241
3363.00,0.0241
3362.00,0.0240
3361.00,0.0239
3360.00,0.0238
3359.00,0.0238
3358.00,0.0237
3357.00,0.0236
3356.00,0.0235
3355.00,0.0235
3354.00,0.0233
3353.00,0.0232
3352.00,0.0231
3351.00,0.0230
3350.00,0.0230
3349.00,0.0229
3348.00,0.0229
3347.00,0.0229
3346.00,0.0228
3345.00,0.0227
3344.00,0.0226
3343.00,0.0225
3342.00,0.0224
3341.00,0.0223
3340.00,0.0222
3339.00,0.0222
3338.00,0.0222
3337.00,0.0222
3336.00,0.0222
3335.00,0.0222
3334.00,0.0221
3333.00,0.0221
3332.00,0.0221
3331.00,0.0220
3330.00,0.0220
3329.00,0.0219
3328.00,0.0218
3327.00,0.0217
3326.00,0.0217
3325.00,0.0217
3324.00,0.0217
3323.00,0.0217
3322.00,0.0217
3321.00,0.0217
3320.00,0.0217
3319.00,0.0217
3318.00,0.0217
3317.00,0.0216
3316.00,0.0216
3315.00,0.0215
3314.00,0.0215
3313.00,0.0214
3312.00,0.0213
3311.00,0.0212
3310.00,0.0211
3309.00,0.0210
3308.00,0.0209
3307.00,0.0208
3306.00,0.0208
3305.00,0.0209
3304.00,0.0210
3303.00,0.0211
3302.00,0.0211
3301.00,0.0212
3300.00,0.0211
3299.00,0.0211
3298.00,0.0210
3297.00,0.0210
3296.00,0.0209
3295.00,0.0209
3294.00,0.0208
3293.00,0.0208
3292.00,0.0208
3291.00,0.0209
3290.00,0.0209
3289.00,0.0210
3288.00,0.0210
3287.00,0.0210
3286.00,0.0210
3285.00,0.0210
3284.00,0.0209
3283.00,0.0209
3282.00,0.0209
3281.00,0.0208
3280.00,0.0208
3279.00,0.0207
3278.00,0.0207
3277.00,0.0206
3276.00,0.0205
3275.00,0.0204
3274.00,0.0203
3273.00,0.0203
3272.00,0.0202
3271.00,0.0201
3270.00,0.0201
3269.00,0.0202
3268.00,0.0202
3267.00,0.0202
3266.00,0.0202
3265.00,0.0202
3264.00,0.0202
3263.00,0.0201
3262.00,0.0201
3261.00,0.0200
3260.00,0.0199
3259.00,0.0198
3258.00,0.0197
3257.00,0.0196
3256.00,0.0196
3255.00,0.0195
3254.00,0.0194
3253.00,0.0194
3252.00,0.0194
3251.00,0.0193
3250.00,0.0192
3249.00,0.0191
3248.00,0.0190
3247.00,0.0189
3246.00,0.0189
3245.00,0.0189
3244.00,0.0188
3243.00,0.0188
3242.00,0.0187
3241.00,0.0186
3240.00,0.0186
3239.00,0.0185
3238.00,0.0185
3237.00,0.0184
3236.00,0.0183
3235.00,0.0182
3234.00,0.0181
3233.00,0.0180
3232.00,0.0180
3231.00,0.0179
3230.00,0.0179
3229.00,0.0178
3228.00,0.0177
3227.00,0.0177
3226.00,0.0176
3225.00,0.0175
3224.00,0.0174
3223.00,0.0173
3222.00,0.0172
3221.00,0.0171
3220.00,0.0170
3219.00,0.0169
3218.00,0.0169
3217.00,0.0168
3216.00,0.0167
3215.00,0.0166
3214.00,0.0165
3213.00,0.0165
3212.00,0.0164
3211.00,0.0163
3210.00,0.0162
3209.00,0.0161
3208.00,0.0160
3207.00,0.0159
3206.00,0.0158
3205.00,0.0157
3204.00,0.0156
3203.00,0.0155
3202.00,0.0154
3201.00,0.0153
3200.00,0.0152
3199.00,0.0151
3198.00,0.0150
3197.00,0.0149
3196.00,0.0148
3195.00,0.0147
3194.00,0.0146
3193.00,0.0146
3192.00,0.0145
3191.00,0.0144
3190.00,0.0143
3189.00,0.0142
3188.00,0.0141
3187.00,0.0140
3186.00,0.0139
3185.00,0.0138
3184.00,0.0137
3183.00,0.0136
3182.00,0.0135
3181.00,0.0135
3180.00,0.0134
3179.00,0.0133
3178.00,0.0133
3177.00,0.0132
3176.00,0.0131
3175.00,0.0130
3174.00,0.0129
3173.00,0.0129
3172.00,0.0128
3171.00,0.0127
3170.00,0.0126
3169.00,0.0125
3168.00,0.0125
3167.00,0.0124
3166.00,0.0123
3165.00,0.0122
3164.00,0.0121
3163.00,0.0121
3162.00,0.0120
3161.00,0.0119
3160.00,0.0118
3159.00,0.0117
3158.00,0.0117
3157.00,0.0116
3156.00,0.0116
3155.00,0.0115
3154.00,0.0114
3153.00,0.0113
3152.00,0.0112
3151.00,0.0112
3150.00,0.0111
3149.00,0.0111
3148.00,0.0110
3147.00,0.0109
3146.00,0.0109
3145.00,0.0108
3144.00,0.0108
3143.00,0.0107
3142.00,0.0107
3141.00,0.0106
3140.00,0.0105
3139.00,0.0105
3138.00,0.0104
3137.00,0.0104
3136.00,0.0103
3135.00,0.0103
3134.00,0.0102
3133.00,0.0102
3132.00,0.0101
3131.00,0.0101
3130.00,0.0101
3129.00,0.0100
3128.00,0.0100
3127.00,0.0100
3126.00,0.0099
3125.00,0.0099
3124.00,0.0098
3123.00,0.0098
3122.00,0.0097
3121.00,0.0097
3120.00,0.0096
3119.00,0.0096
3118.00,0.0095
3117.00,0.0095
3116.00,0.0095
3115.00,0.0095
3114.00,0.0094
3113.00,0.0094
3112.00,0.0094
3111.00,0.0093
3110.00,0.0092
3109.00,0.0092
3108.00,0.0092
3107.00,0.0091
3106.00,0.0091
3105.00,0.0091
3104.00,0.0090
3103.00,0.0090
3102.00,0.0089
3101.00,0.0089
3100.00,0.0089
3099.00,0.0088
3098.00,0.0088
3097.00,0.0088
3096.00,0.0088
3095.00,0.0087
3094.00,0.0087
3093.00,0.0087
3092.00,0.0086
3091.00,0.0086
3090.00,0.0086
3089.00,0.0086
3088.00,0.0086
3087.00,0.0085
3086.00,0.0085
3085.00,0.0085
3084.00,0.0085
3083.00,0.0084
3082.00,0.0084
3081.00,0.0084
3080.00,0.0083
3079.00,0.0083
3078.00,0.0083
3077.00,0.0083
3076.00,0.0082
3075.00,0.0082
3074.00,0.0082
3073.00,0.0082
3072.00,0.0082
3071.00,0.0081
3070.00,0.0081
3069.00,0.0081
3068.00,0.0081
3067.00,0.0081
3066.00,0.0081
3065.00,0.0080
3064.00,0.0080
3063.00,0.0080
3062.00,0.0080
3061.00,0.0080
3060.00,0.0080
3059.00,0.0080
3058.00,0.0080
3057.00,0.0080
3056.00,0.0080
3055.00,0.0080
3054.00,0.0080
3053.00,0.0080
3052.00,0.0080
3051.00,0.0080
3050.00,0.0079
3049.00,0.0079
3048.00,0.0079
3047.00,0.0079
3046.00,0.0079
3045.00,0.0079
3044.00,0.0078
3043.00,0.0079
3042.00,0.0079
3041.00,0.0079
3040.00,0.0079
3039.00,0.0079
3038.00,0.0079
3037.00,0.0079
3036.00,0.0079
3035.00,0.0079
3034.00,0.0079
3033.00,0.0080
3032.00,0.0080
3031.00,0.0080
3030.00,0.0080
3029.00,0.0080
3028.00,0.0081
3027.00,0.0081
3026.00,0.0081
3025.00,0.0081
3024.00,0.0081
3023.00,0.0081
3022.00,0.0081
3021.00,0.0082
3020.00,0.0082
3019.00,0.0083
3018.00,0.0084
3017.00,0.0084
3016.00,0.0085
3015.00,0.0086
3014.00,0.0087
3013.00,0.0089
3012.00,0.0090
3011.00,0.0092
3010.00,0.0093
3009.00,0.0095
3008.00,0.0097
3007.00,0.0099
3006.00,0.0102
3005.00,0.0104
3004.00,0.0107
3003.00,0.0110
3002.00,0.0114
3001.00,0.0117
3000.00,0.0121
2999.00,0.0124
2998.00,0.0128
2997.00,0.0132
2996.00,0.0136
2995.00,0.0140
2994.00,0.0144
2993.00,0.0148
2992.00,0.0153
2991.00,0.0157
2990.00,0.0161
2989.00,0.0165
2988.00,0.0169
2987.00,0.0173
2986.00,0.0176
2985.00,0.0180
2984.00,0.0184
2983.00,0.0187
2982.00,0.0191
2981.00,0.0195
2980.00,0.0199
2979.00,0.0202
2978.00,0.0206
2977.00,0.0209
2976.00,0.0211
2975.00,0.0214
2974.00,0.0217
2973.00,0.0220
2972.00,0.0224
2971.00,0.0228
2970.00,0.0232
2969.00,0.0235
2968.00,0.0239
2967.00,0.0242
2966.00,0.0245
2965.00,0.0249
2964.00,0.0252
2963.00,0.0255
2962.00,0.0258
2961.00,0.0261
2960.00,0.0263
2959.00,0.0265
2958.00,0.0266
2957.00,0.0267
2956.00,0.0268
2955.00,0.0268
2954.00,0.0268
2953.00,0.0267
2952.00,0.0267
2951.00,0.0266
2950.00,0.0265
2949.00,0.0265
2948.00,0.0264
2947.00,0.0263
2946.00,0.0262
2945.00,0.0262
2944.00,0.0261
2943.00,0.0260
2942.00,0.0260
2941.00,0.0259
2940.00,0.0259
2939.00,0.0260
2938.00,0.0261
2937.00,0.0262
2936.00,0.0264
2935.00,0.0266
2934.00,0.0269
2933.00,0.0271
2932.00,0.0274
2931.00,0.0277
2930.00,0.0280
2929.00,0.0283
2928.00,0.0285
2927.00,0.0285
2926.00,0.0286
2925.00,0.0285
2924.00,0.0283
2923.00,0.0281
2922.00,0.0278
2921.00,0.0275
2920.00,0.0271
2919.00,0.0267
2918.00,0.0263
2917.00,0.0259
2916.00,0.0255
2915.00,0.0252
2914.00,0.0249
2913.00,0.0246
2912.00,0.0243
2911.00,0.0240
2910.00,0.0237
2909.00,0.0234
2908.00,0.0231
2907.00,0.0229
2906.00,0.0227
2905.00,0.0225
2904.00,0.0223
2903.00,0.0221
2902.00,0.0220
2901.00,0.0219
2900.00,0.0219
2899.00,0.0219
2898.00,0.0219
2897.00,0.0219
2896.00,0.0219
2895.00,0.0219
2894.00,0.0219
2893.00,0.0219
2892.00,0.0219
2891.00,0.0219
2890.00,0.0219
2889.00,0.0218
2888.00,0.0218
2887.00,0.0218
2886.00,0.0217
2885.00,0.0217
2884.00,0.0217
2883.00,0.0217
2882.00,0.0217
2881.00,0.0217
2880.00,0.0217
2879.00,0.0217
2878.00,0.0217
2877.00,0.0217
2876.00,0.0217
2875.00,0.0217
2874.00,0.0216
2873.00,0.0216
2872.00,0.0215
2871.00,0.0214
2870.00,0.0213
2869.00,0.0212
2868.00,0.0210
2867.00,0.0209
2866.00,0.0208
2865.00,0.0207
2864.00,0.0207
2863.00,0.0206
2862.00,0.0207
2861.00,0.0207
2860.00,0.0207
2859.00,0.0207
2858.00,0.0207
2857.00,0.0206
2856.00,0.0204
2855.00,0.0201
2854.00,0.0197
2853.00,0.0192
2852.00,0.0187
2851.00,0.0182
2850.00,0.0177
2849.00,0.0171
2848.00,0.0166
2847.00,0.0161
2846.00,0.0157
2845.00,0.0153
2844.00,0.0149
2843.00,0.0145
2842.00,0.0141
2841.00,0.0138
2840.00,0.0135
2839.00,0.0131
2838.00,0.0129
2837.00,0.0127
2836.00,0.0124
2835.00,0.0122
2834.00,0.0120
2833.00,0.0118
2832.00,0.0116
2831.00,0.0114
2830.00,0.0112
2829.00,0.0110
2828.00,0.0108
2827.00,0.0106
2826.00,0.0104
2825.00,0.0102
2824.00,0.0100
2823.00,0.0098
2822.00,0.0097
2821.00,0.0095
2820.00,0.0094
2819.00,0.0093
2818.00,0.0092
2817.00,0.0091
2816.00,0.0090
2815.00,0.0089
2814.00,0.0088
2813.00,0.0087
2812.00,0.0087
2811.00,0.0086
2810.00,0.0085
2809.00,0.0085
2808.00,0.0084
2807.00,0.0083
2806.00,0.0083
2805.00,0.0082
2804.00,0.0082
2803.00,0.0082
2802.00,0.0081
2801.00,0.0081
2800.00,0.0080
2799.00,0.0079
2798.00,0.0079
2797.00,0.0079
2796.00,0.0078
2795.00,0.0078
2794.00,0.0078
2793.00,0.0078
2792.00,0.0077
2791.00,0.0077
2790.00,0.0076
2789.00,0.0076
2788.00,0.0076
2787.00,0.0075
2786.00,0.0075
2785.00,0.0075
2784.00,0.0075
2783.00,0.0074
2782.00,0.0074
2781.00,0.0074
2780.00,0.0074
2779.00,0.0074
2778.00,0.0073
2777.00,0.0073
2776.00,0.0073
2775.00,0.0072
2774.00,0.0072
2773.00,0.0072
2772.00,0.0072
2771.00,0.0071
2770.00,0.0071
2769.00,0.0071
2768.00,0.0071
2767.00,0.0071
2766.00,0.0071
2765.00,0.0070
2764.00,0.0070
2763.00,0.0070
2762.00,0.0070
2761.00,0.0070
2760.00,0.0070
2759.00,0.0070
2758.00,0.0070
2757.00,0.0070
2756.00,0.0070
2755.00,0.0069
2754.00,0.0069
2753.00,0.0069
2752.00,0.0069
2751.00,0.0069
2750.00,0.0069
2749.00,0.0069
2748.00,0.0069
2747.00,0.0069
2746.00,0.0069
2745.00,0.0069
2744.00,0.0069
2743.00,0.0069
2742.00,0.0069
2741.00,0.0069
2740.00,0.0069
2739.00,0.0069
2738.00,0.0069
2737.00,0.0070
2736.00,0.0070
2735.00,0.0070
2734.00,0.0070
2733.00,0.0070
2732.00,0.0070
2731.00,0.0070
2730.00,0.0070
2729.00,0.0070
2728.00,0.0070
2727.00,0.0069
2726.00,0.0069
2725.00,0.0069
2724.00,0.0069
2723.00,0.0068
2722.00,0.0068
2721.00,0.0068
2720.00,0.0068
2719.00,0.0068
2718.00,0.0068
2717.00,0.0068
2716.00,0.0068
2715.00,0.0067
2714.00,0.0067
2713.00,0.0067
2712.00,0.0067
2711.00,0.0067
2710.00,0.0067
2709.00,0.0067
2708.00,0.0067
2707.00,0.0067
2706.00,0.0066
2705.00,0.0066
2704.00,0.0066
2703.00,0.0066
2702.00,0.0066
2701.00,0.0066
2700.00,0.0066
2699.00,0.0066
2698.00,0.0066
2697.00,0.0065
2696.00,0.0065
2695.00,0.0065
2694.00,0.0065
2693.00,0.0065
2692.00,0.0065
2691.00,0.0065
2690.00,0.0065
2689.00,0.0065
2688.00,0.0064
2687.00,0.0064
2686.00,0.0064
2685.00,0.0064
2684.00,0.0064
2683.00,0.0064
2682.00,0.0064
2681.00,0.0064
2680.00,0.0064
2679.00,0.0064
2678.00,0.0064
2677.00,0.0064
2676.00,0.0064
2675.00,0.0063
2674.00,0.0063
2673.00,0.0063
2672.00,0.0063
2671.00,0.0064
2670.00,0.0064
2669.00,0.0064
2668.00,0.0064
2667.00,0.0065
2666.00,0.0065
2665.00,0.0066
2664.00,0.0066
2663.00,0.0067
2662.00,0.0067
2661.00,0.0068
2660.00,0.0068
2659.00,0.0069
2658.00,0.0069
2657.00,0.0069
2656.00,0.0069
2655.00,0.0069
2654.00,0.0069
2653.00,0.0069
2652.00,0.0069
2651.00,0.0069
2650.00,0.0069
2649.00,0.0070
2648.00,0.0070
2647.00,0.0070
2646.00,0.0070
2645.00,0.0069
2644.00,0.0069
2643.00,0.0069
2642.00,0.0069
2641.00,0.0069
2640.00,0.0069
2639.00,0.0069
2638.00,0.0068
2637.00,0.0068
2636.00,0.0068
2635.00,0.0068
2634.00,0.0068
2633.00,0.0068
2632.00,0.0068
2631.00,0.0067
2630.00,0.0067
2629.00,0.0067
2628.00,0.0067
2627.00,0.0067
2626.00,0.0067
2625.00,0.0067
2624.00,0.0066
2623.00,0.0066
2622.00,0.0066
2621.00,0.0066
2620.00,0.0066
2619.00,0.0066
2618.00,0.0065
2617.00,0.0065
2616.00,0.0065
2615.00,0.0065
2614.00,0.0065
2613.00,0.0065
2612.00,0.0065
2611.00,0.0065
2610.00,0.0065
2609.00,0.0065
2608.00,0.0065
2607.00,0.0064
2606.00,0.0064
2605.00,0.0064
2604.00,0.0064
2603.00,0.0064
2602.00,0.0064
2601.00,0.0064
2600.00,0.0064
2599.00,0.0064
2598.00,0.0064
2597.00,0.0064
2596.00,0.0064
2595.00,0.0065
2594.00,0.0065
2593.00,0.0065
2592.00,0.0065
2591.00,0.0065
2590.00,0.0065
2589.00,0.0065
2588.00,0.0065
2587.00,0.0065
2586.00,0.0065
2585.00,0.0065
2584.00,0.0064
2583.00,0.0064
2582.00,0.0064
2581.00,0.0064
2580.00,0.0064
2579.00,0.0064
2578.00,0.0064
2577.00,0.0064
2576.00,0.0064
2575.00,0.0064
2574.00,0.0064
2573.00,0.0064
2572.00,0.0064
2571.00,0.0064
2570.00,0.0064
2569.00,0.0064
2568.00,0.0063
2567.00,0.0063
2566.00,0.0063
2565.00,0.0063
2564.00,0.0063
2563.00,0.0063
2562.00,0.0063
2561.00,0.0063
2560.00,0.0062
2559.00,0.0062
2558.00,0.0062
2557.00,0.0062
2556.00,0.0062
2555.00,0.0062
2554.00,0.0062
2553.00,0.0062
2552.00,0.0062
2551.00,0.0062
2550.00,0.0062
2549.00,0.0061
2548.00,0.0061
2547.00,0.0061
2546.00,0.0061
2545.00,0.0061
2544.00,0.0061
2543.00,0.0061
2542.00,0.0060
2541.00,0.0061
2540.00,0.0061
2539.00,0.0061
2538.00,0.0061
2537.00,0.0061
2536.00,0.0060
2535.00,0.0060
2534.00,0.0059
2533.00,0.0059
2532.00,0.0059
2531.00,0.0059
2530.00,0.0060
2529.00,0.0060
2528.00,0.0060
2527.00,0.0060
2526.00,0.0060
2525.00,0.0059
2524.00,0.0059
2523.00,0.0058
2522.00,0.0058
2521.00,0.0058
2520.00,0.0058
2519.00,0.0058
2518.00,0.0058
2517.00,0.0058
2516.00,0.0058
2515.00,0.0058
2514.00,0.0058
2513.00,0.0058
2512.00,0.0058
2511.00,0.0058
2510.00,0.0057
2509.00,0.0057
2508.00,0.0057
2507.00,0.0057
2506.00,0.0057
2505.00,0.0057
2504.00,0.0057
2503.00,0.0057
2502.00,0.0057
2501.00,0.0057
2500.00,0.0057
2499.00,0.0057
2498.00,0.0057
2497.00,0.0058
2496.00,0.0058
2495.00,0.0058
2494.00,0.0058
2493.00,0.0057
2492.00,0.0057
2491.00,0.0057
2490.00,0.0057
2489.00,0.0057
2488.00,0.0057
2487.00,0.0057
2486.00,0.0057
2485.00,0.0057
2484.00,0.0057
2483.00,0.0056
2482.00,0.0056
2481.00,0.0056
2480.00,0.0056
2479.00,0.0056
2478.00,0.0056
2477.00,0.0056
2476.00,0.0056
2475.00,0.0056
2474.00,0.0056
2473.00,0.0056
2472.00,0.0056
2471.00,0.0057
2470.00,0.0057
2469.00,0.0057
2468.00,0.0057
2467.00,0.0057
2466.00,0.0057
2465.00,0.0057
2464.00,0.0057
2463.00,0.0057
2462.00,0.0057
2461.00,0.0057
2460.00,0.0057
2459.00,0.0058
2458.00,0.0058
2457.00,0.0058
2456.00,0.0059
2455.00,0.0058
2454.00,0.0058
2453.00,0.0058
2452.00,0.0058
2451.00,0.0058
2450.00,0.0058
2449.00,0.0058
2448.00,0.0058
2447.00,0.0058
2446.00,0.0058
2445.00,0.0058
2444.00,0.0058
2443.00,0.0058
2442.00,0.0057
2441.00,0.0057
2440.00,0.0057
2439.00,0.0057
2438.00,0.0057
2437.00,0.0057
2436.00,0.0057
2435.00,0.0057
2434.00,0.0057
2433.00,0.0057
2432.00,0.0056
2431.00,0.0056
2430.00,0.0056
2429.00,0.0056
2428.00,0.0056
2427.00,0.0056
2426.00,0.0057
2425.00,0.0057
2424.00,0.0057
2423.00,0.0057
2422.00,0.0056
2421.00,0.0056
2420.00,0.0056
2419.00,0.0056
2418.00,0.0056
2417.00,0.0056
2416.00,0.0057
2415.00,0.0057
2414.00,0.0057
2413.00,0.0057
2412.00,0.0057
2411.00,0.0057
2410.00,0.0057
2409.00,0.0056
2408.00,0.0055
2407.00,0.0055
2406.00,0.0054
2405.00,0.0054
2404.00,0.0054
2403.00,0.0054
2402.00,0.0054
2401.00,0.0054
2400.00,0.0055
2399.00,0.0055
2398.00,0.0055
2397.00,0.0055
2396.00,0.0055
2395.00,0.0055
2394.00,0.0055
2393.00,0.0055
2392.00,0.0055
2391.00,0.0054
2390.00,0.0054
2389.00,0.0054
2388.00,0.0054
2387.00,0.0054
2386.00,0.0054
2385.00,0.0053
2384.00,0.0052
2383.00,0.0051
2382.00,0.0051
2381.00,0.0050
2380.00,0.0050
2379.00,0.0050
2378.00,0.0050
2377.00,0.0050
2376.00,0.0051
2375.00,0.0051
2374.00,0.0051
2373.00,0.0051
2372.00,0.0050
2371.00,0.0050
2370.00,0.0049
2369.00,0.0049
2368.00,0.0049
2367.00,0.0049
2366.00,0.0049
2365.00,0.0049
2364.00,0.0050
2363.00,0.0050
2362.00,0.0050
2361.00,0.0051
2360.00,0.0051
2359.00,0.0051
2358.00,0.0051
2357.00,0.0051
2356.00,0.0051
2355.00,0.0052
2354.00,0.0052
2353.00,0.0051
2352.00,0.0051
2351.00,0.0051
2350.00,0.0051
2349.00,0.0052
2348.00,0.0054
2347.00,0.0055
2346.00,0.0056
2345.00,0.0056
2344.00,0.0056
2343.00,0.0055
2342.00,0.0055
2341.00,0.0055
2340.00,0.0056
2339.00,0.0057
2338.00,0.0057
2337.00,0.0057
2336.00,0.0057
2335.00,0.0057
2334.00,0.0057
2333.00,0.0057
2332.00,0.0057
2331.00,0.0057
2330.00,0.0057
2329.00,0.0059
2328.00,0.0063
2327.00,0.0067
2326.00,0.0070
2325.00,0.0071
2324.00,0.0070
2323.00,0.0068
2322.00,0.0066
2321.00,0.0064
2320.00,0.0063
2319.00,0.0062
2318.00,0.0061
2317.00,0.0061
2316.00,0.0061
2315.00,0.0061
2314.00,0.0061
2313.00,0.0060
2312.00,0.0060
2311.00,0.0059
2310.00,0.0058
2309.00,0.0058
2308.00,0.0058
2307.00,0.0058
2306.00,0.0058
2305.00,0.0058
2304.00,0.0058
2303.00,0.0059
2302.00,0.0059
2301.00,0.0060
2300.00,0.0060
2299.00,0.0061
2298.00,0.0062
2297.00,0.0062
2296.00,0.0062
2295.00,0.0063
2294.00,0.0064
2293.00,0.0065
2292.00,0.0066
2291.00,0.0067
2290.00,0.0068
2289.00,0.0068
2288.00,0.0069
2287.00,0.0069
2286.00,0.0069
2285.00,0.0069
2284.00,0.0069
2283.00,0.0069
2282.00,0.0068
2281.00,0.0068
2280.00,0.0067
2279.00,0.0066
2278.00,0.0065
2277.00,0.0065
2276.00,0.0065
2275.00,0.0065
2274.00,0.0065
2273.00,0.0064
2272.00,0.0064
2271.00,0.0064
2270.00,0.0063
2269.00,0.0063
2268.00,0.0062
2267.00,0.0061
2266.00,0.0061
2265.00,0.0061
2264.00,0.0061
2263.00,0.0062
2262.00,0.0062
2261.00,0.0063
2260.00,0.0064
2259.00,0.0064
2258.00,0.0063
2257.00,0.0061
2256.00,0.0060
2255.00,0.0059
2254.00,0.0059
2253.00,0.0060
2252.00,0.0061
2251.00,0.0062
2250.00,0.0062
2249.00,0.0063
2248.00,0.0063
2247.00,0.0062
2246.00,0.0062
2245.00,0.0061
2244.00,0.0061
2243.00,0.0061
2242.00,0.0061
2241.00,0.0061
2240.00,0.0061
2239.00,0.0061
2238.00,0.0060
2237.00,0.0060
2236.00,0.0060
2235.00,0.0061
2234.00,0.0061
2233.00,0.0062
2232.00,0.0062
2231.00,0.0062
2230.00,0.0061
2229.00,0.0061
2228.00,0.0061
2227.00,0.0061
2226.00,0.0062
2225.00,0.0062
2224.00,0.0063
2223.00,0.0063
2222.00,0.0063
2221.00,0.0062
2220.00,0.0061
2219.00,0.0061
2218.00,0.0060
2217.00,0.0061
2216.00,0.0061
2215.00,0.0062
2214.00,0.0062
2213.00,0.0062
2212.00,0.0062
2211.00,0.0062
2210.00,0.0061
2209.00,0.0061
2208.00,0.0060
2207.00,0.0061
2206.00,0.0061
2205.00,0.0061
2204.00,0.0061
2203.00,0.0061
2202.00,0.0062
2201.00,0.0063
2200.00,0.0064
2199.00,0.0064
2198.00,0.0064
2197.00,0.0064
2196.00,0.0064
2195.00,0.0064
2194.00,0.0065
2193.00,0.0065
2192.00,0.0065
2191.00,0.0065
2190.00,0.0065
2189.00,0.0065
2188.00,0.0067
2187.00,0.0068
2186.00,0.0068
2185.00,0.0066
2184.00,0.0064
2183.00,0.0061
2182.00,0.0058
2181.00,0.0058
2180.00,0.0059
2179.00,0.0060
2178.00,0.0060
2177.00,0.0058
2176.00,0.0056
2175.00,0.0056
2174.00,0.0058
2173.00,0.0061
2172.00,0.0064
2171.00,0.0067
2170.00,0.0070
2169.00,0.0072
2168.00,0.0073
2167.00,0.0075
2166.00,0.0075
2165.00,0.0076
2164.00,0.0078
2163.00,0.0077
2162.00,0.0071
2161.00,0.0060
2160.00,0.0045
2159.00,0.0033
2158.00,0.0027
2157.00,0.0027
2156.00,0.0031
2155.00,0.0035
2154.00,0.0038
2153.00,0.0041
2152.00,0.0043
2151.00,0.0043
2150.00,0.0042
2149.00,0.0042
2148.00,0.0042
2147.00,0.0043
2146.00,0.0043
2145.00,0.0042
2144.00,0.0042
2143.00,0.0042
2142.00,0.0043
2141.00,0.0044
2140.00,0.0045
2139.00,0.0045
2138.00,0.0044
2137.00,0.0042
2136.00,0.0039
2135.00,0.0038
2134.00,0.0037
2133.00,0.0039
2132.00,0.0042
2131.00,0.0044
2130.00,0.0046
2129.00,0.0048
2128.00,0.0050
2127.00,0.0051
2126.00,0.0053
2125.00,0.0054
2124.00,0.0055
2123.00,0.0056
2122.00,0.0056
2121.00,0.0057
2120.00,0.0058
2119.00,0.0060
2118.00,0.0061
2117.00,0.0061
2116.00,0.0062
2115.00,0.0063
2114.00,0.0063
2113.00,0.0064
2112.00,0.0064
2111.00,0.0062
2110.00,0.0061
2109.00,0.0060
2108.00,0.0060
2107.00,0.0060
2106.00,0.0060
2105.00,0.0060
2104.00,0.0061
2103.00,0.0061
2102.00,0.0060
2101.00,0.0060
2100.00,0.0060
2099.00,0.0060
2098.00,0.0058
2097.00,0.0057
2096.00,0.0055
2095.00,0.0054
2094.00,0.0054
2093.00,0.0054
2092.00,0.0056
2091.00,0.0058
2090.00,0.0059
2089.00,0.0060
2088.00,0.0061
2087.00,0.0061
2086.00,0.0062
2085.00,0.0062
2084.00,0.0063
2083.00,0.0063
2082.00,0.0062
2081.00,0.0062
2080.00,0.0062
2079.00,0.0062
2078.00,0.0062
2077.00,0.0063
2076.00,0.0063
2075.00,0.0063
2074.00,0.0062
2073.00,0.0061
2072.00,0.0060
2071.00,0.0059
2070.00,0.0058
2069.00,0.0057
2068.00,0.0057
2067.00,0.0056
2066.00,0.0056
2065.00,0.0056
2064.00,0.0056
2063.00,0.0057
2062.00,0.0057
2061.00,0.0056
2060.00,0.0057
2059.00,0.0057
2058.00,0.0057
2057.00,0.0057
2056.00,0.0057
2055.00,0.0058
2054.00,0.0061
2053.00,0.0065
2052.00,0.0069
2051.00,0.0069
2050.00,0.0065
2049.00,0.0061
2048.00,0.0058
2047.00,0.0055
2046.00,0.0054
2045.00,0.0053
2044.00,0.0054
2043.00,0.0055
2042.00,0.0056
2041.00,0.0056
2040.00,0.0055
2039.00,0.0055
2038.00,0.0055
2037.00,0.0055
2036.00,0.0054
2035.00,0.0053
2034.00,0.0050
2033.00,0.0048
2032.00,0.0048
2031.00,0.0048
2030.00,0.0049
2029.00,0.0049
2028.00,0.0049
2027.00,0.0048
2026.00,0.0047
2025.00,0.0046
2024.00,0.0047
2023.00,0.0048
2022.00,0.0049
2021.00,0.0049
2020.00,0.0049
2019.00,0.0048
2018.00,0.0046
2017.00,0.0044
2016.00,0.0043
2015.00,0.0043
2014.00,0.0043
2013.00,0.0043
2012.00,0.0044
2011.00,0.0044
2010.00,0.0043
2009.00,0.0041
2008.00,0.0039
2007.00,0.0037
2006.00,0.0036
2005.00,0.0037
2004.00,0.0039
2003.00,0.0042
2002.00,0.0045
2001.00,0.0046
2000.00,0.0047
1999.00,0.0048
1998.00,0.0048
1997.00,0.0048
1996.00,0.0050
1995.00,0.0051
1994.00,0.0051
1993.00,0.0052
1992.00,0.0053
1991.00,0.0054
1990.00,0.0054
1989.00,0.0053
1988.00,0.0053
1987.00,0.0052
1986.00,0.0052
1985.00,0.0053
1984.00,0.0055
1983.00,0.0059
1982.00,0.0062
1981.00,0.0063
1980.00,0.0060
1979.00,0.0054
1978.00,0.0046
1977.00,0.0041
1976.00,0.0040
1975.00,0.0040
1974.00,0.0040
1973.00,0.0040
1972.00,0.0040
1971.00,0.0040
1970.00,0.0040
1969.00,0.0041
1968.00,0.0043
1967.00,0.0043
1966.00,0.0042
1965.00,0.0041
1964.00,0.0040
1963.00,0.0039
1962.00,0.0036
1961.00,0.0034
1960.00,0.0034
1959.00,0.0034
1958.00,0.0035
1957.00,0.0037
1956.00,0.0040
1955.00,0.0041
1954.00,0.0042
1953.00,0.0042
1952.00,0.0043
1951.00,0.0044
1950.00,0.0043
1949.00,0.0043
1948.00,0.0043
1947.00,0.0043
1946.00,0.0042
1945.00,0.0041
1944.00,0.0042
1943.00,0.0042
1942.00,0.0042
1941.00,0.0041
1940.00,0.0041
1939.00,0.0042
1938.00,0.0042
1937.00,0.0042
1936.00,0.0043
1935.00,0.0043
1934.00,0.0042
1933.00,0.0041
1932.00,0.0042
1931.00,0.0042
1930.00,0.0043
1929.00,0.0043
1928.00,0.0044
1927.00,0.0043
1926.00,0.0042
1925.00,0.0042
1924.00,0.0043
1923.00,0.0044
1922.00,0.0044
1921.00,0.0045
1920.00,0.0046
1919.00,0.0047
1918.00,0.0047
1917.00,0.0046
1916.00,0.0047
1915.00,0.0047
1914.00,0.0047
1913.00,0.0047
1912.00,0.0048
1911.00,0.0048
1910.00,0.0048
1909.00,0.0048
1908.00,0.0048
1907.00,0.0047
1906.00,0.0047
1905.00,0.0047
1904.00,0.0048
1903.00,0.0048
1902.00,0.0047
1901.00,0.0047
1900.00,0.0047
1899.00,0.0047
1898.00,0.0047
1897.00,0.0047
1896.00,0.0047
1895.00,0.0048
1894.00,0.0047
1893.00,0.0047
1892.00,0.0047
1891.00,0.0047
1890.00,0.0047
1889.00,0.0046
1888.00,0.0046
1887.00,0.0046
1886.00,0.0046
1885.00,0.0046
1884.00,0.0046
1883.00,0.0046
1882.00,0.0046
1881.00,0.0046
1880.00,0.0046
1879.00,0.0046
1878.00,0.0046
1877.00,0.0046
1876.00,0.0046
1875.00,0.0046
1874.00,0.0046
1873.00,0.0046
1872.00,0.0047
1871.00,0.0047
1870.00,0.0047
1869.00,0.0048
1868.00,0.0047
1867.00,0.0047
1866.00,0.0046
1865.00,0.0046
1864.00,0.0046
1863.00,0.0047
1862.00,0.0047
1861.00,0.0047
1860.00,0.0047
1859.00,0.0047
1858.00,0.0047
1857.00,0.0047
1856.00,0.0047
1855.00,0.0047
1854.00,0.0047
1853.00,0.0047
1852.00,0.0047
1851.00,0.0047
1850.00,0.0047
1849.00,0.0047
1848.00,0.0047
1847.00,0.0047
1846.00,0.0047
1845.00,0.0047
1844.00,0.0047
1843.00,0.0048
1842.00,0.0048
1841.00,0.0048
1840.00,0.0048
1839.00,0.0048
1838.00,0.0048
1837.00,0.0048
1836.00,0.0048
1835.00,0.0048
1834.00,0.0048
1833.00,0.0047
1832.00,0.0047
1831.00,0.0048
1830.00,0.0047
1829.00,0.0047
1828.00,0.0047
1827.00,0.0048
1826.00,0.0048
1825.00,0.0048
1824.00,0.0048
1823.00,0.0048
1822.00,0.0048
1821.00,0.0047
1820.00,0.0046
1819.00,0.0045
1818.00,0.0043
1817.00,0.0043
1816.00,0.0044
1815.00,0.0045
1814.00,0.0045
1813.00,0.0046
1812.00,0.0047
1811.00,0.0048
1810.00,0.0047
1809.00,0.0047
1808.00,0.0047
1807.00,0.0047
1806.00,0.0047
1805.00,0.0047
1804.00,0.0047
1803.00,0.0047
1802.00,0.0047
1801.00,0.0048
1800.00,0.0048
1799.00,0.0049
1798.00,0.0049
1797.00,0.0049
1796.00,0.0049
1795.00,0.0049
1794.00,0.0048
1793.00,0.0047
1792.00,0.0048
1791.00,0.0048
1790.00,0.0048
1789.00,0.0049
1788.00,0.0049
1787.00,0.0049
1786.00,0.0049
1785.00,0.0049
1784.00,0.0049
1783.00,0.0050
1782.00,0.0050
1781.00,0.0051
1780.00,0.0051
1779.00,0.0051
1778.00,0.0051
1777.00,0.0051
1776.00,0.0051
1775.00,0.0051
1774.00,0.0052
1773.00,0.0052
1772.00,0.0052
1771.00,0.0052
1770.00,0.0052
1769.00,0.0053
1768.00,0.0054
1767.00,0.0054
1766.00,0.0054
1765.00,0.0054
1764.00,0.0054
1763.00,0.0055
1762.00,0.0055
1761.00,0.0055
1760.00,0.0055
1759.00,0.0056
1758.00,0.0056
1757.00,0.0056
1756.00,0.0056
1755.00,0.0057
1754.00,0.0057
1753.00,0.0057
1752.00,0.0058
1751.00,0.0060
1750.00,0.0060
1749.00,0.0061
1748.00,0.0063
1747.00,0.0063
1746.00,0.0064
1745.00,0.0064
1744.00,0.0065
1743.00,0.0066
1742.00,0.0065
1741.00,0.0065
1740.00,0.0066
1739.00,0.0067
1738.00,0.0067
1737.00,0.0068
1736.00,0.0068
1735.00,0.0070
1734.00,0.0071
1733.00,0.0073
1732.00,0.0076
1731.00,0.0078
1730.00,0.0079
1729.00,0.0081
1728.00,0.0082
1727.00,0.0084
1726.00,0.0085
1725.00,0.0087
1724.00,0.0090
1723.00,0.0092
1722.00,0.0093
1721.00,0.0095
1720.00,0.0097
1719.00,0.0101
1718.00,0.0105
1717.00,0.0109
1716.00,0.0114
1715.00,0.0119
1714.00,0.0123
1713.00,0.0129
1712.00,0.0136
1711.00,0.0143
1710.00,0.0149
1709.00,0.0157
1708.00,0.0166
1707.00,0.0176
1706.00,0.0188
1705.00,0.0201
1704.00,0.0213
1703.00,0.0223
1702.00,0.0235
1701.00,0.0254
1700.00,0.0282
1699.00,0.0308
1698.00,0.0331
1697.00,0.0356
1696.00,0.0386
1695.00,0.0420
1694.00,0.0451
1693.00,0.0480
1692.00,0.0510
1691.00,0.0543
1690.00,0.0579
1689.00,0.0614
1688.00,0.0648
1687.00,0.0678
1686.00,0.0710
1685.00,0.0752
1684.00,0.0803
1683.00,0.0849
1682.00,0.0885
1681.00,0.0918
1680.00,0.0952
1679.00,0.0983
1678.00,0.1012
1677.00,0.1041
1676.00,0.1075
1675.00,0.1112
1674.00,0.1146
1673.00,0.1175
1672.00,0.1201
1671.00,0.1228
1670.00,0.1256
1669.00,0.1286
1668.00,0.1315
1667.00,0.1340
1666.00,0.1360
1665.00,0.1380
1664.00,0.1402
1663.00,0.1426
1662.00,0.1450
1661.00,0.1472
1660.00,0.1492
1659.00,0.1510
1658.00,0.1524
1657.00,0.1535
1656.00,0.1543
1655.00,0.1550
1654.00,0.1559
1653.00,0.1571
1652.00,0.1582
1651.00,0.1587
1650.00,0.1585
1649.00,0.1578
1648.00,0.1568
1647.00,0.1554
1646.00,0.1536
1645.00,0.1517
1644.00,0.1496
1643.00,0.1473
1642.00,0.1446
1641.00,0.1415
1640.00,0.1383
1639.00,0.1350
1638.00,0.1314
1637.00,0.1275
1636.00,0.1230
1635.00,0.1186
1634.00,0.1148
1633.00,0.1115
1632.00,0.1084
1631.00,0.1053
1630.00,0.1022
1629.00,0.0992
1628.00,0.0964
1627.00,0.0939
1626.00,0.0915
1625.00,0.0892
1624.00,0.0869
1623.00,0.0844
1622.00,0.0819
1621.00,0.0796
1620.00,0.0773
1619.00,0.0748
1618.00,0.0721
1617.00,0.0692
1616.00,0.0663
1615.00,0.0639
1614.00,0.0621
1613.00,0.0604
1612.00,0.0587
1611.00,0.0571
1610.00,0.0554
1609.00,0.0537
1608.00,0.0518
1607.00,0.0499
1606.00,0.0480
1605.00,0.0462
1604.00,0.0445
1603.00,0.0429
1602.00,0.0414
1601.00,0.0400
1600.00,0.0387
1599.00,0.0375
1598.00,0.0365
1597.00,0.0355
1596.00,0.0346
1595.00,0.0339
1594.00,0.0332
1593.00,0.0327
1592.00,0.0323
1591.00,0.0321
1590.00,0.0319
1589.00,0.0318
1588.00,0.0318
1587.00,0.0317
1586.00,0.0315
1585.00,0.0313
1584.00,0.0309
1583.00,0.0304
1582.00,0.0298
1581.00,0.0291
1580.00,0.0284
1579.00,0.0278
1578.00,0.0271
1577.00,0.0263
1576.00,0.0254
1575.00,0.0246
1574.00,0.0240
1573.00,0.0236
1572.00,0.0231
1571.00,0.0227
1570.00,0.0223
1569.00,0.0218
1568.00,0.0215
1567.00,0.0212
1566.00,0.0208
1565.00,0.0204
1564.00,0.0199
1563.00,0.0194
1562.00,0.0188
1561.00,0.0182
1560.00,0.0178
1559.00,0.0175
1558.00,0.0171
1557.00,0.0169
1556.00,0.0170
1555.00,0.0169
1554.00,0.0168
1553.00,0.0167
1552.00,0.0166
1551.00,0.0165
1550.00,0.0164
1549.00,0.0162
1548.00,0.0160
1547.00,0.0158
1546.00,0.0157
1545.00,0.0155
1544.00,0.0153
1543.00,0.0150
1542.00,0.0149
1541.00,0.0148
1540.00,0.0148
1539.00,0.0146
1538.00,0.0146
1537.00,0.0146
1536.00,0.0146
1535.00,0.0145
1534.00,0.0145
1533.00,0.0144
1532.00,0.0144
1531.00,0.0143
1530.00,0.0143
1529.00,0.0143
1528.00,0.0143
1527.00,0.0142
1526.00,0.0142
1525.00,0.0141
1524.00,0.0141
1523.00,0.0141
1522.00,0.0142
1521.00,0.0142
1520.00,0.0143
1519.00,0.0144
1518.00,0.0146
1517.00,0.0148
1516.00,0.0150
1515.00,0.0152
1514.00,0.0155
1513.00,0.0157
1512.00,0.0161
1511.00,0.0165
1510.00,0.0169
1509.00,0.0175
1508.00,0.0182
1507.00,0.0192
1506.00,0.0202
1505.00,0.0215
1504.00,0.0229
1503.00,0.0244
1502.00,0.0259
1501.00,0.0276
1500.00,0.0295
1499.00,0.0315
1498.00,0.0336
1497.00,0.0357
1496.00,0.0373
1495.00,0.0383
1494.00,0.0387
1493.00,0.0387
1492.00,0.0381
1491.00,0.0372
1490.00,0.0359
1489.00,0.0342
1488.00,0.0324
1487.00,0.0305
1486.00,0.0287
1485.00,0.0272
1484.00,0.0258
1483.00,0.0246
1482.00,0.0236
1481.00,0.0229
1480.00,0.0224
1479.00,0.0221
1478.00,0.0222
1477.00,0.0225
1476.00,0.0232
1475.00,0.0241
1474.00,0.0255
1473.00,0.0276
1472.00,0.0304
1471.00,0.0335
1470.00,0.0368
1469.00,0.0403
1468.00,0.0441
1467.00,0.0481
1466.00,0.0523
1465.00,0.0567
1464.00,0.0605
1463.00,0.0633
1462.00,0.0651
1461.00,0.0659
1460.00,0.0659
1459.00,0.0649
1458.00,0.0628
1457.00,0.0597
1456.00,0.0564
1455.00,0.0538
1454.00,0.0518
1453.00,0.0503
1452.00,0.0492
1451.00,0.0487
1450.00,0.0488
1449.00,0.0497
1448.00,0.0513
1447.00,0.0535
1446.00,0.0560
1445.00,0.0589
1444.00,0.0620
1443.00,0.0653
1442.00,0.0686
1441.00,0.0716
1440.00,0.0743
1439.00,0.0766
1438.00,0.0786
1437.00,0.0806
1436.00,0.0825
1435.00,0.0837
1434.00,0.0845
1433.00,0.0851
1432.00,0.0857
1431.00,0.0864
1430.00,0.0875
1429.00,0.0892
1428.00,0.0914
1427.00,0.0939
1426.00,0.0967
1425.00,0.0995
1424.00,0.1022
1423.00,0.1039
1422.00,0.1047
1421.00,0.1043
1420.00,0.1025
1419.00,0.0991
1418.00,0.0947
1417.00,0.0898
1416.00,0.0845
1415.00,0.0789
1414.00,0.0733
1413.00,0.0679
1412.00,0.0629
1411.00,0.0583
1410.00,0.0543
1409.00,0.0510
1408.00,0.0482
1407.00,0.0458
1406.00,0.0439
1405.00,0.0422
1404.00,0.0408
1403.00,0.0396
1402.00,0.0386
1401.00,0.0378
1400.00,0.0368
1399.00,0.0359
1398.00,0.0349
1397.00,0.0341
1396.00,0.0332
1395.00,0.0323
1394.00,0.0316
1393.00,0.0311
1392.00,0.0308
1391.00,0.0307
1390.00,0.0309
1389.00,0.0313
1388.00,0.0320
1387.00,0.0328
1386.00,0.0336
1385.00,0.0343
1384.00,0.0349
1383.00,0.0356
1382.00,0.0364
1381.00,0.0374
1380.00,0.0383
1379.00,0.0392
1378.00,0.0400
1377.00,0.0407
1376.00,0.0412
1375.00,0.0415
1374.00,0.0415
1373.00,0.0414
1372.00,0.0412
1371.00,0.0409
1370.00,0.0406
1369.00,0.0403
1368.00,0.0399
1367.00,0.0394
1366.00,0.0389
1365.00,0.0382
1364.00,0.0373
1363.00,0.0364
1362.00,0.0355
1361.00,0.0347
1360.00,0.0339
1359.00,0.0330
1358.00,0.0320
1357.00,0.0309
1356.00,0.0299
1355.00,0.0291
1354.00,0.0283
1353.00,0.0278
1352.00,0.0273
1351.00,0.0269
1350.00,0.0266
1349.00,0.0263
1348.00,0.0261
1347.00,0.0259
1346.00,0.0257
1345.00,0.0255
1344.00,0.0253
1343.00,0.0251
1342.00,0.0249
1341.00,0.0248
1340.00,0.0248
1339.00,0.0247
1338.00,0.0247
1337.00,0.0248
1336.00,0.0251
1335.00,0.0254
1334.00,0.0259
1333.00,0.0265
1332.00,0.0272
1331.00,0.0280
1330.00,0.0290
1329.00,0.0300
1328.00,0.0311
1327.00,0.0322
1326.00,0.0335
1325.00,0.0349
1324.00,0.0364
1323.00,0.0379
1322.00,0.0393
1321.00,0.0407
1320.00,0.0419
1319.00,0.0428
1318.00,0.0435
1317.00,0.0439
1316.00,0.0440
1315.00,0.0437
1314.00,0.0432
1313.00,0.0425
1312.00,0.0417
1311.00,0.0410
1310.00,0.0404
1309.00,0.0399
1308.00,0.0397
1307.00,0.0397
1306.00,0.0401
1305.00,0.0410
1304.00,0.0422
1303.00,0.0438
1302.00,0.0459
1301.00,0.0484
1300.00,0.0513
1299.00,0.0548
1298.00,0.0589
1297.00,0.0636
1296.00,0.0688
1295.00,0.0745
1294.00,0.0805
1293.00,0.0864
1292.00,0.0921
1291.00,0.0975
1290.00,0.1023
1289.00,0.1064
1288.00,0.1097
1287.00,0.1122
1286.00,0.1136
1285.00,0.1141
1284.00,0.1136
1283.00,0.1125
1282.00,0.1108
1281.00,0.1089
1280.00,0.1072
1279.00,0.1058
1278.00,0.1050
1277.00,0.1048
1276.00,0.1050
1275.00,0.1055
1274.00,0.1061
1273.00,0.1067
1272.00,0.1069
1271.00,0.1066
1270.00,0.1058
1269.00,0.1045
1268.00,0.1025
1267.00,0.1000
1266.00,0.0971
1265.00,0.0939
1264.00,0.0904
1263.00,0.0869
1262.00,0.0833
1261.00,0.0799
1260.00,0.0766
1259.00,0.0735
1258.00,0.0706
1257.00,0.0679
1256.00,0.0655
1255.00,0.0632
1254.00,0.0612
1253.00,0.0594
1252.00,0.0579
1251.00,0.0566
1250.00,0.0555
1249.00,0.0546
1248.00,0.0539
1247.00,0.0534
1246.00,0.0530
1245.00,0.0528
1244.00,0.0527
1243.00,0.0527
1242.00,0.0528
1241.00,0.0530
1240.00,0.0534
1239.00,0.0539
1238.00,0.0546
1237.00,0.0554
1236.00,0.0563
1235.00,0.0571
1234.00,0.0579
1233.00,0.0585
1232.00,0.0588
1231.00,0.0590
1230.00,0.0590
1229.00,0.0588
1228.00,0.0585
1227.00,0.0582
1226.00,0.0577
1225.00,0.0573
1224.00,0.0569
1223.00,0.0565
1222.00,0.0561
1221.00,0.0558
1220.00,0.0555
1219.00,0.0552
1218.00,0.0549
1217.00,0.0546
1216.00,0.0542
1215.00,0.0537
1214.00,0.0530
1213.00,0.0522
1212.00,0.0512
1211.00,0.0502
1210.00,0.0491
1209.00,0.0481
1208.00,0.0471
1207.00,0.0462
1206.00,0.0454
1205.00,0.0447
1204.00,0.0441
1203.00,0.0437
1202.00,0.0434
1201.00,0.0432
1200.00,0.0431
1199.00,0.0430
1198.00,0.0431
1197.00,0.0431
1196.00,0.0430
1195.00,0.0429
1194.00,0.0426
1193.00,0.0421
1192.00,0.0415
1191.00,0.0408
1190.00,0.0401
1189.00,0.0394
1188.00,0.0388
1187.00,0.0382
1186.00,0.0377
1185.00,0.0373
1184.00,0.0371
1183.00,0.0369
1182.00,0.0368
1181.00,0.0368
1180.00,0.0369
1179.00,0.0371
1178.00,0.0374
1177.00,0.0378
1176.00,0.0382
1175.00,0.0386
1174.00,0.0391
1173.00,0.0396
1172.00,0.0400
1171.00,0.0403
1170.00,0.0406
1169.00,0.0407
1168.00,0.0407
1167.00,0.0406
1166.00,0.0404
1165.00,0.0400
1164.00,0.0396
1163.00,0.0391
1162.00,0.0387
1161.00,0.0383
1160.00,0.0381
1159.00,0.0380
1158.00,0.0380
1157.00,0.0381
1156.00,0.0382
1155.00,0.0381
1154.00,0.0376
1153.00,0.0368
1152.00,0.0356
1151.00,0.0343
1150.00,0.0330
1149.00,0.0319
1148.00,0.0309
1147.00,0.0300
1146.00,0.0294
1145.00,0.0288
1144.00,0.0283
1143.00,0.0278
1142.00,0.0274
1141.00,0.0270
1140.00,0.0266
1139.00,0.0263
1138.00,0.0261
1137.00,0.0261
1136.00,0.0263
1135.00,0.0266
1134.00,0.0272
1133.00,0.0280
1132.00,0.0290
1131.00,0.0301
1130.00,0.0310
1129.00,0.0316
1128.00,0.0319
1127.00,0.0319
1126.00,0.0316
1125.00,0.0312
1124.00,0.0306
1123.00,0.0300
1122.00,0.0294
1121.00,0.0289
1120.00,0.0285
1119.00,0.0282
1118.00,0.0280
1117.00,0.0279
1116.00,0.0279
1115.00,0.0279
1114.00,0.0279
1113.00,0.0279
1112.00,0.0278
1111.00,0.0278
1110.00,0.0277
1109.00,0.0277
1108.00,0.0277
1107.00,0.0278
1106.00,0.0279
1105.00,0.0281
1104.00,0.0284
1103.00,0.0289
1102.00,0.0294
1101.00,0.0299
1100.00,0.0303
1099.00,0.0304
1098.00,0.0303
1097.00,0.0300
1096.00,0.0296
1095.00,0.0291
1094.00,0.0287
1093.00,0.0283
1092.00,0.0280
1091.00,0.0277
1090.00,0.0276
1089.00,0.0275
1088.00,0.0275
1087.00,0.0275
1086.00,0.0276
1085.00,0.0276
1084.00,0.0277
1083.00,0.0278
1082.00,0.0280
1081.00,0.0283
1080.00,0.0286
1079.00,0.0289
1078.00,0.0293
1077.00,0.0297
1076.00,0.0300
1075.00,0.0302
1074.00,0.0304
1073.00,0.0305
1072.00,0.0305
1071.00,0.0305
1070.00,0.0305
1069.00,0.0305
1068.00,0.0304
1067.00,0.0304
1066.00,0.0304
1065.00,0.0305
1064.00,0.0307
1063.00,0.0309
1062.00,0.0312
1061.00,0.0316
1060.00,0.0322
1059.00,0.0329
1058.00,0.0338
1057.00,0.0347
1056.00,0.0356
1055.00,0.0363
1054.00,0.0367
1053.00,0.0370
1052.00,0.0370
1051.00,0.0370
1050.00,0.0368
1049.00,0.0365
1048.00,0.0360
1047.00,0.0353
1046.00,0.0345
1045.00,0.0336
1044.00,0.0327
1043.00,0.0318
1042.00,0.0310
1041.00,0.0303
1040.00,0.0298
1039.00,0.0294
1038.00,0.0293
1037.00,0.0293
1036.00,0.0294
1035.00,0.0296
1034.00,0.0299
1033.00,0.0302
1032.00,0.0307
1031.00,0.0315
1030.00,0.0325
1029.00,0.0337
1028.00,0.0347
1027.00,0.0356
1026.00,0.0360
1025.00,0.0361
1024.00,0.0359
1023.00,0.0355
1022.00,0.0351
1021.00,0.0348
1020.00,0.0346
1019.00,0.0343
1018.00,0.0340
1017.00,0.0335
1016.00,0.0329
1015.00,0.0322
1014.00,0.0313
1013.00,0.0305
1012.00,0.0297
1011.00,0.0290
1010.00,0.0286
1009.00,0.0284
1008.00,0.0286
1007.00,0.0290
1006.00,0.0296
1005.00,0.0303
1004.00,0.0309
1003.00,0.0314
1002.00,0.0316
1001.00,0.0315
1000.00,0.0312
999.00,0.0308
998.00,0.0304
997.00,0.0298
996.00,0.0293
995.00,0.0288
994.00,0.0283
993.00,0.0277
992.00,0.0272
991.00,0.0266
990.00,0.0261
989.00,0.0256
988.00,0.0252
987.00,0.0248
986.00,0.0245
985.00,0.0242
984.00,0.0239
983.00,0.0236
982.00,0.0234
981.00,0.0232
980.00,0.0229
979.00,0.0227
978.00,0.0224
977.00,0.0222
976.00,0.0220
975.00,0.0219
974.00,0.0217
973.00,0.0215
972.00,0.0213
971.00,0.0212
970.00,0.0211
969.00,0.0210
968.00,0.0208
967.00,0.0207
966.00,0.0206
965.00,0.0205
964.00,0.0204
963.00,0.0203
962.00,0.0202
961.00,0.0201
960.00,0.0199
959.00,0.0196
958.00,0.0194
957.00,0.0192
956.00,0.0191
955.00,0.0190
954.00,0.0189
953.00,0.0188
952.00,0.0187
951.00,0.0187
950.00,0.0188
949.00,0.0189
948.00,0.0190
947.00,0.0190
946.00,0.0191
945.00,0.0192
944.00,0.0194
943.00,0.0197
942.00,0.0202
941.00,0.0206
940.00,0.0212
939.00,0.0219
938.00,0.0226
937.00,0.0233
936.00,0.0240
935.00,0.0245
934.00,0.0249
933.00,0.0250
932.00,0.0249
931.00,0.0245
930.00,0.0240
929.00,0.0236
928.00,0.0232
927.00,0.0230
926.00,0.0228
925.00,0.0227
924.00,0.0226
923.00,0.0225
922.00,0.0223
921.00,0.0221
920.00,0.0219
919.00,0.0215
918.00,0.0212
917.00,0.0209
916.00,0.0207
915.00,0.0205
914.00,0.0203
913.00,0.0201
912.00,0.0200
911.00,0.0200
910.00,0.0200
909.00,0.0201
908.00,0.0202
907.00,0.0204
906.00,0.0207
905.00,0.0210
904.00,0.0214
903.00,0.0219
902.00,0.0225
901.00,0.0231
900.00,0.0237
899.00,0.0241
898.00,0.0244
897.00,0.0244
896.00,0.0244
895.00,0.0242
894.00,0.0241
893.00,0.0240
892.00,0.0239
891.00,0.0239
890.00,0.0238
889.00,0.0235
888.00,0.0231
887.00,0.0225
886.00,0.0221
885.00,0.0217
884.00,0.0215
883.00,0.0213
882.00,0.0212
881.00,0.0211
880.00,0.0211
879.00,0.0212
878.00,0.0215
877.00,0.0219
876.00,0.0224
875.00,0.0229
874.00,0.0236
873.00,0.0243
872.00,0.0250
871.00,0.0256
870.00,0.0261
869.00,0.0263
868.00,0.0262
867.00,0.0260
866.00,0.0259
865.00,0.0257
864.00,0.0257
863.00,0.0257
862.00,0.0258
861.00,0.0260
860.00,0.0263
859.00,0.0268
858.00,0.0275
857.00,0.0283
856.00,0.0294
855.00,0.0305
854.00,0.0317
853.00,0.0329
852.00,0.0340
851.00,0.0352
850.00,0.0362
849.00,0.0371
848.00,0.0376
847.00,0.0378
846.00,0.0379
845.00,0.0377
844.00,0.0374
843.00,0.0371
842.00,0.0367
841.00,0.0364
840.00,0.0361
839.00,0.0358
838.00,0.0356
837.00,0.0355
836.00,0.0354
835.00,0.0352
834.00,0.0350
833.00,0.0345
832.00,0.0339
831.00,0.0331
830.00,0.0322
829.00,0.0312
828.00,0.0301
827.00,0.0292
826.00,0.0285
825.00,0.0281
824.00,0.0279
823.00,0.0282
822.00,0.0288
821.00,0.0295
820.00,0.0299
819.00,0.0301
818.00,0.0302
817.00,0.0303
816.00,0.0304
815.00,0.0300
814.00,0.0291
813.00,0.0278
812.00,0.0266
811.00,0.0256
810.00,0.0250
809.00,0.0246
808.00,0.0243
807.00,0.0240
806.00,0.0238
805.00,0.0236
804.00,0.0235
803.00,0.0234
802.00,0.0234
801.00,0.0234
800.00,0.0234
799.00,0.0234
798.00,0.0235
797.00,0.0236
796.00,0.0236
795.00,0.0237
794.00,0.0238
793.00,0.0240
792.00,0.0241
791.00,0.0243
790.00,0.0244
789.00,0.0245
788.00,0.0246
787.00,0.0247
786.00,0.0248
785.00,0.0249
784.00,0.0251
783.00,0.0252
782.00,0.0254
781.00,0.0255
780.00,0.0257
779.00,0.0258
778.00,0.0261
777.00,0.0264
776.00,0.0268
775.00,0.0271
774.00,0.0274
773.00,0.0276
772.00,0.0277
771.00,0.0278
770.00,0.0280
769.00,0.0282
768.00,0.0286
767.00,0.0290
766.00,0.0294
765.00,0.0298
764.00,0.0303
763.00,0.0307
762.00,0.0313
761.00,0.0319
760.00,0.0324
759.00,0.0330
758.00,0.0336
757.00,0.0342
756.00,0.0347
755.00,0.0352
754.00,0.0357
753.00,0.0363
752.00,0.0369
751.00,0.0375
750.00,0.0381
749.00,0.0387
748.00,0.0392
747.00,0.0398
746.00,0.0404
745.00,0.0410
744.00,0.0416
743.00,0.0423
742.00,0.0430
741.00,0.0437
740.00,0.0446
739.00,0.0454
738.00,0.0463
737.00,0.0473
736.00,0.0481
735.00,0.0487
734.00,0.0490
733.00,0.0489
732.00,0.0486
731.00,0.0481
730.00,0.0475
729.00,0.0470
728.00,0.0463
727.00,0.0456
726.00,0.0448
725.00,0.0439
724.00,0.0431
723.00,0.0424
722.00,0.0418
721.00,0.0413
720.00,0.0410
719.00,0.0408
718.00,0.0407
717.00,0.0408
716.00,0.0408
715.00,0.0408
714.00,0.0407
713.00,0.0407
712.00,0.0406
711.00,0.0407
710.00,0.0407
709.00,0.0408
708.00,0.0408
707.00,0.0409
706.00,0.0410
705.00,0.0411
704.00,0.0413
703.00,0.0416
702.00,0.0419
701.00,0.0422
700.00,0.0425
699.00,0.0428
698.00,0.0432
697.00,0.0436
696.00,0.0439
695.00,0.0441
694.00,0.0444
693.00,0.0447
692.00,0.0451
691.00,0.0455
690.00,0.0460
689.00,0.0465
688.00,0.0470
687.00,0.0475
686.00,0.0479
685.00,0.0484
684.00,0.0489
683.00,0.0493
682.00,0.0498
681.00,0.0503
680.00,0.0507
679.00,0.0512
678.00,0.0517
677.00,0.0523
676.00,0.0530
675.00,0.0537
674.00,0.0544
673.00,0.0551
672.00,0.0558
671.00,0.0564
670.00,0.0571
669.00,0.0580
668.00,0.0591
667.00,0.0601
666.00,0.0607
665.00,0.0613
664.00,0.0620
663.00,0.0630
662.00,0.0640
661.00,0.0651
660.00,0.0662
659.00,0.0673
658.00,0.0683
657.00,0.0693
656.00,0.0703
655.00,0.0713
654.00,0.0723
653.00,0.0734
652.00,0.0743
651.00,0.0751
650.00,0.0757
649.00,0.0762
648.00,0.0765
647.00,0.0766
646.00,0.0766
645.00,0.0764
644.00,0.0761
643.00,0.0757
642.00,0.0750
641.00,0.0744
640.00,0.0737
639.00,0.0731
638.00,0.0726
637.00,0.0720
636.00,0.0714
635.00,0.0709
634.00,0.0703
633.00,0.0698
632.00,0.0693
631.00,0.0690
630.00,0.0686
629.00,0.0682
628.00,0.0679
627.00,0.0676
626.00,0.0674
625.00,0.0674
624.00,0.0673
623.00,0.0672
622.00,0.0670
621.00,0.0668
620.00,0.0667
619.00,0.0666
618.00,0.0666
617.00,0.0665
616.00,0.0664
615.00,0.0662
614.00,0.0661
613.00,0.0661
612.00,0.0661
611.00,0.0663
610.00,0.0666
609.00,0.0669
608.00,0.0671
607.00,0.0674
606.00,0.0678
605.00,0.0682
604.00,0.0686
603.00,0.0690
602.00,0.0693
601.00,0.0696
600.00,0.0699
599.00,0.0701
598.00,0.0703
597.00,0.0706
596.00,0.0709
595.00,0.0712
594.00,0.0715
593.00,0.0719
592.00,0.0723
591.00,0.0729
590.00,0.0735
589.00,0.0742
588.00,0.0750
587.00,0.0757
586.00,0.0766
585.00,0.0775
584.00,0.0785
583.00,0.0795
582.00,0.0805
581.00,0.0816
580.00,0.0827
579.00,0.0840
578.00,0.0852
577.00,0.0864
576.00,0.0873
575.00,0.0879
574.00,0.0881
573.00,0.0881
572.00,0.0881
571.00,0.0880
570.00,0.0878
569.00,0.0875
568.00,0.0871
567.00,0.0867
566.00,0.0863
565.00,0.0859
564.00,0.0856
563.00,0.0852
562.00,0.0848
561.00,0.0845
560.00,0.0842
559.00,0.0837
558.00,0.0832
557.00,0.0826
556.00,0.0820
555.00,0.0815
554.00,0.0809
553.00,0.0805
552.00,0.0802
551.00,0.0800
550.00,0.0800
549.00,0.0800
548.00,0.0800
547.00,0.0800
546.00,0.0799
545.00,0.0798
544.00,0.0795
543.00,0.0790
542.00,0.0785
541.00,0.0781
540.00,0.0777
539.00,0.0774
538.00,0.0770
537.00,0.0768
536.00,0.0769
535.00,0.0771
534.00,0.0774
533.00,0.0776
532.00,0.0777
531.00,0.0776
530.00,0.0775
529.00,0.0774
528.00,0.0773
527.00,0.0770
526.00,0.0767
525.00,0.0765
524.00,0.0764
523.00,0.0764
522.00,0.0764
521.00,0.0766
520.00,0.0768
519.00,0.0770
518.00,0.0771
517.00,0.0769
516.00,0.0767
515.00,0.0765
514.00,0.0764
513.00,0.0764
512.00,0.0763
511.00,0.0763
510.00,0.0763
509.00,0.0764
508.00,0.0766
507.00,0.0768
506.00,0.0771
505.00,0.0772
504.00,0.0771
503.00,0.0769
502.00,0.0768
501.00,0.0768
500.00,0.0769
499.00,0.0770
498.00,0.0769
497.00,0.0768
496.00,0.0767
495.00,0.0767
494.00,0.0769
493.00,0.0774
492.00,0.0779
491.00,0.0781
490.00,0.0781
489.00,0.0780
488.00,0.0780
487.00,0.0782
486.00,0.0784
485.00,0.0787
484.00,0.0789
483.00,0.0789
482.00,0.0788
481.00,0.0787
480.00,0.0788
479.00,0.0791
478.00,0.0794
477.00,0.0799
476.00,0.0803
475.00,0.0806
474.00,0.0808
473.00,0.0812
472.00,0.0815
471.00,0.0815
470.00,0.0812
469.00,0.0807
468.00,0.0804
467.00,0.0803
466.00,0.0801
465.00,0.0799
464.00,0.0796
463.00,0.0793
462.00,0.0790
461.00,0.0788
460.00,0.0786
459.00,0.0785
458.00,0.0785
457.00,0.0784
456.00,0.0782
455.00,0.0779
454.00,0.0776
453.00,0.0774
452.00,0.0771
451.00,0.0767
450.00,0.0762
449.00,0.0756
448.00,0.0752
447.00,0.0750
446.00,0.0750
445.00,0.0751
444.00,0.0751
443.00,0.0748
442.00,0.0743
441.00,0.0736
440.00,0.0729
439.00,0.0721
438.00,0.0716
437.00,0.0714
436.00,0.0714
435.00,0.0716
434.00,0.0717
433.00,0.0716
432.00,0.0713
431.00,0.0708
430.00,0.0703
429.00,0.0699
428.00,0.0697
427.00,0.0694
426.00,0.0689
425.00,0.0684
424.00,0.0680
423.00,0.0678
422.00,0.0675
421.00,0.0675
420.00,0.0677
419.00,0.0681
418.00,0.0680
417.00,0.0675
416.00,0.0669
415.00,0.0666
414.00,0.0666
413.00,0.0668
412.00,0.0668
411.00,0.0664
410.00,0.0657
409.00,0.0650
408.00,0.0647
407.00,0.0648
406.00,0.0653
405.00,0.0656
404.00,0.0654
403.00,0.0648
402.00,0.0641
401.00,0.0639
400.00,0.0639
