Created as New Dataset,Sample 674 By YargerLab Date Thursday, June 12 2025
cm-1,A
4000.00,0.0052
3999.00,0.0052
3998.00,0.0052
3997.00,0.0052
3996.00,0.0052
3995.00,0.0052
3994.00,0.0052
3993.00,0.0052
3992.00,0.0052
3991.00,0.0052
3990.00,0.0052
3989.00,0.0052
3988.00,0.0052
3987.00,0.0052
3986.00,0.0052
3985.00,0.0052
3984.00,0.0052
3983.00,0.0052
3982.00,0.0052
3981.00,0.0052
3980.00,0.0052
3979.00,0.0051
3978.00,0.0052
3977.00,0.0052
3976.00,0.0052
3975.00,0.0052
3974.00,0.0052
3973.00,0.0052
3972.00,0.0052
3971.00,0.0052
3970.00,0.0052
3969.00,0.0052
3968.00,0.0052
3967.00,0.0052
3966.00,0.0052
3965.00,0.0052
3964.00,0.0052
3963.00,0.0052
3962.00,0.0052
3961.00,0.0052
3960.00,0.0052
3959.00,0.0052
3958.00,0.0052
3957.00,0.0051
3956.00,0.0051
3955.00,0.0051
3954.00,0.0052
3953.00,0.0052
3952.00,0.0052
3951.00,0.0052
3950.00,0.0052
3949.00,0.0052
3948.00,0.0051
3947.00,0.0051
3946.00,0.0051
3945.00,0.0051
3944.00,0.0051
3943.00,0.0051
3942.00,0.0051
3941.00,0.0051
3940.00,0.0051
3939.00,0.0052
3938.00,0.0052
3937.00,0.0052
3936.00,0.0052
3935.00,0.0052
3934.00,0.0052
3933.00,0.0052
3932.00,0.0052
3931.00,0.0052
3930.00,0.0052
3929.00,0.0052
3928.00,0.0052
3927.00,0.0051
3926.00,0.0051
3925.00,0.0052
3924.00,0.0052
3923.00,0.0052
3922.00,0.0052
3921.00,0.0052
3920.00,0.0052
3919.00,0.0051
3918.00,0.0051
3917.00,0.0051
3916.00,0.0051
3915.00,0.0051
3914.00,0.0051
3913.00,0.0051
3912.00,0.0051
3911.00,0.0051
3910.00,0.0051
3909.00,0.0051
3908.00,0.0051
3907.00,0.0051
3906.00,0.0051
3905.00,0.0051
3904.00,0.0051
3903.00,0.0051
3902.00,0.0051
3901.00,0.0051
3900.00,0.0051
3899.00,0.0051
3898.00,0.0051
3897.00,0.0051
3896.00,0.0051
3895.00,0.0051
3894.00,0.0051
3893.00,0.0051
3892.00,0.0051
3891.00,0.0051
3890.00,0.0051
3889.00,0.0051
3888.00,0.0051
3887.00,0.0051
3886.00,0.0051
3885.00,0.0051
3884.00,0.0051
3883.00,0.0051
3882.00,0.0051
3881.00,0.0051
3880.00,0.0050
3879.00,0.0050
3878.00,0.0050
3877.00,0.0050
3876.00,0.0050
3875.00,0.0050
3874.00,0.0050
3873.00,0.0050
3872.00,0.0050
3871.00,0.0051
3870.00,0.0051
3869.00,0.0051
3868.00,0.0051
3867.00,0.0051
3866.00,0.0051
3865.00,0.0051
3864.00,0.0051
3863.00,0.0050
3862.00,0.0050
3861.00,0.0051
3860.00,0.0051
3859.00,0.0051
3858.00,0.0051
3857.00,0.0050
3856.00,0.0050
3855.00,0.0050
3854.00,0.0050
3853.00,0.0050
3852.00,0.0050
3851.00,0.0050
3850.00,0.0050
3849.00,0.0050
3848.00,0.0050
3847.00,0.0050
3846.00,0.0050
3845.00,0.0050
3844.00,0.0050
3843.00,0.0051
3842.00,0.0051
3841.00,0.0051
3840.00,0.0051
3839.00,0.0051
3838.00,0.0050
3837.00,0.0050
3836.00,0.0050
3835.00,0.0050
3834.00,0.0050
3833.00,0.0051
3832.00,0.0051
3831.00,0.0051
3830.00,0.0051
3829.00,0.0050
3828.00,0.0050
3827.00,0.0050
3826.00,0.0050
3825.00,0.0050
3824.00,0.0050
3823.00,0.0050
3822.00,0.0050
3821.00,0.0050
3820.00,0.0050
3819.00,0.0050
3818.00,0.0050
3817.00,0.0050
3816.00,0.0050
3815.00,0.0050
3814.00,0.0050
3813.00,0.0050
3812.00,0.0050
3811.00,0.0050
3810.00,0.0050
3809.00,0.0050
3808.00,0.0050
3807.00,0.0050
3806.00,0.0050
3805.00,0.0050
3804.00,0.0050
3803.00,0.0050
3802.00,0.0050
3801.00,0.0050
3800.00,0.0050
3799.00,0.0050
3798.00,0.0050
3797.00,0.0050
3796.00,0.0050
3795.00,0.0050
3794.00,0.0050
3793.00,0.0050
3792.00,0.0050
3791.00,0.0050
3790.00,0.0050
3789.00,0.0050
3788.00,0.0050
3787.00,0.0050
3786.00,0.0050
3785.00,0.0050
3784.00,0.0050
3783.00,0.0050
3782.00,0.0050
3781.00,0.0051
3780.00,0.0051
3779.00,0.0051
3778.00,0.0051
3777.00,0.0051
3776.00,0.0051
3775.00,0.0051
3774.00,0.0051
3773.00,0.0051
3772.00,0.0051
3771.00,0.0051
3770.00,0.0050
3769.00,0.0050
3768.00,0.0050
3767.00,0.0050
3766.00,0.0050
3765.00,0.0050
3764.00,0.0050
3763.00,0.0050
3762.00,0.0050
3761.00,0.0050
3760.00,0.0051
3759.00,0.0051
3758.00,0.0051
3757.00,0.0050
3756.00,0.0050
3755.00,0.0050
3754.00,0.0050
3753.00,0.0050
3752.00,0.0050
3751.00,0.0050
3750.00,0.0050
3749.00,0.0050
3748.00,0.0050
3747.00,0.0050
3746.00,0.0050
3745.00,0.0050
3744.00,0.0050
3743.00,0.0049
3742.00,0.0049
3741.00,0.0049
3740.00,0.0049
3739.00,0.0049
3738.00,0.0049
3737.00,0.0049
3736.00,0.0049
3735.00,0.0049
3734.00,0.0049
3733.00,0.0049
3732.00,0.0049
3731.00,0.0050
3730.00,0.0050
3729.00,0.0050
3728.00,0.0049
3727.00,0.0049
3726.00,0.0049
3725.00,0.0049
3724.00,0.0049
3723.00,0.0049
3722.00,0.0050
3721.00,0.0050
3720.00,0.0050
3719.00,0.0050
3718.00,0.0049
3717.00,0.0049
3716.00,0.0049
3715.00,0.0049
3714.00,0.0049
3713.00,0.0049
3712.00,0.0049
3711.00,0.0049
3710.00,0.0049
3709.00,0.0049
3708.00,0.0049
3707.00,0.0049
3706.00,0.0049
3705.00,0.0049
3704.00,0.0049
3703.00,0.0048
3702.00,0.0048
3701.00,0.0048
3700.00,0.0048
3699.00,0.0048
3698.00,0.0048
3697.00,0.0048
3696.00,0.0048
3695.00,0.0048
3694.00,0.0048
3693.00,0.0048
3692.00,0.0048
3691.00,0.0048
3690.00,0.0048
3689.00,0.0048
3688.00,0.0048
3687.00,0.0048
3686.00,0.0048
3685.00,0.0048
3684.00,0.0048
3683.00,0.0048
3682.00,0.0048
3681.00,0.0048
3680.00,0.0048
3679.00,0.0048
3678.00,0.0047
3677.00,0.0047
3676.00,0.0047
3675.00,0.0047
3674.00,0.0046
3673.00,0.0046
3672.00,0.0046
3671.00,0.0046
3670.00,0.0046
3669.00,0.0047
3668.00,0.0047
3667.00,0.0047
3666.00,0.0047
3665.00,0.0047
3664.00,0.0047
3663.00,0.0047
3662.00,0.0047
3661.00,0.0047
3660.00,0.0047
3659.00,0.0047
3658.00,0.0047
3657.00,0.0047
3656.00,0.0047
3655.00,0.0047
3654.00,0.0047
3653.00,0.0046
3652.00,0.0046
3651.00,0.0046
3650.00,0.0046
3649.00,0.0045
3648.00,0.0045
3647.00,0.0045
3646.00,0.0046
3645.00,0.0046
3644.00,0.0047
3643.00,0.0047
3642.00,0.0047
3641.00,0.0047
3640.00,0.0047
3639.00,0.0047
3638.00,0.0047
3637.00,0.0047
3636.00,0.0047
3635.00,0.0047
3634.00,0.0047
3633.00,0.0047
3632.00,0.0047
3631.00,0.0047
3630.00,0.0047
3629.00,0.0047
3628.00,0.0047
3627.00,0.0047
3626.00,0.0047
3625.00,0.0047
3624.00,0.0047
3623.00,0.0047
3622.00,0.0048
3621.00,0.0048
3620.00,0.0048
3619.00,0.0048
3618.00,0.0048
3617.00,0.0048
3616.00,0.0048
3615.00,0.0048
3614.00,0.0048
3613.00,0.0048
3612.00,0.0048
3611.00,0.0048
3610.00,0.0047
3609.00,0.0047
3608.00,0.0047
3607.00,0.0047
3606.00,0.0047
3605.00,0.0047
3604.00,0.0047
3603.00,0.0047
3602.00,0.0047
3601.00,0.0047
3600.00,0.0047
3599.00,0.0047
3598.00,0.0047
3597.00,0.0047
3596.00,0.0047
3595.00,0.0047
3594.00,0.0047
3593.00,0.0047
3592.00,0.0047
3591.00,0.0047
3590.00,0.0047
3589.00,0.0047
3588.00,0.0047
3587.00,0.0047
3586.00,0.0047
3585.00,0.0047
3584.00,0.0047
3583.00,0.0047
3582.00,0.0047
3581.00,0.0047
3580.00,0.0047
3579.00,0.0047
3578.00,0.0047
3577.00,0.0047
3576.00,0.0047
3575.00,0.0047
3574.00,0.0047
3573.00,0.0047
3572.00,0.0047
3571.00,0.0047
3570.00,0.0047
3569.00,0.0047
3568.00,0.0047
3567.00,0.0047
3566.00,0.0047
3565.00,0.0047
3564.00,0.0047
3563.00,0.0048
3562.00,0.0048
3561.00,0.0048
3560.00,0.0048
3559.00,0.0048
3558.00,0.0048
3557.00,0.0048
3556.00,0.0048
3555.00,0.0048
3554.00,0.0048
3553.00,0.0048
3552.00,0.0048
3551.00,0.0048
3550.00,0.0048
3549.00,0.0048
3548.00,0.0048
3547.00,0.0048
3546.00,0.0048
3545.00,0.0048
3544.00,0.0048
3543.00,0.0048
3542.00,0.0048
3541.00,0.0048
3540.00,0.0048
3539.00,0.0048
3538.00,0.0048
3537.00,0.0048
3536.00,0.0048
3535.00,0.0048
3534.00,0.0048
3533.00,0.0048
3532.00,0.0048
3531.00,0.0048
3530.00,0.0048
3529.00,0.0048
3528.00,0.0048
3527.00,0.0049
3526.00,0.0049
3525.00,0.0049
3524.00,0.0049
3523.00,0.0048
3522.00,0.0048
3521.00,0.0048
3520.00,0.0048
3519.00,0.0049
3518.00,0.0049
3517.00,0.0049
3516.00,0.0049
3515.00,0.0049
3514.00,0.0049
3513.00,0.0048
3512.00,0.0048
3511.00,0.0048
3510.00,0.0048
3509.00,0.0048
3508.00,0.0048
3507.00,0.0048
3506.00,0.0048
3505.00,0.0048
3504.00,0.0048
3503.00,0.0048
3502.00,0.0049
3501.00,0.0049
3500.00,0.0049
3499.00,0.0049
3498.00,0.0049
3497.00,0.0049
3496.00,0.0049
3495.00,0.0049
3494.00,0.0049
3493.00,0.0049
3492.00,0.0049
3491.00,0.0049
3490.00,0.0049
3489.00,0.0049
3488.00,0.0049
3487.00,0.0049
3486.00,0.0049
3485.00,0.0049
3484.00,0.0049
3483.00,0.0049
3482.00,0.0049
3481.00,0.0050
3480.00,0.0050
3479.00,0.0050
3478.00,0.0050
3477.00,0.0049
3476.00,0.0049
3475.00,0.0049
3474.00,0.0049
3473.00,0.0049
3472.00,0.0049
3471.00,0.0049
3470.00,0.0049
3469.00,0.0049
3468.00,0.0049
3467.00,0.0049
3466.00,0.0050
3465.00,0.0050
3464.00,0.0050
3463.00,0.0050
3462.00,0.0050
3461.00,0.0050
3460.00,0.0050
3459.00,0.0050
3458.00,0.0049
3457.00,0.0049
3456.00,0.0049
3455.00,0.0049
3454.00,0.0049
3453.00,0.0050
3452.00,0.0050
3451.00,0.0050
3450.00,0.0050
3449.00,0.0050
3448.00,0.0050
3447.00,0.0050
3446.00,0.0050
3445.00,0.0050
3444.00,0.0050
3443.00,0.0050
3442.00,0.0050
3441.00,0.0050
3440.00,0.0050
3439.00,0.0050
3438.00,0.0050
3437.00,0.0050
3436.00,0.0051
3435.00,0.0051
3434.00,0.0051
3433.00,0.0051
3432.00,0.0051
3431.00,0.0051
3430.00,0.0051
3429.00,0.0051
3428.00,0.0051
3427.00,0.0051
3426.00,0.0051
3425.00,0.0051
3424.00,0.0051
3423.00,0.0051
3422.00,0.0051
3421.00,0.0052
3420.00,0.0052
3419.00,0.0052
3418.00,0.0052
3417.00,0.0052
3416.00,0.0052
3415.00,0.0052
3414.00,0.0052
3413.00,0.0053
3412.00,0.0053
3411.00,0.0053
3410.00,0.0053
3409.00,0.0053
3408.00,0.0053
3407.00,0.0053
3406.00,0.0053
3405.00,0.0053
3404.00,0.0053
3403.00,0.0053
3402.00,0.0053
3401.00,0.0054
3400.00,0.0054
3399.00,0.0054
3398.00,0.0055
3397.00,0.0055
3396.00,0.0056
3395.00,0.0056
3394.00,0.0057
3393.00,0.0057
3392.00,0.0058
3391.00,0.0058
3390.00,0.0059
3389.00,0.0059
3388.00,0.0060
3387.00,0.0061
3386.00,0.0062
3385.00,0.0062
3384.00,0.0063
3383.00,0.0064
3382.00,0.0065
3381.00,0.0065
3380.00,0.0066
3379.00,0.0067
3378.00,0.0068
3377.00,0.0069
3376.00,0.0069
3375.00,0.0070
3374.00,0.0071
3373.00,0.0071
3372.00,0.0071
3371.00,0.0071
3370.00,0.0072
3369.00,0.0073
3368.00,0.0074
3367.00,0.0075
3366.00,0.0077
3365.00,0.0078
3364.00,0.0080
3363.00,0.0082
3362.00,0.0084
3361.00,0.0085
3360.00,0.0088
3359.00,0.0090
3358.00,0.0093
3357.00,0.0095
3356.00,0.0098
3355.00,0.0101
3354.00,0.0103
3353.00,0.0106
3352.00,0.0109
3351.00,0.0112
3350.00,0.0116
3349.00,0.0120
3348.00,0.0125
3347.00,0.0130
3346.00,0.0136
3345.00,0.0142
3344.00,0.0148
3343.00,0.0155
3342.00,0.0163
3341.00,0.0172
3340.00,0.0181
3339.00,0.0190
3338.00,0.0199
3337.00,0.0208
3336.00,0.0217
3335.00,0.0224
3334.00,0.0230
3333.00,0.0235
3332.00,0.0239
3331.00,0.0241
3330.00,0.0241
3329.00,0.0241
3328.00,0.0240
3327.00,0.0238
3326.00,0.0236
3325.00,0.0234
3324.00,0.0231
3323.00,0.0228
3322.00,0.0224
3321.00,0.0220
3320.00,0.0215
3319.00,0.0210
3318.00,0.0205
3317.00,0.0199
3316.00,0.0194
3315.00,0.0188
3314.00,0.0182
3313.00,0.0177
3312.00,0.0172
3311.00,0.0167
3310.00,0.0162
3309.00,0.0158
3308.00,0.0154
3307.00,0.0150
3306.00,0.0147
3305.00,0.0144
3304.00,0.0142
3303.00,0.0139
3302.00,0.0137
3301.00,0.0135
3300.00,0.0134
3299.00,0.0132
3298.00,0.0130
3297.00,0.0129
3296.00,0.0127
3295.00,0.0126
3294.00,0.0124
3293.00,0.0123
3292.00,0.0122
3291.00,0.0122
3290.00,0.0121
3289.00,0.0120
3288.00,0.0118
3287.00,0.0117
3286.00,0.0115
3285.00,0.0113
3284.00,0.0112
3283.00,0.0110
3282.00,0.0109
3281.00,0.0108
3280.00,0.0107
3279.00,0.0106
3278.00,0.0105
3277.00,0.0104
3276.00,0.0103
3275.00,0.0102
3274.00,0.0102
3273.00,0.0102
3272.00,0.0101
3271.00,0.0101
3270.00,0.0101
3269.00,0.0101
3268.00,0.0101
3267.00,0.0102
3266.00,0.0102
3265.00,0.0102
3264.00,0.0102
3263.00,0.0101
3262.00,0.0101
3261.00,0.0101
3260.00,0.0100
3259.00,0.0100
3258.00,0.0099
3257.00,0.0099
3256.00,0.0099
3255.00,0.0099
3254.00,0.0099
3253.00,0.0098
3252.00,0.0098
3251.00,0.0098
3250.00,0.0097
3249.00,0.0097
3248.00,0.0096
3247.00,0.0096
3246.00,0.0096
3245.00,0.0096
3244.00,0.0096
3243.00,0.0096
3242.00,0.0096
3241.00,0.0096
3240.00,0.0096
3239.00,0.0095
3238.00,0.0095
3237.00,0.0095
3236.00,0.0094
3235.00,0.0093
3234.00,0.0093
3233.00,0.0092
3232.00,0.0091
3231.00,0.0090
3230.00,0.0090
3229.00,0.0089
3228.00,0.0088
3227.00,0.0087
3226.00,0.0086
3225.00,0.0085
3224.00,0.0084
3223.00,0.0083
3222.00,0.0082
3221.00,0.0081
3220.00,0.0080
3219.00,0.0080
3218.00,0.0079
3217.00,0.0079
3216.00,0.0078
3215.00,0.0077
3214.00,0.0077
3213.00,0.0076
3212.00,0.0076
3211.00,0.0075
3210.00,0.0075
3209.00,0.0074
3208.00,0.0074
3207.00,0.0074
3206.00,0.0073
3205.00,0.0073
3204.00,0.0072
3203.00,0.0071
3202.00,0.0071
3201.00,0.0071
3200.00,0.0070
3199.00,0.0070
3198.00,0.0069
3197.00,0.0069
3196.00,0.0069
3195.00,0.0069
3194.00,0.0069
3193.00,0.0069
3192.00,0.0068
3191.00,0.0068
3190.00,0.0068
3189.00,0.0067
3188.00,0.0067
3187.00,0.0067
3186.00,0.0067
3185.00,0.0067
3184.00,0.0067
3183.00,0.0067
3182.00,0.0067
3181.00,0.0067
3180.00,0.0067
3179.00,0.0067
3178.00,0.0067
3177.00,0.0066
3176.00,0.0066
3175.00,0.0066
3174.00,0.0066
3173.00,0.0066
3172.00,0.0066
3171.00,0.0066
3170.00,0.0066
3169.00,0.0066
3168.00,0.0066
3167.00,0.0066
3166.00,0.0065
3165.00,0.0065
3164.00,0.0065
3163.00,0.0065
3162.00,0.0065
3161.00,0.0064
3160.00,0.0064
3159.00,0.0064
3158.00,0.0064
3157.00,0.0064
3156.00,0.0064
3155.00,0.0064
3154.00,0.0064
3153.00,0.0064
3152.00,0.0064
3151.00,0.0065
3150.00,0.0065
3149.00,0.0065
3148.00,0.0065
3147.00,0.0065
3146.00,0.0065
3145.00,0.0066
3144.00,0.0066
3143.00,0.0066
3142.00,0.0066
3141.00,0.0066
3140.00,0.0066
3139.00,0.0066
3138.00,0.0066
3137.00,0.0066
3136.00,0.0066
3135.00,0.0066
3134.00,0.0066
3133.00,0.0066
3132.00,0.0067
3131.00,0.0067
3130.00,0.0067
3129.00,0.0068
3128.00,0.0068
3127.00,0.0068
3126.00,0.0068
3125.00,0.0069
3124.00,0.0069
3123.00,0.0069
3122.00,0.0069
3121.00,0.0070
3120.00,0.0070
3119.00,0.0071
3118.00,0.0071
3117.00,0.0072
3116.00,0.0072
3115.00,0.0073
3114.00,0.0074
3113.00,0.0074
3112.00,0.0075
3111.00,0.0076
3110.00,0.0077
3109.00,0.0077
3108.00,0.0078
3107.00,0.0079
3106.00,0.0080
3105.00,0.0081
3104.00,0.0082
3103.00,0.0082
3102.00,0.0082
3101.00,0.0082
3100.00,0.0081
3099.00,0.0081
3098.00,0.0081
3097.00,0.0080
3096.00,0.0079
3095.00,0.0079
3094.00,0.0078
3093.00,0.0077
3092.00,0.0076
3091.00,0.0076
3090.00,0.0075
3089.00,0.0075
3088.00,0.0075
3087.00,0.0075
3086.00,0.0076
3085.00,0.0076
3084.00,0.0077
3083.00,0.0077
3082.00,0.0077
3081.00,0.0077
3080.00,0.0077
3079.00,0.0077
3078.00,0.0077
3077.00,0.0077
3076.00,0.0076
3075.00,0.0075
3074.00,0.0074
3073.00,0.0072
3072.00,0.0071
3071.00,0.0070
3070.00,0.0069
3069.00,0.0069
3068.00,0.0069
3067.00,0.0070
3066.00,0.0070
3065.00,0.0071
3064.00,0.0072
3063.00,0.0072
3062.00,0.0072
3061.00,0.0072
3060.00,0.0071
3059.00,0.0070
3058.00,0.0069
3057.00,0.0069
3056.00,0.0068
3055.00,0.0068
3054.00,0.0067
3053.00,0.0067
3052.00,0.0067
3051.00,0.0067
3050.00,0.0067
3049.00,0.0067
3048.00,0.0067
3047.00,0.0066
3046.00,0.0066
3045.00,0.0065
3044.00,0.0065
3043.00,0.0065
3042.00,0.0066
3041.00,0.0066
3040.00,0.0067
3039.00,0.0068
3038.00,0.0068
3037.00,0.0069
3036.00,0.0069
3035.00,0.0069
3034.00,0.0070
3033.00,0.0070
3032.00,0.0071
3031.00,0.0072
3030.00,0.0072
3029.00,0.0072
3028.00,0.0073
3027.00,0.0073
3026.00,0.0072
3025.00,0.0072
3024.00,0.0072
3023.00,0.0071
3022.00,0.0071
3021.00,0.0070
3020.00,0.0069
3019.00,0.0069
3018.00,0.0068
3017.00,0.0068
3016.00,0.0068
3015.00,0.0068
3014.00,0.0068
3013.00,0.0068
3012.00,0.0068
3011.00,0.0069
3010.00,0.0070
3009.00,0.0071
3008.00,0.0073
3007.00,0.0074
3006.00,0.0076
3005.00,0.0078
3004.00,0.0080
3003.00,0.0082
3002.00,0.0084
3001.00,0.0085
3000.00,0.0087
2999.00,0.0088
2998.00,0.0089
2997.00,0.0089
2996.00,0.0088
2995.00,0.0087
2994.00,0.0085
2993.00,0.0082
2992.00,0.0079
2991.00,0.0077
2990.00,0.0075
2989.00,0.0073
2988.00,0.0072
2987.00,0.0071
2986.00,0.0070
2985.00,0.0068
2984.00,0.0067
2983.00,0.0065
2982.00,0.0064
2981.00,0.0063
2980.00,0.0063
2979.00,0.0063
2978.00,0.0064
2977.00,0.0065
2976.00,0.0065
2975.00,0.0065
2974.00,0.0066
2973.00,0.0066
2972.00,0.0066
2971.00,0.0067
2970.00,0.0068
2969.00,0.0069
2968.00,0.0070
2967.00,0.0072
2966.00,0.0074
2965.00,0.0076
2964.00,0.0079
2963.00,0.0083
2962.00,0.0087
2961.00,0.0091
2960.00,0.0097
2959.00,0.0102
2958.00,0.0107
2957.00,0.0111
2956.00,0.0115
2955.00,0.0118
2954.00,0.0120
2953.00,0.0120
2952.00,0.0119
2951.00,0.0116
2950.00,0.0113
2949.00,0.0109
2948.00,0.0105
2947.00,0.0100
2946.00,0.0097
2945.00,0.0093
2944.00,0.0091
2943.00,0.0088
2942.00,0.0087
2941.00,0.0085
2940.00,0.0084
2939.00,0.0083
2938.00,0.0082
2937.00,0.0082
2936.00,0.0081
2935.00,0.0081
2934.00,0.0081
2933.00,0.0081
2932.00,0.0080
2931.00,0.0080
2930.00,0.0080
2929.00,0.0080
2928.00,0.0079
2927.00,0.0079
2926.00,0.0078
2925.00,0.0078
2924.00,0.0077
2923.00,0.0076
2922.00,0.0076
2921.00,0.0075
2920.00,0.0074
2919.00,0.0074
2918.00,0.0074
2917.00,0.0073
2916.00,0.0073
2915.00,0.0073
2914.00,0.0073
2913.00,0.0072
2912.00,0.0072
2911.00,0.0071
2910.00,0.0071
2909.00,0.0071
2908.00,0.0070
2907.00,0.0070
2906.00,0.0070
2905.00,0.0069
2904.00,0.0069
2903.00,0.0069
2902.00,0.0068
2901.00,0.0068
2900.00,0.0067
2899.00,0.0067
2898.00,0.0067
2897.00,0.0067
2896.00,0.0066
2895.00,0.0066
2894.00,0.0066
2893.00,0.0065
2892.00,0.0065
2891.00,0.0065
2890.00,0.0065
2889.00,0.0065
2888.00,0.0066
2887.00,0.0066
2886.00,0.0066
2885.00,0.0066
2884.00,0.0066
2883.00,0.0066
2882.00,0.0067
2881.00,0.0067
2880.00,0.0068
2879.00,0.0068
2878.00,0.0068
2877.00,0.0069
2876.00,0.0069
2875.00,0.0069
2874.00,0.0070
2873.00,0.0070
2872.00,0.0071
2871.00,0.0071
2870.00,0.0071
2869.00,0.0071
2868.00,0.0071
2867.00,0.0071
2866.00,0.0071
2865.00,0.0070
2864.00,0.0070
2863.00,0.0069
2862.00,0.0068
2861.00,0.0068
2860.00,0.0068
2859.00,0.0068
2858.00,0.0068
2857.00,0.0068
2856.00,0.0067
2855.00,0.0067
2854.00,0.0067
2853.00,0.0067
2852.00,0.0067
2851.00,0.0068
2850.00,0.0068
2849.00,0.0069
2848.00,0.0070
2847.00,0.0071
2846.00,0.0072
2845.00,0.0073
2844.00,0.0074
2843.00,0.0075
2842.00,0.0074
2841.00,0.0074
2840.00,0.0072
2839.00,0.0071
2838.00,0.0070
2837.00,0.0069
2836.00,0.0068
2835.00,0.0067
2834.00,0.0066
2833.00,0.0066
2832.00,0.0065
2831.00,0.0065
2830.00,0.0065
2829.00,0.0064
2828.00,0.0064
2827.00,0.0064
2826.00,0.0064
2825.00,0.0063
2824.00,0.0063
2823.00,0.0063
2822.00,0.0063
2821.00,0.0063
2820.00,0.0063
2819.00,0.0063
2818.00,0.0063
2817.00,0.0063
2816.00,0.0063
2815.00,0.0064
2814.00,0.0064
2813.00,0.0064
2812.00,0.0064
2811.00,0.0064
2810.00,0.0064
2809.00,0.0064
2808.00,0.0064
2807.00,0.0064
2806.00,0.0064
2805.00,0.0064
2804.00,0.0064
2803.00,0.0063
2802.00,0.0063
2801.00,0.0063
2800.00,0.0063
2799.00,0.0063
2798.00,0.0062
2797.00,0.0062
2796.00,0.0062
2795.00,0.0061
2794.00,0.0061
2793.00,0.0061
2792.00,0.0061
2791.00,0.0060
2790.00,0.0060
2789.00,0.0060
2788.00,0.0059
2787.00,0.0059
2786.00,0.0059
2785.00,0.0059
2784.00,0.0059
2783.00,0.0058
2782.00,0.0058
2781.00,0.0058
2780.00,0.0058
2779.00,0.0058
2778.00,0.0058
2777.00,0.0058
2776.00,0.0058
2775.00,0.0057
2774.00,0.0057
2773.00,0.0057
2772.00,0.0057
2771.00,0.0058
2770.00,0.0058
2769.00,0.0058
2768.00,0.0058
2767.00,0.0058
2766.00,0.0057
2765.00,0.0057
2764.00,0.0057
2763.00,0.0057
2762.00,0.0058
2761.00,0.0058
2760.00,0.0057
2759.00,0.0057
2758.00,0.0057
2757.00,0.0057
2756.00,0.0057
2755.00,0.0057
2754.00,0.0058
2753.00,0.0058
2752.00,0.0057
2751.00,0.0057
2750.00,0.0057
2749.00,0.0057
2748.00,0.0057
2747.00,0.0057
2746.00,0.0057
2745.00,0.0057
2744.00,0.0057
2743.00,0.0057
2742.00,0.0057
2741.00,0.0057
2740.00,0.0057
2739.00,0.0057
2738.00,0.0057
2737.00,0.0057
2736.00,0.0057
2735.00,0.0056
2734.00,0.0056
2733.00,0.0056
2732.00,0.0056
2731.00,0.0056
2730.00,0.0056
2729.00,0.0056
2728.00,0.0056
2727.00,0.0056
2726.00,0.0056
2725.00,0.0057
2724.00,0.0057
2723.00,0.0057
2722.00,0.0057
2721.00,0.0057
2720.00,0.0057
2719.00,0.0057
2718.00,0.0057
2717.00,0.0057
2716.00,0.0057
2715.00,0.0057
2714.00,0.0057
2713.00,0.0057
2712.00,0.0057
2711.00,0.0057
2710.00,0.0057
2709.00,0.0057
2708.00,0.0057
2707.00,0.0057
2706.00,0.0057
2705.00,0.0057
2704.00,0.0057
2703.00,0.0058
2702.00,0.0058
2701.00,0.0058
2700.00,0.0058
2699.00,0.0058
2698.00,0.0058
2697.00,0.0058
2696.00,0.0058
2695.00,0.0057
2694.00,0.0057
2693.00,0.0057
2692.00,0.0057
2691.00,0.0057
2690.00,0.0057
2689.00,0.0057
2688.00,0.0057
2687.00,0.0057
2686.00,0.0057
2685.00,0.0057
2684.00,0.0057
2683.00,0.0057
2682.00,0.0057
2681.00,0.0056
2680.00,0.0056
2679.00,0.0056
2678.00,0.0056
2677.00,0.0057
2676.00,0.0056
2675.00,0.0056
2674.00,0.0056
2673.00,0.0057
2672.00,0.0057
2671.00,0.0057
2670.00,0.0057
2669.00,0.0057
2668.00,0.0057
2667.00,0.0057
2666.00,0.0057
2665.00,0.0058
2664.00,0.0058
2663.00,0.0058
2662.00,0.0058
2661.00,0.0059
2660.00,0.0059
2659.00,0.0059
2658.00,0.0059
2657.00,0.0059
2656.00,0.0059
2655.00,0.0059
2654.00,0.0059
2653.00,0.0059
2652.00,0.0059
2651.00,0.0059
2650.00,0.0059
2649.00,0.0060
2648.00,0.0060
2647.00,0.0060
2646.00,0.0060
2645.00,0.0060
2644.00,0.0060
2643.00,0.0060
2642.00,0.0060
2641.00,0.0060
2640.00,0.0060
2639.00,0.0060
2638.00,0.0060
2637.00,0.0059
2636.00,0.0059
2635.00,0.0060
2634.00,0.0059
2633.00,0.0059
2632.00,0.0059
2631.00,0.0059
2630.00,0.0059
2629.00,0.0059
2628.00,0.0059
2627.00,0.0059
2626.00,0.0059
2625.00,0.0060
2624.00,0.0060
2623.00,0.0060
2622.00,0.0059
2621.00,0.0059
2620.00,0.0059
2619.00,0.0059
2618.00,0.0059
2617.00,0.0059
2616.00,0.0059
2615.00,0.0059
2614.00,0.0059
2613.00,0.0059
2612.00,0.0059
2611.00,0.0058
2610.00,0.0058
2609.00,0.0058
2608.00,0.0058
2607.00,0.0058
2606.00,0.0058
2605.00,0.0058
2604.00,0.0058
2603.00,0.0058
2602.00,0.0058
2601.00,0.0057
2600.00,0.0057
2599.00,0.0057
2598.00,0.0057
2597.00,0.0057
2596.00,0.0057
2595.00,0.0057
2594.00,0.0056
2593.00,0.0056
2592.00,0.0056
2591.00,0.0055
2590.00,0.0055
2589.00,0.0055
2588.00,0.0055
2587.00,0.0055
2586.00,0.0055
2585.00,0.0055
2584.00,0.0055
2583.00,0.0055
2582.00,0.0055
2581.00,0.0055
2580.00,0.0055
2579.00,0.0055
2578.00,0.0055
2577.00,0.0055
2576.00,0.0055
2575.00,0.0055
2574.00,0.0054
2573.00,0.0054
2572.00,0.0054
2571.00,0.0054
2570.00,0.0054
2569.00,0.0054
2568.00,0.0053
2567.00,0.0053
2566.00,0.0053
2565.00,0.0053
2564.00,0.0053
2563.00,0.0053
2562.00,0.0053
2561.00,0.0053
2560.00,0.0053
2559.00,0.0053
2558.00,0.0053
2557.00,0.0053
2556.00,0.0053
2555.00,0.0053
2554.00,0.0053
2553.00,0.0054
2552.00,0.0054
2551.00,0.0054
2550.00,0.0054
2549.00,0.0053
2548.00,0.0053
2547.00,0.0053
2546.00,0.0053
2545.00,0.0053
2544.00,0.0053
2543.00,0.0053
2542.00,0.0052
2541.00,0.0052
2540.00,0.0052
2539.00,0.0053
2538.00,0.0053
2537.00,0.0053
2536.00,0.0054
2535.00,0.0054
2534.00,0.0053
2533.00,0.0053
2532.00,0.0053
2531.00,0.0053
2530.00,0.0053
2529.00,0.0053
2528.00,0.0053
2527.00,0.0053
2526.00,0.0053
2525.00,0.0052
2524.00,0.0052
2523.00,0.0052
2522.00,0.0052
2521.00,0.0052
2520.00,0.0052
2519.00,0.0052
2518.00,0.0052
2517.00,0.0052
2516.00,0.0052
2515.00,0.0052
2514.00,0.0052
2513.00,0.0052
2512.00,0.0052
2511.00,0.0051
2510.00,0.0051
2509.00,0.0051
2508.00,0.0051
2507.00,0.0051
2506.00,0.0051
2505.00,0.0052
2504.00,0.0052
2503.00,0.0052
2502.00,0.0052
2501.00,0.0052
2500.00,0.0051
2499.00,0.0051
2498.00,0.0051
2497.00,0.0051
2496.00,0.0051
2495.00,0.0051
2494.00,0.0051
2493.00,0.0051
2492.00,0.0052
2491.00,0.0052
2490.00,0.0052
2489.00,0.0052
2488.00,0.0051
2487.00,0.0051
2486.00,0.0051
2485.00,0.0051
2484.00,0.0051
2483.00,0.0051
2482.00,0.0051
2481.00,0.0050
2480.00,0.0050
2479.00,0.0050
2478.00,0.0050
2477.00,0.0050
2476.00,0.0050
2475.00,0.0050
2474.00,0.0050
2473.00,0.0050
2472.00,0.0050
2471.00,0.0050
2470.00,0.0051
2469.00,0.0051
2468.00,0.0050
2467.00,0.0050
2466.00,0.0050
2465.00,0.0050
2464.00,0.0051
2463.00,0.0051
2462.00,0.0051
2461.00,0.0052
2460.00,0.0052
2459.00,0.0052
2458.00,0.0052
2457.00,0.0052
2456.00,0.0052
2455.00,0.0052
2454.00,0.0052
2453.00,0.0053
2452.00,0.0053
2451.00,0.0053
2450.00,0.0052
2449.00,0.0052
2448.00,0.0051
2447.00,0.0051
2446.00,0.0051
2445.00,0.0051
2444.00,0.0051
2443.00,0.0051
2442.00,0.0050
2441.00,0.0050
2440.00,0.0050
2439.00,0.0049
2438.00,0.0049
2437.00,0.0050
2436.00,0.0050
2435.00,0.0050
2434.00,0.0050
2433.00,0.0049
2432.00,0.0049
2431.00,0.0049
2430.00,0.0049
2429.00,0.0049
2428.00,0.0050
2427.00,0.0050
2426.00,0.0049
2425.00,0.0049
2424.00,0.0049
2423.00,0.0049
2422.00,0.0048
2421.00,0.0048
2420.00,0.0048
2419.00,0.0048
2418.00,0.0048
2417.00,0.0048
2416.00,0.0047
2415.00,0.0047
2414.00,0.0048
2413.00,0.0048
2412.00,0.0048
2411.00,0.0048
2410.00,0.0048
2409.00,0.0047
2408.00,0.0047
2407.00,0.0046
2406.00,0.0046
2405.00,0.0047
2404.00,0.0047
2403.00,0.0047
2402.00,0.0047
2401.00,0.0047
2400.00,0.0047
2399.00,0.0047
2398.00,0.0047
2397.00,0.0046
2396.00,0.0046
2395.00,0.0046
2394.00,0.0046
2393.00,0.0046
2392.00,0.0046
2391.00,0.0045
2390.00,0.0045
2389.00,0.0045
2388.00,0.0046
2387.00,0.0046
2386.00,0.0046
2385.00,0.0045
2384.00,0.0045
2383.00,0.0045
2382.00,0.0045
2381.00,0.0045
2380.00,0.0045
2379.00,0.0045
2378.00,0.0044
2377.00,0.0044
2376.00,0.0045
2375.00,0.0045
2374.00,0.0045
2373.00,0.0045
2372.00,0.0045
2371.00,0.0045
2370.00,0.0045
2369.00,0.0045
2368.00,0.0044
2367.00,0.0044
2366.00,0.0044
2365.00,0.0045
2364.00,0.0045
2363.00,0.0045
2362.00,0.0045
2361.00,0.0045
2360.00,0.0045
2359.00,0.0046
2358.00,0.0046
2357.00,0.0046
2356.00,0.0046
2355.00,0.0046
2354.00,0.0046
2353.00,0.0046
2352.00,0.0046
2351.00,0.0045
2350.00,0.0046
2349.00,0.0046
2348.00,0.0046
2347.00,0.0047
2346.00,0.0047
2345.00,0.0047
2344.00,0.0047
2343.00,0.0047
2342.00,0.0047
2341.00,0.0047
2340.00,0.0047
2339.00,0.0048
2338.00,0.0048
2337.00,0.0048
2336.00,0.0048
2335.00,0.0047
2334.00,0.0047
2333.00,0.0047
2332.00,0.0047
2331.00,0.0048
2330.00,0.0048
2329.00,0.0049
2328.00,0.0051
2327.00,0.0054
2326.00,0.0055
2325.00,0.0056
2324.00,0.0057
2323.00,0.0056
2322.00,0.0055
2321.00,0.0053
2320.00,0.0052
2319.00,0.0051
2318.00,0.0050
2317.00,0.0050
2316.00,0.0049
2315.00,0.0049
2314.00,0.0049
2313.00,0.0048
2312.00,0.0048
2311.00,0.0047
2310.00,0.0047
2309.00,0.0047
2308.00,0.0047
2307.00,0.0047
2306.00,0.0047
2305.00,0.0047
2304.00,0.0047
2303.00,0.0047
2302.00,0.0047
2301.00,0.0048
2300.00,0.0048
2299.00,0.0048
2298.00,0.0048
2297.00,0.0049
2296.00,0.0049
2295.00,0.0049
2294.00,0.0050
2293.00,0.0051
2292.00,0.0052
2291.00,0.0052
2290.00,0.0053
2289.00,0.0053
2288.00,0.0053
2287.00,0.0053
2286.00,0.0053
2285.00,0.0053
2284.00,0.0052
2283.00,0.0052
2282.00,0.0051
2281.00,0.0050
2280.00,0.0050
2279.00,0.0050
2278.00,0.0049
2277.00,0.0049
2276.00,0.0049
2275.00,0.0049
2274.00,0.0048
2273.00,0.0048
2272.00,0.0048
2271.00,0.0047
2270.00,0.0047
2269.00,0.0046
2268.00,0.0046
2267.00,0.0046
2266.00,0.0046
2265.00,0.0046
2264.00,0.0046
2263.00,0.0046
2262.00,0.0046
2261.00,0.0046
2260.00,0.0046
2259.00,0.0046
2258.00,0.0046
2257.00,0.0045
2256.00,0.0044
2255.00,0.0043
2254.00,0.0043
2253.00,0.0043
2252.00,0.0043
2251.00,0.0042
2250.00,0.0042
2249.00,0.0042
2248.00,0.0042
2247.00,0.0042
2246.00,0.0041
2245.00,0.0041
2244.00,0.0040
2243.00,0.0040
2242.00,0.0039
2241.00,0.0039
2240.00,0.0039
2239.00,0.0039
2238.00,0.0040
2237.00,0.0040
2236.00,0.0040
2235.00,0.0040
2234.00,0.0040
2233.00,0.0040
2232.00,0.0040
2231.00,0.0040
2230.00,0.0040
2229.00,0.0041
2228.00,0.0042
2227.00,0.0042
2226.00,0.0042
2225.00,0.0041
2224.00,0.0041
2223.00,0.0040
2222.00,0.0041
2221.00,0.0041
2220.00,0.0042
2219.00,0.0042
2218.00,0.0041
2217.00,0.0040
2216.00,0.0039
2215.00,0.0038
2214.00,0.0038
2213.00,0.0038
2212.00,0.0038
2211.00,0.0037
2210.00,0.0037
2209.00,0.0037
2208.00,0.0037
2207.00,0.0038
2206.00,0.0038
2205.00,0.0039
2204.00,0.0039
2203.00,0.0039
2202.00,0.0039
2201.00,0.0039
2200.00,0.0039
2199.00,0.0039
2198.00,0.0039
2197.00,0.0040
2196.00,0.0040
2195.00,0.0039
2194.00,0.0039
2193.00,0.0038
2192.00,0.0038
2191.00,0.0039
2190.00,0.0039
2189.00,0.0040
2188.00,0.0041
2187.00,0.0042
2186.00,0.0043
2185.00,0.0042
2184.00,0.0041
2183.00,0.0039
2182.00,0.0037
2181.00,0.0037
2180.00,0.0038
2179.00,0.0039
2178.00,0.0040
2177.00,0.0039
2176.00,0.0038
2175.00,0.0038
2174.00,0.0038
2173.00,0.0040
2172.00,0.0042
2171.00,0.0044
2170.00,0.0045
2169.00,0.0045
2168.00,0.0044
2167.00,0.0044
2166.00,0.0044
2165.00,0.0045
2164.00,0.0046
2163.00,0.0047
2162.00,0.0044
2161.00,0.0038
2160.00,0.0030
2159.00,0.0023
2158.00,0.0020
2157.00,0.0020
2156.00,0.0022
2155.00,0.0024
2154.00,0.0025
2153.00,0.0026
2152.00,0.0027
2151.00,0.0028
2150.00,0.0029
2149.00,0.0029
2148.00,0.0030
2147.00,0.0029
2146.00,0.0028
2145.00,0.0027
2144.00,0.0027
2143.00,0.0027
2142.00,0.0028
2141.00,0.0027
2140.00,0.0027
2139.00,0.0027
2138.00,0.0027
2137.00,0.0026
2136.00,0.0026
2135.00,0.0025
2134.00,0.0024
2133.00,0.0025
2132.00,0.0026
2131.00,0.0028
2130.00,0.0029
2129.00,0.0031
2128.00,0.0032
2127.00,0.0033
2126.00,0.0034
2125.00,0.0035
2124.00,0.0035
2123.00,0.0036
2122.00,0.0036
2121.00,0.0036
2120.00,0.0037
2119.00,0.0037
2118.00,0.0037
2117.00,0.0038
2116.00,0.0038
2115.00,0.0038
2114.00,0.0038
2113.00,0.0038
2112.00,0.0038
2111.00,0.0038
2110.00,0.0038
2109.00,0.0039
2108.00,0.0039
2107.00,0.0039
2106.00,0.0038
2105.00,0.0038
2104.00,0.0038
2103.00,0.0038
2102.00,0.0038
2101.00,0.0038
2100.00,0.0038
2099.00,0.0037
2098.00,0.0036
2097.00,0.0035
2096.00,0.0034
2095.00,0.0034
2094.00,0.0034
2093.00,0.0035
2092.00,0.0037
2091.00,0.0037
2090.00,0.0037
2089.00,0.0037
2088.00,0.0038
2087.00,0.0038
2086.00,0.0038
2085.00,0.0038
2084.00,0.0039
2083.00,0.0039
2082.00,0.0039
2081.00,0.0039
2080.00,0.0039
2079.00,0.0039
2078.00,0.0039
2077.00,0.0039
2076.00,0.0040
2075.00,0.0039
2074.00,0.0039
2073.00,0.0039
2072.00,0.0039
2071.00,0.0039
2070.00,0.0039
2069.00,0.0038
2068.00,0.0038
2067.00,0.0038
2066.00,0.0037
2065.00,0.0037
2064.00,0.0037
2063.00,0.0037
2062.00,0.0037
2061.00,0.0038
2060.00,0.0038
2059.00,0.0037
2058.00,0.0037
2057.00,0.0036
2056.00,0.0036
2055.00,0.0036
2054.00,0.0038
2053.00,0.0041
2052.00,0.0043
2051.00,0.0042
2050.00,0.0040
2049.00,0.0036
2048.00,0.0033
2047.00,0.0031
2046.00,0.0031
2045.00,0.0031
2044.00,0.0032
2043.00,0.0033
2042.00,0.0032
2041.00,0.0032
2040.00,0.0031
2039.00,0.0031
2038.00,0.0030
2037.00,0.0028
2036.00,0.0027
2035.00,0.0025
2034.00,0.0024
2033.00,0.0024
2032.00,0.0025
2031.00,0.0026
2030.00,0.0025
2029.00,0.0025
2028.00,0.0025
2027.00,0.0026
2026.00,0.0027
2025.00,0.0028
2024.00,0.0028
2023.00,0.0027
2022.00,0.0027
2021.00,0.0028
2020.00,0.0029
2019.00,0.0029
2018.00,0.0029
2017.00,0.0028
2016.00,0.0028
2015.00,0.0028
2014.00,0.0028
2013.00,0.0028
2012.00,0.0030
2011.00,0.0031
2010.00,0.0031
2009.00,0.0030
2008.00,0.0029
2007.00,0.0028
2006.00,0.0028
2005.00,0.0030
2004.00,0.0031
2003.00,0.0032
2002.00,0.0032
2001.00,0.0033
2000.00,0.0034
1999.00,0.0036
1998.00,0.0037
1997.00,0.0038
1996.00,0.0039
1995.00,0.0038
1994.00,0.0037
1993.00,0.0037
1992.00,0.0037
1991.00,0.0037
1990.00,0.0038
1989.00,0.0038
1988.00,0.0039
1987.00,0.0039
1986.00,0.0038
1985.00,0.0038
1984.00,0.0038
1983.00,0.0040
1982.00,0.0041
1981.00,0.0042
1980.00,0.0040
1979.00,0.0037
1978.00,0.0032
1977.00,0.0030
1976.00,0.0029
1975.00,0.0028
1974.00,0.0027
1973.00,0.0027
1972.00,0.0028
1971.00,0.0029
1970.00,0.0030
1969.00,0.0031
1968.00,0.0032
1967.00,0.0033
1966.00,0.0033
1965.00,0.0033
1964.00,0.0032
1963.00,0.0031
1962.00,0.0029
1961.00,0.0028
1960.00,0.0027
1959.00,0.0026
1958.00,0.0026
1957.00,0.0027
1956.00,0.0029
1955.00,0.0031
1954.00,0.0032
1953.00,0.0032
1952.00,0.0032
1951.00,0.0031
1950.00,0.0030
1949.00,0.0030
1948.00,0.0030
1947.00,0.0031
1946.00,0.0032
1945.00,0.0032
1944.00,0.0032
1943.00,0.0032
1942.00,0.0031
1941.00,0.0030
1940.00,0.0031
1939.00,0.0031
1938.00,0.0030
1937.00,0.0030
1936.00,0.0030
1935.00,0.0031
1934.00,0.0032
1933.00,0.0033
1932.00,0.0034
1931.00,0.0035
1930.00,0.0034
1929.00,0.0034
1928.00,0.0033
1927.00,0.0033
1926.00,0.0032
1925.00,0.0033
1924.00,0.0035
1923.00,0.0036
1922.00,0.0036
1921.00,0.0036
1920.00,0.0036
1919.00,0.0036
1918.00,0.0035
1917.00,0.0034
1916.00,0.0033
1915.00,0.0032
1914.00,0.0032
1913.00,0.0031
1912.00,0.0032
1911.00,0.0033
1910.00,0.0033
1909.00,0.0033
1908.00,0.0032
1907.00,0.0032
1906.00,0.0031
1905.00,0.0031
1904.00,0.0032
1903.00,0.0032
1902.00,0.0032
1901.00,0.0031
1900.00,0.0031
1899.00,0.0031
1898.00,0.0032
1897.00,0.0033
1896.00,0.0033
1895.00,0.0034
1894.00,0.0034
1893.00,0.0034
1892.00,0.0034
1891.00,0.0035
1890.00,0.0035
1889.00,0.0034
1888.00,0.0034
1887.00,0.0033
1886.00,0.0033
1885.00,0.0033
1884.00,0.0032
1883.00,0.0032
1882.00,0.0031
1881.00,0.0031
1880.00,0.0031
1879.00,0.0031
1878.00,0.0031
1877.00,0.0031
1876.00,0.0030
1875.00,0.0030
1874.00,0.0030
1873.00,0.0031
1872.00,0.0032
1871.00,0.0033
1870.00,0.0034
1869.00,0.0034
1868.00,0.0034
1867.00,0.0033
1866.00,0.0032
1865.00,0.0032
1864.00,0.0032
1863.00,0.0032
1862.00,0.0032
1861.00,0.0032
1860.00,0.0032
1859.00,0.0032
1858.00,0.0031
1857.00,0.0031
1856.00,0.0032
1855.00,0.0032
1854.00,0.0033
1853.00,0.0033
1852.00,0.0034
1851.00,0.0035
1850.00,0.0035
1849.00,0.0036
1848.00,0.0037
1847.00,0.0037
1846.00,0.0036
1845.00,0.0034
1844.00,0.0033
1843.00,0.0032
1842.00,0.0032
1841.00,0.0032
1840.00,0.0031
1839.00,0.0031
1838.00,0.0032
1837.00,0.0032
1836.00,0.0032
1835.00,0.0031
1834.00,0.0031
1833.00,0.0031
1832.00,0.0032
1831.00,0.0032
1830.00,0.0032
1829.00,0.0032
1828.00,0.0032
1827.00,0.0032
1826.00,0.0032
1825.00,0.0032
1824.00,0.0032
1823.00,0.0031
1822.00,0.0030
1821.00,0.0029
1820.00,0.0029
1819.00,0.0029
1818.00,0.0028
1817.00,0.0028
1816.00,0.0029
1815.00,0.0029
1814.00,0.0030
1813.00,0.0030
1812.00,0.0031
1811.00,0.0032
1810.00,0.0032
1809.00,0.0032
1808.00,0.0031
1807.00,0.0031
1806.00,0.0031
1805.00,0.0032
1804.00,0.0034
1803.00,0.0035
1802.00,0.0036
1801.00,0.0036
1800.00,0.0035
1799.00,0.0034
1798.00,0.0034
1797.00,0.0034
1796.00,0.0035
1795.00,0.0035
1794.00,0.0035
1793.00,0.0034
1792.00,0.0034
1791.00,0.0034
1790.00,0.0033
1789.00,0.0033
1788.00,0.0032
1787.00,0.0033
1786.00,0.0033
1785.00,0.0034
1784.00,0.0034
1783.00,0.0034
1782.00,0.0034
1781.00,0.0034
1780.00,0.0034
1779.00,0.0034
1778.00,0.0034
1777.00,0.0034
1776.00,0.0035
1775.00,0.0036
1774.00,0.0035
1773.00,0.0035
1772.00,0.0035
1771.00,0.0036
1770.00,0.0036
1769.00,0.0037
1768.00,0.0037
1767.00,0.0036
1766.00,0.0035
1765.00,0.0035
1764.00,0.0036
1763.00,0.0036
1762.00,0.0037
1761.00,0.0038
1760.00,0.0039
1759.00,0.0040
1758.00,0.0040
1757.00,0.0040
1756.00,0.0040
1755.00,0.0041
1754.00,0.0042
1753.00,0.0043
1752.00,0.0045
1751.00,0.0048
1750.00,0.0049
1749.00,0.0049
1748.00,0.0050
1747.00,0.0050
1746.00,0.0050
1745.00,0.0052
1744.00,0.0053
1743.00,0.0054
1742.00,0.0054
1741.00,0.0054
1740.00,0.0055
1739.00,0.0057
1738.00,0.0060
1737.00,0.0063
1736.00,0.0065
1735.00,0.0068
1734.00,0.0070
1733.00,0.0073
1732.00,0.0075
1731.00,0.0077
1730.00,0.0077
1729.00,0.0078
1728.00,0.0079
1727.00,0.0081
1726.00,0.0083
1725.00,0.0084
1724.00,0.0085
1723.00,0.0086
1722.00,0.0085
1721.00,0.0085
1720.00,0.0085
1719.00,0.0085
1718.00,0.0085
1717.00,0.0085
1716.00,0.0086
1715.00,0.0087
1714.00,0.0089
1713.00,0.0092
1712.00,0.0096
1711.00,0.0101
1710.00,0.0106
1709.00,0.0112
1708.00,0.0119
1707.00,0.0125
1706.00,0.0132
1705.00,0.0139
1704.00,0.0146
1703.00,0.0151
1702.00,0.0155
1701.00,0.0162
1700.00,0.0175
1699.00,0.0190
1698.00,0.0205
1697.00,0.0225
1696.00,0.0257
1695.00,0.0299
1694.00,0.0344
1693.00,0.0392
1692.00,0.0444
1691.00,0.0499
1690.00,0.0550
1689.00,0.0588
1688.00,0.0606
1687.00,0.0609
1686.00,0.0603
1685.00,0.0603
1684.00,0.0615
1683.00,0.0636
1682.00,0.0660
1681.00,0.0687
1680.00,0.0716
1679.00,0.0740
1678.00,0.0751
1677.00,0.0747
1676.00,0.0726
1675.00,0.0690
1674.00,0.0646
1673.00,0.0600
1672.00,0.0554
1671.00,0.0506
1670.00,0.0459
1669.00,0.0418
1668.00,0.0383
1667.00,0.0356
1666.00,0.0334
1665.00,0.0315
1664.00,0.0297
1663.00,0.0282
1662.00,0.0269
1661.00,0.0259
1660.00,0.0250
1659.00,0.0243
1658.00,0.0238
1657.00,0.0235
1656.00,0.0233
1655.00,0.0235
1654.00,0.0246
1653.00,0.0270
1652.00,0.0297
1651.00,0.0318
1650.00,0.0335
1649.00,0.0349
1648.00,0.0364
1647.00,0.0374
1646.00,0.0374
1645.00,0.0365
1644.00,0.0350
1643.00,0.0331
1642.00,0.0312
1641.00,0.0294
1640.00,0.0277
1639.00,0.0264
1638.00,0.0252
1637.00,0.0243
1636.00,0.0237
1635.00,0.0236
1634.00,0.0239
1633.00,0.0246
1632.00,0.0253
1631.00,0.0262
1630.00,0.0271
1629.00,0.0281
1628.00,0.0289
1627.00,0.0294
1626.00,0.0295
1625.00,0.0296
1624.00,0.0295
1623.00,0.0296
1622.00,0.0296
1621.00,0.0296
1620.00,0.0294
1619.00,0.0291
1618.00,0.0287
1617.00,0.0281
1616.00,0.0274
1615.00,0.0266
1614.00,0.0257
1613.00,0.0248
1612.00,0.0238
1611.00,0.0230
1610.00,0.0224
1609.00,0.0221
1608.00,0.0220
1607.00,0.0223
1606.00,0.0229
1605.00,0.0235
1604.00,0.0238
1603.00,0.0235
1602.00,0.0224
1601.00,0.0209
1600.00,0.0192
1599.00,0.0176
1598.00,0.0164
1597.00,0.0155
1596.00,0.0147
1595.00,0.0141
1594.00,0.0136
1593.00,0.0131
1592.00,0.0126
1591.00,0.0121
1590.00,0.0116
1589.00,0.0111
1588.00,0.0107
1587.00,0.0103
1586.00,0.0100
1585.00,0.0098
1584.00,0.0096
1583.00,0.0095
1582.00,0.0094
1581.00,0.0095
1580.00,0.0097
1579.00,0.0101
1578.00,0.0106
1577.00,0.0113
1576.00,0.0121
1575.00,0.0126
1574.00,0.0127
1573.00,0.0125
1572.00,0.0119
1571.00,0.0113
1570.00,0.0107
1569.00,0.0103
1568.00,0.0100
1567.00,0.0098
1566.00,0.0096
1565.00,0.0096
1564.00,0.0096
1563.00,0.0096
1562.00,0.0097
1561.00,0.0097
1560.00,0.0098
1559.00,0.0099
1558.00,0.0098
1557.00,0.0099
1556.00,0.0099
1555.00,0.0099
1554.00,0.0099
1553.00,0.0099
1552.00,0.0100
1551.00,0.0102
1550.00,0.0103
1549.00,0.0103
1548.00,0.0104
1547.00,0.0106
1546.00,0.0110
1545.00,0.0116
1544.00,0.0121
1543.00,0.0124
1542.00,0.0129
1541.00,0.0138
1540.00,0.0152
1539.00,0.0171
1538.00,0.0193
1537.00,0.0216
1536.00,0.0244
1535.00,0.0283
1534.00,0.0341
1533.00,0.0411
1532.00,0.0476
1531.00,0.0532
1530.00,0.0579
1529.00,0.0619
1528.00,0.0648
1527.00,0.0660
1526.00,0.0654
1525.00,0.0633
1524.00,0.0602
1523.00,0.0565
1522.00,0.0522
1521.00,0.0476
1520.00,0.0436
1519.00,0.0404
1518.00,0.0376
1517.00,0.0351
1516.00,0.0329
1515.00,0.0310
1514.00,0.0293
1513.00,0.0279
1512.00,0.0268
1511.00,0.0262
1510.00,0.0259
1509.00,0.0260
1508.00,0.0266
1507.00,0.0279
1506.00,0.0297
1505.00,0.0317
1504.00,0.0339
1503.00,0.0363
1502.00,0.0391
1501.00,0.0423
1500.00,0.0457
1499.00,0.0491
1498.00,0.0524
1497.00,0.0552
1496.00,0.0573
1495.00,0.0584
1494.00,0.0587
1493.00,0.0583
1492.00,0.0576
1491.00,0.0568
1490.00,0.0559
1489.00,0.0545
1488.00,0.0526
1487.00,0.0506
1486.00,0.0485
1485.00,0.0465
1484.00,0.0446
1483.00,0.0427
1482.00,0.0410
1481.00,0.0394
1480.00,0.0380
1479.00,0.0368
1478.00,0.0357
1477.00,0.0347
1476.00,0.0336
1475.00,0.0326
1474.00,0.0315
1473.00,0.0305
1472.00,0.0294
1471.00,0.0286
1470.00,0.0280
1469.00,0.0276
1468.00,0.0273
1467.00,0.0270
1466.00,0.0268
1465.00,0.0266
1464.00,0.0263
1463.00,0.0259
1462.00,0.0255
1461.00,0.0252
1460.00,0.0249
1459.00,0.0248
1458.00,0.0247
1457.00,0.0247
1456.00,0.0244
1455.00,0.0240
1454.00,0.0237
1453.00,0.0234
1452.00,0.0232
1451.00,0.0232
1450.00,0.0235
1449.00,0.0241
1448.00,0.0250
1447.00,0.0262
1446.00,0.0276
1445.00,0.0289
1444.00,0.0300
1443.00,0.0308
1442.00,0.0315
1441.00,0.0323
1440.00,0.0333
1439.00,0.0350
1438.00,0.0378
1437.00,0.0419
1436.00,0.0465
1435.00,0.0505
1434.00,0.0537
1433.00,0.0563
1432.00,0.0577
1431.00,0.0575
1430.00,0.0555
1429.00,0.0521
1428.00,0.0481
1427.00,0.0442
1426.00,0.0407
1425.00,0.0376
1424.00,0.0348
1423.00,0.0324
1422.00,0.0304
1421.00,0.0287
1420.00,0.0272
1419.00,0.0258
1418.00,0.0245
1417.00,0.0232
1416.00,0.0219
1415.00,0.0208
1414.00,0.0198
1413.00,0.0190
1412.00,0.0183
1411.00,0.0177
1410.00,0.0171
1409.00,0.0165
1408.00,0.0160
1407.00,0.0157
1406.00,0.0153
1405.00,0.0150
1404.00,0.0146
1403.00,0.0142
1402.00,0.0139
1401.00,0.0138
1400.00,0.0137
1399.00,0.0137
1398.00,0.0137
1397.00,0.0137
1396.00,0.0136
1395.00,0.0137
1394.00,0.0138
1393.00,0.0140
1392.00,0.0143
1391.00,0.0148
1390.00,0.0154
1389.00,0.0162
1388.00,0.0169
1387.00,0.0175
1386.00,0.0179
1385.00,0.0183
1384.00,0.0187
1383.00,0.0194
1382.00,0.0203
1381.00,0.0211
1380.00,0.0217
1379.00,0.0218
1378.00,0.0213
1377.00,0.0204
1376.00,0.0192
1375.00,0.0180
1374.00,0.0169
1373.00,0.0158
1372.00,0.0149
1371.00,0.0143
1370.00,0.0140
1369.00,0.0137
1368.00,0.0137
1367.00,0.0137
1366.00,0.0140
1365.00,0.0146
1364.00,0.0155
1363.00,0.0165
1362.00,0.0176
1361.00,0.0187
1360.00,0.0200
1359.00,0.0214
1358.00,0.0232
1357.00,0.0254
1356.00,0.0281
1355.00,0.0317
1354.00,0.0362
1353.00,0.0416
1352.00,0.0476
1351.00,0.0536
1350.00,0.0584
1349.00,0.0612
1348.00,0.0616
1347.00,0.0599
1346.00,0.0572
1345.00,0.0543
1344.00,0.0521
1343.00,0.0508
1342.00,0.0503
1341.00,0.0500
1340.00,0.0494
1339.00,0.0482
1338.00,0.0462
1337.00,0.0436
1336.00,0.0407
1335.00,0.0378
1334.00,0.0350
1333.00,0.0324
1332.00,0.0302
1331.00,0.0284
1330.00,0.0270
1329.00,0.0261
1328.00,0.0256
1327.00,0.0255
1326.00,0.0258
1325.00,0.0267
1324.00,0.0284
1323.00,0.0308
1322.00,0.0337
1321.00,0.0366
1320.00,0.0393
1319.00,0.0414
1318.00,0.0431
1317.00,0.0445
1316.00,0.0459
1315.00,0.0477
1314.00,0.0496
1313.00,0.0514
1312.00,0.0531
1311.00,0.0545
1310.00,0.0554
1309.00,0.0557
1308.00,0.0553
1307.00,0.0541
1306.00,0.0522
1305.00,0.0500
1304.00,0.0476
1303.00,0.0452
1302.00,0.0429
1301.00,0.0408
1300.00,0.0389
1299.00,0.0372
1298.00,0.0357
1297.00,0.0345
1296.00,0.0335
1295.00,0.0329
1294.00,0.0326
1293.00,0.0327
1292.00,0.0329
1291.00,0.0331
1290.00,0.0330
1289.00,0.0326
1288.00,0.0318
1287.00,0.0309
1286.00,0.0300
1285.00,0.0292
1284.00,0.0285
1283.00,0.0279
1282.00,0.0275
1281.00,0.0271
1280.00,0.0269
1279.00,0.0268
1278.00,0.0268
1277.00,0.0269
1276.00,0.0270
1275.00,0.0273
1274.00,0.0276
1273.00,0.0280
1272.00,0.0285
1271.00,0.0288
1270.00,0.0289
1269.00,0.0287
1268.00,0.0280
1267.00,0.0269
1266.00,0.0256
1265.00,0.0242
1264.00,0.0229
1263.00,0.0217
1262.00,0.0208
1261.00,0.0200
1260.00,0.0194
1259.00,0.0189
1258.00,0.0185
1257.00,0.0182
1256.00,0.0180
1255.00,0.0179
1254.00,0.0179
1253.00,0.0180
1252.00,0.0181
1251.00,0.0184
1250.00,0.0186
1249.00,0.0190
1248.00,0.0193
1247.00,0.0198
1246.00,0.0204
1245.00,0.0211
1244.00,0.0221
1243.00,0.0234
1242.00,0.0251
1241.00,0.0273
1240.00,0.0298
1239.00,0.0326
1238.00,0.0353
1237.00,0.0381
1236.00,0.0413
1235.00,0.0452
1234.00,0.0502
1233.00,0.0562
1232.00,0.0629
1231.00,0.0701
1230.00,0.0773
1229.00,0.0845
1228.00,0.0911
1227.00,0.0967
1226.00,0.1009
1225.00,0.1034
1224.00,0.1039
1223.00,0.1028
1222.00,0.1004
1221.00,0.0971
1220.00,0.0933
1219.00,0.0893
1218.00,0.0854
1217.00,0.0816
1216.00,0.0779
1215.00,0.0743
1214.00,0.0708
1213.00,0.0673
1212.00,0.0639
1211.00,0.0606
1210.00,0.0574
1209.00,0.0543
1208.00,0.0513
1207.00,0.0486
1206.00,0.0460
1205.00,0.0437
1204.00,0.0416
1203.00,0.0397
1202.00,0.0380
1201.00,0.0367
1200.00,0.0357
1199.00,0.0353
1198.00,0.0355
1197.00,0.0365
1196.00,0.0386
1195.00,0.0419
1194.00,0.0463
1193.00,0.0514
1192.00,0.0565
1191.00,0.0608
1190.00,0.0636
1189.00,0.0644
1188.00,0.0632
1187.00,0.0604
1186.00,0.0567
1185.00,0.0528
1184.00,0.0490
1183.00,0.0457
1182.00,0.0426
1181.00,0.0398
1180.00,0.0372
1179.00,0.0348
1178.00,0.0328
1177.00,0.0311
1176.00,0.0296
1175.00,0.0285
1174.00,0.0276
1173.00,0.0271
1172.00,0.0268
1171.00,0.0269
1170.00,0.0276
1169.00,0.0288
1168.00,0.0307
1167.00,0.0331
1166.00,0.0356
1165.00,0.0376
1164.00,0.0384
1163.00,0.0377
1162.00,0.0358
1161.00,0.0332
1160.00,0.0306
1159.00,0.0286
1158.00,0.0275
1157.00,0.0277
1156.00,0.0293
1155.00,0.0323
1154.00,0.0360
1153.00,0.0394
1152.00,0.0414
1151.00,0.0413
1150.00,0.0394
1149.00,0.0364
1148.00,0.0332
1147.00,0.0304
1146.00,0.0280
1145.00,0.0261
1144.00,0.0245
1143.00,0.0233
1142.00,0.0224
1141.00,0.0219
1140.00,0.0217
1139.00,0.0217
1138.00,0.0220
1137.00,0.0223
1136.00,0.0226
1135.00,0.0229
1134.00,0.0232
1133.00,0.0236
1132.00,0.0243
1131.00,0.0255
1130.00,0.0274
1129.00,0.0302
1128.00,0.0342
1127.00,0.0395
1126.00,0.0461
1125.00,0.0539
1124.00,0.0621
1123.00,0.0700
1122.00,0.0767
1121.00,0.0812
1120.00,0.0834
1119.00,0.0833
1118.00,0.0813
1117.00,0.0780
1116.00,0.0739
1115.00,0.0695
1114.00,0.0651
1113.00,0.0610
1112.00,0.0575
1111.00,0.0546
1110.00,0.0526
1109.00,0.0516
1108.00,0.0516
1107.00,0.0528
1106.00,0.0553
1105.00,0.0586
1104.00,0.0625
1103.00,0.0661
1102.00,0.0688
1101.00,0.0701
1100.00,0.0697
1099.00,0.0679
1098.00,0.0651
1097.00,0.0617
1096.00,0.0581
1095.00,0.0545
1094.00,0.0512
1093.00,0.0480
1092.00,0.0451
1091.00,0.0424
1090.00,0.0399
1089.00,0.0376
1088.00,0.0356
1087.00,0.0338
1086.00,0.0322
1085.00,0.0308
1084.00,0.0297
1083.00,0.0287
1082.00,0.0278
1081.00,0.0270
1080.00,0.0263
1079.00,0.0258
1078.00,0.0253
1077.00,0.0249
1076.00,0.0247
1075.00,0.0246
1074.00,0.0248
1073.00,0.0251
1072.00,0.0255
1071.00,0.0256
1070.00,0.0256
1069.00,0.0252
1068.00,0.0245
1067.00,0.0238
1066.00,0.0232
1065.00,0.0229
1064.00,0.0228
1063.00,0.0232
1062.00,0.0240
1061.00,0.0254
1060.00,0.0273
1059.00,0.0299
1058.00,0.0328
1057.00,0.0356
1056.00,0.0380
1055.00,0.0394
1054.00,0.0399
1053.00,0.0395
1052.00,0.0385
1051.00,0.0374
1050.00,0.0363
1049.00,0.0352
1048.00,0.0341
1047.00,0.0328
1046.00,0.0316
1045.00,0.0305
1044.00,0.0297
1043.00,0.0291
1042.00,0.0289
1041.00,0.0288
1040.00,0.0288
1039.00,0.0289
1038.00,0.0291
1037.00,0.0293
1036.00,0.0296
1035.00,0.0299
1034.00,0.0303
1033.00,0.0309
1032.00,0.0317
1031.00,0.0329
1030.00,0.0344
1029.00,0.0365
1028.00,0.0391
1027.00,0.0423
1026.00,0.0458
1025.00,0.0494
1024.00,0.0527
1023.00,0.0553
1022.00,0.0570
1021.00,0.0575
1020.00,0.0570
1019.00,0.0555
1018.00,0.0532
1017.00,0.0506
1016.00,0.0478
1015.00,0.0449
1014.00,0.0421
1013.00,0.0395
1012.00,0.0372
1011.00,0.0352
1010.00,0.0333
1009.00,0.0316
1008.00,0.0301
1007.00,0.0288
1006.00,0.0278
1005.00,0.0270
1004.00,0.0264
1003.00,0.0260
1002.00,0.0255
1001.00,0.0249
1000.00,0.0241
999.00,0.0233
998.00,0.0225
997.00,0.0218
996.00,0.0213
995.00,0.0209
994.00,0.0204
993.00,0.0201
992.00,0.0197
991.00,0.0194
990.00,0.0190
989.00,0.0188
988.00,0.0185
987.00,0.0183
986.00,0.0180
985.00,0.0178
984.00,0.0176
983.00,0.0175
982.00,0.0173
981.00,0.0171
980.00,0.0169
979.00,0.0167
978.00,0.0165
977.00,0.0164
976.00,0.0162
975.00,0.0161
974.00,0.0161
973.00,0.0162
972.00,0.0164
971.00,0.0166
970.00,0.0168
969.00,0.0169
968.00,0.0168
967.00,0.0167
966.00,0.0167
965.00,0.0170
964.00,0.0176
963.00,0.0182
962.00,0.0184
961.00,0.0182
960.00,0.0178
959.00,0.0176
958.00,0.0178
957.00,0.0183
956.00,0.0191
955.00,0.0197
954.00,0.0200
953.00,0.0198
952.00,0.0192
951.00,0.0185
950.00,0.0177
949.00,0.0169
948.00,0.0163
947.00,0.0157
946.00,0.0153
945.00,0.0149
944.00,0.0146
943.00,0.0143
942.00,0.0140
941.00,0.0138
940.00,0.0136
939.00,0.0134
938.00,0.0133
937.00,0.0131
936.00,0.0130
935.00,0.0129
934.00,0.0128
933.00,0.0127
932.00,0.0126
931.00,0.0125
930.00,0.0124
929.00,0.0123
928.00,0.0123
927.00,0.0122
926.00,0.0123
925.00,0.0124
924.00,0.0125
923.00,0.0125
922.00,0.0126
921.00,0.0125
920.00,0.0124
919.00,0.0122
918.00,0.0120
917.00,0.0119
916.00,0.0117
915.00,0.0116
914.00,0.0116
913.00,0.0115
912.00,0.0114
911.00,0.0113
910.00,0.0112
909.00,0.0112
908.00,0.0111
907.00,0.0111
906.00,0.0111
905.00,0.0110
904.00,0.0110
903.00,0.0109
902.00,0.0108
901.00,0.0108
900.00,0.0108
899.00,0.0108
898.00,0.0107
897.00,0.0107
896.00,0.0106
895.00,0.0106
894.00,0.0106
893.00,0.0105
892.00,0.0105
891.00,0.0105
890.00,0.0105
889.00,0.0104
888.00,0.0104
887.00,0.0105
886.00,0.0107
885.00,0.0110
884.00,0.0112
883.00,0.0113
882.00,0.0111
881.00,0.0107
880.00,0.0104
879.00,0.0101
878.00,0.0099
877.00,0.0098
876.00,0.0097
875.00,0.0097
874.00,0.0097
873.00,0.0097
872.00,0.0098
871.00,0.0098
870.00,0.0098
869.00,0.0099
868.00,0.0100
867.00,0.0101
866.00,0.0102
865.00,0.0106
864.00,0.0112
863.00,0.0127
862.00,0.0157
861.00,0.0208
860.00,0.0268
859.00,0.0314
858.00,0.0322
857.00,0.0291
856.00,0.0241
855.00,0.0194
854.00,0.0162
853.00,0.0142
852.00,0.0130
851.00,0.0123
850.00,0.0118
849.00,0.0114
848.00,0.0111
847.00,0.0109
846.00,0.0108
845.00,0.0108
844.00,0.0109
843.00,0.0110
842.00,0.0113
841.00,0.0119
840.00,0.0129
839.00,0.0147
838.00,0.0175
837.00,0.0214
836.00,0.0258
835.00,0.0300
834.00,0.0337
833.00,0.0370
832.00,0.0404
831.00,0.0438
830.00,0.0464
829.00,0.0472
828.00,0.0458
827.00,0.0426
826.00,0.0384
825.00,0.0342
824.00,0.0305
823.00,0.0274
822.00,0.0248
821.00,0.0226
820.00,0.0206
819.00,0.0188
818.00,0.0173
817.00,0.0160
816.00,0.0150
815.00,0.0142
814.00,0.0136
813.00,0.0132
812.00,0.0131
811.00,0.0133
810.00,0.0137
809.00,0.0143
808.00,0.0150
807.00,0.0155
806.00,0.0156
805.00,0.0150
804.00,0.0142
803.00,0.0134
802.00,0.0130
801.00,0.0132
800.00,0.0141
799.00,0.0165
798.00,0.0214
797.00,0.0295
796.00,0.0400
795.00,0.0503
794.00,0.0567
793.00,0.0571
792.00,0.0527
791.00,0.0462
790.00,0.0400
789.00,0.0350
788.00,0.0308
787.00,0.0273
786.00,0.0244
785.00,0.0222
784.00,0.0205
783.00,0.0192
782.00,0.0183
781.00,0.0175
780.00,0.0168
779.00,0.0163
778.00,0.0159
777.00,0.0159
776.00,0.0163
775.00,0.0172
774.00,0.0184
773.00,0.0193
772.00,0.0195
771.00,0.0189
770.00,0.0181
769.00,0.0178
768.00,0.0189
767.00,0.0220
766.00,0.0272
765.00,0.0340
764.00,0.0406
763.00,0.0448
762.00,0.0454
761.00,0.0427
760.00,0.0382
759.00,0.0337
758.00,0.0299
757.00,0.0271
756.00,0.0251
755.00,0.0237
754.00,0.0228
753.00,0.0224
752.00,0.0228
751.00,0.0243
750.00,0.0271
749.00,0.0316
748.00,0.0379
747.00,0.0450
746.00,0.0512
745.00,0.0545
744.00,0.0538
743.00,0.0498
742.00,0.0442
741.00,0.0386
740.00,0.0336
739.00,0.0295
738.00,0.0262
737.00,0.0236
736.00,0.0215
735.00,0.0199
734.00,0.0186
733.00,0.0176
732.00,0.0169
731.00,0.0163
730.00,0.0159
729.00,0.0154
728.00,0.0151
727.00,0.0148
726.00,0.0145
725.00,0.0144
724.00,0.0143
723.00,0.0145
722.00,0.0148
721.00,0.0153
720.00,0.0163
719.00,0.0179
718.00,0.0208
717.00,0.0256
716.00,0.0328
715.00,0.0419
714.00,0.0512
713.00,0.0577
712.00,0.0593
711.00,0.0561
710.00,0.0499
709.00,0.0431
708.00,0.0371
707.00,0.0324
706.00,0.0289
705.00,0.0265
704.00,0.0248
703.00,0.0234
702.00,0.0224
701.00,0.0217
700.00,0.0212
699.00,0.0210
698.00,0.0211
697.00,0.0214
696.00,0.0220
695.00,0.0230
694.00,0.0244
693.00,0.0264
692.00,0.0290
691.00,0.0321
690.00,0.0356
689.00,0.0391
688.00,0.0422
687.00,0.0441
686.00,0.0443
685.00,0.0427
684.00,0.0399
683.00,0.0365
682.00,0.0333
681.00,0.0308
680.00,0.0292
679.00,0.0286
678.00,0.0289
677.00,0.0301
676.00,0.0317
675.00,0.0333
674.00,0.0341
673.00,0.0339
672.00,0.0327
671.00,0.0310
670.00,0.0294
669.00,0.0282
668.00,0.0276
667.00,0.0276
666.00,0.0278
665.00,0.0281
664.00,0.0284
663.00,0.0287
662.00,0.0287
661.00,0.0284
660.00,0.0278
659.00,0.0269
658.00,0.0260
657.00,0.0249
656.00,0.0239
655.00,0.0229
654.00,0.0219
653.00,0.0210
652.00,0.0202
651.00,0.0194
650.00,0.0187
649.00,0.0181
648.00,0.0174
647.00,0.0168
646.00,0.0164
645.00,0.0160
644.00,0.0157
643.00,0.0154
642.00,0.0151
641.00,0.0147
640.00,0.0144
639.00,0.0141
638.00,0.0138
637.00,0.0137
636.00,0.0137
635.00,0.0138
634.00,0.0139
633.00,0.0142
632.00,0.0146
631.00,0.0154
630.00,0.0167
629.00,0.0187
628.00,0.0214
627.00,0.0249
626.00,0.0288
625.00,0.0326
624.00,0.0354
623.00,0.0367
622.00,0.0364
621.00,0.0349
620.00,0.0328
619.00,0.0305
618.00,0.0283
617.00,0.0264
616.00,0.0247
615.00,0.0235
614.00,0.0226
613.00,0.0222
612.00,0.0223
611.00,0.0229
610.00,0.0238
609.00,0.0246
608.00,0.0249
607.00,0.0246
606.00,0.0237
605.00,0.0224
604.00,0.0211
603.00,0.0200
602.00,0.0191
601.00,0.0182
600.00,0.0175
599.00,0.0169
598.00,0.0165
597.00,0.0164
596.00,0.0165
595.00,0.0170
594.00,0.0179
593.00,0.0193
592.00,0.0209
591.00,0.0223
590.00,0.0229
589.00,0.0228
588.00,0.0225
587.00,0.0225
586.00,0.0231
585.00,0.0238
584.00,0.0240
583.00,0.0235
582.00,0.0222
581.00,0.0205
580.00,0.0190
579.00,0.0179
578.00,0.0172
577.00,0.0167
576.00,0.0165
575.00,0.0164
574.00,0.0163
573.00,0.0164
572.00,0.0167
571.00,0.0171
570.00,0.0175
569.00,0.0180
568.00,0.0185
567.00,0.0190
566.00,0.0196
565.00,0.0201
564.00,0.0204
563.00,0.0202
562.00,0.0196
561.00,0.0187
560.00,0.0176
559.00,0.0167
558.00,0.0160
557.00,0.0156
556.00,0.0152
555.00,0.0149
554.00,0.0146
553.00,0.0144
552.00,0.0142
551.00,0.0141
550.00,0.0139
549.00,0.0137
548.00,0.0133
547.00,0.0130
546.00,0.0129
545.00,0.0128
544.00,0.0128
543.00,0.0127
542.00,0.0125
541.00,0.0123
540.00,0.0121
539.00,0.0120
538.00,0.0121
537.00,0.0123
536.00,0.0123
535.00,0.0123
534.00,0.0123
533.00,0.0122
532.00,0.0121
531.00,0.0119
530.00,0.0117
529.00,0.0116
528.00,0.0115
527.00,0.0115
526.00,0.0116
525.00,0.0116
524.00,0.0114
523.00,0.0112
522.00,0.0110
521.00,0.0110
520.00,0.0112
519.00,0.0115
518.00,0.0118
517.00,0.0121
516.00,0.0123
515.00,0.0126
514.00,0.0129
513.00,0.0131
512.00,0.0132
511.00,0.0130
510.00,0.0128
509.00,0.0124
508.00,0.0122
507.00,0.0120
506.00,0.0119
505.00,0.0117
504.00,0.0115
503.00,0.0113
502.00,0.0112
501.00,0.0111
500.00,0.0110
499.00,0.0110
498.00,0.0110
497.00,0.0111
496.00,0.0111
495.00,0.0112
494.00,0.0113
493.00,0.0112
492.00,0.0110
491.00,0.0109
490.00,0.0109
489.00,0.0110
488.00,0.0111
487.00,0.0110
486.00,0.0110
485.00,0.0111
484.00,0.0112
483.00,0.0114
482.00,0.0118
481.00,0.0120
480.00,0.0123
479.00,0.0126
478.00,0.0131
477.00,0.0137
476.00,0.0145
475.00,0.0154
474.00,0.0167
473.00,0.0183
472.00,0.0200
471.00,0.0215
470.00,0.0229
469.00,0.0239
468.00,0.0245
467.00,0.0245
466.00,0.0239
465.00,0.0229
464.00,0.0218
463.00,0.0206
462.00,0.0196
461.00,0.0186
460.00,0.0178
459.00,0.0171
458.00,0.0165
457.00,0.0159
456.00,0.0154
455.00,0.0151
454.00,0.0148
453.00,0.0144
452.00,0.0139
451.00,0.0135
450.00,0.0133
449.00,0.0131
448.00,0.0129
447.00,0.0128
446.00,0.0128
445.00,0.0127
444.00,0.0125
443.00,0.0122
442.00,0.0119
441.00,0.0114
440.00,0.0110
439.00,0.0106
438.00,0.0107
437.00,0.0109
436.00,0.0112
435.00,0.0115
434.00,0.0116
433.00,0.0115
432.00,0.0114
431.00,0.0115
430.00,0.0117
429.00,0.0119
428.00,0.0120
427.00,0.0123
426.00,0.0127
425.00,0.0130
424.00,0.0131
423.00,0.0131
422.00,0.0131
421.00,0.0135
420.00,0.0143
419.00,0.0158
418.00,0.0174
417.00,0.0185
416.00,0.0192
415.00,0.0199
414.00,0.0209
413.00,0.0218
412.00,0.0225
411.00,0.0229
410.00,0.0231
409.00,0.0228
408.00,0.0221
407.00,0.0211
406.00,0.0202
405.00,0.0193
404.00,0.0185
403.00,0.0179
402.00,0.0180
401.00,0.0184
400.00,0.0186
