Created as New Dataset,Sample 720 By YargerLab Date Tuesday, June 24 2025
cm-1,A
4000.00,0.0084
3999.00,0.0084
3998.00,0.0084
3997.00,0.0084
3996.00,0.0083
3995.00,0.0083
3994.00,0.0083
3993.00,0.0083
3992.00,0.0083
3991.00,0.0084
3990.00,0.0084
3989.00,0.0084
3988.00,0.0084
3987.00,0.0084
3986.00,0.0084
3985.00,0.0083
3984.00,0.0083
3983.00,0.0083
3982.00,0.0083
3981.00,0.0083
3980.00,0.0083
3979.00,0.0083
3978.00,0.0083
3977.00,0.0083
3976.00,0.0083
3975.00,0.0084
3974.00,0.0084
3973.00,0.0084
3972.00,0.0084
3971.00,0.0084
3970.00,0.0084
3969.00,0.0084
3968.00,0.0083
3967.00,0.0083
3966.00,0.0083
3965.00,0.0083
3964.00,0.0083
3963.00,0.0084
3962.00,0.0084
3961.00,0.0084
3960.00,0.0084
3959.00,0.0084
3958.00,0.0084
3957.00,0.0084
3956.00,0.0084
3955.00,0.0084
3954.00,0.0084
3953.00,0.0084
3952.00,0.0084
3951.00,0.0084
3950.00,0.0084
3949.00,0.0084
3948.00,0.0084
3947.00,0.0084
3946.00,0.0084
3945.00,0.0084
3944.00,0.0084
3943.00,0.0084
3942.00,0.0084
3941.00,0.0084
3940.00,0.0084
3939.00,0.0084
3938.00,0.0084
3937.00,0.0084
3936.00,0.0084
3935.00,0.0084
3934.00,0.0084
3933.00,0.0084
3932.00,0.0084
3931.00,0.0084
3930.00,0.0084
3929.00,0.0084
3928.00,0.0084
3927.00,0.0084
3926.00,0.0083
3925.00,0.0083
3924.00,0.0083
3923.00,0.0083
3922.00,0.0083
3921.00,0.0083
3920.00,0.0083
3919.00,0.0083
3918.00,0.0083
3917.00,0.0083
3916.00,0.0083
3915.00,0.0083
3914.00,0.0083
3913.00,0.0083
3912.00,0.0083
3911.00,0.0083
3910.00,0.0083
3909.00,0.0083
3908.00,0.0083
3907.00,0.0083
3906.00,0.0083
3905.00,0.0083
3904.00,0.0082
3903.00,0.0082
3902.00,0.0082
3901.00,0.0082
3900.00,0.0081
3899.00,0.0081
3898.00,0.0081
3897.00,0.0081
3896.00,0.0081
3895.00,0.0081
3894.00,0.0082
3893.00,0.0082
3892.00,0.0082
3891.00,0.0081
3890.00,0.0081
3889.00,0.0080
3888.00,0.0080
3887.00,0.0080
3886.00,0.0080
3885.00,0.0080
3884.00,0.0080
3883.00,0.0080
3882.00,0.0080
3881.00,0.0080
3880.00,0.0080
3879.00,0.0080
3878.00,0.0080
3877.00,0.0080
3876.00,0.0080
3875.00,0.0080
3874.00,0.0080
3873.00,0.0080
3872.00,0.0080
3871.00,0.0080
3870.00,0.0080
3869.00,0.0080
3868.00,0.0080
3867.00,0.0080
3866.00,0.0080
3865.00,0.0080
3864.00,0.0080
3863.00,0.0080
3862.00,0.0080
3861.00,0.0079
3860.00,0.0079
3859.00,0.0079
3858.00,0.0079
3857.00,0.0080
3856.00,0.0080
3855.00,0.0080
3854.00,0.0080
3853.00,0.0079
3852.00,0.0079
3851.00,0.0079
3850.00,0.0079
3849.00,0.0079
3848.00,0.0080
3847.00,0.0080
3846.00,0.0080
3845.00,0.0080
3844.00,0.0079
3843.00,0.0079
3842.00,0.0079
3841.00,0.0079
3840.00,0.0079
3839.00,0.0079
3838.00,0.0079
3837.00,0.0079
3836.00,0.0079
3835.00,0.0079
3834.00,0.0079
3833.00,0.0079
3832.00,0.0079
3831.00,0.0079
3830.00,0.0079
3829.00,0.0079
3828.00,0.0079
3827.00,0.0079
3826.00,0.0079
3825.00,0.0079
3824.00,0.0078
3823.00,0.0078
3822.00,0.0078
3821.00,0.0078
3820.00,0.0078
3819.00,0.0079
3818.00,0.0079
3817.00,0.0078
3816.00,0.0078
3815.00,0.0078
3814.00,0.0078
3813.00,0.0078
3812.00,0.0078
3811.00,0.0078
3810.00,0.0078
3809.00,0.0079
3808.00,0.0079
3807.00,0.0079
3806.00,0.0079
3805.00,0.0079
3804.00,0.0079
3803.00,0.0079
3802.00,0.0078
3801.00,0.0078
3800.00,0.0078
3799.00,0.0078
3798.00,0.0078
3797.00,0.0078
3796.00,0.0078
3795.00,0.0078
3794.00,0.0078
3793.00,0.0078
3792.00,0.0079
3791.00,0.0079
3790.00,0.0079
3789.00,0.0079
3788.00,0.0079
3787.00,0.0079
3786.00,0.0079
3785.00,0.0079
3784.00,0.0079
3783.00,0.0078
3782.00,0.0078
3781.00,0.0078
3780.00,0.0078
3779.00,0.0078
3778.00,0.0078
3777.00,0.0078
3776.00,0.0078
3775.00,0.0078
3774.00,0.0078
3773.00,0.0078
3772.00,0.0079
3771.00,0.0079
3770.00,0.0079
3769.00,0.0079
3768.00,0.0079
3767.00,0.0079
3766.00,0.0079
3765.00,0.0078
3764.00,0.0078
3763.00,0.0078
3762.00,0.0078
3761.00,0.0079
3760.00,0.0079
3759.00,0.0079
3758.00,0.0078
3757.00,0.0078
3756.00,0.0078
3755.00,0.0078
3754.00,0.0078
3753.00,0.0078
3752.00,0.0078
3751.00,0.0078
3750.00,0.0078
3749.00,0.0077
3748.00,0.0077
3747.00,0.0076
3746.00,0.0076
3745.00,0.0076
3744.00,0.0076
3743.00,0.0076
3742.00,0.0076
3741.00,0.0076
3740.00,0.0077
3739.00,0.0077
3738.00,0.0077
3737.00,0.0077
3736.00,0.0077
3735.00,0.0077
3734.00,0.0076
3733.00,0.0076
3732.00,0.0076
3731.00,0.0076
3730.00,0.0076
3729.00,0.0076
3728.00,0.0076
3727.00,0.0076
3726.00,0.0076
3725.00,0.0076
3724.00,0.0076
3723.00,0.0076
3722.00,0.0076
3721.00,0.0076
3720.00,0.0076
3719.00,0.0076
3718.00,0.0076
3717.00,0.0076
3716.00,0.0076
3715.00,0.0076
3714.00,0.0076
3713.00,0.0075
3712.00,0.0076
3711.00,0.0076
3710.00,0.0076
3709.00,0.0076
3708.00,0.0076
3707.00,0.0076
3706.00,0.0076
3705.00,0.0076
3704.00,0.0076
3703.00,0.0075
3702.00,0.0075
3701.00,0.0075
3700.00,0.0075
3699.00,0.0075
3698.00,0.0075
3697.00,0.0075
3696.00,0.0075
3695.00,0.0074
3694.00,0.0074
3693.00,0.0074
3692.00,0.0074
3691.00,0.0075
3690.00,0.0075
3689.00,0.0075
3688.00,0.0075
3687.00,0.0075
3686.00,0.0075
3685.00,0.0075
3684.00,0.0075
3683.00,0.0075
3682.00,0.0075
3681.00,0.0075
3680.00,0.0075
3679.00,0.0075
3678.00,0.0075
3677.00,0.0075
3676.00,0.0075
3675.00,0.0076
3674.00,0.0076
3673.00,0.0076
3672.00,0.0076
3671.00,0.0076
3670.00,0.0076
3669.00,0.0076
3668.00,0.0077
3667.00,0.0077
3666.00,0.0077
3665.00,0.0077
3664.00,0.0076
3663.00,0.0076
3662.00,0.0076
3661.00,0.0077
3660.00,0.0077
3659.00,0.0077
3658.00,0.0077
3657.00,0.0078
3656.00,0.0078
3655.00,0.0078
3654.00,0.0078
3653.00,0.0078
3652.00,0.0078
3651.00,0.0078
3650.00,0.0078
3649.00,0.0078
3648.00,0.0078
3647.00,0.0078
3646.00,0.0078
3645.00,0.0078
3644.00,0.0078
3643.00,0.0078
3642.00,0.0078
3641.00,0.0078
3640.00,0.0079
3639.00,0.0079
3638.00,0.0079
3637.00,0.0079
3636.00,0.0079
3635.00,0.0079
3634.00,0.0078
3633.00,0.0078
3632.00,0.0078
3631.00,0.0078
3630.00,0.0078
3629.00,0.0078
3628.00,0.0078
3627.00,0.0078
3626.00,0.0078
3625.00,0.0078
3624.00,0.0079
3623.00,0.0079
3622.00,0.0079
3621.00,0.0079
3620.00,0.0080
3619.00,0.0080
3618.00,0.0080
3617.00,0.0080
3616.00,0.0080
3615.00,0.0080
3614.00,0.0080
3613.00,0.0080
3612.00,0.0080
3611.00,0.0080
3610.00,0.0080
3609.00,0.0080
3608.00,0.0080
3607.00,0.0080
3606.00,0.0080
3605.00,0.0080
3604.00,0.0080
3603.00,0.0080
3602.00,0.0080
3601.00,0.0080
3600.00,0.0080
3599.00,0.0080
3598.00,0.0080
3597.00,0.0080
3596.00,0.0080
3595.00,0.0080
3594.00,0.0080
3593.00,0.0080
3592.00,0.0080
3591.00,0.0080
3590.00,0.0080
3589.00,0.0080
3588.00,0.0080
3587.00,0.0080
3586.00,0.0080
3585.00,0.0080
3584.00,0.0080
3583.00,0.0080
3582.00,0.0080
3581.00,0.0080
3580.00,0.0081
3579.00,0.0081
3578.00,0.0081
3577.00,0.0081
3576.00,0.0081
3575.00,0.0081
3574.00,0.0082
3573.00,0.0082
3572.00,0.0082
3571.00,0.0082
3570.00,0.0082
3569.00,0.0081
3568.00,0.0081
3567.00,0.0081
3566.00,0.0081
3565.00,0.0081
3564.00,0.0082
3563.00,0.0082
3562.00,0.0082
3561.00,0.0083
3560.00,0.0083
3559.00,0.0083
3558.00,0.0084
3557.00,0.0084
3556.00,0.0084
3555.00,0.0084
3554.00,0.0084
3553.00,0.0084
3552.00,0.0084
3551.00,0.0084
3550.00,0.0084
3549.00,0.0084
3548.00,0.0084
3547.00,0.0084
3546.00,0.0085
3545.00,0.0085
3544.00,0.0085
3543.00,0.0086
3542.00,0.0086
3541.00,0.0087
3540.00,0.0087
3539.00,0.0087
3538.00,0.0087
3537.00,0.0087
3536.00,0.0087
3535.00,0.0087
3534.00,0.0087
3533.00,0.0088
3532.00,0.0088
3531.00,0.0088
3530.00,0.0088
3529.00,0.0089
3528.00,0.0089
3527.00,0.0089
3526.00,0.0089
3525.00,0.0089
3524.00,0.0089
3523.00,0.0089
3522.00,0.0089
3521.00,0.0089
3520.00,0.0089
3519.00,0.0090
3518.00,0.0090
3517.00,0.0090
3516.00,0.0090
3515.00,0.0090
3514.00,0.0090
3513.00,0.0091
3512.00,0.0091
3511.00,0.0091
3510.00,0.0092
3509.00,0.0092
3508.00,0.0092
3507.00,0.0093
3506.00,0.0093
3505.00,0.0093
3504.00,0.0093
3503.00,0.0093
3502.00,0.0093
3501.00,0.0094
3500.00,0.0095
3499.00,0.0095
3498.00,0.0096
3497.00,0.0096
3496.00,0.0096
3495.00,0.0097
3494.00,0.0097
3493.00,0.0098
3492.00,0.0099
3491.00,0.0099
3490.00,0.0100
3489.00,0.0100
3488.00,0.0101
3487.00,0.0101
3486.00,0.0101
3485.00,0.0102
3484.00,0.0103
3483.00,0.0103
3482.00,0.0104
3481.00,0.0105
3480.00,0.0105
3479.00,0.0106
3478.00,0.0107
3477.00,0.0108
3476.00,0.0109
3475.00,0.0110
3474.00,0.0111
3473.00,0.0111
3472.00,0.0111
3471.00,0.0111
3470.00,0.0112
3469.00,0.0112
3468.00,0.0113
3467.00,0.0115
3466.00,0.0117
3465.00,0.0119
3464.00,0.0120
3463.00,0.0121
3462.00,0.0122
3461.00,0.0123
3460.00,0.0124
3459.00,0.0125
3458.00,0.0126
3457.00,0.0127
3456.00,0.0128
3455.00,0.0129
3454.00,0.0130
3453.00,0.0130
3452.00,0.0131
3451.00,0.0132
3450.00,0.0133
3449.00,0.0133
3448.00,0.0133
3447.00,0.0134
3446.00,0.0134
3445.00,0.0134
3444.00,0.0134
3443.00,0.0134
3442.00,0.0134
3441.00,0.0134
3440.00,0.0134
3439.00,0.0133
3438.00,0.0133
3437.00,0.0132
3436.00,0.0132
3435.00,0.0132
3434.00,0.0132
3433.00,0.0132
3432.00,0.0131
3431.00,0.0131
3430.00,0.0131
3429.00,0.0131
3428.00,0.0131
3427.00,0.0131
3426.00,0.0131
3425.00,0.0131
3424.00,0.0132
3423.00,0.0132
3422.00,0.0132
3421.00,0.0133
3420.00,0.0133
3419.00,0.0134
3418.00,0.0134
3417.00,0.0135
3416.00,0.0135
3415.00,0.0135
3414.00,0.0136
3413.00,0.0136
3412.00,0.0137
3411.00,0.0138
3410.00,0.0139
3409.00,0.0140
3408.00,0.0142
3407.00,0.0143
3406.00,0.0144
3405.00,0.0144
3404.00,0.0145
3403.00,0.0145
3402.00,0.0146
3401.00,0.0148
3400.00,0.0150
3399.00,0.0152
3398.00,0.0154
3397.00,0.0157
3396.00,0.0159
3395.00,0.0160
3394.00,0.0162
3393.00,0.0164
3392.00,0.0167
3391.00,0.0170
3390.00,0.0173
3389.00,0.0176
3388.00,0.0179
3387.00,0.0182
3386.00,0.0185
3385.00,0.0188
3384.00,0.0191
3383.00,0.0194
3382.00,0.0196
3381.00,0.0199
3380.00,0.0202
3379.00,0.0205
3378.00,0.0208
3377.00,0.0211
3376.00,0.0214
3375.00,0.0217
3374.00,0.0220
3373.00,0.0223
3372.00,0.0225
3371.00,0.0227
3370.00,0.0230
3369.00,0.0234
3368.00,0.0238
3367.00,0.0244
3366.00,0.0250
3365.00,0.0256
3364.00,0.0262
3363.00,0.0268
3362.00,0.0274
3361.00,0.0281
3360.00,0.0288
3359.00,0.0296
3358.00,0.0305
3357.00,0.0314
3356.00,0.0324
3355.00,0.0334
3354.00,0.0344
3353.00,0.0355
3352.00,0.0366
3351.00,0.0379
3350.00,0.0394
3349.00,0.0410
3348.00,0.0426
3347.00,0.0443
3346.00,0.0460
3345.00,0.0478
3344.00,0.0495
3343.00,0.0513
3342.00,0.0531
3341.00,0.0549
3340.00,0.0567
3339.00,0.0586
3338.00,0.0604
3337.00,0.0621
3336.00,0.0637
3335.00,0.0651
3334.00,0.0663
3333.00,0.0673
3332.00,0.0681
3331.00,0.0686
3330.00,0.0690
3329.00,0.0691
3328.00,0.0692
3327.00,0.0691
3326.00,0.0690
3325.00,0.0688
3324.00,0.0685
3323.00,0.0682
3322.00,0.0677
3321.00,0.0672
3320.00,0.0665
3319.00,0.0657
3318.00,0.0648
3317.00,0.0638
3316.00,0.0627
3315.00,0.0615
3314.00,0.0603
3313.00,0.0590
3312.00,0.0578
3311.00,0.0565
3310.00,0.0552
3309.00,0.0540
3308.00,0.0527
3307.00,0.0515
3306.00,0.0504
3305.00,0.0493
3304.00,0.0483
3303.00,0.0474
3302.00,0.0465
3301.00,0.0456
3300.00,0.0447
3299.00,0.0439
3298.00,0.0430
3297.00,0.0422
3296.00,0.0415
3295.00,0.0407
3294.00,0.0400
3293.00,0.0394
3292.00,0.0388
3291.00,0.0382
3290.00,0.0377
3289.00,0.0371
3288.00,0.0365
3287.00,0.0359
3286.00,0.0352
3285.00,0.0346
3284.00,0.0340
3283.00,0.0335
3282.00,0.0331
3281.00,0.0326
3280.00,0.0323
3279.00,0.0319
3278.00,0.0316
3277.00,0.0313
3276.00,0.0311
3275.00,0.0309
3274.00,0.0308
3273.00,0.0306
3272.00,0.0306
3271.00,0.0305
3270.00,0.0305
3269.00,0.0305
3268.00,0.0306
3267.00,0.0306
3266.00,0.0305
3265.00,0.0305
3264.00,0.0304
3263.00,0.0304
3262.00,0.0302
3261.00,0.0301
3260.00,0.0299
3259.00,0.0297
3258.00,0.0295
3257.00,0.0293
3256.00,0.0291
3255.00,0.0290
3254.00,0.0288
3253.00,0.0287
3252.00,0.0286
3251.00,0.0284
3250.00,0.0283
3249.00,0.0281
3248.00,0.0280
3247.00,0.0279
3246.00,0.0278
3245.00,0.0278
3244.00,0.0277
3243.00,0.0276
3242.00,0.0276
3241.00,0.0275
3240.00,0.0274
3239.00,0.0273
3238.00,0.0271
3237.00,0.0269
3236.00,0.0266
3235.00,0.0264
3234.00,0.0261
3233.00,0.0258
3232.00,0.0256
3231.00,0.0253
3230.00,0.0250
3229.00,0.0247
3228.00,0.0244
3227.00,0.0242
3226.00,0.0239
3225.00,0.0236
3224.00,0.0234
3223.00,0.0231
3222.00,0.0228
3221.00,0.0226
3220.00,0.0223
3219.00,0.0221
3218.00,0.0219
3217.00,0.0217
3216.00,0.0215
3215.00,0.0214
3214.00,0.0212
3213.00,0.0210
3212.00,0.0209
3211.00,0.0208
3210.00,0.0206
3209.00,0.0205
3208.00,0.0203
3207.00,0.0202
3206.00,0.0200
3205.00,0.0199
3204.00,0.0198
3203.00,0.0196
3202.00,0.0195
3201.00,0.0193
3200.00,0.0191
3199.00,0.0189
3198.00,0.0187
3197.00,0.0186
3196.00,0.0184
3195.00,0.0183
3194.00,0.0182
3193.00,0.0181
3192.00,0.0180
3191.00,0.0179
3190.00,0.0178
3189.00,0.0177
3188.00,0.0177
3187.00,0.0176
3186.00,0.0175
3185.00,0.0175
3184.00,0.0174
3183.00,0.0174
3182.00,0.0173
3181.00,0.0173
3180.00,0.0172
3179.00,0.0171
3178.00,0.0170
3177.00,0.0170
3176.00,0.0169
3175.00,0.0169
3174.00,0.0168
3173.00,0.0168
3172.00,0.0167
3171.00,0.0167
3170.00,0.0166
3169.00,0.0166
3168.00,0.0165
3167.00,0.0165
3166.00,0.0165
3165.00,0.0164
3164.00,0.0164
3163.00,0.0164
3162.00,0.0164
3161.00,0.0164
3160.00,0.0164
3159.00,0.0164
3158.00,0.0164
3157.00,0.0165
3156.00,0.0165
3155.00,0.0165
3154.00,0.0165
3153.00,0.0165
3152.00,0.0166
3151.00,0.0166
3150.00,0.0167
3149.00,0.0167
3148.00,0.0167
3147.00,0.0167
3146.00,0.0167
3145.00,0.0167
3144.00,0.0167
3143.00,0.0167
3142.00,0.0166
3141.00,0.0167
3140.00,0.0167
3139.00,0.0168
3138.00,0.0169
3137.00,0.0170
3136.00,0.0171
3135.00,0.0171
3134.00,0.0172
3133.00,0.0173
3132.00,0.0174
3131.00,0.0175
3130.00,0.0175
3129.00,0.0176
3128.00,0.0178
3127.00,0.0179
3126.00,0.0180
3125.00,0.0182
3124.00,0.0183
3123.00,0.0184
3122.00,0.0186
3121.00,0.0187
3120.00,0.0189
3119.00,0.0191
3118.00,0.0194
3117.00,0.0197
3116.00,0.0200
3115.00,0.0204
3114.00,0.0208
3113.00,0.0212
3112.00,0.0215
3111.00,0.0218
3110.00,0.0221
3109.00,0.0224
3108.00,0.0228
3107.00,0.0231
3106.00,0.0233
3105.00,0.0235
3104.00,0.0237
3103.00,0.0238
3102.00,0.0238
3101.00,0.0238
3100.00,0.0237
3099.00,0.0237
3098.00,0.0235
3097.00,0.0234
3096.00,0.0233
3095.00,0.0231
3094.00,0.0229
3093.00,0.0227
3092.00,0.0226
3091.00,0.0224
3090.00,0.0223
3089.00,0.0222
3088.00,0.0221
3087.00,0.0221
3086.00,0.0220
3085.00,0.0220
3084.00,0.0220
3083.00,0.0220
3082.00,0.0220
3081.00,0.0220
3080.00,0.0219
3079.00,0.0219
3078.00,0.0219
3077.00,0.0218
3076.00,0.0217
3075.00,0.0215
3074.00,0.0213
3073.00,0.0210
3072.00,0.0207
3071.00,0.0205
3070.00,0.0203
3069.00,0.0201
3068.00,0.0200
3067.00,0.0201
3066.00,0.0201
3065.00,0.0203
3064.00,0.0203
3063.00,0.0203
3062.00,0.0203
3061.00,0.0201
3060.00,0.0199
3059.00,0.0197
3058.00,0.0194
3057.00,0.0192
3056.00,0.0190
3055.00,0.0189
3054.00,0.0188
3053.00,0.0187
3052.00,0.0187
3051.00,0.0186
3050.00,0.0187
3049.00,0.0187
3048.00,0.0188
3047.00,0.0188
3046.00,0.0187
3045.00,0.0187
3044.00,0.0187
3043.00,0.0188
3042.00,0.0190
3041.00,0.0192
3040.00,0.0194
3039.00,0.0197
3038.00,0.0200
3037.00,0.0202
3036.00,0.0204
3035.00,0.0206
3034.00,0.0209
3033.00,0.0212
3032.00,0.0215
3031.00,0.0217
3030.00,0.0220
3029.00,0.0221
3028.00,0.0222
3027.00,0.0223
3026.00,0.0223
3025.00,0.0223
3024.00,0.0222
3023.00,0.0221
3022.00,0.0220
3021.00,0.0220
3020.00,0.0219
3019.00,0.0219
3018.00,0.0219
3017.00,0.0219
3016.00,0.0220
3015.00,0.0221
3014.00,0.0223
3013.00,0.0227
3012.00,0.0231
3011.00,0.0236
3010.00,0.0241
3009.00,0.0247
3008.00,0.0254
3007.00,0.0260
3006.00,0.0267
3005.00,0.0274
3004.00,0.0281
3003.00,0.0287
3002.00,0.0292
3001.00,0.0296
3000.00,0.0300
2999.00,0.0303
2998.00,0.0304
2997.00,0.0304
2996.00,0.0303
2995.00,0.0299
2994.00,0.0294
2993.00,0.0287
2992.00,0.0280
2991.00,0.0274
2990.00,0.0268
2989.00,0.0262
2988.00,0.0257
2987.00,0.0253
2986.00,0.0249
2985.00,0.0245
2984.00,0.0241
2983.00,0.0237
2982.00,0.0234
2981.00,0.0232
2980.00,0.0231
2979.00,0.0231
2978.00,0.0231
2977.00,0.0231
2976.00,0.0231
2975.00,0.0231
2974.00,0.0232
2973.00,0.0234
2972.00,0.0236
2971.00,0.0239
2970.00,0.0243
2969.00,0.0248
2968.00,0.0254
2967.00,0.0262
2966.00,0.0272
2965.00,0.0283
2964.00,0.0297
2963.00,0.0313
2962.00,0.0331
2961.00,0.0352
2960.00,0.0374
2959.00,0.0397
2958.00,0.0421
2957.00,0.0443
2956.00,0.0463
2955.00,0.0479
2954.00,0.0490
2953.00,0.0495
2952.00,0.0494
2951.00,0.0486
2950.00,0.0473
2949.00,0.0455
2948.00,0.0434
2947.00,0.0411
2946.00,0.0389
2945.00,0.0368
2944.00,0.0349
2943.00,0.0333
2942.00,0.0319
2941.00,0.0308
2940.00,0.0298
2939.00,0.0291
2938.00,0.0285
2937.00,0.0281
2936.00,0.0278
2935.00,0.0276
2934.00,0.0274
2933.00,0.0272
2932.00,0.0270
2931.00,0.0267
2930.00,0.0265
2929.00,0.0262
2928.00,0.0259
2927.00,0.0256
2926.00,0.0253
2925.00,0.0249
2924.00,0.0245
2923.00,0.0241
2922.00,0.0237
2921.00,0.0233
2920.00,0.0229
2919.00,0.0225
2918.00,0.0221
2917.00,0.0218
2916.00,0.0216
2915.00,0.0214
2914.00,0.0213
2913.00,0.0212
2912.00,0.0212
2911.00,0.0211
2910.00,0.0210
2909.00,0.0209
2908.00,0.0208
2907.00,0.0207
2906.00,0.0206
2905.00,0.0205
2904.00,0.0204
2903.00,0.0203
2902.00,0.0202
2901.00,0.0201
2900.00,0.0199
2899.00,0.0197
2898.00,0.0195
2897.00,0.0193
2896.00,0.0192
2895.00,0.0190
2894.00,0.0189
2893.00,0.0189
2892.00,0.0188
2891.00,0.0188
2890.00,0.0188
2889.00,0.0189
2888.00,0.0189
2887.00,0.0189
2886.00,0.0190
2885.00,0.0190
2884.00,0.0190
2883.00,0.0190
2882.00,0.0190
2881.00,0.0191
2880.00,0.0191
2879.00,0.0191
2878.00,0.0191
2877.00,0.0191
2876.00,0.0191
2875.00,0.0191
2874.00,0.0191
2873.00,0.0192
2872.00,0.0192
2871.00,0.0193
2870.00,0.0192
2869.00,0.0191
2868.00,0.0190
2867.00,0.0188
2866.00,0.0187
2865.00,0.0186
2864.00,0.0184
2863.00,0.0183
2862.00,0.0181
2861.00,0.0180
2860.00,0.0179
2859.00,0.0179
2858.00,0.0178
2857.00,0.0178
2856.00,0.0179
2855.00,0.0179
2854.00,0.0179
2853.00,0.0180
2852.00,0.0181
2851.00,0.0182
2850.00,0.0184
2849.00,0.0187
2848.00,0.0191
2847.00,0.0195
2846.00,0.0200
2845.00,0.0204
2844.00,0.0208
2843.00,0.0210
2842.00,0.0210
2841.00,0.0208
2840.00,0.0205
2839.00,0.0201
2838.00,0.0197
2837.00,0.0193
2836.00,0.0189
2835.00,0.0185
2834.00,0.0182
2833.00,0.0179
2832.00,0.0176
2831.00,0.0173
2830.00,0.0171
2829.00,0.0169
2828.00,0.0167
2827.00,0.0166
2826.00,0.0165
2825.00,0.0164
2824.00,0.0163
2823.00,0.0162
2822.00,0.0161
2821.00,0.0160
2820.00,0.0160
2819.00,0.0160
2818.00,0.0160
2817.00,0.0159
2816.00,0.0159
2815.00,0.0159
2814.00,0.0158
2813.00,0.0158
2812.00,0.0158
2811.00,0.0157
2810.00,0.0157
2809.00,0.0156
2808.00,0.0155
2807.00,0.0155
2806.00,0.0154
2805.00,0.0153
2804.00,0.0152
2803.00,0.0151
2802.00,0.0150
2801.00,0.0149
2800.00,0.0148
2799.00,0.0147
2798.00,0.0146
2797.00,0.0145
2796.00,0.0144
2795.00,0.0143
2794.00,0.0142
2793.00,0.0140
2792.00,0.0139
2791.00,0.0138
2790.00,0.0137
2789.00,0.0136
2788.00,0.0135
2787.00,0.0134
2786.00,0.0134
2785.00,0.0133
2784.00,0.0132
2783.00,0.0131
2782.00,0.0131
2781.00,0.0130
2780.00,0.0130
2779.00,0.0130
2778.00,0.0130
2777.00,0.0129
2776.00,0.0129
2775.00,0.0129
2774.00,0.0128
2773.00,0.0128
2772.00,0.0128
2771.00,0.0128
2770.00,0.0128
2769.00,0.0128
2768.00,0.0128
2767.00,0.0127
2766.00,0.0127
2765.00,0.0127
2764.00,0.0127
2763.00,0.0127
2762.00,0.0127
2761.00,0.0126
2760.00,0.0126
2759.00,0.0126
2758.00,0.0125
2757.00,0.0125
2756.00,0.0126
2755.00,0.0126
2754.00,0.0126
2753.00,0.0126
2752.00,0.0126
2751.00,0.0126
2750.00,0.0125
2749.00,0.0125
2748.00,0.0125
2747.00,0.0125
2746.00,0.0124
2745.00,0.0124
2744.00,0.0124
2743.00,0.0124
2742.00,0.0124
2741.00,0.0124
2740.00,0.0124
2739.00,0.0124
2738.00,0.0124
2737.00,0.0124
2736.00,0.0123
2735.00,0.0123
2734.00,0.0123
2733.00,0.0122
2732.00,0.0122
2731.00,0.0122
2730.00,0.0122
2729.00,0.0122
2728.00,0.0122
2727.00,0.0121
2726.00,0.0121
2725.00,0.0121
2724.00,0.0121
2723.00,0.0121
2722.00,0.0121
2721.00,0.0120
2720.00,0.0120
2719.00,0.0120
2718.00,0.0120
2717.00,0.0120
2716.00,0.0120
2715.00,0.0120
2714.00,0.0119
2713.00,0.0119
2712.00,0.0119
2711.00,0.0119
2710.00,0.0119
2709.00,0.0119
2708.00,0.0119
2707.00,0.0118
2706.00,0.0118
2705.00,0.0118
2704.00,0.0118
2703.00,0.0118
2702.00,0.0118
2701.00,0.0118
2700.00,0.0118
2699.00,0.0118
2698.00,0.0118
2697.00,0.0118
2696.00,0.0118
2695.00,0.0118
2694.00,0.0118
2693.00,0.0118
2692.00,0.0118
2691.00,0.0117
2690.00,0.0117
2689.00,0.0117
2688.00,0.0117
2687.00,0.0117
2686.00,0.0117
2685.00,0.0117
2684.00,0.0117
2683.00,0.0117
2682.00,0.0117
2681.00,0.0117
2680.00,0.0117
2679.00,0.0117
2678.00,0.0118
2677.00,0.0118
2676.00,0.0118
2675.00,0.0118
2674.00,0.0118
2673.00,0.0118
2672.00,0.0118
2671.00,0.0118
2670.00,0.0118
2669.00,0.0118
2668.00,0.0118
2667.00,0.0118
2666.00,0.0118
2665.00,0.0119
2664.00,0.0119
2663.00,0.0120
2662.00,0.0120
2661.00,0.0121
2660.00,0.0121
2659.00,0.0121
2658.00,0.0121
2657.00,0.0122
2656.00,0.0122
2655.00,0.0122
2654.00,0.0123
2653.00,0.0123
2652.00,0.0123
2651.00,0.0123
2650.00,0.0123
2649.00,0.0123
2648.00,0.0123
2647.00,0.0123
2646.00,0.0123
2645.00,0.0123
2644.00,0.0123
2643.00,0.0123
2642.00,0.0123
2641.00,0.0122
2640.00,0.0122
2639.00,0.0121
2638.00,0.0121
2637.00,0.0121
2636.00,0.0121
2635.00,0.0121
2634.00,0.0120
2633.00,0.0120
2632.00,0.0120
2631.00,0.0120
2630.00,0.0120
2629.00,0.0120
2628.00,0.0120
2627.00,0.0120
2626.00,0.0121
2625.00,0.0121
2624.00,0.0122
2623.00,0.0122
2622.00,0.0122
2621.00,0.0122
2620.00,0.0122
2619.00,0.0122
2618.00,0.0122
2617.00,0.0122
2616.00,0.0122
2615.00,0.0122
2614.00,0.0121
2613.00,0.0121
2612.00,0.0121
2611.00,0.0120
2610.00,0.0120
2609.00,0.0120
2608.00,0.0120
2607.00,0.0119
2606.00,0.0119
2605.00,0.0119
2604.00,0.0119
2603.00,0.0119
2602.00,0.0118
2601.00,0.0118
2600.00,0.0117
2599.00,0.0117
2598.00,0.0116
2597.00,0.0116
2596.00,0.0116
2595.00,0.0115
2594.00,0.0115
2593.00,0.0115
2592.00,0.0114
2591.00,0.0114
2590.00,0.0114
2589.00,0.0113
2588.00,0.0113
2587.00,0.0113
2586.00,0.0112
2585.00,0.0112
2584.00,0.0112
2583.00,0.0111
2582.00,0.0111
2581.00,0.0110
2580.00,0.0110
2579.00,0.0109
2578.00,0.0109
2577.00,0.0108
2576.00,0.0108
2575.00,0.0107
2574.00,0.0107
2573.00,0.0106
2572.00,0.0106
2571.00,0.0105
2570.00,0.0105
2569.00,0.0105
2568.00,0.0104
2567.00,0.0104
2566.00,0.0104
2565.00,0.0104
2564.00,0.0104
2563.00,0.0104
2562.00,0.0104
2561.00,0.0104
2560.00,0.0104
2559.00,0.0104
2558.00,0.0104
2557.00,0.0104
2556.00,0.0104
2555.00,0.0104
2554.00,0.0104
2553.00,0.0104
2552.00,0.0104
2551.00,0.0105
2550.00,0.0104
2549.00,0.0105
2548.00,0.0105
2547.00,0.0105
2546.00,0.0105
2545.00,0.0105
2544.00,0.0105
2543.00,0.0105
2542.00,0.0105
2541.00,0.0105
2540.00,0.0105
2539.00,0.0105
2538.00,0.0105
2537.00,0.0105
2536.00,0.0105
2535.00,0.0105
2534.00,0.0105
2533.00,0.0105
2532.00,0.0105
2531.00,0.0105
2530.00,0.0104
2529.00,0.0104
2528.00,0.0103
2527.00,0.0103
2526.00,0.0102
2525.00,0.0102
2524.00,0.0102
2523.00,0.0101
2522.00,0.0101
2521.00,0.0101
2520.00,0.0101
2519.00,0.0100
2518.00,0.0100
2517.00,0.0100
2516.00,0.0100
2515.00,0.0100
2514.00,0.0100
2513.00,0.0100
2512.00,0.0100
2511.00,0.0100
2510.00,0.0100
2509.00,0.0100
2508.00,0.0100
2507.00,0.0099
2506.00,0.0099
2505.00,0.0099
2504.00,0.0099
2503.00,0.0098
2502.00,0.0098
2501.00,0.0098
2500.00,0.0098
2499.00,0.0098
2498.00,0.0098
2497.00,0.0098
2496.00,0.0098
2495.00,0.0098
2494.00,0.0099
2493.00,0.0099
2492.00,0.0100
2491.00,0.0100
2490.00,0.0100
2489.00,0.0100
2488.00,0.0100
2487.00,0.0100
2486.00,0.0100
2485.00,0.0099
2484.00,0.0099
2483.00,0.0098
2482.00,0.0098
2481.00,0.0098
2480.00,0.0097
2479.00,0.0097
2478.00,0.0097
2477.00,0.0097
2476.00,0.0097
2475.00,0.0096
2474.00,0.0096
2473.00,0.0096
2472.00,0.0095
2471.00,0.0095
2470.00,0.0096
2469.00,0.0096
2468.00,0.0096
2467.00,0.0097
2466.00,0.0097
2465.00,0.0097
2464.00,0.0097
2463.00,0.0097
2462.00,0.0097
2461.00,0.0098
2460.00,0.0099
2459.00,0.0100
2458.00,0.0100
2457.00,0.0100
2456.00,0.0100
2455.00,0.0100
2454.00,0.0100
2453.00,0.0100
2452.00,0.0100
2451.00,0.0100
2450.00,0.0099
2449.00,0.0099
2448.00,0.0098
2447.00,0.0098
2446.00,0.0097
2445.00,0.0097
2444.00,0.0096
2443.00,0.0096
2442.00,0.0095
2441.00,0.0095
2440.00,0.0094
2439.00,0.0094
2438.00,0.0094
2437.00,0.0094
2436.00,0.0094
2435.00,0.0094
2434.00,0.0094
2433.00,0.0094
2432.00,0.0093
2431.00,0.0093
2430.00,0.0092
2429.00,0.0093
2428.00,0.0093
2427.00,0.0094
2426.00,0.0094
2425.00,0.0094
2424.00,0.0094
2423.00,0.0094
2422.00,0.0094
2421.00,0.0094
2420.00,0.0094
2419.00,0.0094
2418.00,0.0094
2417.00,0.0093
2416.00,0.0093
2415.00,0.0093
2414.00,0.0093
2413.00,0.0092
2412.00,0.0092
2411.00,0.0092
2410.00,0.0091
2409.00,0.0091
2408.00,0.0090
2407.00,0.0090
2406.00,0.0090
2405.00,0.0090
2404.00,0.0090
2403.00,0.0089
2402.00,0.0089
2401.00,0.0089
2400.00,0.0089
2399.00,0.0089
2398.00,0.0088
2397.00,0.0088
2396.00,0.0088
2395.00,0.0088
2394.00,0.0088
2393.00,0.0087
2392.00,0.0087
2391.00,0.0087
2390.00,0.0087
2389.00,0.0086
2388.00,0.0086
2387.00,0.0086
2386.00,0.0086
2385.00,0.0085
2384.00,0.0085
2383.00,0.0085
2382.00,0.0085
2381.00,0.0084
2380.00,0.0084
2379.00,0.0084
2378.00,0.0084
2377.00,0.0084
2376.00,0.0084
2375.00,0.0084
2374.00,0.0083
2373.00,0.0083
2372.00,0.0082
2371.00,0.0082
2370.00,0.0081
2369.00,0.0081
2368.00,0.0082
2367.00,0.0082
2366.00,0.0082
2365.00,0.0083
2364.00,0.0083
2363.00,0.0084
2362.00,0.0084
2361.00,0.0084
2360.00,0.0084
2359.00,0.0084
2358.00,0.0084
2357.00,0.0084
2356.00,0.0085
2355.00,0.0085
2354.00,0.0085
2353.00,0.0085
2352.00,0.0084
2351.00,0.0084
2350.00,0.0085
2349.00,0.0085
2348.00,0.0085
2347.00,0.0086
2346.00,0.0086
2345.00,0.0086
2344.00,0.0086
2343.00,0.0086
2342.00,0.0085
2341.00,0.0086
2340.00,0.0087
2339.00,0.0088
2338.00,0.0087
2337.00,0.0087
2336.00,0.0087
2335.00,0.0088
2334.00,0.0088
2333.00,0.0088
2332.00,0.0087
2331.00,0.0087
2330.00,0.0087
2329.00,0.0089
2328.00,0.0092
2327.00,0.0096
2326.00,0.0099
2325.00,0.0100
2324.00,0.0098
2323.00,0.0096
2322.00,0.0094
2321.00,0.0092
2320.00,0.0090
2319.00,0.0089
2318.00,0.0088
2317.00,0.0086
2316.00,0.0086
2315.00,0.0085
2314.00,0.0085
2313.00,0.0084
2312.00,0.0083
2311.00,0.0082
2310.00,0.0081
2309.00,0.0081
2308.00,0.0081
2307.00,0.0081
2306.00,0.0081
2305.00,0.0081
2304.00,0.0082
2303.00,0.0082
2302.00,0.0082
2301.00,0.0082
2300.00,0.0082
2299.00,0.0082
2298.00,0.0082
2297.00,0.0083
2296.00,0.0084
2295.00,0.0085
2294.00,0.0086
2293.00,0.0087
2292.00,0.0088
2291.00,0.0089
2290.00,0.0090
2289.00,0.0091
2288.00,0.0092
2287.00,0.0092
2286.00,0.0091
2285.00,0.0090
2284.00,0.0088
2283.00,0.0087
2282.00,0.0086
2281.00,0.0085
2280.00,0.0084
2279.00,0.0084
2278.00,0.0083
2277.00,0.0083
2276.00,0.0083
2275.00,0.0082
2274.00,0.0082
2273.00,0.0082
2272.00,0.0082
2271.00,0.0083
2270.00,0.0083
2269.00,0.0082
2268.00,0.0081
2267.00,0.0079
2266.00,0.0077
2265.00,0.0076
2264.00,0.0076
2263.00,0.0076
2262.00,0.0077
2261.00,0.0077
2260.00,0.0078
2259.00,0.0078
2258.00,0.0077
2257.00,0.0075
2256.00,0.0074
2255.00,0.0072
2254.00,0.0072
2253.00,0.0072
2252.00,0.0072
2251.00,0.0072
2250.00,0.0072
2249.00,0.0072
2248.00,0.0072
2247.00,0.0072
2246.00,0.0071
2245.00,0.0071
2244.00,0.0071
2243.00,0.0071
2242.00,0.0071
2241.00,0.0070
2240.00,0.0070
2239.00,0.0070
2238.00,0.0070
2237.00,0.0069
2236.00,0.0068
2235.00,0.0067
2234.00,0.0066
2233.00,0.0066
2232.00,0.0066
2231.00,0.0066
2230.00,0.0066
2229.00,0.0066
2228.00,0.0066
2227.00,0.0066
2226.00,0.0065
2225.00,0.0064
2224.00,0.0064
2223.00,0.0064
2222.00,0.0064
2221.00,0.0064
2220.00,0.0064
2219.00,0.0065
2218.00,0.0064
2217.00,0.0064
2216.00,0.0063
2215.00,0.0062
2214.00,0.0062
2213.00,0.0062
2212.00,0.0063
2211.00,0.0063
2210.00,0.0063
2209.00,0.0063
2208.00,0.0063
2207.00,0.0063
2206.00,0.0063
2205.00,0.0062
2204.00,0.0061
2203.00,0.0060
2202.00,0.0059
2201.00,0.0059
2200.00,0.0060
2199.00,0.0061
2198.00,0.0061
2197.00,0.0062
2196.00,0.0063
2195.00,0.0063
2194.00,0.0063
2193.00,0.0063
2192.00,0.0063
2191.00,0.0063
2190.00,0.0063
2189.00,0.0064
2188.00,0.0064
2187.00,0.0064
2186.00,0.0062
2185.00,0.0060
2184.00,0.0058
2183.00,0.0056
2182.00,0.0055
2181.00,0.0056
2180.00,0.0058
2179.00,0.0059
2178.00,0.0058
2177.00,0.0057
2176.00,0.0056
2175.00,0.0056
2174.00,0.0057
2173.00,0.0059
2172.00,0.0062
2171.00,0.0065
2170.00,0.0067
2169.00,0.0069
2168.00,0.0071
2167.00,0.0071
2166.00,0.0071
2165.00,0.0072
2164.00,0.0076
2163.00,0.0077
2162.00,0.0071
2161.00,0.0058
2160.00,0.0042
2159.00,0.0029
2158.00,0.0023
2157.00,0.0024
2156.00,0.0030
2155.00,0.0035
2154.00,0.0039
2153.00,0.0043
2152.00,0.0047
2151.00,0.0048
2150.00,0.0048
2149.00,0.0048
2148.00,0.0048
2147.00,0.0047
2146.00,0.0047
2145.00,0.0047
2144.00,0.0048
2143.00,0.0048
2142.00,0.0048
2141.00,0.0048
2140.00,0.0048
2139.00,0.0048
2138.00,0.0046
2137.00,0.0044
2136.00,0.0043
2135.00,0.0041
2134.00,0.0041
2133.00,0.0043
2132.00,0.0046
2131.00,0.0048
2130.00,0.0050
2129.00,0.0052
2128.00,0.0053
2127.00,0.0054
2126.00,0.0055
2125.00,0.0057
2124.00,0.0058
2123.00,0.0059
2122.00,0.0059
2121.00,0.0059
2120.00,0.0060
2119.00,0.0062
2118.00,0.0063
2117.00,0.0065
2116.00,0.0066
2115.00,0.0066
2114.00,0.0066
2113.00,0.0065
2112.00,0.0064
2111.00,0.0063
2110.00,0.0063
2109.00,0.0063
2108.00,0.0064
2107.00,0.0064
2106.00,0.0063
2105.00,0.0063
2104.00,0.0063
2103.00,0.0063
2102.00,0.0063
2101.00,0.0064
2100.00,0.0064
2099.00,0.0064
2098.00,0.0063
2097.00,0.0061
2096.00,0.0059
2095.00,0.0058
2094.00,0.0058
2093.00,0.0059
2092.00,0.0062
2091.00,0.0064
2090.00,0.0065
2089.00,0.0066
2088.00,0.0066
2087.00,0.0065
2086.00,0.0065
2085.00,0.0065
2084.00,0.0065
2083.00,0.0066
2082.00,0.0066
2081.00,0.0067
2080.00,0.0068
2079.00,0.0068
2078.00,0.0068
2077.00,0.0068
2076.00,0.0068
2075.00,0.0068
2074.00,0.0068
2073.00,0.0068
2072.00,0.0069
2071.00,0.0069
2070.00,0.0068
2069.00,0.0068
2068.00,0.0069
2067.00,0.0070
2066.00,0.0070
2065.00,0.0069
2064.00,0.0068
2063.00,0.0066
2062.00,0.0064
2061.00,0.0063
2060.00,0.0063
2059.00,0.0063
2058.00,0.0062
2057.00,0.0061
2056.00,0.0061
2055.00,0.0062
2054.00,0.0065
2053.00,0.0069
2052.00,0.0072
2051.00,0.0070
2050.00,0.0064
2049.00,0.0059
2048.00,0.0055
2047.00,0.0053
2046.00,0.0051
2045.00,0.0049
2044.00,0.0049
2043.00,0.0049
2042.00,0.0049
2041.00,0.0049
2040.00,0.0050
2039.00,0.0049
2038.00,0.0047
2037.00,0.0045
2036.00,0.0043
2035.00,0.0039
2034.00,0.0035
2033.00,0.0033
2032.00,0.0034
2031.00,0.0036
2030.00,0.0038
2029.00,0.0038
2028.00,0.0039
2027.00,0.0038
2026.00,0.0038
2025.00,0.0040
2024.00,0.0043
2023.00,0.0045
2022.00,0.0045
2021.00,0.0045
2020.00,0.0046
2019.00,0.0048
2018.00,0.0048
2017.00,0.0050
2016.00,0.0052
2015.00,0.0052
2014.00,0.0051
2013.00,0.0051
2012.00,0.0053
2011.00,0.0053
2010.00,0.0053
2009.00,0.0052
2008.00,0.0052
2007.00,0.0051
2006.00,0.0051
2005.00,0.0055
2004.00,0.0060
2003.00,0.0063
2002.00,0.0066
2001.00,0.0068
2000.00,0.0070
1999.00,0.0071
1998.00,0.0069
1997.00,0.0068
1996.00,0.0069
1995.00,0.0070
1994.00,0.0072
1993.00,0.0073
1992.00,0.0073
1991.00,0.0072
1990.00,0.0069
1989.00,0.0068
1988.00,0.0068
1987.00,0.0067
1986.00,0.0066
1985.00,0.0067
1984.00,0.0070
1983.00,0.0073
1982.00,0.0075
1981.00,0.0075
1980.00,0.0072
1979.00,0.0065
1978.00,0.0057
1977.00,0.0052
1976.00,0.0051
1975.00,0.0050
1974.00,0.0048
1973.00,0.0049
1972.00,0.0051
1971.00,0.0054
1970.00,0.0056
1969.00,0.0060
1968.00,0.0063
1967.00,0.0065
1966.00,0.0064
1965.00,0.0063
1964.00,0.0062
1963.00,0.0060
1962.00,0.0056
1961.00,0.0053
1960.00,0.0051
1959.00,0.0050
1958.00,0.0050
1957.00,0.0053
1956.00,0.0056
1955.00,0.0057
1954.00,0.0057
1953.00,0.0057
1952.00,0.0056
1951.00,0.0055
1950.00,0.0054
1949.00,0.0054
1948.00,0.0056
1947.00,0.0057
1946.00,0.0058
1945.00,0.0061
1944.00,0.0064
1943.00,0.0065
1942.00,0.0063
1941.00,0.0061
1940.00,0.0060
1939.00,0.0059
1938.00,0.0059
1937.00,0.0060
1936.00,0.0062
1935.00,0.0063
1934.00,0.0063
1933.00,0.0064
1932.00,0.0064
1931.00,0.0065
1930.00,0.0064
1929.00,0.0065
1928.00,0.0066
1927.00,0.0066
1926.00,0.0068
1925.00,0.0070
1924.00,0.0073
1923.00,0.0074
1922.00,0.0074
1921.00,0.0073
1920.00,0.0073
1919.00,0.0072
1918.00,0.0069
1917.00,0.0068
1916.00,0.0068
1915.00,0.0067
1914.00,0.0066
1913.00,0.0066
1912.00,0.0068
1911.00,0.0069
1910.00,0.0069
1909.00,0.0069
1908.00,0.0069
1907.00,0.0068
1906.00,0.0066
1905.00,0.0066
1904.00,0.0066
1903.00,0.0067
1902.00,0.0066
1901.00,0.0066
1900.00,0.0066
1899.00,0.0066
1898.00,0.0066
1897.00,0.0067
1896.00,0.0068
1895.00,0.0068
1894.00,0.0067
1893.00,0.0067
1892.00,0.0068
1891.00,0.0068
1890.00,0.0067
1889.00,0.0066
1888.00,0.0066
1887.00,0.0065
1886.00,0.0064
1885.00,0.0064
1884.00,0.0064
1883.00,0.0063
1882.00,0.0062
1881.00,0.0062
1880.00,0.0063
1879.00,0.0062
1878.00,0.0061
1877.00,0.0061
1876.00,0.0060
1875.00,0.0059
1874.00,0.0059
1873.00,0.0061
1872.00,0.0065
1871.00,0.0067
1870.00,0.0066
1869.00,0.0065
1868.00,0.0063
1867.00,0.0063
1866.00,0.0062
1865.00,0.0062
1864.00,0.0064
1863.00,0.0065
1862.00,0.0066
1861.00,0.0067
1860.00,0.0067
1859.00,0.0067
1858.00,0.0066
1857.00,0.0066
1856.00,0.0066
1855.00,0.0066
1854.00,0.0066
1853.00,0.0067
1852.00,0.0068
1851.00,0.0068
1850.00,0.0068
1849.00,0.0067
1848.00,0.0067
1847.00,0.0066
1846.00,0.0065
1845.00,0.0063
1844.00,0.0063
1843.00,0.0062
1842.00,0.0062
1841.00,0.0062
1840.00,0.0063
1839.00,0.0063
1838.00,0.0062
1837.00,0.0062
1836.00,0.0063
1835.00,0.0063
1834.00,0.0063
1833.00,0.0063
1832.00,0.0063
1831.00,0.0063
1830.00,0.0062
1829.00,0.0062
1828.00,0.0062
1827.00,0.0063
1826.00,0.0063
1825.00,0.0063
1824.00,0.0072
1823.00,0.0070
1822.00,0.0068
1821.00,0.0066
1820.00,0.0066
1819.00,0.0067
1818.00,0.0067
1817.00,0.0067
1816.00,0.0067
1815.00,0.0068
1814.00,0.0069
1813.00,0.0071
1812.00,0.0072
1811.00,0.0066
1810.00,0.0067
1809.00,0.0068
1808.00,0.0070
1807.00,0.0071
1806.00,0.0071
1805.00,0.0072
1804.00,0.0073
1803.00,0.0073
1802.00,0.0073
1801.00,0.0074
1800.00,0.0076
1799.00,0.0077
1798.00,0.0079
1797.00,0.0080
1796.00,0.0081
1795.00,0.0082
1794.00,0.0082
1793.00,0.0082
1792.00,0.0083
1791.00,0.0084
1790.00,0.0085
1789.00,0.0087
1788.00,0.0089
1787.00,0.0090
1786.00,0.0090
1785.00,0.0092
1784.00,0.0093
1783.00,0.0095
1782.00,0.0096
1781.00,0.0097
1780.00,0.0099
1779.00,0.0101
1778.00,0.0102
1777.00,0.0104
1776.00,0.0106
1775.00,0.0107
1774.00,0.0108
1773.00,0.0109
1772.00,0.0112
1771.00,0.0115
1770.00,0.0118
1769.00,0.0122
1768.00,0.0126
1767.00,0.0131
1766.00,0.0135
1765.00,0.0138
1764.00,0.0150
1763.00,0.0155
1762.00,0.0160
1761.00,0.0167
1760.00,0.0177
1759.00,0.0187
1758.00,0.0195
1757.00,0.0202
1756.00,0.0211
1755.00,0.0223
1754.00,0.0237
1753.00,0.0256
1752.00,0.0277
1751.00,0.0300
1750.00,0.0321
1749.00,0.0342
1748.00,0.0367
1747.00,0.0398
1746.00,0.0435
1745.00,0.0479
1744.00,0.0530
1743.00,0.0583
1742.00,0.0637
1741.00,0.0697
1740.00,0.0769
1739.00,0.0849
1738.00,0.0925
1737.00,0.0993
1736.00,0.1057
1735.00,0.1130
1734.00,0.1211
1733.00,0.1285
1732.00,0.1333
1731.00,0.1359
1730.00,0.1371
1729.00,0.1375
1728.00,0.1372
1727.00,0.1360
1726.00,0.1338
1725.00,0.1308
1724.00,0.1270
1723.00,0.1224
1722.00,0.1172
1721.00,0.1120
1720.00,0.1069
1719.00,0.1017
1718.00,0.0969
1717.00,0.0935
1716.00,0.0918
1715.00,0.0912
1714.00,0.0915
1713.00,0.0931
1712.00,0.0959
1711.00,0.0997
1710.00,0.1042
1709.00,0.1094
1708.00,0.1148
1707.00,0.1201
1706.00,0.1250
1705.00,0.1290
1704.00,0.1317
1703.00,0.1324
1702.00,0.1310
1701.00,0.1280
1700.00,0.1255
1699.00,0.1247
1698.00,0.1249
1697.00,0.1257
1696.00,0.1280
1695.00,0.1328
1694.00,0.1398
1693.00,0.1487
1692.00,0.1597
1691.00,0.1726
1690.00,0.1860
1689.00,0.1975
1688.00,0.2055
1687.00,0.2101
1686.00,0.2123
1685.00,0.2149
1684.00,0.2204
1683.00,0.2283
1682.00,0.2367
1681.00,0.2452
1680.00,0.2537
1679.00,0.2606
1678.00,0.2646
1677.00,0.2647
1676.00,0.2610
1675.00,0.2536
1674.00,0.2440
1673.00,0.2331
1672.00,0.2207
1671.00,0.2064
1670.00,0.1906
1669.00,0.1757
1668.00,0.1633
1667.00,0.1534
1666.00,0.1451
1665.00,0.1375
1664.00,0.1302
1663.00,0.1236
1662.00,0.1186
1661.00,0.1151
1660.00,0.1124
1659.00,0.1102
1658.00,0.1088
1657.00,0.1082
1656.00,0.1082
1655.00,0.1084
1654.00,0.1098
1653.00,0.1145
1652.00,0.1212
1651.00,0.1267
1650.00,0.1302
1649.00,0.1325
1648.00,0.1339
1647.00,0.1340
1646.00,0.1324
1645.00,0.1293
1644.00,0.1249
1643.00,0.1196
1642.00,0.1138
1641.00,0.1079
1640.00,0.1025
1639.00,0.0977
1638.00,0.0935
1637.00,0.0895
1636.00,0.0864
1635.00,0.0856
1634.00,0.0871
1633.00,0.0897
1632.00,0.0925
1631.00,0.0953
1630.00,0.0980
1629.00,0.1005
1628.00,0.1026
1627.00,0.1043
1626.00,0.1053
1625.00,0.1055
1624.00,0.1052
1623.00,0.1051
1622.00,0.1052
1621.00,0.1054
1620.00,0.1050
1619.00,0.1039
1618.00,0.1020
1617.00,0.0997
1616.00,0.0978
1615.00,0.0965
1614.00,0.0954
1613.00,0.0942
1612.00,0.0930
1611.00,0.0921
1610.00,0.0917
1609.00,0.0919
1608.00,0.0926
1607.00,0.0940
1606.00,0.0956
1605.00,0.0967
1604.00,0.0966
1603.00,0.0944
1602.00,0.0902
1601.00,0.0847
1600.00,0.0787
1599.00,0.0730
1598.00,0.0682
1597.00,0.0642
1596.00,0.0610
1595.00,0.0585
1594.00,0.0564
1593.00,0.0546
1592.00,0.0527
1591.00,0.0506
1590.00,0.0486
1589.00,0.0466
1588.00,0.0446
1587.00,0.0429
1586.00,0.0415
1585.00,0.0406
1584.00,0.0400
1583.00,0.0400
1582.00,0.0406
1581.00,0.0421
1580.00,0.0443
1579.00,0.0469
1578.00,0.0497
1577.00,0.0526
1576.00,0.0552
1575.00,0.0572
1574.00,0.0582
1573.00,0.0582
1572.00,0.0575
1571.00,0.0568
1570.00,0.0572
1569.00,0.0590
1568.00,0.0620
1567.00,0.0653
1566.00,0.0688
1565.00,0.0728
1564.00,0.0770
1563.00,0.0809
1562.00,0.0841
1561.00,0.0859
1560.00,0.0860
1559.00,0.0857
1558.00,0.0858
1557.00,0.0859
1556.00,0.0850
1555.00,0.0828
1554.00,0.0798
1553.00,0.0768
1552.00,0.0742
1551.00,0.0716
1550.00,0.0690
1549.00,0.0664
1548.00,0.0644
1547.00,0.0632
1546.00,0.0628
1545.00,0.0629
1544.00,0.0631
1543.00,0.0630
1542.00,0.0633
1541.00,0.0651
1540.00,0.0700
1539.00,0.0780
1538.00,0.0876
1537.00,0.0972
1536.00,0.1078
1535.00,0.1216
1534.00,0.1410
1533.00,0.1644
1532.00,0.1873
1531.00,0.2067
1530.00,0.2224
1529.00,0.2341
1528.00,0.2407
1527.00,0.2407
1526.00,0.2337
1525.00,0.2218
1524.00,0.2074
1523.00,0.1918
1522.00,0.1748
1521.00,0.1581
1520.00,0.1447
1519.00,0.1347
1518.00,0.1269
1517.00,0.1205
1516.00,0.1156
1515.00,0.1125
1514.00,0.1107
1513.00,0.1101
1512.00,0.1110
1511.00,0.1135
1510.00,0.1173
1509.00,0.1222
1508.00,0.1287
1507.00,0.1381
1506.00,0.1501
1505.00,0.1627
1504.00,0.1743
1503.00,0.1855
1502.00,0.1970
1501.00,0.2090
1500.00,0.2212
1499.00,0.2334
1498.00,0.2456
1497.00,0.2571
1496.00,0.2665
1495.00,0.2728
1494.00,0.2758
1493.00,0.2757
1492.00,0.2730
1491.00,0.2679
1490.00,0.2607
1489.00,0.2515
1488.00,0.2412
1487.00,0.2309
1486.00,0.2215
1485.00,0.2129
1484.00,0.2051
1483.00,0.1978
1482.00,0.1909
1481.00,0.1841
1480.00,0.1776
1479.00,0.1714
1478.00,0.1653
1477.00,0.1592
1476.00,0.1533
1475.00,0.1477
1474.00,0.1422
1473.00,0.1369
1472.00,0.1320
1471.00,0.1280
1470.00,0.1250
1469.00,0.1226
1468.00,0.1208
1467.00,0.1193
1466.00,0.1181
1465.00,0.1174
1464.00,0.1170
1463.00,0.1169
1462.00,0.1168
1461.00,0.1167
1460.00,0.1166
1459.00,0.1167
1458.00,0.1168
1457.00,0.1169
1456.00,0.1168
1455.00,0.1164
1454.00,0.1157
1453.00,0.1155
1452.00,0.1159
1451.00,0.1169
1450.00,0.1185
1449.00,0.1212
1448.00,0.1249
1447.00,0.1295
1446.00,0.1344
1445.00,0.1394
1444.00,0.1440
1443.00,0.1480
1442.00,0.1519
1441.00,0.1562
1440.00,0.1616
1439.00,0.1689
1438.00,0.1794
1437.00,0.1939
1436.00,0.2103
1435.00,0.2252
1434.00,0.2377
1433.00,0.2484
1432.00,0.2564
1431.00,0.2589
1430.00,0.2546
1429.00,0.2444
1428.00,0.2307
1427.00,0.2162
1426.00,0.2028
1425.00,0.1914
1424.00,0.1823
1423.00,0.1755
1422.00,0.1705
1421.00,0.1662
1420.00,0.1611
1419.00,0.1540
1418.00,0.1452
1417.00,0.1356
1416.00,0.1259
1415.00,0.1167
1414.00,0.1087
1413.00,0.1020
1412.00,0.0965
1411.00,0.0920
1410.00,0.0883
1409.00,0.0853
1408.00,0.0830
1407.00,0.0812
1406.00,0.0798
1405.00,0.0784
1404.00,0.0769
1403.00,0.0754
1402.00,0.0740
1401.00,0.0728
1400.00,0.0717
1399.00,0.0709
1398.00,0.0703
1397.00,0.0697
1396.00,0.0693
1395.00,0.0690
1394.00,0.0691
1393.00,0.0697
1392.00,0.0710
1391.00,0.0731
1390.00,0.0758
1389.00,0.0789
1388.00,0.0818
1387.00,0.0843
1386.00,0.0860
1385.00,0.0875
1384.00,0.0895
1383.00,0.0922
1382.00,0.0956
1381.00,0.0989
1380.00,0.1014
1379.00,0.1025
1378.00,0.1018
1377.00,0.0998
1376.00,0.0969
1375.00,0.0936
1374.00,0.0899
1373.00,0.0858
1372.00,0.0818
1371.00,0.0783
1370.00,0.0753
1369.00,0.0728
1368.00,0.0710
1367.00,0.0701
1366.00,0.0703
1365.00,0.0718
1364.00,0.0745
1363.00,0.0779
1362.00,0.0815
1361.00,0.0852
1360.00,0.0893
1359.00,0.0941
1358.00,0.1001
1357.00,0.1075
1356.00,0.1168
1355.00,0.1283
1354.00,0.1422
1353.00,0.1582
1352.00,0.1750
1351.00,0.1905
1350.00,0.2018
1349.00,0.2066
1348.00,0.2043
1347.00,0.1966
1346.00,0.1865
1345.00,0.1769
1344.00,0.1697
1343.00,0.1656
1342.00,0.1639
1341.00,0.1632
1340.00,0.1618
1339.00,0.1585
1338.00,0.1529
1337.00,0.1458
1336.00,0.1382
1335.00,0.1308
1334.00,0.1242
1333.00,0.1188
1332.00,0.1148
1331.00,0.1122
1330.00,0.1110
1329.00,0.1111
1328.00,0.1123
1327.00,0.1144
1326.00,0.1174
1325.00,0.1214
1324.00,0.1266
1323.00,0.1328
1322.00,0.1400
1321.00,0.1475
1320.00,0.1549
1319.00,0.1619
1318.00,0.1684
1317.00,0.1748
1316.00,0.1815
1315.00,0.1886
1314.00,0.1958
1313.00,0.2026
1312.00,0.2086
1311.00,0.2137
1310.00,0.2175
1309.00,0.2196
1308.00,0.2194
1307.00,0.2167
1306.00,0.2119
1305.00,0.2059
1304.00,0.1995
1303.00,0.1932
1302.00,0.1874
1301.00,0.1822
1300.00,0.1778
1299.00,0.1741
1298.00,0.1711
1297.00,0.1688
1296.00,0.1673
1295.00,0.1667
1294.00,0.1670
1293.00,0.1680
1292.00,0.1695
1291.00,0.1708
1290.00,0.1718
1289.00,0.1720
1288.00,0.1717
1287.00,0.1708
1286.00,0.1697
1285.00,0.1686
1284.00,0.1675
1283.00,0.1664
1282.00,0.1652
1281.00,0.1639
1280.00,0.1625
1279.00,0.1611
1278.00,0.1598
1277.00,0.1588
1276.00,0.1582
1275.00,0.1580
1274.00,0.1582
1273.00,0.1587
1272.00,0.1593
1271.00,0.1594
1270.00,0.1587
1269.00,0.1568
1268.00,0.1536
1267.00,0.1495
1266.00,0.1449
1265.00,0.1405
1264.00,0.1368
1263.00,0.1342
1262.00,0.1328
1261.00,0.1323
1260.00,0.1324
1259.00,0.1326
1258.00,0.1327
1257.00,0.1326
1256.00,0.1323
1255.00,0.1321
1254.00,0.1322
1253.00,0.1329
1252.00,0.1344
1251.00,0.1367
1250.00,0.1398
1249.00,0.1437
1248.00,0.1481
1247.00,0.1530
1246.00,0.1582
1245.00,0.1637
1244.00,0.1695
1243.00,0.1759
1242.00,0.1829
1241.00,0.1908
1240.00,0.1992
1239.00,0.2075
1238.00,0.2151
1237.00,0.2221
1236.00,0.2292
1235.00,0.2380
1234.00,0.2494
1233.00,0.2638
1232.00,0.2807
1231.00,0.2994
1230.00,0.3189
1229.00,0.3386
1228.00,0.3578
1227.00,0.3753
1226.00,0.3899
1225.00,0.4003
1224.00,0.4057
1223.00,0.4061
1222.00,0.4021
1221.00,0.3953
1220.00,0.3870
1219.00,0.3782
1218.00,0.3695
1217.00,0.3614
1216.00,0.3537
1215.00,0.3461
1214.00,0.3381
1213.00,0.3294
1212.00,0.3195
1211.00,0.3083
1210.00,0.2958
1209.00,0.2823
1208.00,0.2681
1207.00,0.2536
1206.00,0.2393
1205.00,0.2256
1204.00,0.2129
1203.00,0.2016
1202.00,0.1920
1201.00,0.1843
1200.00,0.1789
1199.00,0.1760
1198.00,0.1759
1197.00,0.1791
1196.00,0.1858
1195.00,0.1963
1194.00,0.2104
1193.00,0.2274
1192.00,0.2457
1191.00,0.2627
1190.00,0.2755
1189.00,0.2819
1188.00,0.2811
1187.00,0.2737
1186.00,0.2618
1185.00,0.2478
1184.00,0.2333
1183.00,0.2192
1182.00,0.2058
1181.00,0.1928
1180.00,0.1805
1179.00,0.1690
1178.00,0.1586
1177.00,0.1497
1176.00,0.1425
1175.00,0.1370
1174.00,0.1333
1173.00,0.1314
1172.00,0.1312
1171.00,0.1329
1170.00,0.1362
1169.00,0.1412
1168.00,0.1475
1167.00,0.1545
1166.00,0.1608
1165.00,0.1653
1164.00,0.1670
1163.00,0.1656
1162.00,0.1620
1161.00,0.1573
1160.00,0.1528
1159.00,0.1492
1158.00,0.1473
1157.00,0.1476
1156.00,0.1507
1155.00,0.1569
1154.00,0.1653
1153.00,0.1742
1152.00,0.1812
1151.00,0.1846
1150.00,0.1846
1149.00,0.1830
1148.00,0.1814
1147.00,0.1810
1146.00,0.1817
1145.00,0.1833
1144.00,0.1847
1143.00,0.1851
1142.00,0.1841
1141.00,0.1815
1140.00,0.1777
1139.00,0.1730
1138.00,0.1680
1137.00,0.1632
1136.00,0.1588
1135.00,0.1552
1134.00,0.1524
1133.00,0.1510
1132.00,0.1513
1131.00,0.1537
1130.00,0.1586
1129.00,0.1664
1128.00,0.1776
1127.00,0.1923
1126.00,0.2107
1125.00,0.2325
1124.00,0.2569
1123.00,0.2820
1122.00,0.3055
1121.00,0.3249
1120.00,0.3387
1119.00,0.3460
1118.00,0.3473
1117.00,0.3440
1116.00,0.3375
1115.00,0.3290
1114.00,0.3197
1113.00,0.3108
1112.00,0.3029
1111.00,0.2968
1110.00,0.2927
1109.00,0.2910
1108.00,0.2920
1107.00,0.2956
1106.00,0.3015
1105.00,0.3093
1104.00,0.3180
1103.00,0.3262
1102.00,0.3324
1101.00,0.3357
1100.00,0.3357
1099.00,0.3323
1098.00,0.3261
1097.00,0.3178
1096.00,0.3079
1095.00,0.2966
1094.00,0.2843
1093.00,0.2714
1092.00,0.2582
1091.00,0.2453
1090.00,0.2330
1089.00,0.2217
1088.00,0.2119
1087.00,0.2036
1086.00,0.1965
1085.00,0.1904
1084.00,0.1847
1083.00,0.1788
1082.00,0.1724
1081.00,0.1655
1080.00,0.1582
1079.00,0.1510
1078.00,0.1443
1077.00,0.1383
1076.00,0.1334
1075.00,0.1296
1074.00,0.1269
1073.00,0.1252
1072.00,0.1239
1071.00,0.1224
1070.00,0.1203
1069.00,0.1174
1068.00,0.1141
1067.00,0.1109
1066.00,0.1083
1065.00,0.1065
1064.00,0.1059
1063.00,0.1067
1062.00,0.1092
1061.00,0.1137
1060.00,0.1203
1059.00,0.1290
1058.00,0.1392
1057.00,0.1497
1056.00,0.1595
1055.00,0.1674
1054.00,0.1728
1053.00,0.1757
1052.00,0.1768
1051.00,0.1771
1050.00,0.1772
1049.00,0.1774
1048.00,0.1774
1047.00,0.1770
1046.00,0.1762
1045.00,0.1753
1044.00,0.1745
1043.00,0.1737
1042.00,0.1729
1041.00,0.1721
1040.00,0.1711
1039.00,0.1698
1038.00,0.1681
1037.00,0.1659
1036.00,0.1635
1035.00,0.1613
1034.00,0.1597
1033.00,0.1595
1032.00,0.1612
1031.00,0.1653
1030.00,0.1722
1029.00,0.1817
1028.00,0.1933
1027.00,0.2062
1026.00,0.2193
1025.00,0.2318
1024.00,0.2425
1023.00,0.2509
1022.00,0.2561
1021.00,0.2580
1020.00,0.2569
1019.00,0.2531
1018.00,0.2474
1017.00,0.2400
1016.00,0.2310
1015.00,0.2205
1014.00,0.2087
1013.00,0.1964
1012.00,0.1843
1011.00,0.1729
1010.00,0.1626
1009.00,0.1534
1008.00,0.1454
1007.00,0.1385
1006.00,0.1327
1005.00,0.1279
1004.00,0.1241
1003.00,0.1207
1002.00,0.1175
1001.00,0.1141
1000.00,0.1105
999.00,0.1068
998.00,0.1033
997.00,0.1001
996.00,0.0972
995.00,0.0946
994.00,0.0923
993.00,0.0901
992.00,0.0882
991.00,0.0864
990.00,0.0849
989.00,0.0835
988.00,0.0823
987.00,0.0812
986.00,0.0804
985.00,0.0797
984.00,0.0793
983.00,0.0791
982.00,0.0791
981.00,0.0792
980.00,0.0792
979.00,0.0791
978.00,0.0788
977.00,0.0785
976.00,0.0783
975.00,0.0784
974.00,0.0788
973.00,0.0796
972.00,0.0807
971.00,0.0820
970.00,0.0830
969.00,0.0835
968.00,0.0836
967.00,0.0834
966.00,0.0838
965.00,0.0850
964.00,0.0869
963.00,0.0889
962.00,0.0899
961.00,0.0896
960.00,0.0886
959.00,0.0878
958.00,0.0878
957.00,0.0887
956.00,0.0899
955.00,0.0908
954.00,0.0907
953.00,0.0896
952.00,0.0876
951.00,0.0853
950.00,0.0829
949.00,0.0806
948.00,0.0784
947.00,0.0764
946.00,0.0744
945.00,0.0726
944.00,0.0709
943.00,0.0692
942.00,0.0675
941.00,0.0656
940.00,0.0637
939.00,0.0617
938.00,0.0598
937.00,0.0580
936.00,0.0564
935.00,0.0550
934.00,0.0537
933.00,0.0526
932.00,0.0517
931.00,0.0509
930.00,0.0502
929.00,0.0496
928.00,0.0492
927.00,0.0488
926.00,0.0487
925.00,0.0487
924.00,0.0488
923.00,0.0488
922.00,0.0486
921.00,0.0481
920.00,0.0475
919.00,0.0469
918.00,0.0464
917.00,0.0460
916.00,0.0456
915.00,0.0451
914.00,0.0446
913.00,0.0441
912.00,0.0436
911.00,0.0431
910.00,0.0426
909.00,0.0421
908.00,0.0418
907.00,0.0414
906.00,0.0411
905.00,0.0408
904.00,0.0405
903.00,0.0402
902.00,0.0400
901.00,0.0399
900.00,0.0397
899.00,0.0394
898.00,0.0393
897.00,0.0392
896.00,0.0391
895.00,0.0391
894.00,0.0393
893.00,0.0394
892.00,0.0396
891.00,0.0398
890.00,0.0399
889.00,0.0401
888.00,0.0404
887.00,0.0408
886.00,0.0414
885.00,0.0420
884.00,0.0424
883.00,0.0423
882.00,0.0416
881.00,0.0407
880.00,0.0399
879.00,0.0392
878.00,0.0386
877.00,0.0381
876.00,0.0377
875.00,0.0376
874.00,0.0377
873.00,0.0381
872.00,0.0388
871.00,0.0395
870.00,0.0402
869.00,0.0411
868.00,0.0424
867.00,0.0443
866.00,0.0467
865.00,0.0499
864.00,0.0541
863.00,0.0607
862.00,0.0714
861.00,0.0872
860.00,0.1056
859.00,0.1199
858.00,0.1237
857.00,0.1160
856.00,0.1022
855.00,0.0890
854.00,0.0797
853.00,0.0746
852.00,0.0728
851.00,0.0727
850.00,0.0729
849.00,0.0720
848.00,0.0695
847.00,0.0659
846.00,0.0619
845.00,0.0584
844.00,0.0558
843.00,0.0541
842.00,0.0535
841.00,0.0541
840.00,0.0562
839.00,0.0608
838.00,0.0685
837.00,0.0797
836.00,0.0934
835.00,0.1084
834.00,0.1235
833.00,0.1382
832.00,0.1520
831.00,0.1637
830.00,0.1713
829.00,0.1728
828.00,0.1682
827.00,0.1589
826.00,0.1472
825.00,0.1354
824.00,0.1249
823.00,0.1163
822.00,0.1096
821.00,0.1043
820.00,0.1000
819.00,0.0964
818.00,0.0931
817.00,0.0899
816.00,0.0866
815.00,0.0834
814.00,0.0805
813.00,0.0780
812.00,0.0763
811.00,0.0757
810.00,0.0761
809.00,0.0771
808.00,0.0784
807.00,0.0789
806.00,0.0780
805.00,0.0753
804.00,0.0713
803.00,0.0674
802.00,0.0645
801.00,0.0635
800.00,0.0651
799.00,0.0704
798.00,0.0816
797.00,0.1004
796.00,0.1263
795.00,0.1544
794.00,0.1758
793.00,0.1833
792.00,0.1773
791.00,0.1648
790.00,0.1528
789.00,0.1444
788.00,0.1388
787.00,0.1339
786.00,0.1291
785.00,0.1252
784.00,0.1234
783.00,0.1240
782.00,0.1260
781.00,0.1278
780.00,0.1283
779.00,0.1274
778.00,0.1260
777.00,0.1248
776.00,0.1247
775.00,0.1262
774.00,0.1293
773.00,0.1331
772.00,0.1362
771.00,0.1380
770.00,0.1387
769.00,0.1397
768.00,0.1429
767.00,0.1502
766.00,0.1622
765.00,0.1774
764.00,0.1917
763.00,0.1999
762.00,0.1990
761.00,0.1898
760.00,0.1762
759.00,0.1623
758.00,0.1506
757.00,0.1419
756.00,0.1358
755.00,0.1316
754.00,0.1285
753.00,0.1263
752.00,0.1255
751.00,0.1270
750.00,0.1322
749.00,0.1421
748.00,0.1569
747.00,0.1745
746.00,0.1906
745.00,0.1994
744.00,0.1977
743.00,0.1865
742.00,0.1700
741.00,0.1523
740.00,0.1360
739.00,0.1220
738.00,0.1102
737.00,0.1004
736.00,0.0923
735.00,0.0857
734.00,0.0802
733.00,0.0758
732.00,0.0723
731.00,0.0693
730.00,0.0669
729.00,0.0647
728.00,0.0627
727.00,0.0610
726.00,0.0597
725.00,0.0587
724.00,0.0582
723.00,0.0583
722.00,0.0592
721.00,0.0612
720.00,0.0645
719.00,0.0698
718.00,0.0781
717.00,0.0909
716.00,0.1097
715.00,0.1350
714.00,0.1636
713.00,0.1889
712.00,0.2026
711.00,0.2010
710.00,0.1872
709.00,0.1680
708.00,0.1495
707.00,0.1345
706.00,0.1234
705.00,0.1156
704.00,0.1100
703.00,0.1060
702.00,0.1033
701.00,0.1017
700.00,0.1011
699.00,0.1012
698.00,0.1016
697.00,0.1025
696.00,0.1037
695.00,0.1057
694.00,0.1088
693.00,0.1134
692.00,0.1198
691.00,0.1282
690.00,0.1382
689.00,0.1490
688.00,0.1589
687.00,0.1662
686.00,0.1692
685.00,0.1679
684.00,0.1632
683.00,0.1568
682.00,0.1501
681.00,0.1441
680.00,0.1394
679.00,0.1361
678.00,0.1348
677.00,0.1356
676.00,0.1381
675.00,0.1413
674.00,0.1436
673.00,0.1437
672.00,0.1414
671.00,0.1375
670.00,0.1332
669.00,0.1291
668.00,0.1260
667.00,0.1241
666.00,0.1230
665.00,0.1221
664.00,0.1213
663.00,0.1202
662.00,0.1187
661.00,0.1167
660.00,0.1140
659.00,0.1109
658.00,0.1073
657.00,0.1034
656.00,0.0994
655.00,0.0954
654.00,0.0916
653.00,0.0881
652.00,0.0847
651.00,0.0815
650.00,0.0786
649.00,0.0760
648.00,0.0735
647.00,0.0713
646.00,0.0696
645.00,0.0681
644.00,0.0668
643.00,0.0655
642.00,0.0643
641.00,0.0629
640.00,0.0613
639.00,0.0601
638.00,0.0596
637.00,0.0600
636.00,0.0611
635.00,0.0627
634.00,0.0645
633.00,0.0664
632.00,0.0686
631.00,0.0716
630.00,0.0762
629.00,0.0826
628.00,0.0906
627.00,0.0998
626.00,0.1091
625.00,0.1171
624.00,0.1225
623.00,0.1247
622.00,0.1238
621.00,0.1206
620.00,0.1158
619.00,0.1104
618.00,0.1049
617.00,0.0999
616.00,0.0957
615.00,0.0925
614.00,0.0907
613.00,0.0904
612.00,0.0913
611.00,0.0930
610.00,0.0948
609.00,0.0958
608.00,0.0953
607.00,0.0932
606.00,0.0899
605.00,0.0860
604.00,0.0820
603.00,0.0784
602.00,0.0755
601.00,0.0734
600.00,0.0720
599.00,0.0714
598.00,0.0715
597.00,0.0724
596.00,0.0738
595.00,0.0757
594.00,0.0781
593.00,0.0810
592.00,0.0841
591.00,0.0866
590.00,0.0878
589.00,0.0875
588.00,0.0869
587.00,0.0873
586.00,0.0891
585.00,0.0911
584.00,0.0921
583.00,0.0912
582.00,0.0885
581.00,0.0850
580.00,0.0815
579.00,0.0786
578.00,0.0765
577.00,0.0751
576.00,0.0740
575.00,0.0730
574.00,0.0722
573.00,0.0719
572.00,0.0720
571.00,0.0726
570.00,0.0736
569.00,0.0746
568.00,0.0757
567.00,0.0766
566.00,0.0775
565.00,0.0782
564.00,0.0782
563.00,0.0774
562.00,0.0755
561.00,0.0730
560.00,0.0702
559.00,0.0675
558.00,0.0653
557.00,0.0633
556.00,0.0616
555.00,0.0604
554.00,0.0598
553.00,0.0598
552.00,0.0600
551.00,0.0603
550.00,0.0603
549.00,0.0597
548.00,0.0584
547.00,0.0569
546.00,0.0554
545.00,0.0541
544.00,0.0529
543.00,0.0520
542.00,0.0514
541.00,0.0510
540.00,0.0506
539.00,0.0501
538.00,0.0497
537.00,0.0492
536.00,0.0486
535.00,0.0481
534.00,0.0477
533.00,0.0473
532.00,0.0471
531.00,0.0469
530.00,0.0468
529.00,0.0467
528.00,0.0467
527.00,0.0468
526.00,0.0470
525.00,0.0469
524.00,0.0467
523.00,0.0466
522.00,0.0469
521.00,0.0477
520.00,0.0486
519.00,0.0495
518.00,0.0504
517.00,0.0510
516.00,0.0517
515.00,0.0526
514.00,0.0539
513.00,0.0552
512.00,0.0559
511.00,0.0558
510.00,0.0549
509.00,0.0535
508.00,0.0522
507.00,0.0509
506.00,0.0499
505.00,0.0492
504.00,0.0488
503.00,0.0486
502.00,0.0483
501.00,0.0476
500.00,0.0468
499.00,0.0461
498.00,0.0460
497.00,0.0460
496.00,0.0461
495.00,0.0464
494.00,0.0470
493.00,0.0477
492.00,0.0483
491.00,0.0487
490.00,0.0492
489.00,0.0500
488.00,0.0512
487.00,0.0529
486.00,0.0548
485.00,0.0567
484.00,0.0584
483.00,0.0601
482.00,0.0615
481.00,0.0622
480.00,0.0622
479.00,0.0620
478.00,0.0621
477.00,0.0626
476.00,0.0634
475.00,0.0649
474.00,0.0673
473.00,0.0705
472.00,0.0742
471.00,0.0781
470.00,0.0821
469.00,0.0857
468.00,0.0883
467.00,0.0891
466.00,0.0881
465.00,0.0859
464.00,0.0832
463.00,0.0804
462.00,0.0775
461.00,0.0746
460.00,0.0719
459.00,0.0696
458.00,0.0674
457.00,0.0651
456.00,0.0627
455.00,0.0609
454.00,0.0599
453.00,0.0592
452.00,0.0582
451.00,0.0570
450.00,0.0559
449.00,0.0552
448.00,0.0549
447.00,0.0549
446.00,0.0549
445.00,0.0546
444.00,0.0540
443.00,0.0532
442.00,0.0523
441.00,0.0514
440.00,0.0507
439.00,0.0509
438.00,0.0518
437.00,0.0526
436.00,0.0527
435.00,0.0521
434.00,0.0514
433.00,0.0510
432.00,0.0508
431.00,0.0511
430.00,0.0517
429.00,0.0527
428.00,0.0538
427.00,0.0552
426.00,0.0568
425.00,0.0586
424.00,0.0601
423.00,0.0615
422.00,0.0631
421.00,0.0655
420.00,0.0691
419.00,0.0736
418.00,0.0773
417.00,0.0793
416.00,0.0803
415.00,0.0816
414.00,0.0832
413.00,0.0845
412.00,0.0852
411.00,0.0857
410.00,0.0862
409.00,0.0864
408.00,0.0859
407.00,0.0843
406.00,0.0816
405.00,0.0781
404.00,0.0748
403.00,0.0725
402.00,0.0719
401.00,0.0726
400.00,0.0740
