Created as New Dataset,Sample 619 By YargerLab Date Friday, June 06 2025
cm-1,A
4000.00,0.0061
3999.00,0.0061
3998.00,0.0061
3997.00,0.0061
3996.00,0.0061
3995.00,0.0061
3994.00,0.0061
3993.00,0.0061
3992.00,0.0061
3991.00,0.0061
3990.00,0.0061
3989.00,0.0061
3988.00,0.0061
3987.00,0.0061
3986.00,0.0061
3985.00,0.0061
3984.00,0.0061
3983.00,0.0061
3982.00,0.0061
3981.00,0.0061
3980.00,0.0061
3979.00,0.0061
3978.00,0.0061
3977.00,0.0061
3976.00,0.0061
3975.00,0.0061
3974.00,0.0061
3973.00,0.0061
3972.00,0.0061
3971.00,0.0061
3970.00,0.0061
3969.00,0.0061
3968.00,0.0061
3967.00,0.0061
3966.00,0.0061
3965.00,0.0062
3964.00,0.0062
3963.00,0.0062
3962.00,0.0062
3961.00,0.0062
3960.00,0.0062
3959.00,0.0062
3958.00,0.0062
3957.00,0.0062
3956.00,0.0062
3955.00,0.0062
3954.00,0.0062
3953.00,0.0062
3952.00,0.0061
3951.00,0.0061
3950.00,0.0061
3949.00,0.0061
3948.00,0.0062
3947.00,0.0062
3946.00,0.0062
3945.00,0.0062
3944.00,0.0062
3943.00,0.0062
3942.00,0.0062
3941.00,0.0062
3940.00,0.0062
3939.00,0.0062
3938.00,0.0062
3937.00,0.0062
3936.00,0.0062
3935.00,0.0062
3934.00,0.0062
3933.00,0.0062
3932.00,0.0063
3931.00,0.0062
3930.00,0.0062
3929.00,0.0062
3928.00,0.0062
3927.00,0.0062
3926.00,0.0062
3925.00,0.0062
3924.00,0.0062
3923.00,0.0062
3922.00,0.0062
3921.00,0.0062
3920.00,0.0061
3919.00,0.0061
3918.00,0.0061
3917.00,0.0061
3916.00,0.0061
3915.00,0.0061
3914.00,0.0061
3913.00,0.0061
3912.00,0.0061
3911.00,0.0061
3910.00,0.0061
3909.00,0.0061
3908.00,0.0061
3907.00,0.0061
3906.00,0.0061
3905.00,0.0061
3904.00,0.0062
3903.00,0.0062
3902.00,0.0062
3901.00,0.0063
3900.00,0.0062
3899.00,0.0062
3898.00,0.0061
3897.00,0.0061
3896.00,0.0061
3895.00,0.0061
3894.00,0.0061
3893.00,0.0061
3892.00,0.0061
3891.00,0.0061
3890.00,0.0061
3889.00,0.0061
3888.00,0.0061
3887.00,0.0061
3886.00,0.0061
3885.00,0.0060
3884.00,0.0060
3883.00,0.0061
3882.00,0.0061
3881.00,0.0061
3880.00,0.0061
3879.00,0.0060
3878.00,0.0060
3877.00,0.0060
3876.00,0.0060
3875.00,0.0060
3874.00,0.0060
3873.00,0.0060
3872.00,0.0061
3871.00,0.0061
3870.00,0.0061
3869.00,0.0060
3868.00,0.0061
3867.00,0.0061
3866.00,0.0061
3865.00,0.0060
3864.00,0.0060
3863.00,0.0060
3862.00,0.0060
3861.00,0.0060
3860.00,0.0060
3859.00,0.0060
3858.00,0.0060
3857.00,0.0061
3856.00,0.0061
3855.00,0.0062
3854.00,0.0062
3853.00,0.0061
3852.00,0.0061
3851.00,0.0062
3850.00,0.0062
3849.00,0.0061
3848.00,0.0061
3847.00,0.0060
3846.00,0.0060
3845.00,0.0060
3844.00,0.0060
3843.00,0.0060
3842.00,0.0061
3841.00,0.0061
3840.00,0.0061
3839.00,0.0061
3838.00,0.0061
3837.00,0.0061
3836.00,0.0061
3835.00,0.0061
3834.00,0.0061
3833.00,0.0061
3832.00,0.0061
3831.00,0.0060
3830.00,0.0060
3829.00,0.0060
3828.00,0.0059
3827.00,0.0059
3826.00,0.0059
3825.00,0.0059
3824.00,0.0060
3823.00,0.0060
3822.00,0.0060
3821.00,0.0060
3820.00,0.0060
3819.00,0.0060
3818.00,0.0060
3817.00,0.0060
3816.00,0.0060
3815.00,0.0060
3814.00,0.0060
3813.00,0.0060
3812.00,0.0060
3811.00,0.0060
3810.00,0.0060
3809.00,0.0060
3808.00,0.0060
3807.00,0.0060
3806.00,0.0061
3805.00,0.0061
3804.00,0.0061
3803.00,0.0061
3802.00,0.0061
3801.00,0.0060
3800.00,0.0060
3799.00,0.0060
3798.00,0.0061
3797.00,0.0060
3796.00,0.0060
3795.00,0.0060
3794.00,0.0060
3793.00,0.0060
3792.00,0.0060
3791.00,0.0060
3790.00,0.0060
3789.00,0.0060
3788.00,0.0060
3787.00,0.0059
3786.00,0.0059
3785.00,0.0059
3784.00,0.0059
3783.00,0.0059
3782.00,0.0060
3781.00,0.0060
3780.00,0.0060
3779.00,0.0060
3778.00,0.0059
3777.00,0.0059
3776.00,0.0059
3775.00,0.0059
3774.00,0.0060
3773.00,0.0060
3772.00,0.0060
3771.00,0.0060
3770.00,0.0060
3769.00,0.0059
3768.00,0.0060
3767.00,0.0060
3766.00,0.0060
3765.00,0.0060
3764.00,0.0060
3763.00,0.0060
3762.00,0.0060
3761.00,0.0060
3760.00,0.0060
3759.00,0.0060
3758.00,0.0060
3757.00,0.0060
3756.00,0.0061
3755.00,0.0061
3754.00,0.0061
3753.00,0.0062
3752.00,0.0062
3751.00,0.0062
3750.00,0.0062
3749.00,0.0062
3748.00,0.0062
3747.00,0.0062
3746.00,0.0062
3745.00,0.0062
3744.00,0.0061
3743.00,0.0061
3742.00,0.0061
3741.00,0.0061
3740.00,0.0061
3739.00,0.0061
3738.00,0.0061
3737.00,0.0061
3736.00,0.0060
3735.00,0.0060
3734.00,0.0060
3733.00,0.0060
3732.00,0.0060
3731.00,0.0060
3730.00,0.0060
3729.00,0.0060
3728.00,0.0060
3727.00,0.0060
3726.00,0.0060
3725.00,0.0060
3724.00,0.0059
3723.00,0.0059
3722.00,0.0059
3721.00,0.0058
3720.00,0.0058
3719.00,0.0058
3718.00,0.0058
3717.00,0.0059
3716.00,0.0059
3715.00,0.0060
3714.00,0.0060
3713.00,0.0060
3712.00,0.0060
3711.00,0.0060
3710.00,0.0059
3709.00,0.0059
3708.00,0.0059
3707.00,0.0059
3706.00,0.0059
3705.00,0.0059
3704.00,0.0059
3703.00,0.0058
3702.00,0.0058
3701.00,0.0058
3700.00,0.0058
3699.00,0.0058
3698.00,0.0058
3697.00,0.0057
3696.00,0.0057
3695.00,0.0057
3694.00,0.0057
3693.00,0.0058
3692.00,0.0058
3691.00,0.0058
3690.00,0.0058
3689.00,0.0058
3688.00,0.0058
3687.00,0.0058
3686.00,0.0058
3685.00,0.0058
3684.00,0.0058
3683.00,0.0058
3682.00,0.0057
3681.00,0.0058
3680.00,0.0058
3679.00,0.0058
3678.00,0.0058
3677.00,0.0059
3676.00,0.0059
3675.00,0.0059
3674.00,0.0059
3673.00,0.0059
3672.00,0.0059
3671.00,0.0059
3670.00,0.0059
3669.00,0.0058
3668.00,0.0058
3667.00,0.0058
3666.00,0.0058
3665.00,0.0057
3664.00,0.0057
3663.00,0.0057
3662.00,0.0057
3661.00,0.0057
3660.00,0.0057
3659.00,0.0058
3658.00,0.0058
3657.00,0.0058
3656.00,0.0058
3655.00,0.0058
3654.00,0.0058
3653.00,0.0058
3652.00,0.0058
3651.00,0.0059
3650.00,0.0059
3649.00,0.0059
3648.00,0.0060
3647.00,0.0060
3646.00,0.0059
3645.00,0.0059
3644.00,0.0058
3643.00,0.0057
3642.00,0.0057
3641.00,0.0056
3640.00,0.0056
3639.00,0.0056
3638.00,0.0057
3637.00,0.0057
3636.00,0.0057
3635.00,0.0057
3634.00,0.0057
3633.00,0.0057
3632.00,0.0057
3631.00,0.0058
3630.00,0.0058
3629.00,0.0059
3628.00,0.0059
3627.00,0.0058
3626.00,0.0058
3625.00,0.0058
3624.00,0.0057
3623.00,0.0057
3622.00,0.0057
3621.00,0.0057
3620.00,0.0058
3619.00,0.0058
3618.00,0.0058
3617.00,0.0058
3616.00,0.0058
3615.00,0.0058
3614.00,0.0057
3613.00,0.0057
3612.00,0.0057
3611.00,0.0058
3610.00,0.0058
3609.00,0.0059
3608.00,0.0059
3607.00,0.0059
3606.00,0.0059
3605.00,0.0059
3604.00,0.0058
3603.00,0.0058
3602.00,0.0058
3601.00,0.0058
3600.00,0.0058
3599.00,0.0058
3598.00,0.0058
3597.00,0.0058
3596.00,0.0058
3595.00,0.0058
3594.00,0.0058
3593.00,0.0058
3592.00,0.0058
3591.00,0.0058
3590.00,0.0058
3589.00,0.0058
3588.00,0.0058
3587.00,0.0057
3586.00,0.0057
3585.00,0.0057
3584.00,0.0057
3583.00,0.0057
3582.00,0.0057
3581.00,0.0057
3580.00,0.0057
3579.00,0.0057
3578.00,0.0057
3577.00,0.0057
3576.00,0.0057
3575.00,0.0057
3574.00,0.0057
3573.00,0.0057
3572.00,0.0057
3571.00,0.0058
3570.00,0.0058
3569.00,0.0058
3568.00,0.0058
3567.00,0.0058
3566.00,0.0058
3565.00,0.0059
3564.00,0.0059
3563.00,0.0059
3562.00,0.0058
3561.00,0.0058
3560.00,0.0058
3559.00,0.0058
3558.00,0.0058
3557.00,0.0058
3556.00,0.0058
3555.00,0.0058
3554.00,0.0058
3553.00,0.0058
3552.00,0.0058
3551.00,0.0058
3550.00,0.0058
3549.00,0.0058
3548.00,0.0058
3547.00,0.0058
3546.00,0.0058
3545.00,0.0058
3544.00,0.0058
3543.00,0.0058
3542.00,0.0058
3541.00,0.0057
3540.00,0.0058
3539.00,0.0058
3538.00,0.0058
3537.00,0.0058
3536.00,0.0058
3535.00,0.0058
3534.00,0.0058
3533.00,0.0058
3532.00,0.0058
3531.00,0.0058
3530.00,0.0058
3529.00,0.0058
3528.00,0.0058
3527.00,0.0058
3526.00,0.0058
3525.00,0.0058
3524.00,0.0058
3523.00,0.0058
3522.00,0.0058
3521.00,0.0058
3520.00,0.0058
3519.00,0.0058
3518.00,0.0057
3517.00,0.0057
3516.00,0.0058
3515.00,0.0058
3514.00,0.0058
3513.00,0.0058
3512.00,0.0058
3511.00,0.0058
3510.00,0.0058
3509.00,0.0058
3508.00,0.0058
3507.00,0.0058
3506.00,0.0057
3505.00,0.0057
3504.00,0.0057
3503.00,0.0057
3502.00,0.0057
3501.00,0.0058
3500.00,0.0058
3499.00,0.0058
3498.00,0.0058
3497.00,0.0058
3496.00,0.0057
3495.00,0.0057
3494.00,0.0057
3493.00,0.0057
3492.00,0.0057
3491.00,0.0057
3490.00,0.0057
3489.00,0.0057
3488.00,0.0057
3487.00,0.0057
3486.00,0.0057
3485.00,0.0057
3484.00,0.0057
3483.00,0.0057
3482.00,0.0057
3481.00,0.0057
3480.00,0.0057
3479.00,0.0057
3478.00,0.0057
3477.00,0.0057
3476.00,0.0057
3475.00,0.0057
3474.00,0.0057
3473.00,0.0057
3472.00,0.0057
3471.00,0.0057
3470.00,0.0056
3469.00,0.0056
3468.00,0.0057
3467.00,0.0057
3466.00,0.0057
3465.00,0.0057
3464.00,0.0057
3463.00,0.0057
3462.00,0.0057
3461.00,0.0057
3460.00,0.0057
3459.00,0.0057
3458.00,0.0057
3457.00,0.0057
3456.00,0.0057
3455.00,0.0057
3454.00,0.0057
3453.00,0.0057
3452.00,0.0057
3451.00,0.0057
3450.00,0.0057
3449.00,0.0057
3448.00,0.0057
3447.00,0.0058
3446.00,0.0058
3445.00,0.0058
3444.00,0.0058
3443.00,0.0058
3442.00,0.0058
3441.00,0.0058
3440.00,0.0058
3439.00,0.0058
3438.00,0.0058
3437.00,0.0058
3436.00,0.0058
3435.00,0.0058
3434.00,0.0059
3433.00,0.0059
3432.00,0.0059
3431.00,0.0060
3430.00,0.0060
3429.00,0.0060
3428.00,0.0060
3427.00,0.0060
3426.00,0.0060
3425.00,0.0061
3424.00,0.0061
3423.00,0.0061
3422.00,0.0061
3421.00,0.0062
3420.00,0.0063
3419.00,0.0063
3418.00,0.0064
3417.00,0.0064
3416.00,0.0064
3415.00,0.0065
3414.00,0.0065
3413.00,0.0066
3412.00,0.0066
3411.00,0.0067
3410.00,0.0068
3409.00,0.0069
3408.00,0.0070
3407.00,0.0071
3406.00,0.0072
3405.00,0.0073
3404.00,0.0074
3403.00,0.0074
3402.00,0.0074
3401.00,0.0075
3400.00,0.0076
3399.00,0.0078
3398.00,0.0079
3397.00,0.0080
3396.00,0.0081
3395.00,0.0082
3394.00,0.0083
3393.00,0.0083
3392.00,0.0085
3391.00,0.0086
3390.00,0.0088
3389.00,0.0089
3388.00,0.0091
3387.00,0.0093
3386.00,0.0095
3385.00,0.0097
3384.00,0.0099
3383.00,0.0101
3382.00,0.0103
3381.00,0.0106
3380.00,0.0109
3379.00,0.0112
3378.00,0.0116
3377.00,0.0120
3376.00,0.0125
3375.00,0.0131
3374.00,0.0137
3373.00,0.0144
3372.00,0.0152
3371.00,0.0161
3370.00,0.0172
3369.00,0.0185
3368.00,0.0200
3367.00,0.0216
3366.00,0.0234
3365.00,0.0254
3364.00,0.0273
3363.00,0.0293
3362.00,0.0311
3361.00,0.0326
3360.00,0.0339
3359.00,0.0348
3358.00,0.0353
3357.00,0.0355
3356.00,0.0353
3355.00,0.0347
3354.00,0.0340
3353.00,0.0330
3352.00,0.0320
3351.00,0.0309
3350.00,0.0298
3349.00,0.0287
3348.00,0.0277
3347.00,0.0267
3346.00,0.0257
3345.00,0.0249
3344.00,0.0241
3343.00,0.0234
3342.00,0.0227
3341.00,0.0222
3340.00,0.0217
3339.00,0.0212
3338.00,0.0208
3337.00,0.0205
3336.00,0.0202
3335.00,0.0199
3334.00,0.0197
3333.00,0.0194
3332.00,0.0192
3331.00,0.0190
3330.00,0.0187
3329.00,0.0185
3328.00,0.0183
3327.00,0.0181
3326.00,0.0179
3325.00,0.0177
3324.00,0.0175
3323.00,0.0174
3322.00,0.0172
3321.00,0.0171
3320.00,0.0169
3319.00,0.0168
3318.00,0.0166
3317.00,0.0164
3316.00,0.0163
3315.00,0.0161
3314.00,0.0159
3313.00,0.0157
3312.00,0.0154
3311.00,0.0152
3310.00,0.0150
3309.00,0.0149
3308.00,0.0147
3307.00,0.0145
3306.00,0.0144
3305.00,0.0143
3304.00,0.0142
3303.00,0.0140
3302.00,0.0139
3301.00,0.0138
3300.00,0.0137
3299.00,0.0135
3298.00,0.0133
3297.00,0.0132
3296.00,0.0130
3295.00,0.0129
3294.00,0.0127
3293.00,0.0125
3292.00,0.0124
3291.00,0.0122
3290.00,0.0121
3289.00,0.0119
3288.00,0.0118
3287.00,0.0116
3286.00,0.0115
3285.00,0.0113
3284.00,0.0112
3283.00,0.0111
3282.00,0.0110
3281.00,0.0108
3280.00,0.0107
3279.00,0.0106
3278.00,0.0105
3277.00,0.0105
3276.00,0.0104
3275.00,0.0103
3274.00,0.0102
3273.00,0.0101
3272.00,0.0100
3271.00,0.0100
3270.00,0.0100
3269.00,0.0099
3268.00,0.0099
3267.00,0.0099
3266.00,0.0098
3265.00,0.0098
3264.00,0.0098
3263.00,0.0098
3262.00,0.0098
3261.00,0.0097
3260.00,0.0097
3259.00,0.0097
3258.00,0.0096
3257.00,0.0096
3256.00,0.0096
3255.00,0.0096
3254.00,0.0096
3253.00,0.0096
3252.00,0.0095
3251.00,0.0095
3250.00,0.0095
3249.00,0.0095
3248.00,0.0095
3247.00,0.0095
3246.00,0.0096
3245.00,0.0097
3244.00,0.0097
3243.00,0.0098
3242.00,0.0098
3241.00,0.0098
3240.00,0.0099
3239.00,0.0099
3238.00,0.0099
3237.00,0.0098
3236.00,0.0097
3235.00,0.0097
3234.00,0.0097
3233.00,0.0097
3232.00,0.0097
3231.00,0.0097
3230.00,0.0097
3229.00,0.0097
3228.00,0.0096
3227.00,0.0096
3226.00,0.0095
3225.00,0.0095
3224.00,0.0094
3223.00,0.0093
3222.00,0.0092
3221.00,0.0090
3220.00,0.0090
3219.00,0.0089
3218.00,0.0089
3217.00,0.0088
3216.00,0.0088
3215.00,0.0087
3214.00,0.0087
3213.00,0.0086
3212.00,0.0086
3211.00,0.0085
3210.00,0.0084
3209.00,0.0083
3208.00,0.0083
3207.00,0.0082
3206.00,0.0082
3205.00,0.0081
3204.00,0.0081
3203.00,0.0081
3202.00,0.0080
3201.00,0.0080
3200.00,0.0080
3199.00,0.0080
3198.00,0.0080
3197.00,0.0079
3196.00,0.0079
3195.00,0.0078
3194.00,0.0078
3193.00,0.0078
3192.00,0.0077
3191.00,0.0077
3190.00,0.0077
3189.00,0.0077
3188.00,0.0077
3187.00,0.0076
3186.00,0.0077
3185.00,0.0077
3184.00,0.0077
3183.00,0.0076
3182.00,0.0076
3181.00,0.0076
3180.00,0.0076
3179.00,0.0075
3178.00,0.0075
3177.00,0.0075
3176.00,0.0075
3175.00,0.0075
3174.00,0.0075
3173.00,0.0074
3172.00,0.0074
3171.00,0.0074
3170.00,0.0074
3169.00,0.0074
3168.00,0.0074
3167.00,0.0074
3166.00,0.0074
3165.00,0.0074
3164.00,0.0073
3163.00,0.0073
3162.00,0.0073
3161.00,0.0073
3160.00,0.0074
3159.00,0.0074
3158.00,0.0074
3157.00,0.0074
3156.00,0.0074
3155.00,0.0074
3154.00,0.0074
3153.00,0.0074
3152.00,0.0074
3151.00,0.0074
3150.00,0.0074
3149.00,0.0074
3148.00,0.0074
3147.00,0.0074
3146.00,0.0074
3145.00,0.0074
3144.00,0.0074
3143.00,0.0074
3142.00,0.0074
3141.00,0.0074
3140.00,0.0074
3139.00,0.0074
3138.00,0.0074
3137.00,0.0075
3136.00,0.0075
3135.00,0.0075
3134.00,0.0076
3133.00,0.0076
3132.00,0.0076
3131.00,0.0075
3130.00,0.0075
3129.00,0.0076
3128.00,0.0076
3127.00,0.0076
3126.00,0.0077
3125.00,0.0077
3124.00,0.0077
3123.00,0.0078
3122.00,0.0078
3121.00,0.0079
3120.00,0.0079
3119.00,0.0080
3118.00,0.0081
3117.00,0.0081
3116.00,0.0082
3115.00,0.0083
3114.00,0.0084
3113.00,0.0085
3112.00,0.0086
3111.00,0.0087
3110.00,0.0088
3109.00,0.0089
3108.00,0.0090
3107.00,0.0091
3106.00,0.0092
3105.00,0.0092
3104.00,0.0093
3103.00,0.0093
3102.00,0.0093
3101.00,0.0093
3100.00,0.0093
3099.00,0.0092
3098.00,0.0092
3097.00,0.0092
3096.00,0.0091
3095.00,0.0091
3094.00,0.0090
3093.00,0.0089
3092.00,0.0089
3091.00,0.0088
3090.00,0.0088
3089.00,0.0087
3088.00,0.0087
3087.00,0.0087
3086.00,0.0087
3085.00,0.0087
3084.00,0.0087
3083.00,0.0087
3082.00,0.0087
3081.00,0.0086
3080.00,0.0086
3079.00,0.0086
3078.00,0.0085
3077.00,0.0085
3076.00,0.0084
3075.00,0.0084
3074.00,0.0084
3073.00,0.0083
3072.00,0.0083
3071.00,0.0083
3070.00,0.0083
3069.00,0.0082
3068.00,0.0082
3067.00,0.0082
3066.00,0.0082
3065.00,0.0082
3064.00,0.0082
3063.00,0.0081
3062.00,0.0081
3061.00,0.0081
3060.00,0.0081
3059.00,0.0081
3058.00,0.0080
3057.00,0.0080
3056.00,0.0080
3055.00,0.0080
3054.00,0.0080
3053.00,0.0080
3052.00,0.0080
3051.00,0.0080
3050.00,0.0080
3049.00,0.0080
3048.00,0.0079
3047.00,0.0079
3046.00,0.0079
3045.00,0.0078
3044.00,0.0078
3043.00,0.0078
3042.00,0.0078
3041.00,0.0079
3040.00,0.0080
3039.00,0.0081
3038.00,0.0081
3037.00,0.0082
3036.00,0.0082
3035.00,0.0082
3034.00,0.0082
3033.00,0.0083
3032.00,0.0083
3031.00,0.0083
3030.00,0.0084
3029.00,0.0084
3028.00,0.0084
3027.00,0.0084
3026.00,0.0084
3025.00,0.0085
3024.00,0.0085
3023.00,0.0086
3022.00,0.0087
3021.00,0.0088
3020.00,0.0088
3019.00,0.0089
3018.00,0.0089
3017.00,0.0089
3016.00,0.0089
3015.00,0.0089
3014.00,0.0089
3013.00,0.0089
3012.00,0.0089
3011.00,0.0090
3010.00,0.0090
3009.00,0.0091
3008.00,0.0092
3007.00,0.0093
3006.00,0.0093
3005.00,0.0094
3004.00,0.0096
3003.00,0.0097
3002.00,0.0099
3001.00,0.0101
3000.00,0.0102
2999.00,0.0104
2998.00,0.0106
2997.00,0.0108
2996.00,0.0110
2995.00,0.0111
2994.00,0.0112
2993.00,0.0114
2992.00,0.0115
2991.00,0.0117
2990.00,0.0119
2989.00,0.0121
2988.00,0.0122
2987.00,0.0122
2986.00,0.0121
2985.00,0.0119
2984.00,0.0116
2983.00,0.0113
2982.00,0.0110
2981.00,0.0107
2980.00,0.0105
2979.00,0.0104
2978.00,0.0102
2977.00,0.0101
2976.00,0.0100
2975.00,0.0098
2974.00,0.0098
2973.00,0.0097
2972.00,0.0097
2971.00,0.0098
2970.00,0.0098
2969.00,0.0098
2968.00,0.0099
2967.00,0.0099
2966.00,0.0100
2965.00,0.0101
2964.00,0.0102
2963.00,0.0104
2962.00,0.0107
2961.00,0.0110
2960.00,0.0114
2959.00,0.0119
2958.00,0.0124
2957.00,0.0129
2956.00,0.0135
2955.00,0.0142
2954.00,0.0148
2953.00,0.0153
2952.00,0.0157
2951.00,0.0159
2950.00,0.0158
2949.00,0.0155
2948.00,0.0151
2947.00,0.0146
2946.00,0.0141
2945.00,0.0136
2944.00,0.0131
2943.00,0.0127
2942.00,0.0123
2941.00,0.0120
2940.00,0.0117
2939.00,0.0115
2938.00,0.0112
2937.00,0.0111
2936.00,0.0109
2935.00,0.0108
2934.00,0.0107
2933.00,0.0106
2932.00,0.0106
2931.00,0.0105
2930.00,0.0104
2929.00,0.0104
2928.00,0.0103
2927.00,0.0102
2926.00,0.0102
2925.00,0.0101
2924.00,0.0100
2923.00,0.0099
2922.00,0.0098
2921.00,0.0097
2920.00,0.0096
2919.00,0.0096
2918.00,0.0095
2917.00,0.0094
2916.00,0.0094
2915.00,0.0093
2914.00,0.0093
2913.00,0.0093
2912.00,0.0093
2911.00,0.0093
2910.00,0.0093
2909.00,0.0093
2908.00,0.0093
2907.00,0.0093
2906.00,0.0093
2905.00,0.0093
2904.00,0.0092
2903.00,0.0091
2902.00,0.0091
2901.00,0.0090
2900.00,0.0089
2899.00,0.0088
2898.00,0.0087
2897.00,0.0087
2896.00,0.0087
2895.00,0.0086
2894.00,0.0086
2893.00,0.0086
2892.00,0.0086
2891.00,0.0086
2890.00,0.0086
2889.00,0.0086
2888.00,0.0086
2887.00,0.0086
2886.00,0.0086
2885.00,0.0086
2884.00,0.0086
2883.00,0.0086
2882.00,0.0086
2881.00,0.0086
2880.00,0.0086
2879.00,0.0085
2878.00,0.0085
2877.00,0.0084
2876.00,0.0084
2875.00,0.0084
2874.00,0.0084
2873.00,0.0084
2872.00,0.0084
2871.00,0.0085
2870.00,0.0085
2869.00,0.0085
2868.00,0.0085
2867.00,0.0086
2866.00,0.0086
2865.00,0.0086
2864.00,0.0087
2863.00,0.0087
2862.00,0.0086
2861.00,0.0086
2860.00,0.0086
2859.00,0.0086
2858.00,0.0086
2857.00,0.0085
2856.00,0.0085
2855.00,0.0085
2854.00,0.0084
2853.00,0.0084
2852.00,0.0084
2851.00,0.0084
2850.00,0.0084
2849.00,0.0084
2848.00,0.0085
2847.00,0.0085
2846.00,0.0086
2845.00,0.0087
2844.00,0.0088
2843.00,0.0089
2842.00,0.0090
2841.00,0.0091
2840.00,0.0092
2839.00,0.0093
2838.00,0.0093
2837.00,0.0092
2836.00,0.0090
2835.00,0.0089
2834.00,0.0087
2833.00,0.0085
2832.00,0.0084
2831.00,0.0083
2830.00,0.0082
2829.00,0.0081
2828.00,0.0081
2827.00,0.0080
2826.00,0.0080
2825.00,0.0080
2824.00,0.0079
2823.00,0.0079
2822.00,0.0079
2821.00,0.0079
2820.00,0.0079
2819.00,0.0080
2818.00,0.0080
2817.00,0.0080
2816.00,0.0080
2815.00,0.0080
2814.00,0.0080
2813.00,0.0080
2812.00,0.0080
2811.00,0.0080
2810.00,0.0080
2809.00,0.0081
2808.00,0.0080
2807.00,0.0080
2806.00,0.0080
2805.00,0.0080
2804.00,0.0079
2803.00,0.0079
2802.00,0.0079
2801.00,0.0078
2800.00,0.0078
2799.00,0.0077
2798.00,0.0076
2797.00,0.0076
2796.00,0.0076
2795.00,0.0076
2794.00,0.0075
2793.00,0.0075
2792.00,0.0075
2791.00,0.0074
2790.00,0.0074
2789.00,0.0073
2788.00,0.0073
2787.00,0.0073
2786.00,0.0073
2785.00,0.0073
2784.00,0.0072
2783.00,0.0072
2782.00,0.0072
2781.00,0.0072
2780.00,0.0072
2779.00,0.0071
2778.00,0.0071
2777.00,0.0071
2776.00,0.0070
2775.00,0.0070
2774.00,0.0070
2773.00,0.0070
2772.00,0.0070
2771.00,0.0070
2770.00,0.0070
2769.00,0.0070
2768.00,0.0069
2767.00,0.0069
2766.00,0.0069
2765.00,0.0069
2764.00,0.0069
2763.00,0.0069
2762.00,0.0069
2761.00,0.0069
2760.00,0.0069
2759.00,0.0069
2758.00,0.0069
2757.00,0.0069
2756.00,0.0069
2755.00,0.0069
2754.00,0.0069
2753.00,0.0069
2752.00,0.0069
2751.00,0.0069
2750.00,0.0068
2749.00,0.0068
2748.00,0.0068
2747.00,0.0068
2746.00,0.0068
2745.00,0.0068
2744.00,0.0068
2743.00,0.0068
2742.00,0.0068
2741.00,0.0068
2740.00,0.0068
2739.00,0.0067
2738.00,0.0067
2737.00,0.0067
2736.00,0.0067
2735.00,0.0067
2734.00,0.0067
2733.00,0.0067
2732.00,0.0067
2731.00,0.0067
2730.00,0.0067
2729.00,0.0067
2728.00,0.0066
2727.00,0.0066
2726.00,0.0066
2725.00,0.0066
2724.00,0.0066
2723.00,0.0066
2722.00,0.0066
2721.00,0.0066
2720.00,0.0066
2719.00,0.0066
2718.00,0.0066
2717.00,0.0066
2716.00,0.0067
2715.00,0.0067
2714.00,0.0067
2713.00,0.0067
2712.00,0.0067
2711.00,0.0067
2710.00,0.0067
2709.00,0.0067
2708.00,0.0067
2707.00,0.0067
2706.00,0.0067
2705.00,0.0067
2704.00,0.0067
2703.00,0.0067
2702.00,0.0067
2701.00,0.0067
2700.00,0.0067
2699.00,0.0067
2698.00,0.0068
2697.00,0.0068
2696.00,0.0068
2695.00,0.0068
2694.00,0.0068
2693.00,0.0068
2692.00,0.0067
2691.00,0.0067
2690.00,0.0067
2689.00,0.0067
2688.00,0.0067
2687.00,0.0067
2686.00,0.0067
2685.00,0.0067
2684.00,0.0067
2683.00,0.0067
2682.00,0.0067
2681.00,0.0067
2680.00,0.0067
2679.00,0.0067
2678.00,0.0067
2677.00,0.0067
2676.00,0.0067
2675.00,0.0067
2674.00,0.0067
2673.00,0.0067
2672.00,0.0067
2671.00,0.0067
2670.00,0.0066
2669.00,0.0066
2668.00,0.0066
2667.00,0.0067
2666.00,0.0067
2665.00,0.0067
2664.00,0.0068
2663.00,0.0068
2662.00,0.0068
2661.00,0.0069
2660.00,0.0069
2659.00,0.0069
2658.00,0.0069
2657.00,0.0069
2656.00,0.0070
2655.00,0.0070
2654.00,0.0070
2653.00,0.0070
2652.00,0.0070
2651.00,0.0070
2650.00,0.0070
2649.00,0.0070
2648.00,0.0070
2647.00,0.0070
2646.00,0.0070
2645.00,0.0070
2644.00,0.0070
2643.00,0.0070
2642.00,0.0070
2641.00,0.0070
2640.00,0.0069
2639.00,0.0069
2638.00,0.0069
2637.00,0.0069
2636.00,0.0069
2635.00,0.0069
2634.00,0.0069
2633.00,0.0069
2632.00,0.0069
2631.00,0.0069
2630.00,0.0069
2629.00,0.0069
2628.00,0.0069
2627.00,0.0069
2626.00,0.0069
2625.00,0.0069
2624.00,0.0069
2623.00,0.0068
2622.00,0.0068
2621.00,0.0068
2620.00,0.0068
2619.00,0.0068
2618.00,0.0069
2617.00,0.0069
2616.00,0.0069
2615.00,0.0069
2614.00,0.0070
2613.00,0.0069
2612.00,0.0069
2611.00,0.0069
2610.00,0.0069
2609.00,0.0069
2608.00,0.0069
2607.00,0.0069
2606.00,0.0069
2605.00,0.0069
2604.00,0.0069
2603.00,0.0069
2602.00,0.0068
2601.00,0.0068
2600.00,0.0068
2599.00,0.0068
2598.00,0.0068
2597.00,0.0068
2596.00,0.0068
2595.00,0.0068
2594.00,0.0068
2593.00,0.0068
2592.00,0.0068
2591.00,0.0068
2590.00,0.0068
2589.00,0.0067
2588.00,0.0067
2587.00,0.0066
2586.00,0.0066
2585.00,0.0066
2584.00,0.0066
2583.00,0.0066
2582.00,0.0065
2581.00,0.0065
2580.00,0.0065
2579.00,0.0065
2578.00,0.0065
2577.00,0.0065
2576.00,0.0065
2575.00,0.0065
2574.00,0.0065
2573.00,0.0065
2572.00,0.0064
2571.00,0.0064
2570.00,0.0064
2569.00,0.0064
2568.00,0.0064
2567.00,0.0064
2566.00,0.0064
2565.00,0.0064
2564.00,0.0064
2563.00,0.0064
2562.00,0.0064
2561.00,0.0064
2560.00,0.0063
2559.00,0.0063
2558.00,0.0063
2557.00,0.0063
2556.00,0.0063
2555.00,0.0063
2554.00,0.0062
2553.00,0.0062
2552.00,0.0062
2551.00,0.0062
2550.00,0.0062
2549.00,0.0062
2548.00,0.0062
2547.00,0.0062
2546.00,0.0062
2545.00,0.0062
2544.00,0.0062
2543.00,0.0062
2542.00,0.0062
2541.00,0.0062
2540.00,0.0062
2539.00,0.0061
2538.00,0.0061
2537.00,0.0061
2536.00,0.0061
2535.00,0.0061
2534.00,0.0061
2533.00,0.0061
2532.00,0.0061
2531.00,0.0061
2530.00,0.0061
2529.00,0.0061
2528.00,0.0060
2527.00,0.0060
2526.00,0.0060
2525.00,0.0060
2524.00,0.0061
2523.00,0.0061
2522.00,0.0062
2521.00,0.0062
2520.00,0.0062
2519.00,0.0062
2518.00,0.0062
2517.00,0.0062
2516.00,0.0062
2515.00,0.0062
2514.00,0.0062
2513.00,0.0062
2512.00,0.0062
2511.00,0.0061
2510.00,0.0061
2509.00,0.0061
2508.00,0.0060
2507.00,0.0060
2506.00,0.0061
2505.00,0.0061
2504.00,0.0061
2503.00,0.0061
2502.00,0.0061
2501.00,0.0061
2500.00,0.0061
2499.00,0.0061
2498.00,0.0062
2497.00,0.0062
2496.00,0.0062
2495.00,0.0063
2494.00,0.0063
2493.00,0.0063
2492.00,0.0063
2491.00,0.0064
2490.00,0.0064
2489.00,0.0063
2488.00,0.0063
2487.00,0.0063
2486.00,0.0063
2485.00,0.0063
2484.00,0.0063
2483.00,0.0063
2482.00,0.0062
2481.00,0.0062
2480.00,0.0062
2479.00,0.0061
2478.00,0.0061
2477.00,0.0061
2476.00,0.0061
2475.00,0.0061
2474.00,0.0061
2473.00,0.0061
2472.00,0.0061
2471.00,0.0061
2470.00,0.0061
2469.00,0.0061
2468.00,0.0061
2467.00,0.0061
2466.00,0.0061
2465.00,0.0061
2464.00,0.0061
2463.00,0.0061
2462.00,0.0061
2461.00,0.0062
2460.00,0.0062
2459.00,0.0061
2458.00,0.0061
2457.00,0.0061
2456.00,0.0061
2455.00,0.0061
2454.00,0.0061
2453.00,0.0061
2452.00,0.0061
2451.00,0.0061
2450.00,0.0061
2449.00,0.0061
2448.00,0.0061
2447.00,0.0060
2446.00,0.0060
2445.00,0.0060
2444.00,0.0059
2443.00,0.0059
2442.00,0.0059
2441.00,0.0059
2440.00,0.0060
2439.00,0.0060
2438.00,0.0060
2437.00,0.0059
2436.00,0.0059
2435.00,0.0059
2434.00,0.0059
2433.00,0.0058
2432.00,0.0058
2431.00,0.0058
2430.00,0.0059
2429.00,0.0059
2428.00,0.0059
2427.00,0.0060
2426.00,0.0060
2425.00,0.0060
2424.00,0.0060
2423.00,0.0060
2422.00,0.0059
2421.00,0.0059
2420.00,0.0059
2419.00,0.0059
2418.00,0.0059
2417.00,0.0059
2416.00,0.0059
2415.00,0.0059
2414.00,0.0059
2413.00,0.0059
2412.00,0.0059
2411.00,0.0059
2410.00,0.0059
2409.00,0.0058
2408.00,0.0058
2407.00,0.0057
2406.00,0.0057
2405.00,0.0057
2404.00,0.0057
2403.00,0.0056
2402.00,0.0056
2401.00,0.0056
2400.00,0.0056
2399.00,0.0056
2398.00,0.0056
2397.00,0.0056
2396.00,0.0056
2395.00,0.0056
2394.00,0.0056
2393.00,0.0056
2392.00,0.0056
2391.00,0.0056
2390.00,0.0056
2389.00,0.0056
2388.00,0.0056
2387.00,0.0056
2386.00,0.0056
2385.00,0.0056
2384.00,0.0056
2383.00,0.0056
2382.00,0.0056
2381.00,0.0056
2380.00,0.0056
2379.00,0.0056
2378.00,0.0055
2377.00,0.0056
2376.00,0.0056
2375.00,0.0056
2374.00,0.0056
2373.00,0.0056
2372.00,0.0056
2371.00,0.0055
2370.00,0.0055
2369.00,0.0055
2368.00,0.0055
2367.00,0.0055
2366.00,0.0055
2365.00,0.0056
2364.00,0.0056
2363.00,0.0057
2362.00,0.0057
2361.00,0.0057
2360.00,0.0058
2359.00,0.0057
2358.00,0.0056
2357.00,0.0056
2356.00,0.0055
2355.00,0.0055
2354.00,0.0054
2353.00,0.0054
2352.00,0.0053
2351.00,0.0053
2350.00,0.0054
2349.00,0.0055
2348.00,0.0057
2347.00,0.0058
2346.00,0.0059
2345.00,0.0058
2344.00,0.0057
2343.00,0.0057
2342.00,0.0057
2341.00,0.0057
2340.00,0.0058
2339.00,0.0059
2338.00,0.0059
2337.00,0.0059
2336.00,0.0059
2335.00,0.0059
2334.00,0.0059
2333.00,0.0058
2332.00,0.0058
2331.00,0.0057
2330.00,0.0057
2329.00,0.0059
2328.00,0.0061
2327.00,0.0065
2326.00,0.0068
2325.00,0.0069
2324.00,0.0068
2323.00,0.0067
2322.00,0.0065
2321.00,0.0063
2320.00,0.0062
2319.00,0.0061
2318.00,0.0060
2317.00,0.0060
2316.00,0.0059
2315.00,0.0059
2314.00,0.0058
2313.00,0.0058
2312.00,0.0058
2311.00,0.0057
2310.00,0.0057
2309.00,0.0056
2308.00,0.0056
2307.00,0.0056
2306.00,0.0056
2305.00,0.0056
2304.00,0.0056
2303.00,0.0057
2302.00,0.0058
2301.00,0.0058
2300.00,0.0058
2299.00,0.0058
2298.00,0.0058
2297.00,0.0059
2296.00,0.0059
2295.00,0.0060
2294.00,0.0061
2293.00,0.0062
2292.00,0.0063
2291.00,0.0064
2290.00,0.0064
2289.00,0.0064
2288.00,0.0064
2287.00,0.0064
2286.00,0.0064
2285.00,0.0063
2284.00,0.0063
2283.00,0.0062
2282.00,0.0061
2281.00,0.0060
2280.00,0.0060
2279.00,0.0060
2278.00,0.0060
2277.00,0.0061
2276.00,0.0061
2275.00,0.0061
2274.00,0.0060
2273.00,0.0060
2272.00,0.0060
2271.00,0.0059
2270.00,0.0059
2269.00,0.0058
2268.00,0.0057
2267.00,0.0057
2266.00,0.0056
2265.00,0.0056
2264.00,0.0056
2263.00,0.0057
2262.00,0.0057
2261.00,0.0057
2260.00,0.0058
2259.00,0.0059
2258.00,0.0058
2257.00,0.0058
2256.00,0.0057
2255.00,0.0056
2254.00,0.0055
2253.00,0.0055
2252.00,0.0055
2251.00,0.0055
2250.00,0.0055
2249.00,0.0055
2248.00,0.0056
2247.00,0.0056
2246.00,0.0056
2245.00,0.0055
2244.00,0.0055
2243.00,0.0055
2242.00,0.0055
2241.00,0.0054
2240.00,0.0055
2239.00,0.0055
2238.00,0.0055
2237.00,0.0054
2236.00,0.0054
2235.00,0.0053
2234.00,0.0053
2233.00,0.0053
2232.00,0.0052
2231.00,0.0051
2230.00,0.0050
2229.00,0.0050
2228.00,0.0050
2227.00,0.0051
2226.00,0.0051
2225.00,0.0052
2224.00,0.0052
2223.00,0.0053
2222.00,0.0053
2221.00,0.0054
2220.00,0.0053
2219.00,0.0053
2218.00,0.0052
2217.00,0.0051
2216.00,0.0051
2215.00,0.0050
2214.00,0.0050
2213.00,0.0049
2212.00,0.0050
2211.00,0.0051
2210.00,0.0052
2209.00,0.0053
2208.00,0.0053
2207.00,0.0053
2206.00,0.0053
2205.00,0.0052
2204.00,0.0052
2203.00,0.0052
2202.00,0.0052
2201.00,0.0051
2200.00,0.0050
2199.00,0.0050
2198.00,0.0050
2197.00,0.0050
2196.00,0.0050
2195.00,0.0049
2194.00,0.0049
2193.00,0.0050
2192.00,0.0050
2191.00,0.0051
2190.00,0.0051
2189.00,0.0052
2188.00,0.0053
2187.00,0.0053
2186.00,0.0052
2185.00,0.0050
2184.00,0.0048
2183.00,0.0046
2182.00,0.0046
2181.00,0.0047
2180.00,0.0048
2179.00,0.0048
2178.00,0.0047
2177.00,0.0044
2176.00,0.0042
2175.00,0.0042
2174.00,0.0044
2173.00,0.0047
2172.00,0.0051
2171.00,0.0055
2170.00,0.0057
2169.00,0.0059
2168.00,0.0059
2167.00,0.0059
2166.00,0.0059
2165.00,0.0061
2164.00,0.0065
2163.00,0.0067
2162.00,0.0063
2161.00,0.0053
2160.00,0.0040
2159.00,0.0029
2158.00,0.0023
2157.00,0.0023
2156.00,0.0026
2155.00,0.0029
2154.00,0.0031
2153.00,0.0033
2152.00,0.0035
2151.00,0.0036
2150.00,0.0036
2149.00,0.0036
2148.00,0.0037
2147.00,0.0037
2146.00,0.0037
2145.00,0.0037
2144.00,0.0037
2143.00,0.0037
2142.00,0.0037
2141.00,0.0037
2140.00,0.0036
2139.00,0.0036
2138.00,0.0035
2137.00,0.0034
2136.00,0.0033
2135.00,0.0033
2134.00,0.0033
2133.00,0.0034
2132.00,0.0035
2131.00,0.0036
2130.00,0.0037
2129.00,0.0038
2128.00,0.0039
2127.00,0.0040
2126.00,0.0041
2125.00,0.0041
2124.00,0.0041
2123.00,0.0042
2122.00,0.0043
2121.00,0.0044
2120.00,0.0045
2119.00,0.0046
2118.00,0.0046
2117.00,0.0047
2116.00,0.0047
2115.00,0.0048
2114.00,0.0048
2113.00,0.0048
2112.00,0.0048
2111.00,0.0048
2110.00,0.0048
2109.00,0.0048
2108.00,0.0048
2107.00,0.0048
2106.00,0.0048
2105.00,0.0048
2104.00,0.0049
2103.00,0.0049
2102.00,0.0049
2101.00,0.0049
2100.00,0.0048
2099.00,0.0048
2098.00,0.0046
2097.00,0.0045
2096.00,0.0044
2095.00,0.0044
2094.00,0.0045
2093.00,0.0046
2092.00,0.0048
2091.00,0.0048
2090.00,0.0049
2089.00,0.0049
2088.00,0.0050
2087.00,0.0050
2086.00,0.0051
2085.00,0.0051
2084.00,0.0051
2083.00,0.0052
2082.00,0.0052
2081.00,0.0052
2080.00,0.0052
2079.00,0.0051
2078.00,0.0051
2077.00,0.0051
2076.00,0.0051
2075.00,0.0051
2074.00,0.0051
2073.00,0.0051
2072.00,0.0050
2071.00,0.0049
2070.00,0.0049
2069.00,0.0048
2068.00,0.0048
2067.00,0.0048
2066.00,0.0048
2065.00,0.0048
2064.00,0.0048
2063.00,0.0049
2062.00,0.0049
2061.00,0.0049
2060.00,0.0049
2059.00,0.0049
2058.00,0.0047
2057.00,0.0046
2056.00,0.0046
2055.00,0.0046
2054.00,0.0048
2053.00,0.0051
2052.00,0.0053
2051.00,0.0054
2050.00,0.0051
2049.00,0.0049
2048.00,0.0047
2047.00,0.0046
2046.00,0.0045
2045.00,0.0044
2044.00,0.0043
2043.00,0.0041
2042.00,0.0040
2041.00,0.0040
2040.00,0.0041
2039.00,0.0041
2038.00,0.0041
2037.00,0.0041
2036.00,0.0040
2035.00,0.0038
2034.00,0.0036
2033.00,0.0036
2032.00,0.0038
2031.00,0.0039
2030.00,0.0038
2029.00,0.0037
2028.00,0.0036
2027.00,0.0035
2026.00,0.0035
2025.00,0.0036
2024.00,0.0038
2023.00,0.0039
2022.00,0.0038
2021.00,0.0038
2020.00,0.0037
2019.00,0.0037
2018.00,0.0037
2017.00,0.0038
2016.00,0.0040
2015.00,0.0040
2014.00,0.0039
2013.00,0.0038
2012.00,0.0038
2011.00,0.0039
2010.00,0.0040
2009.00,0.0040
2008.00,0.0039
2007.00,0.0036
2006.00,0.0034
2005.00,0.0033
2004.00,0.0034
2003.00,0.0035
2002.00,0.0035
2001.00,0.0037
2000.00,0.0038
1999.00,0.0039
1998.00,0.0039
1997.00,0.0039
1996.00,0.0040
1995.00,0.0040
1994.00,0.0041
1993.00,0.0043
1992.00,0.0044
1991.00,0.0044
1990.00,0.0044
1989.00,0.0045
1988.00,0.0047
1987.00,0.0048
1986.00,0.0049
1985.00,0.0050
1984.00,0.0051
1983.00,0.0053
1982.00,0.0053
1981.00,0.0052
1980.00,0.0050
1979.00,0.0045
1978.00,0.0039
1977.00,0.0035
1976.00,0.0034
1975.00,0.0034
1974.00,0.0035
1973.00,0.0036
1972.00,0.0036
1971.00,0.0034
1970.00,0.0032
1969.00,0.0032
1968.00,0.0032
1967.00,0.0033
1966.00,0.0033
1965.00,0.0033
1964.00,0.0034
1963.00,0.0034
1962.00,0.0032
1961.00,0.0032
1960.00,0.0032
1959.00,0.0033
1958.00,0.0033
1957.00,0.0035
1956.00,0.0036
1955.00,0.0037
1954.00,0.0038
1953.00,0.0038
1952.00,0.0038
1951.00,0.0038
1950.00,0.0037
1949.00,0.0037
1948.00,0.0037
1947.00,0.0037
1946.00,0.0036
1945.00,0.0035
1944.00,0.0035
1943.00,0.0034
1942.00,0.0035
1941.00,0.0036
1940.00,0.0038
1939.00,0.0039
1938.00,0.0039
1937.00,0.0038
1936.00,0.0038
1935.00,0.0038
1934.00,0.0037
1933.00,0.0037
1932.00,0.0038
1931.00,0.0039
1930.00,0.0039
1929.00,0.0040
1928.00,0.0041
1927.00,0.0041
1926.00,0.0040
1925.00,0.0040
1924.00,0.0039
1923.00,0.0040
1922.00,0.0040
1921.00,0.0042
1920.00,0.0043
1919.00,0.0043
1918.00,0.0043
1917.00,0.0043
1916.00,0.0044
1915.00,0.0043
1914.00,0.0043
1913.00,0.0043
1912.00,0.0043
1911.00,0.0043
1910.00,0.0043
1909.00,0.0044
1908.00,0.0044
1907.00,0.0045
1906.00,0.0045
1905.00,0.0045
1904.00,0.0045
1903.00,0.0045
1902.00,0.0045
1901.00,0.0045
1900.00,0.0045
1899.00,0.0045
1898.00,0.0045
1897.00,0.0045
1896.00,0.0044
1895.00,0.0044
1894.00,0.0043
1893.00,0.0042
1892.00,0.0042
1891.00,0.0041
1890.00,0.0041
1889.00,0.0041
1888.00,0.0041
1887.00,0.0040
1886.00,0.0040
1885.00,0.0039
1884.00,0.0040
1883.00,0.0040
1882.00,0.0039
1881.00,0.0039
1880.00,0.0040
1879.00,0.0040
1878.00,0.0039
1877.00,0.0039
1876.00,0.0039
1875.00,0.0039
1874.00,0.0039
1873.00,0.0039
1872.00,0.0039
1871.00,0.0039
1870.00,0.0038
1869.00,0.0038
1868.00,0.0038
1867.00,0.0038
1866.00,0.0038
1865.00,0.0038
1864.00,0.0039
1863.00,0.0039
1862.00,0.0039
1861.00,0.0039
1860.00,0.0039
1859.00,0.0039
1858.00,0.0039
1857.00,0.0040
1856.00,0.0040
1855.00,0.0040
1854.00,0.0039
1853.00,0.0039
1852.00,0.0039
1851.00,0.0038
1850.00,0.0038
1849.00,0.0038
1848.00,0.0038
1847.00,0.0038
1846.00,0.0037
1845.00,0.0037
1844.00,0.0038
1843.00,0.0039
1842.00,0.0039
1841.00,0.0039
1840.00,0.0038
1839.00,0.0037
1838.00,0.0037
1837.00,0.0037
1836.00,0.0037
1835.00,0.0037
1834.00,0.0037
1833.00,0.0038
1832.00,0.0038
1831.00,0.0038
1830.00,0.0038
1829.00,0.0038
1828.00,0.0038
1827.00,0.0039
1826.00,0.0039
1825.00,0.0040
1824.00,0.0041
1823.00,0.0042
1822.00,0.0041
1821.00,0.0041
1820.00,0.0040
1819.00,0.0038
1818.00,0.0037
1817.00,0.0036
1816.00,0.0036
1815.00,0.0037
1814.00,0.0037
1813.00,0.0036
1812.00,0.0036
1811.00,0.0036
1810.00,0.0036
1809.00,0.0037
1808.00,0.0037
1807.00,0.0038
1806.00,0.0038
1805.00,0.0038
1804.00,0.0039
1803.00,0.0039
1802.00,0.0039
1801.00,0.0039
1800.00,0.0039
1799.00,0.0040
1798.00,0.0039
1797.00,0.0039
1796.00,0.0039
1795.00,0.0039
1794.00,0.0039
1793.00,0.0039
1792.00,0.0040
1791.00,0.0041
1790.00,0.0041
1789.00,0.0041
1788.00,0.0041
1787.00,0.0041
1786.00,0.0040
1785.00,0.0041
1784.00,0.0041
1783.00,0.0042
1782.00,0.0041
1781.00,0.0040
1780.00,0.0041
1779.00,0.0041
1778.00,0.0041
1777.00,0.0041
1776.00,0.0041
1775.00,0.0041
1774.00,0.0040
1773.00,0.0040
1772.00,0.0040
1771.00,0.0041
1770.00,0.0041
1769.00,0.0042
1768.00,0.0043
1767.00,0.0044
1766.00,0.0044
1765.00,0.0044
1764.00,0.0043
1763.00,0.0043
1762.00,0.0044
1761.00,0.0045
1760.00,0.0045
1759.00,0.0045
1758.00,0.0044
1757.00,0.0044
1756.00,0.0045
1755.00,0.0046
1754.00,0.0046
1753.00,0.0046
1752.00,0.0047
1751.00,0.0048
1750.00,0.0049
1749.00,0.0049
1748.00,0.0049
1747.00,0.0050
1746.00,0.0051
1745.00,0.0052
1744.00,0.0054
1743.00,0.0056
1742.00,0.0058
1741.00,0.0060
1740.00,0.0064
1739.00,0.0066
1738.00,0.0068
1737.00,0.0069
1736.00,0.0071
1735.00,0.0073
1734.00,0.0076
1733.00,0.0079
1732.00,0.0081
1731.00,0.0081
1730.00,0.0081
1729.00,0.0082
1728.00,0.0083
1727.00,0.0084
1726.00,0.0083
1725.00,0.0084
1724.00,0.0085
1723.00,0.0087
1722.00,0.0088
1721.00,0.0091
1720.00,0.0095
1719.00,0.0101
1718.00,0.0109
1717.00,0.0119
1716.00,0.0131
1715.00,0.0144
1714.00,0.0159
1713.00,0.0176
1712.00,0.0198
1711.00,0.0225
1710.00,0.0258
1709.00,0.0300
1708.00,0.0352
1707.00,0.0414
1706.00,0.0485
1705.00,0.0555
1704.00,0.0611
1703.00,0.0648
1702.00,0.0671
1701.00,0.0678
1700.00,0.0665
1699.00,0.0641
1698.00,0.0612
1697.00,0.0583
1696.00,0.0559
1695.00,0.0549
1694.00,0.0555
1693.00,0.0571
1692.00,0.0595
1691.00,0.0628
1690.00,0.0666
1689.00,0.0701
1688.00,0.0727
1687.00,0.0742
1686.00,0.0747
1685.00,0.0741
1684.00,0.0723
1683.00,0.0699
1682.00,0.0675
1681.00,0.0649
1680.00,0.0621
1679.00,0.0594
1678.00,0.0569
1677.00,0.0544
1676.00,0.0519
1675.00,0.0497
1674.00,0.0479
1673.00,0.0465
1672.00,0.0452
1671.00,0.0440
1670.00,0.0429
1669.00,0.0417
1668.00,0.0404
1667.00,0.0391
1666.00,0.0378
1665.00,0.0365
1664.00,0.0352
1663.00,0.0341
1662.00,0.0331
1661.00,0.0324
1660.00,0.0318
1659.00,0.0313
1658.00,0.0311
1657.00,0.0310
1656.00,0.0310
1655.00,0.0312
1654.00,0.0321
1653.00,0.0336
1652.00,0.0351
1651.00,0.0361
1650.00,0.0367
1649.00,0.0375
1648.00,0.0387
1647.00,0.0401
1646.00,0.0412
1645.00,0.0416
1644.00,0.0412
1643.00,0.0402
1642.00,0.0387
1641.00,0.0371
1640.00,0.0354
1639.00,0.0339
1638.00,0.0326
1637.00,0.0315
1636.00,0.0307
1635.00,0.0303
1634.00,0.0305
1633.00,0.0309
1632.00,0.0315
1631.00,0.0323
1630.00,0.0334
1629.00,0.0348
1628.00,0.0364
1627.00,0.0380
1626.00,0.0394
1625.00,0.0408
1624.00,0.0422
1623.00,0.0436
1622.00,0.0448
1621.00,0.0455
1620.00,0.0460
1619.00,0.0462
1618.00,0.0463
1617.00,0.0462
1616.00,0.0456
1615.00,0.0448
1614.00,0.0438
1613.00,0.0425
1612.00,0.0410
1611.00,0.0396
1610.00,0.0382
1609.00,0.0371
1608.00,0.0363
1607.00,0.0359
1606.00,0.0357
1605.00,0.0354
1604.00,0.0347
1603.00,0.0334
1602.00,0.0317
1601.00,0.0297
1600.00,0.0275
1599.00,0.0255
1598.00,0.0238
1597.00,0.0222
1596.00,0.0209
1595.00,0.0197
1594.00,0.0187
1593.00,0.0179
1592.00,0.0170
1591.00,0.0163
1590.00,0.0157
1589.00,0.0151
1588.00,0.0146
1587.00,0.0141
1586.00,0.0138
1585.00,0.0135
1584.00,0.0133
1583.00,0.0133
1582.00,0.0135
1581.00,0.0139
1580.00,0.0145
1579.00,0.0151
1578.00,0.0155
1577.00,0.0155
1576.00,0.0150
1575.00,0.0144
1574.00,0.0139
1573.00,0.0135
1572.00,0.0130
1571.00,0.0127
1570.00,0.0124
1569.00,0.0121
1568.00,0.0119
1567.00,0.0117
1566.00,0.0115
1565.00,0.0114
1564.00,0.0112
1563.00,0.0111
1562.00,0.0110
1561.00,0.0109
1560.00,0.0109
1559.00,0.0109
1558.00,0.0108
1557.00,0.0109
1556.00,0.0108
1555.00,0.0106
1554.00,0.0106
1553.00,0.0107
1552.00,0.0107
1551.00,0.0107
1550.00,0.0108
1549.00,0.0111
1548.00,0.0113
1547.00,0.0115
1546.00,0.0119
1545.00,0.0124
1544.00,0.0130
1543.00,0.0136
1542.00,0.0144
1541.00,0.0156
1540.00,0.0174
1539.00,0.0195
1538.00,0.0217
1537.00,0.0237
1536.00,0.0257
1535.00,0.0285
1534.00,0.0327
1533.00,0.0380
1532.00,0.0435
1531.00,0.0490
1530.00,0.0549
1529.00,0.0612
1528.00,0.0675
1527.00,0.0731
1526.00,0.0770
1525.00,0.0786
1524.00,0.0778
1523.00,0.0749
1522.00,0.0700
1521.00,0.0638
1520.00,0.0583
1519.00,0.0540
1518.00,0.0505
1517.00,0.0473
1516.00,0.0447
1515.00,0.0432
1514.00,0.0425
1513.00,0.0425
1512.00,0.0433
1511.00,0.0446
1510.00,0.0462
1509.00,0.0482
1508.00,0.0510
1507.00,0.0550
1506.00,0.0593
1505.00,0.0625
1504.00,0.0647
1503.00,0.0665
1502.00,0.0686
1501.00,0.0710
1500.00,0.0735
1499.00,0.0761
1498.00,0.0785
1497.00,0.0803
1496.00,0.0813
1495.00,0.0815
1494.00,0.0810
1493.00,0.0801
1492.00,0.0787
1491.00,0.0772
1490.00,0.0754
1489.00,0.0734
1488.00,0.0712
1487.00,0.0689
1486.00,0.0667
1485.00,0.0644
1484.00,0.0621
1483.00,0.0598
1482.00,0.0575
1481.00,0.0553
1480.00,0.0533
1479.00,0.0515
1478.00,0.0501
1477.00,0.0489
1476.00,0.0480
1475.00,0.0471
1474.00,0.0461
1473.00,0.0449
1472.00,0.0435
1471.00,0.0422
1470.00,0.0412
1469.00,0.0402
1468.00,0.0393
1467.00,0.0385
1466.00,0.0378
1465.00,0.0371
1464.00,0.0365
1463.00,0.0358
1462.00,0.0351
1461.00,0.0345
1460.00,0.0340
1459.00,0.0335
1458.00,0.0332
1457.00,0.0331
1456.00,0.0331
1455.00,0.0331
1454.00,0.0330
1453.00,0.0330
1452.00,0.0332
1451.00,0.0336
1450.00,0.0342
1449.00,0.0351
1448.00,0.0362
1447.00,0.0374
1446.00,0.0385
1445.00,0.0397
1444.00,0.0407
1443.00,0.0417
1442.00,0.0427
1441.00,0.0435
1440.00,0.0443
1439.00,0.0452
1438.00,0.0471
1437.00,0.0506
1436.00,0.0558
1435.00,0.0613
1434.00,0.0664
1433.00,0.0711
1432.00,0.0752
1431.00,0.0780
1430.00,0.0792
1429.00,0.0785
1428.00,0.0760
1427.00,0.0722
1426.00,0.0677
1425.00,0.0630
1424.00,0.0584
1423.00,0.0543
1422.00,0.0508
1421.00,0.0479
1420.00,0.0450
1419.00,0.0422
1418.00,0.0396
1417.00,0.0374
1416.00,0.0355
1415.00,0.0337
1414.00,0.0321
1413.00,0.0306
1412.00,0.0293
1411.00,0.0281
1410.00,0.0270
1409.00,0.0261
1408.00,0.0252
1407.00,0.0245
1406.00,0.0238
1405.00,0.0232
1404.00,0.0227
1403.00,0.0222
1402.00,0.0218
1401.00,0.0215
1400.00,0.0212
1399.00,0.0211
1398.00,0.0210
1397.00,0.0211
1396.00,0.0212
1395.00,0.0217
1394.00,0.0224
1393.00,0.0231
1392.00,0.0239
1391.00,0.0247
1390.00,0.0258
1389.00,0.0271
1388.00,0.0287
1387.00,0.0304
1386.00,0.0320
1385.00,0.0333
1384.00,0.0343
1383.00,0.0350
1382.00,0.0356
1381.00,0.0361
1380.00,0.0367
1379.00,0.0373
1378.00,0.0377
1377.00,0.0376
1376.00,0.0367
1375.00,0.0349
1374.00,0.0325
1373.00,0.0300
1372.00,0.0277
1371.00,0.0258
1370.00,0.0244
1369.00,0.0234
1368.00,0.0228
1367.00,0.0225
1366.00,0.0225
1365.00,0.0227
1364.00,0.0231
1363.00,0.0238
1362.00,0.0247
1361.00,0.0257
1360.00,0.0267
1359.00,0.0278
1358.00,0.0290
1357.00,0.0304
1356.00,0.0320
1355.00,0.0340
1354.00,0.0363
1353.00,0.0392
1352.00,0.0427
1351.00,0.0468
1350.00,0.0514
1349.00,0.0560
1348.00,0.0601
1347.00,0.0634
1346.00,0.0654
1345.00,0.0663
1344.00,0.0661
1343.00,0.0650
1342.00,0.0631
1341.00,0.0604
1340.00,0.0569
1339.00,0.0529
1338.00,0.0489
1337.00,0.0454
1336.00,0.0427
1335.00,0.0410
1334.00,0.0404
1333.00,0.0412
1332.00,0.0432
1331.00,0.0458
1330.00,0.0482
1329.00,0.0495
1328.00,0.0491
1327.00,0.0472
1326.00,0.0446
1325.00,0.0418
1324.00,0.0397
1323.00,0.0382
1322.00,0.0375
1321.00,0.0372
1320.00,0.0373
1319.00,0.0375
1318.00,0.0380
1317.00,0.0387
1316.00,0.0397
1315.00,0.0410
1314.00,0.0426
1313.00,0.0447
1312.00,0.0475
1311.00,0.0508
1310.00,0.0545
1309.00,0.0579
1308.00,0.0606
1307.00,0.0621
1306.00,0.0623
1305.00,0.0614
1304.00,0.0597
1303.00,0.0576
1302.00,0.0551
1301.00,0.0524
1300.00,0.0497
1299.00,0.0472
1298.00,0.0452
1297.00,0.0436
1296.00,0.0427
1295.00,0.0424
1294.00,0.0427
1293.00,0.0439
1292.00,0.0459
1291.00,0.0489
1290.00,0.0529
1289.00,0.0576
1288.00,0.0627
1287.00,0.0677
1286.00,0.0723
1285.00,0.0761
1284.00,0.0789
1283.00,0.0806
1282.00,0.0813
1281.00,0.0809
1280.00,0.0795
1279.00,0.0774
1278.00,0.0748
1277.00,0.0719
1276.00,0.0688
1275.00,0.0657
1274.00,0.0627
1273.00,0.0598
1272.00,0.0570
1271.00,0.0544
1270.00,0.0520
1269.00,0.0498
1268.00,0.0476
1267.00,0.0455
1266.00,0.0435
1265.00,0.0416
1264.00,0.0397
1263.00,0.0379
1262.00,0.0363
1261.00,0.0348
1260.00,0.0334
1259.00,0.0323
1258.00,0.0312
1257.00,0.0303
1256.00,0.0296
1255.00,0.0289
1254.00,0.0284
1253.00,0.0281
1252.00,0.0278
1251.00,0.0277
1250.00,0.0279
1249.00,0.0282
1248.00,0.0287
1247.00,0.0293
1246.00,0.0302
1245.00,0.0311
1244.00,0.0322
1243.00,0.0333
1242.00,0.0345
1241.00,0.0358
1240.00,0.0371
1239.00,0.0384
1238.00,0.0397
1237.00,0.0409
1236.00,0.0419
1235.00,0.0424
1234.00,0.0426
1233.00,0.0425
1232.00,0.0422
1231.00,0.0421
1230.00,0.0422
1229.00,0.0427
1228.00,0.0433
1227.00,0.0442
1226.00,0.0452
1225.00,0.0463
1224.00,0.0474
1223.00,0.0486
1222.00,0.0498
1221.00,0.0511
1220.00,0.0523
1219.00,0.0536
1218.00,0.0550
1217.00,0.0566
1216.00,0.0583
1215.00,0.0604
1214.00,0.0631
1213.00,0.0663
1212.00,0.0701
1211.00,0.0745
1210.00,0.0791
1209.00,0.0836
1208.00,0.0876
1207.00,0.0906
1206.00,0.0924
1205.00,0.0927
1204.00,0.0914
1203.00,0.0888
1202.00,0.0852
1201.00,0.0808
1200.00,0.0761
1199.00,0.0715
1198.00,0.0673
1197.00,0.0639
1196.00,0.0615
1195.00,0.0602
1194.00,0.0602
1193.00,0.0613
1192.00,0.0636
1191.00,0.0668
1190.00,0.0705
1189.00,0.0743
1188.00,0.0777
1187.00,0.0806
1186.00,0.0829
1185.00,0.0846
1184.00,0.0857
1183.00,0.0858
1182.00,0.0849
1181.00,0.0830
1180.00,0.0803
1179.00,0.0770
1178.00,0.0734
1177.00,0.0694
1176.00,0.0651
1175.00,0.0607
1174.00,0.0565
1173.00,0.0525
1172.00,0.0489
1171.00,0.0458
1170.00,0.0433
1169.00,0.0414
1168.00,0.0400
1167.00,0.0391
1166.00,0.0387
1165.00,0.0387
1164.00,0.0386
1163.00,0.0384
1162.00,0.0380
1161.00,0.0372
1160.00,0.0363
1159.00,0.0352
1158.00,0.0342
1157.00,0.0332
1156.00,0.0323
1155.00,0.0316
1154.00,0.0312
1153.00,0.0312
1152.00,0.0316
1151.00,0.0323
1150.00,0.0333
1149.00,0.0346
1148.00,0.0361
1147.00,0.0381
1146.00,0.0408
1145.00,0.0442
1144.00,0.0480
1143.00,0.0515
1142.00,0.0537
1141.00,0.0540
1140.00,0.0524
1139.00,0.0499
1138.00,0.0476
1137.00,0.0467
1136.00,0.0474
1135.00,0.0498
1134.00,0.0530
1133.00,0.0562
1132.00,0.0582
1131.00,0.0586
1130.00,0.0575
1129.00,0.0556
1128.00,0.0537
1127.00,0.0523
1126.00,0.0520
1125.00,0.0527
1124.00,0.0545
1123.00,0.0573
1122.00,0.0611
1121.00,0.0660
1120.00,0.0717
1119.00,0.0781
1118.00,0.0846
1117.00,0.0902
1116.00,0.0940
1115.00,0.0955
1114.00,0.0946
1113.00,0.0918
1112.00,0.0877
1111.00,0.0830
1110.00,0.0784
1109.00,0.0743
1108.00,0.0710
1107.00,0.0688
1106.00,0.0678
1105.00,0.0681
1104.00,0.0695
1103.00,0.0722
1102.00,0.0759
1101.00,0.0802
1100.00,0.0847
1099.00,0.0888
1098.00,0.0921
1097.00,0.0941
1096.00,0.0945
1095.00,0.0937
1094.00,0.0917
1093.00,0.0891
1092.00,0.0859
1091.00,0.0824
1090.00,0.0788
1089.00,0.0750
1088.00,0.0711
1087.00,0.0673
1086.00,0.0638
1085.00,0.0606
1084.00,0.0576
1083.00,0.0549
1082.00,0.0524
1081.00,0.0502
1080.00,0.0482
1079.00,0.0463
1078.00,0.0447
1077.00,0.0432
1076.00,0.0418
1075.00,0.0405
1074.00,0.0395
1073.00,0.0386
1072.00,0.0378
1071.00,0.0372
1070.00,0.0366
1069.00,0.0361
1068.00,0.0355
1067.00,0.0350
1066.00,0.0347
1065.00,0.0348
1064.00,0.0354
1063.00,0.0367
1062.00,0.0388
1061.00,0.0413
1060.00,0.0439
1059.00,0.0462
1058.00,0.0481
1057.00,0.0493
1056.00,0.0498
1055.00,0.0500
1054.00,0.0499
1053.00,0.0496
1052.00,0.0491
1051.00,0.0486
1050.00,0.0482
1049.00,0.0476
1048.00,0.0469
1047.00,0.0460
1046.00,0.0449
1045.00,0.0436
1044.00,0.0424
1043.00,0.0413
1042.00,0.0404
1041.00,0.0398
1040.00,0.0393
1039.00,0.0391
1038.00,0.0392
1037.00,0.0397
1036.00,0.0405
1035.00,0.0417
1034.00,0.0435
1033.00,0.0459
1032.00,0.0487
1031.00,0.0521
1030.00,0.0558
1029.00,0.0595
1028.00,0.0629
1027.00,0.0657
1026.00,0.0679
1025.00,0.0693
1024.00,0.0701
1023.00,0.0702
1022.00,0.0699
1021.00,0.0690
1020.00,0.0676
1019.00,0.0657
1018.00,0.0635
1017.00,0.0610
1016.00,0.0582
1015.00,0.0555
1014.00,0.0529
1013.00,0.0504
1012.00,0.0480
1011.00,0.0458
1010.00,0.0438
1009.00,0.0420
1008.00,0.0403
1007.00,0.0388
1006.00,0.0375
1005.00,0.0364
1004.00,0.0353
1003.00,0.0344
1002.00,0.0335
1001.00,0.0327
1000.00,0.0320
999.00,0.0313
998.00,0.0308
997.00,0.0303
996.00,0.0297
995.00,0.0293
994.00,0.0289
993.00,0.0286
992.00,0.0283
991.00,0.0281
990.00,0.0280
989.00,0.0279
988.00,0.0279
987.00,0.0279
986.00,0.0280
985.00,0.0281
984.00,0.0282
983.00,0.0282
982.00,0.0282
981.00,0.0281
980.00,0.0279
979.00,0.0275
978.00,0.0271
977.00,0.0267
976.00,0.0261
975.00,0.0256
974.00,0.0251
973.00,0.0247
972.00,0.0244
971.00,0.0241
970.00,0.0239
969.00,0.0238
968.00,0.0238
967.00,0.0238
966.00,0.0239
965.00,0.0242
964.00,0.0244
963.00,0.0245
962.00,0.0246
961.00,0.0246
960.00,0.0244
959.00,0.0242
958.00,0.0241
957.00,0.0241
956.00,0.0241
955.00,0.0242
954.00,0.0245
953.00,0.0249
952.00,0.0254
951.00,0.0257
950.00,0.0259
949.00,0.0257
948.00,0.0253
947.00,0.0248
946.00,0.0242
945.00,0.0237
944.00,0.0231
943.00,0.0225
942.00,0.0220
941.00,0.0215
940.00,0.0210
939.00,0.0206
938.00,0.0203
937.00,0.0200
936.00,0.0197
935.00,0.0194
934.00,0.0192
933.00,0.0190
932.00,0.0188
931.00,0.0186
930.00,0.0185
929.00,0.0184
928.00,0.0182
927.00,0.0180
926.00,0.0180
925.00,0.0179
924.00,0.0178
923.00,0.0178
922.00,0.0178
921.00,0.0177
920.00,0.0175
919.00,0.0174
918.00,0.0173
917.00,0.0172
916.00,0.0171
915.00,0.0169
914.00,0.0168
913.00,0.0167
912.00,0.0166
911.00,0.0165
910.00,0.0164
909.00,0.0164
908.00,0.0162
907.00,0.0161
906.00,0.0161
905.00,0.0160
904.00,0.0158
903.00,0.0157
902.00,0.0157
901.00,0.0156
900.00,0.0155
899.00,0.0154
898.00,0.0153
897.00,0.0153
896.00,0.0152
895.00,0.0152
894.00,0.0152
893.00,0.0152
892.00,0.0151
891.00,0.0150
890.00,0.0149
889.00,0.0148
888.00,0.0147
887.00,0.0146
886.00,0.0146
885.00,0.0146
884.00,0.0145
883.00,0.0145
882.00,0.0146
881.00,0.0147
880.00,0.0147
879.00,0.0147
878.00,0.0148
877.00,0.0149
876.00,0.0151
875.00,0.0152
874.00,0.0154
873.00,0.0155
872.00,0.0153
871.00,0.0151
870.00,0.0149
869.00,0.0148
868.00,0.0147
867.00,0.0149
866.00,0.0155
865.00,0.0169
864.00,0.0192
863.00,0.0228
862.00,0.0274
861.00,0.0322
860.00,0.0355
859.00,0.0365
858.00,0.0349
857.00,0.0315
856.00,0.0276
855.00,0.0241
854.00,0.0214
853.00,0.0196
852.00,0.0183
851.00,0.0176
850.00,0.0173
849.00,0.0174
848.00,0.0179
847.00,0.0190
846.00,0.0205
845.00,0.0221
844.00,0.0234
843.00,0.0242
842.00,0.0243
841.00,0.0240
840.00,0.0236
839.00,0.0237
838.00,0.0246
837.00,0.0265
836.00,0.0297
835.00,0.0343
834.00,0.0406
833.00,0.0484
832.00,0.0564
831.00,0.0624
830.00,0.0644
829.00,0.0620
828.00,0.0563
827.00,0.0495
826.00,0.0432
825.00,0.0380
824.00,0.0339
823.00,0.0308
822.00,0.0285
821.00,0.0266
820.00,0.0250
819.00,0.0237
818.00,0.0227
817.00,0.0218
816.00,0.0210
815.00,0.0204
814.00,0.0200
813.00,0.0197
812.00,0.0195
811.00,0.0194
810.00,0.0196
809.00,0.0200
808.00,0.0206
807.00,0.0214
806.00,0.0225
805.00,0.0236
804.00,0.0244
803.00,0.0246
802.00,0.0241
801.00,0.0231
800.00,0.0218
799.00,0.0207
798.00,0.0203
797.00,0.0206
796.00,0.0213
795.00,0.0224
794.00,0.0237
793.00,0.0248
792.00,0.0254
791.00,0.0257
790.00,0.0262
789.00,0.0270
788.00,0.0282
787.00,0.0297
786.00,0.0312
785.00,0.0323
784.00,0.0332
783.00,0.0343
782.00,0.0361
781.00,0.0390
780.00,0.0424
779.00,0.0449
778.00,0.0454
777.00,0.0433
776.00,0.0396
775.00,0.0355
774.00,0.0319
773.00,0.0290
772.00,0.0266
771.00,0.0246
770.00,0.0232
769.00,0.0221
768.00,0.0213
767.00,0.0210
766.00,0.0211
765.00,0.0215
764.00,0.0220
763.00,0.0227
762.00,0.0235
761.00,0.0246
760.00,0.0259
759.00,0.0276
758.00,0.0299
757.00,0.0330
756.00,0.0371
755.00,0.0420
754.00,0.0469
753.00,0.0503
752.00,0.0512
751.00,0.0499
750.00,0.0474
749.00,0.0452
748.00,0.0438
747.00,0.0433
746.00,0.0431
745.00,0.0427
744.00,0.0421
743.00,0.0415
742.00,0.0416
741.00,0.0427
740.00,0.0446
739.00,0.0470
738.00,0.0489
737.00,0.0492
736.00,0.0474
735.00,0.0439
734.00,0.0397
733.00,0.0356
732.00,0.0321
731.00,0.0293
730.00,0.0271
729.00,0.0253
728.00,0.0237
727.00,0.0225
726.00,0.0217
725.00,0.0210
724.00,0.0206
723.00,0.0204
722.00,0.0206
721.00,0.0211
720.00,0.0222
719.00,0.0239
718.00,0.0265
717.00,0.0297
716.00,0.0333
715.00,0.0374
714.00,0.0427
713.00,0.0494
712.00,0.0575
711.00,0.0659
710.00,0.0727
709.00,0.0753
708.00,0.0730
707.00,0.0668
706.00,0.0589
705.00,0.0511
704.00,0.0446
703.00,0.0397
702.00,0.0361
701.00,0.0335
700.00,0.0313
699.00,0.0296
698.00,0.0284
697.00,0.0275
696.00,0.0269
695.00,0.0266
694.00,0.0266
693.00,0.0269
692.00,0.0274
691.00,0.0283
690.00,0.0297
689.00,0.0316
688.00,0.0344
687.00,0.0383
686.00,0.0435
685.00,0.0493
684.00,0.0545
683.00,0.0579
682.00,0.0589
681.00,0.0580
680.00,0.0564
679.00,0.0549
678.00,0.0535
677.00,0.0518
676.00,0.0494
675.00,0.0467
674.00,0.0441
673.00,0.0417
672.00,0.0395
671.00,0.0377
670.00,0.0362
669.00,0.0347
668.00,0.0330
667.00,0.0317
666.00,0.0311
665.00,0.0307
664.00,0.0305
663.00,0.0305
662.00,0.0307
661.00,0.0310
660.00,0.0313
659.00,0.0318
658.00,0.0324
657.00,0.0332
656.00,0.0339
655.00,0.0348
654.00,0.0359
653.00,0.0370
652.00,0.0381
651.00,0.0394
650.00,0.0406
649.00,0.0417
648.00,0.0425
647.00,0.0429
646.00,0.0429
645.00,0.0424
644.00,0.0414
643.00,0.0399
642.00,0.0382
641.00,0.0362
640.00,0.0339
639.00,0.0316
638.00,0.0296
637.00,0.0278
636.00,0.0263
635.00,0.0250
634.00,0.0242
633.00,0.0237
632.00,0.0234
631.00,0.0234
630.00,0.0238
629.00,0.0243
628.00,0.0250
627.00,0.0260
626.00,0.0273
625.00,0.0288
624.00,0.0303
623.00,0.0320
622.00,0.0339
621.00,0.0359
620.00,0.0379
619.00,0.0401
618.00,0.0424
617.00,0.0447
616.00,0.0467
615.00,0.0482
614.00,0.0494
613.00,0.0498
612.00,0.0491
611.00,0.0475
610.00,0.0460
609.00,0.0448
608.00,0.0441
607.00,0.0434
606.00,0.0424
605.00,0.0410
604.00,0.0396
603.00,0.0385
602.00,0.0382
601.00,0.0386
600.00,0.0397
599.00,0.0415
598.00,0.0431
597.00,0.0438
596.00,0.0431
595.00,0.0416
594.00,0.0397
593.00,0.0377
592.00,0.0357
591.00,0.0339
590.00,0.0323
589.00,0.0311
588.00,0.0304
587.00,0.0305
586.00,0.0317
585.00,0.0338
584.00,0.0363
583.00,0.0390
582.00,0.0414
581.00,0.0430
580.00,0.0435
579.00,0.0432
578.00,0.0426
577.00,0.0416
576.00,0.0404
575.00,0.0392
574.00,0.0384
573.00,0.0376
572.00,0.0368
571.00,0.0361
570.00,0.0356
569.00,0.0350
568.00,0.0343
567.00,0.0338
566.00,0.0335
565.00,0.0334
564.00,0.0332
563.00,0.0331
562.00,0.0329
561.00,0.0326
560.00,0.0318
559.00,0.0310
558.00,0.0303
557.00,0.0296
556.00,0.0288
555.00,0.0280
554.00,0.0274
553.00,0.0268
552.00,0.0261
551.00,0.0256
550.00,0.0253
549.00,0.0250
548.00,0.0245
547.00,0.0241
546.00,0.0238
545.00,0.0236
544.00,0.0233
543.00,0.0230
542.00,0.0229
541.00,0.0229
540.00,0.0226
539.00,0.0223
538.00,0.0223
537.00,0.0222
536.00,0.0220
535.00,0.0218
534.00,0.0218
533.00,0.0217
532.00,0.0214
531.00,0.0211
530.00,0.0210
529.00,0.0210
528.00,0.0207
527.00,0.0206
526.00,0.0207
525.00,0.0207
524.00,0.0203
523.00,0.0200
522.00,0.0200
521.00,0.0200
520.00,0.0197
519.00,0.0196
518.00,0.0196
517.00,0.0195
516.00,0.0193
515.00,0.0193
514.00,0.0197
513.00,0.0203
512.00,0.0206
511.00,0.0209
510.00,0.0215
509.00,0.0217
508.00,0.0215
507.00,0.0212
506.00,0.0211
505.00,0.0210
504.00,0.0207
503.00,0.0204
502.00,0.0203
501.00,0.0200
500.00,0.0193
499.00,0.0186
498.00,0.0185
497.00,0.0185
496.00,0.0183
495.00,0.0181
494.00,0.0181
493.00,0.0181
492.00,0.0178
491.00,0.0178
490.00,0.0181
489.00,0.0184
488.00,0.0182
487.00,0.0181
486.00,0.0184
485.00,0.0187
484.00,0.0185
483.00,0.0183
482.00,0.0183
481.00,0.0183
480.00,0.0180
479.00,0.0179
478.00,0.0184
477.00,0.0188
476.00,0.0190
475.00,0.0192
474.00,0.0198
473.00,0.0204
472.00,0.0206
471.00,0.0207
470.00,0.0210
469.00,0.0211
468.00,0.0208
467.00,0.0207
466.00,0.0208
465.00,0.0208
464.00,0.0203
463.00,0.0199
462.00,0.0198
461.00,0.0198
460.00,0.0192
459.00,0.0188
458.00,0.0190
457.00,0.0192
456.00,0.0191
455.00,0.0193
454.00,0.0200
453.00,0.0206
452.00,0.0205
451.00,0.0206
450.00,0.0212
449.00,0.0217
448.00,0.0213
447.00,0.0207
446.00,0.0204
445.00,0.0201
444.00,0.0194
443.00,0.0189
442.00,0.0190
441.00,0.0190
440.00,0.0185
439.00,0.0181
438.00,0.0181
437.00,0.0180
436.00,0.0173
435.00,0.0167
434.00,0.0170
433.00,0.0172
432.00,0.0168
431.00,0.0164
430.00,0.0165
429.00,0.0166
428.00,0.0161
427.00,0.0158
426.00,0.0163
425.00,0.0168
424.00,0.0167
423.00,0.0168
422.00,0.0178
421.00,0.0186
420.00,0.0185
419.00,0.0187
418.00,0.0204
417.00,0.0219
416.00,0.0220
415.00,0.0221
414.00,0.0234
413.00,0.0251
412.00,0.0262
411.00,0.0275
410.00,0.0298
409.00,0.0318
408.00,0.0323
407.00,0.0324
406.00,0.0331
405.00,0.0334
404.00,0.0326
403.00,0.0322
402.00,0.0333
401.00,0.0338
400.00,0.0325
