Created as New Dataset,Sample 625 By YargerLab Date Friday, June 06 2025
cm-1,A
4000.00,0.0091
3999.00,0.0091
3998.00,0.0091
3997.00,0.0091
3996.00,0.0091
3995.00,0.0092
3994.00,0.0092
3993.00,0.0092
3992.00,0.0092
3991.00,0.0092
3990.00,0.0092
3989.00,0.0092
3988.00,0.0092
3987.00,0.0092
3986.00,0.0092
3985.00,0.0092
3984.00,0.0092
3983.00,0.0092
3982.00,0.0092
3981.00,0.0092
3980.00,0.0092
3979.00,0.0092
3978.00,0.0092
3977.00,0.0092
3976.00,0.0092
3975.00,0.0092
3974.00,0.0092
3973.00,0.0092
3972.00,0.0092
3971.00,0.0092
3970.00,0.0092
3969.00,0.0092
3968.00,0.0092
3967.00,0.0092
3966.00,0.0092
3965.00,0.0092
3964.00,0.0092
3963.00,0.0092
3962.00,0.0092
3961.00,0.0092
3960.00,0.0092
3959.00,0.0092
3958.00,0.0092
3957.00,0.0092
3956.00,0.0092
3955.00,0.0092
3954.00,0.0091
3953.00,0.0091
3952.00,0.0091
3951.00,0.0091
3950.00,0.0091
3949.00,0.0091
3948.00,0.0091
3947.00,0.0091
3946.00,0.0091
3945.00,0.0091
3944.00,0.0091
3943.00,0.0091
3942.00,0.0091
3941.00,0.0091
3940.00,0.0091
3939.00,0.0091
3938.00,0.0091
3937.00,0.0091
3936.00,0.0092
3935.00,0.0092
3934.00,0.0091
3933.00,0.0091
3932.00,0.0091
3931.00,0.0091
3930.00,0.0091
3929.00,0.0091
3928.00,0.0091
3927.00,0.0092
3926.00,0.0092
3925.00,0.0093
3924.00,0.0093
3923.00,0.0093
3922.00,0.0093
3921.00,0.0093
3920.00,0.0093
3919.00,0.0093
3918.00,0.0093
3917.00,0.0093
3916.00,0.0093
3915.00,0.0093
3914.00,0.0093
3913.00,0.0092
3912.00,0.0092
3911.00,0.0092
3910.00,0.0092
3909.00,0.0092
3908.00,0.0091
3907.00,0.0091
3906.00,0.0090
3905.00,0.0089
3904.00,0.0089
3903.00,0.0089
3902.00,0.0088
3901.00,0.0088
3900.00,0.0088
3899.00,0.0088
3898.00,0.0088
3897.00,0.0088
3896.00,0.0088
3895.00,0.0088
3894.00,0.0088
3893.00,0.0089
3892.00,0.0089
3891.00,0.0089
3890.00,0.0089
3889.00,0.0088
3888.00,0.0088
3887.00,0.0088
3886.00,0.0088
3885.00,0.0088
3884.00,0.0088
3883.00,0.0087
3882.00,0.0087
3881.00,0.0087
3880.00,0.0087
3879.00,0.0088
3878.00,0.0088
3877.00,0.0087
3876.00,0.0088
3875.00,0.0088
3874.00,0.0088
3873.00,0.0088
3872.00,0.0087
3871.00,0.0087
3870.00,0.0087
3869.00,0.0087
3868.00,0.0087
3867.00,0.0087
3866.00,0.0087
3865.00,0.0087
3864.00,0.0087
3863.00,0.0087
3862.00,0.0087
3861.00,0.0087
3860.00,0.0087
3859.00,0.0088
3858.00,0.0088
3857.00,0.0087
3856.00,0.0087
3855.00,0.0087
3854.00,0.0087
3853.00,0.0087
3852.00,0.0086
3851.00,0.0086
3850.00,0.0086
3849.00,0.0086
3848.00,0.0087
3847.00,0.0087
3846.00,0.0087
3845.00,0.0086
3844.00,0.0086
3843.00,0.0086
3842.00,0.0086
3841.00,0.0087
3840.00,0.0087
3839.00,0.0087
3838.00,0.0087
3837.00,0.0086
3836.00,0.0086
3835.00,0.0085
3834.00,0.0085
3833.00,0.0085
3832.00,0.0086
3831.00,0.0086
3830.00,0.0086
3829.00,0.0086
3828.00,0.0086
3827.00,0.0087
3826.00,0.0087
3825.00,0.0087
3824.00,0.0087
3823.00,0.0086
3822.00,0.0086
3821.00,0.0086
3820.00,0.0086
3819.00,0.0086
3818.00,0.0085
3817.00,0.0086
3816.00,0.0087
3815.00,0.0087
3814.00,0.0087
3813.00,0.0087
3812.00,0.0087
3811.00,0.0087
3810.00,0.0087
3809.00,0.0087
3808.00,0.0087
3807.00,0.0088
3806.00,0.0087
3805.00,0.0087
3804.00,0.0086
3803.00,0.0086
3802.00,0.0086
3801.00,0.0087
3800.00,0.0086
3799.00,0.0086
3798.00,0.0086
3797.00,0.0086
3796.00,0.0086
3795.00,0.0086
3794.00,0.0086
3793.00,0.0086
3792.00,0.0087
3791.00,0.0087
3790.00,0.0087
3789.00,0.0087
3788.00,0.0087
3787.00,0.0087
3786.00,0.0087
3785.00,0.0087
3784.00,0.0087
3783.00,0.0087
3782.00,0.0087
3781.00,0.0087
3780.00,0.0087
3779.00,0.0087
3778.00,0.0087
3777.00,0.0087
3776.00,0.0087
3775.00,0.0087
3774.00,0.0087
3773.00,0.0087
3772.00,0.0087
3771.00,0.0087
3770.00,0.0087
3769.00,0.0086
3768.00,0.0086
3767.00,0.0086
3766.00,0.0086
3765.00,0.0086
3764.00,0.0086
3763.00,0.0086
3762.00,0.0086
3761.00,0.0086
3760.00,0.0086
3759.00,0.0086
3758.00,0.0086
3757.00,0.0086
3756.00,0.0086
3755.00,0.0086
3754.00,0.0086
3753.00,0.0085
3752.00,0.0085
3751.00,0.0085
3750.00,0.0085
3749.00,0.0084
3748.00,0.0084
3747.00,0.0083
3746.00,0.0083
3745.00,0.0084
3744.00,0.0084
3743.00,0.0084
3742.00,0.0084
3741.00,0.0084
3740.00,0.0084
3739.00,0.0084
3738.00,0.0084
3737.00,0.0084
3736.00,0.0084
3735.00,0.0084
3734.00,0.0083
3733.00,0.0084
3732.00,0.0084
3731.00,0.0084
3730.00,0.0084
3729.00,0.0084
3728.00,0.0084
3727.00,0.0084
3726.00,0.0084
3725.00,0.0084
3724.00,0.0084
3723.00,0.0084
3722.00,0.0084
3721.00,0.0084
3720.00,0.0084
3719.00,0.0084
3718.00,0.0084
3717.00,0.0084
3716.00,0.0083
3715.00,0.0083
3714.00,0.0083
3713.00,0.0083
3712.00,0.0083
3711.00,0.0082
3710.00,0.0082
3709.00,0.0082
3708.00,0.0082
3707.00,0.0082
3706.00,0.0082
3705.00,0.0082
3704.00,0.0082
3703.00,0.0083
3702.00,0.0083
3701.00,0.0083
3700.00,0.0083
3699.00,0.0083
3698.00,0.0083
3697.00,0.0083
3696.00,0.0083
3695.00,0.0083
3694.00,0.0083
3693.00,0.0082
3692.00,0.0082
3691.00,0.0082
3690.00,0.0081
3689.00,0.0081
3688.00,0.0081
3687.00,0.0080
3686.00,0.0080
3685.00,0.0079
3684.00,0.0079
3683.00,0.0079
3682.00,0.0079
3681.00,0.0078
3680.00,0.0078
3679.00,0.0077
3678.00,0.0076
3677.00,0.0075
3676.00,0.0074
3675.00,0.0074
3674.00,0.0073
3673.00,0.0072
3672.00,0.0072
3671.00,0.0072
3670.00,0.0072
3669.00,0.0071
3668.00,0.0071
3667.00,0.0071
3666.00,0.0071
3665.00,0.0071
3664.00,0.0071
3663.00,0.0071
3662.00,0.0071
3661.00,0.0071
3660.00,0.0071
3659.00,0.0070
3658.00,0.0070
3657.00,0.0071
3656.00,0.0071
3655.00,0.0071
3654.00,0.0071
3653.00,0.0070
3652.00,0.0070
3651.00,0.0070
3650.00,0.0070
3649.00,0.0070
3648.00,0.0070
3647.00,0.0070
3646.00,0.0070
3645.00,0.0071
3644.00,0.0071
3643.00,0.0072
3642.00,0.0073
3641.00,0.0073
3640.00,0.0074
3639.00,0.0074
3638.00,0.0073
3637.00,0.0073
3636.00,0.0074
3635.00,0.0074
3634.00,0.0075
3633.00,0.0076
3632.00,0.0076
3631.00,0.0076
3630.00,0.0076
3629.00,0.0076
3628.00,0.0076
3627.00,0.0076
3626.00,0.0077
3625.00,0.0077
3624.00,0.0077
3623.00,0.0077
3622.00,0.0077
3621.00,0.0077
3620.00,0.0078
3619.00,0.0078
3618.00,0.0077
3617.00,0.0077
3616.00,0.0077
3615.00,0.0077
3614.00,0.0078
3613.00,0.0078
3612.00,0.0078
3611.00,0.0077
3610.00,0.0077
3609.00,0.0077
3608.00,0.0078
3607.00,0.0078
3606.00,0.0079
3605.00,0.0079
3604.00,0.0079
3603.00,0.0080
3602.00,0.0080
3601.00,0.0080
3600.00,0.0079
3599.00,0.0079
3598.00,0.0078
3597.00,0.0078
3596.00,0.0078
3595.00,0.0078
3594.00,0.0078
3593.00,0.0078
3592.00,0.0078
3591.00,0.0078
3590.00,0.0078
3589.00,0.0078
3588.00,0.0078
3587.00,0.0078
3586.00,0.0078
3585.00,0.0078
3584.00,0.0078
3583.00,0.0078
3582.00,0.0078
3581.00,0.0078
3580.00,0.0079
3579.00,0.0079
3578.00,0.0079
3577.00,0.0079
3576.00,0.0079
3575.00,0.0079
3574.00,0.0079
3573.00,0.0079
3572.00,0.0079
3571.00,0.0079
3570.00,0.0078
3569.00,0.0078
3568.00,0.0078
3567.00,0.0078
3566.00,0.0078
3565.00,0.0078
3564.00,0.0078
3563.00,0.0078
3562.00,0.0079
3561.00,0.0079
3560.00,0.0080
3559.00,0.0080
3558.00,0.0080
3557.00,0.0079
3556.00,0.0079
3555.00,0.0079
3554.00,0.0079
3553.00,0.0079
3552.00,0.0079
3551.00,0.0079
3550.00,0.0079
3549.00,0.0079
3548.00,0.0079
3547.00,0.0079
3546.00,0.0079
3545.00,0.0079
3544.00,0.0079
3543.00,0.0079
3542.00,0.0079
3541.00,0.0079
3540.00,0.0079
3539.00,0.0079
3538.00,0.0079
3537.00,0.0079
3536.00,0.0079
3535.00,0.0079
3534.00,0.0079
3533.00,0.0079
3532.00,0.0079
3531.00,0.0079
3530.00,0.0078
3529.00,0.0078
3528.00,0.0079
3527.00,0.0079
3526.00,0.0079
3525.00,0.0079
3524.00,0.0079
3523.00,0.0079
3522.00,0.0079
3521.00,0.0078
3520.00,0.0078
3519.00,0.0078
3518.00,0.0078
3517.00,0.0078
3516.00,0.0079
3515.00,0.0079
3514.00,0.0079
3513.00,0.0079
3512.00,0.0079
3511.00,0.0078
3510.00,0.0078
3509.00,0.0078
3508.00,0.0078
3507.00,0.0078
3506.00,0.0078
3505.00,0.0078
3504.00,0.0078
3503.00,0.0077
3502.00,0.0077
3501.00,0.0077
3500.00,0.0077
3499.00,0.0078
3498.00,0.0078
3497.00,0.0078
3496.00,0.0078
3495.00,0.0078
3494.00,0.0078
3493.00,0.0078
3492.00,0.0077
3491.00,0.0077
3490.00,0.0077
3489.00,0.0077
3488.00,0.0077
3487.00,0.0077
3486.00,0.0077
3485.00,0.0077
3484.00,0.0077
3483.00,0.0077
3482.00,0.0077
3481.00,0.0077
3480.00,0.0077
3479.00,0.0077
3478.00,0.0076
3477.00,0.0076
3476.00,0.0076
3475.00,0.0076
3474.00,0.0076
3473.00,0.0076
3472.00,0.0076
3471.00,0.0076
3470.00,0.0077
3469.00,0.0077
3468.00,0.0077
3467.00,0.0076
3466.00,0.0076
3465.00,0.0076
3464.00,0.0076
3463.00,0.0076
3462.00,0.0076
3461.00,0.0075
3460.00,0.0075
3459.00,0.0075
3458.00,0.0075
3457.00,0.0075
3456.00,0.0075
3455.00,0.0075
3454.00,0.0076
3453.00,0.0076
3452.00,0.0076
3451.00,0.0076
3450.00,0.0076
3449.00,0.0076
3448.00,0.0076
3447.00,0.0076
3446.00,0.0076
3445.00,0.0076
3444.00,0.0076
3443.00,0.0077
3442.00,0.0077
3441.00,0.0077
3440.00,0.0077
3439.00,0.0077
3438.00,0.0078
3437.00,0.0078
3436.00,0.0079
3435.00,0.0079
3434.00,0.0079
3433.00,0.0079
3432.00,0.0079
3431.00,0.0079
3430.00,0.0080
3429.00,0.0080
3428.00,0.0080
3427.00,0.0081
3426.00,0.0081
3425.00,0.0082
3424.00,0.0083
3423.00,0.0083
3422.00,0.0084
3421.00,0.0084
3420.00,0.0085
3419.00,0.0085
3418.00,0.0086
3417.00,0.0087
3416.00,0.0088
3415.00,0.0089
3414.00,0.0090
3413.00,0.0092
3412.00,0.0093
3411.00,0.0094
3410.00,0.0096
3409.00,0.0098
3408.00,0.0100
3407.00,0.0102
3406.00,0.0105
3405.00,0.0107
3404.00,0.0109
3403.00,0.0112
3402.00,0.0115
3401.00,0.0118
3400.00,0.0123
3399.00,0.0128
3398.00,0.0133
3397.00,0.0138
3396.00,0.0143
3395.00,0.0149
3394.00,0.0154
3393.00,0.0161
3392.00,0.0169
3391.00,0.0178
3390.00,0.0188
3389.00,0.0200
3388.00,0.0213
3387.00,0.0226
3386.00,0.0242
3385.00,0.0259
3384.00,0.0279
3383.00,0.0301
3382.00,0.0326
3381.00,0.0354
3380.00,0.0384
3379.00,0.0418
3378.00,0.0453
3377.00,0.0490
3376.00,0.0527
3375.00,0.0564
3374.00,0.0597
3373.00,0.0626
3372.00,0.0650
3371.00,0.0667
3370.00,0.0678
3369.00,0.0683
3368.00,0.0682
3367.00,0.0677
3366.00,0.0667
3365.00,0.0654
3364.00,0.0638
3363.00,0.0620
3362.00,0.0600
3361.00,0.0580
3360.00,0.0560
3359.00,0.0539
3358.00,0.0519
3357.00,0.0498
3356.00,0.0478
3355.00,0.0459
3354.00,0.0440
3353.00,0.0423
3352.00,0.0406
3351.00,0.0390
3350.00,0.0376
3349.00,0.0362
3348.00,0.0350
3347.00,0.0338
3346.00,0.0327
3345.00,0.0317
3344.00,0.0307
3343.00,0.0298
3342.00,0.0290
3341.00,0.0282
3340.00,0.0275
3339.00,0.0268
3338.00,0.0262
3337.00,0.0256
3336.00,0.0250
3335.00,0.0245
3334.00,0.0240
3333.00,0.0236
3332.00,0.0232
3331.00,0.0228
3330.00,0.0224
3329.00,0.0221
3328.00,0.0217
3327.00,0.0215
3326.00,0.0212
3325.00,0.0209
3324.00,0.0206
3323.00,0.0204
3322.00,0.0202
3321.00,0.0200
3320.00,0.0198
3319.00,0.0196
3318.00,0.0194
3317.00,0.0193
3316.00,0.0191
3315.00,0.0189
3314.00,0.0188
3313.00,0.0187
3312.00,0.0185
3311.00,0.0184
3310.00,0.0182
3309.00,0.0181
3308.00,0.0180
3307.00,0.0179
3306.00,0.0177
3305.00,0.0176
3304.00,0.0175
3303.00,0.0174
3302.00,0.0172
3301.00,0.0171
3300.00,0.0169
3299.00,0.0168
3298.00,0.0166
3297.00,0.0164
3296.00,0.0162
3295.00,0.0160
3294.00,0.0159
3293.00,0.0157
3292.00,0.0156
3291.00,0.0155
3290.00,0.0154
3289.00,0.0152
3288.00,0.0150
3287.00,0.0148
3286.00,0.0146
3285.00,0.0145
3284.00,0.0143
3283.00,0.0142
3282.00,0.0140
3281.00,0.0139
3280.00,0.0138
3279.00,0.0137
3278.00,0.0136
3277.00,0.0134
3276.00,0.0133
3275.00,0.0132
3274.00,0.0131
3273.00,0.0130
3272.00,0.0129
3271.00,0.0129
3270.00,0.0128
3269.00,0.0128
3268.00,0.0128
3267.00,0.0127
3266.00,0.0127
3265.00,0.0126
3264.00,0.0126
3263.00,0.0125
3262.00,0.0125
3261.00,0.0125
3260.00,0.0125
3259.00,0.0124
3258.00,0.0124
3257.00,0.0124
3256.00,0.0123
3255.00,0.0124
3254.00,0.0124
3253.00,0.0124
3252.00,0.0124
3251.00,0.0124
3250.00,0.0124
3249.00,0.0123
3248.00,0.0123
3247.00,0.0124
3246.00,0.0124
3245.00,0.0125
3244.00,0.0125
3243.00,0.0126
3242.00,0.0126
3241.00,0.0126
3240.00,0.0127
3239.00,0.0127
3238.00,0.0127
3237.00,0.0126
3236.00,0.0126
3235.00,0.0125
3234.00,0.0125
3233.00,0.0125
3232.00,0.0126
3231.00,0.0126
3230.00,0.0126
3229.00,0.0125
3228.00,0.0125
3227.00,0.0124
3226.00,0.0123
3225.00,0.0122
3224.00,0.0121
3223.00,0.0120
3222.00,0.0119
3221.00,0.0118
3220.00,0.0117
3219.00,0.0116
3218.00,0.0115
3217.00,0.0115
3216.00,0.0114
3215.00,0.0113
3214.00,0.0112
3213.00,0.0111
3212.00,0.0111
3211.00,0.0110
3210.00,0.0109
3209.00,0.0109
3208.00,0.0109
3207.00,0.0108
3206.00,0.0108
3205.00,0.0107
3204.00,0.0107
3203.00,0.0106
3202.00,0.0105
3201.00,0.0105
3200.00,0.0104
3199.00,0.0104
3198.00,0.0104
3197.00,0.0103
3196.00,0.0103
3195.00,0.0103
3194.00,0.0102
3193.00,0.0102
3192.00,0.0102
3191.00,0.0102
3190.00,0.0102
3189.00,0.0101
3188.00,0.0101
3187.00,0.0101
3186.00,0.0101
3185.00,0.0100
3184.00,0.0100
3183.00,0.0100
3182.00,0.0100
3181.00,0.0100
3180.00,0.0100
3179.00,0.0099
3178.00,0.0099
3177.00,0.0099
3176.00,0.0099
3175.00,0.0099
3174.00,0.0099
3173.00,0.0099
3172.00,0.0099
3171.00,0.0099
3170.00,0.0099
3169.00,0.0099
3168.00,0.0098
3167.00,0.0098
3166.00,0.0098
3165.00,0.0098
3164.00,0.0098
3163.00,0.0098
3162.00,0.0098
3161.00,0.0098
3160.00,0.0098
3159.00,0.0098
3158.00,0.0098
3157.00,0.0098
3156.00,0.0098
3155.00,0.0098
3154.00,0.0098
3153.00,0.0098
3152.00,0.0099
3151.00,0.0099
3150.00,0.0099
3149.00,0.0099
3148.00,0.0100
3147.00,0.0100
3146.00,0.0100
3145.00,0.0100
3144.00,0.0101
3143.00,0.0101
3142.00,0.0101
3141.00,0.0101
3140.00,0.0101
3139.00,0.0101
3138.00,0.0101
3137.00,0.0101
3136.00,0.0101
3135.00,0.0101
3134.00,0.0101
3133.00,0.0102
3132.00,0.0102
3131.00,0.0103
3130.00,0.0103
3129.00,0.0103
3128.00,0.0104
3127.00,0.0104
3126.00,0.0105
3125.00,0.0105
3124.00,0.0106
3123.00,0.0106
3122.00,0.0107
3121.00,0.0107
3120.00,0.0108
3119.00,0.0109
3118.00,0.0109
3117.00,0.0110
3116.00,0.0111
3115.00,0.0112
3114.00,0.0113
3113.00,0.0114
3112.00,0.0115
3111.00,0.0116
3110.00,0.0117
3109.00,0.0118
3108.00,0.0119
3107.00,0.0120
3106.00,0.0121
3105.00,0.0122
3104.00,0.0123
3103.00,0.0124
3102.00,0.0125
3101.00,0.0126
3100.00,0.0126
3099.00,0.0126
3098.00,0.0126
3097.00,0.0126
3096.00,0.0126
3095.00,0.0126
3094.00,0.0125
3093.00,0.0125
3092.00,0.0124
3091.00,0.0124
3090.00,0.0123
3089.00,0.0122
3088.00,0.0121
3087.00,0.0121
3086.00,0.0120
3085.00,0.0120
3084.00,0.0120
3083.00,0.0120
3082.00,0.0120
3081.00,0.0121
3080.00,0.0121
3079.00,0.0122
3078.00,0.0122
3077.00,0.0123
3076.00,0.0124
3075.00,0.0126
3074.00,0.0128
3073.00,0.0130
3072.00,0.0133
3071.00,0.0134
3070.00,0.0134
3069.00,0.0133
3068.00,0.0131
3067.00,0.0128
3066.00,0.0125
3065.00,0.0122
3064.00,0.0119
3063.00,0.0116
3062.00,0.0114
3061.00,0.0113
3060.00,0.0112
3059.00,0.0111
3058.00,0.0111
3057.00,0.0111
3056.00,0.0112
3055.00,0.0112
3054.00,0.0113
3053.00,0.0113
3052.00,0.0113
3051.00,0.0112
3050.00,0.0111
3049.00,0.0110
3048.00,0.0109
3047.00,0.0108
3046.00,0.0107
3045.00,0.0106
3044.00,0.0105
3043.00,0.0105
3042.00,0.0104
3041.00,0.0104
3040.00,0.0104
3039.00,0.0105
3038.00,0.0105
3037.00,0.0105
3036.00,0.0105
3035.00,0.0105
3034.00,0.0105
3033.00,0.0105
3032.00,0.0106
3031.00,0.0107
3030.00,0.0107
3029.00,0.0108
3028.00,0.0109
3027.00,0.0110
3026.00,0.0111
3025.00,0.0112
3024.00,0.0114
3023.00,0.0115
3022.00,0.0117
3021.00,0.0118
3020.00,0.0119
3019.00,0.0120
3018.00,0.0121
3017.00,0.0121
3016.00,0.0121
3015.00,0.0121
3014.00,0.0121
3013.00,0.0121
3012.00,0.0120
3011.00,0.0121
3010.00,0.0121
3009.00,0.0121
3008.00,0.0121
3007.00,0.0122
3006.00,0.0122
3005.00,0.0122
3004.00,0.0123
3003.00,0.0124
3002.00,0.0125
3001.00,0.0127
3000.00,0.0130
2999.00,0.0133
2998.00,0.0137
2997.00,0.0143
2996.00,0.0148
2995.00,0.0154
2994.00,0.0158
2993.00,0.0162
2992.00,0.0166
2991.00,0.0168
2990.00,0.0169
2989.00,0.0170
2988.00,0.0169
2987.00,0.0167
2986.00,0.0164
2985.00,0.0159
2984.00,0.0152
2983.00,0.0145
2982.00,0.0140
2981.00,0.0138
2980.00,0.0138
2979.00,0.0139
2978.00,0.0138
2977.00,0.0135
2976.00,0.0130
2975.00,0.0124
2974.00,0.0117
2973.00,0.0111
2972.00,0.0106
2971.00,0.0103
2970.00,0.0103
2969.00,0.0105
2968.00,0.0108
2967.00,0.0112
2966.00,0.0116
2965.00,0.0121
2964.00,0.0126
2963.00,0.0133
2962.00,0.0140
2961.00,0.0147
2960.00,0.0155
2959.00,0.0162
2958.00,0.0169
2957.00,0.0176
2956.00,0.0183
2955.00,0.0190
2954.00,0.0198
2953.00,0.0206
2952.00,0.0214
2951.00,0.0220
2950.00,0.0224
2949.00,0.0226
2948.00,0.0226
2947.00,0.0223
2946.00,0.0220
2945.00,0.0216
2944.00,0.0212
2943.00,0.0208
2942.00,0.0204
2941.00,0.0200
2940.00,0.0198
2939.00,0.0195
2938.00,0.0194
2937.00,0.0192
2936.00,0.0190
2935.00,0.0187
2934.00,0.0183
2933.00,0.0178
2932.00,0.0173
2931.00,0.0167
2930.00,0.0162
2929.00,0.0157
2928.00,0.0153
2927.00,0.0149
2926.00,0.0145
2925.00,0.0142
2924.00,0.0139
2923.00,0.0136
2922.00,0.0133
2921.00,0.0130
2920.00,0.0127
2919.00,0.0125
2918.00,0.0123
2917.00,0.0121
2916.00,0.0120
2915.00,0.0119
2914.00,0.0119
2913.00,0.0119
2912.00,0.0120
2911.00,0.0120
2910.00,0.0121
2909.00,0.0121
2908.00,0.0122
2907.00,0.0122
2906.00,0.0123
2905.00,0.0123
2904.00,0.0124
2903.00,0.0124
2902.00,0.0124
2901.00,0.0123
2900.00,0.0123
2899.00,0.0122
2898.00,0.0121
2897.00,0.0120
2896.00,0.0119
2895.00,0.0118
2894.00,0.0116
2893.00,0.0115
2892.00,0.0113
2891.00,0.0112
2890.00,0.0111
2889.00,0.0111
2888.00,0.0111
2887.00,0.0112
2886.00,0.0112
2885.00,0.0111
2884.00,0.0111
2883.00,0.0111
2882.00,0.0111
2881.00,0.0112
2880.00,0.0113
2879.00,0.0114
2878.00,0.0114
2877.00,0.0115
2876.00,0.0115
2875.00,0.0114
2874.00,0.0114
2873.00,0.0113
2872.00,0.0112
2871.00,0.0111
2870.00,0.0109
2869.00,0.0108
2868.00,0.0107
2867.00,0.0106
2866.00,0.0105
2865.00,0.0105
2864.00,0.0104
2863.00,0.0104
2862.00,0.0103
2861.00,0.0103
2860.00,0.0103
2859.00,0.0103
2858.00,0.0103
2857.00,0.0104
2856.00,0.0104
2855.00,0.0104
2854.00,0.0105
2853.00,0.0105
2852.00,0.0105
2851.00,0.0105
2850.00,0.0106
2849.00,0.0106
2848.00,0.0107
2847.00,0.0109
2846.00,0.0110
2845.00,0.0112
2844.00,0.0114
2843.00,0.0115
2842.00,0.0117
2841.00,0.0119
2840.00,0.0120
2839.00,0.0120
2838.00,0.0120
2837.00,0.0120
2836.00,0.0119
2835.00,0.0118
2834.00,0.0117
2833.00,0.0116
2832.00,0.0115
2831.00,0.0114
2830.00,0.0113
2829.00,0.0112
2828.00,0.0111
2827.00,0.0110
2826.00,0.0110
2825.00,0.0109
2824.00,0.0108
2823.00,0.0108
2822.00,0.0108
2821.00,0.0108
2820.00,0.0108
2819.00,0.0108
2818.00,0.0108
2817.00,0.0109
2816.00,0.0109
2815.00,0.0110
2814.00,0.0110
2813.00,0.0111
2812.00,0.0111
2811.00,0.0112
2810.00,0.0112
2809.00,0.0113
2808.00,0.0113
2807.00,0.0114
2806.00,0.0114
2805.00,0.0114
2804.00,0.0114
2803.00,0.0113
2802.00,0.0113
2801.00,0.0113
2800.00,0.0113
2799.00,0.0112
2798.00,0.0111
2797.00,0.0111
2796.00,0.0110
2795.00,0.0109
2794.00,0.0108
2793.00,0.0107
2792.00,0.0105
2791.00,0.0104
2790.00,0.0103
2789.00,0.0102
2788.00,0.0101
2787.00,0.0101
2786.00,0.0100
2785.00,0.0099
2784.00,0.0098
2783.00,0.0097
2782.00,0.0097
2781.00,0.0096
2780.00,0.0096
2779.00,0.0096
2778.00,0.0095
2777.00,0.0095
2776.00,0.0095
2775.00,0.0094
2774.00,0.0094
2773.00,0.0094
2772.00,0.0094
2771.00,0.0094
2770.00,0.0093
2769.00,0.0093
2768.00,0.0093
2767.00,0.0093
2766.00,0.0093
2765.00,0.0093
2764.00,0.0094
2763.00,0.0093
2762.00,0.0093
2761.00,0.0093
2760.00,0.0093
2759.00,0.0093
2758.00,0.0093
2757.00,0.0093
2756.00,0.0093
2755.00,0.0092
2754.00,0.0092
2753.00,0.0092
2752.00,0.0092
2751.00,0.0092
2750.00,0.0092
2749.00,0.0091
2748.00,0.0091
2747.00,0.0091
2746.00,0.0091
2745.00,0.0090
2744.00,0.0090
2743.00,0.0090
2742.00,0.0089
2741.00,0.0089
2740.00,0.0089
2739.00,0.0089
2738.00,0.0089
2737.00,0.0089
2736.00,0.0089
2735.00,0.0089
2734.00,0.0089
2733.00,0.0089
2732.00,0.0089
2731.00,0.0089
2730.00,0.0089
2729.00,0.0088
2728.00,0.0088
2727.00,0.0087
2726.00,0.0087
2725.00,0.0087
2724.00,0.0087
2723.00,0.0086
2722.00,0.0086
2721.00,0.0086
2720.00,0.0086
2719.00,0.0086
2718.00,0.0086
2717.00,0.0086
2716.00,0.0085
2715.00,0.0085
2714.00,0.0085
2713.00,0.0085
2712.00,0.0085
2711.00,0.0085
2710.00,0.0085
2709.00,0.0086
2708.00,0.0086
2707.00,0.0086
2706.00,0.0086
2705.00,0.0086
2704.00,0.0087
2703.00,0.0087
2702.00,0.0087
2701.00,0.0087
2700.00,0.0087
2699.00,0.0087
2698.00,0.0087
2697.00,0.0087
2696.00,0.0087
2695.00,0.0087
2694.00,0.0087
2693.00,0.0086
2692.00,0.0086
2691.00,0.0086
2690.00,0.0086
2689.00,0.0086
2688.00,0.0086
2687.00,0.0086
2686.00,0.0085
2685.00,0.0085
2684.00,0.0085
2683.00,0.0085
2682.00,0.0084
2681.00,0.0084
2680.00,0.0084
2679.00,0.0084
2678.00,0.0084
2677.00,0.0084
2676.00,0.0084
2675.00,0.0084
2674.00,0.0083
2673.00,0.0083
2672.00,0.0083
2671.00,0.0083
2670.00,0.0083
2669.00,0.0083
2668.00,0.0083
2667.00,0.0084
2666.00,0.0084
2665.00,0.0085
2664.00,0.0086
2663.00,0.0086
2662.00,0.0086
2661.00,0.0087
2660.00,0.0087
2659.00,0.0087
2658.00,0.0088
2657.00,0.0088
2656.00,0.0088
2655.00,0.0088
2654.00,0.0088
2653.00,0.0088
2652.00,0.0088
2651.00,0.0088
2650.00,0.0088
2649.00,0.0088
2648.00,0.0088
2647.00,0.0088
2646.00,0.0088
2645.00,0.0088
2644.00,0.0088
2643.00,0.0088
2642.00,0.0088
2641.00,0.0088
2640.00,0.0088
2639.00,0.0089
2638.00,0.0089
2637.00,0.0089
2636.00,0.0089
2635.00,0.0089
2634.00,0.0089
2633.00,0.0089
2632.00,0.0089
2631.00,0.0089
2630.00,0.0089
2629.00,0.0089
2628.00,0.0089
2627.00,0.0089
2626.00,0.0090
2625.00,0.0090
2624.00,0.0090
2623.00,0.0090
2622.00,0.0090
2621.00,0.0090
2620.00,0.0090
2619.00,0.0091
2618.00,0.0091
2617.00,0.0091
2616.00,0.0091
2615.00,0.0091
2614.00,0.0091
2613.00,0.0091
2612.00,0.0091
2611.00,0.0091
2610.00,0.0091
2609.00,0.0091
2608.00,0.0091
2607.00,0.0091
2606.00,0.0091
2605.00,0.0091
2604.00,0.0091
2603.00,0.0091
2602.00,0.0091
2601.00,0.0091
2600.00,0.0091
2599.00,0.0091
2598.00,0.0090
2597.00,0.0090
2596.00,0.0090
2595.00,0.0089
2594.00,0.0089
2593.00,0.0089
2592.00,0.0089
2591.00,0.0089
2590.00,0.0089
2589.00,0.0089
2588.00,0.0088
2587.00,0.0087
2586.00,0.0087
2585.00,0.0086
2584.00,0.0085
2583.00,0.0085
2582.00,0.0084
2581.00,0.0084
2580.00,0.0084
2579.00,0.0084
2578.00,0.0084
2577.00,0.0084
2576.00,0.0083
2575.00,0.0083
2574.00,0.0083
2573.00,0.0083
2572.00,0.0083
2571.00,0.0083
2570.00,0.0083
2569.00,0.0083
2568.00,0.0083
2567.00,0.0082
2566.00,0.0082
2565.00,0.0082
2564.00,0.0082
2563.00,0.0082
2562.00,0.0082
2561.00,0.0083
2560.00,0.0083
2559.00,0.0083
2558.00,0.0083
2557.00,0.0083
2556.00,0.0083
2555.00,0.0083
2554.00,0.0083
2553.00,0.0083
2552.00,0.0083
2551.00,0.0083
2550.00,0.0082
2549.00,0.0082
2548.00,0.0082
2547.00,0.0081
2546.00,0.0081
2545.00,0.0081
2544.00,0.0080
2543.00,0.0080
2542.00,0.0079
2541.00,0.0079
2540.00,0.0079
2539.00,0.0078
2538.00,0.0078
2537.00,0.0078
2536.00,0.0078
2535.00,0.0078
2534.00,0.0078
2533.00,0.0078
2532.00,0.0078
2531.00,0.0078
2530.00,0.0078
2529.00,0.0078
2528.00,0.0078
2527.00,0.0078
2526.00,0.0079
2525.00,0.0079
2524.00,0.0079
2523.00,0.0080
2522.00,0.0080
2521.00,0.0080
2520.00,0.0080
2519.00,0.0080
2518.00,0.0081
2517.00,0.0081
2516.00,0.0082
2515.00,0.0082
2514.00,0.0083
2513.00,0.0083
2512.00,0.0083
2511.00,0.0082
2510.00,0.0082
2509.00,0.0082
2508.00,0.0082
2507.00,0.0082
2506.00,0.0081
2505.00,0.0081
2504.00,0.0081
2503.00,0.0081
2502.00,0.0080
2501.00,0.0080
2500.00,0.0080
2499.00,0.0080
2498.00,0.0080
2497.00,0.0080
2496.00,0.0080
2495.00,0.0080
2494.00,0.0079
2493.00,0.0079
2492.00,0.0080
2491.00,0.0080
2490.00,0.0080
2489.00,0.0080
2488.00,0.0080
2487.00,0.0080
2486.00,0.0081
2485.00,0.0081
2484.00,0.0081
2483.00,0.0081
2482.00,0.0081
2481.00,0.0081
2480.00,0.0081
2479.00,0.0081
2478.00,0.0081
2477.00,0.0081
2476.00,0.0080
2475.00,0.0080
2474.00,0.0080
2473.00,0.0080
2472.00,0.0080
2471.00,0.0080
2470.00,0.0080
2469.00,0.0081
2468.00,0.0081
2467.00,0.0081
2466.00,0.0080
2465.00,0.0080
2464.00,0.0080
2463.00,0.0080
2462.00,0.0079
2461.00,0.0080
2460.00,0.0080
2459.00,0.0080
2458.00,0.0081
2457.00,0.0081
2456.00,0.0081
2455.00,0.0081
2454.00,0.0080
2453.00,0.0079
2452.00,0.0079
2451.00,0.0078
2450.00,0.0078
2449.00,0.0078
2448.00,0.0078
2447.00,0.0078
2446.00,0.0077
2445.00,0.0077
2444.00,0.0076
2443.00,0.0076
2442.00,0.0076
2441.00,0.0076
2440.00,0.0076
2439.00,0.0076
2438.00,0.0076
2437.00,0.0076
2436.00,0.0076
2435.00,0.0076
2434.00,0.0076
2433.00,0.0076
2432.00,0.0076
2431.00,0.0076
2430.00,0.0076
2429.00,0.0076
2428.00,0.0076
2427.00,0.0076
2426.00,0.0076
2425.00,0.0076
2424.00,0.0076
2423.00,0.0076
2422.00,0.0076
2421.00,0.0076
2420.00,0.0075
2419.00,0.0075
2418.00,0.0075
2417.00,0.0075
2416.00,0.0075
2415.00,0.0075
2414.00,0.0075
2413.00,0.0075
2412.00,0.0075
2411.00,0.0075
2410.00,0.0075
2409.00,0.0074
2408.00,0.0074
2407.00,0.0073
2406.00,0.0072
2405.00,0.0072
2404.00,0.0072
2403.00,0.0072
2402.00,0.0071
2401.00,0.0070
2400.00,0.0070
2399.00,0.0070
2398.00,0.0070
2397.00,0.0070
2396.00,0.0070
2395.00,0.0070
2394.00,0.0070
2393.00,0.0070
2392.00,0.0070
2391.00,0.0070
2390.00,0.0070
2389.00,0.0070
2388.00,0.0070
2387.00,0.0070
2386.00,0.0069
2385.00,0.0068
2384.00,0.0067
2383.00,0.0067
2382.00,0.0067
2381.00,0.0067
2380.00,0.0067
2379.00,0.0067
2378.00,0.0068
2377.00,0.0067
2376.00,0.0067
2375.00,0.0067
2374.00,0.0067
2373.00,0.0066
2372.00,0.0066
2371.00,0.0066
2370.00,0.0065
2369.00,0.0065
2368.00,0.0065
2367.00,0.0065
2366.00,0.0066
2365.00,0.0066
2364.00,0.0067
2363.00,0.0067
2362.00,0.0067
2361.00,0.0067
2360.00,0.0067
2359.00,0.0067
2358.00,0.0066
2357.00,0.0066
2356.00,0.0066
2355.00,0.0066
2354.00,0.0066
2353.00,0.0066
2352.00,0.0066
2351.00,0.0067
2350.00,0.0067
2349.00,0.0067
2348.00,0.0068
2347.00,0.0069
2346.00,0.0069
2345.00,0.0069
2344.00,0.0068
2343.00,0.0068
2342.00,0.0067
2341.00,0.0068
2340.00,0.0068
2339.00,0.0069
2338.00,0.0069
2337.00,0.0069
2336.00,0.0069
2335.00,0.0069
2334.00,0.0069
2333.00,0.0069
2332.00,0.0069
2331.00,0.0069
2330.00,0.0070
2329.00,0.0072
2328.00,0.0075
2327.00,0.0079
2326.00,0.0082
2325.00,0.0083
2324.00,0.0082
2323.00,0.0080
2322.00,0.0077
2321.00,0.0075
2320.00,0.0074
2319.00,0.0073
2318.00,0.0072
2317.00,0.0071
2316.00,0.0071
2315.00,0.0071
2314.00,0.0071
2313.00,0.0070
2312.00,0.0070
2311.00,0.0069
2310.00,0.0069
2309.00,0.0069
2308.00,0.0070
2307.00,0.0071
2306.00,0.0071
2305.00,0.0071
2304.00,0.0071
2303.00,0.0071
2302.00,0.0071
2301.00,0.0072
2300.00,0.0072
2299.00,0.0072
2298.00,0.0073
2297.00,0.0073
2296.00,0.0074
2295.00,0.0075
2294.00,0.0076
2293.00,0.0077
2292.00,0.0077
2291.00,0.0078
2290.00,0.0079
2289.00,0.0079
2288.00,0.0080
2287.00,0.0080
2286.00,0.0079
2285.00,0.0079
2284.00,0.0079
2283.00,0.0078
2282.00,0.0077
2281.00,0.0076
2280.00,0.0076
2279.00,0.0075
2278.00,0.0075
2277.00,0.0074
2276.00,0.0073
2275.00,0.0073
2274.00,0.0072
2273.00,0.0072
2272.00,0.0072
2271.00,0.0072
2270.00,0.0071
2269.00,0.0071
2268.00,0.0070
2267.00,0.0070
2266.00,0.0070
2265.00,0.0070
2264.00,0.0070
2263.00,0.0070
2262.00,0.0070
2261.00,0.0070
2260.00,0.0070
2259.00,0.0070
2258.00,0.0070
2257.00,0.0070
2256.00,0.0069
2255.00,0.0068
2254.00,0.0067
2253.00,0.0067
2252.00,0.0067
2251.00,0.0067
2250.00,0.0067
2249.00,0.0067
2248.00,0.0067
2247.00,0.0066
2246.00,0.0066
2245.00,0.0066
2244.00,0.0066
2243.00,0.0067
2242.00,0.0068
2241.00,0.0068
2240.00,0.0069
2239.00,0.0069
2238.00,0.0068
2237.00,0.0067
2236.00,0.0067
2235.00,0.0066
2234.00,0.0065
2233.00,0.0064
2232.00,0.0063
2231.00,0.0062
2230.00,0.0062
2229.00,0.0062
2228.00,0.0063
2227.00,0.0064
2226.00,0.0064
2225.00,0.0064
2224.00,0.0065
2223.00,0.0065
2222.00,0.0064
2221.00,0.0063
2220.00,0.0063
2219.00,0.0062
2218.00,0.0061
2217.00,0.0061
2216.00,0.0061
2215.00,0.0061
2214.00,0.0060
2213.00,0.0059
2212.00,0.0059
2211.00,0.0059
2210.00,0.0058
2209.00,0.0058
2208.00,0.0058
2207.00,0.0057
2206.00,0.0056
2205.00,0.0056
2204.00,0.0056
2203.00,0.0056
2202.00,0.0055
2201.00,0.0054
2200.00,0.0054
2199.00,0.0053
2198.00,0.0052
2197.00,0.0052
2196.00,0.0054
2195.00,0.0056
2194.00,0.0057
2193.00,0.0057
2192.00,0.0057
2191.00,0.0057
2190.00,0.0055
2189.00,0.0055
2188.00,0.0056
2187.00,0.0057
2186.00,0.0057
2185.00,0.0055
2184.00,0.0054
2183.00,0.0052
2182.00,0.0051
2181.00,0.0051
2180.00,0.0053
2179.00,0.0053
2178.00,0.0052
2177.00,0.0051
2176.00,0.0051
2175.00,0.0052
2174.00,0.0052
2173.00,0.0055
2172.00,0.0058
2171.00,0.0062
2170.00,0.0064
2169.00,0.0067
2168.00,0.0069
2167.00,0.0070
2166.00,0.0070
2165.00,0.0072
2164.00,0.0075
2163.00,0.0076
2162.00,0.0069
2161.00,0.0057
2160.00,0.0042
2159.00,0.0031
2158.00,0.0026
2157.00,0.0028
2156.00,0.0033
2155.00,0.0037
2154.00,0.0039
2153.00,0.0041
2152.00,0.0043
2151.00,0.0045
2150.00,0.0045
2149.00,0.0045
2148.00,0.0044
2147.00,0.0043
2146.00,0.0041
2145.00,0.0040
2144.00,0.0041
2143.00,0.0042
2142.00,0.0042
2141.00,0.0042
2140.00,0.0043
2139.00,0.0042
2138.00,0.0040
2137.00,0.0039
2136.00,0.0038
2135.00,0.0037
2134.00,0.0036
2133.00,0.0036
2132.00,0.0038
2131.00,0.0040
2130.00,0.0041
2129.00,0.0043
2128.00,0.0045
2127.00,0.0046
2126.00,0.0046
2125.00,0.0046
2124.00,0.0046
2123.00,0.0047
2122.00,0.0047
2121.00,0.0048
2120.00,0.0050
2119.00,0.0051
2118.00,0.0052
2117.00,0.0053
2116.00,0.0054
2115.00,0.0055
2114.00,0.0055
2113.00,0.0055
2112.00,0.0056
2111.00,0.0056
2110.00,0.0056
2109.00,0.0056
2108.00,0.0057
2107.00,0.0057
2106.00,0.0057
2105.00,0.0058
2104.00,0.0059
2103.00,0.0059
2102.00,0.0059
2101.00,0.0059
2100.00,0.0060
2099.00,0.0059
2098.00,0.0057
2097.00,0.0055
2096.00,0.0053
2095.00,0.0052
2094.00,0.0051
2093.00,0.0052
2092.00,0.0054
2091.00,0.0055
2090.00,0.0056
2089.00,0.0057
2088.00,0.0058
2087.00,0.0058
2086.00,0.0058
2085.00,0.0057
2084.00,0.0058
2083.00,0.0058
2082.00,0.0057
2081.00,0.0057
2080.00,0.0058
2079.00,0.0058
2078.00,0.0058
2077.00,0.0058
2076.00,0.0059
2075.00,0.0059
2074.00,0.0059
2073.00,0.0058
2072.00,0.0058
2071.00,0.0058
2070.00,0.0057
2069.00,0.0056
2068.00,0.0055
2067.00,0.0055
2066.00,0.0055
2065.00,0.0055
2064.00,0.0056
2063.00,0.0056
2062.00,0.0055
2061.00,0.0054
2060.00,0.0054
2059.00,0.0055
2058.00,0.0055
2057.00,0.0054
2056.00,0.0054
2055.00,0.0055
2054.00,0.0057
2053.00,0.0061
2052.00,0.0064
2051.00,0.0064
2050.00,0.0059
2049.00,0.0054
2048.00,0.0051
2047.00,0.0049
2046.00,0.0046
2045.00,0.0046
2044.00,0.0047
2043.00,0.0048
2042.00,0.0047
2041.00,0.0047
2040.00,0.0048
2039.00,0.0048
2038.00,0.0047
2037.00,0.0046
2036.00,0.0045
2035.00,0.0044
2034.00,0.0041
2033.00,0.0040
2032.00,0.0041
2031.00,0.0040
2030.00,0.0038
2029.00,0.0036
2028.00,0.0037
2027.00,0.0039
2026.00,0.0039
2025.00,0.0040
2024.00,0.0041
2023.00,0.0040
2022.00,0.0038
2021.00,0.0037
2020.00,0.0038
2019.00,0.0041
2018.00,0.0042
2017.00,0.0042
2016.00,0.0043
2015.00,0.0043
2014.00,0.0043
2013.00,0.0045
2012.00,0.0047
2011.00,0.0048
2010.00,0.0046
2009.00,0.0043
2008.00,0.0042
2007.00,0.0040
2006.00,0.0038
2005.00,0.0038
2004.00,0.0041
2003.00,0.0043
2002.00,0.0044
2001.00,0.0045
2000.00,0.0047
1999.00,0.0048
1998.00,0.0048
1997.00,0.0048
1996.00,0.0049
1995.00,0.0049
1994.00,0.0048
1993.00,0.0048
1992.00,0.0050
1991.00,0.0051
1990.00,0.0051
1989.00,0.0051
1988.00,0.0054
1987.00,0.0055
1986.00,0.0055
1985.00,0.0056
1984.00,0.0059
1983.00,0.0063
1982.00,0.0065
1981.00,0.0066
1980.00,0.0063
1979.00,0.0056
1978.00,0.0048
1977.00,0.0044
1976.00,0.0043
1975.00,0.0043
1974.00,0.0039
1973.00,0.0037
1972.00,0.0037
1971.00,0.0038
1970.00,0.0039
1969.00,0.0040
1968.00,0.0043
1967.00,0.0044
1966.00,0.0042
1965.00,0.0041
1964.00,0.0041
1963.00,0.0041
1962.00,0.0039
1961.00,0.0036
1960.00,0.0036
1959.00,0.0035
1958.00,0.0034
1957.00,0.0035
1956.00,0.0036
1955.00,0.0037
1954.00,0.0037
1953.00,0.0038
1952.00,0.0039
1951.00,0.0040
1950.00,0.0040
1949.00,0.0040
1948.00,0.0041
1947.00,0.0041
1946.00,0.0040
1945.00,0.0040
1944.00,0.0042
1943.00,0.0044
1942.00,0.0045
1941.00,0.0045
1940.00,0.0046
1939.00,0.0045
1938.00,0.0044
1937.00,0.0044
1936.00,0.0044
1935.00,0.0045
1934.00,0.0044
1933.00,0.0045
1932.00,0.0046
1931.00,0.0047
1930.00,0.0046
1929.00,0.0047
1928.00,0.0048
1927.00,0.0048
1926.00,0.0048
1925.00,0.0049
1924.00,0.0051
1923.00,0.0053
1922.00,0.0054
1921.00,0.0055
1920.00,0.0057
1919.00,0.0059
1918.00,0.0060
1917.00,0.0061
1916.00,0.0062
1915.00,0.0062
1914.00,0.0060
1913.00,0.0059
1912.00,0.0059
1911.00,0.0058
1910.00,0.0056
1909.00,0.0055
1908.00,0.0055
1907.00,0.0054
1906.00,0.0053
1905.00,0.0051
1904.00,0.0051
1903.00,0.0050
1902.00,0.0049
1901.00,0.0048
1900.00,0.0048
1899.00,0.0048
1898.00,0.0047
1897.00,0.0047
1896.00,0.0048
1895.00,0.0048
1894.00,0.0047
1893.00,0.0046
1892.00,0.0047
1891.00,0.0048
1890.00,0.0048
1889.00,0.0048
1888.00,0.0049
1887.00,0.0049
1886.00,0.0049
1885.00,0.0049
1884.00,0.0050
1883.00,0.0050
1882.00,0.0049
1881.00,0.0049
1880.00,0.0049
1879.00,0.0049
1878.00,0.0049
1877.00,0.0049
1876.00,0.0050
1875.00,0.0050
1874.00,0.0049
1873.00,0.0049
1872.00,0.0048
1871.00,0.0048
1870.00,0.0048
1869.00,0.0049
1868.00,0.0049
1867.00,0.0049
1866.00,0.0048
1865.00,0.0047
1864.00,0.0048
1863.00,0.0048
1862.00,0.0049
1861.00,0.0050
1860.00,0.0052
1859.00,0.0053
1858.00,0.0054
1857.00,0.0055
1856.00,0.0056
1855.00,0.0058
1854.00,0.0058
1853.00,0.0058
1852.00,0.0058
1851.00,0.0057
1850.00,0.0054
1849.00,0.0052
1848.00,0.0051
1847.00,0.0049
1846.00,0.0048
1845.00,0.0048
1844.00,0.0049
1843.00,0.0049
1842.00,0.0048
1841.00,0.0047
1840.00,0.0047
1839.00,0.0047
1838.00,0.0047
1837.00,0.0047
1836.00,0.0047
1835.00,0.0047
1834.00,0.0046
1833.00,0.0045
1832.00,0.0045
1831.00,0.0046
1830.00,0.0046
1829.00,0.0045
1828.00,0.0045
1827.00,0.0044
1826.00,0.0044
1825.00,0.0045
1824.00,0.0045
1823.00,0.0045
1822.00,0.0045
1821.00,0.0044
1820.00,0.0044
1819.00,0.0043
1818.00,0.0042
1817.00,0.0042
1816.00,0.0043
1815.00,0.0044
1814.00,0.0044
1813.00,0.0045
1812.00,0.0047
1811.00,0.0048
1810.00,0.0048
1809.00,0.0048
1808.00,0.0048
1807.00,0.0049
1806.00,0.0048
1805.00,0.0048
1804.00,0.0049
1803.00,0.0049
1802.00,0.0050
1801.00,0.0051
1800.00,0.0052
1799.00,0.0053
1798.00,0.0053
1797.00,0.0054
1796.00,0.0055
1795.00,0.0056
1794.00,0.0056
1793.00,0.0057
1792.00,0.0058
1791.00,0.0058
1790.00,0.0057
1789.00,0.0056
1788.00,0.0055
1787.00,0.0055
1786.00,0.0054
1785.00,0.0054
1784.00,0.0055
1783.00,0.0056
1782.00,0.0056
1781.00,0.0056
1780.00,0.0056
1779.00,0.0056
1778.00,0.0055
1777.00,0.0055
1776.00,0.0056
1775.00,0.0056
1774.00,0.0057
1773.00,0.0058
1772.00,0.0059
1771.00,0.0059
1770.00,0.0057
1769.00,0.0057
1768.00,0.0059
1767.00,0.0061
1766.00,0.0061
1765.00,0.0061
1764.00,0.0062
1763.00,0.0064
1762.00,0.0065
1761.00,0.0066
1760.00,0.0067
1759.00,0.0068
1758.00,0.0069
1757.00,0.0070
1756.00,0.0071
1755.00,0.0071
1754.00,0.0070
1753.00,0.0069
1752.00,0.0072
1751.00,0.0074
1750.00,0.0075
1749.00,0.0075
1748.00,0.0077
1747.00,0.0077
1746.00,0.0077
1745.00,0.0077
1744.00,0.0079
1743.00,0.0080
1742.00,0.0080
1741.00,0.0081
1740.00,0.0084
1739.00,0.0086
1738.00,0.0085
1737.00,0.0084
1736.00,0.0087
1735.00,0.0091
1734.00,0.0094
1733.00,0.0095
1732.00,0.0098
1731.00,0.0100
1730.00,0.0100
1729.00,0.0102
1728.00,0.0106
1727.00,0.0108
1726.00,0.0109
1725.00,0.0112
1724.00,0.0117
1723.00,0.0122
1722.00,0.0125
1721.00,0.0129
1720.00,0.0136
1719.00,0.0147
1718.00,0.0159
1717.00,0.0173
1716.00,0.0191
1715.00,0.0210
1714.00,0.0230
1713.00,0.0254
1712.00,0.0285
1711.00,0.0321
1710.00,0.0363
1709.00,0.0415
1708.00,0.0479
1707.00,0.0561
1706.00,0.0663
1705.00,0.0778
1704.00,0.0888
1703.00,0.0988
1702.00,0.1093
1701.00,0.1231
1700.00,0.1389
1699.00,0.1515
1698.00,0.1590
1697.00,0.1633
1696.00,0.1661
1695.00,0.1681
1694.00,0.1696
1693.00,0.1712
1692.00,0.1734
1691.00,0.1763
1690.00,0.1795
1689.00,0.1821
1688.00,0.1832
1687.00,0.1826
1686.00,0.1795
1685.00,0.1719
1684.00,0.1600
1683.00,0.1483
1682.00,0.1389
1681.00,0.1300
1680.00,0.1208
1679.00,0.1117
1678.00,0.1035
1677.00,0.0957
1676.00,0.0876
1675.00,0.0798
1674.00,0.0736
1673.00,0.0690
1672.00,0.0652
1671.00,0.0618
1670.00,0.0585
1669.00,0.0553
1668.00,0.0526
1667.00,0.0504
1666.00,0.0489
1665.00,0.0474
1664.00,0.0459
1663.00,0.0445
1662.00,0.0432
1661.00,0.0422
1660.00,0.0414
1659.00,0.0409
1658.00,0.0407
1657.00,0.0407
1656.00,0.0409
1655.00,0.0417
1654.00,0.0439
1653.00,0.0472
1652.00,0.0508
1651.00,0.0538
1650.00,0.0570
1649.00,0.0609
1648.00,0.0662
1647.00,0.0730
1646.00,0.0795
1645.00,0.0840
1644.00,0.0862
1643.00,0.0863
1642.00,0.0848
1641.00,0.0818
1640.00,0.0780
1639.00,0.0740
1638.00,0.0702
1637.00,0.0665
1636.00,0.0632
1635.00,0.0608
1634.00,0.0600
1633.00,0.0604
1632.00,0.0617
1631.00,0.0639
1630.00,0.0670
1629.00,0.0712
1628.00,0.0762
1627.00,0.0817
1626.00,0.0870
1625.00,0.0921
1624.00,0.0974
1623.00,0.1025
1622.00,0.1062
1621.00,0.1084
1620.00,0.1094
1619.00,0.1093
1618.00,0.1077
1617.00,0.1043
1616.00,0.0998
1615.00,0.0954
1614.00,0.0912
1613.00,0.0869
1612.00,0.0825
1611.00,0.0781
1610.00,0.0738
1609.00,0.0696
1608.00,0.0657
1607.00,0.0621
1606.00,0.0590
1605.00,0.0561
1604.00,0.0533
1603.00,0.0508
1602.00,0.0484
1601.00,0.0462
1600.00,0.0441
1599.00,0.0422
1598.00,0.0404
1597.00,0.0388
1596.00,0.0372
1595.00,0.0358
1594.00,0.0346
1593.00,0.0335
1592.00,0.0325
1591.00,0.0316
1590.00,0.0308
1589.00,0.0299
1588.00,0.0291
1587.00,0.0284
1586.00,0.0279
1585.00,0.0277
1584.00,0.0278
1583.00,0.0281
1582.00,0.0285
1581.00,0.0286
1580.00,0.0281
1579.00,0.0272
1578.00,0.0261
1577.00,0.0248
1576.00,0.0232
1575.00,0.0218
1574.00,0.0209
1573.00,0.0201
1572.00,0.0194
1571.00,0.0189
1570.00,0.0185
1569.00,0.0180
1568.00,0.0177
1567.00,0.0176
1566.00,0.0179
1565.00,0.0184
1564.00,0.0191
1563.00,0.0196
1562.00,0.0200
1561.00,0.0203
1560.00,0.0204
1559.00,0.0193
1558.00,0.0177
1557.00,0.0168
1556.00,0.0161
1555.00,0.0157
1554.00,0.0153
1553.00,0.0151
1552.00,0.0148
1551.00,0.0146
1550.00,0.0145
1549.00,0.0144
1548.00,0.0142
1547.00,0.0141
1546.00,0.0141
1545.00,0.0141
1544.00,0.0140
1543.00,0.0140
1542.00,0.0141
1541.00,0.0143
1540.00,0.0143
1539.00,0.0144
1538.00,0.0145
1537.00,0.0146
1536.00,0.0147
1535.00,0.0150
1534.00,0.0154
1533.00,0.0159
1532.00,0.0162
1531.00,0.0165
1530.00,0.0167
1529.00,0.0170
1528.00,0.0173
1527.00,0.0178
1526.00,0.0183
1525.00,0.0188
1524.00,0.0194
1523.00,0.0201
1522.00,0.0210
1521.00,0.0222
1520.00,0.0233
1519.00,0.0244
1518.00,0.0258
1517.00,0.0276
1516.00,0.0294
1515.00,0.0314
1514.00,0.0335
1513.00,0.0360
1512.00,0.0388
1511.00,0.0420
1510.00,0.0453
1509.00,0.0493
1508.00,0.0549
1507.00,0.0634
1506.00,0.0739
1505.00,0.0838
1504.00,0.0926
1503.00,0.1015
1502.00,0.1117
1501.00,0.1232
1500.00,0.1355
1499.00,0.1480
1498.00,0.1603
1497.00,0.1714
1496.00,0.1797
1495.00,0.1848
1494.00,0.1871
1493.00,0.1870
1492.00,0.1844
1491.00,0.1794
1490.00,0.1727
1489.00,0.1648
1488.00,0.1565
1487.00,0.1484
1486.00,0.1408
1485.00,0.1337
1484.00,0.1270
1483.00,0.1204
1482.00,0.1142
1481.00,0.1083
1480.00,0.1029
1479.00,0.0983
1478.00,0.0942
1477.00,0.0904
1476.00,0.0868
1475.00,0.0834
1474.00,0.0802
1473.00,0.0772
1472.00,0.0743
1471.00,0.0721
1470.00,0.0707
1469.00,0.0696
1468.00,0.0687
1467.00,0.0680
1466.00,0.0676
1465.00,0.0678
1464.00,0.0684
1463.00,0.0691
1462.00,0.0698
1461.00,0.0701
1460.00,0.0700
1459.00,0.0693
1458.00,0.0677
1457.00,0.0656
1456.00,0.0638
1455.00,0.0627
1454.00,0.0624
1453.00,0.0625
1452.00,0.0632
1451.00,0.0647
1450.00,0.0678
1449.00,0.0732
1448.00,0.0805
1447.00,0.0878
1446.00,0.0925
1445.00,0.0929
1444.00,0.0895
1443.00,0.0841
1442.00,0.0787
1441.00,0.0745
1440.00,0.0718
1439.00,0.0705
1438.00,0.0707
1437.00,0.0731
1436.00,0.0775
1435.00,0.0830
1434.00,0.0887
1433.00,0.0938
1432.00,0.0972
1431.00,0.0978
1430.00,0.0956
1429.00,0.0918
1428.00,0.0874
1427.00,0.0831
1426.00,0.0792
1425.00,0.0759
1424.00,0.0743
1423.00,0.0756
1422.00,0.0809
1421.00,0.0908
1420.00,0.1050
1419.00,0.1190
1418.00,0.1261
1417.00,0.1241
1416.00,0.1162
1415.00,0.1060
1414.00,0.0958
1413.00,0.0866
1412.00,0.0786
1411.00,0.0715
1410.00,0.0656
1409.00,0.0608
1408.00,0.0569
1407.00,0.0534
1406.00,0.0505
1405.00,0.0478
1404.00,0.0453
1403.00,0.0432
1402.00,0.0416
1401.00,0.0402
1400.00,0.0390
1399.00,0.0380
1398.00,0.0372
1397.00,0.0367
1396.00,0.0363
1395.00,0.0362
1394.00,0.0364
1393.00,0.0370
1392.00,0.0378
1391.00,0.0391
1390.00,0.0411
1389.00,0.0440
1388.00,0.0482
1387.00,0.0538
1386.00,0.0603
1385.00,0.0671
1384.00,0.0738
1383.00,0.0798
1382.00,0.0845
1381.00,0.0869
1380.00,0.0866
1379.00,0.0836
1378.00,0.0784
1377.00,0.0720
1376.00,0.0651
1375.00,0.0584
1374.00,0.0526
1373.00,0.0482
1372.00,0.0455
1371.00,0.0441
1370.00,0.0438
1369.00,0.0446
1368.00,0.0466
1367.00,0.0495
1366.00,0.0531
1365.00,0.0562
1364.00,0.0576
1363.00,0.0560
1362.00,0.0516
1361.00,0.0457
1360.00,0.0399
1359.00,0.0350
1358.00,0.0310
1357.00,0.0278
1356.00,0.0254
1355.00,0.0234
1354.00,0.0219
1353.00,0.0207
1352.00,0.0198
1351.00,0.0190
1350.00,0.0185
1349.00,0.0180
1348.00,0.0176
1347.00,0.0173
1346.00,0.0171
1345.00,0.0170
1344.00,0.0168
1343.00,0.0167
1342.00,0.0167
1341.00,0.0167
1340.00,0.0167
1339.00,0.0167
1338.00,0.0168
1337.00,0.0169
1336.00,0.0171
1335.00,0.0172
1334.00,0.0173
1333.00,0.0175
1332.00,0.0177
1331.00,0.0180
1330.00,0.0183
1329.00,0.0187
1328.00,0.0191
1327.00,0.0195
1326.00,0.0202
1325.00,0.0209
1324.00,0.0218
1323.00,0.0230
1322.00,0.0246
1321.00,0.0266
1320.00,0.0289
1319.00,0.0315
1318.00,0.0343
1317.00,0.0371
1316.00,0.0401
1315.00,0.0436
1314.00,0.0480
1313.00,0.0539
1312.00,0.0617
1311.00,0.0714
1310.00,0.0821
1309.00,0.0923
1308.00,0.1002
1307.00,0.1041
1306.00,0.1037
1305.00,0.0995
1304.00,0.0929
1303.00,0.0851
1302.00,0.0772
1301.00,0.0700
1300.00,0.0639
1299.00,0.0592
1298.00,0.0559
1297.00,0.0541
1296.00,0.0536
1295.00,0.0542
1294.00,0.0559
1293.00,0.0584
1292.00,0.0615
1291.00,0.0652
1290.00,0.0695
1289.00,0.0744
1288.00,0.0801
1287.00,0.0868
1286.00,0.0946
1285.00,0.1037
1284.00,0.1141
1283.00,0.1257
1282.00,0.1385
1281.00,0.1520
1280.00,0.1655
1279.00,0.1778
1278.00,0.1879
1277.00,0.1946
1276.00,0.1971
1275.00,0.1954
1274.00,0.1900
1273.00,0.1819
1272.00,0.1719
1271.00,0.1609
1270.00,0.1497
1269.00,0.1387
1268.00,0.1281
1267.00,0.1181
1266.00,0.1089
1265.00,0.1004
1264.00,0.0927
1263.00,0.0855
1262.00,0.0790
1261.00,0.0730
1260.00,0.0674
1259.00,0.0624
1258.00,0.0580
1257.00,0.0542
1256.00,0.0508
1255.00,0.0481
1254.00,0.0461
1253.00,0.0451
1252.00,0.0449
1251.00,0.0453
1250.00,0.0459
1249.00,0.0458
1248.00,0.0448
1247.00,0.0429
1246.00,0.0406
1245.00,0.0382
1244.00,0.0360
1243.00,0.0342
1242.00,0.0327
1241.00,0.0315
1240.00,0.0305
1239.00,0.0297
1238.00,0.0291
1237.00,0.0288
1236.00,0.0286
1235.00,0.0286
1234.00,0.0288
1233.00,0.0292
1232.00,0.0298
1231.00,0.0306
1230.00,0.0316
1229.00,0.0327
1228.00,0.0340
1227.00,0.0353
1226.00,0.0368
1225.00,0.0384
1224.00,0.0401
1223.00,0.0421
1222.00,0.0445
1221.00,0.0472
1220.00,0.0503
1219.00,0.0538
1218.00,0.0576
1217.00,0.0616
1216.00,0.0661
1215.00,0.0714
1214.00,0.0783
1213.00,0.0871
1212.00,0.0981
1211.00,0.1112
1210.00,0.1260
1209.00,0.1418
1208.00,0.1573
1207.00,0.1714
1206.00,0.1830
1205.00,0.1916
1204.00,0.1967
1203.00,0.1984
1202.00,0.1969
1201.00,0.1928
1200.00,0.1865
1199.00,0.1787
1198.00,0.1700
1197.00,0.1613
1196.00,0.1533
1195.00,0.1465
1194.00,0.1414
1193.00,0.1382
1192.00,0.1367
1191.00,0.1363
1190.00,0.1365
1189.00,0.1364
1188.00,0.1355
1187.00,0.1332
1186.00,0.1297
1185.00,0.1251
1184.00,0.1196
1183.00,0.1138
1182.00,0.1079
1181.00,0.1025
1180.00,0.0979
1179.00,0.0944
1178.00,0.0923
1177.00,0.0917
1176.00,0.0927
1175.00,0.0951
1174.00,0.0982
1173.00,0.1005
1172.00,0.1007
1171.00,0.0980
1170.00,0.0924
1169.00,0.0849
1168.00,0.0767
1167.00,0.0688
1166.00,0.0619
1165.00,0.0561
1164.00,0.0513
1163.00,0.0475
1162.00,0.0446
1161.00,0.0424
1160.00,0.0410
1159.00,0.0405
1158.00,0.0410
1157.00,0.0427
1156.00,0.0453
1155.00,0.0481
1154.00,0.0501
1153.00,0.0509
1152.00,0.0507
1151.00,0.0506
1150.00,0.0519
1149.00,0.0552
1148.00,0.0608
1147.00,0.0685
1146.00,0.0778
1145.00,0.0881
1144.00,0.0985
1143.00,0.1081
1142.00,0.1165
1141.00,0.1235
1140.00,0.1288
1139.00,0.1327
1138.00,0.1352
1137.00,0.1360
1136.00,0.1351
1135.00,0.1323
1134.00,0.1279
1133.00,0.1222
1132.00,0.1157
1131.00,0.1089
1130.00,0.1025
1129.00,0.0967
1128.00,0.0918
1127.00,0.0883
1126.00,0.0862
1125.00,0.0859
1124.00,0.0874
1123.00,0.0911
1122.00,0.0973
1121.00,0.1062
1120.00,0.1177
1119.00,0.1311
1118.00,0.1451
1117.00,0.1580
1116.00,0.1678
1115.00,0.1730
1114.00,0.1735
1113.00,0.1699
1112.00,0.1637
1111.00,0.1567
1110.00,0.1504
1109.00,0.1465
1108.00,0.1457
1107.00,0.1483
1106.00,0.1537
1105.00,0.1610
1104.00,0.1695
1103.00,0.1792
1102.00,0.1908
1101.00,0.2043
1100.00,0.2182
1099.00,0.2305
1098.00,0.2393
1097.00,0.2438
1096.00,0.2438
1095.00,0.2400
1094.00,0.2334
1093.00,0.2247
1092.00,0.2149
1091.00,0.2044
1090.00,0.1938
1089.00,0.1833
1088.00,0.1731
1087.00,0.1634
1086.00,0.1542
1085.00,0.1456
1084.00,0.1378
1083.00,0.1305
1082.00,0.1238
1081.00,0.1177
1080.00,0.1121
1079.00,0.1069
1078.00,0.1021
1077.00,0.0976
1076.00,0.0933
1075.00,0.0894
1074.00,0.0859
1073.00,0.0828
1072.00,0.0804
1071.00,0.0786
1070.00,0.0779
1069.00,0.0782
1068.00,0.0798
1067.00,0.0829
1066.00,0.0876
1065.00,0.0942
1064.00,0.1021
1063.00,0.1108
1062.00,0.1193
1061.00,0.1264
1060.00,0.1312
1059.00,0.1331
1058.00,0.1322
1057.00,0.1291
1056.00,0.1246
1055.00,0.1193
1054.00,0.1139
1053.00,0.1087
1052.00,0.1042
1051.00,0.1004
1050.00,0.0976
1049.00,0.0962
1048.00,0.0963
1047.00,0.0984
1046.00,0.1027
1045.00,0.1088
1044.00,0.1157
1043.00,0.1218
1042.00,0.1256
1041.00,0.1265
1040.00,0.1245
1039.00,0.1209
1038.00,0.1168
1037.00,0.1131
1036.00,0.1104
1035.00,0.1088
1034.00,0.1084
1033.00,0.1091
1032.00,0.1110
1031.00,0.1140
1030.00,0.1180
1029.00,0.1229
1028.00,0.1284
1027.00,0.1338
1026.00,0.1387
1025.00,0.1424
1024.00,0.1447
1023.00,0.1453
1022.00,0.1442
1021.00,0.1416
1020.00,0.1378
1019.00,0.1330
1018.00,0.1276
1017.00,0.1221
1016.00,0.1166
1015.00,0.1113
1014.00,0.1064
1013.00,0.1019
1012.00,0.0979
1011.00,0.0944
1010.00,0.0915
1009.00,0.0891
1008.00,0.0872
1007.00,0.0855
1006.00,0.0839
1005.00,0.0821
1004.00,0.0800
1003.00,0.0775
1002.00,0.0748
1001.00,0.0722
1000.00,0.0697
999.00,0.0675
998.00,0.0655
997.00,0.0639
996.00,0.0624
995.00,0.0611
994.00,0.0600
993.00,0.0590
992.00,0.0582
991.00,0.0574
990.00,0.0568
989.00,0.0564
988.00,0.0560
987.00,0.0559
986.00,0.0559
985.00,0.0561
984.00,0.0565
983.00,0.0570
982.00,0.0578
981.00,0.0587
980.00,0.0597
979.00,0.0607
978.00,0.0615
977.00,0.0622
976.00,0.0625
975.00,0.0623
974.00,0.0617
973.00,0.0605
972.00,0.0589
971.00,0.0569
970.00,0.0549
969.00,0.0528
968.00,0.0507
967.00,0.0489
966.00,0.0473
965.00,0.0460
964.00,0.0451
963.00,0.0447
962.00,0.0448
961.00,0.0451
960.00,0.0456
959.00,0.0462
958.00,0.0468
957.00,0.0473
956.00,0.0473
955.00,0.0468
954.00,0.0456
953.00,0.0440
952.00,0.0424
951.00,0.0408
950.00,0.0395
949.00,0.0384
948.00,0.0373
947.00,0.0363
946.00,0.0355
945.00,0.0348
944.00,0.0341
943.00,0.0335
942.00,0.0330
941.00,0.0326
940.00,0.0322
939.00,0.0318
938.00,0.0315
937.00,0.0312
936.00,0.0309
935.00,0.0306
934.00,0.0303
933.00,0.0300
932.00,0.0298
931.00,0.0296
930.00,0.0294
929.00,0.0292
928.00,0.0290
927.00,0.0288
926.00,0.0286
925.00,0.0284
924.00,0.0282
923.00,0.0280
922.00,0.0278
921.00,0.0276
920.00,0.0274
919.00,0.0272
918.00,0.0270
917.00,0.0269
916.00,0.0267
915.00,0.0265
914.00,0.0264
913.00,0.0263
912.00,0.0261
911.00,0.0260
910.00,0.0258
909.00,0.0257
908.00,0.0256
907.00,0.0255
906.00,0.0255
905.00,0.0254
904.00,0.0254
903.00,0.0254
902.00,0.0254
901.00,0.0256
900.00,0.0258
899.00,0.0258
898.00,0.0257
897.00,0.0254
896.00,0.0250
895.00,0.0246
894.00,0.0243
893.00,0.0240
892.00,0.0238
891.00,0.0236
890.00,0.0234
889.00,0.0233
888.00,0.0232
887.00,0.0231
886.00,0.0231
885.00,0.0231
884.00,0.0231
883.00,0.0233
882.00,0.0237
881.00,0.0241
880.00,0.0246
879.00,0.0248
878.00,0.0249
877.00,0.0248
876.00,0.0246
875.00,0.0244
874.00,0.0245
873.00,0.0248
872.00,0.0256
871.00,0.0271
870.00,0.0295
869.00,0.0335
868.00,0.0395
867.00,0.0478
866.00,0.0579
865.00,0.0682
864.00,0.0759
863.00,0.0791
862.00,0.0772
861.00,0.0723
860.00,0.0670
859.00,0.0635
858.00,0.0623
857.00,0.0622
856.00,0.0618
855.00,0.0597
854.00,0.0559
853.00,0.0509
852.00,0.0459
851.00,0.0414
850.00,0.0378
849.00,0.0350
848.00,0.0328
847.00,0.0311
846.00,0.0298
845.00,0.0288
844.00,0.0280
843.00,0.0274
842.00,0.0267
841.00,0.0262
840.00,0.0256
839.00,0.0251
838.00,0.0246
837.00,0.0241
836.00,0.0236
835.00,0.0232
834.00,0.0229
833.00,0.0228
832.00,0.0227
831.00,0.0228
830.00,0.0232
829.00,0.0240
828.00,0.0253
827.00,0.0273
826.00,0.0296
825.00,0.0319
824.00,0.0334
823.00,0.0336
822.00,0.0326
821.00,0.0310
820.00,0.0292
819.00,0.0279
818.00,0.0269
817.00,0.0262
816.00,0.0258
815.00,0.0256
814.00,0.0255
813.00,0.0257
812.00,0.0263
811.00,0.0274
810.00,0.0292
809.00,0.0320
808.00,0.0362
807.00,0.0428
806.00,0.0526
805.00,0.0667
804.00,0.0851
803.00,0.1053
802.00,0.1222
801.00,0.1302
800.00,0.1266
799.00,0.1140
798.00,0.0976
797.00,0.0818
796.00,0.0688
795.00,0.0589
794.00,0.0518
793.00,0.0470
792.00,0.0441
791.00,0.0425
790.00,0.0414
789.00,0.0400
788.00,0.0379
787.00,0.0353
786.00,0.0329
785.00,0.0310
784.00,0.0299
783.00,0.0294
782.00,0.0296
781.00,0.0305
780.00,0.0321
779.00,0.0342
778.00,0.0369
777.00,0.0405
776.00,0.0455
775.00,0.0525
774.00,0.0619
773.00,0.0731
772.00,0.0844
771.00,0.0930
770.00,0.0967
769.00,0.0945
768.00,0.0875
767.00,0.0778
766.00,0.0678
765.00,0.0589
764.00,0.0517
763.00,0.0462
762.00,0.0421
761.00,0.0391
760.00,0.0370
759.00,0.0355
758.00,0.0344
757.00,0.0336
756.00,0.0332
755.00,0.0330
754.00,0.0330
753.00,0.0333
752.00,0.0339
751.00,0.0349
750.00,0.0364
749.00,0.0387
748.00,0.0418
747.00,0.0461
746.00,0.0519
745.00,0.0593
744.00,0.0677
743.00,0.0750
742.00,0.0789
741.00,0.0780
740.00,0.0740
739.00,0.0714
738.00,0.0756
737.00,0.0889
736.00,0.1092
735.00,0.1294
734.00,0.1420
733.00,0.1437
732.00,0.1387
731.00,0.1344
730.00,0.1366
729.00,0.1467
728.00,0.1615
727.00,0.1747
726.00,0.1796
725.00,0.1729
724.00,0.1567
723.00,0.1363
722.00,0.1164
721.00,0.0993
720.00,0.0855
719.00,0.0749
718.00,0.0666
717.00,0.0602
716.00,0.0551
715.00,0.0509
714.00,0.0476
713.00,0.0449
712.00,0.0426
711.00,0.0406
710.00,0.0387
709.00,0.0371
708.00,0.0356
707.00,0.0343
706.00,0.0330
705.00,0.0319
704.00,0.0309
703.00,0.0300
702.00,0.0292
701.00,0.0286
700.00,0.0280
699.00,0.0275
698.00,0.0270
697.00,0.0267
696.00,0.0264
695.00,0.0261
694.00,0.0260
693.00,0.0259
692.00,0.0261
691.00,0.0266
690.00,0.0275
689.00,0.0289
688.00,0.0305
687.00,0.0318
686.00,0.0324
685.00,0.0323
684.00,0.0318
683.00,0.0312
682.00,0.0308
681.00,0.0307
680.00,0.0311
679.00,0.0319
678.00,0.0333
677.00,0.0355
676.00,0.0389
675.00,0.0438
674.00,0.0505
673.00,0.0592
672.00,0.0689
671.00,0.0780
670.00,0.0846
669.00,0.0865
668.00,0.0814
667.00,0.0719
666.00,0.0629
665.00,0.0557
664.00,0.0494
663.00,0.0440
662.00,0.0398
661.00,0.0367
660.00,0.0344
659.00,0.0328
658.00,0.0317
657.00,0.0309
656.00,0.0302
655.00,0.0296
654.00,0.0293
653.00,0.0291
652.00,0.0290
651.00,0.0289
650.00,0.0290
649.00,0.0291
648.00,0.0292
647.00,0.0295
646.00,0.0298
645.00,0.0301
644.00,0.0304
643.00,0.0307
642.00,0.0311
641.00,0.0317
640.00,0.0322
639.00,0.0329
638.00,0.0337
637.00,0.0345
636.00,0.0353
635.00,0.0362
634.00,0.0373
633.00,0.0385
632.00,0.0398
631.00,0.0412
630.00,0.0427
629.00,0.0445
628.00,0.0465
627.00,0.0487
626.00,0.0512
625.00,0.0539
624.00,0.0568
623.00,0.0599
622.00,0.0633
621.00,0.0668
620.00,0.0704
619.00,0.0740
618.00,0.0775
617.00,0.0807
616.00,0.0834
615.00,0.0852
614.00,0.0860
613.00,0.0854
612.00,0.0835
611.00,0.0801
610.00,0.0756
609.00,0.0702
608.00,0.0644
607.00,0.0585
606.00,0.0532
605.00,0.0484
604.00,0.0446
603.00,0.0418
602.00,0.0402
601.00,0.0397
600.00,0.0402
599.00,0.0415
598.00,0.0434
597.00,0.0460
596.00,0.0491
595.00,0.0526
594.00,0.0557
593.00,0.0574
592.00,0.0571
591.00,0.0550
590.00,0.0522
589.00,0.0494
588.00,0.0475
587.00,0.0466
586.00,0.0468
585.00,0.0477
584.00,0.0492
583.00,0.0510
582.00,0.0533
581.00,0.0559
580.00,0.0588
579.00,0.0620
578.00,0.0653
577.00,0.0690
576.00,0.0730
575.00,0.0770
574.00,0.0811
573.00,0.0849
572.00,0.0887
571.00,0.0925
570.00,0.0966
569.00,0.1006
568.00,0.1042
567.00,0.1073
566.00,0.1098
565.00,0.1118
564.00,0.1133
563.00,0.1140
562.00,0.1140
561.00,0.1132
560.00,0.1115
559.00,0.1090
558.00,0.1060
557.00,0.1027
556.00,0.0993
555.00,0.0957
554.00,0.0922
553.00,0.0886
552.00,0.0852
551.00,0.0819
550.00,0.0789
549.00,0.0762
548.00,0.0737
547.00,0.0714
546.00,0.0695
545.00,0.0682
544.00,0.0681
543.00,0.0695
542.00,0.0727
541.00,0.0768
540.00,0.0804
539.00,0.0818
538.00,0.0803
537.00,0.0763
536.00,0.0711
535.00,0.0658
534.00,0.0612
533.00,0.0574
532.00,0.0542
531.00,0.0515
530.00,0.0493
529.00,0.0474
528.00,0.0456
527.00,0.0440
526.00,0.0425
525.00,0.0413
524.00,0.0401
523.00,0.0391
522.00,0.0382
521.00,0.0373
520.00,0.0364
519.00,0.0355
518.00,0.0346
517.00,0.0339
516.00,0.0333
515.00,0.0327
514.00,0.0321
513.00,0.0315
512.00,0.0309
511.00,0.0303
510.00,0.0298
509.00,0.0294
508.00,0.0289
507.00,0.0285
506.00,0.0281
505.00,0.0278
504.00,0.0277
503.00,0.0278
502.00,0.0279
501.00,0.0278
500.00,0.0273
499.00,0.0266
498.00,0.0261
497.00,0.0258
496.00,0.0256
495.00,0.0255
494.00,0.0253
493.00,0.0251
492.00,0.0248
491.00,0.0245
490.00,0.0242
489.00,0.0240
488.00,0.0238
487.00,0.0237
486.00,0.0238
485.00,0.0238
484.00,0.0238
483.00,0.0239
482.00,0.0241
481.00,0.0243
480.00,0.0243
479.00,0.0242
478.00,0.0241
477.00,0.0241
476.00,0.0241
475.00,0.0246
474.00,0.0260
473.00,0.0284
472.00,0.0316
471.00,0.0351
470.00,0.0385
469.00,0.0409
468.00,0.0425
467.00,0.0434
466.00,0.0443
465.00,0.0459
464.00,0.0489
463.00,0.0535
462.00,0.0594
461.00,0.0651
460.00,0.0689
459.00,0.0694
458.00,0.0663
457.00,0.0605
456.00,0.0539
455.00,0.0478
454.00,0.0425
453.00,0.0379
452.00,0.0342
451.00,0.0313
450.00,0.0291
449.00,0.0274
448.00,0.0261
447.00,0.0251
446.00,0.0245
445.00,0.0238
444.00,0.0232
443.00,0.0228
442.00,0.0226
441.00,0.0223
440.00,0.0220
439.00,0.0218
438.00,0.0218
437.00,0.0218
436.00,0.0218
435.00,0.0216
434.00,0.0216
433.00,0.0217
432.00,0.0216
431.00,0.0217
430.00,0.0219
429.00,0.0223
428.00,0.0229
427.00,0.0238
426.00,0.0248
425.00,0.0259
424.00,0.0268
423.00,0.0279
422.00,0.0294
421.00,0.0313
420.00,0.0334
419.00,0.0356
418.00,0.0374
417.00,0.0383
416.00,0.0383
415.00,0.0378
414.00,0.0372
413.00,0.0364
412.00,0.0353
411.00,0.0338
410.00,0.0325
409.00,0.0316
408.00,0.0309
407.00,0.0303
406.00,0.0302
405.00,0.0305
404.00,0.0309
403.00,0.0315
402.00,0.0321
401.00,0.0332
400.00,0.0348
