Created as New Dataset,Sample 817 By YargerLab Date Friday, July 11 2025
cm-1,A
4000.00,0.0016
3999.00,0.0016
3998.00,0.0016
3997.00,0.0016
3996.00,0.0016
3995.00,0.0016
3994.00,0.0016
3993.00,0.0016
3992.00,0.0016
3991.00,0.0016
3990.00,0.0016
3989.00,0.0016
3988.00,0.0016
3987.00,0.0016
3986.00,0.0016
3985.00,0.0015
3984.00,0.0015
3983.00,0.0015
3982.00,0.0015
3981.00,0.0016
3980.00,0.0016
3979.00,0.0016
3978.00,0.0016
3977.00,0.0016
3976.00,0.0016
3975.00,0.0016
3974.00,0.0016
3973.00,0.0016
3972.00,0.0016
3971.00,0.0016
3970.00,0.0016
3969.00,0.0016
3968.00,0.0016
3967.00,0.0016
3966.00,0.0016
3965.00,0.0016
3964.00,0.0016
3963.00,0.0016
3962.00,0.0016
3961.00,0.0015
3960.00,0.0015
3959.00,0.0015
3958.00,0.0015
3957.00,0.0015
3956.00,0.0016
3955.00,0.0016
3954.00,0.0016
3953.00,0.0015
3952.00,0.0015
3951.00,0.0015
3950.00,0.0015
3949.00,0.0015
3948.00,0.0015
3947.00,0.0015
3946.00,0.0015
3945.00,0.0015
3944.00,0.0015
3943.00,0.0015
3942.00,0.0015
3941.00,0.0015
3940.00,0.0015
3939.00,0.0015
3938.00,0.0015
3937.00,0.0015
3936.00,0.0015
3935.00,0.0015
3934.00,0.0016
3933.00,0.0016
3932.00,0.0015
3931.00,0.0015
3930.00,0.0015
3929.00,0.0015
3928.00,0.0015
3927.00,0.0015
3926.00,0.0015
3925.00,0.0015
3924.00,0.0015
3923.00,0.0015
3922.00,0.0014
3921.00,0.0014
3920.00,0.0014
3919.00,0.0014
3918.00,0.0014
3917.00,0.0015
3916.00,0.0015
3915.00,0.0015
3914.00,0.0014
3913.00,0.0015
3912.00,0.0015
3911.00,0.0015
3910.00,0.0015
3909.00,0.0015
3908.00,0.0015
3907.00,0.0015
3906.00,0.0015
3905.00,0.0015
3904.00,0.0015
3903.00,0.0014
3902.00,0.0013
3901.00,0.0013
3900.00,0.0013
3899.00,0.0013
3898.00,0.0013
3897.00,0.0013
3896.00,0.0014
3895.00,0.0014
3894.00,0.0014
3893.00,0.0014
3892.00,0.0014
3891.00,0.0014
3890.00,0.0014
3889.00,0.0014
3888.00,0.0014
3887.00,0.0014
3886.00,0.0014
3885.00,0.0014
3884.00,0.0013
3883.00,0.0013
3882.00,0.0013
3881.00,0.0013
3880.00,0.0014
3879.00,0.0014
3878.00,0.0013
3877.00,0.0013
3876.00,0.0014
3875.00,0.0014
3874.00,0.0014
3873.00,0.0013
3872.00,0.0013
3871.00,0.0013
3870.00,0.0013
3869.00,0.0013
3868.00,0.0012
3867.00,0.0012
3866.00,0.0012
3865.00,0.0013
3864.00,0.0013
3863.00,0.0013
3862.00,0.0013
3861.00,0.0013
3860.00,0.0014
3859.00,0.0014
3858.00,0.0014
3857.00,0.0014
3856.00,0.0014
3855.00,0.0014
3854.00,0.0014
3853.00,0.0013
3852.00,0.0012
3851.00,0.0012
3850.00,0.0012
3849.00,0.0013
3848.00,0.0013
3847.00,0.0014
3846.00,0.0015
3845.00,0.0015
3844.00,0.0015
3843.00,0.0015
3842.00,0.0014
3841.00,0.0014
3840.00,0.0014
3839.00,0.0013
3838.00,0.0013
3837.00,0.0013
3836.00,0.0013
3835.00,0.0013
3834.00,0.0013
3833.00,0.0014
3832.00,0.0014
3831.00,0.0014
3830.00,0.0014
3829.00,0.0014
3828.00,0.0014
3827.00,0.0014
3826.00,0.0015
3825.00,0.0015
3824.00,0.0014
3823.00,0.0014
3822.00,0.0014
3821.00,0.0014
3820.00,0.0014
3819.00,0.0013
3818.00,0.0012
3817.00,0.0013
3816.00,0.0013
3815.00,0.0013
3814.00,0.0013
3813.00,0.0013
3812.00,0.0014
3811.00,0.0014
3810.00,0.0014
3809.00,0.0015
3808.00,0.0015
3807.00,0.0015
3806.00,0.0014
3805.00,0.0014
3804.00,0.0013
3803.00,0.0013
3802.00,0.0013
3801.00,0.0013
3800.00,0.0013
3799.00,0.0013
3798.00,0.0013
3797.00,0.0013
3796.00,0.0014
3795.00,0.0014
3794.00,0.0014
3793.00,0.0014
3792.00,0.0014
3791.00,0.0014
3790.00,0.0014
3789.00,0.0014
3788.00,0.0014
3787.00,0.0014
3786.00,0.0014
3785.00,0.0015
3784.00,0.0015
3783.00,0.0015
3782.00,0.0015
3781.00,0.0015
3780.00,0.0015
3779.00,0.0015
3778.00,0.0015
3777.00,0.0015
3776.00,0.0015
3775.00,0.0015
3774.00,0.0015
3773.00,0.0015
3772.00,0.0015
3771.00,0.0015
3770.00,0.0014
3769.00,0.0014
3768.00,0.0014
3767.00,0.0014
3766.00,0.0014
3765.00,0.0014
3764.00,0.0015
3763.00,0.0015
3762.00,0.0015
3761.00,0.0015
3760.00,0.0015
3759.00,0.0014
3758.00,0.0014
3757.00,0.0014
3756.00,0.0014
3755.00,0.0014
3754.00,0.0014
3753.00,0.0014
3752.00,0.0014
3751.00,0.0015
3750.00,0.0014
3749.00,0.0014
3748.00,0.0013
3747.00,0.0013
3746.00,0.0013
3745.00,0.0013
3744.00,0.0013
3743.00,0.0012
3742.00,0.0012
3741.00,0.0012
3740.00,0.0012
3739.00,0.0013
3738.00,0.0013
3737.00,0.0014
3736.00,0.0013
3735.00,0.0013
3734.00,0.0012
3733.00,0.0012
3732.00,0.0012
3731.00,0.0013
3730.00,0.0013
3729.00,0.0013
3728.00,0.0014
3727.00,0.0014
3726.00,0.0014
3725.00,0.0014
3724.00,0.0013
3723.00,0.0014
3722.00,0.0014
3721.00,0.0014
3720.00,0.0015
3719.00,0.0015
3718.00,0.0015
3717.00,0.0015
3716.00,0.0015
3715.00,0.0015
3714.00,0.0015
3713.00,0.0014
3712.00,0.0014
3711.00,0.0014
3710.00,0.0013
3709.00,0.0014
3708.00,0.0014
3707.00,0.0015
3706.00,0.0015
3705.00,0.0015
3704.00,0.0015
3703.00,0.0016
3702.00,0.0016
3701.00,0.0016
3700.00,0.0016
3699.00,0.0016
3698.00,0.0016
3697.00,0.0016
3696.00,0.0016
3695.00,0.0016
3694.00,0.0016
3693.00,0.0016
3692.00,0.0017
3691.00,0.0017
3690.00,0.0018
3689.00,0.0019
3688.00,0.0019
3687.00,0.0019
3686.00,0.0020
3685.00,0.0021
3684.00,0.0021
3683.00,0.0022
3682.00,0.0022
3681.00,0.0023
3680.00,0.0023
3679.00,0.0023
3678.00,0.0022
3677.00,0.0023
3676.00,0.0023
3675.00,0.0024
3674.00,0.0024
3673.00,0.0024
3672.00,0.0025
3671.00,0.0026
3670.00,0.0027
3669.00,0.0027
3668.00,0.0027
3667.00,0.0028
3666.00,0.0028
3665.00,0.0029
3664.00,0.0031
3663.00,0.0032
3662.00,0.0032
3661.00,0.0033
3660.00,0.0033
3659.00,0.0033
3658.00,0.0034
3657.00,0.0034
3656.00,0.0035
3655.00,0.0036
3654.00,0.0036
3653.00,0.0035
3652.00,0.0035
3651.00,0.0036
3650.00,0.0037
3649.00,0.0038
3648.00,0.0040
3647.00,0.0042
3646.00,0.0043
3645.00,0.0044
3644.00,0.0045
3643.00,0.0046
3642.00,0.0047
3641.00,0.0048
3640.00,0.0048
3639.00,0.0049
3638.00,0.0050
3637.00,0.0051
3636.00,0.0052
3635.00,0.0054
3634.00,0.0055
3633.00,0.0055
3632.00,0.0055
3631.00,0.0056
3630.00,0.0057
3629.00,0.0060
3628.00,0.0062
3627.00,0.0063
3626.00,0.0063
3625.00,0.0064
3624.00,0.0065
3623.00,0.0066
3622.00,0.0067
3621.00,0.0068
3620.00,0.0071
3619.00,0.0073
3618.00,0.0075
3617.00,0.0076
3616.00,0.0077
3615.00,0.0078
3614.00,0.0080
3613.00,0.0082
3612.00,0.0083
3611.00,0.0084
3610.00,0.0086
3609.00,0.0087
3608.00,0.0089
3607.00,0.0091
3606.00,0.0092
3605.00,0.0093
3604.00,0.0094
3603.00,0.0095
3602.00,0.0097
3601.00,0.0098
3600.00,0.0100
3599.00,0.0101
3598.00,0.0102
3597.00,0.0103
3596.00,0.0105
3595.00,0.0107
3594.00,0.0109
3593.00,0.0110
3592.00,0.0111
3591.00,0.0111
3590.00,0.0113
3589.00,0.0115
3588.00,0.0118
3587.00,0.0122
3586.00,0.0124
3585.00,0.0126
3584.00,0.0127
3583.00,0.0128
3582.00,0.0129
3581.00,0.0131
3580.00,0.0133
3579.00,0.0135
3578.00,0.0137
3577.00,0.0139
3576.00,0.0141
3575.00,0.0143
3574.00,0.0145
3573.00,0.0146
3572.00,0.0147
3571.00,0.0148
3570.00,0.0149
3569.00,0.0151
3568.00,0.0155
3567.00,0.0159
3566.00,0.0163
3565.00,0.0166
3564.00,0.0168
3563.00,0.0169
3562.00,0.0171
3561.00,0.0173
3560.00,0.0175
3559.00,0.0177
3558.00,0.0179
3557.00,0.0181
3556.00,0.0183
3555.00,0.0184
3554.00,0.0187
3553.00,0.0190
3552.00,0.0193
3551.00,0.0195
3550.00,0.0196
3549.00,0.0198
3548.00,0.0200
3547.00,0.0203
3546.00,0.0207
3545.00,0.0210
3544.00,0.0213
3543.00,0.0215
3542.00,0.0217
3541.00,0.0219
3540.00,0.0220
3539.00,0.0222
3538.00,0.0225
3537.00,0.0228
3536.00,0.0231
3535.00,0.0233
3534.00,0.0235
3533.00,0.0237
3532.00,0.0239
3531.00,0.0242
3530.00,0.0245
3529.00,0.0249
3528.00,0.0253
3527.00,0.0257
3526.00,0.0260
3525.00,0.0264
3524.00,0.0267
3523.00,0.0270
3522.00,0.0273
3521.00,0.0275
3520.00,0.0277
3519.00,0.0279
3518.00,0.0281
3517.00,0.0282
3516.00,0.0283
3515.00,0.0284
3514.00,0.0284
3513.00,0.0285
3512.00,0.0286
3511.00,0.0287
3510.00,0.0289
3509.00,0.0291
3508.00,0.0292
3507.00,0.0293
3506.00,0.0294
3505.00,0.0295
3504.00,0.0297
3503.00,0.0299
3502.00,0.0302
3501.00,0.0303
3500.00,0.0305
3499.00,0.0306
3498.00,0.0307
3497.00,0.0309
3496.00,0.0311
3495.00,0.0313
3494.00,0.0315
3493.00,0.0317
3492.00,0.0318
3491.00,0.0320
3490.00,0.0322
3489.00,0.0324
3488.00,0.0326
3487.00,0.0328
3486.00,0.0330
3485.00,0.0332
3484.00,0.0333
3483.00,0.0335
3482.00,0.0338
3481.00,0.0340
3480.00,0.0343
3479.00,0.0344
3478.00,0.0346
3477.00,0.0348
3476.00,0.0349
3475.00,0.0352
3474.00,0.0354
3473.00,0.0356
3472.00,0.0358
3471.00,0.0360
3470.00,0.0362
3469.00,0.0364
3468.00,0.0366
3467.00,0.0368
3466.00,0.0369
3465.00,0.0371
3464.00,0.0373
3463.00,0.0375
3462.00,0.0377
3461.00,0.0380
3460.00,0.0382
3459.00,0.0384
3458.00,0.0385
3457.00,0.0387
3456.00,0.0389
3455.00,0.0391
3454.00,0.0392
3453.00,0.0394
3452.00,0.0395
3451.00,0.0397
3450.00,0.0398
3449.00,0.0400
3448.00,0.0402
3447.00,0.0404
3446.00,0.0406
3445.00,0.0408
3444.00,0.0409
3443.00,0.0410
3442.00,0.0412
3441.00,0.0413
3440.00,0.0415
3439.00,0.0416
3438.00,0.0418
3437.00,0.0419
3436.00,0.0420
3435.00,0.0421
3434.00,0.0422
3433.00,0.0423
3432.00,0.0425
3431.00,0.0426
3430.00,0.0428
3429.00,0.0429
3428.00,0.0430
3427.00,0.0432
3426.00,0.0432
3425.00,0.0433
3424.00,0.0434
3423.00,0.0435
3422.00,0.0436
3421.00,0.0437
3420.00,0.0439
3419.00,0.0440
3418.00,0.0441
3417.00,0.0442
3416.00,0.0443
3415.00,0.0444
3414.00,0.0444
3413.00,0.0445
3412.00,0.0446
3411.00,0.0447
3410.00,0.0448
3409.00,0.0449
3408.00,0.0449
3407.00,0.0449
3406.00,0.0449
3405.00,0.0449
3404.00,0.0450
3403.00,0.0450
3402.00,0.0450
3401.00,0.0450
3400.00,0.0449
3399.00,0.0449
3398.00,0.0448
3397.00,0.0447
3396.00,0.0447
3395.00,0.0446
3394.00,0.0446
3393.00,0.0446
3392.00,0.0446
3391.00,0.0445
3390.00,0.0445
3389.00,0.0444
3388.00,0.0443
3387.00,0.0443
3386.00,0.0442
3385.00,0.0442
3384.00,0.0441
3383.00,0.0441
3382.00,0.0440
3381.00,0.0440
3380.00,0.0439
3379.00,0.0439
3378.00,0.0438
3377.00,0.0438
3376.00,0.0437
3375.00,0.0436
3374.00,0.0436
3373.00,0.0435
3372.00,0.0435
3371.00,0.0434
3370.00,0.0433
3369.00,0.0432
3368.00,0.0431
3367.00,0.0431
3366.00,0.0431
3365.00,0.0430
3364.00,0.0430
3363.00,0.0429
3362.00,0.0428
3361.00,0.0428
3360.00,0.0427
3359.00,0.0427
3358.00,0.0426
3357.00,0.0426
3356.00,0.0426
3355.00,0.0425
3354.00,0.0424
3353.00,0.0422
3352.00,0.0421
3351.00,0.0420
3350.00,0.0419
3349.00,0.0419
3348.00,0.0419
3347.00,0.0419
3346.00,0.0418
3345.00,0.0417
3344.00,0.0416
3343.00,0.0415
3342.00,0.0414
3341.00,0.0413
3340.00,0.0412
3339.00,0.0411
3338.00,0.0410
3337.00,0.0410
3336.00,0.0410
3335.00,0.0410
3334.00,0.0410
3333.00,0.0410
3332.00,0.0409
3331.00,0.0408
3330.00,0.0407
3329.00,0.0406
3328.00,0.0405
3327.00,0.0403
3326.00,0.0402
3325.00,0.0402
3324.00,0.0402
3323.00,0.0402
3322.00,0.0402
3321.00,0.0401
3320.00,0.0401
3319.00,0.0400
3318.00,0.0400
3317.00,0.0399
3316.00,0.0398
3315.00,0.0398
3314.00,0.0397
3313.00,0.0395
3312.00,0.0394
3311.00,0.0392
3310.00,0.0391
3309.00,0.0389
3308.00,0.0388
3307.00,0.0387
3306.00,0.0387
3305.00,0.0388
3304.00,0.0389
3303.00,0.0390
3302.00,0.0390
3301.00,0.0390
3300.00,0.0390
3299.00,0.0388
3298.00,0.0387
3297.00,0.0386
3296.00,0.0384
3295.00,0.0383
3294.00,0.0383
3293.00,0.0382
3292.00,0.0383
3291.00,0.0383
3290.00,0.0384
3289.00,0.0385
3288.00,0.0384
3287.00,0.0384
3286.00,0.0383
3285.00,0.0383
3284.00,0.0382
3283.00,0.0382
3282.00,0.0381
3281.00,0.0380
3280.00,0.0379
3279.00,0.0378
3278.00,0.0376
3277.00,0.0375
3276.00,0.0373
3275.00,0.0372
3274.00,0.0370
3273.00,0.0369
3272.00,0.0368
3271.00,0.0367
3270.00,0.0367
3269.00,0.0368
3268.00,0.0368
3267.00,0.0368
3266.00,0.0367
3265.00,0.0366
3264.00,0.0365
3263.00,0.0364
3262.00,0.0363
3261.00,0.0362
3260.00,0.0360
3259.00,0.0359
3258.00,0.0357
3257.00,0.0356
3256.00,0.0355
3255.00,0.0354
3254.00,0.0353
3253.00,0.0353
3252.00,0.0352
3251.00,0.0350
3250.00,0.0348
3249.00,0.0347
3248.00,0.0345
3247.00,0.0344
3246.00,0.0343
3245.00,0.0343
3244.00,0.0342
3243.00,0.0341
3242.00,0.0340
3241.00,0.0339
3240.00,0.0337
3239.00,0.0336
3238.00,0.0334
3237.00,0.0333
3236.00,0.0331
3235.00,0.0329
3234.00,0.0327
3233.00,0.0326
3232.00,0.0325
3231.00,0.0324
3230.00,0.0323
3229.00,0.0322
3228.00,0.0321
3227.00,0.0320
3226.00,0.0319
3225.00,0.0317
3224.00,0.0316
3223.00,0.0314
3222.00,0.0313
3221.00,0.0312
3220.00,0.0310
3219.00,0.0309
3218.00,0.0308
3217.00,0.0307
3216.00,0.0305
3215.00,0.0304
3214.00,0.0302
3213.00,0.0301
3212.00,0.0299
3211.00,0.0298
3210.00,0.0297
3209.00,0.0296
3208.00,0.0295
3207.00,0.0293
3206.00,0.0292
3205.00,0.0290
3204.00,0.0289
3203.00,0.0288
3202.00,0.0286
3201.00,0.0285
3200.00,0.0284
3199.00,0.0283
3198.00,0.0282
3197.00,0.0280
3196.00,0.0279
3195.00,0.0278
3194.00,0.0276
3193.00,0.0275
3192.00,0.0273
3191.00,0.0272
3190.00,0.0271
3189.00,0.0269
3188.00,0.0268
3187.00,0.0267
3186.00,0.0265
3185.00,0.0264
3184.00,0.0263
3183.00,0.0261
3182.00,0.0260
3181.00,0.0258
3180.00,0.0257
3179.00,0.0256
3178.00,0.0255
3177.00,0.0254
3176.00,0.0253
3175.00,0.0252
3174.00,0.0251
3173.00,0.0249
3172.00,0.0248
3171.00,0.0247
3170.00,0.0245
3169.00,0.0244
3168.00,0.0243
3167.00,0.0242
3166.00,0.0240
3165.00,0.0239
3164.00,0.0238
3163.00,0.0237
3162.00,0.0235
3161.00,0.0234
3160.00,0.0233
3159.00,0.0232
3158.00,0.0231
3157.00,0.0229
3156.00,0.0228
3155.00,0.0226
3154.00,0.0225
3153.00,0.0223
3152.00,0.0222
3151.00,0.0221
3150.00,0.0220
3149.00,0.0220
3148.00,0.0219
3147.00,0.0217
3146.00,0.0216
3145.00,0.0215
3144.00,0.0214
3143.00,0.0212
3142.00,0.0211
3141.00,0.0210
3140.00,0.0209
3139.00,0.0208
3138.00,0.0207
3137.00,0.0206
3136.00,0.0205
3135.00,0.0204
3134.00,0.0203
3133.00,0.0203
3132.00,0.0202
3131.00,0.0200
3130.00,0.0199
3129.00,0.0198
3128.00,0.0198
3127.00,0.0197
3126.00,0.0195
3125.00,0.0194
3124.00,0.0193
3123.00,0.0192
3122.00,0.0191
3121.00,0.0190
3120.00,0.0189
3119.00,0.0188
3118.00,0.0187
3117.00,0.0186
3116.00,0.0186
3115.00,0.0185
3114.00,0.0184
3113.00,0.0184
3112.00,0.0183
3111.00,0.0182
3110.00,0.0181
3109.00,0.0179
3108.00,0.0178
3107.00,0.0178
3106.00,0.0177
3105.00,0.0177
3104.00,0.0176
3103.00,0.0176
3102.00,0.0175
3101.00,0.0174
3100.00,0.0174
3099.00,0.0173
3098.00,0.0172
3097.00,0.0172
3096.00,0.0171
3095.00,0.0171
3094.00,0.0171
3093.00,0.0170
3092.00,0.0169
3091.00,0.0169
3090.00,0.0168
3089.00,0.0168
3088.00,0.0167
3087.00,0.0167
3086.00,0.0166
3085.00,0.0166
3084.00,0.0166
3083.00,0.0166
3082.00,0.0165
3081.00,0.0165
3080.00,0.0165
3079.00,0.0165
3078.00,0.0165
3077.00,0.0165
3076.00,0.0165
3075.00,0.0165
3074.00,0.0165
3073.00,0.0164
3072.00,0.0163
3071.00,0.0162
3070.00,0.0161
3069.00,0.0160
3068.00,0.0159
3067.00,0.0158
3066.00,0.0156
3065.00,0.0155
3064.00,0.0154
3063.00,0.0153
3062.00,0.0152
3061.00,0.0151
3060.00,0.0151
3059.00,0.0150
3058.00,0.0150
3057.00,0.0149
3056.00,0.0149
3055.00,0.0148
3054.00,0.0148
3053.00,0.0148
3052.00,0.0147
3051.00,0.0147
3050.00,0.0147
3049.00,0.0147
3048.00,0.0147
3047.00,0.0148
3046.00,0.0148
3045.00,0.0147
3044.00,0.0147
3043.00,0.0147
3042.00,0.0147
3041.00,0.0147
3040.00,0.0147
3039.00,0.0148
3038.00,0.0148
3037.00,0.0148
3036.00,0.0148
3035.00,0.0148
3034.00,0.0148
3033.00,0.0148
3032.00,0.0148
3031.00,0.0148
3030.00,0.0148
3029.00,0.0147
3028.00,0.0147
3027.00,0.0147
3026.00,0.0146
3025.00,0.0146
3024.00,0.0146
3023.00,0.0146
3022.00,0.0146
3021.00,0.0146
3020.00,0.0146
3019.00,0.0146
3018.00,0.0147
3017.00,0.0148
3016.00,0.0149
3015.00,0.0150
3014.00,0.0151
3013.00,0.0152
3012.00,0.0154
3011.00,0.0156
3010.00,0.0158
3009.00,0.0161
3008.00,0.0164
3007.00,0.0167
3006.00,0.0171
3005.00,0.0174
3004.00,0.0178
3003.00,0.0182
3002.00,0.0187
3001.00,0.0192
3000.00,0.0197
2999.00,0.0202
2998.00,0.0208
2997.00,0.0214
2996.00,0.0221
2995.00,0.0228
2994.00,0.0235
2993.00,0.0243
2992.00,0.0252
2991.00,0.0260
2990.00,0.0269
2989.00,0.0278
2988.00,0.0287
2987.00,0.0297
2986.00,0.0306
2985.00,0.0315
2984.00,0.0324
2983.00,0.0333
2982.00,0.0342
2981.00,0.0352
2980.00,0.0362
2979.00,0.0372
2978.00,0.0383
2977.00,0.0393
2976.00,0.0403
2975.00,0.0413
2974.00,0.0423
2973.00,0.0433
2972.00,0.0443
2971.00,0.0453
2970.00,0.0462
2969.00,0.0472
2968.00,0.0481
2967.00,0.0490
2966.00,0.0498
2965.00,0.0506
2964.00,0.0513
2963.00,0.0520
2962.00,0.0526
2961.00,0.0532
2960.00,0.0537
2959.00,0.0541
2958.00,0.0544
2957.00,0.0546
2956.00,0.0546
2955.00,0.0545
2954.00,0.0543
2953.00,0.0540
2952.00,0.0537
2951.00,0.0532
2950.00,0.0528
2949.00,0.0525
2948.00,0.0524
2947.00,0.0524
2946.00,0.0527
2945.00,0.0531
2944.00,0.0538
2943.00,0.0546
2942.00,0.0555
2941.00,0.0567
2940.00,0.0579
2939.00,0.0593
2938.00,0.0607
2937.00,0.0622
2936.00,0.0637
2935.00,0.0651
2934.00,0.0666
2933.00,0.0678
2932.00,0.0690
2931.00,0.0699
2930.00,0.0707
2929.00,0.0712
2928.00,0.0715
2927.00,0.0715
2926.00,0.0713
2925.00,0.0709
2924.00,0.0703
2923.00,0.0694
2922.00,0.0685
2921.00,0.0674
2920.00,0.0662
2919.00,0.0650
2918.00,0.0638
2917.00,0.0625
2916.00,0.0612
2915.00,0.0599
2914.00,0.0587
2913.00,0.0574
2912.00,0.0562
2911.00,0.0549
2910.00,0.0537
2909.00,0.0526
2908.00,0.0515
2907.00,0.0505
2906.00,0.0496
2905.00,0.0487
2904.00,0.0480
2903.00,0.0473
2902.00,0.0468
2901.00,0.0463
2900.00,0.0459
2899.00,0.0455
2898.00,0.0452
2897.00,0.0448
2896.00,0.0446
2895.00,0.0443
2894.00,0.0441
2893.00,0.0439
2892.00,0.0438
2891.00,0.0436
2890.00,0.0433
2889.00,0.0431
2888.00,0.0429
2887.00,0.0426
2886.00,0.0424
2885.00,0.0422
2884.00,0.0420
2883.00,0.0419
2882.00,0.0419
2881.00,0.0420
2880.00,0.0422
2879.00,0.0424
2878.00,0.0427
2877.00,0.0431
2876.00,0.0435
2875.00,0.0440
2874.00,0.0445
2873.00,0.0449
2872.00,0.0452
2871.00,0.0454
2870.00,0.0454
2869.00,0.0452
2868.00,0.0449
2867.00,0.0446
2866.00,0.0444
2865.00,0.0444
2864.00,0.0445
2863.00,0.0447
2862.00,0.0451
2861.00,0.0455
2860.00,0.0460
2859.00,0.0464
2858.00,0.0466
2857.00,0.0465
2856.00,0.0461
2855.00,0.0455
2854.00,0.0445
2853.00,0.0434
2852.00,0.0420
2851.00,0.0406
2850.00,0.0391
2849.00,0.0376
2848.00,0.0361
2847.00,0.0347
2846.00,0.0333
2845.00,0.0320
2844.00,0.0307
2843.00,0.0294
2842.00,0.0282
2841.00,0.0270
2840.00,0.0260
2839.00,0.0250
2838.00,0.0242
2837.00,0.0235
2836.00,0.0229
2835.00,0.0223
2834.00,0.0218
2833.00,0.0213
2832.00,0.0208
2831.00,0.0203
2830.00,0.0198
2829.00,0.0193
2828.00,0.0187
2827.00,0.0181
2826.00,0.0175
2825.00,0.0169
2824.00,0.0163
2823.00,0.0158
2822.00,0.0154
2821.00,0.0150
2820.00,0.0146
2819.00,0.0143
2818.00,0.0141
2817.00,0.0138
2816.00,0.0136
2815.00,0.0134
2814.00,0.0131
2813.00,0.0130
2812.00,0.0128
2811.00,0.0127
2810.00,0.0125
2809.00,0.0124
2808.00,0.0123
2807.00,0.0121
2806.00,0.0119
2805.00,0.0118
2804.00,0.0117
2803.00,0.0116
2802.00,0.0114
2801.00,0.0113
2800.00,0.0112
2799.00,0.0111
2798.00,0.0110
2797.00,0.0110
2796.00,0.0109
2795.00,0.0108
2794.00,0.0107
2793.00,0.0107
2792.00,0.0106
2791.00,0.0106
2790.00,0.0105
2789.00,0.0104
2788.00,0.0104
2787.00,0.0103
2786.00,0.0103
2785.00,0.0102
2784.00,0.0102
2783.00,0.0102
2782.00,0.0101
2781.00,0.0101
2780.00,0.0100
2779.00,0.0100
2778.00,0.0099
2777.00,0.0099
2776.00,0.0098
2775.00,0.0098
2774.00,0.0097
2773.00,0.0097
2772.00,0.0097
2771.00,0.0097
2770.00,0.0096
2769.00,0.0096
2768.00,0.0096
2767.00,0.0096
2766.00,0.0096
2765.00,0.0096
2764.00,0.0096
2763.00,0.0096
2762.00,0.0096
2761.00,0.0096
2760.00,0.0096
2759.00,0.0095
2758.00,0.0095
2757.00,0.0095
2756.00,0.0095
2755.00,0.0095
2754.00,0.0096
2753.00,0.0096
2752.00,0.0096
2751.00,0.0096
2750.00,0.0095
2749.00,0.0095
2748.00,0.0096
2747.00,0.0096
2746.00,0.0096
2745.00,0.0097
2744.00,0.0097
2743.00,0.0098
2742.00,0.0098
2741.00,0.0099
2740.00,0.0099
2739.00,0.0099
2738.00,0.0099
2737.00,0.0099
2736.00,0.0099
2735.00,0.0100
2734.00,0.0100
2733.00,0.0101
2732.00,0.0101
2731.00,0.0102
2730.00,0.0102
2729.00,0.0102
2728.00,0.0102
2727.00,0.0102
2726.00,0.0102
2725.00,0.0102
2724.00,0.0101
2723.00,0.0101
2722.00,0.0101
2721.00,0.0100
2720.00,0.0100
2719.00,0.0100
2718.00,0.0100
2717.00,0.0099
2716.00,0.0099
2715.00,0.0098
2714.00,0.0098
2713.00,0.0097
2712.00,0.0097
2711.00,0.0097
2710.00,0.0096
2709.00,0.0096
2708.00,0.0096
2707.00,0.0096
2706.00,0.0095
2705.00,0.0095
2704.00,0.0095
2703.00,0.0095
2702.00,0.0094
2701.00,0.0094
2700.00,0.0094
2699.00,0.0094
2698.00,0.0094
2697.00,0.0094
2696.00,0.0094
2695.00,0.0094
2694.00,0.0093
2693.00,0.0093
2692.00,0.0093
2691.00,0.0093
2690.00,0.0093
2689.00,0.0093
2688.00,0.0093
2687.00,0.0093
2686.00,0.0093
2685.00,0.0093
2684.00,0.0092
2683.00,0.0092
2682.00,0.0092
2681.00,0.0092
2680.00,0.0092
2679.00,0.0092
2678.00,0.0092
2677.00,0.0092
2676.00,0.0092
2675.00,0.0092
2674.00,0.0092
2673.00,0.0092
2672.00,0.0092
2671.00,0.0092
2670.00,0.0092
2669.00,0.0092
2668.00,0.0093
2667.00,0.0093
2666.00,0.0093
2665.00,0.0094
2664.00,0.0094
2663.00,0.0094
2662.00,0.0095
2661.00,0.0095
2660.00,0.0095
2659.00,0.0095
2658.00,0.0095
2657.00,0.0095
2656.00,0.0095
2655.00,0.0094
2654.00,0.0094
2653.00,0.0094
2652.00,0.0094
2651.00,0.0093
2650.00,0.0093
2649.00,0.0092
2648.00,0.0092
2647.00,0.0092
2646.00,0.0092
2645.00,0.0091
2644.00,0.0091
2643.00,0.0091
2642.00,0.0090
2641.00,0.0090
2640.00,0.0090
2639.00,0.0089
2638.00,0.0089
2637.00,0.0089
2636.00,0.0089
2635.00,0.0089
2634.00,0.0089
2633.00,0.0088
2632.00,0.0088
2631.00,0.0088
2630.00,0.0087
2629.00,0.0087
2628.00,0.0087
2627.00,0.0086
2626.00,0.0086
2625.00,0.0085
2624.00,0.0085
2623.00,0.0085
2622.00,0.0085
2621.00,0.0085
2620.00,0.0084
2619.00,0.0084
2618.00,0.0084
2617.00,0.0083
2616.00,0.0083
2615.00,0.0083
2614.00,0.0083
2613.00,0.0083
2612.00,0.0083
2611.00,0.0082
2610.00,0.0082
2609.00,0.0082
2608.00,0.0082
2607.00,0.0082
2606.00,0.0082
2605.00,0.0082
2604.00,0.0082
2603.00,0.0082
2602.00,0.0082
2601.00,0.0082
2600.00,0.0082
2599.00,0.0082
2598.00,0.0081
2597.00,0.0081
2596.00,0.0081
2595.00,0.0081
2594.00,0.0081
2593.00,0.0081
2592.00,0.0081
2591.00,0.0081
2590.00,0.0081
2589.00,0.0081
2588.00,0.0081
2587.00,0.0081
2586.00,0.0081
2585.00,0.0081
2584.00,0.0081
2583.00,0.0081
2582.00,0.0081
2581.00,0.0081
2580.00,0.0081
2579.00,0.0081
2578.00,0.0080
2577.00,0.0080
2576.00,0.0080
2575.00,0.0080
2574.00,0.0080
2573.00,0.0079
2572.00,0.0079
2571.00,0.0079
2570.00,0.0079
2569.00,0.0079
2568.00,0.0079
2567.00,0.0079
2566.00,0.0078
2565.00,0.0078
2564.00,0.0078
2563.00,0.0078
2562.00,0.0078
2561.00,0.0078
2560.00,0.0078
2559.00,0.0078
2558.00,0.0078
2557.00,0.0078
2556.00,0.0078
2555.00,0.0077
2554.00,0.0077
2553.00,0.0077
2552.00,0.0077
2551.00,0.0077
2550.00,0.0077
2549.00,0.0077
2548.00,0.0077
2547.00,0.0077
2546.00,0.0076
2545.00,0.0076
2544.00,0.0076
2543.00,0.0076
2542.00,0.0076
2541.00,0.0077
2540.00,0.0077
2539.00,0.0077
2538.00,0.0077
2537.00,0.0077
2536.00,0.0076
2535.00,0.0076
2534.00,0.0076
2533.00,0.0076
2532.00,0.0076
2531.00,0.0076
2530.00,0.0076
2529.00,0.0076
2528.00,0.0076
2527.00,0.0075
2526.00,0.0075
2525.00,0.0075
2524.00,0.0075
2523.00,0.0074
2522.00,0.0074
2521.00,0.0074
2520.00,0.0074
2519.00,0.0073
2518.00,0.0073
2517.00,0.0073
2516.00,0.0073
2515.00,0.0073
2514.00,0.0072
2513.00,0.0072
2512.00,0.0072
2511.00,0.0072
2510.00,0.0072
2509.00,0.0072
2508.00,0.0072
2507.00,0.0072
2506.00,0.0072
2505.00,0.0071
2504.00,0.0071
2503.00,0.0071
2502.00,0.0070
2501.00,0.0070
2500.00,0.0070
2499.00,0.0070
2498.00,0.0070
2497.00,0.0070
2496.00,0.0070
2495.00,0.0070
2494.00,0.0070
2493.00,0.0069
2492.00,0.0069
2491.00,0.0068
2490.00,0.0068
2489.00,0.0068
2488.00,0.0068
2487.00,0.0068
2486.00,0.0068
2485.00,0.0067
2484.00,0.0067
2483.00,0.0067
2482.00,0.0066
2481.00,0.0066
2480.00,0.0065
2479.00,0.0065
2478.00,0.0065
2477.00,0.0065
2476.00,0.0065
2475.00,0.0065
2474.00,0.0065
2473.00,0.0065
2472.00,0.0065
2471.00,0.0065
2470.00,0.0064
2469.00,0.0064
2468.00,0.0064
2467.00,0.0064
2466.00,0.0063
2465.00,0.0063
2464.00,0.0063
2463.00,0.0063
2462.00,0.0063
2461.00,0.0064
2460.00,0.0064
2459.00,0.0064
2458.00,0.0064
2457.00,0.0064
2456.00,0.0064
2455.00,0.0064
2454.00,0.0063
2453.00,0.0063
2452.00,0.0063
2451.00,0.0062
2450.00,0.0062
2449.00,0.0062
2448.00,0.0062
2447.00,0.0062
2446.00,0.0061
2445.00,0.0061
2444.00,0.0061
2443.00,0.0060
2442.00,0.0060
2441.00,0.0060
2440.00,0.0059
2439.00,0.0059
2438.00,0.0059
2437.00,0.0059
2436.00,0.0059
2435.00,0.0059
2434.00,0.0058
2433.00,0.0058
2432.00,0.0058
2431.00,0.0058
2430.00,0.0058
2429.00,0.0058
2428.00,0.0058
2427.00,0.0057
2426.00,0.0057
2425.00,0.0057
2424.00,0.0057
2423.00,0.0057
2422.00,0.0057
2421.00,0.0057
2420.00,0.0057
2419.00,0.0056
2418.00,0.0056
2417.00,0.0056
2416.00,0.0056
2415.00,0.0056
2414.00,0.0056
2413.00,0.0057
2412.00,0.0057
2411.00,0.0057
2410.00,0.0057
2409.00,0.0056
2408.00,0.0055
2407.00,0.0055
2406.00,0.0054
2405.00,0.0054
2404.00,0.0054
2403.00,0.0054
2402.00,0.0054
2401.00,0.0054
2400.00,0.0055
2399.00,0.0055
2398.00,0.0054
2397.00,0.0054
2396.00,0.0054
2395.00,0.0054
2394.00,0.0054
2393.00,0.0054
2392.00,0.0054
2391.00,0.0054
2390.00,0.0053
2389.00,0.0053
2388.00,0.0053
2387.00,0.0052
2386.00,0.0052
2385.00,0.0051
2384.00,0.0050
2383.00,0.0049
2382.00,0.0049
2381.00,0.0048
2380.00,0.0048
2379.00,0.0048
2378.00,0.0048
2377.00,0.0048
2376.00,0.0048
2375.00,0.0048
2374.00,0.0048
2373.00,0.0048
2372.00,0.0047
2371.00,0.0046
2370.00,0.0045
2369.00,0.0044
2368.00,0.0044
2367.00,0.0044
2366.00,0.0045
2365.00,0.0046
2364.00,0.0047
2363.00,0.0047
2362.00,0.0047
2361.00,0.0047
2360.00,0.0047
2359.00,0.0047
2358.00,0.0047
2357.00,0.0047
2356.00,0.0048
2355.00,0.0048
2354.00,0.0047
2353.00,0.0047
2352.00,0.0047
2351.00,0.0047
2350.00,0.0047
2349.00,0.0048
2348.00,0.0049
2347.00,0.0050
2346.00,0.0050
2345.00,0.0050
2344.00,0.0050
2343.00,0.0050
2342.00,0.0050
2341.00,0.0051
2340.00,0.0051
2339.00,0.0051
2338.00,0.0051
2337.00,0.0051
2336.00,0.0051
2335.00,0.0051
2334.00,0.0051
2333.00,0.0050
2332.00,0.0050
2331.00,0.0049
2330.00,0.0050
2329.00,0.0052
2328.00,0.0056
2327.00,0.0061
2326.00,0.0064
2325.00,0.0065
2324.00,0.0064
2323.00,0.0061
2322.00,0.0059
2321.00,0.0057
2320.00,0.0057
2319.00,0.0056
2318.00,0.0056
2317.00,0.0056
2316.00,0.0055
2315.00,0.0055
2314.00,0.0054
2313.00,0.0054
2312.00,0.0053
2311.00,0.0053
2310.00,0.0052
2309.00,0.0052
2308.00,0.0052
2307.00,0.0052
2306.00,0.0052
2305.00,0.0053
2304.00,0.0053
2303.00,0.0053
2302.00,0.0053
2301.00,0.0053
2300.00,0.0053
2299.00,0.0053
2298.00,0.0054
2297.00,0.0054
2296.00,0.0055
2295.00,0.0056
2294.00,0.0056
2293.00,0.0056
2292.00,0.0057
2291.00,0.0057
2290.00,0.0058
2289.00,0.0058
2288.00,0.0059
2287.00,0.0059
2286.00,0.0059
2285.00,0.0058
2284.00,0.0057
2283.00,0.0056
2282.00,0.0054
2281.00,0.0054
2280.00,0.0054
2279.00,0.0054
2278.00,0.0053
2277.00,0.0053
2276.00,0.0052
2275.00,0.0052
2274.00,0.0051
2273.00,0.0051
2272.00,0.0052
2271.00,0.0051
2270.00,0.0051
2269.00,0.0050
2268.00,0.0049
2267.00,0.0048
2266.00,0.0047
2265.00,0.0047
2264.00,0.0047
2263.00,0.0048
2262.00,0.0048
2261.00,0.0049
2260.00,0.0049
2259.00,0.0049
2258.00,0.0049
2257.00,0.0048
2256.00,0.0047
2255.00,0.0047
2254.00,0.0046
2253.00,0.0046
2252.00,0.0046
2251.00,0.0046
2250.00,0.0046
2249.00,0.0046
2248.00,0.0047
2247.00,0.0047
2246.00,0.0046
2245.00,0.0046
2244.00,0.0047
2243.00,0.0047
2242.00,0.0046
2241.00,0.0046
2240.00,0.0047
2239.00,0.0047
2238.00,0.0047
2237.00,0.0047
2236.00,0.0047
2235.00,0.0047
2234.00,0.0047
2233.00,0.0047
2232.00,0.0047
2231.00,0.0047
2230.00,0.0046
2229.00,0.0046
2228.00,0.0047
2227.00,0.0048
2226.00,0.0048
2225.00,0.0047
2224.00,0.0047
2223.00,0.0047
2222.00,0.0046
2221.00,0.0046
2220.00,0.0046
2219.00,0.0047
2218.00,0.0048
2217.00,0.0049
2216.00,0.0049
2215.00,0.0049
2214.00,0.0048
2213.00,0.0047
2212.00,0.0047
2211.00,0.0047
2210.00,0.0046
2209.00,0.0046
2208.00,0.0047
2207.00,0.0047
2206.00,0.0047
2205.00,0.0047
2204.00,0.0047
2203.00,0.0047
2202.00,0.0046
2201.00,0.0046
2200.00,0.0047
2199.00,0.0047
2198.00,0.0047
2197.00,0.0048
2196.00,0.0048
2195.00,0.0048
2194.00,0.0047
2193.00,0.0047
2192.00,0.0047
2191.00,0.0048
2190.00,0.0048
2189.00,0.0048
2188.00,0.0049
2187.00,0.0049
2186.00,0.0048
2185.00,0.0047
2184.00,0.0046
2183.00,0.0045
2182.00,0.0044
2181.00,0.0044
2180.00,0.0046
2179.00,0.0048
2178.00,0.0046
2177.00,0.0044
2176.00,0.0041
2175.00,0.0040
2174.00,0.0041
2173.00,0.0043
2172.00,0.0046
2171.00,0.0048
2170.00,0.0050
2169.00,0.0050
2168.00,0.0051
2167.00,0.0052
2166.00,0.0053
2165.00,0.0055
2164.00,0.0059
2163.00,0.0059
2162.00,0.0052
2161.00,0.0039
2160.00,0.0024
2159.00,0.0011
2158.00,0.0004
2157.00,0.0003
2156.00,0.0007
2155.00,0.0010
2154.00,0.0014
2153.00,0.0018
2152.00,0.0022
2151.00,0.0025
2150.00,0.0025
2149.00,0.0024
2148.00,0.0023
2147.00,0.0023
2146.00,0.0023
2145.00,0.0024
2144.00,0.0026
2143.00,0.0028
2142.00,0.0028
2141.00,0.0028
2140.00,0.0028
2139.00,0.0028
2138.00,0.0026
2137.00,0.0023
2136.00,0.0021
2135.00,0.0019
2134.00,0.0019
2133.00,0.0021
2132.00,0.0024
2131.00,0.0027
2130.00,0.0029
2129.00,0.0030
2128.00,0.0032
2127.00,0.0033
2126.00,0.0034
2125.00,0.0035
2124.00,0.0036
2123.00,0.0037
2122.00,0.0038
2121.00,0.0039
2120.00,0.0040
2119.00,0.0042
2118.00,0.0043
2117.00,0.0044
2116.00,0.0045
2115.00,0.0045
2114.00,0.0045
2113.00,0.0045
2112.00,0.0044
2111.00,0.0044
2110.00,0.0044
2109.00,0.0044
2108.00,0.0045
2107.00,0.0045
2106.00,0.0045
2105.00,0.0044
2104.00,0.0044
2103.00,0.0045
2102.00,0.0045
2101.00,0.0045
2100.00,0.0044
2099.00,0.0043
2098.00,0.0040
2097.00,0.0038
2096.00,0.0036
2095.00,0.0036
2094.00,0.0036
2093.00,0.0037
2092.00,0.0038
2091.00,0.0039
2090.00,0.0040
2089.00,0.0041
2088.00,0.0042
2087.00,0.0043
2086.00,0.0043
2085.00,0.0044
2084.00,0.0045
2083.00,0.0045
2082.00,0.0045
2081.00,0.0045
2080.00,0.0044
2079.00,0.0043
2078.00,0.0042
2077.00,0.0042
2076.00,0.0042
2075.00,0.0042
2074.00,0.0042
2073.00,0.0042
2072.00,0.0041
2071.00,0.0041
2070.00,0.0040
2069.00,0.0040
2068.00,0.0041
2067.00,0.0042
2066.00,0.0041
2065.00,0.0040
2064.00,0.0039
2063.00,0.0038
2062.00,0.0039
2061.00,0.0039
2060.00,0.0040
2059.00,0.0040
2058.00,0.0039
2057.00,0.0038
2056.00,0.0038
2055.00,0.0040
2054.00,0.0043
2053.00,0.0048
2052.00,0.0052
2051.00,0.0051
2050.00,0.0047
2049.00,0.0042
2048.00,0.0039
2047.00,0.0038
2046.00,0.0038
2045.00,0.0038
2044.00,0.0038
2043.00,0.0039
2042.00,0.0038
2041.00,0.0038
2040.00,0.0039
2039.00,0.0039
2038.00,0.0038
2037.00,0.0036
2036.00,0.0035
2035.00,0.0032
2034.00,0.0030
2033.00,0.0028
2032.00,0.0029
2031.00,0.0029
2030.00,0.0029
2029.00,0.0029
2028.00,0.0030
2027.00,0.0030
2026.00,0.0028
2025.00,0.0027
2024.00,0.0027
2023.00,0.0026
2022.00,0.0026
2021.00,0.0025
2020.00,0.0025
2019.00,0.0025
2018.00,0.0024
2017.00,0.0025
2016.00,0.0027
2015.00,0.0028
2014.00,0.0028
2013.00,0.0028
2012.00,0.0029
2011.00,0.0030
2010.00,0.0028
2009.00,0.0026
2008.00,0.0024
2007.00,0.0022
2006.00,0.0021
2005.00,0.0021
2004.00,0.0022
2003.00,0.0023
2002.00,0.0022
2001.00,0.0022
2000.00,0.0024
1999.00,0.0026
1998.00,0.0028
1997.00,0.0031
1996.00,0.0033
1995.00,0.0035
1994.00,0.0034
1993.00,0.0034
1992.00,0.0035
1991.00,0.0035
1990.00,0.0034
1989.00,0.0033
1988.00,0.0034
1987.00,0.0034
1986.00,0.0034
1985.00,0.0035
1984.00,0.0039
1983.00,0.0043
1982.00,0.0046
1981.00,0.0048
1980.00,0.0046
1979.00,0.0039
1978.00,0.0030
1977.00,0.0025
1976.00,0.0024
1975.00,0.0024
1974.00,0.0022
1973.00,0.0021
1972.00,0.0021
1971.00,0.0021
1970.00,0.0020
1969.00,0.0020
1968.00,0.0021
1967.00,0.0021
1966.00,0.0021
1965.00,0.0023
1964.00,0.0026
1963.00,0.0026
1962.00,0.0024
1961.00,0.0020
1960.00,0.0018
1959.00,0.0018
1958.00,0.0019
1957.00,0.0021
1956.00,0.0024
1955.00,0.0026
1954.00,0.0026
1953.00,0.0026
1952.00,0.0027
1951.00,0.0027
1950.00,0.0026
1949.00,0.0027
1948.00,0.0028
1947.00,0.0030
1946.00,0.0030
1945.00,0.0030
1944.00,0.0031
1943.00,0.0030
1942.00,0.0029
1941.00,0.0028
1940.00,0.0028
1939.00,0.0029
1938.00,0.0029
1937.00,0.0029
1936.00,0.0030
1935.00,0.0031
1934.00,0.0030
1933.00,0.0030
1932.00,0.0031
1931.00,0.0032
1930.00,0.0032
1929.00,0.0032
1928.00,0.0032
1927.00,0.0033
1926.00,0.0033
1925.00,0.0034
1924.00,0.0036
1923.00,0.0036
1922.00,0.0035
1921.00,0.0035
1920.00,0.0034
1919.00,0.0034
1918.00,0.0033
1917.00,0.0033
1916.00,0.0034
1915.00,0.0034
1914.00,0.0034
1913.00,0.0035
1912.00,0.0035
1911.00,0.0035
1910.00,0.0034
1909.00,0.0034
1908.00,0.0034
1907.00,0.0034
1906.00,0.0033
1905.00,0.0034
1904.00,0.0035
1903.00,0.0035
1902.00,0.0034
1901.00,0.0034
1900.00,0.0034
1899.00,0.0034
1898.00,0.0034
1897.00,0.0034
1896.00,0.0035
1895.00,0.0035
1894.00,0.0034
1893.00,0.0034
1892.00,0.0035
1891.00,0.0036
1890.00,0.0037
1889.00,0.0037
1888.00,0.0037
1887.00,0.0036
1886.00,0.0036
1885.00,0.0035
1884.00,0.0035
1883.00,0.0035
1882.00,0.0035
1881.00,0.0035
1880.00,0.0036
1879.00,0.0036
1878.00,0.0036
1877.00,0.0035
1876.00,0.0036
1875.00,0.0036
1874.00,0.0035
1873.00,0.0035
1872.00,0.0036
1871.00,0.0037
1870.00,0.0038
1869.00,0.0038
1868.00,0.0038
1867.00,0.0037
1866.00,0.0036
1865.00,0.0036
1864.00,0.0036
1863.00,0.0036
1862.00,0.0036
1861.00,0.0036
1860.00,0.0037
1859.00,0.0037
1858.00,0.0036
1857.00,0.0036
1856.00,0.0036
1855.00,0.0036
1854.00,0.0036
1853.00,0.0036
1852.00,0.0037
1851.00,0.0037
1850.00,0.0037
1849.00,0.0037
1848.00,0.0037
1847.00,0.0036
1846.00,0.0034
1845.00,0.0032
1844.00,0.0032
1843.00,0.0033
1842.00,0.0034
1841.00,0.0035
1840.00,0.0037
1839.00,0.0038
1838.00,0.0037
1837.00,0.0037
1836.00,0.0037
1835.00,0.0037
1834.00,0.0036
1833.00,0.0037
1832.00,0.0038
1831.00,0.0039
1830.00,0.0039
1829.00,0.0038
1828.00,0.0038
1827.00,0.0038
1826.00,0.0038
1825.00,0.0038
1824.00,0.0038
1823.00,0.0038
1822.00,0.0037
1821.00,0.0037
1820.00,0.0036
1819.00,0.0035
1818.00,0.0034
1817.00,0.0034
1816.00,0.0035
1815.00,0.0036
1814.00,0.0037
1813.00,0.0039
1812.00,0.0040
1811.00,0.0040
1810.00,0.0040
1809.00,0.0040
1808.00,0.0040
1807.00,0.0040
1806.00,0.0040
1805.00,0.0040
1804.00,0.0041
1803.00,0.0042
1802.00,0.0042
1801.00,0.0042
1800.00,0.0042
1799.00,0.0042
1798.00,0.0043
1797.00,0.0043
1796.00,0.0044
1795.00,0.0043
1794.00,0.0042
1793.00,0.0042
1792.00,0.0043
1791.00,0.0043
1790.00,0.0043
1789.00,0.0044
1788.00,0.0045
1787.00,0.0045
1786.00,0.0045
1785.00,0.0046
1784.00,0.0047
1783.00,0.0049
1782.00,0.0050
1781.00,0.0051
1780.00,0.0051
1779.00,0.0052
1778.00,0.0052
1777.00,0.0053
1776.00,0.0054
1775.00,0.0054
1774.00,0.0054
1773.00,0.0055
1772.00,0.0057
1771.00,0.0058
1770.00,0.0058
1769.00,0.0059
1768.00,0.0062
1767.00,0.0064
1766.00,0.0066
1765.00,0.0068
1764.00,0.0071
1763.00,0.0073
1762.00,0.0075
1761.00,0.0078
1760.00,0.0082
1759.00,0.0086
1758.00,0.0090
1757.00,0.0094
1756.00,0.0100
1755.00,0.0105
1754.00,0.0109
1753.00,0.0115
1752.00,0.0122
1751.00,0.0131
1750.00,0.0139
1749.00,0.0147
1748.00,0.0154
1747.00,0.0160
1746.00,0.0165
1745.00,0.0171
1744.00,0.0177
1743.00,0.0181
1742.00,0.0184
1741.00,0.0188
1740.00,0.0193
1739.00,0.0198
1738.00,0.0201
1737.00,0.0203
1736.00,0.0206
1735.00,0.0212
1734.00,0.0221
1733.00,0.0233
1732.00,0.0247
1731.00,0.0260
1730.00,0.0271
1729.00,0.0282
1728.00,0.0295
1727.00,0.0308
1726.00,0.0320
1725.00,0.0333
1724.00,0.0345
1723.00,0.0355
1722.00,0.0362
1721.00,0.0368
1720.00,0.0374
1719.00,0.0379
1718.00,0.0381
1717.00,0.0382
1716.00,0.0383
1715.00,0.0384
1714.00,0.0384
1713.00,0.0385
1712.00,0.0387
1711.00,0.0388
1710.00,0.0389
1709.00,0.0390
1708.00,0.0392
1707.00,0.0396
1706.00,0.0398
1705.00,0.0400
1704.00,0.0400
1703.00,0.0399
1702.00,0.0399
1701.00,0.0405
1700.00,0.0419
1699.00,0.0432
1698.00,0.0442
1697.00,0.0453
1696.00,0.0470
1695.00,0.0491
1694.00,0.0512
1693.00,0.0531
1692.00,0.0551
1691.00,0.0576
1690.00,0.0603
1689.00,0.0630
1688.00,0.0653
1687.00,0.0671
1686.00,0.0695
1685.00,0.0739
1684.00,0.0803
1683.00,0.0857
1682.00,0.0892
1681.00,0.0921
1680.00,0.0951
1679.00,0.0980
1678.00,0.1005
1677.00,0.1034
1676.00,0.1080
1675.00,0.1137
1674.00,0.1187
1673.00,0.1224
1672.00,0.1256
1671.00,0.1299
1670.00,0.1358
1669.00,0.1425
1668.00,0.1484
1667.00,0.1524
1666.00,0.1551
1665.00,0.1578
1664.00,0.1619
1663.00,0.1673
1662.00,0.1727
1661.00,0.1768
1660.00,0.1797
1659.00,0.1817
1658.00,0.1829
1657.00,0.1828
1656.00,0.1819
1655.00,0.1817
1654.00,0.1852
1653.00,0.1927
1652.00,0.1975
1651.00,0.1970
1650.00,0.1938
1649.00,0.1908
1648.00,0.1898
1647.00,0.1906
1646.00,0.1914
1645.00,0.1905
1644.00,0.1881
1643.00,0.1849
1642.00,0.1814
1641.00,0.1779
1640.00,0.1744
1639.00,0.1707
1638.00,0.1670
1637.00,0.1644
1636.00,0.1635
1635.00,0.1635
1634.00,0.1626
1633.00,0.1606
1632.00,0.1584
1631.00,0.1564
1630.00,0.1550
1629.00,0.1542
1628.00,0.1538
1627.00,0.1534
1626.00,0.1525
1625.00,0.1510
1624.00,0.1494
1623.00,0.1472
1622.00,0.1441
1621.00,0.1402
1620.00,0.1357
1619.00,0.1307
1618.00,0.1251
1617.00,0.1188
1616.00,0.1126
1615.00,0.1072
1614.00,0.1026
1613.00,0.0983
1612.00,0.0941
1611.00,0.0900
1610.00,0.0862
1609.00,0.0826
1608.00,0.0793
1607.00,0.0762
1606.00,0.0735
1605.00,0.0710
1604.00,0.0688
1603.00,0.0668
1602.00,0.0650
1601.00,0.0634
1600.00,0.0621
1599.00,0.0610
1598.00,0.0603
1597.00,0.0598
1596.00,0.0596
1595.00,0.0598
1594.00,0.0602
1593.00,0.0609
1592.00,0.0620
1591.00,0.0635
1590.00,0.0653
1589.00,0.0673
1588.00,0.0695
1587.00,0.0718
1586.00,0.0742
1585.00,0.0765
1584.00,0.0786
1583.00,0.0805
1582.00,0.0819
1581.00,0.0827
1580.00,0.0829
1579.00,0.0826
1578.00,0.0813
1577.00,0.0789
1576.00,0.0755
1575.00,0.0721
1574.00,0.0694
1573.00,0.0670
1572.00,0.0645
1571.00,0.0616
1570.00,0.0581
1569.00,0.0544
1568.00,0.0514
1567.00,0.0491
1566.00,0.0470
1565.00,0.0447
1564.00,0.0424
1563.00,0.0402
1562.00,0.0383
1561.00,0.0367
1560.00,0.0354
1559.00,0.0332
1558.00,0.0312
1557.00,0.0303
1556.00,0.0299
1555.00,0.0294
1554.00,0.0288
1553.00,0.0283
1552.00,0.0279
1551.00,0.0275
1550.00,0.0269
1549.00,0.0263
1548.00,0.0258
1547.00,0.0254
1546.00,0.0251
1545.00,0.0248
1544.00,0.0244
1543.00,0.0240
1542.00,0.0237
1541.00,0.0234
1540.00,0.0229
1539.00,0.0225
1538.00,0.0226
1537.00,0.0229
1536.00,0.0230
1535.00,0.0230
1534.00,0.0231
1533.00,0.0231
1532.00,0.0231
1531.00,0.0232
1530.00,0.0235
1529.00,0.0237
1528.00,0.0239
1527.00,0.0242
1526.00,0.0245
1525.00,0.0249
1524.00,0.0253
1523.00,0.0258
1522.00,0.0264
1521.00,0.0272
1520.00,0.0281
1519.00,0.0291
1518.00,0.0300
1517.00,0.0308
1516.00,0.0313
1515.00,0.0317
1514.00,0.0320
1513.00,0.0323
1512.00,0.0326
1511.00,0.0329
1510.00,0.0330
1509.00,0.0331
1508.00,0.0334
1507.00,0.0336
1506.00,0.0340
1505.00,0.0351
1504.00,0.0364
1503.00,0.0378
1502.00,0.0391
1501.00,0.0405
1500.00,0.0421
1499.00,0.0437
1498.00,0.0454
1497.00,0.0469
1496.00,0.0481
1495.00,0.0486
1494.00,0.0484
1493.00,0.0477
1492.00,0.0466
1491.00,0.0450
1490.00,0.0431
1489.00,0.0409
1488.00,0.0387
1487.00,0.0367
1486.00,0.0350
1485.00,0.0337
1484.00,0.0328
1483.00,0.0321
1482.00,0.0317
1481.00,0.0317
1480.00,0.0319
1479.00,0.0323
1478.00,0.0331
1477.00,0.0345
1476.00,0.0362
1475.00,0.0382
1474.00,0.0412
1473.00,0.0458
1472.00,0.0517
1471.00,0.0577
1470.00,0.0633
1469.00,0.0688
1468.00,0.0742
1467.00,0.0797
1466.00,0.0857
1465.00,0.0919
1464.00,0.0971
1463.00,0.1003
1462.00,0.1016
1461.00,0.1016
1460.00,0.1006
1459.00,0.0987
1458.00,0.0961
1457.00,0.0933
1456.00,0.0910
1455.00,0.0897
1454.00,0.0890
1453.00,0.0890
1452.00,0.0898
1451.00,0.0915
1450.00,0.0941
1449.00,0.0980
1448.00,0.1028
1447.00,0.1079
1446.00,0.1126
1445.00,0.1169
1444.00,0.1208
1443.00,0.1243
1442.00,0.1272
1441.00,0.1295
1440.00,0.1309
1439.00,0.1314
1438.00,0.1316
1437.00,0.1321
1436.00,0.1327
1435.00,0.1328
1434.00,0.1326
1433.00,0.1329
1432.00,0.1341
1431.00,0.1369
1430.00,0.1413
1429.00,0.1471
1428.00,0.1531
1427.00,0.1583
1426.00,0.1625
1425.00,0.1655
1424.00,0.1662
1423.00,0.1639
1422.00,0.1592
1421.00,0.1524
1420.00,0.1431
1419.00,0.1316
1418.00,0.1202
1417.00,0.1103
1416.00,0.1016
1415.00,0.0938
1414.00,0.0867
1413.00,0.0805
1412.00,0.0750
1411.00,0.0703
1410.00,0.0664
1409.00,0.0632
1408.00,0.0606
1407.00,0.0583
1406.00,0.0565
1405.00,0.0549
1404.00,0.0534
1403.00,0.0523
1402.00,0.0514
1401.00,0.0507
1400.00,0.0501
1399.00,0.0496
1398.00,0.0493
1397.00,0.0491
1396.00,0.0489
1395.00,0.0489
1394.00,0.0492
1393.00,0.0498
1392.00,0.0506
1391.00,0.0518
1390.00,0.0533
1389.00,0.0554
1388.00,0.0581
1387.00,0.0615
1386.00,0.0650
1385.00,0.0681
1384.00,0.0707
1383.00,0.0727
1382.00,0.0743
1381.00,0.0756
1380.00,0.0768
1379.00,0.0781
1378.00,0.0795
1377.00,0.0808
1376.00,0.0819
1375.00,0.0829
1374.00,0.0835
1373.00,0.0837
1372.00,0.0835
1371.00,0.0831
1370.00,0.0823
1369.00,0.0813
1368.00,0.0800
1367.00,0.0787
1366.00,0.0775
1365.00,0.0765
1364.00,0.0755
1363.00,0.0745
1362.00,0.0734
1361.00,0.0723
1360.00,0.0713
1359.00,0.0705
1358.00,0.0698
1357.00,0.0690
1356.00,0.0681
1355.00,0.0670
1354.00,0.0659
1353.00,0.0648
1352.00,0.0638
1351.00,0.0629
1350.00,0.0622
1349.00,0.0615
1348.00,0.0610
1347.00,0.0605
1346.00,0.0602
1345.00,0.0599
1344.00,0.0597
1343.00,0.0596
1342.00,0.0597
1341.00,0.0598
1340.00,0.0598
1339.00,0.0599
1338.00,0.0600
1337.00,0.0601
1336.00,0.0603
1335.00,0.0606
1334.00,0.0610
1333.00,0.0614
1332.00,0.0619
1331.00,0.0624
1330.00,0.0631
1329.00,0.0639
1328.00,0.0649
1327.00,0.0661
1326.00,0.0676
1325.00,0.0694
1324.00,0.0713
1323.00,0.0732
1322.00,0.0752
1321.00,0.0769
1320.00,0.0783
1319.00,0.0792
1318.00,0.0795
1317.00,0.0792
1316.00,0.0783
1315.00,0.0770
1314.00,0.0754
1313.00,0.0736
1312.00,0.0717
1311.00,0.0699
1310.00,0.0684
1309.00,0.0672
1308.00,0.0663
1307.00,0.0660
1306.00,0.0662
1305.00,0.0671
1304.00,0.0686
1303.00,0.0709
1302.00,0.0740
1301.00,0.0780
1300.00,0.0829
1299.00,0.0889
1298.00,0.0960
1297.00,0.1038
1296.00,0.1121
1295.00,0.1204
1294.00,0.1284
1293.00,0.1356
1292.00,0.1416
1291.00,0.1462
1290.00,0.1494
1289.00,0.1510
1288.00,0.1512
1287.00,0.1500
1286.00,0.1479
1285.00,0.1451
1284.00,0.1420
1283.00,0.1390
1282.00,0.1364
1281.00,0.1345
1280.00,0.1332
1279.00,0.1327
1278.00,0.1327
1277.00,0.1331
1276.00,0.1335
1275.00,0.1339
1274.00,0.1339
1273.00,0.1335
1272.00,0.1325
1271.00,0.1308
1270.00,0.1284
1269.00,0.1255
1268.00,0.1222
1267.00,0.1185
1266.00,0.1148
1265.00,0.1109
1264.00,0.1071
1263.00,0.1034
1262.00,0.0999
1261.00,0.0967
1260.00,0.0937
1259.00,0.0911
1258.00,0.0888
1257.00,0.0868
1256.00,0.0849
1255.00,0.0833
1254.00,0.0819
1253.00,0.0806
1252.00,0.0793
1251.00,0.0782
1250.00,0.0771
1249.00,0.0760
1248.00,0.0750
1247.00,0.0741
1246.00,0.0734
1245.00,0.0729
1244.00,0.0725
1243.00,0.0725
1242.00,0.0727
1241.00,0.0731
1240.00,0.0738
1239.00,0.0746
1238.00,0.0756
1237.00,0.0767
1236.00,0.0777
1235.00,0.0786
1234.00,0.0794
1233.00,0.0800
1232.00,0.0804
1231.00,0.0807
1230.00,0.0810
1229.00,0.0812
1228.00,0.0815
1227.00,0.0819
1226.00,0.0825
1225.00,0.0832
1224.00,0.0839
1223.00,0.0847
1222.00,0.0855
1221.00,0.0863
1220.00,0.0872
1219.00,0.0881
1218.00,0.0890
1217.00,0.0898
1216.00,0.0903
1215.00,0.0905
1214.00,0.0904
1213.00,0.0901
1212.00,0.0896
1211.00,0.0891
1210.00,0.0887
1209.00,0.0883
1208.00,0.0881
1207.00,0.0881
1206.00,0.0883
1205.00,0.0886
1204.00,0.0889
1203.00,0.0892
1202.00,0.0895
1201.00,0.0896
1200.00,0.0895
1199.00,0.0895
1198.00,0.0895
1197.00,0.0895
1196.00,0.0896
1195.00,0.0899
1194.00,0.0903
1193.00,0.0910
1192.00,0.0919
1191.00,0.0932
1190.00,0.0949
1189.00,0.0969
1188.00,0.0991
1187.00,0.1014
1186.00,0.1034
1185.00,0.1049
1184.00,0.1057
1183.00,0.1057
1182.00,0.1048
1181.00,0.1032
1180.00,0.1011
1179.00,0.0987
1178.00,0.0965
1177.00,0.0945
1176.00,0.0928
1175.00,0.0913
1174.00,0.0901
1173.00,0.0890
1172.00,0.0879
1171.00,0.0867
1170.00,0.0855
1169.00,0.0843
1168.00,0.0833
1167.00,0.0824
1166.00,0.0818
1165.00,0.0815
1164.00,0.0814
1163.00,0.0816
1162.00,0.0820
1161.00,0.0824
1160.00,0.0828
1159.00,0.0832
1158.00,0.0835
1157.00,0.0837
1156.00,0.0838
1155.00,0.0837
1154.00,0.0834
1153.00,0.0829
1152.00,0.0819
1151.00,0.0805
1150.00,0.0787
1149.00,0.0766
1148.00,0.0745
1147.00,0.0729
1146.00,0.0720
1145.00,0.0718
1144.00,0.0722
1143.00,0.0728
1142.00,0.0737
1141.00,0.0744
1140.00,0.0749
1139.00,0.0753
1138.00,0.0757
1137.00,0.0763
1136.00,0.0769
1135.00,0.0774
1134.00,0.0778
1133.00,0.0778
1132.00,0.0773
1131.00,0.0765
1130.00,0.0752
1129.00,0.0736
1128.00,0.0717
1127.00,0.0697
1126.00,0.0677
1125.00,0.0657
1124.00,0.0638
1123.00,0.0621
1122.00,0.0608
1121.00,0.0599
1120.00,0.0596
1119.00,0.0598
1118.00,0.0606
1117.00,0.0618
1116.00,0.0632
1115.00,0.0647
1114.00,0.0660
1113.00,0.0669
1112.00,0.0674
1111.00,0.0675
1110.00,0.0673
1109.00,0.0668
1108.00,0.0662
1107.00,0.0657
1106.00,0.0653
1105.00,0.0651
1104.00,0.0651
1103.00,0.0653
1102.00,0.0659
1101.00,0.0666
1100.00,0.0673
1099.00,0.0681
1098.00,0.0688
1097.00,0.0692
1096.00,0.0695
1095.00,0.0697
1094.00,0.0699
1093.00,0.0703
1092.00,0.0708
1091.00,0.0716
1090.00,0.0728
1089.00,0.0740
1088.00,0.0752
1087.00,0.0763
1086.00,0.0772
1085.00,0.0776
1084.00,0.0775
1083.00,0.0769
1082.00,0.0759
1081.00,0.0747
1080.00,0.0734
1079.00,0.0723
1078.00,0.0717
1077.00,0.0715
1076.00,0.0715
1075.00,0.0716
1074.00,0.0715
1073.00,0.0709
1072.00,0.0697
1071.00,0.0680
1070.00,0.0659
1069.00,0.0637
1068.00,0.0614
1067.00,0.0594
1066.00,0.0578
1065.00,0.0565
1064.00,0.0556
1063.00,0.0551
1062.00,0.0549
1061.00,0.0551
1060.00,0.0555
1059.00,0.0563
1058.00,0.0575
1057.00,0.0590
1056.00,0.0606
1055.00,0.0624
1054.00,0.0641
1053.00,0.0656
1052.00,0.0668
1051.00,0.0680
1050.00,0.0692
1049.00,0.0706
1048.00,0.0721
1047.00,0.0739
1046.00,0.0759
1045.00,0.0781
1044.00,0.0800
1043.00,0.0817
1042.00,0.0830
1041.00,0.0839
1040.00,0.0846
1039.00,0.0853
1038.00,0.0862
1037.00,0.0873
1036.00,0.0882
1035.00,0.0891
1034.00,0.0897
1033.00,0.0901
1032.00,0.0901
1031.00,0.0900
1030.00,0.0897
1029.00,0.0892
1028.00,0.0884
1027.00,0.0871
1026.00,0.0854
1025.00,0.0836
1024.00,0.0818
1023.00,0.0804
1022.00,0.0796
1021.00,0.0794
1020.00,0.0794
1019.00,0.0793
1018.00,0.0787
1017.00,0.0773
1016.00,0.0751
1015.00,0.0724
1014.00,0.0697
1013.00,0.0671
1012.00,0.0651
1011.00,0.0637
1010.00,0.0631
1009.00,0.0632
1008.00,0.0638
1007.00,0.0649
1006.00,0.0664
1005.00,0.0678
1004.00,0.0690
1003.00,0.0697
1002.00,0.0699
1001.00,0.0695
1000.00,0.0688
999.00,0.0678
998.00,0.0667
997.00,0.0656
996.00,0.0643
995.00,0.0630
994.00,0.0617
993.00,0.0604
992.00,0.0591
991.00,0.0578
990.00,0.0566
989.00,0.0555
988.00,0.0545
987.00,0.0534
986.00,0.0522
985.00,0.0510
984.00,0.0496
983.00,0.0482
982.00,0.0469
981.00,0.0459
980.00,0.0450
979.00,0.0444
978.00,0.0441
977.00,0.0439
976.00,0.0437
975.00,0.0435
974.00,0.0433
973.00,0.0430
972.00,0.0427
971.00,0.0422
970.00,0.0418
969.00,0.0413
968.00,0.0408
967.00,0.0405
966.00,0.0403
965.00,0.0402
964.00,0.0403
963.00,0.0406
962.00,0.0410
961.00,0.0415
960.00,0.0417
959.00,0.0419
958.00,0.0418
957.00,0.0416
956.00,0.0412
955.00,0.0406
954.00,0.0399
953.00,0.0392
952.00,0.0385
951.00,0.0379
950.00,0.0375
949.00,0.0372
948.00,0.0370
947.00,0.0369
946.00,0.0368
945.00,0.0366
944.00,0.0362
943.00,0.0358
942.00,0.0356
941.00,0.0357
940.00,0.0360
939.00,0.0366
938.00,0.0374
937.00,0.0383
936.00,0.0390
935.00,0.0396
934.00,0.0399
933.00,0.0399
932.00,0.0396
931.00,0.0393
930.00,0.0389
929.00,0.0387
928.00,0.0386
927.00,0.0386
926.00,0.0388
925.00,0.0389
924.00,0.0390
923.00,0.0392
922.00,0.0394
921.00,0.0395
920.00,0.0395
919.00,0.0394
918.00,0.0394
917.00,0.0394
916.00,0.0396
915.00,0.0400
914.00,0.0407
913.00,0.0414
912.00,0.0421
911.00,0.0427
910.00,0.0433
909.00,0.0436
908.00,0.0439
907.00,0.0443
906.00,0.0449
905.00,0.0456
904.00,0.0465
903.00,0.0474
902.00,0.0483
901.00,0.0491
900.00,0.0497
899.00,0.0504
898.00,0.0509
897.00,0.0513
896.00,0.0513
895.00,0.0511
894.00,0.0508
893.00,0.0506
892.00,0.0505
891.00,0.0506
890.00,0.0509
889.00,0.0514
888.00,0.0520
887.00,0.0528
886.00,0.0536
885.00,0.0542
884.00,0.0542
883.00,0.0535
882.00,0.0523
881.00,0.0507
880.00,0.0490
879.00,0.0475
878.00,0.0462
877.00,0.0452
876.00,0.0443
875.00,0.0437
874.00,0.0433
873.00,0.0430
872.00,0.0428
871.00,0.0429
870.00,0.0431
869.00,0.0435
868.00,0.0438
867.00,0.0444
866.00,0.0452
865.00,0.0462
864.00,0.0473
863.00,0.0484
862.00,0.0497
861.00,0.0510
860.00,0.0524
859.00,0.0540
858.00,0.0557
857.00,0.0576
856.00,0.0595
855.00,0.0614
854.00,0.0633
853.00,0.0650
852.00,0.0664
851.00,0.0675
850.00,0.0685
849.00,0.0692
848.00,0.0698
847.00,0.0703
846.00,0.0706
845.00,0.0707
844.00,0.0707
843.00,0.0706
842.00,0.0705
841.00,0.0703
840.00,0.0699
839.00,0.0696
838.00,0.0694
837.00,0.0692
836.00,0.0691
835.00,0.0690
834.00,0.0691
833.00,0.0692
832.00,0.0692
831.00,0.0693
830.00,0.0693
829.00,0.0691
828.00,0.0686
827.00,0.0679
826.00,0.0670
825.00,0.0659
824.00,0.0646
823.00,0.0634
822.00,0.0624
821.00,0.0615
820.00,0.0606
819.00,0.0597
818.00,0.0588
817.00,0.0577
816.00,0.0565
815.00,0.0552
814.00,0.0539
813.00,0.0525
812.00,0.0513
811.00,0.0503
810.00,0.0496
809.00,0.0492
808.00,0.0491
807.00,0.0492
806.00,0.0495
805.00,0.0499
804.00,0.0500
803.00,0.0499
802.00,0.0496
801.00,0.0493
800.00,0.0490
799.00,0.0489
798.00,0.0489
797.00,0.0491
796.00,0.0493
795.00,0.0497
794.00,0.0503
793.00,0.0508
792.00,0.0513
791.00,0.0518
790.00,0.0524
789.00,0.0527
788.00,0.0529
787.00,0.0529
786.00,0.0528
785.00,0.0525
784.00,0.0521
783.00,0.0518
782.00,0.0516
781.00,0.0516
780.00,0.0516
779.00,0.0517
778.00,0.0520
777.00,0.0525
776.00,0.0529
775.00,0.0534
774.00,0.0540
773.00,0.0545
772.00,0.0550
771.00,0.0555
770.00,0.0560
769.00,0.0565
768.00,0.0568
767.00,0.0571
766.00,0.0575
765.00,0.0579
764.00,0.0582
763.00,0.0587
762.00,0.0593
761.00,0.0600
760.00,0.0607
759.00,0.0616
758.00,0.0627
757.00,0.0638
756.00,0.0649
755.00,0.0661
754.00,0.0674
753.00,0.0688
752.00,0.0700
751.00,0.0713
750.00,0.0724
749.00,0.0734
748.00,0.0741
747.00,0.0746
746.00,0.0752
745.00,0.0757
744.00,0.0761
743.00,0.0765
742.00,0.0771
741.00,0.0778
740.00,0.0787
739.00,0.0796
738.00,0.0807
737.00,0.0819
736.00,0.0829
735.00,0.0839
734.00,0.0848
733.00,0.0853
732.00,0.0854
731.00,0.0852
730.00,0.0848
729.00,0.0841
728.00,0.0833
727.00,0.0825
726.00,0.0818
725.00,0.0810
724.00,0.0800
723.00,0.0789
722.00,0.0779
721.00,0.0770
720.00,0.0760
719.00,0.0752
718.00,0.0746
717.00,0.0741
716.00,0.0737
715.00,0.0734
714.00,0.0735
713.00,0.0738
712.00,0.0741
711.00,0.0745
710.00,0.0750
709.00,0.0755
708.00,0.0761
707.00,0.0767
706.00,0.0774
705.00,0.0782
704.00,0.0788
703.00,0.0794
702.00,0.0800
701.00,0.0806
700.00,0.0812
699.00,0.0817
698.00,0.0824
697.00,0.0830
696.00,0.0836
695.00,0.0842
694.00,0.0850
693.00,0.0859
692.00,0.0868
691.00,0.0877
690.00,0.0887
689.00,0.0897
688.00,0.0906
687.00,0.0916
686.00,0.0929
685.00,0.0941
684.00,0.0953
683.00,0.0965
682.00,0.0978
681.00,0.0990
680.00,0.1001
679.00,0.1012
678.00,0.1021
677.00,0.1029
676.00,0.1032
675.00,0.1033
674.00,0.1033
673.00,0.1032
672.00,0.1029
671.00,0.1026
670.00,0.1025
669.00,0.1030
668.00,0.1042
667.00,0.1055
666.00,0.1063
665.00,0.1069
664.00,0.1077
663.00,0.1090
662.00,0.1105
661.00,0.1122
660.00,0.1138
659.00,0.1156
658.00,0.1174
657.00,0.1192
656.00,0.1208
655.00,0.1223
654.00,0.1236
653.00,0.1248
652.00,0.1257
651.00,0.1263
650.00,0.1269
649.00,0.1273
648.00,0.1273
647.00,0.1271
646.00,0.1267
645.00,0.1261
644.00,0.1253
643.00,0.1243
642.00,0.1233
641.00,0.1221
640.00,0.1209
639.00,0.1197
638.00,0.1187
637.00,0.1176
636.00,0.1166
635.00,0.1156
634.00,0.1148
633.00,0.1141
632.00,0.1132
631.00,0.1125
630.00,0.1119
629.00,0.1114
628.00,0.1109
627.00,0.1104
626.00,0.1102
625.00,0.1099
624.00,0.1097
623.00,0.1096
622.00,0.1097
621.00,0.1099
620.00,0.1099
619.00,0.1100
618.00,0.1102
617.00,0.1105
616.00,0.1108
615.00,0.1111
614.00,0.1116
613.00,0.1120
612.00,0.1123
611.00,0.1126
610.00,0.1129
609.00,0.1132
608.00,0.1134
607.00,0.1136
606.00,0.1140
605.00,0.1143
604.00,0.1145
603.00,0.1146
602.00,0.1149
601.00,0.1153
600.00,0.1156
599.00,0.1159
598.00,0.1163
597.00,0.1168
596.00,0.1171
595.00,0.1176
594.00,0.1182
593.00,0.1190
592.00,0.1197
591.00,0.1204
590.00,0.1213
589.00,0.1221
588.00,0.1229
587.00,0.1239
586.00,0.1251
585.00,0.1264
584.00,0.1276
583.00,0.1287
582.00,0.1300
581.00,0.1312
580.00,0.1323
579.00,0.1334
578.00,0.1344
577.00,0.1352
576.00,0.1356
575.00,0.1359
574.00,0.1362
573.00,0.1364
572.00,0.1363
571.00,0.1360
570.00,0.1357
569.00,0.1353
568.00,0.1347
567.00,0.1342
566.00,0.1338
565.00,0.1333
564.00,0.1324
563.00,0.1315
562.00,0.1308
561.00,0.1302
560.00,0.1296
559.00,0.1292
558.00,0.1290
557.00,0.1288
556.00,0.1283
555.00,0.1279
554.00,0.1277
553.00,0.1275
552.00,0.1271
551.00,0.1267
550.00,0.1263
549.00,0.1259
548.00,0.1253
547.00,0.1247
546.00,0.1243
545.00,0.1238
544.00,0.1231
543.00,0.1225
542.00,0.1221
541.00,0.1218
540.00,0.1212
539.00,0.1208
538.00,0.1207
537.00,0.1207
536.00,0.1207
535.00,0.1206
534.00,0.1208
533.00,0.1209
532.00,0.1208
531.00,0.1208
530.00,0.1211
529.00,0.1214
528.00,0.1216
527.00,0.1218
526.00,0.1222
525.00,0.1225
524.00,0.1223
523.00,0.1220
522.00,0.1218
521.00,0.1215
520.00,0.1209
519.00,0.1203
518.00,0.1200
517.00,0.1196
516.00,0.1191
515.00,0.1186
514.00,0.1186
513.00,0.1187
512.00,0.1187
511.00,0.1187
510.00,0.1190
509.00,0.1192
508.00,0.1193
507.00,0.1195
506.00,0.1199
505.00,0.1202
504.00,0.1200
503.00,0.1200
502.00,0.1202
501.00,0.1205
500.00,0.1207
499.00,0.1209
498.00,0.1214
497.00,0.1218
496.00,0.1218
495.00,0.1219
494.00,0.1223
493.00,0.1226
492.00,0.1224
491.00,0.1220
490.00,0.1219
489.00,0.1219
488.00,0.1219
487.00,0.1220
486.00,0.1225
485.00,0.1229
484.00,0.1228
483.00,0.1227
482.00,0.1229
481.00,0.1229
480.00,0.1223
479.00,0.1218
478.00,0.1217
477.00,0.1217
476.00,0.1212
475.00,0.1208
474.00,0.1207
473.00,0.1206
472.00,0.1201
471.00,0.1196
470.00,0.1196
469.00,0.1197
468.00,0.1193
467.00,0.1191
466.00,0.1194
465.00,0.1194
464.00,0.1187
463.00,0.1181
462.00,0.1180
461.00,0.1177
460.00,0.1167
459.00,0.1158
458.00,0.1157
457.00,0.1158
456.00,0.1152
455.00,0.1146
454.00,0.1144
453.00,0.1142
452.00,0.1135
451.00,0.1130
450.00,0.1131
449.00,0.1131
448.00,0.1127
447.00,0.1123
446.00,0.1127
445.00,0.1132
444.00,0.1132
443.00,0.1130
442.00,0.1132
441.00,0.1131
440.00,0.1125
439.00,0.1122
438.00,0.1126
437.00,0.1131
436.00,0.1131
435.00,0.1132
434.00,0.1138
433.00,0.1139
432.00,0.1131
431.00,0.1124
430.00,0.1125
429.00,0.1126
428.00,0.1121
427.00,0.1118
426.00,0.1123
425.00,0.1126
424.00,0.1117
423.00,0.1108
422.00,0.1106
421.00,0.1103
420.00,0.1092
419.00,0.1088
418.00,0.1097
417.00,0.1100
416.00,0.1086
415.00,0.1075
414.00,0.1080
413.00,0.1089
412.00,0.1090
411.00,0.1091
410.00,0.1101
409.00,0.1107
408.00,0.1096
407.00,0.1086
406.00,0.1090
405.00,0.1093
404.00,0.1080
403.00,0.1068
402.00,0.1076
401.00,0.1088
400.00,0.1086
