Created as New Dataset,Sample 637 By YargerLab Date Saturday, June 07 2025
cm-1,A
4000.00,0.0099
3999.00,0.0099
3998.00,0.0099
3997.00,0.0099
3996.00,0.0099
3995.00,0.0099
3994.00,0.0099
3993.00,0.0099
3992.00,0.0099
3991.00,0.0099
3990.00,0.0099
3989.00,0.0100
3988.00,0.0100
3987.00,0.0099
3986.00,0.0099
3985.00,0.0099
3984.00,0.0099
3983.00,0.0099
3982.00,0.0099
3981.00,0.0099
3980.00,0.0099
3979.00,0.0099
3978.00,0.0098
3977.00,0.0098
3976.00,0.0099
3975.00,0.0099
3974.00,0.0099
3973.00,0.0099
3972.00,0.0099
3971.00,0.0099
3970.00,0.0098
3969.00,0.0098
3968.00,0.0098
3967.00,0.0098
3966.00,0.0098
3965.00,0.0098
3964.00,0.0098
3963.00,0.0098
3962.00,0.0098
3961.00,0.0098
3960.00,0.0098
3959.00,0.0098
3958.00,0.0098
3957.00,0.0098
3956.00,0.0098
3955.00,0.0098
3954.00,0.0098
3953.00,0.0098
3952.00,0.0098
3951.00,0.0098
3950.00,0.0097
3949.00,0.0097
3948.00,0.0097
3947.00,0.0096
3946.00,0.0096
3945.00,0.0096
3944.00,0.0097
3943.00,0.0097
3942.00,0.0098
3941.00,0.0098
3940.00,0.0098
3939.00,0.0097
3938.00,0.0097
3937.00,0.0097
3936.00,0.0097
3935.00,0.0096
3934.00,0.0095
3933.00,0.0095
3932.00,0.0096
3931.00,0.0097
3930.00,0.0097
3929.00,0.0098
3928.00,0.0098
3927.00,0.0099
3926.00,0.0099
3925.00,0.0099
3924.00,0.0100
3923.00,0.0099
3922.00,0.0098
3921.00,0.0097
3920.00,0.0096
3919.00,0.0096
3918.00,0.0096
3917.00,0.0096
3916.00,0.0097
3915.00,0.0097
3914.00,0.0098
3913.00,0.0098
3912.00,0.0098
3911.00,0.0098
3910.00,0.0098
3909.00,0.0098
3908.00,0.0097
3907.00,0.0097
3906.00,0.0096
3905.00,0.0095
3904.00,0.0093
3903.00,0.0091
3902.00,0.0090
3901.00,0.0089
3900.00,0.0090
3899.00,0.0091
3898.00,0.0092
3897.00,0.0092
3896.00,0.0093
3895.00,0.0093
3894.00,0.0094
3893.00,0.0095
3892.00,0.0095
3891.00,0.0095
3890.00,0.0094
3889.00,0.0093
3888.00,0.0092
3887.00,0.0090
3886.00,0.0090
3885.00,0.0091
3884.00,0.0091
3883.00,0.0091
3882.00,0.0090
3881.00,0.0091
3880.00,0.0091
3879.00,0.0092
3878.00,0.0092
3877.00,0.0091
3876.00,0.0091
3875.00,0.0091
3874.00,0.0092
3873.00,0.0093
3872.00,0.0091
3871.00,0.0090
3870.00,0.0089
3869.00,0.0089
3868.00,0.0090
3867.00,0.0089
3866.00,0.0088
3865.00,0.0088
3864.00,0.0090
3863.00,0.0090
3862.00,0.0090
3861.00,0.0089
3860.00,0.0090
3859.00,0.0091
3858.00,0.0093
3857.00,0.0095
3856.00,0.0096
3855.00,0.0096
3854.00,0.0094
3853.00,0.0092
3852.00,0.0090
3851.00,0.0089
3850.00,0.0088
3849.00,0.0088
3848.00,0.0088
3847.00,0.0089
3846.00,0.0089
3845.00,0.0089
3844.00,0.0089
3843.00,0.0089
3842.00,0.0089
3841.00,0.0089
3840.00,0.0088
3839.00,0.0089
3838.00,0.0089
3837.00,0.0089
3836.00,0.0089
3835.00,0.0089
3834.00,0.0089
3833.00,0.0089
3832.00,0.0089
3831.00,0.0089
3830.00,0.0089
3829.00,0.0089
3828.00,0.0089
3827.00,0.0090
3826.00,0.0090
3825.00,0.0090
3824.00,0.0089
3823.00,0.0088
3822.00,0.0088
3821.00,0.0088
3820.00,0.0089
3819.00,0.0090
3818.00,0.0089
3817.00,0.0088
3816.00,0.0088
3815.00,0.0090
3814.00,0.0091
3813.00,0.0091
3812.00,0.0092
3811.00,0.0092
3810.00,0.0093
3809.00,0.0093
3808.00,0.0092
3807.00,0.0091
3806.00,0.0091
3805.00,0.0090
3804.00,0.0089
3803.00,0.0088
3802.00,0.0088
3801.00,0.0089
3800.00,0.0089
3799.00,0.0089
3798.00,0.0088
3797.00,0.0089
3796.00,0.0090
3795.00,0.0091
3794.00,0.0092
3793.00,0.0092
3792.00,0.0093
3791.00,0.0093
3790.00,0.0094
3789.00,0.0094
3788.00,0.0093
3787.00,0.0093
3786.00,0.0093
3785.00,0.0093
3784.00,0.0093
3783.00,0.0092
3782.00,0.0092
3781.00,0.0091
3780.00,0.0091
3779.00,0.0091
3778.00,0.0092
3777.00,0.0092
3776.00,0.0091
3775.00,0.0091
3774.00,0.0091
3773.00,0.0091
3772.00,0.0091
3771.00,0.0090
3770.00,0.0089
3769.00,0.0089
3768.00,0.0089
3767.00,0.0088
3766.00,0.0088
3765.00,0.0089
3764.00,0.0089
3763.00,0.0089
3762.00,0.0088
3761.00,0.0088
3760.00,0.0087
3759.00,0.0087
3758.00,0.0087
3757.00,0.0087
3756.00,0.0086
3755.00,0.0086
3754.00,0.0085
3753.00,0.0084
3752.00,0.0084
3751.00,0.0083
3750.00,0.0082
3749.00,0.0081
3748.00,0.0081
3747.00,0.0081
3746.00,0.0080
3745.00,0.0080
3744.00,0.0080
3743.00,0.0081
3742.00,0.0081
3741.00,0.0080
3740.00,0.0079
3739.00,0.0078
3738.00,0.0077
3737.00,0.0077
3736.00,0.0077
3735.00,0.0079
3734.00,0.0079
3733.00,0.0080
3732.00,0.0080
3731.00,0.0081
3730.00,0.0083
3729.00,0.0083
3728.00,0.0083
3727.00,0.0083
3726.00,0.0084
3725.00,0.0084
3724.00,0.0084
3723.00,0.0084
3722.00,0.0084
3721.00,0.0085
3720.00,0.0086
3719.00,0.0086
3718.00,0.0086
3717.00,0.0087
3716.00,0.0087
3715.00,0.0087
3714.00,0.0086
3713.00,0.0085
3712.00,0.0084
3711.00,0.0084
3710.00,0.0083
3709.00,0.0083
3708.00,0.0083
3707.00,0.0084
3706.00,0.0085
3705.00,0.0085
3704.00,0.0086
3703.00,0.0086
3702.00,0.0086
3701.00,0.0087
3700.00,0.0087
3699.00,0.0086
3698.00,0.0086
3697.00,0.0086
3696.00,0.0086
3695.00,0.0087
3694.00,0.0086
3693.00,0.0086
3692.00,0.0086
3691.00,0.0086
3690.00,0.0085
3689.00,0.0084
3688.00,0.0083
3687.00,0.0082
3686.00,0.0083
3685.00,0.0083
3684.00,0.0084
3683.00,0.0084
3682.00,0.0083
3681.00,0.0083
3680.00,0.0083
3679.00,0.0083
3678.00,0.0082
3677.00,0.0081
3676.00,0.0080
3675.00,0.0080
3674.00,0.0081
3673.00,0.0080
3672.00,0.0079
3671.00,0.0078
3670.00,0.0079
3669.00,0.0081
3668.00,0.0081
3667.00,0.0082
3666.00,0.0082
3665.00,0.0082
3664.00,0.0083
3663.00,0.0084
3662.00,0.0085
3661.00,0.0085
3660.00,0.0085
3659.00,0.0085
3658.00,0.0084
3657.00,0.0083
3656.00,0.0082
3655.00,0.0081
3654.00,0.0080
3653.00,0.0078
3652.00,0.0076
3651.00,0.0076
3650.00,0.0075
3649.00,0.0075
3648.00,0.0074
3647.00,0.0074
3646.00,0.0075
3645.00,0.0077
3644.00,0.0078
3643.00,0.0080
3642.00,0.0081
3641.00,0.0082
3640.00,0.0082
3639.00,0.0082
3638.00,0.0082
3637.00,0.0081
3636.00,0.0081
3635.00,0.0080
3634.00,0.0080
3633.00,0.0080
3632.00,0.0079
3631.00,0.0078
3630.00,0.0077
3629.00,0.0077
3628.00,0.0077
3627.00,0.0077
3626.00,0.0076
3625.00,0.0076
3624.00,0.0077
3623.00,0.0078
3622.00,0.0078
3621.00,0.0079
3620.00,0.0079
3619.00,0.0079
3618.00,0.0077
3617.00,0.0076
3616.00,0.0075
3615.00,0.0075
3614.00,0.0075
3613.00,0.0075
3612.00,0.0075
3611.00,0.0075
3610.00,0.0074
3609.00,0.0074
3608.00,0.0075
3607.00,0.0076
3606.00,0.0077
3605.00,0.0078
3604.00,0.0078
3603.00,0.0079
3602.00,0.0079
3601.00,0.0079
3600.00,0.0079
3599.00,0.0079
3598.00,0.0078
3597.00,0.0078
3596.00,0.0078
3595.00,0.0078
3594.00,0.0078
3593.00,0.0077
3592.00,0.0077
3591.00,0.0076
3590.00,0.0075
3589.00,0.0076
3588.00,0.0076
3587.00,0.0077
3586.00,0.0077
3585.00,0.0077
3584.00,0.0077
3583.00,0.0077
3582.00,0.0078
3581.00,0.0079
3580.00,0.0079
3579.00,0.0080
3578.00,0.0080
3577.00,0.0080
3576.00,0.0080
3575.00,0.0080
3574.00,0.0080
3573.00,0.0080
3572.00,0.0079
3571.00,0.0078
3570.00,0.0077
3569.00,0.0075
3568.00,0.0075
3567.00,0.0075
3566.00,0.0075
3565.00,0.0075
3564.00,0.0076
3563.00,0.0076
3562.00,0.0077
3561.00,0.0078
3560.00,0.0079
3559.00,0.0079
3558.00,0.0080
3557.00,0.0080
3556.00,0.0080
3555.00,0.0079
3554.00,0.0079
3553.00,0.0079
3552.00,0.0079
3551.00,0.0079
3550.00,0.0079
3549.00,0.0078
3548.00,0.0077
3547.00,0.0076
3546.00,0.0077
3545.00,0.0077
3544.00,0.0078
3543.00,0.0078
3542.00,0.0079
3541.00,0.0080
3540.00,0.0080
3539.00,0.0080
3538.00,0.0080
3537.00,0.0080
3536.00,0.0080
3535.00,0.0080
3534.00,0.0080
3533.00,0.0079
3532.00,0.0079
3531.00,0.0079
3530.00,0.0079
3529.00,0.0079
3528.00,0.0079
3527.00,0.0078
3526.00,0.0078
3525.00,0.0078
3524.00,0.0078
3523.00,0.0078
3522.00,0.0078
3521.00,0.0079
3520.00,0.0079
3519.00,0.0079
3518.00,0.0079
3517.00,0.0079
3516.00,0.0079
3515.00,0.0079
3514.00,0.0079
3513.00,0.0079
3512.00,0.0079
3511.00,0.0079
3510.00,0.0079
3509.00,0.0079
3508.00,0.0079
3507.00,0.0079
3506.00,0.0078
3505.00,0.0078
3504.00,0.0078
3503.00,0.0078
3502.00,0.0078
3501.00,0.0078
3500.00,0.0078
3499.00,0.0078
3498.00,0.0078
3497.00,0.0079
3496.00,0.0079
3495.00,0.0079
3494.00,0.0079
3493.00,0.0079
3492.00,0.0079
3491.00,0.0078
3490.00,0.0079
3489.00,0.0079
3488.00,0.0079
3487.00,0.0079
3486.00,0.0078
3485.00,0.0078
3484.00,0.0078
3483.00,0.0078
3482.00,0.0078
3481.00,0.0078
3480.00,0.0078
3479.00,0.0078
3478.00,0.0079
3477.00,0.0079
3476.00,0.0079
3475.00,0.0079
3474.00,0.0078
3473.00,0.0078
3472.00,0.0078
3471.00,0.0078
3470.00,0.0078
3469.00,0.0078
3468.00,0.0078
3467.00,0.0078
3466.00,0.0078
3465.00,0.0078
3464.00,0.0078
3463.00,0.0078
3462.00,0.0078
3461.00,0.0078
3460.00,0.0078
3459.00,0.0078
3458.00,0.0078
3457.00,0.0078
3456.00,0.0078
3455.00,0.0078
3454.00,0.0078
3453.00,0.0079
3452.00,0.0079
3451.00,0.0079
3450.00,0.0079
3449.00,0.0079
3448.00,0.0079
3447.00,0.0079
3446.00,0.0079
3445.00,0.0079
3444.00,0.0079
3443.00,0.0079
3442.00,0.0079
3441.00,0.0079
3440.00,0.0079
3439.00,0.0079
3438.00,0.0079
3437.00,0.0079
3436.00,0.0079
3435.00,0.0080
3434.00,0.0080
3433.00,0.0081
3432.00,0.0081
3431.00,0.0082
3430.00,0.0082
3429.00,0.0083
3428.00,0.0083
3427.00,0.0084
3426.00,0.0084
3425.00,0.0085
3424.00,0.0085
3423.00,0.0086
3422.00,0.0087
3421.00,0.0088
3420.00,0.0089
3419.00,0.0090
3418.00,0.0091
3417.00,0.0092
3416.00,0.0092
3415.00,0.0093
3414.00,0.0095
3413.00,0.0096
3412.00,0.0098
3411.00,0.0100
3410.00,0.0102
3409.00,0.0104
3408.00,0.0106
3407.00,0.0109
3406.00,0.0112
3405.00,0.0114
3404.00,0.0116
3403.00,0.0119
3402.00,0.0121
3401.00,0.0125
3400.00,0.0129
3399.00,0.0135
3398.00,0.0141
3397.00,0.0147
3396.00,0.0154
3395.00,0.0160
3394.00,0.0167
3393.00,0.0174
3392.00,0.0184
3391.00,0.0194
3390.00,0.0207
3389.00,0.0221
3388.00,0.0236
3387.00,0.0252
3386.00,0.0271
3385.00,0.0291
3384.00,0.0313
3383.00,0.0337
3382.00,0.0363
3381.00,0.0391
3380.00,0.0421
3379.00,0.0452
3378.00,0.0483
3377.00,0.0514
3376.00,0.0543
3375.00,0.0570
3374.00,0.0592
3373.00,0.0610
3372.00,0.0622
3371.00,0.0630
3370.00,0.0632
3369.00,0.0631
3368.00,0.0627
3367.00,0.0619
3366.00,0.0608
3365.00,0.0596
3364.00,0.0581
3363.00,0.0564
3362.00,0.0546
3361.00,0.0528
3360.00,0.0509
3359.00,0.0490
3358.00,0.0472
3357.00,0.0454
3356.00,0.0436
3355.00,0.0418
3354.00,0.0401
3353.00,0.0384
3352.00,0.0369
3351.00,0.0355
3350.00,0.0342
3349.00,0.0330
3348.00,0.0318
3347.00,0.0307
3346.00,0.0297
3345.00,0.0287
3344.00,0.0278
3343.00,0.0269
3342.00,0.0262
3341.00,0.0254
3340.00,0.0248
3339.00,0.0241
3338.00,0.0235
3337.00,0.0230
3336.00,0.0225
3335.00,0.0221
3334.00,0.0216
3333.00,0.0212
3332.00,0.0208
3331.00,0.0205
3330.00,0.0201
3329.00,0.0198
3328.00,0.0195
3327.00,0.0192
3326.00,0.0190
3325.00,0.0187
3324.00,0.0185
3323.00,0.0183
3322.00,0.0181
3321.00,0.0180
3320.00,0.0178
3319.00,0.0176
3318.00,0.0175
3317.00,0.0174
3316.00,0.0172
3315.00,0.0171
3314.00,0.0169
3313.00,0.0167
3312.00,0.0166
3311.00,0.0164
3310.00,0.0163
3309.00,0.0162
3308.00,0.0160
3307.00,0.0159
3306.00,0.0158
3305.00,0.0158
3304.00,0.0157
3303.00,0.0156
3302.00,0.0156
3301.00,0.0154
3300.00,0.0153
3299.00,0.0152
3298.00,0.0150
3297.00,0.0148
3296.00,0.0146
3295.00,0.0145
3294.00,0.0143
3293.00,0.0142
3292.00,0.0141
3291.00,0.0140
3290.00,0.0140
3289.00,0.0139
3288.00,0.0138
3287.00,0.0137
3286.00,0.0135
3285.00,0.0134
3284.00,0.0133
3283.00,0.0131
3282.00,0.0130
3281.00,0.0128
3280.00,0.0127
3279.00,0.0126
3278.00,0.0124
3277.00,0.0123
3276.00,0.0121
3275.00,0.0120
3274.00,0.0119
3273.00,0.0118
3272.00,0.0117
3271.00,0.0117
3270.00,0.0117
3269.00,0.0117
3268.00,0.0117
3267.00,0.0117
3266.00,0.0117
3265.00,0.0117
3264.00,0.0117
3263.00,0.0117
3262.00,0.0117
3261.00,0.0116
3260.00,0.0116
3259.00,0.0115
3258.00,0.0115
3257.00,0.0115
3256.00,0.0115
3255.00,0.0116
3254.00,0.0116
3253.00,0.0116
3252.00,0.0117
3251.00,0.0117
3250.00,0.0116
3249.00,0.0116
3248.00,0.0116
3247.00,0.0116
3246.00,0.0117
3245.00,0.0118
3244.00,0.0118
3243.00,0.0119
3242.00,0.0119
3241.00,0.0120
3240.00,0.0120
3239.00,0.0119
3238.00,0.0119
3237.00,0.0118
3236.00,0.0118
3235.00,0.0117
3234.00,0.0116
3233.00,0.0117
3232.00,0.0117
3231.00,0.0117
3230.00,0.0118
3229.00,0.0118
3228.00,0.0117
3227.00,0.0117
3226.00,0.0116
3225.00,0.0115
3224.00,0.0114
3223.00,0.0113
3222.00,0.0112
3221.00,0.0111
3220.00,0.0110
3219.00,0.0109
3218.00,0.0108
3217.00,0.0108
3216.00,0.0107
3215.00,0.0106
3214.00,0.0106
3213.00,0.0105
3212.00,0.0105
3211.00,0.0104
3210.00,0.0104
3209.00,0.0103
3208.00,0.0103
3207.00,0.0102
3206.00,0.0101
3205.00,0.0101
3204.00,0.0100
3203.00,0.0100
3202.00,0.0100
3201.00,0.0100
3200.00,0.0100
3199.00,0.0099
3198.00,0.0099
3197.00,0.0098
3196.00,0.0098
3195.00,0.0098
3194.00,0.0098
3193.00,0.0097
3192.00,0.0097
3191.00,0.0097
3190.00,0.0097
3189.00,0.0096
3188.00,0.0096
3187.00,0.0096
3186.00,0.0096
3185.00,0.0096
3184.00,0.0096
3183.00,0.0096
3182.00,0.0096
3181.00,0.0095
3180.00,0.0095
3179.00,0.0095
3178.00,0.0095
3177.00,0.0094
3176.00,0.0094
3175.00,0.0094
3174.00,0.0094
3173.00,0.0094
3172.00,0.0094
3171.00,0.0094
3170.00,0.0094
3169.00,0.0094
3168.00,0.0094
3167.00,0.0094
3166.00,0.0094
3165.00,0.0094
3164.00,0.0094
3163.00,0.0094
3162.00,0.0094
3161.00,0.0094
3160.00,0.0094
3159.00,0.0094
3158.00,0.0094
3157.00,0.0093
3156.00,0.0093
3155.00,0.0093
3154.00,0.0093
3153.00,0.0093
3152.00,0.0093
3151.00,0.0094
3150.00,0.0094
3149.00,0.0094
3148.00,0.0095
3147.00,0.0095
3146.00,0.0095
3145.00,0.0095
3144.00,0.0095
3143.00,0.0095
3142.00,0.0095
3141.00,0.0095
3140.00,0.0095
3139.00,0.0095
3138.00,0.0095
3137.00,0.0095
3136.00,0.0096
3135.00,0.0096
3134.00,0.0096
3133.00,0.0097
3132.00,0.0097
3131.00,0.0097
3130.00,0.0098
3129.00,0.0098
3128.00,0.0099
3127.00,0.0099
3126.00,0.0100
3125.00,0.0100
3124.00,0.0100
3123.00,0.0100
3122.00,0.0100
3121.00,0.0101
3120.00,0.0101
3119.00,0.0102
3118.00,0.0102
3117.00,0.0103
3116.00,0.0103
3115.00,0.0104
3114.00,0.0105
3113.00,0.0107
3112.00,0.0108
3111.00,0.0108
3110.00,0.0109
3109.00,0.0110
3108.00,0.0111
3107.00,0.0112
3106.00,0.0113
3105.00,0.0114
3104.00,0.0115
3103.00,0.0115
3102.00,0.0116
3101.00,0.0116
3100.00,0.0117
3099.00,0.0117
3098.00,0.0117
3097.00,0.0117
3096.00,0.0117
3095.00,0.0116
3094.00,0.0116
3093.00,0.0116
3092.00,0.0115
3091.00,0.0115
3090.00,0.0114
3089.00,0.0113
3088.00,0.0113
3087.00,0.0112
3086.00,0.0112
3085.00,0.0112
3084.00,0.0112
3083.00,0.0111
3082.00,0.0111
3081.00,0.0111
3080.00,0.0112
3079.00,0.0112
3078.00,0.0113
3077.00,0.0114
3076.00,0.0115
3075.00,0.0116
3074.00,0.0118
3073.00,0.0120
3072.00,0.0121
3071.00,0.0122
3070.00,0.0122
3069.00,0.0122
3068.00,0.0121
3067.00,0.0119
3066.00,0.0117
3065.00,0.0114
3064.00,0.0112
3063.00,0.0110
3062.00,0.0108
3061.00,0.0106
3060.00,0.0105
3059.00,0.0104
3058.00,0.0104
3057.00,0.0104
3056.00,0.0105
3055.00,0.0105
3054.00,0.0106
3053.00,0.0106
3052.00,0.0106
3051.00,0.0105
3050.00,0.0104
3049.00,0.0104
3048.00,0.0103
3047.00,0.0102
3046.00,0.0101
3045.00,0.0100
3044.00,0.0099
3043.00,0.0099
3042.00,0.0099
3041.00,0.0099
3040.00,0.0099
3039.00,0.0099
3038.00,0.0100
3037.00,0.0100
3036.00,0.0100
3035.00,0.0100
3034.00,0.0100
3033.00,0.0101
3032.00,0.0102
3031.00,0.0103
3030.00,0.0104
3029.00,0.0105
3028.00,0.0105
3027.00,0.0106
3026.00,0.0108
3025.00,0.0109
3024.00,0.0110
3023.00,0.0112
3022.00,0.0113
3021.00,0.0115
3020.00,0.0116
3019.00,0.0117
3018.00,0.0118
3017.00,0.0120
3016.00,0.0121
3015.00,0.0122
3014.00,0.0123
3013.00,0.0124
3012.00,0.0126
3011.00,0.0128
3010.00,0.0131
3009.00,0.0134
3008.00,0.0137
3007.00,0.0140
3006.00,0.0143
3005.00,0.0146
3004.00,0.0150
3003.00,0.0153
3002.00,0.0157
3001.00,0.0160
3000.00,0.0164
2999.00,0.0169
2998.00,0.0174
2997.00,0.0179
2996.00,0.0185
2995.00,0.0190
2994.00,0.0196
2993.00,0.0201
2992.00,0.0205
2991.00,0.0209
2990.00,0.0213
2989.00,0.0215
2988.00,0.0217
2987.00,0.0218
2986.00,0.0219
2985.00,0.0220
2984.00,0.0221
2983.00,0.0222
2982.00,0.0223
2981.00,0.0223
2980.00,0.0222
2979.00,0.0219
2978.00,0.0214
2977.00,0.0208
2976.00,0.0201
2975.00,0.0194
2974.00,0.0188
2973.00,0.0182
2972.00,0.0178
2971.00,0.0174
2970.00,0.0172
2969.00,0.0170
2968.00,0.0169
2967.00,0.0169
2966.00,0.0170
2965.00,0.0172
2964.00,0.0174
2963.00,0.0177
2962.00,0.0181
2961.00,0.0185
2960.00,0.0190
2959.00,0.0194
2958.00,0.0199
2957.00,0.0203
2956.00,0.0208
2955.00,0.0212
2954.00,0.0217
2953.00,0.0223
2952.00,0.0229
2951.00,0.0235
2950.00,0.0239
2949.00,0.0242
2948.00,0.0243
2947.00,0.0243
2946.00,0.0241
2945.00,0.0238
2944.00,0.0235
2943.00,0.0231
2942.00,0.0228
2941.00,0.0224
2940.00,0.0220
2939.00,0.0216
2938.00,0.0212
2937.00,0.0209
2936.00,0.0205
2935.00,0.0201
2934.00,0.0197
2933.00,0.0193
2932.00,0.0188
2931.00,0.0182
2930.00,0.0177
2929.00,0.0173
2928.00,0.0169
2927.00,0.0166
2926.00,0.0163
2925.00,0.0160
2924.00,0.0157
2923.00,0.0154
2922.00,0.0151
2921.00,0.0148
2920.00,0.0146
2919.00,0.0144
2918.00,0.0142
2917.00,0.0141
2916.00,0.0140
2915.00,0.0140
2914.00,0.0139
2913.00,0.0140
2912.00,0.0140
2911.00,0.0141
2910.00,0.0142
2909.00,0.0143
2908.00,0.0143
2907.00,0.0144
2906.00,0.0145
2905.00,0.0145
2904.00,0.0145
2903.00,0.0146
2902.00,0.0146
2901.00,0.0146
2900.00,0.0145
2899.00,0.0145
2898.00,0.0144
2897.00,0.0142
2896.00,0.0141
2895.00,0.0140
2894.00,0.0138
2893.00,0.0137
2892.00,0.0137
2891.00,0.0136
2890.00,0.0135
2889.00,0.0135
2888.00,0.0134
2887.00,0.0133
2886.00,0.0132
2885.00,0.0131
2884.00,0.0131
2883.00,0.0130
2882.00,0.0129
2881.00,0.0128
2880.00,0.0128
2879.00,0.0127
2878.00,0.0126
2877.00,0.0125
2876.00,0.0125
2875.00,0.0124
2874.00,0.0123
2873.00,0.0122
2872.00,0.0121
2871.00,0.0119
2870.00,0.0118
2869.00,0.0116
2868.00,0.0115
2867.00,0.0114
2866.00,0.0113
2865.00,0.0113
2864.00,0.0112
2863.00,0.0111
2862.00,0.0111
2861.00,0.0110
2860.00,0.0110
2859.00,0.0110
2858.00,0.0110
2857.00,0.0110
2856.00,0.0110
2855.00,0.0111
2854.00,0.0111
2853.00,0.0112
2852.00,0.0112
2851.00,0.0112
2850.00,0.0111
2849.00,0.0111
2848.00,0.0111
2847.00,0.0111
2846.00,0.0112
2845.00,0.0112
2844.00,0.0113
2843.00,0.0114
2842.00,0.0114
2841.00,0.0115
2840.00,0.0115
2839.00,0.0115
2838.00,0.0116
2837.00,0.0116
2836.00,0.0115
2835.00,0.0115
2834.00,0.0114
2833.00,0.0113
2832.00,0.0112
2831.00,0.0111
2830.00,0.0111
2829.00,0.0110
2828.00,0.0109
2827.00,0.0108
2826.00,0.0107
2825.00,0.0105
2824.00,0.0104
2823.00,0.0104
2822.00,0.0103
2821.00,0.0103
2820.00,0.0103
2819.00,0.0103
2818.00,0.0103
2817.00,0.0104
2816.00,0.0104
2815.00,0.0104
2814.00,0.0104
2813.00,0.0105
2812.00,0.0105
2811.00,0.0105
2810.00,0.0105
2809.00,0.0106
2808.00,0.0106
2807.00,0.0106
2806.00,0.0106
2805.00,0.0106
2804.00,0.0106
2803.00,0.0106
2802.00,0.0106
2801.00,0.0106
2800.00,0.0105
2799.00,0.0105
2798.00,0.0104
2797.00,0.0103
2796.00,0.0103
2795.00,0.0102
2794.00,0.0101
2793.00,0.0100
2792.00,0.0099
2791.00,0.0098
2790.00,0.0097
2789.00,0.0096
2788.00,0.0095
2787.00,0.0095
2786.00,0.0094
2785.00,0.0093
2784.00,0.0093
2783.00,0.0092
2782.00,0.0091
2781.00,0.0091
2780.00,0.0090
2779.00,0.0090
2778.00,0.0089
2777.00,0.0089
2776.00,0.0089
2775.00,0.0088
2774.00,0.0088
2773.00,0.0088
2772.00,0.0088
2771.00,0.0088
2770.00,0.0088
2769.00,0.0088
2768.00,0.0088
2767.00,0.0088
2766.00,0.0088
2765.00,0.0088
2764.00,0.0088
2763.00,0.0088
2762.00,0.0088
2761.00,0.0088
2760.00,0.0088
2759.00,0.0088
2758.00,0.0087
2757.00,0.0087
2756.00,0.0087
2755.00,0.0087
2754.00,0.0087
2753.00,0.0086
2752.00,0.0086
2751.00,0.0086
2750.00,0.0086
2749.00,0.0085
2748.00,0.0085
2747.00,0.0085
2746.00,0.0085
2745.00,0.0085
2744.00,0.0085
2743.00,0.0085
2742.00,0.0084
2741.00,0.0084
2740.00,0.0084
2739.00,0.0084
2738.00,0.0084
2737.00,0.0083
2736.00,0.0083
2735.00,0.0083
2734.00,0.0083
2733.00,0.0083
2732.00,0.0083
2731.00,0.0083
2730.00,0.0082
2729.00,0.0082
2728.00,0.0082
2727.00,0.0081
2726.00,0.0081
2725.00,0.0081
2724.00,0.0081
2723.00,0.0081
2722.00,0.0080
2721.00,0.0080
2720.00,0.0080
2719.00,0.0080
2718.00,0.0080
2717.00,0.0080
2716.00,0.0080
2715.00,0.0080
2714.00,0.0079
2713.00,0.0079
2712.00,0.0079
2711.00,0.0079
2710.00,0.0079
2709.00,0.0080
2708.00,0.0080
2707.00,0.0080
2706.00,0.0080
2705.00,0.0080
2704.00,0.0081
2703.00,0.0081
2702.00,0.0081
2701.00,0.0081
2700.00,0.0081
2699.00,0.0081
2698.00,0.0081
2697.00,0.0081
2696.00,0.0081
2695.00,0.0081
2694.00,0.0080
2693.00,0.0080
2692.00,0.0080
2691.00,0.0080
2690.00,0.0080
2689.00,0.0080
2688.00,0.0080
2687.00,0.0080
2686.00,0.0079
2685.00,0.0079
2684.00,0.0079
2683.00,0.0079
2682.00,0.0079
2681.00,0.0079
2680.00,0.0079
2679.00,0.0079
2678.00,0.0078
2677.00,0.0078
2676.00,0.0078
2675.00,0.0078
2674.00,0.0078
2673.00,0.0078
2672.00,0.0078
2671.00,0.0078
2670.00,0.0078
2669.00,0.0078
2668.00,0.0078
2667.00,0.0079
2666.00,0.0079
2665.00,0.0080
2664.00,0.0081
2663.00,0.0081
2662.00,0.0082
2661.00,0.0082
2660.00,0.0082
2659.00,0.0083
2658.00,0.0083
2657.00,0.0083
2656.00,0.0083
2655.00,0.0083
2654.00,0.0083
2653.00,0.0083
2652.00,0.0083
2651.00,0.0083
2650.00,0.0083
2649.00,0.0083
2648.00,0.0083
2647.00,0.0083
2646.00,0.0083
2645.00,0.0083
2644.00,0.0083
2643.00,0.0083
2642.00,0.0083
2641.00,0.0083
2640.00,0.0083
2639.00,0.0083
2638.00,0.0083
2637.00,0.0083
2636.00,0.0083
2635.00,0.0084
2634.00,0.0084
2633.00,0.0084
2632.00,0.0084
2631.00,0.0084
2630.00,0.0084
2629.00,0.0084
2628.00,0.0084
2627.00,0.0084
2626.00,0.0084
2625.00,0.0084
2624.00,0.0084
2623.00,0.0084
2622.00,0.0085
2621.00,0.0085
2620.00,0.0085
2619.00,0.0085
2618.00,0.0085
2617.00,0.0085
2616.00,0.0085
2615.00,0.0085
2614.00,0.0085
2613.00,0.0085
2612.00,0.0085
2611.00,0.0085
2610.00,0.0085
2609.00,0.0085
2608.00,0.0085
2607.00,0.0085
2606.00,0.0084
2605.00,0.0084
2604.00,0.0084
2603.00,0.0084
2602.00,0.0084
2601.00,0.0084
2600.00,0.0084
2599.00,0.0084
2598.00,0.0084
2597.00,0.0083
2596.00,0.0083
2595.00,0.0083
2594.00,0.0083
2593.00,0.0083
2592.00,0.0082
2591.00,0.0082
2590.00,0.0081
2589.00,0.0081
2588.00,0.0081
2587.00,0.0081
2586.00,0.0080
2585.00,0.0080
2584.00,0.0079
2583.00,0.0079
2582.00,0.0078
2581.00,0.0078
2580.00,0.0079
2579.00,0.0079
2578.00,0.0078
2577.00,0.0078
2576.00,0.0078
2575.00,0.0078
2574.00,0.0078
2573.00,0.0078
2572.00,0.0078
2571.00,0.0078
2570.00,0.0078
2569.00,0.0078
2568.00,0.0078
2567.00,0.0077
2566.00,0.0077
2565.00,0.0077
2564.00,0.0077
2563.00,0.0077
2562.00,0.0077
2561.00,0.0078
2560.00,0.0078
2559.00,0.0078
2558.00,0.0078
2557.00,0.0078
2556.00,0.0078
2555.00,0.0078
2554.00,0.0078
2553.00,0.0077
2552.00,0.0077
2551.00,0.0077
2550.00,0.0077
2549.00,0.0077
2548.00,0.0076
2547.00,0.0076
2546.00,0.0076
2545.00,0.0075
2544.00,0.0075
2543.00,0.0074
2542.00,0.0074
2541.00,0.0073
2540.00,0.0073
2539.00,0.0073
2538.00,0.0073
2537.00,0.0073
2536.00,0.0073
2535.00,0.0072
2534.00,0.0072
2533.00,0.0072
2532.00,0.0071
2531.00,0.0071
2530.00,0.0071
2529.00,0.0071
2528.00,0.0071
2527.00,0.0071
2526.00,0.0072
2525.00,0.0072
2524.00,0.0073
2523.00,0.0073
2522.00,0.0074
2521.00,0.0074
2520.00,0.0074
2519.00,0.0074
2518.00,0.0074
2517.00,0.0075
2516.00,0.0075
2515.00,0.0075
2514.00,0.0075
2513.00,0.0075
2512.00,0.0075
2511.00,0.0075
2510.00,0.0075
2509.00,0.0075
2508.00,0.0075
2507.00,0.0074
2506.00,0.0074
2505.00,0.0074
2504.00,0.0074
2503.00,0.0074
2502.00,0.0074
2501.00,0.0074
2500.00,0.0074
2499.00,0.0074
2498.00,0.0074
2497.00,0.0073
2496.00,0.0074
2495.00,0.0074
2494.00,0.0074
2493.00,0.0073
2492.00,0.0073
2491.00,0.0073
2490.00,0.0072
2489.00,0.0072
2488.00,0.0072
2487.00,0.0073
2486.00,0.0073
2485.00,0.0073
2484.00,0.0074
2483.00,0.0074
2482.00,0.0073
2481.00,0.0073
2480.00,0.0073
2479.00,0.0074
2478.00,0.0074
2477.00,0.0074
2476.00,0.0074
2475.00,0.0073
2474.00,0.0073
2473.00,0.0072
2472.00,0.0072
2471.00,0.0072
2470.00,0.0072
2469.00,0.0072
2468.00,0.0072
2467.00,0.0072
2466.00,0.0072
2465.00,0.0072
2464.00,0.0072
2463.00,0.0073
2462.00,0.0073
2461.00,0.0073
2460.00,0.0073
2459.00,0.0073
2458.00,0.0073
2457.00,0.0073
2456.00,0.0072
2455.00,0.0072
2454.00,0.0072
2453.00,0.0072
2452.00,0.0072
2451.00,0.0072
2450.00,0.0072
2449.00,0.0071
2448.00,0.0071
2447.00,0.0070
2446.00,0.0070
2445.00,0.0069
2444.00,0.0070
2443.00,0.0070
2442.00,0.0070
2441.00,0.0070
2440.00,0.0070
2439.00,0.0070
2438.00,0.0069
2437.00,0.0069
2436.00,0.0069
2435.00,0.0068
2434.00,0.0068
2433.00,0.0068
2432.00,0.0068
2431.00,0.0068
2430.00,0.0068
2429.00,0.0068
2428.00,0.0068
2427.00,0.0068
2426.00,0.0068
2425.00,0.0068
2424.00,0.0068
2423.00,0.0068
2422.00,0.0068
2421.00,0.0068
2420.00,0.0068
2419.00,0.0068
2418.00,0.0068
2417.00,0.0068
2416.00,0.0068
2415.00,0.0069
2414.00,0.0069
2413.00,0.0068
2412.00,0.0068
2411.00,0.0068
2410.00,0.0067
2409.00,0.0066
2408.00,0.0066
2407.00,0.0065
2406.00,0.0065
2405.00,0.0064
2404.00,0.0065
2403.00,0.0065
2402.00,0.0064
2401.00,0.0064
2400.00,0.0064
2399.00,0.0064
2398.00,0.0063
2397.00,0.0063
2396.00,0.0062
2395.00,0.0062
2394.00,0.0062
2393.00,0.0062
2392.00,0.0062
2391.00,0.0062
2390.00,0.0062
2389.00,0.0062
2388.00,0.0062
2387.00,0.0062
2386.00,0.0061
2385.00,0.0061
2384.00,0.0060
2383.00,0.0059
2382.00,0.0058
2381.00,0.0058
2380.00,0.0058
2379.00,0.0057
2378.00,0.0057
2377.00,0.0057
2376.00,0.0058
2375.00,0.0058
2374.00,0.0058
2373.00,0.0057
2372.00,0.0057
2371.00,0.0056
2370.00,0.0055
2369.00,0.0054
2368.00,0.0054
2367.00,0.0055
2366.00,0.0055
2365.00,0.0056
2364.00,0.0057
2363.00,0.0058
2362.00,0.0057
2361.00,0.0057
2360.00,0.0057
2359.00,0.0057
2358.00,0.0057
2357.00,0.0058
2356.00,0.0058
2355.00,0.0059
2354.00,0.0058
2353.00,0.0058
2352.00,0.0058
2351.00,0.0058
2350.00,0.0058
2349.00,0.0059
2348.00,0.0059
2347.00,0.0059
2346.00,0.0059
2345.00,0.0059
2344.00,0.0060
2343.00,0.0060
2342.00,0.0061
2341.00,0.0061
2340.00,0.0062
2339.00,0.0062
2338.00,0.0062
2337.00,0.0062
2336.00,0.0062
2335.00,0.0062
2334.00,0.0063
2333.00,0.0063
2332.00,0.0062
2331.00,0.0062
2330.00,0.0063
2329.00,0.0064
2328.00,0.0068
2327.00,0.0072
2326.00,0.0075
2325.00,0.0075
2324.00,0.0074
2323.00,0.0072
2322.00,0.0069
2321.00,0.0068
2320.00,0.0066
2319.00,0.0066
2318.00,0.0065
2317.00,0.0064
2316.00,0.0064
2315.00,0.0063
2314.00,0.0063
2313.00,0.0062
2312.00,0.0061
2311.00,0.0060
2310.00,0.0060
2309.00,0.0060
2308.00,0.0060
2307.00,0.0060
2306.00,0.0060
2305.00,0.0061
2304.00,0.0061
2303.00,0.0062
2302.00,0.0062
2301.00,0.0062
2300.00,0.0063
2299.00,0.0063
2298.00,0.0064
2297.00,0.0065
2296.00,0.0066
2295.00,0.0066
2294.00,0.0067
2293.00,0.0068
2292.00,0.0069
2291.00,0.0070
2290.00,0.0071
2289.00,0.0072
2288.00,0.0072
2287.00,0.0072
2286.00,0.0072
2285.00,0.0071
2284.00,0.0070
2283.00,0.0068
2282.00,0.0067
2281.00,0.0067
2280.00,0.0066
2279.00,0.0066
2278.00,0.0066
2277.00,0.0066
2276.00,0.0065
2275.00,0.0065
2274.00,0.0064
2273.00,0.0064
2272.00,0.0063
2271.00,0.0063
2270.00,0.0063
2269.00,0.0062
2268.00,0.0062
2267.00,0.0061
2266.00,0.0060
2265.00,0.0060
2264.00,0.0061
2263.00,0.0061
2262.00,0.0061
2261.00,0.0062
2260.00,0.0062
2259.00,0.0062
2258.00,0.0061
2257.00,0.0060
2256.00,0.0060
2255.00,0.0059
2254.00,0.0058
2253.00,0.0058
2252.00,0.0058
2251.00,0.0058
2250.00,0.0059
2249.00,0.0059
2248.00,0.0060
2247.00,0.0060
2246.00,0.0059
2245.00,0.0058
2244.00,0.0058
2243.00,0.0058
2242.00,0.0058
2241.00,0.0058
2240.00,0.0058
2239.00,0.0058
2238.00,0.0057
2237.00,0.0056
2236.00,0.0056
2235.00,0.0056
2234.00,0.0055
2233.00,0.0055
2232.00,0.0055
2231.00,0.0054
2230.00,0.0054
2229.00,0.0054
2228.00,0.0054
2227.00,0.0054
2226.00,0.0053
2225.00,0.0053
2224.00,0.0052
2223.00,0.0052
2222.00,0.0051
2221.00,0.0051
2220.00,0.0051
2219.00,0.0051
2218.00,0.0050
2217.00,0.0050
2216.00,0.0050
2215.00,0.0050
2214.00,0.0049
2213.00,0.0049
2212.00,0.0050
2211.00,0.0049
2210.00,0.0048
2209.00,0.0046
2208.00,0.0046
2207.00,0.0045
2206.00,0.0044
2205.00,0.0044
2204.00,0.0044
2203.00,0.0044
2202.00,0.0043
2201.00,0.0042
2200.00,0.0042
2199.00,0.0041
2198.00,0.0040
2197.00,0.0040
2196.00,0.0041
2195.00,0.0041
2194.00,0.0042
2193.00,0.0043
2192.00,0.0044
2191.00,0.0044
2190.00,0.0044
2189.00,0.0044
2188.00,0.0045
2187.00,0.0046
2186.00,0.0045
2185.00,0.0044
2184.00,0.0043
2183.00,0.0041
2182.00,0.0038
2181.00,0.0038
2180.00,0.0040
2179.00,0.0041
2178.00,0.0041
2177.00,0.0040
2176.00,0.0040
2175.00,0.0041
2174.00,0.0042
2173.00,0.0045
2172.00,0.0049
2171.00,0.0052
2170.00,0.0055
2169.00,0.0058
2168.00,0.0060
2167.00,0.0060
2166.00,0.0059
2165.00,0.0060
2164.00,0.0063
2163.00,0.0064
2162.00,0.0059
2161.00,0.0048
2160.00,0.0034
2159.00,0.0022
2158.00,0.0016
2157.00,0.0017
2156.00,0.0021
2155.00,0.0024
2154.00,0.0026
2153.00,0.0029
2152.00,0.0032
2151.00,0.0033
2150.00,0.0034
2149.00,0.0034
2148.00,0.0034
2147.00,0.0034
2146.00,0.0033
2145.00,0.0033
2144.00,0.0034
2143.00,0.0035
2142.00,0.0034
2141.00,0.0033
2140.00,0.0034
2139.00,0.0034
2138.00,0.0032
2137.00,0.0030
2136.00,0.0028
2135.00,0.0027
2134.00,0.0026
2133.00,0.0027
2132.00,0.0030
2131.00,0.0032
2130.00,0.0033
2129.00,0.0034
2128.00,0.0035
2127.00,0.0036
2126.00,0.0036
2125.00,0.0037
2124.00,0.0038
2123.00,0.0039
2122.00,0.0039
2121.00,0.0040
2120.00,0.0041
2119.00,0.0042
2118.00,0.0043
2117.00,0.0044
2116.00,0.0045
2115.00,0.0046
2114.00,0.0046
2113.00,0.0047
2112.00,0.0048
2111.00,0.0048
2110.00,0.0048
2109.00,0.0048
2108.00,0.0049
2107.00,0.0049
2106.00,0.0049
2105.00,0.0050
2104.00,0.0051
2103.00,0.0051
2102.00,0.0051
2101.00,0.0051
2100.00,0.0052
2099.00,0.0052
2098.00,0.0051
2097.00,0.0049
2096.00,0.0047
2095.00,0.0046
2094.00,0.0045
2093.00,0.0045
2092.00,0.0047
2091.00,0.0047
2090.00,0.0047
2089.00,0.0048
2088.00,0.0048
2087.00,0.0048
2086.00,0.0048
2085.00,0.0049
2084.00,0.0050
2083.00,0.0050
2082.00,0.0049
2081.00,0.0048
2080.00,0.0048
2079.00,0.0049
2078.00,0.0049
2077.00,0.0049
2076.00,0.0050
2075.00,0.0049
2074.00,0.0048
2073.00,0.0047
2072.00,0.0047
2071.00,0.0047
2070.00,0.0047
2069.00,0.0047
2068.00,0.0047
2067.00,0.0046
2066.00,0.0044
2065.00,0.0044
2064.00,0.0045
2063.00,0.0046
2062.00,0.0046
2061.00,0.0046
2060.00,0.0046
2059.00,0.0045
2058.00,0.0044
2057.00,0.0042
2056.00,0.0041
2055.00,0.0041
2054.00,0.0043
2053.00,0.0046
2052.00,0.0050
2051.00,0.0049
2050.00,0.0044
2049.00,0.0040
2048.00,0.0038
2047.00,0.0036
2046.00,0.0035
2045.00,0.0034
2044.00,0.0035
2043.00,0.0035
2042.00,0.0035
2041.00,0.0035
2040.00,0.0036
2039.00,0.0036
2038.00,0.0034
2037.00,0.0033
2036.00,0.0033
2035.00,0.0032
2034.00,0.0030
2033.00,0.0029
2032.00,0.0029
2031.00,0.0029
2030.00,0.0029
2029.00,0.0029
2028.00,0.0031
2027.00,0.0032
2026.00,0.0031
2025.00,0.0030
2024.00,0.0032
2023.00,0.0033
2022.00,0.0032
2021.00,0.0032
2020.00,0.0032
2019.00,0.0031
2018.00,0.0030
2017.00,0.0030
2016.00,0.0032
2015.00,0.0033
2014.00,0.0032
2013.00,0.0033
2012.00,0.0036
2011.00,0.0036
2010.00,0.0034
2009.00,0.0032
2008.00,0.0030
2007.00,0.0027
2006.00,0.0025
2005.00,0.0027
2004.00,0.0031
2003.00,0.0034
2002.00,0.0035
2001.00,0.0035
2000.00,0.0037
1999.00,0.0037
1998.00,0.0036
1997.00,0.0037
1996.00,0.0039
1995.00,0.0040
1994.00,0.0041
1993.00,0.0042
1992.00,0.0044
1991.00,0.0045
1990.00,0.0044
1989.00,0.0044
1988.00,0.0046
1987.00,0.0047
1986.00,0.0047
1985.00,0.0048
1984.00,0.0052
1983.00,0.0056
1982.00,0.0059
1981.00,0.0059
1980.00,0.0056
1979.00,0.0048
1978.00,0.0039
1977.00,0.0035
1976.00,0.0035
1975.00,0.0035
1974.00,0.0032
1973.00,0.0030
1972.00,0.0031
1971.00,0.0032
1970.00,0.0031
1969.00,0.0032
1968.00,0.0034
1967.00,0.0035
1966.00,0.0034
1965.00,0.0034
1964.00,0.0034
1963.00,0.0033
1962.00,0.0030
1961.00,0.0028
1960.00,0.0028
1959.00,0.0028
1958.00,0.0027
1957.00,0.0029
1956.00,0.0031
1955.00,0.0032
1954.00,0.0032
1953.00,0.0031
1952.00,0.0032
1951.00,0.0031
1950.00,0.0030
1949.00,0.0031
1948.00,0.0032
1947.00,0.0033
1946.00,0.0034
1945.00,0.0035
1944.00,0.0037
1943.00,0.0039
1942.00,0.0039
1941.00,0.0038
1940.00,0.0039
1939.00,0.0038
1938.00,0.0036
1937.00,0.0036
1936.00,0.0037
1935.00,0.0037
1934.00,0.0037
1933.00,0.0037
1932.00,0.0039
1931.00,0.0039
1930.00,0.0039
1929.00,0.0040
1928.00,0.0041
1927.00,0.0041
1926.00,0.0041
1925.00,0.0041
1924.00,0.0044
1923.00,0.0045
1922.00,0.0046
1921.00,0.0048
1920.00,0.0050
1919.00,0.0052
1918.00,0.0053
1917.00,0.0054
1916.00,0.0054
1915.00,0.0054
1914.00,0.0053
1913.00,0.0052
1912.00,0.0053
1911.00,0.0052
1910.00,0.0051
1909.00,0.0050
1908.00,0.0050
1907.00,0.0050
1906.00,0.0048
1905.00,0.0047
1904.00,0.0047
1903.00,0.0047
1902.00,0.0046
1901.00,0.0045
1900.00,0.0045
1899.00,0.0044
1898.00,0.0043
1897.00,0.0042
1896.00,0.0043
1895.00,0.0043
1894.00,0.0042
1893.00,0.0042
1892.00,0.0043
1891.00,0.0044
1890.00,0.0044
1889.00,0.0045
1888.00,0.0045
1887.00,0.0045
1886.00,0.0043
1885.00,0.0043
1884.00,0.0044
1883.00,0.0044
1882.00,0.0044
1881.00,0.0044
1880.00,0.0045
1879.00,0.0045
1878.00,0.0044
1877.00,0.0044
1876.00,0.0045
1875.00,0.0044
1874.00,0.0043
1873.00,0.0042
1872.00,0.0042
1871.00,0.0043
1870.00,0.0043
1869.00,0.0044
1868.00,0.0045
1867.00,0.0044
1866.00,0.0042
1865.00,0.0042
1864.00,0.0043
1863.00,0.0044
1862.00,0.0044
1861.00,0.0044
1860.00,0.0046
1859.00,0.0047
1858.00,0.0048
1857.00,0.0048
1856.00,0.0050
1855.00,0.0050
1854.00,0.0050
1853.00,0.0050
1852.00,0.0050
1851.00,0.0049
1850.00,0.0048
1849.00,0.0046
1848.00,0.0045
1847.00,0.0044
1846.00,0.0043
1845.00,0.0043
1844.00,0.0044
1843.00,0.0044
1842.00,0.0042
1841.00,0.0041
1840.00,0.0041
1839.00,0.0041
1838.00,0.0041
1837.00,0.0041
1836.00,0.0041
1835.00,0.0041
1834.00,0.0040
1833.00,0.0040
1832.00,0.0041
1831.00,0.0043
1830.00,0.0043
1829.00,0.0043
1828.00,0.0042
1827.00,0.0041
1826.00,0.0041
1825.00,0.0041
1824.00,0.0042
1823.00,0.0041
1822.00,0.0040
1821.00,0.0039
1820.00,0.0039
1819.00,0.0039
1818.00,0.0038
1817.00,0.0037
1816.00,0.0039
1815.00,0.0040
1814.00,0.0040
1813.00,0.0040
1812.00,0.0042
1811.00,0.0043
1810.00,0.0043
1809.00,0.0043
1808.00,0.0044
1807.00,0.0044
1806.00,0.0044
1805.00,0.0044
1804.00,0.0045
1803.00,0.0046
1802.00,0.0046
1801.00,0.0047
1800.00,0.0049
1799.00,0.0049
1798.00,0.0048
1797.00,0.0048
1796.00,0.0049
1795.00,0.0050
1794.00,0.0050
1793.00,0.0051
1792.00,0.0052
1791.00,0.0052
1790.00,0.0050
1789.00,0.0049
1788.00,0.0049
1787.00,0.0049
1786.00,0.0049
1785.00,0.0049
1784.00,0.0050
1783.00,0.0050
1782.00,0.0050
1781.00,0.0050
1780.00,0.0051
1779.00,0.0050
1778.00,0.0049
1777.00,0.0049
1776.00,0.0050
1775.00,0.0050
1774.00,0.0051
1773.00,0.0053
1772.00,0.0055
1771.00,0.0056
1770.00,0.0054
1769.00,0.0053
1768.00,0.0053
1767.00,0.0054
1766.00,0.0054
1765.00,0.0055
1764.00,0.0057
1763.00,0.0060
1762.00,0.0062
1761.00,0.0062
1760.00,0.0063
1759.00,0.0063
1758.00,0.0064
1757.00,0.0065
1756.00,0.0066
1755.00,0.0066
1754.00,0.0064
1753.00,0.0063
1752.00,0.0064
1751.00,0.0065
1750.00,0.0067
1749.00,0.0068
1748.00,0.0070
1747.00,0.0070
1746.00,0.0070
1745.00,0.0071
1744.00,0.0073
1743.00,0.0075
1742.00,0.0076
1741.00,0.0078
1740.00,0.0080
1739.00,0.0082
1738.00,0.0081
1737.00,0.0080
1736.00,0.0080
1735.00,0.0082
1734.00,0.0084
1733.00,0.0087
1732.00,0.0090
1731.00,0.0093
1730.00,0.0095
1729.00,0.0097
1728.00,0.0100
1727.00,0.0103
1726.00,0.0104
1725.00,0.0107
1724.00,0.0112
1723.00,0.0117
1722.00,0.0120
1721.00,0.0124
1720.00,0.0132
1719.00,0.0141
1718.00,0.0152
1717.00,0.0168
1716.00,0.0189
1715.00,0.0210
1714.00,0.0232
1713.00,0.0259
1712.00,0.0295
1711.00,0.0336
1710.00,0.0385
1709.00,0.0447
1708.00,0.0523
1707.00,0.0616
1706.00,0.0726
1705.00,0.0844
1704.00,0.0952
1703.00,0.1045
1702.00,0.1143
1701.00,0.1273
1700.00,0.1417
1699.00,0.1521
1698.00,0.1575
1697.00,0.1606
1696.00,0.1632
1695.00,0.1650
1694.00,0.1661
1693.00,0.1672
1692.00,0.1694
1691.00,0.1731
1690.00,0.1778
1689.00,0.1818
1688.00,0.1840
1687.00,0.1839
1686.00,0.1819
1685.00,0.1770
1684.00,0.1684
1683.00,0.1576
1682.00,0.1465
1681.00,0.1349
1680.00,0.1230
1679.00,0.1118
1678.00,0.1016
1677.00,0.0924
1676.00,0.0835
1675.00,0.0754
1674.00,0.0689
1673.00,0.0638
1672.00,0.0596
1671.00,0.0561
1670.00,0.0532
1669.00,0.0505
1668.00,0.0479
1667.00,0.0457
1666.00,0.0440
1665.00,0.0426
1664.00,0.0413
1663.00,0.0402
1662.00,0.0393
1661.00,0.0384
1660.00,0.0377
1659.00,0.0372
1658.00,0.0372
1657.00,0.0373
1656.00,0.0374
1655.00,0.0382
1654.00,0.0406
1653.00,0.0445
1652.00,0.0482
1651.00,0.0512
1650.00,0.0542
1649.00,0.0579
1648.00,0.0630
1647.00,0.0695
1646.00,0.0757
1645.00,0.0800
1644.00,0.0819
1643.00,0.0818
1642.00,0.0801
1641.00,0.0770
1640.00,0.0730
1639.00,0.0688
1638.00,0.0647
1637.00,0.0612
1636.00,0.0584
1635.00,0.0566
1634.00,0.0560
1633.00,0.0563
1632.00,0.0574
1631.00,0.0594
1630.00,0.0625
1629.00,0.0669
1628.00,0.0721
1627.00,0.0777
1626.00,0.0832
1625.00,0.0887
1624.00,0.0945
1623.00,0.1000
1622.00,0.1040
1621.00,0.1060
1620.00,0.1065
1619.00,0.1057
1618.00,0.1040
1617.00,0.1010
1616.00,0.0969
1615.00,0.0923
1614.00,0.0877
1613.00,0.0829
1612.00,0.0780
1611.00,0.0732
1610.00,0.0688
1609.00,0.0646
1608.00,0.0606
1607.00,0.0571
1606.00,0.0539
1605.00,0.0509
1604.00,0.0482
1603.00,0.0457
1602.00,0.0435
1601.00,0.0414
1600.00,0.0394
1599.00,0.0376
1598.00,0.0359
1597.00,0.0344
1596.00,0.0330
1595.00,0.0317
1594.00,0.0307
1593.00,0.0298
1592.00,0.0289
1591.00,0.0282
1590.00,0.0274
1589.00,0.0267
1588.00,0.0259
1587.00,0.0253
1586.00,0.0249
1585.00,0.0248
1584.00,0.0249
1583.00,0.0252
1582.00,0.0255
1581.00,0.0255
1580.00,0.0249
1579.00,0.0239
1578.00,0.0227
1577.00,0.0214
1576.00,0.0202
1575.00,0.0192
1574.00,0.0186
1573.00,0.0180
1572.00,0.0175
1571.00,0.0171
1570.00,0.0168
1569.00,0.0164
1568.00,0.0160
1567.00,0.0158
1566.00,0.0160
1565.00,0.0166
1564.00,0.0173
1563.00,0.0178
1562.00,0.0180
1561.00,0.0181
1560.00,0.0179
1559.00,0.0170
1558.00,0.0159
1557.00,0.0150
1556.00,0.0144
1555.00,0.0139
1554.00,0.0135
1553.00,0.0132
1552.00,0.0130
1551.00,0.0129
1550.00,0.0128
1549.00,0.0127
1548.00,0.0125
1547.00,0.0124
1546.00,0.0124
1545.00,0.0125
1544.00,0.0125
1543.00,0.0125
1542.00,0.0125
1541.00,0.0125
1540.00,0.0124
1539.00,0.0123
1538.00,0.0124
1537.00,0.0125
1536.00,0.0127
1535.00,0.0129
1534.00,0.0134
1533.00,0.0138
1532.00,0.0140
1531.00,0.0141
1530.00,0.0143
1529.00,0.0146
1528.00,0.0150
1527.00,0.0155
1526.00,0.0161
1525.00,0.0166
1524.00,0.0172
1523.00,0.0180
1522.00,0.0191
1521.00,0.0203
1520.00,0.0216
1519.00,0.0228
1518.00,0.0242
1517.00,0.0258
1516.00,0.0276
1515.00,0.0296
1514.00,0.0316
1513.00,0.0341
1512.00,0.0371
1511.00,0.0403
1510.00,0.0437
1509.00,0.0476
1508.00,0.0533
1507.00,0.0620
1506.00,0.0727
1505.00,0.0829
1504.00,0.0921
1503.00,0.1015
1502.00,0.1121
1501.00,0.1243
1500.00,0.1375
1499.00,0.1512
1498.00,0.1649
1497.00,0.1776
1496.00,0.1876
1495.00,0.1939
1494.00,0.1966
1493.00,0.1959
1492.00,0.1924
1491.00,0.1867
1490.00,0.1790
1489.00,0.1699
1488.00,0.1601
1487.00,0.1503
1486.00,0.1410
1485.00,0.1324
1484.00,0.1243
1483.00,0.1168
1482.00,0.1099
1481.00,0.1036
1480.00,0.0981
1479.00,0.0934
1478.00,0.0894
1477.00,0.0858
1476.00,0.0824
1475.00,0.0792
1474.00,0.0762
1473.00,0.0735
1472.00,0.0710
1471.00,0.0689
1470.00,0.0672
1469.00,0.0659
1468.00,0.0648
1467.00,0.0642
1466.00,0.0641
1465.00,0.0644
1464.00,0.0648
1463.00,0.0650
1462.00,0.0651
1461.00,0.0649
1460.00,0.0643
1459.00,0.0635
1458.00,0.0623
1457.00,0.0608
1456.00,0.0595
1455.00,0.0586
1454.00,0.0582
1453.00,0.0582
1452.00,0.0589
1451.00,0.0606
1450.00,0.0637
1449.00,0.0689
1448.00,0.0757
1447.00,0.0822
1446.00,0.0858
1445.00,0.0853
1444.00,0.0815
1443.00,0.0761
1442.00,0.0711
1441.00,0.0673
1440.00,0.0649
1439.00,0.0638
1438.00,0.0642
1437.00,0.0664
1436.00,0.0703
1435.00,0.0750
1434.00,0.0798
1433.00,0.0843
1432.00,0.0876
1431.00,0.0891
1430.00,0.0888
1429.00,0.0873
1428.00,0.0852
1427.00,0.0827
1426.00,0.0796
1425.00,0.0767
1424.00,0.0756
1423.00,0.0779
1422.00,0.0845
1421.00,0.0957
1420.00,0.1100
1419.00,0.1220
1418.00,0.1256
1417.00,0.1200
1416.00,0.1094
1415.00,0.0975
1414.00,0.0865
1413.00,0.0771
1412.00,0.0692
1411.00,0.0626
1410.00,0.0573
1409.00,0.0530
1408.00,0.0496
1407.00,0.0467
1406.00,0.0443
1405.00,0.0422
1404.00,0.0402
1403.00,0.0387
1402.00,0.0375
1401.00,0.0366
1400.00,0.0358
1399.00,0.0353
1398.00,0.0351
1397.00,0.0351
1396.00,0.0352
1395.00,0.0356
1394.00,0.0363
1393.00,0.0371
1392.00,0.0381
1391.00,0.0395
1390.00,0.0417
1389.00,0.0448
1388.00,0.0491
1387.00,0.0546
1386.00,0.0610
1385.00,0.0676
1384.00,0.0741
1383.00,0.0801
1382.00,0.0845
1381.00,0.0865
1380.00,0.0853
1379.00,0.0812
1378.00,0.0750
1377.00,0.0678
1376.00,0.0606
1375.00,0.0541
1374.00,0.0490
1373.00,0.0456
1372.00,0.0437
1371.00,0.0431
1370.00,0.0437
1369.00,0.0451
1368.00,0.0472
1367.00,0.0497
1366.00,0.0522
1365.00,0.0539
1364.00,0.0536
1363.00,0.0505
1362.00,0.0454
1361.00,0.0394
1360.00,0.0339
1359.00,0.0294
1358.00,0.0260
1357.00,0.0234
1356.00,0.0214
1355.00,0.0198
1354.00,0.0186
1353.00,0.0177
1352.00,0.0170
1351.00,0.0165
1350.00,0.0161
1349.00,0.0158
1348.00,0.0155
1347.00,0.0153
1346.00,0.0152
1345.00,0.0151
1344.00,0.0150
1343.00,0.0150
1342.00,0.0150
1341.00,0.0151
1340.00,0.0152
1339.00,0.0153
1338.00,0.0154
1337.00,0.0156
1336.00,0.0157
1335.00,0.0158
1334.00,0.0160
1333.00,0.0162
1332.00,0.0164
1331.00,0.0166
1330.00,0.0169
1329.00,0.0173
1328.00,0.0177
1327.00,0.0181
1326.00,0.0187
1325.00,0.0194
1324.00,0.0203
1323.00,0.0214
1322.00,0.0229
1321.00,0.0248
1320.00,0.0270
1319.00,0.0294
1318.00,0.0321
1317.00,0.0350
1316.00,0.0380
1315.00,0.0416
1314.00,0.0462
1313.00,0.0524
1312.00,0.0605
1311.00,0.0703
1310.00,0.0811
1309.00,0.0913
1308.00,0.0991
1307.00,0.1028
1306.00,0.1021
1305.00,0.0976
1304.00,0.0907
1303.00,0.0826
1302.00,0.0746
1301.00,0.0675
1300.00,0.0616
1299.00,0.0571
1298.00,0.0540
1297.00,0.0524
1296.00,0.0519
1295.00,0.0526
1294.00,0.0541
1293.00,0.0565
1292.00,0.0594
1291.00,0.0630
1290.00,0.0672
1289.00,0.0722
1288.00,0.0781
1287.00,0.0853
1286.00,0.0937
1285.00,0.1035
1284.00,0.1148
1283.00,0.1275
1282.00,0.1412
1281.00,0.1554
1280.00,0.1695
1279.00,0.1823
1278.00,0.1926
1277.00,0.1993
1276.00,0.2015
1275.00,0.1990
1274.00,0.1922
1273.00,0.1823
1272.00,0.1703
1271.00,0.1573
1270.00,0.1442
1269.00,0.1315
1268.00,0.1196
1267.00,0.1087
1266.00,0.0987
1265.00,0.0898
1264.00,0.0818
1263.00,0.0747
1262.00,0.0683
1261.00,0.0625
1260.00,0.0574
1259.00,0.0530
1258.00,0.0492
1257.00,0.0459
1256.00,0.0432
1255.00,0.0412
1254.00,0.0399
1253.00,0.0395
1252.00,0.0397
1251.00,0.0404
1250.00,0.0407
1249.00,0.0403
1248.00,0.0390
1247.00,0.0370
1246.00,0.0348
1245.00,0.0327
1244.00,0.0309
1243.00,0.0294
1242.00,0.0282
1241.00,0.0273
1240.00,0.0266
1239.00,0.0260
1238.00,0.0257
1237.00,0.0254
1236.00,0.0253
1235.00,0.0254
1234.00,0.0256
1233.00,0.0260
1232.00,0.0266
1231.00,0.0273
1230.00,0.0282
1229.00,0.0293
1228.00,0.0304
1227.00,0.0316
1226.00,0.0329
1225.00,0.0344
1224.00,0.0361
1223.00,0.0381
1222.00,0.0405
1221.00,0.0432
1220.00,0.0463
1219.00,0.0497
1218.00,0.0533
1217.00,0.0573
1216.00,0.0618
1215.00,0.0671
1214.00,0.0739
1213.00,0.0825
1212.00,0.0930
1211.00,0.1056
1210.00,0.1198
1209.00,0.1350
1208.00,0.1502
1207.00,0.1646
1206.00,0.1771
1205.00,0.1871
1204.00,0.1940
1203.00,0.1976
1202.00,0.1977
1201.00,0.1947
1200.00,0.1887
1199.00,0.1805
1198.00,0.1710
1197.00,0.1610
1196.00,0.1515
1195.00,0.1432
1194.00,0.1366
1193.00,0.1318
1192.00,0.1288
1191.00,0.1271
1190.00,0.1262
1189.00,0.1256
1188.00,0.1246
1187.00,0.1229
1186.00,0.1203
1185.00,0.1166
1184.00,0.1119
1183.00,0.1063
1182.00,0.1004
1181.00,0.0947
1180.00,0.0896
1179.00,0.0857
1178.00,0.0831
1177.00,0.0820
1176.00,0.0825
1175.00,0.0843
1174.00,0.0865
1173.00,0.0880
1172.00,0.0875
1171.00,0.0845
1170.00,0.0790
1169.00,0.0722
1168.00,0.0651
1167.00,0.0585
1166.00,0.0528
1165.00,0.0482
1164.00,0.0446
1163.00,0.0419
1162.00,0.0399
1161.00,0.0386
1160.00,0.0380
1159.00,0.0382
1158.00,0.0393
1157.00,0.0414
1156.00,0.0441
1155.00,0.0470
1154.00,0.0490
1153.00,0.0498
1152.00,0.0497
1151.00,0.0495
1150.00,0.0506
1149.00,0.0536
1148.00,0.0588
1147.00,0.0661
1146.00,0.0750
1145.00,0.0849
1144.00,0.0949
1143.00,0.1044
1142.00,0.1126
1141.00,0.1194
1140.00,0.1247
1139.00,0.1282
1138.00,0.1301
1137.00,0.1301
1136.00,0.1281
1135.00,0.1242
1134.00,0.1187
1133.00,0.1122
1132.00,0.1052
1131.00,0.0983
1130.00,0.0921
1129.00,0.0868
1128.00,0.0826
1127.00,0.0799
1126.00,0.0786
1125.00,0.0790
1124.00,0.0811
1123.00,0.0852
1122.00,0.0915
1121.00,0.1002
1120.00,0.1112
1119.00,0.1240
1118.00,0.1376
1117.00,0.1503
1116.00,0.1603
1115.00,0.1663
1114.00,0.1676
1113.00,0.1648
1112.00,0.1591
1111.00,0.1521
1110.00,0.1456
1109.00,0.1412
1108.00,0.1399
1107.00,0.1419
1106.00,0.1467
1105.00,0.1534
1104.00,0.1614
1103.00,0.1706
1102.00,0.1818
1101.00,0.1948
1100.00,0.2087
1099.00,0.2213
1098.00,0.2308
1097.00,0.2358
1096.00,0.2361
1095.00,0.2320
1094.00,0.2243
1093.00,0.2141
1092.00,0.2023
1091.00,0.1897
1090.00,0.1770
1089.00,0.1646
1088.00,0.1528
1087.00,0.1417
1086.00,0.1316
1085.00,0.1225
1084.00,0.1143
1083.00,0.1070
1082.00,0.1005
1081.00,0.0946
1080.00,0.0893
1079.00,0.0845
1078.00,0.0801
1077.00,0.0763
1076.00,0.0728
1075.00,0.0697
1074.00,0.0671
1073.00,0.0651
1072.00,0.0637
1071.00,0.0630
1070.00,0.0632
1069.00,0.0645
1068.00,0.0670
1067.00,0.0709
1066.00,0.0764
1065.00,0.0834
1064.00,0.0915
1063.00,0.1000
1062.00,0.1078
1061.00,0.1139
1060.00,0.1174
1059.00,0.1179
1058.00,0.1156
1057.00,0.1113
1056.00,0.1056
1055.00,0.0995
1054.00,0.0934
1053.00,0.0879
1052.00,0.0832
1051.00,0.0795
1050.00,0.0770
1049.00,0.0759
1048.00,0.0765
1047.00,0.0792
1046.00,0.0841
1045.00,0.0907
1044.00,0.0977
1043.00,0.1034
1042.00,0.1065
1041.00,0.1066
1040.00,0.1041
1039.00,0.1004
1038.00,0.0966
1037.00,0.0936
1036.00,0.0917
1035.00,0.0909
1034.00,0.0912
1033.00,0.0925
1032.00,0.0948
1031.00,0.0981
1030.00,0.1023
1029.00,0.1072
1028.00,0.1126
1027.00,0.1178
1026.00,0.1224
1025.00,0.1259
1024.00,0.1279
1023.00,0.1282
1022.00,0.1268
1021.00,0.1237
1020.00,0.1192
1019.00,0.1137
1018.00,0.1077
1017.00,0.1014
1016.00,0.0953
1015.00,0.0896
1014.00,0.0844
1013.00,0.0797
1012.00,0.0757
1011.00,0.0722
1010.00,0.0693
1009.00,0.0669
1008.00,0.0649
1007.00,0.0632
1006.00,0.0615
1005.00,0.0597
1004.00,0.0576
1003.00,0.0553
1002.00,0.0528
1001.00,0.0505
1000.00,0.0484
999.00,0.0466
998.00,0.0450
997.00,0.0437
996.00,0.0426
995.00,0.0416
994.00,0.0407
993.00,0.0401
992.00,0.0395
991.00,0.0391
990.00,0.0388
989.00,0.0387
988.00,0.0387
987.00,0.0388
986.00,0.0391
985.00,0.0395
984.00,0.0401
983.00,0.0409
982.00,0.0419
981.00,0.0430
980.00,0.0441
979.00,0.0451
978.00,0.0459
977.00,0.0465
976.00,0.0466
975.00,0.0462
974.00,0.0455
973.00,0.0442
972.00,0.0427
971.00,0.0409
970.00,0.0391
969.00,0.0373
968.00,0.0355
967.00,0.0340
966.00,0.0327
965.00,0.0318
964.00,0.0312
963.00,0.0310
962.00,0.0312
961.00,0.0317
960.00,0.0324
959.00,0.0331
958.00,0.0336
957.00,0.0338
956.00,0.0335
955.00,0.0327
954.00,0.0315
953.00,0.0301
952.00,0.0287
951.00,0.0273
950.00,0.0262
949.00,0.0252
948.00,0.0243
947.00,0.0235
946.00,0.0228
945.00,0.0222
944.00,0.0216
943.00,0.0212
942.00,0.0208
941.00,0.0204
940.00,0.0200
939.00,0.0197
938.00,0.0194
937.00,0.0191
936.00,0.0188
935.00,0.0185
934.00,0.0182
933.00,0.0179
932.00,0.0176
931.00,0.0174
930.00,0.0171
929.00,0.0169
928.00,0.0167
927.00,0.0165
926.00,0.0164
925.00,0.0162
924.00,0.0160
923.00,0.0158
922.00,0.0156
921.00,0.0155
920.00,0.0154
919.00,0.0153
918.00,0.0152
917.00,0.0151
916.00,0.0150
915.00,0.0149
914.00,0.0148
913.00,0.0147
912.00,0.0146
911.00,0.0146
910.00,0.0146
909.00,0.0146
908.00,0.0145
907.00,0.0144
906.00,0.0143
905.00,0.0143
904.00,0.0144
903.00,0.0145
902.00,0.0147
901.00,0.0150
900.00,0.0151
899.00,0.0151
898.00,0.0150
897.00,0.0148
896.00,0.0146
895.00,0.0143
894.00,0.0141
893.00,0.0139
892.00,0.0138
891.00,0.0136
890.00,0.0135
889.00,0.0135
888.00,0.0134
887.00,0.0134
886.00,0.0134
885.00,0.0135
884.00,0.0137
883.00,0.0140
882.00,0.0144
881.00,0.0148
880.00,0.0153
879.00,0.0156
878.00,0.0159
877.00,0.0160
876.00,0.0161
875.00,0.0162
874.00,0.0165
873.00,0.0171
872.00,0.0181
871.00,0.0197
870.00,0.0224
869.00,0.0265
868.00,0.0325
867.00,0.0404
866.00,0.0497
865.00,0.0585
864.00,0.0646
863.00,0.0664
862.00,0.0638
861.00,0.0588
860.00,0.0538
859.00,0.0505
858.00,0.0493
857.00,0.0489
856.00,0.0480
855.00,0.0456
854.00,0.0417
853.00,0.0371
852.00,0.0324
851.00,0.0285
850.00,0.0253
849.00,0.0229
848.00,0.0212
847.00,0.0198
846.00,0.0188
845.00,0.0180
844.00,0.0173
843.00,0.0168
842.00,0.0164
841.00,0.0160
840.00,0.0156
839.00,0.0153
838.00,0.0150
837.00,0.0147
836.00,0.0145
835.00,0.0143
834.00,0.0142
833.00,0.0141
832.00,0.0141
831.00,0.0143
830.00,0.0148
829.00,0.0155
828.00,0.0167
827.00,0.0183
826.00,0.0203
825.00,0.0223
824.00,0.0237
823.00,0.0241
822.00,0.0235
821.00,0.0223
820.00,0.0209
819.00,0.0199
818.00,0.0192
817.00,0.0187
816.00,0.0184
815.00,0.0183
814.00,0.0183
813.00,0.0186
812.00,0.0192
811.00,0.0204
810.00,0.0222
809.00,0.0251
808.00,0.0296
807.00,0.0365
806.00,0.0469
805.00,0.0615
804.00,0.0800
803.00,0.0995
802.00,0.1147
801.00,0.1202
800.00,0.1139
799.00,0.0991
798.00,0.0814
797.00,0.0655
796.00,0.0531
795.00,0.0442
794.00,0.0382
793.00,0.0344
792.00,0.0323
791.00,0.0313
790.00,0.0305
789.00,0.0293
788.00,0.0275
787.00,0.0254
786.00,0.0233
785.00,0.0218
784.00,0.0209
783.00,0.0207
782.00,0.0211
781.00,0.0221
780.00,0.0237
779.00,0.0259
778.00,0.0287
777.00,0.0327
776.00,0.0382
775.00,0.0459
774.00,0.0557
773.00,0.0667
772.00,0.0768
771.00,0.0831
770.00,0.0838
769.00,0.0790
768.00,0.0704
767.00,0.0605
766.00,0.0511
765.00,0.0432
764.00,0.0372
763.00,0.0326
762.00,0.0294
761.00,0.0272
760.00,0.0256
759.00,0.0246
758.00,0.0239
757.00,0.0236
756.00,0.0235
755.00,0.0236
754.00,0.0240
753.00,0.0246
752.00,0.0256
751.00,0.0269
750.00,0.0289
749.00,0.0315
748.00,0.0351
747.00,0.0400
746.00,0.0461
745.00,0.0534
744.00,0.0608
743.00,0.0665
742.00,0.0687
741.00,0.0670
740.00,0.0636
739.00,0.0626
738.00,0.0686
737.00,0.0835
736.00,0.1043
735.00,0.1239
734.00,0.1346
733.00,0.1347
732.00,0.1292
731.00,0.1258
730.00,0.1294
729.00,0.1399
728.00,0.1530
727.00,0.1623
726.00,0.1623
725.00,0.1513
724.00,0.1326
723.00,0.1114
722.00,0.0919
721.00,0.0759
720.00,0.0635
719.00,0.0542
718.00,0.0473
717.00,0.0421
716.00,0.0380
715.00,0.0347
714.00,0.0321
713.00,0.0300
712.00,0.0283
711.00,0.0267
710.00,0.0254
709.00,0.0242
708.00,0.0231
707.00,0.0221
706.00,0.0212
705.00,0.0204
704.00,0.0197
703.00,0.0191
702.00,0.0186
701.00,0.0181
700.00,0.0177
699.00,0.0174
698.00,0.0171
697.00,0.0169
696.00,0.0168
695.00,0.0167
694.00,0.0167
693.00,0.0168
692.00,0.0171
691.00,0.0177
690.00,0.0187
689.00,0.0201
688.00,0.0216
687.00,0.0227
686.00,0.0232
685.00,0.0231
684.00,0.0227
683.00,0.0223
682.00,0.0222
681.00,0.0223
680.00,0.0229
679.00,0.0238
678.00,0.0253
677.00,0.0277
676.00,0.0312
675.00,0.0361
674.00,0.0426
673.00,0.0507
672.00,0.0594
671.00,0.0672
670.00,0.0724
669.00,0.0727
668.00,0.0669
667.00,0.0574
666.00,0.0485
665.00,0.0414
664.00,0.0356
663.00,0.0309
662.00,0.0274
661.00,0.0251
660.00,0.0233
659.00,0.0220
658.00,0.0212
657.00,0.0205
656.00,0.0201
655.00,0.0198
654.00,0.0197
653.00,0.0197
652.00,0.0197
651.00,0.0198
650.00,0.0199
649.00,0.0201
648.00,0.0203
647.00,0.0205
646.00,0.0209
645.00,0.0213
644.00,0.0217
643.00,0.0222
642.00,0.0227
641.00,0.0232
640.00,0.0237
639.00,0.0243
638.00,0.0251
637.00,0.0260
636.00,0.0269
635.00,0.0278
634.00,0.0289
633.00,0.0301
632.00,0.0314
631.00,0.0329
630.00,0.0344
629.00,0.0360
628.00,0.0378
627.00,0.0397
626.00,0.0419
625.00,0.0443
624.00,0.0468
623.00,0.0496
622.00,0.0525
621.00,0.0555
620.00,0.0586
619.00,0.0617
618.00,0.0647
617.00,0.0675
616.00,0.0699
615.00,0.0717
614.00,0.0725
613.00,0.0722
612.00,0.0707
611.00,0.0678
610.00,0.0637
609.00,0.0586
608.00,0.0529
607.00,0.0474
606.00,0.0424
605.00,0.0382
604.00,0.0350
603.00,0.0328
602.00,0.0318
601.00,0.0317
600.00,0.0324
599.00,0.0336
598.00,0.0353
597.00,0.0374
596.00,0.0400
595.00,0.0427
594.00,0.0449
593.00,0.0459
592.00,0.0454
591.00,0.0435
590.00,0.0411
589.00,0.0389
588.00,0.0373
587.00,0.0367
586.00,0.0369
585.00,0.0378
584.00,0.0392
583.00,0.0410
582.00,0.0432
581.00,0.0456
580.00,0.0481
579.00,0.0508
578.00,0.0537
577.00,0.0568
576.00,0.0601
575.00,0.0637
574.00,0.0673
573.00,0.0709
572.00,0.0743
571.00,0.0777
570.00,0.0810
569.00,0.0842
568.00,0.0872
567.00,0.0899
566.00,0.0922
565.00,0.0942
564.00,0.0956
563.00,0.0965
562.00,0.0967
561.00,0.0962
560.00,0.0950
559.00,0.0934
558.00,0.0913
557.00,0.0888
556.00,0.0860
555.00,0.0831
554.00,0.0801
553.00,0.0770
552.00,0.0738
551.00,0.0706
550.00,0.0676
549.00,0.0648
548.00,0.0623
547.00,0.0601
546.00,0.0584
545.00,0.0576
544.00,0.0579
543.00,0.0595
542.00,0.0623
541.00,0.0656
540.00,0.0678
539.00,0.0677
538.00,0.0651
537.00,0.0606
536.00,0.0554
535.00,0.0507
534.00,0.0469
533.00,0.0438
532.00,0.0413
531.00,0.0391
530.00,0.0372
529.00,0.0354
528.00,0.0337
527.00,0.0323
526.00,0.0311
525.00,0.0301
524.00,0.0291
523.00,0.0281
522.00,0.0272
521.00,0.0262
520.00,0.0253
519.00,0.0246
518.00,0.0240
517.00,0.0235
516.00,0.0230
515.00,0.0225
514.00,0.0220
513.00,0.0216
512.00,0.0212
511.00,0.0208
510.00,0.0204
509.00,0.0200
508.00,0.0196
507.00,0.0193
506.00,0.0192
505.00,0.0190
504.00,0.0189
503.00,0.0187
502.00,0.0185
501.00,0.0184
500.00,0.0181
499.00,0.0177
498.00,0.0174
497.00,0.0172
496.00,0.0171
495.00,0.0172
494.00,0.0172
493.00,0.0170
492.00,0.0167
491.00,0.0164
490.00,0.0161
489.00,0.0159
488.00,0.0158
487.00,0.0158
486.00,0.0159
485.00,0.0160
484.00,0.0160
483.00,0.0161
482.00,0.0163
481.00,0.0165
480.00,0.0167
479.00,0.0168
478.00,0.0170
477.00,0.0171
476.00,0.0171
475.00,0.0175
474.00,0.0185
473.00,0.0205
472.00,0.0234
471.00,0.0270
470.00,0.0305
469.00,0.0333
468.00,0.0349
467.00,0.0356
466.00,0.0360
465.00,0.0367
464.00,0.0380
463.00,0.0404
462.00,0.0437
461.00,0.0470
460.00,0.0490
459.00,0.0490
458.00,0.0467
457.00,0.0426
456.00,0.0378
455.00,0.0333
454.00,0.0293
453.00,0.0258
452.00,0.0230
451.00,0.0211
450.00,0.0200
449.00,0.0190
448.00,0.0180
447.00,0.0171
446.00,0.0165
445.00,0.0160
444.00,0.0155
443.00,0.0151
442.00,0.0148
441.00,0.0145
440.00,0.0142
439.00,0.0142
438.00,0.0144
437.00,0.0146
436.00,0.0148
435.00,0.0151
434.00,0.0154
433.00,0.0156
432.00,0.0157
431.00,0.0159
430.00,0.0164
429.00,0.0172
428.00,0.0181
427.00,0.0190
426.00,0.0203
425.00,0.0217
424.00,0.0229
423.00,0.0240
422.00,0.0250
421.00,0.0261
420.00,0.0276
419.00,0.0291
418.00,0.0303
417.00,0.0307
416.00,0.0307
415.00,0.0306
414.00,0.0305
413.00,0.0300
412.00,0.0291
411.00,0.0280
410.00,0.0270
409.00,0.0259
408.00,0.0247
407.00,0.0240
406.00,0.0242
405.00,0.0249
404.00,0.0256
403.00,0.0262
402.00,0.0250
401.00,0.0245
400.00,0.0240
