Created as New Dataset,Sample 730 By YargerLab Date Thursday, June 26 2025
cm-1,A
4000.00,0.0009
3999.00,0.0009
3998.00,0.0009
3997.00,0.0009
3996.00,0.0009
3995.00,0.0009
3994.00,0.0009
3993.00,0.0009
3992.00,0.0009
3991.00,0.0009
3990.00,0.0009
3989.00,0.0009
3988.00,0.0009
3987.00,0.0009
3986.00,0.0009
3985.00,0.0009
3984.00,0.0009
3983.00,0.0009
3982.00,0.0009
3981.00,0.0009
3980.00,0.0009
3979.00,0.0009
3978.00,0.0009
3977.00,0.0009
3976.00,0.0009
3975.00,0.0009
3974.00,0.0009
3973.00,0.0009
3972.00,0.0009
3971.00,0.0009
3970.00,0.0009
3969.00,0.0009
3968.00,0.0009
3967.00,0.0010
3966.00,0.0010
3965.00,0.0010
3964.00,0.0010
3963.00,0.0010
3962.00,0.0009
3961.00,0.0009
3960.00,0.0009
3959.00,0.0009
3958.00,0.0009
3957.00,0.0009
3956.00,0.0009
3955.00,0.0009
3954.00,0.0009
3953.00,0.0009
3952.00,0.0009
3951.00,0.0008
3950.00,0.0008
3949.00,0.0008
3948.00,0.0008
3947.00,0.0009
3946.00,0.0008
3945.00,0.0008
3944.00,0.0008
3943.00,0.0008
3942.00,0.0008
3941.00,0.0008
3940.00,0.0008
3939.00,0.0008
3938.00,0.0009
3937.00,0.0009
3936.00,0.0009
3935.00,0.0009
3934.00,0.0008
3933.00,0.0008
3932.00,0.0008
3931.00,0.0008
3930.00,0.0008
3929.00,0.0008
3928.00,0.0008
3927.00,0.0008
3926.00,0.0008
3925.00,0.0008
3924.00,0.0008
3923.00,0.0008
3922.00,0.0008
3921.00,0.0008
3920.00,0.0008
3919.00,0.0008
3918.00,0.0008
3917.00,0.0008
3916.00,0.0008
3915.00,0.0008
3914.00,0.0008
3913.00,0.0008
3912.00,0.0008
3911.00,0.0008
3910.00,0.0008
3909.00,0.0009
3908.00,0.0008
3907.00,0.0008
3906.00,0.0008
3905.00,0.0007
3904.00,0.0007
3903.00,0.0007
3902.00,0.0006
3901.00,0.0006
3900.00,0.0007
3899.00,0.0007
3898.00,0.0007
3897.00,0.0008
3896.00,0.0008
3895.00,0.0007
3894.00,0.0007
3893.00,0.0007
3892.00,0.0007
3891.00,0.0007
3890.00,0.0007
3889.00,0.0007
3888.00,0.0007
3887.00,0.0007
3886.00,0.0007
3885.00,0.0007
3884.00,0.0007
3883.00,0.0006
3882.00,0.0006
3881.00,0.0006
3880.00,0.0007
3879.00,0.0007
3878.00,0.0007
3877.00,0.0006
3876.00,0.0006
3875.00,0.0007
3874.00,0.0007
3873.00,0.0007
3872.00,0.0006
3871.00,0.0007
3870.00,0.0007
3869.00,0.0008
3868.00,0.0007
3867.00,0.0007
3866.00,0.0006
3865.00,0.0006
3864.00,0.0007
3863.00,0.0007
3862.00,0.0007
3861.00,0.0007
3860.00,0.0007
3859.00,0.0007
3858.00,0.0007
3857.00,0.0007
3856.00,0.0007
3855.00,0.0007
3854.00,0.0007
3853.00,0.0007
3852.00,0.0006
3851.00,0.0006
3850.00,0.0006
3849.00,0.0006
3848.00,0.0007
3847.00,0.0007
3846.00,0.0007
3845.00,0.0007
3844.00,0.0007
3843.00,0.0007
3842.00,0.0007
3841.00,0.0007
3840.00,0.0007
3839.00,0.0007
3838.00,0.0006
3837.00,0.0006
3836.00,0.0006
3835.00,0.0006
3834.00,0.0007
3833.00,0.0007
3832.00,0.0007
3831.00,0.0008
3830.00,0.0007
3829.00,0.0007
3828.00,0.0007
3827.00,0.0007
3826.00,0.0007
3825.00,0.0008
3824.00,0.0007
3823.00,0.0007
3822.00,0.0007
3821.00,0.0007
3820.00,0.0007
3819.00,0.0007
3818.00,0.0006
3817.00,0.0006
3816.00,0.0007
3815.00,0.0007
3814.00,0.0007
3813.00,0.0007
3812.00,0.0007
3811.00,0.0008
3810.00,0.0008
3809.00,0.0008
3808.00,0.0008
3807.00,0.0008
3806.00,0.0009
3805.00,0.0008
3804.00,0.0008
3803.00,0.0007
3802.00,0.0008
3801.00,0.0008
3800.00,0.0007
3799.00,0.0007
3798.00,0.0006
3797.00,0.0007
3796.00,0.0007
3795.00,0.0008
3794.00,0.0008
3793.00,0.0007
3792.00,0.0007
3791.00,0.0008
3790.00,0.0008
3789.00,0.0008
3788.00,0.0008
3787.00,0.0008
3786.00,0.0008
3785.00,0.0008
3784.00,0.0008
3783.00,0.0008
3782.00,0.0008
3781.00,0.0008
3780.00,0.0008
3779.00,0.0008
3778.00,0.0008
3777.00,0.0008
3776.00,0.0008
3775.00,0.0008
3774.00,0.0008
3773.00,0.0008
3772.00,0.0008
3771.00,0.0008
3770.00,0.0008
3769.00,0.0008
3768.00,0.0008
3767.00,0.0007
3766.00,0.0007
3765.00,0.0008
3764.00,0.0008
3763.00,0.0008
3762.00,0.0008
3761.00,0.0008
3760.00,0.0008
3759.00,0.0008
3758.00,0.0008
3757.00,0.0009
3756.00,0.0009
3755.00,0.0008
3754.00,0.0008
3753.00,0.0008
3752.00,0.0008
3751.00,0.0008
3750.00,0.0008
3749.00,0.0007
3748.00,0.0007
3747.00,0.0006
3746.00,0.0005
3745.00,0.0006
3744.00,0.0006
3743.00,0.0007
3742.00,0.0006
3741.00,0.0006
3740.00,0.0007
3739.00,0.0007
3738.00,0.0007
3737.00,0.0007
3736.00,0.0006
3735.00,0.0006
3734.00,0.0006
3733.00,0.0006
3732.00,0.0006
3731.00,0.0006
3730.00,0.0006
3729.00,0.0006
3728.00,0.0006
3727.00,0.0006
3726.00,0.0007
3725.00,0.0007
3724.00,0.0007
3723.00,0.0007
3722.00,0.0007
3721.00,0.0007
3720.00,0.0007
3719.00,0.0008
3718.00,0.0008
3717.00,0.0008
3716.00,0.0008
3715.00,0.0008
3714.00,0.0008
3713.00,0.0008
3712.00,0.0008
3711.00,0.0007
3710.00,0.0007
3709.00,0.0007
3708.00,0.0007
3707.00,0.0008
3706.00,0.0008
3705.00,0.0008
3704.00,0.0008
3703.00,0.0008
3702.00,0.0009
3701.00,0.0009
3700.00,0.0009
3699.00,0.0009
3698.00,0.0009
3697.00,0.0009
3696.00,0.0009
3695.00,0.0010
3694.00,0.0010
3693.00,0.0010
3692.00,0.0010
3691.00,0.0010
3690.00,0.0010
3689.00,0.0010
3688.00,0.0010
3687.00,0.0010
3686.00,0.0010
3685.00,0.0010
3684.00,0.0011
3683.00,0.0012
3682.00,0.0012
3681.00,0.0012
3680.00,0.0013
3679.00,0.0013
3678.00,0.0013
3677.00,0.0013
3676.00,0.0013
3675.00,0.0014
3674.00,0.0013
3673.00,0.0013
3672.00,0.0013
3671.00,0.0014
3670.00,0.0015
3669.00,0.0015
3668.00,0.0016
3667.00,0.0016
3666.00,0.0017
3665.00,0.0018
3664.00,0.0019
3663.00,0.0020
3662.00,0.0020
3661.00,0.0021
3660.00,0.0021
3659.00,0.0021
3658.00,0.0021
3657.00,0.0022
3656.00,0.0022
3655.00,0.0023
3654.00,0.0023
3653.00,0.0024
3652.00,0.0024
3651.00,0.0024
3650.00,0.0024
3649.00,0.0024
3648.00,0.0024
3647.00,0.0024
3646.00,0.0025
3645.00,0.0026
3644.00,0.0027
3643.00,0.0028
3642.00,0.0029
3641.00,0.0031
3640.00,0.0031
3639.00,0.0032
3638.00,0.0032
3637.00,0.0033
3636.00,0.0033
3635.00,0.0034
3634.00,0.0035
3633.00,0.0036
3632.00,0.0037
3631.00,0.0037
3630.00,0.0037
3629.00,0.0038
3628.00,0.0038
3627.00,0.0038
3626.00,0.0038
3625.00,0.0039
3624.00,0.0041
3623.00,0.0042
3622.00,0.0043
3621.00,0.0043
3620.00,0.0044
3619.00,0.0045
3618.00,0.0045
3617.00,0.0046
3616.00,0.0047
3615.00,0.0048
3614.00,0.0049
3613.00,0.0050
3612.00,0.0050
3611.00,0.0050
3610.00,0.0051
3609.00,0.0051
3608.00,0.0052
3607.00,0.0053
3606.00,0.0054
3605.00,0.0055
3604.00,0.0056
3603.00,0.0057
3602.00,0.0058
3601.00,0.0059
3600.00,0.0059
3599.00,0.0060
3598.00,0.0061
3597.00,0.0061
3596.00,0.0062
3595.00,0.0063
3594.00,0.0064
3593.00,0.0065
3592.00,0.0066
3591.00,0.0067
3590.00,0.0067
3589.00,0.0068
3588.00,0.0069
3587.00,0.0069
3586.00,0.0070
3585.00,0.0070
3584.00,0.0071
3583.00,0.0073
3582.00,0.0074
3581.00,0.0075
3580.00,0.0077
3579.00,0.0077
3578.00,0.0078
3577.00,0.0079
3576.00,0.0080
3575.00,0.0081
3574.00,0.0082
3573.00,0.0083
3572.00,0.0084
3571.00,0.0084
3570.00,0.0085
3569.00,0.0086
3568.00,0.0086
3567.00,0.0086
3566.00,0.0087
3565.00,0.0088
3564.00,0.0089
3563.00,0.0090
3562.00,0.0092
3561.00,0.0093
3560.00,0.0094
3559.00,0.0095
3558.00,0.0096
3557.00,0.0097
3556.00,0.0098
3555.00,0.0099
3554.00,0.0100
3553.00,0.0100
3552.00,0.0101
3551.00,0.0102
3550.00,0.0103
3549.00,0.0104
3548.00,0.0105
3547.00,0.0106
3546.00,0.0106
3545.00,0.0107
3544.00,0.0108
3543.00,0.0109
3542.00,0.0110
3541.00,0.0111
3540.00,0.0112
3539.00,0.0113
3538.00,0.0114
3537.00,0.0115
3536.00,0.0116
3535.00,0.0116
3534.00,0.0117
3533.00,0.0118
3532.00,0.0119
3531.00,0.0120
3530.00,0.0121
3529.00,0.0121
3528.00,0.0122
3527.00,0.0122
3526.00,0.0123
3525.00,0.0124
3524.00,0.0125
3523.00,0.0126
3522.00,0.0127
3521.00,0.0128
3520.00,0.0129
3519.00,0.0130
3518.00,0.0131
3517.00,0.0132
3516.00,0.0133
3515.00,0.0133
3514.00,0.0134
3513.00,0.0135
3512.00,0.0136
3511.00,0.0137
3510.00,0.0138
3509.00,0.0139
3508.00,0.0140
3507.00,0.0140
3506.00,0.0141
3505.00,0.0142
3504.00,0.0143
3503.00,0.0144
3502.00,0.0145
3501.00,0.0146
3500.00,0.0146
3499.00,0.0147
3498.00,0.0148
3497.00,0.0149
3496.00,0.0150
3495.00,0.0151
3494.00,0.0152
3493.00,0.0153
3492.00,0.0154
3491.00,0.0155
3490.00,0.0156
3489.00,0.0157
3488.00,0.0158
3487.00,0.0159
3486.00,0.0160
3485.00,0.0161
3484.00,0.0162
3483.00,0.0163
3482.00,0.0164
3481.00,0.0164
3480.00,0.0165
3479.00,0.0166
3478.00,0.0167
3477.00,0.0168
3476.00,0.0169
3475.00,0.0170
3474.00,0.0171
3473.00,0.0172
3472.00,0.0173
3471.00,0.0174
3470.00,0.0175
3469.00,0.0176
3468.00,0.0177
3467.00,0.0178
3466.00,0.0179
3465.00,0.0180
3464.00,0.0181
3463.00,0.0182
3462.00,0.0183
3461.00,0.0184
3460.00,0.0185
3459.00,0.0185
3458.00,0.0186
3457.00,0.0187
3456.00,0.0188
3455.00,0.0189
3454.00,0.0190
3453.00,0.0191
3452.00,0.0192
3451.00,0.0193
3450.00,0.0194
3449.00,0.0195
3448.00,0.0196
3447.00,0.0197
3446.00,0.0198
3445.00,0.0199
3444.00,0.0200
3443.00,0.0201
3442.00,0.0202
3441.00,0.0203
3440.00,0.0204
3439.00,0.0205
3438.00,0.0206
3437.00,0.0207
3436.00,0.0208
3435.00,0.0209
3434.00,0.0210
3433.00,0.0210
3432.00,0.0211
3431.00,0.0212
3430.00,0.0214
3429.00,0.0215
3428.00,0.0216
3427.00,0.0217
3426.00,0.0218
3425.00,0.0220
3424.00,0.0220
3423.00,0.0221
3422.00,0.0222
3421.00,0.0223
3420.00,0.0224
3419.00,0.0224
3418.00,0.0225
3417.00,0.0227
3416.00,0.0228
3415.00,0.0229
3414.00,0.0230
3413.00,0.0231
3412.00,0.0232
3411.00,0.0233
3410.00,0.0234
3409.00,0.0235
3408.00,0.0236
3407.00,0.0237
3406.00,0.0238
3405.00,0.0239
3404.00,0.0240
3403.00,0.0241
3402.00,0.0242
3401.00,0.0243
3400.00,0.0244
3399.00,0.0245
3398.00,0.0246
3397.00,0.0247
3396.00,0.0248
3395.00,0.0249
3394.00,0.0250
3393.00,0.0250
3392.00,0.0251
3391.00,0.0253
3390.00,0.0254
3389.00,0.0255
3388.00,0.0257
3387.00,0.0258
3386.00,0.0259
3385.00,0.0260
3384.00,0.0261
3383.00,0.0262
3382.00,0.0263
3381.00,0.0264
3380.00,0.0265
3379.00,0.0267
3378.00,0.0268
3377.00,0.0269
3376.00,0.0271
3375.00,0.0273
3374.00,0.0274
3373.00,0.0275
3372.00,0.0276
3371.00,0.0277
3370.00,0.0279
3369.00,0.0280
3368.00,0.0282
3367.00,0.0283
3366.00,0.0285
3365.00,0.0286
3364.00,0.0288
3363.00,0.0289
3362.00,0.0291
3361.00,0.0292
3360.00,0.0294
3359.00,0.0296
3358.00,0.0298
3357.00,0.0299
3356.00,0.0301
3355.00,0.0302
3354.00,0.0304
3353.00,0.0305
3352.00,0.0307
3351.00,0.0309
3350.00,0.0310
3349.00,0.0312
3348.00,0.0315
3347.00,0.0317
3346.00,0.0319
3345.00,0.0320
3344.00,0.0322
3343.00,0.0324
3342.00,0.0325
3341.00,0.0327
3340.00,0.0329
3339.00,0.0331
3338.00,0.0333
3337.00,0.0336
3336.00,0.0338
3335.00,0.0341
3334.00,0.0343
3333.00,0.0346
3332.00,0.0348
3331.00,0.0351
3330.00,0.0353
3329.00,0.0355
3328.00,0.0357
3327.00,0.0360
3326.00,0.0362
3325.00,0.0365
3324.00,0.0368
3323.00,0.0371
3322.00,0.0374
3321.00,0.0377
3320.00,0.0380
3319.00,0.0383
3318.00,0.0386
3317.00,0.0389
3316.00,0.0392
3315.00,0.0395
3314.00,0.0398
3313.00,0.0401
3312.00,0.0404
3311.00,0.0407
3310.00,0.0409
3309.00,0.0412
3308.00,0.0415
3307.00,0.0419
3306.00,0.0422
3305.00,0.0426
3304.00,0.0430
3303.00,0.0434
3302.00,0.0438
3301.00,0.0442
3300.00,0.0445
3299.00,0.0449
3298.00,0.0452
3297.00,0.0455
3296.00,0.0458
3295.00,0.0461
3294.00,0.0465
3293.00,0.0468
3292.00,0.0472
3291.00,0.0476
3290.00,0.0479
3289.00,0.0483
3288.00,0.0486
3287.00,0.0489
3286.00,0.0492
3285.00,0.0495
3284.00,0.0497
3283.00,0.0499
3282.00,0.0501
3281.00,0.0503
3280.00,0.0505
3279.00,0.0507
3278.00,0.0509
3277.00,0.0509
3276.00,0.0510
3275.00,0.0510
3274.00,0.0510
3273.00,0.0510
3272.00,0.0509
3271.00,0.0509
3270.00,0.0508
3269.00,0.0508
3268.00,0.0507
3267.00,0.0506
3266.00,0.0504
3265.00,0.0502
3264.00,0.0500
3263.00,0.0498
3262.00,0.0496
3261.00,0.0493
3260.00,0.0490
3259.00,0.0487
3258.00,0.0483
3257.00,0.0480
3256.00,0.0476
3255.00,0.0473
3254.00,0.0470
3253.00,0.0467
3252.00,0.0464
3251.00,0.0461
3250.00,0.0457
3249.00,0.0454
3248.00,0.0450
3247.00,0.0447
3246.00,0.0444
3245.00,0.0441
3244.00,0.0438
3243.00,0.0435
3242.00,0.0432
3241.00,0.0430
3240.00,0.0427
3239.00,0.0424
3238.00,0.0420
3237.00,0.0417
3236.00,0.0413
3235.00,0.0410
3234.00,0.0407
3233.00,0.0405
3232.00,0.0403
3231.00,0.0401
3230.00,0.0399
3229.00,0.0397
3228.00,0.0394
3227.00,0.0392
3226.00,0.0390
3225.00,0.0388
3224.00,0.0386
3223.00,0.0384
3222.00,0.0382
3221.00,0.0379
3220.00,0.0377
3219.00,0.0375
3218.00,0.0373
3217.00,0.0371
3216.00,0.0369
3215.00,0.0367
3214.00,0.0364
3213.00,0.0363
3212.00,0.0361
3211.00,0.0359
3210.00,0.0357
3209.00,0.0355
3208.00,0.0353
3207.00,0.0351
3206.00,0.0350
3205.00,0.0348
3204.00,0.0346
3203.00,0.0344
3202.00,0.0342
3201.00,0.0340
3200.00,0.0338
3199.00,0.0337
3198.00,0.0335
3197.00,0.0333
3196.00,0.0331
3195.00,0.0329
3194.00,0.0328
3193.00,0.0326
3192.00,0.0324
3191.00,0.0322
3190.00,0.0321
3189.00,0.0319
3188.00,0.0318
3187.00,0.0316
3186.00,0.0314
3185.00,0.0312
3184.00,0.0311
3183.00,0.0309
3182.00,0.0307
3181.00,0.0306
3180.00,0.0304
3179.00,0.0302
3178.00,0.0301
3177.00,0.0299
3176.00,0.0297
3175.00,0.0296
3174.00,0.0294
3173.00,0.0293
3172.00,0.0291
3171.00,0.0290
3170.00,0.0288
3169.00,0.0286
3168.00,0.0285
3167.00,0.0283
3166.00,0.0282
3165.00,0.0280
3164.00,0.0279
3163.00,0.0278
3162.00,0.0276
3161.00,0.0275
3160.00,0.0273
3159.00,0.0272
3158.00,0.0271
3157.00,0.0269
3156.00,0.0268
3155.00,0.0266
3154.00,0.0265
3153.00,0.0263
3152.00,0.0262
3151.00,0.0261
3150.00,0.0261
3149.00,0.0260
3148.00,0.0259
3147.00,0.0258
3146.00,0.0257
3145.00,0.0255
3144.00,0.0254
3143.00,0.0253
3142.00,0.0252
3141.00,0.0251
3140.00,0.0250
3139.00,0.0249
3138.00,0.0249
3137.00,0.0248
3136.00,0.0247
3135.00,0.0247
3134.00,0.0246
3133.00,0.0245
3132.00,0.0244
3131.00,0.0243
3130.00,0.0243
3129.00,0.0242
3128.00,0.0242
3127.00,0.0242
3126.00,0.0241
3125.00,0.0241
3124.00,0.0240
3123.00,0.0239
3122.00,0.0238
3121.00,0.0237
3120.00,0.0237
3119.00,0.0236
3118.00,0.0236
3117.00,0.0236
3116.00,0.0237
3115.00,0.0237
3114.00,0.0238
3113.00,0.0238
3112.00,0.0238
3111.00,0.0239
3110.00,0.0239
3109.00,0.0239
3108.00,0.0239
3107.00,0.0240
3106.00,0.0240
3105.00,0.0241
3104.00,0.0241
3103.00,0.0241
3102.00,0.0242
3101.00,0.0242
3100.00,0.0243
3099.00,0.0244
3098.00,0.0245
3097.00,0.0245
3096.00,0.0246
3095.00,0.0246
3094.00,0.0246
3093.00,0.0247
3092.00,0.0247
3091.00,0.0247
3090.00,0.0248
3089.00,0.0249
3088.00,0.0249
3087.00,0.0249
3086.00,0.0249
3085.00,0.0249
3084.00,0.0249
3083.00,0.0249
3082.00,0.0249
3081.00,0.0249
3080.00,0.0249
3079.00,0.0249
3078.00,0.0249
3077.00,0.0250
3076.00,0.0250
3075.00,0.0251
3074.00,0.0251
3073.00,0.0251
3072.00,0.0250
3071.00,0.0250
3070.00,0.0249
3069.00,0.0248
3068.00,0.0247
3067.00,0.0247
3066.00,0.0246
3065.00,0.0245
3064.00,0.0244
3063.00,0.0244
3062.00,0.0243
3061.00,0.0242
3060.00,0.0241
3059.00,0.0240
3058.00,0.0238
3057.00,0.0237
3056.00,0.0235
3055.00,0.0234
3054.00,0.0233
3053.00,0.0231
3052.00,0.0230
3051.00,0.0229
3050.00,0.0228
3049.00,0.0227
3048.00,0.0225
3047.00,0.0224
3046.00,0.0222
3045.00,0.0220
3044.00,0.0219
3043.00,0.0217
3042.00,0.0216
3041.00,0.0215
3040.00,0.0215
3039.00,0.0214
3038.00,0.0213
3037.00,0.0212
3036.00,0.0211
3035.00,0.0209
3034.00,0.0208
3033.00,0.0207
3032.00,0.0207
3031.00,0.0206
3030.00,0.0205
3029.00,0.0204
3028.00,0.0203
3027.00,0.0202
3026.00,0.0201
3025.00,0.0200
3024.00,0.0199
3023.00,0.0198
3022.00,0.0197
3021.00,0.0196
3020.00,0.0195
3019.00,0.0193
3018.00,0.0192
3017.00,0.0191
3016.00,0.0189
3015.00,0.0188
3014.00,0.0187
3013.00,0.0186
3012.00,0.0186
3011.00,0.0186
3010.00,0.0186
3009.00,0.0186
3008.00,0.0186
3007.00,0.0186
3006.00,0.0185
3005.00,0.0185
3004.00,0.0185
3003.00,0.0185
3002.00,0.0185
3001.00,0.0185
3000.00,0.0185
2999.00,0.0185
2998.00,0.0185
2997.00,0.0186
2996.00,0.0187
2995.00,0.0188
2994.00,0.0189
2993.00,0.0190
2992.00,0.0191
2991.00,0.0193
2990.00,0.0195
2989.00,0.0197
2988.00,0.0199
2987.00,0.0201
2986.00,0.0203
2985.00,0.0206
2984.00,0.0208
2983.00,0.0211
2982.00,0.0213
2981.00,0.0216
2980.00,0.0220
2979.00,0.0223
2978.00,0.0226
2977.00,0.0230
2976.00,0.0233
2975.00,0.0237
2974.00,0.0240
2973.00,0.0244
2972.00,0.0247
2971.00,0.0251
2970.00,0.0254
2969.00,0.0258
2968.00,0.0261
2967.00,0.0263
2966.00,0.0266
2965.00,0.0268
2964.00,0.0270
2963.00,0.0271
2962.00,0.0272
2961.00,0.0273
2960.00,0.0273
2959.00,0.0273
2958.00,0.0272
2957.00,0.0270
2956.00,0.0268
2955.00,0.0266
2954.00,0.0263
2953.00,0.0261
2952.00,0.0259
2951.00,0.0257
2950.00,0.0255
2949.00,0.0254
2948.00,0.0253
2947.00,0.0252
2946.00,0.0252
2945.00,0.0253
2944.00,0.0254
2943.00,0.0256
2942.00,0.0258
2941.00,0.0261
2940.00,0.0263
2939.00,0.0266
2938.00,0.0269
2937.00,0.0271
2936.00,0.0273
2935.00,0.0275
2934.00,0.0277
2933.00,0.0279
2932.00,0.0280
2931.00,0.0281
2930.00,0.0281
2929.00,0.0281
2928.00,0.0281
2927.00,0.0281
2926.00,0.0280
2925.00,0.0279
2924.00,0.0277
2923.00,0.0275
2922.00,0.0273
2921.00,0.0271
2920.00,0.0268
2919.00,0.0264
2918.00,0.0261
2917.00,0.0257
2916.00,0.0253
2915.00,0.0250
2914.00,0.0246
2913.00,0.0242
2912.00,0.0239
2911.00,0.0236
2910.00,0.0233
2909.00,0.0230
2908.00,0.0227
2907.00,0.0224
2906.00,0.0222
2905.00,0.0219
2904.00,0.0217
2903.00,0.0215
2902.00,0.0213
2901.00,0.0211
2900.00,0.0210
2899.00,0.0208
2898.00,0.0206
2897.00,0.0205
2896.00,0.0203
2895.00,0.0202
2894.00,0.0200
2893.00,0.0199
2892.00,0.0198
2891.00,0.0197
2890.00,0.0196
2889.00,0.0196
2888.00,0.0195
2887.00,0.0195
2886.00,0.0196
2885.00,0.0196
2884.00,0.0197
2883.00,0.0197
2882.00,0.0198
2881.00,0.0200
2880.00,0.0201
2879.00,0.0202
2878.00,0.0203
2877.00,0.0204
2876.00,0.0205
2875.00,0.0205
2874.00,0.0205
2873.00,0.0204
2872.00,0.0204
2871.00,0.0203
2870.00,0.0201
2869.00,0.0199
2868.00,0.0197
2867.00,0.0194
2866.00,0.0192
2865.00,0.0190
2864.00,0.0188
2863.00,0.0186
2862.00,0.0184
2861.00,0.0183
2860.00,0.0182
2859.00,0.0182
2858.00,0.0181
2857.00,0.0181
2856.00,0.0181
2855.00,0.0180
2854.00,0.0179
2853.00,0.0178
2852.00,0.0176
2851.00,0.0173
2850.00,0.0171
2849.00,0.0168
2848.00,0.0165
2847.00,0.0161
2846.00,0.0158
2845.00,0.0155
2844.00,0.0153
2843.00,0.0150
2842.00,0.0148
2841.00,0.0146
2840.00,0.0144
2839.00,0.0142
2838.00,0.0141
2837.00,0.0140
2836.00,0.0139
2835.00,0.0138
2834.00,0.0137
2833.00,0.0136
2832.00,0.0136
2831.00,0.0135
2830.00,0.0134
2829.00,0.0134
2828.00,0.0133
2827.00,0.0133
2826.00,0.0132
2825.00,0.0131
2824.00,0.0131
2823.00,0.0131
2822.00,0.0130
2821.00,0.0130
2820.00,0.0129
2819.00,0.0129
2818.00,0.0128
2817.00,0.0128
2816.00,0.0127
2815.00,0.0127
2814.00,0.0126
2813.00,0.0126
2812.00,0.0126
2811.00,0.0125
2810.00,0.0125
2809.00,0.0124
2808.00,0.0124
2807.00,0.0124
2806.00,0.0124
2805.00,0.0123
2804.00,0.0123
2803.00,0.0123
2802.00,0.0122
2801.00,0.0122
2800.00,0.0121
2799.00,0.0121
2798.00,0.0120
2797.00,0.0120
2796.00,0.0119
2795.00,0.0119
2794.00,0.0118
2793.00,0.0118
2792.00,0.0117
2791.00,0.0117
2790.00,0.0116
2789.00,0.0116
2788.00,0.0116
2787.00,0.0115
2786.00,0.0115
2785.00,0.0115
2784.00,0.0114
2783.00,0.0114
2782.00,0.0114
2781.00,0.0113
2780.00,0.0113
2779.00,0.0112
2778.00,0.0112
2777.00,0.0112
2776.00,0.0111
2775.00,0.0111
2774.00,0.0111
2773.00,0.0110
2772.00,0.0109
2771.00,0.0109
2770.00,0.0109
2769.00,0.0108
2768.00,0.0108
2767.00,0.0108
2766.00,0.0107
2765.00,0.0107
2764.00,0.0106
2763.00,0.0106
2762.00,0.0106
2761.00,0.0105
2760.00,0.0105
2759.00,0.0104
2758.00,0.0104
2757.00,0.0104
2756.00,0.0103
2755.00,0.0103
2754.00,0.0102
2753.00,0.0102
2752.00,0.0102
2751.00,0.0101
2750.00,0.0101
2749.00,0.0100
2748.00,0.0100
2747.00,0.0100
2746.00,0.0099
2745.00,0.0099
2744.00,0.0099
2743.00,0.0098
2742.00,0.0098
2741.00,0.0098
2740.00,0.0097
2739.00,0.0097
2738.00,0.0097
2737.00,0.0096
2736.00,0.0096
2735.00,0.0096
2734.00,0.0095
2733.00,0.0095
2732.00,0.0095
2731.00,0.0094
2730.00,0.0094
2729.00,0.0093
2728.00,0.0093
2727.00,0.0092
2726.00,0.0092
2725.00,0.0091
2724.00,0.0091
2723.00,0.0091
2722.00,0.0091
2721.00,0.0090
2720.00,0.0090
2719.00,0.0089
2718.00,0.0089
2717.00,0.0088
2716.00,0.0088
2715.00,0.0088
2714.00,0.0088
2713.00,0.0088
2712.00,0.0087
2711.00,0.0087
2710.00,0.0086
2709.00,0.0086
2708.00,0.0086
2707.00,0.0085
2706.00,0.0085
2705.00,0.0085
2704.00,0.0085
2703.00,0.0085
2702.00,0.0084
2701.00,0.0084
2700.00,0.0084
2699.00,0.0084
2698.00,0.0084
2697.00,0.0084
2696.00,0.0083
2695.00,0.0083
2694.00,0.0083
2693.00,0.0083
2692.00,0.0082
2691.00,0.0082
2690.00,0.0082
2689.00,0.0082
2688.00,0.0082
2687.00,0.0082
2686.00,0.0082
2685.00,0.0081
2684.00,0.0081
2683.00,0.0081
2682.00,0.0081
2681.00,0.0081
2680.00,0.0081
2679.00,0.0080
2678.00,0.0080
2677.00,0.0080
2676.00,0.0080
2675.00,0.0080
2674.00,0.0080
2673.00,0.0080
2672.00,0.0080
2671.00,0.0079
2670.00,0.0079
2669.00,0.0079
2668.00,0.0079
2667.00,0.0080
2666.00,0.0080
2665.00,0.0080
2664.00,0.0081
2663.00,0.0081
2662.00,0.0081
2661.00,0.0082
2660.00,0.0082
2659.00,0.0082
2658.00,0.0082
2657.00,0.0082
2656.00,0.0082
2655.00,0.0082
2654.00,0.0082
2653.00,0.0082
2652.00,0.0082
2651.00,0.0082
2650.00,0.0082
2649.00,0.0082
2648.00,0.0082
2647.00,0.0081
2646.00,0.0081
2645.00,0.0081
2644.00,0.0080
2643.00,0.0080
2642.00,0.0080
2641.00,0.0080
2640.00,0.0079
2639.00,0.0079
2638.00,0.0079
2637.00,0.0079
2636.00,0.0079
2635.00,0.0078
2634.00,0.0078
2633.00,0.0078
2632.00,0.0078
2631.00,0.0078
2630.00,0.0078
2629.00,0.0078
2628.00,0.0078
2627.00,0.0077
2626.00,0.0077
2625.00,0.0077
2624.00,0.0077
2623.00,0.0076
2622.00,0.0076
2621.00,0.0076
2620.00,0.0075
2619.00,0.0075
2618.00,0.0075
2617.00,0.0075
2616.00,0.0075
2615.00,0.0074
2614.00,0.0074
2613.00,0.0074
2612.00,0.0073
2611.00,0.0073
2610.00,0.0073
2609.00,0.0073
2608.00,0.0072
2607.00,0.0072
2606.00,0.0072
2605.00,0.0071
2604.00,0.0071
2603.00,0.0071
2602.00,0.0071
2601.00,0.0071
2600.00,0.0070
2599.00,0.0070
2598.00,0.0069
2597.00,0.0069
2596.00,0.0069
2595.00,0.0069
2594.00,0.0069
2593.00,0.0069
2592.00,0.0069
2591.00,0.0068
2590.00,0.0068
2589.00,0.0068
2588.00,0.0068
2587.00,0.0067
2586.00,0.0067
2585.00,0.0067
2584.00,0.0067
2583.00,0.0066
2582.00,0.0066
2581.00,0.0066
2580.00,0.0065
2579.00,0.0065
2578.00,0.0065
2577.00,0.0065
2576.00,0.0065
2575.00,0.0065
2574.00,0.0065
2573.00,0.0065
2572.00,0.0065
2571.00,0.0065
2570.00,0.0064
2569.00,0.0064
2568.00,0.0064
2567.00,0.0063
2566.00,0.0063
2565.00,0.0062
2564.00,0.0062
2563.00,0.0062
2562.00,0.0062
2561.00,0.0062
2560.00,0.0062
2559.00,0.0062
2558.00,0.0062
2557.00,0.0062
2556.00,0.0062
2555.00,0.0062
2554.00,0.0061
2553.00,0.0061
2552.00,0.0061
2551.00,0.0060
2550.00,0.0060
2549.00,0.0060
2548.00,0.0060
2547.00,0.0060
2546.00,0.0059
2545.00,0.0059
2544.00,0.0059
2543.00,0.0059
2542.00,0.0059
2541.00,0.0059
2540.00,0.0059
2539.00,0.0059
2538.00,0.0059
2537.00,0.0058
2536.00,0.0058
2535.00,0.0058
2534.00,0.0057
2533.00,0.0057
2532.00,0.0057
2531.00,0.0057
2530.00,0.0057
2529.00,0.0057
2528.00,0.0056
2527.00,0.0056
2526.00,0.0056
2525.00,0.0056
2524.00,0.0056
2523.00,0.0056
2522.00,0.0055
2521.00,0.0055
2520.00,0.0055
2519.00,0.0055
2518.00,0.0055
2517.00,0.0055
2516.00,0.0054
2515.00,0.0054
2514.00,0.0054
2513.00,0.0054
2512.00,0.0054
2511.00,0.0054
2510.00,0.0054
2509.00,0.0054
2508.00,0.0054
2507.00,0.0054
2506.00,0.0054
2505.00,0.0054
2504.00,0.0053
2503.00,0.0053
2502.00,0.0053
2501.00,0.0053
2500.00,0.0053
2499.00,0.0053
2498.00,0.0053
2497.00,0.0053
2496.00,0.0053
2495.00,0.0053
2494.00,0.0053
2493.00,0.0053
2492.00,0.0052
2491.00,0.0052
2490.00,0.0051
2489.00,0.0051
2488.00,0.0051
2487.00,0.0051
2486.00,0.0051
2485.00,0.0051
2484.00,0.0051
2483.00,0.0051
2482.00,0.0051
2481.00,0.0050
2480.00,0.0050
2479.00,0.0050
2478.00,0.0050
2477.00,0.0049
2476.00,0.0049
2475.00,0.0049
2474.00,0.0048
2473.00,0.0048
2472.00,0.0048
2471.00,0.0048
2470.00,0.0048
2469.00,0.0048
2468.00,0.0048
2467.00,0.0048
2466.00,0.0048
2465.00,0.0048
2464.00,0.0049
2463.00,0.0049
2462.00,0.0049
2461.00,0.0049
2460.00,0.0049
2459.00,0.0048
2458.00,0.0048
2457.00,0.0048
2456.00,0.0047
2455.00,0.0047
2454.00,0.0047
2453.00,0.0047
2452.00,0.0047
2451.00,0.0047
2450.00,0.0047
2449.00,0.0047
2448.00,0.0047
2447.00,0.0046
2446.00,0.0045
2445.00,0.0045
2444.00,0.0045
2443.00,0.0045
2442.00,0.0045
2441.00,0.0045
2440.00,0.0045
2439.00,0.0045
2438.00,0.0044
2437.00,0.0044
2436.00,0.0043
2435.00,0.0043
2434.00,0.0042
2433.00,0.0042
2432.00,0.0042
2431.00,0.0042
2430.00,0.0042
2429.00,0.0041
2428.00,0.0041
2427.00,0.0041
2426.00,0.0041
2425.00,0.0041
2424.00,0.0041
2423.00,0.0041
2422.00,0.0041
2421.00,0.0040
2420.00,0.0041
2419.00,0.0041
2418.00,0.0041
2417.00,0.0040
2416.00,0.0040
2415.00,0.0040
2414.00,0.0039
2413.00,0.0039
2412.00,0.0039
2411.00,0.0039
2410.00,0.0039
2409.00,0.0039
2408.00,0.0038
2407.00,0.0037
2406.00,0.0037
2405.00,0.0037
2404.00,0.0037
2403.00,0.0037
2402.00,0.0037
2401.00,0.0036
2400.00,0.0036
2399.00,0.0036
2398.00,0.0035
2397.00,0.0035
2396.00,0.0036
2395.00,0.0036
2394.00,0.0036
2393.00,0.0036
2392.00,0.0036
2391.00,0.0035
2390.00,0.0035
2389.00,0.0035
2388.00,0.0034
2387.00,0.0034
2386.00,0.0034
2385.00,0.0033
2384.00,0.0033
2383.00,0.0033
2382.00,0.0032
2381.00,0.0032
2380.00,0.0032
2379.00,0.0033
2378.00,0.0033
2377.00,0.0032
2376.00,0.0032
2375.00,0.0032
2374.00,0.0032
2373.00,0.0032
2372.00,0.0032
2371.00,0.0032
2370.00,0.0031
2369.00,0.0031
2368.00,0.0031
2367.00,0.0031
2366.00,0.0031
2365.00,0.0031
2364.00,0.0032
2363.00,0.0032
2362.00,0.0032
2361.00,0.0032
2360.00,0.0032
2359.00,0.0032
2358.00,0.0032
2357.00,0.0031
2356.00,0.0031
2355.00,0.0030
2354.00,0.0030
2353.00,0.0030
2352.00,0.0031
2351.00,0.0032
2350.00,0.0033
2349.00,0.0033
2348.00,0.0033
2347.00,0.0033
2346.00,0.0033
2345.00,0.0033
2344.00,0.0034
2343.00,0.0034
2342.00,0.0034
2341.00,0.0034
2340.00,0.0034
2339.00,0.0034
2338.00,0.0034
2337.00,0.0034
2336.00,0.0034
2335.00,0.0034
2334.00,0.0033
2333.00,0.0033
2332.00,0.0033
2331.00,0.0032
2330.00,0.0033
2329.00,0.0035
2328.00,0.0038
2327.00,0.0042
2326.00,0.0045
2325.00,0.0046
2324.00,0.0045
2323.00,0.0044
2322.00,0.0042
2321.00,0.0040
2320.00,0.0039
2319.00,0.0038
2318.00,0.0038
2317.00,0.0037
2316.00,0.0037
2315.00,0.0036
2314.00,0.0036
2313.00,0.0035
2312.00,0.0035
2311.00,0.0035
2310.00,0.0035
2309.00,0.0035
2308.00,0.0035
2307.00,0.0035
2306.00,0.0036
2305.00,0.0036
2304.00,0.0037
2303.00,0.0037
2302.00,0.0037
2301.00,0.0037
2300.00,0.0037
2299.00,0.0037
2298.00,0.0037
2297.00,0.0037
2296.00,0.0038
2295.00,0.0039
2294.00,0.0040
2293.00,0.0040
2292.00,0.0041
2291.00,0.0042
2290.00,0.0042
2289.00,0.0043
2288.00,0.0044
2287.00,0.0044
2286.00,0.0044
2285.00,0.0043
2284.00,0.0042
2283.00,0.0041
2282.00,0.0040
2281.00,0.0039
2280.00,0.0039
2279.00,0.0038
2278.00,0.0038
2277.00,0.0037
2276.00,0.0037
2275.00,0.0036
2274.00,0.0036
2273.00,0.0036
2272.00,0.0036
2271.00,0.0037
2270.00,0.0036
2269.00,0.0036
2268.00,0.0035
2267.00,0.0034
2266.00,0.0033
2265.00,0.0033
2264.00,0.0032
2263.00,0.0032
2262.00,0.0033
2261.00,0.0033
2260.00,0.0034
2259.00,0.0035
2258.00,0.0035
2257.00,0.0034
2256.00,0.0033
2255.00,0.0032
2254.00,0.0031
2253.00,0.0030
2252.00,0.0031
2251.00,0.0031
2250.00,0.0031
2249.00,0.0031
2248.00,0.0031
2247.00,0.0031
2246.00,0.0032
2245.00,0.0032
2244.00,0.0032
2243.00,0.0032
2242.00,0.0031
2241.00,0.0031
2240.00,0.0031
2239.00,0.0032
2238.00,0.0032
2237.00,0.0032
2236.00,0.0032
2235.00,0.0032
2234.00,0.0032
2233.00,0.0032
2232.00,0.0032
2231.00,0.0032
2230.00,0.0032
2229.00,0.0032
2228.00,0.0032
2227.00,0.0030
2226.00,0.0029
2225.00,0.0029
2224.00,0.0029
2223.00,0.0029
2222.00,0.0029
2221.00,0.0029
2220.00,0.0028
2219.00,0.0029
2218.00,0.0029
2217.00,0.0029
2216.00,0.0030
2215.00,0.0030
2214.00,0.0030
2213.00,0.0029
2212.00,0.0029
2211.00,0.0028
2210.00,0.0029
2209.00,0.0029
2208.00,0.0030
2207.00,0.0030
2206.00,0.0029
2205.00,0.0029
2204.00,0.0030
2203.00,0.0030
2202.00,0.0029
2201.00,0.0028
2200.00,0.0028
2199.00,0.0028
2198.00,0.0028
2197.00,0.0027
2196.00,0.0027
2195.00,0.0027
2194.00,0.0028
2193.00,0.0029
2192.00,0.0031
2191.00,0.0032
2190.00,0.0033
2189.00,0.0033
2188.00,0.0034
2187.00,0.0034
2186.00,0.0034
2185.00,0.0033
2184.00,0.0032
2183.00,0.0029
2182.00,0.0026
2181.00,0.0024
2180.00,0.0024
2179.00,0.0024
2178.00,0.0024
2177.00,0.0023
2176.00,0.0023
2175.00,0.0023
2174.00,0.0023
2173.00,0.0025
2172.00,0.0027
2171.00,0.0029
2170.00,0.0031
2169.00,0.0033
2168.00,0.0035
2167.00,0.0036
2166.00,0.0036
2165.00,0.0037
2164.00,0.0040
2163.00,0.0040
2162.00,0.0035
2161.00,0.0025
2160.00,0.0011
2159.00,-0.0001
2158.00,-0.0008
2157.00,-0.0008
2156.00,-0.0004
2155.00,0.0000
2154.00,0.0003
2153.00,0.0006
2152.00,0.0008
2151.00,0.0008
2150.00,0.0007
2149.00,0.0007
2148.00,0.0007
2147.00,0.0007
2146.00,0.0007
2145.00,0.0008
2144.00,0.0008
2143.00,0.0009
2142.00,0.0009
2141.00,0.0009
2140.00,0.0010
2139.00,0.0010
2138.00,0.0010
2137.00,0.0009
2136.00,0.0009
2135.00,0.0008
2134.00,0.0007
2133.00,0.0008
2132.00,0.0010
2131.00,0.0012
2130.00,0.0014
2129.00,0.0016
2128.00,0.0017
2127.00,0.0018
2126.00,0.0018
2125.00,0.0019
2124.00,0.0020
2123.00,0.0021
2122.00,0.0021
2121.00,0.0022
2120.00,0.0022
2119.00,0.0023
2118.00,0.0024
2117.00,0.0025
2116.00,0.0026
2115.00,0.0027
2114.00,0.0027
2113.00,0.0028
2112.00,0.0028
2111.00,0.0028
2110.00,0.0028
2109.00,0.0029
2108.00,0.0029
2107.00,0.0029
2106.00,0.0029
2105.00,0.0029
2104.00,0.0029
2103.00,0.0029
2102.00,0.0029
2101.00,0.0028
2100.00,0.0028
2099.00,0.0027
2098.00,0.0026
2097.00,0.0024
2096.00,0.0023
2095.00,0.0023
2094.00,0.0023
2093.00,0.0024
2092.00,0.0025
2091.00,0.0025
2090.00,0.0026
2089.00,0.0027
2088.00,0.0027
2087.00,0.0028
2086.00,0.0028
2085.00,0.0029
2084.00,0.0030
2083.00,0.0031
2082.00,0.0032
2081.00,0.0032
2080.00,0.0032
2079.00,0.0031
2078.00,0.0030
2077.00,0.0030
2076.00,0.0029
2075.00,0.0029
2074.00,0.0028
2073.00,0.0027
2072.00,0.0027
2071.00,0.0028
2070.00,0.0028
2069.00,0.0029
2068.00,0.0029
2067.00,0.0029
2066.00,0.0029
2065.00,0.0027
2064.00,0.0026
2063.00,0.0025
2062.00,0.0024
2061.00,0.0024
2060.00,0.0025
2059.00,0.0026
2058.00,0.0026
2057.00,0.0026
2056.00,0.0026
2055.00,0.0027
2054.00,0.0030
2053.00,0.0034
2052.00,0.0038
2051.00,0.0038
2050.00,0.0035
2049.00,0.0031
2048.00,0.0028
2047.00,0.0025
2046.00,0.0024
2045.00,0.0024
2044.00,0.0024
2043.00,0.0024
2042.00,0.0024
2041.00,0.0024
2040.00,0.0025
2039.00,0.0025
2038.00,0.0025
2037.00,0.0025
2036.00,0.0024
2035.00,0.0022
2034.00,0.0019
2033.00,0.0017
2032.00,0.0016
2031.00,0.0014
2030.00,0.0013
2029.00,0.0013
2028.00,0.0015
2027.00,0.0016
2026.00,0.0017
2025.00,0.0017
2024.00,0.0018
2023.00,0.0018
2022.00,0.0017
2021.00,0.0016
2020.00,0.0015
2019.00,0.0013
2018.00,0.0013
2017.00,0.0013
2016.00,0.0015
2015.00,0.0016
2014.00,0.0017
2013.00,0.0018
2012.00,0.0020
2011.00,0.0020
2010.00,0.0019
2009.00,0.0016
2008.00,0.0014
2007.00,0.0011
2006.00,0.0010
2005.00,0.0011
2004.00,0.0014
2003.00,0.0016
2002.00,0.0017
2001.00,0.0018
2000.00,0.0019
1999.00,0.0019
1998.00,0.0019
1997.00,0.0020
1996.00,0.0022
1995.00,0.0022
1994.00,0.0021
1993.00,0.0020
1992.00,0.0022
1991.00,0.0023
1990.00,0.0022
1989.00,0.0022
1988.00,0.0023
1987.00,0.0025
1986.00,0.0026
1985.00,0.0028
1984.00,0.0031
1983.00,0.0034
1982.00,0.0035
1981.00,0.0035
1980.00,0.0033
1979.00,0.0028
1978.00,0.0020
1977.00,0.0014
1976.00,0.0011
1975.00,0.0009
1974.00,0.0009
1973.00,0.0010
1972.00,0.0013
1971.00,0.0014
1970.00,0.0013
1969.00,0.0012
1968.00,0.0013
1967.00,0.0013
1966.00,0.0013
1965.00,0.0013
1964.00,0.0014
1963.00,0.0013
1962.00,0.0011
1961.00,0.0010
1960.00,0.0010
1959.00,0.0010
1958.00,0.0011
1957.00,0.0012
1956.00,0.0014
1955.00,0.0016
1954.00,0.0016
1953.00,0.0017
1952.00,0.0018
1951.00,0.0019
1950.00,0.0018
1949.00,0.0018
1948.00,0.0018
1947.00,0.0018
1946.00,0.0017
1945.00,0.0016
1944.00,0.0018
1943.00,0.0019
1942.00,0.0019
1941.00,0.0019
1940.00,0.0018
1939.00,0.0018
1938.00,0.0019
1937.00,0.0019
1936.00,0.0019
1935.00,0.0019
1934.00,0.0019
1933.00,0.0018
1932.00,0.0018
1931.00,0.0018
1930.00,0.0018
1929.00,0.0018
1928.00,0.0019
1927.00,0.0019
1926.00,0.0019
1925.00,0.0019
1924.00,0.0019
1923.00,0.0020
1922.00,0.0021
1921.00,0.0021
1920.00,0.0022
1919.00,0.0022
1918.00,0.0023
1917.00,0.0022
1916.00,0.0022
1915.00,0.0022
1914.00,0.0021
1913.00,0.0021
1912.00,0.0022
1911.00,0.0022
1910.00,0.0023
1909.00,0.0023
1908.00,0.0023
1907.00,0.0023
1906.00,0.0023
1905.00,0.0023
1904.00,0.0023
1903.00,0.0023
1902.00,0.0022
1901.00,0.0022
1900.00,0.0023
1899.00,0.0023
1898.00,0.0023
1897.00,0.0023
1896.00,0.0023
1895.00,0.0023
1894.00,0.0023
1893.00,0.0023
1892.00,0.0022
1891.00,0.0023
1890.00,0.0023
1889.00,0.0024
1888.00,0.0024
1887.00,0.0024
1886.00,0.0023
1885.00,0.0023
1884.00,0.0024
1883.00,0.0025
1882.00,0.0025
1881.00,0.0024
1880.00,0.0025
1879.00,0.0024
1878.00,0.0024
1877.00,0.0024
1876.00,0.0024
1875.00,0.0025
1874.00,0.0025
1873.00,0.0024
1872.00,0.0024
1871.00,0.0023
1870.00,0.0023
1869.00,0.0024
1868.00,0.0025
1867.00,0.0025
1866.00,0.0026
1865.00,0.0026
1864.00,0.0026
1863.00,0.0026
1862.00,0.0025
1861.00,0.0025
1860.00,0.0025
1859.00,0.0026
1858.00,0.0026
1857.00,0.0026
1856.00,0.0026
1855.00,0.0026
1854.00,0.0025
1853.00,0.0025
1852.00,0.0025
1851.00,0.0026
1850.00,0.0026
1849.00,0.0026
1848.00,0.0027
1847.00,0.0026
1846.00,0.0026
1845.00,0.0027
1844.00,0.0028
1843.00,0.0028
1842.00,0.0027
1841.00,0.0026
1840.00,0.0027
1839.00,0.0027
1838.00,0.0028
1837.00,0.0028
1836.00,0.0029
1835.00,0.0029
1834.00,0.0029
1833.00,0.0027
1832.00,0.0026
1831.00,0.0026
1830.00,0.0028
1829.00,0.0029
1828.00,0.0029
1827.00,0.0029
1826.00,0.0029
1825.00,0.0030
1824.00,0.0031
1823.00,0.0031
1822.00,0.0031
1821.00,0.0031
1820.00,0.0031
1819.00,0.0030
1818.00,0.0030
1817.00,0.0029
1816.00,0.0030
1815.00,0.0030
1814.00,0.0030
1813.00,0.0030
1812.00,0.0031
1811.00,0.0032
1810.00,0.0032
1809.00,0.0033
1808.00,0.0034
1807.00,0.0035
1806.00,0.0035
1805.00,0.0035
1804.00,0.0035
1803.00,0.0035
1802.00,0.0035
1801.00,0.0035
1800.00,0.0036
1799.00,0.0037
1798.00,0.0037
1797.00,0.0037
1796.00,0.0037
1795.00,0.0037
1794.00,0.0037
1793.00,0.0038
1792.00,0.0040
1791.00,0.0042
1790.00,0.0042
1789.00,0.0042
1788.00,0.0043
1787.00,0.0044
1786.00,0.0044
1785.00,0.0045
1784.00,0.0044
1783.00,0.0044
1782.00,0.0044
1781.00,0.0044
1780.00,0.0045
1779.00,0.0046
1778.00,0.0046
1777.00,0.0046
1776.00,0.0046
1775.00,0.0046
1774.00,0.0046
1773.00,0.0048
1772.00,0.0051
1771.00,0.0052
1770.00,0.0053
1769.00,0.0055
1768.00,0.0057
1767.00,0.0059
1766.00,0.0060
1765.00,0.0060
1764.00,0.0062
1763.00,0.0065
1762.00,0.0067
1761.00,0.0070
1760.00,0.0071
1759.00,0.0073
1758.00,0.0075
1757.00,0.0079
1756.00,0.0082
1755.00,0.0084
1754.00,0.0086
1753.00,0.0087
1752.00,0.0089
1751.00,0.0091
1750.00,0.0093
1749.00,0.0096
1748.00,0.0100
1747.00,0.0103
1746.00,0.0106
1745.00,0.0110
1744.00,0.0114
1743.00,0.0118
1742.00,0.0121
1741.00,0.0125
1740.00,0.0130
1739.00,0.0135
1738.00,0.0138
1737.00,0.0141
1736.00,0.0144
1735.00,0.0150
1734.00,0.0155
1733.00,0.0158
1732.00,0.0161
1731.00,0.0165
1730.00,0.0169
1729.00,0.0173
1728.00,0.0177
1727.00,0.0180
1726.00,0.0183
1725.00,0.0186
1724.00,0.0190
1723.00,0.0194
1722.00,0.0197
1721.00,0.0199
1720.00,0.0202
1719.00,0.0205
1718.00,0.0209
1717.00,0.0213
1716.00,0.0217
1715.00,0.0221
1714.00,0.0225
1713.00,0.0229
1712.00,0.0235
1711.00,0.0241
1710.00,0.0247
1709.00,0.0253
1708.00,0.0260
1707.00,0.0270
1706.00,0.0283
1705.00,0.0299
1704.00,0.0316
1703.00,0.0332
1702.00,0.0351
1701.00,0.0379
1700.00,0.0410
1699.00,0.0436
1698.00,0.0456
1697.00,0.0477
1696.00,0.0498
1695.00,0.0514
1694.00,0.0524
1693.00,0.0533
1692.00,0.0543
1691.00,0.0554
1690.00,0.0566
1689.00,0.0578
1688.00,0.0591
1687.00,0.0603
1686.00,0.0616
1685.00,0.0633
1684.00,0.0650
1683.00,0.0664
1682.00,0.0678
1681.00,0.0694
1680.00,0.0712
1679.00,0.0730
1678.00,0.0746
1677.00,0.0764
1676.00,0.0782
1675.00,0.0799
1674.00,0.0813
1673.00,0.0828
1672.00,0.0844
1671.00,0.0863
1670.00,0.0881
1669.00,0.0899
1668.00,0.0917
1667.00,0.0934
1666.00,0.0952
1665.00,0.0970
1664.00,0.0990
1663.00,0.1010
1662.00,0.1028
1661.00,0.1045
1660.00,0.1064
1659.00,0.1084
1658.00,0.1104
1657.00,0.1123
1656.00,0.1142
1655.00,0.1160
1654.00,0.1177
1653.00,0.1183
1652.00,0.1184
1651.00,0.1191
1650.00,0.1202
1649.00,0.1215
1648.00,0.1229
1647.00,0.1237
1646.00,0.1240
1645.00,0.1243
1644.00,0.1250
1643.00,0.1261
1642.00,0.1272
1641.00,0.1283
1640.00,0.1295
1639.00,0.1308
1638.00,0.1322
1637.00,0.1338
1636.00,0.1355
1635.00,0.1369
1634.00,0.1385
1633.00,0.1405
1632.00,0.1431
1631.00,0.1459
1630.00,0.1486
1629.00,0.1513
1628.00,0.1541
1627.00,0.1567
1626.00,0.1591
1625.00,0.1612
1624.00,0.1631
1623.00,0.1644
1622.00,0.1650
1621.00,0.1653
1620.00,0.1656
1619.00,0.1654
1618.00,0.1641
1617.00,0.1610
1616.00,0.1568
1615.00,0.1527
1614.00,0.1492
1613.00,0.1456
1612.00,0.1417
1611.00,0.1371
1610.00,0.1322
1609.00,0.1270
1608.00,0.1220
1607.00,0.1171
1606.00,0.1125
1605.00,0.1083
1604.00,0.1042
1603.00,0.1003
1602.00,0.0967
1601.00,0.0933
1600.00,0.0903
1599.00,0.0875
1598.00,0.0850
1597.00,0.0827
1596.00,0.0805
1595.00,0.0784
1594.00,0.0765
1593.00,0.0748
1592.00,0.0733
1591.00,0.0718
1590.00,0.0706
1589.00,0.0695
1588.00,0.0686
1587.00,0.0677
1586.00,0.0671
1585.00,0.0667
1584.00,0.0663
1583.00,0.0661
1582.00,0.0660
1581.00,0.0662
1580.00,0.0664
1579.00,0.0666
1578.00,0.0670
1577.00,0.0677
1576.00,0.0684
1575.00,0.0690
1574.00,0.0699
1573.00,0.0709
1572.00,0.0720
1571.00,0.0733
1570.00,0.0746
1569.00,0.0760
1568.00,0.0773
1567.00,0.0786
1566.00,0.0801
1565.00,0.0818
1564.00,0.0836
1563.00,0.0853
1562.00,0.0869
1561.00,0.0885
1560.00,0.0904
1559.00,0.0923
1558.00,0.0939
1557.00,0.0954
1556.00,0.0972
1555.00,0.0992
1554.00,0.1013
1553.00,0.1033
1552.00,0.1051
1551.00,0.1070
1550.00,0.1089
1549.00,0.1108
1548.00,0.1125
1547.00,0.1143
1546.00,0.1160
1545.00,0.1177
1544.00,0.1191
1543.00,0.1204
1542.00,0.1217
1541.00,0.1231
1540.00,0.1243
1539.00,0.1252
1538.00,0.1263
1537.00,0.1276
1536.00,0.1291
1535.00,0.1306
1534.00,0.1318
1533.00,0.1327
1532.00,0.1333
1531.00,0.1341
1530.00,0.1351
1529.00,0.1360
1528.00,0.1367
1527.00,0.1372
1526.00,0.1374
1525.00,0.1376
1524.00,0.1378
1523.00,0.1381
1522.00,0.1382
1521.00,0.1379
1520.00,0.1375
1519.00,0.1374
1518.00,0.1377
1517.00,0.1377
1516.00,0.1372
1515.00,0.1363
1514.00,0.1352
1513.00,0.1338
1512.00,0.1319
1511.00,0.1298
1510.00,0.1277
1509.00,0.1254
1508.00,0.1227
1507.00,0.1191
1506.00,0.1148
1505.00,0.1112
1504.00,0.1088
1503.00,0.1069
1502.00,0.1051
1501.00,0.1029
1500.00,0.1006
1499.00,0.0982
1498.00,0.0957
1497.00,0.0929
1496.00,0.0900
1495.00,0.0873
1494.00,0.0850
1493.00,0.0829
1492.00,0.0808
1491.00,0.0785
1490.00,0.0760
1489.00,0.0735
1488.00,0.0714
1487.00,0.0696
1486.00,0.0680
1485.00,0.0664
1484.00,0.0651
1483.00,0.0639
1482.00,0.0628
1481.00,0.0618
1480.00,0.0611
1479.00,0.0607
1478.00,0.0604
1477.00,0.0603
1476.00,0.0604
1475.00,0.0606
1474.00,0.0611
1473.00,0.0618
1472.00,0.0627
1471.00,0.0634
1470.00,0.0641
1469.00,0.0646
1468.00,0.0651
1467.00,0.0654
1466.00,0.0656
1465.00,0.0656
1464.00,0.0656
1463.00,0.0658
1462.00,0.0661
1461.00,0.0665
1460.00,0.0671
1459.00,0.0678
1458.00,0.0686
1457.00,0.0695
1456.00,0.0701
1455.00,0.0704
1454.00,0.0708
1453.00,0.0712
1452.00,0.0715
1451.00,0.0717
1450.00,0.0718
1449.00,0.0718
1448.00,0.0717
1447.00,0.0715
1446.00,0.0713
1445.00,0.0711
1444.00,0.0709
1443.00,0.0707
1442.00,0.0705
1441.00,0.0702
1440.00,0.0700
1439.00,0.0697
1438.00,0.0692
1437.00,0.0684
1436.00,0.0672
1435.00,0.0660
1434.00,0.0651
1433.00,0.0643
1432.00,0.0636
1431.00,0.0628
1430.00,0.0621
1429.00,0.0615
1428.00,0.0610
1427.00,0.0607
1426.00,0.0606
1425.00,0.0606
1424.00,0.0607
1423.00,0.0610
1422.00,0.0613
1421.00,0.0617
1420.00,0.0622
1419.00,0.0627
1418.00,0.0632
1417.00,0.0638
1416.00,0.0644
1415.00,0.0651
1414.00,0.0659
1413.00,0.0665
1412.00,0.0671
1411.00,0.0677
1410.00,0.0682
1409.00,0.0686
1408.00,0.0690
1407.00,0.0694
1406.00,0.0698
1405.00,0.0700
1404.00,0.0703
1403.00,0.0706
1402.00,0.0708
1401.00,0.0710
1400.00,0.0712
1399.00,0.0713
1398.00,0.0714
1397.00,0.0716
1396.00,0.0718
1395.00,0.0719
1394.00,0.0721
1393.00,0.0722
1392.00,0.0723
1391.00,0.0725
1390.00,0.0727
1389.00,0.0727
1388.00,0.0726
1387.00,0.0722
1386.00,0.0717
1385.00,0.0711
1384.00,0.0704
1383.00,0.0698
1382.00,0.0690
1381.00,0.0682
1380.00,0.0675
1379.00,0.0668
1378.00,0.0661
1377.00,0.0654
1376.00,0.0649
1375.00,0.0644
1374.00,0.0641
1373.00,0.0638
1372.00,0.0636
1371.00,0.0634
1370.00,0.0632
1369.00,0.0629
1368.00,0.0624
1367.00,0.0619
1366.00,0.0612
1365.00,0.0605
1364.00,0.0597
1363.00,0.0590
1362.00,0.0584
1361.00,0.0579
1360.00,0.0575
1359.00,0.0571
1358.00,0.0569
1357.00,0.0566
1356.00,0.0564
1355.00,0.0562
1354.00,0.0560
1353.00,0.0559
1352.00,0.0558
1351.00,0.0557
1350.00,0.0556
1349.00,0.0556
1348.00,0.0555
1347.00,0.0555
1346.00,0.0555
1345.00,0.0554
1344.00,0.0554
1343.00,0.0553
1342.00,0.0553
1341.00,0.0552
1340.00,0.0551
1339.00,0.0550
1338.00,0.0549
1337.00,0.0548
1336.00,0.0546
1335.00,0.0545
1334.00,0.0543
1333.00,0.0542
1332.00,0.0540
1331.00,0.0539
1330.00,0.0538
1329.00,0.0538
1328.00,0.0538
1327.00,0.0538
1326.00,0.0538
1325.00,0.0539
1324.00,0.0540
1323.00,0.0541
1322.00,0.0542
1321.00,0.0543
1320.00,0.0545
1319.00,0.0546
1318.00,0.0548
1317.00,0.0550
1316.00,0.0551
1315.00,0.0552
1314.00,0.0553
1313.00,0.0553
1312.00,0.0554
1311.00,0.0554
1310.00,0.0554
1309.00,0.0553
1308.00,0.0553
1307.00,0.0553
1306.00,0.0552
1305.00,0.0552
1304.00,0.0552
1303.00,0.0553
1302.00,0.0554
1301.00,0.0554
1300.00,0.0555
1299.00,0.0556
1298.00,0.0558
1297.00,0.0560
1296.00,0.0562
1295.00,0.0564
1294.00,0.0567
1293.00,0.0570
1292.00,0.0573
1291.00,0.0576
1290.00,0.0579
1289.00,0.0582
1288.00,0.0585
1287.00,0.0588
1286.00,0.0590
1285.00,0.0593
1284.00,0.0596
1283.00,0.0598
1282.00,0.0601
1281.00,0.0603
1280.00,0.0605
1279.00,0.0606
1278.00,0.0607
1277.00,0.0608
1276.00,0.0609
1275.00,0.0610
1274.00,0.0611
1273.00,0.0612
1272.00,0.0613
1271.00,0.0615
1270.00,0.0617
1269.00,0.0620
1268.00,0.0623
1267.00,0.0627
1266.00,0.0632
1265.00,0.0637
1264.00,0.0642
1263.00,0.0647
1262.00,0.0653
1261.00,0.0659
1260.00,0.0665
1259.00,0.0671
1258.00,0.0677
1257.00,0.0683
1256.00,0.0689
1255.00,0.0696
1254.00,0.0702
1253.00,0.0709
1252.00,0.0715
1251.00,0.0722
1250.00,0.0728
1249.00,0.0735
1248.00,0.0741
1247.00,0.0747
1246.00,0.0753
1245.00,0.0760
1244.00,0.0765
1243.00,0.0771
1242.00,0.0777
1241.00,0.0783
1240.00,0.0789
1239.00,0.0794
1238.00,0.0800
1237.00,0.0804
1236.00,0.0808
1235.00,0.0812
1234.00,0.0815
1233.00,0.0818
1232.00,0.0820
1231.00,0.0822
1230.00,0.0822
1229.00,0.0823
1228.00,0.0822
1227.00,0.0821
1226.00,0.0820
1225.00,0.0817
1224.00,0.0814
1223.00,0.0811
1222.00,0.0807
1221.00,0.0803
1220.00,0.0798
1219.00,0.0792
1218.00,0.0787
1217.00,0.0780
1216.00,0.0774
1215.00,0.0766
1214.00,0.0759
1213.00,0.0750
1212.00,0.0742
1211.00,0.0733
1210.00,0.0725
1209.00,0.0717
1208.00,0.0709
1207.00,0.0702
1206.00,0.0694
1205.00,0.0687
1204.00,0.0680
1203.00,0.0674
1202.00,0.0668
1201.00,0.0662
1200.00,0.0657
1199.00,0.0652
1198.00,0.0647
1197.00,0.0643
1196.00,0.0639
1195.00,0.0635
1194.00,0.0632
1193.00,0.0628
1192.00,0.0625
1191.00,0.0622
1190.00,0.0620
1189.00,0.0618
1188.00,0.0616
1187.00,0.0614
1186.00,0.0613
1185.00,0.0612
1184.00,0.0612
1183.00,0.0611
1182.00,0.0612
1181.00,0.0613
1180.00,0.0615
1179.00,0.0617
1178.00,0.0620
1177.00,0.0624
1176.00,0.0628
1175.00,0.0633
1174.00,0.0637
1173.00,0.0641
1172.00,0.0644
1171.00,0.0647
1170.00,0.0648
1169.00,0.0649
1168.00,0.0650
1167.00,0.0650
1166.00,0.0651
1165.00,0.0652
1164.00,0.0653
1163.00,0.0654
1162.00,0.0656
1161.00,0.0657
1160.00,0.0658
1159.00,0.0659
1158.00,0.0660
1157.00,0.0660
1156.00,0.0659
1155.00,0.0657
1154.00,0.0655
1153.00,0.0652
1152.00,0.0648
1151.00,0.0644
1150.00,0.0639
1149.00,0.0633
1148.00,0.0627
1147.00,0.0621
1146.00,0.0615
1145.00,0.0609
1144.00,0.0603
1143.00,0.0597
1142.00,0.0592
1141.00,0.0588
1140.00,0.0584
1139.00,0.0581
1138.00,0.0578
1137.00,0.0576
1136.00,0.0575
1135.00,0.0575
1134.00,0.0575
1133.00,0.0576
1132.00,0.0577
1131.00,0.0579
1130.00,0.0581
1129.00,0.0584
1128.00,0.0586
1127.00,0.0589
1126.00,0.0592
1125.00,0.0594
1124.00,0.0596
1123.00,0.0598
1122.00,0.0599
1121.00,0.0601
1120.00,0.0603
1119.00,0.0605
1118.00,0.0607
1117.00,0.0609
1116.00,0.0611
1115.00,0.0612
1114.00,0.0614
1113.00,0.0615
1112.00,0.0616
1111.00,0.0617
1110.00,0.0618
1109.00,0.0619
1108.00,0.0620
1107.00,0.0621
1106.00,0.0624
1105.00,0.0626
1104.00,0.0628
1103.00,0.0630
1102.00,0.0632
1101.00,0.0635
1100.00,0.0638
1099.00,0.0641
1098.00,0.0646
1097.00,0.0650
1096.00,0.0654
1095.00,0.0659
1094.00,0.0665
1093.00,0.0671
1092.00,0.0678
1091.00,0.0687
1090.00,0.0696
1089.00,0.0705
1088.00,0.0714
1087.00,0.0724
1086.00,0.0734
1085.00,0.0744
1084.00,0.0753
1083.00,0.0763
1082.00,0.0772
1081.00,0.0781
1080.00,0.0788
1079.00,0.0794
1078.00,0.0799
1077.00,0.0802
1076.00,0.0805
1075.00,0.0806
1074.00,0.0808
1073.00,0.0808
1072.00,0.0808
1071.00,0.0808
1070.00,0.0808
1069.00,0.0808
1068.00,0.0809
1067.00,0.0810
1066.00,0.0812
1065.00,0.0815
1064.00,0.0817
1063.00,0.0820
1062.00,0.0823
1061.00,0.0826
1060.00,0.0828
1059.00,0.0831
1058.00,0.0833
1057.00,0.0834
1056.00,0.0834
1055.00,0.0834
1054.00,0.0833
1053.00,0.0832
1052.00,0.0831
1051.00,0.0829
1050.00,0.0827
1049.00,0.0825
1048.00,0.0822
1047.00,0.0820
1046.00,0.0817
1045.00,0.0815
1044.00,0.0812
1043.00,0.0809
1042.00,0.0806
1041.00,0.0802
1040.00,0.0798
1039.00,0.0794
1038.00,0.0791
1037.00,0.0787
1036.00,0.0783
1035.00,0.0780
1034.00,0.0777
1033.00,0.0775
1032.00,0.0772
1031.00,0.0770
1030.00,0.0769
1029.00,0.0766
1028.00,0.0763
1027.00,0.0759
1026.00,0.0755
1025.00,0.0750
1024.00,0.0745
1023.00,0.0740
1022.00,0.0734
1021.00,0.0728
1020.00,0.0721
1019.00,0.0714
1018.00,0.0708
1017.00,0.0701
1016.00,0.0693
1015.00,0.0686
1014.00,0.0679
1013.00,0.0671
1012.00,0.0664
1011.00,0.0656
1010.00,0.0649
1009.00,0.0641
1008.00,0.0633
1007.00,0.0625
1006.00,0.0618
1005.00,0.0612
1004.00,0.0604
1003.00,0.0598
1002.00,0.0591
1001.00,0.0585
1000.00,0.0578
999.00,0.0572
998.00,0.0566
997.00,0.0560
996.00,0.0554
995.00,0.0547
994.00,0.0540
993.00,0.0532
992.00,0.0525
991.00,0.0518
990.00,0.0511
989.00,0.0505
988.00,0.0498
987.00,0.0492
986.00,0.0487
985.00,0.0483
984.00,0.0478
983.00,0.0474
982.00,0.0471
981.00,0.0469
980.00,0.0467
979.00,0.0466
978.00,0.0467
977.00,0.0467
976.00,0.0468
975.00,0.0469
974.00,0.0470
973.00,0.0471
972.00,0.0473
971.00,0.0474
970.00,0.0475
969.00,0.0476
968.00,0.0477
967.00,0.0477
966.00,0.0478
965.00,0.0478
964.00,0.0478
963.00,0.0477
962.00,0.0477
961.00,0.0477
960.00,0.0476
959.00,0.0475
958.00,0.0474
957.00,0.0473
956.00,0.0471
955.00,0.0470
954.00,0.0470
953.00,0.0469
952.00,0.0468
951.00,0.0468
950.00,0.0469
949.00,0.0469
948.00,0.0470
947.00,0.0470
946.00,0.0471
945.00,0.0472
944.00,0.0473
943.00,0.0475
942.00,0.0477
941.00,0.0479
940.00,0.0481
939.00,0.0483
938.00,0.0485
937.00,0.0487
936.00,0.0488
935.00,0.0490
934.00,0.0492
933.00,0.0493
932.00,0.0493
931.00,0.0494
930.00,0.0494
929.00,0.0494
928.00,0.0493
927.00,0.0492
926.00,0.0492
925.00,0.0491
924.00,0.0489
923.00,0.0488
922.00,0.0486
921.00,0.0485
920.00,0.0483
919.00,0.0481
918.00,0.0479
917.00,0.0477
916.00,0.0475
915.00,0.0473
914.00,0.0472
913.00,0.0470
912.00,0.0468
911.00,0.0467
910.00,0.0465
909.00,0.0464
908.00,0.0462
907.00,0.0461
906.00,0.0460
905.00,0.0459
904.00,0.0458
903.00,0.0456
902.00,0.0455
901.00,0.0454
900.00,0.0452
899.00,0.0451
898.00,0.0450
897.00,0.0450
896.00,0.0448
895.00,0.0447
894.00,0.0447
893.00,0.0446
892.00,0.0446
891.00,0.0446
890.00,0.0446
889.00,0.0446
888.00,0.0445
887.00,0.0444
886.00,0.0444
885.00,0.0443
884.00,0.0443
883.00,0.0442
882.00,0.0442
881.00,0.0442
880.00,0.0442
879.00,0.0442
878.00,0.0441
877.00,0.0441
876.00,0.0439
875.00,0.0438
874.00,0.0438
873.00,0.0438
872.00,0.0437
871.00,0.0437
870.00,0.0437
869.00,0.0436
868.00,0.0436
867.00,0.0436
866.00,0.0437
865.00,0.0439
864.00,0.0440
863.00,0.0442
862.00,0.0445
861.00,0.0447
860.00,0.0450
859.00,0.0452
858.00,0.0455
857.00,0.0459
856.00,0.0461
855.00,0.0465
854.00,0.0469
853.00,0.0472
852.00,0.0473
851.00,0.0474
850.00,0.0475
849.00,0.0475
848.00,0.0475
847.00,0.0475
846.00,0.0475
845.00,0.0476
844.00,0.0477
843.00,0.0479
842.00,0.0481
841.00,0.0484
840.00,0.0487
839.00,0.0490
838.00,0.0495
837.00,0.0499
836.00,0.0503
835.00,0.0508
834.00,0.0513
833.00,0.0517
832.00,0.0521
831.00,0.0524
830.00,0.0528
829.00,0.0531
828.00,0.0533
827.00,0.0535
826.00,0.0537
825.00,0.0538
824.00,0.0539
823.00,0.0539
822.00,0.0541
821.00,0.0542
820.00,0.0543
819.00,0.0546
818.00,0.0549
817.00,0.0551
816.00,0.0553
815.00,0.0555
814.00,0.0558
813.00,0.0561
812.00,0.0564
811.00,0.0567
810.00,0.0571
809.00,0.0574
808.00,0.0577
807.00,0.0580
806.00,0.0583
805.00,0.0587
804.00,0.0591
803.00,0.0594
802.00,0.0598
801.00,0.0602
800.00,0.0606
799.00,0.0610
798.00,0.0614
797.00,0.0619
796.00,0.0623
795.00,0.0627
794.00,0.0634
793.00,0.0640
792.00,0.0646
791.00,0.0652
790.00,0.0659
789.00,0.0667
788.00,0.0673
787.00,0.0680
786.00,0.0687
785.00,0.0693
784.00,0.0698
783.00,0.0702
782.00,0.0707
781.00,0.0711
780.00,0.0714
779.00,0.0716
778.00,0.0719
777.00,0.0721
776.00,0.0722
775.00,0.0724
774.00,0.0726
773.00,0.0728
772.00,0.0729
771.00,0.0731
770.00,0.0733
769.00,0.0736
768.00,0.0738
767.00,0.0741
766.00,0.0743
765.00,0.0745
764.00,0.0747
763.00,0.0748
762.00,0.0751
761.00,0.0753
760.00,0.0756
759.00,0.0760
758.00,0.0764
757.00,0.0768
756.00,0.0772
755.00,0.0776
754.00,0.0781
753.00,0.0786
752.00,0.0791
751.00,0.0797
750.00,0.0804
749.00,0.0811
748.00,0.0817
747.00,0.0823
746.00,0.0828
745.00,0.0833
744.00,0.0837
743.00,0.0841
742.00,0.0846
741.00,0.0850
740.00,0.0853
739.00,0.0856
738.00,0.0861
737.00,0.0865
736.00,0.0870
735.00,0.0876
734.00,0.0883
733.00,0.0890
732.00,0.0897
731.00,0.0905
730.00,0.0914
729.00,0.0924
728.00,0.0934
727.00,0.0945
726.00,0.0956
725.00,0.0968
724.00,0.0979
723.00,0.0991
722.00,0.1004
721.00,0.1016
720.00,0.1028
719.00,0.1038
718.00,0.1049
717.00,0.1058
716.00,0.1068
715.00,0.1077
714.00,0.1086
713.00,0.1095
712.00,0.1103
711.00,0.1112
710.00,0.1123
709.00,0.1134
708.00,0.1146
707.00,0.1157
706.00,0.1168
705.00,0.1178
704.00,0.1189
703.00,0.1200
702.00,0.1212
701.00,0.1223
700.00,0.1231
699.00,0.1237
698.00,0.1240
697.00,0.1242
696.00,0.1242
695.00,0.1241
694.00,0.1241
693.00,0.1241
692.00,0.1239
691.00,0.1238
690.00,0.1238
689.00,0.1238
688.00,0.1238
687.00,0.1238
686.00,0.1239
685.00,0.1240
684.00,0.1241
683.00,0.1242
682.00,0.1244
681.00,0.1246
680.00,0.1248
679.00,0.1250
678.00,0.1253
677.00,0.1256
676.00,0.1258
675.00,0.1260
674.00,0.1262
673.00,0.1264
672.00,0.1266
671.00,0.1269
670.00,0.1272
669.00,0.1276
668.00,0.1280
667.00,0.1283
666.00,0.1286
665.00,0.1288
664.00,0.1289
663.00,0.1291
662.00,0.1294
661.00,0.1297
660.00,0.1300
659.00,0.1302
658.00,0.1305
657.00,0.1308
656.00,0.1310
655.00,0.1313
654.00,0.1317
653.00,0.1319
652.00,0.1321
651.00,0.1322
650.00,0.1324
649.00,0.1327
648.00,0.1329
647.00,0.1332
646.00,0.1336
645.00,0.1340
644.00,0.1343
643.00,0.1346
642.00,0.1350
641.00,0.1354
640.00,0.1357
639.00,0.1361
638.00,0.1365
637.00,0.1369
636.00,0.1372
635.00,0.1374
634.00,0.1377
633.00,0.1381
632.00,0.1385
631.00,0.1390
630.00,0.1395
629.00,0.1399
628.00,0.1401
627.00,0.1403
626.00,0.1407
625.00,0.1409
624.00,0.1411
623.00,0.1413
622.00,0.1416
621.00,0.1419
620.00,0.1421
619.00,0.1422
618.00,0.1423
617.00,0.1424
616.00,0.1424
615.00,0.1425
614.00,0.1427
613.00,0.1428
612.00,0.1428
611.00,0.1428
610.00,0.1429
609.00,0.1430
608.00,0.1430
607.00,0.1430
606.00,0.1432
605.00,0.1433
604.00,0.1433
603.00,0.1434
602.00,0.1436
601.00,0.1438
600.00,0.1440
599.00,0.1442
598.00,0.1444
597.00,0.1447
596.00,0.1448
595.00,0.1451
594.00,0.1454
593.00,0.1457
592.00,0.1459
591.00,0.1461
590.00,0.1464
589.00,0.1466
588.00,0.1468
587.00,0.1470
586.00,0.1473
585.00,0.1476
584.00,0.1478
583.00,0.1482
582.00,0.1486
581.00,0.1491
580.00,0.1493
579.00,0.1495
578.00,0.1499
577.00,0.1503
576.00,0.1507
575.00,0.1511
574.00,0.1515
573.00,0.1517
572.00,0.1519
571.00,0.1522
570.00,0.1527
569.00,0.1532
568.00,0.1536
567.00,0.1538
566.00,0.1542
565.00,0.1545
564.00,0.1548
563.00,0.1551
562.00,0.1555
561.00,0.1559
560.00,0.1561
559.00,0.1564
558.00,0.1570
557.00,0.1574
556.00,0.1576
555.00,0.1578
554.00,0.1583
553.00,0.1587
552.00,0.1590
551.00,0.1594
550.00,0.1600
549.00,0.1604
548.00,0.1606
547.00,0.1608
546.00,0.1612
545.00,0.1615
544.00,0.1616
543.00,0.1617
542.00,0.1620
541.00,0.1625
540.00,0.1628
539.00,0.1631
538.00,0.1636
537.00,0.1640
536.00,0.1643
535.00,0.1646
534.00,0.1650
533.00,0.1654
532.00,0.1655
531.00,0.1656
530.00,0.1658
529.00,0.1661
528.00,0.1662
527.00,0.1665
526.00,0.1670
525.00,0.1674
524.00,0.1676
523.00,0.1678
522.00,0.1681
521.00,0.1684
520.00,0.1685
519.00,0.1687
518.00,0.1692
517.00,0.1696
516.00,0.1698
515.00,0.1698
514.00,0.1699
513.00,0.1701
512.00,0.1701
511.00,0.1704
510.00,0.1708
509.00,0.1709
508.00,0.1707
507.00,0.1706
506.00,0.1709
505.00,0.1712
504.00,0.1712
503.00,0.1712
502.00,0.1713
501.00,0.1713
500.00,0.1710
499.00,0.1707
498.00,0.1707
497.00,0.1708
496.00,0.1707
495.00,0.1707
494.00,0.1709
493.00,0.1711
492.00,0.1710
491.00,0.1711
490.00,0.1713
489.00,0.1714
488.00,0.1712
487.00,0.1710
486.00,0.1710
485.00,0.1709
484.00,0.1706
483.00,0.1703
482.00,0.1705
481.00,0.1706
480.00,0.1704
479.00,0.1703
478.00,0.1704
477.00,0.1703
476.00,0.1700
475.00,0.1697
474.00,0.1700
473.00,0.1705
472.00,0.1704
471.00,0.1701
470.00,0.1699
469.00,0.1699
468.00,0.1699
467.00,0.1703
466.00,0.1710
465.00,0.1712
464.00,0.1707
463.00,0.1702
462.00,0.1701
461.00,0.1701
460.00,0.1698
459.00,0.1694
458.00,0.1695
457.00,0.1695
456.00,0.1691
455.00,0.1687
454.00,0.1687
453.00,0.1688
452.00,0.1685
451.00,0.1683
450.00,0.1687
449.00,0.1689
448.00,0.1685
447.00,0.1679
446.00,0.1676
445.00,0.1672
444.00,0.1663
443.00,0.1655
442.00,0.1653
441.00,0.1652
440.00,0.1649
439.00,0.1648
438.00,0.1650
437.00,0.1650
436.00,0.1646
435.00,0.1643
434.00,0.1645
433.00,0.1643
432.00,0.1636
431.00,0.1634
430.00,0.1642
429.00,0.1649
428.00,0.1648
427.00,0.1643
426.00,0.1643
425.00,0.1644
424.00,0.1639
423.00,0.1637
422.00,0.1643
421.00,0.1649
420.00,0.1647
419.00,0.1643
418.00,0.1648
417.00,0.1648
416.00,0.1639
415.00,0.1632
414.00,0.1637
413.00,0.1642
412.00,0.1636
411.00,0.1625
410.00,0.1615
409.00,0.1601
408.00,0.1580
407.00,0.1571
406.00,0.1580
405.00,0.1590
404.00,0.1586
403.00,0.1580
402.00,0.1589
401.00,0.1595
400.00,0.1583
