Created as New Dataset,Sample 783 By YargerLab Date Monday, July 07 2025
cm-1,A
4000.00,0.0031
3999.00,0.0031
3998.00,0.0031
3997.00,0.0031
3996.00,0.0030
3995.00,0.0030
3994.00,0.0030
3993.00,0.0030
3992.00,0.0031
3991.00,0.0031
3990.00,0.0031
3989.00,0.0031
3988.00,0.0031
3987.00,0.0031
3986.00,0.0031
3985.00,0.0031
3984.00,0.0030
3983.00,0.0030
3982.00,0.0030
3981.00,0.0031
3980.00,0.0031
3979.00,0.0031
3978.00,0.0031
3977.00,0.0031
3976.00,0.0031
3975.00,0.0031
3974.00,0.0031
3973.00,0.0031
3972.00,0.0031
3971.00,0.0031
3970.00,0.0031
3969.00,0.0030
3968.00,0.0030
3967.00,0.0030
3966.00,0.0030
3965.00,0.0031
3964.00,0.0031
3963.00,0.0031
3962.00,0.0031
3961.00,0.0031
3960.00,0.0031
3959.00,0.0031
3958.00,0.0031
3957.00,0.0031
3956.00,0.0031
3955.00,0.0031
3954.00,0.0030
3953.00,0.0030
3952.00,0.0030
3951.00,0.0030
3950.00,0.0030
3949.00,0.0030
3948.00,0.0030
3947.00,0.0031
3946.00,0.0031
3945.00,0.0031
3944.00,0.0031
3943.00,0.0031
3942.00,0.0031
3941.00,0.0031
3940.00,0.0031
3939.00,0.0031
3938.00,0.0031
3937.00,0.0031
3936.00,0.0031
3935.00,0.0031
3934.00,0.0031
3933.00,0.0031
3932.00,0.0031
3931.00,0.0030
3930.00,0.0030
3929.00,0.0030
3928.00,0.0030
3927.00,0.0030
3926.00,0.0030
3925.00,0.0030
3924.00,0.0030
3923.00,0.0031
3922.00,0.0031
3921.00,0.0031
3920.00,0.0031
3919.00,0.0031
3918.00,0.0030
3917.00,0.0030
3916.00,0.0030
3915.00,0.0030
3914.00,0.0030
3913.00,0.0030
3912.00,0.0030
3911.00,0.0030
3910.00,0.0030
3909.00,0.0031
3908.00,0.0031
3907.00,0.0031
3906.00,0.0032
3905.00,0.0031
3904.00,0.0031
3903.00,0.0031
3902.00,0.0031
3901.00,0.0030
3900.00,0.0030
3899.00,0.0029
3898.00,0.0029
3897.00,0.0029
3896.00,0.0029
3895.00,0.0030
3894.00,0.0030
3893.00,0.0031
3892.00,0.0031
3891.00,0.0031
3890.00,0.0031
3889.00,0.0031
3888.00,0.0031
3887.00,0.0031
3886.00,0.0031
3885.00,0.0031
3884.00,0.0031
3883.00,0.0031
3882.00,0.0030
3881.00,0.0029
3880.00,0.0029
3879.00,0.0029
3878.00,0.0029
3877.00,0.0029
3876.00,0.0030
3875.00,0.0030
3874.00,0.0030
3873.00,0.0031
3872.00,0.0031
3871.00,0.0031
3870.00,0.0031
3869.00,0.0031
3868.00,0.0031
3867.00,0.0031
3866.00,0.0031
3865.00,0.0031
3864.00,0.0031
3863.00,0.0031
3862.00,0.0031
3861.00,0.0031
3860.00,0.0031
3859.00,0.0031
3858.00,0.0032
3857.00,0.0033
3856.00,0.0033
3855.00,0.0033
3854.00,0.0032
3853.00,0.0032
3852.00,0.0032
3851.00,0.0032
3850.00,0.0032
3849.00,0.0031
3848.00,0.0030
3847.00,0.0030
3846.00,0.0030
3845.00,0.0030
3844.00,0.0030
3843.00,0.0031
3842.00,0.0031
3841.00,0.0031
3840.00,0.0032
3839.00,0.0032
3838.00,0.0031
3837.00,0.0031
3836.00,0.0031
3835.00,0.0031
3834.00,0.0030
3833.00,0.0030
3832.00,0.0030
3831.00,0.0030
3830.00,0.0030
3829.00,0.0029
3828.00,0.0029
3827.00,0.0030
3826.00,0.0030
3825.00,0.0031
3824.00,0.0032
3823.00,0.0032
3822.00,0.0031
3821.00,0.0030
3820.00,0.0030
3819.00,0.0030
3818.00,0.0030
3817.00,0.0030
3816.00,0.0030
3815.00,0.0030
3814.00,0.0031
3813.00,0.0031
3812.00,0.0031
3811.00,0.0031
3810.00,0.0031
3809.00,0.0031
3808.00,0.0031
3807.00,0.0031
3806.00,0.0031
3805.00,0.0031
3804.00,0.0031
3803.00,0.0031
3802.00,0.0031
3801.00,0.0031
3800.00,0.0031
3799.00,0.0031
3798.00,0.0031
3797.00,0.0030
3796.00,0.0029
3795.00,0.0030
3794.00,0.0030
3793.00,0.0030
3792.00,0.0030
3791.00,0.0030
3790.00,0.0030
3789.00,0.0030
3788.00,0.0030
3787.00,0.0031
3786.00,0.0031
3785.00,0.0031
3784.00,0.0030
3783.00,0.0030
3782.00,0.0030
3781.00,0.0031
3780.00,0.0031
3779.00,0.0031
3778.00,0.0031
3777.00,0.0031
3776.00,0.0031
3775.00,0.0031
3774.00,0.0030
3773.00,0.0030
3772.00,0.0030
3771.00,0.0030
3770.00,0.0030
3769.00,0.0030
3768.00,0.0031
3767.00,0.0031
3766.00,0.0031
3765.00,0.0031
3764.00,0.0032
3763.00,0.0032
3762.00,0.0032
3761.00,0.0031
3760.00,0.0030
3759.00,0.0029
3758.00,0.0029
3757.00,0.0030
3756.00,0.0031
3755.00,0.0032
3754.00,0.0034
3753.00,0.0035
3752.00,0.0035
3751.00,0.0034
3750.00,0.0034
3749.00,0.0034
3748.00,0.0034
3747.00,0.0034
3746.00,0.0034
3745.00,0.0034
3744.00,0.0033
3743.00,0.0033
3742.00,0.0032
3741.00,0.0032
3740.00,0.0031
3739.00,0.0031
3738.00,0.0031
3737.00,0.0031
3736.00,0.0031
3735.00,0.0031
3734.00,0.0030
3733.00,0.0029
3732.00,0.0029
3731.00,0.0029
3730.00,0.0029
3729.00,0.0029
3728.00,0.0029
3727.00,0.0028
3726.00,0.0028
3725.00,0.0028
3724.00,0.0028
3723.00,0.0029
3722.00,0.0029
3721.00,0.0029
3720.00,0.0029
3719.00,0.0029
3718.00,0.0029
3717.00,0.0029
3716.00,0.0030
3715.00,0.0030
3714.00,0.0030
3713.00,0.0030
3712.00,0.0030
3711.00,0.0030
3710.00,0.0030
3709.00,0.0030
3708.00,0.0030
3707.00,0.0029
3706.00,0.0029
3705.00,0.0029
3704.00,0.0029
3703.00,0.0029
3702.00,0.0028
3701.00,0.0028
3700.00,0.0028
3699.00,0.0028
3698.00,0.0029
3697.00,0.0029
3696.00,0.0029
3695.00,0.0029
3694.00,0.0030
3693.00,0.0030
3692.00,0.0031
3691.00,0.0031
3690.00,0.0031
3689.00,0.0030
3688.00,0.0030
3687.00,0.0030
3686.00,0.0030
3685.00,0.0030
3684.00,0.0029
3683.00,0.0029
3682.00,0.0030
3681.00,0.0030
3680.00,0.0031
3679.00,0.0031
3678.00,0.0032
3677.00,0.0032
3676.00,0.0032
3675.00,0.0031
3674.00,0.0031
3673.00,0.0030
3672.00,0.0030
3671.00,0.0029
3670.00,0.0029
3669.00,0.0029
3668.00,0.0029
3667.00,0.0029
3666.00,0.0028
3665.00,0.0028
3664.00,0.0028
3663.00,0.0028
3662.00,0.0029
3661.00,0.0029
3660.00,0.0029
3659.00,0.0030
3658.00,0.0030
3657.00,0.0030
3656.00,0.0030
3655.00,0.0031
3654.00,0.0031
3653.00,0.0032
3652.00,0.0032
3651.00,0.0032
3650.00,0.0032
3649.00,0.0032
3648.00,0.0032
3647.00,0.0032
3646.00,0.0032
3645.00,0.0031
3644.00,0.0031
3643.00,0.0031
3642.00,0.0031
3641.00,0.0032
3640.00,0.0033
3639.00,0.0033
3638.00,0.0033
3637.00,0.0034
3636.00,0.0034
3635.00,0.0035
3634.00,0.0036
3633.00,0.0036
3632.00,0.0037
3631.00,0.0037
3630.00,0.0037
3629.00,0.0037
3628.00,0.0038
3627.00,0.0038
3626.00,0.0038
3625.00,0.0038
3624.00,0.0038
3623.00,0.0038
3622.00,0.0038
3621.00,0.0039
3620.00,0.0039
3619.00,0.0039
3618.00,0.0040
3617.00,0.0041
3616.00,0.0041
3615.00,0.0042
3614.00,0.0042
3613.00,0.0042
3612.00,0.0043
3611.00,0.0043
3610.00,0.0043
3609.00,0.0043
3608.00,0.0044
3607.00,0.0044
3606.00,0.0044
3605.00,0.0044
3604.00,0.0044
3603.00,0.0043
3602.00,0.0043
3601.00,0.0043
3600.00,0.0044
3599.00,0.0044
3598.00,0.0045
3597.00,0.0046
3596.00,0.0046
3595.00,0.0047
3594.00,0.0047
3593.00,0.0047
3592.00,0.0047
3591.00,0.0047
3590.00,0.0047
3589.00,0.0047
3588.00,0.0047
3587.00,0.0048
3586.00,0.0049
3585.00,0.0049
3584.00,0.0049
3583.00,0.0049
3582.00,0.0049
3581.00,0.0049
3580.00,0.0049
3579.00,0.0050
3578.00,0.0051
3577.00,0.0051
3576.00,0.0051
3575.00,0.0052
3574.00,0.0052
3573.00,0.0052
3572.00,0.0052
3571.00,0.0052
3570.00,0.0052
3569.00,0.0053
3568.00,0.0054
3567.00,0.0055
3566.00,0.0056
3565.00,0.0057
3564.00,0.0057
3563.00,0.0057
3562.00,0.0057
3561.00,0.0057
3560.00,0.0057
3559.00,0.0057
3558.00,0.0058
3557.00,0.0058
3556.00,0.0058
3555.00,0.0059
3554.00,0.0059
3553.00,0.0060
3552.00,0.0061
3551.00,0.0061
3550.00,0.0062
3549.00,0.0062
3548.00,0.0063
3547.00,0.0063
3546.00,0.0064
3545.00,0.0064
3544.00,0.0065
3543.00,0.0065
3542.00,0.0065
3541.00,0.0066
3540.00,0.0067
3539.00,0.0067
3538.00,0.0068
3537.00,0.0068
3536.00,0.0069
3535.00,0.0069
3534.00,0.0070
3533.00,0.0070
3532.00,0.0071
3531.00,0.0071
3530.00,0.0072
3529.00,0.0073
3528.00,0.0073
3527.00,0.0074
3526.00,0.0075
3525.00,0.0076
3524.00,0.0077
3523.00,0.0078
3522.00,0.0079
3521.00,0.0080
3520.00,0.0081
3519.00,0.0081
3518.00,0.0081
3517.00,0.0081
3516.00,0.0081
3515.00,0.0081
3514.00,0.0082
3513.00,0.0083
3512.00,0.0084
3511.00,0.0085
3510.00,0.0086
3509.00,0.0087
3508.00,0.0088
3507.00,0.0088
3506.00,0.0089
3505.00,0.0089
3504.00,0.0090
3503.00,0.0091
3502.00,0.0093
3501.00,0.0094
3500.00,0.0094
3499.00,0.0095
3498.00,0.0096
3497.00,0.0097
3496.00,0.0097
3495.00,0.0098
3494.00,0.0099
3493.00,0.0100
3492.00,0.0101
3491.00,0.0102
3490.00,0.0103
3489.00,0.0104
3488.00,0.0105
3487.00,0.0107
3486.00,0.0108
3485.00,0.0109
3484.00,0.0110
3483.00,0.0111
3482.00,0.0112
3481.00,0.0113
3480.00,0.0114
3479.00,0.0115
3478.00,0.0116
3477.00,0.0117
3476.00,0.0118
3475.00,0.0120
3474.00,0.0121
3473.00,0.0122
3472.00,0.0123
3471.00,0.0124
3470.00,0.0125
3469.00,0.0126
3468.00,0.0127
3467.00,0.0128
3466.00,0.0129
3465.00,0.0130
3464.00,0.0131
3463.00,0.0132
3462.00,0.0133
3461.00,0.0134
3460.00,0.0135
3459.00,0.0136
3458.00,0.0138
3457.00,0.0139
3456.00,0.0140
3455.00,0.0141
3454.00,0.0141
3453.00,0.0142
3452.00,0.0143
3451.00,0.0144
3450.00,0.0144
3449.00,0.0145
3448.00,0.0145
3447.00,0.0146
3446.00,0.0146
3445.00,0.0147
3444.00,0.0147
3443.00,0.0148
3442.00,0.0149
3441.00,0.0150
3440.00,0.0151
3439.00,0.0152
3438.00,0.0152
3437.00,0.0152
3436.00,0.0153
3435.00,0.0154
3434.00,0.0154
3433.00,0.0155
3432.00,0.0155
3431.00,0.0156
3430.00,0.0156
3429.00,0.0156
3428.00,0.0157
3427.00,0.0157
3426.00,0.0157
3425.00,0.0157
3424.00,0.0157
3423.00,0.0158
3422.00,0.0159
3421.00,0.0160
3420.00,0.0161
3419.00,0.0162
3418.00,0.0162
3417.00,0.0162
3416.00,0.0162
3415.00,0.0163
3414.00,0.0163
3413.00,0.0164
3412.00,0.0165
3411.00,0.0165
3410.00,0.0165
3409.00,0.0166
3408.00,0.0166
3407.00,0.0166
3406.00,0.0167
3405.00,0.0167
3404.00,0.0168
3403.00,0.0168
3402.00,0.0169
3401.00,0.0169
3400.00,0.0169
3399.00,0.0169
3398.00,0.0170
3397.00,0.0170
3396.00,0.0171
3395.00,0.0172
3394.00,0.0172
3393.00,0.0173
3392.00,0.0174
3391.00,0.0174
3390.00,0.0175
3389.00,0.0176
3388.00,0.0176
3387.00,0.0176
3386.00,0.0177
3385.00,0.0177
3384.00,0.0178
3383.00,0.0179
3382.00,0.0179
3381.00,0.0179
3380.00,0.0180
3379.00,0.0180
3378.00,0.0181
3377.00,0.0182
3376.00,0.0182
3375.00,0.0183
3374.00,0.0184
3373.00,0.0184
3372.00,0.0184
3371.00,0.0183
3370.00,0.0183
3369.00,0.0183
3368.00,0.0184
3367.00,0.0186
3366.00,0.0187
3365.00,0.0189
3364.00,0.0190
3363.00,0.0190
3362.00,0.0191
3361.00,0.0191
3360.00,0.0192
3359.00,0.0192
3358.00,0.0193
3357.00,0.0193
3356.00,0.0194
3355.00,0.0194
3354.00,0.0194
3353.00,0.0194
3352.00,0.0194
3351.00,0.0194
3350.00,0.0195
3349.00,0.0196
3348.00,0.0197
3347.00,0.0198
3346.00,0.0198
3345.00,0.0198
3344.00,0.0198
3343.00,0.0198
3342.00,0.0199
3341.00,0.0199
3340.00,0.0199
3339.00,0.0199
3338.00,0.0200
3337.00,0.0201
3336.00,0.0203
3335.00,0.0204
3334.00,0.0205
3333.00,0.0205
3332.00,0.0206
3331.00,0.0206
3330.00,0.0206
3329.00,0.0206
3328.00,0.0206
3327.00,0.0206
3326.00,0.0207
3325.00,0.0208
3324.00,0.0209
3323.00,0.0210
3322.00,0.0211
3321.00,0.0212
3320.00,0.0213
3319.00,0.0213
3318.00,0.0213
3317.00,0.0214
3316.00,0.0214
3315.00,0.0214
3314.00,0.0215
3313.00,0.0215
3312.00,0.0214
3311.00,0.0213
3310.00,0.0212
3309.00,0.0211
3308.00,0.0211
3307.00,0.0211
3306.00,0.0212
3305.00,0.0214
3304.00,0.0216
3303.00,0.0217
3302.00,0.0218
3301.00,0.0219
3300.00,0.0219
3299.00,0.0218
3298.00,0.0218
3297.00,0.0218
3296.00,0.0217
3295.00,0.0217
3294.00,0.0217
3293.00,0.0217
3292.00,0.0218
3291.00,0.0219
3290.00,0.0220
3289.00,0.0221
3288.00,0.0221
3287.00,0.0222
3286.00,0.0222
3285.00,0.0222
3284.00,0.0222
3283.00,0.0221
3282.00,0.0222
3281.00,0.0222
3280.00,0.0222
3279.00,0.0222
3278.00,0.0222
3277.00,0.0222
3276.00,0.0221
3275.00,0.0221
3274.00,0.0220
3273.00,0.0220
3272.00,0.0219
3271.00,0.0219
3270.00,0.0219
3269.00,0.0220
3268.00,0.0221
3267.00,0.0221
3266.00,0.0222
3265.00,0.0222
3264.00,0.0222
3263.00,0.0222
3262.00,0.0223
3261.00,0.0223
3260.00,0.0223
3259.00,0.0223
3258.00,0.0223
3257.00,0.0222
3256.00,0.0222
3255.00,0.0222
3254.00,0.0223
3253.00,0.0223
3252.00,0.0223
3251.00,0.0223
3250.00,0.0222
3249.00,0.0222
3248.00,0.0221
3247.00,0.0221
3246.00,0.0221
3245.00,0.0222
3244.00,0.0222
3243.00,0.0222
3242.00,0.0222
3241.00,0.0222
3240.00,0.0221
3239.00,0.0221
3238.00,0.0220
3237.00,0.0220
3236.00,0.0220
3235.00,0.0219
3234.00,0.0219
3233.00,0.0219
3232.00,0.0220
3231.00,0.0220
3230.00,0.0220
3229.00,0.0220
3228.00,0.0220
3227.00,0.0220
3226.00,0.0219
3225.00,0.0218
3224.00,0.0218
3223.00,0.0217
3222.00,0.0217
3221.00,0.0217
3220.00,0.0217
3219.00,0.0216
3218.00,0.0216
3217.00,0.0216
3216.00,0.0216
3215.00,0.0215
3214.00,0.0215
3213.00,0.0215
3212.00,0.0214
3211.00,0.0214
3210.00,0.0215
3209.00,0.0215
3208.00,0.0215
3207.00,0.0215
3206.00,0.0214
3205.00,0.0215
3204.00,0.0215
3203.00,0.0215
3202.00,0.0215
3201.00,0.0215
3200.00,0.0214
3199.00,0.0214
3198.00,0.0213
3197.00,0.0213
3196.00,0.0213
3195.00,0.0213
3194.00,0.0212
3193.00,0.0212
3192.00,0.0212
3191.00,0.0211
3190.00,0.0211
3189.00,0.0210
3188.00,0.0210
3187.00,0.0210
3186.00,0.0209
3185.00,0.0209
3184.00,0.0209
3183.00,0.0209
3182.00,0.0208
3181.00,0.0207
3180.00,0.0206
3179.00,0.0205
3178.00,0.0205
3177.00,0.0204
3176.00,0.0204
3175.00,0.0203
3174.00,0.0203
3173.00,0.0202
3172.00,0.0202
3171.00,0.0201
3170.00,0.0200
3169.00,0.0200
3168.00,0.0199
3167.00,0.0199
3166.00,0.0198
3165.00,0.0197
3164.00,0.0196
3163.00,0.0195
3162.00,0.0194
3161.00,0.0194
3160.00,0.0194
3159.00,0.0193
3158.00,0.0192
3157.00,0.0191
3156.00,0.0190
3155.00,0.0189
3154.00,0.0188
3153.00,0.0187
3152.00,0.0186
3151.00,0.0186
3150.00,0.0186
3149.00,0.0185
3148.00,0.0185
3147.00,0.0184
3146.00,0.0183
3145.00,0.0182
3144.00,0.0181
3143.00,0.0180
3142.00,0.0180
3141.00,0.0179
3140.00,0.0178
3139.00,0.0178
3138.00,0.0177
3137.00,0.0176
3136.00,0.0176
3135.00,0.0175
3134.00,0.0175
3133.00,0.0174
3132.00,0.0174
3131.00,0.0174
3130.00,0.0173
3129.00,0.0172
3128.00,0.0171
3127.00,0.0171
3126.00,0.0170
3125.00,0.0169
3124.00,0.0169
3123.00,0.0168
3122.00,0.0168
3121.00,0.0167
3120.00,0.0166
3119.00,0.0165
3118.00,0.0164
3117.00,0.0163
3116.00,0.0163
3115.00,0.0162
3114.00,0.0161
3113.00,0.0161
3112.00,0.0160
3111.00,0.0159
3110.00,0.0159
3109.00,0.0158
3108.00,0.0158
3107.00,0.0157
3106.00,0.0157
3105.00,0.0156
3104.00,0.0156
3103.00,0.0155
3102.00,0.0154
3101.00,0.0153
3100.00,0.0152
3099.00,0.0152
3098.00,0.0151
3097.00,0.0151
3096.00,0.0151
3095.00,0.0150
3094.00,0.0150
3093.00,0.0149
3092.00,0.0149
3091.00,0.0149
3090.00,0.0149
3089.00,0.0148
3088.00,0.0148
3087.00,0.0148
3086.00,0.0148
3085.00,0.0148
3084.00,0.0148
3083.00,0.0149
3082.00,0.0149
3081.00,0.0150
3080.00,0.0150
3079.00,0.0149
3078.00,0.0149
3077.00,0.0149
3076.00,0.0149
3075.00,0.0149
3074.00,0.0149
3073.00,0.0148
3072.00,0.0148
3071.00,0.0147
3070.00,0.0146
3069.00,0.0145
3068.00,0.0144
3067.00,0.0143
3066.00,0.0142
3065.00,0.0140
3064.00,0.0138
3063.00,0.0137
3062.00,0.0135
3061.00,0.0134
3060.00,0.0132
3059.00,0.0131
3058.00,0.0129
3057.00,0.0128
3056.00,0.0127
3055.00,0.0127
3054.00,0.0126
3053.00,0.0126
3052.00,0.0126
3051.00,0.0125
3050.00,0.0125
3049.00,0.0125
3048.00,0.0124
3047.00,0.0124
3046.00,0.0123
3045.00,0.0123
3044.00,0.0122
3043.00,0.0122
3042.00,0.0121
3041.00,0.0121
3040.00,0.0121
3039.00,0.0121
3038.00,0.0120
3037.00,0.0120
3036.00,0.0119
3035.00,0.0119
3034.00,0.0118
3033.00,0.0118
3032.00,0.0118
3031.00,0.0118
3030.00,0.0118
3029.00,0.0117
3028.00,0.0117
3027.00,0.0117
3026.00,0.0117
3025.00,0.0117
3024.00,0.0117
3023.00,0.0117
3022.00,0.0117
3021.00,0.0117
3020.00,0.0117
3019.00,0.0117
3018.00,0.0117
3017.00,0.0117
3016.00,0.0117
3015.00,0.0117
3014.00,0.0117
3013.00,0.0117
3012.00,0.0118
3011.00,0.0118
3010.00,0.0119
3009.00,0.0119
3008.00,0.0119
3007.00,0.0119
3006.00,0.0119
3005.00,0.0120
3004.00,0.0121
3003.00,0.0121
3002.00,0.0122
3001.00,0.0123
3000.00,0.0124
2999.00,0.0125
2998.00,0.0127
2997.00,0.0128
2996.00,0.0131
2995.00,0.0133
2994.00,0.0135
2993.00,0.0138
2992.00,0.0140
2991.00,0.0143
2990.00,0.0146
2989.00,0.0149
2988.00,0.0152
2987.00,0.0155
2986.00,0.0157
2985.00,0.0158
2984.00,0.0158
2983.00,0.0158
2982.00,0.0159
2981.00,0.0163
2980.00,0.0167
2979.00,0.0174
2978.00,0.0180
2977.00,0.0187
2976.00,0.0193
2975.00,0.0199
2974.00,0.0204
2973.00,0.0210
2972.00,0.0216
2971.00,0.0223
2970.00,0.0231
2969.00,0.0240
2968.00,0.0249
2967.00,0.0258
2966.00,0.0267
2965.00,0.0276
2964.00,0.0285
2963.00,0.0293
2962.00,0.0300
2961.00,0.0307
2960.00,0.0312
2959.00,0.0317
2958.00,0.0320
2957.00,0.0323
2956.00,0.0325
2955.00,0.0327
2954.00,0.0328
2953.00,0.0327
2952.00,0.0326
2951.00,0.0325
2950.00,0.0323
2949.00,0.0322
2948.00,0.0321
2947.00,0.0321
2946.00,0.0322
2945.00,0.0324
2944.00,0.0327
2943.00,0.0332
2942.00,0.0337
2941.00,0.0343
2940.00,0.0350
2939.00,0.0358
2938.00,0.0366
2937.00,0.0375
2936.00,0.0384
2935.00,0.0393
2934.00,0.0402
2933.00,0.0410
2932.00,0.0418
2931.00,0.0425
2930.00,0.0432
2929.00,0.0437
2928.00,0.0442
2927.00,0.0446
2926.00,0.0449
2925.00,0.0451
2924.00,0.0452
2923.00,0.0452
2922.00,0.0451
2921.00,0.0448
2920.00,0.0444
2919.00,0.0440
2918.00,0.0434
2917.00,0.0428
2916.00,0.0422
2915.00,0.0415
2914.00,0.0408
2913.00,0.0401
2912.00,0.0394
2911.00,0.0386
2910.00,0.0379
2909.00,0.0372
2908.00,0.0365
2907.00,0.0358
2906.00,0.0351
2905.00,0.0345
2904.00,0.0339
2903.00,0.0334
2902.00,0.0330
2901.00,0.0326
2900.00,0.0322
2899.00,0.0319
2898.00,0.0315
2897.00,0.0312
2896.00,0.0309
2895.00,0.0306
2894.00,0.0303
2893.00,0.0300
2892.00,0.0297
2891.00,0.0294
2890.00,0.0291
2889.00,0.0289
2888.00,0.0286
2887.00,0.0284
2886.00,0.0282
2885.00,0.0281
2884.00,0.0280
2883.00,0.0280
2882.00,0.0280
2881.00,0.0280
2880.00,0.0281
2879.00,0.0282
2878.00,0.0283
2877.00,0.0284
2876.00,0.0286
2875.00,0.0287
2874.00,0.0289
2873.00,0.0291
2872.00,0.0292
2871.00,0.0293
2870.00,0.0294
2869.00,0.0293
2868.00,0.0292
2867.00,0.0292
2866.00,0.0292
2865.00,0.0294
2864.00,0.0296
2863.00,0.0299
2862.00,0.0303
2861.00,0.0307
2860.00,0.0312
2859.00,0.0316
2858.00,0.0319
2857.00,0.0320
2856.00,0.0319
2855.00,0.0316
2854.00,0.0312
2853.00,0.0306
2852.00,0.0299
2851.00,0.0290
2850.00,0.0280
2849.00,0.0269
2848.00,0.0258
2847.00,0.0248
2846.00,0.0238
2845.00,0.0228
2844.00,0.0219
2843.00,0.0211
2842.00,0.0204
2841.00,0.0197
2840.00,0.0192
2839.00,0.0189
2838.00,0.0186
2837.00,0.0185
2836.00,0.0183
2835.00,0.0183
2834.00,0.0182
2833.00,0.0181
2832.00,0.0180
2831.00,0.0178
2830.00,0.0176
2829.00,0.0173
2828.00,0.0169
2827.00,0.0165
2826.00,0.0160
2825.00,0.0155
2824.00,0.0149
2823.00,0.0144
2822.00,0.0139
2821.00,0.0135
2820.00,0.0131
2819.00,0.0126
2818.00,0.0123
2817.00,0.0120
2816.00,0.0117
2815.00,0.0114
2814.00,0.0112
2813.00,0.0110
2812.00,0.0108
2811.00,0.0106
2810.00,0.0104
2809.00,0.0103
2808.00,0.0102
2807.00,0.0100
2806.00,0.0099
2805.00,0.0098
2804.00,0.0097
2803.00,0.0097
2802.00,0.0096
2801.00,0.0095
2800.00,0.0094
2799.00,0.0093
2798.00,0.0092
2797.00,0.0092
2796.00,0.0091
2795.00,0.0090
2794.00,0.0089
2793.00,0.0088
2792.00,0.0088
2791.00,0.0087
2790.00,0.0087
2789.00,0.0086
2788.00,0.0086
2787.00,0.0085
2786.00,0.0085
2785.00,0.0084
2784.00,0.0084
2783.00,0.0084
2782.00,0.0083
2781.00,0.0083
2780.00,0.0083
2779.00,0.0082
2778.00,0.0082
2777.00,0.0081
2776.00,0.0081
2775.00,0.0081
2774.00,0.0081
2773.00,0.0081
2772.00,0.0080
2771.00,0.0080
2770.00,0.0080
2769.00,0.0079
2768.00,0.0079
2767.00,0.0079
2766.00,0.0079
2765.00,0.0079
2764.00,0.0080
2763.00,0.0079
2762.00,0.0079
2761.00,0.0079
2760.00,0.0079
2759.00,0.0079
2758.00,0.0079
2757.00,0.0079
2756.00,0.0079
2755.00,0.0079
2754.00,0.0079
2753.00,0.0078
2752.00,0.0078
2751.00,0.0078
2750.00,0.0078
2749.00,0.0078
2748.00,0.0078
2747.00,0.0078
2746.00,0.0078
2745.00,0.0078
2744.00,0.0078
2743.00,0.0079
2742.00,0.0079
2741.00,0.0079
2740.00,0.0079
2739.00,0.0080
2738.00,0.0080
2737.00,0.0080
2736.00,0.0080
2735.00,0.0080
2734.00,0.0080
2733.00,0.0080
2732.00,0.0081
2731.00,0.0081
2730.00,0.0081
2729.00,0.0081
2728.00,0.0081
2727.00,0.0081
2726.00,0.0081
2725.00,0.0081
2724.00,0.0081
2723.00,0.0081
2722.00,0.0081
2721.00,0.0081
2720.00,0.0080
2719.00,0.0080
2718.00,0.0079
2717.00,0.0079
2716.00,0.0079
2715.00,0.0078
2714.00,0.0078
2713.00,0.0078
2712.00,0.0077
2711.00,0.0077
2710.00,0.0077
2709.00,0.0077
2708.00,0.0077
2707.00,0.0077
2706.00,0.0076
2705.00,0.0076
2704.00,0.0076
2703.00,0.0076
2702.00,0.0075
2701.00,0.0075
2700.00,0.0075
2699.00,0.0075
2698.00,0.0075
2697.00,0.0075
2696.00,0.0075
2695.00,0.0075
2694.00,0.0075
2693.00,0.0075
2692.00,0.0075
2691.00,0.0075
2690.00,0.0075
2689.00,0.0075
2688.00,0.0075
2687.00,0.0075
2686.00,0.0075
2685.00,0.0075
2684.00,0.0075
2683.00,0.0075
2682.00,0.0075
2681.00,0.0075
2680.00,0.0075
2679.00,0.0075
2678.00,0.0074
2677.00,0.0074
2676.00,0.0074
2675.00,0.0074
2674.00,0.0074
2673.00,0.0074
2672.00,0.0073
2671.00,0.0073
2670.00,0.0073
2669.00,0.0073
2668.00,0.0073
2667.00,0.0074
2666.00,0.0074
2665.00,0.0074
2664.00,0.0075
2663.00,0.0075
2662.00,0.0075
2661.00,0.0075
2660.00,0.0075
2659.00,0.0075
2658.00,0.0075
2657.00,0.0075
2656.00,0.0075
2655.00,0.0075
2654.00,0.0075
2653.00,0.0075
2652.00,0.0075
2651.00,0.0075
2650.00,0.0075
2649.00,0.0074
2648.00,0.0074
2647.00,0.0073
2646.00,0.0073
2645.00,0.0073
2644.00,0.0073
2643.00,0.0072
2642.00,0.0072
2641.00,0.0072
2640.00,0.0072
2639.00,0.0071
2638.00,0.0071
2637.00,0.0072
2636.00,0.0072
2635.00,0.0071
2634.00,0.0071
2633.00,0.0071
2632.00,0.0071
2631.00,0.0071
2630.00,0.0070
2629.00,0.0070
2628.00,0.0070
2627.00,0.0069
2626.00,0.0069
2625.00,0.0069
2624.00,0.0069
2623.00,0.0069
2622.00,0.0069
2621.00,0.0069
2620.00,0.0069
2619.00,0.0068
2618.00,0.0068
2617.00,0.0067
2616.00,0.0067
2615.00,0.0066
2614.00,0.0066
2613.00,0.0066
2612.00,0.0066
2611.00,0.0066
2610.00,0.0066
2609.00,0.0066
2608.00,0.0066
2607.00,0.0065
2606.00,0.0065
2605.00,0.0064
2604.00,0.0064
2603.00,0.0064
2602.00,0.0063
2601.00,0.0063
2600.00,0.0063
2599.00,0.0063
2598.00,0.0063
2597.00,0.0063
2596.00,0.0062
2595.00,0.0062
2594.00,0.0062
2593.00,0.0061
2592.00,0.0061
2591.00,0.0061
2590.00,0.0062
2589.00,0.0062
2588.00,0.0062
2587.00,0.0062
2586.00,0.0062
2585.00,0.0062
2584.00,0.0062
2583.00,0.0061
2582.00,0.0061
2581.00,0.0061
2580.00,0.0061
2579.00,0.0061
2578.00,0.0060
2577.00,0.0060
2576.00,0.0059
2575.00,0.0059
2574.00,0.0059
2573.00,0.0059
2572.00,0.0059
2571.00,0.0059
2570.00,0.0059
2569.00,0.0059
2568.00,0.0059
2567.00,0.0059
2566.00,0.0058
2565.00,0.0058
2564.00,0.0059
2563.00,0.0059
2562.00,0.0059
2561.00,0.0058
2560.00,0.0057
2559.00,0.0057
2558.00,0.0056
2557.00,0.0056
2556.00,0.0057
2555.00,0.0057
2554.00,0.0056
2553.00,0.0056
2552.00,0.0056
2551.00,0.0055
2550.00,0.0055
2549.00,0.0055
2548.00,0.0056
2547.00,0.0056
2546.00,0.0056
2545.00,0.0056
2544.00,0.0055
2543.00,0.0055
2542.00,0.0055
2541.00,0.0055
2540.00,0.0055
2539.00,0.0054
2538.00,0.0053
2537.00,0.0053
2536.00,0.0054
2535.00,0.0054
2534.00,0.0054
2533.00,0.0053
2532.00,0.0053
2531.00,0.0053
2530.00,0.0052
2529.00,0.0052
2528.00,0.0051
2527.00,0.0050
2526.00,0.0050
2525.00,0.0050
2524.00,0.0050
2523.00,0.0050
2522.00,0.0050
2521.00,0.0050
2520.00,0.0050
2519.00,0.0050
2518.00,0.0049
2517.00,0.0049
2516.00,0.0049
2515.00,0.0048
2514.00,0.0047
2513.00,0.0047
2512.00,0.0048
2511.00,0.0048
2510.00,0.0049
2509.00,0.0049
2508.00,0.0049
2507.00,0.0049
2506.00,0.0049
2505.00,0.0049
2504.00,0.0049
2503.00,0.0049
2502.00,0.0049
2501.00,0.0049
2500.00,0.0049
2499.00,0.0049
2498.00,0.0049
2497.00,0.0049
2496.00,0.0048
2495.00,0.0048
2494.00,0.0047
2493.00,0.0047
2492.00,0.0047
2491.00,0.0047
2490.00,0.0047
2489.00,0.0047
2488.00,0.0047
2487.00,0.0047
2486.00,0.0047
2485.00,0.0047
2484.00,0.0047
2483.00,0.0046
2482.00,0.0046
2481.00,0.0046
2480.00,0.0047
2479.00,0.0046
2478.00,0.0046
2477.00,0.0046
2476.00,0.0045
2475.00,0.0045
2474.00,0.0045
2473.00,0.0045
2472.00,0.0046
2471.00,0.0046
2470.00,0.0045
2469.00,0.0045
2468.00,0.0045
2467.00,0.0044
2466.00,0.0044
2465.00,0.0044
2464.00,0.0045
2463.00,0.0045
2462.00,0.0045
2461.00,0.0045
2460.00,0.0045
2459.00,0.0045
2458.00,0.0045
2457.00,0.0045
2456.00,0.0045
2455.00,0.0045
2454.00,0.0046
2453.00,0.0046
2452.00,0.0045
2451.00,0.0045
2450.00,0.0045
2449.00,0.0044
2448.00,0.0044
2447.00,0.0044
2446.00,0.0044
2445.00,0.0043
2444.00,0.0043
2443.00,0.0043
2442.00,0.0042
2441.00,0.0042
2440.00,0.0043
2439.00,0.0043
2438.00,0.0043
2437.00,0.0043
2436.00,0.0043
2435.00,0.0043
2434.00,0.0043
2433.00,0.0042
2432.00,0.0042
2431.00,0.0042
2430.00,0.0041
2429.00,0.0041
2428.00,0.0040
2427.00,0.0040
2426.00,0.0040
2425.00,0.0040
2424.00,0.0040
2423.00,0.0039
2422.00,0.0039
2421.00,0.0039
2420.00,0.0039
2419.00,0.0039
2418.00,0.0039
2417.00,0.0040
2416.00,0.0040
2415.00,0.0041
2414.00,0.0041
2413.00,0.0041
2412.00,0.0041
2411.00,0.0041
2410.00,0.0041
2409.00,0.0040
2408.00,0.0039
2407.00,0.0038
2406.00,0.0038
2405.00,0.0037
2404.00,0.0038
2403.00,0.0038
2402.00,0.0037
2401.00,0.0037
2400.00,0.0037
2399.00,0.0037
2398.00,0.0037
2397.00,0.0038
2396.00,0.0038
2395.00,0.0038
2394.00,0.0038
2393.00,0.0038
2392.00,0.0038
2391.00,0.0038
2390.00,0.0038
2389.00,0.0037
2388.00,0.0037
2387.00,0.0037
2386.00,0.0036
2385.00,0.0036
2384.00,0.0036
2383.00,0.0036
2382.00,0.0035
2381.00,0.0034
2380.00,0.0034
2379.00,0.0034
2378.00,0.0034
2377.00,0.0034
2376.00,0.0035
2375.00,0.0035
2374.00,0.0036
2373.00,0.0036
2372.00,0.0035
2371.00,0.0034
2370.00,0.0033
2369.00,0.0033
2368.00,0.0034
2367.00,0.0034
2366.00,0.0035
2365.00,0.0036
2364.00,0.0036
2363.00,0.0037
2362.00,0.0037
2361.00,0.0038
2360.00,0.0038
2359.00,0.0037
2358.00,0.0037
2357.00,0.0036
2356.00,0.0035
2355.00,0.0035
2354.00,0.0035
2353.00,0.0034
2352.00,0.0034
2351.00,0.0034
2350.00,0.0035
2349.00,0.0037
2348.00,0.0039
2347.00,0.0040
2346.00,0.0040
2345.00,0.0040
2344.00,0.0040
2343.00,0.0040
2342.00,0.0040
2341.00,0.0040
2340.00,0.0040
2339.00,0.0040
2338.00,0.0040
2337.00,0.0041
2336.00,0.0041
2335.00,0.0040
2334.00,0.0040
2333.00,0.0039
2332.00,0.0039
2331.00,0.0038
2330.00,0.0039
2329.00,0.0041
2328.00,0.0046
2327.00,0.0050
2326.00,0.0053
2325.00,0.0054
2324.00,0.0052
2323.00,0.0050
2322.00,0.0047
2321.00,0.0045
2320.00,0.0044
2319.00,0.0044
2318.00,0.0043
2317.00,0.0043
2316.00,0.0043
2315.00,0.0042
2314.00,0.0042
2313.00,0.0042
2312.00,0.0041
2311.00,0.0041
2310.00,0.0040
2309.00,0.0040
2308.00,0.0041
2307.00,0.0041
2306.00,0.0041
2305.00,0.0041
2304.00,0.0041
2303.00,0.0041
2302.00,0.0041
2301.00,0.0042
2300.00,0.0042
2299.00,0.0042
2298.00,0.0043
2297.00,0.0044
2296.00,0.0044
2295.00,0.0045
2294.00,0.0046
2293.00,0.0046
2292.00,0.0047
2291.00,0.0047
2290.00,0.0047
2289.00,0.0048
2288.00,0.0049
2287.00,0.0050
2286.00,0.0050
2285.00,0.0050
2284.00,0.0048
2283.00,0.0047
2282.00,0.0046
2281.00,0.0045
2280.00,0.0044
2279.00,0.0044
2278.00,0.0044
2277.00,0.0044
2276.00,0.0044
2275.00,0.0044
2274.00,0.0044
2273.00,0.0044
2272.00,0.0044
2271.00,0.0044
2270.00,0.0043
2269.00,0.0043
2268.00,0.0042
2267.00,0.0041
2266.00,0.0040
2265.00,0.0040
2264.00,0.0040
2263.00,0.0040
2262.00,0.0040
2261.00,0.0041
2260.00,0.0043
2259.00,0.0043
2258.00,0.0043
2257.00,0.0041
2256.00,0.0039
2255.00,0.0037
2254.00,0.0036
2253.00,0.0036
2252.00,0.0038
2251.00,0.0039
2250.00,0.0039
2249.00,0.0040
2248.00,0.0041
2247.00,0.0041
2246.00,0.0040
2245.00,0.0041
2244.00,0.0041
2243.00,0.0042
2242.00,0.0043
2241.00,0.0042
2240.00,0.0041
2239.00,0.0040
2238.00,0.0039
2237.00,0.0039
2236.00,0.0040
2235.00,0.0040
2234.00,0.0040
2233.00,0.0040
2232.00,0.0039
2231.00,0.0039
2230.00,0.0038
2229.00,0.0039
2228.00,0.0039
2227.00,0.0039
2226.00,0.0038
2225.00,0.0038
2224.00,0.0038
2223.00,0.0038
2222.00,0.0037
2221.00,0.0036
2220.00,0.0036
2219.00,0.0036
2218.00,0.0036
2217.00,0.0037
2216.00,0.0037
2215.00,0.0037
2214.00,0.0037
2213.00,0.0037
2212.00,0.0037
2211.00,0.0038
2210.00,0.0038
2209.00,0.0039
2208.00,0.0040
2207.00,0.0040
2206.00,0.0040
2205.00,0.0041
2204.00,0.0042
2203.00,0.0042
2202.00,0.0042
2201.00,0.0042
2200.00,0.0042
2199.00,0.0041
2198.00,0.0039
2197.00,0.0038
2196.00,0.0038
2195.00,0.0039
2194.00,0.0039
2193.00,0.0040
2192.00,0.0041
2191.00,0.0042
2190.00,0.0042
2189.00,0.0041
2188.00,0.0041
2187.00,0.0042
2186.00,0.0042
2185.00,0.0041
2184.00,0.0038
2183.00,0.0036
2182.00,0.0033
2181.00,0.0033
2180.00,0.0034
2179.00,0.0034
2178.00,0.0032
2177.00,0.0030
2176.00,0.0029
2175.00,0.0029
2174.00,0.0030
2173.00,0.0033
2172.00,0.0038
2171.00,0.0041
2170.00,0.0043
2169.00,0.0044
2168.00,0.0043
2167.00,0.0043
2166.00,0.0043
2165.00,0.0045
2164.00,0.0047
2163.00,0.0046
2162.00,0.0038
2161.00,0.0025
2160.00,0.0010
2159.00,-0.0001
2158.00,-0.0004
2157.00,-0.0001
2156.00,0.0004
2155.00,0.0008
2154.00,0.0009
2153.00,0.0011
2152.00,0.0012
2151.00,0.0012
2150.00,0.0012
2149.00,0.0012
2148.00,0.0012
2147.00,0.0013
2146.00,0.0014
2145.00,0.0014
2144.00,0.0014
2143.00,0.0014
2142.00,0.0014
2141.00,0.0016
2140.00,0.0016
2139.00,0.0016
2138.00,0.0013
2137.00,0.0011
2136.00,0.0009
2135.00,0.0009
2134.00,0.0009
2133.00,0.0010
2132.00,0.0012
2131.00,0.0014
2130.00,0.0016
2129.00,0.0017
2128.00,0.0018
2127.00,0.0019
2126.00,0.0021
2125.00,0.0023
2124.00,0.0025
2123.00,0.0026
2122.00,0.0027
2121.00,0.0028
2120.00,0.0029
2119.00,0.0030
2118.00,0.0031
2117.00,0.0032
2116.00,0.0033
2115.00,0.0033
2114.00,0.0032
2113.00,0.0032
2112.00,0.0032
2111.00,0.0032
2110.00,0.0032
2109.00,0.0033
2108.00,0.0034
2107.00,0.0034
2106.00,0.0034
2105.00,0.0034
2104.00,0.0033
2103.00,0.0033
2102.00,0.0033
2101.00,0.0033
2100.00,0.0033
2099.00,0.0033
2098.00,0.0031
2097.00,0.0028
2096.00,0.0026
2095.00,0.0025
2094.00,0.0026
2093.00,0.0027
2092.00,0.0029
2091.00,0.0030
2090.00,0.0031
2089.00,0.0031
2088.00,0.0032
2087.00,0.0031
2086.00,0.0031
2085.00,0.0031
2084.00,0.0032
2083.00,0.0032
2082.00,0.0033
2081.00,0.0033
2080.00,0.0033
2079.00,0.0033
2078.00,0.0033
2077.00,0.0032
2076.00,0.0032
2075.00,0.0030
2074.00,0.0029
2073.00,0.0028
2072.00,0.0028
2071.00,0.0029
2070.00,0.0029
2069.00,0.0029
2068.00,0.0030
2067.00,0.0030
2066.00,0.0029
2065.00,0.0028
2064.00,0.0027
2063.00,0.0026
2062.00,0.0026
2061.00,0.0026
2060.00,0.0027
2059.00,0.0027
2058.00,0.0027
2057.00,0.0026
2056.00,0.0026
2055.00,0.0027
2054.00,0.0031
2053.00,0.0035
2052.00,0.0038
2051.00,0.0037
2050.00,0.0033
2049.00,0.0029
2048.00,0.0027
2047.00,0.0026
2046.00,0.0025
2045.00,0.0024
2044.00,0.0025
2043.00,0.0027
2042.00,0.0027
2041.00,0.0029
2040.00,0.0030
2039.00,0.0032
2038.00,0.0032
2037.00,0.0032
2036.00,0.0031
2035.00,0.0027
2034.00,0.0023
2033.00,0.0020
2032.00,0.0019
2031.00,0.0018
2030.00,0.0016
2029.00,0.0016
2028.00,0.0017
2027.00,0.0020
2026.00,0.0021
2025.00,0.0020
2024.00,0.0019
2023.00,0.0017
2022.00,0.0016
2021.00,0.0017
2020.00,0.0018
2019.00,0.0019
2018.00,0.0019
2017.00,0.0020
2016.00,0.0023
2015.00,0.0026
2014.00,0.0026
2013.00,0.0024
2012.00,0.0021
2011.00,0.0019
2010.00,0.0020
2009.00,0.0022
2008.00,0.0023
2007.00,0.0022
2006.00,0.0020
2005.00,0.0020
2004.00,0.0021
2003.00,0.0021
2002.00,0.0021
2001.00,0.0022
2000.00,0.0024
1999.00,0.0026
1998.00,0.0027
1997.00,0.0026
1996.00,0.0026
1995.00,0.0026
1994.00,0.0026
1993.00,0.0028
1992.00,0.0030
1991.00,0.0030
1990.00,0.0029
1989.00,0.0029
1988.00,0.0030
1987.00,0.0030
1986.00,0.0030
1985.00,0.0032
1984.00,0.0035
1983.00,0.0039
1982.00,0.0041
1981.00,0.0039
1980.00,0.0033
1979.00,0.0024
1978.00,0.0017
1977.00,0.0016
1976.00,0.0018
1975.00,0.0020
1974.00,0.0021
1973.00,0.0023
1972.00,0.0023
1971.00,0.0023
1970.00,0.0021
1969.00,0.0018
1968.00,0.0016
1967.00,0.0015
1966.00,0.0013
1965.00,0.0014
1964.00,0.0015
1963.00,0.0015
1962.00,0.0014
1961.00,0.0013
1960.00,0.0012
1959.00,0.0012
1958.00,0.0013
1957.00,0.0015
1956.00,0.0017
1955.00,0.0017
1954.00,0.0016
1953.00,0.0016
1952.00,0.0017
1951.00,0.0017
1950.00,0.0017
1949.00,0.0017
1948.00,0.0018
1947.00,0.0018
1946.00,0.0017
1945.00,0.0017
1944.00,0.0018
1943.00,0.0019
1942.00,0.0019
1941.00,0.0020
1940.00,0.0020
1939.00,0.0020
1938.00,0.0020
1937.00,0.0020
1936.00,0.0021
1935.00,0.0021
1934.00,0.0021
1933.00,0.0021
1932.00,0.0021
1931.00,0.0021
1930.00,0.0020
1929.00,0.0020
1928.00,0.0021
1927.00,0.0021
1926.00,0.0021
1925.00,0.0022
1924.00,0.0024
1923.00,0.0026
1922.00,0.0027
1921.00,0.0027
1920.00,0.0027
1919.00,0.0026
1918.00,0.0025
1917.00,0.0025
1916.00,0.0025
1915.00,0.0025
1914.00,0.0025
1913.00,0.0025
1912.00,0.0026
1911.00,0.0026
1910.00,0.0026
1909.00,0.0027
1908.00,0.0028
1907.00,0.0027
1906.00,0.0026
1905.00,0.0026
1904.00,0.0026
1903.00,0.0025
1902.00,0.0025
1901.00,0.0025
1900.00,0.0026
1899.00,0.0027
1898.00,0.0027
1897.00,0.0028
1896.00,0.0028
1895.00,0.0028
1894.00,0.0027
1893.00,0.0027
1892.00,0.0027
1891.00,0.0027
1890.00,0.0027
1889.00,0.0027
1888.00,0.0027
1887.00,0.0027
1886.00,0.0027
1885.00,0.0026
1884.00,0.0027
1883.00,0.0026
1882.00,0.0026
1881.00,0.0026
1880.00,0.0026
1879.00,0.0026
1878.00,0.0026
1877.00,0.0026
1876.00,0.0027
1875.00,0.0027
1874.00,0.0027
1873.00,0.0027
1872.00,0.0028
1871.00,0.0029
1870.00,0.0029
1869.00,0.0029
1868.00,0.0029
1867.00,0.0029
1866.00,0.0028
1865.00,0.0028
1864.00,0.0029
1863.00,0.0029
1862.00,0.0028
1861.00,0.0029
1860.00,0.0029
1859.00,0.0029
1858.00,0.0029
1857.00,0.0029
1856.00,0.0030
1855.00,0.0030
1854.00,0.0030
1853.00,0.0029
1852.00,0.0029
1851.00,0.0029
1850.00,0.0028
1849.00,0.0029
1848.00,0.0030
1847.00,0.0030
1846.00,0.0030
1845.00,0.0030
1844.00,0.0029
1843.00,0.0029
1842.00,0.0029
1841.00,0.0029
1840.00,0.0030
1839.00,0.0030
1838.00,0.0030
1837.00,0.0030
1836.00,0.0031
1835.00,0.0031
1834.00,0.0031
1833.00,0.0031
1832.00,0.0032
1831.00,0.0032
1830.00,0.0032
1829.00,0.0032
1828.00,0.0032
1827.00,0.0032
1826.00,0.0032
1825.00,0.0032
1824.00,0.0032
1823.00,0.0032
1822.00,0.0032
1821.00,0.0031
1820.00,0.0030
1819.00,0.0029
1818.00,0.0028
1817.00,0.0028
1816.00,0.0028
1815.00,0.0029
1814.00,0.0030
1813.00,0.0031
1812.00,0.0032
1811.00,0.0033
1810.00,0.0033
1809.00,0.0032
1808.00,0.0033
1807.00,0.0033
1806.00,0.0033
1805.00,0.0033
1804.00,0.0034
1803.00,0.0035
1802.00,0.0035
1801.00,0.0036
1800.00,0.0036
1799.00,0.0035
1798.00,0.0034
1797.00,0.0034
1796.00,0.0035
1795.00,0.0035
1794.00,0.0035
1793.00,0.0036
1792.00,0.0036
1791.00,0.0035
1790.00,0.0035
1789.00,0.0035
1788.00,0.0035
1787.00,0.0035
1786.00,0.0035
1785.00,0.0036
1784.00,0.0036
1783.00,0.0036
1782.00,0.0037
1781.00,0.0037
1780.00,0.0037
1779.00,0.0037
1778.00,0.0036
1777.00,0.0037
1776.00,0.0038
1775.00,0.0038
1774.00,0.0038
1773.00,0.0038
1772.00,0.0037
1771.00,0.0036
1770.00,0.0036
1769.00,0.0037
1768.00,0.0038
1767.00,0.0039
1766.00,0.0039
1765.00,0.0039
1764.00,0.0040
1763.00,0.0040
1762.00,0.0039
1761.00,0.0039
1760.00,0.0039
1759.00,0.0040
1758.00,0.0040
1757.00,0.0040
1756.00,0.0040
1755.00,0.0040
1754.00,0.0040
1753.00,0.0040
1752.00,0.0041
1751.00,0.0042
1750.00,0.0042
1749.00,0.0043
1748.00,0.0044
1747.00,0.0044
1746.00,0.0044
1745.00,0.0044
1744.00,0.0045
1743.00,0.0045
1742.00,0.0045
1741.00,0.0045
1740.00,0.0045
1739.00,0.0045
1738.00,0.0045
1737.00,0.0046
1736.00,0.0047
1735.00,0.0047
1734.00,0.0046
1733.00,0.0047
1732.00,0.0049
1731.00,0.0052
1730.00,0.0054
1729.00,0.0055
1728.00,0.0056
1727.00,0.0057
1726.00,0.0057
1725.00,0.0058
1724.00,0.0060
1723.00,0.0062
1722.00,0.0062
1721.00,0.0063
1720.00,0.0065
1719.00,0.0067
1718.00,0.0069
1717.00,0.0073
1716.00,0.0077
1715.00,0.0080
1714.00,0.0082
1713.00,0.0085
1712.00,0.0089
1711.00,0.0093
1710.00,0.0098
1709.00,0.0103
1708.00,0.0110
1707.00,0.0118
1706.00,0.0128
1705.00,0.0140
1704.00,0.0151
1703.00,0.0159
1702.00,0.0169
1701.00,0.0191
1700.00,0.0222
1699.00,0.0250
1698.00,0.0272
1697.00,0.0300
1696.00,0.0343
1695.00,0.0387
1694.00,0.0419
1693.00,0.0445
1692.00,0.0471
1691.00,0.0502
1690.00,0.0537
1689.00,0.0571
1688.00,0.0596
1687.00,0.0612
1686.00,0.0629
1685.00,0.0665
1684.00,0.0721
1683.00,0.0763
1682.00,0.0778
1681.00,0.0783
1680.00,0.0789
1679.00,0.0794
1678.00,0.0795
1677.00,0.0800
1676.00,0.0818
1675.00,0.0847
1674.00,0.0873
1673.00,0.0886
1672.00,0.0898
1671.00,0.0922
1670.00,0.0965
1669.00,0.1019
1668.00,0.1063
1667.00,0.1089
1666.00,0.1103
1665.00,0.1117
1664.00,0.1143
1663.00,0.1184
1662.00,0.1228
1661.00,0.1257
1660.00,0.1272
1659.00,0.1278
1658.00,0.1276
1657.00,0.1264
1656.00,0.1241
1655.00,0.1222
1654.00,0.1235
1653.00,0.1287
1652.00,0.1313
1651.00,0.1287
1650.00,0.1238
1649.00,0.1188
1648.00,0.1151
1647.00,0.1130
1646.00,0.1111
1645.00,0.1080
1644.00,0.1038
1643.00,0.0991
1642.00,0.0943
1641.00,0.0895
1640.00,0.0848
1639.00,0.0802
1638.00,0.0757
1637.00,0.0717
1636.00,0.0688
1635.00,0.0667
1634.00,0.0647
1633.00,0.0627
1632.00,0.0610
1631.00,0.0597
1630.00,0.0588
1629.00,0.0585
1628.00,0.0586
1627.00,0.0587
1626.00,0.0584
1625.00,0.0580
1624.00,0.0577
1623.00,0.0578
1622.00,0.0576
1621.00,0.0567
1620.00,0.0553
1619.00,0.0538
1618.00,0.0524
1617.00,0.0513
1616.00,0.0500
1615.00,0.0484
1614.00,0.0463
1613.00,0.0440
1612.00,0.0416
1611.00,0.0395
1610.00,0.0375
1609.00,0.0358
1608.00,0.0342
1607.00,0.0330
1606.00,0.0321
1605.00,0.0315
1604.00,0.0313
1603.00,0.0315
1602.00,0.0321
1601.00,0.0331
1600.00,0.0343
1599.00,0.0358
1598.00,0.0374
1597.00,0.0392
1596.00,0.0409
1595.00,0.0427
1594.00,0.0442
1593.00,0.0454
1592.00,0.0464
1591.00,0.0473
1590.00,0.0479
1589.00,0.0484
1588.00,0.0487
1587.00,0.0488
1586.00,0.0485
1585.00,0.0479
1584.00,0.0469
1583.00,0.0455
1582.00,0.0438
1581.00,0.0419
1580.00,0.0398
1579.00,0.0377
1578.00,0.0356
1577.00,0.0335
1576.00,0.0317
1575.00,0.0301
1574.00,0.0286
1573.00,0.0273
1572.00,0.0259
1571.00,0.0247
1570.00,0.0235
1569.00,0.0225
1568.00,0.0216
1567.00,0.0208
1566.00,0.0201
1565.00,0.0194
1564.00,0.0187
1563.00,0.0181
1562.00,0.0175
1561.00,0.0168
1560.00,0.0162
1559.00,0.0160
1558.00,0.0159
1557.00,0.0156
1556.00,0.0154
1555.00,0.0153
1554.00,0.0153
1553.00,0.0151
1552.00,0.0150
1551.00,0.0150
1550.00,0.0150
1549.00,0.0149
1548.00,0.0147
1547.00,0.0146
1546.00,0.0145
1545.00,0.0145
1544.00,0.0145
1543.00,0.0144
1542.00,0.0142
1541.00,0.0141
1540.00,0.0143
1539.00,0.0144
1538.00,0.0145
1537.00,0.0145
1536.00,0.0146
1535.00,0.0146
1534.00,0.0147
1533.00,0.0149
1532.00,0.0151
1531.00,0.0152
1530.00,0.0152
1529.00,0.0154
1528.00,0.0155
1527.00,0.0158
1526.00,0.0160
1525.00,0.0161
1524.00,0.0162
1523.00,0.0163
1522.00,0.0165
1521.00,0.0169
1520.00,0.0171
1519.00,0.0171
1518.00,0.0171
1517.00,0.0172
1516.00,0.0172
1515.00,0.0171
1514.00,0.0169
1513.00,0.0167
1512.00,0.0166
1511.00,0.0166
1510.00,0.0166
1509.00,0.0166
1508.00,0.0169
1507.00,0.0176
1506.00,0.0182
1505.00,0.0186
1504.00,0.0190
1503.00,0.0197
1502.00,0.0206
1501.00,0.0217
1500.00,0.0229
1499.00,0.0242
1498.00,0.0257
1497.00,0.0272
1496.00,0.0285
1495.00,0.0292
1494.00,0.0292
1493.00,0.0288
1492.00,0.0280
1491.00,0.0271
1490.00,0.0261
1489.00,0.0248
1488.00,0.0234
1487.00,0.0219
1486.00,0.0205
1485.00,0.0194
1484.00,0.0186
1483.00,0.0179
1482.00,0.0174
1481.00,0.0173
1480.00,0.0172
1479.00,0.0173
1478.00,0.0175
1477.00,0.0180
1476.00,0.0188
1475.00,0.0197
1474.00,0.0212
1473.00,0.0237
1472.00,0.0269
1471.00,0.0300
1470.00,0.0329
1469.00,0.0357
1468.00,0.0386
1467.00,0.0417
1466.00,0.0453
1465.00,0.0495
1464.00,0.0532
1463.00,0.0555
1462.00,0.0565
1461.00,0.0566
1460.00,0.0561
1459.00,0.0554
1458.00,0.0551
1457.00,0.0555
1456.00,0.0558
1455.00,0.0555
1454.00,0.0552
1453.00,0.0554
1452.00,0.0562
1451.00,0.0574
1450.00,0.0591
1449.00,0.0616
1448.00,0.0648
1447.00,0.0682
1446.00,0.0711
1445.00,0.0738
1444.00,0.0763
1443.00,0.0787
1442.00,0.0810
1441.00,0.0829
1440.00,0.0842
1439.00,0.0850
1438.00,0.0862
1437.00,0.0886
1436.00,0.0915
1435.00,0.0933
1434.00,0.0941
1433.00,0.0949
1432.00,0.0964
1431.00,0.0986
1430.00,0.1013
1429.00,0.1038
1428.00,0.1054
1427.00,0.1058
1426.00,0.1055
1425.00,0.1052
1424.00,0.1047
1423.00,0.1032
1422.00,0.1005
1421.00,0.0968
1420.00,0.0923
1419.00,0.0871
1418.00,0.0815
1417.00,0.0756
1416.00,0.0697
1415.00,0.0640
1414.00,0.0589
1413.00,0.0544
1412.00,0.0506
1411.00,0.0475
1410.00,0.0449
1409.00,0.0428
1408.00,0.0410
1407.00,0.0396
1406.00,0.0385
1405.00,0.0378
1404.00,0.0372
1403.00,0.0366
1402.00,0.0360
1401.00,0.0355
1400.00,0.0353
1399.00,0.0353
1398.00,0.0354
1397.00,0.0354
1396.00,0.0355
1395.00,0.0357
1394.00,0.0360
1393.00,0.0362
1392.00,0.0362
1391.00,0.0363
1390.00,0.0366
1389.00,0.0371
1388.00,0.0379
1387.00,0.0389
1386.00,0.0400
1385.00,0.0410
1384.00,0.0420
1383.00,0.0433
1382.00,0.0449
1381.00,0.0467
1380.00,0.0487
1379.00,0.0506
1378.00,0.0524
1377.00,0.0536
1376.00,0.0544
1375.00,0.0548
1374.00,0.0548
1373.00,0.0542
1372.00,0.0530
1371.00,0.0516
1370.00,0.0503
1369.00,0.0491
1368.00,0.0480
1367.00,0.0469
1366.00,0.0457
1365.00,0.0445
1364.00,0.0434
1363.00,0.0424
1362.00,0.0415
1361.00,0.0406
1360.00,0.0396
1359.00,0.0388
1358.00,0.0382
1357.00,0.0377
1356.00,0.0373
1355.00,0.0370
1354.00,0.0367
1353.00,0.0364
1352.00,0.0361
1351.00,0.0358
1350.00,0.0355
1349.00,0.0352
1348.00,0.0350
1347.00,0.0347
1346.00,0.0345
1345.00,0.0343
1344.00,0.0341
1343.00,0.0339
1342.00,0.0338
1341.00,0.0338
1340.00,0.0340
1339.00,0.0342
1338.00,0.0344
1337.00,0.0344
1336.00,0.0344
1335.00,0.0344
1334.00,0.0345
1333.00,0.0345
1332.00,0.0346
1331.00,0.0348
1330.00,0.0350
1329.00,0.0354
1328.00,0.0360
1327.00,0.0367
1326.00,0.0377
1325.00,0.0388
1324.00,0.0401
1323.00,0.0414
1322.00,0.0427
1321.00,0.0439
1320.00,0.0451
1319.00,0.0460
1318.00,0.0467
1317.00,0.0470
1316.00,0.0469
1315.00,0.0465
1314.00,0.0460
1313.00,0.0453
1312.00,0.0445
1311.00,0.0437
1310.00,0.0430
1309.00,0.0425
1308.00,0.0421
1307.00,0.0419
1306.00,0.0418
1305.00,0.0419
1304.00,0.0423
1303.00,0.0431
1302.00,0.0443
1301.00,0.0461
1300.00,0.0485
1299.00,0.0516
1298.00,0.0555
1297.00,0.0600
1296.00,0.0651
1295.00,0.0705
1294.00,0.0759
1293.00,0.0809
1292.00,0.0853
1291.00,0.0888
1290.00,0.0913
1289.00,0.0928
1288.00,0.0933
1287.00,0.0929
1286.00,0.0917
1285.00,0.0898
1284.00,0.0875
1283.00,0.0850
1282.00,0.0826
1281.00,0.0804
1280.00,0.0788
1279.00,0.0778
1278.00,0.0773
1277.00,0.0771
1276.00,0.0773
1275.00,0.0775
1274.00,0.0776
1273.00,0.0774
1272.00,0.0768
1271.00,0.0757
1270.00,0.0741
1269.00,0.0722
1268.00,0.0699
1267.00,0.0674
1266.00,0.0648
1265.00,0.0624
1264.00,0.0602
1263.00,0.0583
1262.00,0.0569
1261.00,0.0560
1260.00,0.0556
1259.00,0.0556
1258.00,0.0561
1257.00,0.0568
1256.00,0.0578
1255.00,0.0589
1254.00,0.0601
1253.00,0.0612
1252.00,0.0621
1251.00,0.0628
1250.00,0.0634
1249.00,0.0638
1248.00,0.0640
1247.00,0.0641
1246.00,0.0640
1245.00,0.0638
1244.00,0.0633
1243.00,0.0626
1242.00,0.0618
1241.00,0.0607
1240.00,0.0596
1239.00,0.0584
1238.00,0.0573
1237.00,0.0562
1236.00,0.0552
1235.00,0.0543
1234.00,0.0536
1233.00,0.0530
1232.00,0.0526
1231.00,0.0522
1230.00,0.0520
1229.00,0.0520
1228.00,0.0520
1227.00,0.0520
1226.00,0.0520
1225.00,0.0520
1224.00,0.0518
1223.00,0.0516
1222.00,0.0512
1221.00,0.0507
1220.00,0.0502
1219.00,0.0496
1218.00,0.0491
1217.00,0.0485
1216.00,0.0478
1215.00,0.0471
1214.00,0.0464
1213.00,0.0457
1212.00,0.0450
1211.00,0.0443
1210.00,0.0436
1209.00,0.0432
1208.00,0.0429
1207.00,0.0427
1206.00,0.0428
1205.00,0.0429
1204.00,0.0430
1203.00,0.0429
1202.00,0.0427
1201.00,0.0421
1200.00,0.0413
1199.00,0.0403
1198.00,0.0393
1197.00,0.0383
1196.00,0.0373
1195.00,0.0365
1194.00,0.0359
1193.00,0.0354
1192.00,0.0350
1191.00,0.0347
1190.00,0.0344
1189.00,0.0342
1188.00,0.0339
1187.00,0.0335
1186.00,0.0332
1185.00,0.0329
1184.00,0.0325
1183.00,0.0323
1182.00,0.0322
1181.00,0.0322
1180.00,0.0325
1179.00,0.0330
1178.00,0.0338
1177.00,0.0348
1176.00,0.0359
1175.00,0.0370
1174.00,0.0379
1173.00,0.0386
1172.00,0.0388
1171.00,0.0386
1170.00,0.0381
1169.00,0.0371
1168.00,0.0360
1167.00,0.0347
1166.00,0.0334
1165.00,0.0321
1164.00,0.0310
1163.00,0.0300
1162.00,0.0294
1161.00,0.0291
1160.00,0.0292
1159.00,0.0297
1158.00,0.0307
1157.00,0.0321
1156.00,0.0337
1155.00,0.0353
1154.00,0.0367
1153.00,0.0375
1152.00,0.0378
1151.00,0.0375
1150.00,0.0366
1149.00,0.0352
1148.00,0.0334
1147.00,0.0313
1146.00,0.0292
1145.00,0.0271
1144.00,0.0254
1143.00,0.0240
1142.00,0.0229
1141.00,0.0222
1140.00,0.0216
1139.00,0.0213
1138.00,0.0211
1137.00,0.0209
1136.00,0.0208
1135.00,0.0206
1134.00,0.0204
1133.00,0.0201
1132.00,0.0198
1131.00,0.0194
1130.00,0.0190
1129.00,0.0186
1128.00,0.0183
1127.00,0.0181
1126.00,0.0180
1125.00,0.0178
1124.00,0.0177
1123.00,0.0177
1122.00,0.0177
1121.00,0.0178
1120.00,0.0178
1119.00,0.0179
1118.00,0.0179
1117.00,0.0180
1116.00,0.0182
1115.00,0.0184
1114.00,0.0186
1113.00,0.0189
1112.00,0.0190
1111.00,0.0191
1110.00,0.0191
1109.00,0.0191
1108.00,0.0192
1107.00,0.0192
1106.00,0.0193
1105.00,0.0194
1104.00,0.0195
1103.00,0.0197
1102.00,0.0199
1101.00,0.0201
1100.00,0.0203
1099.00,0.0205
1098.00,0.0208
1097.00,0.0210
1096.00,0.0210
1095.00,0.0209
1094.00,0.0206
1093.00,0.0202
1092.00,0.0197
1091.00,0.0192
1090.00,0.0187
1089.00,0.0183
1088.00,0.0181
1087.00,0.0179
1086.00,0.0179
1085.00,0.0181
1084.00,0.0183
1083.00,0.0186
1082.00,0.0190
1081.00,0.0194
1080.00,0.0198
1079.00,0.0201
1078.00,0.0204
1077.00,0.0206
1076.00,0.0207
1075.00,0.0206
1074.00,0.0204
1073.00,0.0200
1072.00,0.0196
1071.00,0.0192
1070.00,0.0189
1069.00,0.0187
1068.00,0.0186
1067.00,0.0187
1066.00,0.0190
1065.00,0.0195
1064.00,0.0203
1063.00,0.0215
1062.00,0.0232
1061.00,0.0255
1060.00,0.0284
1059.00,0.0318
1058.00,0.0355
1057.00,0.0389
1056.00,0.0417
1055.00,0.0432
1054.00,0.0433
1053.00,0.0419
1052.00,0.0395
1051.00,0.0365
1050.00,0.0336
1049.00,0.0311
1048.00,0.0291
1047.00,0.0279
1046.00,0.0274
1045.00,0.0274
1044.00,0.0279
1043.00,0.0289
1042.00,0.0303
1041.00,0.0321
1040.00,0.0344
1039.00,0.0371
1038.00,0.0403
1037.00,0.0441
1036.00,0.0482
1035.00,0.0525
1034.00,0.0568
1033.00,0.0606
1032.00,0.0636
1031.00,0.0657
1030.00,0.0668
1029.00,0.0668
1028.00,0.0656
1027.00,0.0635
1026.00,0.0607
1025.00,0.0576
1024.00,0.0546
1023.00,0.0518
1022.00,0.0495
1021.00,0.0476
1020.00,0.0460
1019.00,0.0446
1018.00,0.0432
1017.00,0.0417
1016.00,0.0400
1015.00,0.0382
1014.00,0.0365
1013.00,0.0349
1012.00,0.0335
1011.00,0.0323
1010.00,0.0314
1009.00,0.0307
1008.00,0.0301
1007.00,0.0297
1006.00,0.0293
1005.00,0.0291
1004.00,0.0288
1003.00,0.0286
1002.00,0.0283
1001.00,0.0280
1000.00,0.0276
999.00,0.0271
998.00,0.0265
997.00,0.0259
996.00,0.0253
995.00,0.0247
994.00,0.0243
993.00,0.0240
992.00,0.0239
991.00,0.0240
990.00,0.0241
989.00,0.0242
988.00,0.0242
987.00,0.0241
986.00,0.0239
985.00,0.0235
984.00,0.0230
983.00,0.0224
982.00,0.0218
981.00,0.0212
980.00,0.0206
979.00,0.0202
978.00,0.0200
977.00,0.0197
976.00,0.0195
975.00,0.0193
974.00,0.0191
973.00,0.0190
972.00,0.0189
971.00,0.0188
970.00,0.0188
969.00,0.0189
968.00,0.0189
967.00,0.0191
966.00,0.0192
965.00,0.0193
964.00,0.0193
963.00,0.0193
962.00,0.0192
961.00,0.0189
960.00,0.0185
959.00,0.0180
958.00,0.0173
957.00,0.0166
956.00,0.0159
955.00,0.0151
954.00,0.0144
953.00,0.0138
952.00,0.0133
951.00,0.0129
950.00,0.0127
949.00,0.0125
948.00,0.0123
947.00,0.0122
946.00,0.0121
945.00,0.0120
944.00,0.0120
943.00,0.0121
942.00,0.0123
941.00,0.0125
940.00,0.0129
939.00,0.0133
938.00,0.0138
937.00,0.0144
936.00,0.0151
935.00,0.0157
934.00,0.0163
933.00,0.0167
932.00,0.0169
931.00,0.0169
930.00,0.0167
929.00,0.0165
928.00,0.0162
927.00,0.0160
926.00,0.0158
925.00,0.0156
924.00,0.0155
923.00,0.0154
922.00,0.0154
921.00,0.0155
920.00,0.0157
919.00,0.0160
918.00,0.0163
917.00,0.0167
916.00,0.0170
915.00,0.0174
914.00,0.0177
913.00,0.0180
912.00,0.0183
911.00,0.0187
910.00,0.0191
909.00,0.0197
908.00,0.0204
907.00,0.0213
906.00,0.0223
905.00,0.0234
904.00,0.0246
903.00,0.0258
902.00,0.0269
901.00,0.0280
900.00,0.0289
899.00,0.0296
898.00,0.0303
897.00,0.0310
896.00,0.0317
895.00,0.0324
894.00,0.0332
893.00,0.0339
892.00,0.0347
891.00,0.0355
890.00,0.0363
889.00,0.0371
888.00,0.0379
887.00,0.0386
886.00,0.0391
885.00,0.0395
884.00,0.0396
883.00,0.0396
882.00,0.0393
881.00,0.0388
880.00,0.0381
879.00,0.0372
878.00,0.0362
877.00,0.0351
876.00,0.0340
875.00,0.0329
874.00,0.0318
873.00,0.0308
872.00,0.0299
871.00,0.0293
870.00,0.0290
869.00,0.0288
868.00,0.0289
867.00,0.0291
866.00,0.0293
865.00,0.0297
864.00,0.0300
863.00,0.0304
862.00,0.0309
861.00,0.0314
860.00,0.0321
859.00,0.0328
858.00,0.0336
857.00,0.0345
856.00,0.0354
855.00,0.0364
854.00,0.0373
853.00,0.0381
852.00,0.0388
851.00,0.0393
850.00,0.0398
849.00,0.0403
848.00,0.0406
847.00,0.0409
846.00,0.0410
845.00,0.0412
844.00,0.0413
843.00,0.0413
842.00,0.0414
841.00,0.0415
840.00,0.0417
839.00,0.0418
838.00,0.0420
837.00,0.0423
836.00,0.0427
835.00,0.0433
834.00,0.0438
833.00,0.0443
832.00,0.0447
831.00,0.0450
830.00,0.0450
829.00,0.0448
828.00,0.0444
827.00,0.0437
826.00,0.0428
825.00,0.0417
824.00,0.0405
823.00,0.0390
822.00,0.0376
821.00,0.0362
820.00,0.0349
819.00,0.0337
818.00,0.0327
817.00,0.0317
816.00,0.0309
815.00,0.0302
814.00,0.0296
813.00,0.0292
812.00,0.0290
811.00,0.0289
810.00,0.0290
809.00,0.0292
808.00,0.0296
807.00,0.0300
806.00,0.0305
805.00,0.0308
804.00,0.0308
803.00,0.0304
802.00,0.0297
801.00,0.0289
800.00,0.0281
799.00,0.0276
798.00,0.0275
797.00,0.0276
796.00,0.0278
795.00,0.0281
794.00,0.0284
793.00,0.0285
792.00,0.0284
791.00,0.0282
790.00,0.0279
789.00,0.0275
788.00,0.0271
787.00,0.0267
786.00,0.0264
785.00,0.0261
784.00,0.0259
783.00,0.0258
782.00,0.0258
781.00,0.0260
780.00,0.0263
779.00,0.0267
778.00,0.0273
777.00,0.0279
776.00,0.0285
775.00,0.0291
774.00,0.0296
773.00,0.0300
772.00,0.0302
771.00,0.0304
770.00,0.0304
769.00,0.0304
768.00,0.0304
767.00,0.0304
766.00,0.0305
765.00,0.0307
764.00,0.0310
763.00,0.0314
762.00,0.0320
761.00,0.0326
760.00,0.0334
759.00,0.0340
758.00,0.0347
757.00,0.0353
756.00,0.0357
755.00,0.0361
754.00,0.0362
753.00,0.0361
752.00,0.0357
751.00,0.0353
750.00,0.0350
749.00,0.0347
748.00,0.0346
747.00,0.0346
746.00,0.0348
745.00,0.0351
744.00,0.0354
743.00,0.0358
742.00,0.0362
741.00,0.0367
740.00,0.0373
739.00,0.0379
738.00,0.0385
737.00,0.0391
736.00,0.0395
735.00,0.0399
734.00,0.0402
733.00,0.0404
732.00,0.0403
731.00,0.0401
730.00,0.0396
729.00,0.0390
728.00,0.0383
727.00,0.0376
726.00,0.0370
725.00,0.0363
724.00,0.0356
723.00,0.0350
722.00,0.0345
721.00,0.0340
720.00,0.0337
719.00,0.0334
718.00,0.0331
717.00,0.0328
716.00,0.0326
715.00,0.0325
714.00,0.0323
713.00,0.0322
712.00,0.0321
711.00,0.0320
710.00,0.0320
709.00,0.0321
708.00,0.0321
707.00,0.0321
706.00,0.0322
705.00,0.0323
704.00,0.0324
703.00,0.0325
702.00,0.0325
701.00,0.0326
700.00,0.0327
699.00,0.0329
698.00,0.0331
697.00,0.0333
696.00,0.0335
695.00,0.0337
694.00,0.0339
693.00,0.0341
692.00,0.0344
691.00,0.0348
690.00,0.0352
689.00,0.0357
688.00,0.0362
687.00,0.0367
686.00,0.0372
685.00,0.0377
684.00,0.0381
683.00,0.0387
682.00,0.0392
681.00,0.0398
680.00,0.0404
679.00,0.0409
678.00,0.0414
677.00,0.0419
676.00,0.0424
675.00,0.0428
674.00,0.0431
673.00,0.0434
672.00,0.0436
671.00,0.0437
670.00,0.0438
669.00,0.0443
668.00,0.0453
667.00,0.0463
666.00,0.0469
665.00,0.0472
664.00,0.0475
663.00,0.0480
662.00,0.0485
661.00,0.0491
660.00,0.0498
659.00,0.0505
658.00,0.0513
657.00,0.0521
656.00,0.0529
655.00,0.0537
654.00,0.0545
653.00,0.0552
652.00,0.0558
651.00,0.0563
650.00,0.0566
649.00,0.0567
648.00,0.0567
647.00,0.0564
646.00,0.0559
645.00,0.0553
644.00,0.0545
643.00,0.0536
642.00,0.0527
641.00,0.0517
640.00,0.0506
639.00,0.0495
638.00,0.0484
637.00,0.0473
636.00,0.0464
635.00,0.0454
634.00,0.0446
633.00,0.0437
632.00,0.0430
631.00,0.0422
630.00,0.0415
629.00,0.0408
628.00,0.0402
627.00,0.0397
626.00,0.0393
625.00,0.0389
624.00,0.0386
623.00,0.0385
622.00,0.0385
621.00,0.0384
620.00,0.0383
619.00,0.0383
618.00,0.0384
617.00,0.0385
616.00,0.0388
615.00,0.0390
614.00,0.0393
613.00,0.0396
612.00,0.0397
611.00,0.0397
610.00,0.0399
609.00,0.0401
608.00,0.0404
607.00,0.0407
606.00,0.0409
605.00,0.0412
604.00,0.0413
603.00,0.0414
602.00,0.0415
601.00,0.0417
600.00,0.0419
599.00,0.0420
598.00,0.0422
597.00,0.0423
596.00,0.0423
595.00,0.0423
594.00,0.0423
593.00,0.0425
592.00,0.0427
591.00,0.0430
590.00,0.0432
589.00,0.0435
588.00,0.0439
587.00,0.0444
586.00,0.0451
585.00,0.0461
584.00,0.0472
583.00,0.0484
582.00,0.0497
581.00,0.0508
580.00,0.0516
579.00,0.0521
578.00,0.0522
577.00,0.0522
576.00,0.0520
575.00,0.0517
574.00,0.0512
573.00,0.0507
572.00,0.0502
571.00,0.0496
570.00,0.0490
569.00,0.0484
568.00,0.0477
567.00,0.0471
566.00,0.0465
565.00,0.0459
564.00,0.0453
563.00,0.0448
562.00,0.0444
561.00,0.0443
560.00,0.0444
559.00,0.0447
558.00,0.0452
557.00,0.0457
556.00,0.0465
555.00,0.0473
554.00,0.0481
553.00,0.0485
552.00,0.0487
551.00,0.0486
550.00,0.0482
549.00,0.0477
548.00,0.0471
547.00,0.0465
546.00,0.0458
545.00,0.0451
544.00,0.0443
543.00,0.0435
542.00,0.0429
541.00,0.0425
540.00,0.0423
539.00,0.0423
538.00,0.0425
537.00,0.0428
536.00,0.0430
535.00,0.0432
534.00,0.0432
533.00,0.0433
532.00,0.0433
531.00,0.0434
530.00,0.0434
529.00,0.0436
528.00,0.0440
527.00,0.0447
526.00,0.0456
525.00,0.0463
524.00,0.0464
523.00,0.0461
522.00,0.0454
521.00,0.0445
520.00,0.0434
519.00,0.0422
518.00,0.0409
517.00,0.0398
516.00,0.0388
515.00,0.0380
514.00,0.0375
513.00,0.0371
512.00,0.0368
511.00,0.0365
510.00,0.0362
509.00,0.0359
508.00,0.0358
507.00,0.0358
506.00,0.0357
505.00,0.0356
504.00,0.0355
503.00,0.0357
502.00,0.0359
501.00,0.0360
500.00,0.0360
499.00,0.0359
498.00,0.0359
497.00,0.0361
496.00,0.0363
495.00,0.0366
494.00,0.0369
493.00,0.0372
492.00,0.0373
491.00,0.0375
490.00,0.0377
489.00,0.0381
488.00,0.0386
487.00,0.0390
486.00,0.0393
485.00,0.0396
484.00,0.0397
483.00,0.0399
482.00,0.0400
481.00,0.0400
480.00,0.0399
479.00,0.0396
478.00,0.0393
477.00,0.0389
476.00,0.0386
475.00,0.0385
474.00,0.0387
473.00,0.0391
472.00,0.0398
471.00,0.0402
470.00,0.0405
469.00,0.0405
468.00,0.0404
467.00,0.0403
466.00,0.0401
465.00,0.0397
464.00,0.0393
463.00,0.0389
462.00,0.0387
461.00,0.0384
460.00,0.0381
459.00,0.0380
458.00,0.0379
457.00,0.0379
456.00,0.0377
455.00,0.0374
454.00,0.0369
453.00,0.0362
452.00,0.0356
451.00,0.0352
450.00,0.0354
449.00,0.0358
448.00,0.0362
447.00,0.0364
446.00,0.0365
445.00,0.0367
444.00,0.0369
443.00,0.0371
442.00,0.0372
441.00,0.0369
440.00,0.0365
439.00,0.0362
438.00,0.0362
437.00,0.0364
436.00,0.0367
435.00,0.0372
434.00,0.0376
433.00,0.0379
432.00,0.0382
431.00,0.0385
430.00,0.0387
429.00,0.0389
428.00,0.0391
427.00,0.0395
426.00,0.0399
425.00,0.0403
424.00,0.0404
423.00,0.0404
422.00,0.0403
421.00,0.0404
420.00,0.0407
419.00,0.0409
418.00,0.0408
417.00,0.0402
416.00,0.0393
415.00,0.0386
414.00,0.0382
413.00,0.0381
412.00,0.0382
411.00,0.0381
410.00,0.0380
409.00,0.0379
408.00,0.0379
407.00,0.0379
406.00,0.0381
405.00,0.0383
404.00,0.0382
403.00,0.0381
402.00,0.0382
401.00,0.0388
400.00,0.0396
