Created as New Dataset,Sample 935 By YargerLab Date Monday, July 28 2025
cm-1,A
4000.00,0.0068
3999.00,0.0068
3998.00,0.0068
3997.00,0.0068
3996.00,0.0068
3995.00,0.0068
3994.00,0.0068
3993.00,0.0068
3992.00,0.0068
3991.00,0.0068
3990.00,0.0068
3989.00,0.0068
3988.00,0.0068
3987.00,0.0068
3986.00,0.0068
3985.00,0.0068
3984.00,0.0068
3983.00,0.0068
3982.00,0.0068
3981.00,0.0068
3980.00,0.0068
3979.00,0.0068
3978.00,0.0068
3977.00,0.0068
3976.00,0.0068
3975.00,0.0068
3974.00,0.0068
3973.00,0.0068
3972.00,0.0068
3971.00,0.0068
3970.00,0.0068
3969.00,0.0068
3968.00,0.0068
3967.00,0.0068
3966.00,0.0068
3965.00,0.0068
3964.00,0.0068
3963.00,0.0068
3962.00,0.0068
3961.00,0.0068
3960.00,0.0068
3959.00,0.0068
3958.00,0.0068
3957.00,0.0068
3956.00,0.0068
3955.00,0.0067
3954.00,0.0067
3953.00,0.0067
3952.00,0.0067
3951.00,0.0067
3950.00,0.0067
3949.00,0.0067
3948.00,0.0067
3947.00,0.0068
3946.00,0.0068
3945.00,0.0068
3944.00,0.0068
3943.00,0.0068
3942.00,0.0068
3941.00,0.0068
3940.00,0.0068
3939.00,0.0068
3938.00,0.0067
3937.00,0.0067
3936.00,0.0067
3935.00,0.0067
3934.00,0.0067
3933.00,0.0067
3932.00,0.0067
3931.00,0.0067
3930.00,0.0068
3929.00,0.0068
3928.00,0.0067
3927.00,0.0067
3926.00,0.0067
3925.00,0.0067
3924.00,0.0067
3923.00,0.0067
3922.00,0.0067
3921.00,0.0067
3920.00,0.0067
3919.00,0.0068
3918.00,0.0068
3917.00,0.0068
3916.00,0.0068
3915.00,0.0068
3914.00,0.0068
3913.00,0.0068
3912.00,0.0068
3911.00,0.0068
3910.00,0.0068
3909.00,0.0068
3908.00,0.0068
3907.00,0.0067
3906.00,0.0067
3905.00,0.0067
3904.00,0.0067
3903.00,0.0067
3902.00,0.0067
3901.00,0.0067
3900.00,0.0067
3899.00,0.0067
3898.00,0.0067
3897.00,0.0067
3896.00,0.0067
3895.00,0.0067
3894.00,0.0067
3893.00,0.0067
3892.00,0.0067
3891.00,0.0067
3890.00,0.0067
3889.00,0.0067
3888.00,0.0067
3887.00,0.0066
3886.00,0.0066
3885.00,0.0066
3884.00,0.0066
3883.00,0.0066
3882.00,0.0066
3881.00,0.0067
3880.00,0.0067
3879.00,0.0067
3878.00,0.0067
3877.00,0.0067
3876.00,0.0067
3875.00,0.0067
3874.00,0.0067
3873.00,0.0067
3872.00,0.0067
3871.00,0.0067
3870.00,0.0067
3869.00,0.0067
3868.00,0.0067
3867.00,0.0067
3866.00,0.0066
3865.00,0.0067
3864.00,0.0067
3863.00,0.0067
3862.00,0.0067
3861.00,0.0067
3860.00,0.0067
3859.00,0.0067
3858.00,0.0067
3857.00,0.0068
3856.00,0.0068
3855.00,0.0068
3854.00,0.0067
3853.00,0.0067
3852.00,0.0066
3851.00,0.0066
3850.00,0.0066
3849.00,0.0066
3848.00,0.0067
3847.00,0.0067
3846.00,0.0067
3845.00,0.0067
3844.00,0.0067
3843.00,0.0067
3842.00,0.0067
3841.00,0.0067
3840.00,0.0067
3839.00,0.0067
3838.00,0.0067
3837.00,0.0067
3836.00,0.0067
3835.00,0.0067
3834.00,0.0067
3833.00,0.0067
3832.00,0.0067
3831.00,0.0067
3830.00,0.0067
3829.00,0.0067
3828.00,0.0068
3827.00,0.0068
3826.00,0.0067
3825.00,0.0067
3824.00,0.0067
3823.00,0.0067
3822.00,0.0067
3821.00,0.0067
3820.00,0.0067
3819.00,0.0067
3818.00,0.0067
3817.00,0.0067
3816.00,0.0067
3815.00,0.0067
3814.00,0.0067
3813.00,0.0067
3812.00,0.0067
3811.00,0.0068
3810.00,0.0068
3809.00,0.0068
3808.00,0.0067
3807.00,0.0067
3806.00,0.0066
3805.00,0.0066
3804.00,0.0066
3803.00,0.0066
3802.00,0.0066
3801.00,0.0067
3800.00,0.0067
3799.00,0.0067
3798.00,0.0067
3797.00,0.0067
3796.00,0.0067
3795.00,0.0067
3794.00,0.0068
3793.00,0.0068
3792.00,0.0068
3791.00,0.0068
3790.00,0.0068
3789.00,0.0068
3788.00,0.0068
3787.00,0.0068
3786.00,0.0068
3785.00,0.0068
3784.00,0.0068
3783.00,0.0068
3782.00,0.0067
3781.00,0.0067
3780.00,0.0067
3779.00,0.0067
3778.00,0.0067
3777.00,0.0067
3776.00,0.0067
3775.00,0.0067
3774.00,0.0067
3773.00,0.0067
3772.00,0.0067
3771.00,0.0067
3770.00,0.0067
3769.00,0.0067
3768.00,0.0067
3767.00,0.0067
3766.00,0.0066
3765.00,0.0067
3764.00,0.0067
3763.00,0.0067
3762.00,0.0067
3761.00,0.0067
3760.00,0.0067
3759.00,0.0067
3758.00,0.0067
3757.00,0.0067
3756.00,0.0066
3755.00,0.0066
3754.00,0.0066
3753.00,0.0066
3752.00,0.0066
3751.00,0.0065
3750.00,0.0065
3749.00,0.0065
3748.00,0.0065
3747.00,0.0065
3746.00,0.0065
3745.00,0.0065
3744.00,0.0066
3743.00,0.0065
3742.00,0.0065
3741.00,0.0065
3740.00,0.0065
3739.00,0.0065
3738.00,0.0064
3737.00,0.0064
3736.00,0.0064
3735.00,0.0064
3734.00,0.0064
3733.00,0.0065
3732.00,0.0065
3731.00,0.0065
3730.00,0.0064
3729.00,0.0064
3728.00,0.0064
3727.00,0.0065
3726.00,0.0065
3725.00,0.0065
3724.00,0.0065
3723.00,0.0065
3722.00,0.0065
3721.00,0.0065
3720.00,0.0066
3719.00,0.0066
3718.00,0.0066
3717.00,0.0066
3716.00,0.0066
3715.00,0.0066
3714.00,0.0066
3713.00,0.0065
3712.00,0.0065
3711.00,0.0065
3710.00,0.0065
3709.00,0.0065
3708.00,0.0065
3707.00,0.0064
3706.00,0.0064
3705.00,0.0064
3704.00,0.0064
3703.00,0.0065
3702.00,0.0065
3701.00,0.0066
3700.00,0.0066
3699.00,0.0066
3698.00,0.0065
3697.00,0.0065
3696.00,0.0065
3695.00,0.0065
3694.00,0.0065
3693.00,0.0065
3692.00,0.0065
3691.00,0.0065
3690.00,0.0065
3689.00,0.0065
3688.00,0.0065
3687.00,0.0065
3686.00,0.0066
3685.00,0.0066
3684.00,0.0066
3683.00,0.0067
3682.00,0.0067
3681.00,0.0067
3680.00,0.0067
3679.00,0.0067
3678.00,0.0067
3677.00,0.0066
3676.00,0.0066
3675.00,0.0067
3674.00,0.0067
3673.00,0.0067
3672.00,0.0067
3671.00,0.0067
3670.00,0.0067
3669.00,0.0067
3668.00,0.0067
3667.00,0.0067
3666.00,0.0067
3665.00,0.0068
3664.00,0.0068
3663.00,0.0068
3662.00,0.0068
3661.00,0.0069
3660.00,0.0069
3659.00,0.0069
3658.00,0.0069
3657.00,0.0069
3656.00,0.0069
3655.00,0.0069
3654.00,0.0068
3653.00,0.0068
3652.00,0.0068
3651.00,0.0068
3650.00,0.0068
3649.00,0.0068
3648.00,0.0069
3647.00,0.0069
3646.00,0.0070
3645.00,0.0070
3644.00,0.0070
3643.00,0.0071
3642.00,0.0071
3641.00,0.0071
3640.00,0.0071
3639.00,0.0071
3638.00,0.0071
3637.00,0.0071
3636.00,0.0071
3635.00,0.0071
3634.00,0.0071
3633.00,0.0071
3632.00,0.0071
3631.00,0.0071
3630.00,0.0072
3629.00,0.0072
3628.00,0.0073
3627.00,0.0074
3626.00,0.0074
3625.00,0.0074
3624.00,0.0074
3623.00,0.0075
3622.00,0.0075
3621.00,0.0075
3620.00,0.0076
3619.00,0.0076
3618.00,0.0076
3617.00,0.0076
3616.00,0.0077
3615.00,0.0077
3614.00,0.0077
3613.00,0.0078
3612.00,0.0079
3611.00,0.0079
3610.00,0.0079
3609.00,0.0079
3608.00,0.0079
3607.00,0.0080
3606.00,0.0081
3605.00,0.0081
3604.00,0.0081
3603.00,0.0082
3602.00,0.0082
3601.00,0.0083
3600.00,0.0083
3599.00,0.0084
3598.00,0.0084
3597.00,0.0085
3596.00,0.0085
3595.00,0.0086
3594.00,0.0086
3593.00,0.0086
3592.00,0.0087
3591.00,0.0087
3590.00,0.0087
3589.00,0.0087
3588.00,0.0088
3587.00,0.0088
3586.00,0.0089
3585.00,0.0090
3584.00,0.0091
3583.00,0.0091
3582.00,0.0092
3581.00,0.0092
3580.00,0.0093
3579.00,0.0094
3578.00,0.0094
3577.00,0.0095
3576.00,0.0095
3575.00,0.0096
3574.00,0.0097
3573.00,0.0097
3572.00,0.0098
3571.00,0.0098
3570.00,0.0098
3569.00,0.0098
3568.00,0.0098
3567.00,0.0099
3566.00,0.0099
3565.00,0.0100
3564.00,0.0100
3563.00,0.0101
3562.00,0.0101
3561.00,0.0102
3560.00,0.0103
3559.00,0.0104
3558.00,0.0104
3557.00,0.0105
3556.00,0.0105
3555.00,0.0106
3554.00,0.0106
3553.00,0.0106
3552.00,0.0106
3551.00,0.0107
3550.00,0.0107
3549.00,0.0107
3548.00,0.0108
3547.00,0.0108
3546.00,0.0109
3545.00,0.0109
3544.00,0.0110
3543.00,0.0110
3542.00,0.0110
3541.00,0.0111
3540.00,0.0111
3539.00,0.0112
3538.00,0.0112
3537.00,0.0112
3536.00,0.0112
3535.00,0.0112
3534.00,0.0112
3533.00,0.0112
3532.00,0.0112
3531.00,0.0112
3530.00,0.0112
3529.00,0.0112
3528.00,0.0112
3527.00,0.0112
3526.00,0.0113
3525.00,0.0113
3524.00,0.0113
3523.00,0.0113
3522.00,0.0114
3521.00,0.0114
3520.00,0.0114
3519.00,0.0114
3518.00,0.0114
3517.00,0.0114
3516.00,0.0114
3515.00,0.0114
3514.00,0.0114
3513.00,0.0114
3512.00,0.0114
3511.00,0.0114
3510.00,0.0114
3509.00,0.0114
3508.00,0.0115
3507.00,0.0114
3506.00,0.0114
3505.00,0.0114
3504.00,0.0114
3503.00,0.0114
3502.00,0.0114
3501.00,0.0115
3500.00,0.0115
3499.00,0.0115
3498.00,0.0115
3497.00,0.0115
3496.00,0.0115
3495.00,0.0115
3494.00,0.0115
3493.00,0.0115
3492.00,0.0115
3491.00,0.0115
3490.00,0.0115
3489.00,0.0116
3488.00,0.0116
3487.00,0.0116
3486.00,0.0116
3485.00,0.0116
3484.00,0.0116
3483.00,0.0116
3482.00,0.0116
3481.00,0.0116
3480.00,0.0116
3479.00,0.0116
3478.00,0.0116
3477.00,0.0116
3476.00,0.0116
3475.00,0.0116
3474.00,0.0116
3473.00,0.0116
3472.00,0.0116
3471.00,0.0117
3470.00,0.0117
3469.00,0.0117
3468.00,0.0117
3467.00,0.0117
3466.00,0.0117
3465.00,0.0117
3464.00,0.0117
3463.00,0.0116
3462.00,0.0116
3461.00,0.0116
3460.00,0.0116
3459.00,0.0116
3458.00,0.0116
3457.00,0.0116
3456.00,0.0116
3455.00,0.0116
3454.00,0.0116
3453.00,0.0116
3452.00,0.0116
3451.00,0.0115
3450.00,0.0115
3449.00,0.0115
3448.00,0.0116
3447.00,0.0116
3446.00,0.0116
3445.00,0.0116
3444.00,0.0116
3443.00,0.0115
3442.00,0.0115
3441.00,0.0114
3440.00,0.0114
3439.00,0.0114
3438.00,0.0114
3437.00,0.0114
3436.00,0.0114
3435.00,0.0113
3434.00,0.0113
3433.00,0.0113
3432.00,0.0113
3431.00,0.0113
3430.00,0.0113
3429.00,0.0113
3428.00,0.0113
3427.00,0.0113
3426.00,0.0112
3425.00,0.0112
3424.00,0.0111
3423.00,0.0111
3422.00,0.0111
3421.00,0.0110
3420.00,0.0110
3419.00,0.0110
3418.00,0.0110
3417.00,0.0110
3416.00,0.0110
3415.00,0.0109
3414.00,0.0109
3413.00,0.0109
3412.00,0.0108
3411.00,0.0108
3410.00,0.0108
3409.00,0.0108
3408.00,0.0108
3407.00,0.0108
3406.00,0.0108
3405.00,0.0108
3404.00,0.0108
3403.00,0.0107
3402.00,0.0107
3401.00,0.0106
3400.00,0.0106
3399.00,0.0106
3398.00,0.0107
3397.00,0.0107
3396.00,0.0107
3395.00,0.0106
3394.00,0.0106
3393.00,0.0105
3392.00,0.0105
3391.00,0.0105
3390.00,0.0106
3389.00,0.0106
3388.00,0.0106
3387.00,0.0106
3386.00,0.0106
3385.00,0.0106
3384.00,0.0106
3383.00,0.0106
3382.00,0.0106
3381.00,0.0105
3380.00,0.0105
3379.00,0.0105
3378.00,0.0105
3377.00,0.0105
3376.00,0.0105
3375.00,0.0105
3374.00,0.0105
3373.00,0.0104
3372.00,0.0104
3371.00,0.0103
3370.00,0.0103
3369.00,0.0102
3368.00,0.0103
3367.00,0.0103
3366.00,0.0104
3365.00,0.0105
3364.00,0.0105
3363.00,0.0105
3362.00,0.0105
3361.00,0.0105
3360.00,0.0106
3359.00,0.0106
3358.00,0.0106
3357.00,0.0106
3356.00,0.0106
3355.00,0.0106
3354.00,0.0106
3353.00,0.0106
3352.00,0.0105
3351.00,0.0105
3350.00,0.0105
3349.00,0.0106
3348.00,0.0106
3347.00,0.0107
3346.00,0.0107
3345.00,0.0106
3344.00,0.0106
3343.00,0.0105
3342.00,0.0105
3341.00,0.0105
3340.00,0.0105
3339.00,0.0105
3338.00,0.0105
3337.00,0.0105
3336.00,0.0106
3335.00,0.0106
3334.00,0.0106
3333.00,0.0106
3332.00,0.0106
3331.00,0.0106
3330.00,0.0105
3329.00,0.0105
3328.00,0.0104
3327.00,0.0103
3326.00,0.0103
3325.00,0.0102
3324.00,0.0103
3323.00,0.0103
3322.00,0.0103
3321.00,0.0104
3320.00,0.0104
3319.00,0.0103
3318.00,0.0103
3317.00,0.0103
3316.00,0.0103
3315.00,0.0102
3314.00,0.0102
3313.00,0.0101
3312.00,0.0101
3311.00,0.0100
3310.00,0.0098
3309.00,0.0097
3308.00,0.0097
3307.00,0.0096
3306.00,0.0096
3305.00,0.0097
3304.00,0.0097
3303.00,0.0098
3302.00,0.0098
3301.00,0.0099
3300.00,0.0099
3299.00,0.0098
3298.00,0.0098
3297.00,0.0097
3296.00,0.0096
3295.00,0.0096
3294.00,0.0095
3293.00,0.0095
3292.00,0.0095
3291.00,0.0096
3290.00,0.0096
3289.00,0.0097
3288.00,0.0097
3287.00,0.0096
3286.00,0.0096
3285.00,0.0096
3284.00,0.0095
3283.00,0.0095
3282.00,0.0095
3281.00,0.0095
3280.00,0.0095
3279.00,0.0095
3278.00,0.0094
3277.00,0.0094
3276.00,0.0094
3275.00,0.0093
3274.00,0.0093
3273.00,0.0092
3272.00,0.0092
3271.00,0.0092
3270.00,0.0092
3269.00,0.0092
3268.00,0.0093
3267.00,0.0093
3266.00,0.0093
3265.00,0.0092
3264.00,0.0092
3263.00,0.0092
3262.00,0.0092
3261.00,0.0092
3260.00,0.0092
3259.00,0.0091
3258.00,0.0091
3257.00,0.0091
3256.00,0.0091
3255.00,0.0090
3254.00,0.0090
3253.00,0.0090
3252.00,0.0090
3251.00,0.0090
3250.00,0.0089
3249.00,0.0089
3248.00,0.0088
3247.00,0.0088
3246.00,0.0088
3245.00,0.0089
3244.00,0.0089
3243.00,0.0089
3242.00,0.0089
3241.00,0.0088
3240.00,0.0088
3239.00,0.0088
3238.00,0.0088
3237.00,0.0087
3236.00,0.0087
3235.00,0.0086
3234.00,0.0086
3233.00,0.0086
3232.00,0.0086
3231.00,0.0086
3230.00,0.0087
3229.00,0.0087
3228.00,0.0087
3227.00,0.0087
3226.00,0.0086
3225.00,0.0086
3224.00,0.0086
3223.00,0.0086
3222.00,0.0085
3221.00,0.0085
3220.00,0.0085
3219.00,0.0085
3218.00,0.0085
3217.00,0.0084
3216.00,0.0084
3215.00,0.0084
3214.00,0.0084
3213.00,0.0084
3212.00,0.0084
3211.00,0.0084
3210.00,0.0084
3209.00,0.0084
3208.00,0.0084
3207.00,0.0084
3206.00,0.0083
3205.00,0.0083
3204.00,0.0083
3203.00,0.0083
3202.00,0.0083
3201.00,0.0083
3200.00,0.0083
3199.00,0.0083
3198.00,0.0083
3197.00,0.0083
3196.00,0.0083
3195.00,0.0083
3194.00,0.0083
3193.00,0.0082
3192.00,0.0082
3191.00,0.0082
3190.00,0.0082
3189.00,0.0082
3188.00,0.0082
3187.00,0.0082
3186.00,0.0082
3185.00,0.0082
3184.00,0.0082
3183.00,0.0082
3182.00,0.0082
3181.00,0.0081
3180.00,0.0081
3179.00,0.0081
3178.00,0.0081
3177.00,0.0081
3176.00,0.0081
3175.00,0.0081
3174.00,0.0081
3173.00,0.0081
3172.00,0.0081
3171.00,0.0081
3170.00,0.0081
3169.00,0.0081
3168.00,0.0081
3167.00,0.0081
3166.00,0.0081
3165.00,0.0081
3164.00,0.0081
3163.00,0.0081
3162.00,0.0081
3161.00,0.0081
3160.00,0.0080
3159.00,0.0080
3158.00,0.0080
3157.00,0.0080
3156.00,0.0080
3155.00,0.0080
3154.00,0.0080
3153.00,0.0080
3152.00,0.0080
3151.00,0.0080
3150.00,0.0080
3149.00,0.0080
3148.00,0.0080
3147.00,0.0079
3146.00,0.0079
3145.00,0.0079
3144.00,0.0079
3143.00,0.0079
3142.00,0.0079
3141.00,0.0079
3140.00,0.0079
3139.00,0.0079
3138.00,0.0079
3137.00,0.0079
3136.00,0.0079
3135.00,0.0080
3134.00,0.0080
3133.00,0.0080
3132.00,0.0080
3131.00,0.0079
3130.00,0.0079
3129.00,0.0079
3128.00,0.0079
3127.00,0.0079
3126.00,0.0079
3125.00,0.0079
3124.00,0.0079
3123.00,0.0079
3122.00,0.0079
3121.00,0.0079
3120.00,0.0079
3119.00,0.0079
3118.00,0.0079
3117.00,0.0079
3116.00,0.0079
3115.00,0.0079
3114.00,0.0079
3113.00,0.0079
3112.00,0.0079
3111.00,0.0079
3110.00,0.0079
3109.00,0.0079
3108.00,0.0079
3107.00,0.0079
3106.00,0.0079
3105.00,0.0079
3104.00,0.0079
3103.00,0.0079
3102.00,0.0079
3101.00,0.0079
3100.00,0.0079
3099.00,0.0079
3098.00,0.0079
3097.00,0.0079
3096.00,0.0079
3095.00,0.0079
3094.00,0.0079
3093.00,0.0078
3092.00,0.0079
3091.00,0.0079
3090.00,0.0079
3089.00,0.0079
3088.00,0.0079
3087.00,0.0079
3086.00,0.0079
3085.00,0.0079
3084.00,0.0079
3083.00,0.0079
3082.00,0.0079
3081.00,0.0079
3080.00,0.0079
3079.00,0.0079
3078.00,0.0079
3077.00,0.0079
3076.00,0.0079
3075.00,0.0079
3074.00,0.0079
3073.00,0.0079
3072.00,0.0079
3071.00,0.0079
3070.00,0.0079
3069.00,0.0079
3068.00,0.0079
3067.00,0.0079
3066.00,0.0079
3065.00,0.0079
3064.00,0.0079
3063.00,0.0079
3062.00,0.0079
3061.00,0.0079
3060.00,0.0079
3059.00,0.0079
3058.00,0.0079
3057.00,0.0079
3056.00,0.0079
3055.00,0.0078
3054.00,0.0078
3053.00,0.0078
3052.00,0.0078
3051.00,0.0079
3050.00,0.0079
3049.00,0.0079
3048.00,0.0079
3047.00,0.0078
3046.00,0.0078
3045.00,0.0078
3044.00,0.0078
3043.00,0.0078
3042.00,0.0079
3041.00,0.0079
3040.00,0.0079
3039.00,0.0079
3038.00,0.0079
3037.00,0.0079
3036.00,0.0079
3035.00,0.0079
3034.00,0.0079
3033.00,0.0079
3032.00,0.0079
3031.00,0.0079
3030.00,0.0080
3029.00,0.0080
3028.00,0.0080
3027.00,0.0081
3026.00,0.0081
3025.00,0.0081
3024.00,0.0081
3023.00,0.0082
3022.00,0.0082
3021.00,0.0083
3020.00,0.0083
3019.00,0.0084
3018.00,0.0084
3017.00,0.0085
3016.00,0.0085
3015.00,0.0086
3014.00,0.0087
3013.00,0.0088
3012.00,0.0089
3011.00,0.0090
3010.00,0.0091
3009.00,0.0093
3008.00,0.0094
3007.00,0.0096
3006.00,0.0097
3005.00,0.0099
3004.00,0.0101
3003.00,0.0103
3002.00,0.0105
3001.00,0.0107
3000.00,0.0110
2999.00,0.0112
2998.00,0.0115
2997.00,0.0118
2996.00,0.0120
2995.00,0.0123
2994.00,0.0126
2993.00,0.0129
2992.00,0.0133
2991.00,0.0136
2990.00,0.0140
2989.00,0.0143
2988.00,0.0147
2987.00,0.0150
2986.00,0.0153
2985.00,0.0157
2984.00,0.0160
2983.00,0.0163
2982.00,0.0166
2981.00,0.0169
2980.00,0.0171
2979.00,0.0174
2978.00,0.0176
2977.00,0.0178
2976.00,0.0181
2975.00,0.0183
2974.00,0.0185
2973.00,0.0187
2972.00,0.0189
2971.00,0.0191
2970.00,0.0192
2969.00,0.0194
2968.00,0.0195
2967.00,0.0197
2966.00,0.0199
2965.00,0.0200
2964.00,0.0202
2963.00,0.0203
2962.00,0.0205
2961.00,0.0206
2960.00,0.0208
2959.00,0.0210
2958.00,0.0211
2957.00,0.0213
2956.00,0.0215
2955.00,0.0217
2954.00,0.0218
2953.00,0.0220
2952.00,0.0221
2951.00,0.0222
2950.00,0.0223
2949.00,0.0223
2948.00,0.0224
2947.00,0.0224
2946.00,0.0223
2945.00,0.0223
2944.00,0.0222
2943.00,0.0221
2942.00,0.0219
2941.00,0.0218
2940.00,0.0217
2939.00,0.0216
2938.00,0.0215
2937.00,0.0215
2936.00,0.0214
2935.00,0.0213
2934.00,0.0213
2933.00,0.0213
2932.00,0.0213
2931.00,0.0213
2930.00,0.0213
2929.00,0.0213
2928.00,0.0214
2927.00,0.0215
2926.00,0.0216
2925.00,0.0217
2924.00,0.0217
2923.00,0.0218
2922.00,0.0218
2921.00,0.0219
2920.00,0.0219
2919.00,0.0219
2918.00,0.0219
2917.00,0.0218
2916.00,0.0217
2915.00,0.0216
2914.00,0.0215
2913.00,0.0213
2912.00,0.0211
2911.00,0.0209
2910.00,0.0207
2909.00,0.0205
2908.00,0.0203
2907.00,0.0200
2906.00,0.0198
2905.00,0.0197
2904.00,0.0195
2903.00,0.0194
2902.00,0.0193
2901.00,0.0193
2900.00,0.0192
2899.00,0.0192
2898.00,0.0192
2897.00,0.0192
2896.00,0.0193
2895.00,0.0193
2894.00,0.0194
2893.00,0.0194
2892.00,0.0195
2891.00,0.0195
2890.00,0.0196
2889.00,0.0196
2888.00,0.0196
2887.00,0.0197
2886.00,0.0197
2885.00,0.0197
2884.00,0.0198
2883.00,0.0198
2882.00,0.0198
2881.00,0.0199
2880.00,0.0199
2879.00,0.0199
2878.00,0.0199
2877.00,0.0198
2876.00,0.0198
2875.00,0.0197
2874.00,0.0197
2873.00,0.0196
2872.00,0.0195
2871.00,0.0194
2870.00,0.0193
2869.00,0.0192
2868.00,0.0191
2867.00,0.0189
2866.00,0.0188
2865.00,0.0187
2864.00,0.0186
2863.00,0.0184
2862.00,0.0183
2861.00,0.0181
2860.00,0.0180
2859.00,0.0178
2858.00,0.0177
2857.00,0.0175
2856.00,0.0173
2855.00,0.0172
2854.00,0.0170
2853.00,0.0167
2852.00,0.0165
2851.00,0.0163
2850.00,0.0161
2849.00,0.0158
2848.00,0.0156
2847.00,0.0155
2846.00,0.0153
2845.00,0.0151
2844.00,0.0150
2843.00,0.0148
2842.00,0.0146
2841.00,0.0144
2840.00,0.0143
2839.00,0.0141
2838.00,0.0140
2837.00,0.0138
2836.00,0.0137
2835.00,0.0135
2834.00,0.0134
2833.00,0.0132
2832.00,0.0131
2831.00,0.0129
2830.00,0.0126
2829.00,0.0124
2828.00,0.0123
2827.00,0.0121
2826.00,0.0119
2825.00,0.0117
2824.00,0.0116
2823.00,0.0114
2822.00,0.0113
2821.00,0.0111
2820.00,0.0110
2819.00,0.0109
2818.00,0.0108
2817.00,0.0107
2816.00,0.0106
2815.00,0.0105
2814.00,0.0104
2813.00,0.0103
2812.00,0.0102
2811.00,0.0101
2810.00,0.0101
2809.00,0.0100
2808.00,0.0100
2807.00,0.0099
2806.00,0.0099
2805.00,0.0099
2804.00,0.0098
2803.00,0.0098
2802.00,0.0097
2801.00,0.0097
2800.00,0.0096
2799.00,0.0096
2798.00,0.0096
2797.00,0.0096
2796.00,0.0096
2795.00,0.0096
2794.00,0.0095
2793.00,0.0095
2792.00,0.0095
2791.00,0.0094
2790.00,0.0094
2789.00,0.0094
2788.00,0.0094
2787.00,0.0094
2786.00,0.0093
2785.00,0.0093
2784.00,0.0093
2783.00,0.0092
2782.00,0.0092
2781.00,0.0092
2780.00,0.0092
2779.00,0.0092
2778.00,0.0091
2777.00,0.0091
2776.00,0.0091
2775.00,0.0091
2774.00,0.0091
2773.00,0.0091
2772.00,0.0091
2771.00,0.0091
2770.00,0.0090
2769.00,0.0090
2768.00,0.0090
2767.00,0.0090
2766.00,0.0090
2765.00,0.0090
2764.00,0.0089
2763.00,0.0089
2762.00,0.0089
2761.00,0.0089
2760.00,0.0089
2759.00,0.0088
2758.00,0.0088
2757.00,0.0088
2756.00,0.0088
2755.00,0.0088
2754.00,0.0088
2753.00,0.0088
2752.00,0.0088
2751.00,0.0088
2750.00,0.0088
2749.00,0.0088
2748.00,0.0088
2747.00,0.0088
2746.00,0.0088
2745.00,0.0088
2744.00,0.0088
2743.00,0.0088
2742.00,0.0088
2741.00,0.0088
2740.00,0.0088
2739.00,0.0088
2738.00,0.0088
2737.00,0.0088
2736.00,0.0087
2735.00,0.0087
2734.00,0.0087
2733.00,0.0087
2732.00,0.0087
2731.00,0.0087
2730.00,0.0087
2729.00,0.0087
2728.00,0.0087
2727.00,0.0087
2726.00,0.0087
2725.00,0.0086
2724.00,0.0086
2723.00,0.0086
2722.00,0.0086
2721.00,0.0087
2720.00,0.0087
2719.00,0.0087
2718.00,0.0087
2717.00,0.0087
2716.00,0.0086
2715.00,0.0086
2714.00,0.0086
2713.00,0.0086
2712.00,0.0086
2711.00,0.0086
2710.00,0.0086
2709.00,0.0086
2708.00,0.0086
2707.00,0.0085
2706.00,0.0085
2705.00,0.0085
2704.00,0.0085
2703.00,0.0085
2702.00,0.0085
2701.00,0.0085
2700.00,0.0085
2699.00,0.0085
2698.00,0.0085
2697.00,0.0085
2696.00,0.0084
2695.00,0.0084
2694.00,0.0084
2693.00,0.0084
2692.00,0.0084
2691.00,0.0084
2690.00,0.0084
2689.00,0.0083
2688.00,0.0083
2687.00,0.0084
2686.00,0.0084
2685.00,0.0084
2684.00,0.0084
2683.00,0.0084
2682.00,0.0083
2681.00,0.0083
2680.00,0.0083
2679.00,0.0083
2678.00,0.0083
2677.00,0.0083
2676.00,0.0083
2675.00,0.0083
2674.00,0.0084
2673.00,0.0084
2672.00,0.0084
2671.00,0.0084
2670.00,0.0083
2669.00,0.0084
2668.00,0.0084
2667.00,0.0084
2666.00,0.0084
2665.00,0.0085
2664.00,0.0085
2663.00,0.0086
2662.00,0.0086
2661.00,0.0086
2660.00,0.0087
2659.00,0.0087
2658.00,0.0087
2657.00,0.0088
2656.00,0.0088
2655.00,0.0088
2654.00,0.0088
2653.00,0.0088
2652.00,0.0088
2651.00,0.0088
2650.00,0.0088
2649.00,0.0088
2648.00,0.0088
2647.00,0.0088
2646.00,0.0088
2645.00,0.0088
2644.00,0.0088
2643.00,0.0088
2642.00,0.0088
2641.00,0.0088
2640.00,0.0088
2639.00,0.0088
2638.00,0.0088
2637.00,0.0087
2636.00,0.0087
2635.00,0.0087
2634.00,0.0087
2633.00,0.0087
2632.00,0.0087
2631.00,0.0087
2630.00,0.0086
2629.00,0.0086
2628.00,0.0086
2627.00,0.0086
2626.00,0.0085
2625.00,0.0085
2624.00,0.0085
2623.00,0.0085
2622.00,0.0085
2621.00,0.0085
2620.00,0.0085
2619.00,0.0085
2618.00,0.0085
2617.00,0.0085
2616.00,0.0085
2615.00,0.0085
2614.00,0.0085
2613.00,0.0084
2612.00,0.0084
2611.00,0.0084
2610.00,0.0084
2609.00,0.0084
2608.00,0.0084
2607.00,0.0084
2606.00,0.0084
2605.00,0.0084
2604.00,0.0084
2603.00,0.0084
2602.00,0.0083
2601.00,0.0083
2600.00,0.0083
2599.00,0.0083
2598.00,0.0083
2597.00,0.0083
2596.00,0.0083
2595.00,0.0083
2594.00,0.0083
2593.00,0.0083
2592.00,0.0083
2591.00,0.0083
2590.00,0.0083
2589.00,0.0083
2588.00,0.0083
2587.00,0.0083
2586.00,0.0083
2585.00,0.0083
2584.00,0.0083
2583.00,0.0083
2582.00,0.0083
2581.00,0.0083
2580.00,0.0083
2579.00,0.0083
2578.00,0.0083
2577.00,0.0083
2576.00,0.0083
2575.00,0.0083
2574.00,0.0082
2573.00,0.0082
2572.00,0.0082
2571.00,0.0082
2570.00,0.0082
2569.00,0.0082
2568.00,0.0082
2567.00,0.0082
2566.00,0.0082
2565.00,0.0082
2564.00,0.0082
2563.00,0.0082
2562.00,0.0082
2561.00,0.0082
2560.00,0.0082
2559.00,0.0082
2558.00,0.0082
2557.00,0.0082
2556.00,0.0082
2555.00,0.0082
2554.00,0.0082
2553.00,0.0082
2552.00,0.0081
2551.00,0.0081
2550.00,0.0081
2549.00,0.0081
2548.00,0.0081
2547.00,0.0081
2546.00,0.0081
2545.00,0.0080
2544.00,0.0080
2543.00,0.0080
2542.00,0.0080
2541.00,0.0080
2540.00,0.0080
2539.00,0.0080
2538.00,0.0080
2537.00,0.0080
2536.00,0.0080
2535.00,0.0080
2534.00,0.0080
2533.00,0.0080
2532.00,0.0079
2531.00,0.0079
2530.00,0.0079
2529.00,0.0079
2528.00,0.0079
2527.00,0.0079
2526.00,0.0079
2525.00,0.0079
2524.00,0.0079
2523.00,0.0079
2522.00,0.0079
2521.00,0.0078
2520.00,0.0078
2519.00,0.0078
2518.00,0.0078
2517.00,0.0078
2516.00,0.0078
2515.00,0.0078
2514.00,0.0078
2513.00,0.0077
2512.00,0.0078
2511.00,0.0078
2510.00,0.0078
2509.00,0.0078
2508.00,0.0078
2507.00,0.0078
2506.00,0.0078
2505.00,0.0078
2504.00,0.0078
2503.00,0.0078
2502.00,0.0078
2501.00,0.0078
2500.00,0.0078
2499.00,0.0078
2498.00,0.0078
2497.00,0.0078
2496.00,0.0078
2495.00,0.0078
2494.00,0.0078
2493.00,0.0078
2492.00,0.0077
2491.00,0.0077
2490.00,0.0077
2489.00,0.0077
2488.00,0.0077
2487.00,0.0077
2486.00,0.0077
2485.00,0.0077
2484.00,0.0077
2483.00,0.0077
2482.00,0.0077
2481.00,0.0077
2480.00,0.0077
2479.00,0.0077
2478.00,0.0077
2477.00,0.0077
2476.00,0.0077
2475.00,0.0077
2474.00,0.0077
2473.00,0.0076
2472.00,0.0076
2471.00,0.0076
2470.00,0.0076
2469.00,0.0076
2468.00,0.0076
2467.00,0.0076
2466.00,0.0077
2465.00,0.0077
2464.00,0.0077
2463.00,0.0077
2462.00,0.0077
2461.00,0.0077
2460.00,0.0077
2459.00,0.0078
2458.00,0.0078
2457.00,0.0079
2456.00,0.0079
2455.00,0.0079
2454.00,0.0079
2453.00,0.0078
2452.00,0.0078
2451.00,0.0078
2450.00,0.0078
2449.00,0.0077
2448.00,0.0077
2447.00,0.0077
2446.00,0.0077
2445.00,0.0077
2444.00,0.0077
2443.00,0.0077
2442.00,0.0077
2441.00,0.0077
2440.00,0.0077
2439.00,0.0077
2438.00,0.0076
2437.00,0.0076
2436.00,0.0076
2435.00,0.0077
2434.00,0.0077
2433.00,0.0077
2432.00,0.0077
2431.00,0.0077
2430.00,0.0077
2429.00,0.0077
2428.00,0.0077
2427.00,0.0077
2426.00,0.0077
2425.00,0.0077
2424.00,0.0077
2423.00,0.0077
2422.00,0.0077
2421.00,0.0077
2420.00,0.0076
2419.00,0.0076
2418.00,0.0076
2417.00,0.0077
2416.00,0.0077
2415.00,0.0077
2414.00,0.0077
2413.00,0.0076
2412.00,0.0076
2411.00,0.0076
2410.00,0.0076
2409.00,0.0076
2408.00,0.0076
2407.00,0.0075
2406.00,0.0075
2405.00,0.0075
2404.00,0.0075
2403.00,0.0075
2402.00,0.0075
2401.00,0.0075
2400.00,0.0075
2399.00,0.0074
2398.00,0.0074
2397.00,0.0074
2396.00,0.0074
2395.00,0.0074
2394.00,0.0074
2393.00,0.0074
2392.00,0.0074
2391.00,0.0074
2390.00,0.0073
2389.00,0.0073
2388.00,0.0073
2387.00,0.0073
2386.00,0.0072
2385.00,0.0072
2384.00,0.0071
2383.00,0.0070
2382.00,0.0070
2381.00,0.0069
2380.00,0.0069
2379.00,0.0068
2378.00,0.0068
2377.00,0.0068
2376.00,0.0068
2375.00,0.0068
2374.00,0.0069
2373.00,0.0069
2372.00,0.0069
2371.00,0.0068
2370.00,0.0068
2369.00,0.0067
2368.00,0.0067
2367.00,0.0067
2366.00,0.0068
2365.00,0.0068
2364.00,0.0068
2363.00,0.0069
2362.00,0.0069
2361.00,0.0069
2360.00,0.0069
2359.00,0.0068
2358.00,0.0068
2357.00,0.0068
2356.00,0.0069
2355.00,0.0069
2354.00,0.0069
2353.00,0.0070
2352.00,0.0070
2351.00,0.0070
2350.00,0.0070
2349.00,0.0070
2348.00,0.0071
2347.00,0.0072
2346.00,0.0072
2345.00,0.0072
2344.00,0.0072
2343.00,0.0072
2342.00,0.0072
2341.00,0.0073
2340.00,0.0073
2339.00,0.0074
2338.00,0.0074
2337.00,0.0074
2336.00,0.0075
2335.00,0.0075
2334.00,0.0075
2333.00,0.0074
2332.00,0.0074
2331.00,0.0074
2330.00,0.0075
2329.00,0.0077
2328.00,0.0080
2327.00,0.0084
2326.00,0.0087
2325.00,0.0088
2324.00,0.0087
2323.00,0.0085
2322.00,0.0083
2321.00,0.0082
2320.00,0.0081
2319.00,0.0081
2318.00,0.0080
2317.00,0.0080
2316.00,0.0079
2315.00,0.0079
2314.00,0.0079
2313.00,0.0078
2312.00,0.0078
2311.00,0.0077
2310.00,0.0076
2309.00,0.0076
2308.00,0.0076
2307.00,0.0076
2306.00,0.0077
2305.00,0.0077
2304.00,0.0078
2303.00,0.0078
2302.00,0.0078
2301.00,0.0078
2300.00,0.0078
2299.00,0.0079
2298.00,0.0080
2297.00,0.0081
2296.00,0.0081
2295.00,0.0082
2294.00,0.0083
2293.00,0.0084
2292.00,0.0084
2291.00,0.0085
2290.00,0.0086
2289.00,0.0087
2288.00,0.0088
2287.00,0.0088
2286.00,0.0088
2285.00,0.0087
2284.00,0.0086
2283.00,0.0086
2282.00,0.0085
2281.00,0.0085
2280.00,0.0084
2279.00,0.0084
2278.00,0.0083
2277.00,0.0082
2276.00,0.0082
2275.00,0.0081
2274.00,0.0081
2273.00,0.0081
2272.00,0.0081
2271.00,0.0081
2270.00,0.0080
2269.00,0.0079
2268.00,0.0079
2267.00,0.0078
2266.00,0.0078
2265.00,0.0078
2264.00,0.0079
2263.00,0.0079
2262.00,0.0080
2261.00,0.0080
2260.00,0.0080
2259.00,0.0081
2258.00,0.0080
2257.00,0.0079
2256.00,0.0078
2255.00,0.0077
2254.00,0.0077
2253.00,0.0077
2252.00,0.0078
2251.00,0.0078
2250.00,0.0078
2249.00,0.0078
2248.00,0.0078
2247.00,0.0079
2246.00,0.0079
2245.00,0.0079
2244.00,0.0078
2243.00,0.0078
2242.00,0.0077
2241.00,0.0076
2240.00,0.0076
2239.00,0.0076
2238.00,0.0077
2237.00,0.0077
2236.00,0.0078
2235.00,0.0078
2234.00,0.0078
2233.00,0.0078
2232.00,0.0078
2231.00,0.0077
2230.00,0.0077
2229.00,0.0076
2228.00,0.0076
2227.00,0.0077
2226.00,0.0077
2225.00,0.0077
2224.00,0.0077
2223.00,0.0077
2222.00,0.0077
2221.00,0.0077
2220.00,0.0077
2219.00,0.0078
2218.00,0.0078
2217.00,0.0078
2216.00,0.0078
2215.00,0.0077
2214.00,0.0077
2213.00,0.0077
2212.00,0.0077
2211.00,0.0077
2210.00,0.0077
2209.00,0.0078
2208.00,0.0079
2207.00,0.0079
2206.00,0.0078
2205.00,0.0077
2204.00,0.0077
2203.00,0.0078
2202.00,0.0078
2201.00,0.0078
2200.00,0.0078
2199.00,0.0077
2198.00,0.0075
2197.00,0.0074
2196.00,0.0074
2195.00,0.0075
2194.00,0.0076
2193.00,0.0077
2192.00,0.0078
2191.00,0.0079
2190.00,0.0080
2189.00,0.0080
2188.00,0.0081
2187.00,0.0082
2186.00,0.0081
2185.00,0.0079
2184.00,0.0076
2183.00,0.0074
2182.00,0.0073
2181.00,0.0073
2180.00,0.0074
2179.00,0.0074
2178.00,0.0072
2177.00,0.0069
2176.00,0.0067
2175.00,0.0066
2174.00,0.0068
2173.00,0.0071
2172.00,0.0075
2171.00,0.0079
2170.00,0.0081
2169.00,0.0083
2168.00,0.0085
2167.00,0.0087
2166.00,0.0088
2165.00,0.0088
2164.00,0.0088
2163.00,0.0086
2162.00,0.0081
2161.00,0.0070
2160.00,0.0057
2159.00,0.0046
2158.00,0.0040
2157.00,0.0040
2156.00,0.0044
2155.00,0.0049
2154.00,0.0052
2153.00,0.0054
2152.00,0.0056
2151.00,0.0056
2150.00,0.0057
2149.00,0.0057
2148.00,0.0058
2147.00,0.0059
2146.00,0.0058
2145.00,0.0058
2144.00,0.0058
2143.00,0.0059
2142.00,0.0060
2141.00,0.0060
2140.00,0.0060
2139.00,0.0059
2138.00,0.0057
2137.00,0.0056
2136.00,0.0054
2135.00,0.0052
2134.00,0.0052
2133.00,0.0052
2132.00,0.0054
2131.00,0.0057
2130.00,0.0059
2129.00,0.0060
2128.00,0.0062
2127.00,0.0063
2126.00,0.0065
2125.00,0.0066
2124.00,0.0068
2123.00,0.0068
2122.00,0.0068
2121.00,0.0068
2120.00,0.0068
2119.00,0.0069
2118.00,0.0070
2117.00,0.0072
2116.00,0.0073
2115.00,0.0073
2114.00,0.0073
2113.00,0.0073
2112.00,0.0074
2111.00,0.0074
2110.00,0.0074
2109.00,0.0074
2108.00,0.0074
2107.00,0.0074
2106.00,0.0073
2105.00,0.0073
2104.00,0.0073
2103.00,0.0072
2102.00,0.0072
2101.00,0.0073
2100.00,0.0073
2099.00,0.0073
2098.00,0.0071
2097.00,0.0069
2096.00,0.0068
2095.00,0.0067
2094.00,0.0067
2093.00,0.0067
2092.00,0.0069
2091.00,0.0070
2090.00,0.0071
2089.00,0.0071
2088.00,0.0071
2087.00,0.0071
2086.00,0.0072
2085.00,0.0073
2084.00,0.0074
2083.00,0.0074
2082.00,0.0074
2081.00,0.0074
2080.00,0.0074
2079.00,0.0074
2078.00,0.0074
2077.00,0.0074
2076.00,0.0074
2075.00,0.0073
2074.00,0.0073
2073.00,0.0073
2072.00,0.0074
2071.00,0.0074
2070.00,0.0074
2069.00,0.0074
2068.00,0.0074
2067.00,0.0073
2066.00,0.0072
2065.00,0.0072
2064.00,0.0071
2063.00,0.0071
2062.00,0.0070
2061.00,0.0070
2060.00,0.0070
2059.00,0.0070
2058.00,0.0071
2057.00,0.0071
2056.00,0.0072
2055.00,0.0073
2054.00,0.0077
2053.00,0.0081
2052.00,0.0084
2051.00,0.0084
2050.00,0.0080
2049.00,0.0076
2048.00,0.0073
2047.00,0.0072
2046.00,0.0071
2045.00,0.0070
2044.00,0.0071
2043.00,0.0071
2042.00,0.0072
2041.00,0.0073
2040.00,0.0075
2039.00,0.0077
2038.00,0.0076
2037.00,0.0074
2036.00,0.0071
2035.00,0.0069
2034.00,0.0067
2033.00,0.0066
2032.00,0.0066
2031.00,0.0066
2030.00,0.0064
2029.00,0.0063
2028.00,0.0063
2027.00,0.0063
2026.00,0.0063
2025.00,0.0064
2024.00,0.0066
2023.00,0.0066
2022.00,0.0066
2021.00,0.0065
2020.00,0.0064
2019.00,0.0063
2018.00,0.0062
2017.00,0.0062
2016.00,0.0062
2015.00,0.0063
2014.00,0.0063
2013.00,0.0064
2012.00,0.0065
2011.00,0.0067
2010.00,0.0067
2009.00,0.0065
2008.00,0.0063
2007.00,0.0061
2006.00,0.0058
2005.00,0.0058
2004.00,0.0059
2003.00,0.0060
2002.00,0.0061
2001.00,0.0062
2000.00,0.0062
1999.00,0.0063
1998.00,0.0064
1997.00,0.0064
1996.00,0.0065
1995.00,0.0066
1994.00,0.0067
1993.00,0.0067
1992.00,0.0068
1991.00,0.0068
1990.00,0.0068
1989.00,0.0069
1988.00,0.0069
1987.00,0.0070
1986.00,0.0071
1985.00,0.0072
1984.00,0.0076
1983.00,0.0079
1982.00,0.0082
1981.00,0.0082
1980.00,0.0079
1979.00,0.0073
1978.00,0.0066
1977.00,0.0061
1976.00,0.0058
1975.00,0.0057
1974.00,0.0056
1973.00,0.0057
1972.00,0.0057
1971.00,0.0056
1970.00,0.0054
1969.00,0.0054
1968.00,0.0055
1967.00,0.0056
1966.00,0.0057
1965.00,0.0057
1964.00,0.0058
1963.00,0.0058
1962.00,0.0056
1961.00,0.0055
1960.00,0.0054
1959.00,0.0053
1958.00,0.0053
1957.00,0.0054
1956.00,0.0056
1955.00,0.0058
1954.00,0.0059
1953.00,0.0059
1952.00,0.0059
1951.00,0.0058
1950.00,0.0057
1949.00,0.0057
1948.00,0.0057
1947.00,0.0057
1946.00,0.0058
1945.00,0.0058
1944.00,0.0059
1943.00,0.0059
1942.00,0.0059
1941.00,0.0059
1940.00,0.0060
1939.00,0.0060
1938.00,0.0060
1937.00,0.0059
1936.00,0.0059
1935.00,0.0059
1934.00,0.0059
1933.00,0.0059
1932.00,0.0059
1931.00,0.0058
1930.00,0.0058
1929.00,0.0059
1928.00,0.0059
1927.00,0.0060
1926.00,0.0060
1925.00,0.0060
1924.00,0.0061
1923.00,0.0061
1922.00,0.0062
1921.00,0.0062
1920.00,0.0062
1919.00,0.0062
1918.00,0.0062
1917.00,0.0061
1916.00,0.0062
1915.00,0.0062
1914.00,0.0062
1913.00,0.0062
1912.00,0.0063
1911.00,0.0063
1910.00,0.0062
1909.00,0.0062
1908.00,0.0061
1907.00,0.0061
1906.00,0.0060
1905.00,0.0060
1904.00,0.0060
1903.00,0.0061
1902.00,0.0060
1901.00,0.0060
1900.00,0.0060
1899.00,0.0060
1898.00,0.0060
1897.00,0.0060
1896.00,0.0060
1895.00,0.0060
1894.00,0.0060
1893.00,0.0060
1892.00,0.0060
1891.00,0.0061
1890.00,0.0061
1889.00,0.0061
1888.00,0.0060
1887.00,0.0060
1886.00,0.0059
1885.00,0.0059
1884.00,0.0059
1883.00,0.0059
1882.00,0.0059
1881.00,0.0060
1880.00,0.0060
1879.00,0.0060
1878.00,0.0060
1877.00,0.0060
1876.00,0.0060
1875.00,0.0060
1874.00,0.0060
1873.00,0.0060
1872.00,0.0060
1871.00,0.0059
1870.00,0.0059
1869.00,0.0059
1868.00,0.0060
1867.00,0.0060
1866.00,0.0060
1865.00,0.0061
1864.00,0.0061
1863.00,0.0061
1862.00,0.0061
1861.00,0.0060
1860.00,0.0060
1859.00,0.0060
1858.00,0.0060
1857.00,0.0059
1856.00,0.0060
1855.00,0.0060
1854.00,0.0060
1853.00,0.0059
1852.00,0.0059
1851.00,0.0059
1850.00,0.0059
1849.00,0.0059
1848.00,0.0060
1847.00,0.0061
1846.00,0.0061
1845.00,0.0061
1844.00,0.0060
1843.00,0.0059
1842.00,0.0059
1841.00,0.0059
1840.00,0.0059
1839.00,0.0059
1838.00,0.0059
1837.00,0.0059
1836.00,0.0059
1835.00,0.0059
1834.00,0.0059
1833.00,0.0059
1832.00,0.0059
1831.00,0.0060
1830.00,0.0059
1829.00,0.0059
1828.00,0.0059
1827.00,0.0059
1826.00,0.0059
1825.00,0.0059
1824.00,0.0059
1823.00,0.0059
1822.00,0.0059
1821.00,0.0058
1820.00,0.0057
1819.00,0.0056
1818.00,0.0056
1817.00,0.0055
1816.00,0.0056
1815.00,0.0057
1814.00,0.0057
1813.00,0.0058
1812.00,0.0058
1811.00,0.0058
1810.00,0.0059
1809.00,0.0059
1808.00,0.0059
1807.00,0.0059
1806.00,0.0059
1805.00,0.0059
1804.00,0.0060
1803.00,0.0060
1802.00,0.0060
1801.00,0.0060
1800.00,0.0060
1799.00,0.0060
1798.00,0.0059
1797.00,0.0060
1796.00,0.0060
1795.00,0.0060
1794.00,0.0061
1793.00,0.0061
1792.00,0.0062
1791.00,0.0062
1790.00,0.0062
1789.00,0.0062
1788.00,0.0062
1787.00,0.0063
1786.00,0.0063
1785.00,0.0064
1784.00,0.0065
1783.00,0.0066
1782.00,0.0066
1781.00,0.0067
1780.00,0.0068
1779.00,0.0068
1778.00,0.0069
1777.00,0.0069
1776.00,0.0070
1775.00,0.0071
1774.00,0.0072
1773.00,0.0073
1772.00,0.0073
1771.00,0.0074
1770.00,0.0073
1769.00,0.0073
1768.00,0.0074
1767.00,0.0074
1766.00,0.0073
1765.00,0.0073
1764.00,0.0073
1763.00,0.0073
1762.00,0.0072
1761.00,0.0071
1760.00,0.0071
1759.00,0.0072
1758.00,0.0071
1757.00,0.0071
1756.00,0.0072
1755.00,0.0072
1754.00,0.0072
1753.00,0.0073
1752.00,0.0073
1751.00,0.0074
1750.00,0.0075
1749.00,0.0076
1748.00,0.0077
1747.00,0.0078
1746.00,0.0079
1745.00,0.0079
1744.00,0.0081
1743.00,0.0082
1742.00,0.0082
1741.00,0.0083
1740.00,0.0084
1739.00,0.0085
1738.00,0.0086
1737.00,0.0087
1736.00,0.0089
1735.00,0.0091
1734.00,0.0093
1733.00,0.0094
1732.00,0.0096
1731.00,0.0097
1730.00,0.0099
1729.00,0.0101
1728.00,0.0103
1727.00,0.0106
1726.00,0.0108
1725.00,0.0111
1724.00,0.0115
1723.00,0.0119
1722.00,0.0123
1721.00,0.0127
1720.00,0.0132
1719.00,0.0139
1718.00,0.0145
1717.00,0.0152
1716.00,0.0160
1715.00,0.0167
1714.00,0.0174
1713.00,0.0183
1712.00,0.0193
1711.00,0.0204
1710.00,0.0216
1709.00,0.0229
1708.00,0.0243
1707.00,0.0260
1706.00,0.0278
1705.00,0.0299
1704.00,0.0319
1703.00,0.0339
1702.00,0.0360
1701.00,0.0387
1700.00,0.0422
1699.00,0.0455
1698.00,0.0483
1697.00,0.0513
1696.00,0.0550
1695.00,0.0590
1694.00,0.0626
1693.00,0.0660
1692.00,0.0695
1691.00,0.0733
1690.00,0.0773
1689.00,0.0813
1688.00,0.0852
1687.00,0.0889
1686.00,0.0925
1685.00,0.0966
1684.00,0.1012
1683.00,0.1054
1682.00,0.1089
1681.00,0.1121
1680.00,0.1154
1679.00,0.1186
1678.00,0.1216
1677.00,0.1243
1676.00,0.1270
1675.00,0.1294
1674.00,0.1315
1673.00,0.1335
1672.00,0.1353
1671.00,0.1367
1670.00,0.1376
1669.00,0.1380
1668.00,0.1383
1667.00,0.1386
1666.00,0.1387
1665.00,0.1386
1664.00,0.1379
1663.00,0.1366
1662.00,0.1349
1661.00,0.1332
1660.00,0.1315
1659.00,0.1299
1658.00,0.1281
1657.00,0.1264
1656.00,0.1248
1655.00,0.1227
1654.00,0.1190
1653.00,0.1138
1652.00,0.1091
1651.00,0.1062
1650.00,0.1040
1649.00,0.1016
1648.00,0.0982
1647.00,0.0940
1646.00,0.0898
1645.00,0.0861
1644.00,0.0830
1643.00,0.0803
1642.00,0.0775
1641.00,0.0748
1640.00,0.0722
1639.00,0.0698
1638.00,0.0676
1637.00,0.0652
1636.00,0.0626
1635.00,0.0601
1634.00,0.0580
1633.00,0.0564
1632.00,0.0548
1631.00,0.0533
1630.00,0.0517
1629.00,0.0501
1628.00,0.0485
1627.00,0.0470
1626.00,0.0457
1625.00,0.0444
1624.00,0.0430
1623.00,0.0416
1622.00,0.0404
1621.00,0.0394
1620.00,0.0384
1619.00,0.0375
1618.00,0.0365
1617.00,0.0355
1616.00,0.0344
1615.00,0.0336
1614.00,0.0328
1613.00,0.0321
1612.00,0.0314
1611.00,0.0307
1610.00,0.0300
1609.00,0.0294
1608.00,0.0288
1607.00,0.0281
1606.00,0.0276
1605.00,0.0271
1604.00,0.0266
1603.00,0.0261
1602.00,0.0257
1601.00,0.0253
1600.00,0.0248
1599.00,0.0243
1598.00,0.0239
1597.00,0.0235
1596.00,0.0232
1595.00,0.0228
1594.00,0.0225
1593.00,0.0222
1592.00,0.0218
1591.00,0.0215
1590.00,0.0212
1589.00,0.0210
1588.00,0.0207
1587.00,0.0204
1586.00,0.0202
1585.00,0.0199
1584.00,0.0196
1583.00,0.0193
1582.00,0.0191
1581.00,0.0189
1580.00,0.0187
1579.00,0.0185
1578.00,0.0184
1577.00,0.0182
1576.00,0.0180
1575.00,0.0178
1574.00,0.0176
1573.00,0.0175
1572.00,0.0173
1571.00,0.0171
1570.00,0.0170
1569.00,0.0168
1568.00,0.0167
1567.00,0.0166
1566.00,0.0165
1565.00,0.0165
1564.00,0.0164
1563.00,0.0163
1562.00,0.0162
1561.00,0.0162
1560.00,0.0160
1559.00,0.0159
1558.00,0.0159
1557.00,0.0158
1556.00,0.0158
1555.00,0.0157
1554.00,0.0156
1553.00,0.0156
1552.00,0.0155
1551.00,0.0154
1550.00,0.0154
1549.00,0.0153
1548.00,0.0153
1547.00,0.0152
1546.00,0.0152
1545.00,0.0151
1544.00,0.0151
1543.00,0.0150
1542.00,0.0150
1541.00,0.0150
1540.00,0.0149
1539.00,0.0149
1538.00,0.0148
1537.00,0.0148
1536.00,0.0148
1535.00,0.0147
1534.00,0.0146
1533.00,0.0146
1532.00,0.0146
1531.00,0.0145
1530.00,0.0144
1529.00,0.0144
1528.00,0.0144
1527.00,0.0144
1526.00,0.0143
1525.00,0.0143
1524.00,0.0143
1523.00,0.0142
1522.00,0.0142
1521.00,0.0142
1520.00,0.0142
1519.00,0.0141
1518.00,0.0141
1517.00,0.0141
1516.00,0.0141
1515.00,0.0141
1514.00,0.0142
1513.00,0.0143
1512.00,0.0144
1511.00,0.0146
1510.00,0.0148
1509.00,0.0151
1508.00,0.0155
1507.00,0.0160
1506.00,0.0166
1505.00,0.0173
1504.00,0.0179
1503.00,0.0187
1502.00,0.0195
1501.00,0.0205
1500.00,0.0216
1499.00,0.0227
1498.00,0.0239
1497.00,0.0250
1496.00,0.0260
1495.00,0.0269
1494.00,0.0274
1493.00,0.0278
1492.00,0.0279
1491.00,0.0277
1490.00,0.0273
1489.00,0.0266
1488.00,0.0257
1487.00,0.0247
1486.00,0.0236
1485.00,0.0226
1484.00,0.0217
1483.00,0.0208
1482.00,0.0200
1481.00,0.0193
1480.00,0.0188
1479.00,0.0185
1478.00,0.0183
1477.00,0.0183
1476.00,0.0185
1475.00,0.0189
1474.00,0.0195
1473.00,0.0205
1472.00,0.0219
1471.00,0.0234
1470.00,0.0250
1469.00,0.0269
1468.00,0.0290
1467.00,0.0314
1466.00,0.0341
1465.00,0.0371
1464.00,0.0400
1463.00,0.0425
1462.00,0.0443
1461.00,0.0456
1460.00,0.0465
1459.00,0.0467
1458.00,0.0460
1457.00,0.0444
1456.00,0.0424
1455.00,0.0407
1454.00,0.0392
1453.00,0.0380
1452.00,0.0369
1451.00,0.0360
1450.00,0.0354
1449.00,0.0352
1448.00,0.0353
1447.00,0.0356
1446.00,0.0363
1445.00,0.0373
1444.00,0.0385
1443.00,0.0400
1442.00,0.0418
1441.00,0.0438
1440.00,0.0460
1439.00,0.0482
1438.00,0.0507
1437.00,0.0535
1436.00,0.0564
1435.00,0.0588
1434.00,0.0609
1433.00,0.0628
1432.00,0.0645
1431.00,0.0662
1430.00,0.0680
1429.00,0.0699
1428.00,0.0720
1427.00,0.0743
1426.00,0.0769
1425.00,0.0797
1424.00,0.0826
1423.00,0.0850
1422.00,0.0868
1421.00,0.0880
1420.00,0.0880
1419.00,0.0867
1418.00,0.0844
1417.00,0.0815
1416.00,0.0780
1415.00,0.0741
1414.00,0.0699
1413.00,0.0656
1412.00,0.0613
1411.00,0.0572
1410.00,0.0535
1409.00,0.0502
1408.00,0.0473
1407.00,0.0448
1406.00,0.0425
1405.00,0.0404
1404.00,0.0386
1403.00,0.0371
1402.00,0.0359
1401.00,0.0348
1400.00,0.0338
1399.00,0.0329
1398.00,0.0321
1397.00,0.0316
1396.00,0.0310
1395.00,0.0306
1394.00,0.0302
1393.00,0.0300
1392.00,0.0298
1391.00,0.0298
1390.00,0.0299
1389.00,0.0301
1388.00,0.0304
1387.00,0.0308
1386.00,0.0313
1385.00,0.0319
1384.00,0.0325
1383.00,0.0332
1382.00,0.0340
1381.00,0.0349
1380.00,0.0357
1379.00,0.0366
1378.00,0.0374
1377.00,0.0382
1376.00,0.0389
1375.00,0.0395
1374.00,0.0400
1373.00,0.0403
1372.00,0.0404
1371.00,0.0403
1370.00,0.0402
1369.00,0.0400
1368.00,0.0396
1367.00,0.0392
1366.00,0.0386
1365.00,0.0380
1364.00,0.0372
1363.00,0.0363
1362.00,0.0353
1361.00,0.0343
1360.00,0.0334
1359.00,0.0325
1358.00,0.0317
1357.00,0.0309
1356.00,0.0301
1355.00,0.0294
1354.00,0.0288
1353.00,0.0282
1352.00,0.0276
1351.00,0.0271
1350.00,0.0267
1349.00,0.0262
1348.00,0.0258
1347.00,0.0254
1346.00,0.0250
1345.00,0.0247
1344.00,0.0244
1343.00,0.0241
1342.00,0.0239
1341.00,0.0238
1340.00,0.0237
1339.00,0.0236
1338.00,0.0236
1337.00,0.0236
1336.00,0.0236
1335.00,0.0237
1334.00,0.0238
1333.00,0.0240
1332.00,0.0242
1331.00,0.0244
1330.00,0.0248
1329.00,0.0252
1328.00,0.0257
1327.00,0.0263
1326.00,0.0270
1325.00,0.0278
1324.00,0.0287
1323.00,0.0297
1322.00,0.0307
1321.00,0.0317
1320.00,0.0327
1319.00,0.0336
1318.00,0.0344
1317.00,0.0351
1316.00,0.0355
1315.00,0.0358
1314.00,0.0358
1313.00,0.0357
1312.00,0.0353
1311.00,0.0348
1310.00,0.0342
1309.00,0.0337
1308.00,0.0333
1307.00,0.0329
1306.00,0.0327
1305.00,0.0327
1304.00,0.0329
1303.00,0.0333
1302.00,0.0340
1301.00,0.0350
1300.00,0.0363
1299.00,0.0380
1298.00,0.0401
1297.00,0.0427
1296.00,0.0459
1295.00,0.0495
1294.00,0.0537
1293.00,0.0583
1292.00,0.0632
1291.00,0.0684
1290.00,0.0735
1289.00,0.0785
1288.00,0.0830
1287.00,0.0869
1286.00,0.0899
1285.00,0.0921
1284.00,0.0932
1283.00,0.0934
1282.00,0.0927
1281.00,0.0915
1280.00,0.0900
1279.00,0.0886
1278.00,0.0874
1277.00,0.0868
1276.00,0.0868
1275.00,0.0873
1274.00,0.0882
1273.00,0.0894
1272.00,0.0907
1271.00,0.0918
1270.00,0.0925
1269.00,0.0929
1268.00,0.0927
1267.00,0.0919
1266.00,0.0906
1265.00,0.0888
1264.00,0.0866
1263.00,0.0841
1262.00,0.0814
1261.00,0.0785
1260.00,0.0756
1259.00,0.0728
1258.00,0.0701
1257.00,0.0676
1256.00,0.0652
1255.00,0.0630
1254.00,0.0610
1253.00,0.0593
1252.00,0.0577
1251.00,0.0562
1250.00,0.0549
1249.00,0.0538
1248.00,0.0528
1247.00,0.0520
1246.00,0.0513
1245.00,0.0507
1244.00,0.0503
1243.00,0.0499
1242.00,0.0497
1241.00,0.0497
1240.00,0.0497
1239.00,0.0498
1238.00,0.0500
1237.00,0.0503
1236.00,0.0507
1235.00,0.0511
1234.00,0.0515
1233.00,0.0520
1232.00,0.0524
1231.00,0.0528
1230.00,0.0531
1229.00,0.0534
1228.00,0.0535
1227.00,0.0536
1226.00,0.0535
1225.00,0.0534
1224.00,0.0531
1223.00,0.0528
1222.00,0.0524
1221.00,0.0519
1220.00,0.0514
1219.00,0.0508
1218.00,0.0502
1217.00,0.0495
1216.00,0.0488
1215.00,0.0481
1214.00,0.0474
1213.00,0.0466
1212.00,0.0459
1211.00,0.0452
1210.00,0.0445
1209.00,0.0439
1208.00,0.0433
1207.00,0.0428
1206.00,0.0423
1205.00,0.0418
1204.00,0.0413
1203.00,0.0409
1202.00,0.0405
1201.00,0.0402
1200.00,0.0399
1199.00,0.0396
1198.00,0.0392
1197.00,0.0390
1196.00,0.0387
1195.00,0.0384
1194.00,0.0381
1193.00,0.0379
1192.00,0.0377
1191.00,0.0375
1190.00,0.0373
1189.00,0.0371
1188.00,0.0370
1187.00,0.0369
1186.00,0.0368
1185.00,0.0368
1184.00,0.0368
1183.00,0.0368
1182.00,0.0368
1181.00,0.0369
1180.00,0.0370
1179.00,0.0371
1178.00,0.0373
1177.00,0.0376
1176.00,0.0379
1175.00,0.0382
1174.00,0.0386
1173.00,0.0391
1172.00,0.0395
1171.00,0.0399
1170.00,0.0403
1169.00,0.0406
1168.00,0.0408
1167.00,0.0409
1166.00,0.0409
1165.00,0.0407
1164.00,0.0405
1163.00,0.0401
1162.00,0.0397
1161.00,0.0393
1160.00,0.0387
1159.00,0.0381
1158.00,0.0375
1157.00,0.0369
1156.00,0.0363
1155.00,0.0357
1154.00,0.0351
1153.00,0.0346
1152.00,0.0340
1151.00,0.0335
1150.00,0.0329
1149.00,0.0324
1148.00,0.0319
1147.00,0.0313
1146.00,0.0308
1145.00,0.0304
1144.00,0.0299
1143.00,0.0294
1142.00,0.0289
1141.00,0.0285
1140.00,0.0281
1139.00,0.0278
1138.00,0.0275
1137.00,0.0272
1136.00,0.0270
1135.00,0.0268
1134.00,0.0266
1133.00,0.0266
1132.00,0.0265
1131.00,0.0265
1130.00,0.0265
1129.00,0.0266
1128.00,0.0266
1127.00,0.0266
1126.00,0.0267
1125.00,0.0267
1124.00,0.0268
1123.00,0.0269
1122.00,0.0270
1121.00,0.0270
1120.00,0.0271
1119.00,0.0271
1118.00,0.0272
1117.00,0.0273
1116.00,0.0273
1115.00,0.0273
1114.00,0.0274
1113.00,0.0274
1112.00,0.0274
1111.00,0.0273
1110.00,0.0274
1109.00,0.0274
1108.00,0.0273
1107.00,0.0273
1106.00,0.0272
1105.00,0.0272
1104.00,0.0272
1103.00,0.0272
1102.00,0.0272
1101.00,0.0272
1100.00,0.0271
1099.00,0.0271
1098.00,0.0271
1097.00,0.0271
1096.00,0.0271
1095.00,0.0270
1094.00,0.0270
1093.00,0.0270
1092.00,0.0269
1091.00,0.0269
1090.00,0.0268
1089.00,0.0269
1088.00,0.0269
1087.00,0.0269
1086.00,0.0269
1085.00,0.0268
1084.00,0.0268
1083.00,0.0268
1082.00,0.0269
1081.00,0.0270
1080.00,0.0272
1079.00,0.0274
1078.00,0.0276
1077.00,0.0278
1076.00,0.0280
1075.00,0.0282
1074.00,0.0282
1073.00,0.0282
1072.00,0.0281
1071.00,0.0279
1070.00,0.0277
1069.00,0.0274
1068.00,0.0272
1067.00,0.0269
1066.00,0.0266
1065.00,0.0264
1064.00,0.0262
1063.00,0.0260
1062.00,0.0258
1061.00,0.0257
1060.00,0.0255
1059.00,0.0254
1058.00,0.0253
1057.00,0.0253
1056.00,0.0252
1055.00,0.0251
1054.00,0.0250
1053.00,0.0249
1052.00,0.0248
1051.00,0.0248
1050.00,0.0248
1049.00,0.0248
1048.00,0.0247
1047.00,0.0247
1046.00,0.0247
1045.00,0.0248
1044.00,0.0248
1043.00,0.0248
1042.00,0.0247
1041.00,0.0247
1040.00,0.0246
1039.00,0.0246
1038.00,0.0247
1037.00,0.0247
1036.00,0.0248
1035.00,0.0248
1034.00,0.0249
1033.00,0.0250
1032.00,0.0251
1031.00,0.0252
1030.00,0.0253
1029.00,0.0256
1028.00,0.0258
1027.00,0.0260
1026.00,0.0263
1025.00,0.0267
1024.00,0.0270
1023.00,0.0275
1022.00,0.0279
1021.00,0.0284
1020.00,0.0288
1019.00,0.0291
1018.00,0.0293
1017.00,0.0294
1016.00,0.0292
1015.00,0.0290
1014.00,0.0286
1013.00,0.0282
1012.00,0.0277
1011.00,0.0272
1010.00,0.0268
1009.00,0.0264
1008.00,0.0261
1007.00,0.0259
1006.00,0.0259
1005.00,0.0260
1004.00,0.0262
1003.00,0.0263
1002.00,0.0265
1001.00,0.0266
1000.00,0.0266
999.00,0.0264
998.00,0.0262
997.00,0.0260
996.00,0.0257
995.00,0.0253
994.00,0.0250
993.00,0.0247
992.00,0.0243
991.00,0.0241
990.00,0.0238
989.00,0.0236
988.00,0.0234
987.00,0.0232
986.00,0.0230
985.00,0.0229
984.00,0.0228
983.00,0.0226
982.00,0.0225
981.00,0.0224
980.00,0.0223
979.00,0.0222
978.00,0.0220
977.00,0.0219
976.00,0.0218
975.00,0.0217
974.00,0.0216
973.00,0.0216
972.00,0.0215
971.00,0.0214
970.00,0.0214
969.00,0.0213
968.00,0.0212
967.00,0.0211
966.00,0.0210
965.00,0.0209
964.00,0.0208
963.00,0.0207
962.00,0.0205
961.00,0.0204
960.00,0.0203
959.00,0.0202
958.00,0.0201
957.00,0.0200
956.00,0.0199
955.00,0.0198
954.00,0.0197
953.00,0.0196
952.00,0.0196
951.00,0.0195
950.00,0.0195
949.00,0.0195
948.00,0.0195
947.00,0.0195
946.00,0.0195
945.00,0.0196
944.00,0.0196
943.00,0.0197
942.00,0.0199
941.00,0.0202
940.00,0.0205
939.00,0.0209
938.00,0.0214
937.00,0.0219
936.00,0.0224
935.00,0.0230
934.00,0.0235
933.00,0.0238
932.00,0.0240
931.00,0.0239
930.00,0.0238
929.00,0.0235
928.00,0.0232
927.00,0.0229
926.00,0.0227
925.00,0.0225
924.00,0.0224
923.00,0.0221
922.00,0.0219
921.00,0.0217
920.00,0.0215
919.00,0.0213
918.00,0.0212
917.00,0.0211
916.00,0.0210
915.00,0.0209
914.00,0.0208
913.00,0.0208
912.00,0.0208
911.00,0.0208
910.00,0.0208
909.00,0.0209
908.00,0.0210
907.00,0.0211
906.00,0.0212
905.00,0.0215
904.00,0.0217
903.00,0.0220
902.00,0.0222
901.00,0.0225
900.00,0.0228
899.00,0.0231
898.00,0.0233
897.00,0.0235
896.00,0.0237
895.00,0.0237
894.00,0.0237
893.00,0.0237
892.00,0.0236
891.00,0.0234
890.00,0.0232
889.00,0.0229
888.00,0.0226
887.00,0.0224
886.00,0.0222
885.00,0.0220
884.00,0.0218
883.00,0.0216
882.00,0.0214
881.00,0.0213
880.00,0.0211
879.00,0.0210
878.00,0.0209
877.00,0.0209
876.00,0.0208
875.00,0.0208
874.00,0.0208
873.00,0.0208
872.00,0.0208
871.00,0.0209
870.00,0.0209
869.00,0.0210
868.00,0.0211
867.00,0.0213
866.00,0.0214
865.00,0.0216
864.00,0.0219
863.00,0.0222
862.00,0.0226
861.00,0.0230
860.00,0.0235
859.00,0.0240
858.00,0.0245
857.00,0.0251
856.00,0.0258
855.00,0.0265
854.00,0.0272
853.00,0.0280
852.00,0.0288
851.00,0.0294
850.00,0.0301
849.00,0.0308
848.00,0.0314
847.00,0.0319
846.00,0.0323
845.00,0.0326
844.00,0.0327
843.00,0.0326
842.00,0.0325
841.00,0.0323
840.00,0.0319
839.00,0.0315
838.00,0.0311
837.00,0.0307
836.00,0.0303
835.00,0.0299
834.00,0.0294
833.00,0.0289
832.00,0.0284
831.00,0.0279
830.00,0.0275
829.00,0.0271
828.00,0.0268
827.00,0.0264
826.00,0.0261
825.00,0.0258
824.00,0.0255
823.00,0.0252
822.00,0.0249
821.00,0.0247
820.00,0.0244
819.00,0.0241
818.00,0.0237
817.00,0.0235
816.00,0.0232
815.00,0.0230
814.00,0.0229
813.00,0.0227
812.00,0.0226
811.00,0.0224
810.00,0.0223
809.00,0.0222
808.00,0.0222
807.00,0.0221
806.00,0.0220
805.00,0.0220
804.00,0.0219
803.00,0.0219
802.00,0.0218
801.00,0.0217
800.00,0.0215
799.00,0.0213
798.00,0.0211
797.00,0.0209
796.00,0.0206
795.00,0.0204
794.00,0.0203
793.00,0.0201
792.00,0.0200
791.00,0.0200
790.00,0.0199
789.00,0.0199
788.00,0.0198
787.00,0.0197
786.00,0.0197
785.00,0.0198
784.00,0.0198
783.00,0.0198
782.00,0.0198
781.00,0.0198
780.00,0.0198
779.00,0.0198
778.00,0.0198
777.00,0.0199
776.00,0.0200
775.00,0.0201
774.00,0.0202
773.00,0.0202
772.00,0.0202
771.00,0.0203
770.00,0.0204
769.00,0.0206
768.00,0.0208
767.00,0.0209
766.00,0.0211
765.00,0.0213
764.00,0.0215
763.00,0.0216
762.00,0.0218
761.00,0.0220
760.00,0.0222
759.00,0.0224
758.00,0.0227
757.00,0.0230
756.00,0.0232
755.00,0.0235
754.00,0.0239
753.00,0.0242
752.00,0.0246
751.00,0.0249
750.00,0.0252
749.00,0.0256
748.00,0.0258
747.00,0.0261
746.00,0.0263
745.00,0.0266
744.00,0.0269
743.00,0.0272
742.00,0.0275
741.00,0.0278
740.00,0.0282
739.00,0.0285
738.00,0.0288
737.00,0.0292
736.00,0.0295
735.00,0.0297
734.00,0.0299
733.00,0.0299
732.00,0.0298
731.00,0.0296
730.00,0.0294
729.00,0.0291
728.00,0.0286
727.00,0.0281
726.00,0.0276
725.00,0.0271
724.00,0.0266
723.00,0.0262
722.00,0.0258
721.00,0.0254
720.00,0.0251
719.00,0.0248
718.00,0.0246
717.00,0.0244
716.00,0.0242
715.00,0.0241
714.00,0.0240
713.00,0.0239
712.00,0.0238
711.00,0.0237
710.00,0.0237
709.00,0.0236
708.00,0.0236
707.00,0.0236
706.00,0.0236
705.00,0.0236
704.00,0.0236
703.00,0.0236
702.00,0.0237
701.00,0.0238
700.00,0.0239
699.00,0.0241
698.00,0.0243
697.00,0.0245
696.00,0.0247
695.00,0.0249
694.00,0.0251
693.00,0.0253
692.00,0.0255
691.00,0.0257
690.00,0.0260
689.00,0.0262
688.00,0.0264
687.00,0.0266
686.00,0.0269
685.00,0.0271
684.00,0.0274
683.00,0.0278
682.00,0.0282
681.00,0.0285
680.00,0.0289
679.00,0.0293
678.00,0.0298
677.00,0.0303
676.00,0.0308
675.00,0.0312
674.00,0.0316
673.00,0.0320
672.00,0.0324
671.00,0.0330
670.00,0.0336
669.00,0.0343
668.00,0.0350
667.00,0.0358
666.00,0.0365
665.00,0.0372
664.00,0.0378
663.00,0.0384
662.00,0.0391
661.00,0.0398
660.00,0.0406
659.00,0.0414
658.00,0.0422
657.00,0.0430
656.00,0.0438
655.00,0.0445
654.00,0.0452
653.00,0.0459
652.00,0.0466
651.00,0.0472
650.00,0.0476
649.00,0.0479
648.00,0.0479
647.00,0.0479
646.00,0.0477
645.00,0.0474
644.00,0.0470
643.00,0.0464
642.00,0.0458
641.00,0.0451
640.00,0.0445
639.00,0.0437
638.00,0.0430
637.00,0.0423
636.00,0.0416
635.00,0.0410
634.00,0.0405
633.00,0.0400
632.00,0.0394
631.00,0.0388
630.00,0.0382
629.00,0.0378
628.00,0.0374
627.00,0.0371
626.00,0.0368
625.00,0.0365
624.00,0.0362
623.00,0.0359
622.00,0.0356
621.00,0.0354
620.00,0.0352
619.00,0.0351
618.00,0.0349
617.00,0.0348
616.00,0.0347
615.00,0.0346
614.00,0.0346
613.00,0.0345
612.00,0.0345
611.00,0.0344
610.00,0.0344
609.00,0.0344
608.00,0.0344
607.00,0.0344
606.00,0.0346
605.00,0.0348
604.00,0.0350
603.00,0.0351
602.00,0.0353
601.00,0.0355
600.00,0.0356
599.00,0.0358
598.00,0.0359
597.00,0.0361
596.00,0.0363
595.00,0.0366
594.00,0.0369
593.00,0.0372
592.00,0.0376
591.00,0.0380
590.00,0.0386
589.00,0.0391
588.00,0.0396
587.00,0.0402
586.00,0.0409
585.00,0.0417
584.00,0.0426
583.00,0.0434
582.00,0.0443
581.00,0.0452
580.00,0.0462
579.00,0.0471
578.00,0.0479
577.00,0.0486
576.00,0.0492
575.00,0.0497
574.00,0.0501
573.00,0.0506
572.00,0.0509
571.00,0.0512
570.00,0.0513
569.00,0.0514
568.00,0.0513
567.00,0.0510
566.00,0.0505
565.00,0.0498
564.00,0.0490
563.00,0.0482
562.00,0.0475
561.00,0.0469
560.00,0.0463
559.00,0.0457
558.00,0.0452
557.00,0.0446
556.00,0.0439
555.00,0.0433
554.00,0.0428
553.00,0.0425
552.00,0.0422
551.00,0.0420
550.00,0.0417
549.00,0.0415
548.00,0.0412
547.00,0.0410
546.00,0.0406
545.00,0.0401
544.00,0.0397
543.00,0.0394
542.00,0.0393
541.00,0.0393
540.00,0.0393
539.00,0.0392
538.00,0.0389
537.00,0.0387
536.00,0.0384
535.00,0.0382
534.00,0.0381
533.00,0.0381
532.00,0.0381
531.00,0.0382
530.00,0.0383
529.00,0.0383
528.00,0.0382
527.00,0.0381
526.00,0.0381
525.00,0.0381
524.00,0.0380
523.00,0.0380
522.00,0.0380
521.00,0.0381
520.00,0.0380
519.00,0.0379
518.00,0.0379
517.00,0.0380
516.00,0.0380
515.00,0.0379
514.00,0.0378
513.00,0.0378
512.00,0.0379
511.00,0.0381
510.00,0.0383
509.00,0.0383
508.00,0.0384
507.00,0.0386
506.00,0.0388
505.00,0.0389
504.00,0.0390
503.00,0.0390
502.00,0.0392
501.00,0.0393
500.00,0.0393
499.00,0.0393
498.00,0.0394
497.00,0.0396
496.00,0.0397
495.00,0.0396
494.00,0.0396
493.00,0.0397
492.00,0.0399
491.00,0.0401
490.00,0.0403
489.00,0.0403
488.00,0.0402
487.00,0.0402
486.00,0.0403
485.00,0.0405
484.00,0.0408
483.00,0.0412
482.00,0.0416
481.00,0.0419
480.00,0.0420
479.00,0.0421
478.00,0.0421
477.00,0.0421
476.00,0.0420
475.00,0.0419
474.00,0.0421
473.00,0.0423
472.00,0.0427
471.00,0.0430
470.00,0.0434
469.00,0.0437
468.00,0.0438
467.00,0.0436
466.00,0.0434
465.00,0.0433
464.00,0.0432
463.00,0.0433
462.00,0.0436
461.00,0.0439
460.00,0.0439
459.00,0.0439
458.00,0.0439
457.00,0.0441
456.00,0.0441
455.00,0.0437
454.00,0.0432
453.00,0.0428
452.00,0.0427
451.00,0.0428
450.00,0.0429
449.00,0.0427
448.00,0.0423
447.00,0.0418
446.00,0.0414
445.00,0.0414
444.00,0.0414
443.00,0.0415
442.00,0.0415
441.00,0.0414
440.00,0.0412
439.00,0.0412
438.00,0.0413
437.00,0.0414
436.00,0.0412
435.00,0.0410
434.00,0.0409
433.00,0.0408
432.00,0.0406
431.00,0.0403
430.00,0.0402
429.00,0.0402
428.00,0.0403
427.00,0.0405
426.00,0.0406
425.00,0.0405
424.00,0.0402
423.00,0.0399
422.00,0.0399
421.00,0.0403
420.00,0.0409
419.00,0.0414
418.00,0.0412
417.00,0.0403
416.00,0.0396
415.00,0.0394
414.00,0.0398
413.00,0.0402
412.00,0.0400
411.00,0.0395
410.00,0.0394
409.00,0.0399
408.00,0.0405
407.00,0.0405
406.00,0.0400
405.00,0.0391
404.00,0.0381
403.00,0.0374
402.00,0.0369
401.00,0.0368
400.00,0.0368
