Created as New Dataset,Sample 022 By YargerLab Date Thursday, August 07 2025
cm-1,A
4000.00,0.0018
3999.00,0.0018
3998.00,0.0018
3997.00,0.0017
3996.00,0.0017
3995.00,0.0017
3994.00,0.0017
3993.00,0.0018
3992.00,0.0018
3991.00,0.0018
3990.00,0.0018
3989.00,0.0018
3988.00,0.0017
3987.00,0.0017
3986.00,0.0017
3985.00,0.0017
3984.00,0.0017
3983.00,0.0017
3982.00,0.0017
3981.00,0.0017
3980.00,0.0017
3979.00,0.0017
3978.00,0.0017
3977.00,0.0017
3976.00,0.0018
3975.00,0.0018
3974.00,0.0018
3973.00,0.0018
3972.00,0.0018
3971.00,0.0018
3970.00,0.0018
3969.00,0.0018
3968.00,0.0018
3967.00,0.0018
3966.00,0.0018
3965.00,0.0017
3964.00,0.0017
3963.00,0.0017
3962.00,0.0017
3961.00,0.0017
3960.00,0.0017
3959.00,0.0017
3958.00,0.0017
3957.00,0.0017
3956.00,0.0017
3955.00,0.0017
3954.00,0.0017
3953.00,0.0017
3952.00,0.0017
3951.00,0.0017
3950.00,0.0017
3949.00,0.0017
3948.00,0.0017
3947.00,0.0017
3946.00,0.0017
3945.00,0.0017
3944.00,0.0017
3943.00,0.0017
3942.00,0.0017
3941.00,0.0017
3940.00,0.0017
3939.00,0.0017
3938.00,0.0017
3937.00,0.0017
3936.00,0.0017
3935.00,0.0017
3934.00,0.0016
3933.00,0.0016
3932.00,0.0016
3931.00,0.0017
3930.00,0.0017
3929.00,0.0017
3928.00,0.0017
3927.00,0.0018
3926.00,0.0018
3925.00,0.0018
3924.00,0.0018
3923.00,0.0018
3922.00,0.0017
3921.00,0.0017
3920.00,0.0017
3919.00,0.0017
3918.00,0.0017
3917.00,0.0017
3916.00,0.0017
3915.00,0.0017
3914.00,0.0017
3913.00,0.0017
3912.00,0.0017
3911.00,0.0017
3910.00,0.0017
3909.00,0.0018
3908.00,0.0018
3907.00,0.0018
3906.00,0.0017
3905.00,0.0017
3904.00,0.0016
3903.00,0.0016
3902.00,0.0015
3901.00,0.0015
3900.00,0.0015
3899.00,0.0015
3898.00,0.0016
3897.00,0.0016
3896.00,0.0017
3895.00,0.0017
3894.00,0.0017
3893.00,0.0017
3892.00,0.0017
3891.00,0.0017
3890.00,0.0017
3889.00,0.0017
3888.00,0.0017
3887.00,0.0017
3886.00,0.0017
3885.00,0.0017
3884.00,0.0017
3883.00,0.0017
3882.00,0.0017
3881.00,0.0016
3880.00,0.0016
3879.00,0.0016
3878.00,0.0016
3877.00,0.0016
3876.00,0.0016
3875.00,0.0016
3874.00,0.0016
3873.00,0.0017
3872.00,0.0017
3871.00,0.0016
3870.00,0.0016
3869.00,0.0017
3868.00,0.0017
3867.00,0.0017
3866.00,0.0017
3865.00,0.0016
3864.00,0.0017
3863.00,0.0017
3862.00,0.0017
3861.00,0.0017
3860.00,0.0016
3859.00,0.0016
3858.00,0.0017
3857.00,0.0017
3856.00,0.0018
3855.00,0.0018
3854.00,0.0017
3853.00,0.0017
3852.00,0.0017
3851.00,0.0017
3850.00,0.0017
3849.00,0.0017
3848.00,0.0017
3847.00,0.0016
3846.00,0.0016
3845.00,0.0017
3844.00,0.0017
3843.00,0.0017
3842.00,0.0017
3841.00,0.0017
3840.00,0.0017
3839.00,0.0017
3838.00,0.0017
3837.00,0.0017
3836.00,0.0017
3835.00,0.0017
3834.00,0.0017
3833.00,0.0017
3832.00,0.0017
3831.00,0.0017
3830.00,0.0017
3829.00,0.0017
3828.00,0.0017
3827.00,0.0017
3826.00,0.0017
3825.00,0.0017
3824.00,0.0017
3823.00,0.0017
3822.00,0.0017
3821.00,0.0017
3820.00,0.0017
3819.00,0.0018
3818.00,0.0017
3817.00,0.0017
3816.00,0.0017
3815.00,0.0018
3814.00,0.0018
3813.00,0.0017
3812.00,0.0017
3811.00,0.0017
3810.00,0.0017
3809.00,0.0017
3808.00,0.0017
3807.00,0.0017
3806.00,0.0018
3805.00,0.0018
3804.00,0.0018
3803.00,0.0017
3802.00,0.0017
3801.00,0.0017
3800.00,0.0017
3799.00,0.0017
3798.00,0.0017
3797.00,0.0017
3796.00,0.0017
3795.00,0.0017
3794.00,0.0018
3793.00,0.0018
3792.00,0.0018
3791.00,0.0017
3790.00,0.0017
3789.00,0.0017
3788.00,0.0017
3787.00,0.0017
3786.00,0.0017
3785.00,0.0017
3784.00,0.0017
3783.00,0.0017
3782.00,0.0017
3781.00,0.0017
3780.00,0.0017
3779.00,0.0018
3778.00,0.0018
3777.00,0.0018
3776.00,0.0018
3775.00,0.0018
3774.00,0.0018
3773.00,0.0017
3772.00,0.0017
3771.00,0.0017
3770.00,0.0017
3769.00,0.0018
3768.00,0.0018
3767.00,0.0018
3766.00,0.0018
3765.00,0.0017
3764.00,0.0017
3763.00,0.0017
3762.00,0.0017
3761.00,0.0017
3760.00,0.0017
3759.00,0.0017
3758.00,0.0017
3757.00,0.0017
3756.00,0.0017
3755.00,0.0017
3754.00,0.0018
3753.00,0.0018
3752.00,0.0018
3751.00,0.0018
3750.00,0.0017
3749.00,0.0017
3748.00,0.0017
3747.00,0.0017
3746.00,0.0017
3745.00,0.0017
3744.00,0.0017
3743.00,0.0017
3742.00,0.0017
3741.00,0.0016
3740.00,0.0016
3739.00,0.0016
3738.00,0.0016
3737.00,0.0016
3736.00,0.0016
3735.00,0.0016
3734.00,0.0016
3733.00,0.0016
3732.00,0.0016
3731.00,0.0016
3730.00,0.0016
3729.00,0.0016
3728.00,0.0016
3727.00,0.0016
3726.00,0.0016
3725.00,0.0016
3724.00,0.0016
3723.00,0.0016
3722.00,0.0016
3721.00,0.0016
3720.00,0.0016
3719.00,0.0016
3718.00,0.0017
3717.00,0.0017
3716.00,0.0017
3715.00,0.0017
3714.00,0.0017
3713.00,0.0016
3712.00,0.0016
3711.00,0.0017
3710.00,0.0017
3709.00,0.0017
3708.00,0.0017
3707.00,0.0017
3706.00,0.0017
3705.00,0.0017
3704.00,0.0017
3703.00,0.0017
3702.00,0.0017
3701.00,0.0017
3700.00,0.0017
3699.00,0.0017
3698.00,0.0017
3697.00,0.0017
3696.00,0.0017
3695.00,0.0017
3694.00,0.0017
3693.00,0.0016
3692.00,0.0016
3691.00,0.0017
3690.00,0.0017
3689.00,0.0018
3688.00,0.0018
3687.00,0.0018
3686.00,0.0019
3685.00,0.0019
3684.00,0.0019
3683.00,0.0019
3682.00,0.0019
3681.00,0.0019
3680.00,0.0019
3679.00,0.0019
3678.00,0.0020
3677.00,0.0019
3676.00,0.0019
3675.00,0.0019
3674.00,0.0019
3673.00,0.0019
3672.00,0.0019
3671.00,0.0019
3670.00,0.0020
3669.00,0.0020
3668.00,0.0021
3667.00,0.0021
3666.00,0.0021
3665.00,0.0021
3664.00,0.0021
3663.00,0.0021
3662.00,0.0021
3661.00,0.0022
3660.00,0.0022
3659.00,0.0022
3658.00,0.0022
3657.00,0.0022
3656.00,0.0022
3655.00,0.0022
3654.00,0.0022
3653.00,0.0022
3652.00,0.0021
3651.00,0.0021
3650.00,0.0021
3649.00,0.0021
3648.00,0.0022
3647.00,0.0023
3646.00,0.0023
3645.00,0.0023
3644.00,0.0023
3643.00,0.0024
3642.00,0.0024
3641.00,0.0025
3640.00,0.0025
3639.00,0.0025
3638.00,0.0025
3637.00,0.0025
3636.00,0.0025
3635.00,0.0026
3634.00,0.0026
3633.00,0.0026
3632.00,0.0026
3631.00,0.0026
3630.00,0.0026
3629.00,0.0026
3628.00,0.0026
3627.00,0.0026
3626.00,0.0027
3625.00,0.0027
3624.00,0.0028
3623.00,0.0028
3622.00,0.0028
3621.00,0.0028
3620.00,0.0029
3619.00,0.0029
3618.00,0.0030
3617.00,0.0030
3616.00,0.0030
3615.00,0.0030
3614.00,0.0031
3613.00,0.0031
3612.00,0.0031
3611.00,0.0032
3610.00,0.0032
3609.00,0.0032
3608.00,0.0032
3607.00,0.0033
3606.00,0.0033
3605.00,0.0034
3604.00,0.0034
3603.00,0.0034
3602.00,0.0035
3601.00,0.0035
3600.00,0.0035
3599.00,0.0036
3598.00,0.0036
3597.00,0.0036
3596.00,0.0037
3595.00,0.0037
3594.00,0.0038
3593.00,0.0038
3592.00,0.0039
3591.00,0.0039
3590.00,0.0039
3589.00,0.0040
3588.00,0.0040
3587.00,0.0041
3586.00,0.0041
3585.00,0.0041
3584.00,0.0042
3583.00,0.0042
3582.00,0.0043
3581.00,0.0044
3580.00,0.0044
3579.00,0.0045
3578.00,0.0045
3577.00,0.0046
3576.00,0.0046
3575.00,0.0047
3574.00,0.0047
3573.00,0.0048
3572.00,0.0048
3571.00,0.0049
3570.00,0.0049
3569.00,0.0049
3568.00,0.0049
3567.00,0.0050
3566.00,0.0050
3565.00,0.0051
3564.00,0.0051
3563.00,0.0052
3562.00,0.0052
3561.00,0.0053
3560.00,0.0054
3559.00,0.0054
3558.00,0.0055
3557.00,0.0056
3556.00,0.0056
3555.00,0.0057
3554.00,0.0057
3553.00,0.0057
3552.00,0.0058
3551.00,0.0058
3550.00,0.0058
3549.00,0.0058
3548.00,0.0058
3547.00,0.0059
3546.00,0.0059
3545.00,0.0060
3544.00,0.0060
3543.00,0.0060
3542.00,0.0061
3541.00,0.0061
3540.00,0.0062
3539.00,0.0062
3538.00,0.0062
3537.00,0.0062
3536.00,0.0063
3535.00,0.0063
3534.00,0.0063
3533.00,0.0063
3532.00,0.0063
3531.00,0.0064
3530.00,0.0064
3529.00,0.0064
3528.00,0.0065
3527.00,0.0065
3526.00,0.0065
3525.00,0.0066
3524.00,0.0066
3523.00,0.0066
3522.00,0.0066
3521.00,0.0066
3520.00,0.0066
3519.00,0.0066
3518.00,0.0067
3517.00,0.0067
3516.00,0.0067
3515.00,0.0067
3514.00,0.0067
3513.00,0.0067
3512.00,0.0068
3511.00,0.0068
3510.00,0.0068
3509.00,0.0068
3508.00,0.0069
3507.00,0.0069
3506.00,0.0070
3505.00,0.0070
3504.00,0.0070
3503.00,0.0070
3502.00,0.0070
3501.00,0.0071
3500.00,0.0071
3499.00,0.0071
3498.00,0.0071
3497.00,0.0071
3496.00,0.0071
3495.00,0.0071
3494.00,0.0071
3493.00,0.0072
3492.00,0.0072
3491.00,0.0072
3490.00,0.0072
3489.00,0.0072
3488.00,0.0072
3487.00,0.0073
3486.00,0.0073
3485.00,0.0073
3484.00,0.0073
3483.00,0.0074
3482.00,0.0074
3481.00,0.0074
3480.00,0.0074
3479.00,0.0074
3478.00,0.0074
3477.00,0.0074
3476.00,0.0074
3475.00,0.0075
3474.00,0.0075
3473.00,0.0075
3472.00,0.0075
3471.00,0.0076
3470.00,0.0076
3469.00,0.0076
3468.00,0.0076
3467.00,0.0076
3466.00,0.0076
3465.00,0.0076
3464.00,0.0075
3463.00,0.0075
3462.00,0.0076
3461.00,0.0076
3460.00,0.0076
3459.00,0.0076
3458.00,0.0076
3457.00,0.0076
3456.00,0.0077
3455.00,0.0077
3454.00,0.0077
3453.00,0.0077
3452.00,0.0077
3451.00,0.0077
3450.00,0.0077
3449.00,0.0077
3448.00,0.0077
3447.00,0.0077
3446.00,0.0076
3445.00,0.0076
3444.00,0.0076
3443.00,0.0076
3442.00,0.0076
3441.00,0.0076
3440.00,0.0076
3439.00,0.0076
3438.00,0.0076
3437.00,0.0076
3436.00,0.0077
3435.00,0.0077
3434.00,0.0077
3433.00,0.0077
3432.00,0.0077
3431.00,0.0077
3430.00,0.0077
3429.00,0.0076
3428.00,0.0076
3427.00,0.0076
3426.00,0.0076
3425.00,0.0076
3424.00,0.0076
3423.00,0.0076
3422.00,0.0076
3421.00,0.0076
3420.00,0.0076
3419.00,0.0076
3418.00,0.0076
3417.00,0.0076
3416.00,0.0076
3415.00,0.0076
3414.00,0.0076
3413.00,0.0076
3412.00,0.0076
3411.00,0.0076
3410.00,0.0076
3409.00,0.0076
3408.00,0.0076
3407.00,0.0076
3406.00,0.0076
3405.00,0.0075
3404.00,0.0075
3403.00,0.0075
3402.00,0.0075
3401.00,0.0075
3400.00,0.0075
3399.00,0.0075
3398.00,0.0075
3397.00,0.0075
3396.00,0.0075
3395.00,0.0075
3394.00,0.0075
3393.00,0.0074
3392.00,0.0074
3391.00,0.0074
3390.00,0.0075
3389.00,0.0075
3388.00,0.0075
3387.00,0.0076
3386.00,0.0076
3385.00,0.0076
3384.00,0.0076
3383.00,0.0076
3382.00,0.0076
3381.00,0.0076
3380.00,0.0075
3379.00,0.0075
3378.00,0.0075
3377.00,0.0075
3376.00,0.0076
3375.00,0.0076
3374.00,0.0075
3373.00,0.0075
3372.00,0.0074
3371.00,0.0074
3370.00,0.0073
3369.00,0.0073
3368.00,0.0074
3367.00,0.0074
3366.00,0.0075
3365.00,0.0075
3364.00,0.0075
3363.00,0.0076
3362.00,0.0076
3361.00,0.0076
3360.00,0.0076
3359.00,0.0076
3358.00,0.0077
3357.00,0.0077
3356.00,0.0077
3355.00,0.0077
3354.00,0.0076
3353.00,0.0076
3352.00,0.0075
3351.00,0.0075
3350.00,0.0075
3349.00,0.0075
3348.00,0.0076
3347.00,0.0076
3346.00,0.0076
3345.00,0.0076
3344.00,0.0076
3343.00,0.0076
3342.00,0.0075
3341.00,0.0075
3340.00,0.0074
3339.00,0.0074
3338.00,0.0074
3337.00,0.0075
3336.00,0.0075
3335.00,0.0076
3334.00,0.0077
3333.00,0.0077
3332.00,0.0077
3331.00,0.0077
3330.00,0.0076
3329.00,0.0076
3328.00,0.0075
3327.00,0.0075
3326.00,0.0075
3325.00,0.0075
3324.00,0.0076
3323.00,0.0076
3322.00,0.0077
3321.00,0.0077
3320.00,0.0078
3319.00,0.0078
3318.00,0.0078
3317.00,0.0078
3316.00,0.0078
3315.00,0.0078
3314.00,0.0078
3313.00,0.0077
3312.00,0.0077
3311.00,0.0076
3310.00,0.0075
3309.00,0.0074
3308.00,0.0073
3307.00,0.0073
3306.00,0.0073
3305.00,0.0074
3304.00,0.0075
3303.00,0.0076
3302.00,0.0077
3301.00,0.0077
3300.00,0.0077
3299.00,0.0077
3298.00,0.0076
3297.00,0.0076
3296.00,0.0076
3295.00,0.0075
3294.00,0.0075
3293.00,0.0076
3292.00,0.0076
3291.00,0.0077
3290.00,0.0077
3289.00,0.0078
3288.00,0.0078
3287.00,0.0078
3286.00,0.0078
3285.00,0.0078
3284.00,0.0078
3283.00,0.0078
3282.00,0.0078
3281.00,0.0077
3280.00,0.0077
3279.00,0.0077
3278.00,0.0076
3277.00,0.0076
3276.00,0.0076
3275.00,0.0076
3274.00,0.0075
3273.00,0.0075
3272.00,0.0075
3271.00,0.0075
3270.00,0.0075
3269.00,0.0076
3268.00,0.0076
3267.00,0.0076
3266.00,0.0076
3265.00,0.0076
3264.00,0.0076
3263.00,0.0076
3262.00,0.0076
3261.00,0.0076
3260.00,0.0076
3259.00,0.0075
3258.00,0.0075
3257.00,0.0075
3256.00,0.0075
3255.00,0.0074
3254.00,0.0074
3253.00,0.0075
3252.00,0.0075
3251.00,0.0074
3250.00,0.0074
3249.00,0.0074
3248.00,0.0074
3247.00,0.0074
3246.00,0.0075
3245.00,0.0075
3244.00,0.0075
3243.00,0.0075
3242.00,0.0075
3241.00,0.0075
3240.00,0.0075
3239.00,0.0075
3238.00,0.0075
3237.00,0.0075
3236.00,0.0074
3235.00,0.0073
3234.00,0.0073
3233.00,0.0073
3232.00,0.0073
3231.00,0.0073
3230.00,0.0074
3229.00,0.0074
3228.00,0.0074
3227.00,0.0074
3226.00,0.0074
3225.00,0.0074
3224.00,0.0074
3223.00,0.0074
3222.00,0.0073
3221.00,0.0073
3220.00,0.0073
3219.00,0.0073
3218.00,0.0072
3217.00,0.0073
3216.00,0.0072
3215.00,0.0072
3214.00,0.0072
3213.00,0.0072
3212.00,0.0072
3211.00,0.0072
3210.00,0.0072
3209.00,0.0072
3208.00,0.0072
3207.00,0.0071
3206.00,0.0071
3205.00,0.0071
3204.00,0.0071
3203.00,0.0071
3202.00,0.0071
3201.00,0.0071
3200.00,0.0071
3199.00,0.0071
3198.00,0.0071
3197.00,0.0071
3196.00,0.0071
3195.00,0.0071
3194.00,0.0070
3193.00,0.0070
3192.00,0.0070
3191.00,0.0070
3190.00,0.0070
3189.00,0.0070
3188.00,0.0070
3187.00,0.0070
3186.00,0.0070
3185.00,0.0070
3184.00,0.0070
3183.00,0.0070
3182.00,0.0070
3181.00,0.0070
3180.00,0.0070
3179.00,0.0070
3178.00,0.0070
3177.00,0.0070
3176.00,0.0070
3175.00,0.0070
3174.00,0.0070
3173.00,0.0070
3172.00,0.0069
3171.00,0.0070
3170.00,0.0070
3169.00,0.0070
3168.00,0.0070
3167.00,0.0070
3166.00,0.0070
3165.00,0.0069
3164.00,0.0069
3163.00,0.0069
3162.00,0.0069
3161.00,0.0069
3160.00,0.0068
3159.00,0.0068
3158.00,0.0068
3157.00,0.0068
3156.00,0.0068
3155.00,0.0067
3154.00,0.0067
3153.00,0.0067
3152.00,0.0067
3151.00,0.0067
3150.00,0.0067
3149.00,0.0067
3148.00,0.0066
3147.00,0.0066
3146.00,0.0066
3145.00,0.0066
3144.00,0.0067
3143.00,0.0067
3142.00,0.0067
3141.00,0.0066
3140.00,0.0066
3139.00,0.0066
3138.00,0.0066
3137.00,0.0066
3136.00,0.0066
3135.00,0.0066
3134.00,0.0066
3133.00,0.0065
3132.00,0.0065
3131.00,0.0065
3130.00,0.0065
3129.00,0.0065
3128.00,0.0065
3127.00,0.0065
3126.00,0.0065
3125.00,0.0065
3124.00,0.0065
3123.00,0.0064
3122.00,0.0064
3121.00,0.0064
3120.00,0.0064
3119.00,0.0064
3118.00,0.0064
3117.00,0.0064
3116.00,0.0064
3115.00,0.0064
3114.00,0.0064
3113.00,0.0064
3112.00,0.0064
3111.00,0.0064
3110.00,0.0063
3109.00,0.0063
3108.00,0.0063
3107.00,0.0063
3106.00,0.0063
3105.00,0.0063
3104.00,0.0062
3103.00,0.0062
3102.00,0.0062
3101.00,0.0062
3100.00,0.0062
3099.00,0.0062
3098.00,0.0062
3097.00,0.0062
3096.00,0.0062
3095.00,0.0062
3094.00,0.0062
3093.00,0.0062
3092.00,0.0062
3091.00,0.0062
3090.00,0.0062
3089.00,0.0062
3088.00,0.0062
3087.00,0.0062
3086.00,0.0062
3085.00,0.0062
3084.00,0.0062
3083.00,0.0062
3082.00,0.0062
3081.00,0.0062
3080.00,0.0062
3079.00,0.0062
3078.00,0.0062
3077.00,0.0062
3076.00,0.0062
3075.00,0.0062
3074.00,0.0062
3073.00,0.0062
3072.00,0.0062
3071.00,0.0062
3070.00,0.0061
3069.00,0.0061
3068.00,0.0061
3067.00,0.0061
3066.00,0.0061
3065.00,0.0061
3064.00,0.0060
3063.00,0.0060
3062.00,0.0060
3061.00,0.0060
3060.00,0.0060
3059.00,0.0060
3058.00,0.0060
3057.00,0.0059
3056.00,0.0059
3055.00,0.0059
3054.00,0.0059
3053.00,0.0059
3052.00,0.0059
3051.00,0.0059
3050.00,0.0059
3049.00,0.0059
3048.00,0.0059
3047.00,0.0059
3046.00,0.0059
3045.00,0.0058
3044.00,0.0058
3043.00,0.0058
3042.00,0.0058
3041.00,0.0058
3040.00,0.0058
3039.00,0.0058
3038.00,0.0059
3037.00,0.0059
3036.00,0.0058
3035.00,0.0058
3034.00,0.0058
3033.00,0.0058
3032.00,0.0058
3031.00,0.0058
3030.00,0.0058
3029.00,0.0058
3028.00,0.0058
3027.00,0.0058
3026.00,0.0058
3025.00,0.0058
3024.00,0.0058
3023.00,0.0057
3022.00,0.0057
3021.00,0.0057
3020.00,0.0057
3019.00,0.0057
3018.00,0.0057
3017.00,0.0058
3016.00,0.0058
3015.00,0.0058
3014.00,0.0059
3013.00,0.0059
3012.00,0.0060
3011.00,0.0061
3010.00,0.0062
3009.00,0.0063
3008.00,0.0064
3007.00,0.0065
3006.00,0.0066
3005.00,0.0068
3004.00,0.0069
3003.00,0.0071
3002.00,0.0072
3001.00,0.0074
3000.00,0.0076
2999.00,0.0078
2998.00,0.0081
2997.00,0.0083
2996.00,0.0086
2995.00,0.0089
2994.00,0.0092
2993.00,0.0095
2992.00,0.0098
2991.00,0.0101
2990.00,0.0104
2989.00,0.0107
2988.00,0.0110
2987.00,0.0114
2986.00,0.0117
2985.00,0.0120
2984.00,0.0123
2983.00,0.0125
2982.00,0.0128
2981.00,0.0130
2980.00,0.0132
2979.00,0.0134
2978.00,0.0135
2977.00,0.0136
2976.00,0.0137
2975.00,0.0138
2974.00,0.0139
2973.00,0.0141
2972.00,0.0142
2971.00,0.0144
2970.00,0.0145
2969.00,0.0146
2968.00,0.0147
2967.00,0.0149
2966.00,0.0150
2965.00,0.0151
2964.00,0.0153
2963.00,0.0155
2962.00,0.0157
2961.00,0.0159
2960.00,0.0161
2959.00,0.0163
2958.00,0.0165
2957.00,0.0167
2956.00,0.0168
2955.00,0.0169
2954.00,0.0170
2953.00,0.0171
2952.00,0.0171
2951.00,0.0171
2950.00,0.0171
2949.00,0.0170
2948.00,0.0169
2947.00,0.0169
2946.00,0.0168
2945.00,0.0167
2944.00,0.0167
2943.00,0.0166
2942.00,0.0166
2941.00,0.0166
2940.00,0.0165
2939.00,0.0166
2938.00,0.0166
2937.00,0.0166
2936.00,0.0167
2935.00,0.0168
2934.00,0.0169
2933.00,0.0170
2932.00,0.0171
2931.00,0.0172
2930.00,0.0173
2929.00,0.0174
2928.00,0.0176
2927.00,0.0177
2926.00,0.0177
2925.00,0.0178
2924.00,0.0178
2923.00,0.0179
2922.00,0.0179
2921.00,0.0180
2920.00,0.0180
2919.00,0.0180
2918.00,0.0179
2917.00,0.0178
2916.00,0.0176
2915.00,0.0174
2914.00,0.0171
2913.00,0.0168
2912.00,0.0165
2911.00,0.0161
2910.00,0.0158
2909.00,0.0155
2908.00,0.0153
2907.00,0.0150
2906.00,0.0148
2905.00,0.0146
2904.00,0.0144
2903.00,0.0143
2902.00,0.0142
2901.00,0.0141
2900.00,0.0140
2899.00,0.0140
2898.00,0.0139
2897.00,0.0139
2896.00,0.0139
2895.00,0.0139
2894.00,0.0139
2893.00,0.0139
2892.00,0.0139
2891.00,0.0139
2890.00,0.0139
2889.00,0.0139
2888.00,0.0139
2887.00,0.0139
2886.00,0.0139
2885.00,0.0138
2884.00,0.0138
2883.00,0.0138
2882.00,0.0138
2881.00,0.0139
2880.00,0.0139
2879.00,0.0140
2878.00,0.0140
2877.00,0.0141
2876.00,0.0141
2875.00,0.0141
2874.00,0.0141
2873.00,0.0142
2872.00,0.0143
2871.00,0.0143
2870.00,0.0143
2869.00,0.0142
2868.00,0.0141
2867.00,0.0141
2866.00,0.0140
2865.00,0.0139
2864.00,0.0139
2863.00,0.0139
2862.00,0.0138
2861.00,0.0138
2860.00,0.0137
2859.00,0.0137
2858.00,0.0136
2857.00,0.0135
2856.00,0.0134
2855.00,0.0132
2854.00,0.0130
2853.00,0.0129
2852.00,0.0127
2851.00,0.0124
2850.00,0.0121
2849.00,0.0118
2848.00,0.0115
2847.00,0.0112
2846.00,0.0109
2845.00,0.0105
2844.00,0.0102
2843.00,0.0099
2842.00,0.0097
2841.00,0.0094
2840.00,0.0091
2839.00,0.0089
2838.00,0.0087
2837.00,0.0086
2836.00,0.0084
2835.00,0.0082
2834.00,0.0080
2833.00,0.0079
2832.00,0.0078
2831.00,0.0076
2830.00,0.0075
2829.00,0.0073
2828.00,0.0072
2827.00,0.0070
2826.00,0.0069
2825.00,0.0067
2824.00,0.0066
2823.00,0.0065
2822.00,0.0064
2821.00,0.0063
2820.00,0.0062
2819.00,0.0061
2818.00,0.0060
2817.00,0.0060
2816.00,0.0059
2815.00,0.0058
2814.00,0.0057
2813.00,0.0056
2812.00,0.0056
2811.00,0.0055
2810.00,0.0054
2809.00,0.0054
2808.00,0.0053
2807.00,0.0053
2806.00,0.0052
2805.00,0.0052
2804.00,0.0052
2803.00,0.0051
2802.00,0.0051
2801.00,0.0050
2800.00,0.0050
2799.00,0.0049
2798.00,0.0049
2797.00,0.0049
2796.00,0.0048
2795.00,0.0048
2794.00,0.0048
2793.00,0.0047
2792.00,0.0047
2791.00,0.0047
2790.00,0.0046
2789.00,0.0046
2788.00,0.0046
2787.00,0.0046
2786.00,0.0046
2785.00,0.0046
2784.00,0.0045
2783.00,0.0045
2782.00,0.0045
2781.00,0.0045
2780.00,0.0045
2779.00,0.0045
2778.00,0.0044
2777.00,0.0044
2776.00,0.0044
2775.00,0.0044
2774.00,0.0044
2773.00,0.0044
2772.00,0.0044
2771.00,0.0043
2770.00,0.0043
2769.00,0.0043
2768.00,0.0043
2767.00,0.0042
2766.00,0.0042
2765.00,0.0042
2764.00,0.0042
2763.00,0.0042
2762.00,0.0042
2761.00,0.0042
2760.00,0.0042
2759.00,0.0042
2758.00,0.0042
2757.00,0.0042
2756.00,0.0042
2755.00,0.0042
2754.00,0.0042
2753.00,0.0042
2752.00,0.0042
2751.00,0.0042
2750.00,0.0042
2749.00,0.0042
2748.00,0.0042
2747.00,0.0042
2746.00,0.0042
2745.00,0.0042
2744.00,0.0042
2743.00,0.0042
2742.00,0.0042
2741.00,0.0042
2740.00,0.0042
2739.00,0.0042
2738.00,0.0042
2737.00,0.0042
2736.00,0.0042
2735.00,0.0042
2734.00,0.0042
2733.00,0.0043
2732.00,0.0043
2731.00,0.0043
2730.00,0.0043
2729.00,0.0042
2728.00,0.0042
2727.00,0.0042
2726.00,0.0041
2725.00,0.0041
2724.00,0.0041
2723.00,0.0041
2722.00,0.0041
2721.00,0.0041
2720.00,0.0041
2719.00,0.0041
2718.00,0.0040
2717.00,0.0040
2716.00,0.0040
2715.00,0.0040
2714.00,0.0040
2713.00,0.0040
2712.00,0.0040
2711.00,0.0040
2710.00,0.0040
2709.00,0.0040
2708.00,0.0039
2707.00,0.0039
2706.00,0.0039
2705.00,0.0039
2704.00,0.0039
2703.00,0.0039
2702.00,0.0039
2701.00,0.0039
2700.00,0.0038
2699.00,0.0038
2698.00,0.0038
2697.00,0.0038
2696.00,0.0038
2695.00,0.0038
2694.00,0.0038
2693.00,0.0037
2692.00,0.0037
2691.00,0.0037
2690.00,0.0037
2689.00,0.0037
2688.00,0.0037
2687.00,0.0037
2686.00,0.0037
2685.00,0.0037
2684.00,0.0037
2683.00,0.0036
2682.00,0.0036
2681.00,0.0036
2680.00,0.0036
2679.00,0.0036
2678.00,0.0036
2677.00,0.0036
2676.00,0.0036
2675.00,0.0036
2674.00,0.0036
2673.00,0.0036
2672.00,0.0036
2671.00,0.0036
2670.00,0.0036
2669.00,0.0036
2668.00,0.0036
2667.00,0.0037
2666.00,0.0037
2665.00,0.0037
2664.00,0.0038
2663.00,0.0038
2662.00,0.0038
2661.00,0.0038
2660.00,0.0038
2659.00,0.0038
2658.00,0.0038
2657.00,0.0039
2656.00,0.0039
2655.00,0.0039
2654.00,0.0039
2653.00,0.0039
2652.00,0.0038
2651.00,0.0038
2650.00,0.0038
2649.00,0.0038
2648.00,0.0039
2647.00,0.0039
2646.00,0.0039
2645.00,0.0039
2644.00,0.0038
2643.00,0.0038
2642.00,0.0038
2641.00,0.0038
2640.00,0.0037
2639.00,0.0037
2638.00,0.0037
2637.00,0.0037
2636.00,0.0037
2635.00,0.0037
2634.00,0.0037
2633.00,0.0037
2632.00,0.0037
2631.00,0.0037
2630.00,0.0037
2629.00,0.0037
2628.00,0.0037
2627.00,0.0037
2626.00,0.0037
2625.00,0.0037
2624.00,0.0037
2623.00,0.0036
2622.00,0.0036
2621.00,0.0036
2620.00,0.0035
2619.00,0.0035
2618.00,0.0035
2617.00,0.0035
2616.00,0.0035
2615.00,0.0035
2614.00,0.0035
2613.00,0.0034
2612.00,0.0034
2611.00,0.0034
2610.00,0.0034
2609.00,0.0034
2608.00,0.0034
2607.00,0.0034
2606.00,0.0034
2605.00,0.0034
2604.00,0.0034
2603.00,0.0034
2602.00,0.0034
2601.00,0.0034
2600.00,0.0034
2599.00,0.0034
2598.00,0.0034
2597.00,0.0034
2596.00,0.0033
2595.00,0.0033
2594.00,0.0034
2593.00,0.0034
2592.00,0.0033
2591.00,0.0033
2590.00,0.0033
2589.00,0.0033
2588.00,0.0033
2587.00,0.0033
2586.00,0.0032
2585.00,0.0033
2584.00,0.0033
2583.00,0.0033
2582.00,0.0033
2581.00,0.0032
2580.00,0.0032
2579.00,0.0032
2578.00,0.0032
2577.00,0.0032
2576.00,0.0032
2575.00,0.0032
2574.00,0.0032
2573.00,0.0032
2572.00,0.0032
2571.00,0.0032
2570.00,0.0032
2569.00,0.0032
2568.00,0.0032
2567.00,0.0032
2566.00,0.0032
2565.00,0.0031
2564.00,0.0031
2563.00,0.0031
2562.00,0.0031
2561.00,0.0031
2560.00,0.0031
2559.00,0.0031
2558.00,0.0031
2557.00,0.0031
2556.00,0.0030
2555.00,0.0030
2554.00,0.0030
2553.00,0.0030
2552.00,0.0030
2551.00,0.0030
2550.00,0.0031
2549.00,0.0031
2548.00,0.0031
2547.00,0.0031
2546.00,0.0030
2545.00,0.0030
2544.00,0.0030
2543.00,0.0030
2542.00,0.0029
2541.00,0.0029
2540.00,0.0029
2539.00,0.0028
2538.00,0.0028
2537.00,0.0028
2536.00,0.0028
2535.00,0.0028
2534.00,0.0027
2533.00,0.0027
2532.00,0.0027
2531.00,0.0027
2530.00,0.0027
2529.00,0.0027
2528.00,0.0027
2527.00,0.0027
2526.00,0.0027
2525.00,0.0027
2524.00,0.0027
2523.00,0.0027
2522.00,0.0027
2521.00,0.0026
2520.00,0.0026
2519.00,0.0026
2518.00,0.0026
2517.00,0.0026
2516.00,0.0025
2515.00,0.0025
2514.00,0.0025
2513.00,0.0025
2512.00,0.0025
2511.00,0.0025
2510.00,0.0025
2509.00,0.0025
2508.00,0.0025
2507.00,0.0025
2506.00,0.0025
2505.00,0.0025
2504.00,0.0025
2503.00,0.0025
2502.00,0.0024
2501.00,0.0024
2500.00,0.0024
2499.00,0.0024
2498.00,0.0024
2497.00,0.0024
2496.00,0.0024
2495.00,0.0024
2494.00,0.0023
2493.00,0.0023
2492.00,0.0023
2491.00,0.0023
2490.00,0.0024
2489.00,0.0024
2488.00,0.0025
2487.00,0.0025
2486.00,0.0025
2485.00,0.0024
2484.00,0.0024
2483.00,0.0024
2482.00,0.0024
2481.00,0.0023
2480.00,0.0023
2479.00,0.0023
2478.00,0.0023
2477.00,0.0023
2476.00,0.0023
2475.00,0.0023
2474.00,0.0023
2473.00,0.0023
2472.00,0.0023
2471.00,0.0024
2470.00,0.0024
2469.00,0.0023
2468.00,0.0023
2467.00,0.0023
2466.00,0.0023
2465.00,0.0023
2464.00,0.0023
2463.00,0.0023
2462.00,0.0023
2461.00,0.0023
2460.00,0.0024
2459.00,0.0024
2458.00,0.0024
2457.00,0.0025
2456.00,0.0025
2455.00,0.0025
2454.00,0.0024
2453.00,0.0024
2452.00,0.0024
2451.00,0.0024
2450.00,0.0024
2449.00,0.0023
2448.00,0.0023
2447.00,0.0023
2446.00,0.0023
2445.00,0.0023
2444.00,0.0023
2443.00,0.0023
2442.00,0.0023
2441.00,0.0023
2440.00,0.0023
2439.00,0.0023
2438.00,0.0023
2437.00,0.0023
2436.00,0.0023
2435.00,0.0023
2434.00,0.0023
2433.00,0.0023
2432.00,0.0023
2431.00,0.0022
2430.00,0.0022
2429.00,0.0022
2428.00,0.0022
2427.00,0.0022
2426.00,0.0022
2425.00,0.0022
2424.00,0.0022
2423.00,0.0023
2422.00,0.0022
2421.00,0.0022
2420.00,0.0022
2419.00,0.0022
2418.00,0.0022
2417.00,0.0022
2416.00,0.0023
2415.00,0.0023
2414.00,0.0023
2413.00,0.0023
2412.00,0.0023
2411.00,0.0022
2410.00,0.0022
2409.00,0.0022
2408.00,0.0021
2407.00,0.0021
2406.00,0.0020
2405.00,0.0020
2404.00,0.0020
2403.00,0.0020
2402.00,0.0020
2401.00,0.0021
2400.00,0.0021
2399.00,0.0020
2398.00,0.0020
2397.00,0.0021
2396.00,0.0021
2395.00,0.0021
2394.00,0.0021
2393.00,0.0021
2392.00,0.0021
2391.00,0.0021
2390.00,0.0020
2389.00,0.0020
2388.00,0.0020
2387.00,0.0020
2386.00,0.0020
2385.00,0.0019
2384.00,0.0019
2383.00,0.0019
2382.00,0.0018
2381.00,0.0018
2380.00,0.0018
2379.00,0.0019
2378.00,0.0019
2377.00,0.0019
2376.00,0.0019
2375.00,0.0019
2374.00,0.0019
2373.00,0.0019
2372.00,0.0019
2371.00,0.0019
2370.00,0.0018
2369.00,0.0018
2368.00,0.0018
2367.00,0.0018
2366.00,0.0018
2365.00,0.0019
2364.00,0.0019
2363.00,0.0020
2362.00,0.0020
2361.00,0.0020
2360.00,0.0020
2359.00,0.0020
2358.00,0.0020
2357.00,0.0020
2356.00,0.0020
2355.00,0.0020
2354.00,0.0019
2353.00,0.0019
2352.00,0.0018
2351.00,0.0018
2350.00,0.0019
2349.00,0.0020
2348.00,0.0022
2347.00,0.0023
2346.00,0.0023
2345.00,0.0023
2344.00,0.0023
2343.00,0.0023
2342.00,0.0023
2341.00,0.0023
2340.00,0.0023
2339.00,0.0023
2338.00,0.0023
2337.00,0.0023
2336.00,0.0023
2335.00,0.0023
2334.00,0.0023
2333.00,0.0023
2332.00,0.0023
2331.00,0.0023
2330.00,0.0023
2329.00,0.0025
2328.00,0.0027
2327.00,0.0030
2326.00,0.0032
2325.00,0.0033
2324.00,0.0032
2323.00,0.0031
2322.00,0.0030
2321.00,0.0029
2320.00,0.0028
2319.00,0.0027
2318.00,0.0027
2317.00,0.0026
2316.00,0.0025
2315.00,0.0025
2314.00,0.0024
2313.00,0.0024
2312.00,0.0024
2311.00,0.0024
2310.00,0.0024
2309.00,0.0024
2308.00,0.0024
2307.00,0.0024
2306.00,0.0025
2305.00,0.0025
2304.00,0.0025
2303.00,0.0025
2302.00,0.0025
2301.00,0.0025
2300.00,0.0026
2299.00,0.0026
2298.00,0.0026
2297.00,0.0027
2296.00,0.0027
2295.00,0.0028
2294.00,0.0029
2293.00,0.0029
2292.00,0.0030
2291.00,0.0031
2290.00,0.0031
2289.00,0.0031
2288.00,0.0031
2287.00,0.0031
2286.00,0.0031
2285.00,0.0030
2284.00,0.0030
2283.00,0.0029
2282.00,0.0029
2281.00,0.0028
2280.00,0.0028
2279.00,0.0028
2278.00,0.0028
2277.00,0.0027
2276.00,0.0027
2275.00,0.0028
2274.00,0.0028
2273.00,0.0028
2272.00,0.0028
2271.00,0.0027
2270.00,0.0027
2269.00,0.0026
2268.00,0.0025
2267.00,0.0025
2266.00,0.0024
2265.00,0.0025
2264.00,0.0025
2263.00,0.0025
2262.00,0.0026
2261.00,0.0026
2260.00,0.0027
2259.00,0.0027
2258.00,0.0026
2257.00,0.0024
2256.00,0.0023
2255.00,0.0022
2254.00,0.0022
2253.00,0.0023
2252.00,0.0024
2251.00,0.0024
2250.00,0.0024
2249.00,0.0024
2248.00,0.0024
2247.00,0.0024
2246.00,0.0023
2245.00,0.0024
2244.00,0.0024
2243.00,0.0024
2242.00,0.0024
2241.00,0.0024
2240.00,0.0025
2239.00,0.0025
2238.00,0.0025
2237.00,0.0025
2236.00,0.0026
2235.00,0.0026
2234.00,0.0026
2233.00,0.0026
2232.00,0.0026
2231.00,0.0025
2230.00,0.0024
2229.00,0.0023
2228.00,0.0023
2227.00,0.0023
2226.00,0.0023
2225.00,0.0023
2224.00,0.0023
2223.00,0.0024
2222.00,0.0024
2221.00,0.0024
2220.00,0.0024
2219.00,0.0023
2218.00,0.0023
2217.00,0.0023
2216.00,0.0023
2215.00,0.0023
2214.00,0.0023
2213.00,0.0023
2212.00,0.0023
2211.00,0.0023
2210.00,0.0024
2209.00,0.0025
2208.00,0.0026
2207.00,0.0026
2206.00,0.0025
2205.00,0.0024
2204.00,0.0024
2203.00,0.0024
2202.00,0.0024
2201.00,0.0025
2200.00,0.0025
2199.00,0.0025
2198.00,0.0025
2197.00,0.0025
2196.00,0.0024
2195.00,0.0024
2194.00,0.0023
2193.00,0.0023
2192.00,0.0024
2191.00,0.0025
2190.00,0.0026
2189.00,0.0027
2188.00,0.0027
2187.00,0.0027
2186.00,0.0026
2185.00,0.0025
2184.00,0.0023
2183.00,0.0020
2182.00,0.0017
2181.00,0.0017
2180.00,0.0019
2179.00,0.0021
2178.00,0.0021
2177.00,0.0021
2176.00,0.0020
2175.00,0.0020
2174.00,0.0021
2173.00,0.0023
2172.00,0.0026
2171.00,0.0028
2170.00,0.0029
2169.00,0.0030
2168.00,0.0030
2167.00,0.0030
2166.00,0.0030
2165.00,0.0031
2164.00,0.0033
2163.00,0.0034
2162.00,0.0031
2161.00,0.0022
2160.00,0.0011
2159.00,0.0001
2158.00,-0.0004
2157.00,-0.0004
2156.00,-0.0001
2155.00,0.0002
2154.00,0.0004
2153.00,0.0006
2152.00,0.0007
2151.00,0.0008
2150.00,0.0008
2149.00,0.0008
2148.00,0.0008
2147.00,0.0008
2146.00,0.0008
2145.00,0.0009
2144.00,0.0009
2143.00,0.0009
2142.00,0.0009
2141.00,0.0010
2140.00,0.0011
2139.00,0.0012
2138.00,0.0011
2137.00,0.0009
2136.00,0.0006
2135.00,0.0004
2134.00,0.0003
2133.00,0.0003
2132.00,0.0005
2131.00,0.0006
2130.00,0.0008
2129.00,0.0009
2128.00,0.0010
2127.00,0.0011
2126.00,0.0011
2125.00,0.0012
2124.00,0.0014
2123.00,0.0015
2122.00,0.0015
2121.00,0.0016
2120.00,0.0017
2119.00,0.0018
2118.00,0.0018
2117.00,0.0019
2116.00,0.0020
2115.00,0.0020
2114.00,0.0020
2113.00,0.0019
2112.00,0.0019
2111.00,0.0019
2110.00,0.0020
2109.00,0.0020
2108.00,0.0020
2107.00,0.0020
2106.00,0.0020
2105.00,0.0020
2104.00,0.0020
2103.00,0.0021
2102.00,0.0021
2101.00,0.0021
2100.00,0.0020
2099.00,0.0020
2098.00,0.0019
2097.00,0.0018
2096.00,0.0017
2095.00,0.0016
2094.00,0.0017
2093.00,0.0017
2092.00,0.0018
2091.00,0.0019
2090.00,0.0019
2089.00,0.0019
2088.00,0.0019
2087.00,0.0020
2086.00,0.0020
2085.00,0.0021
2084.00,0.0022
2083.00,0.0023
2082.00,0.0024
2081.00,0.0024
2080.00,0.0023
2079.00,0.0022
2078.00,0.0021
2077.00,0.0021
2076.00,0.0021
2075.00,0.0021
2074.00,0.0021
2073.00,0.0021
2072.00,0.0021
2071.00,0.0021
2070.00,0.0020
2069.00,0.0020
2068.00,0.0020
2067.00,0.0020
2066.00,0.0019
2065.00,0.0019
2064.00,0.0019
2063.00,0.0019
2062.00,0.0019
2061.00,0.0019
2060.00,0.0020
2059.00,0.0021
2058.00,0.0021
2057.00,0.0022
2056.00,0.0022
2055.00,0.0022
2054.00,0.0023
2053.00,0.0025
2052.00,0.0027
2051.00,0.0027
2050.00,0.0025
2049.00,0.0023
2048.00,0.0022
2047.00,0.0022
2046.00,0.0021
2045.00,0.0021
2044.00,0.0020
2043.00,0.0020
2042.00,0.0020
2041.00,0.0020
2040.00,0.0021
2039.00,0.0021
2038.00,0.0020
2037.00,0.0019
2036.00,0.0018
2035.00,0.0018
2034.00,0.0018
2033.00,0.0018
2032.00,0.0019
2031.00,0.0018
2030.00,0.0018
2029.00,0.0018
2028.00,0.0018
2027.00,0.0017
2026.00,0.0015
2025.00,0.0014
2024.00,0.0013
2023.00,0.0013
2022.00,0.0013
2021.00,0.0014
2020.00,0.0014
2019.00,0.0015
2018.00,0.0015
2017.00,0.0014
2016.00,0.0014
2015.00,0.0014
2014.00,0.0014
2013.00,0.0014
2012.00,0.0015
2011.00,0.0015
2010.00,0.0013
2009.00,0.0012
2008.00,0.0009
2007.00,0.0006
2006.00,0.0004
2005.00,0.0004
2004.00,0.0004
2003.00,0.0006
2002.00,0.0007
2001.00,0.0009
2000.00,0.0012
1999.00,0.0014
1998.00,0.0015
1997.00,0.0016
1996.00,0.0016
1995.00,0.0017
1994.00,0.0017
1993.00,0.0017
1992.00,0.0017
1991.00,0.0018
1990.00,0.0018
1989.00,0.0019
1988.00,0.0021
1987.00,0.0022
1986.00,0.0023
1985.00,0.0024
1984.00,0.0025
1983.00,0.0026
1982.00,0.0027
1981.00,0.0028
1980.00,0.0026
1979.00,0.0022
1978.00,0.0018
1977.00,0.0014
1976.00,0.0013
1975.00,0.0013
1974.00,0.0012
1973.00,0.0011
1972.00,0.0010
1971.00,0.0009
1970.00,0.0008
1969.00,0.0008
1968.00,0.0009
1967.00,0.0011
1966.00,0.0012
1965.00,0.0013
1964.00,0.0014
1963.00,0.0013
1962.00,0.0012
1961.00,0.0010
1960.00,0.0009
1959.00,0.0008
1958.00,0.0007
1957.00,0.0007
1956.00,0.0009
1955.00,0.0010
1954.00,0.0011
1953.00,0.0012
1952.00,0.0012
1951.00,0.0013
1950.00,0.0014
1949.00,0.0015
1948.00,0.0015
1947.00,0.0015
1946.00,0.0014
1945.00,0.0013
1944.00,0.0013
1943.00,0.0013
1942.00,0.0012
1941.00,0.0012
1940.00,0.0012
1939.00,0.0012
1938.00,0.0013
1937.00,0.0013
1936.00,0.0014
1935.00,0.0013
1934.00,0.0012
1933.00,0.0012
1932.00,0.0013
1931.00,0.0014
1930.00,0.0014
1929.00,0.0014
1928.00,0.0015
1927.00,0.0015
1926.00,0.0014
1925.00,0.0014
1924.00,0.0014
1923.00,0.0015
1922.00,0.0015
1921.00,0.0016
1920.00,0.0016
1919.00,0.0016
1918.00,0.0016
1917.00,0.0016
1916.00,0.0016
1915.00,0.0016
1914.00,0.0015
1913.00,0.0015
1912.00,0.0015
1911.00,0.0015
1910.00,0.0015
1909.00,0.0016
1908.00,0.0017
1907.00,0.0017
1906.00,0.0016
1905.00,0.0016
1904.00,0.0017
1903.00,0.0018
1902.00,0.0018
1901.00,0.0018
1900.00,0.0018
1899.00,0.0018
1898.00,0.0018
1897.00,0.0018
1896.00,0.0018
1895.00,0.0018
1894.00,0.0017
1893.00,0.0017
1892.00,0.0017
1891.00,0.0017
1890.00,0.0017
1889.00,0.0018
1888.00,0.0018
1887.00,0.0018
1886.00,0.0017
1885.00,0.0016
1884.00,0.0016
1883.00,0.0016
1882.00,0.0016
1881.00,0.0017
1880.00,0.0017
1879.00,0.0017
1878.00,0.0017
1877.00,0.0017
1876.00,0.0018
1875.00,0.0018
1874.00,0.0018
1873.00,0.0018
1872.00,0.0018
1871.00,0.0018
1870.00,0.0017
1869.00,0.0018
1868.00,0.0018
1867.00,0.0018
1866.00,0.0018
1865.00,0.0018
1864.00,0.0018
1863.00,0.0019
1862.00,0.0018
1861.00,0.0018
1860.00,0.0018
1859.00,0.0018
1858.00,0.0018
1857.00,0.0018
1856.00,0.0018
1855.00,0.0018
1854.00,0.0018
1853.00,0.0018
1852.00,0.0018
1851.00,0.0018
1850.00,0.0018
1849.00,0.0019
1848.00,0.0019
1847.00,0.0019
1846.00,0.0019
1845.00,0.0018
1844.00,0.0018
1843.00,0.0018
1842.00,0.0018
1841.00,0.0018
1840.00,0.0018
1839.00,0.0018
1838.00,0.0018
1837.00,0.0018
1836.00,0.0018
1835.00,0.0018
1834.00,0.0018
1833.00,0.0018
1832.00,0.0019
1831.00,0.0019
1830.00,0.0019
1829.00,0.0019
1828.00,0.0019
1827.00,0.0019
1826.00,0.0019
1825.00,0.0019
1824.00,0.0019
1823.00,0.0019
1822.00,0.0018
1821.00,0.0018
1820.00,0.0018
1819.00,0.0018
1818.00,0.0017
1817.00,0.0016
1816.00,0.0016
1815.00,0.0017
1814.00,0.0017
1813.00,0.0017
1812.00,0.0018
1811.00,0.0019
1810.00,0.0019
1809.00,0.0019
1808.00,0.0019
1807.00,0.0019
1806.00,0.0019
1805.00,0.0020
1804.00,0.0020
1803.00,0.0020
1802.00,0.0020
1801.00,0.0019
1800.00,0.0020
1799.00,0.0020
1798.00,0.0020
1797.00,0.0020
1796.00,0.0021
1795.00,0.0021
1794.00,0.0020
1793.00,0.0020
1792.00,0.0020
1791.00,0.0020
1790.00,0.0020
1789.00,0.0021
1788.00,0.0021
1787.00,0.0022
1786.00,0.0022
1785.00,0.0022
1784.00,0.0022
1783.00,0.0022
1782.00,0.0022
1781.00,0.0022
1780.00,0.0022
1779.00,0.0022
1778.00,0.0022
1777.00,0.0022
1776.00,0.0022
1775.00,0.0022
1774.00,0.0021
1773.00,0.0021
1772.00,0.0022
1771.00,0.0022
1770.00,0.0022
1769.00,0.0023
1768.00,0.0023
1767.00,0.0023
1766.00,0.0023
1765.00,0.0023
1764.00,0.0024
1763.00,0.0024
1762.00,0.0024
1761.00,0.0024
1760.00,0.0024
1759.00,0.0024
1758.00,0.0024
1757.00,0.0024
1756.00,0.0024
1755.00,0.0024
1754.00,0.0023
1753.00,0.0023
1752.00,0.0023
1751.00,0.0022
1750.00,0.0022
1749.00,0.0022
1748.00,0.0023
1747.00,0.0023
1746.00,0.0023
1745.00,0.0023
1744.00,0.0024
1743.00,0.0024
1742.00,0.0024
1741.00,0.0024
1740.00,0.0025
1739.00,0.0026
1738.00,0.0026
1737.00,0.0026
1736.00,0.0026
1735.00,0.0026
1734.00,0.0025
1733.00,0.0026
1732.00,0.0027
1731.00,0.0029
1730.00,0.0031
1729.00,0.0032
1728.00,0.0034
1727.00,0.0035
1726.00,0.0036
1725.00,0.0037
1724.00,0.0039
1723.00,0.0041
1722.00,0.0042
1721.00,0.0043
1720.00,0.0045
1719.00,0.0046
1718.00,0.0048
1717.00,0.0050
1716.00,0.0054
1715.00,0.0059
1714.00,0.0063
1713.00,0.0067
1712.00,0.0072
1711.00,0.0077
1710.00,0.0083
1709.00,0.0089
1708.00,0.0096
1707.00,0.0106
1706.00,0.0117
1705.00,0.0129
1704.00,0.0141
1703.00,0.0151
1702.00,0.0163
1701.00,0.0183
1700.00,0.0211
1699.00,0.0235
1698.00,0.0252
1697.00,0.0273
1696.00,0.0304
1695.00,0.0337
1694.00,0.0363
1693.00,0.0385
1692.00,0.0407
1691.00,0.0432
1690.00,0.0458
1689.00,0.0484
1688.00,0.0505
1687.00,0.0522
1686.00,0.0540
1685.00,0.0569
1684.00,0.0606
1683.00,0.0637
1682.00,0.0653
1681.00,0.0666
1680.00,0.0678
1679.00,0.0690
1678.00,0.0699
1677.00,0.0708
1676.00,0.0721
1675.00,0.0734
1674.00,0.0743
1673.00,0.0745
1672.00,0.0748
1671.00,0.0753
1670.00,0.0760
1669.00,0.0768
1668.00,0.0773
1667.00,0.0774
1666.00,0.0775
1665.00,0.0777
1664.00,0.0782
1663.00,0.0790
1662.00,0.0797
1661.00,0.0801
1660.00,0.0804
1659.00,0.0807
1658.00,0.0808
1657.00,0.0807
1656.00,0.0805
1655.00,0.0803
1654.00,0.0806
1653.00,0.0809
1652.00,0.0804
1651.00,0.0791
1650.00,0.0779
1649.00,0.0768
1648.00,0.0756
1647.00,0.0741
1646.00,0.0721
1645.00,0.0698
1644.00,0.0676
1643.00,0.0654
1642.00,0.0633
1641.00,0.0610
1640.00,0.0586
1639.00,0.0564
1638.00,0.0541
1637.00,0.0518
1636.00,0.0493
1635.00,0.0467
1634.00,0.0445
1633.00,0.0426
1632.00,0.0410
1631.00,0.0396
1630.00,0.0383
1629.00,0.0372
1628.00,0.0363
1627.00,0.0357
1626.00,0.0353
1625.00,0.0353
1624.00,0.0357
1623.00,0.0364
1622.00,0.0371
1621.00,0.0375
1620.00,0.0376
1619.00,0.0375
1618.00,0.0372
1617.00,0.0367
1616.00,0.0360
1615.00,0.0353
1614.00,0.0345
1613.00,0.0337
1612.00,0.0330
1611.00,0.0323
1610.00,0.0316
1609.00,0.0308
1608.00,0.0298
1607.00,0.0286
1606.00,0.0272
1605.00,0.0258
1604.00,0.0243
1603.00,0.0228
1602.00,0.0215
1601.00,0.0204
1600.00,0.0193
1599.00,0.0185
1598.00,0.0178
1597.00,0.0174
1596.00,0.0172
1595.00,0.0172
1594.00,0.0175
1593.00,0.0181
1592.00,0.0189
1591.00,0.0200
1590.00,0.0212
1589.00,0.0225
1588.00,0.0237
1587.00,0.0246
1586.00,0.0252
1585.00,0.0254
1584.00,0.0251
1583.00,0.0244
1582.00,0.0235
1581.00,0.0224
1580.00,0.0213
1579.00,0.0201
1578.00,0.0190
1577.00,0.0180
1576.00,0.0172
1575.00,0.0166
1574.00,0.0161
1573.00,0.0156
1572.00,0.0152
1571.00,0.0147
1570.00,0.0143
1569.00,0.0140
1568.00,0.0136
1567.00,0.0132
1566.00,0.0129
1565.00,0.0125
1564.00,0.0122
1563.00,0.0119
1562.00,0.0115
1561.00,0.0111
1560.00,0.0107
1559.00,0.0106
1558.00,0.0106
1557.00,0.0105
1556.00,0.0104
1555.00,0.0103
1554.00,0.0102
1553.00,0.0101
1552.00,0.0099
1551.00,0.0099
1550.00,0.0098
1549.00,0.0098
1548.00,0.0097
1547.00,0.0096
1546.00,0.0095
1545.00,0.0094
1544.00,0.0092
1543.00,0.0091
1542.00,0.0089
1541.00,0.0088
1540.00,0.0088
1539.00,0.0088
1538.00,0.0088
1537.00,0.0088
1536.00,0.0088
1535.00,0.0088
1534.00,0.0089
1533.00,0.0089
1532.00,0.0089
1531.00,0.0089
1530.00,0.0089
1529.00,0.0089
1528.00,0.0089
1527.00,0.0090
1526.00,0.0091
1525.00,0.0091
1524.00,0.0092
1523.00,0.0092
1522.00,0.0094
1521.00,0.0097
1520.00,0.0099
1519.00,0.0101
1518.00,0.0103
1517.00,0.0106
1516.00,0.0109
1515.00,0.0110
1514.00,0.0111
1513.00,0.0111
1512.00,0.0112
1511.00,0.0113
1510.00,0.0113
1509.00,0.0113
1508.00,0.0115
1507.00,0.0119
1506.00,0.0126
1505.00,0.0132
1504.00,0.0138
1503.00,0.0145
1502.00,0.0154
1501.00,0.0164
1500.00,0.0176
1499.00,0.0190
1498.00,0.0204
1497.00,0.0217
1496.00,0.0228
1495.00,0.0235
1494.00,0.0238
1493.00,0.0237
1492.00,0.0234
1491.00,0.0229
1490.00,0.0220
1489.00,0.0210
1488.00,0.0198
1487.00,0.0186
1486.00,0.0174
1485.00,0.0163
1484.00,0.0154
1483.00,0.0146
1482.00,0.0139
1481.00,0.0134
1480.00,0.0131
1479.00,0.0129
1478.00,0.0129
1477.00,0.0130
1476.00,0.0133
1475.00,0.0137
1474.00,0.0144
1473.00,0.0156
1472.00,0.0172
1471.00,0.0188
1470.00,0.0205
1469.00,0.0222
1468.00,0.0241
1467.00,0.0262
1466.00,0.0287
1465.00,0.0316
1464.00,0.0342
1463.00,0.0363
1462.00,0.0377
1461.00,0.0385
1460.00,0.0390
1459.00,0.0389
1458.00,0.0382
1457.00,0.0368
1456.00,0.0351
1455.00,0.0333
1454.00,0.0319
1453.00,0.0307
1452.00,0.0298
1451.00,0.0292
1450.00,0.0290
1449.00,0.0293
1448.00,0.0300
1447.00,0.0310
1446.00,0.0322
1445.00,0.0335
1444.00,0.0349
1443.00,0.0365
1442.00,0.0382
1441.00,0.0398
1440.00,0.0412
1439.00,0.0426
1438.00,0.0442
1437.00,0.0461
1436.00,0.0481
1435.00,0.0495
1434.00,0.0503
1433.00,0.0511
1432.00,0.0519
1431.00,0.0527
1430.00,0.0536
1429.00,0.0547
1428.00,0.0559
1427.00,0.0571
1426.00,0.0586
1425.00,0.0604
1424.00,0.0623
1423.00,0.0639
1422.00,0.0647
1421.00,0.0650
1420.00,0.0646
1419.00,0.0633
1418.00,0.0610
1417.00,0.0582
1416.00,0.0550
1415.00,0.0517
1414.00,0.0484
1413.00,0.0454
1412.00,0.0428
1411.00,0.0405
1410.00,0.0387
1409.00,0.0374
1408.00,0.0364
1407.00,0.0357
1406.00,0.0353
1405.00,0.0351
1404.00,0.0350
1403.00,0.0348
1402.00,0.0345
1401.00,0.0339
1400.00,0.0331
1399.00,0.0320
1398.00,0.0307
1397.00,0.0293
1396.00,0.0278
1395.00,0.0263
1394.00,0.0250
1393.00,0.0239
1392.00,0.0230
1391.00,0.0223
1390.00,0.0218
1389.00,0.0215
1388.00,0.0215
1387.00,0.0218
1386.00,0.0223
1385.00,0.0228
1384.00,0.0235
1383.00,0.0243
1382.00,0.0251
1381.00,0.0259
1380.00,0.0266
1379.00,0.0272
1378.00,0.0276
1377.00,0.0279
1376.00,0.0280
1375.00,0.0280
1374.00,0.0279
1373.00,0.0278
1372.00,0.0275
1371.00,0.0272
1370.00,0.0269
1369.00,0.0265
1368.00,0.0262
1367.00,0.0259
1366.00,0.0257
1365.00,0.0256
1364.00,0.0256
1363.00,0.0258
1362.00,0.0259
1361.00,0.0258
1360.00,0.0254
1359.00,0.0247
1358.00,0.0237
1357.00,0.0226
1356.00,0.0214
1355.00,0.0203
1354.00,0.0193
1353.00,0.0186
1352.00,0.0180
1351.00,0.0175
1350.00,0.0172
1349.00,0.0169
1348.00,0.0167
1347.00,0.0165
1346.00,0.0164
1345.00,0.0163
1344.00,0.0162
1343.00,0.0161
1342.00,0.0161
1341.00,0.0161
1340.00,0.0162
1339.00,0.0163
1338.00,0.0164
1337.00,0.0166
1336.00,0.0168
1335.00,0.0171
1334.00,0.0173
1333.00,0.0176
1332.00,0.0180
1331.00,0.0183
1330.00,0.0187
1329.00,0.0192
1328.00,0.0197
1327.00,0.0202
1326.00,0.0209
1325.00,0.0216
1324.00,0.0224
1323.00,0.0232
1322.00,0.0239
1321.00,0.0247
1320.00,0.0253
1319.00,0.0258
1318.00,0.0262
1317.00,0.0263
1316.00,0.0263
1315.00,0.0261
1314.00,0.0258
1313.00,0.0254
1312.00,0.0249
1311.00,0.0245
1310.00,0.0242
1309.00,0.0240
1308.00,0.0240
1307.00,0.0241
1306.00,0.0243
1305.00,0.0247
1304.00,0.0252
1303.00,0.0259
1302.00,0.0268
1301.00,0.0280
1300.00,0.0294
1299.00,0.0312
1298.00,0.0334
1297.00,0.0360
1296.00,0.0389
1295.00,0.0422
1294.00,0.0457
1293.00,0.0494
1292.00,0.0531
1291.00,0.0567
1290.00,0.0601
1289.00,0.0632
1288.00,0.0659
1287.00,0.0681
1286.00,0.0696
1285.00,0.0704
1284.00,0.0706
1283.00,0.0701
1282.00,0.0691
1281.00,0.0679
1280.00,0.0665
1279.00,0.0653
1278.00,0.0643
1277.00,0.0638
1276.00,0.0637
1275.00,0.0639
1274.00,0.0643
1273.00,0.0647
1272.00,0.0651
1271.00,0.0651
1270.00,0.0649
1269.00,0.0642
1268.00,0.0630
1267.00,0.0615
1266.00,0.0596
1265.00,0.0574
1264.00,0.0551
1263.00,0.0526
1262.00,0.0502
1261.00,0.0478
1260.00,0.0454
1259.00,0.0432
1258.00,0.0412
1257.00,0.0393
1256.00,0.0375
1255.00,0.0359
1254.00,0.0345
1253.00,0.0333
1252.00,0.0323
1251.00,0.0314
1250.00,0.0308
1249.00,0.0304
1248.00,0.0302
1247.00,0.0302
1246.00,0.0305
1245.00,0.0309
1244.00,0.0314
1243.00,0.0320
1242.00,0.0326
1241.00,0.0332
1240.00,0.0337
1239.00,0.0342
1238.00,0.0346
1237.00,0.0350
1236.00,0.0354
1235.00,0.0357
1234.00,0.0360
1233.00,0.0363
1232.00,0.0365
1231.00,0.0366
1230.00,0.0366
1229.00,0.0365
1228.00,0.0363
1227.00,0.0362
1226.00,0.0360
1225.00,0.0358
1224.00,0.0357
1223.00,0.0356
1222.00,0.0355
1221.00,0.0354
1220.00,0.0352
1219.00,0.0350
1218.00,0.0348
1217.00,0.0344
1216.00,0.0338
1215.00,0.0330
1214.00,0.0321
1213.00,0.0311
1212.00,0.0300
1211.00,0.0289
1210.00,0.0279
1209.00,0.0270
1208.00,0.0262
1207.00,0.0255
1206.00,0.0249
1205.00,0.0246
1204.00,0.0244
1203.00,0.0244
1202.00,0.0245
1201.00,0.0248
1200.00,0.0253
1199.00,0.0260
1198.00,0.0266
1197.00,0.0273
1196.00,0.0280
1195.00,0.0285
1194.00,0.0287
1193.00,0.0287
1192.00,0.0283
1191.00,0.0277
1190.00,0.0268
1189.00,0.0258
1188.00,0.0248
1187.00,0.0238
1186.00,0.0230
1185.00,0.0223
1184.00,0.0216
1183.00,0.0211
1182.00,0.0207
1181.00,0.0204
1180.00,0.0202
1179.00,0.0202
1178.00,0.0202
1177.00,0.0203
1176.00,0.0204
1175.00,0.0206
1174.00,0.0208
1173.00,0.0211
1172.00,0.0213
1171.00,0.0216
1170.00,0.0218
1169.00,0.0221
1168.00,0.0222
1167.00,0.0223
1166.00,0.0225
1165.00,0.0227
1164.00,0.0230
1163.00,0.0234
1162.00,0.0239
1161.00,0.0246
1160.00,0.0253
1159.00,0.0260
1158.00,0.0266
1157.00,0.0269
1156.00,0.0270
1155.00,0.0267
1154.00,0.0261
1153.00,0.0252
1152.00,0.0242
1151.00,0.0231
1150.00,0.0219
1149.00,0.0208
1148.00,0.0197
1147.00,0.0187
1146.00,0.0179
1145.00,0.0171
1144.00,0.0165
1143.00,0.0160
1142.00,0.0155
1141.00,0.0152
1140.00,0.0150
1139.00,0.0150
1138.00,0.0152
1137.00,0.0157
1136.00,0.0164
1135.00,0.0174
1134.00,0.0188
1133.00,0.0203
1132.00,0.0218
1131.00,0.0230
1130.00,0.0239
1129.00,0.0241
1128.00,0.0237
1127.00,0.0227
1126.00,0.0215
1125.00,0.0201
1124.00,0.0189
1123.00,0.0178
1122.00,0.0170
1121.00,0.0163
1120.00,0.0158
1119.00,0.0154
1118.00,0.0152
1117.00,0.0151
1116.00,0.0150
1115.00,0.0150
1114.00,0.0151
1113.00,0.0152
1112.00,0.0152
1111.00,0.0153
1110.00,0.0154
1109.00,0.0156
1108.00,0.0158
1107.00,0.0161
1106.00,0.0164
1105.00,0.0168
1104.00,0.0173
1103.00,0.0178
1102.00,0.0183
1101.00,0.0186
1100.00,0.0188
1099.00,0.0187
1098.00,0.0185
1097.00,0.0181
1096.00,0.0176
1095.00,0.0171
1094.00,0.0166
1093.00,0.0161
1092.00,0.0157
1091.00,0.0153
1090.00,0.0150
1089.00,0.0148
1088.00,0.0146
1087.00,0.0144
1086.00,0.0143
1085.00,0.0143
1084.00,0.0143
1083.00,0.0144
1082.00,0.0145
1081.00,0.0147
1080.00,0.0150
1079.00,0.0153
1078.00,0.0156
1077.00,0.0161
1076.00,0.0165
1075.00,0.0169
1074.00,0.0174
1073.00,0.0178
1072.00,0.0183
1071.00,0.0190
1070.00,0.0197
1069.00,0.0206
1068.00,0.0217
1067.00,0.0229
1066.00,0.0244
1065.00,0.0261
1064.00,0.0279
1063.00,0.0297
1062.00,0.0317
1061.00,0.0335
1060.00,0.0350
1059.00,0.0362
1058.00,0.0369
1057.00,0.0371
1056.00,0.0366
1055.00,0.0355
1054.00,0.0339
1053.00,0.0319
1052.00,0.0297
1051.00,0.0277
1050.00,0.0258
1049.00,0.0243
1048.00,0.0230
1047.00,0.0221
1046.00,0.0214
1045.00,0.0210
1044.00,0.0207
1043.00,0.0206
1042.00,0.0205
1041.00,0.0206
1040.00,0.0207
1039.00,0.0209
1038.00,0.0211
1037.00,0.0213
1036.00,0.0215
1035.00,0.0218
1034.00,0.0221
1033.00,0.0225
1032.00,0.0228
1031.00,0.0231
1030.00,0.0232
1029.00,0.0230
1028.00,0.0227
1027.00,0.0222
1026.00,0.0216
1025.00,0.0212
1024.00,0.0208
1023.00,0.0206
1022.00,0.0205
1021.00,0.0205
1020.00,0.0206
1019.00,0.0206
1018.00,0.0206
1017.00,0.0205
1016.00,0.0202
1015.00,0.0198
1014.00,0.0193
1013.00,0.0187
1012.00,0.0181
1011.00,0.0176
1010.00,0.0172
1009.00,0.0171
1008.00,0.0171
1007.00,0.0173
1006.00,0.0177
1005.00,0.0182
1004.00,0.0186
1003.00,0.0190
1002.00,0.0192
1001.00,0.0191
1000.00,0.0189
999.00,0.0185
998.00,0.0181
997.00,0.0176
996.00,0.0172
995.00,0.0167
994.00,0.0163
993.00,0.0159
992.00,0.0156
991.00,0.0152
990.00,0.0148
989.00,0.0144
988.00,0.0141
987.00,0.0138
986.00,0.0135
985.00,0.0133
984.00,0.0130
983.00,0.0129
982.00,0.0127
981.00,0.0126
980.00,0.0126
979.00,0.0125
978.00,0.0126
977.00,0.0126
976.00,0.0125
975.00,0.0125
974.00,0.0124
973.00,0.0123
972.00,0.0122
971.00,0.0120
970.00,0.0118
969.00,0.0117
968.00,0.0115
967.00,0.0114
966.00,0.0113
965.00,0.0113
964.00,0.0111
963.00,0.0110
962.00,0.0109
961.00,0.0107
960.00,0.0106
959.00,0.0105
958.00,0.0103
957.00,0.0102
956.00,0.0101
955.00,0.0100
954.00,0.0100
953.00,0.0099
952.00,0.0099
951.00,0.0099
950.00,0.0100
949.00,0.0100
948.00,0.0099
947.00,0.0100
946.00,0.0100
945.00,0.0101
944.00,0.0103
943.00,0.0105
942.00,0.0108
941.00,0.0112
940.00,0.0116
939.00,0.0122
938.00,0.0128
937.00,0.0135
936.00,0.0142
935.00,0.0147
934.00,0.0152
933.00,0.0154
932.00,0.0154
931.00,0.0153
930.00,0.0151
929.00,0.0149
928.00,0.0148
927.00,0.0147
926.00,0.0146
925.00,0.0145
924.00,0.0144
923.00,0.0143
922.00,0.0141
921.00,0.0138
920.00,0.0136
919.00,0.0133
918.00,0.0131
917.00,0.0128
916.00,0.0125
915.00,0.0123
914.00,0.0121
913.00,0.0119
912.00,0.0118
911.00,0.0118
910.00,0.0118
909.00,0.0120
908.00,0.0121
907.00,0.0123
906.00,0.0125
905.00,0.0129
904.00,0.0133
903.00,0.0138
902.00,0.0144
901.00,0.0149
900.00,0.0154
899.00,0.0158
898.00,0.0161
897.00,0.0163
896.00,0.0164
895.00,0.0163
894.00,0.0160
893.00,0.0157
892.00,0.0153
891.00,0.0149
890.00,0.0145
889.00,0.0143
888.00,0.0141
887.00,0.0140
886.00,0.0139
885.00,0.0139
884.00,0.0140
883.00,0.0142
882.00,0.0144
881.00,0.0147
880.00,0.0151
879.00,0.0156
878.00,0.0162
877.00,0.0167
876.00,0.0173
875.00,0.0179
874.00,0.0185
873.00,0.0190
872.00,0.0194
871.00,0.0197
870.00,0.0200
869.00,0.0201
868.00,0.0202
867.00,0.0202
866.00,0.0202
865.00,0.0202
864.00,0.0203
863.00,0.0204
862.00,0.0206
861.00,0.0207
860.00,0.0209
859.00,0.0211
858.00,0.0213
857.00,0.0217
856.00,0.0221
855.00,0.0226
854.00,0.0231
853.00,0.0237
852.00,0.0242
851.00,0.0248
850.00,0.0254
849.00,0.0260
848.00,0.0265
847.00,0.0269
846.00,0.0272
845.00,0.0274
844.00,0.0274
843.00,0.0274
842.00,0.0274
841.00,0.0273
840.00,0.0272
839.00,0.0271
838.00,0.0271
837.00,0.0270
836.00,0.0269
835.00,0.0268
834.00,0.0267
833.00,0.0266
832.00,0.0266
831.00,0.0265
830.00,0.0264
829.00,0.0262
828.00,0.0260
827.00,0.0258
826.00,0.0256
825.00,0.0255
824.00,0.0254
823.00,0.0253
822.00,0.0254
821.00,0.0255
820.00,0.0256
819.00,0.0258
818.00,0.0259
817.00,0.0260
816.00,0.0261
815.00,0.0261
814.00,0.0260
813.00,0.0258
812.00,0.0254
811.00,0.0248
810.00,0.0240
809.00,0.0230
808.00,0.0218
807.00,0.0206
806.00,0.0194
805.00,0.0184
804.00,0.0175
803.00,0.0168
802.00,0.0163
801.00,0.0159
800.00,0.0156
799.00,0.0154
798.00,0.0152
797.00,0.0151
796.00,0.0151
795.00,0.0151
794.00,0.0152
793.00,0.0152
792.00,0.0152
791.00,0.0152
790.00,0.0152
789.00,0.0153
788.00,0.0153
787.00,0.0153
786.00,0.0152
785.00,0.0152
784.00,0.0152
783.00,0.0153
782.00,0.0154
781.00,0.0156
780.00,0.0159
779.00,0.0161
778.00,0.0164
777.00,0.0165
776.00,0.0166
775.00,0.0165
774.00,0.0163
773.00,0.0161
772.00,0.0160
771.00,0.0160
770.00,0.0161
769.00,0.0163
768.00,0.0164
767.00,0.0166
766.00,0.0168
765.00,0.0170
764.00,0.0173
763.00,0.0176
762.00,0.0180
761.00,0.0183
760.00,0.0187
759.00,0.0192
758.00,0.0196
757.00,0.0200
756.00,0.0204
755.00,0.0208
754.00,0.0211
753.00,0.0215
752.00,0.0218
751.00,0.0222
750.00,0.0225
749.00,0.0229
748.00,0.0234
747.00,0.0238
746.00,0.0242
745.00,0.0247
744.00,0.0253
743.00,0.0259
742.00,0.0266
741.00,0.0273
740.00,0.0282
739.00,0.0290
738.00,0.0297
737.00,0.0302
736.00,0.0305
735.00,0.0304
734.00,0.0301
733.00,0.0296
732.00,0.0290
731.00,0.0284
730.00,0.0277
729.00,0.0270
728.00,0.0264
727.00,0.0257
726.00,0.0250
725.00,0.0243
724.00,0.0237
723.00,0.0231
722.00,0.0226
721.00,0.0222
720.00,0.0219
719.00,0.0217
718.00,0.0215
717.00,0.0214
716.00,0.0214
715.00,0.0213
714.00,0.0213
713.00,0.0212
712.00,0.0211
711.00,0.0210
710.00,0.0209
709.00,0.0208
708.00,0.0207
707.00,0.0206
706.00,0.0205
705.00,0.0204
704.00,0.0204
703.00,0.0204
702.00,0.0205
701.00,0.0206
700.00,0.0208
699.00,0.0211
698.00,0.0214
697.00,0.0219
696.00,0.0225
695.00,0.0231
694.00,0.0237
693.00,0.0242
692.00,0.0247
691.00,0.0250
690.00,0.0253
689.00,0.0254
688.00,0.0256
687.00,0.0257
686.00,0.0257
685.00,0.0256
684.00,0.0255
683.00,0.0253
682.00,0.0253
681.00,0.0253
680.00,0.0255
679.00,0.0258
678.00,0.0261
677.00,0.0264
676.00,0.0267
675.00,0.0270
674.00,0.0273
673.00,0.0277
672.00,0.0281
671.00,0.0286
670.00,0.0292
669.00,0.0299
668.00,0.0308
667.00,0.0316
666.00,0.0320
665.00,0.0324
664.00,0.0329
663.00,0.0334
662.00,0.0341
661.00,0.0349
660.00,0.0357
659.00,0.0365
658.00,0.0373
657.00,0.0381
656.00,0.0389
655.00,0.0398
654.00,0.0405
653.00,0.0412
652.00,0.0419
651.00,0.0425
650.00,0.0429
649.00,0.0432
648.00,0.0433
647.00,0.0432
646.00,0.0431
645.00,0.0428
644.00,0.0424
643.00,0.0418
642.00,0.0412
641.00,0.0404
640.00,0.0397
639.00,0.0390
638.00,0.0383
637.00,0.0377
636.00,0.0371
635.00,0.0365
634.00,0.0359
633.00,0.0354
632.00,0.0350
631.00,0.0346
630.00,0.0343
629.00,0.0341
628.00,0.0338
627.00,0.0336
626.00,0.0335
625.00,0.0334
624.00,0.0333
623.00,0.0331
622.00,0.0329
621.00,0.0327
620.00,0.0325
619.00,0.0323
618.00,0.0321
617.00,0.0319
616.00,0.0318
615.00,0.0318
614.00,0.0318
613.00,0.0318
612.00,0.0319
611.00,0.0320
610.00,0.0323
609.00,0.0325
608.00,0.0327
607.00,0.0329
606.00,0.0331
605.00,0.0333
604.00,0.0334
603.00,0.0336
602.00,0.0337
601.00,0.0339
600.00,0.0340
599.00,0.0341
598.00,0.0342
597.00,0.0343
596.00,0.0343
595.00,0.0343
594.00,0.0343
593.00,0.0343
592.00,0.0345
591.00,0.0349
590.00,0.0354
589.00,0.0361
588.00,0.0369
587.00,0.0381
586.00,0.0394
585.00,0.0409
584.00,0.0423
583.00,0.0433
582.00,0.0441
581.00,0.0446
580.00,0.0450
579.00,0.0453
578.00,0.0457
577.00,0.0461
576.00,0.0465
575.00,0.0467
574.00,0.0468
573.00,0.0469
572.00,0.0469
571.00,0.0469
570.00,0.0469
569.00,0.0468
568.00,0.0465
567.00,0.0462
566.00,0.0459
565.00,0.0456
564.00,0.0452
563.00,0.0447
562.00,0.0441
561.00,0.0435
560.00,0.0429
559.00,0.0425
558.00,0.0422
557.00,0.0421
556.00,0.0419
555.00,0.0415
554.00,0.0410
553.00,0.0404
552.00,0.0399
551.00,0.0396
550.00,0.0393
549.00,0.0390
548.00,0.0386
547.00,0.0382
546.00,0.0378
545.00,0.0373
544.00,0.0369
543.00,0.0366
542.00,0.0363
541.00,0.0361
540.00,0.0360
539.00,0.0361
538.00,0.0363
537.00,0.0365
536.00,0.0368
535.00,0.0371
534.00,0.0374
533.00,0.0378
532.00,0.0381
531.00,0.0383
530.00,0.0384
529.00,0.0383
528.00,0.0380
527.00,0.0378
526.00,0.0374
525.00,0.0371
524.00,0.0366
523.00,0.0361
522.00,0.0357
521.00,0.0355
520.00,0.0354
519.00,0.0354
518.00,0.0353
517.00,0.0352
516.00,0.0350
515.00,0.0349
514.00,0.0349
513.00,0.0347
512.00,0.0347
511.00,0.0348
510.00,0.0350
509.00,0.0353
508.00,0.0354
507.00,0.0354
506.00,0.0353
505.00,0.0352
504.00,0.0352
503.00,0.0353
502.00,0.0354
501.00,0.0353
500.00,0.0351
499.00,0.0349
498.00,0.0347
497.00,0.0345
496.00,0.0344
495.00,0.0343
494.00,0.0344
493.00,0.0345
492.00,0.0346
491.00,0.0347
490.00,0.0349
489.00,0.0352
488.00,0.0354
487.00,0.0356
486.00,0.0357
485.00,0.0360
484.00,0.0363
483.00,0.0365
482.00,0.0365
481.00,0.0364
480.00,0.0363
479.00,0.0361
478.00,0.0360
477.00,0.0359
476.00,0.0358
475.00,0.0358
474.00,0.0360
473.00,0.0363
472.00,0.0365
471.00,0.0364
470.00,0.0362
469.00,0.0361
468.00,0.0360
467.00,0.0360
466.00,0.0362
465.00,0.0365
464.00,0.0367
463.00,0.0368
462.00,0.0367
461.00,0.0366
460.00,0.0365
459.00,0.0364
458.00,0.0361
457.00,0.0357
456.00,0.0354
455.00,0.0352
454.00,0.0351
453.00,0.0350
452.00,0.0350
451.00,0.0350
450.00,0.0349
449.00,0.0349
448.00,0.0348
447.00,0.0348
446.00,0.0348
445.00,0.0348
444.00,0.0348
443.00,0.0347
442.00,0.0347
441.00,0.0346
440.00,0.0344
439.00,0.0342
438.00,0.0342
437.00,0.0342
436.00,0.0343
435.00,0.0342
434.00,0.0341
433.00,0.0340
432.00,0.0340
431.00,0.0340
430.00,0.0341
429.00,0.0343
428.00,0.0342
427.00,0.0339
426.00,0.0335
425.00,0.0332
424.00,0.0331
423.00,0.0331
422.00,0.0332
421.00,0.0332
420.00,0.0335
419.00,0.0339
418.00,0.0341
417.00,0.0341
416.00,0.0341
415.00,0.0341
414.00,0.0343
413.00,0.0347
412.00,0.0352
411.00,0.0357
410.00,0.0362
409.00,0.0366
408.00,0.0367
407.00,0.0363
406.00,0.0355
405.00,0.0347
404.00,0.0343
403.00,0.0343
402.00,0.0345
401.00,0.0351
400.00,0.0356
