Created as New Dataset,Sample 844 By YargerLab Date Monday, July 21 2025
cm-1,A
4000.00,0.0061
3999.00,0.0061
3998.00,0.0061
3997.00,0.0061
3996.00,0.0061
3995.00,0.0061
3994.00,0.0061
3993.00,0.0060
3992.00,0.0060
3991.00,0.0060
3990.00,0.0060
3989.00,0.0060
3988.00,0.0060
3987.00,0.0060
3986.00,0.0060
3985.00,0.0060
3984.00,0.0060
3983.00,0.0060
3982.00,0.0060
3981.00,0.0060
3980.00,0.0060
3979.00,0.0060
3978.00,0.0060
3977.00,0.0060
3976.00,0.0060
3975.00,0.0060
3974.00,0.0060
3973.00,0.0061
3972.00,0.0061
3971.00,0.0061
3970.00,0.0061
3969.00,0.0061
3968.00,0.0061
3967.00,0.0061
3966.00,0.0061
3965.00,0.0061
3964.00,0.0061
3963.00,0.0061
3962.00,0.0061
3961.00,0.0061
3960.00,0.0061
3959.00,0.0061
3958.00,0.0061
3957.00,0.0061
3956.00,0.0061
3955.00,0.0061
3954.00,0.0061
3953.00,0.0061
3952.00,0.0061
3951.00,0.0061
3950.00,0.0060
3949.00,0.0060
3948.00,0.0060
3947.00,0.0060
3946.00,0.0060
3945.00,0.0061
3944.00,0.0061
3943.00,0.0061
3942.00,0.0061
3941.00,0.0060
3940.00,0.0060
3939.00,0.0060
3938.00,0.0060
3937.00,0.0060
3936.00,0.0061
3935.00,0.0061
3934.00,0.0061
3933.00,0.0062
3932.00,0.0062
3931.00,0.0062
3930.00,0.0061
3929.00,0.0062
3928.00,0.0062
3927.00,0.0062
3926.00,0.0062
3925.00,0.0062
3924.00,0.0062
3923.00,0.0062
3922.00,0.0062
3921.00,0.0062
3920.00,0.0062
3919.00,0.0062
3918.00,0.0061
3917.00,0.0061
3916.00,0.0061
3915.00,0.0061
3914.00,0.0061
3913.00,0.0061
3912.00,0.0061
3911.00,0.0062
3910.00,0.0062
3909.00,0.0062
3908.00,0.0061
3907.00,0.0061
3906.00,0.0061
3905.00,0.0060
3904.00,0.0060
3903.00,0.0060
3902.00,0.0060
3901.00,0.0060
3900.00,0.0060
3899.00,0.0060
3898.00,0.0060
3897.00,0.0060
3896.00,0.0060
3895.00,0.0060
3894.00,0.0060
3893.00,0.0059
3892.00,0.0059
3891.00,0.0059
3890.00,0.0059
3889.00,0.0059
3888.00,0.0059
3887.00,0.0059
3886.00,0.0059
3885.00,0.0059
3884.00,0.0059
3883.00,0.0059
3882.00,0.0059
3881.00,0.0059
3880.00,0.0059
3879.00,0.0059
3878.00,0.0059
3877.00,0.0059
3876.00,0.0059
3875.00,0.0059
3874.00,0.0058
3873.00,0.0058
3872.00,0.0058
3871.00,0.0058
3870.00,0.0058
3869.00,0.0058
3868.00,0.0058
3867.00,0.0058
3866.00,0.0058
3865.00,0.0058
3864.00,0.0058
3863.00,0.0058
3862.00,0.0058
3861.00,0.0058
3860.00,0.0058
3859.00,0.0058
3858.00,0.0058
3857.00,0.0058
3856.00,0.0057
3855.00,0.0058
3854.00,0.0058
3853.00,0.0057
3852.00,0.0057
3851.00,0.0057
3850.00,0.0057
3849.00,0.0057
3848.00,0.0058
3847.00,0.0059
3846.00,0.0059
3845.00,0.0059
3844.00,0.0059
3843.00,0.0058
3842.00,0.0058
3841.00,0.0058
3840.00,0.0058
3839.00,0.0058
3838.00,0.0058
3837.00,0.0058
3836.00,0.0058
3835.00,0.0058
3834.00,0.0058
3833.00,0.0058
3832.00,0.0058
3831.00,0.0058
3830.00,0.0058
3829.00,0.0058
3828.00,0.0058
3827.00,0.0058
3826.00,0.0058
3825.00,0.0058
3824.00,0.0058
3823.00,0.0057
3822.00,0.0057
3821.00,0.0057
3820.00,0.0057
3819.00,0.0057
3818.00,0.0057
3817.00,0.0057
3816.00,0.0057
3815.00,0.0057
3814.00,0.0057
3813.00,0.0058
3812.00,0.0057
3811.00,0.0057
3810.00,0.0058
3809.00,0.0058
3808.00,0.0058
3807.00,0.0058
3806.00,0.0058
3805.00,0.0057
3804.00,0.0057
3803.00,0.0057
3802.00,0.0057
3801.00,0.0057
3800.00,0.0056
3799.00,0.0056
3798.00,0.0057
3797.00,0.0057
3796.00,0.0057
3795.00,0.0057
3794.00,0.0057
3793.00,0.0058
3792.00,0.0058
3791.00,0.0058
3790.00,0.0057
3789.00,0.0057
3788.00,0.0057
3787.00,0.0057
3786.00,0.0057
3785.00,0.0058
3784.00,0.0058
3783.00,0.0058
3782.00,0.0057
3781.00,0.0057
3780.00,0.0057
3779.00,0.0057
3778.00,0.0058
3777.00,0.0058
3776.00,0.0058
3775.00,0.0058
3774.00,0.0058
3773.00,0.0058
3772.00,0.0058
3771.00,0.0058
3770.00,0.0058
3769.00,0.0058
3768.00,0.0057
3767.00,0.0057
3766.00,0.0057
3765.00,0.0057
3764.00,0.0057
3763.00,0.0057
3762.00,0.0057
3761.00,0.0056
3760.00,0.0056
3759.00,0.0056
3758.00,0.0056
3757.00,0.0056
3756.00,0.0056
3755.00,0.0056
3754.00,0.0056
3753.00,0.0056
3752.00,0.0056
3751.00,0.0055
3750.00,0.0055
3749.00,0.0055
3748.00,0.0054
3747.00,0.0054
3746.00,0.0054
3745.00,0.0054
3744.00,0.0054
3743.00,0.0054
3742.00,0.0055
3741.00,0.0055
3740.00,0.0055
3739.00,0.0055
3738.00,0.0055
3737.00,0.0055
3736.00,0.0054
3735.00,0.0054
3734.00,0.0054
3733.00,0.0054
3732.00,0.0054
3731.00,0.0054
3730.00,0.0054
3729.00,0.0054
3728.00,0.0054
3727.00,0.0054
3726.00,0.0055
3725.00,0.0055
3724.00,0.0055
3723.00,0.0054
3722.00,0.0054
3721.00,0.0054
3720.00,0.0054
3719.00,0.0054
3718.00,0.0054
3717.00,0.0054
3716.00,0.0055
3715.00,0.0055
3714.00,0.0055
3713.00,0.0054
3712.00,0.0054
3711.00,0.0054
3710.00,0.0053
3709.00,0.0053
3708.00,0.0053
3707.00,0.0053
3706.00,0.0053
3705.00,0.0053
3704.00,0.0054
3703.00,0.0054
3702.00,0.0054
3701.00,0.0054
3700.00,0.0054
3699.00,0.0054
3698.00,0.0053
3697.00,0.0053
3696.00,0.0053
3695.00,0.0053
3694.00,0.0053
3693.00,0.0053
3692.00,0.0053
3691.00,0.0053
3690.00,0.0053
3689.00,0.0053
3688.00,0.0053
3687.00,0.0053
3686.00,0.0053
3685.00,0.0053
3684.00,0.0054
3683.00,0.0054
3682.00,0.0054
3681.00,0.0054
3680.00,0.0054
3679.00,0.0054
3678.00,0.0054
3677.00,0.0053
3676.00,0.0053
3675.00,0.0053
3674.00,0.0052
3673.00,0.0052
3672.00,0.0052
3671.00,0.0052
3670.00,0.0052
3669.00,0.0053
3668.00,0.0053
3667.00,0.0053
3666.00,0.0053
3665.00,0.0054
3664.00,0.0054
3663.00,0.0054
3662.00,0.0054
3661.00,0.0054
3660.00,0.0054
3659.00,0.0053
3658.00,0.0053
3657.00,0.0053
3656.00,0.0053
3655.00,0.0053
3654.00,0.0052
3653.00,0.0052
3652.00,0.0052
3651.00,0.0052
3650.00,0.0052
3649.00,0.0051
3648.00,0.0051
3647.00,0.0051
3646.00,0.0052
3645.00,0.0052
3644.00,0.0052
3643.00,0.0052
3642.00,0.0052
3641.00,0.0052
3640.00,0.0052
3639.00,0.0052
3638.00,0.0052
3637.00,0.0052
3636.00,0.0052
3635.00,0.0052
3634.00,0.0052
3633.00,0.0052
3632.00,0.0051
3631.00,0.0051
3630.00,0.0051
3629.00,0.0051
3628.00,0.0051
3627.00,0.0051
3626.00,0.0052
3625.00,0.0052
3624.00,0.0052
3623.00,0.0052
3622.00,0.0052
3621.00,0.0052
3620.00,0.0052
3619.00,0.0052
3618.00,0.0052
3617.00,0.0052
3616.00,0.0052
3615.00,0.0052
3614.00,0.0052
3613.00,0.0052
3612.00,0.0052
3611.00,0.0053
3610.00,0.0053
3609.00,0.0053
3608.00,0.0053
3607.00,0.0053
3606.00,0.0053
3605.00,0.0053
3604.00,0.0053
3603.00,0.0053
3602.00,0.0053
3601.00,0.0054
3600.00,0.0054
3599.00,0.0054
3598.00,0.0054
3597.00,0.0054
3596.00,0.0054
3595.00,0.0054
3594.00,0.0054
3593.00,0.0054
3592.00,0.0054
3591.00,0.0054
3590.00,0.0054
3589.00,0.0054
3588.00,0.0054
3587.00,0.0054
3586.00,0.0054
3585.00,0.0054
3584.00,0.0054
3583.00,0.0054
3582.00,0.0055
3581.00,0.0055
3580.00,0.0056
3579.00,0.0056
3578.00,0.0057
3577.00,0.0057
3576.00,0.0057
3575.00,0.0057
3574.00,0.0058
3573.00,0.0058
3572.00,0.0059
3571.00,0.0059
3570.00,0.0060
3569.00,0.0060
3568.00,0.0060
3567.00,0.0060
3566.00,0.0060
3565.00,0.0060
3564.00,0.0061
3563.00,0.0061
3562.00,0.0062
3561.00,0.0063
3560.00,0.0064
3559.00,0.0065
3558.00,0.0066
3557.00,0.0066
3556.00,0.0067
3555.00,0.0068
3554.00,0.0069
3553.00,0.0070
3552.00,0.0071
3551.00,0.0073
3550.00,0.0074
3549.00,0.0075
3548.00,0.0077
3547.00,0.0079
3546.00,0.0081
3545.00,0.0084
3544.00,0.0086
3543.00,0.0089
3542.00,0.0093
3541.00,0.0096
3540.00,0.0100
3539.00,0.0104
3538.00,0.0109
3537.00,0.0115
3536.00,0.0121
3535.00,0.0128
3534.00,0.0137
3533.00,0.0146
3532.00,0.0158
3531.00,0.0172
3530.00,0.0187
3529.00,0.0206
3528.00,0.0226
3527.00,0.0248
3526.00,0.0270
3525.00,0.0291
3524.00,0.0311
3523.00,0.0328
3522.00,0.0341
3521.00,0.0351
3520.00,0.0355
3519.00,0.0356
3518.00,0.0353
3517.00,0.0345
3516.00,0.0335
3515.00,0.0323
3514.00,0.0309
3513.00,0.0294
3512.00,0.0279
3511.00,0.0264
3510.00,0.0250
3509.00,0.0237
3508.00,0.0226
3507.00,0.0216
3506.00,0.0208
3505.00,0.0201
3504.00,0.0195
3503.00,0.0190
3502.00,0.0185
3501.00,0.0182
3500.00,0.0179
3499.00,0.0177
3498.00,0.0176
3497.00,0.0175
3496.00,0.0174
3495.00,0.0174
3494.00,0.0174
3493.00,0.0174
3492.00,0.0175
3491.00,0.0176
3490.00,0.0177
3489.00,0.0178
3488.00,0.0179
3487.00,0.0181
3486.00,0.0182
3485.00,0.0184
3484.00,0.0186
3483.00,0.0188
3482.00,0.0190
3481.00,0.0192
3480.00,0.0195
3479.00,0.0197
3478.00,0.0200
3477.00,0.0203
3476.00,0.0206
3475.00,0.0210
3474.00,0.0213
3473.00,0.0217
3472.00,0.0221
3471.00,0.0225
3470.00,0.0229
3469.00,0.0233
3468.00,0.0237
3467.00,0.0241
3466.00,0.0245
3465.00,0.0250
3464.00,0.0254
3463.00,0.0259
3462.00,0.0264
3461.00,0.0268
3460.00,0.0273
3459.00,0.0278
3458.00,0.0283
3457.00,0.0288
3456.00,0.0292
3455.00,0.0297
3454.00,0.0302
3453.00,0.0306
3452.00,0.0311
3451.00,0.0315
3450.00,0.0320
3449.00,0.0325
3448.00,0.0329
3447.00,0.0333
3446.00,0.0337
3445.00,0.0341
3444.00,0.0345
3443.00,0.0349
3442.00,0.0354
3441.00,0.0358
3440.00,0.0362
3439.00,0.0366
3438.00,0.0371
3437.00,0.0375
3436.00,0.0379
3435.00,0.0383
3434.00,0.0387
3433.00,0.0390
3432.00,0.0394
3431.00,0.0398
3430.00,0.0401
3429.00,0.0405
3428.00,0.0409
3427.00,0.0413
3426.00,0.0417
3425.00,0.0421
3424.00,0.0426
3423.00,0.0432
3422.00,0.0437
3421.00,0.0443
3420.00,0.0449
3419.00,0.0455
3418.00,0.0462
3417.00,0.0469
3416.00,0.0476
3415.00,0.0483
3414.00,0.0490
3413.00,0.0495
3412.00,0.0500
3411.00,0.0504
3410.00,0.0507
3409.00,0.0509
3408.00,0.0509
3407.00,0.0508
3406.00,0.0505
3405.00,0.0500
3404.00,0.0493
3403.00,0.0485
3402.00,0.0476
3401.00,0.0465
3400.00,0.0452
3399.00,0.0439
3398.00,0.0425
3397.00,0.0411
3396.00,0.0397
3395.00,0.0384
3394.00,0.0370
3393.00,0.0357
3392.00,0.0344
3391.00,0.0332
3390.00,0.0321
3389.00,0.0310
3388.00,0.0300
3387.00,0.0291
3386.00,0.0282
3385.00,0.0274
3384.00,0.0266
3383.00,0.0259
3382.00,0.0252
3381.00,0.0246
3380.00,0.0241
3379.00,0.0235
3378.00,0.0230
3377.00,0.0225
3376.00,0.0220
3375.00,0.0215
3374.00,0.0210
3373.00,0.0206
3372.00,0.0202
3371.00,0.0199
3370.00,0.0195
3369.00,0.0191
3368.00,0.0187
3367.00,0.0184
3366.00,0.0181
3365.00,0.0177
3364.00,0.0174
3363.00,0.0171
3362.00,0.0168
3361.00,0.0165
3360.00,0.0162
3359.00,0.0159
3358.00,0.0157
3357.00,0.0154
3356.00,0.0152
3355.00,0.0150
3354.00,0.0148
3353.00,0.0146
3352.00,0.0144
3351.00,0.0142
3350.00,0.0140
3349.00,0.0138
3348.00,0.0137
3347.00,0.0135
3346.00,0.0133
3345.00,0.0131
3344.00,0.0130
3343.00,0.0128
3342.00,0.0127
3341.00,0.0125
3340.00,0.0124
3339.00,0.0123
3338.00,0.0121
3337.00,0.0120
3336.00,0.0119
3335.00,0.0118
3334.00,0.0117
3333.00,0.0116
3332.00,0.0115
3331.00,0.0114
3330.00,0.0113
3329.00,0.0111
3328.00,0.0110
3327.00,0.0109
3326.00,0.0108
3325.00,0.0107
3324.00,0.0106
3323.00,0.0105
3322.00,0.0104
3321.00,0.0104
3320.00,0.0103
3319.00,0.0102
3318.00,0.0102
3317.00,0.0101
3316.00,0.0100
3315.00,0.0099
3314.00,0.0098
3313.00,0.0098
3312.00,0.0097
3311.00,0.0096
3310.00,0.0096
3309.00,0.0095
3308.00,0.0094
3307.00,0.0094
3306.00,0.0093
3305.00,0.0093
3304.00,0.0092
3303.00,0.0092
3302.00,0.0091
3301.00,0.0091
3300.00,0.0090
3299.00,0.0089
3298.00,0.0088
3297.00,0.0088
3296.00,0.0087
3295.00,0.0087
3294.00,0.0086
3293.00,0.0086
3292.00,0.0086
3291.00,0.0085
3290.00,0.0085
3289.00,0.0085
3288.00,0.0084
3287.00,0.0083
3286.00,0.0083
3285.00,0.0082
3284.00,0.0082
3283.00,0.0082
3282.00,0.0081
3281.00,0.0081
3280.00,0.0080
3279.00,0.0080
3278.00,0.0079
3277.00,0.0079
3276.00,0.0079
3275.00,0.0078
3274.00,0.0078
3273.00,0.0078
3272.00,0.0077
3271.00,0.0077
3270.00,0.0077
3269.00,0.0077
3268.00,0.0078
3267.00,0.0078
3266.00,0.0077
3265.00,0.0077
3264.00,0.0077
3263.00,0.0077
3262.00,0.0077
3261.00,0.0077
3260.00,0.0077
3259.00,0.0076
3258.00,0.0076
3257.00,0.0076
3256.00,0.0075
3255.00,0.0075
3254.00,0.0075
3253.00,0.0075
3252.00,0.0075
3251.00,0.0075
3250.00,0.0075
3249.00,0.0074
3248.00,0.0074
3247.00,0.0074
3246.00,0.0074
3245.00,0.0074
3244.00,0.0074
3243.00,0.0074
3242.00,0.0074
3241.00,0.0073
3240.00,0.0073
3239.00,0.0073
3238.00,0.0073
3237.00,0.0072
3236.00,0.0072
3235.00,0.0071
3234.00,0.0071
3233.00,0.0071
3232.00,0.0071
3231.00,0.0070
3230.00,0.0070
3229.00,0.0070
3228.00,0.0070
3227.00,0.0071
3226.00,0.0071
3225.00,0.0070
3224.00,0.0070
3223.00,0.0070
3222.00,0.0070
3221.00,0.0070
3220.00,0.0070
3219.00,0.0070
3218.00,0.0070
3217.00,0.0070
3216.00,0.0070
3215.00,0.0069
3214.00,0.0069
3213.00,0.0069
3212.00,0.0069
3211.00,0.0069
3210.00,0.0069
3209.00,0.0069
3208.00,0.0069
3207.00,0.0069
3206.00,0.0069
3205.00,0.0069
3204.00,0.0069
3203.00,0.0069
3202.00,0.0069
3201.00,0.0069
3200.00,0.0068
3199.00,0.0068
3198.00,0.0068
3197.00,0.0068
3196.00,0.0068
3195.00,0.0068
3194.00,0.0068
3193.00,0.0068
3192.00,0.0068
3191.00,0.0068
3190.00,0.0068
3189.00,0.0068
3188.00,0.0068
3187.00,0.0068
3186.00,0.0068
3185.00,0.0068
3184.00,0.0068
3183.00,0.0068
3182.00,0.0068
3181.00,0.0068
3180.00,0.0068
3179.00,0.0068
3178.00,0.0068
3177.00,0.0068
3176.00,0.0068
3175.00,0.0068
3174.00,0.0068
3173.00,0.0068
3172.00,0.0068
3171.00,0.0069
3170.00,0.0069
3169.00,0.0069
3168.00,0.0069
3167.00,0.0070
3166.00,0.0070
3165.00,0.0070
3164.00,0.0069
3163.00,0.0069
3162.00,0.0069
3161.00,0.0069
3160.00,0.0069
3159.00,0.0069
3158.00,0.0069
3157.00,0.0068
3156.00,0.0068
3155.00,0.0068
3154.00,0.0067
3153.00,0.0067
3152.00,0.0067
3151.00,0.0067
3150.00,0.0068
3149.00,0.0068
3148.00,0.0068
3147.00,0.0067
3146.00,0.0067
3145.00,0.0067
3144.00,0.0067
3143.00,0.0067
3142.00,0.0067
3141.00,0.0066
3140.00,0.0066
3139.00,0.0066
3138.00,0.0066
3137.00,0.0066
3136.00,0.0066
3135.00,0.0067
3134.00,0.0067
3133.00,0.0067
3132.00,0.0067
3131.00,0.0067
3130.00,0.0067
3129.00,0.0066
3128.00,0.0066
3127.00,0.0066
3126.00,0.0066
3125.00,0.0066
3124.00,0.0066
3123.00,0.0066
3122.00,0.0066
3121.00,0.0066
3120.00,0.0066
3119.00,0.0066
3118.00,0.0066
3117.00,0.0066
3116.00,0.0066
3115.00,0.0066
3114.00,0.0066
3113.00,0.0066
3112.00,0.0066
3111.00,0.0066
3110.00,0.0066
3109.00,0.0066
3108.00,0.0066
3107.00,0.0066
3106.00,0.0066
3105.00,0.0066
3104.00,0.0066
3103.00,0.0066
3102.00,0.0066
3101.00,0.0067
3100.00,0.0067
3099.00,0.0067
3098.00,0.0068
3097.00,0.0068
3096.00,0.0068
3095.00,0.0068
3094.00,0.0068
3093.00,0.0068
3092.00,0.0069
3091.00,0.0069
3090.00,0.0069
3089.00,0.0070
3088.00,0.0070
3087.00,0.0071
3086.00,0.0072
3085.00,0.0073
3084.00,0.0074
3083.00,0.0077
3082.00,0.0080
3081.00,0.0085
3080.00,0.0091
3079.00,0.0099
3078.00,0.0107
3077.00,0.0116
3076.00,0.0124
3075.00,0.0129
3074.00,0.0131
3073.00,0.0128
3072.00,0.0123
3071.00,0.0115
3070.00,0.0107
3069.00,0.0099
3068.00,0.0093
3067.00,0.0088
3066.00,0.0084
3065.00,0.0082
3064.00,0.0080
3063.00,0.0078
3062.00,0.0077
3061.00,0.0076
3060.00,0.0075
3059.00,0.0075
3058.00,0.0074
3057.00,0.0073
3056.00,0.0073
3055.00,0.0073
3054.00,0.0072
3053.00,0.0072
3052.00,0.0072
3051.00,0.0072
3050.00,0.0073
3049.00,0.0073
3048.00,0.0074
3047.00,0.0075
3046.00,0.0075
3045.00,0.0076
3044.00,0.0077
3043.00,0.0078
3042.00,0.0079
3041.00,0.0080
3040.00,0.0080
3039.00,0.0081
3038.00,0.0082
3037.00,0.0083
3036.00,0.0084
3035.00,0.0086
3034.00,0.0087
3033.00,0.0088
3032.00,0.0088
3031.00,0.0088
3030.00,0.0087
3029.00,0.0086
3028.00,0.0085
3027.00,0.0084
3026.00,0.0082
3025.00,0.0081
3024.00,0.0080
3023.00,0.0080
3022.00,0.0079
3021.00,0.0079
3020.00,0.0079
3019.00,0.0079
3018.00,0.0078
3017.00,0.0078
3016.00,0.0078
3015.00,0.0079
3014.00,0.0079
3013.00,0.0080
3012.00,0.0080
3011.00,0.0081
3010.00,0.0082
3009.00,0.0083
3008.00,0.0084
3007.00,0.0084
3006.00,0.0085
3005.00,0.0086
3004.00,0.0086
3003.00,0.0087
3002.00,0.0088
3001.00,0.0089
3000.00,0.0090
2999.00,0.0091
2998.00,0.0092
2997.00,0.0094
2996.00,0.0095
2995.00,0.0096
2994.00,0.0098
2993.00,0.0100
2992.00,0.0102
2991.00,0.0105
2990.00,0.0108
2989.00,0.0110
2988.00,0.0112
2987.00,0.0114
2986.00,0.0116
2985.00,0.0117
2984.00,0.0119
2983.00,0.0122
2982.00,0.0126
2981.00,0.0130
2980.00,0.0136
2979.00,0.0142
2978.00,0.0150
2977.00,0.0159
2976.00,0.0170
2975.00,0.0182
2974.00,0.0197
2973.00,0.0212
2972.00,0.0229
2971.00,0.0246
2970.00,0.0262
2969.00,0.0278
2968.00,0.0292
2967.00,0.0302
2966.00,0.0310
2965.00,0.0314
2964.00,0.0315
2963.00,0.0315
2962.00,0.0313
2961.00,0.0310
2960.00,0.0306
2959.00,0.0300
2958.00,0.0293
2957.00,0.0285
2956.00,0.0276
2955.00,0.0267
2954.00,0.0259
2953.00,0.0251
2952.00,0.0246
2951.00,0.0242
2950.00,0.0240
2949.00,0.0242
2948.00,0.0247
2947.00,0.0255
2946.00,0.0267
2945.00,0.0281
2944.00,0.0296
2943.00,0.0312
2942.00,0.0326
2941.00,0.0338
2940.00,0.0350
2939.00,0.0361
2938.00,0.0373
2937.00,0.0386
2936.00,0.0400
2935.00,0.0416
2934.00,0.0432
2933.00,0.0449
2932.00,0.0466
2931.00,0.0484
2930.00,0.0501
2929.00,0.0518
2928.00,0.0533
2927.00,0.0546
2926.00,0.0556
2925.00,0.0561
2924.00,0.0562
2923.00,0.0560
2922.00,0.0555
2921.00,0.0549
2920.00,0.0544
2919.00,0.0539
2918.00,0.0534
2917.00,0.0529
2916.00,0.0524
2915.00,0.0517
2914.00,0.0509
2913.00,0.0498
2912.00,0.0485
2911.00,0.0470
2910.00,0.0455
2909.00,0.0439
2908.00,0.0423
2907.00,0.0408
2906.00,0.0394
2905.00,0.0381
2904.00,0.0370
2903.00,0.0361
2902.00,0.0352
2901.00,0.0345
2900.00,0.0337
2899.00,0.0328
2898.00,0.0319
2897.00,0.0310
2896.00,0.0300
2895.00,0.0290
2894.00,0.0281
2893.00,0.0273
2892.00,0.0266
2891.00,0.0261
2890.00,0.0257
2889.00,0.0253
2888.00,0.0251
2887.00,0.0248
2886.00,0.0247
2885.00,0.0245
2884.00,0.0245
2883.00,0.0244
2882.00,0.0245
2881.00,0.0245
2880.00,0.0247
2879.00,0.0249
2878.00,0.0252
2877.00,0.0255
2876.00,0.0260
2875.00,0.0264
2874.00,0.0269
2873.00,0.0273
2872.00,0.0275
2871.00,0.0276
2870.00,0.0275
2869.00,0.0273
2868.00,0.0270
2867.00,0.0267
2866.00,0.0267
2865.00,0.0269
2864.00,0.0275
2863.00,0.0285
2862.00,0.0300
2861.00,0.0319
2860.00,0.0341
2859.00,0.0366
2858.00,0.0390
2857.00,0.0409
2856.00,0.0421
2855.00,0.0423
2854.00,0.0414
2853.00,0.0397
2852.00,0.0373
2851.00,0.0347
2850.00,0.0321
2849.00,0.0296
2848.00,0.0273
2847.00,0.0252
2846.00,0.0234
2845.00,0.0218
2844.00,0.0205
2843.00,0.0193
2842.00,0.0185
2841.00,0.0178
2840.00,0.0172
2839.00,0.0169
2838.00,0.0168
2837.00,0.0169
2836.00,0.0172
2835.00,0.0179
2834.00,0.0188
2833.00,0.0201
2832.00,0.0215
2831.00,0.0228
2830.00,0.0237
2829.00,0.0240
2828.00,0.0236
2827.00,0.0226
2826.00,0.0211
2825.00,0.0194
2824.00,0.0177
2823.00,0.0163
2822.00,0.0151
2821.00,0.0142
2820.00,0.0134
2819.00,0.0128
2818.00,0.0123
2817.00,0.0119
2816.00,0.0116
2815.00,0.0113
2814.00,0.0111
2813.00,0.0109
2812.00,0.0107
2811.00,0.0105
2810.00,0.0103
2809.00,0.0102
2808.00,0.0101
2807.00,0.0100
2806.00,0.0099
2805.00,0.0098
2804.00,0.0097
2803.00,0.0096
2802.00,0.0095
2801.00,0.0094
2800.00,0.0093
2799.00,0.0092
2798.00,0.0091
2797.00,0.0090
2796.00,0.0090
2795.00,0.0089
2794.00,0.0089
2793.00,0.0088
2792.00,0.0087
2791.00,0.0087
2790.00,0.0086
2789.00,0.0085
2788.00,0.0085
2787.00,0.0084
2786.00,0.0084
2785.00,0.0083
2784.00,0.0083
2783.00,0.0083
2782.00,0.0082
2781.00,0.0082
2780.00,0.0081
2779.00,0.0081
2778.00,0.0080
2777.00,0.0080
2776.00,0.0079
2775.00,0.0079
2774.00,0.0079
2773.00,0.0079
2772.00,0.0078
2771.00,0.0078
2770.00,0.0078
2769.00,0.0078
2768.00,0.0077
2767.00,0.0077
2766.00,0.0077
2765.00,0.0077
2764.00,0.0076
2763.00,0.0076
2762.00,0.0075
2761.00,0.0075
2760.00,0.0075
2759.00,0.0075
2758.00,0.0075
2757.00,0.0075
2756.00,0.0075
2755.00,0.0075
2754.00,0.0075
2753.00,0.0075
2752.00,0.0075
2751.00,0.0075
2750.00,0.0075
2749.00,0.0075
2748.00,0.0074
2747.00,0.0075
2746.00,0.0075
2745.00,0.0075
2744.00,0.0075
2743.00,0.0076
2742.00,0.0076
2741.00,0.0077
2740.00,0.0077
2739.00,0.0078
2738.00,0.0078
2737.00,0.0079
2736.00,0.0079
2735.00,0.0080
2734.00,0.0081
2733.00,0.0082
2732.00,0.0083
2731.00,0.0084
2730.00,0.0085
2729.00,0.0086
2728.00,0.0086
2727.00,0.0086
2726.00,0.0085
2725.00,0.0084
2724.00,0.0082
2723.00,0.0081
2722.00,0.0080
2721.00,0.0079
2720.00,0.0079
2719.00,0.0078
2718.00,0.0077
2717.00,0.0076
2716.00,0.0076
2715.00,0.0075
2714.00,0.0075
2713.00,0.0074
2712.00,0.0074
2711.00,0.0074
2710.00,0.0073
2709.00,0.0073
2708.00,0.0073
2707.00,0.0073
2706.00,0.0073
2705.00,0.0072
2704.00,0.0072
2703.00,0.0072
2702.00,0.0072
2701.00,0.0072
2700.00,0.0071
2699.00,0.0071
2698.00,0.0071
2697.00,0.0071
2696.00,0.0071
2695.00,0.0071
2694.00,0.0071
2693.00,0.0071
2692.00,0.0071
2691.00,0.0071
2690.00,0.0071
2689.00,0.0071
2688.00,0.0071
2687.00,0.0071
2686.00,0.0072
2685.00,0.0072
2684.00,0.0072
2683.00,0.0072
2682.00,0.0072
2681.00,0.0073
2680.00,0.0073
2679.00,0.0073
2678.00,0.0074
2677.00,0.0074
2676.00,0.0074
2675.00,0.0074
2674.00,0.0075
2673.00,0.0075
2672.00,0.0075
2671.00,0.0075
2670.00,0.0075
2669.00,0.0075
2668.00,0.0076
2667.00,0.0076
2666.00,0.0077
2665.00,0.0077
2664.00,0.0077
2663.00,0.0078
2662.00,0.0078
2661.00,0.0078
2660.00,0.0078
2659.00,0.0078
2658.00,0.0078
2657.00,0.0078
2656.00,0.0078
2655.00,0.0077
2654.00,0.0077
2653.00,0.0077
2652.00,0.0077
2651.00,0.0077
2650.00,0.0077
2649.00,0.0076
2648.00,0.0076
2647.00,0.0076
2646.00,0.0076
2645.00,0.0076
2644.00,0.0075
2643.00,0.0075
2642.00,0.0075
2641.00,0.0075
2640.00,0.0075
2639.00,0.0074
2638.00,0.0074
2637.00,0.0074
2636.00,0.0074
2635.00,0.0074
2634.00,0.0074
2633.00,0.0074
2632.00,0.0074
2631.00,0.0074
2630.00,0.0074
2629.00,0.0074
2628.00,0.0074
2627.00,0.0074
2626.00,0.0074
2625.00,0.0073
2624.00,0.0073
2623.00,0.0073
2622.00,0.0073
2621.00,0.0073
2620.00,0.0073
2619.00,0.0073
2618.00,0.0073
2617.00,0.0073
2616.00,0.0073
2615.00,0.0072
2614.00,0.0072
2613.00,0.0072
2612.00,0.0072
2611.00,0.0072
2610.00,0.0072
2609.00,0.0072
2608.00,0.0072
2607.00,0.0071
2606.00,0.0071
2605.00,0.0071
2604.00,0.0071
2603.00,0.0071
2602.00,0.0071
2601.00,0.0071
2600.00,0.0071
2599.00,0.0071
2598.00,0.0070
2597.00,0.0070
2596.00,0.0070
2595.00,0.0070
2594.00,0.0070
2593.00,0.0070
2592.00,0.0070
2591.00,0.0070
2590.00,0.0070
2589.00,0.0070
2588.00,0.0070
2587.00,0.0070
2586.00,0.0070
2585.00,0.0070
2584.00,0.0069
2583.00,0.0069
2582.00,0.0069
2581.00,0.0069
2580.00,0.0069
2579.00,0.0069
2578.00,0.0069
2577.00,0.0069
2576.00,0.0069
2575.00,0.0069
2574.00,0.0069
2573.00,0.0069
2572.00,0.0069
2571.00,0.0070
2570.00,0.0070
2569.00,0.0069
2568.00,0.0069
2567.00,0.0069
2566.00,0.0069
2565.00,0.0068
2564.00,0.0068
2563.00,0.0068
2562.00,0.0068
2561.00,0.0069
2560.00,0.0069
2559.00,0.0068
2558.00,0.0068
2557.00,0.0068
2556.00,0.0068
2555.00,0.0068
2554.00,0.0068
2553.00,0.0068
2552.00,0.0068
2551.00,0.0068
2550.00,0.0068
2549.00,0.0067
2548.00,0.0067
2547.00,0.0067
2546.00,0.0067
2545.00,0.0067
2544.00,0.0067
2543.00,0.0067
2542.00,0.0067
2541.00,0.0067
2540.00,0.0067
2539.00,0.0067
2538.00,0.0067
2537.00,0.0066
2536.00,0.0066
2535.00,0.0066
2534.00,0.0066
2533.00,0.0066
2532.00,0.0067
2531.00,0.0067
2530.00,0.0067
2529.00,0.0066
2528.00,0.0066
2527.00,0.0066
2526.00,0.0067
2525.00,0.0067
2524.00,0.0067
2523.00,0.0067
2522.00,0.0067
2521.00,0.0066
2520.00,0.0066
2519.00,0.0066
2518.00,0.0066
2517.00,0.0067
2516.00,0.0067
2515.00,0.0066
2514.00,0.0066
2513.00,0.0066
2512.00,0.0066
2511.00,0.0066
2510.00,0.0066
2509.00,0.0066
2508.00,0.0066
2507.00,0.0066
2506.00,0.0066
2505.00,0.0066
2504.00,0.0066
2503.00,0.0066
2502.00,0.0065
2501.00,0.0065
2500.00,0.0066
2499.00,0.0066
2498.00,0.0066
2497.00,0.0066
2496.00,0.0066
2495.00,0.0066
2494.00,0.0066
2493.00,0.0066
2492.00,0.0065
2491.00,0.0065
2490.00,0.0065
2489.00,0.0065
2488.00,0.0065
2487.00,0.0065
2486.00,0.0066
2485.00,0.0066
2484.00,0.0066
2483.00,0.0067
2482.00,0.0067
2481.00,0.0067
2480.00,0.0066
2479.00,0.0066
2478.00,0.0066
2477.00,0.0066
2476.00,0.0066
2475.00,0.0067
2474.00,0.0067
2473.00,0.0067
2472.00,0.0067
2471.00,0.0067
2470.00,0.0067
2469.00,0.0068
2468.00,0.0067
2467.00,0.0067
2466.00,0.0067
2465.00,0.0067
2464.00,0.0067
2463.00,0.0067
2462.00,0.0067
2461.00,0.0068
2460.00,0.0068
2459.00,0.0068
2458.00,0.0069
2457.00,0.0069
2456.00,0.0068
2455.00,0.0068
2454.00,0.0068
2453.00,0.0068
2452.00,0.0068
2451.00,0.0069
2450.00,0.0069
2449.00,0.0069
2448.00,0.0068
2447.00,0.0068
2446.00,0.0067
2445.00,0.0066
2444.00,0.0066
2443.00,0.0066
2442.00,0.0066
2441.00,0.0065
2440.00,0.0065
2439.00,0.0065
2438.00,0.0064
2437.00,0.0063
2436.00,0.0063
2435.00,0.0062
2434.00,0.0062
2433.00,0.0062
2432.00,0.0062
2431.00,0.0062
2430.00,0.0062
2429.00,0.0062
2428.00,0.0062
2427.00,0.0061
2426.00,0.0061
2425.00,0.0060
2424.00,0.0060
2423.00,0.0060
2422.00,0.0060
2421.00,0.0060
2420.00,0.0060
2419.00,0.0060
2418.00,0.0059
2417.00,0.0059
2416.00,0.0059
2415.00,0.0059
2414.00,0.0059
2413.00,0.0059
2412.00,0.0059
2411.00,0.0059
2410.00,0.0059
2409.00,0.0059
2408.00,0.0059
2407.00,0.0059
2406.00,0.0058
2405.00,0.0058
2404.00,0.0058
2403.00,0.0057
2402.00,0.0057
2401.00,0.0057
2400.00,0.0057
2399.00,0.0057
2398.00,0.0057
2397.00,0.0057
2396.00,0.0057
2395.00,0.0057
2394.00,0.0057
2393.00,0.0057
2392.00,0.0057
2391.00,0.0057
2390.00,0.0057
2389.00,0.0057
2388.00,0.0057
2387.00,0.0057
2386.00,0.0056
2385.00,0.0056
2384.00,0.0054
2383.00,0.0053
2382.00,0.0052
2381.00,0.0051
2380.00,0.0051
2379.00,0.0051
2378.00,0.0051
2377.00,0.0050
2376.00,0.0050
2375.00,0.0050
2374.00,0.0051
2373.00,0.0051
2372.00,0.0051
2371.00,0.0051
2370.00,0.0051
2369.00,0.0050
2368.00,0.0050
2367.00,0.0049
2366.00,0.0049
2365.00,0.0049
2364.00,0.0050
2363.00,0.0050
2362.00,0.0050
2361.00,0.0050
2360.00,0.0050
2359.00,0.0050
2358.00,0.0050
2357.00,0.0050
2356.00,0.0051
2355.00,0.0051
2354.00,0.0051
2353.00,0.0051
2352.00,0.0050
2351.00,0.0050
2350.00,0.0051
2349.00,0.0051
2348.00,0.0052
2347.00,0.0052
2346.00,0.0051
2345.00,0.0051
2344.00,0.0051
2343.00,0.0051
2342.00,0.0052
2341.00,0.0053
2340.00,0.0054
2339.00,0.0054
2338.00,0.0054
2337.00,0.0054
2336.00,0.0054
2335.00,0.0054
2334.00,0.0054
2333.00,0.0054
2332.00,0.0054
2331.00,0.0054
2330.00,0.0054
2329.00,0.0056
2328.00,0.0059
2327.00,0.0063
2326.00,0.0066
2325.00,0.0067
2324.00,0.0066
2323.00,0.0064
2322.00,0.0062
2321.00,0.0060
2320.00,0.0059
2319.00,0.0058
2318.00,0.0058
2317.00,0.0058
2316.00,0.0058
2315.00,0.0057
2314.00,0.0057
2313.00,0.0056
2312.00,0.0056
2311.00,0.0056
2310.00,0.0056
2309.00,0.0056
2308.00,0.0056
2307.00,0.0057
2306.00,0.0057
2305.00,0.0058
2304.00,0.0058
2303.00,0.0058
2302.00,0.0058
2301.00,0.0058
2300.00,0.0058
2299.00,0.0059
2298.00,0.0059
2297.00,0.0060
2296.00,0.0061
2295.00,0.0061
2294.00,0.0062
2293.00,0.0063
2292.00,0.0064
2291.00,0.0065
2290.00,0.0066
2289.00,0.0066
2288.00,0.0067
2287.00,0.0067
2286.00,0.0067
2285.00,0.0067
2284.00,0.0066
2283.00,0.0065
2282.00,0.0065
2281.00,0.0064
2280.00,0.0064
2279.00,0.0063
2278.00,0.0063
2277.00,0.0062
2276.00,0.0062
2275.00,0.0061
2274.00,0.0061
2273.00,0.0062
2272.00,0.0062
2271.00,0.0062
2270.00,0.0061
2269.00,0.0060
2268.00,0.0060
2267.00,0.0059
2266.00,0.0058
2265.00,0.0058
2264.00,0.0058
2263.00,0.0059
2262.00,0.0059
2261.00,0.0060
2260.00,0.0061
2259.00,0.0061
2258.00,0.0061
2257.00,0.0060
2256.00,0.0059
2255.00,0.0058
2254.00,0.0057
2253.00,0.0057
2252.00,0.0057
2251.00,0.0058
2250.00,0.0058
2249.00,0.0058
2248.00,0.0059
2247.00,0.0059
2246.00,0.0059
2245.00,0.0059
2244.00,0.0059
2243.00,0.0058
2242.00,0.0058
2241.00,0.0059
2240.00,0.0059
2239.00,0.0059
2238.00,0.0059
2237.00,0.0059
2236.00,0.0060
2235.00,0.0060
2234.00,0.0060
2233.00,0.0059
2232.00,0.0058
2231.00,0.0058
2230.00,0.0058
2229.00,0.0058
2228.00,0.0058
2227.00,0.0058
2226.00,0.0058
2225.00,0.0058
2224.00,0.0058
2223.00,0.0058
2222.00,0.0058
2221.00,0.0058
2220.00,0.0058
2219.00,0.0057
2218.00,0.0056
2217.00,0.0056
2216.00,0.0055
2215.00,0.0055
2214.00,0.0054
2213.00,0.0053
2212.00,0.0053
2211.00,0.0054
2210.00,0.0054
2209.00,0.0055
2208.00,0.0055
2207.00,0.0055
2206.00,0.0055
2205.00,0.0056
2204.00,0.0056
2203.00,0.0056
2202.00,0.0056
2201.00,0.0057
2200.00,0.0057
2199.00,0.0058
2198.00,0.0058
2197.00,0.0058
2196.00,0.0059
2195.00,0.0060
2194.00,0.0059
2193.00,0.0058
2192.00,0.0057
2191.00,0.0057
2190.00,0.0056
2189.00,0.0057
2188.00,0.0057
2187.00,0.0058
2186.00,0.0058
2185.00,0.0056
2184.00,0.0054
2183.00,0.0052
2182.00,0.0050
2181.00,0.0050
2180.00,0.0052
2179.00,0.0054
2178.00,0.0054
2177.00,0.0052
2176.00,0.0051
2175.00,0.0051
2174.00,0.0052
2173.00,0.0055
2172.00,0.0058
2171.00,0.0060
2170.00,0.0061
2169.00,0.0062
2168.00,0.0063
2167.00,0.0063
2166.00,0.0063
2165.00,0.0065
2164.00,0.0067
2163.00,0.0068
2162.00,0.0064
2161.00,0.0053
2160.00,0.0039
2159.00,0.0027
2158.00,0.0022
2157.00,0.0023
2156.00,0.0026
2155.00,0.0029
2154.00,0.0031
2153.00,0.0032
2152.00,0.0034
2151.00,0.0035
2150.00,0.0035
2149.00,0.0035
2148.00,0.0035
2147.00,0.0035
2146.00,0.0035
2145.00,0.0035
2144.00,0.0035
2143.00,0.0037
2142.00,0.0038
2141.00,0.0040
2140.00,0.0040
2139.00,0.0040
2138.00,0.0038
2137.00,0.0036
2136.00,0.0034
2135.00,0.0032
2134.00,0.0032
2133.00,0.0032
2132.00,0.0034
2131.00,0.0035
2130.00,0.0037
2129.00,0.0039
2128.00,0.0040
2127.00,0.0041
2126.00,0.0041
2125.00,0.0042
2124.00,0.0044
2123.00,0.0045
2122.00,0.0046
2121.00,0.0047
2120.00,0.0048
2119.00,0.0048
2118.00,0.0050
2117.00,0.0051
2116.00,0.0052
2115.00,0.0052
2114.00,0.0051
2113.00,0.0051
2112.00,0.0051
2111.00,0.0051
2110.00,0.0051
2109.00,0.0051
2108.00,0.0050
2107.00,0.0050
2106.00,0.0050
2105.00,0.0050
2104.00,0.0050
2103.00,0.0050
2102.00,0.0050
2101.00,0.0049
2100.00,0.0049
2099.00,0.0048
2098.00,0.0048
2097.00,0.0047
2096.00,0.0046
2095.00,0.0046
2094.00,0.0045
2093.00,0.0046
2092.00,0.0047
2091.00,0.0048
2090.00,0.0049
2089.00,0.0050
2088.00,0.0050
2087.00,0.0051
2086.00,0.0051
2085.00,0.0052
2084.00,0.0052
2083.00,0.0053
2082.00,0.0052
2081.00,0.0052
2080.00,0.0051
2079.00,0.0051
2078.00,0.0051
2077.00,0.0051
2076.00,0.0051
2075.00,0.0050
2074.00,0.0050
2073.00,0.0050
2072.00,0.0050
2071.00,0.0050
2070.00,0.0050
2069.00,0.0049
2068.00,0.0048
2067.00,0.0047
2066.00,0.0047
2065.00,0.0047
2064.00,0.0047
2063.00,0.0047
2062.00,0.0046
2061.00,0.0046
2060.00,0.0047
2059.00,0.0047
2058.00,0.0048
2057.00,0.0049
2056.00,0.0049
2055.00,0.0050
2054.00,0.0052
2053.00,0.0056
2052.00,0.0058
2051.00,0.0058
2050.00,0.0055
2049.00,0.0051
2048.00,0.0049
2047.00,0.0047
2046.00,0.0047
2045.00,0.0046
2044.00,0.0046
2043.00,0.0045
2042.00,0.0044
2041.00,0.0044
2040.00,0.0044
2039.00,0.0044
2038.00,0.0044
2037.00,0.0044
2036.00,0.0043
2035.00,0.0042
2034.00,0.0041
2033.00,0.0041
2032.00,0.0041
2031.00,0.0041
2030.00,0.0040
2029.00,0.0039
2028.00,0.0038
2027.00,0.0038
2026.00,0.0037
2025.00,0.0038
2024.00,0.0039
2023.00,0.0039
2022.00,0.0039
2021.00,0.0039
2020.00,0.0038
2019.00,0.0038
2018.00,0.0038
2017.00,0.0039
2016.00,0.0039
2015.00,0.0039
2014.00,0.0039
2013.00,0.0040
2012.00,0.0042
2011.00,0.0042
2010.00,0.0042
2009.00,0.0040
2008.00,0.0038
2007.00,0.0037
2006.00,0.0036
2005.00,0.0037
2004.00,0.0037
2003.00,0.0037
2002.00,0.0037
2001.00,0.0037
2000.00,0.0038
1999.00,0.0040
1998.00,0.0040
1997.00,0.0040
1996.00,0.0041
1995.00,0.0041
1994.00,0.0042
1993.00,0.0043
1992.00,0.0043
1991.00,0.0044
1990.00,0.0044
1989.00,0.0046
1988.00,0.0048
1987.00,0.0050
1986.00,0.0051
1985.00,0.0052
1984.00,0.0053
1983.00,0.0055
1982.00,0.0057
1981.00,0.0058
1980.00,0.0056
1979.00,0.0050
1978.00,0.0044
1977.00,0.0040
1976.00,0.0038
1975.00,0.0038
1974.00,0.0037
1973.00,0.0038
1972.00,0.0038
1971.00,0.0038
1970.00,0.0038
1969.00,0.0038
1968.00,0.0037
1967.00,0.0037
1966.00,0.0036
1965.00,0.0036
1964.00,0.0035
1963.00,0.0034
1962.00,0.0033
1961.00,0.0033
1960.00,0.0034
1959.00,0.0034
1958.00,0.0035
1957.00,0.0036
1956.00,0.0038
1955.00,0.0039
1954.00,0.0039
1953.00,0.0040
1952.00,0.0040
1951.00,0.0040
1950.00,0.0039
1949.00,0.0039
1948.00,0.0039
1947.00,0.0040
1946.00,0.0040
1945.00,0.0039
1944.00,0.0039
1943.00,0.0039
1942.00,0.0039
1941.00,0.0039
1940.00,0.0040
1939.00,0.0040
1938.00,0.0040
1937.00,0.0040
1936.00,0.0040
1935.00,0.0040
1934.00,0.0040
1933.00,0.0040
1932.00,0.0040
1931.00,0.0040
1930.00,0.0040
1929.00,0.0040
1928.00,0.0040
1927.00,0.0040
1926.00,0.0040
1925.00,0.0040
1924.00,0.0041
1923.00,0.0042
1922.00,0.0043
1921.00,0.0043
1920.00,0.0043
1919.00,0.0043
1918.00,0.0043
1917.00,0.0042
1916.00,0.0042
1915.00,0.0043
1914.00,0.0043
1913.00,0.0043
1912.00,0.0044
1911.00,0.0044
1910.00,0.0044
1909.00,0.0044
1908.00,0.0045
1907.00,0.0045
1906.00,0.0045
1905.00,0.0046
1904.00,0.0046
1903.00,0.0046
1902.00,0.0046
1901.00,0.0046
1900.00,0.0046
1899.00,0.0046
1898.00,0.0046
1897.00,0.0047
1896.00,0.0047
1895.00,0.0047
1894.00,0.0046
1893.00,0.0046
1892.00,0.0046
1891.00,0.0046
1890.00,0.0046
1889.00,0.0046
1888.00,0.0046
1887.00,0.0046
1886.00,0.0047
1885.00,0.0047
1884.00,0.0047
1883.00,0.0047
1882.00,0.0047
1881.00,0.0047
1880.00,0.0047
1879.00,0.0048
1878.00,0.0048
1877.00,0.0048
1876.00,0.0048
1875.00,0.0047
1874.00,0.0047
1873.00,0.0047
1872.00,0.0047
1871.00,0.0047
1870.00,0.0047
1869.00,0.0047
1868.00,0.0047
1867.00,0.0047
1866.00,0.0047
1865.00,0.0047
1864.00,0.0047
1863.00,0.0047
1862.00,0.0047
1861.00,0.0047
1860.00,0.0047
1859.00,0.0046
1858.00,0.0046
1857.00,0.0047
1856.00,0.0047
1855.00,0.0047
1854.00,0.0047
1853.00,0.0047
1852.00,0.0046
1851.00,0.0046
1850.00,0.0046
1849.00,0.0046
1848.00,0.0047
1847.00,0.0047
1846.00,0.0047
1845.00,0.0047
1844.00,0.0047
1843.00,0.0047
1842.00,0.0047
1841.00,0.0047
1840.00,0.0048
1839.00,0.0047
1838.00,0.0047
1837.00,0.0047
1836.00,0.0047
1835.00,0.0048
1834.00,0.0048
1833.00,0.0048
1832.00,0.0048
1831.00,0.0049
1830.00,0.0049
1829.00,0.0050
1828.00,0.0050
1827.00,0.0049
1826.00,0.0049
1825.00,0.0049
1824.00,0.0050
1823.00,0.0050
1822.00,0.0050
1821.00,0.0050
1820.00,0.0049
1819.00,0.0048
1818.00,0.0047
1817.00,0.0047
1816.00,0.0048
1815.00,0.0048
1814.00,0.0049
1813.00,0.0050
1812.00,0.0051
1811.00,0.0052
1810.00,0.0052
1809.00,0.0053
1808.00,0.0054
1807.00,0.0054
1806.00,0.0054
1805.00,0.0055
1804.00,0.0055
1803.00,0.0056
1802.00,0.0056
1801.00,0.0056
1800.00,0.0056
1799.00,0.0056
1798.00,0.0056
1797.00,0.0056
1796.00,0.0056
1795.00,0.0055
1794.00,0.0054
1793.00,0.0053
1792.00,0.0053
1791.00,0.0053
1790.00,0.0053
1789.00,0.0053
1788.00,0.0053
1787.00,0.0054
1786.00,0.0054
1785.00,0.0054
1784.00,0.0054
1783.00,0.0054
1782.00,0.0054
1781.00,0.0054
1780.00,0.0055
1779.00,0.0055
1778.00,0.0055
1777.00,0.0056
1776.00,0.0056
1775.00,0.0057
1774.00,0.0058
1773.00,0.0059
1772.00,0.0059
1771.00,0.0059
1770.00,0.0059
1769.00,0.0059
1768.00,0.0058
1767.00,0.0058
1766.00,0.0057
1765.00,0.0056
1764.00,0.0056
1763.00,0.0055
1762.00,0.0055
1761.00,0.0054
1760.00,0.0054
1759.00,0.0054
1758.00,0.0053
1757.00,0.0053
1756.00,0.0053
1755.00,0.0053
1754.00,0.0053
1753.00,0.0053
1752.00,0.0053
1751.00,0.0053
1750.00,0.0052
1749.00,0.0052
1748.00,0.0053
1747.00,0.0053
1746.00,0.0053
1745.00,0.0053
1744.00,0.0053
1743.00,0.0053
1742.00,0.0053
1741.00,0.0053
1740.00,0.0053
1739.00,0.0054
1738.00,0.0054
1737.00,0.0054
1736.00,0.0054
1735.00,0.0054
1734.00,0.0055
1733.00,0.0055
1732.00,0.0055
1731.00,0.0055
1730.00,0.0055
1729.00,0.0055
1728.00,0.0055
1727.00,0.0055
1726.00,0.0056
1725.00,0.0056
1724.00,0.0056
1723.00,0.0057
1722.00,0.0057
1721.00,0.0057
1720.00,0.0057
1719.00,0.0057
1718.00,0.0057
1717.00,0.0057
1716.00,0.0057
1715.00,0.0057
1714.00,0.0057
1713.00,0.0058
1712.00,0.0059
1711.00,0.0059
1710.00,0.0060
1709.00,0.0060
1708.00,0.0060
1707.00,0.0061
1706.00,0.0061
1705.00,0.0061
1704.00,0.0061
1703.00,0.0062
1702.00,0.0062
1701.00,0.0062
1700.00,0.0063
1699.00,0.0063
1698.00,0.0063
1697.00,0.0063
1696.00,0.0063
1695.00,0.0063
1694.00,0.0064
1693.00,0.0064
1692.00,0.0064
1691.00,0.0064
1690.00,0.0063
1689.00,0.0063
1688.00,0.0063
1687.00,0.0063
1686.00,0.0063
1685.00,0.0063
1684.00,0.0063
1683.00,0.0063
1682.00,0.0063
1681.00,0.0063
1680.00,0.0063
1679.00,0.0064
1678.00,0.0064
1677.00,0.0064
1676.00,0.0065
1675.00,0.0066
1674.00,0.0066
1673.00,0.0067
1672.00,0.0068
1671.00,0.0069
1670.00,0.0071
1669.00,0.0072
1668.00,0.0075
1667.00,0.0077
1666.00,0.0079
1665.00,0.0081
1664.00,0.0084
1663.00,0.0086
1662.00,0.0087
1661.00,0.0088
1660.00,0.0088
1659.00,0.0088
1658.00,0.0088
1657.00,0.0088
1656.00,0.0089
1655.00,0.0091
1654.00,0.0095
1653.00,0.0102
1652.00,0.0110
1651.00,0.0118
1650.00,0.0126
1649.00,0.0138
1648.00,0.0159
1647.00,0.0191
1646.00,0.0228
1645.00,0.0258
1644.00,0.0277
1643.00,0.0284
1642.00,0.0280
1641.00,0.0270
1640.00,0.0260
1639.00,0.0254
1638.00,0.0257
1637.00,0.0270
1636.00,0.0297
1635.00,0.0331
1634.00,0.0362
1633.00,0.0388
1632.00,0.0409
1631.00,0.0427
1630.00,0.0441
1629.00,0.0453
1628.00,0.0465
1627.00,0.0481
1626.00,0.0501
1625.00,0.0524
1624.00,0.0545
1623.00,0.0553
1622.00,0.0544
1621.00,0.0521
1620.00,0.0492
1619.00,0.0456
1618.00,0.0412
1617.00,0.0359
1616.00,0.0310
1615.00,0.0274
1614.00,0.0251
1613.00,0.0234
1612.00,0.0219
1611.00,0.0205
1610.00,0.0192
1609.00,0.0181
1608.00,0.0171
1607.00,0.0164
1606.00,0.0158
1605.00,0.0154
1604.00,0.0151
1603.00,0.0149
1602.00,0.0148
1601.00,0.0149
1600.00,0.0151
1599.00,0.0155
1598.00,0.0160
1597.00,0.0168
1596.00,0.0178
1595.00,0.0191
1594.00,0.0208
1593.00,0.0232
1592.00,0.0263
1591.00,0.0302
1590.00,0.0348
1589.00,0.0400
1588.00,0.0455
1587.00,0.0507
1586.00,0.0555
1585.00,0.0598
1584.00,0.0635
1583.00,0.0664
1582.00,0.0681
1581.00,0.0683
1580.00,0.0672
1579.00,0.0649
1578.00,0.0612
1577.00,0.0557
1576.00,0.0490
1575.00,0.0430
1574.00,0.0388
1573.00,0.0358
1572.00,0.0333
1571.00,0.0306
1570.00,0.0276
1569.00,0.0246
1568.00,0.0222
1567.00,0.0205
1566.00,0.0190
1565.00,0.0176
1564.00,0.0164
1563.00,0.0155
1562.00,0.0149
1561.00,0.0143
1560.00,0.0137
1559.00,0.0128
1558.00,0.0121
1557.00,0.0118
1556.00,0.0116
1555.00,0.0114
1554.00,0.0112
1553.00,0.0110
1552.00,0.0108
1551.00,0.0106
1550.00,0.0104
1549.00,0.0102
1548.00,0.0100
1547.00,0.0099
1546.00,0.0098
1545.00,0.0096
1544.00,0.0095
1543.00,0.0093
1542.00,0.0092
1541.00,0.0092
1540.00,0.0092
1539.00,0.0092
1538.00,0.0092
1537.00,0.0092
1536.00,0.0092
1535.00,0.0092
1534.00,0.0092
1533.00,0.0092
1532.00,0.0092
1531.00,0.0093
1530.00,0.0093
1529.00,0.0094
1528.00,0.0095
1527.00,0.0096
1526.00,0.0098
1525.00,0.0101
1524.00,0.0104
1523.00,0.0108
1522.00,0.0116
1521.00,0.0127
1520.00,0.0139
1519.00,0.0150
1518.00,0.0162
1517.00,0.0174
1516.00,0.0185
1515.00,0.0192
1514.00,0.0195
1513.00,0.0194
1512.00,0.0189
1511.00,0.0181
1510.00,0.0172
1509.00,0.0163
1508.00,0.0154
1507.00,0.0144
1506.00,0.0136
1505.00,0.0131
1504.00,0.0129
1503.00,0.0128
1502.00,0.0126
1501.00,0.0125
1500.00,0.0122
1499.00,0.0119
1498.00,0.0115
1497.00,0.0112
1496.00,0.0108
1495.00,0.0104
1494.00,0.0102
1493.00,0.0099
1492.00,0.0097
1491.00,0.0095
1490.00,0.0093
1489.00,0.0091
1488.00,0.0090
1487.00,0.0089
1486.00,0.0089
1485.00,0.0089
1484.00,0.0089
1483.00,0.0090
1482.00,0.0090
1481.00,0.0091
1480.00,0.0093
1479.00,0.0094
1478.00,0.0095
1477.00,0.0097
1476.00,0.0100
1475.00,0.0104
1474.00,0.0109
1473.00,0.0118
1472.00,0.0131
1471.00,0.0148
1470.00,0.0167
1469.00,0.0189
1468.00,0.0212
1467.00,0.0231
1466.00,0.0245
1465.00,0.0255
1464.00,0.0263
1463.00,0.0271
1462.00,0.0280
1461.00,0.0289
1460.00,0.0299
1459.00,0.0307
1458.00,0.0314
1457.00,0.0323
1456.00,0.0336
1455.00,0.0353
1454.00,0.0375
1453.00,0.0405
1452.00,0.0442
1451.00,0.0484
1450.00,0.0532
1449.00,0.0587
1448.00,0.0646
1447.00,0.0700
1446.00,0.0746
1445.00,0.0781
1444.00,0.0803
1443.00,0.0813
1442.00,0.0813
1441.00,0.0808
1440.00,0.0800
1439.00,0.0789
1438.00,0.0772
1437.00,0.0746
1436.00,0.0713
1435.00,0.0681
1434.00,0.0656
1433.00,0.0632
1432.00,0.0606
1431.00,0.0571
1430.00,0.0529
1429.00,0.0481
1428.00,0.0431
1427.00,0.0384
1426.00,0.0342
1425.00,0.0302
1424.00,0.0267
1423.00,0.0238
1422.00,0.0218
1421.00,0.0202
1420.00,0.0187
1419.00,0.0174
1418.00,0.0163
1417.00,0.0155
1416.00,0.0149
1415.00,0.0144
1414.00,0.0140
1413.00,0.0136
1412.00,0.0132
1411.00,0.0129
1410.00,0.0127
1409.00,0.0125
1408.00,0.0123
1407.00,0.0121
1406.00,0.0120
1405.00,0.0119
1404.00,0.0118
1403.00,0.0117
1402.00,0.0117
1401.00,0.0116
1400.00,0.0114
1399.00,0.0113
1398.00,0.0112
1397.00,0.0112
1396.00,0.0111
1395.00,0.0110
1394.00,0.0109
1393.00,0.0109
1392.00,0.0108
1391.00,0.0108
1390.00,0.0109
1389.00,0.0110
1388.00,0.0112
1387.00,0.0114
1386.00,0.0119
1385.00,0.0125
1384.00,0.0134
1383.00,0.0146
1382.00,0.0163
1381.00,0.0185
1380.00,0.0214
1379.00,0.0249
1378.00,0.0287
1377.00,0.0323
1376.00,0.0351
1375.00,0.0365
1374.00,0.0362
1373.00,0.0346
1372.00,0.0325
1371.00,0.0304
1370.00,0.0285
1369.00,0.0266
1368.00,0.0250
1367.00,0.0237
1366.00,0.0226
1365.00,0.0215
1364.00,0.0205
1363.00,0.0195
1362.00,0.0186
1361.00,0.0179
1360.00,0.0174
1359.00,0.0170
1358.00,0.0168
1357.00,0.0167
1356.00,0.0166
1355.00,0.0166
1354.00,0.0167
1353.00,0.0168
1352.00,0.0169
1351.00,0.0170
1350.00,0.0173
1349.00,0.0176
1348.00,0.0180
1347.00,0.0184
1346.00,0.0190
1345.00,0.0195
1344.00,0.0200
1343.00,0.0204
1342.00,0.0207
1341.00,0.0207
1340.00,0.0203
1339.00,0.0197
1338.00,0.0190
1337.00,0.0183
1336.00,0.0180
1335.00,0.0179
1334.00,0.0182
1333.00,0.0186
1332.00,0.0193
1331.00,0.0200
1330.00,0.0208
1329.00,0.0216
1328.00,0.0223
1327.00,0.0230
1326.00,0.0238
1325.00,0.0245
1324.00,0.0249
1323.00,0.0249
1322.00,0.0244
1321.00,0.0236
1320.00,0.0227
1319.00,0.0222
1318.00,0.0223
1317.00,0.0232
1316.00,0.0249
1315.00,0.0272
1314.00,0.0299
1313.00,0.0325
1312.00,0.0344
1311.00,0.0353
1310.00,0.0352
1309.00,0.0345
1308.00,0.0336
1307.00,0.0329
1306.00,0.0328
1305.00,0.0332
1304.00,0.0340
1303.00,0.0349
1302.00,0.0355
1301.00,0.0359
1300.00,0.0358
1299.00,0.0355
1298.00,0.0349
1297.00,0.0342
1296.00,0.0334
1295.00,0.0324
1294.00,0.0314
1293.00,0.0304
1292.00,0.0294
1291.00,0.0285
1290.00,0.0278
1289.00,0.0273
1288.00,0.0272
1287.00,0.0275
1286.00,0.0284
1285.00,0.0296
1284.00,0.0310
1283.00,0.0325
1282.00,0.0339
1281.00,0.0351
1280.00,0.0360
1279.00,0.0365
1278.00,0.0366
1277.00,0.0363
1276.00,0.0356
1275.00,0.0346
1274.00,0.0332
1273.00,0.0314
1272.00,0.0294
1271.00,0.0273
1270.00,0.0251
1269.00,0.0231
1268.00,0.0213
1267.00,0.0197
1266.00,0.0183
1265.00,0.0172
1264.00,0.0163
1263.00,0.0156
1262.00,0.0149
1261.00,0.0144
1260.00,0.0140
1259.00,0.0137
1258.00,0.0134
1257.00,0.0132
1256.00,0.0132
1255.00,0.0132
1254.00,0.0134
1253.00,0.0138
1252.00,0.0145
1251.00,0.0153
1250.00,0.0162
1249.00,0.0170
1248.00,0.0176
1247.00,0.0181
1246.00,0.0186
1245.00,0.0193
1244.00,0.0207
1243.00,0.0227
1242.00,0.0255
1241.00,0.0290
1240.00,0.0329
1239.00,0.0367
1238.00,0.0400
1237.00,0.0421
1236.00,0.0432
1235.00,0.0433
1234.00,0.0427
1233.00,0.0417
1232.00,0.0403
1231.00,0.0388
1230.00,0.0376
1229.00,0.0373
1228.00,0.0382
1227.00,0.0403
1226.00,0.0432
1225.00,0.0466
1224.00,0.0503
1223.00,0.0541
1222.00,0.0584
1221.00,0.0634
1220.00,0.0694
1219.00,0.0764
1218.00,0.0842
1217.00,0.0918
1216.00,0.0981
1215.00,0.1021
1214.00,0.1032
1213.00,0.1014
1212.00,0.0974
1211.00,0.0917
1210.00,0.0853
1209.00,0.0789
1208.00,0.0729
1207.00,0.0676
1206.00,0.0630
1205.00,0.0587
1204.00,0.0546
1203.00,0.0505
1202.00,0.0464
1201.00,0.0423
1200.00,0.0385
1199.00,0.0352
1198.00,0.0323
1197.00,0.0300
1196.00,0.0282
1195.00,0.0269
1194.00,0.0260
1193.00,0.0255
1192.00,0.0254
1191.00,0.0256
1190.00,0.0261
1189.00,0.0266
1188.00,0.0273
1187.00,0.0280
1186.00,0.0288
1185.00,0.0297
1184.00,0.0305
1183.00,0.0312
1182.00,0.0318
1181.00,0.0322
1180.00,0.0326
1179.00,0.0329
1178.00,0.0332
1177.00,0.0335
1176.00,0.0339
1175.00,0.0346
1174.00,0.0359
1173.00,0.0373
1172.00,0.0382
1171.00,0.0376
1170.00,0.0353
1169.00,0.0320
1168.00,0.0284
1167.00,0.0252
1166.00,0.0226
1165.00,0.0206
1164.00,0.0191
1163.00,0.0180
1162.00,0.0172
1161.00,0.0167
1160.00,0.0164
1159.00,0.0165
1158.00,0.0168
1157.00,0.0175
1156.00,0.0189
1155.00,0.0213
1154.00,0.0249
1153.00,0.0296
1152.00,0.0346
1151.00,0.0384
1150.00,0.0396
1149.00,0.0377
1148.00,0.0334
1147.00,0.0283
1146.00,0.0238
1145.00,0.0204
1144.00,0.0181
1143.00,0.0167
1142.00,0.0157
1141.00,0.0152
1140.00,0.0150
1139.00,0.0151
1138.00,0.0154
1137.00,0.0158
1136.00,0.0161
1135.00,0.0164
1134.00,0.0163
1133.00,0.0160
1132.00,0.0155
1131.00,0.0148
1130.00,0.0141
1129.00,0.0134
1128.00,0.0128
1127.00,0.0123
1126.00,0.0120
1125.00,0.0117
1124.00,0.0114
1123.00,0.0113
1122.00,0.0112
1121.00,0.0112
1120.00,0.0112
1119.00,0.0112
1118.00,0.0113
1117.00,0.0114
1116.00,0.0115
1115.00,0.0116
1114.00,0.0118
1113.00,0.0120
1112.00,0.0122
1111.00,0.0124
1110.00,0.0128
1109.00,0.0132
1108.00,0.0137
1107.00,0.0142
1106.00,0.0149
1105.00,0.0156
1104.00,0.0163
1103.00,0.0172
1102.00,0.0182
1101.00,0.0194
1100.00,0.0204
1099.00,0.0210
1098.00,0.0210
1097.00,0.0203
1096.00,0.0191
1095.00,0.0177
1094.00,0.0166
1093.00,0.0157
1092.00,0.0150
1091.00,0.0145
1090.00,0.0140
1089.00,0.0137
1088.00,0.0136
1087.00,0.0136
1086.00,0.0139
1085.00,0.0145
1084.00,0.0155
1083.00,0.0168
1082.00,0.0183
1081.00,0.0198
1080.00,0.0208
1079.00,0.0213
1078.00,0.0209
1077.00,0.0200
1076.00,0.0188
1075.00,0.0176
1074.00,0.0166
1073.00,0.0157
1072.00,0.0151
1071.00,0.0147
1070.00,0.0143
1069.00,0.0141
1068.00,0.0138
1067.00,0.0137
1066.00,0.0137
1065.00,0.0138
1064.00,0.0140
1063.00,0.0144
1062.00,0.0149
1061.00,0.0156
1060.00,0.0166
1059.00,0.0181
1058.00,0.0203
1057.00,0.0235
1056.00,0.0278
1055.00,0.0327
1054.00,0.0377
1053.00,0.0418
1052.00,0.0444
1051.00,0.0453
1050.00,0.0447
1049.00,0.0427
1048.00,0.0394
1047.00,0.0356
1046.00,0.0318
1045.00,0.0288
1044.00,0.0269
1043.00,0.0259
1042.00,0.0258
1041.00,0.0262
1040.00,0.0270
1039.00,0.0282
1038.00,0.0301
1037.00,0.0327
1036.00,0.0362
1035.00,0.0405
1034.00,0.0451
1033.00,0.0490
1032.00,0.0513
1031.00,0.0515
1030.00,0.0498
1029.00,0.0469
1028.00,0.0439
1027.00,0.0416
1026.00,0.0405
1025.00,0.0410
1024.00,0.0431
1023.00,0.0469
1022.00,0.0519
1021.00,0.0573
1020.00,0.0620
1019.00,0.0646
1018.00,0.0646
1017.00,0.0621
1016.00,0.0580
1015.00,0.0534
1014.00,0.0488
1013.00,0.0447
1012.00,0.0413
1011.00,0.0388
1010.00,0.0374
1009.00,0.0368
1008.00,0.0368
1007.00,0.0376
1006.00,0.0389
1005.00,0.0409
1004.00,0.0430
1003.00,0.0446
1002.00,0.0453
1001.00,0.0448
1000.00,0.0431
999.00,0.0402
998.00,0.0366
997.00,0.0330
996.00,0.0297
995.00,0.0271
994.00,0.0252
993.00,0.0240
992.00,0.0234
991.00,0.0234
990.00,0.0238
989.00,0.0245
988.00,0.0253
987.00,0.0260
986.00,0.0266
985.00,0.0269
984.00,0.0267
983.00,0.0259
982.00,0.0247
981.00,0.0233
980.00,0.0221
979.00,0.0213
978.00,0.0207
977.00,0.0203
976.00,0.0199
975.00,0.0195
974.00,0.0192
973.00,0.0191
972.00,0.0192
971.00,0.0196
970.00,0.0203
969.00,0.0211
968.00,0.0221
967.00,0.0232
966.00,0.0244
965.00,0.0258
964.00,0.0274
963.00,0.0291
962.00,0.0305
961.00,0.0311
960.00,0.0305
959.00,0.0289
958.00,0.0266
957.00,0.0240
956.00,0.0217
955.00,0.0198
954.00,0.0182
953.00,0.0171
952.00,0.0162
951.00,0.0155
950.00,0.0150
949.00,0.0147
948.00,0.0143
947.00,0.0141
946.00,0.0139
945.00,0.0136
944.00,0.0134
943.00,0.0132
942.00,0.0131
941.00,0.0130
940.00,0.0129
939.00,0.0129
938.00,0.0128
937.00,0.0128
936.00,0.0128
935.00,0.0128
934.00,0.0129
933.00,0.0131
932.00,0.0134
931.00,0.0138
930.00,0.0141
929.00,0.0144
928.00,0.0145
927.00,0.0145
926.00,0.0144
925.00,0.0144
924.00,0.0143
923.00,0.0142
922.00,0.0142
921.00,0.0143
920.00,0.0146
919.00,0.0150
918.00,0.0156
917.00,0.0163
916.00,0.0168
915.00,0.0172
914.00,0.0174
913.00,0.0173
912.00,0.0172
911.00,0.0171
910.00,0.0173
909.00,0.0179
908.00,0.0188
907.00,0.0202
906.00,0.0220
905.00,0.0241
904.00,0.0265
903.00,0.0293
902.00,0.0327
901.00,0.0371
900.00,0.0427
899.00,0.0493
898.00,0.0559
897.00,0.0609
896.00,0.0628
895.00,0.0614
894.00,0.0572
893.00,0.0519
892.00,0.0466
891.00,0.0425
890.00,0.0399
889.00,0.0395
888.00,0.0417
887.00,0.0465
886.00,0.0537
885.00,0.0618
884.00,0.0682
883.00,0.0707
882.00,0.0683
881.00,0.0619
880.00,0.0539
879.00,0.0462
878.00,0.0398
877.00,0.0352
876.00,0.0321
875.00,0.0302
874.00,0.0294
873.00,0.0297
872.00,0.0307
871.00,0.0320
870.00,0.0331
869.00,0.0334
868.00,0.0329
867.00,0.0322
866.00,0.0322
865.00,0.0334
864.00,0.0356
863.00,0.0383
862.00,0.0405
861.00,0.0416
860.00,0.0416
859.00,0.0411
858.00,0.0407
857.00,0.0410
856.00,0.0418
855.00,0.0430
854.00,0.0442
853.00,0.0453
852.00,0.0461
851.00,0.0464
850.00,0.0460
849.00,0.0449
848.00,0.0432
847.00,0.0412
846.00,0.0396
845.00,0.0385
844.00,0.0377
843.00,0.0371
842.00,0.0364
841.00,0.0356
840.00,0.0348
839.00,0.0344
838.00,0.0343
837.00,0.0347
836.00,0.0354
835.00,0.0364
834.00,0.0377
833.00,0.0393
832.00,0.0410
831.00,0.0426
830.00,0.0441
829.00,0.0452
828.00,0.0458
827.00,0.0457
826.00,0.0446
825.00,0.0426
824.00,0.0401
823.00,0.0373
822.00,0.0343
821.00,0.0314
820.00,0.0286
819.00,0.0262
818.00,0.0242
817.00,0.0228
816.00,0.0217
815.00,0.0210
814.00,0.0204
813.00,0.0199
812.00,0.0196
811.00,0.0195
810.00,0.0200
809.00,0.0215
808.00,0.0242
807.00,0.0283
806.00,0.0329
805.00,0.0366
804.00,0.0382
803.00,0.0372
802.00,0.0343
801.00,0.0309
800.00,0.0277
799.00,0.0250
798.00,0.0230
797.00,0.0214
796.00,0.0202
795.00,0.0195
794.00,0.0190
793.00,0.0189
792.00,0.0187
791.00,0.0186
790.00,0.0184
789.00,0.0182
788.00,0.0182
787.00,0.0183
786.00,0.0184
785.00,0.0184
784.00,0.0181
783.00,0.0175
782.00,0.0169
781.00,0.0165
780.00,0.0162
779.00,0.0162
778.00,0.0162
777.00,0.0162
776.00,0.0161
775.00,0.0159
774.00,0.0157
773.00,0.0157
772.00,0.0158
771.00,0.0160
770.00,0.0160
769.00,0.0159
768.00,0.0155
767.00,0.0150
766.00,0.0144
765.00,0.0139
764.00,0.0134
763.00,0.0131
762.00,0.0129
761.00,0.0127
760.00,0.0127
759.00,0.0128
758.00,0.0129
757.00,0.0133
756.00,0.0138
755.00,0.0147
754.00,0.0160
753.00,0.0173
752.00,0.0185
751.00,0.0193
750.00,0.0199
749.00,0.0203
748.00,0.0202
747.00,0.0195
746.00,0.0183
745.00,0.0169
744.00,0.0157
743.00,0.0147
742.00,0.0141
741.00,0.0136
740.00,0.0134
739.00,0.0132
738.00,0.0133
737.00,0.0135
736.00,0.0140
735.00,0.0147
734.00,0.0157
733.00,0.0169
732.00,0.0182
731.00,0.0191
730.00,0.0191
729.00,0.0184
728.00,0.0174
727.00,0.0164
726.00,0.0158
725.00,0.0154
724.00,0.0152
723.00,0.0150
722.00,0.0148
721.00,0.0147
720.00,0.0145
719.00,0.0143
718.00,0.0139
717.00,0.0134
716.00,0.0129
715.00,0.0125
714.00,0.0123
713.00,0.0122
712.00,0.0123
711.00,0.0123
710.00,0.0122
709.00,0.0120
708.00,0.0116
707.00,0.0113
706.00,0.0110
705.00,0.0109
704.00,0.0108
703.00,0.0107
702.00,0.0107
701.00,0.0107
700.00,0.0106
699.00,0.0106
698.00,0.0106
697.00,0.0106
696.00,0.0106
695.00,0.0106
694.00,0.0106
693.00,0.0105
692.00,0.0105
691.00,0.0105
690.00,0.0106
689.00,0.0106
688.00,0.0107
687.00,0.0108
686.00,0.0109
685.00,0.0110
684.00,0.0111
683.00,0.0112
682.00,0.0113
681.00,0.0115
680.00,0.0117
679.00,0.0120
678.00,0.0122
677.00,0.0125
676.00,0.0129
675.00,0.0133
674.00,0.0139
673.00,0.0145
672.00,0.0154
671.00,0.0163
670.00,0.0172
669.00,0.0181
668.00,0.0189
667.00,0.0194
666.00,0.0195
665.00,0.0196
664.00,0.0199
663.00,0.0202
662.00,0.0203
661.00,0.0203
660.00,0.0203
659.00,0.0203
658.00,0.0203
657.00,0.0202
656.00,0.0199
655.00,0.0197
654.00,0.0196
653.00,0.0197
652.00,0.0202
651.00,0.0209
650.00,0.0215
649.00,0.0220
648.00,0.0220
647.00,0.0216
646.00,0.0208
645.00,0.0199
644.00,0.0190
643.00,0.0182
642.00,0.0175
641.00,0.0170
640.00,0.0165
639.00,0.0162
638.00,0.0161
637.00,0.0161
636.00,0.0162
635.00,0.0163
634.00,0.0164
633.00,0.0167
632.00,0.0170
631.00,0.0174
630.00,0.0179
629.00,0.0183
628.00,0.0188
627.00,0.0192
626.00,0.0196
625.00,0.0199
624.00,0.0201
623.00,0.0201
622.00,0.0199
621.00,0.0194
620.00,0.0186
619.00,0.0178
618.00,0.0169
617.00,0.0163
616.00,0.0162
615.00,0.0169
614.00,0.0182
613.00,0.0201
612.00,0.0219
611.00,0.0232
610.00,0.0235
609.00,0.0232
608.00,0.0226
607.00,0.0222
606.00,0.0222
605.00,0.0225
604.00,0.0229
603.00,0.0235
602.00,0.0240
601.00,0.0248
600.00,0.0256
599.00,0.0264
598.00,0.0269
597.00,0.0270
596.00,0.0268
595.00,0.0266
594.00,0.0268
593.00,0.0274
592.00,0.0286
591.00,0.0302
590.00,0.0319
589.00,0.0336
588.00,0.0349
587.00,0.0358
586.00,0.0359
585.00,0.0354
584.00,0.0343
583.00,0.0328
582.00,0.0313
581.00,0.0297
580.00,0.0284
579.00,0.0273
578.00,0.0265
577.00,0.0259
576.00,0.0257
575.00,0.0258
574.00,0.0261
573.00,0.0266
572.00,0.0270
571.00,0.0275
570.00,0.0280
569.00,0.0285
568.00,0.0288
567.00,0.0290
566.00,0.0293
565.00,0.0295
564.00,0.0298
563.00,0.0300
562.00,0.0300
561.00,0.0300
560.00,0.0299
559.00,0.0299
558.00,0.0299
557.00,0.0299
556.00,0.0299
555.00,0.0301
554.00,0.0304
553.00,0.0309
552.00,0.0315
551.00,0.0323
550.00,0.0330
549.00,0.0336
548.00,0.0343
547.00,0.0352
546.00,0.0363
545.00,0.0374
544.00,0.0382
543.00,0.0386
542.00,0.0389
541.00,0.0395
540.00,0.0406
539.00,0.0423
538.00,0.0446
537.00,0.0469
536.00,0.0486
535.00,0.0492
534.00,0.0488
533.00,0.0478
532.00,0.0466
531.00,0.0456
530.00,0.0448
529.00,0.0445
528.00,0.0450
527.00,0.0466
526.00,0.0492
525.00,0.0523
524.00,0.0555
523.00,0.0581
522.00,0.0596
521.00,0.0591
520.00,0.0563
519.00,0.0518
518.00,0.0470
517.00,0.0430
516.00,0.0401
515.00,0.0384
514.00,0.0374
513.00,0.0371
512.00,0.0370
511.00,0.0372
510.00,0.0377
509.00,0.0386
508.00,0.0400
507.00,0.0418
506.00,0.0438
505.00,0.0460
504.00,0.0482
503.00,0.0506
502.00,0.0531
501.00,0.0556
500.00,0.0580
499.00,0.0601
498.00,0.0619
497.00,0.0633
496.00,0.0643
495.00,0.0648
494.00,0.0651
493.00,0.0652
492.00,0.0651
491.00,0.0649
490.00,0.0643
489.00,0.0636
488.00,0.0631
487.00,0.0627
486.00,0.0625
485.00,0.0621
484.00,0.0617
483.00,0.0609
482.00,0.0599
481.00,0.0586
480.00,0.0572
479.00,0.0558
478.00,0.0547
477.00,0.0539
476.00,0.0536
475.00,0.0535
474.00,0.0537
473.00,0.0541
472.00,0.0548
471.00,0.0556
470.00,0.0563
469.00,0.0571
468.00,0.0578
467.00,0.0583
466.00,0.0586
465.00,0.0587
464.00,0.0588
463.00,0.0589
462.00,0.0586
461.00,0.0583
460.00,0.0580
459.00,0.0576
458.00,0.0573
457.00,0.0571
456.00,0.0571
455.00,0.0569
454.00,0.0565
453.00,0.0558
452.00,0.0551
451.00,0.0545
450.00,0.0539
449.00,0.0533
448.00,0.0526
447.00,0.0518
446.00,0.0510
445.00,0.0502
444.00,0.0495
443.00,0.0487
442.00,0.0478
441.00,0.0470
440.00,0.0465
439.00,0.0463
438.00,0.0465
437.00,0.0467
436.00,0.0468
435.00,0.0465
434.00,0.0460
433.00,0.0456
432.00,0.0458
431.00,0.0464
430.00,0.0475
429.00,0.0495
428.00,0.0521
427.00,0.0550
426.00,0.0575
425.00,0.0591
424.00,0.0597
423.00,0.0593
422.00,0.0582
421.00,0.0570
420.00,0.0560
419.00,0.0551
418.00,0.0544
417.00,0.0541
416.00,0.0543
415.00,0.0547
414.00,0.0551
413.00,0.0556
412.00,0.0563
411.00,0.0572
410.00,0.0583
409.00,0.0597
408.00,0.0615
407.00,0.0635
406.00,0.0649
405.00,0.0658
404.00,0.0665
403.00,0.0673
402.00,0.0681
401.00,0.0690
400.00,0.0700
