Created as New Dataset,Sample 900 By YargerLab Date Wednesday, July 23 2025
cm-1,A
4000.00,0.0017
3999.00,0.0017
3998.00,0.0017
3997.00,0.0017
3996.00,0.0017
3995.00,0.0016
3994.00,0.0016
3993.00,0.0017
3992.00,0.0017
3991.00,0.0017
3990.00,0.0017
3989.00,0.0017
3988.00,0.0017
3987.00,0.0017
3986.00,0.0017
3985.00,0.0017
3984.00,0.0017
3983.00,0.0017
3982.00,0.0017
3981.00,0.0017
3980.00,0.0017
3979.00,0.0017
3978.00,0.0017
3977.00,0.0017
3976.00,0.0017
3975.00,0.0017
3974.00,0.0017
3973.00,0.0017
3972.00,0.0017
3971.00,0.0017
3970.00,0.0017
3969.00,0.0017
3968.00,0.0017
3967.00,0.0017
3966.00,0.0017
3965.00,0.0017
3964.00,0.0017
3963.00,0.0017
3962.00,0.0017
3961.00,0.0017
3960.00,0.0017
3959.00,0.0017
3958.00,0.0017
3957.00,0.0017
3956.00,0.0017
3955.00,0.0017
3954.00,0.0017
3953.00,0.0017
3952.00,0.0017
3951.00,0.0017
3950.00,0.0017
3949.00,0.0017
3948.00,0.0017
3947.00,0.0016
3946.00,0.0016
3945.00,0.0016
3944.00,0.0016
3943.00,0.0017
3942.00,0.0017
3941.00,0.0017
3940.00,0.0017
3939.00,0.0017
3938.00,0.0016
3937.00,0.0016
3936.00,0.0016
3935.00,0.0016
3934.00,0.0016
3933.00,0.0016
3932.00,0.0016
3931.00,0.0016
3930.00,0.0016
3929.00,0.0016
3928.00,0.0016
3927.00,0.0016
3926.00,0.0017
3925.00,0.0017
3924.00,0.0017
3923.00,0.0017
3922.00,0.0016
3921.00,0.0016
3920.00,0.0015
3919.00,0.0015
3918.00,0.0016
3917.00,0.0016
3916.00,0.0016
3915.00,0.0016
3914.00,0.0016
3913.00,0.0016
3912.00,0.0016
3911.00,0.0016
3910.00,0.0016
3909.00,0.0017
3908.00,0.0017
3907.00,0.0016
3906.00,0.0016
3905.00,0.0016
3904.00,0.0015
3903.00,0.0014
3902.00,0.0013
3901.00,0.0013
3900.00,0.0013
3899.00,0.0014
3898.00,0.0015
3897.00,0.0015
3896.00,0.0015
3895.00,0.0015
3894.00,0.0016
3893.00,0.0016
3892.00,0.0016
3891.00,0.0016
3890.00,0.0016
3889.00,0.0015
3888.00,0.0014
3887.00,0.0014
3886.00,0.0014
3885.00,0.0014
3884.00,0.0015
3883.00,0.0014
3882.00,0.0014
3881.00,0.0014
3880.00,0.0014
3879.00,0.0015
3878.00,0.0015
3877.00,0.0015
3876.00,0.0015
3875.00,0.0015
3874.00,0.0015
3873.00,0.0016
3872.00,0.0015
3871.00,0.0014
3870.00,0.0013
3869.00,0.0013
3868.00,0.0014
3867.00,0.0014
3866.00,0.0013
3865.00,0.0014
3864.00,0.0014
3863.00,0.0015
3862.00,0.0014
3861.00,0.0014
3860.00,0.0013
3859.00,0.0014
3858.00,0.0015
3857.00,0.0016
3856.00,0.0017
3855.00,0.0016
3854.00,0.0016
3853.00,0.0015
3852.00,0.0014
3851.00,0.0014
3850.00,0.0013
3849.00,0.0013
3848.00,0.0013
3847.00,0.0014
3846.00,0.0014
3845.00,0.0014
3844.00,0.0014
3843.00,0.0014
3842.00,0.0014
3841.00,0.0014
3840.00,0.0014
3839.00,0.0014
3838.00,0.0014
3837.00,0.0014
3836.00,0.0014
3835.00,0.0014
3834.00,0.0014
3833.00,0.0014
3832.00,0.0014
3831.00,0.0014
3830.00,0.0014
3829.00,0.0015
3828.00,0.0015
3827.00,0.0015
3826.00,0.0015
3825.00,0.0015
3824.00,0.0014
3823.00,0.0013
3822.00,0.0013
3821.00,0.0013
3820.00,0.0014
3819.00,0.0015
3818.00,0.0014
3817.00,0.0013
3816.00,0.0014
3815.00,0.0015
3814.00,0.0015
3813.00,0.0016
3812.00,0.0016
3811.00,0.0016
3810.00,0.0016
3809.00,0.0016
3808.00,0.0015
3807.00,0.0014
3806.00,0.0014
3805.00,0.0014
3804.00,0.0014
3803.00,0.0013
3802.00,0.0013
3801.00,0.0014
3800.00,0.0014
3799.00,0.0014
3798.00,0.0014
3797.00,0.0014
3796.00,0.0014
3795.00,0.0015
3794.00,0.0015
3793.00,0.0015
3792.00,0.0015
3791.00,0.0016
3790.00,0.0016
3789.00,0.0016
3788.00,0.0016
3787.00,0.0016
3786.00,0.0016
3785.00,0.0016
3784.00,0.0016
3783.00,0.0016
3782.00,0.0016
3781.00,0.0016
3780.00,0.0016
3779.00,0.0016
3778.00,0.0016
3777.00,0.0016
3776.00,0.0016
3775.00,0.0016
3774.00,0.0016
3773.00,0.0016
3772.00,0.0015
3771.00,0.0015
3770.00,0.0015
3769.00,0.0015
3768.00,0.0015
3767.00,0.0015
3766.00,0.0015
3765.00,0.0015
3764.00,0.0015
3763.00,0.0015
3762.00,0.0014
3761.00,0.0014
3760.00,0.0014
3759.00,0.0014
3758.00,0.0014
3757.00,0.0014
3756.00,0.0014
3755.00,0.0013
3754.00,0.0013
3753.00,0.0013
3752.00,0.0013
3751.00,0.0012
3750.00,0.0011
3749.00,0.0011
3748.00,0.0011
3747.00,0.0012
3746.00,0.0011
3745.00,0.0011
3744.00,0.0011
3743.00,0.0012
3742.00,0.0012
3741.00,0.0011
3740.00,0.0011
3739.00,0.0010
3738.00,0.0010
3737.00,0.0009
3736.00,0.0010
3735.00,0.0010
3734.00,0.0011
3733.00,0.0011
3732.00,0.0011
3731.00,0.0012
3730.00,0.0012
3729.00,0.0013
3728.00,0.0012
3727.00,0.0012
3726.00,0.0013
3725.00,0.0013
3724.00,0.0013
3723.00,0.0013
3722.00,0.0013
3721.00,0.0014
3720.00,0.0014
3719.00,0.0014
3718.00,0.0015
3717.00,0.0015
3716.00,0.0015
3715.00,0.0015
3714.00,0.0014
3713.00,0.0013
3712.00,0.0013
3711.00,0.0013
3710.00,0.0013
3709.00,0.0013
3708.00,0.0013
3707.00,0.0013
3706.00,0.0014
3705.00,0.0014
3704.00,0.0014
3703.00,0.0014
3702.00,0.0015
3701.00,0.0015
3700.00,0.0015
3699.00,0.0015
3698.00,0.0015
3697.00,0.0015
3696.00,0.0015
3695.00,0.0015
3694.00,0.0015
3693.00,0.0015
3692.00,0.0015
3691.00,0.0015
3690.00,0.0015
3689.00,0.0014
3688.00,0.0013
3687.00,0.0014
3686.00,0.0014
3685.00,0.0015
3684.00,0.0015
3683.00,0.0015
3682.00,0.0015
3681.00,0.0014
3680.00,0.0014
3679.00,0.0014
3678.00,0.0014
3677.00,0.0013
3676.00,0.0012
3675.00,0.0012
3674.00,0.0012
3673.00,0.0012
3672.00,0.0011
3671.00,0.0011
3670.00,0.0012
3669.00,0.0013
3668.00,0.0014
3667.00,0.0014
3666.00,0.0014
3665.00,0.0015
3664.00,0.0015
3663.00,0.0016
3662.00,0.0016
3661.00,0.0016
3660.00,0.0016
3659.00,0.0016
3658.00,0.0016
3657.00,0.0016
3656.00,0.0016
3655.00,0.0016
3654.00,0.0016
3653.00,0.0015
3652.00,0.0015
3651.00,0.0015
3650.00,0.0015
3649.00,0.0015
3648.00,0.0015
3647.00,0.0015
3646.00,0.0016
3645.00,0.0017
3644.00,0.0018
3643.00,0.0019
3642.00,0.0020
3641.00,0.0021
3640.00,0.0022
3639.00,0.0022
3638.00,0.0022
3637.00,0.0022
3636.00,0.0022
3635.00,0.0022
3634.00,0.0023
3633.00,0.0023
3632.00,0.0023
3631.00,0.0023
3630.00,0.0022
3629.00,0.0022
3628.00,0.0022
3627.00,0.0023
3626.00,0.0023
3625.00,0.0023
3624.00,0.0024
3623.00,0.0025
3622.00,0.0026
3621.00,0.0027
3620.00,0.0027
3619.00,0.0028
3618.00,0.0027
3617.00,0.0027
3616.00,0.0027
3615.00,0.0027
3614.00,0.0027
3613.00,0.0028
3612.00,0.0028
3611.00,0.0028
3610.00,0.0028
3609.00,0.0029
3608.00,0.0030
3607.00,0.0031
3606.00,0.0032
3605.00,0.0032
3604.00,0.0033
3603.00,0.0034
3602.00,0.0034
3601.00,0.0035
3600.00,0.0035
3599.00,0.0036
3598.00,0.0036
3597.00,0.0036
3596.00,0.0037
3595.00,0.0037
3594.00,0.0038
3593.00,0.0038
3592.00,0.0037
3591.00,0.0037
3590.00,0.0037
3589.00,0.0037
3588.00,0.0038
3587.00,0.0040
3586.00,0.0040
3585.00,0.0041
3584.00,0.0041
3583.00,0.0042
3582.00,0.0043
3581.00,0.0044
3580.00,0.0044
3579.00,0.0045
3578.00,0.0045
3577.00,0.0046
3576.00,0.0046
3575.00,0.0047
3574.00,0.0047
3573.00,0.0047
3572.00,0.0048
3571.00,0.0048
3570.00,0.0048
3569.00,0.0048
3568.00,0.0049
3567.00,0.0050
3566.00,0.0050
3565.00,0.0051
3564.00,0.0051
3563.00,0.0052
3562.00,0.0053
3561.00,0.0054
3560.00,0.0055
3559.00,0.0055
3558.00,0.0056
3557.00,0.0057
3556.00,0.0057
3555.00,0.0057
3554.00,0.0058
3553.00,0.0058
3552.00,0.0059
3551.00,0.0059
3550.00,0.0059
3549.00,0.0059
3548.00,0.0060
3547.00,0.0060
3546.00,0.0061
3545.00,0.0061
3544.00,0.0062
3543.00,0.0063
3542.00,0.0064
3541.00,0.0065
3540.00,0.0066
3539.00,0.0066
3538.00,0.0067
3537.00,0.0067
3536.00,0.0068
3535.00,0.0068
3534.00,0.0068
3533.00,0.0068
3532.00,0.0069
3531.00,0.0069
3530.00,0.0070
3529.00,0.0070
3528.00,0.0071
3527.00,0.0071
3526.00,0.0072
3525.00,0.0073
3524.00,0.0073
3523.00,0.0074
3522.00,0.0075
3521.00,0.0076
3520.00,0.0076
3519.00,0.0077
3518.00,0.0078
3517.00,0.0079
3516.00,0.0080
3515.00,0.0080
3514.00,0.0081
3513.00,0.0082
3512.00,0.0083
3511.00,0.0083
3510.00,0.0084
3509.00,0.0085
3508.00,0.0085
3507.00,0.0086
3506.00,0.0087
3505.00,0.0087
3504.00,0.0088
3503.00,0.0088
3502.00,0.0089
3501.00,0.0090
3500.00,0.0091
3499.00,0.0092
3498.00,0.0093
3497.00,0.0094
3496.00,0.0095
3495.00,0.0096
3494.00,0.0097
3493.00,0.0097
3492.00,0.0098
3491.00,0.0099
3490.00,0.0100
3489.00,0.0101
3488.00,0.0102
3487.00,0.0102
3486.00,0.0103
3485.00,0.0104
3484.00,0.0104
3483.00,0.0105
3482.00,0.0106
3481.00,0.0107
3480.00,0.0108
3479.00,0.0108
3478.00,0.0109
3477.00,0.0110
3476.00,0.0111
3475.00,0.0111
3474.00,0.0112
3473.00,0.0113
3472.00,0.0114
3471.00,0.0115
3470.00,0.0115
3469.00,0.0116
3468.00,0.0116
3467.00,0.0117
3466.00,0.0117
3465.00,0.0118
3464.00,0.0119
3463.00,0.0119
3462.00,0.0120
3461.00,0.0121
3460.00,0.0122
3459.00,0.0122
3458.00,0.0123
3457.00,0.0123
3456.00,0.0124
3455.00,0.0124
3454.00,0.0125
3453.00,0.0125
3452.00,0.0126
3451.00,0.0127
3450.00,0.0127
3449.00,0.0128
3448.00,0.0129
3447.00,0.0129
3446.00,0.0130
3445.00,0.0130
3444.00,0.0131
3443.00,0.0131
3442.00,0.0132
3441.00,0.0132
3440.00,0.0133
3439.00,0.0133
3438.00,0.0134
3437.00,0.0134
3436.00,0.0134
3435.00,0.0135
3434.00,0.0135
3433.00,0.0136
3432.00,0.0136
3431.00,0.0137
3430.00,0.0138
3429.00,0.0138
3428.00,0.0139
3427.00,0.0139
3426.00,0.0140
3425.00,0.0140
3424.00,0.0141
3423.00,0.0141
3422.00,0.0142
3421.00,0.0142
3420.00,0.0143
3419.00,0.0143
3418.00,0.0144
3417.00,0.0144
3416.00,0.0145
3415.00,0.0145
3414.00,0.0145
3413.00,0.0146
3412.00,0.0146
3411.00,0.0147
3410.00,0.0147
3409.00,0.0148
3408.00,0.0148
3407.00,0.0149
3406.00,0.0149
3405.00,0.0150
3404.00,0.0150
3403.00,0.0150
3402.00,0.0151
3401.00,0.0151
3400.00,0.0152
3399.00,0.0153
3398.00,0.0153
3397.00,0.0154
3396.00,0.0155
3395.00,0.0155
3394.00,0.0156
3393.00,0.0156
3392.00,0.0157
3391.00,0.0158
3390.00,0.0158
3389.00,0.0159
3388.00,0.0160
3387.00,0.0161
3386.00,0.0162
3385.00,0.0162
3384.00,0.0163
3383.00,0.0163
3382.00,0.0164
3381.00,0.0165
3380.00,0.0166
3379.00,0.0166
3378.00,0.0167
3377.00,0.0168
3376.00,0.0169
3375.00,0.0170
3374.00,0.0171
3373.00,0.0171
3372.00,0.0172
3371.00,0.0172
3370.00,0.0173
3369.00,0.0173
3368.00,0.0174
3367.00,0.0176
3366.00,0.0177
3365.00,0.0178
3364.00,0.0179
3363.00,0.0180
3362.00,0.0181
3361.00,0.0182
3360.00,0.0183
3359.00,0.0184
3358.00,0.0185
3357.00,0.0186
3356.00,0.0187
3355.00,0.0188
3354.00,0.0188
3353.00,0.0189
3352.00,0.0189
3351.00,0.0190
3350.00,0.0191
3349.00,0.0192
3348.00,0.0193
3347.00,0.0194
3346.00,0.0195
3345.00,0.0195
3344.00,0.0196
3343.00,0.0196
3342.00,0.0197
3341.00,0.0198
3340.00,0.0199
3339.00,0.0199
3338.00,0.0200
3337.00,0.0201
3336.00,0.0202
3335.00,0.0203
3334.00,0.0204
3333.00,0.0205
3332.00,0.0206
3331.00,0.0206
3330.00,0.0207
3329.00,0.0207
3328.00,0.0207
3327.00,0.0208
3326.00,0.0208
3325.00,0.0209
3324.00,0.0210
3323.00,0.0211
3322.00,0.0212
3321.00,0.0213
3320.00,0.0214
3319.00,0.0215
3318.00,0.0215
3317.00,0.0216
3316.00,0.0217
3315.00,0.0218
3314.00,0.0218
3313.00,0.0218
3312.00,0.0219
3311.00,0.0219
3310.00,0.0219
3309.00,0.0219
3308.00,0.0220
3307.00,0.0221
3306.00,0.0221
3305.00,0.0222
3304.00,0.0223
3303.00,0.0225
3302.00,0.0226
3301.00,0.0227
3300.00,0.0228
3299.00,0.0229
3298.00,0.0229
3297.00,0.0229
3296.00,0.0229
3295.00,0.0229
3294.00,0.0230
3293.00,0.0231
3292.00,0.0232
3291.00,0.0233
3290.00,0.0234
3289.00,0.0235
3288.00,0.0235
3287.00,0.0235
3286.00,0.0236
3285.00,0.0236
3284.00,0.0236
3283.00,0.0236
3282.00,0.0236
3281.00,0.0237
3280.00,0.0237
3279.00,0.0237
3278.00,0.0237
3277.00,0.0237
3276.00,0.0236
3275.00,0.0236
3274.00,0.0235
3273.00,0.0235
3272.00,0.0234
3271.00,0.0233
3270.00,0.0233
3269.00,0.0234
3268.00,0.0234
3267.00,0.0234
3266.00,0.0234
3265.00,0.0233
3264.00,0.0233
3263.00,0.0232
3262.00,0.0231
3261.00,0.0231
3260.00,0.0230
3259.00,0.0229
3258.00,0.0228
3257.00,0.0226
3256.00,0.0225
3255.00,0.0224
3254.00,0.0223
3253.00,0.0223
3252.00,0.0222
3251.00,0.0221
3250.00,0.0220
3249.00,0.0219
3248.00,0.0218
3247.00,0.0217
3246.00,0.0216
3245.00,0.0216
3244.00,0.0215
3243.00,0.0215
3242.00,0.0214
3241.00,0.0213
3240.00,0.0213
3239.00,0.0212
3238.00,0.0211
3237.00,0.0210
3236.00,0.0209
3235.00,0.0208
3234.00,0.0207
3233.00,0.0207
3232.00,0.0207
3231.00,0.0206
3230.00,0.0206
3229.00,0.0206
3228.00,0.0206
3227.00,0.0206
3226.00,0.0206
3225.00,0.0205
3224.00,0.0205
3223.00,0.0205
3222.00,0.0204
3221.00,0.0204
3220.00,0.0203
3219.00,0.0202
3218.00,0.0202
3217.00,0.0201
3216.00,0.0201
3215.00,0.0201
3214.00,0.0201
3213.00,0.0200
3212.00,0.0200
3211.00,0.0200
3210.00,0.0199
3209.00,0.0199
3208.00,0.0199
3207.00,0.0198
3206.00,0.0198
3205.00,0.0198
3204.00,0.0198
3203.00,0.0197
3202.00,0.0197
3201.00,0.0196
3200.00,0.0196
3199.00,0.0195
3198.00,0.0194
3197.00,0.0194
3196.00,0.0193
3195.00,0.0193
3194.00,0.0192
3193.00,0.0192
3192.00,0.0191
3191.00,0.0190
3190.00,0.0190
3189.00,0.0189
3188.00,0.0189
3187.00,0.0188
3186.00,0.0187
3185.00,0.0186
3184.00,0.0185
3183.00,0.0184
3182.00,0.0184
3181.00,0.0183
3180.00,0.0182
3179.00,0.0182
3178.00,0.0181
3177.00,0.0180
3176.00,0.0180
3175.00,0.0179
3174.00,0.0179
3173.00,0.0178
3172.00,0.0177
3171.00,0.0177
3170.00,0.0176
3169.00,0.0175
3168.00,0.0175
3167.00,0.0174
3166.00,0.0173
3165.00,0.0172
3164.00,0.0171
3163.00,0.0170
3162.00,0.0169
3161.00,0.0169
3160.00,0.0168
3159.00,0.0167
3158.00,0.0166
3157.00,0.0165
3156.00,0.0164
3155.00,0.0164
3154.00,0.0162
3153.00,0.0162
3152.00,0.0161
3151.00,0.0160
3150.00,0.0160
3149.00,0.0160
3148.00,0.0159
3147.00,0.0158
3146.00,0.0158
3145.00,0.0157
3144.00,0.0156
3143.00,0.0156
3142.00,0.0155
3141.00,0.0154
3140.00,0.0153
3139.00,0.0153
3138.00,0.0152
3137.00,0.0152
3136.00,0.0152
3135.00,0.0151
3134.00,0.0151
3133.00,0.0150
3132.00,0.0150
3131.00,0.0149
3130.00,0.0148
3129.00,0.0148
3128.00,0.0147
3127.00,0.0147
3126.00,0.0147
3125.00,0.0147
3124.00,0.0146
3123.00,0.0145
3122.00,0.0144
3121.00,0.0144
3120.00,0.0143
3119.00,0.0143
3118.00,0.0142
3117.00,0.0142
3116.00,0.0142
3115.00,0.0142
3114.00,0.0142
3113.00,0.0142
3112.00,0.0142
3111.00,0.0142
3110.00,0.0142
3109.00,0.0141
3108.00,0.0141
3107.00,0.0142
3106.00,0.0142
3105.00,0.0142
3104.00,0.0142
3103.00,0.0142
3102.00,0.0142
3101.00,0.0141
3100.00,0.0141
3099.00,0.0141
3098.00,0.0141
3097.00,0.0141
3096.00,0.0141
3095.00,0.0141
3094.00,0.0141
3093.00,0.0141
3092.00,0.0141
3091.00,0.0141
3090.00,0.0141
3089.00,0.0141
3088.00,0.0141
3087.00,0.0141
3086.00,0.0141
3085.00,0.0140
3084.00,0.0140
3083.00,0.0140
3082.00,0.0140
3081.00,0.0139
3080.00,0.0139
3079.00,0.0139
3078.00,0.0140
3077.00,0.0140
3076.00,0.0141
3075.00,0.0141
3074.00,0.0142
3073.00,0.0142
3072.00,0.0142
3071.00,0.0141
3070.00,0.0141
3069.00,0.0140
3068.00,0.0140
3067.00,0.0139
3066.00,0.0140
3065.00,0.0140
3064.00,0.0140
3063.00,0.0140
3062.00,0.0140
3061.00,0.0140
3060.00,0.0140
3059.00,0.0139
3058.00,0.0139
3057.00,0.0138
3056.00,0.0138
3055.00,0.0137
3054.00,0.0136
3053.00,0.0136
3052.00,0.0135
3051.00,0.0135
3050.00,0.0134
3049.00,0.0134
3048.00,0.0133
3047.00,0.0133
3046.00,0.0132
3045.00,0.0131
3044.00,0.0131
3043.00,0.0130
3042.00,0.0129
3041.00,0.0129
3040.00,0.0128
3039.00,0.0128
3038.00,0.0128
3037.00,0.0128
3036.00,0.0127
3035.00,0.0126
3034.00,0.0125
3033.00,0.0125
3032.00,0.0125
3031.00,0.0125
3030.00,0.0125
3029.00,0.0125
3028.00,0.0124
3027.00,0.0124
3026.00,0.0123
3025.00,0.0122
3024.00,0.0122
3023.00,0.0121
3022.00,0.0121
3021.00,0.0120
3020.00,0.0119
3019.00,0.0118
3018.00,0.0117
3017.00,0.0116
3016.00,0.0115
3015.00,0.0115
3014.00,0.0114
3013.00,0.0113
3012.00,0.0113
3011.00,0.0112
3010.00,0.0112
3009.00,0.0112
3008.00,0.0111
3007.00,0.0111
3006.00,0.0110
3005.00,0.0109
3004.00,0.0108
3003.00,0.0108
3002.00,0.0107
3001.00,0.0107
3000.00,0.0106
2999.00,0.0106
2998.00,0.0105
2997.00,0.0105
2996.00,0.0105
2995.00,0.0106
2994.00,0.0106
2993.00,0.0106
2992.00,0.0106
2991.00,0.0107
2990.00,0.0107
2989.00,0.0108
2988.00,0.0109
2987.00,0.0109
2986.00,0.0109
2985.00,0.0109
2984.00,0.0107
2983.00,0.0106
2982.00,0.0106
2981.00,0.0107
2980.00,0.0109
2979.00,0.0111
2978.00,0.0114
2977.00,0.0116
2976.00,0.0118
2975.00,0.0120
2974.00,0.0122
2973.00,0.0123
2972.00,0.0124
2971.00,0.0125
2970.00,0.0127
2969.00,0.0129
2968.00,0.0131
2967.00,0.0133
2966.00,0.0135
2965.00,0.0136
2964.00,0.0137
2963.00,0.0138
2962.00,0.0138
2961.00,0.0139
2960.00,0.0139
2959.00,0.0139
2958.00,0.0139
2957.00,0.0139
2956.00,0.0139
2955.00,0.0139
2954.00,0.0139
2953.00,0.0139
2952.00,0.0139
2951.00,0.0139
2950.00,0.0138
2949.00,0.0138
2948.00,0.0138
2947.00,0.0139
2946.00,0.0139
2945.00,0.0139
2944.00,0.0140
2943.00,0.0141
2942.00,0.0141
2941.00,0.0142
2940.00,0.0143
2939.00,0.0143
2938.00,0.0144
2937.00,0.0144
2936.00,0.0144
2935.00,0.0144
2934.00,0.0144
2933.00,0.0144
2932.00,0.0143
2931.00,0.0143
2930.00,0.0143
2929.00,0.0143
2928.00,0.0143
2927.00,0.0143
2926.00,0.0143
2925.00,0.0142
2924.00,0.0142
2923.00,0.0142
2922.00,0.0142
2921.00,0.0141
2920.00,0.0140
2919.00,0.0139
2918.00,0.0138
2917.00,0.0137
2916.00,0.0136
2915.00,0.0135
2914.00,0.0134
2913.00,0.0133
2912.00,0.0132
2911.00,0.0130
2910.00,0.0129
2909.00,0.0128
2908.00,0.0127
2907.00,0.0126
2906.00,0.0125
2905.00,0.0125
2904.00,0.0124
2903.00,0.0123
2902.00,0.0122
2901.00,0.0122
2900.00,0.0121
2899.00,0.0121
2898.00,0.0120
2897.00,0.0119
2896.00,0.0119
2895.00,0.0118
2894.00,0.0118
2893.00,0.0117
2892.00,0.0117
2891.00,0.0116
2890.00,0.0116
2889.00,0.0116
2888.00,0.0116
2887.00,0.0116
2886.00,0.0116
2885.00,0.0116
2884.00,0.0116
2883.00,0.0117
2882.00,0.0117
2881.00,0.0118
2880.00,0.0119
2879.00,0.0120
2878.00,0.0120
2877.00,0.0120
2876.00,0.0120
2875.00,0.0120
2874.00,0.0120
2873.00,0.0119
2872.00,0.0119
2871.00,0.0119
2870.00,0.0118
2869.00,0.0117
2868.00,0.0116
2867.00,0.0115
2866.00,0.0114
2865.00,0.0113
2864.00,0.0112
2863.00,0.0111
2862.00,0.0110
2861.00,0.0109
2860.00,0.0109
2859.00,0.0108
2858.00,0.0108
2857.00,0.0107
2856.00,0.0107
2855.00,0.0106
2854.00,0.0106
2853.00,0.0106
2852.00,0.0105
2851.00,0.0105
2850.00,0.0104
2849.00,0.0104
2848.00,0.0103
2847.00,0.0102
2846.00,0.0101
2845.00,0.0100
2844.00,0.0099
2843.00,0.0099
2842.00,0.0098
2841.00,0.0097
2840.00,0.0096
2839.00,0.0095
2838.00,0.0094
2837.00,0.0094
2836.00,0.0093
2835.00,0.0093
2834.00,0.0093
2833.00,0.0092
2832.00,0.0092
2831.00,0.0091
2830.00,0.0091
2829.00,0.0091
2828.00,0.0091
2827.00,0.0090
2826.00,0.0090
2825.00,0.0090
2824.00,0.0089
2823.00,0.0089
2822.00,0.0089
2821.00,0.0088
2820.00,0.0088
2819.00,0.0088
2818.00,0.0088
2817.00,0.0087
2816.00,0.0087
2815.00,0.0087
2814.00,0.0086
2813.00,0.0086
2812.00,0.0086
2811.00,0.0085
2810.00,0.0085
2809.00,0.0085
2808.00,0.0085
2807.00,0.0084
2806.00,0.0084
2805.00,0.0084
2804.00,0.0084
2803.00,0.0083
2802.00,0.0083
2801.00,0.0083
2800.00,0.0083
2799.00,0.0082
2798.00,0.0082
2797.00,0.0082
2796.00,0.0082
2795.00,0.0082
2794.00,0.0081
2793.00,0.0081
2792.00,0.0081
2791.00,0.0080
2790.00,0.0080
2789.00,0.0080
2788.00,0.0080
2787.00,0.0080
2786.00,0.0080
2785.00,0.0080
2784.00,0.0079
2783.00,0.0079
2782.00,0.0079
2781.00,0.0079
2780.00,0.0079
2779.00,0.0078
2778.00,0.0078
2777.00,0.0078
2776.00,0.0077
2775.00,0.0077
2774.00,0.0077
2773.00,0.0077
2772.00,0.0077
2771.00,0.0076
2770.00,0.0076
2769.00,0.0076
2768.00,0.0076
2767.00,0.0075
2766.00,0.0075
2765.00,0.0075
2764.00,0.0075
2763.00,0.0075
2762.00,0.0075
2761.00,0.0075
2760.00,0.0074
2759.00,0.0074
2758.00,0.0073
2757.00,0.0073
2756.00,0.0073
2755.00,0.0073
2754.00,0.0073
2753.00,0.0073
2752.00,0.0073
2751.00,0.0072
2750.00,0.0072
2749.00,0.0072
2748.00,0.0072
2747.00,0.0072
2746.00,0.0072
2745.00,0.0071
2744.00,0.0071
2743.00,0.0071
2742.00,0.0071
2741.00,0.0071
2740.00,0.0070
2739.00,0.0070
2738.00,0.0070
2737.00,0.0070
2736.00,0.0070
2735.00,0.0070
2734.00,0.0069
2733.00,0.0069
2732.00,0.0069
2731.00,0.0069
2730.00,0.0068
2729.00,0.0068
2728.00,0.0068
2727.00,0.0068
2726.00,0.0067
2725.00,0.0067
2724.00,0.0067
2723.00,0.0067
2722.00,0.0067
2721.00,0.0067
2720.00,0.0067
2719.00,0.0067
2718.00,0.0066
2717.00,0.0066
2716.00,0.0066
2715.00,0.0066
2714.00,0.0066
2713.00,0.0065
2712.00,0.0065
2711.00,0.0065
2710.00,0.0065
2709.00,0.0064
2708.00,0.0064
2707.00,0.0064
2706.00,0.0064
2705.00,0.0064
2704.00,0.0064
2703.00,0.0064
2702.00,0.0063
2701.00,0.0063
2700.00,0.0063
2699.00,0.0063
2698.00,0.0063
2697.00,0.0063
2696.00,0.0063
2695.00,0.0063
2694.00,0.0063
2693.00,0.0063
2692.00,0.0063
2691.00,0.0063
2690.00,0.0062
2689.00,0.0062
2688.00,0.0062
2687.00,0.0062
2686.00,0.0062
2685.00,0.0062
2684.00,0.0061
2683.00,0.0061
2682.00,0.0061
2681.00,0.0061
2680.00,0.0061
2679.00,0.0061
2678.00,0.0061
2677.00,0.0061
2676.00,0.0061
2675.00,0.0060
2674.00,0.0060
2673.00,0.0060
2672.00,0.0060
2671.00,0.0060
2670.00,0.0060
2669.00,0.0060
2668.00,0.0060
2667.00,0.0060
2666.00,0.0060
2665.00,0.0061
2664.00,0.0061
2663.00,0.0062
2662.00,0.0062
2661.00,0.0062
2660.00,0.0063
2659.00,0.0063
2658.00,0.0063
2657.00,0.0063
2656.00,0.0063
2655.00,0.0063
2654.00,0.0063
2653.00,0.0063
2652.00,0.0063
2651.00,0.0063
2650.00,0.0063
2649.00,0.0063
2648.00,0.0063
2647.00,0.0063
2646.00,0.0063
2645.00,0.0063
2644.00,0.0062
2643.00,0.0062
2642.00,0.0062
2641.00,0.0062
2640.00,0.0062
2639.00,0.0061
2638.00,0.0061
2637.00,0.0061
2636.00,0.0061
2635.00,0.0061
2634.00,0.0061
2633.00,0.0061
2632.00,0.0061
2631.00,0.0061
2630.00,0.0060
2629.00,0.0060
2628.00,0.0060
2627.00,0.0060
2626.00,0.0060
2625.00,0.0060
2624.00,0.0060
2623.00,0.0060
2622.00,0.0060
2621.00,0.0060
2620.00,0.0060
2619.00,0.0060
2618.00,0.0059
2617.00,0.0059
2616.00,0.0058
2615.00,0.0058
2614.00,0.0058
2613.00,0.0058
2612.00,0.0058
2611.00,0.0058
2610.00,0.0058
2609.00,0.0058
2608.00,0.0057
2607.00,0.0057
2606.00,0.0057
2605.00,0.0057
2604.00,0.0057
2603.00,0.0057
2602.00,0.0057
2601.00,0.0057
2600.00,0.0057
2599.00,0.0056
2598.00,0.0056
2597.00,0.0056
2596.00,0.0056
2595.00,0.0056
2594.00,0.0056
2593.00,0.0055
2592.00,0.0055
2591.00,0.0055
2590.00,0.0055
2589.00,0.0055
2588.00,0.0055
2587.00,0.0055
2586.00,0.0054
2585.00,0.0054
2584.00,0.0054
2583.00,0.0054
2582.00,0.0053
2581.00,0.0053
2580.00,0.0053
2579.00,0.0053
2578.00,0.0052
2577.00,0.0052
2576.00,0.0052
2575.00,0.0052
2574.00,0.0051
2573.00,0.0051
2572.00,0.0051
2571.00,0.0051
2570.00,0.0051
2569.00,0.0051
2568.00,0.0051
2567.00,0.0051
2566.00,0.0050
2565.00,0.0050
2564.00,0.0050
2563.00,0.0050
2562.00,0.0050
2561.00,0.0050
2560.00,0.0050
2559.00,0.0050
2558.00,0.0050
2557.00,0.0050
2556.00,0.0050
2555.00,0.0049
2554.00,0.0049
2553.00,0.0049
2552.00,0.0049
2551.00,0.0049
2550.00,0.0049
2549.00,0.0049
2548.00,0.0049
2547.00,0.0048
2546.00,0.0048
2545.00,0.0048
2544.00,0.0048
2543.00,0.0048
2542.00,0.0049
2541.00,0.0048
2540.00,0.0048
2539.00,0.0048
2538.00,0.0048
2537.00,0.0048
2536.00,0.0048
2535.00,0.0047
2534.00,0.0046
2533.00,0.0046
2532.00,0.0046
2531.00,0.0046
2530.00,0.0046
2529.00,0.0046
2528.00,0.0046
2527.00,0.0046
2526.00,0.0046
2525.00,0.0046
2524.00,0.0046
2523.00,0.0046
2522.00,0.0045
2521.00,0.0045
2520.00,0.0046
2519.00,0.0045
2518.00,0.0045
2517.00,0.0045
2516.00,0.0046
2515.00,0.0045
2514.00,0.0045
2513.00,0.0045
2512.00,0.0045
2511.00,0.0045
2510.00,0.0045
2509.00,0.0045
2508.00,0.0045
2507.00,0.0045
2506.00,0.0045
2505.00,0.0045
2504.00,0.0045
2503.00,0.0045
2502.00,0.0044
2501.00,0.0044
2500.00,0.0044
2499.00,0.0044
2498.00,0.0044
2497.00,0.0044
2496.00,0.0044
2495.00,0.0044
2494.00,0.0044
2493.00,0.0044
2492.00,0.0044
2491.00,0.0044
2490.00,0.0043
2489.00,0.0043
2488.00,0.0043
2487.00,0.0043
2486.00,0.0043
2485.00,0.0043
2484.00,0.0043
2483.00,0.0043
2482.00,0.0043
2481.00,0.0043
2480.00,0.0043
2479.00,0.0043
2478.00,0.0043
2477.00,0.0043
2476.00,0.0043
2475.00,0.0043
2474.00,0.0043
2473.00,0.0043
2472.00,0.0043
2471.00,0.0042
2470.00,0.0042
2469.00,0.0042
2468.00,0.0042
2467.00,0.0042
2466.00,0.0042
2465.00,0.0042
2464.00,0.0042
2463.00,0.0042
2462.00,0.0042
2461.00,0.0042
2460.00,0.0042
2459.00,0.0043
2458.00,0.0043
2457.00,0.0043
2456.00,0.0043
2455.00,0.0043
2454.00,0.0043
2453.00,0.0042
2452.00,0.0042
2451.00,0.0042
2450.00,0.0042
2449.00,0.0042
2448.00,0.0042
2447.00,0.0042
2446.00,0.0042
2445.00,0.0041
2444.00,0.0041
2443.00,0.0040
2442.00,0.0040
2441.00,0.0040
2440.00,0.0040
2439.00,0.0040
2438.00,0.0040
2437.00,0.0040
2436.00,0.0040
2435.00,0.0040
2434.00,0.0040
2433.00,0.0040
2432.00,0.0040
2431.00,0.0040
2430.00,0.0040
2429.00,0.0039
2428.00,0.0039
2427.00,0.0039
2426.00,0.0038
2425.00,0.0038
2424.00,0.0038
2423.00,0.0038
2422.00,0.0038
2421.00,0.0038
2420.00,0.0038
2419.00,0.0037
2418.00,0.0037
2417.00,0.0037
2416.00,0.0037
2415.00,0.0037
2414.00,0.0037
2413.00,0.0037
2412.00,0.0037
2411.00,0.0037
2410.00,0.0036
2409.00,0.0036
2408.00,0.0035
2407.00,0.0035
2406.00,0.0035
2405.00,0.0034
2404.00,0.0035
2403.00,0.0035
2402.00,0.0035
2401.00,0.0035
2400.00,0.0035
2399.00,0.0035
2398.00,0.0035
2397.00,0.0035
2396.00,0.0034
2395.00,0.0034
2394.00,0.0034
2393.00,0.0034
2392.00,0.0034
2391.00,0.0034
2390.00,0.0034
2389.00,0.0034
2388.00,0.0034
2387.00,0.0034
2386.00,0.0034
2385.00,0.0034
2384.00,0.0033
2383.00,0.0033
2382.00,0.0033
2381.00,0.0033
2380.00,0.0033
2379.00,0.0033
2378.00,0.0033
2377.00,0.0033
2376.00,0.0033
2375.00,0.0033
2374.00,0.0032
2373.00,0.0032
2372.00,0.0033
2371.00,0.0033
2370.00,0.0033
2369.00,0.0032
2368.00,0.0032
2367.00,0.0032
2366.00,0.0032
2365.00,0.0033
2364.00,0.0033
2363.00,0.0033
2362.00,0.0033
2361.00,0.0033
2360.00,0.0033
2359.00,0.0033
2358.00,0.0033
2357.00,0.0033
2356.00,0.0033
2355.00,0.0033
2354.00,0.0033
2353.00,0.0032
2352.00,0.0031
2351.00,0.0031
2350.00,0.0032
2349.00,0.0034
2348.00,0.0036
2347.00,0.0037
2346.00,0.0037
2345.00,0.0036
2344.00,0.0036
2343.00,0.0036
2342.00,0.0036
2341.00,0.0036
2340.00,0.0036
2339.00,0.0037
2338.00,0.0036
2337.00,0.0036
2336.00,0.0036
2335.00,0.0036
2334.00,0.0036
2333.00,0.0036
2332.00,0.0036
2331.00,0.0036
2330.00,0.0037
2329.00,0.0039
2328.00,0.0042
2327.00,0.0046
2326.00,0.0049
2325.00,0.0051
2324.00,0.0050
2323.00,0.0048
2322.00,0.0046
2321.00,0.0044
2320.00,0.0043
2319.00,0.0043
2318.00,0.0042
2317.00,0.0042
2316.00,0.0041
2315.00,0.0041
2314.00,0.0040
2313.00,0.0040
2312.00,0.0040
2311.00,0.0040
2310.00,0.0040
2309.00,0.0040
2308.00,0.0039
2307.00,0.0039
2306.00,0.0039
2305.00,0.0039
2304.00,0.0040
2303.00,0.0040
2302.00,0.0040
2301.00,0.0040
2300.00,0.0040
2299.00,0.0040
2298.00,0.0041
2297.00,0.0041
2296.00,0.0042
2295.00,0.0042
2294.00,0.0043
2293.00,0.0043
2292.00,0.0044
2291.00,0.0045
2290.00,0.0046
2289.00,0.0046
2288.00,0.0047
2287.00,0.0047
2286.00,0.0047
2285.00,0.0046
2284.00,0.0045
2283.00,0.0044
2282.00,0.0043
2281.00,0.0043
2280.00,0.0043
2279.00,0.0042
2278.00,0.0042
2277.00,0.0041
2276.00,0.0041
2275.00,0.0041
2274.00,0.0041
2273.00,0.0041
2272.00,0.0041
2271.00,0.0041
2270.00,0.0040
2269.00,0.0039
2268.00,0.0038
2267.00,0.0037
2266.00,0.0037
2265.00,0.0038
2264.00,0.0039
2263.00,0.0040
2262.00,0.0041
2261.00,0.0042
2260.00,0.0041
2259.00,0.0040
2258.00,0.0039
2257.00,0.0037
2256.00,0.0037
2255.00,0.0036
2254.00,0.0036
2253.00,0.0036
2252.00,0.0036
2251.00,0.0036
2250.00,0.0036
2249.00,0.0036
2248.00,0.0036
2247.00,0.0037
2246.00,0.0037
2245.00,0.0036
2244.00,0.0036
2243.00,0.0036
2242.00,0.0035
2241.00,0.0035
2240.00,0.0035
2239.00,0.0035
2238.00,0.0036
2237.00,0.0036
2236.00,0.0036
2235.00,0.0036
2234.00,0.0037
2233.00,0.0037
2232.00,0.0038
2231.00,0.0038
2230.00,0.0038
2229.00,0.0037
2228.00,0.0036
2227.00,0.0035
2226.00,0.0035
2225.00,0.0035
2224.00,0.0035
2223.00,0.0036
2222.00,0.0035
2221.00,0.0035
2220.00,0.0035
2219.00,0.0034
2218.00,0.0034
2217.00,0.0034
2216.00,0.0034
2215.00,0.0034
2214.00,0.0033
2213.00,0.0033
2212.00,0.0034
2211.00,0.0034
2210.00,0.0034
2209.00,0.0034
2208.00,0.0034
2207.00,0.0034
2206.00,0.0034
2205.00,0.0035
2204.00,0.0036
2203.00,0.0037
2202.00,0.0037
2201.00,0.0037
2200.00,0.0037
2199.00,0.0037
2198.00,0.0036
2197.00,0.0036
2196.00,0.0036
2195.00,0.0036
2194.00,0.0036
2193.00,0.0036
2192.00,0.0036
2191.00,0.0036
2190.00,0.0037
2189.00,0.0037
2188.00,0.0037
2187.00,0.0037
2186.00,0.0036
2185.00,0.0035
2184.00,0.0035
2183.00,0.0034
2182.00,0.0034
2181.00,0.0034
2180.00,0.0035
2179.00,0.0034
2178.00,0.0033
2177.00,0.0031
2176.00,0.0030
2175.00,0.0030
2174.00,0.0032
2173.00,0.0035
2172.00,0.0039
2171.00,0.0043
2170.00,0.0046
2169.00,0.0047
2168.00,0.0046
2167.00,0.0045
2166.00,0.0044
2165.00,0.0044
2164.00,0.0046
2163.00,0.0046
2162.00,0.0041
2161.00,0.0030
2160.00,0.0017
2159.00,0.0006
2158.00,0.0001
2157.00,0.0000
2156.00,0.0003
2155.00,0.0006
2154.00,0.0008
2153.00,0.0011
2152.00,0.0012
2151.00,0.0013
2150.00,0.0012
2149.00,0.0012
2148.00,0.0013
2147.00,0.0014
2146.00,0.0015
2145.00,0.0016
2144.00,0.0017
2143.00,0.0017
2142.00,0.0017
2141.00,0.0017
2140.00,0.0016
2139.00,0.0015
2138.00,0.0014
2137.00,0.0013
2136.00,0.0012
2135.00,0.0012
2134.00,0.0012
2133.00,0.0012
2132.00,0.0013
2131.00,0.0014
2130.00,0.0015
2129.00,0.0017
2128.00,0.0019
2127.00,0.0020
2126.00,0.0022
2125.00,0.0024
2124.00,0.0025
2123.00,0.0026
2122.00,0.0026
2121.00,0.0026
2120.00,0.0026
2119.00,0.0027
2118.00,0.0028
2117.00,0.0029
2116.00,0.0031
2115.00,0.0032
2114.00,0.0032
2113.00,0.0032
2112.00,0.0033
2111.00,0.0032
2110.00,0.0032
2109.00,0.0031
2108.00,0.0031
2107.00,0.0031
2106.00,0.0031
2105.00,0.0031
2104.00,0.0030
2103.00,0.0030
2102.00,0.0029
2101.00,0.0029
2100.00,0.0029
2099.00,0.0029
2098.00,0.0028
2097.00,0.0026
2096.00,0.0025
2095.00,0.0025
2094.00,0.0026
2093.00,0.0027
2092.00,0.0028
2091.00,0.0029
2090.00,0.0030
2089.00,0.0030
2088.00,0.0031
2087.00,0.0031
2086.00,0.0032
2085.00,0.0032
2084.00,0.0032
2083.00,0.0031
2082.00,0.0031
2081.00,0.0031
2080.00,0.0031
2079.00,0.0031
2078.00,0.0032
2077.00,0.0032
2076.00,0.0033
2075.00,0.0033
2074.00,0.0032
2073.00,0.0032
2072.00,0.0032
2071.00,0.0031
2070.00,0.0030
2069.00,0.0030
2068.00,0.0030
2067.00,0.0030
2066.00,0.0029
2065.00,0.0029
2064.00,0.0028
2063.00,0.0027
2062.00,0.0026
2061.00,0.0026
2060.00,0.0026
2059.00,0.0027
2058.00,0.0028
2057.00,0.0028
2056.00,0.0028
2055.00,0.0028
2054.00,0.0030
2053.00,0.0033
2052.00,0.0037
2051.00,0.0037
2050.00,0.0035
2049.00,0.0031
2048.00,0.0028
2047.00,0.0027
2046.00,0.0026
2045.00,0.0027
2044.00,0.0027
2043.00,0.0028
2042.00,0.0028
2041.00,0.0029
2040.00,0.0029
2039.00,0.0029
2038.00,0.0028
2037.00,0.0027
2036.00,0.0026
2035.00,0.0024
2034.00,0.0023
2033.00,0.0024
2032.00,0.0024
2031.00,0.0024
2030.00,0.0022
2029.00,0.0020
2028.00,0.0018
2027.00,0.0017
2026.00,0.0016
2025.00,0.0016
2024.00,0.0017
2023.00,0.0019
2022.00,0.0020
2021.00,0.0021
2020.00,0.0022
2019.00,0.0022
2018.00,0.0023
2017.00,0.0023
2016.00,0.0024
2015.00,0.0023
2014.00,0.0023
2013.00,0.0023
2012.00,0.0023
2011.00,0.0021
2010.00,0.0019
2009.00,0.0016
2008.00,0.0013
2007.00,0.0012
2006.00,0.0011
2005.00,0.0012
2004.00,0.0014
2003.00,0.0016
2002.00,0.0017
2001.00,0.0018
2000.00,0.0018
1999.00,0.0019
1998.00,0.0020
1997.00,0.0021
1996.00,0.0022
1995.00,0.0022
1994.00,0.0022
1993.00,0.0022
1992.00,0.0023
1991.00,0.0024
1990.00,0.0025
1989.00,0.0027
1988.00,0.0028
1987.00,0.0029
1986.00,0.0029
1985.00,0.0030
1984.00,0.0033
1983.00,0.0036
1982.00,0.0038
1981.00,0.0039
1980.00,0.0037
1979.00,0.0031
1978.00,0.0023
1977.00,0.0017
1976.00,0.0014
1975.00,0.0014
1974.00,0.0014
1973.00,0.0014
1972.00,0.0014
1971.00,0.0015
1970.00,0.0016
1969.00,0.0017
1968.00,0.0018
1967.00,0.0018
1966.00,0.0017
1965.00,0.0017
1964.00,0.0017
1963.00,0.0017
1962.00,0.0016
1961.00,0.0015
1960.00,0.0013
1959.00,0.0012
1958.00,0.0012
1957.00,0.0012
1956.00,0.0014
1955.00,0.0015
1954.00,0.0016
1953.00,0.0016
1952.00,0.0017
1951.00,0.0017
1950.00,0.0017
1949.00,0.0017
1948.00,0.0018
1947.00,0.0018
1946.00,0.0017
1945.00,0.0016
1944.00,0.0016
1943.00,0.0016
1942.00,0.0017
1941.00,0.0018
1940.00,0.0018
1939.00,0.0018
1938.00,0.0018
1937.00,0.0017
1936.00,0.0017
1935.00,0.0016
1934.00,0.0016
1933.00,0.0016
1932.00,0.0016
1931.00,0.0017
1930.00,0.0017
1929.00,0.0017
1928.00,0.0017
1927.00,0.0017
1926.00,0.0016
1925.00,0.0016
1924.00,0.0017
1923.00,0.0018
1922.00,0.0019
1921.00,0.0020
1920.00,0.0020
1919.00,0.0019
1918.00,0.0019
1917.00,0.0018
1916.00,0.0019
1915.00,0.0019
1914.00,0.0019
1913.00,0.0019
1912.00,0.0020
1911.00,0.0020
1910.00,0.0020
1909.00,0.0020
1908.00,0.0020
1907.00,0.0020
1906.00,0.0020
1905.00,0.0020
1904.00,0.0020
1903.00,0.0020
1902.00,0.0020
1901.00,0.0020
1900.00,0.0021
1899.00,0.0021
1898.00,0.0021
1897.00,0.0021
1896.00,0.0022
1895.00,0.0022
1894.00,0.0021
1893.00,0.0021
1892.00,0.0021
1891.00,0.0021
1890.00,0.0020
1889.00,0.0021
1888.00,0.0021
1887.00,0.0022
1886.00,0.0022
1885.00,0.0022
1884.00,0.0023
1883.00,0.0022
1882.00,0.0022
1881.00,0.0022
1880.00,0.0022
1879.00,0.0021
1878.00,0.0021
1877.00,0.0021
1876.00,0.0021
1875.00,0.0021
1874.00,0.0020
1873.00,0.0020
1872.00,0.0019
1871.00,0.0019
1870.00,0.0018
1869.00,0.0018
1868.00,0.0019
1867.00,0.0020
1866.00,0.0020
1865.00,0.0020
1864.00,0.0021
1863.00,0.0021
1862.00,0.0021
1861.00,0.0022
1860.00,0.0022
1859.00,0.0021
1858.00,0.0021
1857.00,0.0021
1856.00,0.0021
1855.00,0.0021
1854.00,0.0021
1853.00,0.0021
1852.00,0.0021
1851.00,0.0021
1850.00,0.0020
1849.00,0.0019
1848.00,0.0019
1847.00,0.0019
1846.00,0.0019
1845.00,0.0020
1844.00,0.0020
1843.00,0.0021
1842.00,0.0020
1841.00,0.0020
1840.00,0.0020
1839.00,0.0020
1838.00,0.0020
1837.00,0.0021
1836.00,0.0021
1835.00,0.0021
1834.00,0.0021
1833.00,0.0021
1832.00,0.0021
1831.00,0.0021
1830.00,0.0021
1829.00,0.0021
1828.00,0.0021
1827.00,0.0021
1826.00,0.0020
1825.00,0.0021
1824.00,0.0021
1823.00,0.0021
1822.00,0.0021
1821.00,0.0021
1820.00,0.0020
1819.00,0.0020
1818.00,0.0019
1817.00,0.0018
1816.00,0.0019
1815.00,0.0019
1814.00,0.0020
1813.00,0.0020
1812.00,0.0020
1811.00,0.0021
1810.00,0.0021
1809.00,0.0022
1808.00,0.0022
1807.00,0.0022
1806.00,0.0022
1805.00,0.0022
1804.00,0.0022
1803.00,0.0022
1802.00,0.0021
1801.00,0.0021
1800.00,0.0021
1799.00,0.0021
1798.00,0.0021
1797.00,0.0021
1796.00,0.0022
1795.00,0.0022
1794.00,0.0022
1793.00,0.0021
1792.00,0.0022
1791.00,0.0023
1790.00,0.0023
1789.00,0.0023
1788.00,0.0024
1787.00,0.0024
1786.00,0.0024
1785.00,0.0024
1784.00,0.0024
1783.00,0.0024
1782.00,0.0023
1781.00,0.0023
1780.00,0.0023
1779.00,0.0023
1778.00,0.0022
1777.00,0.0022
1776.00,0.0022
1775.00,0.0023
1774.00,0.0023
1773.00,0.0023
1772.00,0.0023
1771.00,0.0024
1770.00,0.0024
1769.00,0.0024
1768.00,0.0024
1767.00,0.0025
1766.00,0.0025
1765.00,0.0025
1764.00,0.0025
1763.00,0.0026
1762.00,0.0026
1761.00,0.0026
1760.00,0.0026
1759.00,0.0026
1758.00,0.0026
1757.00,0.0026
1756.00,0.0027
1755.00,0.0027
1754.00,0.0027
1753.00,0.0027
1752.00,0.0026
1751.00,0.0026
1750.00,0.0026
1749.00,0.0026
1748.00,0.0027
1747.00,0.0028
1746.00,0.0028
1745.00,0.0029
1744.00,0.0030
1743.00,0.0031
1742.00,0.0031
1741.00,0.0031
1740.00,0.0032
1739.00,0.0033
1738.00,0.0034
1737.00,0.0035
1736.00,0.0036
1735.00,0.0037
1734.00,0.0038
1733.00,0.0038
1732.00,0.0039
1731.00,0.0039
1730.00,0.0040
1729.00,0.0042
1728.00,0.0044
1727.00,0.0046
1726.00,0.0047
1725.00,0.0048
1724.00,0.0050
1723.00,0.0052
1722.00,0.0053
1721.00,0.0054
1720.00,0.0056
1719.00,0.0058
1718.00,0.0060
1717.00,0.0062
1716.00,0.0066
1715.00,0.0069
1714.00,0.0071
1713.00,0.0074
1712.00,0.0078
1711.00,0.0082
1710.00,0.0086
1709.00,0.0089
1708.00,0.0094
1707.00,0.0099
1706.00,0.0105
1705.00,0.0112
1704.00,0.0120
1703.00,0.0127
1702.00,0.0134
1701.00,0.0143
1700.00,0.0156
1699.00,0.0169
1698.00,0.0179
1697.00,0.0189
1696.00,0.0203
1695.00,0.0216
1694.00,0.0226
1693.00,0.0235
1692.00,0.0244
1691.00,0.0253
1690.00,0.0263
1689.00,0.0274
1688.00,0.0285
1687.00,0.0295
1686.00,0.0304
1685.00,0.0314
1684.00,0.0326
1683.00,0.0337
1682.00,0.0347
1681.00,0.0357
1680.00,0.0367
1679.00,0.0377
1678.00,0.0386
1677.00,0.0395
1676.00,0.0404
1675.00,0.0413
1674.00,0.0422
1673.00,0.0430
1672.00,0.0439
1671.00,0.0447
1670.00,0.0455
1669.00,0.0464
1668.00,0.0473
1667.00,0.0482
1666.00,0.0491
1665.00,0.0499
1664.00,0.0508
1663.00,0.0516
1662.00,0.0524
1661.00,0.0532
1660.00,0.0540
1659.00,0.0548
1658.00,0.0556
1657.00,0.0565
1656.00,0.0574
1655.00,0.0582
1654.00,0.0586
1653.00,0.0587
1652.00,0.0588
1651.00,0.0591
1650.00,0.0594
1649.00,0.0598
1648.00,0.0600
1647.00,0.0600
1646.00,0.0599
1645.00,0.0599
1644.00,0.0601
1643.00,0.0602
1642.00,0.0603
1641.00,0.0603
1640.00,0.0603
1639.00,0.0604
1638.00,0.0605
1637.00,0.0604
1636.00,0.0600
1635.00,0.0596
1634.00,0.0595
1633.00,0.0595
1632.00,0.0597
1631.00,0.0597
1630.00,0.0597
1629.00,0.0595
1628.00,0.0594
1627.00,0.0592
1626.00,0.0590
1625.00,0.0588
1624.00,0.0584
1623.00,0.0578
1622.00,0.0573
1621.00,0.0569
1620.00,0.0567
1619.00,0.0563
1618.00,0.0556
1617.00,0.0546
1616.00,0.0534
1615.00,0.0524
1614.00,0.0516
1613.00,0.0509
1612.00,0.0501
1611.00,0.0492
1610.00,0.0483
1609.00,0.0474
1608.00,0.0466
1607.00,0.0458
1606.00,0.0450
1605.00,0.0443
1604.00,0.0436
1603.00,0.0429
1602.00,0.0423
1601.00,0.0418
1600.00,0.0412
1599.00,0.0406
1598.00,0.0401
1597.00,0.0396
1596.00,0.0391
1595.00,0.0386
1594.00,0.0381
1593.00,0.0377
1592.00,0.0373
1591.00,0.0368
1590.00,0.0364
1589.00,0.0361
1588.00,0.0358
1587.00,0.0354
1586.00,0.0352
1585.00,0.0350
1584.00,0.0348
1583.00,0.0346
1582.00,0.0345
1581.00,0.0345
1580.00,0.0345
1579.00,0.0345
1578.00,0.0345
1577.00,0.0345
1576.00,0.0344
1575.00,0.0344
1574.00,0.0345
1573.00,0.0347
1572.00,0.0348
1571.00,0.0349
1570.00,0.0350
1569.00,0.0352
1568.00,0.0354
1567.00,0.0356
1566.00,0.0359
1565.00,0.0362
1564.00,0.0365
1563.00,0.0370
1562.00,0.0375
1561.00,0.0378
1560.00,0.0379
1559.00,0.0380
1558.00,0.0385
1557.00,0.0391
1556.00,0.0397
1555.00,0.0401
1554.00,0.0406
1553.00,0.0411
1552.00,0.0416
1551.00,0.0421
1550.00,0.0426
1549.00,0.0431
1548.00,0.0436
1547.00,0.0441
1546.00,0.0445
1545.00,0.0449
1544.00,0.0453
1543.00,0.0456
1542.00,0.0459
1541.00,0.0461
1540.00,0.0464
1539.00,0.0467
1538.00,0.0470
1537.00,0.0473
1536.00,0.0476
1535.00,0.0478
1534.00,0.0479
1533.00,0.0480
1532.00,0.0482
1531.00,0.0484
1530.00,0.0486
1529.00,0.0487
1528.00,0.0488
1527.00,0.0488
1526.00,0.0488
1525.00,0.0487
1524.00,0.0488
1523.00,0.0488
1522.00,0.0487
1521.00,0.0486
1520.00,0.0486
1519.00,0.0486
1518.00,0.0487
1517.00,0.0487
1516.00,0.0486
1515.00,0.0486
1514.00,0.0485
1513.00,0.0482
1512.00,0.0478
1511.00,0.0474
1510.00,0.0471
1509.00,0.0466
1508.00,0.0460
1507.00,0.0452
1506.00,0.0444
1505.00,0.0438
1504.00,0.0435
1503.00,0.0432
1502.00,0.0428
1501.00,0.0424
1500.00,0.0420
1499.00,0.0415
1498.00,0.0410
1497.00,0.0404
1496.00,0.0397
1495.00,0.0391
1494.00,0.0385
1493.00,0.0379
1492.00,0.0371
1491.00,0.0363
1490.00,0.0354
1489.00,0.0346
1488.00,0.0340
1487.00,0.0333
1486.00,0.0327
1485.00,0.0322
1484.00,0.0316
1483.00,0.0311
1482.00,0.0307
1481.00,0.0303
1480.00,0.0300
1479.00,0.0297
1478.00,0.0295
1477.00,0.0293
1476.00,0.0293
1475.00,0.0294
1474.00,0.0295
1473.00,0.0297
1472.00,0.0302
1471.00,0.0306
1470.00,0.0311
1469.00,0.0315
1468.00,0.0319
1467.00,0.0323
1466.00,0.0326
1465.00,0.0328
1464.00,0.0331
1463.00,0.0334
1462.00,0.0337
1461.00,0.0339
1460.00,0.0341
1459.00,0.0343
1458.00,0.0345
1457.00,0.0345
1456.00,0.0345
1455.00,0.0345
1454.00,0.0345
1453.00,0.0345
1452.00,0.0344
1451.00,0.0344
1450.00,0.0345
1449.00,0.0344
1448.00,0.0345
1447.00,0.0346
1446.00,0.0347
1445.00,0.0348
1444.00,0.0349
1443.00,0.0351
1442.00,0.0352
1441.00,0.0353
1440.00,0.0354
1439.00,0.0355
1438.00,0.0355
1437.00,0.0353
1436.00,0.0351
1435.00,0.0349
1434.00,0.0347
1433.00,0.0345
1432.00,0.0342
1431.00,0.0340
1430.00,0.0338
1429.00,0.0336
1428.00,0.0336
1427.00,0.0336
1426.00,0.0337
1425.00,0.0338
1424.00,0.0339
1423.00,0.0341
1422.00,0.0343
1421.00,0.0343
1420.00,0.0343
1419.00,0.0341
1418.00,0.0338
1417.00,0.0336
1416.00,0.0334
1415.00,0.0331
1414.00,0.0329
1413.00,0.0327
1412.00,0.0325
1411.00,0.0323
1410.00,0.0321
1409.00,0.0320
1408.00,0.0320
1407.00,0.0319
1406.00,0.0319
1405.00,0.0319
1404.00,0.0319
1403.00,0.0320
1402.00,0.0321
1401.00,0.0321
1400.00,0.0321
1399.00,0.0320
1398.00,0.0321
1397.00,0.0321
1396.00,0.0322
1395.00,0.0323
1394.00,0.0324
1393.00,0.0324
1392.00,0.0324
1391.00,0.0325
1390.00,0.0325
1389.00,0.0325
1388.00,0.0325
1387.00,0.0323
1386.00,0.0322
1385.00,0.0320
1384.00,0.0318
1383.00,0.0315
1382.00,0.0313
1381.00,0.0310
1380.00,0.0308
1379.00,0.0305
1378.00,0.0303
1377.00,0.0301
1376.00,0.0299
1375.00,0.0298
1374.00,0.0296
1373.00,0.0295
1372.00,0.0294
1371.00,0.0292
1370.00,0.0291
1369.00,0.0289
1368.00,0.0287
1367.00,0.0284
1366.00,0.0281
1365.00,0.0278
1364.00,0.0274
1363.00,0.0270
1362.00,0.0267
1361.00,0.0265
1360.00,0.0262
1359.00,0.0260
1358.00,0.0257
1357.00,0.0255
1356.00,0.0254
1355.00,0.0252
1354.00,0.0251
1353.00,0.0250
1352.00,0.0249
1351.00,0.0248
1350.00,0.0247
1349.00,0.0247
1348.00,0.0246
1347.00,0.0246
1346.00,0.0245
1345.00,0.0245
1344.00,0.0245
1343.00,0.0245
1342.00,0.0245
1341.00,0.0245
1340.00,0.0245
1339.00,0.0245
1338.00,0.0245
1337.00,0.0246
1336.00,0.0246
1335.00,0.0247
1334.00,0.0247
1333.00,0.0247
1332.00,0.0247
1331.00,0.0247
1330.00,0.0248
1329.00,0.0249
1328.00,0.0250
1327.00,0.0251
1326.00,0.0252
1325.00,0.0253
1324.00,0.0254
1323.00,0.0256
1322.00,0.0257
1321.00,0.0259
1320.00,0.0260
1319.00,0.0261
1318.00,0.0262
1317.00,0.0263
1316.00,0.0264
1315.00,0.0265
1314.00,0.0265
1313.00,0.0265
1312.00,0.0264
1311.00,0.0264
1310.00,0.0264
1309.00,0.0263
1308.00,0.0262
1307.00,0.0262
1306.00,0.0261
1305.00,0.0261
1304.00,0.0262
1303.00,0.0262
1302.00,0.0263
1301.00,0.0265
1300.00,0.0266
1299.00,0.0269
1298.00,0.0271
1297.00,0.0275
1296.00,0.0278
1295.00,0.0282
1294.00,0.0287
1293.00,0.0291
1292.00,0.0296
1291.00,0.0300
1290.00,0.0304
1289.00,0.0307
1288.00,0.0310
1287.00,0.0312
1286.00,0.0314
1285.00,0.0315
1284.00,0.0315
1283.00,0.0314
1282.00,0.0313
1281.00,0.0312
1280.00,0.0311
1279.00,0.0310
1278.00,0.0309
1277.00,0.0309
1276.00,0.0309
1275.00,0.0310
1274.00,0.0310
1273.00,0.0311
1272.00,0.0312
1271.00,0.0313
1270.00,0.0313
1269.00,0.0313
1268.00,0.0313
1267.00,0.0313
1266.00,0.0312
1265.00,0.0311
1264.00,0.0310
1263.00,0.0310
1262.00,0.0309
1261.00,0.0308
1260.00,0.0308
1259.00,0.0308
1258.00,0.0308
1257.00,0.0308
1256.00,0.0308
1255.00,0.0308
1254.00,0.0308
1253.00,0.0309
1252.00,0.0310
1251.00,0.0311
1250.00,0.0313
1249.00,0.0314
1248.00,0.0316
1247.00,0.0318
1246.00,0.0319
1245.00,0.0321
1244.00,0.0323
1243.00,0.0325
1242.00,0.0326
1241.00,0.0328
1240.00,0.0330
1239.00,0.0331
1238.00,0.0333
1237.00,0.0335
1236.00,0.0336
1235.00,0.0337
1234.00,0.0338
1233.00,0.0339
1232.00,0.0340
1231.00,0.0340
1230.00,0.0339
1229.00,0.0339
1228.00,0.0338
1227.00,0.0337
1226.00,0.0336
1225.00,0.0334
1224.00,0.0333
1223.00,0.0331
1222.00,0.0329
1221.00,0.0327
1220.00,0.0324
1219.00,0.0322
1218.00,0.0319
1217.00,0.0316
1216.00,0.0313
1215.00,0.0310
1214.00,0.0306
1213.00,0.0303
1212.00,0.0299
1211.00,0.0295
1210.00,0.0292
1209.00,0.0288
1208.00,0.0285
1207.00,0.0281
1206.00,0.0278
1205.00,0.0274
1204.00,0.0271
1203.00,0.0267
1202.00,0.0264
1201.00,0.0261
1200.00,0.0258
1199.00,0.0255
1198.00,0.0253
1197.00,0.0251
1196.00,0.0248
1195.00,0.0246
1194.00,0.0243
1193.00,0.0241
1192.00,0.0239
1191.00,0.0237
1190.00,0.0236
1189.00,0.0234
1188.00,0.0232
1187.00,0.0231
1186.00,0.0230
1185.00,0.0230
1184.00,0.0229
1183.00,0.0228
1182.00,0.0228
1181.00,0.0228
1180.00,0.0228
1179.00,0.0229
1178.00,0.0229
1177.00,0.0231
1176.00,0.0233
1175.00,0.0235
1174.00,0.0237
1173.00,0.0239
1172.00,0.0241
1171.00,0.0243
1170.00,0.0244
1169.00,0.0245
1168.00,0.0246
1167.00,0.0247
1166.00,0.0249
1165.00,0.0250
1164.00,0.0252
1163.00,0.0254
1162.00,0.0255
1161.00,0.0256
1160.00,0.0257
1159.00,0.0258
1158.00,0.0258
1157.00,0.0259
1156.00,0.0259
1155.00,0.0259
1154.00,0.0259
1153.00,0.0258
1152.00,0.0257
1151.00,0.0256
1150.00,0.0254
1149.00,0.0253
1148.00,0.0251
1147.00,0.0250
1146.00,0.0248
1145.00,0.0247
1144.00,0.0245
1143.00,0.0243
1142.00,0.0241
1141.00,0.0239
1140.00,0.0238
1139.00,0.0237
1138.00,0.0236
1137.00,0.0235
1136.00,0.0234
1135.00,0.0234
1134.00,0.0234
1133.00,0.0235
1132.00,0.0236
1131.00,0.0237
1130.00,0.0238
1129.00,0.0239
1128.00,0.0240
1127.00,0.0241
1126.00,0.0243
1125.00,0.0245
1124.00,0.0246
1123.00,0.0248
1122.00,0.0249
1121.00,0.0251
1120.00,0.0252
1119.00,0.0253
1118.00,0.0255
1117.00,0.0257
1116.00,0.0258
1115.00,0.0260
1114.00,0.0262
1113.00,0.0264
1112.00,0.0266
1111.00,0.0268
1110.00,0.0269
1109.00,0.0271
1108.00,0.0272
1107.00,0.0274
1106.00,0.0276
1105.00,0.0278
1104.00,0.0279
1103.00,0.0281
1102.00,0.0282
1101.00,0.0283
1100.00,0.0285
1099.00,0.0286
1098.00,0.0288
1097.00,0.0289
1096.00,0.0291
1095.00,0.0293
1094.00,0.0295
1093.00,0.0297
1092.00,0.0298
1091.00,0.0301
1090.00,0.0303
1089.00,0.0306
1088.00,0.0309
1087.00,0.0312
1086.00,0.0315
1085.00,0.0317
1084.00,0.0320
1083.00,0.0322
1082.00,0.0324
1081.00,0.0325
1080.00,0.0326
1079.00,0.0327
1078.00,0.0327
1077.00,0.0327
1076.00,0.0326
1075.00,0.0325
1074.00,0.0324
1073.00,0.0323
1072.00,0.0321
1071.00,0.0320
1070.00,0.0319
1069.00,0.0319
1068.00,0.0319
1067.00,0.0319
1066.00,0.0319
1065.00,0.0319
1064.00,0.0320
1063.00,0.0321
1062.00,0.0322
1061.00,0.0323
1060.00,0.0324
1059.00,0.0326
1058.00,0.0327
1057.00,0.0329
1056.00,0.0330
1055.00,0.0331
1054.00,0.0331
1053.00,0.0332
1052.00,0.0333
1051.00,0.0333
1050.00,0.0334
1049.00,0.0334
1048.00,0.0334
1047.00,0.0334
1046.00,0.0334
1045.00,0.0333
1044.00,0.0333
1043.00,0.0332
1042.00,0.0331
1041.00,0.0330
1040.00,0.0330
1039.00,0.0330
1038.00,0.0329
1037.00,0.0329
1036.00,0.0329
1035.00,0.0329
1034.00,0.0329
1033.00,0.0330
1032.00,0.0330
1031.00,0.0330
1030.00,0.0331
1029.00,0.0331
1028.00,0.0331
1027.00,0.0331
1026.00,0.0331
1025.00,0.0331
1024.00,0.0331
1023.00,0.0330
1022.00,0.0329
1021.00,0.0328
1020.00,0.0326
1019.00,0.0324
1018.00,0.0321
1017.00,0.0318
1016.00,0.0315
1015.00,0.0311
1014.00,0.0308
1013.00,0.0304
1012.00,0.0301
1011.00,0.0298
1010.00,0.0295
1009.00,0.0291
1008.00,0.0288
1007.00,0.0285
1006.00,0.0283
1005.00,0.0282
1004.00,0.0280
1003.00,0.0278
1002.00,0.0276
1001.00,0.0273
1000.00,0.0271
999.00,0.0268
998.00,0.0265
997.00,0.0262
996.00,0.0259
995.00,0.0256
994.00,0.0253
993.00,0.0250
992.00,0.0247
991.00,0.0243
990.00,0.0239
989.00,0.0235
988.00,0.0232
987.00,0.0229
986.00,0.0226
985.00,0.0223
984.00,0.0220
983.00,0.0218
982.00,0.0215
981.00,0.0214
980.00,0.0212
979.00,0.0211
978.00,0.0210
977.00,0.0210
976.00,0.0209
975.00,0.0209
974.00,0.0209
973.00,0.0209
972.00,0.0209
971.00,0.0209
970.00,0.0209
969.00,0.0208
968.00,0.0208
967.00,0.0208
966.00,0.0209
965.00,0.0209
964.00,0.0210
963.00,0.0209
962.00,0.0209
961.00,0.0208
960.00,0.0206
959.00,0.0205
958.00,0.0203
957.00,0.0202
956.00,0.0200
955.00,0.0198
954.00,0.0197
953.00,0.0195
952.00,0.0194
951.00,0.0193
950.00,0.0192
949.00,0.0191
948.00,0.0190
947.00,0.0190
946.00,0.0191
945.00,0.0191
944.00,0.0192
943.00,0.0192
942.00,0.0193
941.00,0.0194
940.00,0.0195
939.00,0.0196
938.00,0.0198
937.00,0.0199
936.00,0.0201
935.00,0.0202
934.00,0.0204
933.00,0.0205
932.00,0.0205
931.00,0.0205
930.00,0.0204
929.00,0.0204
928.00,0.0204
927.00,0.0204
926.00,0.0204
925.00,0.0204
924.00,0.0203
923.00,0.0202
922.00,0.0202
921.00,0.0201
920.00,0.0201
919.00,0.0200
918.00,0.0198
917.00,0.0197
916.00,0.0196
915.00,0.0195
914.00,0.0194
913.00,0.0193
912.00,0.0191
911.00,0.0190
910.00,0.0189
909.00,0.0188
908.00,0.0188
907.00,0.0187
906.00,0.0187
905.00,0.0187
904.00,0.0187
903.00,0.0187
902.00,0.0187
901.00,0.0187
900.00,0.0188
899.00,0.0188
898.00,0.0188
897.00,0.0189
896.00,0.0189
895.00,0.0190
894.00,0.0190
893.00,0.0190
892.00,0.0190
891.00,0.0189
890.00,0.0189
889.00,0.0189
888.00,0.0189
887.00,0.0189
886.00,0.0189
885.00,0.0189
884.00,0.0189
883.00,0.0189
882.00,0.0189
881.00,0.0189
880.00,0.0188
879.00,0.0188
878.00,0.0187
877.00,0.0187
876.00,0.0187
875.00,0.0186
874.00,0.0186
873.00,0.0186
872.00,0.0186
871.00,0.0186
870.00,0.0186
869.00,0.0187
868.00,0.0188
867.00,0.0189
866.00,0.0190
865.00,0.0191
864.00,0.0192
863.00,0.0193
862.00,0.0194
861.00,0.0196
860.00,0.0197
859.00,0.0197
858.00,0.0198
857.00,0.0199
856.00,0.0200
855.00,0.0202
854.00,0.0203
853.00,0.0204
852.00,0.0206
851.00,0.0207
850.00,0.0208
849.00,0.0209
848.00,0.0210
847.00,0.0211
846.00,0.0212
845.00,0.0213
844.00,0.0213
843.00,0.0212
842.00,0.0213
841.00,0.0214
840.00,0.0215
839.00,0.0216
838.00,0.0217
837.00,0.0218
836.00,0.0218
835.00,0.0218
834.00,0.0219
833.00,0.0220
832.00,0.0220
831.00,0.0221
830.00,0.0222
829.00,0.0222
828.00,0.0222
827.00,0.0222
826.00,0.0222
825.00,0.0222
824.00,0.0222
823.00,0.0222
822.00,0.0222
821.00,0.0222
820.00,0.0222
819.00,0.0222
818.00,0.0223
817.00,0.0223
816.00,0.0224
815.00,0.0224
814.00,0.0225
813.00,0.0225
812.00,0.0226
811.00,0.0227
810.00,0.0228
809.00,0.0229
808.00,0.0230
807.00,0.0230
806.00,0.0231
805.00,0.0232
804.00,0.0233
803.00,0.0234
802.00,0.0235
801.00,0.0237
800.00,0.0238
799.00,0.0239
798.00,0.0240
797.00,0.0242
796.00,0.0243
795.00,0.0245
794.00,0.0246
793.00,0.0248
792.00,0.0250
791.00,0.0252
790.00,0.0255
789.00,0.0257
788.00,0.0259
787.00,0.0261
786.00,0.0263
785.00,0.0265
784.00,0.0267
783.00,0.0270
782.00,0.0272
781.00,0.0273
780.00,0.0275
779.00,0.0275
778.00,0.0275
777.00,0.0275
776.00,0.0274
775.00,0.0273
774.00,0.0273
773.00,0.0272
772.00,0.0272
771.00,0.0273
770.00,0.0273
769.00,0.0275
768.00,0.0277
767.00,0.0278
766.00,0.0279
765.00,0.0280
764.00,0.0281
763.00,0.0282
762.00,0.0283
761.00,0.0285
760.00,0.0286
759.00,0.0288
758.00,0.0289
757.00,0.0291
756.00,0.0292
755.00,0.0293
754.00,0.0294
753.00,0.0296
752.00,0.0297
751.00,0.0299
750.00,0.0301
749.00,0.0303
748.00,0.0306
747.00,0.0308
746.00,0.0309
745.00,0.0310
744.00,0.0312
743.00,0.0313
742.00,0.0314
741.00,0.0315
740.00,0.0316
739.00,0.0316
738.00,0.0317
737.00,0.0319
736.00,0.0320
735.00,0.0321
734.00,0.0323
733.00,0.0324
732.00,0.0326
731.00,0.0328
730.00,0.0329
729.00,0.0329
728.00,0.0331
727.00,0.0332
726.00,0.0333
725.00,0.0334
724.00,0.0336
723.00,0.0338
722.00,0.0340
721.00,0.0342
720.00,0.0344
719.00,0.0345
718.00,0.0347
717.00,0.0349
716.00,0.0351
715.00,0.0353
714.00,0.0355
713.00,0.0357
712.00,0.0359
711.00,0.0361
710.00,0.0363
709.00,0.0365
708.00,0.0368
707.00,0.0372
706.00,0.0375
705.00,0.0379
704.00,0.0382
703.00,0.0385
702.00,0.0388
701.00,0.0390
700.00,0.0391
699.00,0.0393
698.00,0.0394
697.00,0.0395
696.00,0.0396
695.00,0.0397
694.00,0.0398
693.00,0.0398
692.00,0.0398
691.00,0.0398
690.00,0.0398
689.00,0.0398
688.00,0.0400
687.00,0.0402
686.00,0.0404
685.00,0.0407
684.00,0.0408
683.00,0.0409
682.00,0.0410
681.00,0.0411
680.00,0.0412
679.00,0.0413
678.00,0.0414
677.00,0.0416
676.00,0.0418
675.00,0.0421
674.00,0.0423
673.00,0.0425
672.00,0.0428
671.00,0.0430
670.00,0.0433
669.00,0.0435
668.00,0.0436
667.00,0.0439
666.00,0.0441
665.00,0.0443
664.00,0.0445
663.00,0.0447
662.00,0.0449
661.00,0.0452
660.00,0.0454
659.00,0.0456
658.00,0.0457
657.00,0.0458
656.00,0.0460
655.00,0.0461
654.00,0.0464
653.00,0.0466
652.00,0.0468
651.00,0.0470
650.00,0.0470
649.00,0.0471
648.00,0.0472
647.00,0.0472
646.00,0.0473
645.00,0.0474
644.00,0.0475
643.00,0.0476
642.00,0.0477
641.00,0.0477
640.00,0.0477
639.00,0.0478
638.00,0.0478
637.00,0.0478
636.00,0.0478
635.00,0.0477
634.00,0.0478
633.00,0.0479
632.00,0.0481
631.00,0.0482
630.00,0.0484
629.00,0.0485
628.00,0.0486
627.00,0.0486
626.00,0.0487
625.00,0.0487
624.00,0.0489
623.00,0.0491
622.00,0.0492
621.00,0.0494
620.00,0.0496
619.00,0.0498
618.00,0.0499
617.00,0.0501
616.00,0.0501
615.00,0.0502
614.00,0.0502
613.00,0.0503
612.00,0.0504
611.00,0.0505
610.00,0.0505
609.00,0.0506
608.00,0.0508
607.00,0.0510
606.00,0.0512
605.00,0.0513
604.00,0.0514
603.00,0.0517
602.00,0.0520
601.00,0.0523
600.00,0.0525
599.00,0.0527
598.00,0.0528
597.00,0.0529
596.00,0.0531
595.00,0.0533
594.00,0.0535
593.00,0.0539
592.00,0.0542
591.00,0.0544
590.00,0.0546
589.00,0.0548
588.00,0.0550
587.00,0.0551
586.00,0.0552
585.00,0.0553
584.00,0.0555
583.00,0.0557
582.00,0.0559
581.00,0.0560
580.00,0.0562
579.00,0.0563
578.00,0.0564
577.00,0.0565
576.00,0.0567
575.00,0.0569
574.00,0.0571
573.00,0.0573
572.00,0.0574
571.00,0.0574
570.00,0.0573
569.00,0.0573
568.00,0.0572
567.00,0.0571
566.00,0.0571
565.00,0.0572
564.00,0.0572
563.00,0.0572
562.00,0.0571
561.00,0.0570
560.00,0.0570
559.00,0.0571
558.00,0.0572
557.00,0.0574
556.00,0.0576
555.00,0.0577
554.00,0.0577
553.00,0.0577
552.00,0.0577
551.00,0.0577
550.00,0.0576
549.00,0.0576
548.00,0.0577
547.00,0.0579
546.00,0.0580
545.00,0.0581
544.00,0.0583
543.00,0.0585
542.00,0.0588
541.00,0.0590
540.00,0.0592
539.00,0.0594
538.00,0.0594
537.00,0.0594
536.00,0.0595
535.00,0.0596
534.00,0.0598
533.00,0.0599
532.00,0.0601
531.00,0.0602
530.00,0.0603
529.00,0.0603
528.00,0.0603
527.00,0.0602
526.00,0.0602
525.00,0.0602
524.00,0.0604
523.00,0.0605
522.00,0.0607
521.00,0.0607
520.00,0.0605
519.00,0.0604
518.00,0.0603
517.00,0.0604
516.00,0.0605
515.00,0.0606
514.00,0.0605
513.00,0.0604
512.00,0.0603
511.00,0.0603
510.00,0.0601
509.00,0.0600
508.00,0.0599
507.00,0.0599
506.00,0.0599
505.00,0.0598
504.00,0.0596
503.00,0.0595
502.00,0.0593
501.00,0.0593
500.00,0.0594
499.00,0.0595
498.00,0.0596
497.00,0.0596
496.00,0.0596
495.00,0.0594
494.00,0.0592
493.00,0.0591
492.00,0.0591
491.00,0.0593
490.00,0.0592
489.00,0.0589
488.00,0.0587
487.00,0.0586
486.00,0.0586
485.00,0.0588
484.00,0.0589
483.00,0.0589
482.00,0.0588
481.00,0.0587
480.00,0.0585
479.00,0.0583
478.00,0.0581
477.00,0.0581
476.00,0.0581
475.00,0.0580
474.00,0.0580
473.00,0.0581
472.00,0.0582
471.00,0.0583
470.00,0.0584
469.00,0.0586
468.00,0.0585
467.00,0.0583
466.00,0.0582
465.00,0.0582
464.00,0.0583
463.00,0.0583
462.00,0.0582
461.00,0.0579
460.00,0.0578
459.00,0.0577
458.00,0.0575
457.00,0.0574
456.00,0.0573
455.00,0.0572
454.00,0.0571
453.00,0.0572
452.00,0.0573
451.00,0.0572
450.00,0.0569
449.00,0.0566
448.00,0.0566
447.00,0.0567
446.00,0.0568
445.00,0.0568
444.00,0.0568
443.00,0.0568
442.00,0.0567
441.00,0.0567
440.00,0.0568
439.00,0.0568
438.00,0.0568
437.00,0.0567
436.00,0.0567
435.00,0.0567
434.00,0.0567
433.00,0.0567
432.00,0.0570
431.00,0.0573
430.00,0.0575
429.00,0.0574
428.00,0.0574
427.00,0.0575
426.00,0.0576
425.00,0.0578
424.00,0.0581
423.00,0.0584
422.00,0.0586
421.00,0.0585
420.00,0.0581
419.00,0.0572
418.00,0.0564
417.00,0.0561
416.00,0.0564
415.00,0.0568
414.00,0.0571
413.00,0.0574
412.00,0.0575
411.00,0.0576
410.00,0.0575
409.00,0.0572
408.00,0.0567
407.00,0.0561
406.00,0.0560
405.00,0.0564
404.00,0.0570
403.00,0.0568
402.00,0.0559
401.00,0.0552
400.00,0.0557
