Created as New Dataset,Sample 956 By YargerLab Date Tuesday, July 29 2025
cm-1,A
4000.00,0.0066
3999.00,0.0065
3998.00,0.0065
3997.00,0.0065
3996.00,0.0065
3995.00,0.0065
3994.00,0.0065
3993.00,0.0065
3992.00,0.0065
3991.00,0.0065
3990.00,0.0065
3989.00,0.0065
3988.00,0.0066
3987.00,0.0066
3986.00,0.0066
3985.00,0.0066
3984.00,0.0066
3983.00,0.0065
3982.00,0.0065
3981.00,0.0065
3980.00,0.0065
3979.00,0.0065
3978.00,0.0066
3977.00,0.0066
3976.00,0.0066
3975.00,0.0066
3974.00,0.0066
3973.00,0.0066
3972.00,0.0067
3971.00,0.0067
3970.00,0.0067
3969.00,0.0067
3968.00,0.0067
3967.00,0.0067
3966.00,0.0066
3965.00,0.0066
3964.00,0.0066
3963.00,0.0066
3962.00,0.0066
3961.00,0.0066
3960.00,0.0066
3959.00,0.0065
3958.00,0.0065
3957.00,0.0065
3956.00,0.0065
3955.00,0.0065
3954.00,0.0065
3953.00,0.0065
3952.00,0.0065
3951.00,0.0065
3950.00,0.0065
3949.00,0.0065
3948.00,0.0065
3947.00,0.0065
3946.00,0.0065
3945.00,0.0065
3944.00,0.0065
3943.00,0.0065
3942.00,0.0065
3941.00,0.0065
3940.00,0.0065
3939.00,0.0065
3938.00,0.0065
3937.00,0.0065
3936.00,0.0065
3935.00,0.0065
3934.00,0.0065
3933.00,0.0065
3932.00,0.0065
3931.00,0.0065
3930.00,0.0065
3929.00,0.0065
3928.00,0.0065
3927.00,0.0065
3926.00,0.0065
3925.00,0.0065
3924.00,0.0065
3923.00,0.0066
3922.00,0.0066
3921.00,0.0065
3920.00,0.0065
3919.00,0.0066
3918.00,0.0066
3917.00,0.0066
3916.00,0.0066
3915.00,0.0065
3914.00,0.0065
3913.00,0.0065
3912.00,0.0065
3911.00,0.0065
3910.00,0.0065
3909.00,0.0065
3908.00,0.0065
3907.00,0.0065
3906.00,0.0065
3905.00,0.0065
3904.00,0.0065
3903.00,0.0065
3902.00,0.0065
3901.00,0.0065
3900.00,0.0065
3899.00,0.0065
3898.00,0.0065
3897.00,0.0065
3896.00,0.0065
3895.00,0.0064
3894.00,0.0064
3893.00,0.0064
3892.00,0.0064
3891.00,0.0064
3890.00,0.0064
3889.00,0.0064
3888.00,0.0064
3887.00,0.0064
3886.00,0.0064
3885.00,0.0063
3884.00,0.0063
3883.00,0.0064
3882.00,0.0064
3881.00,0.0064
3880.00,0.0063
3879.00,0.0063
3878.00,0.0064
3877.00,0.0064
3876.00,0.0064
3875.00,0.0064
3874.00,0.0064
3873.00,0.0064
3872.00,0.0064
3871.00,0.0064
3870.00,0.0064
3869.00,0.0064
3868.00,0.0064
3867.00,0.0064
3866.00,0.0063
3865.00,0.0063
3864.00,0.0063
3863.00,0.0063
3862.00,0.0064
3861.00,0.0064
3860.00,0.0064
3859.00,0.0064
3858.00,0.0064
3857.00,0.0065
3856.00,0.0066
3855.00,0.0067
3854.00,0.0066
3853.00,0.0065
3852.00,0.0065
3851.00,0.0064
3850.00,0.0064
3849.00,0.0064
3848.00,0.0063
3847.00,0.0063
3846.00,0.0063
3845.00,0.0063
3844.00,0.0063
3843.00,0.0062
3842.00,0.0062
3841.00,0.0062
3840.00,0.0062
3839.00,0.0062
3838.00,0.0062
3837.00,0.0062
3836.00,0.0063
3835.00,0.0063
3834.00,0.0063
3833.00,0.0063
3832.00,0.0063
3831.00,0.0062
3830.00,0.0062
3829.00,0.0062
3828.00,0.0062
3827.00,0.0062
3826.00,0.0062
3825.00,0.0062
3824.00,0.0062
3823.00,0.0062
3822.00,0.0062
3821.00,0.0062
3820.00,0.0062
3819.00,0.0062
3818.00,0.0062
3817.00,0.0062
3816.00,0.0062
3815.00,0.0063
3814.00,0.0063
3813.00,0.0063
3812.00,0.0063
3811.00,0.0063
3810.00,0.0063
3809.00,0.0063
3808.00,0.0063
3807.00,0.0062
3806.00,0.0062
3805.00,0.0062
3804.00,0.0062
3803.00,0.0062
3802.00,0.0062
3801.00,0.0062
3800.00,0.0062
3799.00,0.0062
3798.00,0.0062
3797.00,0.0062
3796.00,0.0062
3795.00,0.0062
3794.00,0.0062
3793.00,0.0063
3792.00,0.0062
3791.00,0.0062
3790.00,0.0062
3789.00,0.0062
3788.00,0.0062
3787.00,0.0062
3786.00,0.0062
3785.00,0.0062
3784.00,0.0062
3783.00,0.0062
3782.00,0.0063
3781.00,0.0063
3780.00,0.0063
3779.00,0.0063
3778.00,0.0063
3777.00,0.0063
3776.00,0.0063
3775.00,0.0063
3774.00,0.0062
3773.00,0.0062
3772.00,0.0063
3771.00,0.0063
3770.00,0.0062
3769.00,0.0062
3768.00,0.0062
3767.00,0.0062
3766.00,0.0062
3765.00,0.0062
3764.00,0.0063
3763.00,0.0063
3762.00,0.0063
3761.00,0.0063
3760.00,0.0062
3759.00,0.0062
3758.00,0.0062
3757.00,0.0062
3756.00,0.0062
3755.00,0.0062
3754.00,0.0062
3753.00,0.0062
3752.00,0.0062
3751.00,0.0062
3750.00,0.0062
3749.00,0.0062
3748.00,0.0062
3747.00,0.0062
3746.00,0.0063
3745.00,0.0062
3744.00,0.0062
3743.00,0.0062
3742.00,0.0062
3741.00,0.0061
3740.00,0.0061
3739.00,0.0061
3738.00,0.0061
3737.00,0.0060
3736.00,0.0060
3735.00,0.0060
3734.00,0.0061
3733.00,0.0061
3732.00,0.0061
3731.00,0.0061
3730.00,0.0061
3729.00,0.0061
3728.00,0.0061
3727.00,0.0060
3726.00,0.0060
3725.00,0.0060
3724.00,0.0060
3723.00,0.0060
3722.00,0.0060
3721.00,0.0060
3720.00,0.0060
3719.00,0.0060
3718.00,0.0060
3717.00,0.0060
3716.00,0.0060
3715.00,0.0060
3714.00,0.0060
3713.00,0.0060
3712.00,0.0060
3711.00,0.0060
3710.00,0.0060
3709.00,0.0059
3708.00,0.0059
3707.00,0.0059
3706.00,0.0059
3705.00,0.0059
3704.00,0.0059
3703.00,0.0059
3702.00,0.0059
3701.00,0.0059
3700.00,0.0059
3699.00,0.0059
3698.00,0.0059
3697.00,0.0059
3696.00,0.0059
3695.00,0.0059
3694.00,0.0059
3693.00,0.0059
3692.00,0.0059
3691.00,0.0059
3690.00,0.0059
3689.00,0.0058
3688.00,0.0058
3687.00,0.0058
3686.00,0.0058
3685.00,0.0058
3684.00,0.0058
3683.00,0.0059
3682.00,0.0059
3681.00,0.0059
3680.00,0.0059
3679.00,0.0058
3678.00,0.0058
3677.00,0.0058
3676.00,0.0058
3675.00,0.0058
3674.00,0.0058
3673.00,0.0059
3672.00,0.0059
3671.00,0.0059
3670.00,0.0059
3669.00,0.0059
3668.00,0.0060
3667.00,0.0060
3666.00,0.0060
3665.00,0.0059
3664.00,0.0059
3663.00,0.0059
3662.00,0.0059
3661.00,0.0059
3660.00,0.0059
3659.00,0.0059
3658.00,0.0059
3657.00,0.0059
3656.00,0.0059
3655.00,0.0059
3654.00,0.0059
3653.00,0.0059
3652.00,0.0059
3651.00,0.0058
3650.00,0.0058
3649.00,0.0058
3648.00,0.0058
3647.00,0.0058
3646.00,0.0058
3645.00,0.0058
3644.00,0.0058
3643.00,0.0058
3642.00,0.0058
3641.00,0.0058
3640.00,0.0058
3639.00,0.0058
3638.00,0.0059
3637.00,0.0059
3636.00,0.0059
3635.00,0.0059
3634.00,0.0059
3633.00,0.0059
3632.00,0.0059
3631.00,0.0060
3630.00,0.0060
3629.00,0.0060
3628.00,0.0060
3627.00,0.0059
3626.00,0.0059
3625.00,0.0059
3624.00,0.0059
3623.00,0.0059
3622.00,0.0059
3621.00,0.0060
3620.00,0.0060
3619.00,0.0060
3618.00,0.0060
3617.00,0.0060
3616.00,0.0060
3615.00,0.0060
3614.00,0.0061
3613.00,0.0061
3612.00,0.0061
3611.00,0.0062
3610.00,0.0061
3609.00,0.0061
3608.00,0.0061
3607.00,0.0062
3606.00,0.0062
3605.00,0.0062
3604.00,0.0062
3603.00,0.0062
3602.00,0.0062
3601.00,0.0062
3600.00,0.0062
3599.00,0.0062
3598.00,0.0063
3597.00,0.0063
3596.00,0.0063
3595.00,0.0063
3594.00,0.0063
3593.00,0.0063
3592.00,0.0063
3591.00,0.0063
3590.00,0.0063
3589.00,0.0063
3588.00,0.0063
3587.00,0.0064
3586.00,0.0064
3585.00,0.0064
3584.00,0.0065
3583.00,0.0065
3582.00,0.0065
3581.00,0.0066
3580.00,0.0066
3579.00,0.0066
3578.00,0.0066
3577.00,0.0066
3576.00,0.0067
3575.00,0.0067
3574.00,0.0067
3573.00,0.0067
3572.00,0.0067
3571.00,0.0067
3570.00,0.0068
3569.00,0.0068
3568.00,0.0068
3567.00,0.0069
3566.00,0.0069
3565.00,0.0070
3564.00,0.0070
3563.00,0.0070
3562.00,0.0071
3561.00,0.0071
3560.00,0.0072
3559.00,0.0072
3558.00,0.0073
3557.00,0.0073
3556.00,0.0074
3555.00,0.0074
3554.00,0.0075
3553.00,0.0075
3552.00,0.0076
3551.00,0.0076
3550.00,0.0077
3549.00,0.0077
3548.00,0.0078
3547.00,0.0078
3546.00,0.0079
3545.00,0.0079
3544.00,0.0080
3543.00,0.0081
3542.00,0.0082
3541.00,0.0082
3540.00,0.0083
3539.00,0.0083
3538.00,0.0084
3537.00,0.0085
3536.00,0.0086
3535.00,0.0086
3534.00,0.0087
3533.00,0.0087
3532.00,0.0088
3531.00,0.0089
3530.00,0.0089
3529.00,0.0090
3528.00,0.0091
3527.00,0.0091
3526.00,0.0092
3525.00,0.0093
3524.00,0.0094
3523.00,0.0094
3522.00,0.0095
3521.00,0.0096
3520.00,0.0097
3519.00,0.0097
3518.00,0.0098
3517.00,0.0099
3516.00,0.0100
3515.00,0.0100
3514.00,0.0100
3513.00,0.0100
3512.00,0.0101
3511.00,0.0101
3510.00,0.0102
3509.00,0.0103
3508.00,0.0104
3507.00,0.0104
3506.00,0.0105
3505.00,0.0106
3504.00,0.0107
3503.00,0.0108
3502.00,0.0109
3501.00,0.0109
3500.00,0.0110
3499.00,0.0111
3498.00,0.0111
3497.00,0.0113
3496.00,0.0114
3495.00,0.0115
3494.00,0.0116
3493.00,0.0117
3492.00,0.0118
3491.00,0.0119
3490.00,0.0120
3489.00,0.0121
3488.00,0.0122
3487.00,0.0124
3486.00,0.0126
3485.00,0.0127
3484.00,0.0128
3483.00,0.0130
3482.00,0.0131
3481.00,0.0133
3480.00,0.0135
3479.00,0.0137
3478.00,0.0138
3477.00,0.0140
3476.00,0.0141
3475.00,0.0143
3474.00,0.0145
3473.00,0.0147
3472.00,0.0148
3471.00,0.0150
3470.00,0.0151
3469.00,0.0153
3468.00,0.0155
3467.00,0.0157
3466.00,0.0159
3465.00,0.0161
3464.00,0.0163
3463.00,0.0165
3462.00,0.0168
3461.00,0.0170
3460.00,0.0172
3459.00,0.0174
3458.00,0.0176
3457.00,0.0178
3456.00,0.0180
3455.00,0.0182
3454.00,0.0185
3453.00,0.0187
3452.00,0.0190
3451.00,0.0192
3450.00,0.0194
3449.00,0.0197
3448.00,0.0199
3447.00,0.0202
3446.00,0.0204
3445.00,0.0207
3444.00,0.0210
3443.00,0.0213
3442.00,0.0215
3441.00,0.0218
3440.00,0.0221
3439.00,0.0224
3438.00,0.0227
3437.00,0.0230
3436.00,0.0234
3435.00,0.0237
3434.00,0.0240
3433.00,0.0244
3432.00,0.0247
3431.00,0.0251
3430.00,0.0255
3429.00,0.0258
3428.00,0.0262
3427.00,0.0266
3426.00,0.0270
3425.00,0.0274
3424.00,0.0278
3423.00,0.0282
3422.00,0.0286
3421.00,0.0290
3420.00,0.0295
3419.00,0.0299
3418.00,0.0303
3417.00,0.0307
3416.00,0.0311
3415.00,0.0315
3414.00,0.0318
3413.00,0.0322
3412.00,0.0325
3411.00,0.0329
3410.00,0.0332
3409.00,0.0334
3408.00,0.0337
3407.00,0.0340
3406.00,0.0342
3405.00,0.0344
3404.00,0.0347
3403.00,0.0349
3402.00,0.0350
3401.00,0.0351
3400.00,0.0351
3399.00,0.0351
3398.00,0.0351
3397.00,0.0351
3396.00,0.0351
3395.00,0.0350
3394.00,0.0349
3393.00,0.0349
3392.00,0.0347
3391.00,0.0346
3390.00,0.0344
3389.00,0.0342
3388.00,0.0340
3387.00,0.0338
3386.00,0.0336
3385.00,0.0335
3384.00,0.0332
3383.00,0.0330
3382.00,0.0327
3381.00,0.0325
3380.00,0.0322
3379.00,0.0320
3378.00,0.0317
3377.00,0.0315
3376.00,0.0312
3375.00,0.0309
3374.00,0.0307
3373.00,0.0305
3372.00,0.0302
3371.00,0.0300
3370.00,0.0299
3369.00,0.0297
3368.00,0.0295
3367.00,0.0293
3366.00,0.0290
3365.00,0.0288
3364.00,0.0286
3363.00,0.0284
3362.00,0.0283
3361.00,0.0281
3360.00,0.0280
3359.00,0.0278
3358.00,0.0277
3357.00,0.0275
3356.00,0.0273
3355.00,0.0272
3354.00,0.0270
3353.00,0.0269
3352.00,0.0268
3351.00,0.0267
3350.00,0.0266
3349.00,0.0264
3348.00,0.0263
3347.00,0.0263
3346.00,0.0262
3345.00,0.0261
3344.00,0.0260
3343.00,0.0260
3342.00,0.0259
3341.00,0.0258
3340.00,0.0258
3339.00,0.0257
3338.00,0.0257
3337.00,0.0256
3336.00,0.0256
3335.00,0.0257
3334.00,0.0257
3333.00,0.0257
3332.00,0.0256
3331.00,0.0256
3330.00,0.0256
3329.00,0.0256
3328.00,0.0256
3327.00,0.0256
3326.00,0.0256
3325.00,0.0256
3324.00,0.0257
3323.00,0.0257
3322.00,0.0258
3321.00,0.0258
3320.00,0.0259
3319.00,0.0259
3318.00,0.0260
3317.00,0.0261
3316.00,0.0261
3315.00,0.0262
3314.00,0.0263
3313.00,0.0264
3312.00,0.0265
3311.00,0.0266
3310.00,0.0266
3309.00,0.0267
3308.00,0.0268
3307.00,0.0269
3306.00,0.0270
3305.00,0.0272
3304.00,0.0273
3303.00,0.0274
3302.00,0.0275
3301.00,0.0276
3300.00,0.0277
3299.00,0.0278
3298.00,0.0280
3297.00,0.0281
3296.00,0.0283
3295.00,0.0284
3294.00,0.0286
3293.00,0.0287
3292.00,0.0288
3291.00,0.0289
3290.00,0.0291
3289.00,0.0292
3288.00,0.0294
3287.00,0.0295
3286.00,0.0297
3285.00,0.0298
3284.00,0.0300
3283.00,0.0302
3282.00,0.0303
3281.00,0.0305
3280.00,0.0307
3279.00,0.0308
3278.00,0.0310
3277.00,0.0311
3276.00,0.0313
3275.00,0.0314
3274.00,0.0316
3273.00,0.0318
3272.00,0.0319
3271.00,0.0321
3270.00,0.0323
3269.00,0.0324
3268.00,0.0325
3267.00,0.0327
3266.00,0.0328
3265.00,0.0330
3264.00,0.0332
3263.00,0.0333
3262.00,0.0335
3261.00,0.0337
3260.00,0.0339
3259.00,0.0341
3258.00,0.0343
3257.00,0.0344
3256.00,0.0346
3255.00,0.0348
3254.00,0.0350
3253.00,0.0352
3252.00,0.0354
3251.00,0.0355
3250.00,0.0356
3249.00,0.0357
3248.00,0.0358
3247.00,0.0359
3246.00,0.0361
3245.00,0.0363
3244.00,0.0365
3243.00,0.0366
3242.00,0.0367
3241.00,0.0368
3240.00,0.0369
3239.00,0.0369
3238.00,0.0369
3237.00,0.0369
3236.00,0.0369
3235.00,0.0369
3234.00,0.0369
3233.00,0.0369
3232.00,0.0370
3231.00,0.0370
3230.00,0.0371
3229.00,0.0371
3228.00,0.0372
3227.00,0.0372
3226.00,0.0372
3225.00,0.0372
3224.00,0.0371
3223.00,0.0371
3222.00,0.0371
3221.00,0.0370
3220.00,0.0369
3219.00,0.0368
3218.00,0.0367
3217.00,0.0366
3216.00,0.0365
3215.00,0.0364
3214.00,0.0363
3213.00,0.0362
3212.00,0.0360
3211.00,0.0359
3210.00,0.0357
3209.00,0.0356
3208.00,0.0354
3207.00,0.0352
3206.00,0.0350
3205.00,0.0348
3204.00,0.0346
3203.00,0.0344
3202.00,0.0342
3201.00,0.0340
3200.00,0.0338
3199.00,0.0336
3198.00,0.0334
3197.00,0.0332
3196.00,0.0330
3195.00,0.0328
3194.00,0.0326
3193.00,0.0323
3192.00,0.0321
3191.00,0.0319
3190.00,0.0316
3189.00,0.0314
3188.00,0.0312
3187.00,0.0310
3186.00,0.0308
3185.00,0.0306
3184.00,0.0304
3183.00,0.0301
3182.00,0.0299
3181.00,0.0297
3180.00,0.0294
3179.00,0.0292
3178.00,0.0290
3177.00,0.0288
3176.00,0.0285
3175.00,0.0283
3174.00,0.0280
3173.00,0.0278
3172.00,0.0275
3171.00,0.0273
3170.00,0.0271
3169.00,0.0269
3168.00,0.0267
3167.00,0.0265
3166.00,0.0262
3165.00,0.0259
3164.00,0.0257
3163.00,0.0255
3162.00,0.0252
3161.00,0.0250
3160.00,0.0247
3159.00,0.0245
3158.00,0.0242
3157.00,0.0239
3156.00,0.0236
3155.00,0.0233
3154.00,0.0231
3153.00,0.0229
3152.00,0.0227
3151.00,0.0225
3150.00,0.0223
3149.00,0.0221
3148.00,0.0219
3147.00,0.0217
3146.00,0.0215
3145.00,0.0213
3144.00,0.0211
3143.00,0.0209
3142.00,0.0207
3141.00,0.0204
3140.00,0.0203
3139.00,0.0201
3138.00,0.0199
3137.00,0.0197
3136.00,0.0196
3135.00,0.0194
3134.00,0.0193
3133.00,0.0191
3132.00,0.0190
3131.00,0.0188
3130.00,0.0187
3129.00,0.0186
3128.00,0.0185
3127.00,0.0184
3126.00,0.0182
3125.00,0.0181
3124.00,0.0180
3123.00,0.0178
3122.00,0.0177
3121.00,0.0176
3120.00,0.0175
3119.00,0.0173
3118.00,0.0172
3117.00,0.0171
3116.00,0.0169
3115.00,0.0168
3114.00,0.0167
3113.00,0.0165
3112.00,0.0164
3111.00,0.0162
3110.00,0.0160
3109.00,0.0158
3108.00,0.0157
3107.00,0.0155
3106.00,0.0154
3105.00,0.0153
3104.00,0.0152
3103.00,0.0151
3102.00,0.0150
3101.00,0.0149
3100.00,0.0148
3099.00,0.0147
3098.00,0.0147
3097.00,0.0146
3096.00,0.0146
3095.00,0.0146
3094.00,0.0146
3093.00,0.0147
3092.00,0.0147
3091.00,0.0148
3090.00,0.0149
3089.00,0.0149
3088.00,0.0150
3087.00,0.0150
3086.00,0.0150
3085.00,0.0150
3084.00,0.0150
3083.00,0.0150
3082.00,0.0150
3081.00,0.0149
3080.00,0.0149
3079.00,0.0148
3078.00,0.0147
3077.00,0.0147
3076.00,0.0146
3075.00,0.0145
3074.00,0.0144
3073.00,0.0144
3072.00,0.0143
3071.00,0.0143
3070.00,0.0142
3069.00,0.0142
3068.00,0.0141
3067.00,0.0141
3066.00,0.0141
3065.00,0.0141
3064.00,0.0141
3063.00,0.0142
3062.00,0.0142
3061.00,0.0143
3060.00,0.0143
3059.00,0.0143
3058.00,0.0144
3057.00,0.0144
3056.00,0.0144
3055.00,0.0145
3054.00,0.0145
3053.00,0.0145
3052.00,0.0144
3051.00,0.0144
3050.00,0.0144
3049.00,0.0143
3048.00,0.0143
3047.00,0.0143
3046.00,0.0142
3045.00,0.0142
3044.00,0.0142
3043.00,0.0142
3042.00,0.0143
3041.00,0.0144
3040.00,0.0146
3039.00,0.0147
3038.00,0.0149
3037.00,0.0150
3036.00,0.0152
3035.00,0.0153
3034.00,0.0154
3033.00,0.0155
3032.00,0.0155
3031.00,0.0155
3030.00,0.0154
3029.00,0.0152
3028.00,0.0151
3027.00,0.0149
3026.00,0.0147
3025.00,0.0144
3024.00,0.0142
3023.00,0.0140
3022.00,0.0138
3021.00,0.0136
3020.00,0.0135
3019.00,0.0133
3018.00,0.0132
3017.00,0.0131
3016.00,0.0130
3015.00,0.0130
3014.00,0.0130
3013.00,0.0130
3012.00,0.0130
3011.00,0.0131
3010.00,0.0132
3009.00,0.0133
3008.00,0.0135
3007.00,0.0137
3006.00,0.0140
3005.00,0.0143
3004.00,0.0147
3003.00,0.0151
3002.00,0.0155
3001.00,0.0160
3000.00,0.0166
2999.00,0.0173
2998.00,0.0180
2997.00,0.0188
2996.00,0.0196
2995.00,0.0204
2994.00,0.0210
2993.00,0.0216
2992.00,0.0221
2991.00,0.0226
2990.00,0.0231
2989.00,0.0235
2988.00,0.0240
2987.00,0.0246
2986.00,0.0254
2985.00,0.0263
2984.00,0.0274
2983.00,0.0288
2982.00,0.0303
2981.00,0.0318
2980.00,0.0331
2979.00,0.0341
2978.00,0.0347
2977.00,0.0350
2976.00,0.0354
2975.00,0.0362
2974.00,0.0374
2973.00,0.0391
2972.00,0.0409
2971.00,0.0427
2970.00,0.0441
2969.00,0.0451
2968.00,0.0458
2967.00,0.0465
2966.00,0.0471
2965.00,0.0480
2964.00,0.0490
2963.00,0.0500
2962.00,0.0510
2961.00,0.0517
2960.00,0.0519
2959.00,0.0517
2958.00,0.0509
2957.00,0.0496
2956.00,0.0480
2955.00,0.0463
2954.00,0.0445
2953.00,0.0429
2952.00,0.0415
2951.00,0.0403
2950.00,0.0394
2949.00,0.0389
2948.00,0.0388
2947.00,0.0390
2946.00,0.0395
2945.00,0.0403
2944.00,0.0413
2943.00,0.0426
2942.00,0.0440
2941.00,0.0457
2940.00,0.0475
2939.00,0.0497
2938.00,0.0521
2937.00,0.0549
2936.00,0.0581
2935.00,0.0615
2934.00,0.0652
2933.00,0.0689
2932.00,0.0726
2931.00,0.0761
2930.00,0.0792
2929.00,0.0818
2928.00,0.0837
2927.00,0.0848
2926.00,0.0850
2925.00,0.0844
2924.00,0.0831
2923.00,0.0813
2922.00,0.0792
2921.00,0.0769
2920.00,0.0743
2919.00,0.0717
2918.00,0.0691
2917.00,0.0665
2916.00,0.0639
2915.00,0.0615
2914.00,0.0593
2913.00,0.0572
2912.00,0.0553
2911.00,0.0535
2910.00,0.0519
2909.00,0.0503
2908.00,0.0489
2907.00,0.0476
2906.00,0.0463
2905.00,0.0451
2904.00,0.0439
2903.00,0.0428
2902.00,0.0417
2901.00,0.0407
2900.00,0.0397
2899.00,0.0388
2898.00,0.0379
2897.00,0.0371
2896.00,0.0363
2895.00,0.0356
2894.00,0.0349
2893.00,0.0342
2892.00,0.0336
2891.00,0.0331
2890.00,0.0325
2889.00,0.0320
2888.00,0.0315
2887.00,0.0311
2886.00,0.0307
2885.00,0.0304
2884.00,0.0302
2883.00,0.0302
2882.00,0.0303
2881.00,0.0306
2880.00,0.0312
2879.00,0.0320
2878.00,0.0331
2877.00,0.0343
2876.00,0.0357
2875.00,0.0370
2874.00,0.0381
2873.00,0.0388
2872.00,0.0393
2871.00,0.0394
2870.00,0.0392
2869.00,0.0390
2868.00,0.0388
2867.00,0.0389
2866.00,0.0393
2865.00,0.0402
2864.00,0.0417
2863.00,0.0438
2862.00,0.0463
2861.00,0.0492
2860.00,0.0522
2859.00,0.0551
2858.00,0.0576
2857.00,0.0594
2856.00,0.0604
2855.00,0.0608
2854.00,0.0607
2853.00,0.0601
2852.00,0.0589
2851.00,0.0571
2850.00,0.0547
2849.00,0.0518
2848.00,0.0486
2847.00,0.0453
2846.00,0.0422
2845.00,0.0394
2844.00,0.0368
2843.00,0.0344
2842.00,0.0324
2841.00,0.0306
2840.00,0.0290
2839.00,0.0276
2838.00,0.0264
2837.00,0.0254
2836.00,0.0245
2835.00,0.0237
2834.00,0.0231
2833.00,0.0224
2832.00,0.0219
2831.00,0.0213
2830.00,0.0208
2829.00,0.0203
2828.00,0.0199
2827.00,0.0195
2826.00,0.0192
2825.00,0.0188
2824.00,0.0185
2823.00,0.0181
2822.00,0.0178
2821.00,0.0176
2820.00,0.0173
2819.00,0.0171
2818.00,0.0169
2817.00,0.0167
2816.00,0.0165
2815.00,0.0164
2814.00,0.0162
2813.00,0.0160
2812.00,0.0158
2811.00,0.0157
2810.00,0.0155
2809.00,0.0154
2808.00,0.0153
2807.00,0.0152
2806.00,0.0151
2805.00,0.0150
2804.00,0.0149
2803.00,0.0148
2802.00,0.0147
2801.00,0.0146
2800.00,0.0145
2799.00,0.0143
2798.00,0.0142
2797.00,0.0141
2796.00,0.0140
2795.00,0.0140
2794.00,0.0139
2793.00,0.0137
2792.00,0.0136
2791.00,0.0135
2790.00,0.0134
2789.00,0.0133
2788.00,0.0132
2787.00,0.0131
2786.00,0.0131
2785.00,0.0130
2784.00,0.0129
2783.00,0.0128
2782.00,0.0128
2781.00,0.0127
2780.00,0.0127
2779.00,0.0126
2778.00,0.0125
2777.00,0.0124
2776.00,0.0124
2775.00,0.0123
2774.00,0.0123
2773.00,0.0123
2772.00,0.0123
2771.00,0.0122
2770.00,0.0122
2769.00,0.0122
2768.00,0.0121
2767.00,0.0121
2766.00,0.0121
2765.00,0.0120
2764.00,0.0120
2763.00,0.0120
2762.00,0.0120
2761.00,0.0120
2760.00,0.0121
2759.00,0.0121
2758.00,0.0121
2757.00,0.0120
2756.00,0.0120
2755.00,0.0121
2754.00,0.0121
2753.00,0.0121
2752.00,0.0121
2751.00,0.0121
2750.00,0.0121
2749.00,0.0121
2748.00,0.0121
2747.00,0.0121
2746.00,0.0122
2745.00,0.0122
2744.00,0.0123
2743.00,0.0123
2742.00,0.0124
2741.00,0.0124
2740.00,0.0125
2739.00,0.0126
2738.00,0.0127
2737.00,0.0128
2736.00,0.0129
2735.00,0.0130
2734.00,0.0131
2733.00,0.0132
2732.00,0.0133
2731.00,0.0134
2730.00,0.0134
2729.00,0.0134
2728.00,0.0134
2727.00,0.0133
2726.00,0.0132
2725.00,0.0131
2724.00,0.0131
2723.00,0.0130
2722.00,0.0129
2721.00,0.0129
2720.00,0.0128
2719.00,0.0128
2718.00,0.0127
2717.00,0.0126
2716.00,0.0125
2715.00,0.0125
2714.00,0.0124
2713.00,0.0124
2712.00,0.0123
2711.00,0.0123
2710.00,0.0123
2709.00,0.0123
2708.00,0.0123
2707.00,0.0123
2706.00,0.0123
2705.00,0.0122
2704.00,0.0122
2703.00,0.0122
2702.00,0.0122
2701.00,0.0121
2700.00,0.0121
2699.00,0.0121
2698.00,0.0120
2697.00,0.0120
2696.00,0.0120
2695.00,0.0119
2694.00,0.0119
2693.00,0.0118
2692.00,0.0118
2691.00,0.0117
2690.00,0.0117
2689.00,0.0116
2688.00,0.0116
2687.00,0.0116
2686.00,0.0115
2685.00,0.0115
2684.00,0.0115
2683.00,0.0114
2682.00,0.0114
2681.00,0.0114
2680.00,0.0113
2679.00,0.0113
2678.00,0.0114
2677.00,0.0114
2676.00,0.0114
2675.00,0.0114
2674.00,0.0114
2673.00,0.0114
2672.00,0.0115
2671.00,0.0115
2670.00,0.0116
2669.00,0.0116
2668.00,0.0117
2667.00,0.0118
2666.00,0.0118
2665.00,0.0119
2664.00,0.0120
2663.00,0.0120
2662.00,0.0121
2661.00,0.0121
2660.00,0.0121
2659.00,0.0121
2658.00,0.0122
2657.00,0.0122
2656.00,0.0122
2655.00,0.0122
2654.00,0.0122
2653.00,0.0122
2652.00,0.0122
2651.00,0.0123
2650.00,0.0123
2649.00,0.0123
2648.00,0.0123
2647.00,0.0122
2646.00,0.0122
2645.00,0.0122
2644.00,0.0122
2643.00,0.0121
2642.00,0.0121
2641.00,0.0121
2640.00,0.0120
2639.00,0.0120
2638.00,0.0120
2637.00,0.0119
2636.00,0.0118
2635.00,0.0118
2634.00,0.0117
2633.00,0.0116
2632.00,0.0116
2631.00,0.0115
2630.00,0.0114
2629.00,0.0113
2628.00,0.0113
2627.00,0.0112
2626.00,0.0112
2625.00,0.0111
2624.00,0.0111
2623.00,0.0111
2622.00,0.0110
2621.00,0.0110
2620.00,0.0110
2619.00,0.0110
2618.00,0.0109
2617.00,0.0109
2616.00,0.0109
2615.00,0.0110
2614.00,0.0110
2613.00,0.0110
2612.00,0.0109
2611.00,0.0109
2610.00,0.0109
2609.00,0.0109
2608.00,0.0110
2607.00,0.0110
2606.00,0.0110
2605.00,0.0110
2604.00,0.0110
2603.00,0.0110
2602.00,0.0111
2601.00,0.0111
2600.00,0.0112
2599.00,0.0112
2598.00,0.0112
2597.00,0.0112
2596.00,0.0112
2595.00,0.0112
2594.00,0.0112
2593.00,0.0112
2592.00,0.0113
2591.00,0.0113
2590.00,0.0113
2589.00,0.0113
2588.00,0.0113
2587.00,0.0114
2586.00,0.0114
2585.00,0.0114
2584.00,0.0114
2583.00,0.0114
2582.00,0.0113
2581.00,0.0113
2580.00,0.0112
2579.00,0.0112
2578.00,0.0111
2577.00,0.0111
2576.00,0.0111
2575.00,0.0110
2574.00,0.0110
2573.00,0.0110
2572.00,0.0110
2571.00,0.0110
2570.00,0.0110
2569.00,0.0110
2568.00,0.0110
2567.00,0.0110
2566.00,0.0110
2565.00,0.0110
2564.00,0.0110
2563.00,0.0109
2562.00,0.0108
2561.00,0.0108
2560.00,0.0107
2559.00,0.0106
2558.00,0.0105
2557.00,0.0104
2556.00,0.0104
2555.00,0.0103
2554.00,0.0103
2553.00,0.0102
2552.00,0.0102
2551.00,0.0102
2550.00,0.0102
2549.00,0.0102
2548.00,0.0102
2547.00,0.0103
2546.00,0.0103
2545.00,0.0103
2544.00,0.0103
2543.00,0.0103
2542.00,0.0103
2541.00,0.0103
2540.00,0.0103
2539.00,0.0103
2538.00,0.0103
2537.00,0.0103
2536.00,0.0104
2535.00,0.0104
2534.00,0.0104
2533.00,0.0103
2532.00,0.0103
2531.00,0.0103
2530.00,0.0103
2529.00,0.0102
2528.00,0.0102
2527.00,0.0101
2526.00,0.0101
2525.00,0.0100
2524.00,0.0100
2523.00,0.0099
2522.00,0.0099
2521.00,0.0099
2520.00,0.0099
2519.00,0.0098
2518.00,0.0098
2517.00,0.0098
2516.00,0.0097
2515.00,0.0097
2514.00,0.0097
2513.00,0.0096
2512.00,0.0096
2511.00,0.0096
2510.00,0.0095
2509.00,0.0095
2508.00,0.0095
2507.00,0.0095
2506.00,0.0095
2505.00,0.0095
2504.00,0.0094
2503.00,0.0094
2502.00,0.0094
2501.00,0.0093
2500.00,0.0093
2499.00,0.0093
2498.00,0.0093
2497.00,0.0093
2496.00,0.0092
2495.00,0.0092
2494.00,0.0092
2493.00,0.0091
2492.00,0.0091
2491.00,0.0091
2490.00,0.0091
2489.00,0.0091
2488.00,0.0091
2487.00,0.0090
2486.00,0.0090
2485.00,0.0090
2484.00,0.0090
2483.00,0.0090
2482.00,0.0090
2481.00,0.0090
2480.00,0.0090
2479.00,0.0090
2478.00,0.0089
2477.00,0.0089
2476.00,0.0089
2475.00,0.0089
2474.00,0.0088
2473.00,0.0088
2472.00,0.0088
2471.00,0.0088
2470.00,0.0088
2469.00,0.0088
2468.00,0.0087
2467.00,0.0087
2466.00,0.0087
2465.00,0.0087
2464.00,0.0087
2463.00,0.0087
2462.00,0.0087
2461.00,0.0088
2460.00,0.0088
2459.00,0.0088
2458.00,0.0088
2457.00,0.0088
2456.00,0.0089
2455.00,0.0089
2454.00,0.0089
2453.00,0.0089
2452.00,0.0089
2451.00,0.0089
2450.00,0.0089
2449.00,0.0089
2448.00,0.0089
2447.00,0.0088
2446.00,0.0088
2445.00,0.0087
2444.00,0.0087
2443.00,0.0086
2442.00,0.0086
2441.00,0.0086
2440.00,0.0086
2439.00,0.0085
2438.00,0.0085
2437.00,0.0084
2436.00,0.0084
2435.00,0.0084
2434.00,0.0084
2433.00,0.0083
2432.00,0.0083
2431.00,0.0084
2430.00,0.0084
2429.00,0.0084
2428.00,0.0084
2427.00,0.0084
2426.00,0.0084
2425.00,0.0083
2424.00,0.0083
2423.00,0.0083
2422.00,0.0082
2421.00,0.0082
2420.00,0.0082
2419.00,0.0082
2418.00,0.0082
2417.00,0.0082
2416.00,0.0082
2415.00,0.0082
2414.00,0.0082
2413.00,0.0082
2412.00,0.0082
2411.00,0.0082
2410.00,0.0082
2409.00,0.0082
2408.00,0.0082
2407.00,0.0082
2406.00,0.0082
2405.00,0.0082
2404.00,0.0082
2403.00,0.0082
2402.00,0.0082
2401.00,0.0081
2400.00,0.0081
2399.00,0.0081
2398.00,0.0081
2397.00,0.0081
2396.00,0.0081
2395.00,0.0081
2394.00,0.0081
2393.00,0.0081
2392.00,0.0081
2391.00,0.0080
2390.00,0.0080
2389.00,0.0080
2388.00,0.0080
2387.00,0.0079
2386.00,0.0079
2385.00,0.0079
2384.00,0.0078
2383.00,0.0078
2382.00,0.0077
2381.00,0.0076
2380.00,0.0075
2379.00,0.0075
2378.00,0.0074
2377.00,0.0075
2376.00,0.0075
2375.00,0.0076
2374.00,0.0076
2373.00,0.0077
2372.00,0.0077
2371.00,0.0077
2370.00,0.0077
2369.00,0.0077
2368.00,0.0077
2367.00,0.0076
2366.00,0.0076
2365.00,0.0076
2364.00,0.0076
2363.00,0.0076
2362.00,0.0076
2361.00,0.0077
2360.00,0.0077
2359.00,0.0077
2358.00,0.0077
2357.00,0.0077
2356.00,0.0077
2355.00,0.0077
2354.00,0.0077
2353.00,0.0077
2352.00,0.0077
2351.00,0.0076
2350.00,0.0077
2349.00,0.0077
2348.00,0.0078
2347.00,0.0078
2346.00,0.0078
2345.00,0.0077
2344.00,0.0078
2343.00,0.0078
2342.00,0.0079
2341.00,0.0079
2340.00,0.0079
2339.00,0.0079
2338.00,0.0079
2337.00,0.0078
2336.00,0.0078
2335.00,0.0078
2334.00,0.0077
2333.00,0.0077
2332.00,0.0077
2331.00,0.0077
2330.00,0.0077
2329.00,0.0080
2328.00,0.0083
2327.00,0.0087
2326.00,0.0090
2325.00,0.0091
2324.00,0.0089
2323.00,0.0087
2322.00,0.0085
2321.00,0.0083
2320.00,0.0082
2319.00,0.0082
2318.00,0.0082
2317.00,0.0082
2316.00,0.0081
2315.00,0.0081
2314.00,0.0080
2313.00,0.0079
2312.00,0.0078
2311.00,0.0077
2310.00,0.0077
2309.00,0.0077
2308.00,0.0077
2307.00,0.0077
2306.00,0.0078
2305.00,0.0078
2304.00,0.0079
2303.00,0.0079
2302.00,0.0079
2301.00,0.0079
2300.00,0.0080
2299.00,0.0081
2298.00,0.0081
2297.00,0.0082
2296.00,0.0083
2295.00,0.0084
2294.00,0.0085
2293.00,0.0086
2292.00,0.0087
2291.00,0.0088
2290.00,0.0088
2289.00,0.0089
2288.00,0.0089
2287.00,0.0089
2286.00,0.0089
2285.00,0.0088
2284.00,0.0088
2283.00,0.0087
2282.00,0.0085
2281.00,0.0084
2280.00,0.0084
2279.00,0.0083
2278.00,0.0083
2277.00,0.0082
2276.00,0.0082
2275.00,0.0082
2274.00,0.0081
2273.00,0.0080
2272.00,0.0079
2271.00,0.0079
2270.00,0.0078
2269.00,0.0077
2268.00,0.0076
2267.00,0.0075
2266.00,0.0075
2265.00,0.0074
2264.00,0.0073
2263.00,0.0073
2262.00,0.0072
2261.00,0.0072
2260.00,0.0073
2259.00,0.0073
2258.00,0.0072
2257.00,0.0071
2256.00,0.0070
2255.00,0.0069
2254.00,0.0069
2253.00,0.0069
2252.00,0.0070
2251.00,0.0070
2250.00,0.0070
2249.00,0.0070
2248.00,0.0071
2247.00,0.0071
2246.00,0.0071
2245.00,0.0072
2244.00,0.0072
2243.00,0.0072
2242.00,0.0072
2241.00,0.0072
2240.00,0.0072
2239.00,0.0072
2238.00,0.0072
2237.00,0.0073
2236.00,0.0074
2235.00,0.0075
2234.00,0.0075
2233.00,0.0075
2232.00,0.0075
2231.00,0.0075
2230.00,0.0074
2229.00,0.0073
2228.00,0.0073
2227.00,0.0073
2226.00,0.0073
2225.00,0.0074
2224.00,0.0074
2223.00,0.0074
2222.00,0.0074
2221.00,0.0073
2220.00,0.0073
2219.00,0.0072
2218.00,0.0072
2217.00,0.0072
2216.00,0.0072
2215.00,0.0072
2214.00,0.0072
2213.00,0.0072
2212.00,0.0072
2211.00,0.0071
2210.00,0.0070
2209.00,0.0070
2208.00,0.0071
2207.00,0.0073
2206.00,0.0073
2205.00,0.0074
2204.00,0.0074
2203.00,0.0073
2202.00,0.0071
2201.00,0.0069
2200.00,0.0068
2199.00,0.0068
2198.00,0.0068
2197.00,0.0069
2196.00,0.0070
2195.00,0.0071
2194.00,0.0071
2193.00,0.0070
2192.00,0.0070
2191.00,0.0070
2190.00,0.0070
2189.00,0.0071
2188.00,0.0071
2187.00,0.0071
2186.00,0.0070
2185.00,0.0068
2184.00,0.0067
2183.00,0.0065
2182.00,0.0064
2181.00,0.0066
2180.00,0.0068
2179.00,0.0069
2178.00,0.0068
2177.00,0.0066
2176.00,0.0064
2175.00,0.0062
2174.00,0.0061
2173.00,0.0062
2172.00,0.0065
2171.00,0.0068
2170.00,0.0071
2169.00,0.0074
2168.00,0.0077
2167.00,0.0079
2166.00,0.0080
2165.00,0.0081
2164.00,0.0082
2163.00,0.0081
2162.00,0.0076
2161.00,0.0065
2160.00,0.0052
2159.00,0.0041
2158.00,0.0035
2157.00,0.0034
2156.00,0.0036
2155.00,0.0039
2154.00,0.0044
2153.00,0.0048
2152.00,0.0051
2151.00,0.0052
2150.00,0.0052
2149.00,0.0051
2148.00,0.0051
2147.00,0.0049
2146.00,0.0048
2145.00,0.0048
2144.00,0.0049
2143.00,0.0049
2142.00,0.0050
2141.00,0.0050
2140.00,0.0051
2139.00,0.0051
2138.00,0.0050
2137.00,0.0048
2136.00,0.0046
2135.00,0.0043
2134.00,0.0042
2133.00,0.0043
2132.00,0.0046
2131.00,0.0048
2130.00,0.0050
2129.00,0.0052
2128.00,0.0053
2127.00,0.0054
2126.00,0.0054
2125.00,0.0055
2124.00,0.0055
2123.00,0.0055
2122.00,0.0055
2121.00,0.0056
2120.00,0.0056
2119.00,0.0057
2118.00,0.0058
2117.00,0.0059
2116.00,0.0060
2115.00,0.0061
2114.00,0.0060
2113.00,0.0060
2112.00,0.0060
2111.00,0.0059
2110.00,0.0059
2109.00,0.0059
2108.00,0.0059
2107.00,0.0059
2106.00,0.0059
2105.00,0.0059
2104.00,0.0059
2103.00,0.0059
2102.00,0.0058
2101.00,0.0057
2100.00,0.0057
2099.00,0.0056
2098.00,0.0055
2097.00,0.0054
2096.00,0.0052
2095.00,0.0051
2094.00,0.0052
2093.00,0.0053
2092.00,0.0055
2091.00,0.0056
2090.00,0.0057
2089.00,0.0058
2088.00,0.0059
2087.00,0.0059
2086.00,0.0059
2085.00,0.0060
2084.00,0.0061
2083.00,0.0062
2082.00,0.0063
2081.00,0.0063
2080.00,0.0063
2079.00,0.0063
2078.00,0.0062
2077.00,0.0062
2076.00,0.0062
2075.00,0.0062
2074.00,0.0062
2073.00,0.0062
2072.00,0.0062
2071.00,0.0061
2070.00,0.0060
2069.00,0.0058
2068.00,0.0058
2067.00,0.0057
2066.00,0.0057
2065.00,0.0057
2064.00,0.0057
2063.00,0.0058
2062.00,0.0057
2061.00,0.0057
2060.00,0.0057
2059.00,0.0057
2058.00,0.0056
2057.00,0.0056
2056.00,0.0056
2055.00,0.0056
2054.00,0.0058
2053.00,0.0061
2052.00,0.0063
2051.00,0.0061
2050.00,0.0057
2049.00,0.0053
2048.00,0.0051
2047.00,0.0051
2046.00,0.0051
2045.00,0.0052
2044.00,0.0053
2043.00,0.0054
2042.00,0.0055
2041.00,0.0057
2040.00,0.0059
2039.00,0.0061
2038.00,0.0061
2037.00,0.0060
2036.00,0.0059
2035.00,0.0056
2034.00,0.0054
2033.00,0.0052
2032.00,0.0052
2031.00,0.0051
2030.00,0.0050
2029.00,0.0049
2028.00,0.0050
2027.00,0.0051
2026.00,0.0051
2025.00,0.0051
2024.00,0.0052
2023.00,0.0052
2022.00,0.0051
2021.00,0.0051
2020.00,0.0051
2019.00,0.0051
2018.00,0.0052
2017.00,0.0053
2016.00,0.0052
2015.00,0.0051
2014.00,0.0050
2013.00,0.0049
2012.00,0.0049
2011.00,0.0049
2010.00,0.0048
2009.00,0.0046
2008.00,0.0044
2007.00,0.0043
2006.00,0.0042
2005.00,0.0042
2004.00,0.0042
2003.00,0.0043
2002.00,0.0043
2001.00,0.0044
2000.00,0.0046
1999.00,0.0048
1998.00,0.0050
1997.00,0.0052
1996.00,0.0054
1995.00,0.0054
1994.00,0.0054
1993.00,0.0053
1992.00,0.0055
1991.00,0.0056
1990.00,0.0057
1989.00,0.0057
1988.00,0.0057
1987.00,0.0056
1986.00,0.0056
1985.00,0.0058
1984.00,0.0062
1983.00,0.0066
1982.00,0.0069
1981.00,0.0070
1980.00,0.0068
1979.00,0.0062
1978.00,0.0055
1977.00,0.0050
1976.00,0.0047
1975.00,0.0045
1974.00,0.0044
1973.00,0.0045
1972.00,0.0045
1971.00,0.0046
1970.00,0.0046
1969.00,0.0046
1968.00,0.0046
1967.00,0.0047
1966.00,0.0048
1965.00,0.0048
1964.00,0.0049
1963.00,0.0050
1962.00,0.0049
1961.00,0.0048
1960.00,0.0047
1959.00,0.0047
1958.00,0.0047
1957.00,0.0049
1956.00,0.0050
1955.00,0.0051
1954.00,0.0051
1953.00,0.0051
1952.00,0.0051
1951.00,0.0051
1950.00,0.0051
1949.00,0.0052
1948.00,0.0053
1947.00,0.0053
1946.00,0.0053
1945.00,0.0053
1944.00,0.0053
1943.00,0.0052
1942.00,0.0051
1941.00,0.0051
1940.00,0.0051
1939.00,0.0051
1938.00,0.0052
1937.00,0.0053
1936.00,0.0054
1935.00,0.0055
1934.00,0.0055
1933.00,0.0055
1932.00,0.0055
1931.00,0.0056
1930.00,0.0056
1929.00,0.0056
1928.00,0.0057
1927.00,0.0057
1926.00,0.0057
1925.00,0.0057
1924.00,0.0058
1923.00,0.0059
1922.00,0.0059
1921.00,0.0059
1920.00,0.0060
1919.00,0.0060
1918.00,0.0061
1917.00,0.0061
1916.00,0.0062
1915.00,0.0063
1914.00,0.0064
1913.00,0.0067
1912.00,0.0071
1911.00,0.0076
1910.00,0.0082
1909.00,0.0086
1908.00,0.0088
1907.00,0.0086
1906.00,0.0082
1905.00,0.0078
1904.00,0.0074
1903.00,0.0071
1902.00,0.0069
1901.00,0.0068
1900.00,0.0067
1899.00,0.0067
1898.00,0.0067
1897.00,0.0068
1896.00,0.0070
1895.00,0.0073
1894.00,0.0074
1893.00,0.0074
1892.00,0.0073
1891.00,0.0072
1890.00,0.0070
1889.00,0.0068
1888.00,0.0066
1887.00,0.0064
1886.00,0.0063
1885.00,0.0062
1884.00,0.0062
1883.00,0.0062
1882.00,0.0062
1881.00,0.0061
1880.00,0.0061
1879.00,0.0061
1878.00,0.0061
1877.00,0.0061
1876.00,0.0061
1875.00,0.0062
1874.00,0.0062
1873.00,0.0062
1872.00,0.0061
1871.00,0.0061
1870.00,0.0061
1869.00,0.0061
1868.00,0.0062
1867.00,0.0062
1866.00,0.0062
1865.00,0.0062
1864.00,0.0062
1863.00,0.0062
1862.00,0.0062
1861.00,0.0063
1860.00,0.0063
1859.00,0.0064
1858.00,0.0064
1857.00,0.0064
1856.00,0.0064
1855.00,0.0064
1854.00,0.0064
1853.00,0.0065
1852.00,0.0065
1851.00,0.0066
1850.00,0.0068
1849.00,0.0069
1848.00,0.0071
1847.00,0.0073
1846.00,0.0073
1845.00,0.0073
1844.00,0.0072
1843.00,0.0070
1842.00,0.0068
1841.00,0.0067
1840.00,0.0066
1839.00,0.0065
1838.00,0.0064
1837.00,0.0063
1836.00,0.0063
1835.00,0.0063
1834.00,0.0062
1833.00,0.0062
1832.00,0.0062
1831.00,0.0062
1830.00,0.0061
1829.00,0.0061
1828.00,0.0061
1827.00,0.0061
1826.00,0.0061
1825.00,0.0062
1824.00,0.0062
1823.00,0.0062
1822.00,0.0061
1821.00,0.0061
1820.00,0.0061
1819.00,0.0060
1818.00,0.0060
1817.00,0.0059
1816.00,0.0060
1815.00,0.0060
1814.00,0.0061
1813.00,0.0061
1812.00,0.0062
1811.00,0.0062
1810.00,0.0062
1809.00,0.0062
1808.00,0.0062
1807.00,0.0063
1806.00,0.0063
1805.00,0.0063
1804.00,0.0064
1803.00,0.0064
1802.00,0.0065
1801.00,0.0065
1800.00,0.0066
1799.00,0.0066
1798.00,0.0067
1797.00,0.0068
1796.00,0.0069
1795.00,0.0069
1794.00,0.0069
1793.00,0.0069
1792.00,0.0068
1791.00,0.0068
1790.00,0.0068
1789.00,0.0067
1788.00,0.0067
1787.00,0.0067
1786.00,0.0067
1785.00,0.0067
1784.00,0.0066
1783.00,0.0066
1782.00,0.0066
1781.00,0.0067
1780.00,0.0068
1779.00,0.0069
1778.00,0.0070
1777.00,0.0071
1776.00,0.0073
1775.00,0.0075
1774.00,0.0075
1773.00,0.0075
1772.00,0.0074
1771.00,0.0073
1770.00,0.0072
1769.00,0.0072
1768.00,0.0072
1767.00,0.0072
1766.00,0.0071
1765.00,0.0070
1764.00,0.0070
1763.00,0.0071
1762.00,0.0073
1761.00,0.0074
1760.00,0.0075
1759.00,0.0075
1758.00,0.0075
1757.00,0.0074
1756.00,0.0072
1755.00,0.0070
1754.00,0.0069
1753.00,0.0069
1752.00,0.0069
1751.00,0.0069
1750.00,0.0069
1749.00,0.0068
1748.00,0.0068
1747.00,0.0068
1746.00,0.0068
1745.00,0.0069
1744.00,0.0070
1743.00,0.0070
1742.00,0.0070
1741.00,0.0069
1740.00,0.0068
1739.00,0.0068
1738.00,0.0068
1737.00,0.0068
1736.00,0.0069
1735.00,0.0070
1734.00,0.0070
1733.00,0.0071
1732.00,0.0072
1731.00,0.0074
1730.00,0.0076
1729.00,0.0077
1728.00,0.0078
1727.00,0.0079
1726.00,0.0080
1725.00,0.0081
1724.00,0.0082
1723.00,0.0083
1722.00,0.0084
1721.00,0.0084
1720.00,0.0084
1719.00,0.0085
1718.00,0.0086
1717.00,0.0088
1716.00,0.0089
1715.00,0.0090
1714.00,0.0091
1713.00,0.0092
1712.00,0.0094
1711.00,0.0096
1710.00,0.0097
1709.00,0.0098
1708.00,0.0098
1707.00,0.0098
1706.00,0.0098
1705.00,0.0099
1704.00,0.0101
1703.00,0.0102
1702.00,0.0102
1701.00,0.0103
1700.00,0.0105
1699.00,0.0107
1698.00,0.0109
1697.00,0.0113
1696.00,0.0119
1695.00,0.0123
1694.00,0.0124
1693.00,0.0126
1692.00,0.0129
1691.00,0.0133
1690.00,0.0137
1689.00,0.0140
1688.00,0.0143
1687.00,0.0145
1686.00,0.0146
1685.00,0.0149
1684.00,0.0153
1683.00,0.0156
1682.00,0.0158
1681.00,0.0161
1680.00,0.0165
1679.00,0.0168
1678.00,0.0170
1677.00,0.0172
1676.00,0.0174
1675.00,0.0178
1674.00,0.0181
1673.00,0.0184
1672.00,0.0188
1671.00,0.0192
1670.00,0.0196
1669.00,0.0201
1668.00,0.0205
1667.00,0.0208
1666.00,0.0210
1665.00,0.0213
1664.00,0.0215
1663.00,0.0218
1662.00,0.0220
1661.00,0.0222
1660.00,0.0224
1659.00,0.0225
1658.00,0.0225
1657.00,0.0224
1656.00,0.0223
1655.00,0.0222
1654.00,0.0221
1653.00,0.0222
1652.00,0.0221
1651.00,0.0219
1650.00,0.0218
1649.00,0.0218
1648.00,0.0219
1647.00,0.0221
1646.00,0.0222
1645.00,0.0223
1644.00,0.0225
1643.00,0.0228
1642.00,0.0230
1641.00,0.0233
1640.00,0.0235
1639.00,0.0237
1638.00,0.0237
1637.00,0.0241
1636.00,0.0251
1635.00,0.0267
1634.00,0.0286
1633.00,0.0311
1632.00,0.0344
1631.00,0.0387
1630.00,0.0444
1629.00,0.0518
1628.00,0.0606
1627.00,0.0696
1626.00,0.0777
1625.00,0.0849
1624.00,0.0917
1623.00,0.0978
1622.00,0.1017
1621.00,0.1029
1620.00,0.1022
1619.00,0.0996
1618.00,0.0951
1617.00,0.0893
1616.00,0.0838
1615.00,0.0804
1614.00,0.0790
1613.00,0.0793
1612.00,0.0803
1611.00,0.0813
1610.00,0.0812
1609.00,0.0796
1608.00,0.0764
1607.00,0.0720
1606.00,0.0670
1605.00,0.0618
1604.00,0.0568
1603.00,0.0521
1602.00,0.0479
1601.00,0.0444
1600.00,0.0414
1599.00,0.0392
1598.00,0.0375
1597.00,0.0366
1596.00,0.0364
1595.00,0.0371
1594.00,0.0388
1593.00,0.0414
1592.00,0.0452
1591.00,0.0501
1590.00,0.0559
1589.00,0.0623
1588.00,0.0687
1587.00,0.0747
1586.00,0.0797
1585.00,0.0833
1584.00,0.0855
1583.00,0.0864
1582.00,0.0858
1581.00,0.0842
1580.00,0.0819
1579.00,0.0791
1578.00,0.0758
1577.00,0.0718
1576.00,0.0676
1575.00,0.0636
1574.00,0.0603
1573.00,0.0577
1572.00,0.0556
1571.00,0.0539
1570.00,0.0524
1569.00,0.0510
1568.00,0.0494
1567.00,0.0475
1566.00,0.0451
1565.00,0.0423
1564.00,0.0393
1563.00,0.0366
1562.00,0.0342
1561.00,0.0318
1560.00,0.0292
1559.00,0.0267
1558.00,0.0247
1557.00,0.0234
1556.00,0.0227
1555.00,0.0222
1554.00,0.0217
1553.00,0.0212
1552.00,0.0207
1551.00,0.0204
1550.00,0.0201
1549.00,0.0198
1548.00,0.0194
1547.00,0.0191
1546.00,0.0188
1545.00,0.0186
1544.00,0.0183
1543.00,0.0180
1542.00,0.0175
1541.00,0.0171
1540.00,0.0168
1539.00,0.0166
1538.00,0.0165
1537.00,0.0163
1536.00,0.0162
1535.00,0.0160
1534.00,0.0159
1533.00,0.0158
1532.00,0.0157
1531.00,0.0156
1530.00,0.0156
1529.00,0.0156
1528.00,0.0157
1527.00,0.0160
1526.00,0.0162
1525.00,0.0164
1524.00,0.0165
1523.00,0.0168
1522.00,0.0174
1521.00,0.0181
1520.00,0.0188
1519.00,0.0193
1518.00,0.0201
1517.00,0.0212
1516.00,0.0224
1515.00,0.0235
1514.00,0.0244
1513.00,0.0253
1512.00,0.0261
1511.00,0.0267
1510.00,0.0270
1509.00,0.0272
1508.00,0.0274
1507.00,0.0277
1506.00,0.0279
1505.00,0.0281
1504.00,0.0285
1503.00,0.0294
1502.00,0.0309
1501.00,0.0334
1500.00,0.0372
1499.00,0.0423
1498.00,0.0485
1497.00,0.0542
1496.00,0.0576
1495.00,0.0576
1494.00,0.0551
1493.00,0.0512
1492.00,0.0466
1491.00,0.0419
1490.00,0.0376
1489.00,0.0340
1488.00,0.0311
1487.00,0.0287
1486.00,0.0268
1485.00,0.0254
1484.00,0.0242
1483.00,0.0233
1482.00,0.0227
1481.00,0.0222
1480.00,0.0220
1479.00,0.0218
1478.00,0.0219
1477.00,0.0222
1476.00,0.0227
1475.00,0.0234
1474.00,0.0245
1473.00,0.0267
1472.00,0.0299
1471.00,0.0341
1470.00,0.0388
1469.00,0.0440
1468.00,0.0491
1467.00,0.0535
1466.00,0.0565
1465.00,0.0576
1464.00,0.0573
1463.00,0.0563
1462.00,0.0555
1461.00,0.0553
1460.00,0.0553
1459.00,0.0555
1458.00,0.0557
1457.00,0.0553
1456.00,0.0541
1455.00,0.0526
1454.00,0.0514
1453.00,0.0507
1452.00,0.0505
1451.00,0.0507
1450.00,0.0514
1449.00,0.0523
1448.00,0.0534
1447.00,0.0548
1446.00,0.0565
1445.00,0.0584
1444.00,0.0607
1443.00,0.0631
1442.00,0.0654
1441.00,0.0674
1440.00,0.0690
1439.00,0.0703
1438.00,0.0718
1437.00,0.0738
1436.00,0.0764
1435.00,0.0788
1434.00,0.0811
1433.00,0.0834
1432.00,0.0857
1431.00,0.0877
1430.00,0.0890
1429.00,0.0896
1428.00,0.0892
1427.00,0.0879
1426.00,0.0861
1425.00,0.0841
1424.00,0.0819
1423.00,0.0798
1422.00,0.0776
1421.00,0.0755
1420.00,0.0733
1419.00,0.0710
1418.00,0.0687
1417.00,0.0665
1416.00,0.0645
1415.00,0.0629
1414.00,0.0618
1413.00,0.0613
1412.00,0.0616
1411.00,0.0628
1410.00,0.0647
1409.00,0.0675
1408.00,0.0711
1407.00,0.0755
1406.00,0.0809
1405.00,0.0870
1404.00,0.0931
1403.00,0.0982
1402.00,0.1021
1401.00,0.1048
1400.00,0.1062
1399.00,0.1058
1398.00,0.1036
1397.00,0.0998
1396.00,0.0948
1395.00,0.0888
1394.00,0.0826
1393.00,0.0770
1392.00,0.0723
1391.00,0.0689
1390.00,0.0671
1389.00,0.0673
1388.00,0.0693
1387.00,0.0714
1386.00,0.0719
1385.00,0.0701
1384.00,0.0673
1383.00,0.0649
1382.00,0.0638
1381.00,0.0638
1380.00,0.0642
1379.00,0.0643
1378.00,0.0638
1377.00,0.0624
1376.00,0.0600
1375.00,0.0565
1374.00,0.0527
1373.00,0.0493
1372.00,0.0472
1371.00,0.0468
1370.00,0.0481
1369.00,0.0514
1368.00,0.0562
1367.00,0.0615
1366.00,0.0662
1365.00,0.0695
1364.00,0.0718
1363.00,0.0746
1362.00,0.0790
1361.00,0.0840
1360.00,0.0874
1359.00,0.0873
1358.00,0.0839
1357.00,0.0788
1356.00,0.0736
1355.00,0.0696
1354.00,0.0669
1353.00,0.0652
1352.00,0.0642
1351.00,0.0639
1350.00,0.0641
1349.00,0.0646
1348.00,0.0651
1347.00,0.0652
1346.00,0.0648
1345.00,0.0637
1344.00,0.0620
1343.00,0.0598
1342.00,0.0574
1341.00,0.0548
1340.00,0.0522
1339.00,0.0498
1338.00,0.0479
1337.00,0.0466
1336.00,0.0460
1335.00,0.0462
1334.00,0.0470
1333.00,0.0482
1332.00,0.0494
1331.00,0.0504
1330.00,0.0510
1329.00,0.0512
1328.00,0.0509
1327.00,0.0501
1326.00,0.0491
1325.00,0.0479
1324.00,0.0468
1323.00,0.0458
1322.00,0.0451
1321.00,0.0445
1320.00,0.0439
1319.00,0.0432
1318.00,0.0423
1317.00,0.0412
1316.00,0.0400
1315.00,0.0389
1314.00,0.0382
1313.00,0.0378
1312.00,0.0380
1311.00,0.0388
1310.00,0.0403
1309.00,0.0423
1308.00,0.0451
1307.00,0.0485
1306.00,0.0529
1305.00,0.0580
1304.00,0.0639
1303.00,0.0699
1302.00,0.0750
1301.00,0.0782
1300.00,0.0789
1299.00,0.0775
1298.00,0.0752
1297.00,0.0729
1296.00,0.0712
1295.00,0.0702
1294.00,0.0694
1293.00,0.0684
1292.00,0.0670
1291.00,0.0657
1290.00,0.0651
1289.00,0.0655
1288.00,0.0672
1287.00,0.0699
1286.00,0.0733
1285.00,0.0766
1284.00,0.0792
1283.00,0.0803
1282.00,0.0796
1281.00,0.0770
1280.00,0.0729
1279.00,0.0679
1278.00,0.0628
1277.00,0.0581
1276.00,0.0540
1275.00,0.0508
1274.00,0.0481
1273.00,0.0459
1272.00,0.0440
1271.00,0.0423
1270.00,0.0408
1269.00,0.0395
1268.00,0.0385
1267.00,0.0377
1266.00,0.0370
1265.00,0.0363
1264.00,0.0355
1263.00,0.0346
1262.00,0.0336
1261.00,0.0327
1260.00,0.0317
1259.00,0.0310
1258.00,0.0304
1257.00,0.0300
1256.00,0.0297
1255.00,0.0297
1254.00,0.0300
1253.00,0.0305
1252.00,0.0314
1251.00,0.0327
1250.00,0.0347
1249.00,0.0372
1248.00,0.0403
1247.00,0.0438
1246.00,0.0475
1245.00,0.0510
1244.00,0.0541
1243.00,0.0566
1242.00,0.0586
1241.00,0.0604
1240.00,0.0624
1239.00,0.0652
1238.00,0.0687
1237.00,0.0728
1236.00,0.0771
1235.00,0.0807
1234.00,0.0831
1233.00,0.0837
1232.00,0.0825
1231.00,0.0796
1230.00,0.0757
1229.00,0.0714
1228.00,0.0671
1227.00,0.0632
1226.00,0.0599
1225.00,0.0570
1224.00,0.0548
1223.00,0.0530
1222.00,0.0520
1221.00,0.0517
1220.00,0.0521
1219.00,0.0533
1218.00,0.0550
1217.00,0.0571
1216.00,0.0591
1215.00,0.0607
1214.00,0.0614
1213.00,0.0607
1212.00,0.0587
1211.00,0.0557
1210.00,0.0522
1209.00,0.0488
1208.00,0.0460
1207.00,0.0439
1206.00,0.0430
1205.00,0.0432
1204.00,0.0447
1203.00,0.0473
1202.00,0.0512
1201.00,0.0558
1200.00,0.0611
1199.00,0.0671
1198.00,0.0735
1197.00,0.0801
1196.00,0.0859
1195.00,0.0902
1194.00,0.0921
1193.00,0.0915
1192.00,0.0887
1191.00,0.0843
1190.00,0.0788
1189.00,0.0726
1188.00,0.0663
1187.00,0.0601
1186.00,0.0545
1185.00,0.0495
1184.00,0.0454
1183.00,0.0419
1182.00,0.0392
1181.00,0.0369
1180.00,0.0351
1179.00,0.0337
1178.00,0.0325
1177.00,0.0316
1176.00,0.0308
1175.00,0.0301
1174.00,0.0296
1173.00,0.0292
1172.00,0.0289
1171.00,0.0287
1170.00,0.0286
1169.00,0.0285
1168.00,0.0286
1167.00,0.0288
1166.00,0.0294
1165.00,0.0303
1164.00,0.0317
1163.00,0.0338
1162.00,0.0367
1161.00,0.0409
1160.00,0.0467
1159.00,0.0543
1158.00,0.0636
1157.00,0.0737
1156.00,0.0829
1155.00,0.0892
1154.00,0.0907
1153.00,0.0870
1152.00,0.0790
1151.00,0.0688
1150.00,0.0585
1149.00,0.0498
1148.00,0.0431
1147.00,0.0383
1146.00,0.0352
1145.00,0.0333
1144.00,0.0320
1143.00,0.0313
1142.00,0.0310
1141.00,0.0312
1140.00,0.0317
1139.00,0.0328
1138.00,0.0346
1137.00,0.0373
1136.00,0.0412
1135.00,0.0467
1134.00,0.0542
1133.00,0.0640
1132.00,0.0755
1131.00,0.0875
1130.00,0.0984
1129.00,0.1062
1128.00,0.1100
1127.00,0.1099
1126.00,0.1067
1125.00,0.1010
1124.00,0.0935
1123.00,0.0849
1122.00,0.0760
1121.00,0.0678
1120.00,0.0609
1119.00,0.0556
1118.00,0.0520
1117.00,0.0497
1116.00,0.0484
1115.00,0.0477
1114.00,0.0471
1113.00,0.0462
1112.00,0.0448
1111.00,0.0431
1110.00,0.0414
1109.00,0.0400
1108.00,0.0392
1107.00,0.0392
1106.00,0.0403
1105.00,0.0429
1104.00,0.0472
1103.00,0.0532
1102.00,0.0602
1101.00,0.0669
1100.00,0.0716
1099.00,0.0731
1098.00,0.0711
1097.00,0.0661
1096.00,0.0594
1095.00,0.0523
1094.00,0.0458
1093.00,0.0404
1092.00,0.0361
1091.00,0.0329
1090.00,0.0307
1089.00,0.0290
1088.00,0.0277
1087.00,0.0267
1086.00,0.0259
1085.00,0.0254
1084.00,0.0249
1083.00,0.0246
1082.00,0.0245
1081.00,0.0245
1080.00,0.0246
1079.00,0.0247
1078.00,0.0250
1077.00,0.0253
1076.00,0.0256
1075.00,0.0260
1074.00,0.0266
1073.00,0.0273
1072.00,0.0282
1071.00,0.0293
1070.00,0.0306
1069.00,0.0321
1068.00,0.0337
1067.00,0.0356
1066.00,0.0377
1065.00,0.0402
1064.00,0.0433
1063.00,0.0473
1062.00,0.0526
1061.00,0.0594
1060.00,0.0680
1059.00,0.0784
1058.00,0.0907
1057.00,0.1039
1056.00,0.1167
1055.00,0.1278
1054.00,0.1363
1053.00,0.1421
1052.00,0.1460
1051.00,0.1487
1050.00,0.1502
1049.00,0.1502
1048.00,0.1479
1047.00,0.1430
1046.00,0.1358
1045.00,0.1267
1044.00,0.1166
1043.00,0.1062
1042.00,0.0965
1041.00,0.0879
1040.00,0.0811
1039.00,0.0763
1038.00,0.0736
1037.00,0.0726
1036.00,0.0728
1035.00,0.0737
1034.00,0.0754
1033.00,0.0781
1032.00,0.0828
1031.00,0.0904
1030.00,0.1008
1029.00,0.1129
1028.00,0.1244
1027.00,0.1326
1026.00,0.1352
1025.00,0.1316
1024.00,0.1228
1023.00,0.1112
1022.00,0.0991
1021.00,0.0879
1020.00,0.0782
1019.00,0.0701
1018.00,0.0635
1017.00,0.0580
1016.00,0.0535
1015.00,0.0499
1014.00,0.0470
1013.00,0.0450
1012.00,0.0437
1011.00,0.0434
1010.00,0.0444
1009.00,0.0467
1008.00,0.0500
1007.00,0.0542
1006.00,0.0588
1005.00,0.0630
1004.00,0.0661
1003.00,0.0676
1002.00,0.0673
1001.00,0.0657
1000.00,0.0634
999.00,0.0610
998.00,0.0589
997.00,0.0570
996.00,0.0554
995.00,0.0541
994.00,0.0528
993.00,0.0512
992.00,0.0490
991.00,0.0463
990.00,0.0435
989.00,0.0407
988.00,0.0382
987.00,0.0361
986.00,0.0344
985.00,0.0330
984.00,0.0318
983.00,0.0309
982.00,0.0303
981.00,0.0299
980.00,0.0296
979.00,0.0295
978.00,0.0296
977.00,0.0297
976.00,0.0297
975.00,0.0297
974.00,0.0296
973.00,0.0295
972.00,0.0292
971.00,0.0289
970.00,0.0288
969.00,0.0287
968.00,0.0286
967.00,0.0287
966.00,0.0291
965.00,0.0297
964.00,0.0305
963.00,0.0312
962.00,0.0317
961.00,0.0313
960.00,0.0300
959.00,0.0282
958.00,0.0263
957.00,0.0247
956.00,0.0234
955.00,0.0223
954.00,0.0215
953.00,0.0209
952.00,0.0206
951.00,0.0207
950.00,0.0214
949.00,0.0223
948.00,0.0229
947.00,0.0230
946.00,0.0227
945.00,0.0224
944.00,0.0225
943.00,0.0232
942.00,0.0242
941.00,0.0255
940.00,0.0268
939.00,0.0279
938.00,0.0288
937.00,0.0294
936.00,0.0301
935.00,0.0309
934.00,0.0320
933.00,0.0328
932.00,0.0332
931.00,0.0329
930.00,0.0321
929.00,0.0312
928.00,0.0306
927.00,0.0305
926.00,0.0312
925.00,0.0326
924.00,0.0346
923.00,0.0368
922.00,0.0383
921.00,0.0385
920.00,0.0372
919.00,0.0347
918.00,0.0316
917.00,0.0285
916.00,0.0258
915.00,0.0238
914.00,0.0223
913.00,0.0212
912.00,0.0204
911.00,0.0199
910.00,0.0196
909.00,0.0196
908.00,0.0197
907.00,0.0202
906.00,0.0212
905.00,0.0226
904.00,0.0248
903.00,0.0279
902.00,0.0318
901.00,0.0358
900.00,0.0391
899.00,0.0407
898.00,0.0403
897.00,0.0382
896.00,0.0353
895.00,0.0328
894.00,0.0317
893.00,0.0326
892.00,0.0354
891.00,0.0390
890.00,0.0412
889.00,0.0404
888.00,0.0368
887.00,0.0320
886.00,0.0280
885.00,0.0254
884.00,0.0242
883.00,0.0241
882.00,0.0246
881.00,0.0257
880.00,0.0274
879.00,0.0301
878.00,0.0341
877.00,0.0395
876.00,0.0464
875.00,0.0547
874.00,0.0641
873.00,0.0741
872.00,0.0837
871.00,0.0917
870.00,0.0967
869.00,0.0976
868.00,0.0944
867.00,0.0887
866.00,0.0822
865.00,0.0758
864.00,0.0694
863.00,0.0632
862.00,0.0573
861.00,0.0520
860.00,0.0478
859.00,0.0453
858.00,0.0449
857.00,0.0466
856.00,0.0502
855.00,0.0548
854.00,0.0596
853.00,0.0643
852.00,0.0691
851.00,0.0743
850.00,0.0792
849.00,0.0821
848.00,0.0816
847.00,0.0781
846.00,0.0727
845.00,0.0669
844.00,0.0616
843.00,0.0573
842.00,0.0545
841.00,0.0531
840.00,0.0534
839.00,0.0557
838.00,0.0602
837.00,0.0665
836.00,0.0733
835.00,0.0793
834.00,0.0836
833.00,0.0855
832.00,0.0846
831.00,0.0810
830.00,0.0752
829.00,0.0678
828.00,0.0598
827.00,0.0527
826.00,0.0479
825.00,0.0465
824.00,0.0499
823.00,0.0593
822.00,0.0738
821.00,0.0893
820.00,0.1008
819.00,0.1071
818.00,0.1118
817.00,0.1183
816.00,0.1244
815.00,0.1240
814.00,0.1136
813.00,0.0962
812.00,0.0780
811.00,0.0632
810.00,0.0526
809.00,0.0452
808.00,0.0399
807.00,0.0359
806.00,0.0330
805.00,0.0306
804.00,0.0288
803.00,0.0274
802.00,0.0264
801.00,0.0255
800.00,0.0248
799.00,0.0242
798.00,0.0238
797.00,0.0233
796.00,0.0229
795.00,0.0225
794.00,0.0222
793.00,0.0219
792.00,0.0217
791.00,0.0215
790.00,0.0214
789.00,0.0212
788.00,0.0210
787.00,0.0209
786.00,0.0208
785.00,0.0207
784.00,0.0207
783.00,0.0207
782.00,0.0208
781.00,0.0210
780.00,0.0214
779.00,0.0224
778.00,0.0242
777.00,0.0271
776.00,0.0307
775.00,0.0338
774.00,0.0352
773.00,0.0342
772.00,0.0316
771.00,0.0287
770.00,0.0265
769.00,0.0251
768.00,0.0243
767.00,0.0239
766.00,0.0237
765.00,0.0239
764.00,0.0245
763.00,0.0256
762.00,0.0271
761.00,0.0286
760.00,0.0297
759.00,0.0302
758.00,0.0299
757.00,0.0291
756.00,0.0279
755.00,0.0268
754.00,0.0260
753.00,0.0255
752.00,0.0252
751.00,0.0251
750.00,0.0252
749.00,0.0255
748.00,0.0257
747.00,0.0261
746.00,0.0266
745.00,0.0272
744.00,0.0280
743.00,0.0292
742.00,0.0308
741.00,0.0331
740.00,0.0364
739.00,0.0411
738.00,0.0476
737.00,0.0553
736.00,0.0627
735.00,0.0677
734.00,0.0691
733.00,0.0673
732.00,0.0647
731.00,0.0633
730.00,0.0638
729.00,0.0649
728.00,0.0649
727.00,0.0625
726.00,0.0580
725.00,0.0523
724.00,0.0470
723.00,0.0429
722.00,0.0404
721.00,0.0391
720.00,0.0392
719.00,0.0406
718.00,0.0432
717.00,0.0465
716.00,0.0496
715.00,0.0517
714.00,0.0523
713.00,0.0513
712.00,0.0494
711.00,0.0471
710.00,0.0449
709.00,0.0431
708.00,0.0418
707.00,0.0412
706.00,0.0413
705.00,0.0419
704.00,0.0428
703.00,0.0442
702.00,0.0459
701.00,0.0477
700.00,0.0494
699.00,0.0508
698.00,0.0516
697.00,0.0515
696.00,0.0504
695.00,0.0488
694.00,0.0473
693.00,0.0466
692.00,0.0471
691.00,0.0492
690.00,0.0525
689.00,0.0557
688.00,0.0575
687.00,0.0573
686.00,0.0555
685.00,0.0528
684.00,0.0504
683.00,0.0488
682.00,0.0480
681.00,0.0480
680.00,0.0486
679.00,0.0496
678.00,0.0512
677.00,0.0533
676.00,0.0558
675.00,0.0587
674.00,0.0620
673.00,0.0649
672.00,0.0671
671.00,0.0683
670.00,0.0685
669.00,0.0675
668.00,0.0656
667.00,0.0639
666.00,0.0631
665.00,0.0631
664.00,0.0638
663.00,0.0650
662.00,0.0661
661.00,0.0663
660.00,0.0653
659.00,0.0631
658.00,0.0604
657.00,0.0575
656.00,0.0548
655.00,0.0526
654.00,0.0511
653.00,0.0500
652.00,0.0491
651.00,0.0483
650.00,0.0478
649.00,0.0474
648.00,0.0470
647.00,0.0466
646.00,0.0464
645.00,0.0460
644.00,0.0456
643.00,0.0452
642.00,0.0448
641.00,0.0445
640.00,0.0442
639.00,0.0440
638.00,0.0439
637.00,0.0438
636.00,0.0437
635.00,0.0436
634.00,0.0437
633.00,0.0437
632.00,0.0437
631.00,0.0439
630.00,0.0442
629.00,0.0447
628.00,0.0453
627.00,0.0463
626.00,0.0478
625.00,0.0497
624.00,0.0518
623.00,0.0542
622.00,0.0568
621.00,0.0591
620.00,0.0605
619.00,0.0607
618.00,0.0595
617.00,0.0570
616.00,0.0536
615.00,0.0502
614.00,0.0473
613.00,0.0452
612.00,0.0438
611.00,0.0436
610.00,0.0450
609.00,0.0479
608.00,0.0524
607.00,0.0581
606.00,0.0644
605.00,0.0703
604.00,0.0751
603.00,0.0786
602.00,0.0810
601.00,0.0822
600.00,0.0826
599.00,0.0825
598.00,0.0822
597.00,0.0817
596.00,0.0810
595.00,0.0803
594.00,0.0796
593.00,0.0788
592.00,0.0775
591.00,0.0760
590.00,0.0746
589.00,0.0731
588.00,0.0716
587.00,0.0703
586.00,0.0693
585.00,0.0688
584.00,0.0685
583.00,0.0689
582.00,0.0698
581.00,0.0714
580.00,0.0738
579.00,0.0776
578.00,0.0823
577.00,0.0864
576.00,0.0881
575.00,0.0866
574.00,0.0826
573.00,0.0775
572.00,0.0723
571.00,0.0678
570.00,0.0644
569.00,0.0619
568.00,0.0601
567.00,0.0597
566.00,0.0608
565.00,0.0630
564.00,0.0660
563.00,0.0697
562.00,0.0741
561.00,0.0782
560.00,0.0811
559.00,0.0819
558.00,0.0808
557.00,0.0781
556.00,0.0748
555.00,0.0717
554.00,0.0695
553.00,0.0685
552.00,0.0687
551.00,0.0706
550.00,0.0741
549.00,0.0785
548.00,0.0830
547.00,0.0867
546.00,0.0889
545.00,0.0890
544.00,0.0870
543.00,0.0839
542.00,0.0804
541.00,0.0770
540.00,0.0738
539.00,0.0714
538.00,0.0701
537.00,0.0697
536.00,0.0701
535.00,0.0720
534.00,0.0752
533.00,0.0791
532.00,0.0824
531.00,0.0842
530.00,0.0840
529.00,0.0815
528.00,0.0774
527.00,0.0727
526.00,0.0682
525.00,0.0641
524.00,0.0604
523.00,0.0574
522.00,0.0551
521.00,0.0533
520.00,0.0516
519.00,0.0504
518.00,0.0496
517.00,0.0489
516.00,0.0481
515.00,0.0473
514.00,0.0470
513.00,0.0469
512.00,0.0468
511.00,0.0470
510.00,0.0478
509.00,0.0488
508.00,0.0497
507.00,0.0506
506.00,0.0514
505.00,0.0514
504.00,0.0505
503.00,0.0490
502.00,0.0474
501.00,0.0457
500.00,0.0442
499.00,0.0433
498.00,0.0431
497.00,0.0435
496.00,0.0442
495.00,0.0455
494.00,0.0473
493.00,0.0488
492.00,0.0493
491.00,0.0491
490.00,0.0484
489.00,0.0473
488.00,0.0457
487.00,0.0442
486.00,0.0431
485.00,0.0423
484.00,0.0413
483.00,0.0404
482.00,0.0399
481.00,0.0392
480.00,0.0383
479.00,0.0376
478.00,0.0375
477.00,0.0374
476.00,0.0369
475.00,0.0364
474.00,0.0362
473.00,0.0360
472.00,0.0356
471.00,0.0353
470.00,0.0355
469.00,0.0355
468.00,0.0352
467.00,0.0349
466.00,0.0350
465.00,0.0349
464.00,0.0342
463.00,0.0339
462.00,0.0341
461.00,0.0344
460.00,0.0343
459.00,0.0344
458.00,0.0350
457.00,0.0353
456.00,0.0348
455.00,0.0345
454.00,0.0345
453.00,0.0345
452.00,0.0338
451.00,0.0331
450.00,0.0330
449.00,0.0330
448.00,0.0325
447.00,0.0323
446.00,0.0326
445.00,0.0329
444.00,0.0326
443.00,0.0325
442.00,0.0330
441.00,0.0336
440.00,0.0337
439.00,0.0339
438.00,0.0342
437.00,0.0340
436.00,0.0329
435.00,0.0320
434.00,0.0318
433.00,0.0317
432.00,0.0308
431.00,0.0300
430.00,0.0298
429.00,0.0297
428.00,0.0290
427.00,0.0286
426.00,0.0290
425.00,0.0293
424.00,0.0287
423.00,0.0280
422.00,0.0281
421.00,0.0282
420.00,0.0274
419.00,0.0272
418.00,0.0286
417.00,0.0300
416.00,0.0305
415.00,0.0314
414.00,0.0334
413.00,0.0356
412.00,0.0372
411.00,0.0391
410.00,0.0420
409.00,0.0438
408.00,0.0430
407.00,0.0407
406.00,0.0387
405.00,0.0362
404.00,0.0330
403.00,0.0309
402.00,0.0313
401.00,0.0325
400.00,0.0326
