Created as New Dataset,Sample 928 By YargerLab Date Saturday, July 26 2025
cm-1,A
4000.00,0.0033
3999.00,0.0033
3998.00,0.0033
3997.00,0.0033
3996.00,0.0033
3995.00,0.0033
3994.00,0.0033
3993.00,0.0033
3992.00,0.0033
3991.00,0.0033
3990.00,0.0033
3989.00,0.0033
3988.00,0.0033
3987.00,0.0033
3986.00,0.0033
3985.00,0.0033
3984.00,0.0033
3983.00,0.0033
3982.00,0.0033
3981.00,0.0033
3980.00,0.0033
3979.00,0.0033
3978.00,0.0033
3977.00,0.0033
3976.00,0.0033
3975.00,0.0033
3974.00,0.0033
3973.00,0.0033
3972.00,0.0033
3971.00,0.0033
3970.00,0.0033
3969.00,0.0033
3968.00,0.0032
3967.00,0.0032
3966.00,0.0032
3965.00,0.0033
3964.00,0.0033
3963.00,0.0033
3962.00,0.0033
3961.00,0.0032
3960.00,0.0032
3959.00,0.0032
3958.00,0.0032
3957.00,0.0032
3956.00,0.0032
3955.00,0.0033
3954.00,0.0033
3953.00,0.0033
3952.00,0.0033
3951.00,0.0033
3950.00,0.0032
3949.00,0.0032
3948.00,0.0032
3947.00,0.0032
3946.00,0.0032
3945.00,0.0032
3944.00,0.0032
3943.00,0.0032
3942.00,0.0032
3941.00,0.0032
3940.00,0.0032
3939.00,0.0032
3938.00,0.0032
3937.00,0.0032
3936.00,0.0032
3935.00,0.0032
3934.00,0.0032
3933.00,0.0032
3932.00,0.0032
3931.00,0.0032
3930.00,0.0033
3929.00,0.0033
3928.00,0.0033
3927.00,0.0033
3926.00,0.0032
3925.00,0.0032
3924.00,0.0032
3923.00,0.0032
3922.00,0.0032
3921.00,0.0032
3920.00,0.0032
3919.00,0.0032
3918.00,0.0032
3917.00,0.0032
3916.00,0.0032
3915.00,0.0033
3914.00,0.0033
3913.00,0.0033
3912.00,0.0033
3911.00,0.0033
3910.00,0.0033
3909.00,0.0033
3908.00,0.0033
3907.00,0.0033
3906.00,0.0032
3905.00,0.0032
3904.00,0.0032
3903.00,0.0032
3902.00,0.0033
3901.00,0.0033
3900.00,0.0033
3899.00,0.0033
3898.00,0.0033
3897.00,0.0033
3896.00,0.0033
3895.00,0.0033
3894.00,0.0032
3893.00,0.0032
3892.00,0.0032
3891.00,0.0033
3890.00,0.0033
3889.00,0.0033
3888.00,0.0033
3887.00,0.0033
3886.00,0.0033
3885.00,0.0033
3884.00,0.0033
3883.00,0.0033
3882.00,0.0032
3881.00,0.0032
3880.00,0.0032
3879.00,0.0032
3878.00,0.0032
3877.00,0.0032
3876.00,0.0032
3875.00,0.0032
3874.00,0.0032
3873.00,0.0032
3872.00,0.0032
3871.00,0.0032
3870.00,0.0032
3869.00,0.0032
3868.00,0.0032
3867.00,0.0032
3866.00,0.0032
3865.00,0.0032
3864.00,0.0032
3863.00,0.0032
3862.00,0.0032
3861.00,0.0032
3860.00,0.0033
3859.00,0.0033
3858.00,0.0033
3857.00,0.0033
3856.00,0.0033
3855.00,0.0033
3854.00,0.0033
3853.00,0.0032
3852.00,0.0032
3851.00,0.0032
3850.00,0.0031
3849.00,0.0031
3848.00,0.0032
3847.00,0.0032
3846.00,0.0032
3845.00,0.0033
3844.00,0.0033
3843.00,0.0033
3842.00,0.0033
3841.00,0.0033
3840.00,0.0033
3839.00,0.0033
3838.00,0.0033
3837.00,0.0033
3836.00,0.0033
3835.00,0.0033
3834.00,0.0033
3833.00,0.0033
3832.00,0.0033
3831.00,0.0033
3830.00,0.0033
3829.00,0.0033
3828.00,0.0033
3827.00,0.0033
3826.00,0.0033
3825.00,0.0034
3824.00,0.0034
3823.00,0.0034
3822.00,0.0033
3821.00,0.0033
3820.00,0.0033
3819.00,0.0033
3818.00,0.0033
3817.00,0.0033
3816.00,0.0033
3815.00,0.0034
3814.00,0.0033
3813.00,0.0033
3812.00,0.0033
3811.00,0.0033
3810.00,0.0033
3809.00,0.0033
3808.00,0.0033
3807.00,0.0033
3806.00,0.0033
3805.00,0.0034
3804.00,0.0034
3803.00,0.0033
3802.00,0.0033
3801.00,0.0033
3800.00,0.0033
3799.00,0.0033
3798.00,0.0033
3797.00,0.0033
3796.00,0.0033
3795.00,0.0033
3794.00,0.0033
3793.00,0.0033
3792.00,0.0033
3791.00,0.0033
3790.00,0.0033
3789.00,0.0033
3788.00,0.0033
3787.00,0.0033
3786.00,0.0033
3785.00,0.0033
3784.00,0.0033
3783.00,0.0033
3782.00,0.0033
3781.00,0.0034
3780.00,0.0034
3779.00,0.0034
3778.00,0.0034
3777.00,0.0034
3776.00,0.0033
3775.00,0.0033
3774.00,0.0033
3773.00,0.0033
3772.00,0.0033
3771.00,0.0033
3770.00,0.0033
3769.00,0.0034
3768.00,0.0034
3767.00,0.0033
3766.00,0.0033
3765.00,0.0033
3764.00,0.0033
3763.00,0.0033
3762.00,0.0033
3761.00,0.0033
3760.00,0.0033
3759.00,0.0033
3758.00,0.0033
3757.00,0.0033
3756.00,0.0033
3755.00,0.0033
3754.00,0.0033
3753.00,0.0033
3752.00,0.0034
3751.00,0.0034
3750.00,0.0034
3749.00,0.0034
3748.00,0.0034
3747.00,0.0034
3746.00,0.0034
3745.00,0.0034
3744.00,0.0034
3743.00,0.0033
3742.00,0.0033
3741.00,0.0032
3740.00,0.0032
3739.00,0.0033
3738.00,0.0033
3737.00,0.0033
3736.00,0.0033
3735.00,0.0033
3734.00,0.0032
3733.00,0.0032
3732.00,0.0032
3731.00,0.0032
3730.00,0.0032
3729.00,0.0032
3728.00,0.0032
3727.00,0.0032
3726.00,0.0033
3725.00,0.0032
3724.00,0.0032
3723.00,0.0032
3722.00,0.0032
3721.00,0.0032
3720.00,0.0032
3719.00,0.0033
3718.00,0.0033
3717.00,0.0033
3716.00,0.0033
3715.00,0.0033
3714.00,0.0033
3713.00,0.0033
3712.00,0.0033
3711.00,0.0033
3710.00,0.0032
3709.00,0.0032
3708.00,0.0031
3707.00,0.0032
3706.00,0.0032
3705.00,0.0032
3704.00,0.0032
3703.00,0.0033
3702.00,0.0033
3701.00,0.0033
3700.00,0.0033
3699.00,0.0033
3698.00,0.0033
3697.00,0.0032
3696.00,0.0033
3695.00,0.0033
3694.00,0.0033
3693.00,0.0033
3692.00,0.0033
3691.00,0.0034
3690.00,0.0034
3689.00,0.0034
3688.00,0.0034
3687.00,0.0034
3686.00,0.0035
3685.00,0.0035
3684.00,0.0035
3683.00,0.0035
3682.00,0.0036
3681.00,0.0036
3680.00,0.0036
3679.00,0.0037
3678.00,0.0037
3677.00,0.0037
3676.00,0.0037
3675.00,0.0038
3674.00,0.0038
3673.00,0.0038
3672.00,0.0038
3671.00,0.0038
3670.00,0.0038
3669.00,0.0038
3668.00,0.0038
3667.00,0.0039
3666.00,0.0039
3665.00,0.0039
3664.00,0.0040
3663.00,0.0040
3662.00,0.0040
3661.00,0.0041
3660.00,0.0041
3659.00,0.0041
3658.00,0.0041
3657.00,0.0042
3656.00,0.0042
3655.00,0.0043
3654.00,0.0043
3653.00,0.0043
3652.00,0.0043
3651.00,0.0044
3650.00,0.0044
3649.00,0.0044
3648.00,0.0045
3647.00,0.0045
3646.00,0.0045
3645.00,0.0046
3644.00,0.0046
3643.00,0.0047
3642.00,0.0047
3641.00,0.0048
3640.00,0.0048
3639.00,0.0049
3638.00,0.0050
3637.00,0.0051
3636.00,0.0052
3635.00,0.0052
3634.00,0.0053
3633.00,0.0054
3632.00,0.0054
3631.00,0.0054
3630.00,0.0055
3629.00,0.0055
3628.00,0.0056
3627.00,0.0057
3626.00,0.0057
3625.00,0.0058
3624.00,0.0059
3623.00,0.0060
3622.00,0.0061
3621.00,0.0062
3620.00,0.0062
3619.00,0.0063
3618.00,0.0064
3617.00,0.0065
3616.00,0.0066
3615.00,0.0067
3614.00,0.0068
3613.00,0.0069
3612.00,0.0070
3611.00,0.0070
3610.00,0.0071
3609.00,0.0072
3608.00,0.0073
3607.00,0.0074
3606.00,0.0075
3605.00,0.0076
3604.00,0.0077
3603.00,0.0078
3602.00,0.0079
3601.00,0.0080
3600.00,0.0081
3599.00,0.0082
3598.00,0.0083
3597.00,0.0084
3596.00,0.0085
3595.00,0.0086
3594.00,0.0087
3593.00,0.0089
3592.00,0.0090
3591.00,0.0091
3590.00,0.0092
3589.00,0.0093
3588.00,0.0094
3587.00,0.0095
3586.00,0.0096
3585.00,0.0098
3584.00,0.0099
3583.00,0.0100
3582.00,0.0101
3581.00,0.0103
3580.00,0.0104
3579.00,0.0105
3578.00,0.0107
3577.00,0.0108
3576.00,0.0110
3575.00,0.0112
3574.00,0.0113
3573.00,0.0114
3572.00,0.0116
3571.00,0.0117
3570.00,0.0119
3569.00,0.0120
3568.00,0.0121
3567.00,0.0122
3566.00,0.0123
3565.00,0.0124
3564.00,0.0125
3563.00,0.0127
3562.00,0.0128
3561.00,0.0130
3560.00,0.0132
3559.00,0.0133
3558.00,0.0135
3557.00,0.0136
3556.00,0.0138
3555.00,0.0139
3554.00,0.0140
3553.00,0.0142
3552.00,0.0143
3551.00,0.0144
3550.00,0.0145
3549.00,0.0146
3548.00,0.0148
3547.00,0.0149
3546.00,0.0150
3545.00,0.0151
3544.00,0.0152
3543.00,0.0153
3542.00,0.0154
3541.00,0.0155
3540.00,0.0157
3539.00,0.0158
3538.00,0.0159
3537.00,0.0160
3536.00,0.0161
3535.00,0.0162
3534.00,0.0163
3533.00,0.0163
3532.00,0.0165
3531.00,0.0166
3530.00,0.0167
3529.00,0.0168
3528.00,0.0169
3527.00,0.0169
3526.00,0.0170
3525.00,0.0171
3524.00,0.0172
3523.00,0.0172
3522.00,0.0173
3521.00,0.0174
3520.00,0.0174
3519.00,0.0175
3518.00,0.0176
3517.00,0.0177
3516.00,0.0178
3515.00,0.0178
3514.00,0.0179
3513.00,0.0180
3512.00,0.0180
3511.00,0.0181
3510.00,0.0182
3509.00,0.0182
3508.00,0.0183
3507.00,0.0184
3506.00,0.0184
3505.00,0.0185
3504.00,0.0185
3503.00,0.0185
3502.00,0.0186
3501.00,0.0186
3500.00,0.0187
3499.00,0.0188
3498.00,0.0188
3497.00,0.0189
3496.00,0.0190
3495.00,0.0190
3494.00,0.0191
3493.00,0.0191
3492.00,0.0192
3491.00,0.0192
3490.00,0.0192
3489.00,0.0193
3488.00,0.0193
3487.00,0.0193
3486.00,0.0194
3485.00,0.0194
3484.00,0.0195
3483.00,0.0195
3482.00,0.0196
3481.00,0.0197
3480.00,0.0198
3479.00,0.0198
3478.00,0.0199
3477.00,0.0199
3476.00,0.0200
3475.00,0.0200
3474.00,0.0201
3473.00,0.0201
3472.00,0.0202
3471.00,0.0202
3470.00,0.0203
3469.00,0.0204
3468.00,0.0204
3467.00,0.0204
3466.00,0.0205
3465.00,0.0205
3464.00,0.0205
3463.00,0.0206
3462.00,0.0206
3461.00,0.0207
3460.00,0.0207
3459.00,0.0208
3458.00,0.0208
3457.00,0.0209
3456.00,0.0209
3455.00,0.0209
3454.00,0.0210
3453.00,0.0210
3452.00,0.0210
3451.00,0.0210
3450.00,0.0211
3449.00,0.0211
3448.00,0.0211
3447.00,0.0212
3446.00,0.0212
3445.00,0.0212
3444.00,0.0213
3443.00,0.0213
3442.00,0.0214
3441.00,0.0214
3440.00,0.0214
3439.00,0.0215
3438.00,0.0215
3437.00,0.0216
3436.00,0.0216
3435.00,0.0216
3434.00,0.0216
3433.00,0.0216
3432.00,0.0216
3431.00,0.0216
3430.00,0.0217
3429.00,0.0217
3428.00,0.0218
3427.00,0.0218
3426.00,0.0218
3425.00,0.0219
3424.00,0.0219
3423.00,0.0219
3422.00,0.0219
3421.00,0.0219
3420.00,0.0219
3419.00,0.0219
3418.00,0.0220
3417.00,0.0220
3416.00,0.0220
3415.00,0.0221
3414.00,0.0221
3413.00,0.0221
3412.00,0.0221
3411.00,0.0221
3410.00,0.0221
3409.00,0.0221
3408.00,0.0221
3407.00,0.0221
3406.00,0.0221
3405.00,0.0221
3404.00,0.0221
3403.00,0.0221
3402.00,0.0220
3401.00,0.0220
3400.00,0.0220
3399.00,0.0219
3398.00,0.0219
3397.00,0.0219
3396.00,0.0218
3395.00,0.0218
3394.00,0.0217
3393.00,0.0216
3392.00,0.0216
3391.00,0.0215
3390.00,0.0214
3389.00,0.0214
3388.00,0.0213
3387.00,0.0212
3386.00,0.0212
3385.00,0.0211
3384.00,0.0211
3383.00,0.0210
3382.00,0.0210
3381.00,0.0209
3380.00,0.0208
3379.00,0.0207
3378.00,0.0207
3377.00,0.0206
3376.00,0.0205
3375.00,0.0204
3374.00,0.0202
3373.00,0.0201
3372.00,0.0200
3371.00,0.0199
3370.00,0.0198
3369.00,0.0198
3368.00,0.0197
3367.00,0.0197
3366.00,0.0196
3365.00,0.0195
3364.00,0.0195
3363.00,0.0194
3362.00,0.0193
3361.00,0.0192
3360.00,0.0191
3359.00,0.0191
3358.00,0.0190
3357.00,0.0190
3356.00,0.0190
3355.00,0.0189
3354.00,0.0188
3353.00,0.0187
3352.00,0.0186
3351.00,0.0185
3350.00,0.0185
3349.00,0.0185
3348.00,0.0185
3347.00,0.0184
3346.00,0.0184
3345.00,0.0183
3344.00,0.0182
3343.00,0.0181
3342.00,0.0181
3341.00,0.0180
3340.00,0.0179
3339.00,0.0179
3338.00,0.0178
3337.00,0.0178
3336.00,0.0178
3335.00,0.0178
3334.00,0.0178
3333.00,0.0177
3332.00,0.0177
3331.00,0.0177
3330.00,0.0176
3329.00,0.0176
3328.00,0.0175
3327.00,0.0175
3326.00,0.0174
3325.00,0.0174
3324.00,0.0174
3323.00,0.0174
3322.00,0.0174
3321.00,0.0174
3320.00,0.0174
3319.00,0.0174
3318.00,0.0174
3317.00,0.0174
3316.00,0.0174
3315.00,0.0173
3314.00,0.0173
3313.00,0.0172
3312.00,0.0171
3311.00,0.0171
3310.00,0.0170
3309.00,0.0169
3308.00,0.0168
3307.00,0.0168
3306.00,0.0168
3305.00,0.0168
3304.00,0.0169
3303.00,0.0169
3302.00,0.0170
3301.00,0.0170
3300.00,0.0170
3299.00,0.0170
3298.00,0.0169
3297.00,0.0169
3296.00,0.0168
3295.00,0.0168
3294.00,0.0168
3293.00,0.0167
3292.00,0.0168
3291.00,0.0168
3290.00,0.0168
3289.00,0.0169
3288.00,0.0169
3287.00,0.0169
3286.00,0.0169
3285.00,0.0169
3284.00,0.0168
3283.00,0.0168
3282.00,0.0168
3281.00,0.0168
3280.00,0.0168
3279.00,0.0167
3278.00,0.0167
3277.00,0.0167
3276.00,0.0166
3275.00,0.0165
3274.00,0.0165
3273.00,0.0164
3272.00,0.0164
3271.00,0.0163
3270.00,0.0163
3269.00,0.0163
3268.00,0.0163
3267.00,0.0163
3266.00,0.0163
3265.00,0.0163
3264.00,0.0163
3263.00,0.0162
3262.00,0.0162
3261.00,0.0162
3260.00,0.0161
3259.00,0.0161
3258.00,0.0160
3257.00,0.0159
3256.00,0.0159
3255.00,0.0158
3254.00,0.0158
3253.00,0.0157
3252.00,0.0157
3251.00,0.0156
3250.00,0.0156
3249.00,0.0155
3248.00,0.0155
3247.00,0.0154
3246.00,0.0154
3245.00,0.0154
3244.00,0.0153
3243.00,0.0153
3242.00,0.0152
3241.00,0.0152
3240.00,0.0151
3239.00,0.0151
3238.00,0.0150
3237.00,0.0150
3236.00,0.0149
3235.00,0.0148
3234.00,0.0147
3233.00,0.0147
3232.00,0.0146
3231.00,0.0146
3230.00,0.0146
3229.00,0.0145
3228.00,0.0144
3227.00,0.0144
3226.00,0.0143
3225.00,0.0142
3224.00,0.0142
3223.00,0.0141
3222.00,0.0140
3221.00,0.0139
3220.00,0.0138
3219.00,0.0138
3218.00,0.0137
3217.00,0.0137
3216.00,0.0136
3215.00,0.0136
3214.00,0.0135
3213.00,0.0134
3212.00,0.0134
3211.00,0.0133
3210.00,0.0132
3209.00,0.0131
3208.00,0.0130
3207.00,0.0129
3206.00,0.0129
3205.00,0.0128
3204.00,0.0127
3203.00,0.0126
3202.00,0.0126
3201.00,0.0125
3200.00,0.0124
3199.00,0.0124
3198.00,0.0123
3197.00,0.0122
3196.00,0.0121
3195.00,0.0120
3194.00,0.0119
3193.00,0.0119
3192.00,0.0118
3191.00,0.0117
3190.00,0.0116
3189.00,0.0115
3188.00,0.0115
3187.00,0.0114
3186.00,0.0113
3185.00,0.0113
3184.00,0.0112
3183.00,0.0111
3182.00,0.0110
3181.00,0.0110
3180.00,0.0109
3179.00,0.0108
3178.00,0.0108
3177.00,0.0107
3176.00,0.0106
3175.00,0.0105
3174.00,0.0105
3173.00,0.0104
3172.00,0.0103
3171.00,0.0103
3170.00,0.0102
3169.00,0.0101
3168.00,0.0101
3167.00,0.0100
3166.00,0.0100
3165.00,0.0099
3164.00,0.0098
3163.00,0.0098
3162.00,0.0097
3161.00,0.0097
3160.00,0.0096
3159.00,0.0095
3158.00,0.0095
3157.00,0.0094
3156.00,0.0094
3155.00,0.0093
3154.00,0.0092
3153.00,0.0092
3152.00,0.0091
3151.00,0.0091
3150.00,0.0090
3149.00,0.0090
3148.00,0.0089
3147.00,0.0088
3146.00,0.0088
3145.00,0.0087
3144.00,0.0087
3143.00,0.0087
3142.00,0.0086
3141.00,0.0086
3140.00,0.0085
3139.00,0.0085
3138.00,0.0084
3137.00,0.0084
3136.00,0.0084
3135.00,0.0083
3134.00,0.0083
3133.00,0.0082
3132.00,0.0082
3131.00,0.0082
3130.00,0.0081
3129.00,0.0081
3128.00,0.0081
3127.00,0.0080
3126.00,0.0080
3125.00,0.0079
3124.00,0.0079
3123.00,0.0079
3122.00,0.0078
3121.00,0.0078
3120.00,0.0078
3119.00,0.0077
3118.00,0.0077
3117.00,0.0077
3116.00,0.0077
3115.00,0.0076
3114.00,0.0076
3113.00,0.0076
3112.00,0.0076
3111.00,0.0075
3110.00,0.0075
3109.00,0.0074
3108.00,0.0074
3107.00,0.0074
3106.00,0.0073
3105.00,0.0073
3104.00,0.0073
3103.00,0.0072
3102.00,0.0072
3101.00,0.0072
3100.00,0.0071
3099.00,0.0071
3098.00,0.0071
3097.00,0.0071
3096.00,0.0071
3095.00,0.0071
3094.00,0.0071
3093.00,0.0070
3092.00,0.0070
3091.00,0.0070
3090.00,0.0069
3089.00,0.0069
3088.00,0.0069
3087.00,0.0069
3086.00,0.0069
3085.00,0.0068
3084.00,0.0068
3083.00,0.0068
3082.00,0.0068
3081.00,0.0068
3080.00,0.0067
3079.00,0.0067
3078.00,0.0067
3077.00,0.0067
3076.00,0.0066
3075.00,0.0066
3074.00,0.0066
3073.00,0.0065
3072.00,0.0065
3071.00,0.0065
3070.00,0.0065
3069.00,0.0065
3068.00,0.0065
3067.00,0.0065
3066.00,0.0065
3065.00,0.0065
3064.00,0.0064
3063.00,0.0064
3062.00,0.0064
3061.00,0.0064
3060.00,0.0064
3059.00,0.0064
3058.00,0.0064
3057.00,0.0064
3056.00,0.0064
3055.00,0.0064
3054.00,0.0064
3053.00,0.0064
3052.00,0.0064
3051.00,0.0064
3050.00,0.0063
3049.00,0.0063
3048.00,0.0063
3047.00,0.0063
3046.00,0.0063
3045.00,0.0063
3044.00,0.0063
3043.00,0.0063
3042.00,0.0063
3041.00,0.0063
3040.00,0.0063
3039.00,0.0063
3038.00,0.0063
3037.00,0.0063
3036.00,0.0064
3035.00,0.0064
3034.00,0.0064
3033.00,0.0064
3032.00,0.0064
3031.00,0.0064
3030.00,0.0065
3029.00,0.0065
3028.00,0.0065
3027.00,0.0065
3026.00,0.0065
3025.00,0.0065
3024.00,0.0065
3023.00,0.0065
3022.00,0.0065
3021.00,0.0065
3020.00,0.0066
3019.00,0.0066
3018.00,0.0067
3017.00,0.0068
3016.00,0.0068
3015.00,0.0069
3014.00,0.0070
3013.00,0.0071
3012.00,0.0072
3011.00,0.0074
3010.00,0.0075
3009.00,0.0076
3008.00,0.0078
3007.00,0.0080
3006.00,0.0081
3005.00,0.0083
3004.00,0.0086
3003.00,0.0088
3002.00,0.0090
3001.00,0.0093
3000.00,0.0096
2999.00,0.0099
2998.00,0.0102
2997.00,0.0105
2996.00,0.0109
2995.00,0.0112
2994.00,0.0116
2993.00,0.0119
2992.00,0.0122
2991.00,0.0126
2990.00,0.0129
2989.00,0.0132
2988.00,0.0135
2987.00,0.0138
2986.00,0.0141
2985.00,0.0144
2984.00,0.0147
2983.00,0.0149
2982.00,0.0152
2981.00,0.0155
2980.00,0.0159
2979.00,0.0162
2978.00,0.0165
2977.00,0.0167
2976.00,0.0169
2975.00,0.0171
2974.00,0.0174
2973.00,0.0176
2972.00,0.0179
2971.00,0.0182
2970.00,0.0185
2969.00,0.0188
2968.00,0.0191
2967.00,0.0194
2966.00,0.0196
2965.00,0.0198
2964.00,0.0201
2963.00,0.0203
2962.00,0.0205
2961.00,0.0208
2960.00,0.0210
2959.00,0.0211
2958.00,0.0212
2957.00,0.0213
2956.00,0.0213
2955.00,0.0213
2954.00,0.0213
2953.00,0.0213
2952.00,0.0212
2951.00,0.0211
2950.00,0.0211
2949.00,0.0210
2948.00,0.0209
2947.00,0.0209
2946.00,0.0208
2945.00,0.0207
2944.00,0.0207
2943.00,0.0206
2942.00,0.0205
2941.00,0.0205
2940.00,0.0205
2939.00,0.0205
2938.00,0.0205
2937.00,0.0206
2936.00,0.0207
2935.00,0.0208
2934.00,0.0210
2933.00,0.0212
2932.00,0.0215
2931.00,0.0217
2930.00,0.0220
2929.00,0.0222
2928.00,0.0223
2927.00,0.0224
2926.00,0.0224
2925.00,0.0223
2924.00,0.0222
2923.00,0.0220
2922.00,0.0217
2921.00,0.0214
2920.00,0.0211
2919.00,0.0208
2918.00,0.0205
2917.00,0.0201
2916.00,0.0199
2915.00,0.0197
2914.00,0.0195
2913.00,0.0193
2912.00,0.0192
2911.00,0.0190
2910.00,0.0188
2909.00,0.0186
2908.00,0.0184
2907.00,0.0182
2906.00,0.0180
2905.00,0.0178
2904.00,0.0177
2903.00,0.0176
2902.00,0.0175
2901.00,0.0174
2900.00,0.0174
2899.00,0.0174
2898.00,0.0174
2897.00,0.0174
2896.00,0.0174
2895.00,0.0175
2894.00,0.0175
2893.00,0.0175
2892.00,0.0175
2891.00,0.0175
2890.00,0.0175
2889.00,0.0175
2888.00,0.0175
2887.00,0.0175
2886.00,0.0174
2885.00,0.0174
2884.00,0.0174
2883.00,0.0174
2882.00,0.0174
2881.00,0.0174
2880.00,0.0174
2879.00,0.0174
2878.00,0.0174
2877.00,0.0174
2876.00,0.0174
2875.00,0.0173
2874.00,0.0173
2873.00,0.0172
2872.00,0.0172
2871.00,0.0171
2870.00,0.0170
2869.00,0.0169
2868.00,0.0168
2867.00,0.0167
2866.00,0.0166
2865.00,0.0165
2864.00,0.0165
2863.00,0.0164
2862.00,0.0164
2861.00,0.0165
2860.00,0.0165
2859.00,0.0165
2858.00,0.0165
2857.00,0.0164
2856.00,0.0162
2855.00,0.0160
2854.00,0.0157
2853.00,0.0153
2852.00,0.0149
2851.00,0.0144
2850.00,0.0140
2849.00,0.0136
2848.00,0.0132
2847.00,0.0128
2846.00,0.0125
2845.00,0.0122
2844.00,0.0119
2843.00,0.0117
2842.00,0.0114
2841.00,0.0111
2840.00,0.0109
2839.00,0.0107
2838.00,0.0105
2837.00,0.0103
2836.00,0.0101
2835.00,0.0099
2834.00,0.0098
2833.00,0.0096
2832.00,0.0094
2831.00,0.0093
2830.00,0.0091
2829.00,0.0089
2828.00,0.0087
2827.00,0.0086
2826.00,0.0084
2825.00,0.0083
2824.00,0.0081
2823.00,0.0080
2822.00,0.0079
2821.00,0.0078
2820.00,0.0077
2819.00,0.0076
2818.00,0.0075
2817.00,0.0074
2816.00,0.0073
2815.00,0.0072
2814.00,0.0071
2813.00,0.0071
2812.00,0.0070
2811.00,0.0069
2810.00,0.0069
2809.00,0.0068
2808.00,0.0068
2807.00,0.0068
2806.00,0.0067
2805.00,0.0067
2804.00,0.0067
2803.00,0.0066
2802.00,0.0066
2801.00,0.0065
2800.00,0.0065
2799.00,0.0065
2798.00,0.0064
2797.00,0.0064
2796.00,0.0063
2795.00,0.0063
2794.00,0.0063
2793.00,0.0063
2792.00,0.0062
2791.00,0.0062
2790.00,0.0062
2789.00,0.0062
2788.00,0.0062
2787.00,0.0061
2786.00,0.0061
2785.00,0.0061
2784.00,0.0061
2783.00,0.0060
2782.00,0.0060
2781.00,0.0060
2780.00,0.0060
2779.00,0.0060
2778.00,0.0060
2777.00,0.0059
2776.00,0.0059
2775.00,0.0059
2774.00,0.0059
2773.00,0.0058
2772.00,0.0058
2771.00,0.0058
2770.00,0.0058
2769.00,0.0058
2768.00,0.0058
2767.00,0.0058
2766.00,0.0057
2765.00,0.0057
2764.00,0.0057
2763.00,0.0057
2762.00,0.0057
2761.00,0.0057
2760.00,0.0057
2759.00,0.0057
2758.00,0.0057
2757.00,0.0057
2756.00,0.0057
2755.00,0.0057
2754.00,0.0057
2753.00,0.0057
2752.00,0.0057
2751.00,0.0057
2750.00,0.0057
2749.00,0.0057
2748.00,0.0056
2747.00,0.0056
2746.00,0.0056
2745.00,0.0056
2744.00,0.0056
2743.00,0.0056
2742.00,0.0056
2741.00,0.0056
2740.00,0.0056
2739.00,0.0056
2738.00,0.0056
2737.00,0.0056
2736.00,0.0056
2735.00,0.0056
2734.00,0.0056
2733.00,0.0057
2732.00,0.0057
2731.00,0.0057
2730.00,0.0057
2729.00,0.0057
2728.00,0.0057
2727.00,0.0056
2726.00,0.0056
2725.00,0.0056
2724.00,0.0056
2723.00,0.0056
2722.00,0.0056
2721.00,0.0056
2720.00,0.0055
2719.00,0.0055
2718.00,0.0055
2717.00,0.0055
2716.00,0.0055
2715.00,0.0055
2714.00,0.0055
2713.00,0.0055
2712.00,0.0055
2711.00,0.0055
2710.00,0.0055
2709.00,0.0055
2708.00,0.0054
2707.00,0.0054
2706.00,0.0054
2705.00,0.0054
2704.00,0.0054
2703.00,0.0054
2702.00,0.0054
2701.00,0.0054
2700.00,0.0054
2699.00,0.0054
2698.00,0.0054
2697.00,0.0053
2696.00,0.0053
2695.00,0.0053
2694.00,0.0053
2693.00,0.0053
2692.00,0.0053
2691.00,0.0053
2690.00,0.0053
2689.00,0.0053
2688.00,0.0053
2687.00,0.0053
2686.00,0.0053
2685.00,0.0053
2684.00,0.0052
2683.00,0.0052
2682.00,0.0052
2681.00,0.0052
2680.00,0.0052
2679.00,0.0052
2678.00,0.0052
2677.00,0.0052
2676.00,0.0052
2675.00,0.0052
2674.00,0.0052
2673.00,0.0052
2672.00,0.0052
2671.00,0.0052
2670.00,0.0052
2669.00,0.0052
2668.00,0.0052
2667.00,0.0053
2666.00,0.0053
2665.00,0.0054
2664.00,0.0054
2663.00,0.0055
2662.00,0.0055
2661.00,0.0056
2660.00,0.0056
2659.00,0.0056
2658.00,0.0057
2657.00,0.0057
2656.00,0.0057
2655.00,0.0057
2654.00,0.0057
2653.00,0.0057
2652.00,0.0057
2651.00,0.0057
2650.00,0.0057
2649.00,0.0058
2648.00,0.0058
2647.00,0.0057
2646.00,0.0057
2645.00,0.0057
2644.00,0.0057
2643.00,0.0057
2642.00,0.0057
2641.00,0.0057
2640.00,0.0057
2639.00,0.0057
2638.00,0.0057
2637.00,0.0056
2636.00,0.0056
2635.00,0.0056
2634.00,0.0056
2633.00,0.0056
2632.00,0.0055
2631.00,0.0055
2630.00,0.0055
2629.00,0.0055
2628.00,0.0055
2627.00,0.0055
2626.00,0.0055
2625.00,0.0055
2624.00,0.0055
2623.00,0.0055
2622.00,0.0054
2621.00,0.0054
2620.00,0.0054
2619.00,0.0054
2618.00,0.0054
2617.00,0.0054
2616.00,0.0054
2615.00,0.0054
2614.00,0.0054
2613.00,0.0053
2612.00,0.0053
2611.00,0.0053
2610.00,0.0053
2609.00,0.0053
2608.00,0.0053
2607.00,0.0053
2606.00,0.0052
2605.00,0.0052
2604.00,0.0052
2603.00,0.0052
2602.00,0.0052
2601.00,0.0053
2600.00,0.0053
2599.00,0.0053
2598.00,0.0053
2597.00,0.0053
2596.00,0.0053
2595.00,0.0053
2594.00,0.0053
2593.00,0.0053
2592.00,0.0053
2591.00,0.0053
2590.00,0.0053
2589.00,0.0053
2588.00,0.0053
2587.00,0.0053
2586.00,0.0053
2585.00,0.0053
2584.00,0.0052
2583.00,0.0053
2582.00,0.0053
2581.00,0.0053
2580.00,0.0053
2579.00,0.0053
2578.00,0.0053
2577.00,0.0053
2576.00,0.0052
2575.00,0.0052
2574.00,0.0052
2573.00,0.0052
2572.00,0.0053
2571.00,0.0053
2570.00,0.0053
2569.00,0.0052
2568.00,0.0052
2567.00,0.0052
2566.00,0.0052
2565.00,0.0052
2564.00,0.0052
2563.00,0.0053
2562.00,0.0052
2561.00,0.0052
2560.00,0.0052
2559.00,0.0051
2558.00,0.0051
2557.00,0.0051
2556.00,0.0050
2555.00,0.0050
2554.00,0.0050
2553.00,0.0050
2552.00,0.0050
2551.00,0.0051
2550.00,0.0050
2549.00,0.0050
2548.00,0.0050
2547.00,0.0050
2546.00,0.0050
2545.00,0.0050
2544.00,0.0050
2543.00,0.0050
2542.00,0.0050
2541.00,0.0050
2540.00,0.0050
2539.00,0.0050
2538.00,0.0050
2537.00,0.0050
2536.00,0.0050
2535.00,0.0049
2534.00,0.0049
2533.00,0.0049
2532.00,0.0049
2531.00,0.0049
2530.00,0.0049
2529.00,0.0049
2528.00,0.0049
2527.00,0.0049
2526.00,0.0048
2525.00,0.0048
2524.00,0.0048
2523.00,0.0048
2522.00,0.0047
2521.00,0.0047
2520.00,0.0048
2519.00,0.0047
2518.00,0.0047
2517.00,0.0047
2516.00,0.0047
2515.00,0.0047
2514.00,0.0047
2513.00,0.0047
2512.00,0.0047
2511.00,0.0047
2510.00,0.0047
2509.00,0.0047
2508.00,0.0047
2507.00,0.0047
2506.00,0.0047
2505.00,0.0048
2504.00,0.0048
2503.00,0.0048
2502.00,0.0047
2501.00,0.0047
2500.00,0.0047
2499.00,0.0047
2498.00,0.0047
2497.00,0.0047
2496.00,0.0047
2495.00,0.0047
2494.00,0.0047
2493.00,0.0047
2492.00,0.0047
2491.00,0.0047
2490.00,0.0047
2489.00,0.0046
2488.00,0.0046
2487.00,0.0046
2486.00,0.0046
2485.00,0.0046
2484.00,0.0046
2483.00,0.0046
2482.00,0.0046
2481.00,0.0046
2480.00,0.0046
2479.00,0.0046
2478.00,0.0046
2477.00,0.0046
2476.00,0.0046
2475.00,0.0046
2474.00,0.0046
2473.00,0.0046
2472.00,0.0046
2471.00,0.0046
2470.00,0.0046
2469.00,0.0046
2468.00,0.0047
2467.00,0.0047
2466.00,0.0047
2465.00,0.0047
2464.00,0.0047
2463.00,0.0047
2462.00,0.0046
2461.00,0.0046
2460.00,0.0047
2459.00,0.0048
2458.00,0.0048
2457.00,0.0049
2456.00,0.0049
2455.00,0.0049
2454.00,0.0048
2453.00,0.0048
2452.00,0.0047
2451.00,0.0047
2450.00,0.0047
2449.00,0.0048
2448.00,0.0048
2447.00,0.0048
2446.00,0.0048
2445.00,0.0048
2444.00,0.0048
2443.00,0.0048
2442.00,0.0048
2441.00,0.0047
2440.00,0.0047
2439.00,0.0047
2438.00,0.0047
2437.00,0.0047
2436.00,0.0047
2435.00,0.0047
2434.00,0.0046
2433.00,0.0046
2432.00,0.0046
2431.00,0.0045
2430.00,0.0045
2429.00,0.0045
2428.00,0.0046
2427.00,0.0046
2426.00,0.0046
2425.00,0.0047
2424.00,0.0047
2423.00,0.0046
2422.00,0.0046
2421.00,0.0046
2420.00,0.0046
2419.00,0.0046
2418.00,0.0046
2417.00,0.0046
2416.00,0.0046
2415.00,0.0046
2414.00,0.0046
2413.00,0.0046
2412.00,0.0046
2411.00,0.0046
2410.00,0.0046
2409.00,0.0045
2408.00,0.0045
2407.00,0.0045
2406.00,0.0045
2405.00,0.0045
2404.00,0.0045
2403.00,0.0045
2402.00,0.0045
2401.00,0.0045
2400.00,0.0045
2399.00,0.0045
2398.00,0.0045
2397.00,0.0045
2396.00,0.0045
2395.00,0.0046
2394.00,0.0046
2393.00,0.0045
2392.00,0.0045
2391.00,0.0045
2390.00,0.0044
2389.00,0.0044
2388.00,0.0044
2387.00,0.0044
2386.00,0.0043
2385.00,0.0043
2384.00,0.0043
2383.00,0.0042
2382.00,0.0042
2381.00,0.0042
2380.00,0.0042
2379.00,0.0042
2378.00,0.0043
2377.00,0.0043
2376.00,0.0043
2375.00,0.0043
2374.00,0.0043
2373.00,0.0043
2372.00,0.0043
2371.00,0.0043
2370.00,0.0043
2369.00,0.0043
2368.00,0.0043
2367.00,0.0043
2366.00,0.0043
2365.00,0.0043
2364.00,0.0043
2363.00,0.0044
2362.00,0.0044
2361.00,0.0045
2360.00,0.0045
2359.00,0.0045
2358.00,0.0046
2357.00,0.0046
2356.00,0.0046
2355.00,0.0046
2354.00,0.0045
2353.00,0.0045
2352.00,0.0044
2351.00,0.0045
2350.00,0.0046
2349.00,0.0047
2348.00,0.0047
2347.00,0.0048
2346.00,0.0048
2345.00,0.0048
2344.00,0.0048
2343.00,0.0048
2342.00,0.0049
2341.00,0.0049
2340.00,0.0050
2339.00,0.0050
2338.00,0.0050
2337.00,0.0050
2336.00,0.0050
2335.00,0.0050
2334.00,0.0050
2333.00,0.0049
2332.00,0.0048
2331.00,0.0048
2330.00,0.0049
2329.00,0.0051
2328.00,0.0055
2327.00,0.0060
2326.00,0.0063
2325.00,0.0064
2324.00,0.0063
2323.00,0.0061
2322.00,0.0059
2321.00,0.0058
2320.00,0.0057
2319.00,0.0056
2318.00,0.0055
2317.00,0.0055
2316.00,0.0055
2315.00,0.0055
2314.00,0.0054
2313.00,0.0054
2312.00,0.0053
2311.00,0.0052
2310.00,0.0052
2309.00,0.0052
2308.00,0.0052
2307.00,0.0052
2306.00,0.0052
2305.00,0.0052
2304.00,0.0052
2303.00,0.0052
2302.00,0.0052
2301.00,0.0052
2300.00,0.0053
2299.00,0.0053
2298.00,0.0053
2297.00,0.0054
2296.00,0.0054
2295.00,0.0055
2294.00,0.0056
2293.00,0.0056
2292.00,0.0057
2291.00,0.0058
2290.00,0.0059
2289.00,0.0059
2288.00,0.0060
2287.00,0.0060
2286.00,0.0059
2285.00,0.0059
2284.00,0.0058
2283.00,0.0057
2282.00,0.0057
2281.00,0.0057
2280.00,0.0056
2279.00,0.0056
2278.00,0.0056
2277.00,0.0055
2276.00,0.0055
2275.00,0.0054
2274.00,0.0054
2273.00,0.0054
2272.00,0.0054
2271.00,0.0054
2270.00,0.0053
2269.00,0.0052
2268.00,0.0051
2267.00,0.0051
2266.00,0.0051
2265.00,0.0050
2264.00,0.0050
2263.00,0.0051
2262.00,0.0052
2261.00,0.0053
2260.00,0.0053
2259.00,0.0053
2258.00,0.0052
2257.00,0.0051
2256.00,0.0049
2255.00,0.0049
2254.00,0.0048
2253.00,0.0049
2252.00,0.0050
2251.00,0.0050
2250.00,0.0051
2249.00,0.0051
2248.00,0.0051
2247.00,0.0052
2246.00,0.0052
2245.00,0.0051
2244.00,0.0051
2243.00,0.0051
2242.00,0.0051
2241.00,0.0050
2240.00,0.0050
2239.00,0.0050
2238.00,0.0049
2237.00,0.0049
2236.00,0.0050
2235.00,0.0051
2234.00,0.0052
2233.00,0.0053
2232.00,0.0053
2231.00,0.0052
2230.00,0.0052
2229.00,0.0051
2228.00,0.0051
2227.00,0.0051
2226.00,0.0051
2225.00,0.0051
2224.00,0.0051
2223.00,0.0051
2222.00,0.0052
2221.00,0.0052
2220.00,0.0052
2219.00,0.0052
2218.00,0.0051
2217.00,0.0051
2216.00,0.0051
2215.00,0.0051
2214.00,0.0051
2213.00,0.0052
2212.00,0.0052
2211.00,0.0051
2210.00,0.0050
2209.00,0.0049
2208.00,0.0049
2207.00,0.0049
2206.00,0.0050
2205.00,0.0051
2204.00,0.0051
2203.00,0.0051
2202.00,0.0052
2201.00,0.0052
2200.00,0.0053
2199.00,0.0054
2198.00,0.0054
2197.00,0.0054
2196.00,0.0054
2195.00,0.0054
2194.00,0.0054
2193.00,0.0053
2192.00,0.0054
2191.00,0.0055
2190.00,0.0055
2189.00,0.0056
2188.00,0.0058
2187.00,0.0058
2186.00,0.0058
2185.00,0.0056
2184.00,0.0054
2183.00,0.0051
2182.00,0.0049
2181.00,0.0048
2180.00,0.0049
2179.00,0.0050
2178.00,0.0049
2177.00,0.0048
2176.00,0.0046
2175.00,0.0045
2174.00,0.0046
2173.00,0.0050
2172.00,0.0054
2171.00,0.0057
2170.00,0.0060
2169.00,0.0061
2168.00,0.0062
2167.00,0.0062
2166.00,0.0063
2165.00,0.0065
2164.00,0.0066
2163.00,0.0066
2162.00,0.0060
2161.00,0.0049
2160.00,0.0035
2159.00,0.0023
2158.00,0.0018
2157.00,0.0018
2156.00,0.0021
2155.00,0.0025
2154.00,0.0029
2153.00,0.0032
2152.00,0.0034
2151.00,0.0034
2150.00,0.0033
2149.00,0.0033
2148.00,0.0033
2147.00,0.0034
2146.00,0.0034
2145.00,0.0035
2144.00,0.0034
2143.00,0.0034
2142.00,0.0034
2141.00,0.0034
2140.00,0.0035
2139.00,0.0035
2138.00,0.0034
2137.00,0.0032
2136.00,0.0030
2135.00,0.0028
2134.00,0.0027
2133.00,0.0029
2132.00,0.0031
2131.00,0.0033
2130.00,0.0035
2129.00,0.0037
2128.00,0.0039
2127.00,0.0041
2126.00,0.0042
2125.00,0.0043
2124.00,0.0044
2123.00,0.0045
2122.00,0.0046
2121.00,0.0046
2120.00,0.0047
2119.00,0.0048
2118.00,0.0049
2117.00,0.0050
2116.00,0.0051
2115.00,0.0052
2114.00,0.0053
2113.00,0.0053
2112.00,0.0052
2111.00,0.0050
2110.00,0.0049
2109.00,0.0049
2108.00,0.0050
2107.00,0.0051
2106.00,0.0051
2105.00,0.0050
2104.00,0.0050
2103.00,0.0049
2102.00,0.0048
2101.00,0.0049
2100.00,0.0050
2099.00,0.0050
2098.00,0.0049
2097.00,0.0048
2096.00,0.0047
2095.00,0.0046
2094.00,0.0045
2093.00,0.0046
2092.00,0.0047
2091.00,0.0047
2090.00,0.0048
2089.00,0.0049
2088.00,0.0049
2087.00,0.0050
2086.00,0.0050
2085.00,0.0050
2084.00,0.0050
2083.00,0.0050
2082.00,0.0050
2081.00,0.0051
2080.00,0.0051
2079.00,0.0051
2078.00,0.0051
2077.00,0.0051
2076.00,0.0051
2075.00,0.0052
2074.00,0.0051
2073.00,0.0051
2072.00,0.0051
2071.00,0.0050
2070.00,0.0049
2069.00,0.0048
2068.00,0.0048
2067.00,0.0048
2066.00,0.0048
2065.00,0.0048
2064.00,0.0048
2063.00,0.0048
2062.00,0.0047
2061.00,0.0047
2060.00,0.0047
2059.00,0.0047
2058.00,0.0046
2057.00,0.0046
2056.00,0.0045
2055.00,0.0045
2054.00,0.0048
2053.00,0.0053
2052.00,0.0057
2051.00,0.0058
2050.00,0.0055
2049.00,0.0051
2048.00,0.0049
2047.00,0.0048
2046.00,0.0047
2045.00,0.0047
2044.00,0.0048
2043.00,0.0048
2042.00,0.0048
2041.00,0.0048
2040.00,0.0047
2039.00,0.0047
2038.00,0.0047
2037.00,0.0046
2036.00,0.0046
2035.00,0.0045
2034.00,0.0044
2033.00,0.0043
2032.00,0.0043
2031.00,0.0043
2030.00,0.0042
2029.00,0.0042
2028.00,0.0041
2027.00,0.0040
2026.00,0.0038
2025.00,0.0038
2024.00,0.0039
2023.00,0.0041
2022.00,0.0041
2021.00,0.0040
2020.00,0.0040
2019.00,0.0040
2018.00,0.0040
2017.00,0.0039
2016.00,0.0038
2015.00,0.0037
2014.00,0.0036
2013.00,0.0035
2012.00,0.0035
2011.00,0.0035
2010.00,0.0033
2009.00,0.0031
2008.00,0.0029
2007.00,0.0028
2006.00,0.0028
2005.00,0.0029
2004.00,0.0032
2003.00,0.0034
2002.00,0.0035
2001.00,0.0035
2000.00,0.0036
1999.00,0.0036
1998.00,0.0036
1997.00,0.0037
1996.00,0.0039
1995.00,0.0041
1994.00,0.0041
1993.00,0.0042
1992.00,0.0042
1991.00,0.0042
1990.00,0.0042
1989.00,0.0042
1988.00,0.0044
1987.00,0.0045
1986.00,0.0046
1985.00,0.0047
1984.00,0.0049
1983.00,0.0051
1982.00,0.0053
1981.00,0.0054
1980.00,0.0052
1979.00,0.0047
1978.00,0.0040
1977.00,0.0035
1976.00,0.0033
1975.00,0.0033
1974.00,0.0033
1973.00,0.0033
1972.00,0.0033
1971.00,0.0033
1970.00,0.0032
1969.00,0.0032
1968.00,0.0033
1967.00,0.0033
1966.00,0.0033
1965.00,0.0032
1964.00,0.0032
1963.00,0.0031
1962.00,0.0029
1961.00,0.0027
1960.00,0.0026
1959.00,0.0026
1958.00,0.0027
1957.00,0.0029
1956.00,0.0031
1955.00,0.0032
1954.00,0.0032
1953.00,0.0032
1952.00,0.0033
1951.00,0.0034
1950.00,0.0033
1949.00,0.0033
1948.00,0.0033
1947.00,0.0033
1946.00,0.0032
1945.00,0.0032
1944.00,0.0032
1943.00,0.0033
1942.00,0.0033
1941.00,0.0033
1940.00,0.0033
1939.00,0.0033
1938.00,0.0033
1937.00,0.0033
1936.00,0.0033
1935.00,0.0034
1934.00,0.0033
1933.00,0.0032
1932.00,0.0032
1931.00,0.0033
1930.00,0.0033
1929.00,0.0033
1928.00,0.0034
1927.00,0.0035
1926.00,0.0034
1925.00,0.0034
1924.00,0.0035
1923.00,0.0035
1922.00,0.0036
1921.00,0.0036
1920.00,0.0036
1919.00,0.0036
1918.00,0.0036
1917.00,0.0037
1916.00,0.0038
1915.00,0.0038
1914.00,0.0038
1913.00,0.0037
1912.00,0.0037
1911.00,0.0037
1910.00,0.0038
1909.00,0.0038
1908.00,0.0039
1907.00,0.0038
1906.00,0.0038
1905.00,0.0038
1904.00,0.0039
1903.00,0.0039
1902.00,0.0038
1901.00,0.0038
1900.00,0.0037
1899.00,0.0037
1898.00,0.0037
1897.00,0.0037
1896.00,0.0037
1895.00,0.0038
1894.00,0.0038
1893.00,0.0037
1892.00,0.0037
1891.00,0.0038
1890.00,0.0037
1889.00,0.0037
1888.00,0.0036
1887.00,0.0036
1886.00,0.0035
1885.00,0.0035
1884.00,0.0036
1883.00,0.0036
1882.00,0.0037
1881.00,0.0037
1880.00,0.0037
1879.00,0.0037
1878.00,0.0037
1877.00,0.0037
1876.00,0.0037
1875.00,0.0036
1874.00,0.0036
1873.00,0.0036
1872.00,0.0036
1871.00,0.0037
1870.00,0.0038
1869.00,0.0038
1868.00,0.0039
1867.00,0.0039
1866.00,0.0038
1865.00,0.0037
1864.00,0.0037
1863.00,0.0037
1862.00,0.0037
1861.00,0.0038
1860.00,0.0038
1859.00,0.0038
1858.00,0.0038
1857.00,0.0037
1856.00,0.0037
1855.00,0.0037
1854.00,0.0037
1853.00,0.0037
1852.00,0.0037
1851.00,0.0038
1850.00,0.0038
1849.00,0.0038
1848.00,0.0038
1847.00,0.0038
1846.00,0.0037
1845.00,0.0037
1844.00,0.0038
1843.00,0.0038
1842.00,0.0038
1841.00,0.0038
1840.00,0.0038
1839.00,0.0038
1838.00,0.0038
1837.00,0.0038
1836.00,0.0038
1835.00,0.0038
1834.00,0.0038
1833.00,0.0038
1832.00,0.0038
1831.00,0.0038
1830.00,0.0038
1829.00,0.0038
1828.00,0.0038
1827.00,0.0038
1826.00,0.0038
1825.00,0.0038
1824.00,0.0038
1823.00,0.0038
1822.00,0.0038
1821.00,0.0037
1820.00,0.0036
1819.00,0.0035
1818.00,0.0034
1817.00,0.0034
1816.00,0.0034
1815.00,0.0035
1814.00,0.0036
1813.00,0.0037
1812.00,0.0038
1811.00,0.0038
1810.00,0.0038
1809.00,0.0038
1808.00,0.0038
1807.00,0.0038
1806.00,0.0038
1805.00,0.0038
1804.00,0.0038
1803.00,0.0038
1802.00,0.0038
1801.00,0.0038
1800.00,0.0039
1799.00,0.0039
1798.00,0.0040
1797.00,0.0040
1796.00,0.0040
1795.00,0.0039
1794.00,0.0038
1793.00,0.0038
1792.00,0.0038
1791.00,0.0039
1790.00,0.0039
1789.00,0.0039
1788.00,0.0039
1787.00,0.0039
1786.00,0.0039
1785.00,0.0039
1784.00,0.0039
1783.00,0.0040
1782.00,0.0040
1781.00,0.0041
1780.00,0.0041
1779.00,0.0041
1778.00,0.0041
1777.00,0.0041
1776.00,0.0041
1775.00,0.0041
1774.00,0.0041
1773.00,0.0041
1772.00,0.0041
1771.00,0.0042
1770.00,0.0042
1769.00,0.0042
1768.00,0.0043
1767.00,0.0043
1766.00,0.0043
1765.00,0.0043
1764.00,0.0043
1763.00,0.0043
1762.00,0.0043
1761.00,0.0044
1760.00,0.0044
1759.00,0.0045
1758.00,0.0045
1757.00,0.0045
1756.00,0.0045
1755.00,0.0046
1754.00,0.0046
1753.00,0.0046
1752.00,0.0047
1751.00,0.0048
1750.00,0.0049
1749.00,0.0050
1748.00,0.0051
1747.00,0.0051
1746.00,0.0052
1745.00,0.0052
1744.00,0.0052
1743.00,0.0052
1742.00,0.0052
1741.00,0.0051
1740.00,0.0052
1739.00,0.0053
1738.00,0.0053
1737.00,0.0053
1736.00,0.0053
1735.00,0.0054
1734.00,0.0056
1733.00,0.0057
1732.00,0.0060
1731.00,0.0061
1730.00,0.0062
1729.00,0.0063
1728.00,0.0064
1727.00,0.0065
1726.00,0.0066
1725.00,0.0068
1724.00,0.0070
1723.00,0.0072
1722.00,0.0074
1721.00,0.0075
1720.00,0.0076
1719.00,0.0080
1718.00,0.0083
1717.00,0.0087
1716.00,0.0090
1715.00,0.0094
1714.00,0.0097
1713.00,0.0101
1712.00,0.0106
1711.00,0.0112
1710.00,0.0118
1709.00,0.0124
1708.00,0.0132
1707.00,0.0140
1706.00,0.0150
1705.00,0.0160
1704.00,0.0171
1703.00,0.0180
1702.00,0.0190
1701.00,0.0204
1700.00,0.0225
1699.00,0.0247
1698.00,0.0267
1697.00,0.0287
1696.00,0.0309
1695.00,0.0334
1694.00,0.0359
1693.00,0.0384
1692.00,0.0410
1691.00,0.0437
1690.00,0.0466
1689.00,0.0495
1688.00,0.0524
1687.00,0.0552
1686.00,0.0580
1685.00,0.0610
1684.00,0.0642
1683.00,0.0672
1682.00,0.0701
1681.00,0.0730
1680.00,0.0759
1679.00,0.0787
1678.00,0.0814
1677.00,0.0839
1676.00,0.0864
1675.00,0.0888
1674.00,0.0911
1673.00,0.0936
1672.00,0.0961
1671.00,0.0983
1670.00,0.1000
1669.00,0.1016
1668.00,0.1034
1667.00,0.1054
1666.00,0.1075
1665.00,0.1096
1664.00,0.1115
1663.00,0.1129
1662.00,0.1142
1661.00,0.1155
1660.00,0.1172
1659.00,0.1189
1658.00,0.1205
1657.00,0.1223
1656.00,0.1241
1655.00,0.1256
1654.00,0.1254
1653.00,0.1234
1652.00,0.1219
1651.00,0.1225
1650.00,0.1238
1649.00,0.1248
1648.00,0.1246
1647.00,0.1229
1646.00,0.1203
1645.00,0.1181
1644.00,0.1167
1643.00,0.1155
1642.00,0.1140
1641.00,0.1120
1640.00,0.1099
1639.00,0.1079
1638.00,0.1057
1637.00,0.1026
1636.00,0.0983
1635.00,0.0937
1634.00,0.0901
1633.00,0.0877
1632.00,0.0859
1631.00,0.0839
1630.00,0.0818
1629.00,0.0795
1628.00,0.0772
1627.00,0.0752
1626.00,0.0735
1625.00,0.0718
1624.00,0.0699
1623.00,0.0677
1622.00,0.0656
1621.00,0.0638
1620.00,0.0624
1619.00,0.0608
1618.00,0.0588
1617.00,0.0561
1616.00,0.0534
1615.00,0.0512
1614.00,0.0497
1613.00,0.0486
1612.00,0.0474
1611.00,0.0462
1610.00,0.0449
1609.00,0.0435
1608.00,0.0420
1607.00,0.0405
1606.00,0.0390
1605.00,0.0376
1604.00,0.0362
1603.00,0.0348
1602.00,0.0335
1601.00,0.0324
1600.00,0.0313
1599.00,0.0303
1598.00,0.0294
1597.00,0.0287
1596.00,0.0280
1595.00,0.0273
1594.00,0.0268
1593.00,0.0263
1592.00,0.0260
1591.00,0.0257
1590.00,0.0256
1589.00,0.0256
1588.00,0.0255
1587.00,0.0255
1586.00,0.0254
1585.00,0.0252
1584.00,0.0249
1583.00,0.0246
1582.00,0.0242
1581.00,0.0237
1580.00,0.0232
1579.00,0.0228
1578.00,0.0223
1577.00,0.0216
1576.00,0.0208
1575.00,0.0201
1574.00,0.0195
1573.00,0.0192
1572.00,0.0189
1571.00,0.0185
1570.00,0.0182
1569.00,0.0178
1568.00,0.0175
1567.00,0.0173
1566.00,0.0170
1565.00,0.0167
1564.00,0.0164
1563.00,0.0160
1562.00,0.0156
1561.00,0.0152
1560.00,0.0148
1559.00,0.0144
1558.00,0.0140
1557.00,0.0139
1556.00,0.0139
1555.00,0.0139
1554.00,0.0138
1553.00,0.0137
1552.00,0.0136
1551.00,0.0136
1550.00,0.0135
1549.00,0.0133
1548.00,0.0132
1547.00,0.0130
1546.00,0.0129
1545.00,0.0128
1544.00,0.0127
1543.00,0.0125
1542.00,0.0123
1541.00,0.0123
1540.00,0.0122
1539.00,0.0121
1538.00,0.0120
1537.00,0.0120
1536.00,0.0120
1535.00,0.0119
1534.00,0.0119
1533.00,0.0119
1532.00,0.0118
1531.00,0.0118
1530.00,0.0118
1529.00,0.0118
1528.00,0.0118
1527.00,0.0118
1526.00,0.0118
1525.00,0.0117
1524.00,0.0117
1523.00,0.0117
1522.00,0.0118
1521.00,0.0118
1520.00,0.0118
1519.00,0.0119
1518.00,0.0120
1517.00,0.0122
1516.00,0.0124
1515.00,0.0125
1514.00,0.0127
1513.00,0.0129
1512.00,0.0133
1511.00,0.0137
1510.00,0.0141
1509.00,0.0146
1508.00,0.0152
1507.00,0.0158
1506.00,0.0164
1505.00,0.0173
1504.00,0.0184
1503.00,0.0196
1502.00,0.0209
1501.00,0.0223
1500.00,0.0238
1499.00,0.0255
1498.00,0.0272
1497.00,0.0288
1496.00,0.0301
1495.00,0.0309
1494.00,0.0314
1493.00,0.0315
1492.00,0.0312
1491.00,0.0305
1490.00,0.0294
1489.00,0.0280
1488.00,0.0265
1487.00,0.0250
1486.00,0.0235
1485.00,0.0223
1484.00,0.0212
1483.00,0.0202
1482.00,0.0194
1481.00,0.0187
1480.00,0.0183
1479.00,0.0180
1478.00,0.0180
1477.00,0.0183
1476.00,0.0188
1475.00,0.0196
1474.00,0.0206
1473.00,0.0221
1472.00,0.0241
1471.00,0.0265
1470.00,0.0291
1469.00,0.0320
1468.00,0.0351
1467.00,0.0383
1466.00,0.0417
1465.00,0.0451
1464.00,0.0480
1463.00,0.0503
1462.00,0.0520
1461.00,0.0531
1460.00,0.0535
1459.00,0.0531
1458.00,0.0514
1457.00,0.0485
1456.00,0.0454
1455.00,0.0431
1454.00,0.0416
1453.00,0.0404
1452.00,0.0396
1451.00,0.0391
1450.00,0.0392
1449.00,0.0398
1448.00,0.0410
1447.00,0.0425
1446.00,0.0444
1445.00,0.0467
1444.00,0.0492
1443.00,0.0519
1442.00,0.0545
1441.00,0.0571
1440.00,0.0595
1439.00,0.0615
1438.00,0.0633
1437.00,0.0647
1436.00,0.0657
1435.00,0.0666
1434.00,0.0674
1433.00,0.0682
1432.00,0.0689
1431.00,0.0695
1430.00,0.0703
1429.00,0.0715
1428.00,0.0732
1427.00,0.0752
1426.00,0.0775
1425.00,0.0798
1424.00,0.0819
1423.00,0.0834
1422.00,0.0844
1421.00,0.0845
1420.00,0.0833
1419.00,0.0804
1418.00,0.0766
1417.00,0.0726
1416.00,0.0686
1415.00,0.0643
1414.00,0.0600
1413.00,0.0557
1412.00,0.0516
1411.00,0.0479
1410.00,0.0446
1409.00,0.0418
1408.00,0.0395
1407.00,0.0376
1406.00,0.0360
1405.00,0.0346
1404.00,0.0334
1403.00,0.0324
1402.00,0.0316
1401.00,0.0310
1400.00,0.0303
1399.00,0.0296
1398.00,0.0288
1397.00,0.0282
1396.00,0.0275
1395.00,0.0267
1394.00,0.0260
1393.00,0.0255
1392.00,0.0253
1391.00,0.0252
1390.00,0.0253
1389.00,0.0257
1388.00,0.0262
1387.00,0.0268
1386.00,0.0273
1385.00,0.0278
1384.00,0.0283
1383.00,0.0288
1382.00,0.0295
1381.00,0.0303
1380.00,0.0311
1379.00,0.0318
1378.00,0.0325
1377.00,0.0331
1376.00,0.0335
1375.00,0.0338
1374.00,0.0338
1373.00,0.0337
1372.00,0.0335
1371.00,0.0333
1370.00,0.0331
1369.00,0.0329
1368.00,0.0326
1367.00,0.0322
1366.00,0.0319
1365.00,0.0314
1364.00,0.0308
1363.00,0.0300
1362.00,0.0292
1361.00,0.0285
1360.00,0.0279
1359.00,0.0272
1358.00,0.0264
1357.00,0.0256
1356.00,0.0247
1355.00,0.0240
1354.00,0.0234
1353.00,0.0229
1352.00,0.0225
1351.00,0.0221
1350.00,0.0219
1349.00,0.0217
1348.00,0.0215
1347.00,0.0213
1346.00,0.0211
1345.00,0.0210
1344.00,0.0208
1343.00,0.0206
1342.00,0.0205
1341.00,0.0205
1340.00,0.0204
1339.00,0.0203
1338.00,0.0203
1337.00,0.0203
1336.00,0.0204
1335.00,0.0206
1334.00,0.0210
1333.00,0.0215
1332.00,0.0221
1331.00,0.0227
1330.00,0.0234
1329.00,0.0243
1328.00,0.0252
1327.00,0.0261
1326.00,0.0271
1325.00,0.0282
1324.00,0.0294
1323.00,0.0306
1322.00,0.0317
1321.00,0.0328
1320.00,0.0338
1319.00,0.0346
1318.00,0.0352
1317.00,0.0355
1316.00,0.0356
1315.00,0.0354
1314.00,0.0351
1313.00,0.0345
1312.00,0.0339
1311.00,0.0333
1310.00,0.0328
1309.00,0.0324
1308.00,0.0323
1307.00,0.0323
1306.00,0.0326
1305.00,0.0332
1304.00,0.0342
1303.00,0.0355
1302.00,0.0371
1301.00,0.0391
1300.00,0.0414
1299.00,0.0441
1298.00,0.0473
1297.00,0.0509
1296.00,0.0551
1295.00,0.0595
1294.00,0.0642
1293.00,0.0690
1292.00,0.0735
1291.00,0.0778
1290.00,0.0817
1289.00,0.0850
1288.00,0.0878
1287.00,0.0898
1286.00,0.0910
1285.00,0.0916
1284.00,0.0914
1283.00,0.0906
1282.00,0.0894
1281.00,0.0879
1280.00,0.0865
1279.00,0.0854
1278.00,0.0846
1277.00,0.0843
1276.00,0.0844
1275.00,0.0848
1274.00,0.0854
1273.00,0.0858
1272.00,0.0861
1271.00,0.0860
1270.00,0.0855
1269.00,0.0845
1268.00,0.0831
1267.00,0.0812
1266.00,0.0789
1265.00,0.0764
1264.00,0.0737
1263.00,0.0708
1262.00,0.0680
1261.00,0.0652
1260.00,0.0626
1259.00,0.0601
1258.00,0.0577
1257.00,0.0556
1256.00,0.0536
1255.00,0.0518
1254.00,0.0501
1253.00,0.0487
1252.00,0.0474
1251.00,0.0463
1250.00,0.0454
1249.00,0.0447
1248.00,0.0441
1247.00,0.0437
1246.00,0.0434
1245.00,0.0432
1244.00,0.0431
1243.00,0.0431
1242.00,0.0432
1241.00,0.0433
1240.00,0.0436
1239.00,0.0440
1238.00,0.0445
1237.00,0.0452
1236.00,0.0459
1235.00,0.0466
1234.00,0.0472
1233.00,0.0478
1232.00,0.0481
1231.00,0.0483
1230.00,0.0483
1229.00,0.0481
1228.00,0.0479
1227.00,0.0476
1226.00,0.0472
1225.00,0.0468
1224.00,0.0465
1223.00,0.0461
1222.00,0.0458
1221.00,0.0456
1220.00,0.0454
1219.00,0.0451
1218.00,0.0449
1217.00,0.0447
1216.00,0.0444
1215.00,0.0440
1214.00,0.0435
1213.00,0.0429
1212.00,0.0422
1211.00,0.0413
1210.00,0.0404
1209.00,0.0395
1208.00,0.0387
1207.00,0.0379
1206.00,0.0372
1205.00,0.0367
1204.00,0.0362
1203.00,0.0359
1202.00,0.0357
1201.00,0.0356
1200.00,0.0355
1199.00,0.0354
1198.00,0.0354
1197.00,0.0355
1196.00,0.0355
1195.00,0.0354
1194.00,0.0352
1193.00,0.0349
1192.00,0.0344
1191.00,0.0338
1190.00,0.0332
1189.00,0.0326
1188.00,0.0321
1187.00,0.0316
1186.00,0.0311
1185.00,0.0308
1184.00,0.0305
1183.00,0.0303
1182.00,0.0302
1181.00,0.0302
1180.00,0.0303
1179.00,0.0304
1178.00,0.0307
1177.00,0.0310
1176.00,0.0313
1175.00,0.0316
1174.00,0.0320
1173.00,0.0324
1172.00,0.0328
1171.00,0.0331
1170.00,0.0334
1169.00,0.0335
1168.00,0.0335
1167.00,0.0334
1166.00,0.0332
1165.00,0.0329
1164.00,0.0326
1163.00,0.0322
1162.00,0.0319
1161.00,0.0316
1160.00,0.0314
1159.00,0.0313
1158.00,0.0313
1157.00,0.0315
1156.00,0.0316
1155.00,0.0316
1154.00,0.0313
1153.00,0.0307
1152.00,0.0297
1151.00,0.0286
1150.00,0.0275
1149.00,0.0265
1148.00,0.0257
1147.00,0.0250
1146.00,0.0244
1145.00,0.0239
1144.00,0.0235
1143.00,0.0231
1142.00,0.0227
1141.00,0.0224
1140.00,0.0221
1139.00,0.0219
1138.00,0.0218
1137.00,0.0218
1136.00,0.0219
1135.00,0.0221
1134.00,0.0225
1133.00,0.0232
1132.00,0.0241
1131.00,0.0250
1130.00,0.0259
1129.00,0.0265
1128.00,0.0268
1127.00,0.0268
1126.00,0.0266
1125.00,0.0263
1124.00,0.0258
1123.00,0.0252
1122.00,0.0247
1121.00,0.0242
1120.00,0.0238
1119.00,0.0236
1118.00,0.0234
1117.00,0.0233
1116.00,0.0232
1115.00,0.0232
1114.00,0.0232
1113.00,0.0233
1112.00,0.0233
1111.00,0.0232
1110.00,0.0232
1109.00,0.0231
1108.00,0.0231
1107.00,0.0231
1106.00,0.0232
1105.00,0.0234
1104.00,0.0237
1103.00,0.0241
1102.00,0.0245
1101.00,0.0249
1100.00,0.0253
1099.00,0.0254
1098.00,0.0254
1097.00,0.0251
1096.00,0.0247
1095.00,0.0243
1094.00,0.0238
1093.00,0.0235
1092.00,0.0232
1091.00,0.0231
1090.00,0.0230
1089.00,0.0229
1088.00,0.0229
1087.00,0.0229
1086.00,0.0229
1085.00,0.0229
1084.00,0.0230
1083.00,0.0231
1082.00,0.0233
1081.00,0.0235
1080.00,0.0238
1079.00,0.0240
1078.00,0.0243
1077.00,0.0246
1076.00,0.0248
1075.00,0.0250
1074.00,0.0252
1073.00,0.0252
1072.00,0.0253
1071.00,0.0253
1070.00,0.0253
1069.00,0.0253
1068.00,0.0253
1067.00,0.0252
1066.00,0.0252
1065.00,0.0252
1064.00,0.0253
1063.00,0.0255
1062.00,0.0257
1061.00,0.0261
1060.00,0.0266
1059.00,0.0272
1058.00,0.0279
1057.00,0.0287
1056.00,0.0295
1055.00,0.0302
1054.00,0.0306
1053.00,0.0309
1052.00,0.0310
1051.00,0.0309
1050.00,0.0308
1049.00,0.0306
1048.00,0.0303
1047.00,0.0297
1046.00,0.0291
1045.00,0.0283
1044.00,0.0276
1043.00,0.0268
1042.00,0.0260
1041.00,0.0254
1040.00,0.0249
1039.00,0.0245
1038.00,0.0244
1037.00,0.0244
1036.00,0.0245
1035.00,0.0247
1034.00,0.0249
1033.00,0.0251
1032.00,0.0255
1031.00,0.0261
1030.00,0.0270
1029.00,0.0280
1028.00,0.0291
1027.00,0.0299
1026.00,0.0304
1025.00,0.0305
1024.00,0.0303
1023.00,0.0299
1022.00,0.0295
1021.00,0.0291
1020.00,0.0288
1019.00,0.0285
1018.00,0.0282
1017.00,0.0279
1016.00,0.0273
1015.00,0.0267
1014.00,0.0261
1013.00,0.0254
1012.00,0.0247
1011.00,0.0242
1010.00,0.0238
1009.00,0.0237
1008.00,0.0238
1007.00,0.0241
1006.00,0.0246
1005.00,0.0252
1004.00,0.0258
1003.00,0.0262
1002.00,0.0264
1001.00,0.0264
1000.00,0.0261
999.00,0.0258
998.00,0.0255
997.00,0.0251
996.00,0.0246
995.00,0.0242
994.00,0.0237
993.00,0.0233
992.00,0.0228
991.00,0.0223
990.00,0.0218
989.00,0.0214
988.00,0.0210
987.00,0.0207
986.00,0.0205
985.00,0.0202
984.00,0.0200
983.00,0.0198
982.00,0.0196
981.00,0.0193
980.00,0.0191
979.00,0.0190
978.00,0.0188
977.00,0.0187
976.00,0.0185
975.00,0.0184
974.00,0.0182
973.00,0.0181
972.00,0.0179
971.00,0.0177
970.00,0.0176
969.00,0.0175
968.00,0.0174
967.00,0.0173
966.00,0.0172
965.00,0.0172
964.00,0.0171
963.00,0.0171
962.00,0.0170
961.00,0.0169
960.00,0.0167
959.00,0.0165
958.00,0.0163
957.00,0.0162
956.00,0.0160
955.00,0.0159
954.00,0.0158
953.00,0.0158
952.00,0.0157
951.00,0.0157
950.00,0.0157
949.00,0.0157
948.00,0.0158
947.00,0.0158
946.00,0.0159
945.00,0.0160
944.00,0.0162
943.00,0.0165
942.00,0.0168
941.00,0.0172
940.00,0.0176
939.00,0.0182
938.00,0.0188
937.00,0.0194
936.00,0.0200
935.00,0.0205
934.00,0.0208
933.00,0.0209
932.00,0.0208
931.00,0.0205
930.00,0.0202
929.00,0.0198
928.00,0.0194
927.00,0.0192
926.00,0.0191
925.00,0.0189
924.00,0.0189
923.00,0.0188
922.00,0.0187
921.00,0.0186
920.00,0.0184
919.00,0.0181
918.00,0.0179
917.00,0.0176
916.00,0.0174
915.00,0.0172
914.00,0.0170
913.00,0.0169
912.00,0.0167
911.00,0.0167
910.00,0.0167
909.00,0.0167
908.00,0.0168
907.00,0.0170
906.00,0.0172
905.00,0.0175
904.00,0.0178
903.00,0.0182
902.00,0.0187
901.00,0.0192
900.00,0.0197
899.00,0.0200
898.00,0.0202
897.00,0.0203
896.00,0.0203
895.00,0.0201
894.00,0.0200
893.00,0.0200
892.00,0.0200
891.00,0.0200
890.00,0.0200
889.00,0.0198
888.00,0.0194
887.00,0.0189
886.00,0.0184
885.00,0.0181
884.00,0.0180
883.00,0.0178
882.00,0.0177
881.00,0.0177
880.00,0.0176
879.00,0.0177
878.00,0.0179
877.00,0.0182
876.00,0.0185
875.00,0.0190
874.00,0.0196
873.00,0.0202
872.00,0.0209
871.00,0.0215
870.00,0.0219
869.00,0.0220
868.00,0.0219
867.00,0.0217
866.00,0.0216
865.00,0.0214
864.00,0.0214
863.00,0.0213
862.00,0.0213
861.00,0.0215
860.00,0.0217
859.00,0.0220
858.00,0.0226
857.00,0.0233
856.00,0.0241
855.00,0.0251
854.00,0.0261
853.00,0.0271
852.00,0.0280
851.00,0.0290
850.00,0.0299
849.00,0.0306
848.00,0.0310
847.00,0.0312
846.00,0.0312
845.00,0.0310
844.00,0.0308
843.00,0.0305
842.00,0.0302
841.00,0.0299
840.00,0.0297
839.00,0.0295
838.00,0.0294
837.00,0.0293
836.00,0.0293
835.00,0.0291
834.00,0.0289
833.00,0.0285
832.00,0.0280
831.00,0.0274
830.00,0.0266
829.00,0.0258
828.00,0.0249
827.00,0.0241
826.00,0.0235
825.00,0.0231
824.00,0.0229
823.00,0.0231
822.00,0.0236
821.00,0.0242
820.00,0.0247
819.00,0.0249
818.00,0.0250
817.00,0.0251
816.00,0.0252
815.00,0.0249
814.00,0.0241
813.00,0.0230
812.00,0.0219
811.00,0.0210
810.00,0.0204
809.00,0.0200
808.00,0.0197
807.00,0.0195
806.00,0.0193
805.00,0.0193
804.00,0.0192
803.00,0.0192
802.00,0.0191
801.00,0.0191
800.00,0.0191
799.00,0.0191
798.00,0.0191
797.00,0.0191
796.00,0.0191
795.00,0.0192
794.00,0.0193
793.00,0.0194
792.00,0.0195
791.00,0.0197
790.00,0.0198
789.00,0.0200
788.00,0.0201
787.00,0.0201
786.00,0.0202
785.00,0.0203
784.00,0.0204
783.00,0.0205
782.00,0.0206
781.00,0.0207
780.00,0.0208
779.00,0.0209
778.00,0.0211
777.00,0.0213
776.00,0.0217
775.00,0.0220
774.00,0.0223
773.00,0.0225
772.00,0.0226
771.00,0.0227
770.00,0.0228
769.00,0.0230
768.00,0.0232
767.00,0.0235
766.00,0.0237
765.00,0.0240
764.00,0.0243
763.00,0.0247
762.00,0.0252
761.00,0.0257
760.00,0.0263
759.00,0.0268
758.00,0.0272
757.00,0.0277
756.00,0.0281
755.00,0.0285
754.00,0.0289
753.00,0.0294
752.00,0.0299
751.00,0.0303
750.00,0.0308
749.00,0.0313
748.00,0.0318
747.00,0.0322
746.00,0.0327
745.00,0.0332
744.00,0.0337
743.00,0.0342
742.00,0.0347
741.00,0.0353
740.00,0.0359
739.00,0.0366
738.00,0.0373
737.00,0.0381
736.00,0.0388
735.00,0.0394
734.00,0.0396
733.00,0.0395
732.00,0.0392
731.00,0.0389
730.00,0.0385
729.00,0.0381
728.00,0.0376
727.00,0.0371
726.00,0.0365
725.00,0.0358
724.00,0.0350
723.00,0.0344
722.00,0.0338
721.00,0.0334
720.00,0.0331
719.00,0.0330
718.00,0.0330
717.00,0.0330
716.00,0.0330
715.00,0.0330
714.00,0.0330
713.00,0.0329
712.00,0.0328
711.00,0.0328
710.00,0.0328
709.00,0.0328
708.00,0.0329
707.00,0.0329
706.00,0.0330
705.00,0.0332
704.00,0.0334
703.00,0.0336
702.00,0.0338
701.00,0.0340
700.00,0.0342
699.00,0.0345
698.00,0.0348
697.00,0.0351
696.00,0.0353
695.00,0.0356
694.00,0.0358
693.00,0.0360
692.00,0.0363
691.00,0.0367
690.00,0.0372
689.00,0.0376
688.00,0.0381
687.00,0.0384
686.00,0.0387
685.00,0.0390
684.00,0.0392
683.00,0.0396
682.00,0.0399
681.00,0.0403
680.00,0.0407
679.00,0.0411
678.00,0.0416
677.00,0.0421
676.00,0.0426
675.00,0.0432
674.00,0.0438
673.00,0.0444
672.00,0.0450
671.00,0.0456
670.00,0.0462
669.00,0.0469
668.00,0.0475
667.00,0.0481
666.00,0.0485
665.00,0.0491
664.00,0.0498
663.00,0.0507
662.00,0.0516
661.00,0.0525
660.00,0.0533
659.00,0.0541
658.00,0.0549
657.00,0.0557
656.00,0.0565
655.00,0.0573
654.00,0.0581
653.00,0.0588
652.00,0.0596
651.00,0.0603
650.00,0.0608
649.00,0.0613
648.00,0.0616
647.00,0.0617
646.00,0.0616
645.00,0.0614
644.00,0.0611
643.00,0.0607
642.00,0.0602
641.00,0.0596
640.00,0.0591
639.00,0.0586
638.00,0.0581
637.00,0.0577
636.00,0.0573
635.00,0.0568
634.00,0.0564
633.00,0.0559
632.00,0.0555
631.00,0.0551
630.00,0.0548
629.00,0.0545
628.00,0.0543
627.00,0.0541
626.00,0.0540
625.00,0.0540
624.00,0.0539
623.00,0.0538
622.00,0.0537
621.00,0.0535
620.00,0.0535
619.00,0.0534
618.00,0.0534
617.00,0.0533
616.00,0.0532
615.00,0.0531
614.00,0.0530
613.00,0.0529
612.00,0.0530
611.00,0.0531
610.00,0.0532
609.00,0.0534
608.00,0.0537
607.00,0.0539
606.00,0.0542
605.00,0.0546
604.00,0.0549
603.00,0.0553
602.00,0.0556
601.00,0.0559
600.00,0.0560
599.00,0.0562
598.00,0.0564
597.00,0.0565
596.00,0.0568
595.00,0.0570
594.00,0.0573
593.00,0.0576
592.00,0.0580
591.00,0.0584
590.00,0.0588
589.00,0.0592
588.00,0.0597
587.00,0.0603
586.00,0.0610
585.00,0.0618
584.00,0.0626
583.00,0.0634
582.00,0.0643
581.00,0.0652
580.00,0.0662
579.00,0.0672
578.00,0.0681
577.00,0.0690
576.00,0.0697
575.00,0.0702
574.00,0.0704
573.00,0.0706
572.00,0.0707
571.00,0.0707
570.00,0.0705
569.00,0.0702
568.00,0.0699
567.00,0.0695
566.00,0.0692
565.00,0.0688
564.00,0.0686
563.00,0.0684
562.00,0.0682
561.00,0.0680
560.00,0.0677
559.00,0.0674
558.00,0.0670
557.00,0.0667
556.00,0.0663
555.00,0.0658
554.00,0.0653
553.00,0.0649
552.00,0.0647
551.00,0.0646
550.00,0.0646
549.00,0.0646
548.00,0.0647
547.00,0.0646
546.00,0.0645
545.00,0.0643
544.00,0.0640
543.00,0.0636
542.00,0.0633
541.00,0.0629
540.00,0.0626
539.00,0.0624
538.00,0.0622
537.00,0.0622
536.00,0.0622
535.00,0.0623
534.00,0.0624
533.00,0.0625
532.00,0.0626
531.00,0.0626
530.00,0.0625
529.00,0.0624
528.00,0.0623
527.00,0.0623
526.00,0.0623
525.00,0.0622
524.00,0.0621
523.00,0.0620
522.00,0.0619
521.00,0.0619
520.00,0.0620
519.00,0.0622
518.00,0.0621
517.00,0.0619
516.00,0.0618
515.00,0.0616
514.00,0.0615
513.00,0.0615
512.00,0.0614
511.00,0.0615
510.00,0.0616
509.00,0.0618
508.00,0.0621
507.00,0.0623
506.00,0.0624
505.00,0.0623
504.00,0.0622
503.00,0.0622
502.00,0.0624
501.00,0.0626
500.00,0.0627
499.00,0.0628
498.00,0.0627
497.00,0.0625
496.00,0.0623
495.00,0.0623
494.00,0.0625
493.00,0.0630
492.00,0.0636
491.00,0.0639
490.00,0.0639
489.00,0.0639
488.00,0.0639
487.00,0.0640
486.00,0.0641
485.00,0.0642
484.00,0.0642
483.00,0.0642
482.00,0.0641
481.00,0.0641
480.00,0.0643
479.00,0.0646
478.00,0.0650
477.00,0.0654
476.00,0.0658
475.00,0.0660
474.00,0.0662
473.00,0.0665
472.00,0.0669
471.00,0.0671
470.00,0.0672
469.00,0.0672
468.00,0.0669
467.00,0.0666
466.00,0.0662
465.00,0.0658
464.00,0.0656
463.00,0.0653
462.00,0.0650
461.00,0.0648
460.00,0.0646
459.00,0.0645
458.00,0.0644
457.00,0.0643
456.00,0.0642
455.00,0.0641
454.00,0.0641
453.00,0.0639
452.00,0.0636
451.00,0.0630
450.00,0.0623
449.00,0.0617
448.00,0.0612
447.00,0.0610
446.00,0.0610
445.00,0.0611
444.00,0.0612
443.00,0.0610
442.00,0.0606
441.00,0.0601
440.00,0.0596
439.00,0.0590
438.00,0.0584
437.00,0.0580
436.00,0.0577
435.00,0.0575
434.00,0.0574
433.00,0.0573
432.00,0.0570
431.00,0.0564
430.00,0.0556
429.00,0.0551
428.00,0.0550
427.00,0.0551
426.00,0.0552
425.00,0.0553
424.00,0.0553
423.00,0.0553
422.00,0.0551
421.00,0.0548
420.00,0.0545
419.00,0.0543
418.00,0.0541
417.00,0.0542
416.00,0.0543
415.00,0.0541
414.00,0.0535
413.00,0.0526
412.00,0.0520
411.00,0.0519
410.00,0.0523
409.00,0.0528
408.00,0.0532
407.00,0.0532
406.00,0.0530
405.00,0.0529
404.00,0.0528
403.00,0.0525
402.00,0.0522
401.00,0.0522
400.00,0.0528
