Created as New Dataset,Sample 851 By YargerLab Date Monday, July 21 2025
cm-1,A
4000.00,0.0026
3999.00,0.0026
3998.00,0.0026
3997.00,0.0026
3996.00,0.0026
3995.00,0.0026
3994.00,0.0026
3993.00,0.0026
3992.00,0.0026
3991.00,0.0025
3990.00,0.0025
3989.00,0.0025
3988.00,0.0025
3987.00,0.0026
3986.00,0.0026
3985.00,0.0026
3984.00,0.0026
3983.00,0.0026
3982.00,0.0026
3981.00,0.0025
3980.00,0.0025
3979.00,0.0025
3978.00,0.0025
3977.00,0.0025
3976.00,0.0025
3975.00,0.0025
3974.00,0.0025
3973.00,0.0025
3972.00,0.0025
3971.00,0.0026
3970.00,0.0025
3969.00,0.0025
3968.00,0.0025
3967.00,0.0025
3966.00,0.0025
3965.00,0.0025
3964.00,0.0025
3963.00,0.0025
3962.00,0.0025
3961.00,0.0025
3960.00,0.0025
3959.00,0.0025
3958.00,0.0025
3957.00,0.0025
3956.00,0.0025
3955.00,0.0025
3954.00,0.0025
3953.00,0.0025
3952.00,0.0026
3951.00,0.0025
3950.00,0.0025
3949.00,0.0025
3948.00,0.0025
3947.00,0.0025
3946.00,0.0025
3945.00,0.0026
3944.00,0.0026
3943.00,0.0026
3942.00,0.0026
3941.00,0.0026
3940.00,0.0025
3939.00,0.0025
3938.00,0.0025
3937.00,0.0025
3936.00,0.0025
3935.00,0.0025
3934.00,0.0026
3933.00,0.0026
3932.00,0.0026
3931.00,0.0026
3930.00,0.0026
3929.00,0.0026
3928.00,0.0026
3927.00,0.0026
3926.00,0.0026
3925.00,0.0026
3924.00,0.0026
3923.00,0.0026
3922.00,0.0026
3921.00,0.0026
3920.00,0.0026
3919.00,0.0025
3918.00,0.0025
3917.00,0.0025
3916.00,0.0025
3915.00,0.0025
3914.00,0.0025
3913.00,0.0025
3912.00,0.0025
3911.00,0.0025
3910.00,0.0025
3909.00,0.0026
3908.00,0.0026
3907.00,0.0026
3906.00,0.0027
3905.00,0.0027
3904.00,0.0027
3903.00,0.0027
3902.00,0.0027
3901.00,0.0026
3900.00,0.0026
3899.00,0.0026
3898.00,0.0026
3897.00,0.0026
3896.00,0.0026
3895.00,0.0026
3894.00,0.0025
3893.00,0.0025
3892.00,0.0025
3891.00,0.0025
3890.00,0.0026
3889.00,0.0026
3888.00,0.0026
3887.00,0.0026
3886.00,0.0025
3885.00,0.0025
3884.00,0.0026
3883.00,0.0026
3882.00,0.0026
3881.00,0.0025
3880.00,0.0025
3879.00,0.0026
3878.00,0.0026
3877.00,0.0026
3876.00,0.0026
3875.00,0.0026
3874.00,0.0026
3873.00,0.0027
3872.00,0.0027
3871.00,0.0027
3870.00,0.0026
3869.00,0.0026
3868.00,0.0027
3867.00,0.0027
3866.00,0.0026
3865.00,0.0026
3864.00,0.0026
3863.00,0.0026
3862.00,0.0026
3861.00,0.0025
3860.00,0.0025
3859.00,0.0026
3858.00,0.0027
3857.00,0.0028
3856.00,0.0029
3855.00,0.0029
3854.00,0.0028
3853.00,0.0027
3852.00,0.0028
3851.00,0.0028
3850.00,0.0027
3849.00,0.0026
3848.00,0.0025
3847.00,0.0025
3846.00,0.0026
3845.00,0.0026
3844.00,0.0026
3843.00,0.0027
3842.00,0.0027
3841.00,0.0027
3840.00,0.0028
3839.00,0.0028
3838.00,0.0027
3837.00,0.0027
3836.00,0.0028
3835.00,0.0027
3834.00,0.0027
3833.00,0.0027
3832.00,0.0026
3831.00,0.0026
3830.00,0.0026
3829.00,0.0026
3828.00,0.0026
3827.00,0.0026
3826.00,0.0026
3825.00,0.0027
3824.00,0.0027
3823.00,0.0027
3822.00,0.0026
3821.00,0.0026
3820.00,0.0027
3819.00,0.0027
3818.00,0.0027
3817.00,0.0027
3816.00,0.0026
3815.00,0.0026
3814.00,0.0027
3813.00,0.0027
3812.00,0.0027
3811.00,0.0026
3810.00,0.0026
3809.00,0.0027
3808.00,0.0027
3807.00,0.0027
3806.00,0.0027
3805.00,0.0027
3804.00,0.0027
3803.00,0.0026
3802.00,0.0026
3801.00,0.0026
3800.00,0.0026
3799.00,0.0027
3798.00,0.0027
3797.00,0.0026
3796.00,0.0026
3795.00,0.0026
3794.00,0.0026
3793.00,0.0026
3792.00,0.0026
3791.00,0.0025
3790.00,0.0025
3789.00,0.0025
3788.00,0.0026
3787.00,0.0026
3786.00,0.0026
3785.00,0.0026
3784.00,0.0026
3783.00,0.0027
3782.00,0.0027
3781.00,0.0027
3780.00,0.0026
3779.00,0.0026
3778.00,0.0026
3777.00,0.0027
3776.00,0.0027
3775.00,0.0027
3774.00,0.0027
3773.00,0.0027
3772.00,0.0027
3771.00,0.0027
3770.00,0.0027
3769.00,0.0028
3768.00,0.0028
3767.00,0.0027
3766.00,0.0027
3765.00,0.0027
3764.00,0.0027
3763.00,0.0027
3762.00,0.0027
3761.00,0.0027
3760.00,0.0027
3759.00,0.0027
3758.00,0.0027
3757.00,0.0027
3756.00,0.0027
3755.00,0.0028
3754.00,0.0028
3753.00,0.0029
3752.00,0.0029
3751.00,0.0029
3750.00,0.0029
3749.00,0.0029
3748.00,0.0030
3747.00,0.0030
3746.00,0.0029
3745.00,0.0028
3744.00,0.0028
3743.00,0.0029
3742.00,0.0029
3741.00,0.0028
3740.00,0.0028
3739.00,0.0028
3738.00,0.0029
3737.00,0.0029
3736.00,0.0029
3735.00,0.0029
3734.00,0.0029
3733.00,0.0028
3732.00,0.0028
3731.00,0.0028
3730.00,0.0028
3729.00,0.0028
3728.00,0.0028
3727.00,0.0028
3726.00,0.0028
3725.00,0.0028
3724.00,0.0028
3723.00,0.0028
3722.00,0.0027
3721.00,0.0027
3720.00,0.0027
3719.00,0.0027
3718.00,0.0027
3717.00,0.0027
3716.00,0.0028
3715.00,0.0028
3714.00,0.0028
3713.00,0.0029
3712.00,0.0028
3711.00,0.0028
3710.00,0.0028
3709.00,0.0028
3708.00,0.0028
3707.00,0.0027
3706.00,0.0027
3705.00,0.0028
3704.00,0.0028
3703.00,0.0028
3702.00,0.0028
3701.00,0.0028
3700.00,0.0028
3699.00,0.0029
3698.00,0.0029
3697.00,0.0028
3696.00,0.0028
3695.00,0.0029
3694.00,0.0029
3693.00,0.0030
3692.00,0.0031
3691.00,0.0031
3690.00,0.0032
3689.00,0.0032
3688.00,0.0033
3687.00,0.0033
3686.00,0.0034
3685.00,0.0034
3684.00,0.0035
3683.00,0.0036
3682.00,0.0036
3681.00,0.0037
3680.00,0.0039
3679.00,0.0040
3678.00,0.0041
3677.00,0.0042
3676.00,0.0042
3675.00,0.0042
3674.00,0.0043
3673.00,0.0043
3672.00,0.0043
3671.00,0.0043
3670.00,0.0043
3669.00,0.0043
3668.00,0.0044
3667.00,0.0044
3666.00,0.0044
3665.00,0.0044
3664.00,0.0045
3663.00,0.0046
3662.00,0.0046
3661.00,0.0047
3660.00,0.0048
3659.00,0.0049
3658.00,0.0050
3657.00,0.0051
3656.00,0.0052
3655.00,0.0053
3654.00,0.0054
3653.00,0.0055
3652.00,0.0056
3651.00,0.0057
3650.00,0.0058
3649.00,0.0058
3648.00,0.0059
3647.00,0.0060
3646.00,0.0061
3645.00,0.0061
3644.00,0.0062
3643.00,0.0062
3642.00,0.0063
3641.00,0.0064
3640.00,0.0066
3639.00,0.0067
3638.00,0.0068
3637.00,0.0069
3636.00,0.0070
3635.00,0.0072
3634.00,0.0073
3633.00,0.0075
3632.00,0.0077
3631.00,0.0078
3630.00,0.0079
3629.00,0.0080
3628.00,0.0082
3627.00,0.0084
3626.00,0.0085
3625.00,0.0086
3624.00,0.0086
3623.00,0.0088
3622.00,0.0089
3621.00,0.0090
3620.00,0.0091
3619.00,0.0093
3618.00,0.0095
3617.00,0.0097
3616.00,0.0098
3615.00,0.0100
3614.00,0.0101
3613.00,0.0103
3612.00,0.0105
3611.00,0.0108
3610.00,0.0110
3609.00,0.0111
3608.00,0.0113
3607.00,0.0115
3606.00,0.0116
3605.00,0.0118
3604.00,0.0120
3603.00,0.0122
3602.00,0.0123
3601.00,0.0126
3600.00,0.0128
3599.00,0.0130
3598.00,0.0132
3597.00,0.0134
3596.00,0.0136
3595.00,0.0138
3594.00,0.0140
3593.00,0.0143
3592.00,0.0145
3591.00,0.0147
3590.00,0.0149
3589.00,0.0151
3588.00,0.0154
3587.00,0.0156
3586.00,0.0158
3585.00,0.0160
3584.00,0.0162
3583.00,0.0164
3582.00,0.0167
3581.00,0.0169
3580.00,0.0172
3579.00,0.0174
3578.00,0.0177
3577.00,0.0180
3576.00,0.0182
3575.00,0.0185
3574.00,0.0187
3573.00,0.0190
3572.00,0.0192
3571.00,0.0196
3570.00,0.0199
3569.00,0.0201
3568.00,0.0204
3567.00,0.0206
3566.00,0.0208
3565.00,0.0210
3564.00,0.0213
3563.00,0.0215
3562.00,0.0218
3561.00,0.0220
3560.00,0.0223
3559.00,0.0225
3558.00,0.0227
3557.00,0.0230
3556.00,0.0232
3555.00,0.0235
3554.00,0.0237
3553.00,0.0239
3552.00,0.0242
3551.00,0.0244
3550.00,0.0246
3549.00,0.0248
3548.00,0.0250
3547.00,0.0252
3546.00,0.0254
3545.00,0.0257
3544.00,0.0259
3543.00,0.0261
3542.00,0.0263
3541.00,0.0265
3540.00,0.0267
3539.00,0.0269
3538.00,0.0271
3537.00,0.0273
3536.00,0.0275
3535.00,0.0276
3534.00,0.0278
3533.00,0.0280
3532.00,0.0282
3531.00,0.0284
3530.00,0.0285
3529.00,0.0287
3528.00,0.0289
3527.00,0.0290
3526.00,0.0292
3525.00,0.0293
3524.00,0.0295
3523.00,0.0296
3522.00,0.0297
3521.00,0.0299
3520.00,0.0300
3519.00,0.0302
3518.00,0.0303
3517.00,0.0305
3516.00,0.0306
3515.00,0.0307
3514.00,0.0308
3513.00,0.0309
3512.00,0.0310
3511.00,0.0311
3510.00,0.0312
3509.00,0.0314
3508.00,0.0315
3507.00,0.0317
3506.00,0.0318
3505.00,0.0319
3504.00,0.0320
3503.00,0.0321
3502.00,0.0322
3501.00,0.0323
3500.00,0.0325
3499.00,0.0326
3498.00,0.0327
3497.00,0.0328
3496.00,0.0329
3495.00,0.0329
3494.00,0.0330
3493.00,0.0331
3492.00,0.0332
3491.00,0.0333
3490.00,0.0334
3489.00,0.0335
3488.00,0.0336
3487.00,0.0337
3486.00,0.0338
3485.00,0.0339
3484.00,0.0339
3483.00,0.0340
3482.00,0.0341
3481.00,0.0342
3480.00,0.0343
3479.00,0.0343
3478.00,0.0344
3477.00,0.0345
3476.00,0.0346
3475.00,0.0346
3474.00,0.0347
3473.00,0.0348
3472.00,0.0349
3471.00,0.0350
3470.00,0.0351
3469.00,0.0352
3468.00,0.0352
3467.00,0.0353
3466.00,0.0353
3465.00,0.0354
3464.00,0.0354
3463.00,0.0355
3462.00,0.0355
3461.00,0.0356
3460.00,0.0357
3459.00,0.0358
3458.00,0.0358
3457.00,0.0359
3456.00,0.0359
3455.00,0.0360
3454.00,0.0360
3453.00,0.0361
3452.00,0.0361
3451.00,0.0362
3450.00,0.0362
3449.00,0.0362
3448.00,0.0362
3447.00,0.0363
3446.00,0.0363
3445.00,0.0363
3444.00,0.0363
3443.00,0.0364
3442.00,0.0364
3441.00,0.0364
3440.00,0.0365
3439.00,0.0365
3438.00,0.0365
3437.00,0.0366
3436.00,0.0366
3435.00,0.0366
3434.00,0.0366
3433.00,0.0366
3432.00,0.0366
3431.00,0.0366
3430.00,0.0366
3429.00,0.0366
3428.00,0.0365
3427.00,0.0365
3426.00,0.0365
3425.00,0.0365
3424.00,0.0365
3423.00,0.0365
3422.00,0.0365
3421.00,0.0365
3420.00,0.0365
3419.00,0.0365
3418.00,0.0364
3417.00,0.0364
3416.00,0.0364
3415.00,0.0364
3414.00,0.0364
3413.00,0.0364
3412.00,0.0364
3411.00,0.0363
3410.00,0.0363
3409.00,0.0362
3408.00,0.0362
3407.00,0.0361
3406.00,0.0361
3405.00,0.0360
3404.00,0.0360
3403.00,0.0359
3402.00,0.0358
3401.00,0.0358
3400.00,0.0358
3399.00,0.0357
3398.00,0.0357
3397.00,0.0356
3396.00,0.0355
3395.00,0.0354
3394.00,0.0353
3393.00,0.0352
3392.00,0.0352
3391.00,0.0351
3390.00,0.0350
3389.00,0.0349
3388.00,0.0348
3387.00,0.0347
3386.00,0.0346
3385.00,0.0345
3384.00,0.0344
3383.00,0.0343
3382.00,0.0342
3381.00,0.0341
3380.00,0.0340
3379.00,0.0340
3378.00,0.0339
3377.00,0.0338
3376.00,0.0337
3375.00,0.0336
3374.00,0.0335
3373.00,0.0333
3372.00,0.0332
3371.00,0.0330
3370.00,0.0328
3369.00,0.0326
3368.00,0.0325
3367.00,0.0325
3366.00,0.0324
3365.00,0.0324
3364.00,0.0324
3363.00,0.0323
3362.00,0.0322
3361.00,0.0321
3360.00,0.0320
3359.00,0.0319
3358.00,0.0318
3357.00,0.0317
3356.00,0.0316
3355.00,0.0314
3354.00,0.0313
3353.00,0.0311
3352.00,0.0310
3351.00,0.0309
3350.00,0.0308
3349.00,0.0308
3348.00,0.0308
3347.00,0.0307
3346.00,0.0306
3345.00,0.0304
3344.00,0.0303
3343.00,0.0302
3342.00,0.0301
3341.00,0.0300
3340.00,0.0299
3339.00,0.0297
3338.00,0.0297
3337.00,0.0297
3336.00,0.0297
3335.00,0.0297
3334.00,0.0297
3333.00,0.0297
3332.00,0.0296
3331.00,0.0295
3330.00,0.0294
3329.00,0.0293
3328.00,0.0291
3327.00,0.0290
3326.00,0.0289
3325.00,0.0289
3324.00,0.0289
3323.00,0.0289
3322.00,0.0289
3321.00,0.0289
3320.00,0.0289
3319.00,0.0288
3318.00,0.0288
3317.00,0.0287
3316.00,0.0286
3315.00,0.0286
3314.00,0.0285
3313.00,0.0284
3312.00,0.0282
3311.00,0.0281
3310.00,0.0279
3309.00,0.0277
3308.00,0.0275
3307.00,0.0274
3306.00,0.0274
3305.00,0.0274
3304.00,0.0275
3303.00,0.0277
3302.00,0.0277
3301.00,0.0278
3300.00,0.0277
3299.00,0.0276
3298.00,0.0275
3297.00,0.0274
3296.00,0.0273
3295.00,0.0272
3294.00,0.0271
3293.00,0.0271
3292.00,0.0271
3291.00,0.0271
3290.00,0.0272
3289.00,0.0272
3288.00,0.0272
3287.00,0.0271
3286.00,0.0270
3285.00,0.0270
3284.00,0.0269
3283.00,0.0269
3282.00,0.0268
3281.00,0.0267
3280.00,0.0266
3279.00,0.0265
3278.00,0.0264
3277.00,0.0263
3276.00,0.0261
3275.00,0.0260
3274.00,0.0259
3273.00,0.0257
3272.00,0.0256
3271.00,0.0255
3270.00,0.0255
3269.00,0.0255
3268.00,0.0255
3267.00,0.0255
3266.00,0.0254
3265.00,0.0254
3264.00,0.0253
3263.00,0.0252
3262.00,0.0251
3261.00,0.0249
3260.00,0.0248
3259.00,0.0247
3258.00,0.0245
3257.00,0.0244
3256.00,0.0243
3255.00,0.0242
3254.00,0.0241
3253.00,0.0240
3252.00,0.0239
3251.00,0.0238
3250.00,0.0236
3249.00,0.0235
3248.00,0.0234
3247.00,0.0233
3246.00,0.0232
3245.00,0.0231
3244.00,0.0230
3243.00,0.0229
3242.00,0.0228
3241.00,0.0227
3240.00,0.0226
3239.00,0.0225
3238.00,0.0224
3237.00,0.0222
3236.00,0.0221
3235.00,0.0219
3234.00,0.0218
3233.00,0.0217
3232.00,0.0216
3231.00,0.0215
3230.00,0.0214
3229.00,0.0213
3228.00,0.0212
3227.00,0.0211
3226.00,0.0210
3225.00,0.0209
3224.00,0.0208
3223.00,0.0206
3222.00,0.0205
3221.00,0.0204
3220.00,0.0202
3219.00,0.0201
3218.00,0.0200
3217.00,0.0198
3216.00,0.0197
3215.00,0.0196
3214.00,0.0195
3213.00,0.0194
3212.00,0.0193
3211.00,0.0191
3210.00,0.0190
3209.00,0.0189
3208.00,0.0188
3207.00,0.0187
3206.00,0.0186
3205.00,0.0185
3204.00,0.0183
3203.00,0.0182
3202.00,0.0181
3201.00,0.0179
3200.00,0.0178
3199.00,0.0177
3198.00,0.0176
3197.00,0.0175
3196.00,0.0174
3195.00,0.0173
3194.00,0.0172
3193.00,0.0171
3192.00,0.0170
3191.00,0.0169
3190.00,0.0168
3189.00,0.0167
3188.00,0.0166
3187.00,0.0165
3186.00,0.0164
3185.00,0.0162
3184.00,0.0161
3183.00,0.0160
3182.00,0.0159
3181.00,0.0158
3180.00,0.0157
3179.00,0.0156
3178.00,0.0155
3177.00,0.0154
3176.00,0.0153
3175.00,0.0153
3174.00,0.0152
3173.00,0.0151
3172.00,0.0150
3171.00,0.0149
3170.00,0.0148
3169.00,0.0147
3168.00,0.0146
3167.00,0.0145
3166.00,0.0144
3165.00,0.0144
3164.00,0.0143
3163.00,0.0142
3162.00,0.0141
3161.00,0.0140
3160.00,0.0140
3159.00,0.0139
3158.00,0.0138
3157.00,0.0137
3156.00,0.0136
3155.00,0.0136
3154.00,0.0135
3153.00,0.0134
3152.00,0.0133
3151.00,0.0132
3150.00,0.0131
3149.00,0.0130
3148.00,0.0130
3147.00,0.0129
3146.00,0.0128
3145.00,0.0128
3144.00,0.0127
3143.00,0.0126
3142.00,0.0125
3141.00,0.0124
3140.00,0.0124
3139.00,0.0123
3138.00,0.0123
3137.00,0.0122
3136.00,0.0121
3135.00,0.0121
3134.00,0.0120
3133.00,0.0119
3132.00,0.0119
3131.00,0.0118
3130.00,0.0118
3129.00,0.0117
3128.00,0.0117
3127.00,0.0116
3126.00,0.0116
3125.00,0.0115
3124.00,0.0114
3123.00,0.0114
3122.00,0.0113
3121.00,0.0112
3120.00,0.0112
3119.00,0.0111
3118.00,0.0111
3117.00,0.0111
3116.00,0.0110
3115.00,0.0110
3114.00,0.0109
3113.00,0.0109
3112.00,0.0108
3111.00,0.0108
3110.00,0.0108
3109.00,0.0107
3108.00,0.0107
3107.00,0.0106
3106.00,0.0105
3105.00,0.0105
3104.00,0.0104
3103.00,0.0104
3102.00,0.0103
3101.00,0.0103
3100.00,0.0102
3099.00,0.0102
3098.00,0.0102
3097.00,0.0101
3096.00,0.0101
3095.00,0.0100
3094.00,0.0099
3093.00,0.0099
3092.00,0.0099
3091.00,0.0098
3090.00,0.0097
3089.00,0.0097
3088.00,0.0096
3087.00,0.0096
3086.00,0.0095
3085.00,0.0095
3084.00,0.0094
3083.00,0.0094
3082.00,0.0094
3081.00,0.0093
3080.00,0.0093
3079.00,0.0093
3078.00,0.0092
3077.00,0.0092
3076.00,0.0092
3075.00,0.0091
3074.00,0.0091
3073.00,0.0091
3072.00,0.0091
3071.00,0.0090
3070.00,0.0090
3069.00,0.0090
3068.00,0.0089
3067.00,0.0089
3066.00,0.0089
3065.00,0.0089
3064.00,0.0088
3063.00,0.0088
3062.00,0.0087
3061.00,0.0087
3060.00,0.0086
3059.00,0.0086
3058.00,0.0086
3057.00,0.0085
3056.00,0.0085
3055.00,0.0085
3054.00,0.0084
3053.00,0.0084
3052.00,0.0083
3051.00,0.0083
3050.00,0.0083
3049.00,0.0083
3048.00,0.0083
3047.00,0.0083
3046.00,0.0083
3045.00,0.0083
3044.00,0.0083
3043.00,0.0083
3042.00,0.0083
3041.00,0.0082
3040.00,0.0082
3039.00,0.0082
3038.00,0.0082
3037.00,0.0082
3036.00,0.0082
3035.00,0.0081
3034.00,0.0081
3033.00,0.0081
3032.00,0.0081
3031.00,0.0081
3030.00,0.0082
3029.00,0.0082
3028.00,0.0082
3027.00,0.0083
3026.00,0.0083
3025.00,0.0084
3024.00,0.0084
3023.00,0.0085
3022.00,0.0086
3021.00,0.0086
3020.00,0.0087
3019.00,0.0087
3018.00,0.0088
3017.00,0.0089
3016.00,0.0091
3015.00,0.0092
3014.00,0.0094
3013.00,0.0096
3012.00,0.0099
3011.00,0.0101
3010.00,0.0104
3009.00,0.0106
3008.00,0.0110
3007.00,0.0113
3006.00,0.0116
3005.00,0.0120
3004.00,0.0124
3003.00,0.0128
3002.00,0.0133
3001.00,0.0137
3000.00,0.0142
2999.00,0.0147
2998.00,0.0152
2997.00,0.0157
2996.00,0.0163
2995.00,0.0168
2994.00,0.0173
2993.00,0.0179
2992.00,0.0185
2991.00,0.0191
2990.00,0.0196
2989.00,0.0202
2988.00,0.0207
2987.00,0.0212
2986.00,0.0218
2985.00,0.0223
2984.00,0.0229
2983.00,0.0234
2982.00,0.0239
2981.00,0.0243
2980.00,0.0247
2979.00,0.0250
2978.00,0.0253
2977.00,0.0256
2976.00,0.0259
2975.00,0.0262
2974.00,0.0266
2973.00,0.0270
2972.00,0.0275
2971.00,0.0279
2970.00,0.0283
2969.00,0.0287
2968.00,0.0291
2967.00,0.0295
2966.00,0.0299
2965.00,0.0303
2964.00,0.0307
2963.00,0.0311
2962.00,0.0315
2961.00,0.0319
2960.00,0.0322
2959.00,0.0325
2958.00,0.0328
2957.00,0.0330
2956.00,0.0331
2955.00,0.0332
2954.00,0.0333
2953.00,0.0333
2952.00,0.0333
2951.00,0.0332
2950.00,0.0331
2949.00,0.0329
2948.00,0.0327
2947.00,0.0325
2946.00,0.0322
2945.00,0.0320
2944.00,0.0317
2943.00,0.0315
2942.00,0.0313
2941.00,0.0311
2940.00,0.0309
2939.00,0.0308
2938.00,0.0308
2937.00,0.0308
2936.00,0.0308
2935.00,0.0309
2934.00,0.0311
2933.00,0.0312
2932.00,0.0314
2931.00,0.0315
2930.00,0.0317
2929.00,0.0319
2928.00,0.0322
2927.00,0.0324
2926.00,0.0326
2925.00,0.0327
2924.00,0.0327
2923.00,0.0327
2922.00,0.0327
2921.00,0.0325
2920.00,0.0323
2919.00,0.0321
2918.00,0.0317
2917.00,0.0314
2916.00,0.0310
2915.00,0.0305
2914.00,0.0300
2913.00,0.0296
2912.00,0.0291
2911.00,0.0286
2910.00,0.0281
2909.00,0.0277
2908.00,0.0273
2907.00,0.0269
2906.00,0.0266
2905.00,0.0264
2904.00,0.0262
2903.00,0.0261
2902.00,0.0260
2901.00,0.0260
2900.00,0.0260
2899.00,0.0260
2898.00,0.0260
2897.00,0.0260
2896.00,0.0260
2895.00,0.0261
2894.00,0.0261
2893.00,0.0262
2892.00,0.0262
2891.00,0.0262
2890.00,0.0262
2889.00,0.0262
2888.00,0.0261
2887.00,0.0261
2886.00,0.0260
2885.00,0.0259
2884.00,0.0259
2883.00,0.0258
2882.00,0.0258
2881.00,0.0257
2880.00,0.0256
2879.00,0.0255
2878.00,0.0254
2877.00,0.0253
2876.00,0.0252
2875.00,0.0250
2874.00,0.0249
2873.00,0.0247
2872.00,0.0246
2871.00,0.0244
2870.00,0.0243
2869.00,0.0241
2868.00,0.0239
2867.00,0.0238
2866.00,0.0236
2865.00,0.0235
2864.00,0.0233
2863.00,0.0231
2862.00,0.0229
2861.00,0.0227
2860.00,0.0225
2859.00,0.0223
2858.00,0.0220
2857.00,0.0218
2856.00,0.0215
2855.00,0.0211
2854.00,0.0208
2853.00,0.0203
2852.00,0.0198
2851.00,0.0193
2850.00,0.0187
2849.00,0.0181
2848.00,0.0176
2847.00,0.0170
2846.00,0.0165
2845.00,0.0159
2844.00,0.0154
2843.00,0.0150
2842.00,0.0145
2841.00,0.0141
2840.00,0.0137
2839.00,0.0134
2838.00,0.0131
2837.00,0.0129
2836.00,0.0126
2835.00,0.0124
2834.00,0.0122
2833.00,0.0120
2832.00,0.0118
2831.00,0.0116
2830.00,0.0114
2829.00,0.0111
2828.00,0.0109
2827.00,0.0106
2826.00,0.0104
2825.00,0.0101
2824.00,0.0099
2823.00,0.0097
2822.00,0.0095
2821.00,0.0093
2820.00,0.0091
2819.00,0.0090
2818.00,0.0088
2817.00,0.0087
2816.00,0.0085
2815.00,0.0084
2814.00,0.0083
2813.00,0.0082
2812.00,0.0081
2811.00,0.0080
2810.00,0.0079
2809.00,0.0078
2808.00,0.0078
2807.00,0.0077
2806.00,0.0076
2805.00,0.0076
2804.00,0.0075
2803.00,0.0075
2802.00,0.0074
2801.00,0.0074
2800.00,0.0073
2799.00,0.0073
2798.00,0.0072
2797.00,0.0071
2796.00,0.0071
2795.00,0.0070
2794.00,0.0070
2793.00,0.0070
2792.00,0.0070
2791.00,0.0069
2790.00,0.0069
2789.00,0.0069
2788.00,0.0068
2787.00,0.0068
2786.00,0.0067
2785.00,0.0067
2784.00,0.0067
2783.00,0.0066
2782.00,0.0066
2781.00,0.0066
2780.00,0.0066
2779.00,0.0065
2778.00,0.0065
2777.00,0.0065
2776.00,0.0065
2775.00,0.0064
2774.00,0.0064
2773.00,0.0063
2772.00,0.0063
2771.00,0.0063
2770.00,0.0062
2769.00,0.0062
2768.00,0.0062
2767.00,0.0062
2766.00,0.0061
2765.00,0.0061
2764.00,0.0061
2763.00,0.0061
2762.00,0.0061
2761.00,0.0061
2760.00,0.0061
2759.00,0.0061
2758.00,0.0060
2757.00,0.0060
2756.00,0.0060
2755.00,0.0060
2754.00,0.0060
2753.00,0.0060
2752.00,0.0060
2751.00,0.0060
2750.00,0.0060
2749.00,0.0060
2748.00,0.0060
2747.00,0.0060
2746.00,0.0060
2745.00,0.0060
2744.00,0.0060
2743.00,0.0060
2742.00,0.0060
2741.00,0.0060
2740.00,0.0060
2739.00,0.0060
2738.00,0.0060
2737.00,0.0060
2736.00,0.0060
2735.00,0.0060
2734.00,0.0060
2733.00,0.0059
2732.00,0.0059
2731.00,0.0059
2730.00,0.0059
2729.00,0.0059
2728.00,0.0059
2727.00,0.0059
2726.00,0.0059
2725.00,0.0059
2724.00,0.0059
2723.00,0.0059
2722.00,0.0059
2721.00,0.0058
2720.00,0.0058
2719.00,0.0058
2718.00,0.0058
2717.00,0.0058
2716.00,0.0058
2715.00,0.0057
2714.00,0.0057
2713.00,0.0057
2712.00,0.0057
2711.00,0.0057
2710.00,0.0057
2709.00,0.0057
2708.00,0.0056
2707.00,0.0056
2706.00,0.0056
2705.00,0.0056
2704.00,0.0056
2703.00,0.0056
2702.00,0.0056
2701.00,0.0056
2700.00,0.0056
2699.00,0.0056
2698.00,0.0055
2697.00,0.0055
2696.00,0.0055
2695.00,0.0055
2694.00,0.0055
2693.00,0.0055
2692.00,0.0055
2691.00,0.0055
2690.00,0.0055
2689.00,0.0055
2688.00,0.0055
2687.00,0.0054
2686.00,0.0054
2685.00,0.0054
2684.00,0.0054
2683.00,0.0054
2682.00,0.0054
2681.00,0.0054
2680.00,0.0054
2679.00,0.0054
2678.00,0.0054
2677.00,0.0054
2676.00,0.0054
2675.00,0.0054
2674.00,0.0054
2673.00,0.0054
2672.00,0.0054
2671.00,0.0053
2670.00,0.0053
2669.00,0.0054
2668.00,0.0054
2667.00,0.0055
2666.00,0.0055
2665.00,0.0055
2664.00,0.0056
2663.00,0.0056
2662.00,0.0057
2661.00,0.0057
2660.00,0.0057
2659.00,0.0057
2658.00,0.0057
2657.00,0.0058
2656.00,0.0058
2655.00,0.0058
2654.00,0.0058
2653.00,0.0058
2652.00,0.0058
2651.00,0.0057
2650.00,0.0057
2649.00,0.0057
2648.00,0.0057
2647.00,0.0057
2646.00,0.0057
2645.00,0.0057
2644.00,0.0057
2643.00,0.0057
2642.00,0.0056
2641.00,0.0056
2640.00,0.0056
2639.00,0.0056
2638.00,0.0056
2637.00,0.0056
2636.00,0.0056
2635.00,0.0056
2634.00,0.0056
2633.00,0.0055
2632.00,0.0055
2631.00,0.0055
2630.00,0.0055
2629.00,0.0055
2628.00,0.0055
2627.00,0.0055
2626.00,0.0055
2625.00,0.0054
2624.00,0.0054
2623.00,0.0054
2622.00,0.0054
2621.00,0.0053
2620.00,0.0053
2619.00,0.0053
2618.00,0.0053
2617.00,0.0053
2616.00,0.0053
2615.00,0.0053
2614.00,0.0053
2613.00,0.0053
2612.00,0.0053
2611.00,0.0053
2610.00,0.0052
2609.00,0.0052
2608.00,0.0052
2607.00,0.0052
2606.00,0.0052
2605.00,0.0051
2604.00,0.0051
2603.00,0.0051
2602.00,0.0051
2601.00,0.0052
2600.00,0.0052
2599.00,0.0052
2598.00,0.0052
2597.00,0.0052
2596.00,0.0052
2595.00,0.0052
2594.00,0.0052
2593.00,0.0052
2592.00,0.0052
2591.00,0.0052
2590.00,0.0052
2589.00,0.0052
2588.00,0.0052
2587.00,0.0052
2586.00,0.0052
2585.00,0.0052
2584.00,0.0052
2583.00,0.0052
2582.00,0.0052
2581.00,0.0052
2580.00,0.0052
2579.00,0.0052
2578.00,0.0052
2577.00,0.0052
2576.00,0.0052
2575.00,0.0052
2574.00,0.0052
2573.00,0.0052
2572.00,0.0052
2571.00,0.0052
2570.00,0.0052
2569.00,0.0052
2568.00,0.0051
2567.00,0.0051
2566.00,0.0051
2565.00,0.0050
2564.00,0.0050
2563.00,0.0050
2562.00,0.0050
2561.00,0.0050
2560.00,0.0050
2559.00,0.0050
2558.00,0.0050
2557.00,0.0050
2556.00,0.0050
2555.00,0.0050
2554.00,0.0050
2553.00,0.0050
2552.00,0.0050
2551.00,0.0050
2550.00,0.0049
2549.00,0.0048
2548.00,0.0048
2547.00,0.0048
2546.00,0.0048
2545.00,0.0048
2544.00,0.0048
2543.00,0.0048
2542.00,0.0049
2541.00,0.0049
2540.00,0.0049
2539.00,0.0049
2538.00,0.0049
2537.00,0.0049
2536.00,0.0049
2535.00,0.0048
2534.00,0.0048
2533.00,0.0047
2532.00,0.0047
2531.00,0.0047
2530.00,0.0047
2529.00,0.0047
2528.00,0.0047
2527.00,0.0047
2526.00,0.0047
2525.00,0.0047
2524.00,0.0047
2523.00,0.0046
2522.00,0.0046
2521.00,0.0046
2520.00,0.0046
2519.00,0.0046
2518.00,0.0046
2517.00,0.0046
2516.00,0.0046
2515.00,0.0045
2514.00,0.0045
2513.00,0.0045
2512.00,0.0045
2511.00,0.0045
2510.00,0.0045
2509.00,0.0045
2508.00,0.0045
2507.00,0.0045
2506.00,0.0045
2505.00,0.0045
2504.00,0.0045
2503.00,0.0045
2502.00,0.0045
2501.00,0.0045
2500.00,0.0045
2499.00,0.0045
2498.00,0.0045
2497.00,0.0045
2496.00,0.0045
2495.00,0.0045
2494.00,0.0045
2493.00,0.0045
2492.00,0.0045
2491.00,0.0045
2490.00,0.0045
2489.00,0.0044
2488.00,0.0044
2487.00,0.0044
2486.00,0.0044
2485.00,0.0044
2484.00,0.0044
2483.00,0.0045
2482.00,0.0044
2481.00,0.0044
2480.00,0.0044
2479.00,0.0044
2478.00,0.0044
2477.00,0.0044
2476.00,0.0044
2475.00,0.0045
2474.00,0.0045
2473.00,0.0045
2472.00,0.0045
2471.00,0.0045
2470.00,0.0045
2469.00,0.0045
2468.00,0.0045
2467.00,0.0045
2466.00,0.0044
2465.00,0.0044
2464.00,0.0045
2463.00,0.0045
2462.00,0.0045
2461.00,0.0046
2460.00,0.0046
2459.00,0.0046
2458.00,0.0046
2457.00,0.0046
2456.00,0.0046
2455.00,0.0046
2454.00,0.0046
2453.00,0.0046
2452.00,0.0046
2451.00,0.0046
2450.00,0.0046
2449.00,0.0046
2448.00,0.0046
2447.00,0.0045
2446.00,0.0045
2445.00,0.0046
2444.00,0.0046
2443.00,0.0046
2442.00,0.0046
2441.00,0.0046
2440.00,0.0046
2439.00,0.0045
2438.00,0.0045
2437.00,0.0045
2436.00,0.0045
2435.00,0.0045
2434.00,0.0045
2433.00,0.0045
2432.00,0.0045
2431.00,0.0045
2430.00,0.0045
2429.00,0.0045
2428.00,0.0045
2427.00,0.0045
2426.00,0.0045
2425.00,0.0045
2424.00,0.0045
2423.00,0.0045
2422.00,0.0045
2421.00,0.0045
2420.00,0.0045
2419.00,0.0045
2418.00,0.0045
2417.00,0.0045
2416.00,0.0046
2415.00,0.0046
2414.00,0.0045
2413.00,0.0045
2412.00,0.0045
2411.00,0.0045
2410.00,0.0046
2409.00,0.0045
2408.00,0.0045
2407.00,0.0045
2406.00,0.0045
2405.00,0.0045
2404.00,0.0045
2403.00,0.0045
2402.00,0.0045
2401.00,0.0046
2400.00,0.0046
2399.00,0.0046
2398.00,0.0046
2397.00,0.0045
2396.00,0.0045
2395.00,0.0045
2394.00,0.0045
2393.00,0.0045
2392.00,0.0045
2391.00,0.0045
2390.00,0.0045
2389.00,0.0044
2388.00,0.0044
2387.00,0.0044
2386.00,0.0044
2385.00,0.0043
2384.00,0.0043
2383.00,0.0043
2382.00,0.0042
2381.00,0.0042
2380.00,0.0042
2379.00,0.0042
2378.00,0.0043
2377.00,0.0043
2376.00,0.0043
2375.00,0.0043
2374.00,0.0043
2373.00,0.0043
2372.00,0.0043
2371.00,0.0042
2370.00,0.0042
2369.00,0.0042
2368.00,0.0041
2367.00,0.0042
2366.00,0.0042
2365.00,0.0043
2364.00,0.0044
2363.00,0.0044
2362.00,0.0044
2361.00,0.0044
2360.00,0.0045
2359.00,0.0044
2358.00,0.0044
2357.00,0.0044
2356.00,0.0045
2355.00,0.0045
2354.00,0.0045
2353.00,0.0045
2352.00,0.0044
2351.00,0.0044
2350.00,0.0044
2349.00,0.0046
2348.00,0.0048
2347.00,0.0050
2346.00,0.0051
2345.00,0.0051
2344.00,0.0050
2343.00,0.0049
2342.00,0.0049
2341.00,0.0049
2340.00,0.0049
2339.00,0.0049
2338.00,0.0049
2337.00,0.0049
2336.00,0.0049
2335.00,0.0048
2334.00,0.0048
2333.00,0.0048
2332.00,0.0048
2331.00,0.0048
2330.00,0.0049
2329.00,0.0051
2328.00,0.0054
2327.00,0.0058
2326.00,0.0061
2325.00,0.0062
2324.00,0.0061
2323.00,0.0059
2322.00,0.0057
2321.00,0.0056
2320.00,0.0055
2319.00,0.0054
2318.00,0.0054
2317.00,0.0054
2316.00,0.0054
2315.00,0.0054
2314.00,0.0054
2313.00,0.0053
2312.00,0.0053
2311.00,0.0052
2310.00,0.0052
2309.00,0.0052
2308.00,0.0052
2307.00,0.0052
2306.00,0.0052
2305.00,0.0052
2304.00,0.0052
2303.00,0.0052
2302.00,0.0052
2301.00,0.0052
2300.00,0.0052
2299.00,0.0053
2298.00,0.0053
2297.00,0.0054
2296.00,0.0055
2295.00,0.0056
2294.00,0.0056
2293.00,0.0057
2292.00,0.0058
2291.00,0.0059
2290.00,0.0060
2289.00,0.0061
2288.00,0.0061
2287.00,0.0061
2286.00,0.0061
2285.00,0.0060
2284.00,0.0059
2283.00,0.0058
2282.00,0.0057
2281.00,0.0057
2280.00,0.0057
2279.00,0.0057
2278.00,0.0056
2277.00,0.0056
2276.00,0.0055
2275.00,0.0055
2274.00,0.0055
2273.00,0.0055
2272.00,0.0055
2271.00,0.0055
2270.00,0.0055
2269.00,0.0054
2268.00,0.0054
2267.00,0.0053
2266.00,0.0053
2265.00,0.0053
2264.00,0.0053
2263.00,0.0053
2262.00,0.0053
2261.00,0.0053
2260.00,0.0054
2259.00,0.0055
2258.00,0.0055
2257.00,0.0054
2256.00,0.0053
2255.00,0.0052
2254.00,0.0051
2253.00,0.0051
2252.00,0.0051
2251.00,0.0052
2250.00,0.0052
2249.00,0.0052
2248.00,0.0052
2247.00,0.0052
2246.00,0.0053
2245.00,0.0053
2244.00,0.0053
2243.00,0.0053
2242.00,0.0052
2241.00,0.0052
2240.00,0.0052
2239.00,0.0053
2238.00,0.0053
2237.00,0.0053
2236.00,0.0054
2235.00,0.0054
2234.00,0.0054
2233.00,0.0053
2232.00,0.0052
2231.00,0.0052
2230.00,0.0052
2229.00,0.0052
2228.00,0.0052
2227.00,0.0053
2226.00,0.0053
2225.00,0.0053
2224.00,0.0053
2223.00,0.0053
2222.00,0.0053
2221.00,0.0053
2220.00,0.0053
2219.00,0.0054
2218.00,0.0053
2217.00,0.0053
2216.00,0.0053
2215.00,0.0052
2214.00,0.0051
2213.00,0.0051
2212.00,0.0051
2211.00,0.0052
2210.00,0.0053
2209.00,0.0054
2208.00,0.0055
2207.00,0.0055
2206.00,0.0055
2205.00,0.0055
2204.00,0.0055
2203.00,0.0056
2202.00,0.0056
2201.00,0.0056
2200.00,0.0056
2199.00,0.0056
2198.00,0.0056
2197.00,0.0057
2196.00,0.0058
2195.00,0.0059
2194.00,0.0059
2193.00,0.0059
2192.00,0.0058
2191.00,0.0058
2190.00,0.0057
2189.00,0.0055
2188.00,0.0055
2187.00,0.0055
2186.00,0.0055
2185.00,0.0054
2184.00,0.0054
2183.00,0.0052
2182.00,0.0051
2181.00,0.0052
2180.00,0.0054
2179.00,0.0055
2178.00,0.0053
2177.00,0.0051
2176.00,0.0050
2175.00,0.0050
2174.00,0.0051
2173.00,0.0054
2172.00,0.0056
2171.00,0.0058
2170.00,0.0060
2169.00,0.0061
2168.00,0.0063
2167.00,0.0064
2166.00,0.0065
2165.00,0.0066
2164.00,0.0069
2163.00,0.0070
2162.00,0.0066
2161.00,0.0055
2160.00,0.0040
2159.00,0.0028
2158.00,0.0021
2157.00,0.0022
2156.00,0.0026
2155.00,0.0030
2154.00,0.0032
2153.00,0.0034
2152.00,0.0036
2151.00,0.0037
2150.00,0.0037
2149.00,0.0037
2148.00,0.0038
2147.00,0.0038
2146.00,0.0038
2145.00,0.0037
2144.00,0.0037
2143.00,0.0038
2142.00,0.0039
2141.00,0.0040
2140.00,0.0041
2139.00,0.0041
2138.00,0.0041
2137.00,0.0039
2136.00,0.0037
2135.00,0.0036
2134.00,0.0036
2133.00,0.0037
2132.00,0.0039
2131.00,0.0040
2130.00,0.0041
2129.00,0.0043
2128.00,0.0044
2127.00,0.0046
2126.00,0.0046
2125.00,0.0047
2124.00,0.0049
2123.00,0.0050
2122.00,0.0050
2121.00,0.0051
2120.00,0.0052
2119.00,0.0053
2118.00,0.0054
2117.00,0.0055
2116.00,0.0055
2115.00,0.0056
2114.00,0.0055
2113.00,0.0055
2112.00,0.0056
2111.00,0.0056
2110.00,0.0056
2109.00,0.0056
2108.00,0.0056
2107.00,0.0056
2106.00,0.0056
2105.00,0.0055
2104.00,0.0055
2103.00,0.0055
2102.00,0.0054
2101.00,0.0054
2100.00,0.0054
2099.00,0.0054
2098.00,0.0053
2097.00,0.0052
2096.00,0.0051
2095.00,0.0050
2094.00,0.0049
2093.00,0.0049
2092.00,0.0050
2091.00,0.0051
2090.00,0.0052
2089.00,0.0052
2088.00,0.0054
2087.00,0.0054
2086.00,0.0055
2085.00,0.0055
2084.00,0.0055
2083.00,0.0055
2082.00,0.0055
2081.00,0.0054
2080.00,0.0054
2079.00,0.0054
2078.00,0.0054
2077.00,0.0054
2076.00,0.0054
2075.00,0.0053
2074.00,0.0052
2073.00,0.0052
2072.00,0.0052
2071.00,0.0052
2070.00,0.0051
2069.00,0.0050
2068.00,0.0050
2067.00,0.0050
2066.00,0.0050
2065.00,0.0051
2064.00,0.0051
2063.00,0.0050
2062.00,0.0050
2061.00,0.0049
2060.00,0.0049
2059.00,0.0050
2058.00,0.0050
2057.00,0.0050
2056.00,0.0050
2055.00,0.0050
2054.00,0.0052
2053.00,0.0056
2052.00,0.0060
2051.00,0.0061
2050.00,0.0059
2049.00,0.0055
2048.00,0.0052
2047.00,0.0051
2046.00,0.0049
2045.00,0.0048
2044.00,0.0048
2043.00,0.0048
2042.00,0.0048
2041.00,0.0049
2040.00,0.0050
2039.00,0.0051
2038.00,0.0050
2037.00,0.0048
2036.00,0.0046
2035.00,0.0044
2034.00,0.0041
2033.00,0.0039
2032.00,0.0039
2031.00,0.0038
2030.00,0.0038
2029.00,0.0038
2028.00,0.0039
2027.00,0.0040
2026.00,0.0039
2025.00,0.0039
2024.00,0.0040
2023.00,0.0040
2022.00,0.0040
2021.00,0.0040
2020.00,0.0039
2019.00,0.0039
2018.00,0.0037
2017.00,0.0037
2016.00,0.0037
2015.00,0.0037
2014.00,0.0037
2013.00,0.0037
2012.00,0.0039
2011.00,0.0040
2010.00,0.0040
2009.00,0.0038
2008.00,0.0035
2007.00,0.0033
2006.00,0.0031
2005.00,0.0032
2004.00,0.0034
2003.00,0.0036
2002.00,0.0036
2001.00,0.0037
2000.00,0.0038
1999.00,0.0040
1998.00,0.0040
1997.00,0.0041
1996.00,0.0041
1995.00,0.0041
1994.00,0.0040
1993.00,0.0040
1992.00,0.0040
1991.00,0.0041
1990.00,0.0041
1989.00,0.0043
1988.00,0.0044
1987.00,0.0045
1986.00,0.0045
1985.00,0.0046
1984.00,0.0049
1983.00,0.0052
1982.00,0.0054
1981.00,0.0055
1980.00,0.0054
1979.00,0.0049
1978.00,0.0042
1977.00,0.0036
1976.00,0.0033
1975.00,0.0033
1974.00,0.0032
1973.00,0.0033
1972.00,0.0034
1971.00,0.0036
1970.00,0.0036
1969.00,0.0036
1968.00,0.0036
1967.00,0.0036
1966.00,0.0034
1965.00,0.0033
1964.00,0.0033
1963.00,0.0032
1962.00,0.0031
1961.00,0.0029
1960.00,0.0029
1959.00,0.0028
1958.00,0.0027
1957.00,0.0028
1956.00,0.0031
1955.00,0.0033
1954.00,0.0034
1953.00,0.0035
1952.00,0.0035
1951.00,0.0035
1950.00,0.0034
1949.00,0.0034
1948.00,0.0035
1947.00,0.0035
1946.00,0.0035
1945.00,0.0034
1944.00,0.0035
1943.00,0.0035
1942.00,0.0035
1941.00,0.0035
1940.00,0.0035
1939.00,0.0035
1938.00,0.0034
1937.00,0.0034
1936.00,0.0034
1935.00,0.0034
1934.00,0.0033
1933.00,0.0033
1932.00,0.0033
1931.00,0.0034
1930.00,0.0034
1929.00,0.0034
1928.00,0.0035
1927.00,0.0035
1926.00,0.0034
1925.00,0.0034
1924.00,0.0035
1923.00,0.0037
1922.00,0.0038
1921.00,0.0038
1920.00,0.0038
1919.00,0.0038
1918.00,0.0036
1917.00,0.0036
1916.00,0.0036
1915.00,0.0036
1914.00,0.0036
1913.00,0.0036
1912.00,0.0036
1911.00,0.0037
1910.00,0.0037
1909.00,0.0037
1908.00,0.0037
1907.00,0.0037
1906.00,0.0037
1905.00,0.0037
1904.00,0.0038
1903.00,0.0038
1902.00,0.0038
1901.00,0.0038
1900.00,0.0038
1899.00,0.0038
1898.00,0.0037
1897.00,0.0038
1896.00,0.0038
1895.00,0.0039
1894.00,0.0039
1893.00,0.0038
1892.00,0.0038
1891.00,0.0038
1890.00,0.0038
1889.00,0.0038
1888.00,0.0038
1887.00,0.0038
1886.00,0.0037
1885.00,0.0038
1884.00,0.0038
1883.00,0.0039
1882.00,0.0038
1881.00,0.0038
1880.00,0.0039
1879.00,0.0039
1878.00,0.0038
1877.00,0.0038
1876.00,0.0038
1875.00,0.0038
1874.00,0.0038
1873.00,0.0038
1872.00,0.0038
1871.00,0.0039
1870.00,0.0039
1869.00,0.0039
1868.00,0.0040
1867.00,0.0040
1866.00,0.0040
1865.00,0.0039
1864.00,0.0039
1863.00,0.0039
1862.00,0.0039
1861.00,0.0039
1860.00,0.0040
1859.00,0.0039
1858.00,0.0039
1857.00,0.0039
1856.00,0.0039
1855.00,0.0040
1854.00,0.0040
1853.00,0.0039
1852.00,0.0039
1851.00,0.0039
1850.00,0.0039
1849.00,0.0039
1848.00,0.0040
1847.00,0.0041
1846.00,0.0040
1845.00,0.0038
1844.00,0.0037
1843.00,0.0038
1842.00,0.0038
1841.00,0.0039
1840.00,0.0040
1839.00,0.0041
1838.00,0.0040
1837.00,0.0040
1836.00,0.0041
1835.00,0.0041
1834.00,0.0041
1833.00,0.0040
1832.00,0.0040
1831.00,0.0040
1830.00,0.0041
1829.00,0.0041
1828.00,0.0042
1827.00,0.0041
1826.00,0.0041
1825.00,0.0040
1824.00,0.0040
1823.00,0.0041
1822.00,0.0040
1821.00,0.0039
1820.00,0.0039
1819.00,0.0038
1818.00,0.0037
1817.00,0.0036
1816.00,0.0037
1815.00,0.0038
1814.00,0.0038
1813.00,0.0039
1812.00,0.0040
1811.00,0.0041
1810.00,0.0041
1809.00,0.0041
1808.00,0.0041
1807.00,0.0041
1806.00,0.0040
1805.00,0.0041
1804.00,0.0041
1803.00,0.0041
1802.00,0.0041
1801.00,0.0041
1800.00,0.0042
1799.00,0.0042
1798.00,0.0042
1797.00,0.0042
1796.00,0.0043
1795.00,0.0043
1794.00,0.0041
1793.00,0.0040
1792.00,0.0041
1791.00,0.0041
1790.00,0.0042
1789.00,0.0042
1788.00,0.0043
1787.00,0.0043
1786.00,0.0043
1785.00,0.0043
1784.00,0.0043
1783.00,0.0044
1782.00,0.0045
1781.00,0.0046
1780.00,0.0046
1779.00,0.0047
1778.00,0.0046
1777.00,0.0046
1776.00,0.0046
1775.00,0.0047
1774.00,0.0046
1773.00,0.0046
1772.00,0.0047
1771.00,0.0048
1770.00,0.0048
1769.00,0.0048
1768.00,0.0048
1767.00,0.0049
1766.00,0.0049
1765.00,0.0050
1764.00,0.0050
1763.00,0.0050
1762.00,0.0050
1761.00,0.0050
1760.00,0.0051
1759.00,0.0052
1758.00,0.0052
1757.00,0.0053
1756.00,0.0054
1755.00,0.0055
1754.00,0.0055
1753.00,0.0055
1752.00,0.0056
1751.00,0.0057
1750.00,0.0059
1749.00,0.0061
1748.00,0.0064
1747.00,0.0065
1746.00,0.0066
1745.00,0.0066
1744.00,0.0068
1743.00,0.0068
1742.00,0.0068
1741.00,0.0067
1740.00,0.0068
1739.00,0.0069
1738.00,0.0071
1737.00,0.0071
1736.00,0.0072
1735.00,0.0071
1734.00,0.0071
1733.00,0.0074
1732.00,0.0077
1731.00,0.0081
1730.00,0.0084
1729.00,0.0085
1728.00,0.0087
1727.00,0.0089
1726.00,0.0090
1725.00,0.0093
1724.00,0.0096
1723.00,0.0099
1722.00,0.0101
1721.00,0.0103
1720.00,0.0106
1719.00,0.0109
1718.00,0.0112
1717.00,0.0116
1716.00,0.0122
1715.00,0.0127
1714.00,0.0131
1713.00,0.0136
1712.00,0.0142
1711.00,0.0149
1710.00,0.0156
1709.00,0.0163
1708.00,0.0172
1707.00,0.0183
1706.00,0.0195
1705.00,0.0208
1704.00,0.0222
1703.00,0.0234
1702.00,0.0246
1701.00,0.0265
1700.00,0.0295
1699.00,0.0326
1698.00,0.0354
1697.00,0.0386
1696.00,0.0428
1695.00,0.0476
1694.00,0.0519
1693.00,0.0559
1692.00,0.0603
1691.00,0.0652
1690.00,0.0705
1689.00,0.0760
1688.00,0.0812
1687.00,0.0859
1686.00,0.0907
1685.00,0.0969
1684.00,0.1048
1683.00,0.1119
1682.00,0.1172
1681.00,0.1221
1680.00,0.1272
1679.00,0.1323
1678.00,0.1368
1677.00,0.1414
1676.00,0.1465
1675.00,0.1520
1674.00,0.1570
1673.00,0.1615
1672.00,0.1659
1671.00,0.1704
1670.00,0.1750
1669.00,0.1797
1668.00,0.1841
1667.00,0.1882
1666.00,0.1918
1665.00,0.1954
1664.00,0.1991
1663.00,0.2026
1662.00,0.2055
1661.00,0.2081
1660.00,0.2105
1659.00,0.2127
1658.00,0.2145
1657.00,0.2162
1656.00,0.2177
1655.00,0.2188
1654.00,0.2176
1653.00,0.2139
1652.00,0.2107
1651.00,0.2097
1650.00,0.2098
1649.00,0.2093
1648.00,0.2072
1647.00,0.2029
1646.00,0.1974
1645.00,0.1927
1644.00,0.1891
1643.00,0.1859
1642.00,0.1823
1641.00,0.1781
1640.00,0.1738
1639.00,0.1698
1638.00,0.1656
1637.00,0.1602
1636.00,0.1529
1635.00,0.1452
1634.00,0.1390
1633.00,0.1344
1632.00,0.1305
1631.00,0.1266
1630.00,0.1222
1629.00,0.1174
1628.00,0.1126
1627.00,0.1081
1626.00,0.1041
1625.00,0.1003
1624.00,0.0963
1623.00,0.0922
1622.00,0.0885
1621.00,0.0855
1620.00,0.0830
1619.00,0.0805
1618.00,0.0776
1617.00,0.0743
1616.00,0.0710
1615.00,0.0683
1614.00,0.0662
1613.00,0.0642
1612.00,0.0622
1611.00,0.0600
1610.00,0.0579
1609.00,0.0559
1608.00,0.0539
1607.00,0.0520
1606.00,0.0503
1605.00,0.0487
1604.00,0.0471
1603.00,0.0456
1602.00,0.0443
1601.00,0.0430
1600.00,0.0418
1599.00,0.0406
1598.00,0.0396
1597.00,0.0387
1596.00,0.0377
1595.00,0.0368
1594.00,0.0359
1593.00,0.0350
1592.00,0.0342
1591.00,0.0333
1590.00,0.0325
1589.00,0.0316
1588.00,0.0308
1587.00,0.0301
1586.00,0.0294
1585.00,0.0287
1584.00,0.0280
1583.00,0.0274
1582.00,0.0268
1581.00,0.0263
1580.00,0.0258
1579.00,0.0253
1578.00,0.0248
1577.00,0.0242
1576.00,0.0237
1575.00,0.0232
1574.00,0.0228
1573.00,0.0225
1572.00,0.0221
1571.00,0.0216
1570.00,0.0212
1569.00,0.0208
1568.00,0.0205
1567.00,0.0203
1566.00,0.0200
1565.00,0.0198
1564.00,0.0196
1563.00,0.0193
1562.00,0.0189
1561.00,0.0184
1560.00,0.0179
1559.00,0.0176
1558.00,0.0176
1557.00,0.0175
1556.00,0.0175
1555.00,0.0174
1554.00,0.0174
1553.00,0.0173
1552.00,0.0172
1551.00,0.0171
1550.00,0.0171
1549.00,0.0170
1548.00,0.0169
1547.00,0.0167
1546.00,0.0166
1545.00,0.0166
1544.00,0.0165
1543.00,0.0164
1542.00,0.0162
1541.00,0.0161
1540.00,0.0160
1539.00,0.0159
1538.00,0.0157
1537.00,0.0157
1536.00,0.0157
1535.00,0.0156
1534.00,0.0155
1533.00,0.0154
1532.00,0.0153
1531.00,0.0152
1530.00,0.0152
1529.00,0.0152
1528.00,0.0151
1527.00,0.0151
1526.00,0.0150
1525.00,0.0150
1524.00,0.0149
1523.00,0.0148
1522.00,0.0148
1521.00,0.0148
1520.00,0.0149
1519.00,0.0150
1518.00,0.0152
1517.00,0.0155
1516.00,0.0157
1515.00,0.0158
1514.00,0.0159
1513.00,0.0161
1512.00,0.0165
1511.00,0.0169
1510.00,0.0174
1509.00,0.0180
1508.00,0.0188
1507.00,0.0201
1506.00,0.0217
1505.00,0.0231
1504.00,0.0247
1503.00,0.0264
1502.00,0.0283
1501.00,0.0303
1500.00,0.0325
1499.00,0.0346
1498.00,0.0368
1497.00,0.0389
1496.00,0.0405
1495.00,0.0416
1494.00,0.0421
1493.00,0.0422
1492.00,0.0417
1491.00,0.0406
1490.00,0.0390
1489.00,0.0370
1488.00,0.0349
1487.00,0.0327
1486.00,0.0307
1485.00,0.0290
1484.00,0.0276
1483.00,0.0264
1482.00,0.0254
1481.00,0.0247
1480.00,0.0243
1479.00,0.0242
1478.00,0.0244
1477.00,0.0249
1476.00,0.0259
1475.00,0.0271
1474.00,0.0289
1473.00,0.0317
1472.00,0.0352
1471.00,0.0390
1470.00,0.0430
1469.00,0.0473
1468.00,0.0519
1467.00,0.0569
1466.00,0.0625
1465.00,0.0685
1464.00,0.0738
1463.00,0.0775
1462.00,0.0797
1461.00,0.0807
1460.00,0.0805
1459.00,0.0788
1458.00,0.0751
1457.00,0.0698
1456.00,0.0646
1455.00,0.0610
1454.00,0.0587
1453.00,0.0571
1452.00,0.0562
1451.00,0.0558
1450.00,0.0564
1449.00,0.0580
1448.00,0.0606
1447.00,0.0640
1446.00,0.0678
1445.00,0.0719
1444.00,0.0762
1443.00,0.0805
1442.00,0.0847
1441.00,0.0885
1440.00,0.0918
1439.00,0.0944
1438.00,0.0963
1437.00,0.0978
1436.00,0.0986
1435.00,0.0989
1434.00,0.0990
1433.00,0.0990
1432.00,0.0991
1431.00,0.0994
1430.00,0.1004
1429.00,0.1023
1428.00,0.1049
1427.00,0.1080
1426.00,0.1114
1425.00,0.1149
1424.00,0.1178
1423.00,0.1193
1422.00,0.1194
1421.00,0.1178
1420.00,0.1139
1419.00,0.1074
1418.00,0.0999
1417.00,0.0928
1416.00,0.0860
1415.00,0.0793
1414.00,0.0728
1413.00,0.0668
1412.00,0.0611
1411.00,0.0561
1410.00,0.0518
1409.00,0.0481
1408.00,0.0450
1407.00,0.0423
1406.00,0.0400
1405.00,0.0380
1404.00,0.0361
1403.00,0.0347
1402.00,0.0336
1401.00,0.0326
1400.00,0.0317
1399.00,0.0309
1398.00,0.0304
1397.00,0.0300
1396.00,0.0296
1395.00,0.0294
1394.00,0.0293
1393.00,0.0293
1392.00,0.0294
1391.00,0.0296
1390.00,0.0300
1389.00,0.0305
1388.00,0.0312
1387.00,0.0320
1386.00,0.0329
1385.00,0.0340
1384.00,0.0350
1383.00,0.0361
1382.00,0.0373
1381.00,0.0385
1380.00,0.0397
1379.00,0.0408
1378.00,0.0419
1377.00,0.0428
1376.00,0.0435
1375.00,0.0441
1374.00,0.0444
1373.00,0.0445
1372.00,0.0442
1371.00,0.0438
1370.00,0.0432
1369.00,0.0425
1368.00,0.0414
1367.00,0.0403
1366.00,0.0391
1365.00,0.0379
1364.00,0.0365
1363.00,0.0351
1362.00,0.0337
1361.00,0.0325
1360.00,0.0314
1359.00,0.0304
1358.00,0.0297
1357.00,0.0290
1356.00,0.0284
1355.00,0.0278
1354.00,0.0274
1353.00,0.0270
1352.00,0.0265
1351.00,0.0261
1350.00,0.0258
1349.00,0.0255
1348.00,0.0252
1347.00,0.0250
1346.00,0.0248
1345.00,0.0247
1344.00,0.0246
1343.00,0.0246
1342.00,0.0247
1341.00,0.0248
1340.00,0.0250
1339.00,0.0253
1338.00,0.0256
1337.00,0.0259
1336.00,0.0262
1335.00,0.0267
1334.00,0.0273
1333.00,0.0281
1332.00,0.0289
1331.00,0.0299
1330.00,0.0310
1329.00,0.0323
1328.00,0.0338
1327.00,0.0353
1326.00,0.0371
1325.00,0.0390
1324.00,0.0408
1323.00,0.0427
1322.00,0.0445
1321.00,0.0462
1320.00,0.0476
1319.00,0.0487
1318.00,0.0494
1317.00,0.0497
1316.00,0.0495
1315.00,0.0490
1314.00,0.0482
1313.00,0.0472
1312.00,0.0460
1311.00,0.0449
1310.00,0.0439
1309.00,0.0430
1308.00,0.0425
1307.00,0.0422
1306.00,0.0424
1305.00,0.0431
1304.00,0.0442
1303.00,0.0460
1302.00,0.0485
1301.00,0.0518
1300.00,0.0559
1299.00,0.0610
1298.00,0.0671
1297.00,0.0742
1296.00,0.0820
1295.00,0.0903
1294.00,0.0989
1293.00,0.1072
1292.00,0.1149
1291.00,0.1218
1290.00,0.1275
1289.00,0.1318
1288.00,0.1346
1287.00,0.1359
1286.00,0.1358
1285.00,0.1343
1284.00,0.1319
1283.00,0.1289
1282.00,0.1258
1281.00,0.1230
1280.00,0.1208
1279.00,0.1195
1278.00,0.1190
1277.00,0.1192
1276.00,0.1198
1275.00,0.1207
1274.00,0.1214
1273.00,0.1218
1272.00,0.1215
1271.00,0.1204
1270.00,0.1185
1269.00,0.1158
1268.00,0.1125
1267.00,0.1088
1266.00,0.1046
1265.00,0.1003
1264.00,0.0959
1263.00,0.0916
1262.00,0.0875
1261.00,0.0836
1260.00,0.0800
1259.00,0.0766
1258.00,0.0735
1257.00,0.0707
1256.00,0.0681
1255.00,0.0658
1254.00,0.0637
1253.00,0.0619
1252.00,0.0602
1251.00,0.0587
1250.00,0.0574
1249.00,0.0562
1248.00,0.0553
1247.00,0.0545
1246.00,0.0538
1245.00,0.0534
1244.00,0.0530
1243.00,0.0529
1242.00,0.0529
1241.00,0.0531
1240.00,0.0534
1239.00,0.0539
1238.00,0.0545
1237.00,0.0552
1236.00,0.0559
1235.00,0.0567
1234.00,0.0574
1233.00,0.0582
1232.00,0.0588
1231.00,0.0592
1230.00,0.0595
1229.00,0.0597
1228.00,0.0597
1227.00,0.0596
1226.00,0.0594
1225.00,0.0591
1224.00,0.0589
1223.00,0.0586
1222.00,0.0584
1221.00,0.0582
1220.00,0.0579
1219.00,0.0577
1218.00,0.0573
1217.00,0.0568
1216.00,0.0562
1215.00,0.0555
1214.00,0.0547
1213.00,0.0539
1212.00,0.0529
1211.00,0.0520
1210.00,0.0510
1209.00,0.0501
1208.00,0.0492
1207.00,0.0483
1206.00,0.0475
1205.00,0.0467
1204.00,0.0459
1203.00,0.0451
1202.00,0.0444
1201.00,0.0438
1200.00,0.0431
1199.00,0.0424
1198.00,0.0419
1197.00,0.0413
1196.00,0.0408
1195.00,0.0403
1194.00,0.0399
1193.00,0.0395
1192.00,0.0391
1191.00,0.0388
1190.00,0.0386
1189.00,0.0384
1188.00,0.0383
1187.00,0.0382
1186.00,0.0381
1185.00,0.0382
1184.00,0.0382
1183.00,0.0383
1182.00,0.0385
1181.00,0.0388
1180.00,0.0391
1179.00,0.0395
1178.00,0.0401
1177.00,0.0407
1176.00,0.0413
1175.00,0.0419
1174.00,0.0426
1173.00,0.0432
1172.00,0.0437
1171.00,0.0441
1170.00,0.0443
1169.00,0.0444
1168.00,0.0442
1167.00,0.0438
1166.00,0.0433
1165.00,0.0427
1164.00,0.0419
1163.00,0.0410
1162.00,0.0402
1161.00,0.0394
1160.00,0.0385
1159.00,0.0378
1158.00,0.0371
1157.00,0.0364
1156.00,0.0358
1155.00,0.0352
1154.00,0.0348
1153.00,0.0343
1152.00,0.0337
1151.00,0.0332
1150.00,0.0327
1149.00,0.0322
1148.00,0.0317
1147.00,0.0312
1146.00,0.0308
1145.00,0.0304
1144.00,0.0299
1143.00,0.0294
1142.00,0.0289
1141.00,0.0285
1140.00,0.0281
1139.00,0.0277
1138.00,0.0275
1137.00,0.0273
1136.00,0.0270
1135.00,0.0268
1134.00,0.0268
1133.00,0.0267
1132.00,0.0267
1131.00,0.0268
1130.00,0.0269
1129.00,0.0271
1128.00,0.0272
1127.00,0.0273
1126.00,0.0275
1125.00,0.0277
1124.00,0.0278
1123.00,0.0280
1122.00,0.0281
1121.00,0.0283
1120.00,0.0284
1119.00,0.0285
1118.00,0.0286
1117.00,0.0288
1116.00,0.0288
1115.00,0.0289
1114.00,0.0290
1113.00,0.0292
1112.00,0.0292
1111.00,0.0293
1110.00,0.0294
1109.00,0.0294
1108.00,0.0294
1107.00,0.0293
1106.00,0.0294
1105.00,0.0294
1104.00,0.0294
1103.00,0.0294
1102.00,0.0295
1101.00,0.0296
1100.00,0.0296
1099.00,0.0297
1098.00,0.0297
1097.00,0.0298
1096.00,0.0298
1095.00,0.0298
1094.00,0.0299
1093.00,0.0300
1092.00,0.0300
1091.00,0.0299
1090.00,0.0299
1089.00,0.0300
1088.00,0.0299
1087.00,0.0300
1086.00,0.0301
1085.00,0.0302
1084.00,0.0302
1083.00,0.0303
1082.00,0.0306
1081.00,0.0308
1080.00,0.0311
1079.00,0.0313
1078.00,0.0316
1077.00,0.0318
1076.00,0.0320
1075.00,0.0321
1074.00,0.0322
1073.00,0.0322
1072.00,0.0320
1071.00,0.0317
1070.00,0.0315
1069.00,0.0312
1068.00,0.0308
1067.00,0.0305
1066.00,0.0303
1065.00,0.0301
1064.00,0.0299
1063.00,0.0297
1062.00,0.0296
1061.00,0.0295
1060.00,0.0295
1059.00,0.0294
1058.00,0.0294
1057.00,0.0293
1056.00,0.0292
1055.00,0.0291
1054.00,0.0290
1053.00,0.0289
1052.00,0.0287
1051.00,0.0285
1050.00,0.0284
1049.00,0.0283
1048.00,0.0281
1047.00,0.0280
1046.00,0.0280
1045.00,0.0279
1044.00,0.0278
1043.00,0.0278
1042.00,0.0279
1041.00,0.0280
1040.00,0.0281
1039.00,0.0282
1038.00,0.0284
1037.00,0.0286
1036.00,0.0289
1035.00,0.0291
1034.00,0.0293
1033.00,0.0295
1032.00,0.0296
1031.00,0.0297
1030.00,0.0299
1029.00,0.0300
1028.00,0.0302
1027.00,0.0304
1026.00,0.0308
1025.00,0.0312
1024.00,0.0317
1023.00,0.0323
1022.00,0.0330
1021.00,0.0337
1020.00,0.0342
1019.00,0.0346
1018.00,0.0348
1017.00,0.0347
1016.00,0.0343
1015.00,0.0337
1014.00,0.0328
1013.00,0.0319
1012.00,0.0310
1011.00,0.0301
1010.00,0.0296
1009.00,0.0292
1008.00,0.0290
1007.00,0.0291
1006.00,0.0295
1005.00,0.0300
1004.00,0.0306
1003.00,0.0310
1002.00,0.0313
1001.00,0.0313
1000.00,0.0309
999.00,0.0305
998.00,0.0299
997.00,0.0293
996.00,0.0286
995.00,0.0280
994.00,0.0275
993.00,0.0270
992.00,0.0265
991.00,0.0261
990.00,0.0258
989.00,0.0255
988.00,0.0252
987.00,0.0249
986.00,0.0247
985.00,0.0245
984.00,0.0243
983.00,0.0241
982.00,0.0239
981.00,0.0238
980.00,0.0236
979.00,0.0234
978.00,0.0233
977.00,0.0232
976.00,0.0230
975.00,0.0229
974.00,0.0229
973.00,0.0228
972.00,0.0226
971.00,0.0225
970.00,0.0225
969.00,0.0224
968.00,0.0222
967.00,0.0221
966.00,0.0221
965.00,0.0220
964.00,0.0218
963.00,0.0216
962.00,0.0216
961.00,0.0215
960.00,0.0214
959.00,0.0213
958.00,0.0213
957.00,0.0212
956.00,0.0211
955.00,0.0210
954.00,0.0209
953.00,0.0208
952.00,0.0208
951.00,0.0207
950.00,0.0208
949.00,0.0208
948.00,0.0208
947.00,0.0208
946.00,0.0209
945.00,0.0210
944.00,0.0212
943.00,0.0214
942.00,0.0218
941.00,0.0223
940.00,0.0228
939.00,0.0234
938.00,0.0242
937.00,0.0249
936.00,0.0256
935.00,0.0262
934.00,0.0265
933.00,0.0265
932.00,0.0263
931.00,0.0258
930.00,0.0253
929.00,0.0248
928.00,0.0243
927.00,0.0240
926.00,0.0237
925.00,0.0235
924.00,0.0232
923.00,0.0230
922.00,0.0228
921.00,0.0226
920.00,0.0224
919.00,0.0222
918.00,0.0221
917.00,0.0220
916.00,0.0218
915.00,0.0217
914.00,0.0217
913.00,0.0216
912.00,0.0216
911.00,0.0215
910.00,0.0216
909.00,0.0217
908.00,0.0218
907.00,0.0219
906.00,0.0222
905.00,0.0225
904.00,0.0228
903.00,0.0231
902.00,0.0235
901.00,0.0240
900.00,0.0243
899.00,0.0247
898.00,0.0250
897.00,0.0253
896.00,0.0255
895.00,0.0257
894.00,0.0257
893.00,0.0256
892.00,0.0254
891.00,0.0251
890.00,0.0249
889.00,0.0246
888.00,0.0242
887.00,0.0240
886.00,0.0238
885.00,0.0236
884.00,0.0233
883.00,0.0231
882.00,0.0230
881.00,0.0230
880.00,0.0228
879.00,0.0227
878.00,0.0227
877.00,0.0227
876.00,0.0226
875.00,0.0226
874.00,0.0227
873.00,0.0228
872.00,0.0229
871.00,0.0230
870.00,0.0232
869.00,0.0234
868.00,0.0235
867.00,0.0238
866.00,0.0241
865.00,0.0245
864.00,0.0249
863.00,0.0253
862.00,0.0258
861.00,0.0264
860.00,0.0270
859.00,0.0277
858.00,0.0285
857.00,0.0294
856.00,0.0302
855.00,0.0311
854.00,0.0321
853.00,0.0331
852.00,0.0340
851.00,0.0349
850.00,0.0358
849.00,0.0366
848.00,0.0372
847.00,0.0377
846.00,0.0382
845.00,0.0385
844.00,0.0386
843.00,0.0386
842.00,0.0384
841.00,0.0382
840.00,0.0378
839.00,0.0373
838.00,0.0369
837.00,0.0365
836.00,0.0360
835.00,0.0355
834.00,0.0350
833.00,0.0344
832.00,0.0338
831.00,0.0331
830.00,0.0326
829.00,0.0321
828.00,0.0315
827.00,0.0309
826.00,0.0304
825.00,0.0300
824.00,0.0295
823.00,0.0291
822.00,0.0288
821.00,0.0285
820.00,0.0282
819.00,0.0279
818.00,0.0277
817.00,0.0276
816.00,0.0274
815.00,0.0272
814.00,0.0272
813.00,0.0271
812.00,0.0270
811.00,0.0270
810.00,0.0270
809.00,0.0270
808.00,0.0270
807.00,0.0270
806.00,0.0270
805.00,0.0270
804.00,0.0270
803.00,0.0270
802.00,0.0270
801.00,0.0271
800.00,0.0271
799.00,0.0272
798.00,0.0273
797.00,0.0274
796.00,0.0274
795.00,0.0274
794.00,0.0276
793.00,0.0277
792.00,0.0278
791.00,0.0279
790.00,0.0281
789.00,0.0282
788.00,0.0283
787.00,0.0284
786.00,0.0285
785.00,0.0287
784.00,0.0288
783.00,0.0289
782.00,0.0291
781.00,0.0292
780.00,0.0294
779.00,0.0295
778.00,0.0298
777.00,0.0301
776.00,0.0302
775.00,0.0304
774.00,0.0307
773.00,0.0310
772.00,0.0313
771.00,0.0316
770.00,0.0320
769.00,0.0324
768.00,0.0328
767.00,0.0332
766.00,0.0337
765.00,0.0342
764.00,0.0347
763.00,0.0352
762.00,0.0358
761.00,0.0364
760.00,0.0370
759.00,0.0376
758.00,0.0383
757.00,0.0390
756.00,0.0396
755.00,0.0402
754.00,0.0410
753.00,0.0417
752.00,0.0423
751.00,0.0429
750.00,0.0437
749.00,0.0444
748.00,0.0452
747.00,0.0459
746.00,0.0467
745.00,0.0474
744.00,0.0479
743.00,0.0485
742.00,0.0492
741.00,0.0500
740.00,0.0507
739.00,0.0514
738.00,0.0521
737.00,0.0527
736.00,0.0531
735.00,0.0534
734.00,0.0537
733.00,0.0538
732.00,0.0536
731.00,0.0532
730.00,0.0527
729.00,0.0520
728.00,0.0513
727.00,0.0505
726.00,0.0500
725.00,0.0494
724.00,0.0488
723.00,0.0484
722.00,0.0480
721.00,0.0477
720.00,0.0474
719.00,0.0471
718.00,0.0469
717.00,0.0468
716.00,0.0466
715.00,0.0465
714.00,0.0465
713.00,0.0465
712.00,0.0465
711.00,0.0466
710.00,0.0467
709.00,0.0468
708.00,0.0469
707.00,0.0469
706.00,0.0471
705.00,0.0474
704.00,0.0476
703.00,0.0478
702.00,0.0480
701.00,0.0483
700.00,0.0485
699.00,0.0487
698.00,0.0491
697.00,0.0495
696.00,0.0498
695.00,0.0502
694.00,0.0507
693.00,0.0512
692.00,0.0515
691.00,0.0519
690.00,0.0524
689.00,0.0529
688.00,0.0534
687.00,0.0539
686.00,0.0546
685.00,0.0552
684.00,0.0557
683.00,0.0563
682.00,0.0569
681.00,0.0575
680.00,0.0579
679.00,0.0584
678.00,0.0589
677.00,0.0594
676.00,0.0599
675.00,0.0604
674.00,0.0610
673.00,0.0616
672.00,0.0621
671.00,0.0626
670.00,0.0632
669.00,0.0637
668.00,0.0644
667.00,0.0653
666.00,0.0664
665.00,0.0677
664.00,0.0688
663.00,0.0699
662.00,0.0711
661.00,0.0722
660.00,0.0733
659.00,0.0745
658.00,0.0759
657.00,0.0773
656.00,0.0786
655.00,0.0798
654.00,0.0811
653.00,0.0824
652.00,0.0836
651.00,0.0846
650.00,0.0854
649.00,0.0861
648.00,0.0864
647.00,0.0865
646.00,0.0866
645.00,0.0865
644.00,0.0861
643.00,0.0857
642.00,0.0851
641.00,0.0845
640.00,0.0837
639.00,0.0830
638.00,0.0824
637.00,0.0818
636.00,0.0812
635.00,0.0806
634.00,0.0801
633.00,0.0795
632.00,0.0789
631.00,0.0785
630.00,0.0781
629.00,0.0778
628.00,0.0773
627.00,0.0770
626.00,0.0768
625.00,0.0766
624.00,0.0763
623.00,0.0761
622.00,0.0760
621.00,0.0760
620.00,0.0759
619.00,0.0758
618.00,0.0758
617.00,0.0758
616.00,0.0758
615.00,0.0758
614.00,0.0760
613.00,0.0761
612.00,0.0760
611.00,0.0760
610.00,0.0761
609.00,0.0763
608.00,0.0764
607.00,0.0764
606.00,0.0766
605.00,0.0768
604.00,0.0769
603.00,0.0770
602.00,0.0772
601.00,0.0775
600.00,0.0776
599.00,0.0778
598.00,0.0783
597.00,0.0787
596.00,0.0791
595.00,0.0794
594.00,0.0799
593.00,0.0804
592.00,0.0810
591.00,0.0818
590.00,0.0827
589.00,0.0836
588.00,0.0843
587.00,0.0852
586.00,0.0863
585.00,0.0875
584.00,0.0886
583.00,0.0896
582.00,0.0909
581.00,0.0921
580.00,0.0932
579.00,0.0942
578.00,0.0950
577.00,0.0958
576.00,0.0963
575.00,0.0967
574.00,0.0973
573.00,0.0976
572.00,0.0977
571.00,0.0977
570.00,0.0979
569.00,0.0980
568.00,0.0977
567.00,0.0972
566.00,0.0969
565.00,0.0965
564.00,0.0959
563.00,0.0953
562.00,0.0948
561.00,0.0944
560.00,0.0938
559.00,0.0934
558.00,0.0931
557.00,0.0927
556.00,0.0922
555.00,0.0917
554.00,0.0915
553.00,0.0914
552.00,0.0910
551.00,0.0906
550.00,0.0904
549.00,0.0902
548.00,0.0898
547.00,0.0894
546.00,0.0892
545.00,0.0890
544.00,0.0885
543.00,0.0882
542.00,0.0881
541.00,0.0880
540.00,0.0877
539.00,0.0875
538.00,0.0875
537.00,0.0875
536.00,0.0873
535.00,0.0873
534.00,0.0874
533.00,0.0875
532.00,0.0873
531.00,0.0872
530.00,0.0874
529.00,0.0877
528.00,0.0877
527.00,0.0876
526.00,0.0878
525.00,0.0880
524.00,0.0879
523.00,0.0877
522.00,0.0878
521.00,0.0879
520.00,0.0878
519.00,0.0877
518.00,0.0880
517.00,0.0881
516.00,0.0880
515.00,0.0878
514.00,0.0879
513.00,0.0880
512.00,0.0878
511.00,0.0876
510.00,0.0877
509.00,0.0877
508.00,0.0876
507.00,0.0876
506.00,0.0878
505.00,0.0880
504.00,0.0880
503.00,0.0880
502.00,0.0883
501.00,0.0887
500.00,0.0887
499.00,0.0887
498.00,0.0889
497.00,0.0890
496.00,0.0887
495.00,0.0886
494.00,0.0889
493.00,0.0894
492.00,0.0896
491.00,0.0897
490.00,0.0899
489.00,0.0901
488.00,0.0899
487.00,0.0897
486.00,0.0900
485.00,0.0902
484.00,0.0901
483.00,0.0900
482.00,0.0904
481.00,0.0908
480.00,0.0910
479.00,0.0912
478.00,0.0917
477.00,0.0923
476.00,0.0924
475.00,0.0925
474.00,0.0930
473.00,0.0934
472.00,0.0932
471.00,0.0930
470.00,0.0930
469.00,0.0928
468.00,0.0921
467.00,0.0916
466.00,0.0918
465.00,0.0920
464.00,0.0917
463.00,0.0913
462.00,0.0912
461.00,0.0913
460.00,0.0909
459.00,0.0904
458.00,0.0903
457.00,0.0898
456.00,0.0889
455.00,0.0883
454.00,0.0884
453.00,0.0885
452.00,0.0878
451.00,0.0872
450.00,0.0873
449.00,0.0875
448.00,0.0873
447.00,0.0869
446.00,0.0867
445.00,0.0864
444.00,0.0856
443.00,0.0851
442.00,0.0853
441.00,0.0852
440.00,0.0844
439.00,0.0833
438.00,0.0829
437.00,0.0826
436.00,0.0820
435.00,0.0817
434.00,0.0820
433.00,0.0822
432.00,0.0815
431.00,0.0808
430.00,0.0806
429.00,0.0805
428.00,0.0798
427.00,0.0794
426.00,0.0798
425.00,0.0803
424.00,0.0798
423.00,0.0790
422.00,0.0788
421.00,0.0787
420.00,0.0780
419.00,0.0774
418.00,0.0776
417.00,0.0774
416.00,0.0764
415.00,0.0758
414.00,0.0762
413.00,0.0761
412.00,0.0744
411.00,0.0730
410.00,0.0734
409.00,0.0745
408.00,0.0746
407.00,0.0743
406.00,0.0746
405.00,0.0744
404.00,0.0729
403.00,0.0722
402.00,0.0739
401.00,0.0760
400.00,0.0761
