Created as New Dataset,Sample 117 By YargerLab Date Friday, August 15 2025
cm-1,A
4000.00,0.0027
3999.00,0.0027
3998.00,0.0027
3997.00,0.0027
3996.00,0.0027
3995.00,0.0027
3994.00,0.0027
3993.00,0.0027
3992.00,0.0026
3991.00,0.0026
3990.00,0.0026
3989.00,0.0026
3988.00,0.0026
3987.00,0.0026
3986.00,0.0026
3985.00,0.0026
3984.00,0.0026
3983.00,0.0026
3982.00,0.0026
3981.00,0.0027
3980.00,0.0027
3979.00,0.0027
3978.00,0.0027
3977.00,0.0027
3976.00,0.0027
3975.00,0.0027
3974.00,0.0027
3973.00,0.0027
3972.00,0.0027
3971.00,0.0027
3970.00,0.0027
3969.00,0.0027
3968.00,0.0027
3967.00,0.0027
3966.00,0.0027
3965.00,0.0027
3964.00,0.0027
3963.00,0.0027
3962.00,0.0027
3961.00,0.0026
3960.00,0.0026
3959.00,0.0026
3958.00,0.0026
3957.00,0.0026
3956.00,0.0026
3955.00,0.0026
3954.00,0.0026
3953.00,0.0026
3952.00,0.0026
3951.00,0.0026
3950.00,0.0025
3949.00,0.0025
3948.00,0.0025
3947.00,0.0025
3946.00,0.0025
3945.00,0.0025
3944.00,0.0025
3943.00,0.0025
3942.00,0.0025
3941.00,0.0026
3940.00,0.0026
3939.00,0.0026
3938.00,0.0026
3937.00,0.0026
3936.00,0.0026
3935.00,0.0026
3934.00,0.0026
3933.00,0.0026
3932.00,0.0025
3931.00,0.0025
3930.00,0.0025
3929.00,0.0025
3928.00,0.0025
3927.00,0.0025
3926.00,0.0025
3925.00,0.0026
3924.00,0.0026
3923.00,0.0026
3922.00,0.0026
3921.00,0.0026
3920.00,0.0026
3919.00,0.0026
3918.00,0.0026
3917.00,0.0026
3916.00,0.0026
3915.00,0.0026
3914.00,0.0026
3913.00,0.0026
3912.00,0.0026
3911.00,0.0026
3910.00,0.0026
3909.00,0.0026
3908.00,0.0026
3907.00,0.0026
3906.00,0.0026
3905.00,0.0026
3904.00,0.0026
3903.00,0.0026
3902.00,0.0025
3901.00,0.0025
3900.00,0.0024
3899.00,0.0024
3898.00,0.0024
3897.00,0.0025
3896.00,0.0025
3895.00,0.0025
3894.00,0.0025
3893.00,0.0025
3892.00,0.0025
3891.00,0.0025
3890.00,0.0025
3889.00,0.0025
3888.00,0.0025
3887.00,0.0024
3886.00,0.0024
3885.00,0.0025
3884.00,0.0024
3883.00,0.0024
3882.00,0.0024
3881.00,0.0024
3880.00,0.0024
3879.00,0.0024
3878.00,0.0025
3877.00,0.0025
3876.00,0.0025
3875.00,0.0025
3874.00,0.0025
3873.00,0.0025
3872.00,0.0024
3871.00,0.0024
3870.00,0.0024
3869.00,0.0024
3868.00,0.0024
3867.00,0.0024
3866.00,0.0024
3865.00,0.0024
3864.00,0.0024
3863.00,0.0024
3862.00,0.0024
3861.00,0.0024
3860.00,0.0025
3859.00,0.0025
3858.00,0.0025
3857.00,0.0025
3856.00,0.0024
3855.00,0.0024
3854.00,0.0024
3853.00,0.0024
3852.00,0.0023
3851.00,0.0023
3850.00,0.0023
3849.00,0.0024
3848.00,0.0024
3847.00,0.0024
3846.00,0.0024
3845.00,0.0025
3844.00,0.0025
3843.00,0.0025
3842.00,0.0025
3841.00,0.0025
3840.00,0.0024
3839.00,0.0024
3838.00,0.0024
3837.00,0.0024
3836.00,0.0024
3835.00,0.0024
3834.00,0.0024
3833.00,0.0024
3832.00,0.0025
3831.00,0.0025
3830.00,0.0025
3829.00,0.0025
3828.00,0.0025
3827.00,0.0024
3826.00,0.0025
3825.00,0.0025
3824.00,0.0024
3823.00,0.0024
3822.00,0.0023
3821.00,0.0023
3820.00,0.0023
3819.00,0.0023
3818.00,0.0023
3817.00,0.0023
3816.00,0.0024
3815.00,0.0024
3814.00,0.0025
3813.00,0.0025
3812.00,0.0025
3811.00,0.0025
3810.00,0.0025
3809.00,0.0025
3808.00,0.0025
3807.00,0.0024
3806.00,0.0024
3805.00,0.0024
3804.00,0.0023
3803.00,0.0023
3802.00,0.0023
3801.00,0.0024
3800.00,0.0024
3799.00,0.0024
3798.00,0.0024
3797.00,0.0024
3796.00,0.0024
3795.00,0.0025
3794.00,0.0025
3793.00,0.0025
3792.00,0.0025
3791.00,0.0025
3790.00,0.0025
3789.00,0.0025
3788.00,0.0025
3787.00,0.0025
3786.00,0.0025
3785.00,0.0025
3784.00,0.0025
3783.00,0.0025
3782.00,0.0025
3781.00,0.0025
3780.00,0.0025
3779.00,0.0025
3778.00,0.0025
3777.00,0.0025
3776.00,0.0025
3775.00,0.0025
3774.00,0.0026
3773.00,0.0026
3772.00,0.0026
3771.00,0.0025
3770.00,0.0025
3769.00,0.0025
3768.00,0.0025
3767.00,0.0025
3766.00,0.0025
3765.00,0.0025
3764.00,0.0025
3763.00,0.0025
3762.00,0.0025
3761.00,0.0025
3760.00,0.0025
3759.00,0.0025
3758.00,0.0025
3757.00,0.0025
3756.00,0.0025
3755.00,0.0024
3754.00,0.0024
3753.00,0.0025
3752.00,0.0025
3751.00,0.0025
3750.00,0.0024
3749.00,0.0023
3748.00,0.0023
3747.00,0.0022
3746.00,0.0022
3745.00,0.0023
3744.00,0.0023
3743.00,0.0023
3742.00,0.0023
3741.00,0.0023
3740.00,0.0023
3739.00,0.0023
3738.00,0.0023
3737.00,0.0023
3736.00,0.0023
3735.00,0.0023
3734.00,0.0022
3733.00,0.0022
3732.00,0.0022
3731.00,0.0023
3730.00,0.0023
3729.00,0.0023
3728.00,0.0023
3727.00,0.0023
3726.00,0.0024
3725.00,0.0024
3724.00,0.0024
3723.00,0.0024
3722.00,0.0024
3721.00,0.0024
3720.00,0.0024
3719.00,0.0024
3718.00,0.0024
3717.00,0.0024
3716.00,0.0024
3715.00,0.0024
3714.00,0.0024
3713.00,0.0024
3712.00,0.0023
3711.00,0.0023
3710.00,0.0022
3709.00,0.0022
3708.00,0.0022
3707.00,0.0023
3706.00,0.0023
3705.00,0.0023
3704.00,0.0023
3703.00,0.0023
3702.00,0.0023
3701.00,0.0023
3700.00,0.0023
3699.00,0.0023
3698.00,0.0023
3697.00,0.0023
3696.00,0.0023
3695.00,0.0024
3694.00,0.0024
3693.00,0.0024
3692.00,0.0024
3691.00,0.0024
3690.00,0.0024
3689.00,0.0024
3688.00,0.0023
3687.00,0.0023
3686.00,0.0024
3685.00,0.0024
3684.00,0.0025
3683.00,0.0025
3682.00,0.0025
3681.00,0.0026
3680.00,0.0026
3679.00,0.0026
3678.00,0.0026
3677.00,0.0026
3676.00,0.0026
3675.00,0.0026
3674.00,0.0027
3673.00,0.0026
3672.00,0.0026
3671.00,0.0026
3670.00,0.0026
3669.00,0.0026
3668.00,0.0026
3667.00,0.0026
3666.00,0.0026
3665.00,0.0026
3664.00,0.0027
3663.00,0.0027
3662.00,0.0027
3661.00,0.0027
3660.00,0.0027
3659.00,0.0027
3658.00,0.0027
3657.00,0.0027
3656.00,0.0028
3655.00,0.0028
3654.00,0.0027
3653.00,0.0027
3652.00,0.0027
3651.00,0.0027
3650.00,0.0027
3649.00,0.0027
3648.00,0.0027
3647.00,0.0027
3646.00,0.0027
3645.00,0.0027
3644.00,0.0028
3643.00,0.0029
3642.00,0.0029
3641.00,0.0030
3640.00,0.0030
3639.00,0.0030
3638.00,0.0030
3637.00,0.0030
3636.00,0.0030
3635.00,0.0030
3634.00,0.0030
3633.00,0.0031
3632.00,0.0031
3631.00,0.0031
3630.00,0.0031
3629.00,0.0031
3628.00,0.0031
3627.00,0.0031
3626.00,0.0031
3625.00,0.0031
3624.00,0.0032
3623.00,0.0031
3622.00,0.0031
3621.00,0.0031
3620.00,0.0031
3619.00,0.0031
3618.00,0.0032
3617.00,0.0033
3616.00,0.0034
3615.00,0.0034
3614.00,0.0035
3613.00,0.0035
3612.00,0.0035
3611.00,0.0035
3610.00,0.0035
3609.00,0.0035
3608.00,0.0035
3607.00,0.0035
3606.00,0.0035
3605.00,0.0035
3604.00,0.0035
3603.00,0.0036
3602.00,0.0036
3601.00,0.0036
3600.00,0.0036
3599.00,0.0036
3598.00,0.0036
3597.00,0.0036
3596.00,0.0037
3595.00,0.0037
3594.00,0.0037
3593.00,0.0037
3592.00,0.0037
3591.00,0.0037
3590.00,0.0037
3589.00,0.0036
3588.00,0.0037
3587.00,0.0037
3586.00,0.0037
3585.00,0.0037
3584.00,0.0037
3583.00,0.0038
3582.00,0.0038
3581.00,0.0039
3580.00,0.0039
3579.00,0.0039
3578.00,0.0039
3577.00,0.0039
3576.00,0.0039
3575.00,0.0040
3574.00,0.0040
3573.00,0.0040
3572.00,0.0040
3571.00,0.0041
3570.00,0.0041
3569.00,0.0041
3568.00,0.0041
3567.00,0.0041
3566.00,0.0041
3565.00,0.0041
3564.00,0.0042
3563.00,0.0042
3562.00,0.0043
3561.00,0.0043
3560.00,0.0044
3559.00,0.0044
3558.00,0.0044
3557.00,0.0045
3556.00,0.0045
3555.00,0.0046
3554.00,0.0046
3553.00,0.0047
3552.00,0.0047
3551.00,0.0047
3550.00,0.0048
3549.00,0.0048
3548.00,0.0049
3547.00,0.0050
3546.00,0.0050
3545.00,0.0051
3544.00,0.0052
3543.00,0.0052
3542.00,0.0053
3541.00,0.0053
3540.00,0.0054
3539.00,0.0054
3538.00,0.0054
3537.00,0.0055
3536.00,0.0055
3535.00,0.0056
3534.00,0.0056
3533.00,0.0056
3532.00,0.0057
3531.00,0.0057
3530.00,0.0058
3529.00,0.0058
3528.00,0.0058
3527.00,0.0059
3526.00,0.0060
3525.00,0.0060
3524.00,0.0061
3523.00,0.0061
3522.00,0.0062
3521.00,0.0062
3520.00,0.0063
3519.00,0.0063
3518.00,0.0063
3517.00,0.0064
3516.00,0.0064
3515.00,0.0065
3514.00,0.0065
3513.00,0.0066
3512.00,0.0066
3511.00,0.0066
3510.00,0.0066
3509.00,0.0067
3508.00,0.0067
3507.00,0.0067
3506.00,0.0067
3505.00,0.0067
3504.00,0.0067
3503.00,0.0067
3502.00,0.0068
3501.00,0.0068
3500.00,0.0068
3499.00,0.0069
3498.00,0.0069
3497.00,0.0069
3496.00,0.0069
3495.00,0.0070
3494.00,0.0070
3493.00,0.0070
3492.00,0.0070
3491.00,0.0071
3490.00,0.0071
3489.00,0.0071
3488.00,0.0072
3487.00,0.0072
3486.00,0.0072
3485.00,0.0072
3484.00,0.0072
3483.00,0.0073
3482.00,0.0073
3481.00,0.0074
3480.00,0.0074
3479.00,0.0074
3478.00,0.0075
3477.00,0.0075
3476.00,0.0076
3475.00,0.0076
3474.00,0.0077
3473.00,0.0077
3472.00,0.0078
3471.00,0.0078
3470.00,0.0079
3469.00,0.0079
3468.00,0.0080
3467.00,0.0080
3466.00,0.0081
3465.00,0.0081
3464.00,0.0082
3463.00,0.0082
3462.00,0.0082
3461.00,0.0083
3460.00,0.0083
3459.00,0.0084
3458.00,0.0085
3457.00,0.0085
3456.00,0.0086
3455.00,0.0086
3454.00,0.0087
3453.00,0.0087
3452.00,0.0088
3451.00,0.0088
3450.00,0.0089
3449.00,0.0090
3448.00,0.0090
3447.00,0.0091
3446.00,0.0092
3445.00,0.0092
3444.00,0.0093
3443.00,0.0094
3442.00,0.0094
3441.00,0.0095
3440.00,0.0096
3439.00,0.0097
3438.00,0.0097
3437.00,0.0098
3436.00,0.0099
3435.00,0.0100
3434.00,0.0101
3433.00,0.0102
3432.00,0.0103
3431.00,0.0103
3430.00,0.0104
3429.00,0.0105
3428.00,0.0106
3427.00,0.0107
3426.00,0.0107
3425.00,0.0108
3424.00,0.0109
3423.00,0.0110
3422.00,0.0111
3421.00,0.0112
3420.00,0.0113
3419.00,0.0114
3418.00,0.0114
3417.00,0.0115
3416.00,0.0116
3415.00,0.0118
3414.00,0.0119
3413.00,0.0120
3412.00,0.0121
3411.00,0.0122
3410.00,0.0123
3409.00,0.0124
3408.00,0.0125
3407.00,0.0126
3406.00,0.0127
3405.00,0.0129
3404.00,0.0130
3403.00,0.0131
3402.00,0.0132
3401.00,0.0132
3400.00,0.0134
3399.00,0.0135
3398.00,0.0136
3397.00,0.0137
3396.00,0.0138
3395.00,0.0139
3394.00,0.0141
3393.00,0.0142
3392.00,0.0143
3391.00,0.0145
3390.00,0.0146
3389.00,0.0148
3388.00,0.0149
3387.00,0.0151
3386.00,0.0152
3385.00,0.0154
3384.00,0.0155
3383.00,0.0157
3382.00,0.0158
3381.00,0.0160
3380.00,0.0161
3379.00,0.0162
3378.00,0.0163
3377.00,0.0165
3376.00,0.0166
3375.00,0.0168
3374.00,0.0169
3373.00,0.0170
3372.00,0.0171
3371.00,0.0172
3370.00,0.0173
3369.00,0.0174
3368.00,0.0176
3367.00,0.0178
3366.00,0.0180
3365.00,0.0183
3364.00,0.0184
3363.00,0.0186
3362.00,0.0187
3361.00,0.0189
3360.00,0.0190
3359.00,0.0192
3358.00,0.0194
3357.00,0.0196
3356.00,0.0197
3355.00,0.0199
3354.00,0.0200
3353.00,0.0201
3352.00,0.0202
3351.00,0.0204
3350.00,0.0206
3349.00,0.0208
3348.00,0.0210
3347.00,0.0211
3346.00,0.0212
3345.00,0.0213
3344.00,0.0214
3343.00,0.0215
3342.00,0.0217
3341.00,0.0218
3340.00,0.0220
3339.00,0.0221
3338.00,0.0223
3337.00,0.0225
3336.00,0.0227
3335.00,0.0229
3334.00,0.0231
3333.00,0.0233
3332.00,0.0235
3331.00,0.0236
3330.00,0.0238
3329.00,0.0239
3328.00,0.0240
3327.00,0.0241
3326.00,0.0243
3325.00,0.0244
3324.00,0.0247
3323.00,0.0249
3322.00,0.0251
3321.00,0.0252
3320.00,0.0254
3319.00,0.0255
3318.00,0.0256
3317.00,0.0258
3316.00,0.0259
3315.00,0.0260
3314.00,0.0261
3313.00,0.0262
3312.00,0.0263
3311.00,0.0263
3310.00,0.0263
3309.00,0.0263
3308.00,0.0263
3307.00,0.0264
3306.00,0.0266
3305.00,0.0268
3304.00,0.0271
3303.00,0.0273
3302.00,0.0276
3301.00,0.0278
3300.00,0.0279
3299.00,0.0279
3298.00,0.0279
3297.00,0.0279
3296.00,0.0279
3295.00,0.0280
3294.00,0.0281
3293.00,0.0282
3292.00,0.0284
3291.00,0.0286
3290.00,0.0288
3289.00,0.0289
3288.00,0.0290
3287.00,0.0291
3286.00,0.0292
3285.00,0.0292
3284.00,0.0293
3283.00,0.0294
3282.00,0.0294
3281.00,0.0295
3280.00,0.0296
3279.00,0.0296
3278.00,0.0297
3277.00,0.0297
3276.00,0.0298
3275.00,0.0298
3274.00,0.0298
3273.00,0.0299
3272.00,0.0299
3271.00,0.0300
3270.00,0.0301
3269.00,0.0302
3268.00,0.0303
3267.00,0.0304
3266.00,0.0305
3265.00,0.0305
3264.00,0.0306
3263.00,0.0307
3262.00,0.0307
3261.00,0.0308
3260.00,0.0308
3259.00,0.0309
3258.00,0.0309
3257.00,0.0310
3256.00,0.0311
3255.00,0.0311
3254.00,0.0312
3253.00,0.0313
3252.00,0.0314
3251.00,0.0314
3250.00,0.0314
3249.00,0.0314
3248.00,0.0315
3247.00,0.0315
3246.00,0.0316
3245.00,0.0317
3244.00,0.0318
3243.00,0.0319
3242.00,0.0320
3241.00,0.0320
3240.00,0.0321
3239.00,0.0321
3238.00,0.0321
3237.00,0.0321
3236.00,0.0320
3235.00,0.0320
3234.00,0.0320
3233.00,0.0320
3232.00,0.0321
3231.00,0.0322
3230.00,0.0323
3229.00,0.0323
3228.00,0.0324
3227.00,0.0324
3226.00,0.0324
3225.00,0.0325
3224.00,0.0325
3223.00,0.0325
3222.00,0.0325
3221.00,0.0325
3220.00,0.0325
3219.00,0.0325
3218.00,0.0325
3217.00,0.0325
3216.00,0.0325
3215.00,0.0325
3214.00,0.0325
3213.00,0.0326
3212.00,0.0326
3211.00,0.0326
3210.00,0.0326
3209.00,0.0326
3208.00,0.0326
3207.00,0.0326
3206.00,0.0326
3205.00,0.0326
3204.00,0.0326
3203.00,0.0326
3202.00,0.0326
3201.00,0.0326
3200.00,0.0326
3199.00,0.0326
3198.00,0.0326
3197.00,0.0326
3196.00,0.0326
3195.00,0.0326
3194.00,0.0326
3193.00,0.0326
3192.00,0.0326
3191.00,0.0325
3190.00,0.0325
3189.00,0.0325
3188.00,0.0325
3187.00,0.0325
3186.00,0.0325
3185.00,0.0325
3184.00,0.0325
3183.00,0.0325
3182.00,0.0325
3181.00,0.0325
3180.00,0.0325
3179.00,0.0325
3178.00,0.0324
3177.00,0.0324
3176.00,0.0324
3175.00,0.0324
3174.00,0.0323
3173.00,0.0323
3172.00,0.0323
3171.00,0.0322
3170.00,0.0321
3169.00,0.0320
3168.00,0.0320
3167.00,0.0319
3166.00,0.0319
3165.00,0.0318
3164.00,0.0317
3163.00,0.0317
3162.00,0.0316
3161.00,0.0315
3160.00,0.0315
3159.00,0.0314
3158.00,0.0313
3157.00,0.0312
3156.00,0.0311
3155.00,0.0310
3154.00,0.0309
3153.00,0.0308
3152.00,0.0308
3151.00,0.0308
3150.00,0.0307
3149.00,0.0307
3148.00,0.0306
3147.00,0.0305
3146.00,0.0304
3145.00,0.0303
3144.00,0.0302
3143.00,0.0301
3142.00,0.0300
3141.00,0.0299
3140.00,0.0298
3139.00,0.0298
3138.00,0.0297
3137.00,0.0297
3136.00,0.0297
3135.00,0.0296
3134.00,0.0296
3133.00,0.0295
3132.00,0.0295
3131.00,0.0294
3130.00,0.0294
3129.00,0.0293
3128.00,0.0293
3127.00,0.0293
3126.00,0.0293
3125.00,0.0292
3124.00,0.0291
3123.00,0.0290
3122.00,0.0290
3121.00,0.0289
3120.00,0.0289
3119.00,0.0288
3118.00,0.0287
3117.00,0.0286
3116.00,0.0285
3115.00,0.0284
3114.00,0.0283
3113.00,0.0282
3112.00,0.0280
3111.00,0.0279
3110.00,0.0278
3109.00,0.0277
3108.00,0.0275
3107.00,0.0274
3106.00,0.0273
3105.00,0.0272
3104.00,0.0271
3103.00,0.0270
3102.00,0.0270
3101.00,0.0269
3100.00,0.0269
3099.00,0.0268
3098.00,0.0268
3097.00,0.0267
3096.00,0.0267
3095.00,0.0267
3094.00,0.0267
3093.00,0.0267
3092.00,0.0267
3091.00,0.0267
3090.00,0.0268
3089.00,0.0268
3088.00,0.0268
3087.00,0.0269
3086.00,0.0269
3085.00,0.0269
3084.00,0.0269
3083.00,0.0270
3082.00,0.0270
3081.00,0.0270
3080.00,0.0270
3079.00,0.0270
3078.00,0.0270
3077.00,0.0269
3076.00,0.0268
3075.00,0.0267
3074.00,0.0266
3073.00,0.0265
3072.00,0.0264
3071.00,0.0262
3070.00,0.0261
3069.00,0.0259
3068.00,0.0258
3067.00,0.0256
3066.00,0.0255
3065.00,0.0254
3064.00,0.0253
3063.00,0.0252
3062.00,0.0250
3061.00,0.0249
3060.00,0.0248
3059.00,0.0247
3058.00,0.0246
3057.00,0.0245
3056.00,0.0245
3055.00,0.0245
3054.00,0.0244
3053.00,0.0244
3052.00,0.0243
3051.00,0.0243
3050.00,0.0242
3049.00,0.0241
3048.00,0.0241
3047.00,0.0240
3046.00,0.0240
3045.00,0.0239
3044.00,0.0238
3043.00,0.0238
3042.00,0.0237
3041.00,0.0237
3040.00,0.0236
3039.00,0.0236
3038.00,0.0236
3037.00,0.0236
3036.00,0.0235
3035.00,0.0235
3034.00,0.0235
3033.00,0.0234
3032.00,0.0234
3031.00,0.0233
3030.00,0.0232
3029.00,0.0231
3028.00,0.0230
3027.00,0.0228
3026.00,0.0227
3025.00,0.0225
3024.00,0.0223
3023.00,0.0222
3022.00,0.0220
3021.00,0.0218
3020.00,0.0217
3019.00,0.0215
3018.00,0.0214
3017.00,0.0213
3016.00,0.0213
3015.00,0.0212
3014.00,0.0212
3013.00,0.0212
3012.00,0.0213
3011.00,0.0214
3010.00,0.0215
3009.00,0.0216
3008.00,0.0218
3007.00,0.0220
3006.00,0.0222
3005.00,0.0225
3004.00,0.0229
3003.00,0.0232
3002.00,0.0237
3001.00,0.0242
3000.00,0.0248
2999.00,0.0254
2998.00,0.0262
2997.00,0.0271
2996.00,0.0280
2995.00,0.0290
2994.00,0.0300
2993.00,0.0312
2992.00,0.0323
2991.00,0.0336
2990.00,0.0348
2989.00,0.0361
2988.00,0.0373
2987.00,0.0385
2986.00,0.0396
2985.00,0.0407
2984.00,0.0416
2983.00,0.0424
2982.00,0.0432
2981.00,0.0439
2980.00,0.0446
2979.00,0.0452
2978.00,0.0457
2977.00,0.0461
2976.00,0.0464
2975.00,0.0468
2974.00,0.0471
2973.00,0.0475
2972.00,0.0480
2971.00,0.0486
2970.00,0.0494
2969.00,0.0502
2968.00,0.0511
2967.00,0.0521
2966.00,0.0531
2965.00,0.0540
2964.00,0.0550
2963.00,0.0560
2962.00,0.0570
2961.00,0.0580
2960.00,0.0589
2959.00,0.0597
2958.00,0.0604
2957.00,0.0609
2956.00,0.0612
2955.00,0.0613
2954.00,0.0612
2953.00,0.0609
2952.00,0.0604
2951.00,0.0598
2950.00,0.0592
2949.00,0.0586
2948.00,0.0581
2947.00,0.0578
2946.00,0.0578
2945.00,0.0581
2944.00,0.0587
2943.00,0.0595
2942.00,0.0605
2941.00,0.0618
2940.00,0.0632
2939.00,0.0647
2938.00,0.0663
2937.00,0.0680
2936.00,0.0697
2935.00,0.0714
2934.00,0.0730
2933.00,0.0746
2932.00,0.0761
2931.00,0.0774
2930.00,0.0785
2929.00,0.0793
2928.00,0.0799
2927.00,0.0802
2926.00,0.0802
2925.00,0.0799
2924.00,0.0793
2923.00,0.0785
2922.00,0.0774
2921.00,0.0762
2920.00,0.0747
2919.00,0.0732
2918.00,0.0715
2917.00,0.0698
2916.00,0.0681
2915.00,0.0664
2914.00,0.0647
2913.00,0.0630
2912.00,0.0613
2911.00,0.0597
2910.00,0.0582
2909.00,0.0568
2908.00,0.0555
2907.00,0.0542
2906.00,0.0530
2905.00,0.0519
2904.00,0.0509
2903.00,0.0500
2902.00,0.0492
2901.00,0.0485
2900.00,0.0478
2899.00,0.0471
2898.00,0.0465
2897.00,0.0460
2896.00,0.0455
2895.00,0.0451
2894.00,0.0446
2893.00,0.0441
2892.00,0.0437
2891.00,0.0432
2890.00,0.0427
2889.00,0.0423
2888.00,0.0419
2887.00,0.0416
2886.00,0.0413
2885.00,0.0410
2884.00,0.0409
2883.00,0.0408
2882.00,0.0408
2881.00,0.0410
2880.00,0.0414
2879.00,0.0419
2878.00,0.0425
2877.00,0.0433
2876.00,0.0442
2875.00,0.0451
2874.00,0.0461
2873.00,0.0470
2872.00,0.0478
2871.00,0.0485
2870.00,0.0488
2869.00,0.0490
2868.00,0.0491
2867.00,0.0491
2866.00,0.0493
2865.00,0.0496
2864.00,0.0502
2863.00,0.0509
2862.00,0.0518
2861.00,0.0527
2860.00,0.0536
2859.00,0.0544
2858.00,0.0549
2857.00,0.0550
2856.00,0.0547
2855.00,0.0541
2854.00,0.0530
2853.00,0.0517
2852.00,0.0502
2851.00,0.0485
2850.00,0.0467
2849.00,0.0449
2848.00,0.0430
2847.00,0.0412
2846.00,0.0394
2845.00,0.0376
2844.00,0.0358
2843.00,0.0341
2842.00,0.0325
2841.00,0.0310
2840.00,0.0296
2839.00,0.0284
2838.00,0.0274
2837.00,0.0265
2836.00,0.0258
2835.00,0.0251
2834.00,0.0244
2833.00,0.0238
2832.00,0.0233
2831.00,0.0228
2830.00,0.0223
2829.00,0.0218
2828.00,0.0214
2827.00,0.0209
2826.00,0.0205
2825.00,0.0201
2824.00,0.0197
2823.00,0.0194
2822.00,0.0190
2821.00,0.0187
2820.00,0.0184
2819.00,0.0181
2818.00,0.0179
2817.00,0.0176
2816.00,0.0174
2815.00,0.0171
2814.00,0.0169
2813.00,0.0167
2812.00,0.0165
2811.00,0.0164
2810.00,0.0162
2809.00,0.0161
2808.00,0.0160
2807.00,0.0158
2806.00,0.0157
2805.00,0.0156
2804.00,0.0154
2803.00,0.0153
2802.00,0.0151
2801.00,0.0150
2800.00,0.0148
2799.00,0.0147
2798.00,0.0146
2797.00,0.0145
2796.00,0.0144
2795.00,0.0143
2794.00,0.0142
2793.00,0.0141
2792.00,0.0139
2791.00,0.0138
2790.00,0.0138
2789.00,0.0137
2788.00,0.0137
2787.00,0.0136
2786.00,0.0135
2785.00,0.0135
2784.00,0.0134
2783.00,0.0133
2782.00,0.0132
2781.00,0.0131
2780.00,0.0130
2779.00,0.0130
2778.00,0.0129
2777.00,0.0128
2776.00,0.0127
2775.00,0.0127
2774.00,0.0126
2773.00,0.0126
2772.00,0.0126
2771.00,0.0126
2770.00,0.0125
2769.00,0.0125
2768.00,0.0124
2767.00,0.0124
2766.00,0.0124
2765.00,0.0124
2764.00,0.0124
2763.00,0.0124
2762.00,0.0124
2761.00,0.0124
2760.00,0.0124
2759.00,0.0124
2758.00,0.0124
2757.00,0.0124
2756.00,0.0125
2755.00,0.0125
2754.00,0.0125
2753.00,0.0126
2752.00,0.0126
2751.00,0.0126
2750.00,0.0126
2749.00,0.0126
2748.00,0.0126
2747.00,0.0127
2746.00,0.0127
2745.00,0.0128
2744.00,0.0128
2743.00,0.0128
2742.00,0.0129
2741.00,0.0129
2740.00,0.0129
2739.00,0.0130
2738.00,0.0130
2737.00,0.0131
2736.00,0.0132
2735.00,0.0132
2734.00,0.0133
2733.00,0.0133
2732.00,0.0133
2731.00,0.0133
2730.00,0.0133
2729.00,0.0132
2728.00,0.0131
2727.00,0.0131
2726.00,0.0130
2725.00,0.0130
2724.00,0.0129
2723.00,0.0128
2722.00,0.0127
2721.00,0.0127
2720.00,0.0126
2719.00,0.0126
2718.00,0.0125
2717.00,0.0124
2716.00,0.0124
2715.00,0.0123
2714.00,0.0122
2713.00,0.0122
2712.00,0.0121
2711.00,0.0121
2710.00,0.0120
2709.00,0.0120
2708.00,0.0119
2707.00,0.0119
2706.00,0.0118
2705.00,0.0117
2704.00,0.0117
2703.00,0.0117
2702.00,0.0116
2701.00,0.0116
2700.00,0.0115
2699.00,0.0114
2698.00,0.0114
2697.00,0.0113
2696.00,0.0112
2695.00,0.0112
2694.00,0.0111
2693.00,0.0111
2692.00,0.0110
2691.00,0.0110
2690.00,0.0109
2689.00,0.0109
2688.00,0.0109
2687.00,0.0108
2686.00,0.0108
2685.00,0.0108
2684.00,0.0108
2683.00,0.0107
2682.00,0.0107
2681.00,0.0106
2680.00,0.0106
2679.00,0.0106
2678.00,0.0106
2677.00,0.0106
2676.00,0.0106
2675.00,0.0106
2674.00,0.0106
2673.00,0.0106
2672.00,0.0106
2671.00,0.0106
2670.00,0.0106
2669.00,0.0106
2668.00,0.0106
2667.00,0.0106
2666.00,0.0106
2665.00,0.0107
2664.00,0.0107
2663.00,0.0107
2662.00,0.0107
2661.00,0.0107
2660.00,0.0107
2659.00,0.0106
2658.00,0.0106
2657.00,0.0106
2656.00,0.0105
2655.00,0.0105
2654.00,0.0105
2653.00,0.0104
2652.00,0.0104
2651.00,0.0104
2650.00,0.0103
2649.00,0.0103
2648.00,0.0103
2647.00,0.0102
2646.00,0.0102
2645.00,0.0102
2644.00,0.0102
2643.00,0.0101
2642.00,0.0101
2641.00,0.0100
2640.00,0.0100
2639.00,0.0099
2638.00,0.0099
2637.00,0.0098
2636.00,0.0097
2635.00,0.0097
2634.00,0.0097
2633.00,0.0096
2632.00,0.0096
2631.00,0.0096
2630.00,0.0096
2629.00,0.0095
2628.00,0.0095
2627.00,0.0094
2626.00,0.0094
2625.00,0.0094
2624.00,0.0094
2623.00,0.0094
2622.00,0.0093
2621.00,0.0093
2620.00,0.0093
2619.00,0.0093
2618.00,0.0092
2617.00,0.0092
2616.00,0.0093
2615.00,0.0093
2614.00,0.0093
2613.00,0.0093
2612.00,0.0092
2611.00,0.0092
2610.00,0.0092
2609.00,0.0091
2608.00,0.0091
2607.00,0.0091
2606.00,0.0091
2605.00,0.0091
2604.00,0.0091
2603.00,0.0091
2602.00,0.0090
2601.00,0.0090
2600.00,0.0090
2599.00,0.0089
2598.00,0.0089
2597.00,0.0089
2596.00,0.0089
2595.00,0.0089
2594.00,0.0088
2593.00,0.0088
2592.00,0.0088
2591.00,0.0088
2590.00,0.0087
2589.00,0.0087
2588.00,0.0087
2587.00,0.0087
2586.00,0.0087
2585.00,0.0086
2584.00,0.0087
2583.00,0.0087
2582.00,0.0086
2581.00,0.0086
2580.00,0.0086
2579.00,0.0086
2578.00,0.0085
2577.00,0.0085
2576.00,0.0085
2575.00,0.0085
2574.00,0.0085
2573.00,0.0085
2572.00,0.0084
2571.00,0.0084
2570.00,0.0084
2569.00,0.0084
2568.00,0.0083
2567.00,0.0083
2566.00,0.0083
2565.00,0.0082
2564.00,0.0082
2563.00,0.0082
2562.00,0.0081
2561.00,0.0081
2560.00,0.0081
2559.00,0.0081
2558.00,0.0080
2557.00,0.0080
2556.00,0.0080
2555.00,0.0080
2554.00,0.0080
2553.00,0.0080
2552.00,0.0079
2551.00,0.0079
2550.00,0.0078
2549.00,0.0078
2548.00,0.0078
2547.00,0.0077
2546.00,0.0077
2545.00,0.0077
2544.00,0.0077
2543.00,0.0077
2542.00,0.0077
2541.00,0.0076
2540.00,0.0076
2539.00,0.0076
2538.00,0.0076
2537.00,0.0075
2536.00,0.0075
2535.00,0.0074
2534.00,0.0074
2533.00,0.0073
2532.00,0.0073
2531.00,0.0072
2530.00,0.0072
2529.00,0.0072
2528.00,0.0071
2527.00,0.0070
2526.00,0.0069
2525.00,0.0069
2524.00,0.0068
2523.00,0.0067
2522.00,0.0066
2521.00,0.0065
2520.00,0.0065
2519.00,0.0065
2518.00,0.0065
2517.00,0.0064
2516.00,0.0064
2515.00,0.0063
2514.00,0.0063
2513.00,0.0062
2512.00,0.0062
2511.00,0.0061
2510.00,0.0061
2509.00,0.0061
2508.00,0.0060
2507.00,0.0060
2506.00,0.0060
2505.00,0.0059
2504.00,0.0059
2503.00,0.0059
2502.00,0.0058
2501.00,0.0058
2500.00,0.0058
2499.00,0.0058
2498.00,0.0058
2497.00,0.0058
2496.00,0.0058
2495.00,0.0058
2494.00,0.0057
2493.00,0.0057
2492.00,0.0057
2491.00,0.0056
2490.00,0.0056
2489.00,0.0056
2488.00,0.0056
2487.00,0.0056
2486.00,0.0056
2485.00,0.0056
2484.00,0.0056
2483.00,0.0056
2482.00,0.0056
2481.00,0.0056
2480.00,0.0056
2479.00,0.0056
2478.00,0.0055
2477.00,0.0055
2476.00,0.0055
2475.00,0.0055
2474.00,0.0054
2473.00,0.0054
2472.00,0.0054
2471.00,0.0054
2470.00,0.0054
2469.00,0.0054
2468.00,0.0053
2467.00,0.0053
2466.00,0.0053
2465.00,0.0053
2464.00,0.0053
2463.00,0.0053
2462.00,0.0053
2461.00,0.0053
2460.00,0.0054
2459.00,0.0054
2458.00,0.0055
2457.00,0.0055
2456.00,0.0055
2455.00,0.0055
2454.00,0.0054
2453.00,0.0054
2452.00,0.0054
2451.00,0.0053
2450.00,0.0053
2449.00,0.0052
2448.00,0.0052
2447.00,0.0052
2446.00,0.0052
2445.00,0.0052
2444.00,0.0052
2443.00,0.0052
2442.00,0.0052
2441.00,0.0052
2440.00,0.0051
2439.00,0.0051
2438.00,0.0050
2437.00,0.0050
2436.00,0.0050
2435.00,0.0050
2434.00,0.0050
2433.00,0.0050
2432.00,0.0050
2431.00,0.0050
2430.00,0.0049
2429.00,0.0049
2428.00,0.0049
2427.00,0.0049
2426.00,0.0049
2425.00,0.0049
2424.00,0.0049
2423.00,0.0049
2422.00,0.0049
2421.00,0.0049
2420.00,0.0049
2419.00,0.0049
2418.00,0.0049
2417.00,0.0048
2416.00,0.0048
2415.00,0.0048
2414.00,0.0048
2413.00,0.0048
2412.00,0.0049
2411.00,0.0049
2410.00,0.0048
2409.00,0.0048
2408.00,0.0047
2407.00,0.0047
2406.00,0.0046
2405.00,0.0046
2404.00,0.0046
2403.00,0.0046
2402.00,0.0046
2401.00,0.0046
2400.00,0.0046
2399.00,0.0046
2398.00,0.0046
2397.00,0.0046
2396.00,0.0046
2395.00,0.0046
2394.00,0.0046
2393.00,0.0046
2392.00,0.0046
2391.00,0.0045
2390.00,0.0045
2389.00,0.0044
2388.00,0.0044
2387.00,0.0044
2386.00,0.0043
2385.00,0.0042
2384.00,0.0042
2383.00,0.0041
2382.00,0.0040
2381.00,0.0040
2380.00,0.0039
2379.00,0.0040
2378.00,0.0040
2377.00,0.0040
2376.00,0.0041
2375.00,0.0041
2374.00,0.0040
2373.00,0.0040
2372.00,0.0040
2371.00,0.0040
2370.00,0.0039
2369.00,0.0039
2368.00,0.0038
2367.00,0.0038
2366.00,0.0038
2365.00,0.0038
2364.00,0.0039
2363.00,0.0039
2362.00,0.0040
2361.00,0.0040
2360.00,0.0041
2359.00,0.0040
2358.00,0.0040
2357.00,0.0040
2356.00,0.0040
2355.00,0.0040
2354.00,0.0040
2353.00,0.0040
2352.00,0.0039
2351.00,0.0039
2350.00,0.0040
2349.00,0.0041
2348.00,0.0043
2347.00,0.0044
2346.00,0.0043
2345.00,0.0043
2344.00,0.0043
2343.00,0.0043
2342.00,0.0043
2341.00,0.0043
2340.00,0.0044
2339.00,0.0044
2338.00,0.0044
2337.00,0.0044
2336.00,0.0043
2335.00,0.0043
2334.00,0.0042
2333.00,0.0042
2332.00,0.0041
2331.00,0.0041
2330.00,0.0042
2329.00,0.0045
2328.00,0.0049
2327.00,0.0053
2326.00,0.0056
2325.00,0.0057
2324.00,0.0056
2323.00,0.0053
2322.00,0.0051
2321.00,0.0050
2320.00,0.0049
2319.00,0.0049
2318.00,0.0049
2317.00,0.0048
2316.00,0.0048
2315.00,0.0047
2314.00,0.0046
2313.00,0.0045
2312.00,0.0045
2311.00,0.0044
2310.00,0.0043
2309.00,0.0043
2308.00,0.0043
2307.00,0.0044
2306.00,0.0044
2305.00,0.0044
2304.00,0.0044
2303.00,0.0045
2302.00,0.0045
2301.00,0.0046
2300.00,0.0046
2299.00,0.0047
2298.00,0.0048
2297.00,0.0048
2296.00,0.0048
2295.00,0.0049
2294.00,0.0050
2293.00,0.0051
2292.00,0.0053
2291.00,0.0054
2290.00,0.0054
2289.00,0.0054
2288.00,0.0054
2287.00,0.0054
2286.00,0.0054
2285.00,0.0053
2284.00,0.0052
2283.00,0.0051
2282.00,0.0050
2281.00,0.0049
2280.00,0.0049
2279.00,0.0048
2278.00,0.0047
2277.00,0.0046
2276.00,0.0046
2275.00,0.0046
2274.00,0.0046
2273.00,0.0046
2272.00,0.0045
2271.00,0.0044
2270.00,0.0043
2269.00,0.0043
2268.00,0.0042
2267.00,0.0042
2266.00,0.0041
2265.00,0.0040
2264.00,0.0040
2263.00,0.0040
2262.00,0.0040
2261.00,0.0041
2260.00,0.0042
2259.00,0.0042
2258.00,0.0041
2257.00,0.0039
2256.00,0.0038
2255.00,0.0037
2254.00,0.0037
2253.00,0.0037
2252.00,0.0039
2251.00,0.0039
2250.00,0.0040
2249.00,0.0040
2248.00,0.0041
2247.00,0.0041
2246.00,0.0041
2245.00,0.0041
2244.00,0.0042
2243.00,0.0042
2242.00,0.0042
2241.00,0.0042
2240.00,0.0042
2239.00,0.0041
2238.00,0.0041
2237.00,0.0041
2236.00,0.0041
2235.00,0.0041
2234.00,0.0040
2233.00,0.0039
2232.00,0.0039
2231.00,0.0039
2230.00,0.0039
2229.00,0.0040
2228.00,0.0040
2227.00,0.0040
2226.00,0.0040
2225.00,0.0040
2224.00,0.0040
2223.00,0.0039
2222.00,0.0039
2221.00,0.0038
2220.00,0.0039
2219.00,0.0039
2218.00,0.0039
2217.00,0.0038
2216.00,0.0038
2215.00,0.0038
2214.00,0.0039
2213.00,0.0039
2212.00,0.0039
2211.00,0.0039
2210.00,0.0039
2209.00,0.0038
2208.00,0.0039
2207.00,0.0039
2206.00,0.0038
2205.00,0.0039
2204.00,0.0039
2203.00,0.0039
2202.00,0.0038
2201.00,0.0038
2200.00,0.0039
2199.00,0.0039
2198.00,0.0039
2197.00,0.0038
2196.00,0.0038
2195.00,0.0036
2194.00,0.0035
2193.00,0.0034
2192.00,0.0035
2191.00,0.0036
2190.00,0.0037
2189.00,0.0039
2188.00,0.0042
2187.00,0.0043
2186.00,0.0043
2185.00,0.0041
2184.00,0.0039
2183.00,0.0036
2182.00,0.0034
2181.00,0.0034
2180.00,0.0036
2179.00,0.0036
2178.00,0.0036
2177.00,0.0034
2176.00,0.0033
2175.00,0.0031
2174.00,0.0031
2173.00,0.0033
2172.00,0.0036
2171.00,0.0039
2170.00,0.0041
2169.00,0.0042
2168.00,0.0043
2167.00,0.0044
2166.00,0.0044
2165.00,0.0046
2164.00,0.0050
2163.00,0.0051
2162.00,0.0046
2161.00,0.0035
2160.00,0.0020
2159.00,0.0007
2158.00,-0.0000
2157.00,-0.0001
2156.00,0.0002
2155.00,0.0005
2154.00,0.0007
2153.00,0.0010
2152.00,0.0011
2151.00,0.0012
2150.00,0.0012
2149.00,0.0013
2148.00,0.0013
2147.00,0.0013
2146.00,0.0013
2145.00,0.0013
2144.00,0.0014
2143.00,0.0015
2142.00,0.0015
2141.00,0.0016
2140.00,0.0016
2139.00,0.0015
2138.00,0.0014
2137.00,0.0012
2136.00,0.0010
2135.00,0.0008
2134.00,0.0007
2133.00,0.0008
2132.00,0.0010
2131.00,0.0011
2130.00,0.0012
2129.00,0.0014
2128.00,0.0015
2127.00,0.0017
2126.00,0.0018
2125.00,0.0019
2124.00,0.0020
2123.00,0.0022
2122.00,0.0023
2121.00,0.0024
2120.00,0.0025
2119.00,0.0025
2118.00,0.0026
2117.00,0.0027
2116.00,0.0028
2115.00,0.0028
2114.00,0.0027
2113.00,0.0027
2112.00,0.0028
2111.00,0.0028
2110.00,0.0027
2109.00,0.0027
2108.00,0.0027
2107.00,0.0027
2106.00,0.0027
2105.00,0.0028
2104.00,0.0029
2103.00,0.0029
2102.00,0.0028
2101.00,0.0029
2100.00,0.0029
2099.00,0.0029
2098.00,0.0028
2097.00,0.0027
2096.00,0.0026
2095.00,0.0025
2094.00,0.0025
2093.00,0.0026
2092.00,0.0027
2091.00,0.0028
2090.00,0.0028
2089.00,0.0029
2088.00,0.0031
2087.00,0.0032
2086.00,0.0033
2085.00,0.0033
2084.00,0.0034
2083.00,0.0034
2082.00,0.0033
2081.00,0.0033
2080.00,0.0032
2079.00,0.0032
2078.00,0.0031
2077.00,0.0031
2076.00,0.0031
2075.00,0.0032
2074.00,0.0032
2073.00,0.0033
2072.00,0.0034
2071.00,0.0034
2070.00,0.0033
2069.00,0.0033
2068.00,0.0033
2067.00,0.0032
2066.00,0.0032
2065.00,0.0031
2064.00,0.0031
2063.00,0.0030
2062.00,0.0029
2061.00,0.0028
2060.00,0.0029
2059.00,0.0029
2058.00,0.0029
2057.00,0.0029
2056.00,0.0028
2055.00,0.0028
2054.00,0.0031
2053.00,0.0036
2052.00,0.0040
2051.00,0.0041
2050.00,0.0037
2049.00,0.0033
2048.00,0.0032
2047.00,0.0033
2046.00,0.0034
2045.00,0.0035
2044.00,0.0036
2043.00,0.0037
2042.00,0.0036
2041.00,0.0036
2040.00,0.0036
2039.00,0.0034
2038.00,0.0032
2037.00,0.0030
2036.00,0.0029
2035.00,0.0028
2034.00,0.0027
2033.00,0.0027
2032.00,0.0029
2031.00,0.0030
2030.00,0.0029
2029.00,0.0028
2028.00,0.0028
2027.00,0.0026
2026.00,0.0025
2025.00,0.0025
2024.00,0.0026
2023.00,0.0027
2022.00,0.0028
2021.00,0.0028
2020.00,0.0029
2019.00,0.0029
2018.00,0.0027
2017.00,0.0026
2016.00,0.0026
2015.00,0.0025
2014.00,0.0024
2013.00,0.0024
2012.00,0.0025
2011.00,0.0025
2010.00,0.0023
2009.00,0.0021
2008.00,0.0018
2007.00,0.0015
2006.00,0.0014
2005.00,0.0015
2004.00,0.0018
2003.00,0.0020
2002.00,0.0021
2001.00,0.0022
2000.00,0.0025
1999.00,0.0026
1998.00,0.0026
1997.00,0.0027
1996.00,0.0028
1995.00,0.0030
1994.00,0.0030
1993.00,0.0031
1992.00,0.0032
1991.00,0.0032
1990.00,0.0031
1989.00,0.0031
1988.00,0.0031
1987.00,0.0031
1986.00,0.0032
1985.00,0.0035
1984.00,0.0038
1983.00,0.0041
1982.00,0.0042
1981.00,0.0041
1980.00,0.0039
1979.00,0.0032
1978.00,0.0025
1977.00,0.0021
1976.00,0.0020
1975.00,0.0020
1974.00,0.0018
1973.00,0.0018
1972.00,0.0018
1971.00,0.0019
1970.00,0.0019
1969.00,0.0021
1968.00,0.0023
1967.00,0.0023
1966.00,0.0021
1965.00,0.0021
1964.00,0.0022
1963.00,0.0023
1962.00,0.0022
1961.00,0.0022
1960.00,0.0021
1959.00,0.0020
1958.00,0.0019
1957.00,0.0021
1956.00,0.0024
1955.00,0.0025
1954.00,0.0024
1953.00,0.0022
1952.00,0.0022
1951.00,0.0022
1950.00,0.0022
1949.00,0.0023
1948.00,0.0025
1947.00,0.0026
1946.00,0.0027
1945.00,0.0027
1944.00,0.0029
1943.00,0.0029
1942.00,0.0028
1941.00,0.0027
1940.00,0.0027
1939.00,0.0027
1938.00,0.0027
1937.00,0.0028
1936.00,0.0029
1935.00,0.0029
1934.00,0.0029
1933.00,0.0029
1932.00,0.0029
1931.00,0.0030
1930.00,0.0030
1929.00,0.0029
1928.00,0.0030
1927.00,0.0030
1926.00,0.0030
1925.00,0.0031
1924.00,0.0033
1923.00,0.0034
1922.00,0.0035
1921.00,0.0035
1920.00,0.0036
1919.00,0.0036
1918.00,0.0036
1917.00,0.0035
1916.00,0.0035
1915.00,0.0034
1914.00,0.0034
1913.00,0.0035
1912.00,0.0037
1911.00,0.0038
1910.00,0.0038
1909.00,0.0039
1908.00,0.0040
1907.00,0.0040
1906.00,0.0039
1905.00,0.0039
1904.00,0.0040
1903.00,0.0040
1902.00,0.0040
1901.00,0.0041
1900.00,0.0042
1899.00,0.0042
1898.00,0.0042
1897.00,0.0042
1896.00,0.0043
1895.00,0.0043
1894.00,0.0043
1893.00,0.0043
1892.00,0.0044
1891.00,0.0044
1890.00,0.0043
1889.00,0.0043
1888.00,0.0042
1887.00,0.0042
1886.00,0.0041
1885.00,0.0041
1884.00,0.0041
1883.00,0.0041
1882.00,0.0041
1881.00,0.0040
1880.00,0.0040
1879.00,0.0040
1878.00,0.0038
1877.00,0.0038
1876.00,0.0038
1875.00,0.0038
1874.00,0.0038
1873.00,0.0037
1872.00,0.0038
1871.00,0.0038
1870.00,0.0039
1869.00,0.0040
1868.00,0.0040
1867.00,0.0040
1866.00,0.0039
1865.00,0.0038
1864.00,0.0038
1863.00,0.0038
1862.00,0.0038
1861.00,0.0038
1860.00,0.0039
1859.00,0.0040
1858.00,0.0040
1857.00,0.0040
1856.00,0.0040
1855.00,0.0040
1854.00,0.0040
1853.00,0.0040
1852.00,0.0040
1851.00,0.0041
1850.00,0.0041
1849.00,0.0042
1848.00,0.0042
1847.00,0.0043
1846.00,0.0043
1845.00,0.0044
1844.00,0.0045
1843.00,0.0045
1842.00,0.0044
1841.00,0.0042
1840.00,0.0042
1839.00,0.0042
1838.00,0.0041
1837.00,0.0041
1836.00,0.0041
1835.00,0.0041
1834.00,0.0040
1833.00,0.0040
1832.00,0.0040
1831.00,0.0041
1830.00,0.0041
1829.00,0.0041
1828.00,0.0041
1827.00,0.0041
1826.00,0.0041
1825.00,0.0041
1824.00,0.0041
1823.00,0.0041
1822.00,0.0040
1821.00,0.0039
1820.00,0.0038
1819.00,0.0038
1818.00,0.0037
1817.00,0.0036
1816.00,0.0037
1815.00,0.0038
1814.00,0.0039
1813.00,0.0040
1812.00,0.0041
1811.00,0.0042
1810.00,0.0042
1809.00,0.0041
1808.00,0.0041
1807.00,0.0041
1806.00,0.0041
1805.00,0.0041
1804.00,0.0042
1803.00,0.0044
1802.00,0.0045
1801.00,0.0045
1800.00,0.0046
1799.00,0.0046
1798.00,0.0046
1797.00,0.0046
1796.00,0.0046
1795.00,0.0047
1794.00,0.0048
1793.00,0.0049
1792.00,0.0050
1791.00,0.0050
1790.00,0.0049
1789.00,0.0048
1788.00,0.0047
1787.00,0.0047
1786.00,0.0047
1785.00,0.0048
1784.00,0.0049
1783.00,0.0049
1782.00,0.0049
1781.00,0.0050
1780.00,0.0050
1779.00,0.0050
1778.00,0.0049
1777.00,0.0049
1776.00,0.0050
1775.00,0.0052
1774.00,0.0054
1773.00,0.0056
1772.00,0.0057
1771.00,0.0057
1770.00,0.0056
1769.00,0.0055
1768.00,0.0055
1767.00,0.0055
1766.00,0.0054
1765.00,0.0054
1764.00,0.0054
1763.00,0.0055
1762.00,0.0056
1761.00,0.0056
1760.00,0.0057
1759.00,0.0057
1758.00,0.0057
1757.00,0.0058
1756.00,0.0058
1755.00,0.0058
1754.00,0.0058
1753.00,0.0059
1752.00,0.0061
1751.00,0.0064
1750.00,0.0065
1749.00,0.0066
1748.00,0.0066
1747.00,0.0066
1746.00,0.0065
1745.00,0.0065
1744.00,0.0066
1743.00,0.0067
1742.00,0.0066
1741.00,0.0067
1740.00,0.0068
1739.00,0.0069
1738.00,0.0069
1737.00,0.0069
1736.00,0.0071
1735.00,0.0075
1734.00,0.0079
1733.00,0.0081
1732.00,0.0083
1731.00,0.0083
1730.00,0.0083
1729.00,0.0084
1728.00,0.0085
1727.00,0.0087
1726.00,0.0088
1725.00,0.0090
1724.00,0.0093
1723.00,0.0096
1722.00,0.0097
1721.00,0.0098
1720.00,0.0102
1719.00,0.0106
1718.00,0.0111
1717.00,0.0115
1716.00,0.0119
1715.00,0.0121
1714.00,0.0122
1713.00,0.0124
1712.00,0.0128
1711.00,0.0132
1710.00,0.0137
1709.00,0.0143
1708.00,0.0152
1707.00,0.0163
1706.00,0.0175
1705.00,0.0188
1704.00,0.0200
1703.00,0.0210
1702.00,0.0224
1701.00,0.0250
1700.00,0.0287
1699.00,0.0319
1698.00,0.0343
1697.00,0.0374
1696.00,0.0420
1695.00,0.0470
1694.00,0.0511
1693.00,0.0546
1692.00,0.0583
1691.00,0.0625
1690.00,0.0670
1689.00,0.0715
1688.00,0.0752
1687.00,0.0780
1686.00,0.0808
1685.00,0.0848
1684.00,0.0896
1683.00,0.0930
1682.00,0.0945
1681.00,0.0953
1680.00,0.0962
1679.00,0.0970
1678.00,0.0978
1677.00,0.0991
1676.00,0.1015
1675.00,0.1050
1674.00,0.1085
1673.00,0.1116
1672.00,0.1152
1671.00,0.1202
1670.00,0.1271
1669.00,0.1352
1668.00,0.1426
1667.00,0.1483
1666.00,0.1529
1665.00,0.1576
1664.00,0.1632
1663.00,0.1697
1662.00,0.1757
1661.00,0.1801
1660.00,0.1831
1659.00,0.1850
1658.00,0.1859
1657.00,0.1860
1656.00,0.1854
1655.00,0.1845
1654.00,0.1839
1653.00,0.1831
1652.00,0.1807
1651.00,0.1765
1650.00,0.1715
1649.00,0.1660
1648.00,0.1597
1647.00,0.1523
1646.00,0.1441
1645.00,0.1363
1644.00,0.1291
1643.00,0.1221
1642.00,0.1152
1641.00,0.1086
1640.00,0.1025
1639.00,0.0971
1638.00,0.0921
1637.00,0.0874
1636.00,0.0829
1635.00,0.0789
1634.00,0.0758
1633.00,0.0737
1632.00,0.0723
1631.00,0.0716
1630.00,0.0720
1629.00,0.0739
1628.00,0.0775
1627.00,0.0821
1626.00,0.0874
1625.00,0.0939
1624.00,0.1026
1623.00,0.1124
1622.00,0.1209
1621.00,0.1267
1620.00,0.1301
1619.00,0.1318
1618.00,0.1319
1617.00,0.1302
1616.00,0.1273
1615.00,0.1240
1614.00,0.1208
1613.00,0.1183
1612.00,0.1165
1611.00,0.1150
1610.00,0.1130
1609.00,0.1100
1608.00,0.1055
1607.00,0.0998
1606.00,0.0931
1605.00,0.0860
1604.00,0.0789
1603.00,0.0723
1602.00,0.0664
1601.00,0.0614
1600.00,0.0574
1599.00,0.0545
1598.00,0.0527
1597.00,0.0519
1596.00,0.0524
1595.00,0.0543
1594.00,0.0577
1593.00,0.0627
1592.00,0.0694
1591.00,0.0775
1590.00,0.0867
1589.00,0.0962
1588.00,0.1051
1587.00,0.1125
1586.00,0.1174
1585.00,0.1193
1584.00,0.1181
1583.00,0.1143
1582.00,0.1085
1581.00,0.1015
1580.00,0.0946
1579.00,0.0884
1578.00,0.0825
1577.00,0.0770
1576.00,0.0719
1575.00,0.0678
1574.00,0.0646
1573.00,0.0619
1572.00,0.0596
1571.00,0.0573
1570.00,0.0550
1569.00,0.0525
1568.00,0.0502
1567.00,0.0482
1566.00,0.0462
1565.00,0.0443
1564.00,0.0425
1563.00,0.0409
1562.00,0.0396
1561.00,0.0384
1560.00,0.0376
1559.00,0.0366
1558.00,0.0354
1557.00,0.0341
1556.00,0.0331
1555.00,0.0322
1554.00,0.0315
1553.00,0.0308
1552.00,0.0302
1551.00,0.0297
1550.00,0.0292
1549.00,0.0287
1548.00,0.0283
1547.00,0.0279
1546.00,0.0277
1545.00,0.0276
1544.00,0.0275
1543.00,0.0274
1542.00,0.0273
1541.00,0.0274
1540.00,0.0273
1539.00,0.0270
1538.00,0.0266
1537.00,0.0262
1536.00,0.0259
1535.00,0.0258
1534.00,0.0260
1533.00,0.0262
1532.00,0.0263
1531.00,0.0263
1530.00,0.0263
1529.00,0.0266
1528.00,0.0271
1527.00,0.0277
1526.00,0.0284
1525.00,0.0291
1524.00,0.0298
1523.00,0.0308
1522.00,0.0323
1521.00,0.0340
1520.00,0.0355
1519.00,0.0366
1518.00,0.0379
1517.00,0.0394
1516.00,0.0407
1515.00,0.0416
1514.00,0.0421
1513.00,0.0425
1512.00,0.0428
1511.00,0.0430
1510.00,0.0431
1509.00,0.0431
1508.00,0.0433
1507.00,0.0436
1506.00,0.0437
1505.00,0.0439
1504.00,0.0444
1503.00,0.0453
1502.00,0.0471
1501.00,0.0500
1500.00,0.0541
1499.00,0.0591
1498.00,0.0646
1497.00,0.0695
1496.00,0.0725
1495.00,0.0731
1494.00,0.0719
1493.00,0.0696
1492.00,0.0665
1491.00,0.0627
1490.00,0.0585
1489.00,0.0541
1488.00,0.0499
1487.00,0.0462
1486.00,0.0429
1485.00,0.0402
1484.00,0.0381
1483.00,0.0364
1482.00,0.0351
1481.00,0.0343
1480.00,0.0338
1479.00,0.0336
1478.00,0.0337
1477.00,0.0342
1476.00,0.0351
1475.00,0.0364
1474.00,0.0384
1473.00,0.0419
1472.00,0.0467
1471.00,0.0517
1470.00,0.0567
1469.00,0.0619
1468.00,0.0675
1467.00,0.0735
1466.00,0.0804
1465.00,0.0878
1464.00,0.0944
1463.00,0.0988
1462.00,0.1012
1461.00,0.1023
1460.00,0.1023
1459.00,0.1012
1458.00,0.0990
1457.00,0.0958
1456.00,0.0921
1455.00,0.0888
1454.00,0.0861
1453.00,0.0842
1452.00,0.0831
1451.00,0.0830
1450.00,0.0841
1449.00,0.0865
1448.00,0.0902
1447.00,0.0945
1446.00,0.0986
1445.00,0.1025
1444.00,0.1061
1443.00,0.1093
1442.00,0.1121
1441.00,0.1143
1440.00,0.1159
1439.00,0.1172
1438.00,0.1191
1437.00,0.1221
1436.00,0.1256
1435.00,0.1283
1434.00,0.1301
1433.00,0.1317
1432.00,0.1336
1431.00,0.1358
1430.00,0.1382
1429.00,0.1405
1428.00,0.1424
1427.00,0.1437
1426.00,0.1446
1425.00,0.1455
1424.00,0.1461
1423.00,0.1457
1422.00,0.1441
1421.00,0.1415
1420.00,0.1376
1419.00,0.1322
1418.00,0.1262
1417.00,0.1205
1416.00,0.1155
1415.00,0.1114
1414.00,0.1083
1413.00,0.1065
1412.00,0.1061
1411.00,0.1069
1410.00,0.1090
1409.00,0.1119
1408.00,0.1156
1407.00,0.1200
1406.00,0.1253
1405.00,0.1313
1404.00,0.1370
1403.00,0.1413
1402.00,0.1439
1401.00,0.1448
1400.00,0.1436
1399.00,0.1400
1398.00,0.1343
1397.00,0.1272
1396.00,0.1188
1395.00,0.1096
1394.00,0.1007
1393.00,0.0930
1392.00,0.0868
1391.00,0.0817
1390.00,0.0777
1389.00,0.0749
1388.00,0.0732
1387.00,0.0728
1386.00,0.0736
1385.00,0.0755
1384.00,0.0782
1383.00,0.0816
1382.00,0.0852
1381.00,0.0884
1380.00,0.0905
1379.00,0.0912
1378.00,0.0906
1377.00,0.0887
1376.00,0.0859
1375.00,0.0826
1374.00,0.0791
1373.00,0.0760
1372.00,0.0733
1371.00,0.0713
1370.00,0.0700
1369.00,0.0694
1368.00,0.0695
1367.00,0.0706
1366.00,0.0727
1365.00,0.0763
1364.00,0.0813
1363.00,0.0874
1362.00,0.0932
1361.00,0.0970
1360.00,0.0977
1359.00,0.0956
1358.00,0.0912
1357.00,0.0855
1356.00,0.0794
1355.00,0.0739
1354.00,0.0693
1353.00,0.0657
1352.00,0.0631
1351.00,0.0612
1350.00,0.0598
1349.00,0.0588
1348.00,0.0580
1347.00,0.0574
1346.00,0.0570
1345.00,0.0567
1344.00,0.0565
1343.00,0.0562
1342.00,0.0561
1341.00,0.0561
1340.00,0.0561
1339.00,0.0562
1338.00,0.0563
1337.00,0.0566
1336.00,0.0571
1335.00,0.0577
1334.00,0.0584
1333.00,0.0592
1332.00,0.0599
1331.00,0.0605
1330.00,0.0610
1329.00,0.0615
1328.00,0.0619
1327.00,0.0624
1326.00,0.0629
1325.00,0.0636
1324.00,0.0643
1323.00,0.0650
1322.00,0.0657
1321.00,0.0663
1320.00,0.0666
1319.00,0.0667
1318.00,0.0664
1317.00,0.0658
1316.00,0.0649
1315.00,0.0638
1314.00,0.0628
1313.00,0.0620
1312.00,0.0616
1311.00,0.0616
1310.00,0.0622
1309.00,0.0634
1308.00,0.0650
1307.00,0.0670
1306.00,0.0694
1305.00,0.0719
1304.00,0.0744
1303.00,0.0770
1302.00,0.0797
1301.00,0.0827
1300.00,0.0862
1299.00,0.0906
1298.00,0.0962
1297.00,0.1030
1296.00,0.1109
1295.00,0.1195
1294.00,0.1280
1293.00,0.1358
1292.00,0.1423
1291.00,0.1472
1290.00,0.1507
1289.00,0.1530
1288.00,0.1545
1287.00,0.1552
1286.00,0.1551
1285.00,0.1543
1284.00,0.1527
1283.00,0.1502
1282.00,0.1469
1281.00,0.1430
1280.00,0.1388
1279.00,0.1346
1278.00,0.1305
1277.00,0.1268
1276.00,0.1233
1275.00,0.1199
1274.00,0.1166
1273.00,0.1131
1272.00,0.1093
1271.00,0.1051
1270.00,0.1007
1269.00,0.0962
1268.00,0.0916
1267.00,0.0871
1266.00,0.0828
1265.00,0.0789
1264.00,0.0752
1263.00,0.0719
1262.00,0.0688
1261.00,0.0658
1260.00,0.0629
1259.00,0.0601
1258.00,0.0575
1257.00,0.0551
1256.00,0.0529
1255.00,0.0510
1254.00,0.0494
1253.00,0.0483
1252.00,0.0476
1251.00,0.0476
1250.00,0.0482
1249.00,0.0496
1248.00,0.0518
1247.00,0.0548
1246.00,0.0586
1245.00,0.0632
1244.00,0.0682
1243.00,0.0736
1242.00,0.0789
1241.00,0.0838
1240.00,0.0882
1239.00,0.0919
1238.00,0.0948
1237.00,0.0970
1236.00,0.0987
1235.00,0.0998
1234.00,0.1003
1233.00,0.1003
1232.00,0.0996
1231.00,0.0985
1230.00,0.0969
1229.00,0.0952
1228.00,0.0933
1227.00,0.0913
1226.00,0.0895
1225.00,0.0879
1224.00,0.0866
1223.00,0.0857
1222.00,0.0852
1221.00,0.0850
1220.00,0.0850
1219.00,0.0851
1218.00,0.0850
1217.00,0.0846
1216.00,0.0836
1215.00,0.0818
1214.00,0.0792
1213.00,0.0758
1212.00,0.0719
1211.00,0.0678
1210.00,0.0639
1209.00,0.0604
1208.00,0.0576
1207.00,0.0555
1206.00,0.0544
1205.00,0.0542
1204.00,0.0551
1203.00,0.0572
1202.00,0.0603
1201.00,0.0645
1200.00,0.0696
1199.00,0.0753
1198.00,0.0814
1197.00,0.0877
1196.00,0.0936
1195.00,0.0987
1194.00,0.1024
1193.00,0.1041
1192.00,0.1035
1191.00,0.1005
1190.00,0.0957
1189.00,0.0896
1188.00,0.0829
1187.00,0.0763
1186.00,0.0701
1185.00,0.0646
1184.00,0.0598
1183.00,0.0558
1182.00,0.0525
1181.00,0.0498
1180.00,0.0477
1179.00,0.0461
1178.00,0.0449
1177.00,0.0441
1176.00,0.0436
1175.00,0.0434
1174.00,0.0433
1173.00,0.0433
1172.00,0.0433
1171.00,0.0434
1170.00,0.0435
1169.00,0.0438
1168.00,0.0442
1167.00,0.0450
1166.00,0.0465
1165.00,0.0489
1164.00,0.0525
1163.00,0.0573
1162.00,0.0635
1161.00,0.0708
1160.00,0.0789
1159.00,0.0868
1158.00,0.0937
1157.00,0.0988
1156.00,0.1014
1155.00,0.1013
1154.00,0.0987
1153.00,0.0940
1152.00,0.0878
1151.00,0.0808
1150.00,0.0734
1149.00,0.0663
1148.00,0.0597
1147.00,0.0539
1146.00,0.0492
1145.00,0.0454
1144.00,0.0425
1143.00,0.0405
1142.00,0.0391
1141.00,0.0384
1140.00,0.0384
1139.00,0.0392
1138.00,0.0410
1137.00,0.0442
1136.00,0.0489
1135.00,0.0554
1134.00,0.0638
1133.00,0.0737
1132.00,0.0843
1131.00,0.0942
1130.00,0.1020
1129.00,0.1061
1128.00,0.1057
1127.00,0.1010
1126.00,0.0930
1125.00,0.0833
1124.00,0.0735
1123.00,0.0646
1122.00,0.0572
1121.00,0.0514
1120.00,0.0470
1119.00,0.0437
1118.00,0.0414
1117.00,0.0399
1116.00,0.0390
1115.00,0.0386
1114.00,0.0387
1113.00,0.0391
1112.00,0.0396
1111.00,0.0403
1110.00,0.0410
1109.00,0.0418
1108.00,0.0429
1107.00,0.0445
1106.00,0.0466
1105.00,0.0494
1104.00,0.0529
1103.00,0.0567
1102.00,0.0605
1101.00,0.0636
1100.00,0.0654
1099.00,0.0654
1098.00,0.0639
1097.00,0.0612
1096.00,0.0578
1095.00,0.0542
1094.00,0.0506
1093.00,0.0472
1092.00,0.0440
1091.00,0.0412
1090.00,0.0388
1089.00,0.0370
1088.00,0.0356
1087.00,0.0346
1086.00,0.0340
1085.00,0.0338
1084.00,0.0338
1083.00,0.0341
1082.00,0.0346
1081.00,0.0355
1080.00,0.0366
1079.00,0.0380
1078.00,0.0395
1077.00,0.0413
1076.00,0.0432
1075.00,0.0453
1074.00,0.0477
1073.00,0.0504
1072.00,0.0537
1071.00,0.0575
1070.00,0.0622
1069.00,0.0679
1068.00,0.0746
1067.00,0.0823
1066.00,0.0911
1065.00,0.1009
1064.00,0.1116
1063.00,0.1232
1062.00,0.1354
1061.00,0.1477
1060.00,0.1597
1059.00,0.1705
1058.00,0.1793
1057.00,0.1855
1056.00,0.1883
1055.00,0.1873
1054.00,0.1826
1053.00,0.1747
1052.00,0.1643
1051.00,0.1524
1050.00,0.1399
1049.00,0.1276
1048.00,0.1162
1047.00,0.1060
1046.00,0.0974
1045.00,0.0901
1044.00,0.0843
1043.00,0.0797
1042.00,0.0762
1041.00,0.0735
1040.00,0.0715
1039.00,0.0700
1038.00,0.0691
1037.00,0.0688
1036.00,0.0693
1035.00,0.0708
1034.00,0.0736
1033.00,0.0774
1032.00,0.0818
1031.00,0.0858
1030.00,0.0882
1029.00,0.0883
1028.00,0.0859
1027.00,0.0815
1026.00,0.0760
1025.00,0.0703
1024.00,0.0652
1023.00,0.0608
1022.00,0.0574
1021.00,0.0547
1020.00,0.0525
1019.00,0.0508
1018.00,0.0492
1017.00,0.0477
1016.00,0.0462
1015.00,0.0447
1014.00,0.0433
1013.00,0.0421
1012.00,0.0412
1011.00,0.0409
1010.00,0.0412
1009.00,0.0423
1008.00,0.0441
1007.00,0.0465
1006.00,0.0492
1005.00,0.0518
1004.00,0.0539
1003.00,0.0553
1002.00,0.0556
1001.00,0.0552
1000.00,0.0541
999.00,0.0528
998.00,0.0515
997.00,0.0504
996.00,0.0494
995.00,0.0486
994.00,0.0477
993.00,0.0469
992.00,0.0459
991.00,0.0447
990.00,0.0434
989.00,0.0420
988.00,0.0404
987.00,0.0386
986.00,0.0369
985.00,0.0353
984.00,0.0339
983.00,0.0329
982.00,0.0323
981.00,0.0321
980.00,0.0322
979.00,0.0326
978.00,0.0331
977.00,0.0337
976.00,0.0341
975.00,0.0342
974.00,0.0340
973.00,0.0336
972.00,0.0330
971.00,0.0322
970.00,0.0313
969.00,0.0304
968.00,0.0295
967.00,0.0287
966.00,0.0280
965.00,0.0274
964.00,0.0269
963.00,0.0265
962.00,0.0260
961.00,0.0254
960.00,0.0248
959.00,0.0242
958.00,0.0235
957.00,0.0229
956.00,0.0223
955.00,0.0218
954.00,0.0214
953.00,0.0211
952.00,0.0208
951.00,0.0207
950.00,0.0206
949.00,0.0206
948.00,0.0206
947.00,0.0208
946.00,0.0211
945.00,0.0215
944.00,0.0221
943.00,0.0228
942.00,0.0239
941.00,0.0253
940.00,0.0271
939.00,0.0292
938.00,0.0315
937.00,0.0339
936.00,0.0360
935.00,0.0377
934.00,0.0387
933.00,0.0392
932.00,0.0391
931.00,0.0387
930.00,0.0385
929.00,0.0385
928.00,0.0389
927.00,0.0396
926.00,0.0403
925.00,0.0408
924.00,0.0410
923.00,0.0408
922.00,0.0403
921.00,0.0394
920.00,0.0383
919.00,0.0370
918.00,0.0356
917.00,0.0341
916.00,0.0325
915.00,0.0310
914.00,0.0296
913.00,0.0284
912.00,0.0275
911.00,0.0270
910.00,0.0268
909.00,0.0268
908.00,0.0271
907.00,0.0277
906.00,0.0286
905.00,0.0300
904.00,0.0318
903.00,0.0339
902.00,0.0365
901.00,0.0392
900.00,0.0419
899.00,0.0445
898.00,0.0466
897.00,0.0480
896.00,0.0486
895.00,0.0484
894.00,0.0472
893.00,0.0454
892.00,0.0432
891.00,0.0409
890.00,0.0387
889.00,0.0369
888.00,0.0356
887.00,0.0350
886.00,0.0349
885.00,0.0354
884.00,0.0363
883.00,0.0376
882.00,0.0394
881.00,0.0416
880.00,0.0443
879.00,0.0475
878.00,0.0512
877.00,0.0551
876.00,0.0592
875.00,0.0633
874.00,0.0673
873.00,0.0708
872.00,0.0737
871.00,0.0756
870.00,0.0766
869.00,0.0767
868.00,0.0761
867.00,0.0751
866.00,0.0740
865.00,0.0730
864.00,0.0719
863.00,0.0708
862.00,0.0697
861.00,0.0685
860.00,0.0676
859.00,0.0669
858.00,0.0668
857.00,0.0671
856.00,0.0677
855.00,0.0687
854.00,0.0698
853.00,0.0710
852.00,0.0722
851.00,0.0734
850.00,0.0745
849.00,0.0755
848.00,0.0764
847.00,0.0772
846.00,0.0778
845.00,0.0783
844.00,0.0786
843.00,0.0787
842.00,0.0788
841.00,0.0788
840.00,0.0788
839.00,0.0788
838.00,0.0789
837.00,0.0791
836.00,0.0794
835.00,0.0798
834.00,0.0804
833.00,0.0810
832.00,0.0816
831.00,0.0821
830.00,0.0825
829.00,0.0827
828.00,0.0829
827.00,0.0832
826.00,0.0838
825.00,0.0849
824.00,0.0867
823.00,0.0891
822.00,0.0923
821.00,0.0961
820.00,0.1002
819.00,0.1045
818.00,0.1089
817.00,0.1133
816.00,0.1175
815.00,0.1214
814.00,0.1246
813.00,0.1267
812.00,0.1270
811.00,0.1252
810.00,0.1207
809.00,0.1137
808.00,0.1049
807.00,0.0951
806.00,0.0855
805.00,0.0769
804.00,0.0697
803.00,0.0640
802.00,0.0597
801.00,0.0565
800.00,0.0542
799.00,0.0525
798.00,0.0513
797.00,0.0505
796.00,0.0499
795.00,0.0497
794.00,0.0495
793.00,0.0495
792.00,0.0495
791.00,0.0494
790.00,0.0492
789.00,0.0489
788.00,0.0485
787.00,0.0482
786.00,0.0479
785.00,0.0478
784.00,0.0479
783.00,0.0481
782.00,0.0487
781.00,0.0497
780.00,0.0511
779.00,0.0529
778.00,0.0548
777.00,0.0563
776.00,0.0567
775.00,0.0557
774.00,0.0538
773.00,0.0515
772.00,0.0494
771.00,0.0481
770.00,0.0473
769.00,0.0470
768.00,0.0470
767.00,0.0471
766.00,0.0473
765.00,0.0477
764.00,0.0481
763.00,0.0486
762.00,0.0493
761.00,0.0500
760.00,0.0509
759.00,0.0518
758.00,0.0528
757.00,0.0538
756.00,0.0547
755.00,0.0557
754.00,0.0567
753.00,0.0577
752.00,0.0587
751.00,0.0597
750.00,0.0607
749.00,0.0617
748.00,0.0628
747.00,0.0639
746.00,0.0653
745.00,0.0669
744.00,0.0689
743.00,0.0713
742.00,0.0744
741.00,0.0783
740.00,0.0828
739.00,0.0878
738.00,0.0925
737.00,0.0961
736.00,0.0977
735.00,0.0970
734.00,0.0941
733.00,0.0898
732.00,0.0848
731.00,0.0799
730.00,0.0755
729.00,0.0717
728.00,0.0686
727.00,0.0660
726.00,0.0639
725.00,0.0621
724.00,0.0605
723.00,0.0591
722.00,0.0579
721.00,0.0569
720.00,0.0563
719.00,0.0560
718.00,0.0560
717.00,0.0561
716.00,0.0564
715.00,0.0566
714.00,0.0567
713.00,0.0566
712.00,0.0562
711.00,0.0555
710.00,0.0547
709.00,0.0538
708.00,0.0531
707.00,0.0526
706.00,0.0524
705.00,0.0524
704.00,0.0525
703.00,0.0525
702.00,0.0525
701.00,0.0525
700.00,0.0527
699.00,0.0535
698.00,0.0549
697.00,0.0570
696.00,0.0596
695.00,0.0627
694.00,0.0659
693.00,0.0689
692.00,0.0715
691.00,0.0734
690.00,0.0746
689.00,0.0750
688.00,0.0745
687.00,0.0732
686.00,0.0713
685.00,0.0691
684.00,0.0667
683.00,0.0646
682.00,0.0628
681.00,0.0614
680.00,0.0605
679.00,0.0599
678.00,0.0596
677.00,0.0596
676.00,0.0598
675.00,0.0604
674.00,0.0612
673.00,0.0622
672.00,0.0634
671.00,0.0645
670.00,0.0657
669.00,0.0672
668.00,0.0692
667.00,0.0710
666.00,0.0719
665.00,0.0724
664.00,0.0730
663.00,0.0738
662.00,0.0749
661.00,0.0760
660.00,0.0772
659.00,0.0784
658.00,0.0795
657.00,0.0805
656.00,0.0814
655.00,0.0821
654.00,0.0827
653.00,0.0831
652.00,0.0834
651.00,0.0835
650.00,0.0833
649.00,0.0828
648.00,0.0821
647.00,0.0811
646.00,0.0798
645.00,0.0781
644.00,0.0763
643.00,0.0744
642.00,0.0725
641.00,0.0706
640.00,0.0688
639.00,0.0670
638.00,0.0652
637.00,0.0635
636.00,0.0619
635.00,0.0604
634.00,0.0591
633.00,0.0580
632.00,0.0571
631.00,0.0565
630.00,0.0561
629.00,0.0561
628.00,0.0564
627.00,0.0569
626.00,0.0575
625.00,0.0582
624.00,0.0589
623.00,0.0593
622.00,0.0595
621.00,0.0594
620.00,0.0590
619.00,0.0583
618.00,0.0576
617.00,0.0567
616.00,0.0558
615.00,0.0548
614.00,0.0540
613.00,0.0535
612.00,0.0531
611.00,0.0532
610.00,0.0536
609.00,0.0544
608.00,0.0554
607.00,0.0565
606.00,0.0575
605.00,0.0584
604.00,0.0593
603.00,0.0601
602.00,0.0611
601.00,0.0619
600.00,0.0626
599.00,0.0628
598.00,0.0626
597.00,0.0619
596.00,0.0608
595.00,0.0593
594.00,0.0578
593.00,0.0565
592.00,0.0556
591.00,0.0553
590.00,0.0558
589.00,0.0575
588.00,0.0604
587.00,0.0649
586.00,0.0708
585.00,0.0774
584.00,0.0838
583.00,0.0890
582.00,0.0924
581.00,0.0938
580.00,0.0936
579.00,0.0920
578.00,0.0895
577.00,0.0865
576.00,0.0834
575.00,0.0802
574.00,0.0774
573.00,0.0750
572.00,0.0730
571.00,0.0715
570.00,0.0706
569.00,0.0702
568.00,0.0701
567.00,0.0700
566.00,0.0699
565.00,0.0696
564.00,0.0689
563.00,0.0680
562.00,0.0670
561.00,0.0662
560.00,0.0655
559.00,0.0651
558.00,0.0650
557.00,0.0648
556.00,0.0644
555.00,0.0633
554.00,0.0618
553.00,0.0603
552.00,0.0590
551.00,0.0582
550.00,0.0577
549.00,0.0573
548.00,0.0565
547.00,0.0554
546.00,0.0540
545.00,0.0526
544.00,0.0513
543.00,0.0502
542.00,0.0495
541.00,0.0491
540.00,0.0493
539.00,0.0501
538.00,0.0516
537.00,0.0537
536.00,0.0565
535.00,0.0598
534.00,0.0632
533.00,0.0662
532.00,0.0684
531.00,0.0696
530.00,0.0695
529.00,0.0683
528.00,0.0661
527.00,0.0631
526.00,0.0595
525.00,0.0559
524.00,0.0526
523.00,0.0497
522.00,0.0472
521.00,0.0453
520.00,0.0437
519.00,0.0426
518.00,0.0418
517.00,0.0412
516.00,0.0406
515.00,0.0402
514.00,0.0401
513.00,0.0404
512.00,0.0410
511.00,0.0419
510.00,0.0432
509.00,0.0445
508.00,0.0457
507.00,0.0464
506.00,0.0465
505.00,0.0460
504.00,0.0450
503.00,0.0436
502.00,0.0423
501.00,0.0411
500.00,0.0401
499.00,0.0394
498.00,0.0389
497.00,0.0386
496.00,0.0384
495.00,0.0385
494.00,0.0388
493.00,0.0393
492.00,0.0397
491.00,0.0401
490.00,0.0404
489.00,0.0407
488.00,0.0409
487.00,0.0410
486.00,0.0410
485.00,0.0409
484.00,0.0408
483.00,0.0406
482.00,0.0403
481.00,0.0398
480.00,0.0393
479.00,0.0388
478.00,0.0385
477.00,0.0384
476.00,0.0384
475.00,0.0385
474.00,0.0386
473.00,0.0386
472.00,0.0382
471.00,0.0377
470.00,0.0373
469.00,0.0371
468.00,0.0370
467.00,0.0371
466.00,0.0372
465.00,0.0374
464.00,0.0373
463.00,0.0370
462.00,0.0367
461.00,0.0364
460.00,0.0361
459.00,0.0360
458.00,0.0360
457.00,0.0359
456.00,0.0357
455.00,0.0355
454.00,0.0355
453.00,0.0355
452.00,0.0354
451.00,0.0352
450.00,0.0351
449.00,0.0352
448.00,0.0353
447.00,0.0356
446.00,0.0360
445.00,0.0362
444.00,0.0364
443.00,0.0363
442.00,0.0362
441.00,0.0360
440.00,0.0359
439.00,0.0360
438.00,0.0362
437.00,0.0363
436.00,0.0358
435.00,0.0352
434.00,0.0348
433.00,0.0348
432.00,0.0347
431.00,0.0347
430.00,0.0348
429.00,0.0350
428.00,0.0352
427.00,0.0352
426.00,0.0353
425.00,0.0354
424.00,0.0356
423.00,0.0359
422.00,0.0364
421.00,0.0370
420.00,0.0378
419.00,0.0394
418.00,0.0415
417.00,0.0429
416.00,0.0436
415.00,0.0445
414.00,0.0459
413.00,0.0478
412.00,0.0497
411.00,0.0512
410.00,0.0519
409.00,0.0516
408.00,0.0502
407.00,0.0485
406.00,0.0469
405.00,0.0458
404.00,0.0449
403.00,0.0443
402.00,0.0444
401.00,0.0449
400.00,0.0460
