Created as New Dataset,Sample 829 By YargerLab Date Tuesday, July 15 2025
cm-1,A
4000.00,0.0040
3999.00,0.0040
3998.00,0.0040
3997.00,0.0040
3996.00,0.0040
3995.00,0.0040
3994.00,0.0039
3993.00,0.0039
3992.00,0.0039
3991.00,0.0039
3990.00,0.0039
3989.00,0.0040
3988.00,0.0040
3987.00,0.0040
3986.00,0.0040
3985.00,0.0040
3984.00,0.0040
3983.00,0.0040
3982.00,0.0040
3981.00,0.0040
3980.00,0.0040
3979.00,0.0040
3978.00,0.0040
3977.00,0.0040
3976.00,0.0040
3975.00,0.0040
3974.00,0.0040
3973.00,0.0040
3972.00,0.0040
3971.00,0.0039
3970.00,0.0039
3969.00,0.0039
3968.00,0.0040
3967.00,0.0040
3966.00,0.0040
3965.00,0.0039
3964.00,0.0039
3963.00,0.0039
3962.00,0.0039
3961.00,0.0039
3960.00,0.0039
3959.00,0.0039
3958.00,0.0040
3957.00,0.0039
3956.00,0.0039
3955.00,0.0039
3954.00,0.0039
3953.00,0.0039
3952.00,0.0039
3951.00,0.0039
3950.00,0.0039
3949.00,0.0039
3948.00,0.0039
3947.00,0.0039
3946.00,0.0039
3945.00,0.0039
3944.00,0.0039
3943.00,0.0039
3942.00,0.0039
3941.00,0.0039
3940.00,0.0039
3939.00,0.0039
3938.00,0.0039
3937.00,0.0039
3936.00,0.0039
3935.00,0.0039
3934.00,0.0039
3933.00,0.0039
3932.00,0.0039
3931.00,0.0039
3930.00,0.0039
3929.00,0.0039
3928.00,0.0039
3927.00,0.0039
3926.00,0.0039
3925.00,0.0039
3924.00,0.0039
3923.00,0.0039
3922.00,0.0039
3921.00,0.0039
3920.00,0.0039
3919.00,0.0039
3918.00,0.0039
3917.00,0.0039
3916.00,0.0039
3915.00,0.0039
3914.00,0.0039
3913.00,0.0039
3912.00,0.0039
3911.00,0.0039
3910.00,0.0040
3909.00,0.0039
3908.00,0.0039
3907.00,0.0039
3906.00,0.0039
3905.00,0.0039
3904.00,0.0039
3903.00,0.0039
3902.00,0.0039
3901.00,0.0039
3900.00,0.0039
3899.00,0.0039
3898.00,0.0039
3897.00,0.0039
3896.00,0.0039
3895.00,0.0039
3894.00,0.0039
3893.00,0.0039
3892.00,0.0039
3891.00,0.0039
3890.00,0.0039
3889.00,0.0038
3888.00,0.0038
3887.00,0.0038
3886.00,0.0038
3885.00,0.0039
3884.00,0.0039
3883.00,0.0039
3882.00,0.0038
3881.00,0.0038
3880.00,0.0038
3879.00,0.0038
3878.00,0.0038
3877.00,0.0038
3876.00,0.0038
3875.00,0.0038
3874.00,0.0038
3873.00,0.0038
3872.00,0.0038
3871.00,0.0038
3870.00,0.0038
3869.00,0.0038
3868.00,0.0038
3867.00,0.0038
3866.00,0.0038
3865.00,0.0038
3864.00,0.0038
3863.00,0.0039
3862.00,0.0038
3861.00,0.0038
3860.00,0.0038
3859.00,0.0038
3858.00,0.0039
3857.00,0.0038
3856.00,0.0038
3855.00,0.0038
3854.00,0.0038
3853.00,0.0038
3852.00,0.0038
3851.00,0.0038
3850.00,0.0038
3849.00,0.0039
3848.00,0.0039
3847.00,0.0039
3846.00,0.0039
3845.00,0.0039
3844.00,0.0039
3843.00,0.0039
3842.00,0.0039
3841.00,0.0039
3840.00,0.0039
3839.00,0.0039
3838.00,0.0039
3837.00,0.0039
3836.00,0.0039
3835.00,0.0039
3834.00,0.0039
3833.00,0.0038
3832.00,0.0038
3831.00,0.0038
3830.00,0.0038
3829.00,0.0038
3828.00,0.0038
3827.00,0.0039
3826.00,0.0039
3825.00,0.0040
3824.00,0.0039
3823.00,0.0039
3822.00,0.0039
3821.00,0.0040
3820.00,0.0040
3819.00,0.0039
3818.00,0.0039
3817.00,0.0039
3816.00,0.0039
3815.00,0.0039
3814.00,0.0038
3813.00,0.0038
3812.00,0.0038
3811.00,0.0038
3810.00,0.0038
3809.00,0.0039
3808.00,0.0039
3807.00,0.0039
3806.00,0.0039
3805.00,0.0039
3804.00,0.0039
3803.00,0.0039
3802.00,0.0039
3801.00,0.0039
3800.00,0.0039
3799.00,0.0039
3798.00,0.0039
3797.00,0.0039
3796.00,0.0039
3795.00,0.0039
3794.00,0.0039
3793.00,0.0039
3792.00,0.0039
3791.00,0.0039
3790.00,0.0039
3789.00,0.0039
3788.00,0.0039
3787.00,0.0039
3786.00,0.0039
3785.00,0.0039
3784.00,0.0039
3783.00,0.0039
3782.00,0.0039
3781.00,0.0039
3780.00,0.0039
3779.00,0.0039
3778.00,0.0039
3777.00,0.0039
3776.00,0.0039
3775.00,0.0039
3774.00,0.0040
3773.00,0.0040
3772.00,0.0040
3771.00,0.0040
3770.00,0.0040
3769.00,0.0040
3768.00,0.0040
3767.00,0.0039
3766.00,0.0039
3765.00,0.0039
3764.00,0.0039
3763.00,0.0039
3762.00,0.0040
3761.00,0.0040
3760.00,0.0040
3759.00,0.0040
3758.00,0.0040
3757.00,0.0040
3756.00,0.0039
3755.00,0.0039
3754.00,0.0040
3753.00,0.0040
3752.00,0.0040
3751.00,0.0039
3750.00,0.0039
3749.00,0.0038
3748.00,0.0038
3747.00,0.0037
3746.00,0.0037
3745.00,0.0037
3744.00,0.0038
3743.00,0.0038
3742.00,0.0038
3741.00,0.0038
3740.00,0.0038
3739.00,0.0039
3738.00,0.0039
3737.00,0.0039
3736.00,0.0039
3735.00,0.0039
3734.00,0.0038
3733.00,0.0038
3732.00,0.0038
3731.00,0.0038
3730.00,0.0039
3729.00,0.0039
3728.00,0.0039
3727.00,0.0039
3726.00,0.0039
3725.00,0.0039
3724.00,0.0038
3723.00,0.0038
3722.00,0.0038
3721.00,0.0038
3720.00,0.0038
3719.00,0.0038
3718.00,0.0038
3717.00,0.0039
3716.00,0.0039
3715.00,0.0039
3714.00,0.0039
3713.00,0.0039
3712.00,0.0039
3711.00,0.0039
3710.00,0.0039
3709.00,0.0038
3708.00,0.0038
3707.00,0.0038
3706.00,0.0039
3705.00,0.0039
3704.00,0.0039
3703.00,0.0039
3702.00,0.0039
3701.00,0.0039
3700.00,0.0039
3699.00,0.0039
3698.00,0.0038
3697.00,0.0039
3696.00,0.0039
3695.00,0.0039
3694.00,0.0040
3693.00,0.0040
3692.00,0.0040
3691.00,0.0040
3690.00,0.0040
3689.00,0.0041
3688.00,0.0041
3687.00,0.0041
3686.00,0.0041
3685.00,0.0041
3684.00,0.0041
3683.00,0.0042
3682.00,0.0042
3681.00,0.0042
3680.00,0.0042
3679.00,0.0042
3678.00,0.0042
3677.00,0.0042
3676.00,0.0042
3675.00,0.0042
3674.00,0.0042
3673.00,0.0041
3672.00,0.0041
3671.00,0.0040
3670.00,0.0041
3669.00,0.0041
3668.00,0.0041
3667.00,0.0041
3666.00,0.0041
3665.00,0.0042
3664.00,0.0042
3663.00,0.0042
3662.00,0.0042
3661.00,0.0043
3660.00,0.0043
3659.00,0.0043
3658.00,0.0043
3657.00,0.0044
3656.00,0.0045
3655.00,0.0045
3654.00,0.0045
3653.00,0.0045
3652.00,0.0045
3651.00,0.0045
3650.00,0.0045
3649.00,0.0046
3648.00,0.0047
3647.00,0.0047
3646.00,0.0048
3645.00,0.0049
3644.00,0.0050
3643.00,0.0051
3642.00,0.0051
3641.00,0.0052
3640.00,0.0052
3639.00,0.0052
3638.00,0.0052
3637.00,0.0053
3636.00,0.0054
3635.00,0.0055
3634.00,0.0056
3633.00,0.0056
3632.00,0.0057
3631.00,0.0057
3630.00,0.0057
3629.00,0.0058
3628.00,0.0059
3627.00,0.0060
3626.00,0.0060
3625.00,0.0061
3624.00,0.0061
3623.00,0.0062
3622.00,0.0063
3621.00,0.0063
3620.00,0.0064
3619.00,0.0065
3618.00,0.0066
3617.00,0.0066
3616.00,0.0067
3615.00,0.0067
3614.00,0.0068
3613.00,0.0069
3612.00,0.0070
3611.00,0.0070
3610.00,0.0071
3609.00,0.0072
3608.00,0.0073
3607.00,0.0074
3606.00,0.0075
3605.00,0.0075
3604.00,0.0076
3603.00,0.0077
3602.00,0.0078
3601.00,0.0078
3600.00,0.0079
3599.00,0.0080
3598.00,0.0080
3597.00,0.0081
3596.00,0.0082
3595.00,0.0083
3594.00,0.0083
3593.00,0.0084
3592.00,0.0085
3591.00,0.0085
3590.00,0.0086
3589.00,0.0087
3588.00,0.0088
3587.00,0.0090
3586.00,0.0091
3585.00,0.0092
3584.00,0.0093
3583.00,0.0094
3582.00,0.0095
3581.00,0.0096
3580.00,0.0097
3579.00,0.0098
3578.00,0.0099
3577.00,0.0100
3576.00,0.0101
3575.00,0.0102
3574.00,0.0103
3573.00,0.0104
3572.00,0.0105
3571.00,0.0105
3570.00,0.0105
3569.00,0.0106
3568.00,0.0107
3567.00,0.0109
3566.00,0.0111
3565.00,0.0112
3564.00,0.0113
3563.00,0.0114
3562.00,0.0115
3561.00,0.0116
3560.00,0.0117
3559.00,0.0118
3558.00,0.0118
3557.00,0.0119
3556.00,0.0120
3555.00,0.0121
3554.00,0.0122
3553.00,0.0123
3552.00,0.0124
3551.00,0.0125
3550.00,0.0126
3549.00,0.0126
3548.00,0.0127
3547.00,0.0128
3546.00,0.0129
3545.00,0.0130
3544.00,0.0131
3543.00,0.0132
3542.00,0.0132
3541.00,0.0133
3540.00,0.0134
3539.00,0.0135
3538.00,0.0135
3537.00,0.0136
3536.00,0.0137
3535.00,0.0138
3534.00,0.0138
3533.00,0.0139
3532.00,0.0140
3531.00,0.0140
3530.00,0.0141
3529.00,0.0142
3528.00,0.0143
3527.00,0.0144
3526.00,0.0144
3525.00,0.0145
3524.00,0.0146
3523.00,0.0147
3522.00,0.0147
3521.00,0.0148
3520.00,0.0148
3519.00,0.0149
3518.00,0.0149
3517.00,0.0150
3516.00,0.0151
3515.00,0.0152
3514.00,0.0153
3513.00,0.0153
3512.00,0.0154
3511.00,0.0154
3510.00,0.0155
3509.00,0.0155
3508.00,0.0156
3507.00,0.0156
3506.00,0.0157
3505.00,0.0158
3504.00,0.0159
3503.00,0.0160
3502.00,0.0161
3501.00,0.0161
3500.00,0.0162
3499.00,0.0162
3498.00,0.0162
3497.00,0.0163
3496.00,0.0163
3495.00,0.0164
3494.00,0.0165
3493.00,0.0165
3492.00,0.0166
3491.00,0.0167
3490.00,0.0167
3489.00,0.0168
3488.00,0.0168
3487.00,0.0169
3486.00,0.0169
3485.00,0.0169
3484.00,0.0170
3483.00,0.0170
3482.00,0.0171
3481.00,0.0172
3480.00,0.0173
3479.00,0.0174
3478.00,0.0174
3477.00,0.0175
3476.00,0.0175
3475.00,0.0176
3474.00,0.0176
3473.00,0.0177
3472.00,0.0177
3471.00,0.0178
3470.00,0.0178
3469.00,0.0178
3468.00,0.0179
3467.00,0.0179
3466.00,0.0180
3465.00,0.0180
3464.00,0.0181
3463.00,0.0181
3462.00,0.0182
3461.00,0.0182
3460.00,0.0183
3459.00,0.0183
3458.00,0.0183
3457.00,0.0184
3456.00,0.0184
3455.00,0.0185
3454.00,0.0185
3453.00,0.0185
3452.00,0.0186
3451.00,0.0186
3450.00,0.0186
3449.00,0.0186
3448.00,0.0187
3447.00,0.0187
3446.00,0.0188
3445.00,0.0188
3444.00,0.0188
3443.00,0.0189
3442.00,0.0189
3441.00,0.0189
3440.00,0.0189
3439.00,0.0190
3438.00,0.0190
3437.00,0.0191
3436.00,0.0191
3435.00,0.0191
3434.00,0.0191
3433.00,0.0191
3432.00,0.0191
3431.00,0.0191
3430.00,0.0191
3429.00,0.0191
3428.00,0.0192
3427.00,0.0192
3426.00,0.0192
3425.00,0.0193
3424.00,0.0193
3423.00,0.0193
3422.00,0.0193
3421.00,0.0194
3420.00,0.0194
3419.00,0.0194
3418.00,0.0195
3417.00,0.0195
3416.00,0.0195
3415.00,0.0195
3414.00,0.0195
3413.00,0.0195
3412.00,0.0196
3411.00,0.0196
3410.00,0.0196
3409.00,0.0196
3408.00,0.0196
3407.00,0.0197
3406.00,0.0197
3405.00,0.0197
3404.00,0.0198
3403.00,0.0198
3402.00,0.0198
3401.00,0.0198
3400.00,0.0198
3399.00,0.0198
3398.00,0.0199
3397.00,0.0199
3396.00,0.0200
3395.00,0.0199
3394.00,0.0199
3393.00,0.0199
3392.00,0.0199
3391.00,0.0200
3390.00,0.0200
3389.00,0.0200
3388.00,0.0201
3387.00,0.0201
3386.00,0.0202
3385.00,0.0202
3384.00,0.0202
3383.00,0.0202
3382.00,0.0202
3381.00,0.0202
3380.00,0.0203
3379.00,0.0203
3378.00,0.0203
3377.00,0.0203
3376.00,0.0204
3375.00,0.0204
3374.00,0.0204
3373.00,0.0203
3372.00,0.0203
3371.00,0.0202
3370.00,0.0201
3369.00,0.0201
3368.00,0.0202
3367.00,0.0203
3366.00,0.0204
3365.00,0.0205
3364.00,0.0206
3363.00,0.0206
3362.00,0.0206
3361.00,0.0206
3360.00,0.0207
3359.00,0.0207
3358.00,0.0208
3357.00,0.0209
3356.00,0.0209
3355.00,0.0209
3354.00,0.0208
3353.00,0.0207
3352.00,0.0207
3351.00,0.0207
3350.00,0.0207
3349.00,0.0208
3348.00,0.0209
3347.00,0.0210
3346.00,0.0210
3345.00,0.0209
3344.00,0.0209
3343.00,0.0209
3342.00,0.0209
3341.00,0.0208
3340.00,0.0208
3339.00,0.0208
3338.00,0.0209
3337.00,0.0210
3336.00,0.0211
3335.00,0.0212
3334.00,0.0213
3333.00,0.0213
3332.00,0.0213
3331.00,0.0213
3330.00,0.0213
3329.00,0.0212
3328.00,0.0211
3327.00,0.0211
3326.00,0.0211
3325.00,0.0211
3324.00,0.0212
3323.00,0.0213
3322.00,0.0214
3321.00,0.0215
3320.00,0.0215
3319.00,0.0215
3318.00,0.0215
3317.00,0.0215
3316.00,0.0215
3315.00,0.0215
3314.00,0.0215
3313.00,0.0215
3312.00,0.0214
3311.00,0.0213
3310.00,0.0211
3309.00,0.0210
3308.00,0.0209
3307.00,0.0209
3306.00,0.0210
3305.00,0.0211
3304.00,0.0212
3303.00,0.0214
3302.00,0.0216
3301.00,0.0217
3300.00,0.0217
3299.00,0.0216
3298.00,0.0215
3297.00,0.0214
3296.00,0.0214
3295.00,0.0213
3294.00,0.0213
3293.00,0.0213
3292.00,0.0214
3291.00,0.0215
3290.00,0.0216
3289.00,0.0217
3288.00,0.0217
3287.00,0.0217
3286.00,0.0217
3285.00,0.0217
3284.00,0.0217
3283.00,0.0217
3282.00,0.0217
3281.00,0.0217
3280.00,0.0217
3279.00,0.0217
3278.00,0.0216
3277.00,0.0216
3276.00,0.0215
3275.00,0.0214
3274.00,0.0214
3273.00,0.0213
3272.00,0.0212
3271.00,0.0212
3270.00,0.0212
3269.00,0.0213
3268.00,0.0214
3267.00,0.0215
3266.00,0.0215
3265.00,0.0215
3264.00,0.0215
3263.00,0.0214
3262.00,0.0214
3261.00,0.0213
3260.00,0.0213
3259.00,0.0213
3258.00,0.0212
3257.00,0.0212
3256.00,0.0212
3255.00,0.0212
3254.00,0.0212
3253.00,0.0212
3252.00,0.0212
3251.00,0.0211
3250.00,0.0211
3249.00,0.0210
3248.00,0.0210
3247.00,0.0209
3246.00,0.0210
3245.00,0.0210
3244.00,0.0210
3243.00,0.0210
3242.00,0.0210
3241.00,0.0209
3240.00,0.0209
3239.00,0.0209
3238.00,0.0208
3237.00,0.0208
3236.00,0.0207
3235.00,0.0207
3234.00,0.0207
3233.00,0.0206
3232.00,0.0206
3231.00,0.0206
3230.00,0.0206
3229.00,0.0206
3228.00,0.0206
3227.00,0.0206
3226.00,0.0205
3225.00,0.0205
3224.00,0.0205
3223.00,0.0204
3222.00,0.0204
3221.00,0.0204
3220.00,0.0203
3219.00,0.0203
3218.00,0.0203
3217.00,0.0202
3216.00,0.0202
3215.00,0.0202
3214.00,0.0201
3213.00,0.0201
3212.00,0.0201
3211.00,0.0201
3210.00,0.0201
3209.00,0.0201
3208.00,0.0201
3207.00,0.0200
3206.00,0.0200
3205.00,0.0200
3204.00,0.0200
3203.00,0.0200
3202.00,0.0200
3201.00,0.0199
3200.00,0.0199
3199.00,0.0198
3198.00,0.0198
3197.00,0.0198
3196.00,0.0197
3195.00,0.0197
3194.00,0.0196
3193.00,0.0196
3192.00,0.0196
3191.00,0.0195
3190.00,0.0194
3189.00,0.0194
3188.00,0.0193
3187.00,0.0193
3186.00,0.0193
3185.00,0.0192
3184.00,0.0192
3183.00,0.0191
3182.00,0.0191
3181.00,0.0190
3180.00,0.0190
3179.00,0.0190
3178.00,0.0189
3177.00,0.0189
3176.00,0.0188
3175.00,0.0188
3174.00,0.0187
3173.00,0.0187
3172.00,0.0186
3171.00,0.0186
3170.00,0.0185
3169.00,0.0184
3168.00,0.0184
3167.00,0.0183
3166.00,0.0182
3165.00,0.0182
3164.00,0.0181
3163.00,0.0181
3162.00,0.0180
3161.00,0.0179
3160.00,0.0179
3159.00,0.0178
3158.00,0.0177
3157.00,0.0177
3156.00,0.0176
3155.00,0.0175
3154.00,0.0175
3153.00,0.0174
3152.00,0.0173
3151.00,0.0173
3150.00,0.0173
3149.00,0.0172
3148.00,0.0172
3147.00,0.0172
3146.00,0.0171
3145.00,0.0171
3144.00,0.0170
3143.00,0.0169
3142.00,0.0169
3141.00,0.0168
3140.00,0.0168
3139.00,0.0167
3138.00,0.0167
3137.00,0.0166
3136.00,0.0166
3135.00,0.0166
3134.00,0.0165
3133.00,0.0165
3132.00,0.0164
3131.00,0.0164
3130.00,0.0163
3129.00,0.0163
3128.00,0.0162
3127.00,0.0162
3126.00,0.0161
3125.00,0.0161
3124.00,0.0160
3123.00,0.0160
3122.00,0.0159
3121.00,0.0158
3120.00,0.0158
3119.00,0.0157
3118.00,0.0157
3117.00,0.0156
3116.00,0.0156
3115.00,0.0155
3114.00,0.0154
3113.00,0.0154
3112.00,0.0153
3111.00,0.0153
3110.00,0.0152
3109.00,0.0151
3108.00,0.0151
3107.00,0.0150
3106.00,0.0149
3105.00,0.0149
3104.00,0.0148
3103.00,0.0147
3102.00,0.0147
3101.00,0.0146
3100.00,0.0145
3099.00,0.0145
3098.00,0.0144
3097.00,0.0144
3096.00,0.0143
3095.00,0.0143
3094.00,0.0142
3093.00,0.0142
3092.00,0.0141
3091.00,0.0140
3090.00,0.0139
3089.00,0.0139
3088.00,0.0138
3087.00,0.0137
3086.00,0.0137
3085.00,0.0136
3084.00,0.0135
3083.00,0.0135
3082.00,0.0134
3081.00,0.0134
3080.00,0.0133
3079.00,0.0132
3078.00,0.0132
3077.00,0.0131
3076.00,0.0131
3075.00,0.0130
3074.00,0.0130
3073.00,0.0129
3072.00,0.0129
3071.00,0.0128
3070.00,0.0128
3069.00,0.0127
3068.00,0.0127
3067.00,0.0127
3066.00,0.0127
3065.00,0.0127
3064.00,0.0127
3063.00,0.0126
3062.00,0.0126
3061.00,0.0125
3060.00,0.0125
3059.00,0.0124
3058.00,0.0124
3057.00,0.0124
3056.00,0.0123
3055.00,0.0123
3054.00,0.0123
3053.00,0.0122
3052.00,0.0122
3051.00,0.0121
3050.00,0.0121
3049.00,0.0121
3048.00,0.0120
3047.00,0.0120
3046.00,0.0119
3045.00,0.0119
3044.00,0.0119
3043.00,0.0118
3042.00,0.0118
3041.00,0.0118
3040.00,0.0118
3039.00,0.0118
3038.00,0.0117
3037.00,0.0117
3036.00,0.0117
3035.00,0.0117
3034.00,0.0116
3033.00,0.0116
3032.00,0.0116
3031.00,0.0116
3030.00,0.0116
3029.00,0.0116
3028.00,0.0116
3027.00,0.0116
3026.00,0.0116
3025.00,0.0116
3024.00,0.0116
3023.00,0.0116
3022.00,0.0117
3021.00,0.0117
3020.00,0.0117
3019.00,0.0117
3018.00,0.0117
3017.00,0.0117
3016.00,0.0117
3015.00,0.0117
3014.00,0.0117
3013.00,0.0118
3012.00,0.0119
3011.00,0.0120
3010.00,0.0120
3009.00,0.0121
3008.00,0.0122
3007.00,0.0123
3006.00,0.0124
3005.00,0.0125
3004.00,0.0127
3003.00,0.0128
3002.00,0.0130
3001.00,0.0132
3000.00,0.0134
2999.00,0.0137
2998.00,0.0140
2997.00,0.0143
2996.00,0.0147
2995.00,0.0150
2994.00,0.0154
2993.00,0.0158
2992.00,0.0162
2991.00,0.0166
2990.00,0.0171
2989.00,0.0175
2988.00,0.0179
2987.00,0.0182
2986.00,0.0185
2985.00,0.0187
2984.00,0.0187
2983.00,0.0188
2982.00,0.0190
2981.00,0.0193
2980.00,0.0197
2979.00,0.0203
2978.00,0.0208
2977.00,0.0214
2976.00,0.0218
2975.00,0.0223
2974.00,0.0227
2973.00,0.0230
2972.00,0.0234
2971.00,0.0239
2970.00,0.0244
2969.00,0.0250
2968.00,0.0256
2967.00,0.0262
2966.00,0.0267
2965.00,0.0272
2964.00,0.0277
2963.00,0.0282
2962.00,0.0286
2961.00,0.0290
2960.00,0.0294
2959.00,0.0297
2958.00,0.0299
2957.00,0.0302
2956.00,0.0303
2955.00,0.0305
2954.00,0.0306
2953.00,0.0306
2952.00,0.0307
2951.00,0.0306
2950.00,0.0306
2949.00,0.0305
2948.00,0.0304
2947.00,0.0303
2946.00,0.0303
2945.00,0.0303
2944.00,0.0304
2943.00,0.0306
2942.00,0.0308
2941.00,0.0310
2940.00,0.0312
2939.00,0.0315
2938.00,0.0319
2937.00,0.0323
2936.00,0.0327
2935.00,0.0331
2934.00,0.0336
2933.00,0.0340
2932.00,0.0344
2931.00,0.0347
2930.00,0.0351
2929.00,0.0354
2928.00,0.0357
2927.00,0.0360
2926.00,0.0362
2925.00,0.0363
2924.00,0.0364
2923.00,0.0365
2922.00,0.0365
2921.00,0.0364
2920.00,0.0362
2919.00,0.0359
2918.00,0.0356
2917.00,0.0353
2916.00,0.0349
2915.00,0.0345
2914.00,0.0341
2913.00,0.0336
2912.00,0.0331
2911.00,0.0326
2910.00,0.0321
2909.00,0.0316
2908.00,0.0311
2907.00,0.0306
2906.00,0.0301
2905.00,0.0297
2904.00,0.0293
2903.00,0.0290
2902.00,0.0287
2901.00,0.0284
2900.00,0.0282
2899.00,0.0280
2898.00,0.0278
2897.00,0.0277
2896.00,0.0275
2895.00,0.0274
2894.00,0.0273
2893.00,0.0271
2892.00,0.0270
2891.00,0.0268
2890.00,0.0267
2889.00,0.0266
2888.00,0.0265
2887.00,0.0264
2886.00,0.0262
2885.00,0.0261
2884.00,0.0261
2883.00,0.0260
2882.00,0.0260
2881.00,0.0260
2880.00,0.0261
2879.00,0.0261
2878.00,0.0262
2877.00,0.0262
2876.00,0.0262
2875.00,0.0262
2874.00,0.0263
2873.00,0.0263
2872.00,0.0264
2871.00,0.0264
2870.00,0.0264
2869.00,0.0263
2868.00,0.0263
2867.00,0.0262
2866.00,0.0262
2865.00,0.0262
2864.00,0.0262
2863.00,0.0262
2862.00,0.0263
2861.00,0.0264
2860.00,0.0265
2859.00,0.0266
2858.00,0.0266
2857.00,0.0265
2856.00,0.0264
2855.00,0.0261
2854.00,0.0258
2853.00,0.0253
2852.00,0.0248
2851.00,0.0243
2850.00,0.0236
2849.00,0.0230
2848.00,0.0224
2847.00,0.0219
2846.00,0.0213
2845.00,0.0207
2844.00,0.0202
2843.00,0.0196
2842.00,0.0190
2841.00,0.0185
2840.00,0.0180
2839.00,0.0175
2838.00,0.0171
2837.00,0.0167
2836.00,0.0163
2835.00,0.0160
2834.00,0.0156
2833.00,0.0153
2832.00,0.0150
2831.00,0.0146
2830.00,0.0143
2829.00,0.0140
2828.00,0.0137
2827.00,0.0134
2826.00,0.0131
2825.00,0.0128
2824.00,0.0125
2823.00,0.0122
2822.00,0.0120
2821.00,0.0117
2820.00,0.0115
2819.00,0.0113
2818.00,0.0111
2817.00,0.0109
2816.00,0.0107
2815.00,0.0105
2814.00,0.0104
2813.00,0.0102
2812.00,0.0101
2811.00,0.0100
2810.00,0.0099
2809.00,0.0098
2808.00,0.0098
2807.00,0.0097
2806.00,0.0096
2805.00,0.0095
2804.00,0.0095
2803.00,0.0094
2802.00,0.0093
2801.00,0.0092
2800.00,0.0092
2799.00,0.0091
2798.00,0.0090
2797.00,0.0090
2796.00,0.0089
2795.00,0.0089
2794.00,0.0089
2793.00,0.0088
2792.00,0.0088
2791.00,0.0088
2790.00,0.0087
2789.00,0.0087
2788.00,0.0086
2787.00,0.0086
2786.00,0.0086
2785.00,0.0086
2784.00,0.0085
2783.00,0.0085
2782.00,0.0085
2781.00,0.0084
2780.00,0.0084
2779.00,0.0084
2778.00,0.0083
2777.00,0.0083
2776.00,0.0083
2775.00,0.0082
2774.00,0.0082
2773.00,0.0081
2772.00,0.0081
2771.00,0.0081
2770.00,0.0081
2769.00,0.0081
2768.00,0.0081
2767.00,0.0081
2766.00,0.0081
2765.00,0.0081
2764.00,0.0081
2763.00,0.0081
2762.00,0.0081
2761.00,0.0080
2760.00,0.0080
2759.00,0.0080
2758.00,0.0080
2757.00,0.0080
2756.00,0.0080
2755.00,0.0080
2754.00,0.0080
2753.00,0.0080
2752.00,0.0080
2751.00,0.0080
2750.00,0.0080
2749.00,0.0080
2748.00,0.0080
2747.00,0.0080
2746.00,0.0081
2745.00,0.0081
2744.00,0.0081
2743.00,0.0081
2742.00,0.0081
2741.00,0.0081
2740.00,0.0082
2739.00,0.0082
2738.00,0.0082
2737.00,0.0082
2736.00,0.0082
2735.00,0.0082
2734.00,0.0082
2733.00,0.0082
2732.00,0.0082
2731.00,0.0082
2730.00,0.0082
2729.00,0.0082
2728.00,0.0082
2727.00,0.0081
2726.00,0.0081
2725.00,0.0082
2724.00,0.0082
2723.00,0.0082
2722.00,0.0081
2721.00,0.0081
2720.00,0.0081
2719.00,0.0081
2718.00,0.0081
2717.00,0.0081
2716.00,0.0081
2715.00,0.0081
2714.00,0.0081
2713.00,0.0080
2712.00,0.0080
2711.00,0.0080
2710.00,0.0080
2709.00,0.0080
2708.00,0.0080
2707.00,0.0079
2706.00,0.0079
2705.00,0.0079
2704.00,0.0079
2703.00,0.0079
2702.00,0.0079
2701.00,0.0078
2700.00,0.0078
2699.00,0.0078
2698.00,0.0078
2697.00,0.0078
2696.00,0.0078
2695.00,0.0078
2694.00,0.0078
2693.00,0.0078
2692.00,0.0077
2691.00,0.0077
2690.00,0.0077
2689.00,0.0077
2688.00,0.0077
2687.00,0.0076
2686.00,0.0076
2685.00,0.0076
2684.00,0.0076
2683.00,0.0075
2682.00,0.0075
2681.00,0.0075
2680.00,0.0075
2679.00,0.0075
2678.00,0.0075
2677.00,0.0075
2676.00,0.0075
2675.00,0.0074
2674.00,0.0074
2673.00,0.0074
2672.00,0.0074
2671.00,0.0074
2670.00,0.0074
2669.00,0.0074
2668.00,0.0074
2667.00,0.0074
2666.00,0.0074
2665.00,0.0075
2664.00,0.0075
2663.00,0.0076
2662.00,0.0076
2661.00,0.0077
2660.00,0.0077
2659.00,0.0077
2658.00,0.0076
2657.00,0.0076
2656.00,0.0076
2655.00,0.0076
2654.00,0.0076
2653.00,0.0077
2652.00,0.0077
2651.00,0.0077
2650.00,0.0076
2649.00,0.0076
2648.00,0.0076
2647.00,0.0076
2646.00,0.0076
2645.00,0.0075
2644.00,0.0075
2643.00,0.0075
2642.00,0.0075
2641.00,0.0075
2640.00,0.0075
2639.00,0.0074
2638.00,0.0074
2637.00,0.0074
2636.00,0.0074
2635.00,0.0073
2634.00,0.0073
2633.00,0.0073
2632.00,0.0073
2631.00,0.0072
2630.00,0.0072
2629.00,0.0072
2628.00,0.0072
2627.00,0.0071
2626.00,0.0071
2625.00,0.0071
2624.00,0.0071
2623.00,0.0070
2622.00,0.0070
2621.00,0.0070
2620.00,0.0070
2619.00,0.0070
2618.00,0.0070
2617.00,0.0070
2616.00,0.0070
2615.00,0.0069
2614.00,0.0069
2613.00,0.0068
2612.00,0.0068
2611.00,0.0067
2610.00,0.0067
2609.00,0.0067
2608.00,0.0067
2607.00,0.0067
2606.00,0.0067
2605.00,0.0067
2604.00,0.0067
2603.00,0.0067
2602.00,0.0067
2601.00,0.0066
2600.00,0.0066
2599.00,0.0066
2598.00,0.0066
2597.00,0.0066
2596.00,0.0066
2595.00,0.0066
2594.00,0.0066
2593.00,0.0066
2592.00,0.0066
2591.00,0.0066
2590.00,0.0066
2589.00,0.0066
2588.00,0.0066
2587.00,0.0065
2586.00,0.0065
2585.00,0.0065
2584.00,0.0065
2583.00,0.0065
2582.00,0.0065
2581.00,0.0065
2580.00,0.0065
2579.00,0.0065
2578.00,0.0065
2577.00,0.0065
2576.00,0.0065
2575.00,0.0065
2574.00,0.0064
2573.00,0.0064
2572.00,0.0064
2571.00,0.0063
2570.00,0.0063
2569.00,0.0063
2568.00,0.0063
2567.00,0.0063
2566.00,0.0063
2565.00,0.0063
2564.00,0.0063
2563.00,0.0063
2562.00,0.0063
2561.00,0.0062
2560.00,0.0062
2559.00,0.0062
2558.00,0.0061
2557.00,0.0061
2556.00,0.0060
2555.00,0.0060
2554.00,0.0060
2553.00,0.0060
2552.00,0.0060
2551.00,0.0060
2550.00,0.0060
2549.00,0.0060
2548.00,0.0060
2547.00,0.0059
2546.00,0.0059
2545.00,0.0059
2544.00,0.0059
2543.00,0.0059
2542.00,0.0059
2541.00,0.0059
2540.00,0.0058
2539.00,0.0058
2538.00,0.0058
2537.00,0.0058
2536.00,0.0058
2535.00,0.0057
2534.00,0.0057
2533.00,0.0057
2532.00,0.0057
2531.00,0.0057
2530.00,0.0057
2529.00,0.0057
2528.00,0.0057
2527.00,0.0057
2526.00,0.0057
2525.00,0.0057
2524.00,0.0057
2523.00,0.0057
2522.00,0.0057
2521.00,0.0057
2520.00,0.0057
2519.00,0.0057
2518.00,0.0056
2517.00,0.0056
2516.00,0.0056
2515.00,0.0056
2514.00,0.0056
2513.00,0.0055
2512.00,0.0055
2511.00,0.0055
2510.00,0.0054
2509.00,0.0055
2508.00,0.0055
2507.00,0.0055
2506.00,0.0054
2505.00,0.0054
2504.00,0.0054
2503.00,0.0054
2502.00,0.0054
2501.00,0.0054
2500.00,0.0053
2499.00,0.0053
2498.00,0.0053
2497.00,0.0053
2496.00,0.0053
2495.00,0.0053
2494.00,0.0053
2493.00,0.0052
2492.00,0.0052
2491.00,0.0052
2490.00,0.0052
2489.00,0.0053
2488.00,0.0053
2487.00,0.0053
2486.00,0.0052
2485.00,0.0052
2484.00,0.0052
2483.00,0.0052
2482.00,0.0052
2481.00,0.0052
2480.00,0.0051
2479.00,0.0052
2478.00,0.0052
2477.00,0.0052
2476.00,0.0052
2475.00,0.0052
2474.00,0.0052
2473.00,0.0052
2472.00,0.0051
2471.00,0.0051
2470.00,0.0050
2469.00,0.0051
2468.00,0.0051
2467.00,0.0051
2466.00,0.0051
2465.00,0.0051
2464.00,0.0051
2463.00,0.0051
2462.00,0.0051
2461.00,0.0052
2460.00,0.0052
2459.00,0.0052
2458.00,0.0052
2457.00,0.0052
2456.00,0.0052
2455.00,0.0052
2454.00,0.0052
2453.00,0.0052
2452.00,0.0052
2451.00,0.0051
2450.00,0.0051
2449.00,0.0051
2448.00,0.0051
2447.00,0.0051
2446.00,0.0051
2445.00,0.0051
2444.00,0.0052
2443.00,0.0052
2442.00,0.0052
2441.00,0.0051
2440.00,0.0051
2439.00,0.0051
2438.00,0.0051
2437.00,0.0051
2436.00,0.0051
2435.00,0.0051
2434.00,0.0051
2433.00,0.0050
2432.00,0.0050
2431.00,0.0050
2430.00,0.0049
2429.00,0.0049
2428.00,0.0049
2427.00,0.0049
2426.00,0.0049
2425.00,0.0049
2424.00,0.0049
2423.00,0.0049
2422.00,0.0049
2421.00,0.0049
2420.00,0.0049
2419.00,0.0049
2418.00,0.0048
2417.00,0.0048
2416.00,0.0048
2415.00,0.0049
2414.00,0.0049
2413.00,0.0049
2412.00,0.0049
2411.00,0.0049
2410.00,0.0048
2409.00,0.0048
2408.00,0.0048
2407.00,0.0048
2406.00,0.0047
2405.00,0.0047
2404.00,0.0047
2403.00,0.0047
2402.00,0.0047
2401.00,0.0047
2400.00,0.0047
2399.00,0.0047
2398.00,0.0047
2397.00,0.0047
2396.00,0.0047
2395.00,0.0047
2394.00,0.0047
2393.00,0.0047
2392.00,0.0047
2391.00,0.0047
2390.00,0.0047
2389.00,0.0047
2388.00,0.0047
2387.00,0.0047
2386.00,0.0046
2385.00,0.0046
2384.00,0.0046
2383.00,0.0045
2382.00,0.0045
2381.00,0.0045
2380.00,0.0045
2379.00,0.0045
2378.00,0.0045
2377.00,0.0045
2376.00,0.0045
2375.00,0.0045
2374.00,0.0045
2373.00,0.0045
2372.00,0.0045
2371.00,0.0045
2370.00,0.0045
2369.00,0.0045
2368.00,0.0045
2367.00,0.0045
2366.00,0.0045
2365.00,0.0045
2364.00,0.0046
2363.00,0.0046
2362.00,0.0046
2361.00,0.0046
2360.00,0.0047
2359.00,0.0047
2358.00,0.0047
2357.00,0.0047
2356.00,0.0047
2355.00,0.0047
2354.00,0.0046
2353.00,0.0046
2352.00,0.0045
2351.00,0.0045
2350.00,0.0046
2349.00,0.0047
2348.00,0.0049
2347.00,0.0050
2346.00,0.0050
2345.00,0.0050
2344.00,0.0050
2343.00,0.0050
2342.00,0.0050
2341.00,0.0050
2340.00,0.0051
2339.00,0.0051
2338.00,0.0051
2337.00,0.0051
2336.00,0.0051
2335.00,0.0051
2334.00,0.0051
2333.00,0.0051
2332.00,0.0051
2331.00,0.0050
2330.00,0.0051
2329.00,0.0054
2328.00,0.0058
2327.00,0.0063
2326.00,0.0067
2325.00,0.0068
2324.00,0.0066
2323.00,0.0063
2322.00,0.0060
2321.00,0.0059
2320.00,0.0058
2319.00,0.0057
2318.00,0.0057
2317.00,0.0057
2316.00,0.0057
2315.00,0.0057
2314.00,0.0056
2313.00,0.0056
2312.00,0.0055
2311.00,0.0055
2310.00,0.0054
2309.00,0.0054
2308.00,0.0054
2307.00,0.0054
2306.00,0.0054
2305.00,0.0054
2304.00,0.0054
2303.00,0.0055
2302.00,0.0055
2301.00,0.0055
2300.00,0.0055
2299.00,0.0055
2298.00,0.0055
2297.00,0.0056
2296.00,0.0056
2295.00,0.0057
2294.00,0.0058
2293.00,0.0059
2292.00,0.0060
2291.00,0.0061
2290.00,0.0061
2289.00,0.0062
2288.00,0.0062
2287.00,0.0062
2286.00,0.0061
2285.00,0.0060
2284.00,0.0060
2283.00,0.0059
2282.00,0.0058
2281.00,0.0058
2280.00,0.0057
2279.00,0.0057
2278.00,0.0056
2277.00,0.0056
2276.00,0.0055
2275.00,0.0055
2274.00,0.0055
2273.00,0.0054
2272.00,0.0055
2271.00,0.0054
2270.00,0.0054
2269.00,0.0053
2268.00,0.0053
2267.00,0.0052
2266.00,0.0051
2265.00,0.0050
2264.00,0.0051
2263.00,0.0052
2262.00,0.0053
2261.00,0.0053
2260.00,0.0054
2259.00,0.0054
2258.00,0.0054
2257.00,0.0053
2256.00,0.0052
2255.00,0.0051
2254.00,0.0050
2253.00,0.0049
2252.00,0.0049
2251.00,0.0050
2250.00,0.0050
2249.00,0.0051
2248.00,0.0052
2247.00,0.0052
2246.00,0.0052
2245.00,0.0052
2244.00,0.0052
2243.00,0.0052
2242.00,0.0052
2241.00,0.0052
2240.00,0.0053
2239.00,0.0052
2238.00,0.0052
2237.00,0.0052
2236.00,0.0051
2235.00,0.0051
2234.00,0.0051
2233.00,0.0051
2232.00,0.0052
2231.00,0.0052
2230.00,0.0052
2229.00,0.0052
2228.00,0.0052
2227.00,0.0052
2226.00,0.0051
2225.00,0.0051
2224.00,0.0052
2223.00,0.0052
2222.00,0.0051
2221.00,0.0052
2220.00,0.0052
2219.00,0.0053
2218.00,0.0053
2217.00,0.0053
2216.00,0.0053
2215.00,0.0053
2214.00,0.0053
2213.00,0.0053
2212.00,0.0053
2211.00,0.0053
2210.00,0.0052
2209.00,0.0051
2208.00,0.0050
2207.00,0.0050
2206.00,0.0049
2205.00,0.0049
2204.00,0.0050
2203.00,0.0051
2202.00,0.0051
2201.00,0.0050
2200.00,0.0050
2199.00,0.0050
2198.00,0.0050
2197.00,0.0051
2196.00,0.0052
2195.00,0.0053
2194.00,0.0054
2193.00,0.0055
2192.00,0.0056
2191.00,0.0058
2190.00,0.0058
2189.00,0.0059
2188.00,0.0059
2187.00,0.0057
2186.00,0.0056
2185.00,0.0054
2184.00,0.0051
2183.00,0.0049
2182.00,0.0047
2181.00,0.0047
2180.00,0.0049
2179.00,0.0050
2178.00,0.0049
2177.00,0.0047
2176.00,0.0046
2175.00,0.0046
2174.00,0.0048
2173.00,0.0051
2172.00,0.0055
2171.00,0.0059
2170.00,0.0061
2169.00,0.0063
2168.00,0.0064
2167.00,0.0064
2166.00,0.0063
2165.00,0.0062
2164.00,0.0063
2163.00,0.0060
2162.00,0.0051
2161.00,0.0037
2160.00,0.0023
2159.00,0.0013
2158.00,0.0010
2157.00,0.0012
2156.00,0.0017
2155.00,0.0020
2154.00,0.0023
2153.00,0.0026
2152.00,0.0029
2151.00,0.0031
2150.00,0.0030
2149.00,0.0029
2148.00,0.0029
2147.00,0.0029
2146.00,0.0029
2145.00,0.0029
2144.00,0.0030
2143.00,0.0030
2142.00,0.0030
2141.00,0.0030
2140.00,0.0032
2139.00,0.0032
2138.00,0.0031
2137.00,0.0028
2136.00,0.0026
2135.00,0.0025
2134.00,0.0026
2133.00,0.0027
2132.00,0.0029
2131.00,0.0031
2130.00,0.0032
2129.00,0.0033
2128.00,0.0035
2127.00,0.0036
2126.00,0.0037
2125.00,0.0038
2124.00,0.0040
2123.00,0.0041
2122.00,0.0042
2121.00,0.0042
2120.00,0.0043
2119.00,0.0044
2118.00,0.0045
2117.00,0.0048
2116.00,0.0049
2115.00,0.0050
2114.00,0.0050
2113.00,0.0049
2112.00,0.0049
2111.00,0.0048
2110.00,0.0048
2109.00,0.0047
2108.00,0.0046
2107.00,0.0045
2106.00,0.0044
2105.00,0.0044
2104.00,0.0043
2103.00,0.0043
2102.00,0.0043
2101.00,0.0044
2100.00,0.0045
2099.00,0.0045
2098.00,0.0043
2097.00,0.0041
2096.00,0.0040
2095.00,0.0040
2094.00,0.0040
2093.00,0.0042
2092.00,0.0043
2091.00,0.0043
2090.00,0.0044
2089.00,0.0044
2088.00,0.0046
2087.00,0.0046
2086.00,0.0046
2085.00,0.0047
2084.00,0.0047
2083.00,0.0048
2082.00,0.0048
2081.00,0.0049
2080.00,0.0049
2079.00,0.0049
2078.00,0.0048
2077.00,0.0048
2076.00,0.0048
2075.00,0.0048
2074.00,0.0048
2073.00,0.0049
2072.00,0.0049
2071.00,0.0049
2070.00,0.0048
2069.00,0.0047
2068.00,0.0046
2067.00,0.0045
2066.00,0.0044
2065.00,0.0044
2064.00,0.0044
2063.00,0.0043
2062.00,0.0042
2061.00,0.0042
2060.00,0.0043
2059.00,0.0044
2058.00,0.0044
2057.00,0.0044
2056.00,0.0045
2055.00,0.0045
2054.00,0.0048
2053.00,0.0052
2052.00,0.0056
2051.00,0.0057
2050.00,0.0053
2049.00,0.0048
2048.00,0.0045
2047.00,0.0044
2046.00,0.0043
2045.00,0.0043
2044.00,0.0043
2043.00,0.0044
2042.00,0.0044
2041.00,0.0045
2040.00,0.0047
2039.00,0.0048
2038.00,0.0048
2037.00,0.0046
2036.00,0.0044
2035.00,0.0041
2034.00,0.0037
2033.00,0.0034
2032.00,0.0034
2031.00,0.0034
2030.00,0.0034
2029.00,0.0035
2028.00,0.0035
2027.00,0.0036
2026.00,0.0035
2025.00,0.0036
2024.00,0.0038
2023.00,0.0039
2022.00,0.0038
2021.00,0.0038
2020.00,0.0039
2019.00,0.0040
2018.00,0.0039
2017.00,0.0039
2016.00,0.0038
2015.00,0.0038
2014.00,0.0036
2013.00,0.0036
2012.00,0.0037
2011.00,0.0037
2010.00,0.0036
2009.00,0.0033
2008.00,0.0030
2007.00,0.0027
2006.00,0.0026
2005.00,0.0028
2004.00,0.0031
2003.00,0.0034
2002.00,0.0034
2001.00,0.0034
2000.00,0.0035
1999.00,0.0035
1998.00,0.0035
1997.00,0.0036
1996.00,0.0037
1995.00,0.0038
1994.00,0.0038
1993.00,0.0038
1992.00,0.0040
1991.00,0.0041
1990.00,0.0043
1989.00,0.0044
1988.00,0.0046
1987.00,0.0047
1986.00,0.0048
1985.00,0.0048
1984.00,0.0051
1983.00,0.0054
1982.00,0.0055
1981.00,0.0055
1980.00,0.0051
1979.00,0.0044
1978.00,0.0036
1977.00,0.0030
1976.00,0.0028
1975.00,0.0027
1974.00,0.0026
1973.00,0.0026
1972.00,0.0028
1971.00,0.0030
1970.00,0.0030
1969.00,0.0030
1968.00,0.0030
1967.00,0.0029
1966.00,0.0028
1965.00,0.0028
1964.00,0.0028
1963.00,0.0028
1962.00,0.0027
1961.00,0.0025
1960.00,0.0024
1959.00,0.0024
1958.00,0.0025
1957.00,0.0026
1956.00,0.0029
1955.00,0.0030
1954.00,0.0030
1953.00,0.0031
1952.00,0.0032
1951.00,0.0032
1950.00,0.0032
1949.00,0.0033
1948.00,0.0033
1947.00,0.0033
1946.00,0.0032
1945.00,0.0031
1944.00,0.0030
1943.00,0.0030
1942.00,0.0029
1941.00,0.0029
1940.00,0.0030
1939.00,0.0031
1938.00,0.0032
1937.00,0.0033
1936.00,0.0034
1935.00,0.0034
1934.00,0.0033
1933.00,0.0032
1932.00,0.0032
1931.00,0.0032
1930.00,0.0032
1929.00,0.0032
1928.00,0.0033
1927.00,0.0034
1926.00,0.0034
1925.00,0.0033
1924.00,0.0034
1923.00,0.0035
1922.00,0.0035
1921.00,0.0036
1920.00,0.0036
1919.00,0.0037
1918.00,0.0037
1917.00,0.0036
1916.00,0.0037
1915.00,0.0036
1914.00,0.0036
1913.00,0.0036
1912.00,0.0036
1911.00,0.0036
1910.00,0.0036
1909.00,0.0036
1908.00,0.0036
1907.00,0.0036
1906.00,0.0036
1905.00,0.0036
1904.00,0.0037
1903.00,0.0037
1902.00,0.0037
1901.00,0.0037
1900.00,0.0037
1899.00,0.0037
1898.00,0.0036
1897.00,0.0036
1896.00,0.0037
1895.00,0.0037
1894.00,0.0037
1893.00,0.0037
1892.00,0.0037
1891.00,0.0037
1890.00,0.0036
1889.00,0.0036
1888.00,0.0036
1887.00,0.0037
1886.00,0.0037
1885.00,0.0038
1884.00,0.0038
1883.00,0.0038
1882.00,0.0037
1881.00,0.0037
1880.00,0.0037
1879.00,0.0037
1878.00,0.0037
1877.00,0.0037
1876.00,0.0038
1875.00,0.0038
1874.00,0.0038
1873.00,0.0038
1872.00,0.0038
1871.00,0.0039
1870.00,0.0039
1869.00,0.0038
1868.00,0.0038
1867.00,0.0037
1866.00,0.0037
1865.00,0.0037
1864.00,0.0037
1863.00,0.0037
1862.00,0.0037
1861.00,0.0037
1860.00,0.0038
1859.00,0.0038
1858.00,0.0038
1857.00,0.0038
1856.00,0.0038
1855.00,0.0038
1854.00,0.0038
1853.00,0.0038
1852.00,0.0039
1851.00,0.0039
1850.00,0.0039
1849.00,0.0039
1848.00,0.0039
1847.00,0.0039
1846.00,0.0039
1845.00,0.0038
1844.00,0.0038
1843.00,0.0038
1842.00,0.0038
1841.00,0.0038
1840.00,0.0039
1839.00,0.0039
1838.00,0.0039
1837.00,0.0039
1836.00,0.0039
1835.00,0.0039
1834.00,0.0039
1833.00,0.0039
1832.00,0.0040
1831.00,0.0040
1830.00,0.0039
1829.00,0.0039
1828.00,0.0039
1827.00,0.0039
1826.00,0.0039
1825.00,0.0039
1824.00,0.0040
1823.00,0.0040
1822.00,0.0040
1821.00,0.0039
1820.00,0.0038
1819.00,0.0037
1818.00,0.0036
1817.00,0.0035
1816.00,0.0036
1815.00,0.0037
1814.00,0.0038
1813.00,0.0039
1812.00,0.0039
1811.00,0.0039
1810.00,0.0039
1809.00,0.0039
1808.00,0.0039
1807.00,0.0039
1806.00,0.0039
1805.00,0.0040
1804.00,0.0040
1803.00,0.0040
1802.00,0.0040
1801.00,0.0040
1800.00,0.0040
1799.00,0.0040
1798.00,0.0041
1797.00,0.0041
1796.00,0.0041
1795.00,0.0042
1794.00,0.0041
1793.00,0.0041
1792.00,0.0041
1791.00,0.0041
1790.00,0.0041
1789.00,0.0041
1788.00,0.0041
1787.00,0.0042
1786.00,0.0041
1785.00,0.0041
1784.00,0.0042
1783.00,0.0042
1782.00,0.0043
1781.00,0.0043
1780.00,0.0043
1779.00,0.0043
1778.00,0.0043
1777.00,0.0043
1776.00,0.0043
1775.00,0.0044
1774.00,0.0043
1773.00,0.0043
1772.00,0.0043
1771.00,0.0044
1770.00,0.0044
1769.00,0.0044
1768.00,0.0044
1767.00,0.0044
1766.00,0.0044
1765.00,0.0045
1764.00,0.0046
1763.00,0.0046
1762.00,0.0046
1761.00,0.0046
1760.00,0.0047
1759.00,0.0047
1758.00,0.0047
1757.00,0.0048
1756.00,0.0048
1755.00,0.0049
1754.00,0.0049
1753.00,0.0050
1752.00,0.0051
1751.00,0.0052
1750.00,0.0052
1749.00,0.0052
1748.00,0.0053
1747.00,0.0053
1746.00,0.0054
1745.00,0.0054
1744.00,0.0055
1743.00,0.0056
1742.00,0.0055
1741.00,0.0055
1740.00,0.0056
1739.00,0.0057
1738.00,0.0057
1737.00,0.0058
1736.00,0.0059
1735.00,0.0061
1734.00,0.0061
1733.00,0.0061
1732.00,0.0063
1731.00,0.0065
1730.00,0.0065
1729.00,0.0065
1728.00,0.0067
1727.00,0.0068
1726.00,0.0069
1725.00,0.0071
1724.00,0.0073
1723.00,0.0075
1722.00,0.0076
1721.00,0.0077
1720.00,0.0080
1719.00,0.0083
1718.00,0.0086
1717.00,0.0090
1716.00,0.0094
1715.00,0.0097
1714.00,0.0099
1713.00,0.0103
1712.00,0.0108
1711.00,0.0114
1710.00,0.0119
1709.00,0.0126
1708.00,0.0134
1707.00,0.0144
1706.00,0.0156
1705.00,0.0169
1704.00,0.0183
1703.00,0.0194
1702.00,0.0207
1701.00,0.0231
1700.00,0.0268
1699.00,0.0301
1698.00,0.0326
1697.00,0.0356
1696.00,0.0400
1695.00,0.0449
1694.00,0.0489
1693.00,0.0522
1692.00,0.0557
1691.00,0.0597
1690.00,0.0642
1689.00,0.0687
1688.00,0.0726
1687.00,0.0757
1686.00,0.0789
1685.00,0.0840
1684.00,0.0910
1683.00,0.0967
1682.00,0.0999
1681.00,0.1022
1680.00,0.1046
1679.00,0.1067
1678.00,0.1085
1677.00,0.1103
1676.00,0.1130
1675.00,0.1164
1674.00,0.1191
1673.00,0.1207
1672.00,0.1220
1671.00,0.1239
1670.00,0.1268
1669.00,0.1303
1668.00,0.1332
1667.00,0.1352
1666.00,0.1363
1665.00,0.1376
1664.00,0.1396
1663.00,0.1426
1662.00,0.1456
1661.00,0.1479
1660.00,0.1495
1659.00,0.1505
1658.00,0.1512
1657.00,0.1512
1656.00,0.1507
1655.00,0.1502
1654.00,0.1514
1653.00,0.1545
1652.00,0.1560
1651.00,0.1547
1650.00,0.1519
1649.00,0.1487
1648.00,0.1458
1647.00,0.1432
1646.00,0.1402
1645.00,0.1366
1644.00,0.1325
1643.00,0.1281
1642.00,0.1234
1641.00,0.1186
1640.00,0.1138
1639.00,0.1091
1638.00,0.1045
1637.00,0.0997
1636.00,0.0948
1635.00,0.0903
1634.00,0.0863
1633.00,0.0826
1632.00,0.0792
1631.00,0.0759
1630.00,0.0729
1629.00,0.0701
1628.00,0.0676
1627.00,0.0655
1626.00,0.0637
1625.00,0.0620
1624.00,0.0606
1623.00,0.0595
1622.00,0.0585
1621.00,0.0574
1620.00,0.0562
1619.00,0.0550
1618.00,0.0537
1617.00,0.0524
1616.00,0.0511
1615.00,0.0498
1614.00,0.0483
1613.00,0.0468
1612.00,0.0453
1611.00,0.0440
1610.00,0.0429
1609.00,0.0420
1608.00,0.0414
1607.00,0.0411
1606.00,0.0411
1605.00,0.0413
1604.00,0.0418
1603.00,0.0425
1602.00,0.0433
1601.00,0.0439
1600.00,0.0443
1599.00,0.0444
1598.00,0.0443
1597.00,0.0438
1596.00,0.0429
1595.00,0.0419
1594.00,0.0407
1593.00,0.0395
1592.00,0.0382
1591.00,0.0371
1590.00,0.0360
1589.00,0.0349
1588.00,0.0339
1587.00,0.0329
1586.00,0.0320
1585.00,0.0310
1584.00,0.0300
1583.00,0.0290
1582.00,0.0280
1581.00,0.0270
1580.00,0.0261
1579.00,0.0252
1578.00,0.0244
1577.00,0.0236
1576.00,0.0227
1575.00,0.0221
1574.00,0.0215
1573.00,0.0209
1572.00,0.0204
1571.00,0.0198
1570.00,0.0194
1569.00,0.0190
1568.00,0.0186
1567.00,0.0183
1566.00,0.0180
1565.00,0.0177
1564.00,0.0174
1563.00,0.0171
1562.00,0.0167
1561.00,0.0164
1560.00,0.0161
1559.00,0.0159
1558.00,0.0159
1557.00,0.0159
1556.00,0.0158
1555.00,0.0157
1554.00,0.0156
1553.00,0.0155
1552.00,0.0154
1551.00,0.0154
1550.00,0.0153
1549.00,0.0152
1548.00,0.0152
1547.00,0.0151
1546.00,0.0151
1545.00,0.0151
1544.00,0.0151
1543.00,0.0150
1542.00,0.0150
1541.00,0.0150
1540.00,0.0150
1539.00,0.0150
1538.00,0.0150
1537.00,0.0149
1536.00,0.0148
1535.00,0.0147
1534.00,0.0146
1533.00,0.0146
1532.00,0.0145
1531.00,0.0145
1530.00,0.0144
1529.00,0.0144
1528.00,0.0144
1527.00,0.0144
1526.00,0.0144
1525.00,0.0145
1524.00,0.0145
1523.00,0.0145
1522.00,0.0146
1521.00,0.0147
1520.00,0.0148
1519.00,0.0149
1518.00,0.0150
1517.00,0.0151
1516.00,0.0152
1515.00,0.0152
1514.00,0.0153
1513.00,0.0154
1512.00,0.0156
1511.00,0.0159
1510.00,0.0161
1509.00,0.0165
1508.00,0.0170
1507.00,0.0178
1506.00,0.0190
1505.00,0.0201
1504.00,0.0211
1503.00,0.0222
1502.00,0.0234
1501.00,0.0248
1500.00,0.0264
1499.00,0.0281
1498.00,0.0300
1497.00,0.0318
1496.00,0.0334
1495.00,0.0344
1494.00,0.0348
1493.00,0.0348
1492.00,0.0343
1491.00,0.0334
1490.00,0.0321
1489.00,0.0305
1488.00,0.0287
1487.00,0.0270
1486.00,0.0253
1485.00,0.0240
1484.00,0.0228
1483.00,0.0219
1482.00,0.0211
1481.00,0.0207
1480.00,0.0204
1479.00,0.0204
1478.00,0.0206
1477.00,0.0211
1476.00,0.0219
1475.00,0.0229
1474.00,0.0243
1473.00,0.0266
1472.00,0.0297
1471.00,0.0327
1470.00,0.0357
1469.00,0.0386
1468.00,0.0418
1467.00,0.0452
1466.00,0.0492
1465.00,0.0538
1464.00,0.0579
1463.00,0.0608
1462.00,0.0624
1461.00,0.0631
1460.00,0.0631
1459.00,0.0624
1458.00,0.0608
1457.00,0.0587
1456.00,0.0565
1455.00,0.0546
1454.00,0.0531
1453.00,0.0520
1452.00,0.0515
1451.00,0.0514
1450.00,0.0520
1449.00,0.0533
1448.00,0.0554
1447.00,0.0580
1446.00,0.0607
1445.00,0.0635
1444.00,0.0666
1443.00,0.0697
1442.00,0.0728
1441.00,0.0758
1440.00,0.0783
1439.00,0.0804
1438.00,0.0828
1437.00,0.0858
1436.00,0.0891
1435.00,0.0915
1434.00,0.0931
1433.00,0.0945
1432.00,0.0961
1431.00,0.0978
1430.00,0.0995
1429.00,0.1013
1428.00,0.1028
1427.00,0.1039
1426.00,0.1049
1425.00,0.1061
1424.00,0.1072
1423.00,0.1075
1422.00,0.1067
1421.00,0.1048
1420.00,0.1015
1419.00,0.0967
1418.00,0.0909
1417.00,0.0850
1416.00,0.0790
1415.00,0.0731
1414.00,0.0675
1413.00,0.0625
1412.00,0.0579
1411.00,0.0538
1410.00,0.0504
1409.00,0.0475
1408.00,0.0451
1407.00,0.0431
1406.00,0.0414
1405.00,0.0400
1404.00,0.0388
1403.00,0.0378
1402.00,0.0370
1401.00,0.0363
1400.00,0.0357
1399.00,0.0353
1398.00,0.0350
1397.00,0.0347
1396.00,0.0344
1395.00,0.0343
1394.00,0.0344
1393.00,0.0345
1392.00,0.0346
1391.00,0.0349
1390.00,0.0353
1389.00,0.0359
1388.00,0.0368
1387.00,0.0379
1386.00,0.0391
1385.00,0.0402
1384.00,0.0412
1383.00,0.0422
1382.00,0.0433
1381.00,0.0443
1380.00,0.0452
1379.00,0.0461
1378.00,0.0468
1377.00,0.0472
1376.00,0.0474
1375.00,0.0474
1374.00,0.0471
1373.00,0.0466
1372.00,0.0459
1371.00,0.0451
1370.00,0.0443
1369.00,0.0435
1368.00,0.0426
1367.00,0.0417
1366.00,0.0408
1365.00,0.0399
1364.00,0.0389
1363.00,0.0379
1362.00,0.0369
1361.00,0.0360
1360.00,0.0351
1359.00,0.0343
1358.00,0.0336
1357.00,0.0330
1356.00,0.0325
1355.00,0.0321
1354.00,0.0317
1353.00,0.0314
1352.00,0.0310
1351.00,0.0306
1350.00,0.0301
1349.00,0.0297
1348.00,0.0292
1347.00,0.0287
1346.00,0.0283
1345.00,0.0280
1344.00,0.0277
1343.00,0.0274
1342.00,0.0273
1341.00,0.0273
1340.00,0.0274
1339.00,0.0275
1338.00,0.0276
1337.00,0.0277
1336.00,0.0279
1335.00,0.0281
1334.00,0.0284
1333.00,0.0288
1332.00,0.0293
1331.00,0.0299
1330.00,0.0307
1329.00,0.0316
1328.00,0.0326
1327.00,0.0337
1326.00,0.0350
1325.00,0.0364
1324.00,0.0378
1323.00,0.0393
1322.00,0.0407
1321.00,0.0420
1320.00,0.0432
1319.00,0.0441
1318.00,0.0447
1317.00,0.0450
1316.00,0.0450
1315.00,0.0447
1314.00,0.0441
1313.00,0.0434
1312.00,0.0425
1311.00,0.0416
1310.00,0.0408
1309.00,0.0401
1308.00,0.0396
1307.00,0.0393
1306.00,0.0393
1305.00,0.0397
1304.00,0.0404
1303.00,0.0415
1302.00,0.0432
1301.00,0.0454
1300.00,0.0483
1299.00,0.0519
1298.00,0.0562
1297.00,0.0612
1296.00,0.0668
1295.00,0.0728
1294.00,0.0791
1293.00,0.0852
1292.00,0.0909
1291.00,0.0961
1290.00,0.1005
1289.00,0.1039
1288.00,0.1064
1287.00,0.1078
1286.00,0.1080
1285.00,0.1072
1284.00,0.1056
1283.00,0.1034
1282.00,0.1009
1281.00,0.0984
1280.00,0.0963
1279.00,0.0948
1278.00,0.0940
1277.00,0.0939
1276.00,0.0942
1275.00,0.0947
1274.00,0.0953
1273.00,0.0957
1272.00,0.0957
1271.00,0.0951
1270.00,0.0938
1269.00,0.0919
1268.00,0.0894
1267.00,0.0864
1266.00,0.0830
1265.00,0.0795
1264.00,0.0759
1263.00,0.0724
1262.00,0.0690
1261.00,0.0657
1260.00,0.0626
1259.00,0.0598
1258.00,0.0572
1257.00,0.0548
1256.00,0.0526
1255.00,0.0506
1254.00,0.0488
1253.00,0.0472
1252.00,0.0457
1251.00,0.0444
1250.00,0.0433
1249.00,0.0424
1248.00,0.0415
1247.00,0.0409
1246.00,0.0404
1245.00,0.0400
1244.00,0.0398
1243.00,0.0398
1242.00,0.0399
1241.00,0.0403
1240.00,0.0407
1239.00,0.0414
1238.00,0.0422
1237.00,0.0433
1236.00,0.0444
1235.00,0.0457
1234.00,0.0471
1233.00,0.0484
1232.00,0.0497
1231.00,0.0508
1230.00,0.0518
1229.00,0.0525
1228.00,0.0530
1227.00,0.0533
1226.00,0.0534
1225.00,0.0533
1224.00,0.0532
1223.00,0.0530
1222.00,0.0528
1221.00,0.0525
1220.00,0.0520
1219.00,0.0515
1218.00,0.0509
1217.00,0.0501
1216.00,0.0492
1215.00,0.0483
1214.00,0.0473
1213.00,0.0463
1212.00,0.0453
1211.00,0.0442
1210.00,0.0433
1209.00,0.0424
1208.00,0.0416
1207.00,0.0409
1206.00,0.0402
1205.00,0.0396
1204.00,0.0389
1203.00,0.0383
1202.00,0.0378
1201.00,0.0372
1200.00,0.0367
1199.00,0.0361
1198.00,0.0356
1197.00,0.0350
1196.00,0.0345
1195.00,0.0341
1194.00,0.0337
1193.00,0.0333
1192.00,0.0329
1191.00,0.0325
1190.00,0.0323
1189.00,0.0321
1188.00,0.0318
1187.00,0.0317
1186.00,0.0315
1185.00,0.0315
1184.00,0.0314
1183.00,0.0314
1182.00,0.0316
1181.00,0.0318
1180.00,0.0321
1179.00,0.0325
1178.00,0.0331
1177.00,0.0338
1176.00,0.0346
1175.00,0.0355
1174.00,0.0365
1173.00,0.0376
1172.00,0.0386
1171.00,0.0396
1170.00,0.0406
1169.00,0.0415
1168.00,0.0421
1167.00,0.0426
1166.00,0.0429
1165.00,0.0429
1164.00,0.0426
1163.00,0.0421
1162.00,0.0414
1161.00,0.0405
1160.00,0.0396
1159.00,0.0386
1158.00,0.0377
1157.00,0.0367
1156.00,0.0358
1155.00,0.0348
1154.00,0.0339
1153.00,0.0330
1152.00,0.0320
1151.00,0.0311
1150.00,0.0302
1149.00,0.0294
1148.00,0.0285
1147.00,0.0277
1146.00,0.0270
1145.00,0.0263
1144.00,0.0256
1143.00,0.0250
1142.00,0.0246
1141.00,0.0241
1140.00,0.0237
1139.00,0.0232
1138.00,0.0228
1137.00,0.0224
1136.00,0.0220
1135.00,0.0217
1134.00,0.0214
1133.00,0.0212
1132.00,0.0209
1131.00,0.0206
1130.00,0.0205
1129.00,0.0203
1128.00,0.0201
1127.00,0.0200
1126.00,0.0199
1125.00,0.0198
1124.00,0.0197
1123.00,0.0197
1122.00,0.0197
1121.00,0.0197
1120.00,0.0197
1119.00,0.0198
1118.00,0.0200
1117.00,0.0202
1116.00,0.0204
1115.00,0.0206
1114.00,0.0210
1113.00,0.0213
1112.00,0.0216
1111.00,0.0219
1110.00,0.0221
1109.00,0.0223
1108.00,0.0224
1107.00,0.0224
1106.00,0.0224
1105.00,0.0223
1104.00,0.0223
1103.00,0.0222
1102.00,0.0223
1101.00,0.0224
1100.00,0.0225
1099.00,0.0227
1098.00,0.0229
1097.00,0.0231
1096.00,0.0233
1095.00,0.0234
1094.00,0.0235
1093.00,0.0236
1092.00,0.0236
1091.00,0.0236
1090.00,0.0238
1089.00,0.0240
1088.00,0.0242
1087.00,0.0245
1086.00,0.0249
1085.00,0.0251
1084.00,0.0253
1083.00,0.0254
1082.00,0.0255
1081.00,0.0255
1080.00,0.0253
1079.00,0.0251
1078.00,0.0249
1077.00,0.0246
1076.00,0.0243
1075.00,0.0240
1074.00,0.0236
1073.00,0.0232
1072.00,0.0228
1071.00,0.0223
1070.00,0.0219
1069.00,0.0214
1068.00,0.0211
1067.00,0.0208
1066.00,0.0207
1065.00,0.0207
1064.00,0.0208
1063.00,0.0211
1062.00,0.0216
1061.00,0.0224
1060.00,0.0233
1059.00,0.0246
1058.00,0.0262
1057.00,0.0282
1056.00,0.0306
1055.00,0.0334
1054.00,0.0364
1053.00,0.0393
1052.00,0.0420
1051.00,0.0441
1050.00,0.0455
1049.00,0.0460
1048.00,0.0456
1047.00,0.0446
1046.00,0.0431
1045.00,0.0414
1044.00,0.0395
1043.00,0.0378
1042.00,0.0363
1041.00,0.0350
1040.00,0.0339
1039.00,0.0330
1038.00,0.0322
1037.00,0.0315
1036.00,0.0309
1035.00,0.0304
1034.00,0.0299
1033.00,0.0295
1032.00,0.0292
1031.00,0.0289
1030.00,0.0287
1029.00,0.0286
1028.00,0.0285
1027.00,0.0286
1026.00,0.0287
1025.00,0.0288
1024.00,0.0289
1023.00,0.0291
1022.00,0.0293
1021.00,0.0294
1020.00,0.0295
1019.00,0.0294
1018.00,0.0292
1017.00,0.0288
1016.00,0.0281
1015.00,0.0273
1014.00,0.0264
1013.00,0.0254
1012.00,0.0245
1011.00,0.0237
1010.00,0.0232
1009.00,0.0228
1008.00,0.0226
1007.00,0.0227
1006.00,0.0230
1005.00,0.0234
1004.00,0.0238
1003.00,0.0240
1002.00,0.0242
1001.00,0.0241
1000.00,0.0238
999.00,0.0233
998.00,0.0228
997.00,0.0223
996.00,0.0218
995.00,0.0214
994.00,0.0212
993.00,0.0210
992.00,0.0208
991.00,0.0207
990.00,0.0207
989.00,0.0208
988.00,0.0208
987.00,0.0208
986.00,0.0207
985.00,0.0206
984.00,0.0204
983.00,0.0202
982.00,0.0199
981.00,0.0197
980.00,0.0193
979.00,0.0190
978.00,0.0187
977.00,0.0184
976.00,0.0181
975.00,0.0178
974.00,0.0175
973.00,0.0173
972.00,0.0170
971.00,0.0167
970.00,0.0164
969.00,0.0161
968.00,0.0158
967.00,0.0155
966.00,0.0153
965.00,0.0152
964.00,0.0150
963.00,0.0149
962.00,0.0148
961.00,0.0147
960.00,0.0145
959.00,0.0143
958.00,0.0141
957.00,0.0140
956.00,0.0138
955.00,0.0136
954.00,0.0135
953.00,0.0134
952.00,0.0133
951.00,0.0132
950.00,0.0132
949.00,0.0132
948.00,0.0132
947.00,0.0132
946.00,0.0133
945.00,0.0133
944.00,0.0134
943.00,0.0136
942.00,0.0139
941.00,0.0143
940.00,0.0147
939.00,0.0153
938.00,0.0159
937.00,0.0165
936.00,0.0171
935.00,0.0177
934.00,0.0181
933.00,0.0184
932.00,0.0184
931.00,0.0182
930.00,0.0180
929.00,0.0178
928.00,0.0176
927.00,0.0174
926.00,0.0174
925.00,0.0174
924.00,0.0174
923.00,0.0173
922.00,0.0174
921.00,0.0175
920.00,0.0175
919.00,0.0176
918.00,0.0178
917.00,0.0180
916.00,0.0181
915.00,0.0182
914.00,0.0185
913.00,0.0187
912.00,0.0189
911.00,0.0190
910.00,0.0193
909.00,0.0195
908.00,0.0196
907.00,0.0198
906.00,0.0199
905.00,0.0200
904.00,0.0200
903.00,0.0201
902.00,0.0202
901.00,0.0203
900.00,0.0204
899.00,0.0204
898.00,0.0205
897.00,0.0206
896.00,0.0206
895.00,0.0205
894.00,0.0205
893.00,0.0203
892.00,0.0200
891.00,0.0197
890.00,0.0194
889.00,0.0192
888.00,0.0190
887.00,0.0188
886.00,0.0188
885.00,0.0188
884.00,0.0187
883.00,0.0187
882.00,0.0187
881.00,0.0188
880.00,0.0188
879.00,0.0189
878.00,0.0190
877.00,0.0192
876.00,0.0192
875.00,0.0194
874.00,0.0196
873.00,0.0198
872.00,0.0199
871.00,0.0201
870.00,0.0204
869.00,0.0206
868.00,0.0209
867.00,0.0213
866.00,0.0218
865.00,0.0223
864.00,0.0228
863.00,0.0234
862.00,0.0240
861.00,0.0247
860.00,0.0255
859.00,0.0263
858.00,0.0273
857.00,0.0283
856.00,0.0292
855.00,0.0301
854.00,0.0311
853.00,0.0321
852.00,0.0330
851.00,0.0339
850.00,0.0348
849.00,0.0356
848.00,0.0363
847.00,0.0368
846.00,0.0373
845.00,0.0377
844.00,0.0380
843.00,0.0382
842.00,0.0385
841.00,0.0386
840.00,0.0386
839.00,0.0386
838.00,0.0386
837.00,0.0385
836.00,0.0385
835.00,0.0385
834.00,0.0385
833.00,0.0385
832.00,0.0384
831.00,0.0382
830.00,0.0379
829.00,0.0375
828.00,0.0370
827.00,0.0364
826.00,0.0357
825.00,0.0349
824.00,0.0340
823.00,0.0331
822.00,0.0322
821.00,0.0312
820.00,0.0303
819.00,0.0294
818.00,0.0286
817.00,0.0279
816.00,0.0272
815.00,0.0266
814.00,0.0261
813.00,0.0257
812.00,0.0252
811.00,0.0248
810.00,0.0244
809.00,0.0241
808.00,0.0237
807.00,0.0235
806.00,0.0233
805.00,0.0231
804.00,0.0230
803.00,0.0229
802.00,0.0230
801.00,0.0232
800.00,0.0232
799.00,0.0234
798.00,0.0236
797.00,0.0238
796.00,0.0239
795.00,0.0240
794.00,0.0242
793.00,0.0244
792.00,0.0244
791.00,0.0245
790.00,0.0246
789.00,0.0247
788.00,0.0248
787.00,0.0249
786.00,0.0251
785.00,0.0252
784.00,0.0254
783.00,0.0255
782.00,0.0258
781.00,0.0261
780.00,0.0263
779.00,0.0265
778.00,0.0267
777.00,0.0269
776.00,0.0270
775.00,0.0270
774.00,0.0272
773.00,0.0273
772.00,0.0274
771.00,0.0275
770.00,0.0278
769.00,0.0279
768.00,0.0280
767.00,0.0281
766.00,0.0284
765.00,0.0287
764.00,0.0289
763.00,0.0293
762.00,0.0297
761.00,0.0301
760.00,0.0305
759.00,0.0310
758.00,0.0316
757.00,0.0322
756.00,0.0327
755.00,0.0333
754.00,0.0339
753.00,0.0345
752.00,0.0351
751.00,0.0358
750.00,0.0365
749.00,0.0372
748.00,0.0378
747.00,0.0384
746.00,0.0390
745.00,0.0396
744.00,0.0401
743.00,0.0406
742.00,0.0411
741.00,0.0416
740.00,0.0420
739.00,0.0424
738.00,0.0428
737.00,0.0431
736.00,0.0432
735.00,0.0432
734.00,0.0431
733.00,0.0429
732.00,0.0425
731.00,0.0419
730.00,0.0412
729.00,0.0403
728.00,0.0394
727.00,0.0385
726.00,0.0378
725.00,0.0371
724.00,0.0364
723.00,0.0358
722.00,0.0353
721.00,0.0347
720.00,0.0342
719.00,0.0338
718.00,0.0336
717.00,0.0334
716.00,0.0333
715.00,0.0332
714.00,0.0331
713.00,0.0331
712.00,0.0330
711.00,0.0330
710.00,0.0330
709.00,0.0331
708.00,0.0331
707.00,0.0332
706.00,0.0333
705.00,0.0334
704.00,0.0334
703.00,0.0335
702.00,0.0337
701.00,0.0339
700.00,0.0341
699.00,0.0343
698.00,0.0346
697.00,0.0348
696.00,0.0349
695.00,0.0351
694.00,0.0354
693.00,0.0357
692.00,0.0359
691.00,0.0362
690.00,0.0366
689.00,0.0370
688.00,0.0373
687.00,0.0377
686.00,0.0382
685.00,0.0387
684.00,0.0390
683.00,0.0394
682.00,0.0399
681.00,0.0404
680.00,0.0408
679.00,0.0412
678.00,0.0417
677.00,0.0423
676.00,0.0427
675.00,0.0431
674.00,0.0436
673.00,0.0441
672.00,0.0445
671.00,0.0450
670.00,0.0455
669.00,0.0463
668.00,0.0473
667.00,0.0484
666.00,0.0493
665.00,0.0499
664.00,0.0506
663.00,0.0515
662.00,0.0525
661.00,0.0534
660.00,0.0543
659.00,0.0553
658.00,0.0563
657.00,0.0574
656.00,0.0583
655.00,0.0592
654.00,0.0602
653.00,0.0611
652.00,0.0617
651.00,0.0622
650.00,0.0627
649.00,0.0629
648.00,0.0628
647.00,0.0626
646.00,0.0623
645.00,0.0619
644.00,0.0612
643.00,0.0604
642.00,0.0596
641.00,0.0588
640.00,0.0579
639.00,0.0571
638.00,0.0563
637.00,0.0554
636.00,0.0545
635.00,0.0536
634.00,0.0528
633.00,0.0521
632.00,0.0514
631.00,0.0509
630.00,0.0504
629.00,0.0500
628.00,0.0494
627.00,0.0489
626.00,0.0486
625.00,0.0484
624.00,0.0480
623.00,0.0477
622.00,0.0475
621.00,0.0474
620.00,0.0472
619.00,0.0472
618.00,0.0473
617.00,0.0473
616.00,0.0471
615.00,0.0470
614.00,0.0471
613.00,0.0473
612.00,0.0474
611.00,0.0476
610.00,0.0479
609.00,0.0481
608.00,0.0481
607.00,0.0481
606.00,0.0484
605.00,0.0487
604.00,0.0489
603.00,0.0491
602.00,0.0495
601.00,0.0499
600.00,0.0502
599.00,0.0503
598.00,0.0507
597.00,0.0510
596.00,0.0513
595.00,0.0517
594.00,0.0522
593.00,0.0528
592.00,0.0533
591.00,0.0538
590.00,0.0545
589.00,0.0552
588.00,0.0560
587.00,0.0568
586.00,0.0579
585.00,0.0590
584.00,0.0600
583.00,0.0610
582.00,0.0620
581.00,0.0629
580.00,0.0635
579.00,0.0640
578.00,0.0647
577.00,0.0653
576.00,0.0656
575.00,0.0657
574.00,0.0658
573.00,0.0657
572.00,0.0655
571.00,0.0652
570.00,0.0649
569.00,0.0644
568.00,0.0637
567.00,0.0630
566.00,0.0626
565.00,0.0620
564.00,0.0613
563.00,0.0606
562.00,0.0601
561.00,0.0595
560.00,0.0586
559.00,0.0578
558.00,0.0572
557.00,0.0566
556.00,0.0559
555.00,0.0553
554.00,0.0549
553.00,0.0545
552.00,0.0539
551.00,0.0533
550.00,0.0531
549.00,0.0529
548.00,0.0525
547.00,0.0521
546.00,0.0518
545.00,0.0515
544.00,0.0512
543.00,0.0510
542.00,0.0510
541.00,0.0510
540.00,0.0506
539.00,0.0502
538.00,0.0502
537.00,0.0503
536.00,0.0502
535.00,0.0502
534.00,0.0504
533.00,0.0504
532.00,0.0502
531.00,0.0500
530.00,0.0499
529.00,0.0498
528.00,0.0494
527.00,0.0492
526.00,0.0493
525.00,0.0494
524.00,0.0492
523.00,0.0490
522.00,0.0489
521.00,0.0489
520.00,0.0486
519.00,0.0483
518.00,0.0482
517.00,0.0481
516.00,0.0478
515.00,0.0476
514.00,0.0478
513.00,0.0479
512.00,0.0477
511.00,0.0474
510.00,0.0472
509.00,0.0471
508.00,0.0467
507.00,0.0465
506.00,0.0467
505.00,0.0469
504.00,0.0469
503.00,0.0469
502.00,0.0472
501.00,0.0473
500.00,0.0470
499.00,0.0468
498.00,0.0469
497.00,0.0471
496.00,0.0471
495.00,0.0471
494.00,0.0474
493.00,0.0475
492.00,0.0473
491.00,0.0471
490.00,0.0473
489.00,0.0474
488.00,0.0472
487.00,0.0471
486.00,0.0474
485.00,0.0476
484.00,0.0475
483.00,0.0476
482.00,0.0479
481.00,0.0480
480.00,0.0477
479.00,0.0474
478.00,0.0476
477.00,0.0477
476.00,0.0474
475.00,0.0473
474.00,0.0478
473.00,0.0483
472.00,0.0482
471.00,0.0481
470.00,0.0484
469.00,0.0485
468.00,0.0481
467.00,0.0479
466.00,0.0483
465.00,0.0487
464.00,0.0486
463.00,0.0484
462.00,0.0484
461.00,0.0483
460.00,0.0477
459.00,0.0474
458.00,0.0480
457.00,0.0486
456.00,0.0486
455.00,0.0484
454.00,0.0485
453.00,0.0485
452.00,0.0478
451.00,0.0473
450.00,0.0475
449.00,0.0478
448.00,0.0477
447.00,0.0474
446.00,0.0474
445.00,0.0471
444.00,0.0463
443.00,0.0456
442.00,0.0456
441.00,0.0456
440.00,0.0451
439.00,0.0447
438.00,0.0451
437.00,0.0453
436.00,0.0449
435.00,0.0446
434.00,0.0450
433.00,0.0454
432.00,0.0451
431.00,0.0448
430.00,0.0449
429.00,0.0448
428.00,0.0440
427.00,0.0435
426.00,0.0440
425.00,0.0445
424.00,0.0441
423.00,0.0434
422.00,0.0431
421.00,0.0422
420.00,0.0405
419.00,0.0400
418.00,0.0421
417.00,0.0441
416.00,0.0442
415.00,0.0440
414.00,0.0446
413.00,0.0448
412.00,0.0439
411.00,0.0431
410.00,0.0434
409.00,0.0437
408.00,0.0428
407.00,0.0424
406.00,0.0435
405.00,0.0442
404.00,0.0430
403.00,0.0418
402.00,0.0424
401.00,0.0431
400.00,0.0423
