Created as New Dataset,Sample 886 By YargerLab Date Wednesday, July 23 2025
cm-1,A
4000.00,0.0016
3999.00,0.0016
3998.00,0.0016
3997.00,0.0016
3996.00,0.0016
3995.00,0.0016
3994.00,0.0016
3993.00,0.0016
3992.00,0.0016
3991.00,0.0016
3990.00,0.0016
3989.00,0.0016
3988.00,0.0016
3987.00,0.0016
3986.00,0.0016
3985.00,0.0016
3984.00,0.0017
3983.00,0.0017
3982.00,0.0017
3981.00,0.0017
3980.00,0.0017
3979.00,0.0017
3978.00,0.0017
3977.00,0.0017
3976.00,0.0017
3975.00,0.0017
3974.00,0.0017
3973.00,0.0017
3972.00,0.0017
3971.00,0.0017
3970.00,0.0017
3969.00,0.0018
3968.00,0.0018
3967.00,0.0018
3966.00,0.0018
3965.00,0.0018
3964.00,0.0018
3963.00,0.0018
3962.00,0.0018
3961.00,0.0018
3960.00,0.0018
3959.00,0.0018
3958.00,0.0018
3957.00,0.0018
3956.00,0.0018
3955.00,0.0018
3954.00,0.0018
3953.00,0.0018
3952.00,0.0018
3951.00,0.0018
3950.00,0.0018
3949.00,0.0017
3948.00,0.0017
3947.00,0.0017
3946.00,0.0017
3945.00,0.0017
3944.00,0.0017
3943.00,0.0017
3942.00,0.0017
3941.00,0.0017
3940.00,0.0017
3939.00,0.0017
3938.00,0.0017
3937.00,0.0017
3936.00,0.0017
3935.00,0.0017
3934.00,0.0017
3933.00,0.0017
3932.00,0.0017
3931.00,0.0017
3930.00,0.0017
3929.00,0.0017
3928.00,0.0017
3927.00,0.0017
3926.00,0.0017
3925.00,0.0017
3924.00,0.0017
3923.00,0.0016
3922.00,0.0016
3921.00,0.0016
3920.00,0.0016
3919.00,0.0016
3918.00,0.0016
3917.00,0.0016
3916.00,0.0016
3915.00,0.0016
3914.00,0.0016
3913.00,0.0016
3912.00,0.0016
3911.00,0.0016
3910.00,0.0016
3909.00,0.0016
3908.00,0.0016
3907.00,0.0016
3906.00,0.0016
3905.00,0.0016
3904.00,0.0015
3903.00,0.0015
3902.00,0.0015
3901.00,0.0015
3900.00,0.0015
3899.00,0.0015
3898.00,0.0015
3897.00,0.0015
3896.00,0.0015
3895.00,0.0015
3894.00,0.0015
3893.00,0.0015
3892.00,0.0014
3891.00,0.0014
3890.00,0.0014
3889.00,0.0014
3888.00,0.0014
3887.00,0.0015
3886.00,0.0015
3885.00,0.0015
3884.00,0.0015
3883.00,0.0015
3882.00,0.0015
3881.00,0.0014
3880.00,0.0014
3879.00,0.0014
3878.00,0.0014
3877.00,0.0014
3876.00,0.0014
3875.00,0.0014
3874.00,0.0014
3873.00,0.0014
3872.00,0.0014
3871.00,0.0014
3870.00,0.0014
3869.00,0.0014
3868.00,0.0013
3867.00,0.0013
3866.00,0.0013
3865.00,0.0013
3864.00,0.0013
3863.00,0.0013
3862.00,0.0013
3861.00,0.0013
3860.00,0.0013
3859.00,0.0013
3858.00,0.0013
3857.00,0.0013
3856.00,0.0014
3855.00,0.0014
3854.00,0.0013
3853.00,0.0013
3852.00,0.0013
3851.00,0.0013
3850.00,0.0013
3849.00,0.0013
3848.00,0.0013
3847.00,0.0013
3846.00,0.0013
3845.00,0.0013
3844.00,0.0013
3843.00,0.0013
3842.00,0.0013
3841.00,0.0012
3840.00,0.0012
3839.00,0.0012
3838.00,0.0012
3837.00,0.0012
3836.00,0.0012
3835.00,0.0012
3834.00,0.0012
3833.00,0.0012
3832.00,0.0012
3831.00,0.0012
3830.00,0.0012
3829.00,0.0012
3828.00,0.0012
3827.00,0.0012
3826.00,0.0012
3825.00,0.0012
3824.00,0.0012
3823.00,0.0012
3822.00,0.0011
3821.00,0.0012
3820.00,0.0012
3819.00,0.0012
3818.00,0.0012
3817.00,0.0012
3816.00,0.0012
3815.00,0.0012
3814.00,0.0012
3813.00,0.0012
3812.00,0.0012
3811.00,0.0012
3810.00,0.0012
3809.00,0.0012
3808.00,0.0011
3807.00,0.0011
3806.00,0.0011
3805.00,0.0011
3804.00,0.0011
3803.00,0.0011
3802.00,0.0011
3801.00,0.0011
3800.00,0.0011
3799.00,0.0011
3798.00,0.0011
3797.00,0.0011
3796.00,0.0011
3795.00,0.0011
3794.00,0.0011
3793.00,0.0011
3792.00,0.0011
3791.00,0.0011
3790.00,0.0011
3789.00,0.0011
3788.00,0.0011
3787.00,0.0011
3786.00,0.0011
3785.00,0.0011
3784.00,0.0011
3783.00,0.0011
3782.00,0.0011
3781.00,0.0011
3780.00,0.0011
3779.00,0.0011
3778.00,0.0011
3777.00,0.0011
3776.00,0.0011
3775.00,0.0011
3774.00,0.0011
3773.00,0.0011
3772.00,0.0011
3771.00,0.0011
3770.00,0.0011
3769.00,0.0010
3768.00,0.0010
3767.00,0.0010
3766.00,0.0010
3765.00,0.0010
3764.00,0.0010
3763.00,0.0010
3762.00,0.0010
3761.00,0.0010
3760.00,0.0010
3759.00,0.0011
3758.00,0.0011
3757.00,0.0010
3756.00,0.0010
3755.00,0.0010
3754.00,0.0010
3753.00,0.0009
3752.00,0.0009
3751.00,0.0008
3750.00,0.0008
3749.00,0.0008
3748.00,0.0008
3747.00,0.0009
3746.00,0.0009
3745.00,0.0009
3744.00,0.0010
3743.00,0.0010
3742.00,0.0010
3741.00,0.0010
3740.00,0.0009
3739.00,0.0009
3738.00,0.0009
3737.00,0.0009
3736.00,0.0009
3735.00,0.0009
3734.00,0.0009
3733.00,0.0009
3732.00,0.0009
3731.00,0.0009
3730.00,0.0009
3729.00,0.0010
3728.00,0.0010
3727.00,0.0010
3726.00,0.0010
3725.00,0.0010
3724.00,0.0010
3723.00,0.0010
3722.00,0.0010
3721.00,0.0009
3720.00,0.0009
3719.00,0.0009
3718.00,0.0009
3717.00,0.0010
3716.00,0.0010
3715.00,0.0009
3714.00,0.0009
3713.00,0.0009
3712.00,0.0009
3711.00,0.0009
3710.00,0.0010
3709.00,0.0010
3708.00,0.0010
3707.00,0.0010
3706.00,0.0010
3705.00,0.0010
3704.00,0.0011
3703.00,0.0011
3702.00,0.0011
3701.00,0.0011
3700.00,0.0011
3699.00,0.0011
3698.00,0.0011
3697.00,0.0011
3696.00,0.0011
3695.00,0.0011
3694.00,0.0011
3693.00,0.0011
3692.00,0.0011
3691.00,0.0011
3690.00,0.0011
3689.00,0.0011
3688.00,0.0011
3687.00,0.0011
3686.00,0.0012
3685.00,0.0012
3684.00,0.0012
3683.00,0.0012
3682.00,0.0012
3681.00,0.0012
3680.00,0.0012
3679.00,0.0012
3678.00,0.0012
3677.00,0.0012
3676.00,0.0012
3675.00,0.0012
3674.00,0.0012
3673.00,0.0012
3672.00,0.0012
3671.00,0.0012
3670.00,0.0012
3669.00,0.0013
3668.00,0.0013
3667.00,0.0013
3666.00,0.0012
3665.00,0.0012
3664.00,0.0013
3663.00,0.0013
3662.00,0.0013
3661.00,0.0013
3660.00,0.0013
3659.00,0.0013
3658.00,0.0013
3657.00,0.0013
3656.00,0.0013
3655.00,0.0013
3654.00,0.0014
3653.00,0.0014
3652.00,0.0014
3651.00,0.0014
3650.00,0.0014
3649.00,0.0014
3648.00,0.0015
3647.00,0.0015
3646.00,0.0016
3645.00,0.0016
3644.00,0.0017
3643.00,0.0018
3642.00,0.0018
3641.00,0.0018
3640.00,0.0019
3639.00,0.0019
3638.00,0.0019
3637.00,0.0020
3636.00,0.0020
3635.00,0.0021
3634.00,0.0022
3633.00,0.0022
3632.00,0.0023
3631.00,0.0024
3630.00,0.0025
3629.00,0.0026
3628.00,0.0027
3627.00,0.0029
3626.00,0.0030
3625.00,0.0031
3624.00,0.0032
3623.00,0.0034
3622.00,0.0035
3621.00,0.0036
3620.00,0.0037
3619.00,0.0038
3618.00,0.0039
3617.00,0.0040
3616.00,0.0040
3615.00,0.0041
3614.00,0.0042
3613.00,0.0042
3612.00,0.0043
3611.00,0.0044
3610.00,0.0044
3609.00,0.0045
3608.00,0.0045
3607.00,0.0045
3606.00,0.0046
3605.00,0.0046
3604.00,0.0047
3603.00,0.0047
3602.00,0.0048
3601.00,0.0049
3600.00,0.0050
3599.00,0.0051
3598.00,0.0052
3597.00,0.0053
3596.00,0.0054
3595.00,0.0055
3594.00,0.0056
3593.00,0.0057
3592.00,0.0058
3591.00,0.0059
3590.00,0.0059
3589.00,0.0061
3588.00,0.0062
3587.00,0.0064
3586.00,0.0066
3585.00,0.0067
3584.00,0.0068
3583.00,0.0070
3582.00,0.0071
3581.00,0.0073
3580.00,0.0074
3579.00,0.0076
3578.00,0.0078
3577.00,0.0079
3576.00,0.0081
3575.00,0.0083
3574.00,0.0084
3573.00,0.0086
3572.00,0.0088
3571.00,0.0089
3570.00,0.0091
3569.00,0.0093
3568.00,0.0095
3567.00,0.0098
3566.00,0.0101
3565.00,0.0104
3564.00,0.0106
3563.00,0.0108
3562.00,0.0110
3561.00,0.0112
3560.00,0.0115
3559.00,0.0117
3558.00,0.0120
3557.00,0.0122
3556.00,0.0125
3555.00,0.0128
3554.00,0.0131
3553.00,0.0134
3552.00,0.0137
3551.00,0.0140
3550.00,0.0143
3549.00,0.0146
3548.00,0.0149
3547.00,0.0153
3546.00,0.0157
3545.00,0.0161
3544.00,0.0166
3543.00,0.0170
3542.00,0.0175
3541.00,0.0179
3540.00,0.0183
3539.00,0.0188
3538.00,0.0194
3537.00,0.0200
3536.00,0.0207
3535.00,0.0214
3534.00,0.0221
3533.00,0.0229
3532.00,0.0239
3531.00,0.0249
3530.00,0.0261
3529.00,0.0273
3528.00,0.0287
3527.00,0.0302
3526.00,0.0317
3525.00,0.0332
3524.00,0.0345
3523.00,0.0356
3522.00,0.0364
3521.00,0.0370
3520.00,0.0374
3519.00,0.0375
3518.00,0.0374
3517.00,0.0371
3516.00,0.0366
3515.00,0.0361
3514.00,0.0355
3513.00,0.0348
3512.00,0.0342
3511.00,0.0337
3510.00,0.0333
3509.00,0.0329
3508.00,0.0327
3507.00,0.0325
3506.00,0.0325
3505.00,0.0325
3504.00,0.0326
3503.00,0.0328
3502.00,0.0330
3501.00,0.0332
3500.00,0.0335
3499.00,0.0338
3498.00,0.0342
3497.00,0.0347
3496.00,0.0351
3495.00,0.0356
3494.00,0.0361
3493.00,0.0366
3492.00,0.0371
3491.00,0.0376
3490.00,0.0381
3489.00,0.0386
3488.00,0.0392
3487.00,0.0398
3486.00,0.0404
3485.00,0.0410
3484.00,0.0416
3483.00,0.0423
3482.00,0.0430
3481.00,0.0438
3480.00,0.0445
3479.00,0.0453
3478.00,0.0460
3477.00,0.0468
3476.00,0.0475
3475.00,0.0483
3474.00,0.0491
3473.00,0.0499
3472.00,0.0507
3471.00,0.0516
3470.00,0.0524
3469.00,0.0532
3468.00,0.0541
3467.00,0.0549
3466.00,0.0557
3465.00,0.0565
3464.00,0.0574
3463.00,0.0582
3462.00,0.0591
3461.00,0.0599
3460.00,0.0607
3459.00,0.0615
3458.00,0.0622
3457.00,0.0629
3456.00,0.0637
3455.00,0.0643
3454.00,0.0650
3453.00,0.0657
3452.00,0.0663
3451.00,0.0669
3450.00,0.0674
3449.00,0.0680
3448.00,0.0686
3447.00,0.0691
3446.00,0.0697
3445.00,0.0701
3444.00,0.0706
3443.00,0.0710
3442.00,0.0714
3441.00,0.0719
3440.00,0.0723
3439.00,0.0727
3438.00,0.0731
3437.00,0.0734
3436.00,0.0737
3435.00,0.0740
3434.00,0.0742
3433.00,0.0744
3432.00,0.0747
3431.00,0.0749
3430.00,0.0752
3429.00,0.0754
3428.00,0.0756
3427.00,0.0758
3426.00,0.0760
3425.00,0.0763
3424.00,0.0765
3423.00,0.0768
3422.00,0.0771
3421.00,0.0774
3420.00,0.0778
3419.00,0.0782
3418.00,0.0785
3417.00,0.0789
3416.00,0.0792
3415.00,0.0796
3414.00,0.0799
3413.00,0.0802
3412.00,0.0804
3411.00,0.0805
3410.00,0.0806
3409.00,0.0806
3408.00,0.0804
3407.00,0.0801
3406.00,0.0798
3405.00,0.0793
3404.00,0.0788
3403.00,0.0782
3402.00,0.0775
3401.00,0.0767
3400.00,0.0757
3399.00,0.0747
3398.00,0.0736
3397.00,0.0725
3396.00,0.0715
3395.00,0.0705
3394.00,0.0696
3393.00,0.0687
3392.00,0.0678
3391.00,0.0669
3390.00,0.0660
3389.00,0.0652
3388.00,0.0644
3387.00,0.0636
3386.00,0.0629
3385.00,0.0623
3384.00,0.0616
3383.00,0.0610
3382.00,0.0604
3381.00,0.0599
3380.00,0.0593
3379.00,0.0587
3378.00,0.0582
3377.00,0.0576
3376.00,0.0571
3375.00,0.0566
3374.00,0.0561
3373.00,0.0557
3372.00,0.0552
3371.00,0.0548
3370.00,0.0543
3369.00,0.0538
3368.00,0.0533
3367.00,0.0528
3366.00,0.0523
3365.00,0.0518
3364.00,0.0514
3363.00,0.0509
3362.00,0.0505
3361.00,0.0500
3360.00,0.0496
3359.00,0.0491
3358.00,0.0486
3357.00,0.0482
3356.00,0.0478
3355.00,0.0473
3354.00,0.0469
3353.00,0.0465
3352.00,0.0461
3351.00,0.0457
3350.00,0.0453
3349.00,0.0448
3348.00,0.0444
3347.00,0.0439
3346.00,0.0435
3345.00,0.0430
3344.00,0.0426
3343.00,0.0422
3342.00,0.0418
3341.00,0.0414
3340.00,0.0410
3339.00,0.0406
3338.00,0.0402
3337.00,0.0398
3336.00,0.0394
3335.00,0.0390
3334.00,0.0386
3333.00,0.0382
3332.00,0.0378
3331.00,0.0374
3330.00,0.0370
3329.00,0.0366
3328.00,0.0363
3327.00,0.0359
3326.00,0.0356
3325.00,0.0352
3324.00,0.0348
3323.00,0.0344
3322.00,0.0341
3321.00,0.0337
3320.00,0.0333
3319.00,0.0330
3318.00,0.0326
3317.00,0.0323
3316.00,0.0320
3315.00,0.0316
3314.00,0.0313
3313.00,0.0310
3312.00,0.0306
3311.00,0.0303
3310.00,0.0300
3309.00,0.0297
3308.00,0.0294
3307.00,0.0291
3306.00,0.0288
3305.00,0.0285
3304.00,0.0281
3303.00,0.0279
3302.00,0.0276
3301.00,0.0273
3300.00,0.0270
3299.00,0.0267
3298.00,0.0264
3297.00,0.0261
3296.00,0.0258
3295.00,0.0255
3294.00,0.0253
3293.00,0.0250
3292.00,0.0247
3291.00,0.0245
3290.00,0.0242
3289.00,0.0240
3288.00,0.0237
3287.00,0.0235
3286.00,0.0232
3285.00,0.0230
3284.00,0.0228
3283.00,0.0225
3282.00,0.0223
3281.00,0.0221
3280.00,0.0219
3279.00,0.0216
3278.00,0.0214
3277.00,0.0211
3276.00,0.0209
3275.00,0.0207
3274.00,0.0204
3273.00,0.0202
3272.00,0.0200
3271.00,0.0198
3270.00,0.0197
3269.00,0.0196
3268.00,0.0195
3267.00,0.0194
3266.00,0.0193
3265.00,0.0192
3264.00,0.0191
3263.00,0.0189
3262.00,0.0187
3261.00,0.0186
3260.00,0.0184
3259.00,0.0182
3258.00,0.0180
3257.00,0.0178
3256.00,0.0176
3255.00,0.0174
3254.00,0.0173
3253.00,0.0172
3252.00,0.0170
3251.00,0.0168
3250.00,0.0166
3249.00,0.0164
3248.00,0.0162
3247.00,0.0160
3246.00,0.0158
3245.00,0.0157
3244.00,0.0156
3243.00,0.0155
3242.00,0.0154
3241.00,0.0152
3240.00,0.0150
3239.00,0.0148
3238.00,0.0146
3237.00,0.0145
3236.00,0.0143
3235.00,0.0141
3234.00,0.0140
3233.00,0.0139
3232.00,0.0138
3231.00,0.0137
3230.00,0.0136
3229.00,0.0135
3228.00,0.0134
3227.00,0.0133
3226.00,0.0132
3225.00,0.0131
3224.00,0.0130
3223.00,0.0130
3222.00,0.0129
3221.00,0.0128
3220.00,0.0127
3219.00,0.0126
3218.00,0.0126
3217.00,0.0125
3216.00,0.0124
3215.00,0.0123
3214.00,0.0123
3213.00,0.0122
3212.00,0.0121
3211.00,0.0121
3210.00,0.0120
3209.00,0.0119
3208.00,0.0118
3207.00,0.0117
3206.00,0.0116
3205.00,0.0115
3204.00,0.0114
3203.00,0.0113
3202.00,0.0112
3201.00,0.0111
3200.00,0.0110
3199.00,0.0109
3198.00,0.0108
3197.00,0.0108
3196.00,0.0107
3195.00,0.0106
3194.00,0.0106
3193.00,0.0105
3192.00,0.0104
3191.00,0.0103
3190.00,0.0103
3189.00,0.0102
3188.00,0.0101
3187.00,0.0101
3186.00,0.0100
3185.00,0.0100
3184.00,0.0100
3183.00,0.0099
3182.00,0.0099
3181.00,0.0098
3180.00,0.0098
3179.00,0.0098
3178.00,0.0098
3177.00,0.0098
3176.00,0.0097
3175.00,0.0097
3174.00,0.0097
3173.00,0.0096
3172.00,0.0096
3171.00,0.0096
3170.00,0.0095
3169.00,0.0095
3168.00,0.0094
3167.00,0.0094
3166.00,0.0093
3165.00,0.0093
3164.00,0.0092
3163.00,0.0091
3162.00,0.0091
3161.00,0.0090
3160.00,0.0090
3159.00,0.0089
3158.00,0.0088
3157.00,0.0087
3156.00,0.0086
3155.00,0.0084
3154.00,0.0083
3153.00,0.0082
3152.00,0.0082
3151.00,0.0082
3150.00,0.0082
3149.00,0.0082
3148.00,0.0082
3147.00,0.0082
3146.00,0.0082
3145.00,0.0082
3144.00,0.0081
3143.00,0.0080
3142.00,0.0079
3141.00,0.0078
3140.00,0.0077
3139.00,0.0077
3138.00,0.0077
3137.00,0.0077
3136.00,0.0077
3135.00,0.0076
3134.00,0.0076
3133.00,0.0075
3132.00,0.0074
3131.00,0.0074
3130.00,0.0073
3129.00,0.0073
3128.00,0.0073
3127.00,0.0073
3126.00,0.0072
3125.00,0.0072
3124.00,0.0072
3123.00,0.0071
3122.00,0.0070
3121.00,0.0070
3120.00,0.0069
3119.00,0.0069
3118.00,0.0069
3117.00,0.0069
3116.00,0.0069
3115.00,0.0069
3114.00,0.0070
3113.00,0.0070
3112.00,0.0070
3111.00,0.0070
3110.00,0.0070
3109.00,0.0070
3108.00,0.0070
3107.00,0.0070
3106.00,0.0071
3105.00,0.0071
3104.00,0.0072
3103.00,0.0072
3102.00,0.0072
3101.00,0.0073
3100.00,0.0073
3099.00,0.0073
3098.00,0.0074
3097.00,0.0075
3096.00,0.0076
3095.00,0.0077
3094.00,0.0078
3093.00,0.0079
3092.00,0.0081
3091.00,0.0083
3090.00,0.0085
3089.00,0.0087
3088.00,0.0090
3087.00,0.0093
3086.00,0.0096
3085.00,0.0100
3084.00,0.0104
3083.00,0.0109
3082.00,0.0114
3081.00,0.0120
3080.00,0.0127
3079.00,0.0135
3078.00,0.0144
3077.00,0.0153
3076.00,0.0161
3075.00,0.0168
3074.00,0.0172
3073.00,0.0173
3072.00,0.0170
3071.00,0.0164
3070.00,0.0156
3069.00,0.0148
3068.00,0.0139
3067.00,0.0131
3066.00,0.0123
3065.00,0.0116
3064.00,0.0110
3063.00,0.0105
3062.00,0.0100
3061.00,0.0096
3060.00,0.0093
3059.00,0.0091
3058.00,0.0089
3057.00,0.0088
3056.00,0.0087
3055.00,0.0086
3054.00,0.0086
3053.00,0.0085
3052.00,0.0086
3051.00,0.0086
3050.00,0.0087
3049.00,0.0088
3048.00,0.0090
3047.00,0.0091
3046.00,0.0093
3045.00,0.0095
3044.00,0.0097
3043.00,0.0100
3042.00,0.0102
3041.00,0.0105
3040.00,0.0107
3039.00,0.0110
3038.00,0.0112
3037.00,0.0114
3036.00,0.0115
3035.00,0.0116
3034.00,0.0117
3033.00,0.0118
3032.00,0.0118
3031.00,0.0118
3030.00,0.0117
3029.00,0.0115
3028.00,0.0113
3027.00,0.0111
3026.00,0.0109
3025.00,0.0107
3024.00,0.0105
3023.00,0.0104
3022.00,0.0103
3021.00,0.0102
3020.00,0.0102
3019.00,0.0102
3018.00,0.0102
3017.00,0.0102
3016.00,0.0102
3015.00,0.0103
3014.00,0.0103
3013.00,0.0104
3012.00,0.0106
3011.00,0.0107
3010.00,0.0109
3009.00,0.0111
3008.00,0.0113
3007.00,0.0115
3006.00,0.0116
3005.00,0.0119
3004.00,0.0121
3003.00,0.0123
3002.00,0.0125
3001.00,0.0128
3000.00,0.0131
2999.00,0.0134
2998.00,0.0137
2997.00,0.0141
2996.00,0.0144
2995.00,0.0148
2994.00,0.0152
2993.00,0.0156
2992.00,0.0161
2991.00,0.0165
2990.00,0.0170
2989.00,0.0174
2988.00,0.0179
2987.00,0.0184
2986.00,0.0188
2985.00,0.0192
2984.00,0.0197
2983.00,0.0203
2982.00,0.0211
2981.00,0.0222
2980.00,0.0236
2979.00,0.0252
2978.00,0.0270
2977.00,0.0289
2976.00,0.0311
2975.00,0.0334
2974.00,0.0360
2973.00,0.0389
2972.00,0.0420
2971.00,0.0454
2970.00,0.0489
2969.00,0.0525
2968.00,0.0560
2967.00,0.0591
2966.00,0.0619
2965.00,0.0643
2964.00,0.0663
2963.00,0.0679
2962.00,0.0691
2961.00,0.0701
2960.00,0.0708
2959.00,0.0711
2958.00,0.0712
2957.00,0.0708
2956.00,0.0702
2955.00,0.0692
2954.00,0.0680
2953.00,0.0666
2952.00,0.0651
2951.00,0.0637
2950.00,0.0627
2949.00,0.0621
2948.00,0.0621
2947.00,0.0628
2946.00,0.0643
2945.00,0.0665
2944.00,0.0693
2943.00,0.0726
2942.00,0.0762
2941.00,0.0802
2940.00,0.0844
2939.00,0.0888
2938.00,0.0933
2937.00,0.0981
2936.00,0.1030
2935.00,0.1079
2934.00,0.1127
2933.00,0.1174
2932.00,0.1219
2931.00,0.1259
2930.00,0.1295
2929.00,0.1325
2928.00,0.1349
2927.00,0.1367
2926.00,0.1377
2925.00,0.1378
2924.00,0.1370
2923.00,0.1355
2922.00,0.1332
2921.00,0.1306
2920.00,0.1277
2919.00,0.1247
2918.00,0.1217
2917.00,0.1189
2916.00,0.1161
2915.00,0.1133
2914.00,0.1104
2913.00,0.1074
2912.00,0.1042
2911.00,0.1010
2910.00,0.0977
2909.00,0.0943
2908.00,0.0911
2907.00,0.0880
2906.00,0.0851
2905.00,0.0823
2904.00,0.0798
2903.00,0.0775
2902.00,0.0754
2901.00,0.0733
2900.00,0.0713
2899.00,0.0692
2898.00,0.0671
2897.00,0.0651
2896.00,0.0630
2895.00,0.0611
2894.00,0.0594
2893.00,0.0578
2892.00,0.0564
2891.00,0.0551
2890.00,0.0541
2889.00,0.0532
2888.00,0.0524
2887.00,0.0517
2886.00,0.0511
2885.00,0.0506
2884.00,0.0501
2883.00,0.0499
2882.00,0.0498
2881.00,0.0500
2880.00,0.0504
2879.00,0.0512
2878.00,0.0522
2877.00,0.0534
2876.00,0.0549
2875.00,0.0564
2874.00,0.0579
2873.00,0.0591
2872.00,0.0598
2871.00,0.0600
2870.00,0.0597
2869.00,0.0591
2868.00,0.0585
2867.00,0.0583
2866.00,0.0587
2865.00,0.0599
2864.00,0.0619
2863.00,0.0646
2862.00,0.0680
2861.00,0.0717
2860.00,0.0756
2859.00,0.0792
2858.00,0.0821
2857.00,0.0839
2856.00,0.0843
2855.00,0.0833
2854.00,0.0808
2853.00,0.0772
2852.00,0.0729
2851.00,0.0682
2850.00,0.0634
2849.00,0.0586
2848.00,0.0541
2847.00,0.0499
2846.00,0.0460
2845.00,0.0426
2844.00,0.0396
2843.00,0.0372
2842.00,0.0353
2841.00,0.0339
2840.00,0.0330
2839.00,0.0326
2838.00,0.0326
2837.00,0.0329
2836.00,0.0334
2835.00,0.0342
2834.00,0.0349
2833.00,0.0356
2832.00,0.0360
2831.00,0.0360
2830.00,0.0355
2829.00,0.0344
2828.00,0.0326
2827.00,0.0303
2826.00,0.0278
2825.00,0.0252
2824.00,0.0228
2823.00,0.0208
2822.00,0.0191
2821.00,0.0176
2820.00,0.0165
2819.00,0.0155
2818.00,0.0147
2817.00,0.0140
2816.00,0.0134
2815.00,0.0129
2814.00,0.0125
2813.00,0.0121
2812.00,0.0117
2811.00,0.0114
2810.00,0.0111
2809.00,0.0109
2808.00,0.0106
2807.00,0.0104
2806.00,0.0101
2805.00,0.0099
2804.00,0.0097
2803.00,0.0095
2802.00,0.0093
2801.00,0.0091
2800.00,0.0089
2799.00,0.0088
2798.00,0.0086
2797.00,0.0084
2796.00,0.0083
2795.00,0.0081
2794.00,0.0080
2793.00,0.0078
2792.00,0.0077
2791.00,0.0076
2790.00,0.0075
2789.00,0.0074
2788.00,0.0073
2787.00,0.0072
2786.00,0.0071
2785.00,0.0070
2784.00,0.0069
2783.00,0.0068
2782.00,0.0067
2781.00,0.0066
2780.00,0.0065
2779.00,0.0064
2778.00,0.0064
2777.00,0.0063
2776.00,0.0063
2775.00,0.0062
2774.00,0.0061
2773.00,0.0061
2772.00,0.0060
2771.00,0.0059
2770.00,0.0059
2769.00,0.0058
2768.00,0.0058
2767.00,0.0058
2766.00,0.0058
2765.00,0.0057
2764.00,0.0057
2763.00,0.0057
2762.00,0.0057
2761.00,0.0057
2760.00,0.0057
2759.00,0.0057
2758.00,0.0057
2757.00,0.0057
2756.00,0.0057
2755.00,0.0057
2754.00,0.0057
2753.00,0.0057
2752.00,0.0057
2751.00,0.0057
2750.00,0.0057
2749.00,0.0057
2748.00,0.0058
2747.00,0.0058
2746.00,0.0059
2745.00,0.0059
2744.00,0.0060
2743.00,0.0061
2742.00,0.0062
2741.00,0.0063
2740.00,0.0064
2739.00,0.0065
2738.00,0.0067
2737.00,0.0068
2736.00,0.0070
2735.00,0.0072
2734.00,0.0074
2733.00,0.0076
2732.00,0.0077
2731.00,0.0079
2730.00,0.0079
2729.00,0.0079
2728.00,0.0079
2727.00,0.0078
2726.00,0.0076
2725.00,0.0074
2724.00,0.0072
2723.00,0.0070
2722.00,0.0068
2721.00,0.0066
2720.00,0.0064
2719.00,0.0063
2718.00,0.0062
2717.00,0.0060
2716.00,0.0059
2715.00,0.0058
2714.00,0.0057
2713.00,0.0056
2712.00,0.0056
2711.00,0.0055
2710.00,0.0054
2709.00,0.0054
2708.00,0.0053
2707.00,0.0053
2706.00,0.0052
2705.00,0.0052
2704.00,0.0052
2703.00,0.0051
2702.00,0.0051
2701.00,0.0051
2700.00,0.0051
2699.00,0.0051
2698.00,0.0051
2697.00,0.0051
2696.00,0.0051
2695.00,0.0051
2694.00,0.0052
2693.00,0.0052
2692.00,0.0052
2691.00,0.0053
2690.00,0.0053
2689.00,0.0053
2688.00,0.0053
2687.00,0.0054
2686.00,0.0054
2685.00,0.0054
2684.00,0.0055
2683.00,0.0055
2682.00,0.0056
2681.00,0.0056
2680.00,0.0056
2679.00,0.0057
2678.00,0.0057
2677.00,0.0057
2676.00,0.0058
2675.00,0.0058
2674.00,0.0058
2673.00,0.0059
2672.00,0.0059
2671.00,0.0059
2670.00,0.0060
2669.00,0.0060
2668.00,0.0060
2667.00,0.0060
2666.00,0.0059
2665.00,0.0059
2664.00,0.0059
2663.00,0.0059
2662.00,0.0058
2661.00,0.0057
2660.00,0.0057
2659.00,0.0056
2658.00,0.0056
2657.00,0.0055
2656.00,0.0055
2655.00,0.0054
2654.00,0.0053
2653.00,0.0053
2652.00,0.0052
2651.00,0.0052
2650.00,0.0051
2649.00,0.0051
2648.00,0.0050
2647.00,0.0050
2646.00,0.0050
2645.00,0.0049
2644.00,0.0049
2643.00,0.0049
2642.00,0.0049
2641.00,0.0049
2640.00,0.0048
2639.00,0.0048
2638.00,0.0048
2637.00,0.0048
2636.00,0.0048
2635.00,0.0048
2634.00,0.0048
2633.00,0.0048
2632.00,0.0048
2631.00,0.0048
2630.00,0.0047
2629.00,0.0047
2628.00,0.0047
2627.00,0.0048
2626.00,0.0048
2625.00,0.0048
2624.00,0.0048
2623.00,0.0048
2622.00,0.0048
2621.00,0.0048
2620.00,0.0047
2619.00,0.0047
2618.00,0.0047
2617.00,0.0047
2616.00,0.0047
2615.00,0.0047
2614.00,0.0047
2613.00,0.0047
2612.00,0.0047
2611.00,0.0047
2610.00,0.0046
2609.00,0.0046
2608.00,0.0046
2607.00,0.0046
2606.00,0.0046
2605.00,0.0046
2604.00,0.0046
2603.00,0.0046
2602.00,0.0046
2601.00,0.0046
2600.00,0.0045
2599.00,0.0045
2598.00,0.0045
2597.00,0.0045
2596.00,0.0045
2595.00,0.0045
2594.00,0.0045
2593.00,0.0045
2592.00,0.0045
2591.00,0.0045
2590.00,0.0045
2589.00,0.0045
2588.00,0.0045
2587.00,0.0045
2586.00,0.0045
2585.00,0.0045
2584.00,0.0045
2583.00,0.0045
2582.00,0.0045
2581.00,0.0045
2580.00,0.0045
2579.00,0.0045
2578.00,0.0045
2577.00,0.0045
2576.00,0.0045
2575.00,0.0045
2574.00,0.0045
2573.00,0.0045
2572.00,0.0045
2571.00,0.0045
2570.00,0.0045
2569.00,0.0045
2568.00,0.0045
2567.00,0.0045
2566.00,0.0045
2565.00,0.0044
2564.00,0.0044
2563.00,0.0044
2562.00,0.0043
2561.00,0.0043
2560.00,0.0043
2559.00,0.0043
2558.00,0.0043
2557.00,0.0043
2556.00,0.0043
2555.00,0.0043
2554.00,0.0043
2553.00,0.0043
2552.00,0.0043
2551.00,0.0043
2550.00,0.0043
2549.00,0.0043
2548.00,0.0043
2547.00,0.0043
2546.00,0.0043
2545.00,0.0043
2544.00,0.0043
2543.00,0.0043
2542.00,0.0043
2541.00,0.0043
2540.00,0.0043
2539.00,0.0043
2538.00,0.0043
2537.00,0.0043
2536.00,0.0043
2535.00,0.0043
2534.00,0.0043
2533.00,0.0043
2532.00,0.0043
2531.00,0.0043
2530.00,0.0043
2529.00,0.0043
2528.00,0.0043
2527.00,0.0043
2526.00,0.0043
2525.00,0.0043
2524.00,0.0042
2523.00,0.0042
2522.00,0.0042
2521.00,0.0042
2520.00,0.0042
2519.00,0.0042
2518.00,0.0042
2517.00,0.0042
2516.00,0.0042
2515.00,0.0042
2514.00,0.0042
2513.00,0.0041
2512.00,0.0041
2511.00,0.0042
2510.00,0.0042
2509.00,0.0042
2508.00,0.0042
2507.00,0.0041
2506.00,0.0041
2505.00,0.0041
2504.00,0.0040
2503.00,0.0040
2502.00,0.0040
2501.00,0.0041
2500.00,0.0041
2499.00,0.0041
2498.00,0.0041
2497.00,0.0041
2496.00,0.0041
2495.00,0.0041
2494.00,0.0041
2493.00,0.0041
2492.00,0.0041
2491.00,0.0041
2490.00,0.0041
2489.00,0.0041
2488.00,0.0041
2487.00,0.0041
2486.00,0.0042
2485.00,0.0042
2484.00,0.0043
2483.00,0.0043
2482.00,0.0043
2481.00,0.0043
2480.00,0.0043
2479.00,0.0043
2478.00,0.0043
2477.00,0.0043
2476.00,0.0043
2475.00,0.0043
2474.00,0.0043
2473.00,0.0043
2472.00,0.0043
2471.00,0.0043
2470.00,0.0043
2469.00,0.0043
2468.00,0.0042
2467.00,0.0042
2466.00,0.0042
2465.00,0.0042
2464.00,0.0041
2463.00,0.0041
2462.00,0.0041
2461.00,0.0040
2460.00,0.0040
2459.00,0.0040
2458.00,0.0040
2457.00,0.0040
2456.00,0.0041
2455.00,0.0041
2454.00,0.0041
2453.00,0.0041
2452.00,0.0041
2451.00,0.0040
2450.00,0.0040
2449.00,0.0040
2448.00,0.0039
2447.00,0.0039
2446.00,0.0039
2445.00,0.0039
2444.00,0.0038
2443.00,0.0038
2442.00,0.0037
2441.00,0.0037
2440.00,0.0036
2439.00,0.0036
2438.00,0.0035
2437.00,0.0035
2436.00,0.0034
2435.00,0.0034
2434.00,0.0033
2433.00,0.0033
2432.00,0.0032
2431.00,0.0032
2430.00,0.0032
2429.00,0.0032
2428.00,0.0032
2427.00,0.0031
2426.00,0.0031
2425.00,0.0031
2424.00,0.0031
2423.00,0.0030
2422.00,0.0030
2421.00,0.0030
2420.00,0.0030
2419.00,0.0030
2418.00,0.0030
2417.00,0.0029
2416.00,0.0029
2415.00,0.0029
2414.00,0.0029
2413.00,0.0029
2412.00,0.0029
2411.00,0.0028
2410.00,0.0028
2409.00,0.0027
2408.00,0.0027
2407.00,0.0027
2406.00,0.0027
2405.00,0.0027
2404.00,0.0027
2403.00,0.0027
2402.00,0.0027
2401.00,0.0027
2400.00,0.0028
2399.00,0.0028
2398.00,0.0027
2397.00,0.0028
2396.00,0.0028
2395.00,0.0028
2394.00,0.0028
2393.00,0.0028
2392.00,0.0028
2391.00,0.0028
2390.00,0.0028
2389.00,0.0028
2388.00,0.0028
2387.00,0.0028
2386.00,0.0028
2385.00,0.0029
2384.00,0.0029
2383.00,0.0029
2382.00,0.0029
2381.00,0.0029
2380.00,0.0030
2379.00,0.0030
2378.00,0.0030
2377.00,0.0030
2376.00,0.0031
2375.00,0.0031
2374.00,0.0031
2373.00,0.0031
2372.00,0.0031
2371.00,0.0030
2370.00,0.0030
2369.00,0.0029
2368.00,0.0029
2367.00,0.0029
2366.00,0.0029
2365.00,0.0030
2364.00,0.0030
2363.00,0.0030
2362.00,0.0030
2361.00,0.0030
2360.00,0.0030
2359.00,0.0030
2358.00,0.0029
2357.00,0.0029
2356.00,0.0030
2355.00,0.0030
2354.00,0.0030
2353.00,0.0030
2352.00,0.0030
2351.00,0.0030
2350.00,0.0029
2349.00,0.0029
2348.00,0.0029
2347.00,0.0029
2346.00,0.0029
2345.00,0.0029
2344.00,0.0029
2343.00,0.0029
2342.00,0.0029
2341.00,0.0029
2340.00,0.0028
2339.00,0.0028
2338.00,0.0028
2337.00,0.0028
2336.00,0.0028
2335.00,0.0028
2334.00,0.0028
2333.00,0.0028
2332.00,0.0028
2331.00,0.0028
2330.00,0.0027
2329.00,0.0027
2328.00,0.0027
2327.00,0.0027
2326.00,0.0026
2325.00,0.0026
2324.00,0.0026
2323.00,0.0026
2322.00,0.0025
2321.00,0.0025
2320.00,0.0025
2319.00,0.0025
2318.00,0.0025
2317.00,0.0025
2316.00,0.0024
2315.00,0.0024
2314.00,0.0024
2313.00,0.0023
2312.00,0.0023
2311.00,0.0023
2310.00,0.0023
2309.00,0.0023
2308.00,0.0023
2307.00,0.0023
2306.00,0.0023
2305.00,0.0023
2304.00,0.0022
2303.00,0.0022
2302.00,0.0021
2301.00,0.0021
2300.00,0.0020
2299.00,0.0020
2298.00,0.0020
2297.00,0.0021
2296.00,0.0021
2295.00,0.0021
2294.00,0.0020
2293.00,0.0020
2292.00,0.0020
2291.00,0.0020
2290.00,0.0020
2289.00,0.0020
2288.00,0.0019
2287.00,0.0019
2286.00,0.0019
2285.00,0.0018
2284.00,0.0018
2283.00,0.0018
2282.00,0.0018
2281.00,0.0017
2280.00,0.0017
2279.00,0.0017
2278.00,0.0016
2277.00,0.0016
2276.00,0.0017
2275.00,0.0017
2274.00,0.0017
2273.00,0.0017
2272.00,0.0017
2271.00,0.0017
2270.00,0.0017
2269.00,0.0016
2268.00,0.0016
2267.00,0.0016
2266.00,0.0016
2265.00,0.0016
2264.00,0.0016
2263.00,0.0016
2262.00,0.0016
2261.00,0.0017
2260.00,0.0017
2259.00,0.0017
2258.00,0.0017
2257.00,0.0017
2256.00,0.0017
2255.00,0.0017
2254.00,0.0017
2253.00,0.0017
2252.00,0.0017
2251.00,0.0017
2250.00,0.0017
2249.00,0.0017
2248.00,0.0017
2247.00,0.0017
2246.00,0.0017
2245.00,0.0018
2244.00,0.0018
2243.00,0.0018
2242.00,0.0018
2241.00,0.0018
2240.00,0.0018
2239.00,0.0017
2238.00,0.0017
2237.00,0.0017
2236.00,0.0018
2235.00,0.0018
2234.00,0.0019
2233.00,0.0018
2232.00,0.0018
2231.00,0.0018
2230.00,0.0017
2229.00,0.0017
2228.00,0.0017
2227.00,0.0016
2226.00,0.0015
2225.00,0.0015
2224.00,0.0016
2223.00,0.0016
2222.00,0.0016
2221.00,0.0016
2220.00,0.0016
2219.00,0.0016
2218.00,0.0016
2217.00,0.0015
2216.00,0.0015
2215.00,0.0015
2214.00,0.0014
2213.00,0.0015
2212.00,0.0015
2211.00,0.0016
2210.00,0.0016
2209.00,0.0017
2208.00,0.0016
2207.00,0.0015
2206.00,0.0014
2205.00,0.0014
2204.00,0.0014
2203.00,0.0014
2202.00,0.0014
2201.00,0.0013
2200.00,0.0013
2199.00,0.0013
2198.00,0.0014
2197.00,0.0015
2196.00,0.0016
2195.00,0.0017
2194.00,0.0017
2193.00,0.0016
2192.00,0.0015
2191.00,0.0013
2190.00,0.0013
2189.00,0.0013
2188.00,0.0014
2187.00,0.0015
2186.00,0.0015
2185.00,0.0015
2184.00,0.0015
2183.00,0.0015
2182.00,0.0015
2181.00,0.0015
2180.00,0.0016
2179.00,0.0016
2178.00,0.0016
2177.00,0.0017
2176.00,0.0017
2175.00,0.0016
2174.00,0.0015
2173.00,0.0014
2172.00,0.0014
2171.00,0.0014
2170.00,0.0013
2169.00,0.0013
2168.00,0.0012
2167.00,0.0011
2166.00,0.0010
2165.00,0.0010
2164.00,0.0010
2163.00,0.0010
2162.00,0.0010
2161.00,0.0011
2160.00,0.0013
2159.00,0.0014
2158.00,0.0015
2157.00,0.0015
2156.00,0.0015
2155.00,0.0014
2154.00,0.0012
2153.00,0.0012
2152.00,0.0013
2151.00,0.0013
2150.00,0.0013
2149.00,0.0013
2148.00,0.0013
2147.00,0.0012
2146.00,0.0012
2145.00,0.0011
2144.00,0.0011
2143.00,0.0010
2142.00,0.0010
2141.00,0.0010
2140.00,0.0012
2139.00,0.0012
2138.00,0.0012
2137.00,0.0011
2136.00,0.0010
2135.00,0.0010
2134.00,0.0010
2133.00,0.0010
2132.00,0.0011
2131.00,0.0012
2130.00,0.0013
2129.00,0.0013
2128.00,0.0013
2127.00,0.0014
2126.00,0.0013
2125.00,0.0013
2124.00,0.0013
2123.00,0.0013
2122.00,0.0013
2121.00,0.0013
2120.00,0.0013
2119.00,0.0012
2118.00,0.0012
2117.00,0.0012
2116.00,0.0012
2115.00,0.0012
2114.00,0.0012
2113.00,0.0012
2112.00,0.0012
2111.00,0.0012
2110.00,0.0011
2109.00,0.0010
2108.00,0.0009
2107.00,0.0008
2106.00,0.0007
2105.00,0.0007
2104.00,0.0007
2103.00,0.0007
2102.00,0.0007
2101.00,0.0008
2100.00,0.0009
2099.00,0.0010
2098.00,0.0010
2097.00,0.0010
2096.00,0.0010
2095.00,0.0010
2094.00,0.0010
2093.00,0.0010
2092.00,0.0010
2091.00,0.0010
2090.00,0.0009
2089.00,0.0009
2088.00,0.0009
2087.00,0.0009
2086.00,0.0009
2085.00,0.0010
2084.00,0.0011
2083.00,0.0011
2082.00,0.0011
2081.00,0.0010
2080.00,0.0010
2079.00,0.0009
2078.00,0.0009
2077.00,0.0009
2076.00,0.0009
2075.00,0.0009
2074.00,0.0009
2073.00,0.0009
2072.00,0.0009
2071.00,0.0008
2070.00,0.0007
2069.00,0.0006
2068.00,0.0005
2067.00,0.0004
2066.00,0.0003
2065.00,0.0003
2064.00,0.0004
2063.00,0.0003
2062.00,0.0002
2061.00,0.0001
2060.00,0.0001
2059.00,-0.0000
2058.00,-0.0001
2057.00,-0.0002
2056.00,-0.0003
2055.00,-0.0003
2054.00,-0.0004
2053.00,-0.0005
2052.00,-0.0005
2051.00,-0.0005
2050.00,-0.0007
2049.00,-0.0008
2048.00,-0.0009
2047.00,-0.0010
2046.00,-0.0011
2045.00,-0.0011
2044.00,-0.0010
2043.00,-0.0010
2042.00,-0.0011
2041.00,-0.0012
2040.00,-0.0013
2039.00,-0.0013
2038.00,-0.0013
2037.00,-0.0012
2036.00,-0.0011
2035.00,-0.0011
2034.00,-0.0012
2033.00,-0.0012
2032.00,-0.0012
2031.00,-0.0013
2030.00,-0.0013
2029.00,-0.0012
2028.00,-0.0010
2027.00,-0.0009
2026.00,-0.0009
2025.00,-0.0008
2024.00,-0.0007
2023.00,-0.0006
2022.00,-0.0007
2021.00,-0.0008
2020.00,-0.0007
2019.00,-0.0006
2018.00,-0.0006
2017.00,-0.0005
2016.00,-0.0005
2015.00,-0.0006
2014.00,-0.0008
2013.00,-0.0009
2012.00,-0.0009
2011.00,-0.0010
2010.00,-0.0010
2009.00,-0.0010
2008.00,-0.0008
2007.00,-0.0006
2006.00,-0.0005
2005.00,-0.0003
2004.00,-0.0001
2003.00,-0.0000
2002.00,-0.0000
2001.00,-0.0000
2000.00,0.0000
1999.00,0.0000
1998.00,-0.0000
1997.00,-0.0001
1996.00,-0.0001
1995.00,-0.0002
1994.00,-0.0003
1993.00,-0.0003
1992.00,-0.0002
1991.00,-0.0002
1990.00,-0.0002
1989.00,-0.0001
1988.00,0.0000
1987.00,0.0001
1986.00,0.0001
1985.00,0.0002
1984.00,0.0003
1983.00,0.0003
1982.00,0.0002
1981.00,0.0000
1980.00,-0.0001
1979.00,-0.0001
1978.00,-0.0002
1977.00,-0.0002
1976.00,-0.0001
1975.00,-0.0001
1974.00,-0.0001
1973.00,0.0001
1972.00,0.0002
1971.00,0.0002
1970.00,0.0001
1969.00,0.0000
1968.00,0.0000
1967.00,-0.0000
1966.00,-0.0000
1965.00,0.0000
1964.00,0.0001
1963.00,0.0001
1962.00,0.0000
1961.00,0.0001
1960.00,0.0002
1959.00,0.0003
1958.00,0.0003
1957.00,0.0004
1956.00,0.0005
1955.00,0.0004
1954.00,0.0004
1953.00,0.0004
1952.00,0.0005
1951.00,0.0005
1950.00,0.0005
1949.00,0.0005
1948.00,0.0006
1947.00,0.0007
1946.00,0.0008
1945.00,0.0008
1944.00,0.0009
1943.00,0.0009
1942.00,0.0009
1941.00,0.0010
1940.00,0.0010
1939.00,0.0010
1938.00,0.0009
1937.00,0.0009
1936.00,0.0009
1935.00,0.0009
1934.00,0.0009
1933.00,0.0009
1932.00,0.0009
1931.00,0.0009
1930.00,0.0009
1929.00,0.0010
1928.00,0.0011
1927.00,0.0011
1926.00,0.0012
1925.00,0.0012
1924.00,0.0013
1923.00,0.0013
1922.00,0.0014
1921.00,0.0014
1920.00,0.0013
1919.00,0.0013
1918.00,0.0012
1917.00,0.0012
1916.00,0.0013
1915.00,0.0014
1914.00,0.0013
1913.00,0.0013
1912.00,0.0013
1911.00,0.0013
1910.00,0.0012
1909.00,0.0013
1908.00,0.0014
1907.00,0.0014
1906.00,0.0014
1905.00,0.0015
1904.00,0.0016
1903.00,0.0016
1902.00,0.0015
1901.00,0.0016
1900.00,0.0016
1899.00,0.0017
1898.00,0.0017
1897.00,0.0017
1896.00,0.0018
1895.00,0.0018
1894.00,0.0018
1893.00,0.0018
1892.00,0.0018
1891.00,0.0018
1890.00,0.0017
1889.00,0.0017
1888.00,0.0017
1887.00,0.0017
1886.00,0.0018
1885.00,0.0018
1884.00,0.0019
1883.00,0.0020
1882.00,0.0019
1881.00,0.0019
1880.00,0.0019
1879.00,0.0018
1878.00,0.0018
1877.00,0.0018
1876.00,0.0018
1875.00,0.0018
1874.00,0.0018
1873.00,0.0019
1872.00,0.0019
1871.00,0.0020
1870.00,0.0020
1869.00,0.0019
1868.00,0.0019
1867.00,0.0019
1866.00,0.0019
1865.00,0.0019
1864.00,0.0019
1863.00,0.0020
1862.00,0.0020
1861.00,0.0020
1860.00,0.0020
1859.00,0.0020
1858.00,0.0019
1857.00,0.0019
1856.00,0.0020
1855.00,0.0020
1854.00,0.0019
1853.00,0.0019
1852.00,0.0019
1851.00,0.0019
1850.00,0.0019
1849.00,0.0020
1848.00,0.0021
1847.00,0.0021
1846.00,0.0021
1845.00,0.0022
1844.00,0.0022
1843.00,0.0022
1842.00,0.0022
1841.00,0.0021
1840.00,0.0022
1839.00,0.0022
1838.00,0.0022
1837.00,0.0023
1836.00,0.0024
1835.00,0.0024
1834.00,0.0024
1833.00,0.0024
1832.00,0.0024
1831.00,0.0024
1830.00,0.0025
1829.00,0.0025
1828.00,0.0025
1827.00,0.0025
1826.00,0.0025
1825.00,0.0026
1824.00,0.0026
1823.00,0.0026
1822.00,0.0026
1821.00,0.0026
1820.00,0.0026
1819.00,0.0026
1818.00,0.0026
1817.00,0.0027
1816.00,0.0028
1815.00,0.0029
1814.00,0.0029
1813.00,0.0030
1812.00,0.0030
1811.00,0.0031
1810.00,0.0031
1809.00,0.0032
1808.00,0.0032
1807.00,0.0033
1806.00,0.0033
1805.00,0.0034
1804.00,0.0035
1803.00,0.0036
1802.00,0.0037
1801.00,0.0038
1800.00,0.0038
1799.00,0.0039
1798.00,0.0039
1797.00,0.0039
1796.00,0.0039
1795.00,0.0039
1794.00,0.0039
1793.00,0.0039
1792.00,0.0040
1791.00,0.0040
1790.00,0.0040
1789.00,0.0040
1788.00,0.0040
1787.00,0.0041
1786.00,0.0041
1785.00,0.0041
1784.00,0.0041
1783.00,0.0041
1782.00,0.0041
1781.00,0.0041
1780.00,0.0042
1779.00,0.0042
1778.00,0.0041
1777.00,0.0042
1776.00,0.0042
1775.00,0.0043
1774.00,0.0043
1773.00,0.0043
1772.00,0.0043
1771.00,0.0043
1770.00,0.0042
1769.00,0.0042
1768.00,0.0041
1767.00,0.0040
1766.00,0.0038
1765.00,0.0038
1764.00,0.0037
1763.00,0.0037
1762.00,0.0037
1761.00,0.0036
1760.00,0.0036
1759.00,0.0036
1758.00,0.0035
1757.00,0.0035
1756.00,0.0035
1755.00,0.0035
1754.00,0.0034
1753.00,0.0034
1752.00,0.0035
1751.00,0.0035
1750.00,0.0035
1749.00,0.0035
1748.00,0.0035
1747.00,0.0035
1746.00,0.0035
1745.00,0.0035
1744.00,0.0036
1743.00,0.0036
1742.00,0.0036
1741.00,0.0036
1740.00,0.0036
1739.00,0.0036
1738.00,0.0036
1737.00,0.0037
1736.00,0.0037
1735.00,0.0038
1734.00,0.0038
1733.00,0.0038
1732.00,0.0039
1731.00,0.0039
1730.00,0.0039
1729.00,0.0039
1728.00,0.0040
1727.00,0.0040
1726.00,0.0041
1725.00,0.0041
1724.00,0.0042
1723.00,0.0042
1722.00,0.0043
1721.00,0.0043
1720.00,0.0044
1719.00,0.0045
1718.00,0.0045
1717.00,0.0045
1716.00,0.0046
1715.00,0.0047
1714.00,0.0047
1713.00,0.0047
1712.00,0.0048
1711.00,0.0049
1710.00,0.0049
1709.00,0.0049
1708.00,0.0050
1707.00,0.0051
1706.00,0.0052
1705.00,0.0054
1704.00,0.0055
1703.00,0.0056
1702.00,0.0056
1701.00,0.0056
1700.00,0.0056
1699.00,0.0057
1698.00,0.0057
1697.00,0.0057
1696.00,0.0057
1695.00,0.0057
1694.00,0.0056
1693.00,0.0055
1692.00,0.0055
1691.00,0.0054
1690.00,0.0054
1689.00,0.0054
1688.00,0.0054
1687.00,0.0055
1686.00,0.0055
1685.00,0.0055
1684.00,0.0056
1683.00,0.0057
1682.00,0.0057
1681.00,0.0057
1680.00,0.0058
1679.00,0.0060
1678.00,0.0061
1677.00,0.0063
1676.00,0.0066
1675.00,0.0069
1674.00,0.0071
1673.00,0.0074
1672.00,0.0077
1671.00,0.0080
1670.00,0.0084
1669.00,0.0089
1668.00,0.0094
1667.00,0.0098
1666.00,0.0102
1665.00,0.0106
1664.00,0.0111
1663.00,0.0116
1662.00,0.0121
1661.00,0.0124
1660.00,0.0127
1659.00,0.0130
1658.00,0.0132
1657.00,0.0136
1656.00,0.0142
1655.00,0.0150
1654.00,0.0166
1653.00,0.0195
1652.00,0.0225
1651.00,0.0247
1650.00,0.0268
1649.00,0.0297
1648.00,0.0344
1647.00,0.0413
1646.00,0.0486
1645.00,0.0541
1644.00,0.0574
1643.00,0.0589
1642.00,0.0592
1641.00,0.0591
1640.00,0.0593
1639.00,0.0603
1638.00,0.0627
1637.00,0.0681
1636.00,0.0779
1635.00,0.0902
1634.00,0.1010
1633.00,0.1093
1632.00,0.1161
1631.00,0.1218
1630.00,0.1260
1629.00,0.1280
1628.00,0.1279
1627.00,0.1260
1626.00,0.1227
1625.00,0.1183
1624.00,0.1126
1623.00,0.1058
1622.00,0.0986
1621.00,0.0917
1620.00,0.0850
1619.00,0.0781
1618.00,0.0704
1617.00,0.0618
1616.00,0.0538
1615.00,0.0477
1614.00,0.0435
1613.00,0.0402
1612.00,0.0372
1611.00,0.0346
1610.00,0.0324
1609.00,0.0307
1608.00,0.0294
1607.00,0.0284
1606.00,0.0277
1605.00,0.0275
1604.00,0.0275
1603.00,0.0277
1602.00,0.0284
1601.00,0.0295
1600.00,0.0310
1599.00,0.0329
1598.00,0.0354
1597.00,0.0385
1596.00,0.0424
1595.00,0.0471
1594.00,0.0528
1593.00,0.0596
1592.00,0.0678
1591.00,0.0772
1590.00,0.0881
1589.00,0.0999
1588.00,0.1122
1587.00,0.1240
1586.00,0.1344
1585.00,0.1427
1584.00,0.1485
1583.00,0.1514
1582.00,0.1509
1581.00,0.1475
1580.00,0.1421
1579.00,0.1354
1578.00,0.1270
1577.00,0.1166
1576.00,0.1052
1575.00,0.0950
1574.00,0.0871
1573.00,0.0806
1572.00,0.0745
1571.00,0.0679
1570.00,0.0605
1569.00,0.0536
1568.00,0.0479
1567.00,0.0434
1566.00,0.0394
1565.00,0.0358
1564.00,0.0326
1563.00,0.0301
1562.00,0.0283
1561.00,0.0267
1560.00,0.0249
1559.00,0.0229
1558.00,0.0214
1557.00,0.0204
1556.00,0.0196
1555.00,0.0189
1554.00,0.0182
1553.00,0.0176
1552.00,0.0171
1551.00,0.0166
1550.00,0.0162
1549.00,0.0158
1548.00,0.0155
1547.00,0.0152
1546.00,0.0150
1545.00,0.0149
1544.00,0.0148
1543.00,0.0147
1542.00,0.0147
1541.00,0.0147
1540.00,0.0149
1539.00,0.0149
1538.00,0.0150
1537.00,0.0150
1536.00,0.0151
1535.00,0.0153
1534.00,0.0156
1533.00,0.0161
1532.00,0.0166
1531.00,0.0169
1530.00,0.0174
1529.00,0.0180
1528.00,0.0189
1527.00,0.0199
1526.00,0.0212
1525.00,0.0226
1524.00,0.0240
1523.00,0.0256
1522.00,0.0279
1521.00,0.0307
1520.00,0.0332
1519.00,0.0349
1518.00,0.0364
1517.00,0.0379
1516.00,0.0390
1515.00,0.0395
1514.00,0.0392
1513.00,0.0384
1512.00,0.0372
1511.00,0.0356
1510.00,0.0339
1509.00,0.0321
1508.00,0.0301
1507.00,0.0277
1506.00,0.0254
1505.00,0.0238
1504.00,0.0227
1503.00,0.0218
1502.00,0.0211
1501.00,0.0204
1500.00,0.0198
1499.00,0.0192
1498.00,0.0186
1497.00,0.0180
1496.00,0.0174
1495.00,0.0169
1494.00,0.0164
1493.00,0.0160
1492.00,0.0158
1491.00,0.0155
1490.00,0.0153
1489.00,0.0152
1488.00,0.0151
1487.00,0.0150
1486.00,0.0149
1485.00,0.0149
1484.00,0.0151
1483.00,0.0152
1482.00,0.0155
1481.00,0.0158
1480.00,0.0163
1479.00,0.0168
1478.00,0.0174
1477.00,0.0182
1476.00,0.0193
1475.00,0.0205
1474.00,0.0223
1473.00,0.0253
1472.00,0.0297
1471.00,0.0345
1470.00,0.0391
1469.00,0.0437
1468.00,0.0478
1467.00,0.0512
1466.00,0.0538
1465.00,0.0560
1464.00,0.0583
1463.00,0.0607
1462.00,0.0633
1461.00,0.0663
1460.00,0.0696
1459.00,0.0735
1458.00,0.0790
1457.00,0.0867
1456.00,0.0946
1455.00,0.1010
1454.00,0.1070
1453.00,0.1144
1452.00,0.1233
1451.00,0.1331
1450.00,0.1436
1449.00,0.1553
1448.00,0.1677
1447.00,0.1792
1446.00,0.1886
1445.00,0.1959
1444.00,0.2010
1443.00,0.2038
1442.00,0.2048
1441.00,0.2044
1440.00,0.2025
1439.00,0.1993
1438.00,0.1948
1437.00,0.1890
1436.00,0.1822
1435.00,0.1751
1434.00,0.1684
1433.00,0.1617
1432.00,0.1545
1431.00,0.1462
1430.00,0.1369
1429.00,0.1266
1428.00,0.1157
1427.00,0.1048
1426.00,0.0940
1425.00,0.0833
1424.00,0.0730
1423.00,0.0643
1422.00,0.0573
1421.00,0.0515
1420.00,0.0461
1419.00,0.0411
1418.00,0.0372
1417.00,0.0342
1416.00,0.0319
1415.00,0.0301
1414.00,0.0286
1413.00,0.0273
1412.00,0.0261
1411.00,0.0252
1410.00,0.0246
1409.00,0.0239
1408.00,0.0234
1407.00,0.0231
1406.00,0.0229
1405.00,0.0227
1404.00,0.0225
1403.00,0.0224
1402.00,0.0224
1401.00,0.0223
1400.00,0.0222
1399.00,0.0223
1398.00,0.0224
1397.00,0.0224
1396.00,0.0224
1395.00,0.0224
1394.00,0.0226
1393.00,0.0227
1392.00,0.0228
1391.00,0.0230
1390.00,0.0235
1389.00,0.0242
1388.00,0.0251
1387.00,0.0266
1386.00,0.0286
1385.00,0.0311
1384.00,0.0345
1383.00,0.0392
1382.00,0.0454
1381.00,0.0527
1380.00,0.0606
1379.00,0.0686
1378.00,0.0754
1377.00,0.0801
1376.00,0.0819
1375.00,0.0807
1374.00,0.0769
1373.00,0.0716
1372.00,0.0665
1371.00,0.0623
1370.00,0.0588
1369.00,0.0561
1368.00,0.0539
1367.00,0.0521
1366.00,0.0507
1365.00,0.0494
1364.00,0.0483
1363.00,0.0474
1362.00,0.0469
1361.00,0.0465
1360.00,0.0464
1359.00,0.0466
1358.00,0.0469
1357.00,0.0475
1356.00,0.0482
1355.00,0.0491
1354.00,0.0502
1353.00,0.0513
1352.00,0.0522
1351.00,0.0532
1350.00,0.0540
1349.00,0.0548
1348.00,0.0555
1347.00,0.0562
1346.00,0.0568
1345.00,0.0573
1344.00,0.0576
1343.00,0.0578
1342.00,0.0579
1341.00,0.0578
1340.00,0.0576
1339.00,0.0573
1338.00,0.0570
1337.00,0.0569
1336.00,0.0570
1335.00,0.0573
1334.00,0.0578
1333.00,0.0584
1332.00,0.0589
1331.00,0.0593
1330.00,0.0595
1329.00,0.0595
1328.00,0.0594
1327.00,0.0594
1326.00,0.0595
1325.00,0.0599
1324.00,0.0606
1323.00,0.0613
1322.00,0.0621
1321.00,0.0630
1320.00,0.0641
1319.00,0.0657
1318.00,0.0679
1317.00,0.0705
1316.00,0.0734
1315.00,0.0766
1314.00,0.0796
1313.00,0.0823
1312.00,0.0841
1311.00,0.0849
1310.00,0.0847
1309.00,0.0838
1308.00,0.0826
1307.00,0.0816
1306.00,0.0809
1305.00,0.0806
1304.00,0.0805
1303.00,0.0806
1302.00,0.0806
1301.00,0.0803
1300.00,0.0797
1299.00,0.0787
1298.00,0.0776
1297.00,0.0762
1296.00,0.0747
1295.00,0.0732
1294.00,0.0718
1293.00,0.0705
1292.00,0.0695
1291.00,0.0687
1290.00,0.0681
1289.00,0.0679
1288.00,0.0682
1287.00,0.0689
1286.00,0.0700
1285.00,0.0715
1284.00,0.0731
1283.00,0.0747
1282.00,0.0760
1281.00,0.0770
1280.00,0.0774
1279.00,0.0774
1278.00,0.0768
1277.00,0.0757
1276.00,0.0740
1275.00,0.0719
1274.00,0.0695
1273.00,0.0667
1272.00,0.0637
1271.00,0.0605
1270.00,0.0573
1269.00,0.0541
1268.00,0.0510
1267.00,0.0482
1266.00,0.0457
1265.00,0.0436
1264.00,0.0418
1263.00,0.0405
1262.00,0.0394
1261.00,0.0387
1260.00,0.0383
1259.00,0.0383
1258.00,0.0386
1257.00,0.0393
1256.00,0.0405
1255.00,0.0422
1254.00,0.0443
1253.00,0.0469
1252.00,0.0498
1251.00,0.0530
1250.00,0.0563
1249.00,0.0596
1248.00,0.0628
1247.00,0.0661
1246.00,0.0697
1245.00,0.0739
1244.00,0.0788
1243.00,0.0843
1242.00,0.0905
1241.00,0.0968
1240.00,0.1031
1239.00,0.1087
1238.00,0.1130
1237.00,0.1157
1236.00,0.1164
1235.00,0.1153
1234.00,0.1128
1233.00,0.1095
1232.00,0.1060
1231.00,0.1031
1230.00,0.1017
1229.00,0.1021
1228.00,0.1046
1227.00,0.1088
1226.00,0.1141
1225.00,0.1198
1224.00,0.1254
1223.00,0.1307
1222.00,0.1357
1221.00,0.1407
1220.00,0.1459
1219.00,0.1514
1218.00,0.1570
1217.00,0.1624
1216.00,0.1668
1215.00,0.1695
1214.00,0.1700
1213.00,0.1682
1212.00,0.1643
1211.00,0.1588
1210.00,0.1524
1209.00,0.1459
1208.00,0.1400
1207.00,0.1349
1206.00,0.1307
1205.00,0.1270
1204.00,0.1234
1203.00,0.1195
1202.00,0.1150
1201.00,0.1097
1200.00,0.1038
1199.00,0.0976
1198.00,0.0914
1197.00,0.0854
1196.00,0.0800
1195.00,0.0753
1194.00,0.0713
1193.00,0.0681
1192.00,0.0657
1191.00,0.0639
1190.00,0.0628
1189.00,0.0621
1188.00,0.0619
1187.00,0.0621
1186.00,0.0627
1185.00,0.0637
1184.00,0.0651
1183.00,0.0667
1182.00,0.0687
1181.00,0.0711
1180.00,0.0738
1179.00,0.0770
1178.00,0.0806
1177.00,0.0843
1176.00,0.0879
1175.00,0.0909
1174.00,0.0931
1173.00,0.0939
1172.00,0.0929
1171.00,0.0899
1170.00,0.0850
1169.00,0.0790
1168.00,0.0729
1167.00,0.0672
1166.00,0.0623
1165.00,0.0581
1164.00,0.0546
1163.00,0.0518
1162.00,0.0497
1161.00,0.0482
1160.00,0.0473
1159.00,0.0473
1158.00,0.0482
1157.00,0.0502
1156.00,0.0537
1155.00,0.0590
1154.00,0.0662
1153.00,0.0752
1152.00,0.0849
1151.00,0.0931
1150.00,0.0971
1149.00,0.0953
1148.00,0.0879
1147.00,0.0771
1146.00,0.0656
1145.00,0.0555
1144.00,0.0474
1143.00,0.0415
1142.00,0.0374
1141.00,0.0346
1140.00,0.0330
1139.00,0.0322
1138.00,0.0322
1137.00,0.0326
1136.00,0.0331
1135.00,0.0335
1134.00,0.0335
1133.00,0.0330
1132.00,0.0319
1131.00,0.0305
1130.00,0.0289
1129.00,0.0273
1128.00,0.0258
1127.00,0.0245
1126.00,0.0235
1125.00,0.0226
1124.00,0.0219
1123.00,0.0214
1122.00,0.0210
1121.00,0.0208
1120.00,0.0208
1119.00,0.0209
1118.00,0.0212
1117.00,0.0217
1116.00,0.0222
1115.00,0.0230
1114.00,0.0238
1113.00,0.0247
1112.00,0.0255
1111.00,0.0263
1110.00,0.0270
1109.00,0.0277
1108.00,0.0284
1107.00,0.0292
1106.00,0.0302
1105.00,0.0312
1104.00,0.0323
1103.00,0.0335
1102.00,0.0350
1101.00,0.0365
1100.00,0.0379
1099.00,0.0391
1098.00,0.0396
1097.00,0.0394
1096.00,0.0385
1095.00,0.0371
1094.00,0.0354
1093.00,0.0335
1092.00,0.0317
1091.00,0.0301
1090.00,0.0288
1089.00,0.0278
1088.00,0.0273
1087.00,0.0272
1086.00,0.0276
1085.00,0.0284
1084.00,0.0295
1083.00,0.0308
1082.00,0.0322
1081.00,0.0334
1080.00,0.0342
1079.00,0.0345
1078.00,0.0341
1077.00,0.0331
1076.00,0.0319
1075.00,0.0306
1074.00,0.0294
1073.00,0.0284
1072.00,0.0276
1071.00,0.0270
1070.00,0.0267
1069.00,0.0264
1068.00,0.0263
1067.00,0.0264
1066.00,0.0267
1065.00,0.0272
1064.00,0.0280
1063.00,0.0292
1062.00,0.0309
1061.00,0.0333
1060.00,0.0367
1059.00,0.0414
1058.00,0.0478
1057.00,0.0563
1056.00,0.0670
1055.00,0.0794
1054.00,0.0920
1053.00,0.1026
1052.00,0.1088
1051.00,0.1095
1050.00,0.1047
1049.00,0.0961
1048.00,0.0856
1047.00,0.0752
1046.00,0.0664
1045.00,0.0600
1044.00,0.0560
1043.00,0.0542
1042.00,0.0540
1041.00,0.0550
1040.00,0.0570
1039.00,0.0601
1038.00,0.0644
1037.00,0.0703
1036.00,0.0781
1035.00,0.0879
1034.00,0.0994
1033.00,0.1122
1032.00,0.1252
1031.00,0.1377
1030.00,0.1493
1029.00,0.1595
1028.00,0.1684
1027.00,0.1756
1026.00,0.1808
1025.00,0.1837
1024.00,0.1846
1023.00,0.1842
1022.00,0.1835
1021.00,0.1834
1020.00,0.1840
1019.00,0.1842
1018.00,0.1827
1017.00,0.1785
1016.00,0.1714
1015.00,0.1623
1014.00,0.1521
1013.00,0.1420
1012.00,0.1329
1011.00,0.1255
1010.00,0.1200
1009.00,0.1160
1008.00,0.1131
1007.00,0.1105
1006.00,0.1080
1005.00,0.1053
1004.00,0.1025
1003.00,0.0996
1002.00,0.0966
1001.00,0.0934
1000.00,0.0898
999.00,0.0858
998.00,0.0814
997.00,0.0768
996.00,0.0725
995.00,0.0687
994.00,0.0656
993.00,0.0634
992.00,0.0621
991.00,0.0618
990.00,0.0624
989.00,0.0636
988.00,0.0650
987.00,0.0659
986.00,0.0661
985.00,0.0653
984.00,0.0635
983.00,0.0608
982.00,0.0575
981.00,0.0543
980.00,0.0514
979.00,0.0492
978.00,0.0476
977.00,0.0464
976.00,0.0454
975.00,0.0444
974.00,0.0436
973.00,0.0429
972.00,0.0425
971.00,0.0426
970.00,0.0432
969.00,0.0443
968.00,0.0459
967.00,0.0480
966.00,0.0505
965.00,0.0534
964.00,0.0567
963.00,0.0601
962.00,0.0630
961.00,0.0648
960.00,0.0648
959.00,0.0631
958.00,0.0597
957.00,0.0552
956.00,0.0502
955.00,0.0452
954.00,0.0405
953.00,0.0363
952.00,0.0329
951.00,0.0301
950.00,0.0279
949.00,0.0263
948.00,0.0250
947.00,0.0241
946.00,0.0234
945.00,0.0228
944.00,0.0223
943.00,0.0219
942.00,0.0216
941.00,0.0213
940.00,0.0211
939.00,0.0210
938.00,0.0210
937.00,0.0211
936.00,0.0213
935.00,0.0217
934.00,0.0222
933.00,0.0228
932.00,0.0236
931.00,0.0243
930.00,0.0251
929.00,0.0257
928.00,0.0261
927.00,0.0264
926.00,0.0266
925.00,0.0267
924.00,0.0268
923.00,0.0268
922.00,0.0271
921.00,0.0276
920.00,0.0283
919.00,0.0294
918.00,0.0307
917.00,0.0322
916.00,0.0335
915.00,0.0347
914.00,0.0356
913.00,0.0363
912.00,0.0372
911.00,0.0384
910.00,0.0402
909.00,0.0429
908.00,0.0464
907.00,0.0510
906.00,0.0564
905.00,0.0626
904.00,0.0691
903.00,0.0756
902.00,0.0818
901.00,0.0879
900.00,0.0939
899.00,0.1004
898.00,0.1072
897.00,0.1138
896.00,0.1197
895.00,0.1241
894.00,0.1271
893.00,0.1292
892.00,0.1310
891.00,0.1330
890.00,0.1353
889.00,0.1379
888.00,0.1407
887.00,0.1436
886.00,0.1461
885.00,0.1474
884.00,0.1465
883.00,0.1420
882.00,0.1337
881.00,0.1224
880.00,0.1098
879.00,0.0978
878.00,0.0874
877.00,0.0794
876.00,0.0735
875.00,0.0696
874.00,0.0673
873.00,0.0665
872.00,0.0671
871.00,0.0687
870.00,0.0711
869.00,0.0738
868.00,0.0764
867.00,0.0791
866.00,0.0820
865.00,0.0851
864.00,0.0882
863.00,0.0908
862.00,0.0922
861.00,0.0923
860.00,0.0911
859.00,0.0894
858.00,0.0880
857.00,0.0873
856.00,0.0875
855.00,0.0885
854.00,0.0899
853.00,0.0914
852.00,0.0927
851.00,0.0936
850.00,0.0938
849.00,0.0931
848.00,0.0918
847.00,0.0901
846.00,0.0885
845.00,0.0871
844.00,0.0860
843.00,0.0851
842.00,0.0844
841.00,0.0839
840.00,0.0836
839.00,0.0839
838.00,0.0849
837.00,0.0864
836.00,0.0886
835.00,0.0912
834.00,0.0941
833.00,0.0972
832.00,0.1001
831.00,0.1025
830.00,0.1041
829.00,0.1047
828.00,0.1041
827.00,0.1023
826.00,0.0992
825.00,0.0950
824.00,0.0901
823.00,0.0848
822.00,0.0795
821.00,0.0742
820.00,0.0692
819.00,0.0646
818.00,0.0606
817.00,0.0574
816.00,0.0548
815.00,0.0530
814.00,0.0516
813.00,0.0505
812.00,0.0496
811.00,0.0489
810.00,0.0487
809.00,0.0496
808.00,0.0523
807.00,0.0571
806.00,0.0636
805.00,0.0701
804.00,0.0743
803.00,0.0748
802.00,0.0715
801.00,0.0659
800.00,0.0600
799.00,0.0549
798.00,0.0514
797.00,0.0491
796.00,0.0478
795.00,0.0468
794.00,0.0459
793.00,0.0446
792.00,0.0430
791.00,0.0411
790.00,0.0392
789.00,0.0375
788.00,0.0361
787.00,0.0352
786.00,0.0346
785.00,0.0341
784.00,0.0335
783.00,0.0328
782.00,0.0322
781.00,0.0316
780.00,0.0314
779.00,0.0315
778.00,0.0319
777.00,0.0323
776.00,0.0328
775.00,0.0331
774.00,0.0333
773.00,0.0334
772.00,0.0335
771.00,0.0335
770.00,0.0333
769.00,0.0329
768.00,0.0322
767.00,0.0312
766.00,0.0302
765.00,0.0293
764.00,0.0286
763.00,0.0281
762.00,0.0279
761.00,0.0280
760.00,0.0283
759.00,0.0288
758.00,0.0295
757.00,0.0305
756.00,0.0319
755.00,0.0338
754.00,0.0361
753.00,0.0389
752.00,0.0419
751.00,0.0447
750.00,0.0470
749.00,0.0483
748.00,0.0482
747.00,0.0465
746.00,0.0434
745.00,0.0398
744.00,0.0365
743.00,0.0338
742.00,0.0319
741.00,0.0308
740.00,0.0303
739.00,0.0303
738.00,0.0307
737.00,0.0315
736.00,0.0328
735.00,0.0344
734.00,0.0364
733.00,0.0384
732.00,0.0403
731.00,0.0415
730.00,0.0419
729.00,0.0415
728.00,0.0406
727.00,0.0396
726.00,0.0386
725.00,0.0377
724.00,0.0367
723.00,0.0356
722.00,0.0344
721.00,0.0333
720.00,0.0324
719.00,0.0318
718.00,0.0313
717.00,0.0308
716.00,0.0303
715.00,0.0300
714.00,0.0298
713.00,0.0298
712.00,0.0299
711.00,0.0300
710.00,0.0300
709.00,0.0298
708.00,0.0294
707.00,0.0291
706.00,0.0287
705.00,0.0285
704.00,0.0283
703.00,0.0282
702.00,0.0282
701.00,0.0283
700.00,0.0285
699.00,0.0286
698.00,0.0287
697.00,0.0287
696.00,0.0288
695.00,0.0290
694.00,0.0293
693.00,0.0296
692.00,0.0299
691.00,0.0302
690.00,0.0306
689.00,0.0311
688.00,0.0317
687.00,0.0323
686.00,0.0331
685.00,0.0341
684.00,0.0352
683.00,0.0364
682.00,0.0378
681.00,0.0393
680.00,0.0409
679.00,0.0425
678.00,0.0441
677.00,0.0455
676.00,0.0468
675.00,0.0478
674.00,0.0487
673.00,0.0494
672.00,0.0501
671.00,0.0508
670.00,0.0515
669.00,0.0522
668.00,0.0527
667.00,0.0530
666.00,0.0529
665.00,0.0527
664.00,0.0525
663.00,0.0522
662.00,0.0518
661.00,0.0515
660.00,0.0513
659.00,0.0512
658.00,0.0511
657.00,0.0511
656.00,0.0511
655.00,0.0509
654.00,0.0508
653.00,0.0507
652.00,0.0508
651.00,0.0509
650.00,0.0510
649.00,0.0508
648.00,0.0505
647.00,0.0499
646.00,0.0491
645.00,0.0481
644.00,0.0472
643.00,0.0463
642.00,0.0455
641.00,0.0449
640.00,0.0445
639.00,0.0441
638.00,0.0440
637.00,0.0439
636.00,0.0438
635.00,0.0438
634.00,0.0439
633.00,0.0440
632.00,0.0442
631.00,0.0445
630.00,0.0449
629.00,0.0452
628.00,0.0456
627.00,0.0459
626.00,0.0464
625.00,0.0469
624.00,0.0473
623.00,0.0476
622.00,0.0478
621.00,0.0479
620.00,0.0477
619.00,0.0475
618.00,0.0473
617.00,0.0473
616.00,0.0477
615.00,0.0487
614.00,0.0502
613.00,0.0523
612.00,0.0547
611.00,0.0569
610.00,0.0587
609.00,0.0598
608.00,0.0607
607.00,0.0616
606.00,0.0628
605.00,0.0644
604.00,0.0661
603.00,0.0678
602.00,0.0695
601.00,0.0713
600.00,0.0732
599.00,0.0750
598.00,0.0764
597.00,0.0772
596.00,0.0775
595.00,0.0776
594.00,0.0777
593.00,0.0779
592.00,0.0781
591.00,0.0783
590.00,0.0786
589.00,0.0788
588.00,0.0789
587.00,0.0789
586.00,0.0787
585.00,0.0785
584.00,0.0783
583.00,0.0780
582.00,0.0777
581.00,0.0774
580.00,0.0769
579.00,0.0763
578.00,0.0753
577.00,0.0741
576.00,0.0727
575.00,0.0713
574.00,0.0702
573.00,0.0692
572.00,0.0685
571.00,0.0679
570.00,0.0676
569.00,0.0674
568.00,0.0674
567.00,0.0676
566.00,0.0678
565.00,0.0682
564.00,0.0686
563.00,0.0693
562.00,0.0703
561.00,0.0717
560.00,0.0734
559.00,0.0757
558.00,0.0783
557.00,0.0815
556.00,0.0851
555.00,0.0891
554.00,0.0932
553.00,0.0969
552.00,0.0999
551.00,0.1020
550.00,0.1031
549.00,0.1032
548.00,0.1029
547.00,0.1025
546.00,0.1022
545.00,0.1020
544.00,0.1018
543.00,0.1016
542.00,0.1017
541.00,0.1023
540.00,0.1039
539.00,0.1065
538.00,0.1097
537.00,0.1133
536.00,0.1167
535.00,0.1195
534.00,0.1214
533.00,0.1226
532.00,0.1235
531.00,0.1242
530.00,0.1249
529.00,0.1260
528.00,0.1280
527.00,0.1311
526.00,0.1345
525.00,0.1374
524.00,0.1390
523.00,0.1386
522.00,0.1361
521.00,0.1313
520.00,0.1249
519.00,0.1178
518.00,0.1111
517.00,0.1058
516.00,0.1021
515.00,0.0997
514.00,0.0982
513.00,0.0975
512.00,0.0974
511.00,0.0976
510.00,0.0981
509.00,0.0989
508.00,0.1001
507.00,0.1016
506.00,0.1033
505.00,0.1053
504.00,0.1075
503.00,0.1098
502.00,0.1122
501.00,0.1147
500.00,0.1171
499.00,0.1195
498.00,0.1217
497.00,0.1237
496.00,0.1256
495.00,0.1273
494.00,0.1287
493.00,0.1299
492.00,0.1308
491.00,0.1315
490.00,0.1320
489.00,0.1326
488.00,0.1335
487.00,0.1347
486.00,0.1356
485.00,0.1364
484.00,0.1370
483.00,0.1374
482.00,0.1373
481.00,0.1367
480.00,0.1355
479.00,0.1341
478.00,0.1327
477.00,0.1316
476.00,0.1308
475.00,0.1305
474.00,0.1308
473.00,0.1318
472.00,0.1332
471.00,0.1343
470.00,0.1352
469.00,0.1360
468.00,0.1370
467.00,0.1376
466.00,0.1376
465.00,0.1372
464.00,0.1367
463.00,0.1361
462.00,0.1353
461.00,0.1341
460.00,0.1329
459.00,0.1315
458.00,0.1299
457.00,0.1283
456.00,0.1271
455.00,0.1263
454.00,0.1257
453.00,0.1254
452.00,0.1253
451.00,0.1249
450.00,0.1241
449.00,0.1229
448.00,0.1218
447.00,0.1207
446.00,0.1199
445.00,0.1193
444.00,0.1188
443.00,0.1182
442.00,0.1175
441.00,0.1171
440.00,0.1169
439.00,0.1171
438.00,0.1174
437.00,0.1177
436.00,0.1179
435.00,0.1175
434.00,0.1166
433.00,0.1159
432.00,0.1156
431.00,0.1157
430.00,0.1162
429.00,0.1171
428.00,0.1185
427.00,0.1202
426.00,0.1217
425.00,0.1228
424.00,0.1237
423.00,0.1239
422.00,0.1234
421.00,0.1221
420.00,0.1202
419.00,0.1177
418.00,0.1154
417.00,0.1139
416.00,0.1129
415.00,0.1118
414.00,0.1105
413.00,0.1095
412.00,0.1092
411.00,0.1095
410.00,0.1102
409.00,0.1111
408.00,0.1119
407.00,0.1123
406.00,0.1120
405.00,0.1112
404.00,0.1104
403.00,0.1099
402.00,0.1095
401.00,0.1098
400.00,0.1108
