Created as New Dataset,Sample 729 By YargerLab Date Thursday, June 26 2025
cm-1,A
4000.00,0.0003
3999.00,0.0004
3998.00,0.0004
3997.00,0.0004
3996.00,0.0004
3995.00,0.0004
3994.00,0.0004
3993.00,0.0004
3992.00,0.0004
3991.00,0.0004
3990.00,0.0004
3989.00,0.0004
3988.00,0.0004
3987.00,0.0004
3986.00,0.0004
3985.00,0.0004
3984.00,0.0004
3983.00,0.0004
3982.00,0.0004
3981.00,0.0004
3980.00,0.0004
3979.00,0.0004
3978.00,0.0003
3977.00,0.0003
3976.00,0.0004
3975.00,0.0004
3974.00,0.0004
3973.00,0.0004
3972.00,0.0004
3971.00,0.0003
3970.00,0.0003
3969.00,0.0003
3968.00,0.0003
3967.00,0.0003
3966.00,0.0003
3965.00,0.0003
3964.00,0.0003
3963.00,0.0003
3962.00,0.0003
3961.00,0.0003
3960.00,0.0003
3959.00,0.0004
3958.00,0.0004
3957.00,0.0004
3956.00,0.0004
3955.00,0.0004
3954.00,0.0003
3953.00,0.0003
3952.00,0.0003
3951.00,0.0003
3950.00,0.0003
3949.00,0.0003
3948.00,0.0003
3947.00,0.0004
3946.00,0.0004
3945.00,0.0003
3944.00,0.0003
3943.00,0.0003
3942.00,0.0003
3941.00,0.0003
3940.00,0.0003
3939.00,0.0003
3938.00,0.0003
3937.00,0.0003
3936.00,0.0003
3935.00,0.0003
3934.00,0.0003
3933.00,0.0003
3932.00,0.0003
3931.00,0.0003
3930.00,0.0003
3929.00,0.0003
3928.00,0.0003
3927.00,0.0003
3926.00,0.0003
3925.00,0.0003
3924.00,0.0003
3923.00,0.0003
3922.00,0.0002
3921.00,0.0002
3920.00,0.0002
3919.00,0.0002
3918.00,0.0002
3917.00,0.0003
3916.00,0.0003
3915.00,0.0003
3914.00,0.0003
3913.00,0.0003
3912.00,0.0003
3911.00,0.0003
3910.00,0.0003
3909.00,0.0003
3908.00,0.0003
3907.00,0.0002
3906.00,0.0002
3905.00,0.0002
3904.00,0.0001
3903.00,0.0001
3902.00,0.0002
3901.00,0.0002
3900.00,0.0002
3899.00,0.0002
3898.00,0.0003
3897.00,0.0003
3896.00,0.0002
3895.00,0.0002
3894.00,0.0002
3893.00,0.0002
3892.00,0.0002
3891.00,0.0002
3890.00,0.0002
3889.00,0.0002
3888.00,0.0002
3887.00,0.0002
3886.00,0.0002
3885.00,0.0002
3884.00,0.0002
3883.00,0.0002
3882.00,0.0002
3881.00,0.0002
3880.00,0.0002
3879.00,0.0002
3878.00,0.0002
3877.00,0.0002
3876.00,0.0002
3875.00,0.0002
3874.00,0.0002
3873.00,0.0002
3872.00,0.0002
3871.00,0.0002
3870.00,0.0002
3869.00,0.0002
3868.00,0.0002
3867.00,0.0002
3866.00,0.0002
3865.00,0.0002
3864.00,0.0003
3863.00,0.0002
3862.00,0.0002
3861.00,0.0002
3860.00,0.0002
3859.00,0.0002
3858.00,0.0002
3857.00,0.0002
3856.00,0.0001
3855.00,0.0001
3854.00,0.0001
3853.00,0.0001
3852.00,0.0001
3851.00,0.0001
3850.00,0.0001
3849.00,0.0002
3848.00,0.0002
3847.00,0.0002
3846.00,0.0003
3845.00,0.0003
3844.00,0.0003
3843.00,0.0003
3842.00,0.0003
3841.00,0.0003
3840.00,0.0002
3839.00,0.0002
3838.00,0.0002
3837.00,0.0002
3836.00,0.0002
3835.00,0.0002
3834.00,0.0002
3833.00,0.0002
3832.00,0.0002
3831.00,0.0002
3830.00,0.0002
3829.00,0.0002
3828.00,0.0003
3827.00,0.0003
3826.00,0.0003
3825.00,0.0003
3824.00,0.0003
3823.00,0.0002
3822.00,0.0003
3821.00,0.0003
3820.00,0.0003
3819.00,0.0002
3818.00,0.0002
3817.00,0.0002
3816.00,0.0002
3815.00,0.0002
3814.00,0.0003
3813.00,0.0003
3812.00,0.0003
3811.00,0.0003
3810.00,0.0003
3809.00,0.0003
3808.00,0.0003
3807.00,0.0003
3806.00,0.0003
3805.00,0.0003
3804.00,0.0003
3803.00,0.0003
3802.00,0.0003
3801.00,0.0003
3800.00,0.0003
3799.00,0.0003
3798.00,0.0003
3797.00,0.0003
3796.00,0.0003
3795.00,0.0003
3794.00,0.0003
3793.00,0.0003
3792.00,0.0003
3791.00,0.0003
3790.00,0.0003
3789.00,0.0003
3788.00,0.0003
3787.00,0.0003
3786.00,0.0004
3785.00,0.0004
3784.00,0.0003
3783.00,0.0003
3782.00,0.0003
3781.00,0.0003
3780.00,0.0003
3779.00,0.0004
3778.00,0.0003
3777.00,0.0003
3776.00,0.0003
3775.00,0.0003
3774.00,0.0003
3773.00,0.0003
3772.00,0.0003
3771.00,0.0003
3770.00,0.0003
3769.00,0.0003
3768.00,0.0003
3767.00,0.0003
3766.00,0.0003
3765.00,0.0003
3764.00,0.0003
3763.00,0.0003
3762.00,0.0003
3761.00,0.0003
3760.00,0.0003
3759.00,0.0003
3758.00,0.0003
3757.00,0.0003
3756.00,0.0004
3755.00,0.0004
3754.00,0.0004
3753.00,0.0004
3752.00,0.0004
3751.00,0.0003
3750.00,0.0003
3749.00,0.0002
3748.00,0.0002
3747.00,0.0002
3746.00,0.0002
3745.00,0.0002
3744.00,0.0003
3743.00,0.0002
3742.00,0.0002
3741.00,0.0002
3740.00,0.0002
3739.00,0.0002
3738.00,0.0002
3737.00,0.0002
3736.00,0.0002
3735.00,0.0002
3734.00,0.0002
3733.00,0.0002
3732.00,0.0001
3731.00,0.0001
3730.00,0.0001
3729.00,0.0001
3728.00,0.0001
3727.00,0.0002
3726.00,0.0002
3725.00,0.0002
3724.00,0.0003
3723.00,0.0003
3722.00,0.0003
3721.00,0.0003
3720.00,0.0003
3719.00,0.0003
3718.00,0.0003
3717.00,0.0003
3716.00,0.0003
3715.00,0.0003
3714.00,0.0002
3713.00,0.0002
3712.00,0.0003
3711.00,0.0003
3710.00,0.0003
3709.00,0.0003
3708.00,0.0003
3707.00,0.0003
3706.00,0.0003
3705.00,0.0003
3704.00,0.0003
3703.00,0.0003
3702.00,0.0003
3701.00,0.0003
3700.00,0.0003
3699.00,0.0003
3698.00,0.0003
3697.00,0.0003
3696.00,0.0004
3695.00,0.0003
3694.00,0.0003
3693.00,0.0003
3692.00,0.0003
3691.00,0.0003
3690.00,0.0003
3689.00,0.0004
3688.00,0.0004
3687.00,0.0004
3686.00,0.0004
3685.00,0.0004
3684.00,0.0005
3683.00,0.0005
3682.00,0.0006
3681.00,0.0006
3680.00,0.0006
3679.00,0.0006
3678.00,0.0006
3677.00,0.0006
3676.00,0.0006
3675.00,0.0006
3674.00,0.0006
3673.00,0.0006
3672.00,0.0006
3671.00,0.0007
3670.00,0.0007
3669.00,0.0008
3668.00,0.0008
3667.00,0.0008
3666.00,0.0009
3665.00,0.0009
3664.00,0.0010
3663.00,0.0010
3662.00,0.0010
3661.00,0.0011
3660.00,0.0011
3659.00,0.0011
3658.00,0.0012
3657.00,0.0012
3656.00,0.0012
3655.00,0.0013
3654.00,0.0013
3653.00,0.0013
3652.00,0.0013
3651.00,0.0014
3650.00,0.0014
3649.00,0.0014
3648.00,0.0014
3647.00,0.0014
3646.00,0.0014
3645.00,0.0015
3644.00,0.0015
3643.00,0.0016
3642.00,0.0017
3641.00,0.0018
3640.00,0.0018
3639.00,0.0019
3638.00,0.0019
3637.00,0.0019
3636.00,0.0020
3635.00,0.0020
3634.00,0.0021
3633.00,0.0021
3632.00,0.0021
3631.00,0.0022
3630.00,0.0022
3629.00,0.0022
3628.00,0.0023
3627.00,0.0023
3626.00,0.0024
3625.00,0.0025
3624.00,0.0026
3623.00,0.0026
3622.00,0.0027
3621.00,0.0027
3620.00,0.0028
3619.00,0.0028
3618.00,0.0028
3617.00,0.0028
3616.00,0.0029
3615.00,0.0029
3614.00,0.0030
3613.00,0.0031
3612.00,0.0031
3611.00,0.0032
3610.00,0.0032
3609.00,0.0033
3608.00,0.0033
3607.00,0.0033
3606.00,0.0034
3605.00,0.0034
3604.00,0.0035
3603.00,0.0036
3602.00,0.0037
3601.00,0.0038
3600.00,0.0038
3599.00,0.0039
3598.00,0.0039
3597.00,0.0040
3596.00,0.0040
3595.00,0.0041
3594.00,0.0041
3593.00,0.0042
3592.00,0.0043
3591.00,0.0043
3590.00,0.0044
3589.00,0.0044
3588.00,0.0045
3587.00,0.0045
3586.00,0.0045
3585.00,0.0046
3584.00,0.0046
3583.00,0.0047
3582.00,0.0048
3581.00,0.0049
3580.00,0.0050
3579.00,0.0050
3578.00,0.0051
3577.00,0.0052
3576.00,0.0052
3575.00,0.0053
3574.00,0.0054
3573.00,0.0054
3572.00,0.0055
3571.00,0.0056
3570.00,0.0056
3569.00,0.0057
3568.00,0.0057
3567.00,0.0057
3566.00,0.0057
3565.00,0.0058
3564.00,0.0058
3563.00,0.0059
3562.00,0.0060
3561.00,0.0061
3560.00,0.0062
3559.00,0.0063
3558.00,0.0064
3557.00,0.0065
3556.00,0.0066
3555.00,0.0066
3554.00,0.0067
3553.00,0.0067
3552.00,0.0067
3551.00,0.0068
3550.00,0.0068
3549.00,0.0069
3548.00,0.0070
3547.00,0.0071
3546.00,0.0071
3545.00,0.0071
3544.00,0.0072
3543.00,0.0073
3542.00,0.0073
3541.00,0.0074
3540.00,0.0075
3539.00,0.0076
3538.00,0.0076
3537.00,0.0077
3536.00,0.0077
3535.00,0.0078
3534.00,0.0079
3533.00,0.0079
3532.00,0.0080
3531.00,0.0081
3530.00,0.0082
3529.00,0.0082
3528.00,0.0083
3527.00,0.0083
3526.00,0.0084
3525.00,0.0084
3524.00,0.0084
3523.00,0.0085
3522.00,0.0085
3521.00,0.0086
3520.00,0.0087
3519.00,0.0088
3518.00,0.0089
3517.00,0.0090
3516.00,0.0090
3515.00,0.0091
3514.00,0.0092
3513.00,0.0092
3512.00,0.0093
3511.00,0.0093
3510.00,0.0094
3509.00,0.0094
3508.00,0.0095
3507.00,0.0095
3506.00,0.0096
3505.00,0.0097
3504.00,0.0097
3503.00,0.0098
3502.00,0.0098
3501.00,0.0098
3500.00,0.0099
3499.00,0.0100
3498.00,0.0100
3497.00,0.0101
3496.00,0.0102
3495.00,0.0102
3494.00,0.0103
3493.00,0.0104
3492.00,0.0104
3491.00,0.0105
3490.00,0.0106
3489.00,0.0106
3488.00,0.0107
3487.00,0.0107
3486.00,0.0108
3485.00,0.0109
3484.00,0.0109
3483.00,0.0110
3482.00,0.0111
3481.00,0.0111
3480.00,0.0112
3479.00,0.0113
3478.00,0.0114
3477.00,0.0114
3476.00,0.0115
3475.00,0.0116
3474.00,0.0117
3473.00,0.0117
3472.00,0.0118
3471.00,0.0118
3470.00,0.0119
3469.00,0.0120
3468.00,0.0120
3467.00,0.0121
3466.00,0.0121
3465.00,0.0122
3464.00,0.0123
3463.00,0.0123
3462.00,0.0124
3461.00,0.0124
3460.00,0.0125
3459.00,0.0125
3458.00,0.0126
3457.00,0.0127
3456.00,0.0127
3455.00,0.0128
3454.00,0.0129
3453.00,0.0129
3452.00,0.0130
3451.00,0.0131
3450.00,0.0132
3449.00,0.0132
3448.00,0.0133
3447.00,0.0134
3446.00,0.0134
3445.00,0.0135
3444.00,0.0135
3443.00,0.0136
3442.00,0.0137
3441.00,0.0138
3440.00,0.0138
3439.00,0.0139
3438.00,0.0140
3437.00,0.0141
3436.00,0.0142
3435.00,0.0142
3434.00,0.0143
3433.00,0.0144
3432.00,0.0145
3431.00,0.0145
3430.00,0.0146
3429.00,0.0147
3428.00,0.0147
3427.00,0.0148
3426.00,0.0149
3425.00,0.0149
3424.00,0.0150
3423.00,0.0151
3422.00,0.0152
3421.00,0.0153
3420.00,0.0153
3419.00,0.0154
3418.00,0.0154
3417.00,0.0155
3416.00,0.0156
3415.00,0.0157
3414.00,0.0158
3413.00,0.0159
3412.00,0.0159
3411.00,0.0160
3410.00,0.0161
3409.00,0.0161
3408.00,0.0162
3407.00,0.0163
3406.00,0.0163
3405.00,0.0164
3404.00,0.0165
3403.00,0.0165
3402.00,0.0166
3401.00,0.0166
3400.00,0.0167
3399.00,0.0167
3398.00,0.0168
3397.00,0.0169
3396.00,0.0170
3395.00,0.0171
3394.00,0.0171
3393.00,0.0172
3392.00,0.0173
3391.00,0.0174
3390.00,0.0175
3389.00,0.0176
3388.00,0.0177
3387.00,0.0177
3386.00,0.0178
3385.00,0.0179
3384.00,0.0179
3383.00,0.0180
3382.00,0.0181
3381.00,0.0181
3380.00,0.0182
3379.00,0.0183
3378.00,0.0184
3377.00,0.0185
3376.00,0.0186
3375.00,0.0187
3374.00,0.0188
3373.00,0.0189
3372.00,0.0189
3371.00,0.0190
3370.00,0.0192
3369.00,0.0193
3368.00,0.0194
3367.00,0.0195
3366.00,0.0196
3365.00,0.0196
3364.00,0.0198
3363.00,0.0199
3362.00,0.0200
3361.00,0.0201
3360.00,0.0202
3359.00,0.0203
3358.00,0.0204
3357.00,0.0205
3356.00,0.0206
3355.00,0.0208
3354.00,0.0209
3353.00,0.0210
3352.00,0.0211
3351.00,0.0213
3350.00,0.0214
3349.00,0.0215
3348.00,0.0216
3347.00,0.0217
3346.00,0.0218
3345.00,0.0219
3344.00,0.0221
3343.00,0.0222
3342.00,0.0224
3341.00,0.0225
3340.00,0.0227
3339.00,0.0228
3338.00,0.0230
3337.00,0.0231
3336.00,0.0233
3335.00,0.0234
3334.00,0.0235
3333.00,0.0237
3332.00,0.0239
3331.00,0.0240
3330.00,0.0242
3329.00,0.0244
3328.00,0.0246
3327.00,0.0247
3326.00,0.0249
3325.00,0.0251
3324.00,0.0252
3323.00,0.0254
3322.00,0.0256
3321.00,0.0258
3320.00,0.0260
3319.00,0.0262
3318.00,0.0265
3317.00,0.0267
3316.00,0.0269
3315.00,0.0271
3314.00,0.0273
3313.00,0.0275
3312.00,0.0277
3311.00,0.0280
3310.00,0.0282
3309.00,0.0284
3308.00,0.0286
3307.00,0.0288
3306.00,0.0290
3305.00,0.0293
3304.00,0.0295
3303.00,0.0298
3302.00,0.0300
3301.00,0.0303
3300.00,0.0305
3299.00,0.0307
3298.00,0.0309
3297.00,0.0312
3296.00,0.0314
3295.00,0.0316
3294.00,0.0319
3293.00,0.0321
3292.00,0.0323
3291.00,0.0326
3290.00,0.0328
3289.00,0.0330
3288.00,0.0332
3287.00,0.0334
3286.00,0.0336
3285.00,0.0338
3284.00,0.0340
3283.00,0.0342
3282.00,0.0344
3281.00,0.0345
3280.00,0.0346
3279.00,0.0347
3278.00,0.0348
3277.00,0.0349
3276.00,0.0350
3275.00,0.0350
3274.00,0.0350
3273.00,0.0350
3272.00,0.0350
3271.00,0.0349
3270.00,0.0349
3269.00,0.0348
3268.00,0.0348
3267.00,0.0347
3266.00,0.0346
3265.00,0.0344
3264.00,0.0343
3263.00,0.0342
3262.00,0.0340
3261.00,0.0338
3260.00,0.0337
3259.00,0.0335
3258.00,0.0333
3257.00,0.0331
3256.00,0.0329
3255.00,0.0326
3254.00,0.0324
3253.00,0.0321
3252.00,0.0319
3251.00,0.0316
3250.00,0.0314
3249.00,0.0312
3248.00,0.0310
3247.00,0.0307
3246.00,0.0305
3245.00,0.0303
3244.00,0.0301
3243.00,0.0299
3242.00,0.0297
3241.00,0.0295
3240.00,0.0293
3239.00,0.0291
3238.00,0.0289
3237.00,0.0287
3236.00,0.0285
3235.00,0.0283
3234.00,0.0280
3233.00,0.0278
3232.00,0.0277
3231.00,0.0275
3230.00,0.0274
3229.00,0.0272
3228.00,0.0271
3227.00,0.0269
3226.00,0.0267
3225.00,0.0266
3224.00,0.0264
3223.00,0.0263
3222.00,0.0261
3221.00,0.0260
3220.00,0.0258
3219.00,0.0257
3218.00,0.0255
3217.00,0.0254
3216.00,0.0252
3215.00,0.0251
3214.00,0.0250
3213.00,0.0248
3212.00,0.0247
3211.00,0.0245
3210.00,0.0244
3209.00,0.0243
3208.00,0.0241
3207.00,0.0240
3206.00,0.0239
3205.00,0.0238
3204.00,0.0236
3203.00,0.0235
3202.00,0.0234
3201.00,0.0233
3200.00,0.0232
3199.00,0.0230
3198.00,0.0229
3197.00,0.0227
3196.00,0.0226
3195.00,0.0225
3194.00,0.0224
3193.00,0.0222
3192.00,0.0221
3191.00,0.0220
3190.00,0.0219
3189.00,0.0218
3188.00,0.0217
3187.00,0.0215
3186.00,0.0214
3185.00,0.0213
3184.00,0.0212
3183.00,0.0211
3182.00,0.0209
3181.00,0.0208
3180.00,0.0207
3179.00,0.0206
3178.00,0.0205
3177.00,0.0204
3176.00,0.0203
3175.00,0.0202
3174.00,0.0200
3173.00,0.0199
3172.00,0.0198
3171.00,0.0197
3170.00,0.0196
3169.00,0.0195
3168.00,0.0194
3167.00,0.0192
3166.00,0.0191
3165.00,0.0190
3164.00,0.0189
3163.00,0.0188
3162.00,0.0187
3161.00,0.0186
3160.00,0.0186
3159.00,0.0185
3158.00,0.0184
3157.00,0.0183
3156.00,0.0183
3155.00,0.0182
3154.00,0.0181
3153.00,0.0180
3152.00,0.0179
3151.00,0.0178
3150.00,0.0177
3149.00,0.0177
3148.00,0.0176
3147.00,0.0176
3146.00,0.0175
3145.00,0.0174
3144.00,0.0173
3143.00,0.0173
3142.00,0.0172
3141.00,0.0171
3140.00,0.0170
3139.00,0.0170
3138.00,0.0169
3137.00,0.0169
3136.00,0.0168
3135.00,0.0168
3134.00,0.0167
3133.00,0.0167
3132.00,0.0166
3131.00,0.0166
3130.00,0.0165
3129.00,0.0165
3128.00,0.0165
3127.00,0.0164
3126.00,0.0164
3125.00,0.0164
3124.00,0.0163
3123.00,0.0163
3122.00,0.0162
3121.00,0.0162
3120.00,0.0162
3119.00,0.0162
3118.00,0.0162
3117.00,0.0162
3116.00,0.0162
3115.00,0.0162
3114.00,0.0162
3113.00,0.0162
3112.00,0.0163
3111.00,0.0163
3110.00,0.0163
3109.00,0.0163
3108.00,0.0163
3107.00,0.0163
3106.00,0.0164
3105.00,0.0164
3104.00,0.0164
3103.00,0.0165
3102.00,0.0165
3101.00,0.0165
3100.00,0.0165
3099.00,0.0165
3098.00,0.0166
3097.00,0.0167
3096.00,0.0167
3095.00,0.0168
3094.00,0.0169
3093.00,0.0169
3092.00,0.0169
3091.00,0.0169
3090.00,0.0170
3089.00,0.0170
3088.00,0.0170
3087.00,0.0170
3086.00,0.0170
3085.00,0.0170
3084.00,0.0170
3083.00,0.0170
3082.00,0.0171
3081.00,0.0171
3080.00,0.0171
3079.00,0.0171
3078.00,0.0171
3077.00,0.0171
3076.00,0.0171
3075.00,0.0171
3074.00,0.0171
3073.00,0.0171
3072.00,0.0171
3071.00,0.0171
3070.00,0.0170
3069.00,0.0169
3068.00,0.0169
3067.00,0.0168
3066.00,0.0167
3065.00,0.0167
3064.00,0.0167
3063.00,0.0166
3062.00,0.0166
3061.00,0.0166
3060.00,0.0165
3059.00,0.0164
3058.00,0.0163
3057.00,0.0162
3056.00,0.0161
3055.00,0.0160
3054.00,0.0159
3053.00,0.0158
3052.00,0.0157
3051.00,0.0156
3050.00,0.0155
3049.00,0.0154
3048.00,0.0153
3047.00,0.0152
3046.00,0.0151
3045.00,0.0150
3044.00,0.0149
3043.00,0.0149
3042.00,0.0148
3041.00,0.0147
3040.00,0.0146
3039.00,0.0146
3038.00,0.0145
3037.00,0.0145
3036.00,0.0144
3035.00,0.0143
3034.00,0.0142
3033.00,0.0142
3032.00,0.0141
3031.00,0.0141
3030.00,0.0140
3029.00,0.0139
3028.00,0.0138
3027.00,0.0138
3026.00,0.0137
3025.00,0.0136
3024.00,0.0135
3023.00,0.0134
3022.00,0.0133
3021.00,0.0132
3020.00,0.0132
3019.00,0.0131
3018.00,0.0131
3017.00,0.0130
3016.00,0.0129
3015.00,0.0128
3014.00,0.0127
3013.00,0.0126
3012.00,0.0126
3011.00,0.0126
3010.00,0.0125
3009.00,0.0125
3008.00,0.0125
3007.00,0.0125
3006.00,0.0125
3005.00,0.0125
3004.00,0.0124
3003.00,0.0124
3002.00,0.0124
3001.00,0.0124
3000.00,0.0124
2999.00,0.0124
2998.00,0.0124
2997.00,0.0124
2996.00,0.0125
2995.00,0.0126
2994.00,0.0127
2993.00,0.0127
2992.00,0.0128
2991.00,0.0129
2990.00,0.0130
2989.00,0.0132
2988.00,0.0133
2987.00,0.0135
2986.00,0.0136
2985.00,0.0138
2984.00,0.0139
2983.00,0.0141
2982.00,0.0143
2981.00,0.0145
2980.00,0.0147
2979.00,0.0149
2978.00,0.0152
2977.00,0.0154
2976.00,0.0157
2975.00,0.0159
2974.00,0.0161
2973.00,0.0164
2972.00,0.0166
2971.00,0.0168
2970.00,0.0170
2969.00,0.0172
2968.00,0.0174
2967.00,0.0176
2966.00,0.0178
2965.00,0.0180
2964.00,0.0181
2963.00,0.0182
2962.00,0.0182
2961.00,0.0183
2960.00,0.0183
2959.00,0.0183
2958.00,0.0182
2957.00,0.0180
2956.00,0.0179
2955.00,0.0177
2954.00,0.0175
2953.00,0.0174
2952.00,0.0172
2951.00,0.0170
2950.00,0.0169
2949.00,0.0168
2948.00,0.0168
2947.00,0.0168
2946.00,0.0167
2945.00,0.0168
2944.00,0.0168
2943.00,0.0169
2942.00,0.0171
2941.00,0.0172
2940.00,0.0174
2939.00,0.0176
2938.00,0.0177
2937.00,0.0179
2936.00,0.0180
2935.00,0.0182
2934.00,0.0183
2933.00,0.0184
2932.00,0.0185
2931.00,0.0186
2930.00,0.0186
2929.00,0.0187
2928.00,0.0187
2927.00,0.0187
2926.00,0.0187
2925.00,0.0187
2924.00,0.0186
2923.00,0.0186
2922.00,0.0184
2921.00,0.0183
2920.00,0.0182
2919.00,0.0180
2918.00,0.0178
2917.00,0.0176
2916.00,0.0173
2915.00,0.0171
2914.00,0.0168
2913.00,0.0165
2912.00,0.0163
2911.00,0.0160
2910.00,0.0158
2909.00,0.0155
2908.00,0.0153
2907.00,0.0151
2906.00,0.0149
2905.00,0.0148
2904.00,0.0146
2903.00,0.0145
2902.00,0.0144
2901.00,0.0143
2900.00,0.0141
2899.00,0.0140
2898.00,0.0139
2897.00,0.0138
2896.00,0.0137
2895.00,0.0136
2894.00,0.0135
2893.00,0.0134
2892.00,0.0133
2891.00,0.0133
2890.00,0.0133
2889.00,0.0132
2888.00,0.0132
2887.00,0.0132
2886.00,0.0132
2885.00,0.0132
2884.00,0.0133
2883.00,0.0133
2882.00,0.0134
2881.00,0.0135
2880.00,0.0136
2879.00,0.0137
2878.00,0.0138
2877.00,0.0138
2876.00,0.0139
2875.00,0.0139
2874.00,0.0139
2873.00,0.0139
2872.00,0.0138
2871.00,0.0137
2870.00,0.0136
2869.00,0.0134
2868.00,0.0133
2867.00,0.0131
2866.00,0.0129
2865.00,0.0127
2864.00,0.0126
2863.00,0.0125
2862.00,0.0124
2861.00,0.0123
2860.00,0.0123
2859.00,0.0123
2858.00,0.0122
2857.00,0.0122
2856.00,0.0122
2855.00,0.0122
2854.00,0.0122
2853.00,0.0121
2852.00,0.0121
2851.00,0.0120
2850.00,0.0118
2849.00,0.0116
2848.00,0.0114
2847.00,0.0112
2846.00,0.0109
2845.00,0.0107
2844.00,0.0105
2843.00,0.0103
2842.00,0.0101
2841.00,0.0099
2840.00,0.0098
2839.00,0.0097
2838.00,0.0096
2837.00,0.0095
2836.00,0.0095
2835.00,0.0094
2834.00,0.0093
2833.00,0.0093
2832.00,0.0092
2831.00,0.0092
2830.00,0.0091
2829.00,0.0091
2828.00,0.0090
2827.00,0.0090
2826.00,0.0090
2825.00,0.0089
2824.00,0.0089
2823.00,0.0088
2822.00,0.0088
2821.00,0.0088
2820.00,0.0087
2819.00,0.0087
2818.00,0.0087
2817.00,0.0087
2816.00,0.0087
2815.00,0.0086
2814.00,0.0086
2813.00,0.0085
2812.00,0.0085
2811.00,0.0085
2810.00,0.0085
2809.00,0.0084
2808.00,0.0084
2807.00,0.0084
2806.00,0.0083
2805.00,0.0083
2804.00,0.0083
2803.00,0.0083
2802.00,0.0082
2801.00,0.0082
2800.00,0.0082
2799.00,0.0081
2798.00,0.0081
2797.00,0.0081
2796.00,0.0081
2795.00,0.0080
2794.00,0.0080
2793.00,0.0080
2792.00,0.0079
2791.00,0.0079
2790.00,0.0079
2789.00,0.0079
2788.00,0.0079
2787.00,0.0078
2786.00,0.0078
2785.00,0.0078
2784.00,0.0077
2783.00,0.0077
2782.00,0.0077
2781.00,0.0077
2780.00,0.0077
2779.00,0.0076
2778.00,0.0076
2777.00,0.0075
2776.00,0.0075
2775.00,0.0075
2774.00,0.0075
2773.00,0.0074
2772.00,0.0074
2771.00,0.0073
2770.00,0.0073
2769.00,0.0073
2768.00,0.0073
2767.00,0.0073
2766.00,0.0073
2765.00,0.0072
2764.00,0.0072
2763.00,0.0072
2762.00,0.0071
2761.00,0.0071
2760.00,0.0070
2759.00,0.0070
2758.00,0.0070
2757.00,0.0070
2756.00,0.0070
2755.00,0.0070
2754.00,0.0069
2753.00,0.0069
2752.00,0.0069
2751.00,0.0068
2750.00,0.0068
2749.00,0.0067
2748.00,0.0067
2747.00,0.0067
2746.00,0.0067
2745.00,0.0067
2744.00,0.0067
2743.00,0.0066
2742.00,0.0066
2741.00,0.0066
2740.00,0.0065
2739.00,0.0065
2738.00,0.0065
2737.00,0.0064
2736.00,0.0064
2735.00,0.0064
2734.00,0.0064
2733.00,0.0064
2732.00,0.0063
2731.00,0.0063
2730.00,0.0063
2729.00,0.0062
2728.00,0.0062
2727.00,0.0062
2726.00,0.0061
2725.00,0.0061
2724.00,0.0061
2723.00,0.0061
2722.00,0.0060
2721.00,0.0060
2720.00,0.0060
2719.00,0.0060
2718.00,0.0059
2717.00,0.0059
2716.00,0.0059
2715.00,0.0059
2714.00,0.0058
2713.00,0.0058
2712.00,0.0058
2711.00,0.0058
2710.00,0.0058
2709.00,0.0058
2708.00,0.0057
2707.00,0.0057
2706.00,0.0057
2705.00,0.0056
2704.00,0.0056
2703.00,0.0056
2702.00,0.0056
2701.00,0.0056
2700.00,0.0056
2699.00,0.0056
2698.00,0.0056
2697.00,0.0056
2696.00,0.0056
2695.00,0.0056
2694.00,0.0056
2693.00,0.0055
2692.00,0.0055
2691.00,0.0055
2690.00,0.0055
2689.00,0.0055
2688.00,0.0055
2687.00,0.0055
2686.00,0.0055
2685.00,0.0054
2684.00,0.0054
2683.00,0.0054
2682.00,0.0054
2681.00,0.0054
2680.00,0.0054
2679.00,0.0054
2678.00,0.0054
2677.00,0.0054
2676.00,0.0054
2675.00,0.0053
2674.00,0.0053
2673.00,0.0053
2672.00,0.0053
2671.00,0.0053
2670.00,0.0053
2669.00,0.0053
2668.00,0.0053
2667.00,0.0054
2666.00,0.0054
2665.00,0.0054
2664.00,0.0055
2663.00,0.0055
2662.00,0.0055
2661.00,0.0055
2660.00,0.0056
2659.00,0.0056
2658.00,0.0056
2657.00,0.0056
2656.00,0.0056
2655.00,0.0056
2654.00,0.0056
2653.00,0.0056
2652.00,0.0056
2651.00,0.0056
2650.00,0.0056
2649.00,0.0056
2648.00,0.0056
2647.00,0.0055
2646.00,0.0055
2645.00,0.0055
2644.00,0.0054
2643.00,0.0054
2642.00,0.0054
2641.00,0.0054
2640.00,0.0054
2639.00,0.0054
2638.00,0.0054
2637.00,0.0054
2636.00,0.0054
2635.00,0.0054
2634.00,0.0054
2633.00,0.0054
2632.00,0.0053
2631.00,0.0053
2630.00,0.0053
2629.00,0.0052
2628.00,0.0052
2627.00,0.0052
2626.00,0.0052
2625.00,0.0052
2624.00,0.0052
2623.00,0.0052
2622.00,0.0052
2621.00,0.0052
2620.00,0.0051
2619.00,0.0051
2618.00,0.0050
2617.00,0.0050
2616.00,0.0050
2615.00,0.0050
2614.00,0.0050
2613.00,0.0050
2612.00,0.0050
2611.00,0.0049
2610.00,0.0049
2609.00,0.0049
2608.00,0.0048
2607.00,0.0048
2606.00,0.0048
2605.00,0.0047
2604.00,0.0047
2603.00,0.0047
2602.00,0.0047
2601.00,0.0047
2600.00,0.0047
2599.00,0.0047
2598.00,0.0046
2597.00,0.0046
2596.00,0.0046
2595.00,0.0045
2594.00,0.0045
2593.00,0.0045
2592.00,0.0045
2591.00,0.0045
2590.00,0.0045
2589.00,0.0045
2588.00,0.0045
2587.00,0.0045
2586.00,0.0044
2585.00,0.0044
2584.00,0.0043
2583.00,0.0043
2582.00,0.0043
2581.00,0.0044
2580.00,0.0044
2579.00,0.0044
2578.00,0.0043
2577.00,0.0043
2576.00,0.0042
2575.00,0.0042
2574.00,0.0042
2573.00,0.0042
2572.00,0.0042
2571.00,0.0042
2570.00,0.0042
2569.00,0.0042
2568.00,0.0042
2567.00,0.0042
2566.00,0.0042
2565.00,0.0042
2564.00,0.0041
2563.00,0.0041
2562.00,0.0041
2561.00,0.0041
2560.00,0.0041
2559.00,0.0041
2558.00,0.0041
2557.00,0.0041
2556.00,0.0040
2555.00,0.0040
2554.00,0.0040
2553.00,0.0039
2552.00,0.0039
2551.00,0.0039
2550.00,0.0038
2549.00,0.0038
2548.00,0.0039
2547.00,0.0039
2546.00,0.0039
2545.00,0.0039
2544.00,0.0039
2543.00,0.0039
2542.00,0.0038
2541.00,0.0038
2540.00,0.0038
2539.00,0.0038
2538.00,0.0038
2537.00,0.0038
2536.00,0.0038
2535.00,0.0038
2534.00,0.0038
2533.00,0.0037
2532.00,0.0037
2531.00,0.0036
2530.00,0.0036
2529.00,0.0036
2528.00,0.0036
2527.00,0.0036
2526.00,0.0036
2525.00,0.0036
2524.00,0.0036
2523.00,0.0036
2522.00,0.0035
2521.00,0.0035
2520.00,0.0035
2519.00,0.0034
2518.00,0.0034
2517.00,0.0034
2516.00,0.0034
2515.00,0.0034
2514.00,0.0035
2513.00,0.0035
2512.00,0.0035
2511.00,0.0035
2510.00,0.0034
2509.00,0.0034
2508.00,0.0034
2507.00,0.0035
2506.00,0.0035
2505.00,0.0035
2504.00,0.0035
2503.00,0.0035
2502.00,0.0035
2501.00,0.0034
2500.00,0.0034
2499.00,0.0034
2498.00,0.0033
2497.00,0.0033
2496.00,0.0034
2495.00,0.0034
2494.00,0.0034
2493.00,0.0034
2492.00,0.0033
2491.00,0.0033
2490.00,0.0033
2489.00,0.0033
2488.00,0.0033
2487.00,0.0033
2486.00,0.0032
2485.00,0.0032
2484.00,0.0032
2483.00,0.0032
2482.00,0.0032
2481.00,0.0032
2480.00,0.0032
2479.00,0.0032
2478.00,0.0031
2477.00,0.0031
2476.00,0.0031
2475.00,0.0031
2474.00,0.0031
2473.00,0.0031
2472.00,0.0031
2471.00,0.0031
2470.00,0.0031
2469.00,0.0031
2468.00,0.0031
2467.00,0.0031
2466.00,0.0030
2465.00,0.0030
2464.00,0.0030
2463.00,0.0030
2462.00,0.0030
2461.00,0.0031
2460.00,0.0031
2459.00,0.0032
2458.00,0.0031
2457.00,0.0031
2456.00,0.0030
2455.00,0.0030
2454.00,0.0029
2453.00,0.0029
2452.00,0.0029
2451.00,0.0029
2450.00,0.0029
2449.00,0.0029
2448.00,0.0029
2447.00,0.0029
2446.00,0.0029
2445.00,0.0028
2444.00,0.0028
2443.00,0.0028
2442.00,0.0028
2441.00,0.0028
2440.00,0.0028
2439.00,0.0028
2438.00,0.0028
2437.00,0.0028
2436.00,0.0028
2435.00,0.0027
2434.00,0.0027
2433.00,0.0026
2432.00,0.0026
2431.00,0.0025
2430.00,0.0025
2429.00,0.0025
2428.00,0.0025
2427.00,0.0025
2426.00,0.0025
2425.00,0.0024
2424.00,0.0024
2423.00,0.0024
2422.00,0.0024
2421.00,0.0024
2420.00,0.0024
2419.00,0.0024
2418.00,0.0024
2417.00,0.0024
2416.00,0.0024
2415.00,0.0024
2414.00,0.0024
2413.00,0.0024
2412.00,0.0024
2411.00,0.0024
2410.00,0.0024
2409.00,0.0023
2408.00,0.0023
2407.00,0.0023
2406.00,0.0022
2405.00,0.0022
2404.00,0.0021
2403.00,0.0021
2402.00,0.0021
2401.00,0.0020
2400.00,0.0020
2399.00,0.0020
2398.00,0.0020
2397.00,0.0020
2396.00,0.0021
2395.00,0.0021
2394.00,0.0021
2393.00,0.0020
2392.00,0.0020
2391.00,0.0020
2390.00,0.0020
2389.00,0.0019
2388.00,0.0019
2387.00,0.0019
2386.00,0.0018
2385.00,0.0018
2384.00,0.0018
2383.00,0.0017
2382.00,0.0016
2381.00,0.0016
2380.00,0.0016
2379.00,0.0015
2378.00,0.0015
2377.00,0.0016
2376.00,0.0016
2375.00,0.0016
2374.00,0.0016
2373.00,0.0016
2372.00,0.0015
2371.00,0.0014
2370.00,0.0013
2369.00,0.0013
2368.00,0.0012
2367.00,0.0012
2366.00,0.0012
2365.00,0.0013
2364.00,0.0014
2363.00,0.0015
2362.00,0.0015
2361.00,0.0015
2360.00,0.0015
2359.00,0.0015
2358.00,0.0015
2357.00,0.0015
2356.00,0.0015
2355.00,0.0016
2354.00,0.0015
2353.00,0.0015
2352.00,0.0015
2351.00,0.0015
2350.00,0.0015
2349.00,0.0016
2348.00,0.0017
2347.00,0.0017
2346.00,0.0017
2345.00,0.0017
2344.00,0.0017
2343.00,0.0017
2342.00,0.0018
2341.00,0.0018
2340.00,0.0019
2339.00,0.0019
2338.00,0.0019
2337.00,0.0019
2336.00,0.0018
2335.00,0.0018
2334.00,0.0018
2333.00,0.0018
2332.00,0.0018
2331.00,0.0018
2330.00,0.0018
2329.00,0.0020
2328.00,0.0022
2327.00,0.0026
2326.00,0.0030
2325.00,0.0031
2324.00,0.0031
2323.00,0.0029
2322.00,0.0027
2321.00,0.0026
2320.00,0.0025
2319.00,0.0024
2318.00,0.0023
2317.00,0.0022
2316.00,0.0022
2315.00,0.0021
2314.00,0.0021
2313.00,0.0020
2312.00,0.0020
2311.00,0.0020
2310.00,0.0020
2309.00,0.0020
2308.00,0.0020
2307.00,0.0020
2306.00,0.0021
2305.00,0.0021
2304.00,0.0021
2303.00,0.0021
2302.00,0.0021
2301.00,0.0021
2300.00,0.0021
2299.00,0.0022
2298.00,0.0022
2297.00,0.0023
2296.00,0.0024
2295.00,0.0025
2294.00,0.0026
2293.00,0.0026
2292.00,0.0026
2291.00,0.0027
2290.00,0.0027
2289.00,0.0028
2288.00,0.0029
2287.00,0.0030
2286.00,0.0029
2285.00,0.0029
2284.00,0.0028
2283.00,0.0027
2282.00,0.0026
2281.00,0.0026
2280.00,0.0025
2279.00,0.0024
2278.00,0.0024
2277.00,0.0024
2276.00,0.0024
2275.00,0.0024
2274.00,0.0024
2273.00,0.0024
2272.00,0.0024
2271.00,0.0023
2270.00,0.0022
2269.00,0.0021
2268.00,0.0021
2267.00,0.0020
2266.00,0.0021
2265.00,0.0022
2264.00,0.0022
2263.00,0.0023
2262.00,0.0022
2261.00,0.0022
2260.00,0.0022
2259.00,0.0022
2258.00,0.0021
2257.00,0.0020
2256.00,0.0019
2255.00,0.0018
2254.00,0.0018
2253.00,0.0019
2252.00,0.0019
2251.00,0.0020
2250.00,0.0020
2249.00,0.0020
2248.00,0.0020
2247.00,0.0019
2246.00,0.0018
2245.00,0.0018
2244.00,0.0019
2243.00,0.0019
2242.00,0.0020
2241.00,0.0020
2240.00,0.0020
2239.00,0.0020
2238.00,0.0019
2237.00,0.0019
2236.00,0.0019
2235.00,0.0019
2234.00,0.0019
2233.00,0.0018
2232.00,0.0018
2231.00,0.0018
2230.00,0.0018
2229.00,0.0018
2228.00,0.0019
2227.00,0.0019
2226.00,0.0019
2225.00,0.0018
2224.00,0.0018
2223.00,0.0018
2222.00,0.0017
2221.00,0.0017
2220.00,0.0017
2219.00,0.0017
2218.00,0.0017
2217.00,0.0017
2216.00,0.0018
2215.00,0.0018
2214.00,0.0018
2213.00,0.0018
2212.00,0.0018
2211.00,0.0018
2210.00,0.0017
2209.00,0.0017
2208.00,0.0017
2207.00,0.0017
2206.00,0.0017
2205.00,0.0018
2204.00,0.0018
2203.00,0.0019
2202.00,0.0019
2201.00,0.0018
2200.00,0.0019
2199.00,0.0019
2198.00,0.0020
2197.00,0.0019
2196.00,0.0019
2195.00,0.0018
2194.00,0.0018
2193.00,0.0017
2192.00,0.0018
2191.00,0.0018
2190.00,0.0019
2189.00,0.0020
2188.00,0.0021
2187.00,0.0021
2186.00,0.0021
2185.00,0.0019
2184.00,0.0017
2183.00,0.0015
2182.00,0.0013
2181.00,0.0013
2180.00,0.0013
2179.00,0.0014
2178.00,0.0014
2177.00,0.0014
2176.00,0.0013
2175.00,0.0014
2174.00,0.0015
2173.00,0.0017
2172.00,0.0019
2171.00,0.0020
2170.00,0.0020
2169.00,0.0021
2168.00,0.0022
2167.00,0.0023
2166.00,0.0025
2165.00,0.0026
2164.00,0.0028
2163.00,0.0027
2162.00,0.0023
2161.00,0.0013
2160.00,0.0002
2159.00,-0.0008
2158.00,-0.0014
2157.00,-0.0015
2156.00,-0.0014
2155.00,-0.0011
2154.00,-0.0009
2153.00,-0.0007
2152.00,-0.0004
2151.00,-0.0002
2150.00,-0.0001
2149.00,-0.0000
2148.00,0.0000
2147.00,-0.0000
2146.00,-0.0001
2145.00,-0.0001
2144.00,0.0000
2143.00,0.0000
2142.00,0.0000
2141.00,-0.0000
2140.00,-0.0001
2139.00,-0.0001
2138.00,-0.0001
2137.00,-0.0001
2136.00,-0.0001
2135.00,-0.0002
2134.00,-0.0002
2133.00,-0.0001
2132.00,0.0001
2131.00,0.0003
2130.00,0.0004
2129.00,0.0005
2128.00,0.0006
2127.00,0.0007
2126.00,0.0008
2125.00,0.0009
2124.00,0.0010
2123.00,0.0011
2122.00,0.0012
2121.00,0.0012
2120.00,0.0013
2119.00,0.0014
2118.00,0.0015
2117.00,0.0016
2116.00,0.0017
2115.00,0.0017
2114.00,0.0017
2113.00,0.0017
2112.00,0.0017
2111.00,0.0017
2110.00,0.0017
2109.00,0.0016
2108.00,0.0016
2107.00,0.0016
2106.00,0.0017
2105.00,0.0017
2104.00,0.0017
2103.00,0.0017
2102.00,0.0017
2101.00,0.0016
2100.00,0.0016
2099.00,0.0016
2098.00,0.0015
2097.00,0.0014
2096.00,0.0012
2095.00,0.0011
2094.00,0.0011
2093.00,0.0012
2092.00,0.0014
2091.00,0.0014
2090.00,0.0015
2089.00,0.0015
2088.00,0.0016
2087.00,0.0016
2086.00,0.0016
2085.00,0.0016
2084.00,0.0017
2083.00,0.0017
2082.00,0.0018
2081.00,0.0019
2080.00,0.0019
2079.00,0.0019
2078.00,0.0018
2077.00,0.0018
2076.00,0.0017
2075.00,0.0017
2074.00,0.0016
2073.00,0.0016
2072.00,0.0016
2071.00,0.0017
2070.00,0.0017
2069.00,0.0018
2068.00,0.0018
2067.00,0.0018
2066.00,0.0016
2065.00,0.0015
2064.00,0.0014
2063.00,0.0014
2062.00,0.0014
2061.00,0.0015
2060.00,0.0015
2059.00,0.0016
2058.00,0.0017
2057.00,0.0017
2056.00,0.0016
2055.00,0.0017
2054.00,0.0019
2053.00,0.0023
2052.00,0.0027
2051.00,0.0027
2050.00,0.0024
2049.00,0.0020
2048.00,0.0017
2047.00,0.0017
2046.00,0.0017
2045.00,0.0016
2044.00,0.0015
2043.00,0.0014
2042.00,0.0014
2041.00,0.0014
2040.00,0.0016
2039.00,0.0017
2038.00,0.0018
2037.00,0.0018
2036.00,0.0019
2035.00,0.0018
2034.00,0.0015
2033.00,0.0010
2032.00,0.0006
2031.00,0.0004
2030.00,0.0003
2029.00,0.0004
2028.00,0.0006
2027.00,0.0007
2026.00,0.0007
2025.00,0.0007
2024.00,0.0008
2023.00,0.0008
2022.00,0.0007
2021.00,0.0005
2020.00,0.0004
2019.00,0.0003
2018.00,0.0003
2017.00,0.0006
2016.00,0.0008
2015.00,0.0010
2014.00,0.0011
2013.00,0.0012
2012.00,0.0012
2011.00,0.0012
2010.00,0.0010
2009.00,0.0008
2008.00,0.0005
2007.00,0.0004
2006.00,0.0003
2005.00,0.0005
2004.00,0.0008
2003.00,0.0010
2002.00,0.0010
2001.00,0.0009
2000.00,0.0009
1999.00,0.0009
1998.00,0.0010
1997.00,0.0012
1996.00,0.0013
1995.00,0.0014
1994.00,0.0015
1993.00,0.0016
1992.00,0.0018
1991.00,0.0019
1990.00,0.0018
1989.00,0.0017
1988.00,0.0016
1987.00,0.0016
1986.00,0.0015
1985.00,0.0016
1984.00,0.0019
1983.00,0.0023
1982.00,0.0026
1981.00,0.0027
1980.00,0.0024
1979.00,0.0018
1978.00,0.0011
1977.00,0.0005
1976.00,0.0001
1975.00,0.0001
1974.00,0.0002
1973.00,0.0004
1972.00,0.0006
1971.00,0.0008
1970.00,0.0008
1969.00,0.0007
1968.00,0.0006
1967.00,0.0005
1966.00,0.0003
1965.00,0.0002
1964.00,0.0002
1963.00,0.0003
1962.00,0.0004
1961.00,0.0006
1960.00,0.0006
1959.00,0.0005
1958.00,0.0004
1957.00,0.0003
1956.00,0.0003
1955.00,0.0003
1954.00,0.0003
1953.00,0.0004
1952.00,0.0005
1951.00,0.0006
1950.00,0.0006
1949.00,0.0007
1948.00,0.0007
1947.00,0.0007
1946.00,0.0005
1945.00,0.0003
1944.00,0.0002
1943.00,0.0003
1942.00,0.0004
1941.00,0.0006
1940.00,0.0008
1939.00,0.0009
1938.00,0.0008
1937.00,0.0008
1936.00,0.0009
1935.00,0.0009
1934.00,0.0008
1933.00,0.0007
1932.00,0.0006
1931.00,0.0006
1930.00,0.0007
1929.00,0.0008
1928.00,0.0009
1927.00,0.0009
1926.00,0.0007
1925.00,0.0006
1924.00,0.0005
1923.00,0.0006
1922.00,0.0007
1921.00,0.0009
1920.00,0.0010
1919.00,0.0011
1918.00,0.0013
1917.00,0.0014
1916.00,0.0014
1915.00,0.0014
1914.00,0.0012
1913.00,0.0011
1912.00,0.0010
1911.00,0.0010
1910.00,0.0010
1909.00,0.0010
1908.00,0.0011
1907.00,0.0011
1906.00,0.0012
1905.00,0.0012
1904.00,0.0013
1903.00,0.0013
1902.00,0.0013
1901.00,0.0012
1900.00,0.0012
1899.00,0.0011
1898.00,0.0011
1897.00,0.0010
1896.00,0.0011
1895.00,0.0012
1894.00,0.0012
1893.00,0.0012
1892.00,0.0012
1891.00,0.0011
1890.00,0.0012
1889.00,0.0013
1888.00,0.0014
1887.00,0.0014
1886.00,0.0014
1885.00,0.0014
1884.00,0.0014
1883.00,0.0015
1882.00,0.0014
1881.00,0.0014
1880.00,0.0013
1879.00,0.0013
1878.00,0.0012
1877.00,0.0013
1876.00,0.0013
1875.00,0.0013
1874.00,0.0013
1873.00,0.0013
1872.00,0.0012
1871.00,0.0011
1870.00,0.0011
1869.00,0.0011
1868.00,0.0012
1867.00,0.0013
1866.00,0.0013
1865.00,0.0013
1864.00,0.0014
1863.00,0.0014
1862.00,0.0014
1861.00,0.0014
1860.00,0.0013
1859.00,0.0013
1858.00,0.0013
1857.00,0.0013
1856.00,0.0013
1855.00,0.0014
1854.00,0.0014
1853.00,0.0015
1852.00,0.0015
1851.00,0.0015
1850.00,0.0014
1849.00,0.0013
1848.00,0.0012
1847.00,0.0011
1846.00,0.0012
1845.00,0.0014
1844.00,0.0017
1843.00,0.0020
1842.00,0.0019
1841.00,0.0017
1840.00,0.0015
1839.00,0.0014
1838.00,0.0014
1837.00,0.0014
1836.00,0.0015
1835.00,0.0015
1834.00,0.0015
1833.00,0.0014
1832.00,0.0013
1831.00,0.0013
1830.00,0.0014
1829.00,0.0016
1828.00,0.0017
1827.00,0.0017
1826.00,0.0017
1825.00,0.0017
1824.00,0.0019
1823.00,0.0019
1822.00,0.0018
1821.00,0.0018
1820.00,0.0017
1819.00,0.0017
1818.00,0.0016
1817.00,0.0016
1816.00,0.0017
1815.00,0.0017
1814.00,0.0016
1813.00,0.0016
1812.00,0.0015
1811.00,0.0016
1810.00,0.0017
1809.00,0.0019
1808.00,0.0020
1807.00,0.0020
1806.00,0.0020
1805.00,0.0020
1804.00,0.0020
1803.00,0.0020
1802.00,0.0021
1801.00,0.0021
1800.00,0.0022
1799.00,0.0022
1798.00,0.0022
1797.00,0.0022
1796.00,0.0021
1795.00,0.0020
1794.00,0.0020
1793.00,0.0022
1792.00,0.0026
1791.00,0.0028
1790.00,0.0029
1789.00,0.0028
1788.00,0.0027
1787.00,0.0027
1786.00,0.0027
1785.00,0.0028
1784.00,0.0028
1783.00,0.0027
1782.00,0.0025
1781.00,0.0025
1780.00,0.0026
1779.00,0.0027
1778.00,0.0027
1777.00,0.0026
1776.00,0.0025
1775.00,0.0024
1774.00,0.0023
1773.00,0.0023
1772.00,0.0027
1771.00,0.0031
1770.00,0.0034
1769.00,0.0036
1768.00,0.0037
1767.00,0.0038
1766.00,0.0037
1765.00,0.0035
1764.00,0.0034
1763.00,0.0035
1762.00,0.0038
1761.00,0.0040
1760.00,0.0041
1759.00,0.0041
1758.00,0.0042
1757.00,0.0044
1756.00,0.0046
1755.00,0.0048
1754.00,0.0047
1753.00,0.0048
1752.00,0.0050
1751.00,0.0052
1750.00,0.0052
1749.00,0.0053
1748.00,0.0054
1747.00,0.0057
1746.00,0.0059
1745.00,0.0061
1744.00,0.0063
1743.00,0.0066
1742.00,0.0069
1741.00,0.0072
1740.00,0.0076
1739.00,0.0079
1738.00,0.0081
1737.00,0.0082
1736.00,0.0084
1735.00,0.0089
1734.00,0.0094
1733.00,0.0099
1732.00,0.0100
1731.00,0.0100
1730.00,0.0100
1729.00,0.0102
1728.00,0.0105
1727.00,0.0107
1726.00,0.0108
1725.00,0.0109
1724.00,0.0111
1723.00,0.0114
1722.00,0.0115
1721.00,0.0117
1720.00,0.0118
1719.00,0.0118
1718.00,0.0119
1717.00,0.0123
1716.00,0.0128
1715.00,0.0133
1714.00,0.0136
1713.00,0.0139
1712.00,0.0142
1711.00,0.0145
1710.00,0.0149
1709.00,0.0153
1708.00,0.0157
1707.00,0.0164
1706.00,0.0171
1705.00,0.0182
1704.00,0.0193
1703.00,0.0206
1702.00,0.0223
1701.00,0.0245
1700.00,0.0268
1699.00,0.0284
1698.00,0.0295
1697.00,0.0306
1696.00,0.0321
1695.00,0.0335
1694.00,0.0345
1693.00,0.0351
1692.00,0.0356
1691.00,0.0363
1690.00,0.0369
1689.00,0.0377
1688.00,0.0384
1687.00,0.0393
1686.00,0.0403
1685.00,0.0412
1684.00,0.0422
1683.00,0.0434
1682.00,0.0444
1681.00,0.0454
1680.00,0.0465
1679.00,0.0478
1678.00,0.0491
1677.00,0.0506
1676.00,0.0519
1675.00,0.0529
1674.00,0.0536
1673.00,0.0544
1672.00,0.0555
1671.00,0.0566
1670.00,0.0576
1669.00,0.0587
1668.00,0.0598
1667.00,0.0610
1666.00,0.0623
1665.00,0.0636
1664.00,0.0649
1663.00,0.0660
1662.00,0.0669
1661.00,0.0679
1660.00,0.0691
1659.00,0.0704
1658.00,0.0718
1657.00,0.0733
1656.00,0.0751
1655.00,0.0768
1654.00,0.0772
1653.00,0.0764
1652.00,0.0758
1651.00,0.0762
1650.00,0.0773
1649.00,0.0785
1648.00,0.0793
1647.00,0.0795
1646.00,0.0795
1645.00,0.0798
1644.00,0.0804
1643.00,0.0812
1642.00,0.0820
1641.00,0.0827
1640.00,0.0835
1639.00,0.0845
1638.00,0.0856
1637.00,0.0864
1636.00,0.0868
1635.00,0.0872
1634.00,0.0880
1633.00,0.0894
1632.00,0.0911
1631.00,0.0931
1630.00,0.0949
1629.00,0.0965
1628.00,0.0979
1627.00,0.0994
1626.00,0.1011
1625.00,0.1026
1624.00,0.1037
1623.00,0.1041
1622.00,0.1043
1621.00,0.1046
1620.00,0.1052
1619.00,0.1056
1618.00,0.1048
1617.00,0.1024
1616.00,0.0993
1615.00,0.0967
1614.00,0.0948
1613.00,0.0930
1612.00,0.0908
1611.00,0.0880
1610.00,0.0849
1609.00,0.0816
1608.00,0.0783
1607.00,0.0753
1606.00,0.0725
1605.00,0.0698
1604.00,0.0673
1603.00,0.0648
1602.00,0.0626
1601.00,0.0605
1600.00,0.0587
1599.00,0.0570
1598.00,0.0554
1597.00,0.0540
1596.00,0.0526
1595.00,0.0513
1594.00,0.0502
1593.00,0.0492
1592.00,0.0483
1591.00,0.0475
1590.00,0.0468
1589.00,0.0461
1588.00,0.0456
1587.00,0.0451
1586.00,0.0448
1585.00,0.0445
1584.00,0.0444
1583.00,0.0442
1582.00,0.0442
1581.00,0.0443
1580.00,0.0444
1579.00,0.0446
1578.00,0.0448
1577.00,0.0450
1576.00,0.0453
1575.00,0.0459
1574.00,0.0466
1573.00,0.0474
1572.00,0.0483
1571.00,0.0491
1570.00,0.0499
1569.00,0.0507
1568.00,0.0516
1567.00,0.0525
1566.00,0.0534
1565.00,0.0544
1564.00,0.0554
1563.00,0.0567
1562.00,0.0582
1561.00,0.0600
1560.00,0.0610
1559.00,0.0611
1558.00,0.0618
1557.00,0.0630
1556.00,0.0641
1555.00,0.0654
1554.00,0.0667
1553.00,0.0680
1552.00,0.0693
1551.00,0.0705
1550.00,0.0716
1549.00,0.0728
1548.00,0.0741
1547.00,0.0754
1546.00,0.0767
1545.00,0.0777
1544.00,0.0785
1543.00,0.0793
1542.00,0.0800
1541.00,0.0803
1540.00,0.0802
1539.00,0.0806
1538.00,0.0815
1537.00,0.0829
1536.00,0.0845
1535.00,0.0858
1534.00,0.0864
1533.00,0.0866
1532.00,0.0869
1531.00,0.0876
1530.00,0.0885
1529.00,0.0893
1528.00,0.0898
1527.00,0.0901
1526.00,0.0901
1525.00,0.0903
1524.00,0.0905
1523.00,0.0907
1522.00,0.0904
1521.00,0.0898
1520.00,0.0896
1519.00,0.0897
1518.00,0.0900
1517.00,0.0898
1516.00,0.0895
1515.00,0.0892
1514.00,0.0889
1513.00,0.0883
1512.00,0.0873
1511.00,0.0860
1510.00,0.0849
1509.00,0.0837
1508.00,0.0815
1507.00,0.0784
1506.00,0.0756
1505.00,0.0735
1504.00,0.0720
1503.00,0.0710
1502.00,0.0700
1501.00,0.0689
1500.00,0.0675
1499.00,0.0660
1498.00,0.0643
1497.00,0.0624
1496.00,0.0603
1495.00,0.0585
1494.00,0.0571
1493.00,0.0558
1492.00,0.0546
1491.00,0.0530
1490.00,0.0511
1489.00,0.0493
1488.00,0.0478
1487.00,0.0466
1486.00,0.0456
1485.00,0.0446
1484.00,0.0437
1483.00,0.0430
1482.00,0.0422
1481.00,0.0416
1480.00,0.0411
1479.00,0.0408
1478.00,0.0407
1477.00,0.0406
1476.00,0.0406
1475.00,0.0407
1474.00,0.0411
1473.00,0.0415
1472.00,0.0421
1471.00,0.0427
1470.00,0.0431
1469.00,0.0435
1468.00,0.0438
1467.00,0.0441
1466.00,0.0442
1465.00,0.0442
1464.00,0.0442
1463.00,0.0443
1462.00,0.0445
1461.00,0.0448
1460.00,0.0452
1459.00,0.0458
1458.00,0.0464
1457.00,0.0470
1456.00,0.0474
1455.00,0.0476
1454.00,0.0477
1453.00,0.0478
1452.00,0.0479
1451.00,0.0481
1450.00,0.0482
1449.00,0.0482
1448.00,0.0481
1447.00,0.0479
1446.00,0.0476
1445.00,0.0475
1444.00,0.0473
1443.00,0.0471
1442.00,0.0470
1441.00,0.0468
1440.00,0.0467
1439.00,0.0468
1438.00,0.0468
1437.00,0.0464
1436.00,0.0456
1435.00,0.0445
1434.00,0.0437
1433.00,0.0430
1432.00,0.0425
1431.00,0.0419
1430.00,0.0414
1429.00,0.0410
1428.00,0.0407
1427.00,0.0405
1426.00,0.0404
1425.00,0.0404
1424.00,0.0403
1423.00,0.0405
1422.00,0.0408
1421.00,0.0414
1420.00,0.0419
1419.00,0.0422
1418.00,0.0426
1417.00,0.0429
1416.00,0.0432
1415.00,0.0436
1414.00,0.0440
1413.00,0.0445
1412.00,0.0449
1411.00,0.0453
1410.00,0.0456
1409.00,0.0460
1408.00,0.0463
1407.00,0.0466
1406.00,0.0469
1405.00,0.0471
1404.00,0.0473
1403.00,0.0475
1402.00,0.0477
1401.00,0.0479
1400.00,0.0480
1399.00,0.0481
1398.00,0.0482
1397.00,0.0483
1396.00,0.0485
1395.00,0.0486
1394.00,0.0487
1393.00,0.0488
1392.00,0.0488
1391.00,0.0489
1390.00,0.0490
1389.00,0.0491
1388.00,0.0490
1387.00,0.0488
1386.00,0.0484
1385.00,0.0480
1384.00,0.0476
1383.00,0.0471
1382.00,0.0466
1381.00,0.0460
1380.00,0.0455
1379.00,0.0450
1378.00,0.0445
1377.00,0.0441
1376.00,0.0437
1375.00,0.0433
1374.00,0.0430
1373.00,0.0428
1372.00,0.0427
1371.00,0.0425
1370.00,0.0423
1369.00,0.0421
1368.00,0.0417
1367.00,0.0413
1366.00,0.0409
1365.00,0.0405
1364.00,0.0400
1363.00,0.0396
1362.00,0.0392
1361.00,0.0389
1360.00,0.0386
1359.00,0.0383
1358.00,0.0380
1357.00,0.0378
1356.00,0.0377
1355.00,0.0376
1354.00,0.0375
1353.00,0.0374
1352.00,0.0374
1351.00,0.0373
1350.00,0.0373
1349.00,0.0373
1348.00,0.0373
1347.00,0.0373
1346.00,0.0373
1345.00,0.0373
1344.00,0.0374
1343.00,0.0374
1342.00,0.0373
1341.00,0.0373
1340.00,0.0372
1339.00,0.0371
1338.00,0.0370
1337.00,0.0370
1336.00,0.0369
1335.00,0.0368
1334.00,0.0367
1333.00,0.0366
1332.00,0.0365
1331.00,0.0364
1330.00,0.0364
1329.00,0.0364
1328.00,0.0364
1327.00,0.0363
1326.00,0.0363
1325.00,0.0363
1324.00,0.0364
1323.00,0.0365
1322.00,0.0365
1321.00,0.0366
1320.00,0.0367
1319.00,0.0368
1318.00,0.0369
1317.00,0.0370
1316.00,0.0371
1315.00,0.0371
1314.00,0.0371
1313.00,0.0372
1312.00,0.0372
1311.00,0.0372
1310.00,0.0372
1309.00,0.0372
1308.00,0.0372
1307.00,0.0371
1306.00,0.0371
1305.00,0.0371
1304.00,0.0370
1303.00,0.0370
1302.00,0.0371
1301.00,0.0371
1300.00,0.0371
1299.00,0.0372
1298.00,0.0373
1297.00,0.0374
1296.00,0.0375
1295.00,0.0377
1294.00,0.0378
1293.00,0.0380
1292.00,0.0381
1291.00,0.0383
1290.00,0.0385
1289.00,0.0387
1288.00,0.0389
1287.00,0.0391
1286.00,0.0393
1285.00,0.0394
1284.00,0.0396
1283.00,0.0398
1282.00,0.0399
1281.00,0.0401
1280.00,0.0402
1279.00,0.0403
1278.00,0.0404
1277.00,0.0405
1276.00,0.0405
1275.00,0.0406
1274.00,0.0407
1273.00,0.0408
1272.00,0.0409
1271.00,0.0410
1270.00,0.0412
1269.00,0.0414
1268.00,0.0416
1267.00,0.0419
1266.00,0.0422
1265.00,0.0426
1264.00,0.0429
1263.00,0.0433
1262.00,0.0436
1261.00,0.0440
1260.00,0.0443
1259.00,0.0447
1258.00,0.0451
1257.00,0.0455
1256.00,0.0460
1255.00,0.0464
1254.00,0.0468
1253.00,0.0473
1252.00,0.0477
1251.00,0.0481
1250.00,0.0486
1249.00,0.0491
1248.00,0.0495
1247.00,0.0500
1246.00,0.0504
1245.00,0.0509
1244.00,0.0514
1243.00,0.0518
1242.00,0.0523
1241.00,0.0527
1240.00,0.0531
1239.00,0.0534
1238.00,0.0538
1237.00,0.0541
1236.00,0.0544
1235.00,0.0547
1234.00,0.0550
1233.00,0.0551
1232.00,0.0553
1231.00,0.0554
1230.00,0.0554
1229.00,0.0555
1228.00,0.0555
1227.00,0.0554
1226.00,0.0553
1225.00,0.0552
1224.00,0.0550
1223.00,0.0548
1222.00,0.0546
1221.00,0.0543
1220.00,0.0540
1219.00,0.0536
1218.00,0.0532
1217.00,0.0527
1216.00,0.0522
1215.00,0.0516
1214.00,0.0511
1213.00,0.0505
1212.00,0.0500
1211.00,0.0494
1210.00,0.0487
1209.00,0.0481
1208.00,0.0475
1207.00,0.0469
1206.00,0.0463
1205.00,0.0457
1204.00,0.0452
1203.00,0.0447
1202.00,0.0443
1201.00,0.0439
1200.00,0.0435
1199.00,0.0432
1198.00,0.0429
1197.00,0.0425
1196.00,0.0422
1195.00,0.0419
1194.00,0.0416
1193.00,0.0414
1192.00,0.0412
1191.00,0.0410
1190.00,0.0409
1189.00,0.0408
1188.00,0.0406
1187.00,0.0405
1186.00,0.0403
1185.00,0.0402
1184.00,0.0401
1183.00,0.0401
1182.00,0.0401
1181.00,0.0402
1180.00,0.0403
1179.00,0.0404
1178.00,0.0406
1177.00,0.0408
1176.00,0.0411
1175.00,0.0414
1174.00,0.0417
1173.00,0.0420
1172.00,0.0422
1171.00,0.0424
1170.00,0.0425
1169.00,0.0426
1168.00,0.0426
1167.00,0.0427
1166.00,0.0427
1165.00,0.0427
1164.00,0.0428
1163.00,0.0428
1162.00,0.0429
1161.00,0.0430
1160.00,0.0430
1159.00,0.0430
1158.00,0.0430
1157.00,0.0430
1156.00,0.0430
1155.00,0.0429
1154.00,0.0428
1153.00,0.0425
1152.00,0.0423
1151.00,0.0419
1150.00,0.0415
1149.00,0.0412
1148.00,0.0408
1147.00,0.0404
1146.00,0.0401
1145.00,0.0397
1144.00,0.0393
1143.00,0.0390
1142.00,0.0387
1141.00,0.0384
1140.00,0.0381
1139.00,0.0378
1138.00,0.0377
1137.00,0.0376
1136.00,0.0376
1135.00,0.0376
1134.00,0.0377
1133.00,0.0378
1132.00,0.0379
1131.00,0.0380
1130.00,0.0381
1129.00,0.0383
1128.00,0.0385
1127.00,0.0388
1126.00,0.0391
1125.00,0.0393
1124.00,0.0396
1123.00,0.0398
1122.00,0.0399
1121.00,0.0401
1120.00,0.0402
1119.00,0.0403
1118.00,0.0404
1117.00,0.0405
1116.00,0.0407
1115.00,0.0408
1114.00,0.0411
1113.00,0.0412
1112.00,0.0414
1111.00,0.0414
1110.00,0.0415
1109.00,0.0415
1108.00,0.0416
1107.00,0.0417
1106.00,0.0419
1105.00,0.0421
1104.00,0.0422
1103.00,0.0424
1102.00,0.0426
1101.00,0.0429
1100.00,0.0431
1099.00,0.0433
1098.00,0.0436
1097.00,0.0438
1096.00,0.0441
1095.00,0.0445
1094.00,0.0449
1093.00,0.0454
1092.00,0.0459
1091.00,0.0464
1090.00,0.0469
1089.00,0.0475
1088.00,0.0480
1087.00,0.0486
1086.00,0.0492
1085.00,0.0498
1084.00,0.0504
1083.00,0.0510
1082.00,0.0516
1081.00,0.0522
1080.00,0.0526
1079.00,0.0530
1078.00,0.0534
1077.00,0.0536
1076.00,0.0538
1075.00,0.0539
1074.00,0.0541
1073.00,0.0541
1072.00,0.0542
1071.00,0.0542
1070.00,0.0544
1069.00,0.0545
1068.00,0.0545
1067.00,0.0545
1066.00,0.0545
1065.00,0.0545
1064.00,0.0545
1063.00,0.0545
1062.00,0.0546
1061.00,0.0547
1060.00,0.0548
1059.00,0.0550
1058.00,0.0551
1057.00,0.0552
1056.00,0.0551
1055.00,0.0549
1054.00,0.0548
1053.00,0.0546
1052.00,0.0544
1051.00,0.0542
1050.00,0.0541
1049.00,0.0540
1048.00,0.0538
1047.00,0.0536
1046.00,0.0535
1045.00,0.0533
1044.00,0.0530
1043.00,0.0527
1042.00,0.0524
1041.00,0.0521
1040.00,0.0519
1039.00,0.0517
1038.00,0.0515
1037.00,0.0513
1036.00,0.0511
1035.00,0.0509
1034.00,0.0507
1033.00,0.0505
1032.00,0.0503
1031.00,0.0501
1030.00,0.0499
1029.00,0.0497
1028.00,0.0495
1027.00,0.0493
1026.00,0.0491
1025.00,0.0488
1024.00,0.0484
1023.00,0.0479
1022.00,0.0475
1021.00,0.0471
1020.00,0.0466
1019.00,0.0462
1018.00,0.0458
1017.00,0.0454
1016.00,0.0450
1015.00,0.0446
1014.00,0.0443
1013.00,0.0438
1012.00,0.0432
1011.00,0.0426
1010.00,0.0421
1009.00,0.0415
1008.00,0.0410
1007.00,0.0405
1006.00,0.0402
1005.00,0.0398
1004.00,0.0394
1003.00,0.0389
1002.00,0.0385
1001.00,0.0380
1000.00,0.0375
999.00,0.0371
998.00,0.0366
997.00,0.0362
996.00,0.0358
995.00,0.0354
994.00,0.0350
993.00,0.0347
992.00,0.0343
991.00,0.0339
990.00,0.0335
989.00,0.0331
988.00,0.0327
987.00,0.0323
986.00,0.0321
985.00,0.0320
984.00,0.0318
983.00,0.0317
982.00,0.0317
981.00,0.0316
980.00,0.0315
979.00,0.0314
978.00,0.0314
977.00,0.0314
976.00,0.0314
975.00,0.0314
974.00,0.0316
973.00,0.0317
972.00,0.0319
971.00,0.0319
970.00,0.0320
969.00,0.0321
968.00,0.0320
967.00,0.0320
966.00,0.0320
965.00,0.0319
964.00,0.0319
963.00,0.0318
962.00,0.0318
961.00,0.0318
960.00,0.0318
959.00,0.0318
958.00,0.0317
957.00,0.0315
956.00,0.0313
955.00,0.0312
954.00,0.0311
953.00,0.0311
952.00,0.0311
951.00,0.0312
950.00,0.0312
949.00,0.0313
948.00,0.0314
947.00,0.0315
946.00,0.0316
945.00,0.0317
944.00,0.0318
943.00,0.0319
942.00,0.0320
941.00,0.0321
940.00,0.0322
939.00,0.0324
938.00,0.0327
937.00,0.0329
936.00,0.0330
935.00,0.0330
934.00,0.0330
933.00,0.0330
932.00,0.0330
931.00,0.0330
930.00,0.0331
929.00,0.0331
928.00,0.0332
927.00,0.0332
926.00,0.0331
925.00,0.0330
924.00,0.0328
923.00,0.0326
922.00,0.0325
921.00,0.0324
920.00,0.0322
919.00,0.0321
918.00,0.0320
917.00,0.0319
916.00,0.0317
915.00,0.0316
914.00,0.0315
913.00,0.0314
912.00,0.0311
911.00,0.0309
910.00,0.0308
909.00,0.0307
908.00,0.0307
907.00,0.0307
906.00,0.0307
905.00,0.0307
904.00,0.0305
903.00,0.0304
902.00,0.0303
901.00,0.0302
900.00,0.0300
899.00,0.0299
898.00,0.0299
897.00,0.0299
896.00,0.0299
895.00,0.0299
894.00,0.0300
893.00,0.0300
892.00,0.0301
891.00,0.0301
890.00,0.0302
889.00,0.0301
888.00,0.0300
887.00,0.0299
886.00,0.0300
885.00,0.0300
884.00,0.0301
883.00,0.0301
882.00,0.0301
881.00,0.0300
880.00,0.0299
879.00,0.0296
878.00,0.0295
877.00,0.0293
876.00,0.0293
875.00,0.0293
874.00,0.0293
873.00,0.0294
872.00,0.0293
871.00,0.0293
870.00,0.0293
869.00,0.0294
868.00,0.0294
867.00,0.0295
866.00,0.0296
865.00,0.0296
864.00,0.0296
863.00,0.0296
862.00,0.0298
861.00,0.0300
860.00,0.0302
859.00,0.0305
858.00,0.0307
857.00,0.0308
856.00,0.0310
855.00,0.0312
854.00,0.0315
853.00,0.0318
852.00,0.0320
851.00,0.0321
850.00,0.0322
849.00,0.0323
848.00,0.0323
847.00,0.0324
846.00,0.0325
845.00,0.0326
844.00,0.0326
843.00,0.0326
842.00,0.0327
841.00,0.0329
840.00,0.0331
839.00,0.0335
838.00,0.0339
837.00,0.0343
836.00,0.0346
835.00,0.0349
834.00,0.0352
833.00,0.0356
832.00,0.0359
831.00,0.0361
830.00,0.0364
829.00,0.0366
828.00,0.0367
827.00,0.0368
826.00,0.0368
825.00,0.0367
824.00,0.0366
823.00,0.0366
822.00,0.0367
821.00,0.0368
820.00,0.0369
819.00,0.0370
818.00,0.0371
817.00,0.0373
816.00,0.0375
815.00,0.0378
814.00,0.0382
813.00,0.0386
812.00,0.0387
811.00,0.0389
810.00,0.0390
809.00,0.0391
808.00,0.0393
807.00,0.0395
806.00,0.0398
805.00,0.0400
804.00,0.0401
803.00,0.0402
802.00,0.0405
801.00,0.0409
800.00,0.0413
799.00,0.0416
798.00,0.0419
797.00,0.0422
796.00,0.0424
795.00,0.0427
794.00,0.0431
793.00,0.0436
792.00,0.0441
791.00,0.0446
790.00,0.0450
789.00,0.0453
788.00,0.0457
787.00,0.0460
786.00,0.0465
785.00,0.0469
784.00,0.0473
783.00,0.0476
782.00,0.0480
781.00,0.0483
780.00,0.0486
779.00,0.0490
778.00,0.0493
777.00,0.0496
776.00,0.0497
775.00,0.0498
774.00,0.0499
773.00,0.0500
772.00,0.0500
771.00,0.0502
770.00,0.0504
769.00,0.0507
768.00,0.0509
767.00,0.0511
766.00,0.0513
765.00,0.0512
764.00,0.0511
763.00,0.0511
762.00,0.0513
761.00,0.0516
760.00,0.0520
759.00,0.0524
758.00,0.0528
757.00,0.0531
756.00,0.0533
755.00,0.0535
754.00,0.0537
753.00,0.0540
752.00,0.0542
751.00,0.0544
750.00,0.0547
749.00,0.0549
748.00,0.0552
747.00,0.0558
746.00,0.0566
745.00,0.0575
744.00,0.0581
743.00,0.0584
742.00,0.0585
741.00,0.0585
740.00,0.0586
739.00,0.0590
738.00,0.0596
737.00,0.0603
736.00,0.0608
735.00,0.0612
734.00,0.0616
733.00,0.0618
732.00,0.0621
731.00,0.0624
730.00,0.0629
729.00,0.0635
728.00,0.0641
727.00,0.0647
726.00,0.0655
725.00,0.0664
724.00,0.0673
723.00,0.0683
722.00,0.0693
721.00,0.0702
720.00,0.0708
719.00,0.0713
718.00,0.0717
717.00,0.0722
716.00,0.0727
715.00,0.0734
714.00,0.0743
713.00,0.0753
712.00,0.0761
711.00,0.0768
710.00,0.0773
709.00,0.0778
708.00,0.0781
707.00,0.0787
706.00,0.0796
705.00,0.0807
704.00,0.0819
703.00,0.0828
702.00,0.0836
701.00,0.0842
700.00,0.0845
699.00,0.0848
698.00,0.0849
697.00,0.0849
696.00,0.0846
695.00,0.0842
694.00,0.0839
693.00,0.0838
692.00,0.0838
691.00,0.0841
690.00,0.0844
689.00,0.0845
688.00,0.0844
687.00,0.0843
686.00,0.0842
685.00,0.0842
684.00,0.0844
683.00,0.0848
682.00,0.0853
681.00,0.0857
680.00,0.0859
679.00,0.0860
678.00,0.0861
677.00,0.0861
676.00,0.0859
675.00,0.0857
674.00,0.0857
673.00,0.0858
672.00,0.0860
671.00,0.0865
670.00,0.0872
669.00,0.0877
668.00,0.0878
667.00,0.0877
666.00,0.0876
665.00,0.0877
664.00,0.0878
663.00,0.0878
662.00,0.0879
661.00,0.0881
660.00,0.0884
659.00,0.0888
658.00,0.0893
657.00,0.0897
656.00,0.0898
655.00,0.0897
654.00,0.0895
653.00,0.0894
652.00,0.0894
651.00,0.0897
650.00,0.0903
649.00,0.0908
648.00,0.0912
647.00,0.0914
646.00,0.0918
645.00,0.0920
644.00,0.0921
643.00,0.0920
642.00,0.0918
641.00,0.0915
640.00,0.0914
639.00,0.0916
638.00,0.0921
637.00,0.0928
636.00,0.0933
635.00,0.0935
634.00,0.0937
633.00,0.0939
632.00,0.0941
631.00,0.0944
630.00,0.0948
629.00,0.0952
628.00,0.0956
627.00,0.0959
626.00,0.0964
625.00,0.0969
624.00,0.0972
623.00,0.0973
622.00,0.0972
621.00,0.0969
620.00,0.0964
619.00,0.0960
618.00,0.0960
617.00,0.0964
616.00,0.0967
615.00,0.0972
614.00,0.0974
613.00,0.0969
612.00,0.0950
611.00,0.0923
610.00,0.0907
609.00,0.0911
608.00,0.0932
607.00,0.0953
606.00,0.0966
605.00,0.0972
604.00,0.0977
603.00,0.0984
602.00,0.0989
601.00,0.0990
600.00,0.0985
599.00,0.0980
598.00,0.0978
597.00,0.0979
596.00,0.0985
595.00,0.0994
594.00,0.1004
593.00,0.1011
592.00,0.1015
591.00,0.1015
590.00,0.1010
589.00,0.1003
588.00,0.0996
587.00,0.0992
586.00,0.0994
585.00,0.0999
584.00,0.1005
583.00,0.1010
582.00,0.1015
581.00,0.1015
580.00,0.1013
579.00,0.1013
578.00,0.1015
577.00,0.1018
576.00,0.1019
575.00,0.1019
574.00,0.1017
573.00,0.1016
572.00,0.1021
571.00,0.1034
570.00,0.1052
569.00,0.1064
568.00,0.1066
567.00,0.1060
566.00,0.1053
565.00,0.1049
564.00,0.1050
563.00,0.1060
562.00,0.1077
561.00,0.1092
560.00,0.1101
559.00,0.1102
558.00,0.1103
557.00,0.1103
556.00,0.1103
555.00,0.1104
554.00,0.1103
553.00,0.1101
552.00,0.1097
551.00,0.1098
550.00,0.1107
549.00,0.1117
548.00,0.1123
547.00,0.1121
546.00,0.1112
545.00,0.1096
544.00,0.1078
543.00,0.1066
542.00,0.1068
541.00,0.1082
540.00,0.1102
539.00,0.1121
538.00,0.1135
537.00,0.1143
536.00,0.1143
535.00,0.1141
534.00,0.1141
533.00,0.1142
532.00,0.1144
531.00,0.1150
530.00,0.1160
529.00,0.1171
528.00,0.1179
527.00,0.1185
526.00,0.1192
525.00,0.1198
524.00,0.1202
523.00,0.1202
522.00,0.1197
521.00,0.1188
520.00,0.1176
519.00,0.1169
518.00,0.1173
517.00,0.1186
516.00,0.1204
515.00,0.1215
514.00,0.1213
513.00,0.1194
512.00,0.1165
511.00,0.1142
510.00,0.1138
509.00,0.1152
508.00,0.1174
507.00,0.1195
506.00,0.1208
505.00,0.1212
504.00,0.1210
503.00,0.1211
502.00,0.1217
501.00,0.1222
500.00,0.1220
499.00,0.1216
498.00,0.1212
497.00,0.1211
496.00,0.1217
495.00,0.1232
494.00,0.1251
493.00,0.1262
492.00,0.1255
491.00,0.1235
490.00,0.1214
489.00,0.1197
488.00,0.1190
487.00,0.1194
486.00,0.1209
485.00,0.1225
484.00,0.1237
483.00,0.1245
482.00,0.1247
481.00,0.1239
480.00,0.1221
479.00,0.1202
478.00,0.1193
477.00,0.1193
476.00,0.1196
475.00,0.1204
474.00,0.1216
473.00,0.1228
472.00,0.1236
471.00,0.1241
470.00,0.1245
469.00,0.1242
468.00,0.1227
467.00,0.1205
466.00,0.1186
465.00,0.1180
464.00,0.1192
463.00,0.1227
462.00,0.1277
461.00,0.1315
460.00,0.1319
459.00,0.1288
458.00,0.1239
457.00,0.1197
456.00,0.1177
455.00,0.1182
454.00,0.1204
453.00,0.1226
452.00,0.1236
451.00,0.1238
450.00,0.1238
449.00,0.1238
448.00,0.1233
447.00,0.1224
446.00,0.1210
445.00,0.1189
444.00,0.1165
443.00,0.1155
442.00,0.1172
441.00,0.1209
440.00,0.1246
439.00,0.1269
438.00,0.1268
437.00,0.1237
436.00,0.1182
435.00,0.1131
434.00,0.1106
433.00,0.1108
432.00,0.1129
431.00,0.1161
430.00,0.1197
429.00,0.1222
428.00,0.1229
427.00,0.1221
426.00,0.1202
425.00,0.1169
424.00,0.1131
423.00,0.1109
422.00,0.1111
421.00,0.1121
420.00,0.1125
419.00,0.1134
418.00,0.1164
417.00,0.1197
416.00,0.1213
415.00,0.1212
414.00,0.1190
413.00,0.1141
412.00,0.1078
411.00,0.1047
410.00,0.1083
409.00,0.1178
408.00,0.1298
407.00,0.1407
406.00,0.1456
405.00,0.1404
404.00,0.1262
403.00,0.1095
402.00,0.0972
401.00,0.0918
400.00,0.0928
