Created as New Dataset,Sample 1058 By YargerLab Date Monday, August 04 2025
cm-1,A
4000.00,0.0003
3999.00,0.0004
3998.00,0.0004
3997.00,0.0004
3996.00,0.0004
3995.00,0.0004
3994.00,0.0004
3993.00,0.0004
3992.00,0.0004
3991.00,0.0004
3990.00,0.0004
3989.00,0.0004
3988.00,0.0004
3987.00,0.0004
3986.00,0.0004
3985.00,0.0003
3984.00,0.0003
3983.00,0.0003
3982.00,0.0003
3981.00,0.0003
3980.00,0.0003
3979.00,0.0003
3978.00,0.0003
3977.00,0.0004
3976.00,0.0004
3975.00,0.0004
3974.00,0.0003
3973.00,0.0003
3972.00,0.0003
3971.00,0.0003
3970.00,0.0003
3969.00,0.0003
3968.00,0.0003
3967.00,0.0003
3966.00,0.0003
3965.00,0.0003
3964.00,0.0003
3963.00,0.0003
3962.00,0.0003
3961.00,0.0003
3960.00,0.0003
3959.00,0.0003
3958.00,0.0003
3957.00,0.0003
3956.00,0.0003
3955.00,0.0003
3954.00,0.0003
3953.00,0.0003
3952.00,0.0003
3951.00,0.0003
3950.00,0.0003
3949.00,0.0003
3948.00,0.0003
3947.00,0.0003
3946.00,0.0003
3945.00,0.0003
3944.00,0.0003
3943.00,0.0003
3942.00,0.0003
3941.00,0.0003
3940.00,0.0003
3939.00,0.0003
3938.00,0.0003
3937.00,0.0003
3936.00,0.0003
3935.00,0.0002
3934.00,0.0002
3933.00,0.0003
3932.00,0.0003
3931.00,0.0003
3930.00,0.0003
3929.00,0.0003
3928.00,0.0003
3927.00,0.0003
3926.00,0.0003
3925.00,0.0003
3924.00,0.0003
3923.00,0.0003
3922.00,0.0003
3921.00,0.0003
3920.00,0.0003
3919.00,0.0003
3918.00,0.0003
3917.00,0.0003
3916.00,0.0003
3915.00,0.0003
3914.00,0.0003
3913.00,0.0003
3912.00,0.0003
3911.00,0.0003
3910.00,0.0003
3909.00,0.0003
3908.00,0.0003
3907.00,0.0003
3906.00,0.0002
3905.00,0.0002
3904.00,0.0002
3903.00,0.0002
3902.00,0.0002
3901.00,0.0002
3900.00,0.0002
3899.00,0.0002
3898.00,0.0002
3897.00,0.0003
3896.00,0.0003
3895.00,0.0003
3894.00,0.0003
3893.00,0.0003
3892.00,0.0003
3891.00,0.0003
3890.00,0.0003
3889.00,0.0003
3888.00,0.0002
3887.00,0.0002
3886.00,0.0002
3885.00,0.0002
3884.00,0.0002
3883.00,0.0002
3882.00,0.0002
3881.00,0.0002
3880.00,0.0003
3879.00,0.0003
3878.00,0.0003
3877.00,0.0003
3876.00,0.0003
3875.00,0.0003
3874.00,0.0003
3873.00,0.0003
3872.00,0.0003
3871.00,0.0002
3870.00,0.0003
3869.00,0.0003
3868.00,0.0003
3867.00,0.0002
3866.00,0.0002
3865.00,0.0002
3864.00,0.0002
3863.00,0.0002
3862.00,0.0002
3861.00,0.0002
3860.00,0.0003
3859.00,0.0003
3858.00,0.0003
3857.00,0.0002
3856.00,0.0002
3855.00,0.0002
3854.00,0.0002
3853.00,0.0003
3852.00,0.0002
3851.00,0.0002
3850.00,0.0002
3849.00,0.0003
3848.00,0.0003
3847.00,0.0003
3846.00,0.0003
3845.00,0.0003
3844.00,0.0003
3843.00,0.0003
3842.00,0.0003
3841.00,0.0003
3840.00,0.0003
3839.00,0.0002
3838.00,0.0002
3837.00,0.0002
3836.00,0.0002
3835.00,0.0002
3834.00,0.0002
3833.00,0.0002
3832.00,0.0003
3831.00,0.0003
3830.00,0.0003
3829.00,0.0003
3828.00,0.0003
3827.00,0.0003
3826.00,0.0003
3825.00,0.0004
3824.00,0.0003
3823.00,0.0003
3822.00,0.0003
3821.00,0.0003
3820.00,0.0003
3819.00,0.0003
3818.00,0.0003
3817.00,0.0003
3816.00,0.0003
3815.00,0.0003
3814.00,0.0003
3813.00,0.0003
3812.00,0.0003
3811.00,0.0003
3810.00,0.0004
3809.00,0.0004
3808.00,0.0004
3807.00,0.0004
3806.00,0.0003
3805.00,0.0003
3804.00,0.0003
3803.00,0.0003
3802.00,0.0003
3801.00,0.0003
3800.00,0.0003
3799.00,0.0003
3798.00,0.0003
3797.00,0.0003
3796.00,0.0003
3795.00,0.0003
3794.00,0.0003
3793.00,0.0003
3792.00,0.0003
3791.00,0.0003
3790.00,0.0003
3789.00,0.0004
3788.00,0.0004
3787.00,0.0004
3786.00,0.0004
3785.00,0.0004
3784.00,0.0004
3783.00,0.0004
3782.00,0.0004
3781.00,0.0004
3780.00,0.0004
3779.00,0.0004
3778.00,0.0004
3777.00,0.0004
3776.00,0.0004
3775.00,0.0004
3774.00,0.0004
3773.00,0.0004
3772.00,0.0004
3771.00,0.0004
3770.00,0.0004
3769.00,0.0003
3768.00,0.0003
3767.00,0.0003
3766.00,0.0003
3765.00,0.0003
3764.00,0.0003
3763.00,0.0004
3762.00,0.0004
3761.00,0.0004
3760.00,0.0004
3759.00,0.0004
3758.00,0.0005
3757.00,0.0005
3756.00,0.0004
3755.00,0.0004
3754.00,0.0004
3753.00,0.0004
3752.00,0.0004
3751.00,0.0003
3750.00,0.0003
3749.00,0.0003
3748.00,0.0003
3747.00,0.0002
3746.00,0.0002
3745.00,0.0002
3744.00,0.0003
3743.00,0.0003
3742.00,0.0003
3741.00,0.0003
3740.00,0.0004
3739.00,0.0004
3738.00,0.0004
3737.00,0.0004
3736.00,0.0004
3735.00,0.0003
3734.00,0.0003
3733.00,0.0002
3732.00,0.0002
3731.00,0.0002
3730.00,0.0003
3729.00,0.0003
3728.00,0.0003
3727.00,0.0003
3726.00,0.0003
3725.00,0.0003
3724.00,0.0003
3723.00,0.0003
3722.00,0.0003
3721.00,0.0003
3720.00,0.0003
3719.00,0.0003
3718.00,0.0004
3717.00,0.0004
3716.00,0.0004
3715.00,0.0004
3714.00,0.0003
3713.00,0.0003
3712.00,0.0003
3711.00,0.0003
3710.00,0.0003
3709.00,0.0003
3708.00,0.0003
3707.00,0.0003
3706.00,0.0003
3705.00,0.0003
3704.00,0.0003
3703.00,0.0003
3702.00,0.0003
3701.00,0.0003
3700.00,0.0003
3699.00,0.0004
3698.00,0.0004
3697.00,0.0004
3696.00,0.0005
3695.00,0.0005
3694.00,0.0005
3693.00,0.0005
3692.00,0.0005
3691.00,0.0005
3690.00,0.0005
3689.00,0.0005
3688.00,0.0005
3687.00,0.0006
3686.00,0.0006
3685.00,0.0007
3684.00,0.0008
3683.00,0.0008
3682.00,0.0009
3681.00,0.0009
3680.00,0.0009
3679.00,0.0010
3678.00,0.0009
3677.00,0.0009
3676.00,0.0009
3675.00,0.0009
3674.00,0.0009
3673.00,0.0009
3672.00,0.0009
3671.00,0.0009
3670.00,0.0010
3669.00,0.0010
3668.00,0.0011
3667.00,0.0011
3666.00,0.0011
3665.00,0.0012
3664.00,0.0012
3663.00,0.0013
3662.00,0.0013
3661.00,0.0014
3660.00,0.0014
3659.00,0.0014
3658.00,0.0014
3657.00,0.0014
3656.00,0.0015
3655.00,0.0015
3654.00,0.0015
3653.00,0.0015
3652.00,0.0016
3651.00,0.0016
3650.00,0.0016
3649.00,0.0016
3648.00,0.0016
3647.00,0.0016
3646.00,0.0017
3645.00,0.0018
3644.00,0.0019
3643.00,0.0019
3642.00,0.0020
3641.00,0.0020
3640.00,0.0021
3639.00,0.0021
3638.00,0.0022
3637.00,0.0022
3636.00,0.0022
3635.00,0.0022
3634.00,0.0023
3633.00,0.0023
3632.00,0.0023
3631.00,0.0024
3630.00,0.0024
3629.00,0.0025
3628.00,0.0025
3627.00,0.0026
3626.00,0.0026
3625.00,0.0026
3624.00,0.0027
3623.00,0.0028
3622.00,0.0028
3621.00,0.0029
3620.00,0.0029
3619.00,0.0030
3618.00,0.0031
3617.00,0.0032
3616.00,0.0032
3615.00,0.0033
3614.00,0.0033
3613.00,0.0033
3612.00,0.0034
3611.00,0.0034
3610.00,0.0034
3609.00,0.0035
3608.00,0.0036
3607.00,0.0036
3606.00,0.0037
3605.00,0.0038
3604.00,0.0039
3603.00,0.0040
3602.00,0.0040
3601.00,0.0041
3600.00,0.0042
3599.00,0.0042
3598.00,0.0043
3597.00,0.0043
3596.00,0.0044
3595.00,0.0044
3594.00,0.0045
3593.00,0.0046
3592.00,0.0046
3591.00,0.0047
3590.00,0.0048
3589.00,0.0049
3588.00,0.0049
3587.00,0.0050
3586.00,0.0051
3585.00,0.0052
3584.00,0.0052
3583.00,0.0053
3582.00,0.0054
3581.00,0.0055
3580.00,0.0056
3579.00,0.0057
3578.00,0.0058
3577.00,0.0058
3576.00,0.0059
3575.00,0.0060
3574.00,0.0061
3573.00,0.0062
3572.00,0.0063
3571.00,0.0064
3570.00,0.0065
3569.00,0.0065
3568.00,0.0066
3567.00,0.0067
3566.00,0.0068
3565.00,0.0069
3564.00,0.0070
3563.00,0.0071
3562.00,0.0072
3561.00,0.0073
3560.00,0.0073
3559.00,0.0074
3558.00,0.0075
3557.00,0.0075
3556.00,0.0076
3555.00,0.0077
3554.00,0.0078
3553.00,0.0079
3552.00,0.0080
3551.00,0.0081
3550.00,0.0082
3549.00,0.0082
3548.00,0.0083
3547.00,0.0084
3546.00,0.0084
3545.00,0.0085
3544.00,0.0085
3543.00,0.0086
3542.00,0.0087
3541.00,0.0088
3540.00,0.0088
3539.00,0.0089
3538.00,0.0090
3537.00,0.0091
3536.00,0.0091
3535.00,0.0092
3534.00,0.0092
3533.00,0.0093
3532.00,0.0093
3531.00,0.0094
3530.00,0.0094
3529.00,0.0095
3528.00,0.0096
3527.00,0.0097
3526.00,0.0097
3525.00,0.0098
3524.00,0.0098
3523.00,0.0099
3522.00,0.0100
3521.00,0.0100
3520.00,0.0101
3519.00,0.0101
3518.00,0.0102
3517.00,0.0102
3516.00,0.0103
3515.00,0.0103
3514.00,0.0104
3513.00,0.0104
3512.00,0.0105
3511.00,0.0105
3510.00,0.0106
3509.00,0.0106
3508.00,0.0107
3507.00,0.0107
3506.00,0.0108
3505.00,0.0108
3504.00,0.0109
3503.00,0.0109
3502.00,0.0110
3501.00,0.0110
3500.00,0.0111
3499.00,0.0111
3498.00,0.0112
3497.00,0.0113
3496.00,0.0113
3495.00,0.0114
3494.00,0.0114
3493.00,0.0114
3492.00,0.0115
3491.00,0.0115
3490.00,0.0115
3489.00,0.0116
3488.00,0.0116
3487.00,0.0117
3486.00,0.0117
3485.00,0.0117
3484.00,0.0118
3483.00,0.0118
3482.00,0.0118
3481.00,0.0119
3480.00,0.0119
3479.00,0.0120
3478.00,0.0120
3477.00,0.0120
3476.00,0.0121
3475.00,0.0121
3474.00,0.0121
3473.00,0.0122
3472.00,0.0122
3471.00,0.0122
3470.00,0.0123
3469.00,0.0123
3468.00,0.0124
3467.00,0.0124
3466.00,0.0124
3465.00,0.0124
3464.00,0.0124
3463.00,0.0124
3462.00,0.0125
3461.00,0.0125
3460.00,0.0125
3459.00,0.0126
3458.00,0.0126
3457.00,0.0127
3456.00,0.0127
3455.00,0.0127
3454.00,0.0127
3453.00,0.0127
3452.00,0.0128
3451.00,0.0128
3450.00,0.0128
3449.00,0.0128
3448.00,0.0128
3447.00,0.0128
3446.00,0.0128
3445.00,0.0128
3444.00,0.0129
3443.00,0.0129
3442.00,0.0129
3441.00,0.0129
3440.00,0.0129
3439.00,0.0130
3438.00,0.0130
3437.00,0.0130
3436.00,0.0130
3435.00,0.0130
3434.00,0.0130
3433.00,0.0130
3432.00,0.0131
3431.00,0.0131
3430.00,0.0131
3429.00,0.0131
3428.00,0.0131
3427.00,0.0131
3426.00,0.0131
3425.00,0.0131
3424.00,0.0131
3423.00,0.0131
3422.00,0.0131
3421.00,0.0131
3420.00,0.0131
3419.00,0.0131
3418.00,0.0131
3417.00,0.0131
3416.00,0.0131
3415.00,0.0132
3414.00,0.0132
3413.00,0.0132
3412.00,0.0131
3411.00,0.0131
3410.00,0.0131
3409.00,0.0131
3408.00,0.0131
3407.00,0.0131
3406.00,0.0131
3405.00,0.0131
3404.00,0.0131
3403.00,0.0131
3402.00,0.0131
3401.00,0.0131
3400.00,0.0131
3399.00,0.0131
3398.00,0.0131
3397.00,0.0131
3396.00,0.0131
3395.00,0.0131
3394.00,0.0130
3393.00,0.0130
3392.00,0.0130
3391.00,0.0130
3390.00,0.0130
3389.00,0.0130
3388.00,0.0130
3387.00,0.0130
3386.00,0.0130
3385.00,0.0130
3384.00,0.0129
3383.00,0.0129
3382.00,0.0129
3381.00,0.0129
3380.00,0.0128
3379.00,0.0128
3378.00,0.0128
3377.00,0.0128
3376.00,0.0128
3375.00,0.0128
3374.00,0.0128
3373.00,0.0128
3372.00,0.0127
3371.00,0.0127
3370.00,0.0126
3369.00,0.0126
3368.00,0.0126
3367.00,0.0126
3366.00,0.0126
3365.00,0.0126
3364.00,0.0126
3363.00,0.0125
3362.00,0.0125
3361.00,0.0125
3360.00,0.0125
3359.00,0.0125
3358.00,0.0125
3357.00,0.0125
3356.00,0.0125
3355.00,0.0125
3354.00,0.0125
3353.00,0.0124
3352.00,0.0124
3351.00,0.0123
3350.00,0.0123
3349.00,0.0123
3348.00,0.0124
3347.00,0.0124
3346.00,0.0123
3345.00,0.0123
3344.00,0.0123
3343.00,0.0122
3342.00,0.0122
3341.00,0.0122
3340.00,0.0121
3339.00,0.0121
3338.00,0.0120
3337.00,0.0120
3336.00,0.0121
3335.00,0.0121
3334.00,0.0121
3333.00,0.0121
3332.00,0.0121
3331.00,0.0121
3330.00,0.0121
3329.00,0.0120
3328.00,0.0120
3327.00,0.0120
3326.00,0.0119
3325.00,0.0119
3324.00,0.0120
3323.00,0.0120
3322.00,0.0121
3321.00,0.0121
3320.00,0.0121
3319.00,0.0121
3318.00,0.0121
3317.00,0.0121
3316.00,0.0121
3315.00,0.0121
3314.00,0.0121
3313.00,0.0120
3312.00,0.0120
3311.00,0.0119
3310.00,0.0118
3309.00,0.0117
3308.00,0.0117
3307.00,0.0117
3306.00,0.0117
3305.00,0.0117
3304.00,0.0118
3303.00,0.0119
3302.00,0.0120
3301.00,0.0120
3300.00,0.0120
3299.00,0.0120
3298.00,0.0120
3297.00,0.0119
3296.00,0.0119
3295.00,0.0118
3294.00,0.0118
3293.00,0.0118
3292.00,0.0118
3291.00,0.0119
3290.00,0.0120
3289.00,0.0120
3288.00,0.0121
3287.00,0.0121
3286.00,0.0120
3285.00,0.0120
3284.00,0.0120
3283.00,0.0120
3282.00,0.0120
3281.00,0.0120
3280.00,0.0119
3279.00,0.0119
3278.00,0.0119
3277.00,0.0119
3276.00,0.0118
3275.00,0.0118
3274.00,0.0117
3273.00,0.0117
3272.00,0.0117
3271.00,0.0117
3270.00,0.0117
3269.00,0.0117
3268.00,0.0117
3267.00,0.0117
3266.00,0.0117
3265.00,0.0117
3264.00,0.0117
3263.00,0.0117
3262.00,0.0116
3261.00,0.0116
3260.00,0.0116
3259.00,0.0115
3258.00,0.0115
3257.00,0.0115
3256.00,0.0114
3255.00,0.0114
3254.00,0.0114
3253.00,0.0114
3252.00,0.0114
3251.00,0.0114
3250.00,0.0114
3249.00,0.0113
3248.00,0.0113
3247.00,0.0113
3246.00,0.0113
3245.00,0.0113
3244.00,0.0113
3243.00,0.0113
3242.00,0.0113
3241.00,0.0112
3240.00,0.0112
3239.00,0.0112
3238.00,0.0112
3237.00,0.0111
3236.00,0.0111
3235.00,0.0110
3234.00,0.0110
3233.00,0.0109
3232.00,0.0109
3231.00,0.0109
3230.00,0.0109
3229.00,0.0109
3228.00,0.0109
3227.00,0.0109
3226.00,0.0108
3225.00,0.0108
3224.00,0.0108
3223.00,0.0108
3222.00,0.0108
3221.00,0.0107
3220.00,0.0107
3219.00,0.0106
3218.00,0.0106
3217.00,0.0106
3216.00,0.0106
3215.00,0.0106
3214.00,0.0105
3213.00,0.0105
3212.00,0.0105
3211.00,0.0104
3210.00,0.0104
3209.00,0.0104
3208.00,0.0104
3207.00,0.0103
3206.00,0.0103
3205.00,0.0102
3204.00,0.0102
3203.00,0.0101
3202.00,0.0101
3201.00,0.0100
3200.00,0.0100
3199.00,0.0100
3198.00,0.0099
3197.00,0.0099
3196.00,0.0098
3195.00,0.0098
3194.00,0.0098
3193.00,0.0098
3192.00,0.0098
3191.00,0.0098
3190.00,0.0097
3189.00,0.0097
3188.00,0.0097
3187.00,0.0096
3186.00,0.0096
3185.00,0.0095
3184.00,0.0095
3183.00,0.0095
3182.00,0.0094
3181.00,0.0094
3180.00,0.0094
3179.00,0.0094
3178.00,0.0094
3177.00,0.0093
3176.00,0.0093
3175.00,0.0093
3174.00,0.0093
3173.00,0.0092
3172.00,0.0092
3171.00,0.0092
3170.00,0.0091
3169.00,0.0091
3168.00,0.0091
3167.00,0.0091
3166.00,0.0090
3165.00,0.0090
3164.00,0.0089
3163.00,0.0089
3162.00,0.0089
3161.00,0.0089
3160.00,0.0089
3159.00,0.0088
3158.00,0.0088
3157.00,0.0087
3156.00,0.0087
3155.00,0.0087
3154.00,0.0086
3153.00,0.0086
3152.00,0.0086
3151.00,0.0086
3150.00,0.0085
3149.00,0.0085
3148.00,0.0085
3147.00,0.0084
3146.00,0.0084
3145.00,0.0084
3144.00,0.0084
3143.00,0.0083
3142.00,0.0083
3141.00,0.0083
3140.00,0.0083
3139.00,0.0082
3138.00,0.0082
3137.00,0.0082
3136.00,0.0081
3135.00,0.0081
3134.00,0.0081
3133.00,0.0081
3132.00,0.0080
3131.00,0.0080
3130.00,0.0080
3129.00,0.0079
3128.00,0.0079
3127.00,0.0079
3126.00,0.0079
3125.00,0.0079
3124.00,0.0079
3123.00,0.0079
3122.00,0.0079
3121.00,0.0078
3120.00,0.0078
3119.00,0.0078
3118.00,0.0078
3117.00,0.0078
3116.00,0.0077
3115.00,0.0077
3114.00,0.0077
3113.00,0.0077
3112.00,0.0077
3111.00,0.0076
3110.00,0.0076
3109.00,0.0076
3108.00,0.0075
3107.00,0.0075
3106.00,0.0075
3105.00,0.0074
3104.00,0.0074
3103.00,0.0074
3102.00,0.0073
3101.00,0.0073
3100.00,0.0073
3099.00,0.0073
3098.00,0.0072
3097.00,0.0072
3096.00,0.0072
3095.00,0.0072
3094.00,0.0072
3093.00,0.0072
3092.00,0.0072
3091.00,0.0072
3090.00,0.0072
3089.00,0.0072
3088.00,0.0072
3087.00,0.0072
3086.00,0.0071
3085.00,0.0071
3084.00,0.0071
3083.00,0.0071
3082.00,0.0071
3081.00,0.0071
3080.00,0.0071
3079.00,0.0071
3078.00,0.0071
3077.00,0.0071
3076.00,0.0071
3075.00,0.0070
3074.00,0.0070
3073.00,0.0070
3072.00,0.0070
3071.00,0.0070
3070.00,0.0069
3069.00,0.0069
3068.00,0.0069
3067.00,0.0068
3066.00,0.0068
3065.00,0.0068
3064.00,0.0067
3063.00,0.0067
3062.00,0.0067
3061.00,0.0067
3060.00,0.0066
3059.00,0.0066
3058.00,0.0066
3057.00,0.0065
3056.00,0.0065
3055.00,0.0065
3054.00,0.0065
3053.00,0.0065
3052.00,0.0065
3051.00,0.0065
3050.00,0.0065
3049.00,0.0065
3048.00,0.0064
3047.00,0.0064
3046.00,0.0064
3045.00,0.0064
3044.00,0.0064
3043.00,0.0064
3042.00,0.0063
3041.00,0.0063
3040.00,0.0063
3039.00,0.0063
3038.00,0.0063
3037.00,0.0063
3036.00,0.0063
3035.00,0.0063
3034.00,0.0063
3033.00,0.0063
3032.00,0.0063
3031.00,0.0062
3030.00,0.0062
3029.00,0.0062
3028.00,0.0062
3027.00,0.0061
3026.00,0.0061
3025.00,0.0061
3024.00,0.0061
3023.00,0.0061
3022.00,0.0061
3021.00,0.0061
3020.00,0.0062
3019.00,0.0062
3018.00,0.0062
3017.00,0.0063
3016.00,0.0063
3015.00,0.0064
3014.00,0.0064
3013.00,0.0065
3012.00,0.0065
3011.00,0.0066
3010.00,0.0067
3009.00,0.0068
3008.00,0.0070
3007.00,0.0071
3006.00,0.0073
3005.00,0.0075
3004.00,0.0077
3003.00,0.0079
3002.00,0.0082
3001.00,0.0084
3000.00,0.0086
2999.00,0.0089
2998.00,0.0092
2997.00,0.0095
2996.00,0.0098
2995.00,0.0102
2994.00,0.0105
2993.00,0.0108
2992.00,0.0112
2991.00,0.0115
2990.00,0.0119
2989.00,0.0123
2988.00,0.0126
2987.00,0.0129
2986.00,0.0133
2985.00,0.0137
2984.00,0.0140
2983.00,0.0143
2982.00,0.0146
2981.00,0.0149
2980.00,0.0151
2979.00,0.0153
2978.00,0.0154
2977.00,0.0155
2976.00,0.0157
2975.00,0.0158
2974.00,0.0160
2973.00,0.0161
2972.00,0.0163
2971.00,0.0165
2970.00,0.0167
2969.00,0.0169
2968.00,0.0171
2967.00,0.0173
2966.00,0.0176
2965.00,0.0179
2964.00,0.0181
2963.00,0.0184
2962.00,0.0186
2961.00,0.0188
2960.00,0.0190
2959.00,0.0191
2958.00,0.0193
2957.00,0.0194
2956.00,0.0196
2955.00,0.0197
2954.00,0.0198
2953.00,0.0198
2952.00,0.0198
2951.00,0.0198
2950.00,0.0197
2949.00,0.0197
2948.00,0.0196
2947.00,0.0195
2946.00,0.0194
2945.00,0.0194
2944.00,0.0193
2943.00,0.0193
2942.00,0.0194
2941.00,0.0194
2940.00,0.0195
2939.00,0.0196
2938.00,0.0197
2937.00,0.0199
2936.00,0.0200
2935.00,0.0202
2934.00,0.0204
2933.00,0.0206
2932.00,0.0208
2931.00,0.0210
2930.00,0.0211
2929.00,0.0212
2928.00,0.0213
2927.00,0.0213
2926.00,0.0213
2925.00,0.0212
2924.00,0.0211
2923.00,0.0210
2922.00,0.0208
2921.00,0.0206
2920.00,0.0203
2919.00,0.0200
2918.00,0.0197
2917.00,0.0194
2916.00,0.0191
2915.00,0.0188
2914.00,0.0184
2913.00,0.0181
2912.00,0.0178
2911.00,0.0174
2910.00,0.0171
2909.00,0.0168
2908.00,0.0165
2907.00,0.0162
2906.00,0.0160
2905.00,0.0157
2904.00,0.0156
2903.00,0.0154
2902.00,0.0153
2901.00,0.0152
2900.00,0.0152
2899.00,0.0151
2898.00,0.0151
2897.00,0.0150
2896.00,0.0150
2895.00,0.0150
2894.00,0.0149
2893.00,0.0149
2892.00,0.0149
2891.00,0.0149
2890.00,0.0149
2889.00,0.0148
2888.00,0.0148
2887.00,0.0148
2886.00,0.0148
2885.00,0.0147
2884.00,0.0147
2883.00,0.0147
2882.00,0.0147
2881.00,0.0147
2880.00,0.0147
2879.00,0.0148
2878.00,0.0148
2877.00,0.0149
2876.00,0.0149
2875.00,0.0150
2874.00,0.0151
2873.00,0.0151
2872.00,0.0152
2871.00,0.0152
2870.00,0.0152
2869.00,0.0152
2868.00,0.0151
2867.00,0.0151
2866.00,0.0150
2865.00,0.0150
2864.00,0.0149
2863.00,0.0149
2862.00,0.0149
2861.00,0.0149
2860.00,0.0149
2859.00,0.0149
2858.00,0.0148
2857.00,0.0146
2856.00,0.0144
2855.00,0.0142
2854.00,0.0138
2853.00,0.0135
2852.00,0.0131
2851.00,0.0127
2850.00,0.0122
2849.00,0.0118
2848.00,0.0113
2847.00,0.0109
2846.00,0.0105
2845.00,0.0101
2844.00,0.0098
2843.00,0.0094
2842.00,0.0091
2841.00,0.0088
2840.00,0.0084
2839.00,0.0081
2838.00,0.0079
2837.00,0.0077
2836.00,0.0075
2835.00,0.0073
2834.00,0.0071
2833.00,0.0069
2832.00,0.0068
2831.00,0.0066
2830.00,0.0064
2829.00,0.0062
2828.00,0.0061
2827.00,0.0060
2826.00,0.0058
2825.00,0.0057
2824.00,0.0056
2823.00,0.0055
2822.00,0.0053
2821.00,0.0052
2820.00,0.0051
2819.00,0.0050
2818.00,0.0049
2817.00,0.0048
2816.00,0.0047
2815.00,0.0047
2814.00,0.0046
2813.00,0.0045
2812.00,0.0045
2811.00,0.0044
2810.00,0.0043
2809.00,0.0043
2808.00,0.0043
2807.00,0.0042
2806.00,0.0042
2805.00,0.0041
2804.00,0.0041
2803.00,0.0040
2802.00,0.0040
2801.00,0.0040
2800.00,0.0039
2799.00,0.0039
2798.00,0.0039
2797.00,0.0038
2796.00,0.0038
2795.00,0.0038
2794.00,0.0038
2793.00,0.0037
2792.00,0.0037
2791.00,0.0037
2790.00,0.0036
2789.00,0.0036
2788.00,0.0036
2787.00,0.0036
2786.00,0.0035
2785.00,0.0035
2784.00,0.0035
2783.00,0.0035
2782.00,0.0035
2781.00,0.0035
2780.00,0.0035
2779.00,0.0035
2778.00,0.0034
2777.00,0.0034
2776.00,0.0034
2775.00,0.0034
2774.00,0.0033
2773.00,0.0033
2772.00,0.0033
2771.00,0.0033
2770.00,0.0033
2769.00,0.0033
2768.00,0.0033
2767.00,0.0032
2766.00,0.0032
2765.00,0.0032
2764.00,0.0032
2763.00,0.0032
2762.00,0.0032
2761.00,0.0032
2760.00,0.0032
2759.00,0.0032
2758.00,0.0032
2757.00,0.0032
2756.00,0.0032
2755.00,0.0033
2754.00,0.0033
2753.00,0.0033
2752.00,0.0032
2751.00,0.0032
2750.00,0.0032
2749.00,0.0032
2748.00,0.0032
2747.00,0.0032
2746.00,0.0032
2745.00,0.0033
2744.00,0.0033
2743.00,0.0033
2742.00,0.0033
2741.00,0.0033
2740.00,0.0033
2739.00,0.0033
2738.00,0.0033
2737.00,0.0033
2736.00,0.0033
2735.00,0.0033
2734.00,0.0033
2733.00,0.0033
2732.00,0.0033
2731.00,0.0033
2730.00,0.0033
2729.00,0.0033
2728.00,0.0032
2727.00,0.0032
2726.00,0.0032
2725.00,0.0032
2724.00,0.0032
2723.00,0.0031
2722.00,0.0031
2721.00,0.0031
2720.00,0.0031
2719.00,0.0031
2718.00,0.0031
2717.00,0.0031
2716.00,0.0031
2715.00,0.0031
2714.00,0.0031
2713.00,0.0030
2712.00,0.0030
2711.00,0.0030
2710.00,0.0030
2709.00,0.0030
2708.00,0.0030
2707.00,0.0029
2706.00,0.0029
2705.00,0.0029
2704.00,0.0029
2703.00,0.0029
2702.00,0.0029
2701.00,0.0029
2700.00,0.0029
2699.00,0.0029
2698.00,0.0028
2697.00,0.0028
2696.00,0.0028
2695.00,0.0027
2694.00,0.0027
2693.00,0.0027
2692.00,0.0027
2691.00,0.0027
2690.00,0.0027
2689.00,0.0027
2688.00,0.0026
2687.00,0.0026
2686.00,0.0026
2685.00,0.0026
2684.00,0.0026
2683.00,0.0026
2682.00,0.0026
2681.00,0.0026
2680.00,0.0026
2679.00,0.0026
2678.00,0.0026
2677.00,0.0026
2676.00,0.0026
2675.00,0.0026
2674.00,0.0026
2673.00,0.0026
2672.00,0.0026
2671.00,0.0025
2670.00,0.0025
2669.00,0.0025
2668.00,0.0026
2667.00,0.0026
2666.00,0.0026
2665.00,0.0027
2664.00,0.0027
2663.00,0.0028
2662.00,0.0028
2661.00,0.0028
2660.00,0.0029
2659.00,0.0029
2658.00,0.0029
2657.00,0.0029
2656.00,0.0029
2655.00,0.0029
2654.00,0.0029
2653.00,0.0029
2652.00,0.0029
2651.00,0.0029
2650.00,0.0029
2649.00,0.0028
2648.00,0.0028
2647.00,0.0028
2646.00,0.0028
2645.00,0.0028
2644.00,0.0028
2643.00,0.0028
2642.00,0.0028
2641.00,0.0028
2640.00,0.0028
2639.00,0.0028
2638.00,0.0028
2637.00,0.0028
2636.00,0.0028
2635.00,0.0028
2634.00,0.0027
2633.00,0.0027
2632.00,0.0027
2631.00,0.0027
2630.00,0.0027
2629.00,0.0027
2628.00,0.0027
2627.00,0.0026
2626.00,0.0026
2625.00,0.0026
2624.00,0.0026
2623.00,0.0026
2622.00,0.0026
2621.00,0.0026
2620.00,0.0026
2619.00,0.0025
2618.00,0.0025
2617.00,0.0025
2616.00,0.0025
2615.00,0.0024
2614.00,0.0024
2613.00,0.0025
2612.00,0.0025
2611.00,0.0025
2610.00,0.0024
2609.00,0.0024
2608.00,0.0024
2607.00,0.0023
2606.00,0.0023
2605.00,0.0023
2604.00,0.0024
2603.00,0.0024
2602.00,0.0024
2601.00,0.0024
2600.00,0.0024
2599.00,0.0024
2598.00,0.0023
2597.00,0.0023
2596.00,0.0023
2595.00,0.0023
2594.00,0.0022
2593.00,0.0022
2592.00,0.0022
2591.00,0.0022
2590.00,0.0022
2589.00,0.0022
2588.00,0.0022
2587.00,0.0022
2586.00,0.0022
2585.00,0.0022
2584.00,0.0022
2583.00,0.0022
2582.00,0.0022
2581.00,0.0021
2580.00,0.0021
2579.00,0.0021
2578.00,0.0021
2577.00,0.0021
2576.00,0.0021
2575.00,0.0021
2574.00,0.0021
2573.00,0.0021
2572.00,0.0021
2571.00,0.0020
2570.00,0.0020
2569.00,0.0020
2568.00,0.0020
2567.00,0.0020
2566.00,0.0019
2565.00,0.0019
2564.00,0.0019
2563.00,0.0019
2562.00,0.0019
2561.00,0.0018
2560.00,0.0018
2559.00,0.0018
2558.00,0.0017
2557.00,0.0017
2556.00,0.0017
2555.00,0.0017
2554.00,0.0017
2553.00,0.0018
2552.00,0.0018
2551.00,0.0017
2550.00,0.0017
2549.00,0.0017
2548.00,0.0017
2547.00,0.0017
2546.00,0.0017
2545.00,0.0016
2544.00,0.0016
2543.00,0.0016
2542.00,0.0016
2541.00,0.0016
2540.00,0.0016
2539.00,0.0016
2538.00,0.0016
2537.00,0.0016
2536.00,0.0016
2535.00,0.0015
2534.00,0.0015
2533.00,0.0015
2532.00,0.0015
2531.00,0.0015
2530.00,0.0015
2529.00,0.0015
2528.00,0.0014
2527.00,0.0014
2526.00,0.0014
2525.00,0.0014
2524.00,0.0014
2523.00,0.0014
2522.00,0.0013
2521.00,0.0013
2520.00,0.0013
2519.00,0.0013
2518.00,0.0013
2517.00,0.0012
2516.00,0.0012
2515.00,0.0012
2514.00,0.0012
2513.00,0.0012
2512.00,0.0012
2511.00,0.0013
2510.00,0.0013
2509.00,0.0013
2508.00,0.0012
2507.00,0.0012
2506.00,0.0012
2505.00,0.0012
2504.00,0.0012
2503.00,0.0012
2502.00,0.0012
2501.00,0.0012
2500.00,0.0012
2499.00,0.0012
2498.00,0.0012
2497.00,0.0011
2496.00,0.0011
2495.00,0.0011
2494.00,0.0011
2493.00,0.0011
2492.00,0.0011
2491.00,0.0011
2490.00,0.0011
2489.00,0.0011
2488.00,0.0010
2487.00,0.0010
2486.00,0.0010
2485.00,0.0010
2484.00,0.0010
2483.00,0.0011
2482.00,0.0011
2481.00,0.0011
2480.00,0.0010
2479.00,0.0010
2478.00,0.0010
2477.00,0.0010
2476.00,0.0009
2475.00,0.0009
2474.00,0.0009
2473.00,0.0009
2472.00,0.0010
2471.00,0.0010
2470.00,0.0010
2469.00,0.0010
2468.00,0.0010
2467.00,0.0011
2466.00,0.0011
2465.00,0.0011
2464.00,0.0011
2463.00,0.0011
2462.00,0.0011
2461.00,0.0011
2460.00,0.0011
2459.00,0.0011
2458.00,0.0011
2457.00,0.0012
2456.00,0.0011
2455.00,0.0011
2454.00,0.0011
2453.00,0.0010
2452.00,0.0010
2451.00,0.0010
2450.00,0.0010
2449.00,0.0010
2448.00,0.0010
2447.00,0.0011
2446.00,0.0011
2445.00,0.0011
2444.00,0.0011
2443.00,0.0011
2442.00,0.0010
2441.00,0.0010
2440.00,0.0010
2439.00,0.0009
2438.00,0.0009
2437.00,0.0009
2436.00,0.0009
2435.00,0.0009
2434.00,0.0009
2433.00,0.0009
2432.00,0.0009
2431.00,0.0009
2430.00,0.0009
2429.00,0.0008
2428.00,0.0009
2427.00,0.0009
2426.00,0.0009
2425.00,0.0009
2424.00,0.0009
2423.00,0.0008
2422.00,0.0008
2421.00,0.0008
2420.00,0.0008
2419.00,0.0008
2418.00,0.0008
2417.00,0.0008
2416.00,0.0008
2415.00,0.0008
2414.00,0.0008
2413.00,0.0008
2412.00,0.0008
2411.00,0.0008
2410.00,0.0008
2409.00,0.0007
2408.00,0.0007
2407.00,0.0007
2406.00,0.0007
2405.00,0.0007
2404.00,0.0007
2403.00,0.0007
2402.00,0.0007
2401.00,0.0006
2400.00,0.0006
2399.00,0.0006
2398.00,0.0006
2397.00,0.0006
2396.00,0.0005
2395.00,0.0005
2394.00,0.0005
2393.00,0.0005
2392.00,0.0005
2391.00,0.0005
2390.00,0.0005
2389.00,0.0005
2388.00,0.0005
2387.00,0.0004
2386.00,0.0004
2385.00,0.0003
2384.00,0.0003
2383.00,0.0002
2382.00,0.0002
2381.00,0.0001
2380.00,0.0001
2379.00,0.0002
2378.00,0.0002
2377.00,0.0002
2376.00,0.0003
2375.00,0.0003
2374.00,0.0002
2373.00,0.0002
2372.00,0.0002
2371.00,0.0002
2370.00,0.0001
2369.00,0.0002
2368.00,0.0002
2367.00,0.0002
2366.00,0.0003
2365.00,0.0003
2364.00,0.0003
2363.00,0.0003
2362.00,0.0003
2361.00,0.0003
2360.00,0.0003
2359.00,0.0003
2358.00,0.0004
2357.00,0.0004
2356.00,0.0004
2355.00,0.0005
2354.00,0.0004
2353.00,0.0004
2352.00,0.0004
2351.00,0.0004
2350.00,0.0005
2349.00,0.0006
2348.00,0.0006
2347.00,0.0006
2346.00,0.0007
2345.00,0.0007
2344.00,0.0007
2343.00,0.0008
2342.00,0.0008
2341.00,0.0008
2340.00,0.0008
2339.00,0.0008
2338.00,0.0009
2337.00,0.0009
2336.00,0.0009
2335.00,0.0010
2334.00,0.0009
2333.00,0.0009
2332.00,0.0008
2331.00,0.0008
2330.00,0.0008
2329.00,0.0010
2328.00,0.0013
2327.00,0.0018
2326.00,0.0021
2325.00,0.0023
2324.00,0.0022
2323.00,0.0020
2322.00,0.0017
2321.00,0.0016
2320.00,0.0015
2319.00,0.0014
2318.00,0.0014
2317.00,0.0013
2316.00,0.0013
2315.00,0.0013
2314.00,0.0012
2313.00,0.0011
2312.00,0.0010
2311.00,0.0010
2310.00,0.0009
2309.00,0.0010
2308.00,0.0010
2307.00,0.0011
2306.00,0.0011
2305.00,0.0011
2304.00,0.0012
2303.00,0.0012
2302.00,0.0012
2301.00,0.0012
2300.00,0.0012
2299.00,0.0013
2298.00,0.0013
2297.00,0.0014
2296.00,0.0015
2295.00,0.0015
2294.00,0.0016
2293.00,0.0018
2292.00,0.0019
2291.00,0.0019
2290.00,0.0020
2289.00,0.0020
2288.00,0.0021
2287.00,0.0021
2286.00,0.0021
2285.00,0.0020
2284.00,0.0019
2283.00,0.0018
2282.00,0.0018
2281.00,0.0017
2280.00,0.0017
2279.00,0.0017
2278.00,0.0016
2277.00,0.0016
2276.00,0.0016
2275.00,0.0016
2274.00,0.0015
2273.00,0.0015
2272.00,0.0015
2271.00,0.0015
2270.00,0.0014
2269.00,0.0013
2268.00,0.0012
2267.00,0.0012
2266.00,0.0012
2265.00,0.0012
2264.00,0.0013
2263.00,0.0013
2262.00,0.0013
2261.00,0.0013
2260.00,0.0013
2259.00,0.0013
2258.00,0.0013
2257.00,0.0013
2256.00,0.0012
2255.00,0.0012
2254.00,0.0012
2253.00,0.0012
2252.00,0.0012
2251.00,0.0013
2250.00,0.0013
2249.00,0.0013
2248.00,0.0013
2247.00,0.0013
2246.00,0.0013
2245.00,0.0013
2244.00,0.0014
2243.00,0.0013
2242.00,0.0013
2241.00,0.0013
2240.00,0.0013
2239.00,0.0013
2238.00,0.0013
2237.00,0.0013
2236.00,0.0013
2235.00,0.0013
2234.00,0.0013
2233.00,0.0012
2232.00,0.0013
2231.00,0.0013
2230.00,0.0013
2229.00,0.0013
2228.00,0.0013
2227.00,0.0012
2226.00,0.0012
2225.00,0.0013
2224.00,0.0013
2223.00,0.0014
2222.00,0.0013
2221.00,0.0013
2220.00,0.0012
2219.00,0.0012
2218.00,0.0012
2217.00,0.0012
2216.00,0.0013
2215.00,0.0013
2214.00,0.0012
2213.00,0.0011
2212.00,0.0011
2211.00,0.0012
2210.00,0.0012
2209.00,0.0012
2208.00,0.0013
2207.00,0.0013
2206.00,0.0012
2205.00,0.0012
2204.00,0.0012
2203.00,0.0011
2202.00,0.0010
2201.00,0.0010
2200.00,0.0010
2199.00,0.0011
2198.00,0.0012
2197.00,0.0013
2196.00,0.0014
2195.00,0.0015
2194.00,0.0015
2193.00,0.0015
2192.00,0.0015
2191.00,0.0016
2190.00,0.0017
2189.00,0.0018
2188.00,0.0019
2187.00,0.0018
2186.00,0.0017
2185.00,0.0015
2184.00,0.0013
2183.00,0.0010
2182.00,0.0008
2181.00,0.0007
2180.00,0.0008
2179.00,0.0010
2178.00,0.0010
2177.00,0.0009
2176.00,0.0008
2175.00,0.0009
2174.00,0.0010
2173.00,0.0012
2172.00,0.0014
2171.00,0.0017
2170.00,0.0019
2169.00,0.0021
2168.00,0.0023
2167.00,0.0025
2166.00,0.0026
2165.00,0.0027
2164.00,0.0028
2163.00,0.0027
2162.00,0.0021
2161.00,0.0008
2160.00,-0.0006
2159.00,-0.0018
2158.00,-0.0024
2157.00,-0.0023
2156.00,-0.0020
2155.00,-0.0016
2154.00,-0.0013
2153.00,-0.0011
2152.00,-0.0009
2151.00,-0.0008
2150.00,-0.0007
2149.00,-0.0007
2148.00,-0.0006
2147.00,-0.0006
2146.00,-0.0006
2145.00,-0.0006
2144.00,-0.0006
2143.00,-0.0005
2142.00,-0.0005
2141.00,-0.0005
2140.00,-0.0005
2139.00,-0.0006
2138.00,-0.0007
2137.00,-0.0009
2136.00,-0.0011
2135.00,-0.0012
2134.00,-0.0012
2133.00,-0.0011
2132.00,-0.0010
2131.00,-0.0009
2130.00,-0.0007
2129.00,-0.0005
2128.00,-0.0003
2127.00,-0.0000
2126.00,0.0001
2125.00,0.0002
2124.00,0.0003
2123.00,0.0004
2122.00,0.0005
2121.00,0.0005
2120.00,0.0005
2119.00,0.0005
2118.00,0.0005
2117.00,0.0006
2116.00,0.0007
2115.00,0.0008
2114.00,0.0008
2113.00,0.0008
2112.00,0.0008
2111.00,0.0008
2110.00,0.0008
2109.00,0.0007
2108.00,0.0007
2107.00,0.0007
2106.00,0.0008
2105.00,0.0008
2104.00,0.0009
2103.00,0.0009
2102.00,0.0009
2101.00,0.0010
2100.00,0.0010
2099.00,0.0009
2098.00,0.0007
2097.00,0.0005
2096.00,0.0004
2095.00,0.0003
2094.00,0.0004
2093.00,0.0006
2092.00,0.0007
2091.00,0.0008
2090.00,0.0008
2089.00,0.0007
2088.00,0.0008
2087.00,0.0008
2086.00,0.0009
2085.00,0.0010
2084.00,0.0011
2083.00,0.0011
2082.00,0.0011
2081.00,0.0011
2080.00,0.0011
2079.00,0.0011
2078.00,0.0011
2077.00,0.0010
2076.00,0.0010
2075.00,0.0010
2074.00,0.0009
2073.00,0.0008
2072.00,0.0007
2071.00,0.0007
2070.00,0.0007
2069.00,0.0008
2068.00,0.0008
2067.00,0.0009
2066.00,0.0008
2065.00,0.0008
2064.00,0.0008
2063.00,0.0008
2062.00,0.0008
2061.00,0.0008
2060.00,0.0009
2059.00,0.0009
2058.00,0.0009
2057.00,0.0009
2056.00,0.0010
2055.00,0.0010
2054.00,0.0013
2053.00,0.0016
2052.00,0.0019
2051.00,0.0019
2050.00,0.0016
2049.00,0.0012
2048.00,0.0009
2047.00,0.0008
2046.00,0.0007
2045.00,0.0007
2044.00,0.0008
2043.00,0.0009
2042.00,0.0010
2041.00,0.0010
2040.00,0.0011
2039.00,0.0011
2038.00,0.0011
2037.00,0.0010
2036.00,0.0010
2035.00,0.0009
2034.00,0.0007
2033.00,0.0006
2032.00,0.0005
2031.00,0.0005
2030.00,0.0003
2029.00,0.0001
2028.00,-0.0000
2027.00,0.0000
2026.00,0.0001
2025.00,0.0001
2024.00,0.0000
2023.00,0.0000
2022.00,0.0000
2021.00,0.0002
2020.00,0.0004
2019.00,0.0005
2018.00,0.0004
2017.00,0.0003
2016.00,0.0002
2015.00,0.0001
2014.00,-0.0000
2013.00,-0.0000
2012.00,-0.0000
2011.00,-0.0001
2010.00,-0.0003
2009.00,-0.0005
2008.00,-0.0007
2007.00,-0.0009
2006.00,-0.0010
2005.00,-0.0010
2004.00,-0.0009
2003.00,-0.0007
2002.00,-0.0004
2001.00,-0.0001
2000.00,0.0002
1999.00,0.0004
1998.00,0.0005
1997.00,0.0006
1996.00,0.0007
1995.00,0.0007
1994.00,0.0005
1993.00,0.0004
1992.00,0.0004
1991.00,0.0004
1990.00,0.0005
1989.00,0.0006
1988.00,0.0007
1987.00,0.0008
1986.00,0.0008
1985.00,0.0009
1984.00,0.0011
1983.00,0.0015
1982.00,0.0018
1981.00,0.0018
1980.00,0.0016
1979.00,0.0009
1978.00,0.0002
1977.00,-0.0003
1976.00,-0.0004
1975.00,-0.0004
1974.00,-0.0004
1973.00,-0.0004
1972.00,-0.0004
1971.00,-0.0004
1970.00,-0.0005
1969.00,-0.0006
1968.00,-0.0006
1967.00,-0.0005
1966.00,-0.0006
1965.00,-0.0005
1964.00,-0.0005
1963.00,-0.0005
1962.00,-0.0007
1961.00,-0.0008
1960.00,-0.0009
1959.00,-0.0010
1958.00,-0.0011
1957.00,-0.0011
1956.00,-0.0009
1955.00,-0.0006
1954.00,-0.0005
1953.00,-0.0004
1952.00,-0.0003
1951.00,-0.0003
1950.00,-0.0004
1949.00,-0.0004
1948.00,-0.0003
1947.00,-0.0002
1946.00,-0.0002
1945.00,-0.0003
1944.00,-0.0004
1943.00,-0.0004
1942.00,-0.0004
1941.00,-0.0004
1940.00,-0.0003
1939.00,-0.0003
1938.00,-0.0003
1937.00,-0.0003
1936.00,-0.0002
1935.00,-0.0001
1934.00,-0.0001
1933.00,-0.0001
1932.00,-0.0001
1931.00,-0.0002
1930.00,-0.0002
1929.00,-0.0002
1928.00,-0.0002
1927.00,-0.0001
1926.00,-0.0001
1925.00,-0.0000
1924.00,0.0000
1923.00,0.0001
1922.00,0.0002
1921.00,0.0002
1920.00,0.0002
1919.00,0.0001
1918.00,0.0001
1917.00,0.0000
1916.00,0.0000
1915.00,0.0001
1914.00,0.0001
1913.00,0.0002
1912.00,0.0003
1911.00,0.0004
1910.00,0.0003
1909.00,0.0003
1908.00,0.0002
1907.00,0.0002
1906.00,0.0002
1905.00,0.0002
1904.00,0.0003
1903.00,0.0004
1902.00,0.0004
1901.00,0.0004
1900.00,0.0004
1899.00,0.0004
1898.00,0.0004
1897.00,0.0004
1896.00,0.0004
1895.00,0.0004
1894.00,0.0004
1893.00,0.0003
1892.00,0.0003
1891.00,0.0003
1890.00,0.0002
1889.00,0.0002
1888.00,0.0003
1887.00,0.0004
1886.00,0.0004
1885.00,0.0004
1884.00,0.0004
1883.00,0.0004
1882.00,0.0003
1881.00,0.0003
1880.00,0.0003
1879.00,0.0003
1878.00,0.0003
1877.00,0.0003
1876.00,0.0003
1875.00,0.0003
1874.00,0.0003
1873.00,0.0002
1872.00,0.0002
1871.00,0.0002
1870.00,0.0003
1869.00,0.0003
1868.00,0.0003
1867.00,0.0003
1866.00,0.0003
1865.00,0.0003
1864.00,0.0004
1863.00,0.0004
1862.00,0.0004
1861.00,0.0005
1860.00,0.0005
1859.00,0.0005
1858.00,0.0005
1857.00,0.0004
1856.00,0.0004
1855.00,0.0004
1854.00,0.0004
1853.00,0.0004
1852.00,0.0004
1851.00,0.0005
1850.00,0.0005
1849.00,0.0005
1848.00,0.0005
1847.00,0.0004
1846.00,0.0004
1845.00,0.0004
1844.00,0.0005
1843.00,0.0005
1842.00,0.0005
1841.00,0.0006
1840.00,0.0006
1839.00,0.0006
1838.00,0.0006
1837.00,0.0006
1836.00,0.0005
1835.00,0.0005
1834.00,0.0005
1833.00,0.0005
1832.00,0.0005
1831.00,0.0005
1830.00,0.0006
1829.00,0.0006
1828.00,0.0006
1827.00,0.0006
1826.00,0.0006
1825.00,0.0006
1824.00,0.0006
1823.00,0.0006
1822.00,0.0006
1821.00,0.0006
1820.00,0.0006
1819.00,0.0005
1818.00,0.0003
1817.00,0.0003
1816.00,0.0003
1815.00,0.0004
1814.00,0.0004
1813.00,0.0005
1812.00,0.0006
1811.00,0.0006
1810.00,0.0006
1809.00,0.0006
1808.00,0.0007
1807.00,0.0007
1806.00,0.0007
1805.00,0.0007
1804.00,0.0008
1803.00,0.0008
1802.00,0.0008
1801.00,0.0008
1800.00,0.0008
1799.00,0.0008
1798.00,0.0008
1797.00,0.0008
1796.00,0.0008
1795.00,0.0008
1794.00,0.0008
1793.00,0.0008
1792.00,0.0009
1791.00,0.0009
1790.00,0.0009
1789.00,0.0010
1788.00,0.0010
1787.00,0.0011
1786.00,0.0011
1785.00,0.0011
1784.00,0.0011
1783.00,0.0012
1782.00,0.0012
1781.00,0.0012
1780.00,0.0012
1779.00,0.0012
1778.00,0.0012
1777.00,0.0011
1776.00,0.0012
1775.00,0.0012
1774.00,0.0011
1773.00,0.0012
1772.00,0.0012
1771.00,0.0013
1770.00,0.0013
1769.00,0.0014
1768.00,0.0015
1767.00,0.0015
1766.00,0.0015
1765.00,0.0015
1764.00,0.0016
1763.00,0.0016
1762.00,0.0017
1761.00,0.0017
1760.00,0.0017
1759.00,0.0018
1758.00,0.0018
1757.00,0.0018
1756.00,0.0019
1755.00,0.0019
1754.00,0.0019
1753.00,0.0019
1752.00,0.0020
1751.00,0.0021
1750.00,0.0021
1749.00,0.0021
1748.00,0.0022
1747.00,0.0023
1746.00,0.0024
1745.00,0.0024
1744.00,0.0025
1743.00,0.0025
1742.00,0.0025
1741.00,0.0025
1740.00,0.0026
1739.00,0.0027
1738.00,0.0027
1737.00,0.0027
1736.00,0.0028
1735.00,0.0030
1734.00,0.0031
1733.00,0.0032
1732.00,0.0033
1731.00,0.0035
1730.00,0.0037
1729.00,0.0038
1728.00,0.0039
1727.00,0.0040
1726.00,0.0042
1725.00,0.0043
1724.00,0.0045
1723.00,0.0047
1722.00,0.0048
1721.00,0.0049
1720.00,0.0050
1719.00,0.0052
1718.00,0.0055
1717.00,0.0058
1716.00,0.0061
1715.00,0.0065
1714.00,0.0068
1713.00,0.0071
1712.00,0.0075
1711.00,0.0080
1710.00,0.0084
1709.00,0.0089
1708.00,0.0094
1707.00,0.0101
1706.00,0.0109
1705.00,0.0118
1704.00,0.0127
1703.00,0.0135
1702.00,0.0144
1701.00,0.0158
1700.00,0.0177
1699.00,0.0196
1698.00,0.0212
1697.00,0.0231
1696.00,0.0254
1695.00,0.0280
1694.00,0.0303
1693.00,0.0325
1692.00,0.0349
1691.00,0.0374
1690.00,0.0400
1689.00,0.0426
1688.00,0.0450
1687.00,0.0473
1686.00,0.0495
1685.00,0.0519
1684.00,0.0546
1683.00,0.0571
1682.00,0.0592
1681.00,0.0612
1680.00,0.0632
1679.00,0.0649
1678.00,0.0665
1677.00,0.0679
1676.00,0.0694
1675.00,0.0707
1674.00,0.0720
1673.00,0.0733
1672.00,0.0746
1671.00,0.0759
1670.00,0.0769
1669.00,0.0780
1668.00,0.0792
1667.00,0.0805
1666.00,0.0818
1665.00,0.0831
1664.00,0.0843
1663.00,0.0853
1662.00,0.0863
1661.00,0.0873
1660.00,0.0883
1659.00,0.0893
1658.00,0.0901
1657.00,0.0909
1656.00,0.0916
1655.00,0.0921
1654.00,0.0918
1653.00,0.0907
1652.00,0.0900
1651.00,0.0902
1650.00,0.0904
1649.00,0.0903
1648.00,0.0894
1647.00,0.0877
1646.00,0.0857
1645.00,0.0839
1644.00,0.0825
1643.00,0.0810
1642.00,0.0792
1641.00,0.0772
1640.00,0.0750
1639.00,0.0728
1638.00,0.0706
1637.00,0.0679
1636.00,0.0647
1635.00,0.0615
1634.00,0.0589
1633.00,0.0569
1632.00,0.0551
1631.00,0.0533
1630.00,0.0515
1629.00,0.0497
1628.00,0.0482
1627.00,0.0470
1626.00,0.0461
1625.00,0.0456
1624.00,0.0455
1623.00,0.0456
1622.00,0.0458
1621.00,0.0460
1620.00,0.0462
1619.00,0.0461
1618.00,0.0456
1617.00,0.0446
1616.00,0.0433
1615.00,0.0422
1614.00,0.0412
1613.00,0.0404
1612.00,0.0395
1611.00,0.0386
1610.00,0.0377
1609.00,0.0367
1608.00,0.0354
1607.00,0.0340
1606.00,0.0324
1605.00,0.0306
1604.00,0.0289
1603.00,0.0271
1602.00,0.0255
1601.00,0.0241
1600.00,0.0228
1599.00,0.0218
1598.00,0.0209
1597.00,0.0203
1596.00,0.0199
1595.00,0.0198
1594.00,0.0200
1593.00,0.0204
1592.00,0.0211
1591.00,0.0221
1590.00,0.0233
1589.00,0.0245
1588.00,0.0257
1587.00,0.0266
1586.00,0.0271
1585.00,0.0271
1584.00,0.0267
1583.00,0.0260
1582.00,0.0249
1581.00,0.0236
1580.00,0.0224
1579.00,0.0212
1578.00,0.0201
1577.00,0.0190
1576.00,0.0179
1575.00,0.0169
1574.00,0.0163
1573.00,0.0158
1572.00,0.0153
1571.00,0.0148
1570.00,0.0143
1569.00,0.0138
1568.00,0.0134
1567.00,0.0130
1566.00,0.0127
1565.00,0.0123
1564.00,0.0119
1563.00,0.0115
1562.00,0.0111
1561.00,0.0106
1560.00,0.0102
1559.00,0.0098
1558.00,0.0095
1557.00,0.0094
1556.00,0.0094
1555.00,0.0094
1554.00,0.0094
1553.00,0.0093
1552.00,0.0092
1551.00,0.0091
1550.00,0.0090
1549.00,0.0088
1548.00,0.0087
1547.00,0.0085
1546.00,0.0084
1545.00,0.0083
1544.00,0.0081
1543.00,0.0078
1542.00,0.0077
1541.00,0.0076
1540.00,0.0075
1539.00,0.0075
1538.00,0.0076
1537.00,0.0076
1536.00,0.0076
1535.00,0.0076
1534.00,0.0077
1533.00,0.0077
1532.00,0.0077
1531.00,0.0077
1530.00,0.0078
1529.00,0.0079
1528.00,0.0079
1527.00,0.0080
1526.00,0.0081
1525.00,0.0081
1524.00,0.0082
1523.00,0.0084
1522.00,0.0086
1521.00,0.0089
1520.00,0.0091
1519.00,0.0093
1518.00,0.0096
1517.00,0.0098
1516.00,0.0100
1515.00,0.0102
1514.00,0.0103
1513.00,0.0105
1512.00,0.0106
1511.00,0.0107
1510.00,0.0108
1509.00,0.0110
1508.00,0.0112
1507.00,0.0117
1506.00,0.0123
1505.00,0.0131
1504.00,0.0139
1503.00,0.0149
1502.00,0.0160
1501.00,0.0172
1500.00,0.0186
1499.00,0.0201
1498.00,0.0216
1497.00,0.0231
1496.00,0.0242
1495.00,0.0248
1494.00,0.0250
1493.00,0.0250
1492.00,0.0245
1491.00,0.0237
1490.00,0.0225
1489.00,0.0212
1488.00,0.0197
1487.00,0.0183
1486.00,0.0171
1485.00,0.0159
1484.00,0.0150
1483.00,0.0142
1482.00,0.0135
1481.00,0.0131
1480.00,0.0128
1479.00,0.0127
1478.00,0.0127
1477.00,0.0130
1476.00,0.0134
1475.00,0.0141
1474.00,0.0150
1473.00,0.0166
1472.00,0.0185
1471.00,0.0206
1470.00,0.0228
1469.00,0.0250
1468.00,0.0274
1467.00,0.0299
1466.00,0.0327
1465.00,0.0356
1464.00,0.0383
1463.00,0.0404
1462.00,0.0418
1461.00,0.0427
1460.00,0.0430
1459.00,0.0426
1458.00,0.0413
1457.00,0.0392
1456.00,0.0369
1455.00,0.0352
1454.00,0.0340
1453.00,0.0332
1452.00,0.0325
1451.00,0.0323
1450.00,0.0324
1449.00,0.0331
1448.00,0.0343
1447.00,0.0358
1446.00,0.0376
1445.00,0.0394
1444.00,0.0412
1443.00,0.0431
1442.00,0.0448
1441.00,0.0464
1440.00,0.0478
1439.00,0.0489
1438.00,0.0498
1437.00,0.0508
1436.00,0.0515
1435.00,0.0521
1434.00,0.0526
1433.00,0.0530
1432.00,0.0533
1431.00,0.0537
1430.00,0.0541
1429.00,0.0548
1428.00,0.0558
1427.00,0.0570
1426.00,0.0584
1425.00,0.0599
1424.00,0.0613
1423.00,0.0623
1422.00,0.0627
1421.00,0.0624
1420.00,0.0610
1419.00,0.0583
1418.00,0.0551
1417.00,0.0520
1416.00,0.0490
1415.00,0.0460
1414.00,0.0432
1413.00,0.0406
1412.00,0.0385
1411.00,0.0367
1410.00,0.0353
1409.00,0.0344
1408.00,0.0338
1407.00,0.0335
1406.00,0.0334
1405.00,0.0334
1404.00,0.0334
1403.00,0.0333
1402.00,0.0331
1401.00,0.0327
1400.00,0.0319
1399.00,0.0307
1398.00,0.0293
1397.00,0.0280
1396.00,0.0265
1395.00,0.0250
1394.00,0.0236
1393.00,0.0225
1392.00,0.0217
1391.00,0.0211
1390.00,0.0208
1389.00,0.0207
1388.00,0.0207
1387.00,0.0210
1386.00,0.0215
1385.00,0.0221
1384.00,0.0228
1383.00,0.0236
1382.00,0.0245
1381.00,0.0253
1380.00,0.0259
1379.00,0.0264
1378.00,0.0267
1377.00,0.0269
1376.00,0.0268
1375.00,0.0267
1374.00,0.0264
1373.00,0.0261
1372.00,0.0257
1371.00,0.0253
1370.00,0.0250
1369.00,0.0246
1368.00,0.0243
1367.00,0.0240
1366.00,0.0238
1365.00,0.0238
1364.00,0.0239
1363.00,0.0240
1362.00,0.0241
1361.00,0.0239
1360.00,0.0235
1359.00,0.0229
1358.00,0.0220
1357.00,0.0209
1356.00,0.0198
1355.00,0.0187
1354.00,0.0179
1353.00,0.0172
1352.00,0.0167
1351.00,0.0163
1350.00,0.0161
1349.00,0.0159
1348.00,0.0158
1347.00,0.0157
1346.00,0.0156
1345.00,0.0156
1344.00,0.0155
1343.00,0.0155
1342.00,0.0156
1341.00,0.0157
1340.00,0.0158
1339.00,0.0160
1338.00,0.0162
1337.00,0.0164
1336.00,0.0167
1335.00,0.0170
1334.00,0.0174
1333.00,0.0178
1332.00,0.0182
1331.00,0.0186
1330.00,0.0191
1329.00,0.0197
1328.00,0.0202
1327.00,0.0209
1326.00,0.0217
1325.00,0.0225
1324.00,0.0233
1323.00,0.0241
1322.00,0.0249
1321.00,0.0257
1320.00,0.0263
1319.00,0.0267
1318.00,0.0269
1317.00,0.0269
1316.00,0.0268
1315.00,0.0265
1314.00,0.0261
1313.00,0.0256
1312.00,0.0251
1311.00,0.0247
1310.00,0.0244
1309.00,0.0243
1308.00,0.0243
1307.00,0.0245
1306.00,0.0248
1305.00,0.0254
1304.00,0.0262
1303.00,0.0272
1302.00,0.0285
1301.00,0.0301
1300.00,0.0322
1299.00,0.0346
1298.00,0.0376
1297.00,0.0409
1296.00,0.0446
1295.00,0.0485
1294.00,0.0524
1293.00,0.0562
1292.00,0.0597
1291.00,0.0628
1290.00,0.0655
1289.00,0.0676
1288.00,0.0691
1287.00,0.0700
1286.00,0.0703
1285.00,0.0700
1284.00,0.0693
1283.00,0.0681
1282.00,0.0667
1281.00,0.0654
1280.00,0.0641
1279.00,0.0632
1278.00,0.0625
1277.00,0.0622
1276.00,0.0620
1275.00,0.0620
1274.00,0.0620
1273.00,0.0619
1272.00,0.0615
1271.00,0.0607
1270.00,0.0596
1269.00,0.0582
1268.00,0.0564
1267.00,0.0543
1266.00,0.0521
1265.00,0.0497
1264.00,0.0474
1263.00,0.0451
1262.00,0.0429
1261.00,0.0408
1260.00,0.0388
1259.00,0.0370
1258.00,0.0353
1257.00,0.0339
1256.00,0.0325
1255.00,0.0313
1254.00,0.0302
1253.00,0.0293
1252.00,0.0286
1251.00,0.0281
1250.00,0.0277
1249.00,0.0276
1248.00,0.0276
1247.00,0.0278
1246.00,0.0281
1245.00,0.0286
1244.00,0.0292
1243.00,0.0298
1242.00,0.0305
1241.00,0.0310
1240.00,0.0315
1239.00,0.0319
1238.00,0.0323
1237.00,0.0327
1236.00,0.0331
1235.00,0.0334
1234.00,0.0336
1233.00,0.0338
1232.00,0.0339
1231.00,0.0339
1230.00,0.0338
1229.00,0.0337
1228.00,0.0336
1227.00,0.0334
1226.00,0.0333
1225.00,0.0333
1224.00,0.0332
1223.00,0.0332
1222.00,0.0333
1221.00,0.0334
1220.00,0.0334
1219.00,0.0334
1218.00,0.0332
1217.00,0.0328
1216.00,0.0322
1215.00,0.0315
1214.00,0.0306
1213.00,0.0296
1212.00,0.0285
1211.00,0.0274
1210.00,0.0264
1209.00,0.0255
1208.00,0.0248
1207.00,0.0241
1206.00,0.0237
1205.00,0.0234
1204.00,0.0233
1203.00,0.0233
1202.00,0.0236
1201.00,0.0239
1200.00,0.0244
1199.00,0.0250
1198.00,0.0257
1197.00,0.0264
1196.00,0.0269
1195.00,0.0273
1194.00,0.0275
1193.00,0.0273
1192.00,0.0268
1191.00,0.0260
1190.00,0.0251
1189.00,0.0241
1188.00,0.0231
1187.00,0.0222
1186.00,0.0214
1185.00,0.0207
1184.00,0.0201
1183.00,0.0197
1182.00,0.0194
1181.00,0.0192
1180.00,0.0191
1179.00,0.0191
1178.00,0.0192
1177.00,0.0194
1176.00,0.0197
1175.00,0.0199
1174.00,0.0202
1173.00,0.0205
1172.00,0.0208
1171.00,0.0210
1170.00,0.0211
1169.00,0.0212
1168.00,0.0212
1167.00,0.0212
1166.00,0.0213
1165.00,0.0214
1164.00,0.0216
1163.00,0.0219
1162.00,0.0225
1161.00,0.0232
1160.00,0.0239
1159.00,0.0247
1158.00,0.0253
1157.00,0.0256
1156.00,0.0256
1155.00,0.0253
1154.00,0.0247
1153.00,0.0239
1152.00,0.0228
1151.00,0.0217
1150.00,0.0205
1149.00,0.0193
1148.00,0.0182
1147.00,0.0172
1146.00,0.0163
1145.00,0.0156
1144.00,0.0149
1143.00,0.0145
1142.00,0.0141
1141.00,0.0139
1140.00,0.0138
1139.00,0.0138
1138.00,0.0142
1137.00,0.0147
1136.00,0.0156
1135.00,0.0167
1134.00,0.0182
1133.00,0.0198
1132.00,0.0214
1131.00,0.0227
1130.00,0.0235
1129.00,0.0237
1128.00,0.0231
1127.00,0.0220
1126.00,0.0207
1125.00,0.0192
1124.00,0.0178
1123.00,0.0166
1122.00,0.0158
1121.00,0.0151
1120.00,0.0146
1119.00,0.0142
1118.00,0.0140
1117.00,0.0139
1116.00,0.0138
1115.00,0.0138
1114.00,0.0139
1113.00,0.0140
1112.00,0.0141
1111.00,0.0142
1110.00,0.0144
1109.00,0.0145
1108.00,0.0147
1107.00,0.0150
1106.00,0.0154
1105.00,0.0159
1104.00,0.0164
1103.00,0.0169
1102.00,0.0174
1101.00,0.0178
1100.00,0.0179
1099.00,0.0178
1098.00,0.0176
1097.00,0.0172
1096.00,0.0167
1095.00,0.0163
1094.00,0.0158
1093.00,0.0154
1092.00,0.0150
1091.00,0.0146
1090.00,0.0144
1089.00,0.0142
1088.00,0.0140
1087.00,0.0139
1086.00,0.0139
1085.00,0.0139
1084.00,0.0140
1083.00,0.0142
1082.00,0.0144
1081.00,0.0147
1080.00,0.0150
1079.00,0.0154
1078.00,0.0158
1077.00,0.0163
1076.00,0.0167
1075.00,0.0172
1074.00,0.0177
1073.00,0.0183
1072.00,0.0189
1071.00,0.0196
1070.00,0.0205
1069.00,0.0215
1068.00,0.0226
1067.00,0.0240
1066.00,0.0256
1065.00,0.0273
1064.00,0.0292
1063.00,0.0312
1062.00,0.0332
1061.00,0.0350
1060.00,0.0365
1059.00,0.0376
1058.00,0.0381
1057.00,0.0379
1056.00,0.0371
1055.00,0.0357
1054.00,0.0338
1053.00,0.0316
1052.00,0.0292
1051.00,0.0268
1050.00,0.0247
1049.00,0.0229
1048.00,0.0214
1047.00,0.0201
1046.00,0.0192
1045.00,0.0185
1044.00,0.0180
1043.00,0.0175
1042.00,0.0172
1041.00,0.0170
1040.00,0.0168
1039.00,0.0167
1038.00,0.0168
1037.00,0.0168
1036.00,0.0170
1035.00,0.0172
1034.00,0.0176
1033.00,0.0180
1032.00,0.0185
1031.00,0.0188
1030.00,0.0190
1029.00,0.0189
1028.00,0.0186
1027.00,0.0182
1026.00,0.0178
1025.00,0.0174
1024.00,0.0171
1023.00,0.0170
1022.00,0.0170
1021.00,0.0172
1020.00,0.0172
1019.00,0.0173
1018.00,0.0173
1017.00,0.0172
1016.00,0.0168
1015.00,0.0164
1014.00,0.0159
1013.00,0.0155
1012.00,0.0150
1011.00,0.0147
1010.00,0.0146
1009.00,0.0147
1008.00,0.0149
1007.00,0.0154
1006.00,0.0160
1005.00,0.0167
1004.00,0.0172
1003.00,0.0175
1002.00,0.0176
1001.00,0.0175
1000.00,0.0172
999.00,0.0167
998.00,0.0163
997.00,0.0159
996.00,0.0155
995.00,0.0151
994.00,0.0148
993.00,0.0144
992.00,0.0140
991.00,0.0137
990.00,0.0133
989.00,0.0130
988.00,0.0127
987.00,0.0124
986.00,0.0121
985.00,0.0118
984.00,0.0116
983.00,0.0114
982.00,0.0112
981.00,0.0112
980.00,0.0111
979.00,0.0111
978.00,0.0111
977.00,0.0111
976.00,0.0111
975.00,0.0110
974.00,0.0109
973.00,0.0108
972.00,0.0106
971.00,0.0105
970.00,0.0104
969.00,0.0103
968.00,0.0101
967.00,0.0099
966.00,0.0098
965.00,0.0097
964.00,0.0096
963.00,0.0095
962.00,0.0093
961.00,0.0092
960.00,0.0091
959.00,0.0090
958.00,0.0089
957.00,0.0089
956.00,0.0088
955.00,0.0087
954.00,0.0086
953.00,0.0085
952.00,0.0084
951.00,0.0084
950.00,0.0084
949.00,0.0085
948.00,0.0086
947.00,0.0087
946.00,0.0088
945.00,0.0090
944.00,0.0092
943.00,0.0094
942.00,0.0097
941.00,0.0102
940.00,0.0106
939.00,0.0112
938.00,0.0119
937.00,0.0125
936.00,0.0130
935.00,0.0135
934.00,0.0139
933.00,0.0140
932.00,0.0140
931.00,0.0138
930.00,0.0136
929.00,0.0134
928.00,0.0132
927.00,0.0131
926.00,0.0131
925.00,0.0131
924.00,0.0130
923.00,0.0128
922.00,0.0127
921.00,0.0125
920.00,0.0122
919.00,0.0119
918.00,0.0117
917.00,0.0115
916.00,0.0112
915.00,0.0111
914.00,0.0110
913.00,0.0109
912.00,0.0108
911.00,0.0108
910.00,0.0108
909.00,0.0109
908.00,0.0111
907.00,0.0113
906.00,0.0116
905.00,0.0120
904.00,0.0124
903.00,0.0129
902.00,0.0134
901.00,0.0140
900.00,0.0144
899.00,0.0147
898.00,0.0150
897.00,0.0151
896.00,0.0152
895.00,0.0151
894.00,0.0149
893.00,0.0146
892.00,0.0142
891.00,0.0138
890.00,0.0135
889.00,0.0132
888.00,0.0130
887.00,0.0129
886.00,0.0130
885.00,0.0131
884.00,0.0132
883.00,0.0134
882.00,0.0137
881.00,0.0140
880.00,0.0143
879.00,0.0148
878.00,0.0153
877.00,0.0159
876.00,0.0165
875.00,0.0171
874.00,0.0178
873.00,0.0183
872.00,0.0186
871.00,0.0188
870.00,0.0190
869.00,0.0192
868.00,0.0192
867.00,0.0193
866.00,0.0194
865.00,0.0194
864.00,0.0195
863.00,0.0197
862.00,0.0199
861.00,0.0201
860.00,0.0202
859.00,0.0204
858.00,0.0207
857.00,0.0210
856.00,0.0213
855.00,0.0217
854.00,0.0222
853.00,0.0227
852.00,0.0232
851.00,0.0236
850.00,0.0240
849.00,0.0244
848.00,0.0247
847.00,0.0250
846.00,0.0252
845.00,0.0254
844.00,0.0255
843.00,0.0255
842.00,0.0255
841.00,0.0255
840.00,0.0254
839.00,0.0253
838.00,0.0253
837.00,0.0253
836.00,0.0252
835.00,0.0252
834.00,0.0252
833.00,0.0252
832.00,0.0252
831.00,0.0252
830.00,0.0252
829.00,0.0251
828.00,0.0250
827.00,0.0249
826.00,0.0248
825.00,0.0247
824.00,0.0246
823.00,0.0245
822.00,0.0245
821.00,0.0246
820.00,0.0247
819.00,0.0247
818.00,0.0248
817.00,0.0249
816.00,0.0248
815.00,0.0246
814.00,0.0244
813.00,0.0240
812.00,0.0235
811.00,0.0228
810.00,0.0220
809.00,0.0211
808.00,0.0201
807.00,0.0191
806.00,0.0183
805.00,0.0176
804.00,0.0170
803.00,0.0165
802.00,0.0162
801.00,0.0160
800.00,0.0158
799.00,0.0156
798.00,0.0157
797.00,0.0157
796.00,0.0158
795.00,0.0158
794.00,0.0160
793.00,0.0161
792.00,0.0161
791.00,0.0161
790.00,0.0162
789.00,0.0163
788.00,0.0163
787.00,0.0164
786.00,0.0165
785.00,0.0166
784.00,0.0166
783.00,0.0167
782.00,0.0170
781.00,0.0172
780.00,0.0174
779.00,0.0175
778.00,0.0178
777.00,0.0179
776.00,0.0179
775.00,0.0179
774.00,0.0178
773.00,0.0177
772.00,0.0177
771.00,0.0177
770.00,0.0179
769.00,0.0181
768.00,0.0183
767.00,0.0185
766.00,0.0189
765.00,0.0193
764.00,0.0196
763.00,0.0199
762.00,0.0203
761.00,0.0206
760.00,0.0210
759.00,0.0213
758.00,0.0218
757.00,0.0221
756.00,0.0225
755.00,0.0228
754.00,0.0233
753.00,0.0238
752.00,0.0242
751.00,0.0246
750.00,0.0251
749.00,0.0255
748.00,0.0258
747.00,0.0262
746.00,0.0267
745.00,0.0272
744.00,0.0276
743.00,0.0282
742.00,0.0288
741.00,0.0296
740.00,0.0304
739.00,0.0312
738.00,0.0319
737.00,0.0324
736.00,0.0326
735.00,0.0324
734.00,0.0321
733.00,0.0317
732.00,0.0311
731.00,0.0305
730.00,0.0299
729.00,0.0292
728.00,0.0285
727.00,0.0279
726.00,0.0274
725.00,0.0269
724.00,0.0265
723.00,0.0260
722.00,0.0257
721.00,0.0253
720.00,0.0250
719.00,0.0248
718.00,0.0248
717.00,0.0248
716.00,0.0248
715.00,0.0248
714.00,0.0248
713.00,0.0247
712.00,0.0246
711.00,0.0245
710.00,0.0244
709.00,0.0244
708.00,0.0243
707.00,0.0244
706.00,0.0245
705.00,0.0245
704.00,0.0245
703.00,0.0245
702.00,0.0246
701.00,0.0247
700.00,0.0248
699.00,0.0250
698.00,0.0253
697.00,0.0258
696.00,0.0262
695.00,0.0267
694.00,0.0273
693.00,0.0279
692.00,0.0284
691.00,0.0288
690.00,0.0291
689.00,0.0293
688.00,0.0294
687.00,0.0295
686.00,0.0296
685.00,0.0296
684.00,0.0296
683.00,0.0296
682.00,0.0297
681.00,0.0298
680.00,0.0298
679.00,0.0299
678.00,0.0302
677.00,0.0305
676.00,0.0307
675.00,0.0311
674.00,0.0315
673.00,0.0320
672.00,0.0323
671.00,0.0327
670.00,0.0334
669.00,0.0341
668.00,0.0349
667.00,0.0355
666.00,0.0358
665.00,0.0361
664.00,0.0364
663.00,0.0369
662.00,0.0377
661.00,0.0384
660.00,0.0392
659.00,0.0399
658.00,0.0406
657.00,0.0413
656.00,0.0419
655.00,0.0426
654.00,0.0434
653.00,0.0440
652.00,0.0444
651.00,0.0448
650.00,0.0451
649.00,0.0453
648.00,0.0454
647.00,0.0454
646.00,0.0453
645.00,0.0450
644.00,0.0446
643.00,0.0441
642.00,0.0437
641.00,0.0432
640.00,0.0426
639.00,0.0419
638.00,0.0414
637.00,0.0410
636.00,0.0405
635.00,0.0401
634.00,0.0398
633.00,0.0395
632.00,0.0391
631.00,0.0387
630.00,0.0385
629.00,0.0384
628.00,0.0383
627.00,0.0382
626.00,0.0381
625.00,0.0381
624.00,0.0379
623.00,0.0376
622.00,0.0375
621.00,0.0373
620.00,0.0371
619.00,0.0368
618.00,0.0368
617.00,0.0368
616.00,0.0368
615.00,0.0368
614.00,0.0369
613.00,0.0369
612.00,0.0369
611.00,0.0370
610.00,0.0373
609.00,0.0375
608.00,0.0375
607.00,0.0375
606.00,0.0377
605.00,0.0380
604.00,0.0382
603.00,0.0384
602.00,0.0386
601.00,0.0388
600.00,0.0388
599.00,0.0389
598.00,0.0390
597.00,0.0390
596.00,0.0389
595.00,0.0388
594.00,0.0389
593.00,0.0391
592.00,0.0393
591.00,0.0398
590.00,0.0404
589.00,0.0411
588.00,0.0418
587.00,0.0425
586.00,0.0435
585.00,0.0446
584.00,0.0455
583.00,0.0464
582.00,0.0474
581.00,0.0482
580.00,0.0486
579.00,0.0488
578.00,0.0490
577.00,0.0491
576.00,0.0491
575.00,0.0490
574.00,0.0490
573.00,0.0490
572.00,0.0490
571.00,0.0490
570.00,0.0492
569.00,0.0493
568.00,0.0491
567.00,0.0487
566.00,0.0484
565.00,0.0481
564.00,0.0476
563.00,0.0472
562.00,0.0469
561.00,0.0466
560.00,0.0462
559.00,0.0459
558.00,0.0459
557.00,0.0457
556.00,0.0454
555.00,0.0449
554.00,0.0446
553.00,0.0443
552.00,0.0438
551.00,0.0435
550.00,0.0434
549.00,0.0434
548.00,0.0431
547.00,0.0429
546.00,0.0428
545.00,0.0427
544.00,0.0423
543.00,0.0420
542.00,0.0419
541.00,0.0418
540.00,0.0416
539.00,0.0415
538.00,0.0416
537.00,0.0418
536.00,0.0418
535.00,0.0421
534.00,0.0427
533.00,0.0432
532.00,0.0433
531.00,0.0433
530.00,0.0434
529.00,0.0432
528.00,0.0428
527.00,0.0423
526.00,0.0420
525.00,0.0417
524.00,0.0411
523.00,0.0407
522.00,0.0407
521.00,0.0408
520.00,0.0407
519.00,0.0405
518.00,0.0405
517.00,0.0404
516.00,0.0402
515.00,0.0400
514.00,0.0402
513.00,0.0405
512.00,0.0405
511.00,0.0405
510.00,0.0408
509.00,0.0410
508.00,0.0409
507.00,0.0408
506.00,0.0409
505.00,0.0409
504.00,0.0405
503.00,0.0402
502.00,0.0402
501.00,0.0402
500.00,0.0398
499.00,0.0394
498.00,0.0393
497.00,0.0394
496.00,0.0394
495.00,0.0396
494.00,0.0400
493.00,0.0404
492.00,0.0403
491.00,0.0403
490.00,0.0406
489.00,0.0409
488.00,0.0409
487.00,0.0409
486.00,0.0412
485.00,0.0415
484.00,0.0412
483.00,0.0410
482.00,0.0411
481.00,0.0412
480.00,0.0410
479.00,0.0409
478.00,0.0412
477.00,0.0414
476.00,0.0413
475.00,0.0413
474.00,0.0415
473.00,0.0418
472.00,0.0417
471.00,0.0415
470.00,0.0416
469.00,0.0416
468.00,0.0412
467.00,0.0410
466.00,0.0412
465.00,0.0412
464.00,0.0406
463.00,0.0399
462.00,0.0398
461.00,0.0397
460.00,0.0393
459.00,0.0391
458.00,0.0395
457.00,0.0397
456.00,0.0393
455.00,0.0390
454.00,0.0392
453.00,0.0394
452.00,0.0392
451.00,0.0389
450.00,0.0390
449.00,0.0390
448.00,0.0385
447.00,0.0380
446.00,0.0381
445.00,0.0381
444.00,0.0375
443.00,0.0369
442.00,0.0369
441.00,0.0368
440.00,0.0362
439.00,0.0360
438.00,0.0365
437.00,0.0371
436.00,0.0370
435.00,0.0366
434.00,0.0365
433.00,0.0362
432.00,0.0354
431.00,0.0347
430.00,0.0347
429.00,0.0349
428.00,0.0345
427.00,0.0344
426.00,0.0350
425.00,0.0355
424.00,0.0352
423.00,0.0349
422.00,0.0355
421.00,0.0360
420.00,0.0355
419.00,0.0348
418.00,0.0350
417.00,0.0351
416.00,0.0346
415.00,0.0345
414.00,0.0355
413.00,0.0364
412.00,0.0362
411.00,0.0359
410.00,0.0366
409.00,0.0371
408.00,0.0363
407.00,0.0353
406.00,0.0354
405.00,0.0354
404.00,0.0341
403.00,0.0329
402.00,0.0334
401.00,0.0347
400.00,0.0352
