Created as New Dataset,Sample 893 By YargerLab Date Wednesday, July 23 2025
cm-1,A
4000.00,0.0013
3999.00,0.0013
3998.00,0.0013
3997.00,0.0013
3996.00,0.0013
3995.00,0.0012
3994.00,0.0012
3993.00,0.0012
3992.00,0.0013
3991.00,0.0013
3990.00,0.0013
3989.00,0.0013
3988.00,0.0013
3987.00,0.0013
3986.00,0.0013
3985.00,0.0013
3984.00,0.0013
3983.00,0.0013
3982.00,0.0013
3981.00,0.0013
3980.00,0.0013
3979.00,0.0013
3978.00,0.0013
3977.00,0.0013
3976.00,0.0013
3975.00,0.0013
3974.00,0.0013
3973.00,0.0013
3972.00,0.0013
3971.00,0.0013
3970.00,0.0014
3969.00,0.0014
3968.00,0.0014
3967.00,0.0014
3966.00,0.0014
3965.00,0.0013
3964.00,0.0013
3963.00,0.0013
3962.00,0.0013
3961.00,0.0014
3960.00,0.0014
3959.00,0.0014
3958.00,0.0014
3957.00,0.0014
3956.00,0.0014
3955.00,0.0014
3954.00,0.0013
3953.00,0.0013
3952.00,0.0013
3951.00,0.0013
3950.00,0.0013
3949.00,0.0013
3948.00,0.0013
3947.00,0.0014
3946.00,0.0014
3945.00,0.0014
3944.00,0.0014
3943.00,0.0014
3942.00,0.0014
3941.00,0.0014
3940.00,0.0014
3939.00,0.0014
3938.00,0.0013
3937.00,0.0013
3936.00,0.0013
3935.00,0.0013
3934.00,0.0013
3933.00,0.0013
3932.00,0.0013
3931.00,0.0013
3930.00,0.0013
3929.00,0.0014
3928.00,0.0014
3927.00,0.0014
3926.00,0.0013
3925.00,0.0013
3924.00,0.0013
3923.00,0.0013
3922.00,0.0013
3921.00,0.0013
3920.00,0.0013
3919.00,0.0013
3918.00,0.0013
3917.00,0.0013
3916.00,0.0013
3915.00,0.0013
3914.00,0.0013
3913.00,0.0013
3912.00,0.0013
3911.00,0.0013
3910.00,0.0013
3909.00,0.0013
3908.00,0.0013
3907.00,0.0013
3906.00,0.0014
3905.00,0.0014
3904.00,0.0014
3903.00,0.0014
3902.00,0.0014
3901.00,0.0014
3900.00,0.0014
3899.00,0.0014
3898.00,0.0014
3897.00,0.0014
3896.00,0.0014
3895.00,0.0014
3894.00,0.0014
3893.00,0.0013
3892.00,0.0013
3891.00,0.0013
3890.00,0.0013
3889.00,0.0013
3888.00,0.0013
3887.00,0.0013
3886.00,0.0013
3885.00,0.0013
3884.00,0.0013
3883.00,0.0013
3882.00,0.0013
3881.00,0.0013
3880.00,0.0013
3879.00,0.0013
3878.00,0.0014
3877.00,0.0013
3876.00,0.0013
3875.00,0.0013
3874.00,0.0013
3873.00,0.0013
3872.00,0.0014
3871.00,0.0014
3870.00,0.0013
3869.00,0.0014
3868.00,0.0014
3867.00,0.0014
3866.00,0.0014
3865.00,0.0013
3864.00,0.0013
3863.00,0.0013
3862.00,0.0013
3861.00,0.0013
3860.00,0.0012
3859.00,0.0012
3858.00,0.0012
3857.00,0.0013
3856.00,0.0014
3855.00,0.0015
3854.00,0.0015
3853.00,0.0015
3852.00,0.0015
3851.00,0.0015
3850.00,0.0014
3849.00,0.0014
3848.00,0.0013
3847.00,0.0013
3846.00,0.0013
3845.00,0.0013
3844.00,0.0013
3843.00,0.0013
3842.00,0.0013
3841.00,0.0014
3840.00,0.0014
3839.00,0.0014
3838.00,0.0014
3837.00,0.0014
3836.00,0.0014
3835.00,0.0014
3834.00,0.0014
3833.00,0.0013
3832.00,0.0013
3831.00,0.0013
3830.00,0.0013
3829.00,0.0013
3828.00,0.0013
3827.00,0.0013
3826.00,0.0013
3825.00,0.0013
3824.00,0.0013
3823.00,0.0013
3822.00,0.0013
3821.00,0.0013
3820.00,0.0013
3819.00,0.0013
3818.00,0.0013
3817.00,0.0013
3816.00,0.0013
3815.00,0.0013
3814.00,0.0013
3813.00,0.0013
3812.00,0.0013
3811.00,0.0013
3810.00,0.0013
3809.00,0.0013
3808.00,0.0013
3807.00,0.0013
3806.00,0.0013
3805.00,0.0013
3804.00,0.0013
3803.00,0.0013
3802.00,0.0013
3801.00,0.0013
3800.00,0.0014
3799.00,0.0014
3798.00,0.0014
3797.00,0.0013
3796.00,0.0013
3795.00,0.0012
3794.00,0.0012
3793.00,0.0012
3792.00,0.0012
3791.00,0.0012
3790.00,0.0012
3789.00,0.0012
3788.00,0.0012
3787.00,0.0012
3786.00,0.0013
3785.00,0.0013
3784.00,0.0013
3783.00,0.0013
3782.00,0.0013
3781.00,0.0013
3780.00,0.0012
3779.00,0.0012
3778.00,0.0013
3777.00,0.0013
3776.00,0.0013
3775.00,0.0013
3774.00,0.0013
3773.00,0.0013
3772.00,0.0013
3771.00,0.0013
3770.00,0.0013
3769.00,0.0013
3768.00,0.0013
3767.00,0.0013
3766.00,0.0013
3765.00,0.0013
3764.00,0.0013
3763.00,0.0013
3762.00,0.0013
3761.00,0.0013
3760.00,0.0013
3759.00,0.0013
3758.00,0.0013
3757.00,0.0013
3756.00,0.0013
3755.00,0.0014
3754.00,0.0014
3753.00,0.0014
3752.00,0.0015
3751.00,0.0015
3750.00,0.0015
3749.00,0.0015
3748.00,0.0015
3747.00,0.0015
3746.00,0.0015
3745.00,0.0015
3744.00,0.0015
3743.00,0.0015
3742.00,0.0015
3741.00,0.0014
3740.00,0.0014
3739.00,0.0014
3738.00,0.0014
3737.00,0.0013
3736.00,0.0013
3735.00,0.0013
3734.00,0.0013
3733.00,0.0013
3732.00,0.0013
3731.00,0.0012
3730.00,0.0012
3729.00,0.0012
3728.00,0.0012
3727.00,0.0012
3726.00,0.0012
3725.00,0.0013
3724.00,0.0013
3723.00,0.0013
3722.00,0.0013
3721.00,0.0013
3720.00,0.0013
3719.00,0.0013
3718.00,0.0013
3717.00,0.0013
3716.00,0.0013
3715.00,0.0013
3714.00,0.0012
3713.00,0.0012
3712.00,0.0012
3711.00,0.0012
3710.00,0.0012
3709.00,0.0012
3708.00,0.0012
3707.00,0.0012
3706.00,0.0012
3705.00,0.0012
3704.00,0.0012
3703.00,0.0012
3702.00,0.0012
3701.00,0.0013
3700.00,0.0013
3699.00,0.0013
3698.00,0.0013
3697.00,0.0013
3696.00,0.0013
3695.00,0.0013
3694.00,0.0013
3693.00,0.0013
3692.00,0.0013
3691.00,0.0014
3690.00,0.0014
3689.00,0.0014
3688.00,0.0014
3687.00,0.0014
3686.00,0.0014
3685.00,0.0014
3684.00,0.0013
3683.00,0.0013
3682.00,0.0014
3681.00,0.0014
3680.00,0.0014
3679.00,0.0014
3678.00,0.0015
3677.00,0.0015
3676.00,0.0015
3675.00,0.0015
3674.00,0.0015
3673.00,0.0015
3672.00,0.0015
3671.00,0.0015
3670.00,0.0015
3669.00,0.0015
3668.00,0.0015
3667.00,0.0015
3666.00,0.0015
3665.00,0.0015
3664.00,0.0015
3663.00,0.0015
3662.00,0.0015
3661.00,0.0015
3660.00,0.0016
3659.00,0.0016
3658.00,0.0017
3657.00,0.0017
3656.00,0.0017
3655.00,0.0018
3654.00,0.0018
3653.00,0.0019
3652.00,0.0019
3651.00,0.0019
3650.00,0.0019
3649.00,0.0019
3648.00,0.0020
3647.00,0.0020
3646.00,0.0020
3645.00,0.0020
3644.00,0.0020
3643.00,0.0020
3642.00,0.0021
3641.00,0.0021
3640.00,0.0021
3639.00,0.0021
3638.00,0.0022
3637.00,0.0022
3636.00,0.0022
3635.00,0.0023
3634.00,0.0023
3633.00,0.0024
3632.00,0.0025
3631.00,0.0025
3630.00,0.0025
3629.00,0.0025
3628.00,0.0026
3627.00,0.0026
3626.00,0.0027
3625.00,0.0027
3624.00,0.0027
3623.00,0.0027
3622.00,0.0028
3621.00,0.0029
3620.00,0.0030
3619.00,0.0030
3618.00,0.0030
3617.00,0.0030
3616.00,0.0030
3615.00,0.0031
3614.00,0.0031
3613.00,0.0032
3612.00,0.0033
3611.00,0.0033
3610.00,0.0033
3609.00,0.0033
3608.00,0.0033
3607.00,0.0034
3606.00,0.0034
3605.00,0.0035
3604.00,0.0035
3603.00,0.0036
3602.00,0.0036
3601.00,0.0036
3600.00,0.0037
3599.00,0.0037
3598.00,0.0037
3597.00,0.0038
3596.00,0.0038
3595.00,0.0039
3594.00,0.0039
3593.00,0.0040
3592.00,0.0041
3591.00,0.0041
3590.00,0.0042
3589.00,0.0043
3588.00,0.0043
3587.00,0.0044
3586.00,0.0044
3585.00,0.0045
3584.00,0.0045
3583.00,0.0045
3582.00,0.0045
3581.00,0.0046
3580.00,0.0046
3579.00,0.0046
3578.00,0.0047
3577.00,0.0048
3576.00,0.0048
3575.00,0.0049
3574.00,0.0049
3573.00,0.0050
3572.00,0.0051
3571.00,0.0052
3570.00,0.0053
3569.00,0.0054
3568.00,0.0054
3567.00,0.0055
3566.00,0.0056
3565.00,0.0057
3564.00,0.0057
3563.00,0.0057
3562.00,0.0057
3561.00,0.0058
3560.00,0.0058
3559.00,0.0059
3558.00,0.0059
3557.00,0.0060
3556.00,0.0061
3555.00,0.0062
3554.00,0.0062
3553.00,0.0063
3552.00,0.0063
3551.00,0.0064
3550.00,0.0065
3549.00,0.0066
3548.00,0.0067
3547.00,0.0067
3546.00,0.0068
3545.00,0.0069
3544.00,0.0069
3543.00,0.0070
3542.00,0.0071
3541.00,0.0072
3540.00,0.0072
3539.00,0.0073
3538.00,0.0074
3537.00,0.0075
3536.00,0.0075
3535.00,0.0076
3534.00,0.0077
3533.00,0.0077
3532.00,0.0078
3531.00,0.0079
3530.00,0.0079
3529.00,0.0080
3528.00,0.0081
3527.00,0.0082
3526.00,0.0084
3525.00,0.0085
3524.00,0.0086
3523.00,0.0087
3522.00,0.0088
3521.00,0.0089
3520.00,0.0089
3519.00,0.0090
3518.00,0.0091
3517.00,0.0093
3516.00,0.0094
3515.00,0.0095
3514.00,0.0096
3513.00,0.0097
3512.00,0.0098
3511.00,0.0099
3510.00,0.0100
3509.00,0.0101
3508.00,0.0102
3507.00,0.0103
3506.00,0.0104
3505.00,0.0105
3504.00,0.0107
3503.00,0.0108
3502.00,0.0109
3501.00,0.0110
3500.00,0.0111
3499.00,0.0112
3498.00,0.0113
3497.00,0.0114
3496.00,0.0116
3495.00,0.0117
3494.00,0.0118
3493.00,0.0119
3492.00,0.0120
3491.00,0.0122
3490.00,0.0123
3489.00,0.0124
3488.00,0.0125
3487.00,0.0127
3486.00,0.0128
3485.00,0.0129
3484.00,0.0131
3483.00,0.0132
3482.00,0.0133
3481.00,0.0134
3480.00,0.0136
3479.00,0.0137
3478.00,0.0138
3477.00,0.0140
3476.00,0.0141
3475.00,0.0142
3474.00,0.0144
3473.00,0.0145
3472.00,0.0146
3471.00,0.0147
3470.00,0.0148
3469.00,0.0149
3468.00,0.0150
3467.00,0.0151
3466.00,0.0152
3465.00,0.0153
3464.00,0.0154
3463.00,0.0155
3462.00,0.0156
3461.00,0.0157
3460.00,0.0158
3459.00,0.0159
3458.00,0.0160
3457.00,0.0161
3456.00,0.0162
3455.00,0.0163
3454.00,0.0164
3453.00,0.0164
3452.00,0.0165
3451.00,0.0166
3450.00,0.0167
3449.00,0.0168
3448.00,0.0169
3447.00,0.0170
3446.00,0.0170
3445.00,0.0171
3444.00,0.0172
3443.00,0.0173
3442.00,0.0174
3441.00,0.0174
3440.00,0.0175
3439.00,0.0176
3438.00,0.0176
3437.00,0.0177
3436.00,0.0177
3435.00,0.0178
3434.00,0.0178
3433.00,0.0179
3432.00,0.0180
3431.00,0.0180
3430.00,0.0181
3429.00,0.0182
3428.00,0.0182
3427.00,0.0183
3426.00,0.0184
3425.00,0.0184
3424.00,0.0185
3423.00,0.0186
3422.00,0.0186
3421.00,0.0187
3420.00,0.0187
3419.00,0.0188
3418.00,0.0189
3417.00,0.0189
3416.00,0.0190
3415.00,0.0190
3414.00,0.0191
3413.00,0.0191
3412.00,0.0192
3411.00,0.0192
3410.00,0.0193
3409.00,0.0194
3408.00,0.0194
3407.00,0.0195
3406.00,0.0195
3405.00,0.0196
3404.00,0.0196
3403.00,0.0197
3402.00,0.0197
3401.00,0.0198
3400.00,0.0199
3399.00,0.0199
3398.00,0.0200
3397.00,0.0201
3396.00,0.0201
3395.00,0.0202
3394.00,0.0202
3393.00,0.0203
3392.00,0.0204
3391.00,0.0204
3390.00,0.0205
3389.00,0.0206
3388.00,0.0207
3387.00,0.0208
3386.00,0.0209
3385.00,0.0209
3384.00,0.0210
3383.00,0.0211
3382.00,0.0211
3381.00,0.0212
3380.00,0.0213
3379.00,0.0214
3378.00,0.0215
3377.00,0.0216
3376.00,0.0217
3375.00,0.0218
3374.00,0.0219
3373.00,0.0220
3372.00,0.0220
3371.00,0.0221
3370.00,0.0222
3369.00,0.0222
3368.00,0.0223
3367.00,0.0224
3366.00,0.0225
3365.00,0.0227
3364.00,0.0228
3363.00,0.0229
3362.00,0.0230
3361.00,0.0231
3360.00,0.0232
3359.00,0.0234
3358.00,0.0235
3357.00,0.0236
3356.00,0.0237
3355.00,0.0237
3354.00,0.0238
3353.00,0.0239
3352.00,0.0239
3351.00,0.0240
3350.00,0.0241
3349.00,0.0242
3348.00,0.0243
3347.00,0.0244
3346.00,0.0245
3345.00,0.0246
3344.00,0.0246
3343.00,0.0247
3342.00,0.0247
3341.00,0.0248
3340.00,0.0249
3339.00,0.0250
3338.00,0.0251
3337.00,0.0252
3336.00,0.0253
3335.00,0.0254
3334.00,0.0255
3333.00,0.0255
3332.00,0.0256
3331.00,0.0257
3330.00,0.0257
3329.00,0.0258
3328.00,0.0258
3327.00,0.0258
3326.00,0.0259
3325.00,0.0259
3324.00,0.0260
3323.00,0.0261
3322.00,0.0262
3321.00,0.0263
3320.00,0.0264
3319.00,0.0265
3318.00,0.0265
3317.00,0.0266
3316.00,0.0267
3315.00,0.0268
3314.00,0.0269
3313.00,0.0269
3312.00,0.0269
3311.00,0.0270
3310.00,0.0270
3309.00,0.0270
3308.00,0.0270
3307.00,0.0271
3306.00,0.0271
3305.00,0.0272
3304.00,0.0274
3303.00,0.0275
3302.00,0.0276
3301.00,0.0278
3300.00,0.0278
3299.00,0.0279
3298.00,0.0279
3297.00,0.0279
3296.00,0.0280
3295.00,0.0280
3294.00,0.0281
3293.00,0.0281
3292.00,0.0282
3291.00,0.0283
3290.00,0.0284
3289.00,0.0285
3288.00,0.0286
3287.00,0.0287
3286.00,0.0287
3285.00,0.0287
3284.00,0.0287
3283.00,0.0287
3282.00,0.0287
3281.00,0.0287
3280.00,0.0287
3279.00,0.0287
3278.00,0.0287
3277.00,0.0287
3276.00,0.0287
3275.00,0.0286
3274.00,0.0285
3273.00,0.0285
3272.00,0.0284
3271.00,0.0283
3270.00,0.0283
3269.00,0.0283
3268.00,0.0283
3267.00,0.0284
3266.00,0.0283
3265.00,0.0283
3264.00,0.0282
3263.00,0.0281
3262.00,0.0280
3261.00,0.0279
3260.00,0.0278
3259.00,0.0277
3258.00,0.0276
3257.00,0.0275
3256.00,0.0274
3255.00,0.0273
3254.00,0.0272
3253.00,0.0271
3252.00,0.0270
3251.00,0.0269
3250.00,0.0268
3249.00,0.0267
3248.00,0.0265
3247.00,0.0264
3246.00,0.0263
3245.00,0.0262
3244.00,0.0262
3243.00,0.0261
3242.00,0.0260
3241.00,0.0260
3240.00,0.0259
3239.00,0.0258
3238.00,0.0257
3237.00,0.0256
3236.00,0.0255
3235.00,0.0254
3234.00,0.0253
3233.00,0.0253
3232.00,0.0253
3231.00,0.0252
3230.00,0.0252
3229.00,0.0252
3228.00,0.0252
3227.00,0.0251
3226.00,0.0251
3225.00,0.0250
3224.00,0.0250
3223.00,0.0250
3222.00,0.0249
3221.00,0.0249
3220.00,0.0248
3219.00,0.0248
3218.00,0.0247
3217.00,0.0247
3216.00,0.0246
3215.00,0.0246
3214.00,0.0246
3213.00,0.0245
3212.00,0.0245
3211.00,0.0244
3210.00,0.0244
3209.00,0.0244
3208.00,0.0244
3207.00,0.0243
3206.00,0.0243
3205.00,0.0243
3204.00,0.0242
3203.00,0.0242
3202.00,0.0241
3201.00,0.0241
3200.00,0.0240
3199.00,0.0239
3198.00,0.0239
3197.00,0.0238
3196.00,0.0237
3195.00,0.0237
3194.00,0.0236
3193.00,0.0235
3192.00,0.0234
3191.00,0.0234
3190.00,0.0233
3189.00,0.0232
3188.00,0.0231
3187.00,0.0231
3186.00,0.0230
3185.00,0.0229
3184.00,0.0228
3183.00,0.0227
3182.00,0.0226
3181.00,0.0225
3180.00,0.0224
3179.00,0.0223
3178.00,0.0222
3177.00,0.0221
3176.00,0.0220
3175.00,0.0219
3174.00,0.0219
3173.00,0.0218
3172.00,0.0217
3171.00,0.0217
3170.00,0.0216
3169.00,0.0215
3168.00,0.0214
3167.00,0.0213
3166.00,0.0212
3165.00,0.0211
3164.00,0.0210
3163.00,0.0209
3162.00,0.0208
3161.00,0.0207
3160.00,0.0206
3159.00,0.0205
3158.00,0.0204
3157.00,0.0203
3156.00,0.0201
3155.00,0.0200
3154.00,0.0199
3153.00,0.0197
3152.00,0.0196
3151.00,0.0196
3150.00,0.0195
3149.00,0.0195
3148.00,0.0194
3147.00,0.0193
3146.00,0.0193
3145.00,0.0192
3144.00,0.0191
3143.00,0.0190
3142.00,0.0189
3141.00,0.0188
3140.00,0.0187
3139.00,0.0186
3138.00,0.0186
3137.00,0.0186
3136.00,0.0185
3135.00,0.0185
3134.00,0.0184
3133.00,0.0183
3132.00,0.0182
3131.00,0.0182
3130.00,0.0181
3129.00,0.0180
3128.00,0.0180
3127.00,0.0179
3126.00,0.0179
3125.00,0.0178
3124.00,0.0177
3123.00,0.0177
3122.00,0.0175
3121.00,0.0174
3120.00,0.0174
3119.00,0.0173
3118.00,0.0173
3117.00,0.0172
3116.00,0.0172
3115.00,0.0172
3114.00,0.0172
3113.00,0.0172
3112.00,0.0172
3111.00,0.0172
3110.00,0.0171
3109.00,0.0171
3108.00,0.0170
3107.00,0.0170
3106.00,0.0170
3105.00,0.0170
3104.00,0.0170
3103.00,0.0170
3102.00,0.0170
3101.00,0.0170
3100.00,0.0169
3099.00,0.0170
3098.00,0.0170
3097.00,0.0170
3096.00,0.0170
3095.00,0.0170
3094.00,0.0170
3093.00,0.0170
3092.00,0.0169
3091.00,0.0169
3090.00,0.0169
3089.00,0.0169
3088.00,0.0169
3087.00,0.0169
3086.00,0.0168
3085.00,0.0168
3084.00,0.0168
3083.00,0.0168
3082.00,0.0168
3081.00,0.0168
3080.00,0.0168
3079.00,0.0168
3078.00,0.0168
3077.00,0.0169
3076.00,0.0170
3075.00,0.0171
3074.00,0.0171
3073.00,0.0171
3072.00,0.0170
3071.00,0.0170
3070.00,0.0169
3069.00,0.0168
3068.00,0.0167
3067.00,0.0167
3066.00,0.0167
3065.00,0.0167
3064.00,0.0166
3063.00,0.0166
3062.00,0.0166
3061.00,0.0165
3060.00,0.0165
3059.00,0.0164
3058.00,0.0163
3057.00,0.0162
3056.00,0.0161
3055.00,0.0161
3054.00,0.0160
3053.00,0.0159
3052.00,0.0158
3051.00,0.0157
3050.00,0.0157
3049.00,0.0156
3048.00,0.0156
3047.00,0.0155
3046.00,0.0155
3045.00,0.0154
3044.00,0.0153
3043.00,0.0152
3042.00,0.0151
3041.00,0.0151
3040.00,0.0151
3039.00,0.0151
3038.00,0.0150
3037.00,0.0150
3036.00,0.0149
3035.00,0.0148
3034.00,0.0147
3033.00,0.0147
3032.00,0.0147
3031.00,0.0146
3030.00,0.0146
3029.00,0.0146
3028.00,0.0145
3027.00,0.0144
3026.00,0.0143
3025.00,0.0142
3024.00,0.0142
3023.00,0.0141
3022.00,0.0140
3021.00,0.0139
3020.00,0.0138
3019.00,0.0137
3018.00,0.0137
3017.00,0.0136
3016.00,0.0135
3015.00,0.0134
3014.00,0.0134
3013.00,0.0134
3012.00,0.0133
3011.00,0.0133
3010.00,0.0133
3009.00,0.0133
3008.00,0.0133
3007.00,0.0133
3006.00,0.0132
3005.00,0.0132
3004.00,0.0132
3003.00,0.0132
3002.00,0.0132
3001.00,0.0132
3000.00,0.0131
2999.00,0.0131
2998.00,0.0131
2997.00,0.0131
2996.00,0.0132
2995.00,0.0133
2994.00,0.0133
2993.00,0.0134
2992.00,0.0135
2991.00,0.0136
2990.00,0.0137
2989.00,0.0139
2988.00,0.0140
2987.00,0.0142
2986.00,0.0143
2985.00,0.0144
2984.00,0.0145
2983.00,0.0146
2982.00,0.0148
2981.00,0.0150
2980.00,0.0152
2979.00,0.0155
2978.00,0.0158
2977.00,0.0161
2976.00,0.0164
2975.00,0.0167
2974.00,0.0170
2973.00,0.0172
2972.00,0.0175
2971.00,0.0178
2970.00,0.0180
2969.00,0.0183
2968.00,0.0185
2967.00,0.0187
2966.00,0.0189
2965.00,0.0191
2964.00,0.0192
2963.00,0.0193
2962.00,0.0193
2961.00,0.0193
2960.00,0.0193
2959.00,0.0193
2958.00,0.0192
2957.00,0.0192
2956.00,0.0191
2955.00,0.0190
2954.00,0.0189
2953.00,0.0188
2952.00,0.0186
2951.00,0.0185
2950.00,0.0184
2949.00,0.0183
2948.00,0.0183
2947.00,0.0183
2946.00,0.0183
2945.00,0.0184
2944.00,0.0185
2943.00,0.0187
2942.00,0.0189
2941.00,0.0191
2940.00,0.0194
2939.00,0.0196
2938.00,0.0199
2937.00,0.0201
2936.00,0.0203
2935.00,0.0205
2934.00,0.0207
2933.00,0.0209
2932.00,0.0210
2931.00,0.0211
2930.00,0.0212
2929.00,0.0212
2928.00,0.0213
2927.00,0.0212
2926.00,0.0212
2925.00,0.0211
2924.00,0.0209
2923.00,0.0208
2922.00,0.0206
2921.00,0.0204
2920.00,0.0202
2919.00,0.0200
2918.00,0.0198
2917.00,0.0195
2916.00,0.0193
2915.00,0.0191
2914.00,0.0189
2913.00,0.0187
2912.00,0.0184
2911.00,0.0182
2910.00,0.0180
2909.00,0.0178
2908.00,0.0176
2907.00,0.0174
2906.00,0.0172
2905.00,0.0171
2904.00,0.0169
2903.00,0.0168
2902.00,0.0166
2901.00,0.0165
2900.00,0.0163
2899.00,0.0162
2898.00,0.0160
2897.00,0.0159
2896.00,0.0158
2895.00,0.0156
2894.00,0.0155
2893.00,0.0154
2892.00,0.0153
2891.00,0.0153
2890.00,0.0152
2889.00,0.0151
2888.00,0.0151
2887.00,0.0151
2886.00,0.0151
2885.00,0.0151
2884.00,0.0151
2883.00,0.0151
2882.00,0.0151
2881.00,0.0151
2880.00,0.0152
2879.00,0.0152
2878.00,0.0153
2877.00,0.0154
2876.00,0.0154
2875.00,0.0154
2874.00,0.0154
2873.00,0.0154
2872.00,0.0154
2871.00,0.0153
2870.00,0.0152
2869.00,0.0151
2868.00,0.0150
2867.00,0.0149
2866.00,0.0148
2865.00,0.0147
2864.00,0.0146
2863.00,0.0146
2862.00,0.0146
2861.00,0.0146
2860.00,0.0146
2859.00,0.0147
2858.00,0.0147
2857.00,0.0147
2856.00,0.0146
2855.00,0.0145
2854.00,0.0144
2853.00,0.0142
2852.00,0.0139
2851.00,0.0137
2850.00,0.0135
2849.00,0.0132
2848.00,0.0130
2847.00,0.0127
2846.00,0.0125
2845.00,0.0123
2844.00,0.0121
2843.00,0.0119
2842.00,0.0117
2841.00,0.0116
2840.00,0.0115
2839.00,0.0114
2838.00,0.0113
2837.00,0.0112
2836.00,0.0112
2835.00,0.0112
2834.00,0.0112
2833.00,0.0111
2832.00,0.0111
2831.00,0.0111
2830.00,0.0110
2829.00,0.0109
2828.00,0.0108
2827.00,0.0108
2826.00,0.0106
2825.00,0.0105
2824.00,0.0104
2823.00,0.0103
2822.00,0.0102
2821.00,0.0101
2820.00,0.0101
2819.00,0.0100
2818.00,0.0099
2817.00,0.0099
2816.00,0.0098
2815.00,0.0098
2814.00,0.0097
2813.00,0.0097
2812.00,0.0096
2811.00,0.0096
2810.00,0.0095
2809.00,0.0095
2808.00,0.0094
2807.00,0.0094
2806.00,0.0094
2805.00,0.0093
2804.00,0.0093
2803.00,0.0093
2802.00,0.0092
2801.00,0.0092
2800.00,0.0091
2799.00,0.0091
2798.00,0.0091
2797.00,0.0090
2796.00,0.0090
2795.00,0.0090
2794.00,0.0090
2793.00,0.0089
2792.00,0.0089
2791.00,0.0089
2790.00,0.0088
2789.00,0.0088
2788.00,0.0088
2787.00,0.0088
2786.00,0.0087
2785.00,0.0087
2784.00,0.0087
2783.00,0.0086
2782.00,0.0086
2781.00,0.0085
2780.00,0.0085
2779.00,0.0085
2778.00,0.0085
2777.00,0.0084
2776.00,0.0084
2775.00,0.0084
2774.00,0.0084
2773.00,0.0083
2772.00,0.0083
2771.00,0.0083
2770.00,0.0083
2769.00,0.0082
2768.00,0.0082
2767.00,0.0082
2766.00,0.0081
2765.00,0.0081
2764.00,0.0081
2763.00,0.0081
2762.00,0.0081
2761.00,0.0080
2760.00,0.0080
2759.00,0.0080
2758.00,0.0080
2757.00,0.0079
2756.00,0.0079
2755.00,0.0079
2754.00,0.0079
2753.00,0.0079
2752.00,0.0079
2751.00,0.0078
2750.00,0.0078
2749.00,0.0078
2748.00,0.0077
2747.00,0.0077
2746.00,0.0077
2745.00,0.0077
2744.00,0.0077
2743.00,0.0077
2742.00,0.0077
2741.00,0.0076
2740.00,0.0076
2739.00,0.0076
2738.00,0.0076
2737.00,0.0076
2736.00,0.0075
2735.00,0.0075
2734.00,0.0075
2733.00,0.0075
2732.00,0.0075
2731.00,0.0075
2730.00,0.0075
2729.00,0.0074
2728.00,0.0074
2727.00,0.0074
2726.00,0.0073
2725.00,0.0073
2724.00,0.0073
2723.00,0.0073
2722.00,0.0072
2721.00,0.0072
2720.00,0.0072
2719.00,0.0071
2718.00,0.0071
2717.00,0.0071
2716.00,0.0071
2715.00,0.0070
2714.00,0.0070
2713.00,0.0070
2712.00,0.0070
2711.00,0.0070
2710.00,0.0069
2709.00,0.0069
2708.00,0.0069
2707.00,0.0068
2706.00,0.0068
2705.00,0.0068
2704.00,0.0068
2703.00,0.0068
2702.00,0.0067
2701.00,0.0067
2700.00,0.0067
2699.00,0.0067
2698.00,0.0067
2697.00,0.0067
2696.00,0.0067
2695.00,0.0067
2694.00,0.0066
2693.00,0.0066
2692.00,0.0066
2691.00,0.0066
2690.00,0.0066
2689.00,0.0066
2688.00,0.0066
2687.00,0.0065
2686.00,0.0065
2685.00,0.0065
2684.00,0.0065
2683.00,0.0065
2682.00,0.0064
2681.00,0.0064
2680.00,0.0064
2679.00,0.0064
2678.00,0.0065
2677.00,0.0064
2676.00,0.0064
2675.00,0.0064
2674.00,0.0064
2673.00,0.0063
2672.00,0.0063
2671.00,0.0063
2670.00,0.0063
2669.00,0.0064
2668.00,0.0064
2667.00,0.0064
2666.00,0.0064
2665.00,0.0065
2664.00,0.0065
2663.00,0.0065
2662.00,0.0065
2661.00,0.0066
2660.00,0.0066
2659.00,0.0066
2658.00,0.0066
2657.00,0.0066
2656.00,0.0066
2655.00,0.0066
2654.00,0.0066
2653.00,0.0066
2652.00,0.0066
2651.00,0.0066
2650.00,0.0066
2649.00,0.0066
2648.00,0.0066
2647.00,0.0066
2646.00,0.0066
2645.00,0.0065
2644.00,0.0065
2643.00,0.0065
2642.00,0.0064
2641.00,0.0064
2640.00,0.0064
2639.00,0.0064
2638.00,0.0064
2637.00,0.0064
2636.00,0.0064
2635.00,0.0063
2634.00,0.0063
2633.00,0.0063
2632.00,0.0063
2631.00,0.0062
2630.00,0.0062
2629.00,0.0062
2628.00,0.0062
2627.00,0.0062
2626.00,0.0062
2625.00,0.0062
2624.00,0.0061
2623.00,0.0061
2622.00,0.0061
2621.00,0.0061
2620.00,0.0061
2619.00,0.0061
2618.00,0.0061
2617.00,0.0060
2616.00,0.0060
2615.00,0.0060
2614.00,0.0059
2613.00,0.0059
2612.00,0.0059
2611.00,0.0059
2610.00,0.0059
2609.00,0.0058
2608.00,0.0058
2607.00,0.0058
2606.00,0.0057
2605.00,0.0057
2604.00,0.0057
2603.00,0.0057
2602.00,0.0057
2601.00,0.0056
2600.00,0.0056
2599.00,0.0056
2598.00,0.0056
2597.00,0.0056
2596.00,0.0056
2595.00,0.0056
2594.00,0.0056
2593.00,0.0056
2592.00,0.0055
2591.00,0.0055
2590.00,0.0055
2589.00,0.0054
2588.00,0.0054
2587.00,0.0054
2586.00,0.0053
2585.00,0.0053
2584.00,0.0053
2583.00,0.0053
2582.00,0.0053
2581.00,0.0052
2580.00,0.0052
2579.00,0.0052
2578.00,0.0052
2577.00,0.0051
2576.00,0.0051
2575.00,0.0051
2574.00,0.0051
2573.00,0.0051
2572.00,0.0050
2571.00,0.0050
2570.00,0.0049
2569.00,0.0049
2568.00,0.0049
2567.00,0.0049
2566.00,0.0049
2565.00,0.0049
2564.00,0.0049
2563.00,0.0049
2562.00,0.0048
2561.00,0.0048
2560.00,0.0048
2559.00,0.0048
2558.00,0.0048
2557.00,0.0048
2556.00,0.0048
2555.00,0.0048
2554.00,0.0048
2553.00,0.0048
2552.00,0.0047
2551.00,0.0047
2550.00,0.0047
2549.00,0.0047
2548.00,0.0047
2547.00,0.0047
2546.00,0.0047
2545.00,0.0047
2544.00,0.0047
2543.00,0.0047
2542.00,0.0047
2541.00,0.0047
2540.00,0.0046
2539.00,0.0046
2538.00,0.0045
2537.00,0.0045
2536.00,0.0045
2535.00,0.0044
2534.00,0.0044
2533.00,0.0044
2532.00,0.0044
2531.00,0.0044
2530.00,0.0044
2529.00,0.0044
2528.00,0.0044
2527.00,0.0044
2526.00,0.0044
2525.00,0.0044
2524.00,0.0043
2523.00,0.0043
2522.00,0.0043
2521.00,0.0044
2520.00,0.0044
2519.00,0.0044
2518.00,0.0044
2517.00,0.0043
2516.00,0.0043
2515.00,0.0043
2514.00,0.0043
2513.00,0.0043
2512.00,0.0043
2511.00,0.0043
2510.00,0.0043
2509.00,0.0043
2508.00,0.0042
2507.00,0.0042
2506.00,0.0042
2505.00,0.0042
2504.00,0.0042
2503.00,0.0042
2502.00,0.0041
2501.00,0.0041
2500.00,0.0041
2499.00,0.0041
2498.00,0.0041
2497.00,0.0041
2496.00,0.0041
2495.00,0.0041
2494.00,0.0041
2493.00,0.0041
2492.00,0.0041
2491.00,0.0041
2490.00,0.0040
2489.00,0.0040
2488.00,0.0041
2487.00,0.0041
2486.00,0.0040
2485.00,0.0040
2484.00,0.0040
2483.00,0.0040
2482.00,0.0040
2481.00,0.0040
2480.00,0.0040
2479.00,0.0040
2478.00,0.0040
2477.00,0.0039
2476.00,0.0039
2475.00,0.0039
2474.00,0.0039
2473.00,0.0039
2472.00,0.0039
2471.00,0.0039
2470.00,0.0039
2469.00,0.0039
2468.00,0.0039
2467.00,0.0039
2466.00,0.0039
2465.00,0.0039
2464.00,0.0039
2463.00,0.0039
2462.00,0.0039
2461.00,0.0039
2460.00,0.0039
2459.00,0.0039
2458.00,0.0039
2457.00,0.0039
2456.00,0.0040
2455.00,0.0040
2454.00,0.0039
2453.00,0.0039
2452.00,0.0039
2451.00,0.0039
2450.00,0.0039
2449.00,0.0039
2448.00,0.0039
2447.00,0.0038
2446.00,0.0038
2445.00,0.0037
2444.00,0.0037
2443.00,0.0036
2442.00,0.0036
2441.00,0.0036
2440.00,0.0036
2439.00,0.0035
2438.00,0.0035
2437.00,0.0035
2436.00,0.0035
2435.00,0.0035
2434.00,0.0035
2433.00,0.0035
2432.00,0.0034
2431.00,0.0034
2430.00,0.0034
2429.00,0.0034
2428.00,0.0034
2427.00,0.0033
2426.00,0.0033
2425.00,0.0033
2424.00,0.0034
2423.00,0.0034
2422.00,0.0034
2421.00,0.0033
2420.00,0.0033
2419.00,0.0032
2418.00,0.0032
2417.00,0.0032
2416.00,0.0032
2415.00,0.0032
2414.00,0.0032
2413.00,0.0032
2412.00,0.0032
2411.00,0.0032
2410.00,0.0031
2409.00,0.0031
2408.00,0.0031
2407.00,0.0030
2406.00,0.0030
2405.00,0.0030
2404.00,0.0030
2403.00,0.0030
2402.00,0.0030
2401.00,0.0030
2400.00,0.0030
2399.00,0.0030
2398.00,0.0030
2397.00,0.0030
2396.00,0.0030
2395.00,0.0029
2394.00,0.0029
2393.00,0.0029
2392.00,0.0029
2391.00,0.0029
2390.00,0.0029
2389.00,0.0029
2388.00,0.0029
2387.00,0.0028
2386.00,0.0028
2385.00,0.0028
2384.00,0.0028
2383.00,0.0028
2382.00,0.0027
2381.00,0.0027
2380.00,0.0027
2379.00,0.0026
2378.00,0.0026
2377.00,0.0026
2376.00,0.0026
2375.00,0.0027
2374.00,0.0026
2373.00,0.0026
2372.00,0.0026
2371.00,0.0026
2370.00,0.0026
2369.00,0.0026
2368.00,0.0026
2367.00,0.0026
2366.00,0.0027
2365.00,0.0027
2364.00,0.0027
2363.00,0.0026
2362.00,0.0026
2361.00,0.0026
2360.00,0.0026
2359.00,0.0026
2358.00,0.0027
2357.00,0.0027
2356.00,0.0027
2355.00,0.0027
2354.00,0.0028
2353.00,0.0027
2352.00,0.0027
2351.00,0.0027
2350.00,0.0027
2349.00,0.0027
2348.00,0.0027
2347.00,0.0029
2346.00,0.0030
2345.00,0.0031
2344.00,0.0031
2343.00,0.0030
2342.00,0.0029
2341.00,0.0029
2340.00,0.0030
2339.00,0.0030
2338.00,0.0031
2337.00,0.0031
2336.00,0.0031
2335.00,0.0030
2334.00,0.0030
2333.00,0.0030
2332.00,0.0030
2331.00,0.0031
2330.00,0.0031
2329.00,0.0033
2328.00,0.0036
2327.00,0.0039
2326.00,0.0042
2325.00,0.0043
2324.00,0.0042
2323.00,0.0040
2322.00,0.0038
2321.00,0.0037
2320.00,0.0036
2319.00,0.0035
2318.00,0.0035
2317.00,0.0034
2316.00,0.0033
2315.00,0.0033
2314.00,0.0033
2313.00,0.0033
2312.00,0.0032
2311.00,0.0032
2310.00,0.0031
2309.00,0.0031
2308.00,0.0031
2307.00,0.0031
2306.00,0.0031
2305.00,0.0031
2304.00,0.0031
2303.00,0.0031
2302.00,0.0032
2301.00,0.0032
2300.00,0.0033
2299.00,0.0034
2298.00,0.0034
2297.00,0.0034
2296.00,0.0035
2295.00,0.0035
2294.00,0.0036
2293.00,0.0037
2292.00,0.0038
2291.00,0.0039
2290.00,0.0039
2289.00,0.0040
2288.00,0.0040
2287.00,0.0040
2286.00,0.0040
2285.00,0.0040
2284.00,0.0039
2283.00,0.0039
2282.00,0.0038
2281.00,0.0038
2280.00,0.0037
2279.00,0.0036
2278.00,0.0036
2277.00,0.0036
2276.00,0.0036
2275.00,0.0036
2274.00,0.0035
2273.00,0.0035
2272.00,0.0034
2271.00,0.0034
2270.00,0.0033
2269.00,0.0033
2268.00,0.0032
2267.00,0.0032
2266.00,0.0031
2265.00,0.0032
2264.00,0.0032
2263.00,0.0033
2262.00,0.0034
2261.00,0.0034
2260.00,0.0034
2259.00,0.0034
2258.00,0.0033
2257.00,0.0031
2256.00,0.0029
2255.00,0.0028
2254.00,0.0027
2253.00,0.0028
2252.00,0.0028
2251.00,0.0029
2250.00,0.0029
2249.00,0.0029
2248.00,0.0029
2247.00,0.0030
2246.00,0.0030
2245.00,0.0029
2244.00,0.0029
2243.00,0.0029
2242.00,0.0029
2241.00,0.0029
2240.00,0.0030
2239.00,0.0030
2238.00,0.0030
2237.00,0.0030
2236.00,0.0030
2235.00,0.0030
2234.00,0.0030
2233.00,0.0030
2232.00,0.0030
2231.00,0.0030
2230.00,0.0030
2229.00,0.0030
2228.00,0.0030
2227.00,0.0030
2226.00,0.0030
2225.00,0.0030
2224.00,0.0030
2223.00,0.0030
2222.00,0.0030
2221.00,0.0030
2220.00,0.0030
2219.00,0.0029
2218.00,0.0028
2217.00,0.0027
2216.00,0.0026
2215.00,0.0025
2214.00,0.0025
2213.00,0.0026
2212.00,0.0026
2211.00,0.0026
2210.00,0.0026
2209.00,0.0026
2208.00,0.0026
2207.00,0.0027
2206.00,0.0027
2205.00,0.0028
2204.00,0.0029
2203.00,0.0029
2202.00,0.0029
2201.00,0.0029
2200.00,0.0030
2199.00,0.0031
2198.00,0.0031
2197.00,0.0031
2196.00,0.0031
2195.00,0.0030
2194.00,0.0029
2193.00,0.0028
2192.00,0.0028
2191.00,0.0029
2190.00,0.0029
2189.00,0.0030
2188.00,0.0030
2187.00,0.0031
2186.00,0.0031
2185.00,0.0030
2184.00,0.0028
2183.00,0.0026
2182.00,0.0024
2181.00,0.0025
2180.00,0.0026
2179.00,0.0026
2178.00,0.0026
2177.00,0.0025
2176.00,0.0024
2175.00,0.0025
2174.00,0.0026
2173.00,0.0028
2172.00,0.0030
2171.00,0.0033
2170.00,0.0035
2169.00,0.0036
2168.00,0.0037
2167.00,0.0036
2166.00,0.0036
2165.00,0.0036
2164.00,0.0036
2163.00,0.0034
2162.00,0.0029
2161.00,0.0019
2160.00,0.0007
2159.00,-0.0003
2158.00,-0.0008
2157.00,-0.0008
2156.00,-0.0006
2155.00,-0.0002
2154.00,0.0001
2153.00,0.0004
2152.00,0.0005
2151.00,0.0005
2150.00,0.0004
2149.00,0.0004
2148.00,0.0005
2147.00,0.0006
2146.00,0.0007
2145.00,0.0008
2144.00,0.0008
2143.00,0.0009
2142.00,0.0009
2141.00,0.0009
2140.00,0.0009
2139.00,0.0009
2138.00,0.0008
2137.00,0.0006
2136.00,0.0003
2135.00,0.0002
2134.00,0.0001
2133.00,0.0002
2132.00,0.0005
2131.00,0.0007
2130.00,0.0010
2129.00,0.0012
2128.00,0.0013
2127.00,0.0014
2126.00,0.0015
2125.00,0.0016
2124.00,0.0017
2123.00,0.0018
2122.00,0.0019
2121.00,0.0019
2120.00,0.0019
2119.00,0.0019
2118.00,0.0021
2117.00,0.0022
2116.00,0.0024
2115.00,0.0025
2114.00,0.0026
2113.00,0.0026
2112.00,0.0026
2111.00,0.0026
2110.00,0.0025
2109.00,0.0025
2108.00,0.0026
2107.00,0.0026
2106.00,0.0026
2105.00,0.0025
2104.00,0.0025
2103.00,0.0024
2102.00,0.0023
2101.00,0.0023
2100.00,0.0023
2099.00,0.0023
2098.00,0.0022
2097.00,0.0020
2096.00,0.0019
2095.00,0.0018
2094.00,0.0019
2093.00,0.0020
2092.00,0.0021
2091.00,0.0022
2090.00,0.0023
2089.00,0.0024
2088.00,0.0024
2087.00,0.0025
2086.00,0.0025
2085.00,0.0025
2084.00,0.0025
2083.00,0.0025
2082.00,0.0024
2081.00,0.0025
2080.00,0.0025
2079.00,0.0025
2078.00,0.0025
2077.00,0.0025
2076.00,0.0025
2075.00,0.0024
2074.00,0.0023
2073.00,0.0022
2072.00,0.0022
2071.00,0.0022
2070.00,0.0022
2069.00,0.0022
2068.00,0.0022
2067.00,0.0021
2066.00,0.0021
2065.00,0.0021
2064.00,0.0020
2063.00,0.0020
2062.00,0.0020
2061.00,0.0020
2060.00,0.0020
2059.00,0.0021
2058.00,0.0021
2057.00,0.0022
2056.00,0.0022
2055.00,0.0022
2054.00,0.0024
2053.00,0.0028
2052.00,0.0031
2051.00,0.0031
2050.00,0.0028
2049.00,0.0024
2048.00,0.0022
2047.00,0.0021
2046.00,0.0020
2045.00,0.0020
2044.00,0.0020
2043.00,0.0021
2042.00,0.0021
2041.00,0.0021
2040.00,0.0021
2039.00,0.0020
2038.00,0.0020
2037.00,0.0019
2036.00,0.0017
2035.00,0.0016
2034.00,0.0014
2033.00,0.0014
2032.00,0.0014
2031.00,0.0014
2030.00,0.0012
2029.00,0.0010
2028.00,0.0009
2027.00,0.0008
2026.00,0.0008
2025.00,0.0008
2024.00,0.0008
2023.00,0.0009
2022.00,0.0010
2021.00,0.0011
2020.00,0.0012
2019.00,0.0013
2018.00,0.0013
2017.00,0.0013
2016.00,0.0013
2015.00,0.0012
2014.00,0.0012
2013.00,0.0013
2012.00,0.0015
2011.00,0.0014
2010.00,0.0011
2009.00,0.0008
2008.00,0.0005
2007.00,0.0004
2006.00,0.0004
2005.00,0.0006
2004.00,0.0007
2003.00,0.0009
2002.00,0.0009
2001.00,0.0010
2000.00,0.0012
1999.00,0.0013
1998.00,0.0013
1997.00,0.0014
1996.00,0.0014
1995.00,0.0015
1994.00,0.0015
1993.00,0.0015
1992.00,0.0016
1991.00,0.0016
1990.00,0.0016
1989.00,0.0017
1988.00,0.0019
1987.00,0.0021
1986.00,0.0022
1985.00,0.0024
1984.00,0.0026
1983.00,0.0028
1982.00,0.0030
1981.00,0.0031
1980.00,0.0028
1979.00,0.0022
1978.00,0.0015
1977.00,0.0010
1976.00,0.0008
1975.00,0.0007
1974.00,0.0006
1973.00,0.0006
1972.00,0.0006
1971.00,0.0006
1970.00,0.0007
1969.00,0.0007
1968.00,0.0008
1967.00,0.0009
1966.00,0.0008
1965.00,0.0007
1964.00,0.0006
1963.00,0.0005
1962.00,0.0005
1961.00,0.0005
1960.00,0.0005
1959.00,0.0005
1958.00,0.0005
1957.00,0.0006
1956.00,0.0008
1955.00,0.0009
1954.00,0.0009
1953.00,0.0010
1952.00,0.0011
1951.00,0.0011
1950.00,0.0011
1949.00,0.0011
1948.00,0.0011
1947.00,0.0011
1946.00,0.0011
1945.00,0.0009
1944.00,0.0009
1943.00,0.0008
1942.00,0.0009
1941.00,0.0010
1940.00,0.0010
1939.00,0.0010
1938.00,0.0010
1937.00,0.0009
1936.00,0.0010
1935.00,0.0010
1934.00,0.0010
1933.00,0.0010
1932.00,0.0011
1931.00,0.0012
1930.00,0.0012
1929.00,0.0012
1928.00,0.0012
1927.00,0.0012
1926.00,0.0011
1925.00,0.0012
1924.00,0.0012
1923.00,0.0013
1922.00,0.0013
1921.00,0.0014
1920.00,0.0015
1919.00,0.0015
1918.00,0.0015
1917.00,0.0015
1916.00,0.0015
1915.00,0.0015
1914.00,0.0015
1913.00,0.0015
1912.00,0.0015
1911.00,0.0015
1910.00,0.0015
1909.00,0.0014
1908.00,0.0015
1907.00,0.0015
1906.00,0.0014
1905.00,0.0014
1904.00,0.0015
1903.00,0.0015
1902.00,0.0015
1901.00,0.0016
1900.00,0.0016
1899.00,0.0017
1898.00,0.0017
1897.00,0.0017
1896.00,0.0017
1895.00,0.0017
1894.00,0.0017
1893.00,0.0016
1892.00,0.0016
1891.00,0.0016
1890.00,0.0015
1889.00,0.0015
1888.00,0.0016
1887.00,0.0017
1886.00,0.0017
1885.00,0.0017
1884.00,0.0018
1883.00,0.0018
1882.00,0.0018
1881.00,0.0018
1880.00,0.0018
1879.00,0.0018
1878.00,0.0017
1877.00,0.0017
1876.00,0.0017
1875.00,0.0017
1874.00,0.0017
1873.00,0.0017
1872.00,0.0017
1871.00,0.0017
1870.00,0.0017
1869.00,0.0017
1868.00,0.0017
1867.00,0.0018
1866.00,0.0018
1865.00,0.0018
1864.00,0.0018
1863.00,0.0018
1862.00,0.0018
1861.00,0.0018
1860.00,0.0018
1859.00,0.0018
1858.00,0.0018
1857.00,0.0018
1856.00,0.0018
1855.00,0.0018
1854.00,0.0018
1853.00,0.0018
1852.00,0.0018
1851.00,0.0018
1850.00,0.0018
1849.00,0.0018
1848.00,0.0018
1847.00,0.0018
1846.00,0.0019
1845.00,0.0019
1844.00,0.0019
1843.00,0.0019
1842.00,0.0019
1841.00,0.0019
1840.00,0.0019
1839.00,0.0019
1838.00,0.0018
1837.00,0.0019
1836.00,0.0019
1835.00,0.0019
1834.00,0.0019
1833.00,0.0019
1832.00,0.0020
1831.00,0.0020
1830.00,0.0020
1829.00,0.0020
1828.00,0.0020
1827.00,0.0020
1826.00,0.0020
1825.00,0.0020
1824.00,0.0020
1823.00,0.0020
1822.00,0.0020
1821.00,0.0019
1820.00,0.0018
1819.00,0.0017
1818.00,0.0017
1817.00,0.0016
1816.00,0.0017
1815.00,0.0018
1814.00,0.0019
1813.00,0.0019
1812.00,0.0020
1811.00,0.0020
1810.00,0.0020
1809.00,0.0020
1808.00,0.0021
1807.00,0.0021
1806.00,0.0021
1805.00,0.0021
1804.00,0.0022
1803.00,0.0022
1802.00,0.0022
1801.00,0.0022
1800.00,0.0023
1799.00,0.0023
1798.00,0.0023
1797.00,0.0023
1796.00,0.0024
1795.00,0.0024
1794.00,0.0024
1793.00,0.0024
1792.00,0.0025
1791.00,0.0025
1790.00,0.0025
1789.00,0.0025
1788.00,0.0025
1787.00,0.0025
1786.00,0.0025
1785.00,0.0025
1784.00,0.0025
1783.00,0.0025
1782.00,0.0025
1781.00,0.0025
1780.00,0.0025
1779.00,0.0025
1778.00,0.0025
1777.00,0.0025
1776.00,0.0025
1775.00,0.0026
1774.00,0.0026
1773.00,0.0027
1772.00,0.0028
1771.00,0.0028
1770.00,0.0028
1769.00,0.0028
1768.00,0.0029
1767.00,0.0029
1766.00,0.0029
1765.00,0.0029
1764.00,0.0029
1763.00,0.0030
1762.00,0.0030
1761.00,0.0030
1760.00,0.0031
1759.00,0.0031
1758.00,0.0031
1757.00,0.0031
1756.00,0.0032
1755.00,0.0033
1754.00,0.0033
1753.00,0.0033
1752.00,0.0034
1751.00,0.0035
1750.00,0.0035
1749.00,0.0035
1748.00,0.0035
1747.00,0.0036
1746.00,0.0036
1745.00,0.0037
1744.00,0.0038
1743.00,0.0038
1742.00,0.0039
1741.00,0.0040
1740.00,0.0041
1739.00,0.0042
1738.00,0.0043
1737.00,0.0045
1736.00,0.0047
1735.00,0.0048
1734.00,0.0050
1733.00,0.0051
1732.00,0.0053
1731.00,0.0053
1730.00,0.0053
1729.00,0.0055
1728.00,0.0057
1727.00,0.0060
1726.00,0.0062
1725.00,0.0064
1724.00,0.0067
1723.00,0.0070
1722.00,0.0073
1721.00,0.0076
1720.00,0.0079
1719.00,0.0083
1718.00,0.0087
1717.00,0.0091
1716.00,0.0095
1715.00,0.0098
1714.00,0.0101
1713.00,0.0104
1712.00,0.0107
1711.00,0.0111
1710.00,0.0115
1709.00,0.0120
1708.00,0.0125
1707.00,0.0131
1706.00,0.0137
1705.00,0.0143
1704.00,0.0151
1703.00,0.0159
1702.00,0.0167
1701.00,0.0178
1700.00,0.0192
1699.00,0.0204
1698.00,0.0214
1697.00,0.0223
1696.00,0.0234
1695.00,0.0247
1694.00,0.0257
1693.00,0.0265
1692.00,0.0274
1691.00,0.0283
1690.00,0.0293
1689.00,0.0303
1688.00,0.0313
1687.00,0.0324
1686.00,0.0335
1685.00,0.0346
1684.00,0.0357
1683.00,0.0367
1682.00,0.0376
1681.00,0.0385
1680.00,0.0394
1679.00,0.0404
1678.00,0.0414
1677.00,0.0425
1676.00,0.0436
1675.00,0.0447
1674.00,0.0457
1673.00,0.0467
1672.00,0.0478
1671.00,0.0488
1670.00,0.0498
1669.00,0.0509
1668.00,0.0520
1667.00,0.0531
1666.00,0.0541
1665.00,0.0552
1664.00,0.0563
1663.00,0.0573
1662.00,0.0582
1661.00,0.0591
1660.00,0.0600
1659.00,0.0610
1658.00,0.0619
1657.00,0.0629
1656.00,0.0639
1655.00,0.0650
1654.00,0.0655
1653.00,0.0655
1652.00,0.0657
1651.00,0.0662
1650.00,0.0667
1649.00,0.0671
1648.00,0.0674
1647.00,0.0675
1646.00,0.0675
1645.00,0.0678
1644.00,0.0681
1643.00,0.0684
1642.00,0.0687
1641.00,0.0688
1640.00,0.0690
1639.00,0.0693
1638.00,0.0697
1637.00,0.0699
1636.00,0.0698
1635.00,0.0697
1634.00,0.0698
1633.00,0.0702
1632.00,0.0706
1631.00,0.0710
1630.00,0.0713
1629.00,0.0715
1628.00,0.0715
1627.00,0.0714
1626.00,0.0713
1625.00,0.0711
1624.00,0.0707
1623.00,0.0699
1622.00,0.0691
1621.00,0.0685
1620.00,0.0681
1619.00,0.0676
1618.00,0.0667
1617.00,0.0653
1616.00,0.0638
1615.00,0.0624
1614.00,0.0614
1613.00,0.0604
1612.00,0.0594
1611.00,0.0584
1610.00,0.0573
1609.00,0.0562
1608.00,0.0552
1607.00,0.0542
1606.00,0.0534
1605.00,0.0526
1604.00,0.0518
1603.00,0.0511
1602.00,0.0505
1601.00,0.0499
1600.00,0.0493
1599.00,0.0488
1598.00,0.0483
1597.00,0.0479
1596.00,0.0475
1595.00,0.0472
1594.00,0.0469
1593.00,0.0466
1592.00,0.0464
1591.00,0.0462
1590.00,0.0461
1589.00,0.0460
1588.00,0.0460
1587.00,0.0459
1586.00,0.0458
1585.00,0.0457
1584.00,0.0456
1583.00,0.0454
1582.00,0.0452
1581.00,0.0449
1580.00,0.0447
1579.00,0.0446
1578.00,0.0445
1577.00,0.0442
1576.00,0.0438
1575.00,0.0435
1574.00,0.0433
1573.00,0.0434
1572.00,0.0434
1571.00,0.0434
1570.00,0.0434
1569.00,0.0433
1568.00,0.0434
1567.00,0.0436
1566.00,0.0438
1565.00,0.0441
1564.00,0.0444
1563.00,0.0448
1562.00,0.0454
1561.00,0.0461
1560.00,0.0466
1559.00,0.0467
1558.00,0.0471
1557.00,0.0476
1556.00,0.0482
1555.00,0.0487
1554.00,0.0492
1553.00,0.0498
1552.00,0.0504
1551.00,0.0509
1550.00,0.0515
1549.00,0.0521
1548.00,0.0527
1547.00,0.0533
1546.00,0.0539
1545.00,0.0544
1544.00,0.0549
1543.00,0.0554
1542.00,0.0558
1541.00,0.0561
1540.00,0.0562
1539.00,0.0564
1538.00,0.0566
1537.00,0.0569
1536.00,0.0572
1535.00,0.0574
1534.00,0.0574
1533.00,0.0574
1532.00,0.0575
1531.00,0.0577
1530.00,0.0579
1529.00,0.0580
1528.00,0.0580
1527.00,0.0580
1526.00,0.0580
1525.00,0.0580
1524.00,0.0581
1523.00,0.0581
1522.00,0.0580
1521.00,0.0578
1520.00,0.0577
1519.00,0.0577
1518.00,0.0577
1517.00,0.0574
1516.00,0.0571
1515.00,0.0569
1514.00,0.0566
1513.00,0.0562
1512.00,0.0556
1511.00,0.0550
1510.00,0.0545
1509.00,0.0539
1508.00,0.0531
1507.00,0.0518
1506.00,0.0505
1505.00,0.0497
1504.00,0.0492
1503.00,0.0486
1502.00,0.0481
1501.00,0.0475
1500.00,0.0469
1499.00,0.0463
1498.00,0.0456
1497.00,0.0448
1496.00,0.0439
1495.00,0.0432
1494.00,0.0426
1493.00,0.0420
1492.00,0.0413
1491.00,0.0405
1490.00,0.0395
1489.00,0.0386
1488.00,0.0378
1487.00,0.0371
1486.00,0.0365
1485.00,0.0360
1484.00,0.0355
1483.00,0.0351
1482.00,0.0347
1481.00,0.0343
1480.00,0.0341
1479.00,0.0340
1478.00,0.0339
1477.00,0.0339
1476.00,0.0340
1475.00,0.0342
1474.00,0.0345
1473.00,0.0349
1472.00,0.0353
1471.00,0.0359
1470.00,0.0364
1469.00,0.0369
1468.00,0.0374
1467.00,0.0379
1466.00,0.0383
1465.00,0.0386
1464.00,0.0389
1463.00,0.0392
1462.00,0.0396
1461.00,0.0400
1460.00,0.0405
1459.00,0.0409
1458.00,0.0412
1457.00,0.0415
1456.00,0.0418
1455.00,0.0422
1454.00,0.0424
1453.00,0.0427
1452.00,0.0430
1451.00,0.0434
1450.00,0.0438
1449.00,0.0441
1448.00,0.0444
1447.00,0.0446
1446.00,0.0449
1445.00,0.0451
1444.00,0.0452
1443.00,0.0453
1442.00,0.0453
1441.00,0.0452
1440.00,0.0451
1439.00,0.0450
1438.00,0.0448
1437.00,0.0442
1436.00,0.0434
1435.00,0.0427
1434.00,0.0422
1433.00,0.0417
1432.00,0.0413
1431.00,0.0407
1430.00,0.0402
1429.00,0.0397
1428.00,0.0393
1427.00,0.0389
1426.00,0.0386
1425.00,0.0382
1424.00,0.0378
1423.00,0.0375
1422.00,0.0374
1421.00,0.0373
1420.00,0.0371
1419.00,0.0367
1418.00,0.0364
1417.00,0.0362
1416.00,0.0360
1415.00,0.0359
1414.00,0.0359
1413.00,0.0359
1412.00,0.0359
1411.00,0.0359
1410.00,0.0360
1409.00,0.0361
1408.00,0.0363
1407.00,0.0364
1406.00,0.0366
1405.00,0.0367
1404.00,0.0369
1403.00,0.0371
1402.00,0.0373
1401.00,0.0375
1400.00,0.0377
1399.00,0.0378
1398.00,0.0379
1397.00,0.0380
1396.00,0.0381
1395.00,0.0382
1394.00,0.0382
1393.00,0.0383
1392.00,0.0383
1391.00,0.0383
1390.00,0.0384
1389.00,0.0384
1388.00,0.0383
1387.00,0.0382
1386.00,0.0380
1385.00,0.0379
1384.00,0.0378
1383.00,0.0376
1382.00,0.0376
1381.00,0.0375
1380.00,0.0374
1379.00,0.0373
1378.00,0.0372
1377.00,0.0371
1376.00,0.0369
1375.00,0.0366
1374.00,0.0362
1373.00,0.0358
1372.00,0.0354
1371.00,0.0351
1370.00,0.0347
1369.00,0.0344
1368.00,0.0340
1367.00,0.0336
1366.00,0.0332
1365.00,0.0328
1364.00,0.0323
1363.00,0.0318
1362.00,0.0314
1361.00,0.0311
1360.00,0.0308
1359.00,0.0306
1358.00,0.0304
1357.00,0.0302
1356.00,0.0300
1355.00,0.0299
1354.00,0.0298
1353.00,0.0297
1352.00,0.0296
1351.00,0.0296
1350.00,0.0295
1349.00,0.0295
1348.00,0.0295
1347.00,0.0295
1346.00,0.0296
1345.00,0.0296
1344.00,0.0296
1343.00,0.0297
1342.00,0.0297
1341.00,0.0297
1340.00,0.0297
1339.00,0.0297
1338.00,0.0297
1337.00,0.0298
1336.00,0.0299
1335.00,0.0299
1334.00,0.0299
1333.00,0.0299
1332.00,0.0299
1331.00,0.0299
1330.00,0.0299
1329.00,0.0299
1328.00,0.0300
1327.00,0.0300
1326.00,0.0301
1325.00,0.0302
1324.00,0.0303
1323.00,0.0304
1322.00,0.0305
1321.00,0.0306
1320.00,0.0308
1319.00,0.0309
1318.00,0.0310
1317.00,0.0311
1316.00,0.0312
1315.00,0.0313
1314.00,0.0314
1313.00,0.0314
1312.00,0.0315
1311.00,0.0315
1310.00,0.0315
1309.00,0.0315
1308.00,0.0314
1307.00,0.0314
1306.00,0.0314
1305.00,0.0314
1304.00,0.0315
1303.00,0.0315
1302.00,0.0316
1301.00,0.0316
1300.00,0.0317
1299.00,0.0318
1298.00,0.0320
1297.00,0.0322
1296.00,0.0324
1295.00,0.0326
1294.00,0.0329
1293.00,0.0331
1292.00,0.0332
1291.00,0.0333
1290.00,0.0334
1289.00,0.0335
1288.00,0.0335
1287.00,0.0335
1286.00,0.0335
1285.00,0.0335
1284.00,0.0335
1283.00,0.0335
1282.00,0.0334
1281.00,0.0334
1280.00,0.0334
1279.00,0.0333
1278.00,0.0333
1277.00,0.0333
1276.00,0.0333
1275.00,0.0333
1274.00,0.0333
1273.00,0.0332
1272.00,0.0332
1271.00,0.0331
1270.00,0.0331
1269.00,0.0330
1268.00,0.0330
1267.00,0.0330
1266.00,0.0330
1265.00,0.0330
1264.00,0.0331
1263.00,0.0332
1262.00,0.0334
1261.00,0.0335
1260.00,0.0338
1259.00,0.0340
1258.00,0.0343
1257.00,0.0346
1256.00,0.0350
1255.00,0.0353
1254.00,0.0357
1253.00,0.0361
1252.00,0.0365
1251.00,0.0370
1250.00,0.0374
1249.00,0.0378
1248.00,0.0381
1247.00,0.0386
1246.00,0.0390
1245.00,0.0394
1244.00,0.0398
1243.00,0.0402
1242.00,0.0405
1241.00,0.0409
1240.00,0.0412
1239.00,0.0414
1238.00,0.0416
1237.00,0.0417
1236.00,0.0418
1235.00,0.0418
1234.00,0.0417
1233.00,0.0416
1232.00,0.0415
1231.00,0.0414
1230.00,0.0413
1229.00,0.0412
1228.00,0.0411
1227.00,0.0410
1226.00,0.0409
1225.00,0.0408
1224.00,0.0407
1223.00,0.0406
1222.00,0.0404
1221.00,0.0402
1220.00,0.0399
1219.00,0.0397
1218.00,0.0395
1217.00,0.0392
1216.00,0.0389
1215.00,0.0385
1214.00,0.0381
1213.00,0.0377
1212.00,0.0371
1211.00,0.0366
1210.00,0.0360
1209.00,0.0356
1208.00,0.0351
1207.00,0.0346
1206.00,0.0342
1205.00,0.0338
1204.00,0.0334
1203.00,0.0330
1202.00,0.0326
1201.00,0.0321
1200.00,0.0316
1199.00,0.0311
1198.00,0.0306
1197.00,0.0301
1196.00,0.0296
1195.00,0.0292
1194.00,0.0288
1193.00,0.0284
1192.00,0.0281
1191.00,0.0279
1190.00,0.0276
1189.00,0.0274
1188.00,0.0272
1187.00,0.0271
1186.00,0.0270
1185.00,0.0269
1184.00,0.0269
1183.00,0.0269
1182.00,0.0270
1181.00,0.0271
1180.00,0.0272
1179.00,0.0274
1178.00,0.0277
1177.00,0.0279
1176.00,0.0283
1175.00,0.0286
1174.00,0.0289
1173.00,0.0292
1172.00,0.0294
1171.00,0.0296
1170.00,0.0297
1169.00,0.0298
1168.00,0.0299
1167.00,0.0300
1166.00,0.0302
1165.00,0.0304
1164.00,0.0306
1163.00,0.0309
1162.00,0.0311
1161.00,0.0313
1160.00,0.0315
1159.00,0.0316
1158.00,0.0318
1157.00,0.0320
1156.00,0.0322
1155.00,0.0323
1154.00,0.0325
1153.00,0.0326
1152.00,0.0327
1151.00,0.0327
1150.00,0.0326
1149.00,0.0324
1148.00,0.0320
1147.00,0.0315
1146.00,0.0310
1145.00,0.0305
1144.00,0.0300
1143.00,0.0295
1142.00,0.0292
1141.00,0.0289
1140.00,0.0287
1139.00,0.0286
1138.00,0.0285
1137.00,0.0285
1136.00,0.0286
1135.00,0.0287
1134.00,0.0288
1133.00,0.0289
1132.00,0.0291
1131.00,0.0293
1130.00,0.0294
1129.00,0.0296
1128.00,0.0298
1127.00,0.0300
1126.00,0.0302
1125.00,0.0303
1124.00,0.0304
1123.00,0.0306
1122.00,0.0307
1121.00,0.0309
1120.00,0.0310
1119.00,0.0312
1118.00,0.0313
1117.00,0.0316
1116.00,0.0318
1115.00,0.0321
1114.00,0.0324
1113.00,0.0327
1112.00,0.0330
1111.00,0.0333
1110.00,0.0336
1109.00,0.0339
1108.00,0.0342
1107.00,0.0345
1106.00,0.0348
1105.00,0.0351
1104.00,0.0354
1103.00,0.0357
1102.00,0.0359
1101.00,0.0361
1100.00,0.0364
1099.00,0.0366
1098.00,0.0369
1097.00,0.0372
1096.00,0.0375
1095.00,0.0378
1094.00,0.0381
1093.00,0.0383
1092.00,0.0386
1091.00,0.0389
1090.00,0.0392
1089.00,0.0395
1088.00,0.0399
1087.00,0.0403
1086.00,0.0407
1085.00,0.0410
1084.00,0.0413
1083.00,0.0416
1082.00,0.0418
1081.00,0.0419
1080.00,0.0420
1079.00,0.0419
1078.00,0.0418
1077.00,0.0417
1076.00,0.0415
1075.00,0.0413
1074.00,0.0410
1073.00,0.0408
1072.00,0.0406
1071.00,0.0404
1070.00,0.0403
1069.00,0.0403
1068.00,0.0403
1067.00,0.0403
1066.00,0.0403
1065.00,0.0404
1064.00,0.0405
1063.00,0.0407
1062.00,0.0410
1061.00,0.0413
1060.00,0.0416
1059.00,0.0420
1058.00,0.0425
1057.00,0.0431
1056.00,0.0436
1055.00,0.0441
1054.00,0.0446
1053.00,0.0449
1052.00,0.0450
1051.00,0.0449
1050.00,0.0447
1049.00,0.0444
1048.00,0.0440
1047.00,0.0437
1046.00,0.0434
1045.00,0.0431
1044.00,0.0429
1043.00,0.0427
1042.00,0.0426
1041.00,0.0425
1040.00,0.0425
1039.00,0.0425
1038.00,0.0426
1037.00,0.0429
1036.00,0.0431
1035.00,0.0435
1034.00,0.0439
1033.00,0.0444
1032.00,0.0449
1031.00,0.0453
1030.00,0.0457
1029.00,0.0460
1028.00,0.0462
1027.00,0.0463
1026.00,0.0462
1025.00,0.0460
1024.00,0.0457
1023.00,0.0453
1022.00,0.0449
1021.00,0.0444
1020.00,0.0440
1019.00,0.0436
1018.00,0.0432
1017.00,0.0427
1016.00,0.0421
1015.00,0.0415
1014.00,0.0409
1013.00,0.0402
1012.00,0.0395
1011.00,0.0390
1010.00,0.0385
1009.00,0.0380
1008.00,0.0375
1007.00,0.0371
1006.00,0.0368
1005.00,0.0364
1004.00,0.0361
1003.00,0.0358
1002.00,0.0354
1001.00,0.0350
1000.00,0.0346
999.00,0.0342
998.00,0.0338
997.00,0.0333
996.00,0.0328
995.00,0.0323
994.00,0.0318
993.00,0.0313
992.00,0.0308
991.00,0.0304
990.00,0.0299
989.00,0.0294
988.00,0.0290
987.00,0.0286
986.00,0.0282
985.00,0.0278
984.00,0.0274
983.00,0.0271
982.00,0.0267
981.00,0.0265
980.00,0.0263
979.00,0.0262
978.00,0.0262
977.00,0.0262
976.00,0.0263
975.00,0.0264
974.00,0.0265
973.00,0.0266
972.00,0.0268
971.00,0.0270
970.00,0.0272
969.00,0.0274
968.00,0.0275
967.00,0.0277
966.00,0.0278
965.00,0.0279
964.00,0.0280
963.00,0.0281
962.00,0.0282
961.00,0.0281
960.00,0.0281
959.00,0.0280
958.00,0.0278
957.00,0.0277
956.00,0.0275
955.00,0.0273
954.00,0.0271
953.00,0.0270
952.00,0.0268
951.00,0.0266
950.00,0.0263
949.00,0.0260
948.00,0.0258
947.00,0.0256
946.00,0.0254
945.00,0.0252
944.00,0.0251
943.00,0.0250
942.00,0.0248
941.00,0.0248
940.00,0.0247
939.00,0.0248
938.00,0.0248
937.00,0.0249
936.00,0.0249
935.00,0.0250
934.00,0.0251
933.00,0.0251
932.00,0.0250
931.00,0.0249
930.00,0.0249
929.00,0.0248
928.00,0.0248
927.00,0.0247
926.00,0.0247
925.00,0.0247
924.00,0.0246
923.00,0.0245
922.00,0.0243
921.00,0.0242
920.00,0.0242
919.00,0.0241
918.00,0.0240
917.00,0.0239
916.00,0.0238
915.00,0.0237
914.00,0.0236
913.00,0.0234
912.00,0.0233
911.00,0.0231
910.00,0.0230
909.00,0.0230
908.00,0.0230
907.00,0.0230
906.00,0.0231
905.00,0.0233
904.00,0.0235
903.00,0.0237
902.00,0.0239
901.00,0.0241
900.00,0.0243
899.00,0.0245
898.00,0.0247
897.00,0.0249
896.00,0.0252
895.00,0.0254
894.00,0.0256
893.00,0.0257
892.00,0.0258
891.00,0.0259
890.00,0.0260
889.00,0.0261
888.00,0.0263
887.00,0.0263
886.00,0.0264
885.00,0.0264
884.00,0.0263
883.00,0.0262
882.00,0.0260
881.00,0.0257
880.00,0.0254
879.00,0.0250
878.00,0.0246
877.00,0.0244
876.00,0.0241
875.00,0.0240
874.00,0.0239
873.00,0.0238
872.00,0.0238
871.00,0.0238
870.00,0.0239
869.00,0.0240
868.00,0.0242
867.00,0.0244
866.00,0.0246
865.00,0.0249
864.00,0.0251
863.00,0.0252
862.00,0.0253
861.00,0.0254
860.00,0.0255
859.00,0.0256
858.00,0.0257
857.00,0.0258
856.00,0.0259
855.00,0.0261
854.00,0.0263
853.00,0.0264
852.00,0.0266
851.00,0.0267
850.00,0.0268
849.00,0.0269
848.00,0.0269
847.00,0.0270
846.00,0.0271
845.00,0.0271
844.00,0.0272
843.00,0.0273
842.00,0.0273
841.00,0.0274
840.00,0.0276
839.00,0.0277
838.00,0.0279
837.00,0.0280
836.00,0.0283
835.00,0.0285
834.00,0.0288
833.00,0.0290
832.00,0.0292
831.00,0.0293
830.00,0.0294
829.00,0.0294
828.00,0.0295
827.00,0.0295
826.00,0.0294
825.00,0.0294
824.00,0.0293
823.00,0.0293
822.00,0.0292
821.00,0.0292
820.00,0.0292
819.00,0.0293
818.00,0.0294
817.00,0.0294
816.00,0.0294
815.00,0.0294
814.00,0.0293
813.00,0.0293
812.00,0.0292
811.00,0.0292
810.00,0.0292
809.00,0.0293
808.00,0.0294
807.00,0.0295
806.00,0.0297
805.00,0.0300
804.00,0.0302
803.00,0.0304
802.00,0.0305
801.00,0.0306
800.00,0.0306
799.00,0.0307
798.00,0.0308
797.00,0.0309
796.00,0.0310
795.00,0.0312
794.00,0.0313
793.00,0.0315
792.00,0.0317
791.00,0.0319
790.00,0.0321
789.00,0.0324
788.00,0.0327
787.00,0.0330
786.00,0.0333
785.00,0.0336
784.00,0.0339
783.00,0.0341
782.00,0.0344
781.00,0.0346
780.00,0.0347
779.00,0.0347
778.00,0.0347
777.00,0.0346
776.00,0.0345
775.00,0.0343
774.00,0.0342
773.00,0.0341
772.00,0.0341
771.00,0.0341
770.00,0.0342
769.00,0.0344
768.00,0.0346
767.00,0.0347
766.00,0.0348
765.00,0.0349
764.00,0.0350
763.00,0.0351
762.00,0.0352
761.00,0.0353
760.00,0.0355
759.00,0.0356
758.00,0.0358
757.00,0.0360
756.00,0.0362
755.00,0.0364
754.00,0.0366
753.00,0.0367
752.00,0.0369
751.00,0.0371
750.00,0.0374
749.00,0.0376
748.00,0.0378
747.00,0.0380
746.00,0.0380
745.00,0.0381
744.00,0.0381
743.00,0.0382
742.00,0.0383
741.00,0.0384
740.00,0.0385
739.00,0.0386
738.00,0.0387
737.00,0.0388
736.00,0.0390
735.00,0.0392
734.00,0.0394
733.00,0.0397
732.00,0.0399
731.00,0.0402
730.00,0.0403
729.00,0.0405
728.00,0.0407
727.00,0.0408
726.00,0.0410
725.00,0.0412
724.00,0.0414
723.00,0.0416
722.00,0.0418
721.00,0.0420
720.00,0.0423
719.00,0.0425
718.00,0.0428
717.00,0.0430
716.00,0.0432
715.00,0.0435
714.00,0.0437
713.00,0.0440
712.00,0.0443
711.00,0.0446
710.00,0.0449
709.00,0.0452
708.00,0.0456
707.00,0.0459
706.00,0.0463
705.00,0.0467
704.00,0.0470
703.00,0.0473
702.00,0.0476
701.00,0.0479
700.00,0.0481
699.00,0.0483
698.00,0.0485
697.00,0.0486
696.00,0.0487
695.00,0.0488
694.00,0.0488
693.00,0.0488
692.00,0.0488
691.00,0.0488
690.00,0.0489
689.00,0.0490
688.00,0.0492
687.00,0.0493
686.00,0.0495
685.00,0.0497
684.00,0.0498
683.00,0.0500
682.00,0.0502
681.00,0.0504
680.00,0.0506
679.00,0.0509
678.00,0.0511
677.00,0.0513
676.00,0.0515
675.00,0.0517
674.00,0.0519
673.00,0.0521
672.00,0.0524
671.00,0.0526
670.00,0.0530
669.00,0.0534
668.00,0.0538
667.00,0.0540
666.00,0.0541
665.00,0.0542
664.00,0.0544
663.00,0.0546
662.00,0.0548
661.00,0.0550
660.00,0.0552
659.00,0.0554
658.00,0.0555
657.00,0.0556
656.00,0.0558
655.00,0.0559
654.00,0.0561
653.00,0.0563
652.00,0.0565
651.00,0.0566
650.00,0.0568
649.00,0.0569
648.00,0.0571
647.00,0.0572
646.00,0.0573
645.00,0.0573
644.00,0.0574
643.00,0.0575
642.00,0.0576
641.00,0.0577
640.00,0.0577
639.00,0.0578
638.00,0.0578
637.00,0.0579
636.00,0.0579
635.00,0.0579
634.00,0.0580
633.00,0.0581
632.00,0.0583
631.00,0.0584
630.00,0.0585
629.00,0.0586
628.00,0.0589
627.00,0.0591
626.00,0.0593
625.00,0.0595
624.00,0.0597
623.00,0.0599
622.00,0.0601
621.00,0.0603
620.00,0.0605
619.00,0.0606
618.00,0.0607
617.00,0.0608
616.00,0.0610
615.00,0.0612
614.00,0.0614
613.00,0.0615
612.00,0.0617
611.00,0.0619
610.00,0.0621
609.00,0.0622
608.00,0.0625
607.00,0.0627
606.00,0.0629
605.00,0.0630
604.00,0.0632
603.00,0.0634
602.00,0.0637
601.00,0.0640
600.00,0.0643
599.00,0.0647
598.00,0.0650
597.00,0.0652
596.00,0.0655
595.00,0.0657
594.00,0.0660
593.00,0.0663
592.00,0.0666
591.00,0.0669
590.00,0.0670
589.00,0.0673
588.00,0.0675
587.00,0.0678
586.00,0.0680
585.00,0.0681
584.00,0.0683
583.00,0.0685
582.00,0.0687
581.00,0.0688
580.00,0.0690
579.00,0.0691
578.00,0.0692
577.00,0.0694
576.00,0.0694
575.00,0.0695
574.00,0.0694
573.00,0.0694
572.00,0.0694
571.00,0.0694
570.00,0.0694
569.00,0.0694
568.00,0.0693
567.00,0.0692
566.00,0.0691
565.00,0.0691
564.00,0.0692
563.00,0.0692
562.00,0.0692
561.00,0.0692
560.00,0.0692
559.00,0.0693
558.00,0.0694
557.00,0.0696
556.00,0.0699
555.00,0.0702
554.00,0.0704
553.00,0.0706
552.00,0.0708
551.00,0.0709
550.00,0.0710
549.00,0.0712
548.00,0.0715
547.00,0.0718
546.00,0.0719
545.00,0.0719
544.00,0.0719
543.00,0.0721
542.00,0.0724
541.00,0.0727
540.00,0.0731
539.00,0.0734
538.00,0.0736
537.00,0.0737
536.00,0.0738
535.00,0.0740
534.00,0.0742
533.00,0.0745
532.00,0.0748
531.00,0.0751
530.00,0.0752
529.00,0.0752
528.00,0.0752
527.00,0.0753
526.00,0.0754
525.00,0.0755
524.00,0.0755
523.00,0.0756
522.00,0.0756
521.00,0.0757
520.00,0.0757
519.00,0.0756
518.00,0.0754
517.00,0.0753
516.00,0.0752
515.00,0.0749
514.00,0.0746
513.00,0.0743
512.00,0.0741
511.00,0.0740
510.00,0.0740
509.00,0.0740
508.00,0.0739
507.00,0.0738
506.00,0.0737
505.00,0.0737
504.00,0.0736
503.00,0.0734
502.00,0.0732
501.00,0.0732
500.00,0.0732
499.00,0.0733
498.00,0.0733
497.00,0.0733
496.00,0.0733
495.00,0.0732
494.00,0.0733
493.00,0.0734
492.00,0.0736
491.00,0.0737
490.00,0.0737
489.00,0.0735
488.00,0.0732
487.00,0.0730
486.00,0.0730
485.00,0.0732
484.00,0.0733
483.00,0.0732
482.00,0.0729
481.00,0.0726
480.00,0.0724
479.00,0.0721
478.00,0.0718
477.00,0.0716
476.00,0.0715
475.00,0.0716
474.00,0.0716
473.00,0.0716
472.00,0.0715
471.00,0.0715
470.00,0.0714
469.00,0.0714
468.00,0.0713
467.00,0.0711
466.00,0.0710
465.00,0.0711
464.00,0.0713
463.00,0.0715
462.00,0.0715
461.00,0.0713
460.00,0.0710
459.00,0.0705
458.00,0.0700
457.00,0.0699
456.00,0.0701
455.00,0.0703
454.00,0.0701
453.00,0.0698
452.00,0.0696
451.00,0.0695
450.00,0.0694
449.00,0.0694
448.00,0.0693
447.00,0.0692
446.00,0.0690
445.00,0.0688
444.00,0.0687
443.00,0.0686
442.00,0.0686
441.00,0.0687
440.00,0.0689
439.00,0.0690
438.00,0.0689
437.00,0.0689
436.00,0.0693
435.00,0.0699
434.00,0.0704
433.00,0.0709
432.00,0.0714
431.00,0.0717
430.00,0.0715
429.00,0.0712
428.00,0.0711
427.00,0.0713
426.00,0.0715
425.00,0.0718
424.00,0.0721
423.00,0.0724
422.00,0.0725
421.00,0.0723
420.00,0.0719
419.00,0.0712
418.00,0.0707
417.00,0.0708
416.00,0.0711
415.00,0.0713
414.00,0.0712
413.00,0.0711
412.00,0.0715
411.00,0.0722
410.00,0.0725
409.00,0.0723
408.00,0.0716
407.00,0.0708
406.00,0.0701
405.00,0.0697
404.00,0.0694
403.00,0.0690
402.00,0.0686
401.00,0.0687
400.00,0.0691
