Created as New Dataset,Sample 718 By YargerLab Date Tuesday, June 24 2025
cm-1,A
4000.00,0.0058
3999.00,0.0058
3998.00,0.0058
3997.00,0.0058
3996.00,0.0058
3995.00,0.0058
3994.00,0.0058
3993.00,0.0058
3992.00,0.0058
3991.00,0.0058
3990.00,0.0058
3989.00,0.0058
3988.00,0.0058
3987.00,0.0058
3986.00,0.0058
3985.00,0.0057
3984.00,0.0057
3983.00,0.0057
3982.00,0.0057
3981.00,0.0057
3980.00,0.0057
3979.00,0.0058
3978.00,0.0058
3977.00,0.0058
3976.00,0.0058
3975.00,0.0058
3974.00,0.0058
3973.00,0.0058
3972.00,0.0058
3971.00,0.0058
3970.00,0.0058
3969.00,0.0058
3968.00,0.0058
3967.00,0.0058
3966.00,0.0058
3965.00,0.0058
3964.00,0.0058
3963.00,0.0058
3962.00,0.0058
3961.00,0.0058
3960.00,0.0058
3959.00,0.0058
3958.00,0.0058
3957.00,0.0058
3956.00,0.0058
3955.00,0.0058
3954.00,0.0058
3953.00,0.0058
3952.00,0.0058
3951.00,0.0058
3950.00,0.0058
3949.00,0.0058
3948.00,0.0058
3947.00,0.0058
3946.00,0.0058
3945.00,0.0058
3944.00,0.0058
3943.00,0.0058
3942.00,0.0058
3941.00,0.0058
3940.00,0.0058
3939.00,0.0058
3938.00,0.0058
3937.00,0.0058
3936.00,0.0058
3935.00,0.0058
3934.00,0.0058
3933.00,0.0058
3932.00,0.0058
3931.00,0.0058
3930.00,0.0058
3929.00,0.0058
3928.00,0.0058
3927.00,0.0058
3926.00,0.0058
3925.00,0.0058
3924.00,0.0058
3923.00,0.0058
3922.00,0.0058
3921.00,0.0058
3920.00,0.0058
3919.00,0.0058
3918.00,0.0058
3917.00,0.0058
3916.00,0.0058
3915.00,0.0058
3914.00,0.0057
3913.00,0.0057
3912.00,0.0057
3911.00,0.0057
3910.00,0.0057
3909.00,0.0057
3908.00,0.0057
3907.00,0.0057
3906.00,0.0057
3905.00,0.0057
3904.00,0.0057
3903.00,0.0057
3902.00,0.0057
3901.00,0.0056
3900.00,0.0056
3899.00,0.0056
3898.00,0.0056
3897.00,0.0056
3896.00,0.0056
3895.00,0.0056
3894.00,0.0056
3893.00,0.0056
3892.00,0.0056
3891.00,0.0056
3890.00,0.0056
3889.00,0.0056
3888.00,0.0056
3887.00,0.0056
3886.00,0.0056
3885.00,0.0056
3884.00,0.0055
3883.00,0.0055
3882.00,0.0055
3881.00,0.0055
3880.00,0.0055
3879.00,0.0056
3878.00,0.0055
3877.00,0.0055
3876.00,0.0055
3875.00,0.0055
3874.00,0.0055
3873.00,0.0055
3872.00,0.0056
3871.00,0.0056
3870.00,0.0056
3869.00,0.0055
3868.00,0.0055
3867.00,0.0055
3866.00,0.0055
3865.00,0.0055
3864.00,0.0055
3863.00,0.0055
3862.00,0.0055
3861.00,0.0055
3860.00,0.0055
3859.00,0.0056
3858.00,0.0056
3857.00,0.0056
3856.00,0.0056
3855.00,0.0056
3854.00,0.0056
3853.00,0.0056
3852.00,0.0056
3851.00,0.0056
3850.00,0.0056
3849.00,0.0055
3848.00,0.0055
3847.00,0.0055
3846.00,0.0055
3845.00,0.0055
3844.00,0.0055
3843.00,0.0055
3842.00,0.0055
3841.00,0.0055
3840.00,0.0055
3839.00,0.0056
3838.00,0.0056
3837.00,0.0056
3836.00,0.0056
3835.00,0.0055
3834.00,0.0055
3833.00,0.0055
3832.00,0.0055
3831.00,0.0055
3830.00,0.0055
3829.00,0.0055
3828.00,0.0055
3827.00,0.0055
3826.00,0.0055
3825.00,0.0055
3824.00,0.0054
3823.00,0.0054
3822.00,0.0054
3821.00,0.0054
3820.00,0.0054
3819.00,0.0054
3818.00,0.0054
3817.00,0.0054
3816.00,0.0054
3815.00,0.0054
3814.00,0.0054
3813.00,0.0054
3812.00,0.0054
3811.00,0.0054
3810.00,0.0054
3809.00,0.0054
3808.00,0.0054
3807.00,0.0054
3806.00,0.0054
3805.00,0.0054
3804.00,0.0054
3803.00,0.0054
3802.00,0.0054
3801.00,0.0054
3800.00,0.0054
3799.00,0.0054
3798.00,0.0054
3797.00,0.0054
3796.00,0.0054
3795.00,0.0054
3794.00,0.0054
3793.00,0.0054
3792.00,0.0054
3791.00,0.0054
3790.00,0.0054
3789.00,0.0054
3788.00,0.0054
3787.00,0.0054
3786.00,0.0054
3785.00,0.0055
3784.00,0.0055
3783.00,0.0055
3782.00,0.0055
3781.00,0.0054
3780.00,0.0054
3779.00,0.0054
3778.00,0.0054
3777.00,0.0054
3776.00,0.0054
3775.00,0.0054
3774.00,0.0054
3773.00,0.0054
3772.00,0.0054
3771.00,0.0054
3770.00,0.0054
3769.00,0.0054
3768.00,0.0054
3767.00,0.0054
3766.00,0.0054
3765.00,0.0054
3764.00,0.0054
3763.00,0.0054
3762.00,0.0054
3761.00,0.0054
3760.00,0.0054
3759.00,0.0054
3758.00,0.0054
3757.00,0.0054
3756.00,0.0054
3755.00,0.0054
3754.00,0.0054
3753.00,0.0054
3752.00,0.0054
3751.00,0.0054
3750.00,0.0054
3749.00,0.0054
3748.00,0.0054
3747.00,0.0054
3746.00,0.0054
3745.00,0.0054
3744.00,0.0053
3743.00,0.0053
3742.00,0.0053
3741.00,0.0053
3740.00,0.0053
3739.00,0.0053
3738.00,0.0053
3737.00,0.0053
3736.00,0.0053
3735.00,0.0053
3734.00,0.0053
3733.00,0.0053
3732.00,0.0053
3731.00,0.0053
3730.00,0.0053
3729.00,0.0053
3728.00,0.0053
3727.00,0.0053
3726.00,0.0053
3725.00,0.0053
3724.00,0.0053
3723.00,0.0053
3722.00,0.0053
3721.00,0.0053
3720.00,0.0053
3719.00,0.0052
3718.00,0.0052
3717.00,0.0052
3716.00,0.0052
3715.00,0.0052
3714.00,0.0052
3713.00,0.0052
3712.00,0.0052
3711.00,0.0052
3710.00,0.0052
3709.00,0.0052
3708.00,0.0052
3707.00,0.0052
3706.00,0.0051
3705.00,0.0051
3704.00,0.0051
3703.00,0.0051
3702.00,0.0051
3701.00,0.0051
3700.00,0.0052
3699.00,0.0052
3698.00,0.0051
3697.00,0.0051
3696.00,0.0051
3695.00,0.0051
3694.00,0.0051
3693.00,0.0050
3692.00,0.0050
3691.00,0.0051
3690.00,0.0051
3689.00,0.0051
3688.00,0.0052
3687.00,0.0052
3686.00,0.0052
3685.00,0.0052
3684.00,0.0052
3683.00,0.0051
3682.00,0.0051
3681.00,0.0051
3680.00,0.0051
3679.00,0.0051
3678.00,0.0051
3677.00,0.0051
3676.00,0.0052
3675.00,0.0052
3674.00,0.0053
3673.00,0.0053
3672.00,0.0052
3671.00,0.0052
3670.00,0.0052
3669.00,0.0052
3668.00,0.0052
3667.00,0.0052
3666.00,0.0052
3665.00,0.0052
3664.00,0.0052
3663.00,0.0052
3662.00,0.0052
3661.00,0.0052
3660.00,0.0053
3659.00,0.0053
3658.00,0.0053
3657.00,0.0053
3656.00,0.0053
3655.00,0.0054
3654.00,0.0054
3653.00,0.0054
3652.00,0.0053
3651.00,0.0053
3650.00,0.0053
3649.00,0.0053
3648.00,0.0053
3647.00,0.0054
3646.00,0.0054
3645.00,0.0054
3644.00,0.0054
3643.00,0.0054
3642.00,0.0054
3641.00,0.0054
3640.00,0.0054
3639.00,0.0054
3638.00,0.0054
3637.00,0.0054
3636.00,0.0054
3635.00,0.0054
3634.00,0.0054
3633.00,0.0053
3632.00,0.0053
3631.00,0.0053
3630.00,0.0053
3629.00,0.0053
3628.00,0.0053
3627.00,0.0054
3626.00,0.0054
3625.00,0.0054
3624.00,0.0053
3623.00,0.0053
3622.00,0.0053
3621.00,0.0053
3620.00,0.0054
3619.00,0.0054
3618.00,0.0054
3617.00,0.0054
3616.00,0.0054
3615.00,0.0054
3614.00,0.0055
3613.00,0.0055
3612.00,0.0055
3611.00,0.0055
3610.00,0.0054
3609.00,0.0054
3608.00,0.0054
3607.00,0.0054
3606.00,0.0054
3605.00,0.0054
3604.00,0.0054
3603.00,0.0054
3602.00,0.0054
3601.00,0.0054
3600.00,0.0054
3599.00,0.0055
3598.00,0.0055
3597.00,0.0055
3596.00,0.0055
3595.00,0.0054
3594.00,0.0054
3593.00,0.0054
3592.00,0.0054
3591.00,0.0054
3590.00,0.0054
3589.00,0.0054
3588.00,0.0055
3587.00,0.0055
3586.00,0.0055
3585.00,0.0054
3584.00,0.0054
3583.00,0.0054
3582.00,0.0054
3581.00,0.0054
3580.00,0.0054
3579.00,0.0054
3578.00,0.0055
3577.00,0.0055
3576.00,0.0055
3575.00,0.0055
3574.00,0.0055
3573.00,0.0055
3572.00,0.0056
3571.00,0.0056
3570.00,0.0056
3569.00,0.0056
3568.00,0.0056
3567.00,0.0056
3566.00,0.0056
3565.00,0.0056
3564.00,0.0056
3563.00,0.0056
3562.00,0.0056
3561.00,0.0056
3560.00,0.0056
3559.00,0.0057
3558.00,0.0057
3557.00,0.0057
3556.00,0.0058
3555.00,0.0058
3554.00,0.0058
3553.00,0.0059
3552.00,0.0059
3551.00,0.0059
3550.00,0.0059
3549.00,0.0059
3548.00,0.0059
3547.00,0.0059
3546.00,0.0059
3545.00,0.0059
3544.00,0.0060
3543.00,0.0060
3542.00,0.0060
3541.00,0.0060
3540.00,0.0060
3539.00,0.0060
3538.00,0.0060
3537.00,0.0060
3536.00,0.0060
3535.00,0.0060
3534.00,0.0061
3533.00,0.0061
3532.00,0.0061
3531.00,0.0061
3530.00,0.0062
3529.00,0.0062
3528.00,0.0062
3527.00,0.0062
3526.00,0.0062
3525.00,0.0062
3524.00,0.0062
3523.00,0.0062
3522.00,0.0062
3521.00,0.0062
3520.00,0.0063
3519.00,0.0063
3518.00,0.0063
3517.00,0.0063
3516.00,0.0063
3515.00,0.0063
3514.00,0.0064
3513.00,0.0064
3512.00,0.0064
3511.00,0.0064
3510.00,0.0065
3509.00,0.0065
3508.00,0.0065
3507.00,0.0065
3506.00,0.0066
3505.00,0.0066
3504.00,0.0066
3503.00,0.0066
3502.00,0.0067
3501.00,0.0067
3500.00,0.0067
3499.00,0.0068
3498.00,0.0068
3497.00,0.0068
3496.00,0.0068
3495.00,0.0069
3494.00,0.0069
3493.00,0.0070
3492.00,0.0070
3491.00,0.0071
3490.00,0.0071
3489.00,0.0071
3488.00,0.0072
3487.00,0.0072
3486.00,0.0072
3485.00,0.0073
3484.00,0.0073
3483.00,0.0074
3482.00,0.0074
3481.00,0.0075
3480.00,0.0076
3479.00,0.0076
3478.00,0.0077
3477.00,0.0078
3476.00,0.0078
3475.00,0.0079
3474.00,0.0080
3473.00,0.0080
3472.00,0.0081
3471.00,0.0081
3470.00,0.0081
3469.00,0.0082
3468.00,0.0083
3467.00,0.0084
3466.00,0.0085
3465.00,0.0086
3464.00,0.0087
3463.00,0.0088
3462.00,0.0089
3461.00,0.0090
3460.00,0.0091
3459.00,0.0091
3458.00,0.0092
3457.00,0.0093
3456.00,0.0094
3455.00,0.0095
3454.00,0.0095
3453.00,0.0096
3452.00,0.0096
3451.00,0.0097
3450.00,0.0097
3449.00,0.0098
3448.00,0.0098
3447.00,0.0098
3446.00,0.0099
3445.00,0.0099
3444.00,0.0099
3443.00,0.0099
3442.00,0.0099
3441.00,0.0099
3440.00,0.0099
3439.00,0.0098
3438.00,0.0098
3437.00,0.0098
3436.00,0.0097
3435.00,0.0097
3434.00,0.0097
3433.00,0.0097
3432.00,0.0096
3431.00,0.0096
3430.00,0.0096
3429.00,0.0095
3428.00,0.0095
3427.00,0.0095
3426.00,0.0095
3425.00,0.0095
3424.00,0.0095
3423.00,0.0095
3422.00,0.0095
3421.00,0.0096
3420.00,0.0096
3419.00,0.0096
3418.00,0.0097
3417.00,0.0097
3416.00,0.0097
3415.00,0.0097
3414.00,0.0097
3413.00,0.0098
3412.00,0.0098
3411.00,0.0099
3410.00,0.0099
3409.00,0.0100
3408.00,0.0101
3407.00,0.0101
3406.00,0.0102
3405.00,0.0102
3404.00,0.0102
3403.00,0.0102
3402.00,0.0103
3401.00,0.0103
3400.00,0.0105
3399.00,0.0106
3398.00,0.0108
3397.00,0.0109
3396.00,0.0110
3395.00,0.0111
3394.00,0.0112
3393.00,0.0114
3392.00,0.0115
3391.00,0.0117
3390.00,0.0119
3389.00,0.0121
3388.00,0.0123
3387.00,0.0125
3386.00,0.0127
3385.00,0.0129
3384.00,0.0131
3383.00,0.0132
3382.00,0.0134
3381.00,0.0136
3380.00,0.0138
3379.00,0.0140
3378.00,0.0142
3377.00,0.0144
3376.00,0.0146
3375.00,0.0148
3374.00,0.0150
3373.00,0.0152
3372.00,0.0154
3371.00,0.0156
3370.00,0.0158
3369.00,0.0160
3368.00,0.0163
3367.00,0.0167
3366.00,0.0171
3365.00,0.0175
3364.00,0.0179
3363.00,0.0183
3362.00,0.0187
3361.00,0.0191
3360.00,0.0196
3359.00,0.0202
3358.00,0.0208
3357.00,0.0214
3356.00,0.0221
3355.00,0.0227
3354.00,0.0234
3353.00,0.0241
3352.00,0.0249
3351.00,0.0258
3350.00,0.0267
3349.00,0.0278
3348.00,0.0289
3347.00,0.0300
3346.00,0.0311
3345.00,0.0322
3344.00,0.0334
3343.00,0.0345
3342.00,0.0357
3341.00,0.0369
3340.00,0.0381
3339.00,0.0392
3338.00,0.0404
3337.00,0.0415
3336.00,0.0425
3335.00,0.0434
3334.00,0.0442
3333.00,0.0449
3332.00,0.0455
3331.00,0.0459
3330.00,0.0462
3329.00,0.0464
3328.00,0.0466
3327.00,0.0467
3326.00,0.0467
3325.00,0.0467
3324.00,0.0467
3323.00,0.0466
3322.00,0.0464
3321.00,0.0461
3320.00,0.0458
3319.00,0.0454
3318.00,0.0449
3317.00,0.0443
3316.00,0.0437
3315.00,0.0431
3314.00,0.0424
3313.00,0.0416
3312.00,0.0408
3311.00,0.0400
3310.00,0.0392
3309.00,0.0384
3308.00,0.0376
3307.00,0.0368
3306.00,0.0360
3305.00,0.0353
3304.00,0.0346
3303.00,0.0340
3302.00,0.0334
3301.00,0.0328
3300.00,0.0322
3299.00,0.0316
3298.00,0.0310
3297.00,0.0304
3296.00,0.0298
3295.00,0.0293
3294.00,0.0288
3293.00,0.0283
3292.00,0.0279
3291.00,0.0275
3290.00,0.0271
3289.00,0.0267
3288.00,0.0262
3287.00,0.0258
3286.00,0.0254
3285.00,0.0249
3284.00,0.0245
3283.00,0.0242
3282.00,0.0239
3281.00,0.0236
3280.00,0.0233
3279.00,0.0230
3278.00,0.0228
3277.00,0.0226
3276.00,0.0225
3275.00,0.0223
3274.00,0.0222
3273.00,0.0221
3272.00,0.0221
3271.00,0.0220
3270.00,0.0220
3269.00,0.0220
3268.00,0.0220
3267.00,0.0220
3266.00,0.0220
3265.00,0.0220
3264.00,0.0219
3263.00,0.0219
3262.00,0.0218
3261.00,0.0217
3260.00,0.0216
3259.00,0.0214
3258.00,0.0213
3257.00,0.0211
3256.00,0.0210
3255.00,0.0208
3254.00,0.0207
3253.00,0.0206
3252.00,0.0205
3251.00,0.0204
3250.00,0.0203
3249.00,0.0202
3248.00,0.0201
3247.00,0.0200
3246.00,0.0200
3245.00,0.0199
3244.00,0.0198
3243.00,0.0198
3242.00,0.0197
3241.00,0.0196
3240.00,0.0195
3239.00,0.0194
3238.00,0.0193
3237.00,0.0192
3236.00,0.0191
3235.00,0.0189
3234.00,0.0187
3233.00,0.0185
3232.00,0.0183
3231.00,0.0181
3230.00,0.0179
3229.00,0.0177
3228.00,0.0175
3227.00,0.0173
3226.00,0.0171
3225.00,0.0169
3224.00,0.0167
3223.00,0.0165
3222.00,0.0164
3221.00,0.0162
3220.00,0.0160
3219.00,0.0159
3218.00,0.0158
3217.00,0.0156
3216.00,0.0155
3215.00,0.0154
3214.00,0.0153
3213.00,0.0152
3212.00,0.0151
3211.00,0.0150
3210.00,0.0149
3209.00,0.0148
3208.00,0.0147
3207.00,0.0146
3206.00,0.0144
3205.00,0.0143
3204.00,0.0142
3203.00,0.0141
3202.00,0.0140
3201.00,0.0139
3200.00,0.0138
3199.00,0.0137
3198.00,0.0136
3197.00,0.0134
3196.00,0.0133
3195.00,0.0132
3194.00,0.0131
3193.00,0.0131
3192.00,0.0130
3191.00,0.0129
3190.00,0.0128
3189.00,0.0128
3188.00,0.0127
3187.00,0.0127
3186.00,0.0126
3185.00,0.0126
3184.00,0.0126
3183.00,0.0125
3182.00,0.0125
3181.00,0.0124
3180.00,0.0124
3179.00,0.0123
3178.00,0.0123
3177.00,0.0123
3176.00,0.0122
3175.00,0.0122
3174.00,0.0121
3173.00,0.0121
3172.00,0.0120
3171.00,0.0120
3170.00,0.0119
3169.00,0.0119
3168.00,0.0119
3167.00,0.0119
3166.00,0.0119
3165.00,0.0119
3164.00,0.0119
3163.00,0.0119
3162.00,0.0119
3161.00,0.0119
3160.00,0.0119
3159.00,0.0119
3158.00,0.0119
3157.00,0.0119
3156.00,0.0119
3155.00,0.0119
3154.00,0.0119
3153.00,0.0119
3152.00,0.0119
3151.00,0.0120
3150.00,0.0120
3149.00,0.0120
3148.00,0.0120
3147.00,0.0121
3146.00,0.0121
3145.00,0.0121
3144.00,0.0120
3143.00,0.0120
3142.00,0.0120
3141.00,0.0120
3140.00,0.0121
3139.00,0.0121
3138.00,0.0121
3137.00,0.0122
3136.00,0.0122
3135.00,0.0123
3134.00,0.0123
3133.00,0.0124
3132.00,0.0125
3131.00,0.0125
3130.00,0.0126
3129.00,0.0126
3128.00,0.0127
3127.00,0.0128
3126.00,0.0129
3125.00,0.0130
3124.00,0.0131
3123.00,0.0132
3122.00,0.0133
3121.00,0.0134
3120.00,0.0135
3119.00,0.0137
3118.00,0.0138
3117.00,0.0140
3116.00,0.0143
3115.00,0.0146
3114.00,0.0149
3113.00,0.0151
3112.00,0.0153
3111.00,0.0156
3110.00,0.0158
3109.00,0.0160
3108.00,0.0162
3107.00,0.0164
3106.00,0.0166
3105.00,0.0167
3104.00,0.0168
3103.00,0.0169
3102.00,0.0169
3101.00,0.0169
3100.00,0.0169
3099.00,0.0169
3098.00,0.0168
3097.00,0.0167
3096.00,0.0166
3095.00,0.0165
3094.00,0.0164
3093.00,0.0162
3092.00,0.0161
3091.00,0.0160
3090.00,0.0159
3089.00,0.0158
3088.00,0.0158
3087.00,0.0157
3086.00,0.0157
3085.00,0.0157
3084.00,0.0157
3083.00,0.0157
3082.00,0.0157
3081.00,0.0156
3080.00,0.0156
3079.00,0.0156
3078.00,0.0156
3077.00,0.0156
3076.00,0.0155
3075.00,0.0153
3074.00,0.0152
3073.00,0.0150
3072.00,0.0149
3071.00,0.0147
3070.00,0.0145
3069.00,0.0144
3068.00,0.0143
3067.00,0.0143
3066.00,0.0144
3065.00,0.0144
3064.00,0.0145
3063.00,0.0145
3062.00,0.0145
3061.00,0.0144
3060.00,0.0143
3059.00,0.0141
3058.00,0.0139
3057.00,0.0138
3056.00,0.0137
3055.00,0.0136
3054.00,0.0135
3053.00,0.0134
3052.00,0.0134
3051.00,0.0134
3050.00,0.0134
3049.00,0.0134
3048.00,0.0134
3047.00,0.0135
3046.00,0.0134
3045.00,0.0135
3044.00,0.0135
3043.00,0.0135
3042.00,0.0136
3041.00,0.0138
3040.00,0.0139
3039.00,0.0141
3038.00,0.0143
3037.00,0.0144
3036.00,0.0146
3035.00,0.0147
3034.00,0.0149
3033.00,0.0152
3032.00,0.0154
3031.00,0.0155
3030.00,0.0157
3029.00,0.0158
3028.00,0.0159
3027.00,0.0159
3026.00,0.0160
3025.00,0.0160
3024.00,0.0159
3023.00,0.0159
3022.00,0.0158
3021.00,0.0158
3020.00,0.0157
3019.00,0.0157
3018.00,0.0157
3017.00,0.0157
3016.00,0.0158
3015.00,0.0159
3014.00,0.0160
3013.00,0.0163
3012.00,0.0166
3011.00,0.0169
3010.00,0.0173
3009.00,0.0177
3008.00,0.0182
3007.00,0.0186
3006.00,0.0191
3005.00,0.0195
3004.00,0.0200
3003.00,0.0204
3002.00,0.0207
3001.00,0.0210
3000.00,0.0212
2999.00,0.0214
2998.00,0.0215
2997.00,0.0215
2996.00,0.0214
2995.00,0.0212
2994.00,0.0208
2993.00,0.0204
2992.00,0.0200
2991.00,0.0196
2990.00,0.0192
2989.00,0.0188
2988.00,0.0184
2987.00,0.0181
2986.00,0.0178
2985.00,0.0176
2984.00,0.0173
2983.00,0.0171
2982.00,0.0169
2981.00,0.0168
2980.00,0.0167
2979.00,0.0167
2978.00,0.0167
2977.00,0.0167
2976.00,0.0166
2975.00,0.0166
2974.00,0.0167
2973.00,0.0168
2972.00,0.0170
2971.00,0.0172
2970.00,0.0175
2969.00,0.0178
2968.00,0.0183
2967.00,0.0188
2966.00,0.0194
2965.00,0.0202
2964.00,0.0212
2963.00,0.0223
2962.00,0.0235
2961.00,0.0249
2960.00,0.0265
2959.00,0.0281
2958.00,0.0298
2957.00,0.0314
2956.00,0.0328
2955.00,0.0340
2954.00,0.0348
2953.00,0.0353
2952.00,0.0353
2951.00,0.0348
2950.00,0.0340
2949.00,0.0328
2948.00,0.0313
2947.00,0.0298
2946.00,0.0282
2945.00,0.0267
2944.00,0.0253
2943.00,0.0241
2942.00,0.0231
2941.00,0.0223
2940.00,0.0216
2939.00,0.0211
2938.00,0.0207
2937.00,0.0204
2936.00,0.0202
2935.00,0.0201
2934.00,0.0199
2933.00,0.0198
2932.00,0.0197
2931.00,0.0195
2930.00,0.0194
2929.00,0.0192
2928.00,0.0190
2927.00,0.0188
2926.00,0.0185
2925.00,0.0183
2924.00,0.0180
2923.00,0.0177
2922.00,0.0174
2921.00,0.0171
2920.00,0.0168
2919.00,0.0165
2918.00,0.0162
2917.00,0.0160
2916.00,0.0158
2915.00,0.0157
2914.00,0.0156
2913.00,0.0155
2912.00,0.0154
2911.00,0.0154
2910.00,0.0153
2909.00,0.0152
2908.00,0.0152
2907.00,0.0151
2906.00,0.0150
2905.00,0.0149
2904.00,0.0148
2903.00,0.0147
2902.00,0.0146
2901.00,0.0145
2900.00,0.0144
2899.00,0.0143
2898.00,0.0142
2897.00,0.0140
2896.00,0.0139
2895.00,0.0138
2894.00,0.0137
2893.00,0.0137
2892.00,0.0136
2891.00,0.0136
2890.00,0.0136
2889.00,0.0136
2888.00,0.0136
2887.00,0.0137
2886.00,0.0137
2885.00,0.0137
2884.00,0.0137
2883.00,0.0137
2882.00,0.0137
2881.00,0.0137
2880.00,0.0137
2879.00,0.0137
2878.00,0.0137
2877.00,0.0137
2876.00,0.0137
2875.00,0.0137
2874.00,0.0137
2873.00,0.0138
2872.00,0.0138
2871.00,0.0138
2870.00,0.0137
2869.00,0.0137
2868.00,0.0136
2867.00,0.0135
2866.00,0.0134
2865.00,0.0133
2864.00,0.0132
2863.00,0.0131
2862.00,0.0131
2861.00,0.0130
2860.00,0.0130
2859.00,0.0129
2858.00,0.0129
2857.00,0.0129
2856.00,0.0129
2855.00,0.0130
2854.00,0.0130
2853.00,0.0131
2852.00,0.0131
2851.00,0.0132
2850.00,0.0134
2849.00,0.0135
2848.00,0.0138
2847.00,0.0140
2846.00,0.0143
2845.00,0.0146
2844.00,0.0149
2843.00,0.0150
2842.00,0.0150
2841.00,0.0149
2840.00,0.0147
2839.00,0.0144
2838.00,0.0141
2837.00,0.0138
2836.00,0.0136
2835.00,0.0133
2834.00,0.0131
2833.00,0.0129
2832.00,0.0127
2831.00,0.0125
2830.00,0.0123
2829.00,0.0121
2828.00,0.0120
2827.00,0.0119
2826.00,0.0119
2825.00,0.0118
2824.00,0.0117
2823.00,0.0116
2822.00,0.0116
2821.00,0.0115
2820.00,0.0115
2819.00,0.0115
2818.00,0.0115
2817.00,0.0114
2816.00,0.0114
2815.00,0.0114
2814.00,0.0113
2813.00,0.0113
2812.00,0.0113
2811.00,0.0112
2810.00,0.0112
2809.00,0.0111
2808.00,0.0111
2807.00,0.0111
2806.00,0.0110
2805.00,0.0109
2804.00,0.0109
2803.00,0.0108
2802.00,0.0107
2801.00,0.0106
2800.00,0.0105
2799.00,0.0105
2798.00,0.0104
2797.00,0.0103
2796.00,0.0103
2795.00,0.0102
2794.00,0.0101
2793.00,0.0101
2792.00,0.0100
2791.00,0.0099
2790.00,0.0098
2789.00,0.0097
2788.00,0.0097
2787.00,0.0096
2786.00,0.0095
2785.00,0.0095
2784.00,0.0094
2783.00,0.0094
2782.00,0.0094
2781.00,0.0094
2780.00,0.0094
2779.00,0.0094
2778.00,0.0093
2777.00,0.0093
2776.00,0.0093
2775.00,0.0093
2774.00,0.0093
2773.00,0.0093
2772.00,0.0093
2771.00,0.0092
2770.00,0.0092
2769.00,0.0092
2768.00,0.0092
2767.00,0.0092
2766.00,0.0092
2765.00,0.0092
2764.00,0.0092
2763.00,0.0092
2762.00,0.0092
2761.00,0.0091
2760.00,0.0091
2759.00,0.0091
2758.00,0.0091
2757.00,0.0091
2756.00,0.0091
2755.00,0.0091
2754.00,0.0091
2753.00,0.0091
2752.00,0.0091
2751.00,0.0091
2750.00,0.0091
2749.00,0.0091
2748.00,0.0091
2747.00,0.0090
2746.00,0.0090
2745.00,0.0090
2744.00,0.0091
2743.00,0.0091
2742.00,0.0091
2741.00,0.0091
2740.00,0.0091
2739.00,0.0091
2738.00,0.0091
2737.00,0.0091
2736.00,0.0090
2735.00,0.0090
2734.00,0.0090
2733.00,0.0090
2732.00,0.0090
2731.00,0.0090
2730.00,0.0089
2729.00,0.0089
2728.00,0.0089
2727.00,0.0089
2726.00,0.0089
2725.00,0.0089
2724.00,0.0088
2723.00,0.0088
2722.00,0.0088
2721.00,0.0088
2720.00,0.0088
2719.00,0.0088
2718.00,0.0087
2717.00,0.0087
2716.00,0.0087
2715.00,0.0087
2714.00,0.0087
2713.00,0.0087
2712.00,0.0087
2711.00,0.0087
2710.00,0.0087
2709.00,0.0087
2708.00,0.0086
2707.00,0.0086
2706.00,0.0086
2705.00,0.0086
2704.00,0.0086
2703.00,0.0086
2702.00,0.0086
2701.00,0.0086
2700.00,0.0086
2699.00,0.0086
2698.00,0.0086
2697.00,0.0086
2696.00,0.0086
2695.00,0.0086
2694.00,0.0086
2693.00,0.0086
2692.00,0.0086
2691.00,0.0086
2690.00,0.0086
2689.00,0.0086
2688.00,0.0086
2687.00,0.0085
2686.00,0.0085
2685.00,0.0085
2684.00,0.0085
2683.00,0.0085
2682.00,0.0086
2681.00,0.0086
2680.00,0.0086
2679.00,0.0086
2678.00,0.0086
2677.00,0.0086
2676.00,0.0086
2675.00,0.0086
2674.00,0.0086
2673.00,0.0086
2672.00,0.0086
2671.00,0.0086
2670.00,0.0086
2669.00,0.0086
2668.00,0.0086
2667.00,0.0087
2666.00,0.0087
2665.00,0.0088
2664.00,0.0088
2663.00,0.0089
2662.00,0.0089
2661.00,0.0090
2660.00,0.0090
2659.00,0.0090
2658.00,0.0091
2657.00,0.0091
2656.00,0.0091
2655.00,0.0091
2654.00,0.0092
2653.00,0.0092
2652.00,0.0092
2651.00,0.0092
2650.00,0.0092
2649.00,0.0092
2648.00,0.0092
2647.00,0.0092
2646.00,0.0092
2645.00,0.0092
2644.00,0.0092
2643.00,0.0092
2642.00,0.0092
2641.00,0.0091
2640.00,0.0091
2639.00,0.0091
2638.00,0.0091
2637.00,0.0090
2636.00,0.0090
2635.00,0.0090
2634.00,0.0090
2633.00,0.0090
2632.00,0.0090
2631.00,0.0090
2630.00,0.0090
2629.00,0.0090
2628.00,0.0090
2627.00,0.0090
2626.00,0.0090
2625.00,0.0090
2624.00,0.0090
2623.00,0.0091
2622.00,0.0091
2621.00,0.0091
2620.00,0.0091
2619.00,0.0091
2618.00,0.0091
2617.00,0.0091
2616.00,0.0091
2615.00,0.0091
2614.00,0.0090
2613.00,0.0090
2612.00,0.0090
2611.00,0.0090
2610.00,0.0090
2609.00,0.0090
2608.00,0.0089
2607.00,0.0089
2606.00,0.0089
2605.00,0.0088
2604.00,0.0088
2603.00,0.0088
2602.00,0.0088
2601.00,0.0087
2600.00,0.0087
2599.00,0.0087
2598.00,0.0087
2597.00,0.0087
2596.00,0.0086
2595.00,0.0086
2594.00,0.0086
2593.00,0.0085
2592.00,0.0085
2591.00,0.0085
2590.00,0.0085
2589.00,0.0084
2588.00,0.0084
2587.00,0.0084
2586.00,0.0083
2585.00,0.0083
2584.00,0.0083
2583.00,0.0083
2582.00,0.0082
2581.00,0.0082
2580.00,0.0081
2579.00,0.0081
2578.00,0.0081
2577.00,0.0080
2576.00,0.0080
2575.00,0.0079
2574.00,0.0079
2573.00,0.0079
2572.00,0.0079
2571.00,0.0078
2570.00,0.0078
2569.00,0.0078
2568.00,0.0077
2567.00,0.0077
2566.00,0.0077
2565.00,0.0077
2564.00,0.0077
2563.00,0.0077
2562.00,0.0077
2561.00,0.0077
2560.00,0.0077
2559.00,0.0077
2558.00,0.0077
2557.00,0.0077
2556.00,0.0077
2555.00,0.0078
2554.00,0.0078
2553.00,0.0078
2552.00,0.0078
2551.00,0.0078
2550.00,0.0078
2549.00,0.0078
2548.00,0.0078
2547.00,0.0078
2546.00,0.0078
2545.00,0.0078
2544.00,0.0078
2543.00,0.0077
2542.00,0.0077
2541.00,0.0077
2540.00,0.0078
2539.00,0.0078
2538.00,0.0078
2537.00,0.0078
2536.00,0.0078
2535.00,0.0078
2534.00,0.0078
2533.00,0.0078
2532.00,0.0078
2531.00,0.0077
2530.00,0.0077
2529.00,0.0076
2528.00,0.0076
2527.00,0.0076
2526.00,0.0076
2525.00,0.0075
2524.00,0.0075
2523.00,0.0074
2522.00,0.0074
2521.00,0.0074
2520.00,0.0074
2519.00,0.0074
2518.00,0.0074
2517.00,0.0074
2516.00,0.0074
2515.00,0.0074
2514.00,0.0074
2513.00,0.0074
2512.00,0.0074
2511.00,0.0074
2510.00,0.0074
2509.00,0.0073
2508.00,0.0073
2507.00,0.0073
2506.00,0.0072
2505.00,0.0071
2504.00,0.0071
2503.00,0.0071
2502.00,0.0071
2501.00,0.0071
2500.00,0.0072
2499.00,0.0072
2498.00,0.0072
2497.00,0.0072
2496.00,0.0072
2495.00,0.0073
2494.00,0.0073
2493.00,0.0073
2492.00,0.0074
2491.00,0.0074
2490.00,0.0074
2489.00,0.0074
2488.00,0.0074
2487.00,0.0073
2486.00,0.0073
2485.00,0.0073
2484.00,0.0073
2483.00,0.0072
2482.00,0.0072
2481.00,0.0072
2480.00,0.0072
2479.00,0.0072
2478.00,0.0071
2477.00,0.0071
2476.00,0.0072
2475.00,0.0072
2474.00,0.0071
2473.00,0.0071
2472.00,0.0070
2471.00,0.0070
2470.00,0.0071
2469.00,0.0071
2468.00,0.0071
2467.00,0.0071
2466.00,0.0071
2465.00,0.0071
2464.00,0.0071
2463.00,0.0071
2462.00,0.0072
2461.00,0.0072
2460.00,0.0073
2459.00,0.0073
2458.00,0.0074
2457.00,0.0074
2456.00,0.0074
2455.00,0.0074
2454.00,0.0074
2453.00,0.0074
2452.00,0.0074
2451.00,0.0074
2450.00,0.0074
2449.00,0.0073
2448.00,0.0073
2447.00,0.0072
2446.00,0.0072
2445.00,0.0071
2444.00,0.0071
2443.00,0.0070
2442.00,0.0069
2441.00,0.0069
2440.00,0.0069
2439.00,0.0069
2438.00,0.0069
2437.00,0.0069
2436.00,0.0069
2435.00,0.0069
2434.00,0.0069
2433.00,0.0069
2432.00,0.0068
2431.00,0.0068
2430.00,0.0068
2429.00,0.0068
2428.00,0.0068
2427.00,0.0068
2426.00,0.0068
2425.00,0.0068
2424.00,0.0068
2423.00,0.0068
2422.00,0.0068
2421.00,0.0068
2420.00,0.0068
2419.00,0.0068
2418.00,0.0068
2417.00,0.0068
2416.00,0.0068
2415.00,0.0068
2414.00,0.0067
2413.00,0.0067
2412.00,0.0066
2411.00,0.0066
2410.00,0.0066
2409.00,0.0065
2408.00,0.0065
2407.00,0.0065
2406.00,0.0065
2405.00,0.0065
2404.00,0.0065
2403.00,0.0065
2402.00,0.0064
2401.00,0.0064
2400.00,0.0064
2399.00,0.0064
2398.00,0.0064
2397.00,0.0063
2396.00,0.0064
2395.00,0.0064
2394.00,0.0063
2393.00,0.0063
2392.00,0.0063
2391.00,0.0063
2390.00,0.0063
2389.00,0.0062
2388.00,0.0062
2387.00,0.0062
2386.00,0.0062
2385.00,0.0062
2384.00,0.0061
2383.00,0.0061
2382.00,0.0060
2381.00,0.0059
2380.00,0.0059
2379.00,0.0059
2378.00,0.0059
2377.00,0.0059
2376.00,0.0060
2375.00,0.0060
2374.00,0.0059
2373.00,0.0059
2372.00,0.0058
2371.00,0.0058
2370.00,0.0058
2369.00,0.0058
2368.00,0.0058
2367.00,0.0058
2366.00,0.0058
2365.00,0.0058
2364.00,0.0058
2363.00,0.0058
2362.00,0.0058
2361.00,0.0058
2360.00,0.0058
2359.00,0.0058
2358.00,0.0058
2357.00,0.0059
2356.00,0.0059
2355.00,0.0060
2354.00,0.0060
2353.00,0.0059
2352.00,0.0059
2351.00,0.0058
2350.00,0.0058
2349.00,0.0059
2348.00,0.0060
2347.00,0.0060
2346.00,0.0061
2345.00,0.0061
2344.00,0.0061
2343.00,0.0061
2342.00,0.0061
2341.00,0.0061
2340.00,0.0062
2339.00,0.0062
2338.00,0.0062
2337.00,0.0062
2336.00,0.0062
2335.00,0.0062
2334.00,0.0062
2333.00,0.0062
2332.00,0.0062
2331.00,0.0062
2330.00,0.0063
2329.00,0.0065
2328.00,0.0068
2327.00,0.0071
2326.00,0.0074
2325.00,0.0075
2324.00,0.0074
2323.00,0.0073
2322.00,0.0070
2321.00,0.0069
2320.00,0.0067
2319.00,0.0066
2318.00,0.0065
2317.00,0.0064
2316.00,0.0064
2315.00,0.0063
2314.00,0.0063
2313.00,0.0062
2312.00,0.0061
2311.00,0.0060
2310.00,0.0060
2309.00,0.0059
2308.00,0.0059
2307.00,0.0059
2306.00,0.0060
2305.00,0.0060
2304.00,0.0060
2303.00,0.0061
2302.00,0.0061
2301.00,0.0061
2300.00,0.0061
2299.00,0.0062
2298.00,0.0062
2297.00,0.0062
2296.00,0.0062
2295.00,0.0063
2294.00,0.0063
2293.00,0.0064
2292.00,0.0065
2291.00,0.0066
2290.00,0.0067
2289.00,0.0068
2288.00,0.0069
2287.00,0.0069
2286.00,0.0069
2285.00,0.0068
2284.00,0.0066
2283.00,0.0065
2282.00,0.0064
2281.00,0.0063
2280.00,0.0062
2279.00,0.0062
2278.00,0.0062
2277.00,0.0061
2276.00,0.0061
2275.00,0.0061
2274.00,0.0061
2273.00,0.0060
2272.00,0.0061
2271.00,0.0061
2270.00,0.0061
2269.00,0.0060
2268.00,0.0060
2267.00,0.0059
2266.00,0.0057
2265.00,0.0057
2264.00,0.0056
2263.00,0.0057
2262.00,0.0057
2261.00,0.0057
2260.00,0.0057
2259.00,0.0057
2258.00,0.0056
2257.00,0.0055
2256.00,0.0054
2255.00,0.0053
2254.00,0.0053
2253.00,0.0054
2252.00,0.0054
2251.00,0.0055
2250.00,0.0054
2249.00,0.0054
2248.00,0.0054
2247.00,0.0054
2246.00,0.0054
2245.00,0.0055
2244.00,0.0055
2243.00,0.0055
2242.00,0.0054
2241.00,0.0053
2240.00,0.0052
2239.00,0.0052
2238.00,0.0052
2237.00,0.0051
2236.00,0.0051
2235.00,0.0051
2234.00,0.0050
2233.00,0.0050
2232.00,0.0050
2231.00,0.0050
2230.00,0.0049
2229.00,0.0049
2228.00,0.0050
2227.00,0.0050
2226.00,0.0049
2225.00,0.0048
2224.00,0.0047
2223.00,0.0047
2222.00,0.0048
2221.00,0.0048
2220.00,0.0048
2219.00,0.0048
2218.00,0.0048
2217.00,0.0047
2216.00,0.0047
2215.00,0.0047
2214.00,0.0046
2213.00,0.0046
2212.00,0.0046
2211.00,0.0046
2210.00,0.0046
2209.00,0.0047
2208.00,0.0048
2207.00,0.0048
2206.00,0.0048
2205.00,0.0048
2204.00,0.0047
2203.00,0.0047
2202.00,0.0046
2201.00,0.0046
2200.00,0.0045
2199.00,0.0045
2198.00,0.0045
2197.00,0.0045
2196.00,0.0046
2195.00,0.0046
2194.00,0.0047
2193.00,0.0048
2192.00,0.0049
2191.00,0.0050
2190.00,0.0050
2189.00,0.0050
2188.00,0.0051
2187.00,0.0050
2186.00,0.0049
2185.00,0.0047
2184.00,0.0045
2183.00,0.0043
2182.00,0.0042
2181.00,0.0042
2180.00,0.0045
2179.00,0.0046
2178.00,0.0046
2177.00,0.0044
2176.00,0.0044
2175.00,0.0044
2174.00,0.0045
2173.00,0.0047
2172.00,0.0048
2171.00,0.0050
2170.00,0.0051
2169.00,0.0052
2168.00,0.0053
2167.00,0.0053
2166.00,0.0055
2165.00,0.0057
2164.00,0.0060
2163.00,0.0062
2162.00,0.0057
2161.00,0.0046
2160.00,0.0032
2159.00,0.0019
2158.00,0.0013
2157.00,0.0013
2156.00,0.0017
2155.00,0.0021
2154.00,0.0026
2153.00,0.0029
2152.00,0.0031
2151.00,0.0032
2150.00,0.0031
2149.00,0.0031
2148.00,0.0030
2147.00,0.0029
2146.00,0.0029
2145.00,0.0030
2144.00,0.0031
2143.00,0.0032
2142.00,0.0033
2141.00,0.0033
2140.00,0.0034
2139.00,0.0032
2138.00,0.0030
2137.00,0.0028
2136.00,0.0027
2135.00,0.0026
2134.00,0.0026
2133.00,0.0027
2132.00,0.0029
2131.00,0.0031
2130.00,0.0032
2129.00,0.0034
2128.00,0.0035
2127.00,0.0036
2126.00,0.0037
2125.00,0.0038
2124.00,0.0040
2123.00,0.0041
2122.00,0.0041
2121.00,0.0042
2120.00,0.0042
2119.00,0.0044
2118.00,0.0045
2117.00,0.0047
2116.00,0.0048
2115.00,0.0049
2114.00,0.0048
2113.00,0.0048
2112.00,0.0047
2111.00,0.0047
2110.00,0.0046
2109.00,0.0046
2108.00,0.0046
2107.00,0.0046
2106.00,0.0045
2105.00,0.0045
2104.00,0.0045
2103.00,0.0045
2102.00,0.0045
2101.00,0.0045
2100.00,0.0045
2099.00,0.0045
2098.00,0.0044
2097.00,0.0043
2096.00,0.0042
2095.00,0.0041
2094.00,0.0041
2093.00,0.0042
2092.00,0.0043
2091.00,0.0045
2090.00,0.0046
2089.00,0.0047
2088.00,0.0047
2087.00,0.0047
2086.00,0.0047
2085.00,0.0047
2084.00,0.0047
2083.00,0.0047
2082.00,0.0047
2081.00,0.0048
2080.00,0.0049
2079.00,0.0049
2078.00,0.0049
2077.00,0.0049
2076.00,0.0050
2075.00,0.0050
2074.00,0.0050
2073.00,0.0050
2072.00,0.0050
2071.00,0.0049
2070.00,0.0049
2069.00,0.0048
2068.00,0.0048
2067.00,0.0048
2066.00,0.0049
2065.00,0.0049
2064.00,0.0049
2063.00,0.0048
2062.00,0.0047
2061.00,0.0046
2060.00,0.0046
2059.00,0.0046
2058.00,0.0046
2057.00,0.0045
2056.00,0.0045
2055.00,0.0045
2054.00,0.0047
2053.00,0.0051
2052.00,0.0055
2051.00,0.0055
2050.00,0.0051
2049.00,0.0047
2048.00,0.0044
2047.00,0.0042
2046.00,0.0041
2045.00,0.0040
2044.00,0.0040
2043.00,0.0041
2042.00,0.0040
2041.00,0.0040
2040.00,0.0039
2039.00,0.0038
2038.00,0.0037
2037.00,0.0036
2036.00,0.0033
2035.00,0.0029
2034.00,0.0024
2033.00,0.0022
2032.00,0.0023
2031.00,0.0025
2030.00,0.0027
2029.00,0.0029
2028.00,0.0031
2027.00,0.0030
2026.00,0.0029
2025.00,0.0029
2024.00,0.0030
2023.00,0.0030
2022.00,0.0030
2021.00,0.0030
2020.00,0.0031
2019.00,0.0032
2018.00,0.0034
2017.00,0.0036
2016.00,0.0039
2015.00,0.0040
2014.00,0.0039
2013.00,0.0038
2012.00,0.0037
2011.00,0.0036
2010.00,0.0035
2009.00,0.0035
2008.00,0.0034
2007.00,0.0034
2006.00,0.0034
2005.00,0.0037
2004.00,0.0040
2003.00,0.0043
2002.00,0.0045
2001.00,0.0047
2000.00,0.0048
1999.00,0.0049
1998.00,0.0049
1997.00,0.0048
1996.00,0.0049
1995.00,0.0050
1994.00,0.0051
1993.00,0.0052
1992.00,0.0053
1991.00,0.0053
1990.00,0.0053
1989.00,0.0053
1988.00,0.0054
1987.00,0.0053
1986.00,0.0052
1985.00,0.0053
1984.00,0.0055
1983.00,0.0059
1982.00,0.0061
1981.00,0.0061
1980.00,0.0057
1979.00,0.0051
1978.00,0.0043
1977.00,0.0038
1976.00,0.0036
1975.00,0.0035
1974.00,0.0035
1973.00,0.0035
1972.00,0.0036
1971.00,0.0037
1970.00,0.0038
1969.00,0.0041
1968.00,0.0043
1967.00,0.0045
1966.00,0.0044
1965.00,0.0044
1964.00,0.0043
1963.00,0.0041
1962.00,0.0039
1961.00,0.0036
1960.00,0.0035
1959.00,0.0034
1958.00,0.0034
1957.00,0.0035
1956.00,0.0037
1955.00,0.0039
1954.00,0.0040
1953.00,0.0039
1952.00,0.0039
1951.00,0.0038
1950.00,0.0038
1949.00,0.0038
1948.00,0.0039
1947.00,0.0039
1946.00,0.0039
1945.00,0.0040
1944.00,0.0040
1943.00,0.0040
1942.00,0.0040
1941.00,0.0039
1940.00,0.0040
1939.00,0.0040
1938.00,0.0040
1937.00,0.0041
1936.00,0.0042
1935.00,0.0043
1934.00,0.0042
1933.00,0.0042
1932.00,0.0043
1931.00,0.0044
1930.00,0.0044
1929.00,0.0045
1928.00,0.0045
1927.00,0.0046
1926.00,0.0046
1925.00,0.0046
1924.00,0.0048
1923.00,0.0049
1922.00,0.0050
1921.00,0.0050
1920.00,0.0050
1919.00,0.0048
1918.00,0.0047
1917.00,0.0047
1916.00,0.0048
1915.00,0.0047
1914.00,0.0046
1913.00,0.0046
1912.00,0.0046
1911.00,0.0047
1910.00,0.0047
1909.00,0.0048
1908.00,0.0048
1907.00,0.0047
1906.00,0.0047
1905.00,0.0046
1904.00,0.0046
1903.00,0.0046
1902.00,0.0046
1901.00,0.0045
1900.00,0.0045
1899.00,0.0045
1898.00,0.0045
1897.00,0.0045
1896.00,0.0046
1895.00,0.0046
1894.00,0.0046
1893.00,0.0046
1892.00,0.0045
1891.00,0.0045
1890.00,0.0044
1889.00,0.0045
1888.00,0.0045
1887.00,0.0046
1886.00,0.0045
1885.00,0.0044
1884.00,0.0044
1883.00,0.0044
1882.00,0.0044
1881.00,0.0044
1880.00,0.0044
1879.00,0.0043
1878.00,0.0043
1877.00,0.0042
1876.00,0.0041
1875.00,0.0041
1874.00,0.0040
1873.00,0.0041
1872.00,0.0042
1871.00,0.0042
1870.00,0.0042
1869.00,0.0041
1868.00,0.0041
1867.00,0.0042
1866.00,0.0043
1865.00,0.0043
1864.00,0.0044
1863.00,0.0045
1862.00,0.0045
1861.00,0.0045
1860.00,0.0046
1859.00,0.0046
1858.00,0.0046
1857.00,0.0046
1856.00,0.0046
1855.00,0.0046
1854.00,0.0046
1853.00,0.0047
1852.00,0.0048
1851.00,0.0049
1850.00,0.0050
1849.00,0.0051
1848.00,0.0052
1847.00,0.0053
1846.00,0.0052
1845.00,0.0049
1844.00,0.0049
1843.00,0.0045
1842.00,0.0042
1841.00,0.0044
1840.00,0.0044
1839.00,0.0044
1838.00,0.0044
1837.00,0.0044
1836.00,0.0044
1835.00,0.0044
1834.00,0.0044
1833.00,0.0044
1832.00,0.0045
1831.00,0.0045
1830.00,0.0044
1829.00,0.0044
1828.00,0.0044
1827.00,0.0044
1826.00,0.0047
1825.00,0.0050
1824.00,0.0050
1823.00,0.0050
1822.00,0.0049
1821.00,0.0047
1820.00,0.0046
1819.00,0.0046
1818.00,0.0046
1817.00,0.0046
1816.00,0.0046
1815.00,0.0047
1814.00,0.0047
1813.00,0.0048
1812.00,0.0049
1811.00,0.0049
1810.00,0.0049
1809.00,0.0048
1808.00,0.0050
1807.00,0.0050
1806.00,0.0051
1805.00,0.0052
1804.00,0.0052
1803.00,0.0053
1802.00,0.0054
1801.00,0.0054
1800.00,0.0055
1799.00,0.0057
1798.00,0.0058
1797.00,0.0058
1796.00,0.0059
1795.00,0.0060
1794.00,0.0060
1793.00,0.0061
1792.00,0.0061
1791.00,0.0062
1790.00,0.0063
1789.00,0.0064
1788.00,0.0065
1787.00,0.0066
1786.00,0.0067
1785.00,0.0068
1784.00,0.0069
1783.00,0.0070
1782.00,0.0071
1781.00,0.0072
1780.00,0.0073
1779.00,0.0074
1778.00,0.0076
1777.00,0.0077
1776.00,0.0079
1775.00,0.0080
1774.00,0.0082
1773.00,0.0083
1772.00,0.0085
1771.00,0.0087
1770.00,0.0089
1769.00,0.0091
1768.00,0.0095
1767.00,0.0097
1766.00,0.0105
1765.00,0.0110
1764.00,0.0110
1763.00,0.0114
1762.00,0.0118
1761.00,0.0125
1760.00,0.0132
1759.00,0.0139
1758.00,0.0145
1757.00,0.0151
1756.00,0.0159
1755.00,0.0167
1754.00,0.0177
1753.00,0.0189
1752.00,0.0204
1751.00,0.0221
1750.00,0.0238
1749.00,0.0254
1748.00,0.0272
1747.00,0.0294
1746.00,0.0320
1745.00,0.0352
1744.00,0.0389
1743.00,0.0428
1742.00,0.0468
1741.00,0.0512
1740.00,0.0562
1739.00,0.0616
1738.00,0.0668
1737.00,0.0715
1736.00,0.0761
1735.00,0.0813
1734.00,0.0870
1733.00,0.0922
1732.00,0.0959
1731.00,0.0981
1730.00,0.0995
1729.00,0.1005
1728.00,0.1013
1727.00,0.1014
1726.00,0.1009
1725.00,0.0998
1724.00,0.0981
1723.00,0.0957
1722.00,0.0926
1721.00,0.0893
1720.00,0.0858
1719.00,0.0818
1718.00,0.0778
1717.00,0.0745
1716.00,0.0725
1715.00,0.0711
1714.00,0.0704
1713.00,0.0707
1712.00,0.0719
1711.00,0.0738
1710.00,0.0764
1709.00,0.0796
1708.00,0.0829
1707.00,0.0862
1706.00,0.0891
1705.00,0.0914
1704.00,0.0931
1703.00,0.0940
1702.00,0.0936
1701.00,0.0916
1700.00,0.0890
1699.00,0.0878
1698.00,0.0877
1697.00,0.0879
1696.00,0.0888
1695.00,0.0908
1694.00,0.0942
1693.00,0.0987
1692.00,0.1044
1691.00,0.1113
1690.00,0.1185
1689.00,0.1249
1688.00,0.1299
1687.00,0.1333
1686.00,0.1354
1685.00,0.1365
1684.00,0.1379
1683.00,0.1409
1682.00,0.1448
1681.00,0.1492
1680.00,0.1535
1679.00,0.1573
1678.00,0.1599
1677.00,0.1606
1676.00,0.1591
1675.00,0.1555
1674.00,0.1509
1673.00,0.1461
1672.00,0.1406
1671.00,0.1337
1670.00,0.1254
1669.00,0.1170
1668.00,0.1100
1667.00,0.1047
1666.00,0.1002
1665.00,0.0960
1664.00,0.0917
1663.00,0.0874
1662.00,0.0840
1661.00,0.0816
1660.00,0.0799
1659.00,0.0786
1658.00,0.0776
1657.00,0.0772
1656.00,0.0774
1655.00,0.0779
1654.00,0.0787
1653.00,0.0803
1652.00,0.0834
1651.00,0.0865
1650.00,0.0883
1649.00,0.0894
1648.00,0.0899
1647.00,0.0895
1646.00,0.0882
1645.00,0.0864
1644.00,0.0840
1643.00,0.0809
1642.00,0.0775
1641.00,0.0741
1640.00,0.0708
1639.00,0.0680
1638.00,0.0655
1637.00,0.0631
1636.00,0.0610
1635.00,0.0600
1634.00,0.0606
1633.00,0.0620
1632.00,0.0636
1631.00,0.0652
1630.00,0.0668
1629.00,0.0682
1628.00,0.0693
1627.00,0.0703
1626.00,0.0710
1625.00,0.0712
1624.00,0.0710
1623.00,0.0706
1622.00,0.0705
1621.00,0.0707
1620.00,0.0707
1619.00,0.0704
1618.00,0.0695
1617.00,0.0681
1616.00,0.0669
1615.00,0.0661
1614.00,0.0655
1613.00,0.0649
1612.00,0.0643
1611.00,0.0639
1610.00,0.0638
1609.00,0.0639
1608.00,0.0644
1607.00,0.0651
1606.00,0.0660
1605.00,0.0666
1604.00,0.0664
1603.00,0.0650
1602.00,0.0624
1601.00,0.0589
1600.00,0.0552
1599.00,0.0516
1598.00,0.0484
1597.00,0.0458
1596.00,0.0438
1595.00,0.0421
1594.00,0.0408
1593.00,0.0396
1592.00,0.0383
1591.00,0.0368
1590.00,0.0353
1589.00,0.0339
1588.00,0.0325
1587.00,0.0312
1586.00,0.0303
1585.00,0.0296
1584.00,0.0292
1583.00,0.0292
1582.00,0.0297
1581.00,0.0308
1580.00,0.0323
1579.00,0.0343
1578.00,0.0365
1577.00,0.0389
1576.00,0.0409
1575.00,0.0424
1574.00,0.0431
1573.00,0.0430
1572.00,0.0426
1571.00,0.0423
1570.00,0.0427
1569.00,0.0441
1568.00,0.0463
1567.00,0.0488
1566.00,0.0515
1565.00,0.0544
1564.00,0.0575
1563.00,0.0606
1562.00,0.0632
1561.00,0.0653
1560.00,0.0663
1559.00,0.0664
1558.00,0.0666
1557.00,0.0668
1556.00,0.0661
1555.00,0.0644
1554.00,0.0622
1553.00,0.0599
1552.00,0.0577
1551.00,0.0555
1550.00,0.0532
1549.00,0.0511
1548.00,0.0494
1547.00,0.0481
1546.00,0.0473
1545.00,0.0470
1544.00,0.0468
1543.00,0.0467
1542.00,0.0468
1541.00,0.0477
1540.00,0.0504
1539.00,0.0550
1538.00,0.0607
1537.00,0.0664
1536.00,0.0726
1535.00,0.0806
1534.00,0.0916
1533.00,0.1048
1532.00,0.1176
1531.00,0.1284
1530.00,0.1368
1529.00,0.1428
1528.00,0.1458
1527.00,0.1453
1526.00,0.1412
1525.00,0.1348
1524.00,0.1273
1523.00,0.1190
1522.00,0.1098
1521.00,0.1005
1520.00,0.0930
1519.00,0.0876
1518.00,0.0832
1517.00,0.0796
1516.00,0.0770
1515.00,0.0756
1514.00,0.0751
1513.00,0.0752
1512.00,0.0762
1511.00,0.0782
1510.00,0.0811
1509.00,0.0849
1508.00,0.0899
1507.00,0.0965
1506.00,0.1043
1505.00,0.1123
1504.00,0.1195
1503.00,0.1263
1502.00,0.1333
1501.00,0.1405
1500.00,0.1477
1499.00,0.1546
1498.00,0.1614
1497.00,0.1676
1496.00,0.1726
1495.00,0.1759
1494.00,0.1777
1493.00,0.1779
1492.00,0.1763
1491.00,0.1730
1490.00,0.1681
1489.00,0.1622
1488.00,0.1559
1487.00,0.1499
1486.00,0.1445
1485.00,0.1397
1484.00,0.1355
1483.00,0.1314
1482.00,0.1275
1481.00,0.1236
1480.00,0.1197
1479.00,0.1159
1478.00,0.1122
1477.00,0.1083
1476.00,0.1045
1475.00,0.1010
1474.00,0.0977
1473.00,0.0942
1472.00,0.0910
1471.00,0.0884
1470.00,0.0865
1469.00,0.0850
1468.00,0.0839
1467.00,0.0830
1466.00,0.0824
1465.00,0.0819
1464.00,0.0817
1463.00,0.0818
1462.00,0.0819
1461.00,0.0820
1460.00,0.0821
1459.00,0.0823
1458.00,0.0825
1457.00,0.0826
1456.00,0.0826
1455.00,0.0824
1454.00,0.0820
1453.00,0.0819
1452.00,0.0821
1451.00,0.0828
1450.00,0.0840
1449.00,0.0857
1448.00,0.0880
1447.00,0.0909
1446.00,0.0941
1445.00,0.0973
1444.00,0.1003
1443.00,0.1030
1442.00,0.1056
1441.00,0.1085
1440.00,0.1122
1439.00,0.1170
1438.00,0.1236
1437.00,0.1324
1436.00,0.1419
1435.00,0.1506
1434.00,0.1578
1433.00,0.1639
1432.00,0.1683
1431.00,0.1696
1430.00,0.1670
1429.00,0.1612
1428.00,0.1536
1427.00,0.1455
1426.00,0.1381
1425.00,0.1316
1424.00,0.1265
1423.00,0.1228
1422.00,0.1204
1421.00,0.1183
1420.00,0.1153
1419.00,0.1106
1418.00,0.1047
1417.00,0.0982
1416.00,0.0916
1415.00,0.0852
1414.00,0.0795
1413.00,0.0746
1412.00,0.0707
1411.00,0.0674
1410.00,0.0648
1409.00,0.0627
1408.00,0.0610
1407.00,0.0597
1406.00,0.0586
1405.00,0.0577
1404.00,0.0567
1403.00,0.0557
1402.00,0.0547
1401.00,0.0538
1400.00,0.0528
1399.00,0.0521
1398.00,0.0515
1397.00,0.0509
1396.00,0.0505
1395.00,0.0502
1394.00,0.0503
1393.00,0.0507
1392.00,0.0514
1391.00,0.0526
1390.00,0.0542
1389.00,0.0561
1388.00,0.0580
1387.00,0.0596
1386.00,0.0608
1385.00,0.0618
1384.00,0.0631
1383.00,0.0648
1382.00,0.0669
1381.00,0.0692
1380.00,0.0710
1379.00,0.0720
1378.00,0.0719
1377.00,0.0710
1376.00,0.0695
1375.00,0.0676
1374.00,0.0653
1373.00,0.0628
1372.00,0.0601
1371.00,0.0575
1370.00,0.0551
1369.00,0.0530
1368.00,0.0513
1367.00,0.0503
1366.00,0.0500
1365.00,0.0504
1364.00,0.0517
1363.00,0.0536
1362.00,0.0557
1361.00,0.0580
1360.00,0.0604
1359.00,0.0633
1358.00,0.0668
1357.00,0.0711
1356.00,0.0766
1355.00,0.0833
1354.00,0.0913
1353.00,0.1002
1352.00,0.1095
1351.00,0.1179
1350.00,0.1242
1349.00,0.1273
1348.00,0.1269
1347.00,0.1236
1346.00,0.1189
1345.00,0.1141
1344.00,0.1103
1343.00,0.1079
1342.00,0.1067
1341.00,0.1059
1340.00,0.1049
1339.00,0.1028
1338.00,0.0997
1337.00,0.0957
1336.00,0.0914
1335.00,0.0872
1334.00,0.0835
1333.00,0.0804
1332.00,0.0782
1331.00,0.0768
1330.00,0.0763
1329.00,0.0765
1328.00,0.0774
1327.00,0.0788
1326.00,0.0808
1325.00,0.0834
1324.00,0.0866
1323.00,0.0904
1322.00,0.0947
1321.00,0.0991
1320.00,0.1033
1319.00,0.1074
1318.00,0.1112
1317.00,0.1150
1316.00,0.1190
1315.00,0.1231
1314.00,0.1274
1313.00,0.1314
1312.00,0.1350
1311.00,0.1382
1310.00,0.1406
1309.00,0.1422
1308.00,0.1425
1307.00,0.1416
1306.00,0.1395
1305.00,0.1367
1304.00,0.1336
1303.00,0.1305
1302.00,0.1277
1301.00,0.1251
1300.00,0.1230
1299.00,0.1212
1298.00,0.1199
1297.00,0.1189
1296.00,0.1183
1295.00,0.1183
1294.00,0.1186
1293.00,0.1194
1292.00,0.1204
1291.00,0.1214
1290.00,0.1220
1289.00,0.1222
1288.00,0.1220
1287.00,0.1214
1286.00,0.1206
1285.00,0.1198
1284.00,0.1189
1283.00,0.1179
1282.00,0.1170
1281.00,0.1160
1280.00,0.1150
1279.00,0.1140
1278.00,0.1132
1277.00,0.1125
1276.00,0.1122
1275.00,0.1122
1274.00,0.1125
1273.00,0.1130
1272.00,0.1136
1271.00,0.1139
1270.00,0.1137
1269.00,0.1128
1268.00,0.1112
1267.00,0.1089
1266.00,0.1063
1265.00,0.1038
1264.00,0.1017
1263.00,0.1002
1262.00,0.0995
1261.00,0.0994
1260.00,0.0997
1259.00,0.1000
1258.00,0.1002
1257.00,0.1001
1256.00,0.0998
1255.00,0.0995
1254.00,0.0994
1253.00,0.0996
1252.00,0.1004
1251.00,0.1018
1250.00,0.1037
1249.00,0.1062
1248.00,0.1090
1247.00,0.1122
1246.00,0.1156
1245.00,0.1192
1244.00,0.1232
1243.00,0.1275
1242.00,0.1323
1241.00,0.1376
1240.00,0.1432
1239.00,0.1488
1238.00,0.1538
1237.00,0.1583
1236.00,0.1628
1235.00,0.1680
1234.00,0.1745
1233.00,0.1825
1232.00,0.1916
1231.00,0.2012
1230.00,0.2108
1229.00,0.2200
1228.00,0.2286
1227.00,0.2360
1226.00,0.2418
1225.00,0.2456
1224.00,0.2471
1223.00,0.2464
1222.00,0.2438
1221.00,0.2402
1220.00,0.2361
1219.00,0.2319
1218.00,0.2279
1217.00,0.2242
1216.00,0.2207
1215.00,0.2172
1214.00,0.2134
1213.00,0.2092
1212.00,0.2042
1211.00,0.1984
1210.00,0.1917
1209.00,0.1842
1208.00,0.1763
1207.00,0.1681
1206.00,0.1598
1205.00,0.1518
1204.00,0.1443
1203.00,0.1376
1202.00,0.1318
1201.00,0.1272
1200.00,0.1240
1199.00,0.1223
1198.00,0.1224
1197.00,0.1244
1196.00,0.1285
1195.00,0.1349
1194.00,0.1432
1193.00,0.1532
1192.00,0.1637
1191.00,0.1733
1190.00,0.1806
1189.00,0.1842
1188.00,0.1838
1187.00,0.1798
1186.00,0.1731
1185.00,0.1651
1184.00,0.1567
1183.00,0.1484
1182.00,0.1403
1181.00,0.1325
1180.00,0.1248
1179.00,0.1176
1178.00,0.1111
1177.00,0.1054
1176.00,0.1009
1175.00,0.0975
1174.00,0.0953
1173.00,0.0943
1172.00,0.0944
1171.00,0.0956
1170.00,0.0980
1169.00,0.1012
1168.00,0.1052
1167.00,0.1094
1166.00,0.1133
1165.00,0.1162
1164.00,0.1174
1163.00,0.1169
1162.00,0.1151
1161.00,0.1126
1160.00,0.1101
1159.00,0.1081
1158.00,0.1070
1157.00,0.1071
1156.00,0.1088
1155.00,0.1122
1154.00,0.1171
1153.00,0.1224
1152.00,0.1267
1151.00,0.1293
1150.00,0.1300
1149.00,0.1299
1148.00,0.1298
1147.00,0.1304
1146.00,0.1318
1145.00,0.1336
1144.00,0.1353
1143.00,0.1362
1142.00,0.1360
1141.00,0.1346
1140.00,0.1320
1139.00,0.1286
1138.00,0.1250
1137.00,0.1214
1136.00,0.1180
1135.00,0.1151
1134.00,0.1128
1133.00,0.1115
1132.00,0.1113
1131.00,0.1124
1130.00,0.1152
1129.00,0.1198
1128.00,0.1263
1127.00,0.1347
1126.00,0.1452
1125.00,0.1573
1124.00,0.1705
1123.00,0.1837
1122.00,0.1957
1121.00,0.2056
1120.00,0.2125
1119.00,0.2163
1118.00,0.2173
1117.00,0.2162
1116.00,0.2135
1115.00,0.2101
1114.00,0.2063
1113.00,0.2028
1112.00,0.1999
1111.00,0.1977
1110.00,0.1967
1109.00,0.1968
1108.00,0.1980
1107.00,0.2004
1106.00,0.2035
1105.00,0.2073
1104.00,0.2112
1103.00,0.2146
1102.00,0.2170
1101.00,0.2180
1100.00,0.2175
1099.00,0.2155
1098.00,0.2121
1097.00,0.2078
1096.00,0.2028
1095.00,0.1970
1094.00,0.1906
1093.00,0.1838
1092.00,0.1768
1091.00,0.1697
1090.00,0.1629
1089.00,0.1567
1088.00,0.1512
1087.00,0.1465
1086.00,0.1426
1085.00,0.1392
1084.00,0.1360
1083.00,0.1325
1082.00,0.1284
1081.00,0.1238
1080.00,0.1187
1079.00,0.1135
1078.00,0.1086
1077.00,0.1042
1076.00,0.1005
1075.00,0.0976
1074.00,0.0955
1073.00,0.0941
1072.00,0.0930
1071.00,0.0918
1070.00,0.0903
1069.00,0.0882
1068.00,0.0858
1067.00,0.0835
1066.00,0.0814
1065.00,0.0799
1064.00,0.0792
1063.00,0.0795
1062.00,0.0809
1061.00,0.0835
1060.00,0.0876
1059.00,0.0930
1058.00,0.0993
1057.00,0.1059
1056.00,0.1121
1055.00,0.1173
1054.00,0.1210
1053.00,0.1233
1052.00,0.1245
1051.00,0.1253
1050.00,0.1259
1049.00,0.1266
1048.00,0.1271
1047.00,0.1273
1046.00,0.1272
1045.00,0.1271
1044.00,0.1269
1043.00,0.1267
1042.00,0.1264
1041.00,0.1259
1040.00,0.1252
1039.00,0.1242
1038.00,0.1228
1037.00,0.1211
1036.00,0.1192
1035.00,0.1174
1034.00,0.1161
1033.00,0.1156
1032.00,0.1164
1031.00,0.1187
1030.00,0.1227
1029.00,0.1283
1028.00,0.1352
1027.00,0.1426
1026.00,0.1501
1025.00,0.1569
1024.00,0.1626
1023.00,0.1669
1022.00,0.1694
1021.00,0.1702
1020.00,0.1696
1019.00,0.1676
1018.00,0.1648
1017.00,0.1611
1016.00,0.1565
1015.00,0.1509
1014.00,0.1443
1013.00,0.1372
1012.00,0.1299
1011.00,0.1230
1010.00,0.1165
1009.00,0.1106
1008.00,0.1054
1007.00,0.1010
1006.00,0.0971
1005.00,0.0939
1004.00,0.0913
1003.00,0.0890
1002.00,0.0869
1001.00,0.0847
1000.00,0.0823
999.00,0.0798
998.00,0.0774
997.00,0.0752
996.00,0.0732
995.00,0.0714
994.00,0.0697
993.00,0.0682
992.00,0.0668
991.00,0.0656
990.00,0.0645
989.00,0.0635
988.00,0.0627
987.00,0.0620
986.00,0.0614
985.00,0.0610
984.00,0.0607
983.00,0.0607
982.00,0.0608
981.00,0.0609
980.00,0.0610
979.00,0.0609
978.00,0.0607
977.00,0.0605
976.00,0.0604
975.00,0.0605
974.00,0.0608
973.00,0.0614
972.00,0.0622
971.00,0.0630
970.00,0.0638
969.00,0.0642
968.00,0.0642
967.00,0.0641
966.00,0.0643
965.00,0.0650
964.00,0.0663
963.00,0.0676
962.00,0.0683
961.00,0.0682
960.00,0.0675
959.00,0.0669
958.00,0.0668
957.00,0.0673
956.00,0.0680
955.00,0.0686
954.00,0.0686
953.00,0.0679
952.00,0.0667
951.00,0.0652
950.00,0.0637
949.00,0.0622
948.00,0.0607
947.00,0.0593
946.00,0.0578
945.00,0.0564
944.00,0.0551
943.00,0.0538
942.00,0.0525
941.00,0.0510
940.00,0.0495
939.00,0.0480
938.00,0.0465
937.00,0.0451
936.00,0.0439
935.00,0.0428
934.00,0.0419
933.00,0.0411
932.00,0.0405
931.00,0.0399
930.00,0.0393
929.00,0.0389
928.00,0.0386
927.00,0.0384
926.00,0.0383
925.00,0.0384
924.00,0.0385
923.00,0.0386
922.00,0.0384
921.00,0.0381
920.00,0.0376
919.00,0.0371
918.00,0.0366
917.00,0.0362
916.00,0.0359
915.00,0.0355
914.00,0.0352
913.00,0.0348
912.00,0.0344
911.00,0.0340
910.00,0.0337
909.00,0.0334
908.00,0.0331
907.00,0.0328
906.00,0.0325
905.00,0.0323
904.00,0.0321
903.00,0.0319
902.00,0.0318
901.00,0.0316
900.00,0.0315
899.00,0.0313
898.00,0.0312
897.00,0.0311
896.00,0.0310
895.00,0.0310
894.00,0.0311
893.00,0.0312
892.00,0.0314
891.00,0.0315
890.00,0.0316
889.00,0.0318
888.00,0.0320
887.00,0.0323
886.00,0.0327
885.00,0.0331
884.00,0.0333
883.00,0.0332
882.00,0.0328
881.00,0.0322
880.00,0.0316
879.00,0.0310
878.00,0.0306
877.00,0.0302
876.00,0.0298
875.00,0.0296
874.00,0.0297
873.00,0.0299
872.00,0.0304
871.00,0.0309
870.00,0.0315
869.00,0.0323
868.00,0.0334
867.00,0.0349
866.00,0.0368
865.00,0.0391
864.00,0.0421
863.00,0.0464
862.00,0.0532
861.00,0.0631
860.00,0.0746
859.00,0.0840
858.00,0.0871
857.00,0.0832
856.00,0.0751
855.00,0.0669
854.00,0.0608
853.00,0.0575
852.00,0.0564
851.00,0.0565
850.00,0.0567
849.00,0.0561
848.00,0.0543
847.00,0.0515
846.00,0.0484
845.00,0.0455
844.00,0.0431
843.00,0.0415
842.00,0.0407
841.00,0.0406
840.00,0.0417
839.00,0.0444
838.00,0.0493
837.00,0.0564
836.00,0.0653
835.00,0.0751
834.00,0.0851
833.00,0.0946
832.00,0.1033
831.00,0.1104
830.00,0.1148
829.00,0.1157
828.00,0.1132
827.00,0.1080
826.00,0.1015
825.00,0.0948
824.00,0.0888
823.00,0.0840
822.00,0.0802
821.00,0.0773
820.00,0.0751
819.00,0.0733
818.00,0.0715
817.00,0.0697
816.00,0.0677
815.00,0.0655
814.00,0.0635
813.00,0.0616
812.00,0.0603
811.00,0.0596
810.00,0.0596
809.00,0.0601
808.00,0.0606
807.00,0.0607
806.00,0.0597
805.00,0.0575
804.00,0.0547
803.00,0.0518
802.00,0.0497
801.00,0.0488
800.00,0.0495
799.00,0.0524
798.00,0.0588
797.00,0.0695
796.00,0.0843
795.00,0.1005
794.00,0.1133
793.00,0.1188
792.00,0.1168
791.00,0.1107
790.00,0.1045
789.00,0.1001
788.00,0.0974
787.00,0.0950
786.00,0.0924
785.00,0.0901
784.00,0.0891
783.00,0.0897
782.00,0.0915
781.00,0.0933
780.00,0.0944
779.00,0.0946
778.00,0.0943
777.00,0.0939
776.00,0.0941
775.00,0.0953
774.00,0.0975
773.00,0.1002
772.00,0.1028
771.00,0.1047
770.00,0.1058
769.00,0.1068
768.00,0.1090
767.00,0.1133
766.00,0.1204
765.00,0.1291
764.00,0.1372
763.00,0.1418
762.00,0.1411
761.00,0.1355
760.00,0.1269
759.00,0.1178
758.00,0.1098
757.00,0.1036
756.00,0.0992
755.00,0.0961
754.00,0.0938
753.00,0.0922
752.00,0.0913
751.00,0.0919
750.00,0.0947
749.00,0.1003
748.00,0.1090
747.00,0.1194
746.00,0.1290
745.00,0.1345
744.00,0.1339
743.00,0.1278
742.00,0.1182
741.00,0.1076
740.00,0.0975
739.00,0.0886
738.00,0.0810
737.00,0.0746
736.00,0.0692
735.00,0.0646
734.00,0.0609
733.00,0.0578
732.00,0.0553
731.00,0.0532
730.00,0.0514
729.00,0.0498
728.00,0.0483
727.00,0.0469
726.00,0.0458
725.00,0.0449
724.00,0.0443
723.00,0.0441
722.00,0.0445
721.00,0.0455
720.00,0.0474
719.00,0.0506
718.00,0.0555
717.00,0.0631
716.00,0.0743
715.00,0.0893
714.00,0.1063
713.00,0.1214
712.00,0.1304
711.00,0.1309
710.00,0.1242
709.00,0.1136
708.00,0.1027
707.00,0.0936
706.00,0.0867
705.00,0.0819
704.00,0.0786
703.00,0.0763
702.00,0.0748
701.00,0.0741
700.00,0.0739
699.00,0.0741
698.00,0.0744
697.00,0.0749
696.00,0.0755
695.00,0.0766
694.00,0.0784
693.00,0.0811
692.00,0.0850
691.00,0.0902
690.00,0.0965
689.00,0.1034
688.00,0.1100
687.00,0.1151
686.00,0.1177
685.00,0.1177
684.00,0.1155
683.00,0.1120
682.00,0.1080
681.00,0.1042
680.00,0.1010
679.00,0.0986
678.00,0.0974
677.00,0.0975
676.00,0.0986
675.00,0.1004
674.00,0.1019
673.00,0.1022
672.00,0.1011
671.00,0.0991
670.00,0.0968
669.00,0.0944
668.00,0.0924
667.00,0.0910
666.00,0.0902
665.00,0.0896
664.00,0.0890
663.00,0.0883
662.00,0.0872
661.00,0.0857
660.00,0.0839
659.00,0.0817
658.00,0.0792
657.00,0.0765
656.00,0.0736
655.00,0.0708
654.00,0.0681
653.00,0.0655
652.00,0.0631
651.00,0.0609
650.00,0.0589
649.00,0.0570
648.00,0.0553
647.00,0.0538
646.00,0.0526
645.00,0.0516
644.00,0.0507
643.00,0.0499
642.00,0.0490
641.00,0.0480
640.00,0.0469
639.00,0.0460
638.00,0.0456
637.00,0.0459
636.00,0.0468
635.00,0.0480
634.00,0.0495
633.00,0.0508
632.00,0.0523
631.00,0.0542
630.00,0.0570
629.00,0.0610
628.00,0.0661
627.00,0.0718
626.00,0.0775
625.00,0.0824
624.00,0.0857
623.00,0.0872
622.00,0.0868
621.00,0.0850
620.00,0.0822
619.00,0.0789
618.00,0.0755
617.00,0.0723
616.00,0.0695
615.00,0.0673
614.00,0.0662
613.00,0.0661
612.00,0.0669
611.00,0.0682
610.00,0.0695
609.00,0.0701
608.00,0.0695
607.00,0.0679
606.00,0.0656
605.00,0.0631
604.00,0.0604
603.00,0.0581
602.00,0.0562
601.00,0.0547
600.00,0.0538
599.00,0.0534
598.00,0.0535
597.00,0.0542
596.00,0.0553
595.00,0.0565
594.00,0.0580
593.00,0.0598
592.00,0.0616
591.00,0.0631
590.00,0.0637
589.00,0.0636
588.00,0.0633
587.00,0.0635
586.00,0.0647
585.00,0.0661
584.00,0.0669
583.00,0.0665
582.00,0.0650
581.00,0.0628
580.00,0.0606
579.00,0.0587
578.00,0.0574
577.00,0.0564
576.00,0.0557
575.00,0.0550
574.00,0.0545
573.00,0.0542
572.00,0.0543
571.00,0.0546
570.00,0.0552
569.00,0.0559
568.00,0.0566
567.00,0.0572
566.00,0.0577
565.00,0.0581
564.00,0.0581
563.00,0.0575
562.00,0.0564
561.00,0.0548
560.00,0.0530
559.00,0.0512
558.00,0.0496
557.00,0.0483
556.00,0.0472
555.00,0.0464
554.00,0.0459
553.00,0.0458
552.00,0.0459
551.00,0.0461
550.00,0.0461
549.00,0.0457
548.00,0.0448
547.00,0.0437
546.00,0.0426
545.00,0.0416
544.00,0.0407
543.00,0.0400
542.00,0.0395
541.00,0.0392
540.00,0.0389
539.00,0.0387
538.00,0.0384
537.00,0.0381
536.00,0.0377
535.00,0.0373
534.00,0.0369
533.00,0.0367
532.00,0.0365
531.00,0.0363
530.00,0.0363
529.00,0.0362
528.00,0.0362
527.00,0.0364
526.00,0.0365
525.00,0.0365
524.00,0.0363
523.00,0.0362
522.00,0.0364
521.00,0.0371
520.00,0.0379
519.00,0.0388
518.00,0.0396
517.00,0.0402
516.00,0.0408
515.00,0.0415
514.00,0.0424
513.00,0.0434
512.00,0.0440
511.00,0.0439
510.00,0.0432
509.00,0.0420
508.00,0.0407
507.00,0.0396
506.00,0.0387
505.00,0.0381
504.00,0.0378
503.00,0.0378
502.00,0.0378
501.00,0.0374
500.00,0.0369
499.00,0.0364
498.00,0.0363
497.00,0.0363
496.00,0.0364
495.00,0.0366
494.00,0.0369
493.00,0.0375
492.00,0.0381
491.00,0.0386
490.00,0.0392
489.00,0.0398
488.00,0.0406
487.00,0.0418
486.00,0.0433
485.00,0.0450
484.00,0.0465
483.00,0.0478
482.00,0.0489
481.00,0.0494
480.00,0.0495
479.00,0.0493
478.00,0.0491
477.00,0.0493
476.00,0.0496
475.00,0.0504
474.00,0.0517
473.00,0.0535
472.00,0.0557
471.00,0.0582
470.00,0.0608
469.00,0.0633
468.00,0.0652
467.00,0.0662
466.00,0.0661
465.00,0.0651
464.00,0.0634
463.00,0.0614
462.00,0.0592
461.00,0.0570
460.00,0.0550
459.00,0.0534
458.00,0.0521
457.00,0.0508
456.00,0.0493
455.00,0.0480
454.00,0.0470
453.00,0.0464
452.00,0.0457
451.00,0.0449
450.00,0.0442
449.00,0.0438
448.00,0.0435
447.00,0.0434
446.00,0.0433
445.00,0.0430
444.00,0.0426
443.00,0.0420
442.00,0.0414
441.00,0.0408
440.00,0.0403
439.00,0.0404
438.00,0.0410
437.00,0.0415
436.00,0.0414
435.00,0.0408
434.00,0.0402
433.00,0.0399
432.00,0.0398
431.00,0.0401
430.00,0.0407
429.00,0.0414
428.00,0.0420
427.00,0.0426
426.00,0.0434
425.00,0.0443
424.00,0.0453
423.00,0.0462
422.00,0.0475
421.00,0.0493
420.00,0.0518
419.00,0.0549
418.00,0.0577
417.00,0.0594
416.00,0.0602
415.00,0.0608
414.00,0.0614
413.00,0.0618
412.00,0.0623
411.00,0.0632
410.00,0.0643
409.00,0.0650
408.00,0.0647
407.00,0.0636
406.00,0.0618
405.00,0.0596
404.00,0.0575
403.00,0.0561
402.00,0.0560
401.00,0.0567
400.00,0.0574
