Created as New Dataset,Sample 1045 By YargerLab Date Monday, August 04 2025
cm-1,A
4000.00,0.0027
3999.00,0.0028
3998.00,0.0028
3997.00,0.0028
3996.00,0.0028
3995.00,0.0029
3994.00,0.0029
3993.00,0.0029
3992.00,0.0029
3991.00,0.0028
3990.00,0.0028
3989.00,0.0028
3988.00,0.0028
3987.00,0.0028
3986.00,0.0029
3985.00,0.0029
3984.00,0.0029
3983.00,0.0029
3982.00,0.0029
3981.00,0.0029
3980.00,0.0028
3979.00,0.0028
3978.00,0.0028
3977.00,0.0028
3976.00,0.0028
3975.00,0.0028
3974.00,0.0028
3973.00,0.0028
3972.00,0.0028
3971.00,0.0028
3970.00,0.0028
3969.00,0.0028
3968.00,0.0028
3967.00,0.0028
3966.00,0.0028
3965.00,0.0028
3964.00,0.0028
3963.00,0.0028
3962.00,0.0028
3961.00,0.0028
3960.00,0.0028
3959.00,0.0028
3958.00,0.0028
3957.00,0.0028
3956.00,0.0028
3955.00,0.0028
3954.00,0.0028
3953.00,0.0028
3952.00,0.0028
3951.00,0.0028
3950.00,0.0028
3949.00,0.0028
3948.00,0.0028
3947.00,0.0028
3946.00,0.0028
3945.00,0.0028
3944.00,0.0028
3943.00,0.0028
3942.00,0.0028
3941.00,0.0028
3940.00,0.0028
3939.00,0.0028
3938.00,0.0028
3937.00,0.0028
3936.00,0.0028
3935.00,0.0028
3934.00,0.0028
3933.00,0.0028
3932.00,0.0028
3931.00,0.0028
3930.00,0.0028
3929.00,0.0028
3928.00,0.0028
3927.00,0.0028
3926.00,0.0028
3925.00,0.0028
3924.00,0.0028
3923.00,0.0028
3922.00,0.0028
3921.00,0.0028
3920.00,0.0028
3919.00,0.0028
3918.00,0.0028
3917.00,0.0028
3916.00,0.0028
3915.00,0.0028
3914.00,0.0028
3913.00,0.0028
3912.00,0.0028
3911.00,0.0028
3910.00,0.0029
3909.00,0.0029
3908.00,0.0029
3907.00,0.0030
3906.00,0.0030
3905.00,0.0030
3904.00,0.0030
3903.00,0.0031
3902.00,0.0030
3901.00,0.0030
3900.00,0.0030
3899.00,0.0029
3898.00,0.0029
3897.00,0.0029
3896.00,0.0029
3895.00,0.0029
3894.00,0.0029
3893.00,0.0029
3892.00,0.0029
3891.00,0.0029
3890.00,0.0030
3889.00,0.0030
3888.00,0.0030
3887.00,0.0030
3886.00,0.0029
3885.00,0.0029
3884.00,0.0030
3883.00,0.0030
3882.00,0.0030
3881.00,0.0030
3880.00,0.0029
3879.00,0.0029
3878.00,0.0029
3877.00,0.0029
3876.00,0.0029
3875.00,0.0029
3874.00,0.0029
3873.00,0.0029
3872.00,0.0029
3871.00,0.0029
3870.00,0.0029
3869.00,0.0029
3868.00,0.0029
3867.00,0.0029
3866.00,0.0029
3865.00,0.0029
3864.00,0.0029
3863.00,0.0029
3862.00,0.0029
3861.00,0.0029
3860.00,0.0029
3859.00,0.0029
3858.00,0.0029
3857.00,0.0030
3856.00,0.0030
3855.00,0.0031
3854.00,0.0031
3853.00,0.0031
3852.00,0.0031
3851.00,0.0031
3850.00,0.0031
3849.00,0.0030
3848.00,0.0030
3847.00,0.0030
3846.00,0.0030
3845.00,0.0029
3844.00,0.0029
3843.00,0.0029
3842.00,0.0030
3841.00,0.0030
3840.00,0.0030
3839.00,0.0030
3838.00,0.0030
3837.00,0.0030
3836.00,0.0030
3835.00,0.0030
3834.00,0.0030
3833.00,0.0030
3832.00,0.0029
3831.00,0.0029
3830.00,0.0029
3829.00,0.0029
3828.00,0.0029
3827.00,0.0029
3826.00,0.0030
3825.00,0.0030
3824.00,0.0030
3823.00,0.0031
3822.00,0.0031
3821.00,0.0031
3820.00,0.0031
3819.00,0.0031
3818.00,0.0031
3817.00,0.0031
3816.00,0.0031
3815.00,0.0030
3814.00,0.0030
3813.00,0.0030
3812.00,0.0030
3811.00,0.0030
3810.00,0.0030
3809.00,0.0030
3808.00,0.0030
3807.00,0.0030
3806.00,0.0031
3805.00,0.0031
3804.00,0.0031
3803.00,0.0031
3802.00,0.0031
3801.00,0.0031
3800.00,0.0031
3799.00,0.0030
3798.00,0.0030
3797.00,0.0029
3796.00,0.0029
3795.00,0.0029
3794.00,0.0029
3793.00,0.0029
3792.00,0.0029
3791.00,0.0029
3790.00,0.0029
3789.00,0.0028
3788.00,0.0028
3787.00,0.0028
3786.00,0.0028
3785.00,0.0028
3784.00,0.0029
3783.00,0.0029
3782.00,0.0029
3781.00,0.0029
3780.00,0.0029
3779.00,0.0029
3778.00,0.0029
3777.00,0.0029
3776.00,0.0029
3775.00,0.0029
3774.00,0.0029
3773.00,0.0029
3772.00,0.0029
3771.00,0.0029
3770.00,0.0029
3769.00,0.0029
3768.00,0.0029
3767.00,0.0029
3766.00,0.0029
3765.00,0.0029
3764.00,0.0029
3763.00,0.0029
3762.00,0.0030
3761.00,0.0030
3760.00,0.0030
3759.00,0.0030
3758.00,0.0030
3757.00,0.0030
3756.00,0.0030
3755.00,0.0031
3754.00,0.0031
3753.00,0.0032
3752.00,0.0032
3751.00,0.0032
3750.00,0.0032
3749.00,0.0032
3748.00,0.0033
3747.00,0.0033
3746.00,0.0032
3745.00,0.0032
3744.00,0.0032
3743.00,0.0032
3742.00,0.0032
3741.00,0.0031
3740.00,0.0031
3739.00,0.0031
3738.00,0.0031
3737.00,0.0031
3736.00,0.0031
3735.00,0.0031
3734.00,0.0031
3733.00,0.0031
3732.00,0.0031
3731.00,0.0031
3730.00,0.0031
3729.00,0.0031
3728.00,0.0030
3727.00,0.0030
3726.00,0.0029
3725.00,0.0029
3724.00,0.0029
3723.00,0.0029
3722.00,0.0029
3721.00,0.0029
3720.00,0.0029
3719.00,0.0029
3718.00,0.0029
3717.00,0.0029
3716.00,0.0029
3715.00,0.0030
3714.00,0.0030
3713.00,0.0031
3712.00,0.0030
3711.00,0.0030
3710.00,0.0030
3709.00,0.0029
3708.00,0.0029
3707.00,0.0029
3706.00,0.0029
3705.00,0.0029
3704.00,0.0029
3703.00,0.0028
3702.00,0.0028
3701.00,0.0028
3700.00,0.0028
3699.00,0.0028
3698.00,0.0028
3697.00,0.0028
3696.00,0.0028
3695.00,0.0028
3694.00,0.0028
3693.00,0.0029
3692.00,0.0030
3691.00,0.0030
3690.00,0.0030
3689.00,0.0030
3688.00,0.0031
3687.00,0.0031
3686.00,0.0031
3685.00,0.0031
3684.00,0.0031
3683.00,0.0031
3682.00,0.0031
3681.00,0.0031
3680.00,0.0032
3679.00,0.0032
3678.00,0.0033
3677.00,0.0034
3676.00,0.0034
3675.00,0.0034
3674.00,0.0033
3673.00,0.0033
3672.00,0.0033
3671.00,0.0033
3670.00,0.0033
3669.00,0.0033
3668.00,0.0033
3667.00,0.0033
3666.00,0.0033
3665.00,0.0032
3664.00,0.0032
3663.00,0.0032
3662.00,0.0032
3661.00,0.0033
3660.00,0.0033
3659.00,0.0033
3658.00,0.0034
3657.00,0.0034
3656.00,0.0034
3655.00,0.0035
3654.00,0.0035
3653.00,0.0036
3652.00,0.0036
3651.00,0.0037
3650.00,0.0038
3649.00,0.0038
3648.00,0.0039
3647.00,0.0039
3646.00,0.0039
3645.00,0.0038
3644.00,0.0038
3643.00,0.0037
3642.00,0.0037
3641.00,0.0037
3640.00,0.0037
3639.00,0.0038
3638.00,0.0038
3637.00,0.0038
3636.00,0.0038
3635.00,0.0039
3634.00,0.0039
3633.00,0.0040
3632.00,0.0041
3631.00,0.0041
3630.00,0.0041
3629.00,0.0042
3628.00,0.0042
3627.00,0.0043
3626.00,0.0043
3625.00,0.0044
3624.00,0.0044
3623.00,0.0044
3622.00,0.0044
3621.00,0.0044
3620.00,0.0044
3619.00,0.0045
3618.00,0.0045
3617.00,0.0046
3616.00,0.0047
3615.00,0.0047
3614.00,0.0048
3613.00,0.0048
3612.00,0.0049
3611.00,0.0049
3610.00,0.0050
3609.00,0.0050
3608.00,0.0050
3607.00,0.0050
3606.00,0.0051
3605.00,0.0051
3604.00,0.0051
3603.00,0.0052
3602.00,0.0052
3601.00,0.0052
3600.00,0.0053
3599.00,0.0053
3598.00,0.0054
3597.00,0.0054
3596.00,0.0055
3595.00,0.0055
3594.00,0.0056
3593.00,0.0057
3592.00,0.0057
3591.00,0.0058
3590.00,0.0059
3589.00,0.0060
3588.00,0.0060
3587.00,0.0060
3586.00,0.0061
3585.00,0.0061
3584.00,0.0062
3583.00,0.0062
3582.00,0.0063
3581.00,0.0063
3580.00,0.0064
3579.00,0.0064
3578.00,0.0065
3577.00,0.0065
3576.00,0.0066
3575.00,0.0066
3574.00,0.0067
3573.00,0.0068
3572.00,0.0069
3571.00,0.0069
3570.00,0.0070
3569.00,0.0071
3568.00,0.0072
3567.00,0.0072
3566.00,0.0073
3565.00,0.0073
3564.00,0.0074
3563.00,0.0075
3562.00,0.0075
3561.00,0.0075
3560.00,0.0076
3559.00,0.0076
3558.00,0.0077
3557.00,0.0077
3556.00,0.0078
3555.00,0.0078
3554.00,0.0079
3553.00,0.0080
3552.00,0.0080
3551.00,0.0081
3550.00,0.0081
3549.00,0.0082
3548.00,0.0082
3547.00,0.0083
3546.00,0.0084
3545.00,0.0084
3544.00,0.0085
3543.00,0.0085
3542.00,0.0085
3541.00,0.0086
3540.00,0.0086
3539.00,0.0086
3538.00,0.0087
3537.00,0.0087
3536.00,0.0087
3535.00,0.0088
3534.00,0.0088
3533.00,0.0089
3532.00,0.0090
3531.00,0.0090
3530.00,0.0090
3529.00,0.0091
3528.00,0.0091
3527.00,0.0092
3526.00,0.0092
3525.00,0.0092
3524.00,0.0093
3523.00,0.0093
3522.00,0.0094
3521.00,0.0094
3520.00,0.0094
3519.00,0.0095
3518.00,0.0095
3517.00,0.0095
3516.00,0.0096
3515.00,0.0096
3514.00,0.0096
3513.00,0.0096
3512.00,0.0097
3511.00,0.0097
3510.00,0.0097
3509.00,0.0098
3508.00,0.0098
3507.00,0.0098
3506.00,0.0099
3505.00,0.0099
3504.00,0.0099
3503.00,0.0100
3502.00,0.0100
3501.00,0.0101
3500.00,0.0101
3499.00,0.0102
3498.00,0.0102
3497.00,0.0102
3496.00,0.0102
3495.00,0.0102
3494.00,0.0103
3493.00,0.0103
3492.00,0.0103
3491.00,0.0104
3490.00,0.0104
3489.00,0.0104
3488.00,0.0104
3487.00,0.0105
3486.00,0.0105
3485.00,0.0105
3484.00,0.0105
3483.00,0.0105
3482.00,0.0105
3481.00,0.0105
3480.00,0.0106
3479.00,0.0106
3478.00,0.0106
3477.00,0.0107
3476.00,0.0107
3475.00,0.0107
3474.00,0.0108
3473.00,0.0108
3472.00,0.0108
3471.00,0.0109
3470.00,0.0109
3469.00,0.0109
3468.00,0.0109
3467.00,0.0109
3466.00,0.0109
3465.00,0.0110
3464.00,0.0110
3463.00,0.0110
3462.00,0.0110
3461.00,0.0110
3460.00,0.0110
3459.00,0.0110
3458.00,0.0110
3457.00,0.0111
3456.00,0.0111
3455.00,0.0111
3454.00,0.0111
3453.00,0.0111
3452.00,0.0111
3451.00,0.0111
3450.00,0.0111
3449.00,0.0111
3448.00,0.0111
3447.00,0.0112
3446.00,0.0112
3445.00,0.0112
3444.00,0.0112
3443.00,0.0112
3442.00,0.0112
3441.00,0.0113
3440.00,0.0113
3439.00,0.0113
3438.00,0.0112
3437.00,0.0112
3436.00,0.0112
3435.00,0.0112
3434.00,0.0112
3433.00,0.0113
3432.00,0.0112
3431.00,0.0112
3430.00,0.0112
3429.00,0.0112
3428.00,0.0112
3427.00,0.0112
3426.00,0.0112
3425.00,0.0112
3424.00,0.0112
3423.00,0.0112
3422.00,0.0112
3421.00,0.0112
3420.00,0.0112
3419.00,0.0112
3418.00,0.0112
3417.00,0.0112
3416.00,0.0112
3415.00,0.0112
3414.00,0.0112
3413.00,0.0112
3412.00,0.0112
3411.00,0.0111
3410.00,0.0111
3409.00,0.0111
3408.00,0.0111
3407.00,0.0111
3406.00,0.0111
3405.00,0.0111
3404.00,0.0111
3403.00,0.0110
3402.00,0.0110
3401.00,0.0110
3400.00,0.0110
3399.00,0.0110
3398.00,0.0110
3397.00,0.0110
3396.00,0.0109
3395.00,0.0109
3394.00,0.0109
3393.00,0.0109
3392.00,0.0109
3391.00,0.0109
3390.00,0.0109
3389.00,0.0109
3388.00,0.0108
3387.00,0.0108
3386.00,0.0108
3385.00,0.0108
3384.00,0.0108
3383.00,0.0108
3382.00,0.0107
3381.00,0.0107
3380.00,0.0107
3379.00,0.0107
3378.00,0.0106
3377.00,0.0106
3376.00,0.0106
3375.00,0.0106
3374.00,0.0106
3373.00,0.0106
3372.00,0.0106
3371.00,0.0106
3370.00,0.0105
3369.00,0.0105
3368.00,0.0105
3367.00,0.0105
3366.00,0.0105
3365.00,0.0105
3364.00,0.0104
3363.00,0.0104
3362.00,0.0104
3361.00,0.0104
3360.00,0.0104
3359.00,0.0104
3358.00,0.0104
3357.00,0.0103
3356.00,0.0103
3355.00,0.0103
3354.00,0.0103
3353.00,0.0103
3352.00,0.0103
3351.00,0.0103
3350.00,0.0102
3349.00,0.0102
3348.00,0.0102
3347.00,0.0102
3346.00,0.0102
3345.00,0.0102
3344.00,0.0101
3343.00,0.0101
3342.00,0.0101
3341.00,0.0101
3340.00,0.0100
3339.00,0.0100
3338.00,0.0100
3337.00,0.0100
3336.00,0.0100
3335.00,0.0100
3334.00,0.0100
3333.00,0.0100
3332.00,0.0100
3331.00,0.0100
3330.00,0.0100
3329.00,0.0099
3328.00,0.0099
3327.00,0.0099
3326.00,0.0098
3325.00,0.0098
3324.00,0.0098
3323.00,0.0098
3322.00,0.0099
3321.00,0.0099
3320.00,0.0099
3319.00,0.0099
3318.00,0.0099
3317.00,0.0099
3316.00,0.0099
3315.00,0.0098
3314.00,0.0098
3313.00,0.0097
3312.00,0.0097
3311.00,0.0097
3310.00,0.0096
3309.00,0.0096
3308.00,0.0096
3307.00,0.0095
3306.00,0.0095
3305.00,0.0096
3304.00,0.0096
3303.00,0.0097
3302.00,0.0098
3301.00,0.0098
3300.00,0.0097
3299.00,0.0097
3298.00,0.0096
3297.00,0.0096
3296.00,0.0096
3295.00,0.0096
3294.00,0.0096
3293.00,0.0096
3292.00,0.0096
3291.00,0.0096
3290.00,0.0096
3289.00,0.0096
3288.00,0.0097
3287.00,0.0096
3286.00,0.0096
3285.00,0.0096
3284.00,0.0096
3283.00,0.0096
3282.00,0.0096
3281.00,0.0096
3280.00,0.0095
3279.00,0.0095
3278.00,0.0095
3277.00,0.0095
3276.00,0.0095
3275.00,0.0094
3274.00,0.0094
3273.00,0.0094
3272.00,0.0094
3271.00,0.0093
3270.00,0.0093
3269.00,0.0093
3268.00,0.0093
3267.00,0.0093
3266.00,0.0093
3265.00,0.0093
3264.00,0.0093
3263.00,0.0093
3262.00,0.0093
3261.00,0.0093
3260.00,0.0093
3259.00,0.0092
3258.00,0.0092
3257.00,0.0092
3256.00,0.0092
3255.00,0.0092
3254.00,0.0092
3253.00,0.0092
3252.00,0.0092
3251.00,0.0091
3250.00,0.0091
3249.00,0.0091
3248.00,0.0091
3247.00,0.0091
3246.00,0.0091
3245.00,0.0091
3244.00,0.0091
3243.00,0.0090
3242.00,0.0090
3241.00,0.0090
3240.00,0.0089
3239.00,0.0089
3238.00,0.0089
3237.00,0.0089
3236.00,0.0089
3235.00,0.0089
3234.00,0.0089
3233.00,0.0088
3232.00,0.0088
3231.00,0.0088
3230.00,0.0088
3229.00,0.0087
3228.00,0.0087
3227.00,0.0088
3226.00,0.0088
3225.00,0.0087
3224.00,0.0087
3223.00,0.0087
3222.00,0.0087
3221.00,0.0087
3220.00,0.0087
3219.00,0.0086
3218.00,0.0086
3217.00,0.0086
3216.00,0.0086
3215.00,0.0085
3214.00,0.0086
3213.00,0.0085
3212.00,0.0085
3211.00,0.0085
3210.00,0.0084
3209.00,0.0084
3208.00,0.0084
3207.00,0.0084
3206.00,0.0084
3205.00,0.0084
3204.00,0.0084
3203.00,0.0083
3202.00,0.0083
3201.00,0.0083
3200.00,0.0083
3199.00,0.0083
3198.00,0.0083
3197.00,0.0082
3196.00,0.0082
3195.00,0.0082
3194.00,0.0082
3193.00,0.0082
3192.00,0.0082
3191.00,0.0082
3190.00,0.0082
3189.00,0.0082
3188.00,0.0081
3187.00,0.0081
3186.00,0.0081
3185.00,0.0081
3184.00,0.0080
3183.00,0.0080
3182.00,0.0080
3181.00,0.0080
3180.00,0.0080
3179.00,0.0080
3178.00,0.0080
3177.00,0.0080
3176.00,0.0080
3175.00,0.0080
3174.00,0.0080
3173.00,0.0079
3172.00,0.0079
3171.00,0.0079
3170.00,0.0079
3169.00,0.0079
3168.00,0.0079
3167.00,0.0079
3166.00,0.0079
3165.00,0.0078
3164.00,0.0078
3163.00,0.0078
3162.00,0.0078
3161.00,0.0078
3160.00,0.0078
3159.00,0.0077
3158.00,0.0077
3157.00,0.0077
3156.00,0.0077
3155.00,0.0077
3154.00,0.0077
3153.00,0.0077
3152.00,0.0077
3151.00,0.0076
3150.00,0.0076
3149.00,0.0076
3148.00,0.0076
3147.00,0.0076
3146.00,0.0076
3145.00,0.0075
3144.00,0.0075
3143.00,0.0075
3142.00,0.0074
3141.00,0.0074
3140.00,0.0074
3139.00,0.0074
3138.00,0.0074
3137.00,0.0074
3136.00,0.0074
3135.00,0.0074
3134.00,0.0074
3133.00,0.0074
3132.00,0.0074
3131.00,0.0074
3130.00,0.0073
3129.00,0.0073
3128.00,0.0073
3127.00,0.0072
3126.00,0.0072
3125.00,0.0073
3124.00,0.0073
3123.00,0.0073
3122.00,0.0073
3121.00,0.0073
3120.00,0.0073
3119.00,0.0072
3118.00,0.0072
3117.00,0.0072
3116.00,0.0072
3115.00,0.0072
3114.00,0.0072
3113.00,0.0072
3112.00,0.0072
3111.00,0.0072
3110.00,0.0071
3109.00,0.0071
3108.00,0.0071
3107.00,0.0071
3106.00,0.0071
3105.00,0.0071
3104.00,0.0071
3103.00,0.0071
3102.00,0.0071
3101.00,0.0070
3100.00,0.0070
3099.00,0.0070
3098.00,0.0069
3097.00,0.0069
3096.00,0.0069
3095.00,0.0069
3094.00,0.0069
3093.00,0.0070
3092.00,0.0070
3091.00,0.0070
3090.00,0.0070
3089.00,0.0070
3088.00,0.0070
3087.00,0.0070
3086.00,0.0070
3085.00,0.0070
3084.00,0.0070
3083.00,0.0070
3082.00,0.0070
3081.00,0.0070
3080.00,0.0070
3079.00,0.0070
3078.00,0.0070
3077.00,0.0070
3076.00,0.0070
3075.00,0.0070
3074.00,0.0070
3073.00,0.0069
3072.00,0.0069
3071.00,0.0069
3070.00,0.0069
3069.00,0.0068
3068.00,0.0068
3067.00,0.0068
3066.00,0.0068
3065.00,0.0067
3064.00,0.0067
3063.00,0.0067
3062.00,0.0067
3061.00,0.0067
3060.00,0.0067
3059.00,0.0067
3058.00,0.0067
3057.00,0.0067
3056.00,0.0066
3055.00,0.0066
3054.00,0.0066
3053.00,0.0066
3052.00,0.0066
3051.00,0.0066
3050.00,0.0066
3049.00,0.0066
3048.00,0.0065
3047.00,0.0065
3046.00,0.0065
3045.00,0.0065
3044.00,0.0065
3043.00,0.0065
3042.00,0.0066
3041.00,0.0065
3040.00,0.0065
3039.00,0.0065
3038.00,0.0065
3037.00,0.0065
3036.00,0.0065
3035.00,0.0065
3034.00,0.0065
3033.00,0.0065
3032.00,0.0065
3031.00,0.0065
3030.00,0.0065
3029.00,0.0065
3028.00,0.0065
3027.00,0.0064
3026.00,0.0064
3025.00,0.0064
3024.00,0.0064
3023.00,0.0064
3022.00,0.0064
3021.00,0.0064
3020.00,0.0064
3019.00,0.0064
3018.00,0.0065
3017.00,0.0065
3016.00,0.0065
3015.00,0.0066
3014.00,0.0066
3013.00,0.0066
3012.00,0.0067
3011.00,0.0067
3010.00,0.0068
3009.00,0.0069
3008.00,0.0069
3007.00,0.0070
3006.00,0.0071
3005.00,0.0072
3004.00,0.0073
3003.00,0.0074
3002.00,0.0076
3001.00,0.0077
3000.00,0.0079
2999.00,0.0081
2998.00,0.0083
2997.00,0.0085
2996.00,0.0088
2995.00,0.0090
2994.00,0.0093
2993.00,0.0095
2992.00,0.0098
2991.00,0.0101
2990.00,0.0104
2989.00,0.0106
2988.00,0.0109
2987.00,0.0112
2986.00,0.0114
2985.00,0.0116
2984.00,0.0118
2983.00,0.0120
2982.00,0.0122
2981.00,0.0124
2980.00,0.0126
2979.00,0.0128
2978.00,0.0130
2977.00,0.0133
2976.00,0.0135
2975.00,0.0136
2974.00,0.0138
2973.00,0.0139
2972.00,0.0141
2971.00,0.0142
2970.00,0.0144
2969.00,0.0146
2968.00,0.0148
2967.00,0.0149
2966.00,0.0151
2965.00,0.0154
2964.00,0.0156
2963.00,0.0157
2962.00,0.0159
2961.00,0.0161
2960.00,0.0162
2959.00,0.0163
2958.00,0.0165
2957.00,0.0166
2956.00,0.0167
2955.00,0.0168
2954.00,0.0168
2953.00,0.0168
2952.00,0.0168
2951.00,0.0168
2950.00,0.0168
2949.00,0.0168
2948.00,0.0168
2947.00,0.0167
2946.00,0.0167
2945.00,0.0167
2944.00,0.0167
2943.00,0.0167
2942.00,0.0167
2941.00,0.0167
2940.00,0.0167
2939.00,0.0168
2938.00,0.0169
2937.00,0.0170
2936.00,0.0171
2935.00,0.0173
2934.00,0.0174
2933.00,0.0175
2932.00,0.0177
2931.00,0.0178
2930.00,0.0180
2929.00,0.0181
2928.00,0.0182
2927.00,0.0183
2926.00,0.0184
2925.00,0.0184
2924.00,0.0184
2923.00,0.0184
2922.00,0.0184
2921.00,0.0183
2920.00,0.0182
2919.00,0.0180
2918.00,0.0178
2917.00,0.0176
2916.00,0.0173
2915.00,0.0170
2914.00,0.0167
2913.00,0.0164
2912.00,0.0161
2911.00,0.0158
2910.00,0.0155
2909.00,0.0152
2908.00,0.0150
2907.00,0.0148
2906.00,0.0146
2905.00,0.0144
2904.00,0.0143
2903.00,0.0142
2902.00,0.0141
2901.00,0.0140
2900.00,0.0140
2899.00,0.0139
2898.00,0.0139
2897.00,0.0138
2896.00,0.0138
2895.00,0.0138
2894.00,0.0138
2893.00,0.0137
2892.00,0.0137
2891.00,0.0137
2890.00,0.0137
2889.00,0.0137
2888.00,0.0136
2887.00,0.0136
2886.00,0.0136
2885.00,0.0136
2884.00,0.0136
2883.00,0.0136
2882.00,0.0136
2881.00,0.0136
2880.00,0.0137
2879.00,0.0137
2878.00,0.0138
2877.00,0.0138
2876.00,0.0139
2875.00,0.0140
2874.00,0.0140
2873.00,0.0140
2872.00,0.0141
2871.00,0.0141
2870.00,0.0141
2869.00,0.0141
2868.00,0.0140
2867.00,0.0140
2866.00,0.0139
2865.00,0.0139
2864.00,0.0139
2863.00,0.0139
2862.00,0.0139
2861.00,0.0139
2860.00,0.0139
2859.00,0.0139
2858.00,0.0138
2857.00,0.0137
2856.00,0.0137
2855.00,0.0135
2854.00,0.0134
2853.00,0.0132
2852.00,0.0129
2851.00,0.0126
2850.00,0.0123
2849.00,0.0119
2848.00,0.0116
2847.00,0.0112
2846.00,0.0109
2845.00,0.0106
2844.00,0.0103
2843.00,0.0101
2842.00,0.0098
2841.00,0.0095
2840.00,0.0093
2839.00,0.0091
2838.00,0.0089
2837.00,0.0087
2836.00,0.0086
2835.00,0.0084
2834.00,0.0083
2833.00,0.0081
2832.00,0.0080
2831.00,0.0079
2830.00,0.0077
2829.00,0.0076
2828.00,0.0075
2827.00,0.0073
2826.00,0.0072
2825.00,0.0071
2824.00,0.0070
2823.00,0.0069
2822.00,0.0068
2821.00,0.0068
2820.00,0.0067
2819.00,0.0066
2818.00,0.0065
2817.00,0.0064
2816.00,0.0063
2815.00,0.0063
2814.00,0.0062
2813.00,0.0062
2812.00,0.0061
2811.00,0.0061
2810.00,0.0060
2809.00,0.0060
2808.00,0.0060
2807.00,0.0059
2806.00,0.0059
2805.00,0.0059
2804.00,0.0059
2803.00,0.0059
2802.00,0.0058
2801.00,0.0058
2800.00,0.0057
2799.00,0.0057
2798.00,0.0057
2797.00,0.0056
2796.00,0.0056
2795.00,0.0056
2794.00,0.0056
2793.00,0.0056
2792.00,0.0055
2791.00,0.0055
2790.00,0.0055
2789.00,0.0055
2788.00,0.0055
2787.00,0.0055
2786.00,0.0055
2785.00,0.0054
2784.00,0.0054
2783.00,0.0054
2782.00,0.0054
2781.00,0.0054
2780.00,0.0053
2779.00,0.0053
2778.00,0.0053
2777.00,0.0053
2776.00,0.0052
2775.00,0.0052
2774.00,0.0052
2773.00,0.0052
2772.00,0.0052
2771.00,0.0052
2770.00,0.0052
2769.00,0.0052
2768.00,0.0051
2767.00,0.0051
2766.00,0.0051
2765.00,0.0051
2764.00,0.0051
2763.00,0.0051
2762.00,0.0051
2761.00,0.0051
2760.00,0.0051
2759.00,0.0051
2758.00,0.0051
2757.00,0.0051
2756.00,0.0051
2755.00,0.0051
2754.00,0.0051
2753.00,0.0051
2752.00,0.0051
2751.00,0.0051
2750.00,0.0051
2749.00,0.0051
2748.00,0.0051
2747.00,0.0051
2746.00,0.0051
2745.00,0.0051
2744.00,0.0051
2743.00,0.0052
2742.00,0.0052
2741.00,0.0052
2740.00,0.0051
2739.00,0.0051
2738.00,0.0051
2737.00,0.0051
2736.00,0.0051
2735.00,0.0052
2734.00,0.0052
2733.00,0.0052
2732.00,0.0052
2731.00,0.0052
2730.00,0.0052
2729.00,0.0051
2728.00,0.0051
2727.00,0.0051
2726.00,0.0051
2725.00,0.0051
2724.00,0.0051
2723.00,0.0051
2722.00,0.0051
2721.00,0.0050
2720.00,0.0050
2719.00,0.0050
2718.00,0.0050
2717.00,0.0050
2716.00,0.0050
2715.00,0.0050
2714.00,0.0050
2713.00,0.0050
2712.00,0.0049
2711.00,0.0049
2710.00,0.0049
2709.00,0.0049
2708.00,0.0049
2707.00,0.0049
2706.00,0.0049
2705.00,0.0049
2704.00,0.0049
2703.00,0.0049
2702.00,0.0049
2701.00,0.0048
2700.00,0.0048
2699.00,0.0048
2698.00,0.0048
2697.00,0.0048
2696.00,0.0048
2695.00,0.0048
2694.00,0.0047
2693.00,0.0047
2692.00,0.0047
2691.00,0.0047
2690.00,0.0047
2689.00,0.0047
2688.00,0.0047
2687.00,0.0047
2686.00,0.0047
2685.00,0.0047
2684.00,0.0047
2683.00,0.0047
2682.00,0.0047
2681.00,0.0046
2680.00,0.0046
2679.00,0.0046
2678.00,0.0046
2677.00,0.0046
2676.00,0.0046
2675.00,0.0046
2674.00,0.0046
2673.00,0.0046
2672.00,0.0046
2671.00,0.0046
2670.00,0.0046
2669.00,0.0046
2668.00,0.0047
2667.00,0.0047
2666.00,0.0047
2665.00,0.0048
2664.00,0.0048
2663.00,0.0048
2662.00,0.0049
2661.00,0.0049
2660.00,0.0049
2659.00,0.0049
2658.00,0.0049
2657.00,0.0049
2656.00,0.0049
2655.00,0.0049
2654.00,0.0049
2653.00,0.0049
2652.00,0.0049
2651.00,0.0049
2650.00,0.0049
2649.00,0.0049
2648.00,0.0049
2647.00,0.0049
2646.00,0.0049
2645.00,0.0049
2644.00,0.0048
2643.00,0.0048
2642.00,0.0048
2641.00,0.0049
2640.00,0.0049
2639.00,0.0049
2638.00,0.0049
2637.00,0.0049
2636.00,0.0048
2635.00,0.0048
2634.00,0.0048
2633.00,0.0048
2632.00,0.0048
2631.00,0.0048
2630.00,0.0048
2629.00,0.0048
2628.00,0.0048
2627.00,0.0048
2626.00,0.0048
2625.00,0.0047
2624.00,0.0047
2623.00,0.0047
2622.00,0.0047
2621.00,0.0047
2620.00,0.0046
2619.00,0.0046
2618.00,0.0046
2617.00,0.0046
2616.00,0.0046
2615.00,0.0046
2614.00,0.0046
2613.00,0.0045
2612.00,0.0045
2611.00,0.0046
2610.00,0.0046
2609.00,0.0046
2608.00,0.0045
2607.00,0.0045
2606.00,0.0045
2605.00,0.0044
2604.00,0.0044
2603.00,0.0044
2602.00,0.0045
2601.00,0.0045
2600.00,0.0045
2599.00,0.0045
2598.00,0.0045
2597.00,0.0045
2596.00,0.0045
2595.00,0.0045
2594.00,0.0045
2593.00,0.0044
2592.00,0.0044
2591.00,0.0044
2590.00,0.0043
2589.00,0.0043
2588.00,0.0043
2587.00,0.0044
2586.00,0.0044
2585.00,0.0043
2584.00,0.0043
2583.00,0.0043
2582.00,0.0043
2581.00,0.0043
2580.00,0.0043
2579.00,0.0043
2578.00,0.0043
2577.00,0.0043
2576.00,0.0043
2575.00,0.0044
2574.00,0.0043
2573.00,0.0043
2572.00,0.0043
2571.00,0.0043
2570.00,0.0042
2569.00,0.0042
2568.00,0.0042
2567.00,0.0042
2566.00,0.0042
2565.00,0.0042
2564.00,0.0042
2563.00,0.0042
2562.00,0.0041
2561.00,0.0041
2560.00,0.0041
2559.00,0.0041
2558.00,0.0041
2557.00,0.0042
2556.00,0.0042
2555.00,0.0041
2554.00,0.0041
2553.00,0.0040
2552.00,0.0040
2551.00,0.0040
2550.00,0.0040
2549.00,0.0040
2548.00,0.0040
2547.00,0.0040
2546.00,0.0040
2545.00,0.0039
2544.00,0.0039
2543.00,0.0039
2542.00,0.0039
2541.00,0.0039
2540.00,0.0039
2539.00,0.0039
2538.00,0.0039
2537.00,0.0039
2536.00,0.0039
2535.00,0.0039
2534.00,0.0039
2533.00,0.0039
2532.00,0.0039
2531.00,0.0039
2530.00,0.0039
2529.00,0.0038
2528.00,0.0038
2527.00,0.0038
2526.00,0.0038
2525.00,0.0038
2524.00,0.0038
2523.00,0.0037
2522.00,0.0037
2521.00,0.0037
2520.00,0.0037
2519.00,0.0037
2518.00,0.0037
2517.00,0.0036
2516.00,0.0036
2515.00,0.0036
2514.00,0.0036
2513.00,0.0036
2512.00,0.0036
2511.00,0.0036
2510.00,0.0036
2509.00,0.0036
2508.00,0.0036
2507.00,0.0036
2506.00,0.0035
2505.00,0.0035
2504.00,0.0035
2503.00,0.0035
2502.00,0.0035
2501.00,0.0035
2500.00,0.0035
2499.00,0.0035
2498.00,0.0035
2497.00,0.0035
2496.00,0.0035
2495.00,0.0035
2494.00,0.0035
2493.00,0.0035
2492.00,0.0035
2491.00,0.0035
2490.00,0.0035
2489.00,0.0035
2488.00,0.0035
2487.00,0.0035
2486.00,0.0035
2485.00,0.0035
2484.00,0.0035
2483.00,0.0035
2482.00,0.0035
2481.00,0.0035
2480.00,0.0035
2479.00,0.0035
2478.00,0.0034
2477.00,0.0034
2476.00,0.0034
2475.00,0.0035
2474.00,0.0035
2473.00,0.0035
2472.00,0.0035
2471.00,0.0035
2470.00,0.0035
2469.00,0.0035
2468.00,0.0035
2467.00,0.0035
2466.00,0.0035
2465.00,0.0035
2464.00,0.0035
2463.00,0.0035
2462.00,0.0035
2461.00,0.0035
2460.00,0.0036
2459.00,0.0036
2458.00,0.0036
2457.00,0.0036
2456.00,0.0036
2455.00,0.0036
2454.00,0.0036
2453.00,0.0037
2452.00,0.0036
2451.00,0.0036
2450.00,0.0036
2449.00,0.0035
2448.00,0.0035
2447.00,0.0035
2446.00,0.0035
2445.00,0.0035
2444.00,0.0036
2443.00,0.0036
2442.00,0.0035
2441.00,0.0035
2440.00,0.0035
2439.00,0.0034
2438.00,0.0034
2437.00,0.0034
2436.00,0.0035
2435.00,0.0035
2434.00,0.0034
2433.00,0.0034
2432.00,0.0034
2431.00,0.0034
2430.00,0.0034
2429.00,0.0034
2428.00,0.0034
2427.00,0.0034
2426.00,0.0034
2425.00,0.0034
2424.00,0.0034
2423.00,0.0034
2422.00,0.0034
2421.00,0.0034
2420.00,0.0034
2419.00,0.0034
2418.00,0.0034
2417.00,0.0034
2416.00,0.0034
2415.00,0.0033
2414.00,0.0033
2413.00,0.0033
2412.00,0.0034
2411.00,0.0034
2410.00,0.0034
2409.00,0.0034
2408.00,0.0033
2407.00,0.0033
2406.00,0.0032
2405.00,0.0032
2404.00,0.0032
2403.00,0.0032
2402.00,0.0032
2401.00,0.0032
2400.00,0.0032
2399.00,0.0032
2398.00,0.0032
2397.00,0.0032
2396.00,0.0032
2395.00,0.0032
2394.00,0.0032
2393.00,0.0032
2392.00,0.0032
2391.00,0.0032
2390.00,0.0032
2389.00,0.0031
2388.00,0.0031
2387.00,0.0031
2386.00,0.0031
2385.00,0.0031
2384.00,0.0031
2383.00,0.0031
2382.00,0.0031
2381.00,0.0031
2380.00,0.0031
2379.00,0.0031
2378.00,0.0030
2377.00,0.0030
2376.00,0.0030
2375.00,0.0030
2374.00,0.0031
2373.00,0.0031
2372.00,0.0030
2371.00,0.0030
2370.00,0.0029
2369.00,0.0029
2368.00,0.0029
2367.00,0.0029
2366.00,0.0030
2365.00,0.0031
2364.00,0.0032
2363.00,0.0032
2362.00,0.0033
2361.00,0.0033
2360.00,0.0032
2359.00,0.0032
2358.00,0.0032
2357.00,0.0031
2356.00,0.0031
2355.00,0.0031
2354.00,0.0030
2353.00,0.0030
2352.00,0.0029
2351.00,0.0029
2350.00,0.0030
2349.00,0.0032
2348.00,0.0035
2347.00,0.0036
2346.00,0.0036
2345.00,0.0036
2344.00,0.0035
2343.00,0.0035
2342.00,0.0035
2341.00,0.0035
2340.00,0.0035
2339.00,0.0035
2338.00,0.0035
2337.00,0.0035
2336.00,0.0035
2335.00,0.0035
2334.00,0.0035
2333.00,0.0035
2332.00,0.0034
2331.00,0.0034
2330.00,0.0034
2329.00,0.0036
2328.00,0.0039
2327.00,0.0043
2326.00,0.0046
2325.00,0.0047
2324.00,0.0046
2323.00,0.0044
2322.00,0.0042
2321.00,0.0040
2320.00,0.0039
2319.00,0.0039
2318.00,0.0038
2317.00,0.0038
2316.00,0.0038
2315.00,0.0038
2314.00,0.0038
2313.00,0.0037
2312.00,0.0036
2311.00,0.0036
2310.00,0.0035
2309.00,0.0036
2308.00,0.0036
2307.00,0.0037
2306.00,0.0037
2305.00,0.0037
2304.00,0.0037
2303.00,0.0037
2302.00,0.0037
2301.00,0.0037
2300.00,0.0037
2299.00,0.0038
2298.00,0.0038
2297.00,0.0039
2296.00,0.0039
2295.00,0.0040
2294.00,0.0040
2293.00,0.0041
2292.00,0.0042
2291.00,0.0043
2290.00,0.0044
2289.00,0.0045
2288.00,0.0045
2287.00,0.0045
2286.00,0.0045
2285.00,0.0044
2284.00,0.0044
2283.00,0.0043
2282.00,0.0043
2281.00,0.0042
2280.00,0.0042
2279.00,0.0042
2278.00,0.0042
2277.00,0.0042
2276.00,0.0042
2275.00,0.0041
2274.00,0.0040
2273.00,0.0039
2272.00,0.0039
2271.00,0.0038
2270.00,0.0038
2269.00,0.0038
2268.00,0.0037
2267.00,0.0036
2266.00,0.0036
2265.00,0.0036
2264.00,0.0037
2263.00,0.0038
2262.00,0.0039
2261.00,0.0039
2260.00,0.0040
2259.00,0.0039
2258.00,0.0038
2257.00,0.0037
2256.00,0.0036
2255.00,0.0035
2254.00,0.0035
2253.00,0.0035
2252.00,0.0035
2251.00,0.0036
2250.00,0.0036
2249.00,0.0036
2248.00,0.0037
2247.00,0.0037
2246.00,0.0037
2245.00,0.0036
2244.00,0.0036
2243.00,0.0036
2242.00,0.0036
2241.00,0.0036
2240.00,0.0036
2239.00,0.0037
2238.00,0.0037
2237.00,0.0037
2236.00,0.0037
2235.00,0.0037
2234.00,0.0036
2233.00,0.0036
2232.00,0.0035
2231.00,0.0035
2230.00,0.0034
2229.00,0.0034
2228.00,0.0035
2227.00,0.0035
2226.00,0.0035
2225.00,0.0035
2224.00,0.0036
2223.00,0.0036
2222.00,0.0037
2221.00,0.0037
2220.00,0.0038
2219.00,0.0038
2218.00,0.0037
2217.00,0.0037
2216.00,0.0036
2215.00,0.0037
2214.00,0.0036
2213.00,0.0036
2212.00,0.0036
2211.00,0.0036
2210.00,0.0036
2209.00,0.0036
2208.00,0.0036
2207.00,0.0036
2206.00,0.0036
2205.00,0.0036
2204.00,0.0037
2203.00,0.0037
2202.00,0.0037
2201.00,0.0037
2200.00,0.0037
2199.00,0.0037
2198.00,0.0037
2197.00,0.0037
2196.00,0.0037
2195.00,0.0037
2194.00,0.0037
2193.00,0.0038
2192.00,0.0039
2191.00,0.0040
2190.00,0.0040
2189.00,0.0041
2188.00,0.0041
2187.00,0.0042
2186.00,0.0042
2185.00,0.0041
2184.00,0.0038
2183.00,0.0035
2182.00,0.0032
2181.00,0.0031
2180.00,0.0032
2179.00,0.0034
2178.00,0.0035
2177.00,0.0034
2176.00,0.0032
2175.00,0.0031
2174.00,0.0031
2173.00,0.0032
2172.00,0.0034
2171.00,0.0037
2170.00,0.0039
2169.00,0.0042
2168.00,0.0044
2167.00,0.0045
2166.00,0.0046
2165.00,0.0049
2164.00,0.0051
2163.00,0.0052
2162.00,0.0048
2161.00,0.0038
2160.00,0.0025
2159.00,0.0014
2158.00,0.0008
2157.00,0.0008
2156.00,0.0011
2155.00,0.0013
2154.00,0.0014
2153.00,0.0016
2152.00,0.0018
2151.00,0.0020
2150.00,0.0022
2149.00,0.0022
2148.00,0.0021
2147.00,0.0020
2146.00,0.0020
2145.00,0.0020
2144.00,0.0020
2143.00,0.0020
2142.00,0.0020
2141.00,0.0020
2140.00,0.0021
2139.00,0.0021
2138.00,0.0020
2137.00,0.0019
2136.00,0.0018
2135.00,0.0016
2134.00,0.0016
2133.00,0.0017
2132.00,0.0019
2131.00,0.0020
2130.00,0.0021
2129.00,0.0023
2128.00,0.0024
2127.00,0.0025
2126.00,0.0026
2125.00,0.0027
2124.00,0.0027
2123.00,0.0028
2122.00,0.0028
2121.00,0.0028
2120.00,0.0029
2119.00,0.0030
2118.00,0.0032
2117.00,0.0033
2116.00,0.0034
2115.00,0.0035
2114.00,0.0036
2113.00,0.0036
2112.00,0.0036
2111.00,0.0035
2110.00,0.0034
2109.00,0.0033
2108.00,0.0032
2107.00,0.0032
2106.00,0.0032
2105.00,0.0032
2104.00,0.0033
2103.00,0.0033
2102.00,0.0033
2101.00,0.0033
2100.00,0.0033
2099.00,0.0032
2098.00,0.0032
2097.00,0.0030
2096.00,0.0030
2095.00,0.0030
2094.00,0.0031
2093.00,0.0031
2092.00,0.0032
2091.00,0.0032
2090.00,0.0032
2089.00,0.0032
2088.00,0.0032
2087.00,0.0033
2086.00,0.0033
2085.00,0.0033
2084.00,0.0034
2083.00,0.0034
2082.00,0.0035
2081.00,0.0035
2080.00,0.0036
2079.00,0.0036
2078.00,0.0036
2077.00,0.0036
2076.00,0.0035
2075.00,0.0035
2074.00,0.0034
2073.00,0.0034
2072.00,0.0034
2071.00,0.0034
2070.00,0.0034
2069.00,0.0034
2068.00,0.0034
2067.00,0.0034
2066.00,0.0034
2065.00,0.0033
2064.00,0.0034
2063.00,0.0034
2062.00,0.0034
2061.00,0.0034
2060.00,0.0034
2059.00,0.0034
2058.00,0.0034
2057.00,0.0033
2056.00,0.0033
2055.00,0.0034
2054.00,0.0036
2053.00,0.0040
2052.00,0.0043
2051.00,0.0044
2050.00,0.0043
2049.00,0.0039
2048.00,0.0036
2047.00,0.0034
2046.00,0.0032
2045.00,0.0032
2044.00,0.0033
2043.00,0.0035
2042.00,0.0036
2041.00,0.0036
2040.00,0.0036
2039.00,0.0035
2038.00,0.0034
2037.00,0.0033
2036.00,0.0031
2035.00,0.0029
2034.00,0.0028
2033.00,0.0027
2032.00,0.0028
2031.00,0.0029
2030.00,0.0028
2029.00,0.0027
2028.00,0.0026
2027.00,0.0025
2026.00,0.0024
2025.00,0.0023
2024.00,0.0023
2023.00,0.0024
2022.00,0.0026
2021.00,0.0027
2020.00,0.0028
2019.00,0.0029
2018.00,0.0028
2017.00,0.0028
2016.00,0.0027
2015.00,0.0027
2014.00,0.0026
2013.00,0.0026
2012.00,0.0025
2011.00,0.0025
2010.00,0.0025
2009.00,0.0025
2008.00,0.0025
2007.00,0.0024
2006.00,0.0023
2005.00,0.0022
2004.00,0.0023
2003.00,0.0024
2002.00,0.0024
2001.00,0.0025
2000.00,0.0027
1999.00,0.0028
1998.00,0.0029
1997.00,0.0029
1996.00,0.0029
1995.00,0.0029
1994.00,0.0029
1993.00,0.0030
1992.00,0.0031
1991.00,0.0030
1990.00,0.0029
1989.00,0.0028
1988.00,0.0029
1987.00,0.0029
1986.00,0.0030
1985.00,0.0032
1984.00,0.0034
1983.00,0.0036
1982.00,0.0036
1981.00,0.0035
1980.00,0.0032
1979.00,0.0027
1978.00,0.0022
1977.00,0.0019
1976.00,0.0020
1975.00,0.0021
1974.00,0.0022
1973.00,0.0022
1972.00,0.0022
1971.00,0.0022
1970.00,0.0022
1969.00,0.0022
1968.00,0.0022
1967.00,0.0022
1966.00,0.0021
1965.00,0.0021
1964.00,0.0021
1963.00,0.0021
1962.00,0.0020
1961.00,0.0018
1960.00,0.0018
1959.00,0.0018
1958.00,0.0018
1957.00,0.0019
1956.00,0.0019
1955.00,0.0020
1954.00,0.0020
1953.00,0.0021
1952.00,0.0023
1951.00,0.0024
1950.00,0.0024
1949.00,0.0024
1948.00,0.0024
1947.00,0.0024
1946.00,0.0023
1945.00,0.0022
1944.00,0.0022
1943.00,0.0022
1942.00,0.0022
1941.00,0.0022
1940.00,0.0022
1939.00,0.0021
1938.00,0.0021
1937.00,0.0020
1936.00,0.0020
1935.00,0.0020
1934.00,0.0020
1933.00,0.0021
1932.00,0.0022
1931.00,0.0023
1930.00,0.0024
1929.00,0.0024
1928.00,0.0024
1927.00,0.0023
1926.00,0.0023
1925.00,0.0023
1924.00,0.0023
1923.00,0.0024
1922.00,0.0024
1921.00,0.0025
1920.00,0.0025
1919.00,0.0025
1918.00,0.0025
1917.00,0.0025
1916.00,0.0025
1915.00,0.0026
1914.00,0.0027
1913.00,0.0028
1912.00,0.0028
1911.00,0.0027
1910.00,0.0027
1909.00,0.0026
1908.00,0.0026
1907.00,0.0025
1906.00,0.0024
1905.00,0.0024
1904.00,0.0025
1903.00,0.0025
1902.00,0.0025
1901.00,0.0026
1900.00,0.0026
1899.00,0.0026
1898.00,0.0026
1897.00,0.0026
1896.00,0.0026
1895.00,0.0026
1894.00,0.0027
1893.00,0.0027
1892.00,0.0027
1891.00,0.0027
1890.00,0.0026
1889.00,0.0026
1888.00,0.0026
1887.00,0.0026
1886.00,0.0025
1885.00,0.0025
1884.00,0.0025
1883.00,0.0026
1882.00,0.0026
1881.00,0.0026
1880.00,0.0026
1879.00,0.0026
1878.00,0.0026
1877.00,0.0025
1876.00,0.0026
1875.00,0.0026
1874.00,0.0026
1873.00,0.0026
1872.00,0.0027
1871.00,0.0028
1870.00,0.0028
1869.00,0.0028
1868.00,0.0028
1867.00,0.0028
1866.00,0.0027
1865.00,0.0027
1864.00,0.0027
1863.00,0.0027
1862.00,0.0027
1861.00,0.0027
1860.00,0.0027
1859.00,0.0027
1858.00,0.0026
1857.00,0.0026
1856.00,0.0026
1855.00,0.0027
1854.00,0.0027
1853.00,0.0027
1852.00,0.0026
1851.00,0.0026
1850.00,0.0026
1849.00,0.0026
1848.00,0.0026
1847.00,0.0027
1846.00,0.0028
1845.00,0.0029
1844.00,0.0029
1843.00,0.0028
1842.00,0.0027
1841.00,0.0027
1840.00,0.0027
1839.00,0.0027
1838.00,0.0027
1837.00,0.0026
1836.00,0.0026
1835.00,0.0026
1834.00,0.0027
1833.00,0.0028
1832.00,0.0028
1831.00,0.0029
1830.00,0.0028
1829.00,0.0027
1828.00,0.0027
1827.00,0.0027
1826.00,0.0027
1825.00,0.0028
1824.00,0.0028
1823.00,0.0027
1822.00,0.0027
1821.00,0.0026
1820.00,0.0026
1819.00,0.0025
1818.00,0.0024
1817.00,0.0024
1816.00,0.0024
1815.00,0.0025
1814.00,0.0026
1813.00,0.0026
1812.00,0.0027
1811.00,0.0027
1810.00,0.0027
1809.00,0.0027
1808.00,0.0027
1807.00,0.0027
1806.00,0.0027
1805.00,0.0027
1804.00,0.0028
1803.00,0.0028
1802.00,0.0028
1801.00,0.0028
1800.00,0.0028
1799.00,0.0028
1798.00,0.0028
1797.00,0.0028
1796.00,0.0028
1795.00,0.0029
1794.00,0.0029
1793.00,0.0030
1792.00,0.0030
1791.00,0.0029
1790.00,0.0029
1789.00,0.0029
1788.00,0.0029
1787.00,0.0029
1786.00,0.0029
1785.00,0.0029
1784.00,0.0030
1783.00,0.0030
1782.00,0.0030
1781.00,0.0029
1780.00,0.0029
1779.00,0.0029
1778.00,0.0029
1777.00,0.0029
1776.00,0.0029
1775.00,0.0030
1774.00,0.0031
1773.00,0.0031
1772.00,0.0031
1771.00,0.0031
1770.00,0.0031
1769.00,0.0031
1768.00,0.0031
1767.00,0.0031
1766.00,0.0031
1765.00,0.0031
1764.00,0.0032
1763.00,0.0033
1762.00,0.0033
1761.00,0.0032
1760.00,0.0032
1759.00,0.0032
1758.00,0.0032
1757.00,0.0032
1756.00,0.0033
1755.00,0.0033
1754.00,0.0033
1753.00,0.0034
1752.00,0.0034
1751.00,0.0035
1750.00,0.0035
1749.00,0.0035
1748.00,0.0035
1747.00,0.0035
1746.00,0.0035
1745.00,0.0035
1744.00,0.0036
1743.00,0.0036
1742.00,0.0037
1741.00,0.0037
1740.00,0.0038
1739.00,0.0038
1738.00,0.0038
1737.00,0.0039
1736.00,0.0040
1735.00,0.0041
1734.00,0.0040
1733.00,0.0039
1732.00,0.0039
1731.00,0.0040
1730.00,0.0041
1729.00,0.0041
1728.00,0.0042
1727.00,0.0042
1726.00,0.0043
1725.00,0.0044
1724.00,0.0045
1723.00,0.0046
1722.00,0.0047
1721.00,0.0049
1720.00,0.0051
1719.00,0.0053
1718.00,0.0054
1717.00,0.0055
1716.00,0.0057
1715.00,0.0058
1714.00,0.0060
1713.00,0.0062
1712.00,0.0065
1711.00,0.0068
1710.00,0.0071
1709.00,0.0075
1708.00,0.0081
1707.00,0.0087
1706.00,0.0093
1705.00,0.0101
1704.00,0.0109
1703.00,0.0117
1702.00,0.0127
1701.00,0.0142
1700.00,0.0160
1699.00,0.0176
1698.00,0.0190
1697.00,0.0206
1696.00,0.0228
1695.00,0.0253
1694.00,0.0275
1693.00,0.0294
1692.00,0.0315
1691.00,0.0337
1690.00,0.0362
1689.00,0.0387
1688.00,0.0410
1687.00,0.0429
1686.00,0.0448
1685.00,0.0474
1684.00,0.0507
1683.00,0.0537
1682.00,0.0557
1681.00,0.0573
1680.00,0.0589
1679.00,0.0603
1678.00,0.0615
1677.00,0.0627
1676.00,0.0641
1675.00,0.0657
1674.00,0.0671
1673.00,0.0681
1672.00,0.0689
1671.00,0.0697
1670.00,0.0707
1669.00,0.0719
1668.00,0.0731
1667.00,0.0740
1666.00,0.0745
1665.00,0.0750
1664.00,0.0756
1663.00,0.0764
1662.00,0.0774
1661.00,0.0782
1660.00,0.0788
1659.00,0.0791
1658.00,0.0793
1657.00,0.0793
1656.00,0.0791
1655.00,0.0787
1654.00,0.0784
1653.00,0.0786
1652.00,0.0788
1651.00,0.0784
1650.00,0.0774
1649.00,0.0762
1648.00,0.0746
1647.00,0.0730
1646.00,0.0713
1645.00,0.0696
1644.00,0.0679
1643.00,0.0659
1642.00,0.0638
1641.00,0.0617
1640.00,0.0595
1639.00,0.0575
1638.00,0.0554
1637.00,0.0532
1636.00,0.0508
1635.00,0.0485
1634.00,0.0466
1633.00,0.0448
1632.00,0.0432
1631.00,0.0416
1630.00,0.0401
1629.00,0.0387
1628.00,0.0375
1627.00,0.0367
1626.00,0.0361
1625.00,0.0357
1624.00,0.0355
1623.00,0.0357
1622.00,0.0359
1621.00,0.0360
1620.00,0.0360
1619.00,0.0358
1618.00,0.0354
1617.00,0.0347
1616.00,0.0340
1615.00,0.0332
1614.00,0.0324
1613.00,0.0317
1612.00,0.0310
1611.00,0.0304
1610.00,0.0297
1609.00,0.0290
1608.00,0.0281
1607.00,0.0271
1606.00,0.0259
1605.00,0.0247
1604.00,0.0235
1603.00,0.0223
1602.00,0.0212
1601.00,0.0202
1600.00,0.0193
1599.00,0.0185
1598.00,0.0180
1597.00,0.0175
1596.00,0.0172
1595.00,0.0171
1594.00,0.0172
1593.00,0.0175
1592.00,0.0180
1591.00,0.0187
1590.00,0.0196
1589.00,0.0204
1588.00,0.0212
1587.00,0.0219
1586.00,0.0222
1585.00,0.0223
1584.00,0.0220
1583.00,0.0215
1582.00,0.0208
1581.00,0.0200
1580.00,0.0192
1579.00,0.0184
1578.00,0.0178
1577.00,0.0170
1576.00,0.0162
1575.00,0.0156
1574.00,0.0151
1573.00,0.0148
1572.00,0.0145
1571.00,0.0142
1570.00,0.0138
1569.00,0.0135
1568.00,0.0131
1567.00,0.0129
1566.00,0.0126
1565.00,0.0123
1564.00,0.0120
1563.00,0.0118
1562.00,0.0117
1561.00,0.0116
1560.00,0.0115
1559.00,0.0112
1558.00,0.0110
1557.00,0.0108
1556.00,0.0106
1555.00,0.0104
1554.00,0.0103
1553.00,0.0101
1552.00,0.0100
1551.00,0.0100
1550.00,0.0100
1549.00,0.0099
1548.00,0.0099
1547.00,0.0099
1546.00,0.0099
1545.00,0.0099
1544.00,0.0099
1543.00,0.0099
1542.00,0.0099
1541.00,0.0098
1540.00,0.0095
1539.00,0.0092
1538.00,0.0090
1537.00,0.0090
1536.00,0.0090
1535.00,0.0090
1534.00,0.0090
1533.00,0.0090
1532.00,0.0089
1531.00,0.0088
1530.00,0.0088
1529.00,0.0089
1528.00,0.0089
1527.00,0.0090
1526.00,0.0091
1525.00,0.0092
1524.00,0.0093
1523.00,0.0094
1522.00,0.0095
1521.00,0.0096
1520.00,0.0097
1519.00,0.0099
1518.00,0.0101
1517.00,0.0102
1516.00,0.0103
1515.00,0.0104
1514.00,0.0105
1513.00,0.0106
1512.00,0.0107
1511.00,0.0108
1510.00,0.0110
1509.00,0.0112
1508.00,0.0115
1507.00,0.0119
1506.00,0.0123
1505.00,0.0128
1504.00,0.0132
1503.00,0.0139
1502.00,0.0147
1501.00,0.0157
1500.00,0.0169
1499.00,0.0181
1498.00,0.0193
1497.00,0.0203
1496.00,0.0212
1495.00,0.0216
1494.00,0.0218
1493.00,0.0218
1492.00,0.0214
1491.00,0.0208
1490.00,0.0200
1489.00,0.0190
1488.00,0.0180
1487.00,0.0169
1486.00,0.0158
1485.00,0.0149
1484.00,0.0142
1483.00,0.0135
1482.00,0.0130
1481.00,0.0127
1480.00,0.0125
1479.00,0.0124
1478.00,0.0125
1477.00,0.0128
1476.00,0.0132
1475.00,0.0137
1474.00,0.0145
1473.00,0.0156
1472.00,0.0171
1471.00,0.0186
1470.00,0.0202
1469.00,0.0218
1468.00,0.0236
1467.00,0.0255
1466.00,0.0277
1465.00,0.0301
1464.00,0.0323
1463.00,0.0340
1462.00,0.0351
1461.00,0.0357
1460.00,0.0359
1459.00,0.0356
1458.00,0.0347
1457.00,0.0332
1456.00,0.0316
1455.00,0.0301
1454.00,0.0289
1453.00,0.0280
1452.00,0.0273
1451.00,0.0269
1450.00,0.0270
1449.00,0.0274
1448.00,0.0283
1447.00,0.0294
1446.00,0.0306
1445.00,0.0320
1444.00,0.0334
1443.00,0.0349
1442.00,0.0365
1441.00,0.0379
1440.00,0.0392
1439.00,0.0404
1438.00,0.0415
1437.00,0.0428
1436.00,0.0440
1435.00,0.0448
1434.00,0.0452
1433.00,0.0455
1432.00,0.0457
1431.00,0.0461
1430.00,0.0466
1429.00,0.0474
1428.00,0.0484
1427.00,0.0495
1426.00,0.0507
1425.00,0.0521
1424.00,0.0534
1423.00,0.0543
1422.00,0.0546
1421.00,0.0542
1420.00,0.0530
1419.00,0.0509
1418.00,0.0484
1417.00,0.0458
1416.00,0.0430
1415.00,0.0403
1414.00,0.0377
1413.00,0.0354
1412.00,0.0335
1411.00,0.0318
1410.00,0.0306
1409.00,0.0297
1408.00,0.0290
1407.00,0.0285
1406.00,0.0283
1405.00,0.0281
1404.00,0.0280
1403.00,0.0278
1402.00,0.0275
1401.00,0.0271
1400.00,0.0264
1399.00,0.0255
1398.00,0.0246
1397.00,0.0236
1396.00,0.0225
1395.00,0.0214
1394.00,0.0205
1393.00,0.0197
1392.00,0.0191
1391.00,0.0187
1390.00,0.0184
1389.00,0.0184
1388.00,0.0184
1387.00,0.0187
1386.00,0.0192
1385.00,0.0197
1384.00,0.0202
1383.00,0.0208
1382.00,0.0215
1381.00,0.0221
1380.00,0.0226
1379.00,0.0230
1378.00,0.0233
1377.00,0.0235
1376.00,0.0235
1375.00,0.0235
1374.00,0.0234
1373.00,0.0232
1372.00,0.0230
1371.00,0.0228
1370.00,0.0225
1369.00,0.0223
1368.00,0.0220
1367.00,0.0219
1366.00,0.0218
1365.00,0.0217
1364.00,0.0217
1363.00,0.0218
1362.00,0.0218
1361.00,0.0217
1360.00,0.0213
1359.00,0.0207
1358.00,0.0200
1357.00,0.0191
1356.00,0.0183
1355.00,0.0174
1354.00,0.0168
1353.00,0.0162
1352.00,0.0157
1351.00,0.0154
1350.00,0.0152
1349.00,0.0150
1348.00,0.0148
1347.00,0.0146
1346.00,0.0145
1345.00,0.0145
1344.00,0.0144
1343.00,0.0144
1342.00,0.0144
1341.00,0.0145
1340.00,0.0146
1339.00,0.0148
1338.00,0.0149
1337.00,0.0151
1336.00,0.0153
1335.00,0.0155
1334.00,0.0157
1333.00,0.0159
1332.00,0.0162
1331.00,0.0165
1330.00,0.0169
1329.00,0.0173
1328.00,0.0178
1327.00,0.0183
1326.00,0.0189
1325.00,0.0196
1324.00,0.0203
1323.00,0.0210
1322.00,0.0217
1321.00,0.0224
1320.00,0.0229
1319.00,0.0234
1318.00,0.0237
1317.00,0.0238
1316.00,0.0237
1315.00,0.0235
1314.00,0.0232
1313.00,0.0228
1312.00,0.0224
1311.00,0.0220
1310.00,0.0217
1309.00,0.0215
1308.00,0.0214
1307.00,0.0214
1306.00,0.0216
1305.00,0.0220
1304.00,0.0225
1303.00,0.0231
1302.00,0.0240
1301.00,0.0252
1300.00,0.0266
1299.00,0.0285
1298.00,0.0308
1297.00,0.0334
1296.00,0.0363
1295.00,0.0395
1294.00,0.0428
1293.00,0.0462
1292.00,0.0494
1291.00,0.0524
1290.00,0.0550
1289.00,0.0572
1288.00,0.0589
1287.00,0.0601
1286.00,0.0606
1285.00,0.0606
1284.00,0.0601
1283.00,0.0591
1282.00,0.0580
1281.00,0.0568
1280.00,0.0556
1279.00,0.0547
1278.00,0.0541
1277.00,0.0538
1276.00,0.0538
1275.00,0.0540
1274.00,0.0543
1273.00,0.0544
1272.00,0.0544
1271.00,0.0541
1270.00,0.0534
1269.00,0.0524
1268.00,0.0511
1267.00,0.0494
1266.00,0.0476
1265.00,0.0457
1264.00,0.0436
1263.00,0.0416
1262.00,0.0396
1261.00,0.0378
1260.00,0.0360
1259.00,0.0343
1258.00,0.0327
1257.00,0.0314
1256.00,0.0301
1255.00,0.0289
1254.00,0.0280
1253.00,0.0271
1252.00,0.0264
1251.00,0.0258
1250.00,0.0255
1249.00,0.0253
1248.00,0.0252
1247.00,0.0253
1246.00,0.0255
1245.00,0.0259
1244.00,0.0263
1243.00,0.0267
1242.00,0.0272
1241.00,0.0277
1240.00,0.0281
1239.00,0.0284
1238.00,0.0288
1237.00,0.0291
1236.00,0.0294
1235.00,0.0297
1234.00,0.0300
1233.00,0.0302
1232.00,0.0304
1231.00,0.0305
1230.00,0.0306
1229.00,0.0306
1228.00,0.0305
1227.00,0.0305
1226.00,0.0305
1225.00,0.0305
1224.00,0.0305
1223.00,0.0305
1222.00,0.0306
1221.00,0.0306
1220.00,0.0306
1219.00,0.0306
1218.00,0.0305
1217.00,0.0302
1216.00,0.0298
1215.00,0.0292
1214.00,0.0286
1213.00,0.0278
1212.00,0.0270
1211.00,0.0263
1210.00,0.0256
1209.00,0.0249
1208.00,0.0243
1207.00,0.0237
1206.00,0.0233
1205.00,0.0230
1204.00,0.0228
1203.00,0.0228
1202.00,0.0229
1201.00,0.0231
1200.00,0.0234
1199.00,0.0237
1198.00,0.0242
1197.00,0.0246
1196.00,0.0249
1195.00,0.0252
1194.00,0.0253
1193.00,0.0251
1192.00,0.0247
1191.00,0.0242
1190.00,0.0235
1189.00,0.0228
1188.00,0.0221
1187.00,0.0215
1186.00,0.0209
1185.00,0.0204
1184.00,0.0199
1183.00,0.0196
1182.00,0.0194
1181.00,0.0192
1180.00,0.0192
1179.00,0.0192
1178.00,0.0193
1177.00,0.0194
1176.00,0.0196
1175.00,0.0198
1174.00,0.0201
1173.00,0.0204
1172.00,0.0206
1171.00,0.0208
1170.00,0.0210
1169.00,0.0211
1168.00,0.0211
1167.00,0.0211
1166.00,0.0212
1165.00,0.0213
1164.00,0.0214
1163.00,0.0216
1162.00,0.0219
1161.00,0.0223
1160.00,0.0228
1159.00,0.0232
1158.00,0.0236
1157.00,0.0238
1156.00,0.0237
1155.00,0.0235
1154.00,0.0231
1153.00,0.0225
1152.00,0.0218
1151.00,0.0210
1150.00,0.0202
1149.00,0.0194
1148.00,0.0186
1147.00,0.0178
1146.00,0.0172
1145.00,0.0167
1144.00,0.0162
1143.00,0.0158
1142.00,0.0155
1141.00,0.0153
1140.00,0.0152
1139.00,0.0152
1138.00,0.0154
1137.00,0.0157
1136.00,0.0162
1135.00,0.0169
1134.00,0.0179
1133.00,0.0190
1132.00,0.0200
1131.00,0.0208
1130.00,0.0213
1129.00,0.0214
1128.00,0.0210
1127.00,0.0203
1126.00,0.0193
1125.00,0.0183
1124.00,0.0173
1123.00,0.0165
1122.00,0.0158
1121.00,0.0154
1120.00,0.0150
1119.00,0.0147
1118.00,0.0146
1117.00,0.0145
1116.00,0.0144
1115.00,0.0144
1114.00,0.0145
1113.00,0.0145
1112.00,0.0145
1111.00,0.0146
1110.00,0.0147
1109.00,0.0148
1108.00,0.0150
1107.00,0.0152
1106.00,0.0154
1105.00,0.0157
1104.00,0.0160
1103.00,0.0164
1102.00,0.0167
1101.00,0.0170
1100.00,0.0170
1099.00,0.0169
1098.00,0.0168
1097.00,0.0165
1096.00,0.0161
1095.00,0.0157
1094.00,0.0154
1093.00,0.0151
1092.00,0.0148
1091.00,0.0145
1090.00,0.0143
1089.00,0.0142
1088.00,0.0140
1087.00,0.0140
1086.00,0.0139
1085.00,0.0139
1084.00,0.0139
1083.00,0.0140
1082.00,0.0141
1081.00,0.0143
1080.00,0.0144
1079.00,0.0146
1078.00,0.0149
1077.00,0.0152
1076.00,0.0155
1075.00,0.0157
1074.00,0.0161
1073.00,0.0164
1072.00,0.0167
1071.00,0.0171
1070.00,0.0177
1069.00,0.0184
1068.00,0.0192
1067.00,0.0202
1066.00,0.0213
1065.00,0.0226
1064.00,0.0239
1063.00,0.0254
1062.00,0.0268
1061.00,0.0282
1060.00,0.0293
1059.00,0.0301
1058.00,0.0305
1057.00,0.0304
1056.00,0.0297
1055.00,0.0286
1054.00,0.0272
1053.00,0.0256
1052.00,0.0238
1051.00,0.0222
1050.00,0.0208
1049.00,0.0196
1048.00,0.0186
1047.00,0.0178
1046.00,0.0173
1045.00,0.0168
1044.00,0.0164
1043.00,0.0161
1042.00,0.0160
1041.00,0.0158
1040.00,0.0157
1039.00,0.0156
1038.00,0.0157
1037.00,0.0157
1036.00,0.0158
1035.00,0.0160
1034.00,0.0163
1033.00,0.0166
1032.00,0.0169
1031.00,0.0171
1030.00,0.0173
1029.00,0.0174
1028.00,0.0172
1027.00,0.0169
1026.00,0.0166
1025.00,0.0164
1024.00,0.0163
1023.00,0.0163
1022.00,0.0164
1021.00,0.0165
1020.00,0.0166
1019.00,0.0167
1018.00,0.0168
1017.00,0.0168
1016.00,0.0166
1015.00,0.0163
1014.00,0.0159
1013.00,0.0155
1012.00,0.0151
1011.00,0.0148
1010.00,0.0146
1009.00,0.0146
1008.00,0.0148
1007.00,0.0151
1006.00,0.0155
1005.00,0.0160
1004.00,0.0163
1003.00,0.0166
1002.00,0.0167
1001.00,0.0167
1000.00,0.0164
999.00,0.0161
998.00,0.0158
997.00,0.0154
996.00,0.0150
995.00,0.0147
994.00,0.0144
993.00,0.0142
992.00,0.0139
991.00,0.0136
990.00,0.0134
989.00,0.0132
988.00,0.0130
987.00,0.0128
986.00,0.0126
985.00,0.0124
984.00,0.0122
983.00,0.0120
982.00,0.0120
981.00,0.0119
980.00,0.0119
979.00,0.0118
978.00,0.0118
977.00,0.0118
976.00,0.0118
975.00,0.0117
974.00,0.0116
973.00,0.0115
972.00,0.0114
971.00,0.0113
970.00,0.0112
969.00,0.0111
968.00,0.0110
967.00,0.0109
966.00,0.0108
965.00,0.0108
964.00,0.0107
963.00,0.0106
962.00,0.0106
961.00,0.0106
960.00,0.0106
959.00,0.0105
958.00,0.0104
957.00,0.0104
956.00,0.0102
955.00,0.0102
954.00,0.0101
953.00,0.0101
952.00,0.0100
951.00,0.0100
950.00,0.0099
949.00,0.0100
948.00,0.0099
947.00,0.0100
946.00,0.0101
945.00,0.0103
944.00,0.0104
943.00,0.0106
942.00,0.0108
941.00,0.0112
940.00,0.0115
939.00,0.0119
938.00,0.0125
937.00,0.0130
936.00,0.0135
935.00,0.0139
934.00,0.0143
933.00,0.0145
932.00,0.0145
931.00,0.0144
930.00,0.0142
929.00,0.0141
928.00,0.0139
927.00,0.0138
926.00,0.0137
925.00,0.0137
924.00,0.0135
923.00,0.0134
922.00,0.0133
921.00,0.0131
920.00,0.0129
919.00,0.0128
918.00,0.0127
917.00,0.0125
916.00,0.0124
915.00,0.0122
914.00,0.0121
913.00,0.0120
912.00,0.0120
911.00,0.0119
910.00,0.0120
909.00,0.0121
908.00,0.0122
907.00,0.0123
906.00,0.0126
905.00,0.0128
904.00,0.0131
903.00,0.0134
902.00,0.0138
901.00,0.0142
900.00,0.0145
899.00,0.0147
898.00,0.0149
897.00,0.0150
896.00,0.0149
895.00,0.0148
894.00,0.0146
893.00,0.0143
892.00,0.0140
891.00,0.0137
890.00,0.0135
889.00,0.0133
888.00,0.0131
887.00,0.0129
886.00,0.0130
885.00,0.0130
884.00,0.0131
883.00,0.0132
882.00,0.0133
881.00,0.0135
880.00,0.0137
879.00,0.0140
878.00,0.0144
877.00,0.0148
876.00,0.0152
875.00,0.0156
874.00,0.0160
873.00,0.0164
872.00,0.0166
871.00,0.0168
870.00,0.0170
869.00,0.0171
868.00,0.0171
867.00,0.0171
866.00,0.0172
865.00,0.0173
864.00,0.0173
863.00,0.0174
862.00,0.0176
861.00,0.0178
860.00,0.0179
859.00,0.0181
858.00,0.0184
857.00,0.0187
856.00,0.0190
855.00,0.0193
854.00,0.0197
853.00,0.0201
852.00,0.0204
851.00,0.0208
850.00,0.0212
849.00,0.0215
848.00,0.0218
847.00,0.0220
846.00,0.0222
845.00,0.0223
844.00,0.0222
843.00,0.0222
842.00,0.0222
841.00,0.0222
840.00,0.0221
839.00,0.0220
838.00,0.0219
837.00,0.0218
836.00,0.0217
835.00,0.0216
834.00,0.0216
833.00,0.0216
832.00,0.0215
831.00,0.0214
830.00,0.0214
829.00,0.0213
828.00,0.0211
827.00,0.0209
826.00,0.0208
825.00,0.0207
824.00,0.0206
823.00,0.0205
822.00,0.0205
821.00,0.0205
820.00,0.0205
819.00,0.0204
818.00,0.0204
817.00,0.0203
816.00,0.0202
815.00,0.0201
814.00,0.0200
813.00,0.0198
812.00,0.0194
811.00,0.0188
810.00,0.0183
809.00,0.0177
808.00,0.0169
807.00,0.0162
806.00,0.0156
805.00,0.0150
804.00,0.0145
803.00,0.0141
802.00,0.0139
801.00,0.0138
800.00,0.0136
799.00,0.0135
798.00,0.0136
797.00,0.0136
796.00,0.0135
795.00,0.0135
794.00,0.0136
793.00,0.0136
792.00,0.0136
791.00,0.0137
790.00,0.0137
789.00,0.0138
788.00,0.0138
787.00,0.0138
786.00,0.0139
785.00,0.0139
784.00,0.0140
783.00,0.0141
782.00,0.0143
781.00,0.0144
780.00,0.0146
779.00,0.0147
778.00,0.0149
777.00,0.0150
776.00,0.0150
775.00,0.0150
774.00,0.0150
773.00,0.0150
772.00,0.0150
771.00,0.0151
770.00,0.0152
769.00,0.0153
768.00,0.0154
767.00,0.0154
766.00,0.0156
765.00,0.0158
764.00,0.0159
763.00,0.0161
762.00,0.0165
761.00,0.0168
760.00,0.0170
759.00,0.0173
758.00,0.0176
757.00,0.0179
756.00,0.0182
755.00,0.0184
754.00,0.0188
753.00,0.0192
752.00,0.0195
751.00,0.0198
750.00,0.0201
749.00,0.0205
748.00,0.0208
747.00,0.0211
746.00,0.0215
745.00,0.0219
744.00,0.0222
743.00,0.0226
742.00,0.0232
741.00,0.0237
740.00,0.0243
739.00,0.0248
738.00,0.0253
737.00,0.0257
736.00,0.0258
735.00,0.0257
734.00,0.0255
733.00,0.0252
732.00,0.0247
731.00,0.0241
730.00,0.0237
729.00,0.0233
728.00,0.0228
727.00,0.0223
726.00,0.0219
725.00,0.0215
724.00,0.0210
723.00,0.0206
722.00,0.0204
721.00,0.0201
720.00,0.0199
719.00,0.0197
718.00,0.0197
717.00,0.0196
716.00,0.0195
715.00,0.0194
714.00,0.0194
713.00,0.0194
712.00,0.0193
711.00,0.0192
710.00,0.0192
709.00,0.0191
708.00,0.0190
707.00,0.0190
706.00,0.0190
705.00,0.0191
704.00,0.0191
703.00,0.0191
702.00,0.0192
701.00,0.0192
700.00,0.0193
699.00,0.0194
698.00,0.0196
697.00,0.0199
696.00,0.0202
695.00,0.0206
694.00,0.0210
693.00,0.0215
692.00,0.0218
691.00,0.0220
690.00,0.0223
689.00,0.0226
688.00,0.0227
687.00,0.0227
686.00,0.0227
685.00,0.0228
684.00,0.0228
683.00,0.0229
682.00,0.0230
681.00,0.0232
680.00,0.0233
679.00,0.0235
678.00,0.0237
677.00,0.0239
676.00,0.0241
675.00,0.0243
674.00,0.0247
673.00,0.0251
672.00,0.0253
671.00,0.0256
670.00,0.0260
669.00,0.0264
668.00,0.0269
667.00,0.0275
666.00,0.0281
665.00,0.0285
664.00,0.0289
663.00,0.0294
662.00,0.0300
661.00,0.0306
660.00,0.0311
659.00,0.0317
658.00,0.0323
657.00,0.0330
656.00,0.0335
655.00,0.0340
654.00,0.0345
653.00,0.0350
652.00,0.0354
651.00,0.0358
650.00,0.0361
649.00,0.0363
648.00,0.0364
647.00,0.0363
646.00,0.0363
645.00,0.0361
644.00,0.0357
643.00,0.0353
642.00,0.0349
641.00,0.0345
640.00,0.0340
639.00,0.0335
638.00,0.0330
637.00,0.0325
636.00,0.0319
635.00,0.0315
634.00,0.0312
633.00,0.0310
632.00,0.0308
631.00,0.0305
630.00,0.0304
629.00,0.0303
628.00,0.0301
627.00,0.0299
626.00,0.0299
625.00,0.0298
624.00,0.0297
623.00,0.0296
622.00,0.0295
621.00,0.0295
620.00,0.0292
619.00,0.0290
618.00,0.0290
617.00,0.0289
616.00,0.0288
615.00,0.0287
614.00,0.0288
613.00,0.0290
612.00,0.0291
611.00,0.0293
610.00,0.0295
609.00,0.0297
608.00,0.0296
607.00,0.0297
606.00,0.0298
605.00,0.0300
604.00,0.0301
603.00,0.0301
602.00,0.0303
601.00,0.0304
600.00,0.0305
599.00,0.0307
598.00,0.0309
597.00,0.0310
596.00,0.0310
595.00,0.0310
594.00,0.0312
593.00,0.0315
592.00,0.0316
591.00,0.0318
590.00,0.0323
589.00,0.0328
588.00,0.0333
587.00,0.0340
586.00,0.0350
585.00,0.0359
584.00,0.0367
583.00,0.0373
582.00,0.0380
581.00,0.0386
580.00,0.0390
579.00,0.0391
578.00,0.0394
577.00,0.0395
576.00,0.0395
575.00,0.0395
574.00,0.0396
573.00,0.0398
572.00,0.0398
571.00,0.0397
570.00,0.0396
569.00,0.0394
568.00,0.0392
567.00,0.0390
566.00,0.0389
565.00,0.0387
564.00,0.0382
563.00,0.0377
562.00,0.0375
561.00,0.0373
560.00,0.0369
559.00,0.0366
558.00,0.0366
557.00,0.0365
556.00,0.0362
555.00,0.0358
554.00,0.0357
553.00,0.0355
552.00,0.0352
551.00,0.0350
550.00,0.0349
549.00,0.0348
548.00,0.0344
547.00,0.0341
546.00,0.0340
545.00,0.0338
544.00,0.0335
543.00,0.0332
542.00,0.0332
541.00,0.0332
540.00,0.0331
539.00,0.0331
538.00,0.0333
537.00,0.0334
536.00,0.0334
535.00,0.0335
534.00,0.0339
533.00,0.0344
532.00,0.0347
531.00,0.0348
530.00,0.0349
529.00,0.0348
528.00,0.0346
527.00,0.0344
526.00,0.0343
525.00,0.0342
524.00,0.0337
523.00,0.0333
522.00,0.0332
521.00,0.0331
520.00,0.0330
519.00,0.0329
518.00,0.0330
517.00,0.0329
516.00,0.0326
515.00,0.0324
514.00,0.0325
513.00,0.0326
512.00,0.0325
511.00,0.0325
510.00,0.0327
509.00,0.0331
508.00,0.0332
507.00,0.0332
506.00,0.0335
505.00,0.0335
504.00,0.0333
503.00,0.0331
502.00,0.0332
501.00,0.0332
500.00,0.0329
499.00,0.0327
498.00,0.0328
497.00,0.0329
496.00,0.0327
495.00,0.0327
494.00,0.0330
493.00,0.0332
492.00,0.0333
491.00,0.0334
490.00,0.0336
489.00,0.0337
488.00,0.0335
487.00,0.0335
486.00,0.0339
485.00,0.0343
484.00,0.0342
483.00,0.0340
482.00,0.0340
481.00,0.0340
480.00,0.0337
479.00,0.0336
478.00,0.0339
477.00,0.0341
476.00,0.0340
475.00,0.0339
474.00,0.0340
473.00,0.0341
472.00,0.0337
471.00,0.0334
470.00,0.0336
469.00,0.0338
468.00,0.0336
467.00,0.0334
466.00,0.0336
465.00,0.0336
464.00,0.0334
463.00,0.0334
462.00,0.0339
461.00,0.0341
460.00,0.0337
459.00,0.0334
458.00,0.0336
457.00,0.0338
456.00,0.0335
455.00,0.0333
454.00,0.0336
453.00,0.0338
452.00,0.0333
451.00,0.0328
450.00,0.0326
449.00,0.0325
448.00,0.0320
447.00,0.0317
446.00,0.0321
445.00,0.0322
444.00,0.0315
443.00,0.0307
442.00,0.0304
441.00,0.0303
440.00,0.0299
439.00,0.0298
438.00,0.0303
437.00,0.0306
436.00,0.0300
435.00,0.0293
434.00,0.0293
433.00,0.0294
432.00,0.0289
431.00,0.0285
430.00,0.0287
429.00,0.0291
428.00,0.0289
427.00,0.0288
426.00,0.0292
425.00,0.0296
424.00,0.0292
423.00,0.0290
422.00,0.0296
421.00,0.0300
420.00,0.0295
419.00,0.0291
418.00,0.0296
417.00,0.0296
416.00,0.0283
415.00,0.0274
414.00,0.0278
413.00,0.0286
412.00,0.0284
411.00,0.0282
410.00,0.0286
409.00,0.0286
408.00,0.0275
407.00,0.0268
406.00,0.0279
405.00,0.0291
404.00,0.0288
403.00,0.0280
402.00,0.0283
401.00,0.0287
400.00,0.0281
