Created as New Dataset,Sample 069 By YargerLab Date Wednesday, August 13 2025
cm-1,A
4000.00,0.0023
3999.00,0.0023
3998.00,0.0023
3997.00,0.0023
3996.00,0.0023
3995.00,0.0023
3994.00,0.0023
3993.00,0.0023
3992.00,0.0023
3991.00,0.0023
3990.00,0.0024
3989.00,0.0024
3988.00,0.0023
3987.00,0.0023
3986.00,0.0023
3985.00,0.0023
3984.00,0.0023
3983.00,0.0023
3982.00,0.0023
3981.00,0.0023
3980.00,0.0023
3979.00,0.0023
3978.00,0.0023
3977.00,0.0023
3976.00,0.0023
3975.00,0.0023
3974.00,0.0023
3973.00,0.0023
3972.00,0.0023
3971.00,0.0023
3970.00,0.0023
3969.00,0.0023
3968.00,0.0023
3967.00,0.0023
3966.00,0.0023
3965.00,0.0023
3964.00,0.0023
3963.00,0.0023
3962.00,0.0023
3961.00,0.0023
3960.00,0.0023
3959.00,0.0023
3958.00,0.0023
3957.00,0.0023
3956.00,0.0023
3955.00,0.0023
3954.00,0.0023
3953.00,0.0023
3952.00,0.0023
3951.00,0.0023
3950.00,0.0023
3949.00,0.0023
3948.00,0.0023
3947.00,0.0023
3946.00,0.0023
3945.00,0.0023
3944.00,0.0023
3943.00,0.0023
3942.00,0.0023
3941.00,0.0023
3940.00,0.0023
3939.00,0.0023
3938.00,0.0023
3937.00,0.0023
3936.00,0.0023
3935.00,0.0023
3934.00,0.0023
3933.00,0.0023
3932.00,0.0023
3931.00,0.0022
3930.00,0.0022
3929.00,0.0022
3928.00,0.0022
3927.00,0.0022
3926.00,0.0022
3925.00,0.0022
3924.00,0.0023
3923.00,0.0023
3922.00,0.0023
3921.00,0.0023
3920.00,0.0023
3919.00,0.0023
3918.00,0.0023
3917.00,0.0023
3916.00,0.0023
3915.00,0.0023
3914.00,0.0023
3913.00,0.0023
3912.00,0.0023
3911.00,0.0023
3910.00,0.0023
3909.00,0.0023
3908.00,0.0022
3907.00,0.0022
3906.00,0.0022
3905.00,0.0021
3904.00,0.0021
3903.00,0.0021
3902.00,0.0021
3901.00,0.0020
3900.00,0.0020
3899.00,0.0021
3898.00,0.0021
3897.00,0.0021
3896.00,0.0021
3895.00,0.0022
3894.00,0.0022
3893.00,0.0022
3892.00,0.0022
3891.00,0.0022
3890.00,0.0022
3889.00,0.0022
3888.00,0.0021
3887.00,0.0021
3886.00,0.0021
3885.00,0.0022
3884.00,0.0021
3883.00,0.0021
3882.00,0.0021
3881.00,0.0021
3880.00,0.0022
3879.00,0.0022
3878.00,0.0021
3877.00,0.0021
3876.00,0.0021
3875.00,0.0021
3874.00,0.0021
3873.00,0.0021
3872.00,0.0021
3871.00,0.0020
3870.00,0.0020
3869.00,0.0020
3868.00,0.0020
3867.00,0.0020
3866.00,0.0020
3865.00,0.0021
3864.00,0.0021
3863.00,0.0021
3862.00,0.0021
3861.00,0.0021
3860.00,0.0021
3859.00,0.0022
3858.00,0.0022
3857.00,0.0022
3856.00,0.0022
3855.00,0.0021
3854.00,0.0020
3853.00,0.0020
3852.00,0.0019
3851.00,0.0019
3850.00,0.0020
3849.00,0.0021
3848.00,0.0022
3847.00,0.0022
3846.00,0.0022
3845.00,0.0022
3844.00,0.0022
3843.00,0.0021
3842.00,0.0020
3841.00,0.0020
3840.00,0.0019
3839.00,0.0019
3838.00,0.0020
3837.00,0.0020
3836.00,0.0020
3835.00,0.0020
3834.00,0.0021
3833.00,0.0021
3832.00,0.0021
3831.00,0.0022
3830.00,0.0022
3829.00,0.0022
3828.00,0.0022
3827.00,0.0022
3826.00,0.0022
3825.00,0.0021
3824.00,0.0021
3823.00,0.0021
3822.00,0.0021
3821.00,0.0021
3820.00,0.0021
3819.00,0.0020
3818.00,0.0020
3817.00,0.0020
3816.00,0.0021
3815.00,0.0021
3814.00,0.0022
3813.00,0.0022
3812.00,0.0022
3811.00,0.0022
3810.00,0.0023
3809.00,0.0023
3808.00,0.0023
3807.00,0.0023
3806.00,0.0022
3805.00,0.0021
3804.00,0.0021
3803.00,0.0020
3802.00,0.0021
3801.00,0.0021
3800.00,0.0021
3799.00,0.0021
3798.00,0.0021
3797.00,0.0021
3796.00,0.0022
3795.00,0.0022
3794.00,0.0022
3793.00,0.0023
3792.00,0.0023
3791.00,0.0023
3790.00,0.0023
3789.00,0.0023
3788.00,0.0023
3787.00,0.0023
3786.00,0.0023
3785.00,0.0023
3784.00,0.0023
3783.00,0.0023
3782.00,0.0023
3781.00,0.0023
3780.00,0.0023
3779.00,0.0023
3778.00,0.0023
3777.00,0.0023
3776.00,0.0023
3775.00,0.0023
3774.00,0.0023
3773.00,0.0023
3772.00,0.0023
3771.00,0.0023
3770.00,0.0023
3769.00,0.0023
3768.00,0.0022
3767.00,0.0022
3766.00,0.0022
3765.00,0.0023
3764.00,0.0023
3763.00,0.0023
3762.00,0.0023
3761.00,0.0023
3760.00,0.0023
3759.00,0.0023
3758.00,0.0023
3757.00,0.0022
3756.00,0.0022
3755.00,0.0022
3754.00,0.0022
3753.00,0.0022
3752.00,0.0022
3751.00,0.0021
3750.00,0.0021
3749.00,0.0021
3748.00,0.0021
3747.00,0.0021
3746.00,0.0020
3745.00,0.0021
3744.00,0.0020
3743.00,0.0020
3742.00,0.0020
3741.00,0.0020
3740.00,0.0021
3739.00,0.0021
3738.00,0.0021
3737.00,0.0021
3736.00,0.0020
3735.00,0.0020
3734.00,0.0019
3733.00,0.0020
3732.00,0.0020
3731.00,0.0021
3730.00,0.0021
3729.00,0.0022
3728.00,0.0022
3727.00,0.0022
3726.00,0.0022
3725.00,0.0022
3724.00,0.0022
3723.00,0.0022
3722.00,0.0022
3721.00,0.0022
3720.00,0.0022
3719.00,0.0022
3718.00,0.0022
3717.00,0.0022
3716.00,0.0022
3715.00,0.0022
3714.00,0.0022
3713.00,0.0022
3712.00,0.0021
3711.00,0.0021
3710.00,0.0021
3709.00,0.0021
3708.00,0.0021
3707.00,0.0022
3706.00,0.0022
3705.00,0.0022
3704.00,0.0022
3703.00,0.0022
3702.00,0.0022
3701.00,0.0022
3700.00,0.0022
3699.00,0.0022
3698.00,0.0022
3697.00,0.0022
3696.00,0.0023
3695.00,0.0023
3694.00,0.0023
3693.00,0.0022
3692.00,0.0022
3691.00,0.0022
3690.00,0.0022
3689.00,0.0022
3688.00,0.0023
3687.00,0.0023
3686.00,0.0024
3685.00,0.0024
3684.00,0.0025
3683.00,0.0025
3682.00,0.0025
3681.00,0.0025
3680.00,0.0025
3679.00,0.0025
3678.00,0.0025
3677.00,0.0024
3676.00,0.0025
3675.00,0.0025
3674.00,0.0025
3673.00,0.0024
3672.00,0.0024
3671.00,0.0025
3670.00,0.0026
3669.00,0.0026
3668.00,0.0027
3667.00,0.0027
3666.00,0.0028
3665.00,0.0029
3664.00,0.0029
3663.00,0.0030
3662.00,0.0030
3661.00,0.0030
3660.00,0.0030
3659.00,0.0031
3658.00,0.0031
3657.00,0.0031
3656.00,0.0031
3655.00,0.0031
3654.00,0.0030
3653.00,0.0030
3652.00,0.0029
3651.00,0.0029
3650.00,0.0030
3649.00,0.0030
3648.00,0.0031
3647.00,0.0031
3646.00,0.0032
3645.00,0.0033
3644.00,0.0034
3643.00,0.0034
3642.00,0.0035
3641.00,0.0036
3640.00,0.0037
3639.00,0.0037
3638.00,0.0037
3637.00,0.0038
3636.00,0.0038
3635.00,0.0038
3634.00,0.0038
3633.00,0.0038
3632.00,0.0038
3631.00,0.0037
3630.00,0.0038
3629.00,0.0039
3628.00,0.0040
3627.00,0.0041
3626.00,0.0041
3625.00,0.0042
3624.00,0.0042
3623.00,0.0042
3622.00,0.0042
3621.00,0.0043
3620.00,0.0043
3619.00,0.0044
3618.00,0.0045
3617.00,0.0045
3616.00,0.0045
3615.00,0.0045
3614.00,0.0046
3613.00,0.0046
3612.00,0.0047
3611.00,0.0047
3610.00,0.0047
3609.00,0.0048
3608.00,0.0049
3607.00,0.0050
3606.00,0.0051
3605.00,0.0052
3604.00,0.0053
3603.00,0.0053
3602.00,0.0054
3601.00,0.0054
3600.00,0.0055
3599.00,0.0055
3598.00,0.0055
3597.00,0.0055
3596.00,0.0055
3595.00,0.0056
3594.00,0.0057
3593.00,0.0058
3592.00,0.0058
3591.00,0.0058
3590.00,0.0058
3589.00,0.0059
3588.00,0.0060
3587.00,0.0062
3586.00,0.0063
3585.00,0.0064
3584.00,0.0064
3583.00,0.0065
3582.00,0.0065
3581.00,0.0066
3580.00,0.0067
3579.00,0.0068
3578.00,0.0068
3577.00,0.0069
3576.00,0.0069
3575.00,0.0070
3574.00,0.0071
3573.00,0.0072
3572.00,0.0072
3571.00,0.0072
3570.00,0.0072
3569.00,0.0072
3568.00,0.0074
3567.00,0.0075
3566.00,0.0077
3565.00,0.0078
3564.00,0.0079
3563.00,0.0080
3562.00,0.0080
3561.00,0.0081
3560.00,0.0082
3559.00,0.0082
3558.00,0.0083
3557.00,0.0084
3556.00,0.0084
3555.00,0.0084
3554.00,0.0085
3553.00,0.0086
3552.00,0.0087
3551.00,0.0087
3550.00,0.0088
3549.00,0.0088
3548.00,0.0089
3547.00,0.0090
3546.00,0.0091
3545.00,0.0092
3544.00,0.0093
3543.00,0.0093
3542.00,0.0094
3541.00,0.0094
3540.00,0.0094
3539.00,0.0095
3538.00,0.0095
3537.00,0.0096
3536.00,0.0097
3535.00,0.0097
3534.00,0.0098
3533.00,0.0098
3532.00,0.0098
3531.00,0.0098
3530.00,0.0099
3529.00,0.0099
3528.00,0.0100
3527.00,0.0101
3526.00,0.0102
3525.00,0.0102
3524.00,0.0103
3523.00,0.0103
3522.00,0.0104
3521.00,0.0104
3520.00,0.0105
3519.00,0.0105
3518.00,0.0106
3517.00,0.0106
3516.00,0.0106
3515.00,0.0106
3514.00,0.0107
3513.00,0.0107
3512.00,0.0107
3511.00,0.0107
3510.00,0.0108
3509.00,0.0108
3508.00,0.0109
3507.00,0.0109
3506.00,0.0109
3505.00,0.0109
3504.00,0.0110
3503.00,0.0111
3502.00,0.0112
3501.00,0.0112
3500.00,0.0113
3499.00,0.0113
3498.00,0.0113
3497.00,0.0113
3496.00,0.0114
3495.00,0.0114
3494.00,0.0115
3493.00,0.0115
3492.00,0.0115
3491.00,0.0115
3490.00,0.0114
3489.00,0.0115
3488.00,0.0115
3487.00,0.0115
3486.00,0.0115
3485.00,0.0115
3484.00,0.0116
3483.00,0.0116
3482.00,0.0117
3481.00,0.0118
3480.00,0.0118
3479.00,0.0119
3478.00,0.0119
3477.00,0.0119
3476.00,0.0119
3475.00,0.0120
3474.00,0.0120
3473.00,0.0121
3472.00,0.0121
3471.00,0.0121
3470.00,0.0121
3469.00,0.0121
3468.00,0.0121
3467.00,0.0121
3466.00,0.0121
3465.00,0.0121
3464.00,0.0121
3463.00,0.0122
3462.00,0.0122
3461.00,0.0122
3460.00,0.0122
3459.00,0.0122
3458.00,0.0122
3457.00,0.0122
3456.00,0.0123
3455.00,0.0123
3454.00,0.0124
3453.00,0.0124
3452.00,0.0124
3451.00,0.0124
3450.00,0.0124
3449.00,0.0124
3448.00,0.0124
3447.00,0.0124
3446.00,0.0125
3445.00,0.0125
3444.00,0.0125
3443.00,0.0125
3442.00,0.0125
3441.00,0.0125
3440.00,0.0125
3439.00,0.0126
3438.00,0.0126
3437.00,0.0126
3436.00,0.0126
3435.00,0.0126
3434.00,0.0126
3433.00,0.0126
3432.00,0.0126
3431.00,0.0126
3430.00,0.0126
3429.00,0.0127
3428.00,0.0127
3427.00,0.0127
3426.00,0.0127
3425.00,0.0127
3424.00,0.0127
3423.00,0.0127
3422.00,0.0127
3421.00,0.0127
3420.00,0.0127
3419.00,0.0127
3418.00,0.0127
3417.00,0.0127
3416.00,0.0127
3415.00,0.0127
3414.00,0.0127
3413.00,0.0127
3412.00,0.0127
3411.00,0.0127
3410.00,0.0127
3409.00,0.0127
3408.00,0.0127
3407.00,0.0127
3406.00,0.0127
3405.00,0.0127
3404.00,0.0127
3403.00,0.0127
3402.00,0.0127
3401.00,0.0126
3400.00,0.0126
3399.00,0.0127
3398.00,0.0127
3397.00,0.0127
3396.00,0.0126
3395.00,0.0126
3394.00,0.0126
3393.00,0.0126
3392.00,0.0126
3391.00,0.0126
3390.00,0.0127
3389.00,0.0127
3388.00,0.0126
3387.00,0.0126
3386.00,0.0126
3385.00,0.0126
3384.00,0.0126
3383.00,0.0126
3382.00,0.0126
3381.00,0.0125
3380.00,0.0125
3379.00,0.0125
3378.00,0.0126
3377.00,0.0126
3376.00,0.0126
3375.00,0.0125
3374.00,0.0125
3373.00,0.0125
3372.00,0.0124
3371.00,0.0124
3370.00,0.0123
3369.00,0.0123
3368.00,0.0123
3367.00,0.0123
3366.00,0.0124
3365.00,0.0124
3364.00,0.0124
3363.00,0.0124
3362.00,0.0124
3361.00,0.0124
3360.00,0.0124
3359.00,0.0124
3358.00,0.0124
3357.00,0.0124
3356.00,0.0124
3355.00,0.0123
3354.00,0.0123
3353.00,0.0122
3352.00,0.0122
3351.00,0.0122
3350.00,0.0122
3349.00,0.0123
3348.00,0.0123
3347.00,0.0123
3346.00,0.0123
3345.00,0.0123
3344.00,0.0122
3343.00,0.0122
3342.00,0.0122
3341.00,0.0122
3340.00,0.0121
3339.00,0.0121
3338.00,0.0121
3337.00,0.0121
3336.00,0.0122
3335.00,0.0123
3334.00,0.0123
3333.00,0.0123
3332.00,0.0123
3331.00,0.0123
3330.00,0.0123
3329.00,0.0123
3328.00,0.0123
3327.00,0.0122
3326.00,0.0122
3325.00,0.0123
3324.00,0.0123
3323.00,0.0124
3322.00,0.0124
3321.00,0.0124
3320.00,0.0124
3319.00,0.0124
3318.00,0.0124
3317.00,0.0124
3316.00,0.0124
3315.00,0.0124
3314.00,0.0124
3313.00,0.0123
3312.00,0.0122
3311.00,0.0122
3310.00,0.0121
3309.00,0.0121
3308.00,0.0121
3307.00,0.0121
3306.00,0.0121
3305.00,0.0122
3304.00,0.0122
3303.00,0.0123
3302.00,0.0124
3301.00,0.0124
3300.00,0.0124
3299.00,0.0124
3298.00,0.0123
3297.00,0.0123
3296.00,0.0122
3295.00,0.0122
3294.00,0.0122
3293.00,0.0123
3292.00,0.0123
3291.00,0.0124
3290.00,0.0125
3289.00,0.0125
3288.00,0.0126
3287.00,0.0126
3286.00,0.0126
3285.00,0.0126
3284.00,0.0126
3283.00,0.0126
3282.00,0.0126
3281.00,0.0126
3280.00,0.0126
3279.00,0.0126
3278.00,0.0125
3277.00,0.0125
3276.00,0.0125
3275.00,0.0124
3274.00,0.0124
3273.00,0.0124
3272.00,0.0123
3271.00,0.0123
3270.00,0.0124
3269.00,0.0124
3268.00,0.0124
3267.00,0.0124
3266.00,0.0125
3265.00,0.0125
3264.00,0.0125
3263.00,0.0124
3262.00,0.0124
3261.00,0.0124
3260.00,0.0124
3259.00,0.0124
3258.00,0.0124
3257.00,0.0124
3256.00,0.0124
3255.00,0.0124
3254.00,0.0124
3253.00,0.0124
3252.00,0.0124
3251.00,0.0123
3250.00,0.0123
3249.00,0.0123
3248.00,0.0123
3247.00,0.0123
3246.00,0.0123
3245.00,0.0123
3244.00,0.0123
3243.00,0.0123
3242.00,0.0123
3241.00,0.0123
3240.00,0.0123
3239.00,0.0123
3238.00,0.0122
3237.00,0.0122
3236.00,0.0121
3235.00,0.0121
3234.00,0.0121
3233.00,0.0121
3232.00,0.0121
3231.00,0.0121
3230.00,0.0121
3229.00,0.0121
3228.00,0.0121
3227.00,0.0120
3226.00,0.0120
3225.00,0.0120
3224.00,0.0120
3223.00,0.0120
3222.00,0.0120
3221.00,0.0119
3220.00,0.0119
3219.00,0.0119
3218.00,0.0119
3217.00,0.0119
3216.00,0.0119
3215.00,0.0119
3214.00,0.0118
3213.00,0.0118
3212.00,0.0118
3211.00,0.0117
3210.00,0.0117
3209.00,0.0117
3208.00,0.0117
3207.00,0.0116
3206.00,0.0116
3205.00,0.0116
3204.00,0.0115
3203.00,0.0115
3202.00,0.0115
3201.00,0.0115
3200.00,0.0115
3199.00,0.0115
3198.00,0.0114
3197.00,0.0114
3196.00,0.0114
3195.00,0.0114
3194.00,0.0114
3193.00,0.0114
3192.00,0.0114
3191.00,0.0113
3190.00,0.0113
3189.00,0.0113
3188.00,0.0113
3187.00,0.0113
3186.00,0.0113
3185.00,0.0113
3184.00,0.0113
3183.00,0.0113
3182.00,0.0113
3181.00,0.0112
3180.00,0.0112
3179.00,0.0112
3178.00,0.0112
3177.00,0.0111
3176.00,0.0111
3175.00,0.0111
3174.00,0.0111
3173.00,0.0111
3172.00,0.0111
3171.00,0.0111
3170.00,0.0110
3169.00,0.0110
3168.00,0.0110
3167.00,0.0110
3166.00,0.0109
3165.00,0.0109
3164.00,0.0109
3163.00,0.0109
3162.00,0.0108
3161.00,0.0108
3160.00,0.0108
3159.00,0.0108
3158.00,0.0107
3157.00,0.0107
3156.00,0.0107
3155.00,0.0107
3154.00,0.0106
3153.00,0.0106
3152.00,0.0105
3151.00,0.0105
3150.00,0.0105
3149.00,0.0105
3148.00,0.0105
3147.00,0.0105
3146.00,0.0104
3145.00,0.0104
3144.00,0.0104
3143.00,0.0104
3142.00,0.0104
3141.00,0.0103
3140.00,0.0103
3139.00,0.0103
3138.00,0.0103
3137.00,0.0103
3136.00,0.0102
3135.00,0.0102
3134.00,0.0102
3133.00,0.0102
3132.00,0.0102
3131.00,0.0102
3130.00,0.0102
3129.00,0.0102
3128.00,0.0102
3127.00,0.0102
3126.00,0.0102
3125.00,0.0102
3124.00,0.0101
3123.00,0.0101
3122.00,0.0101
3121.00,0.0101
3120.00,0.0101
3119.00,0.0101
3118.00,0.0100
3117.00,0.0100
3116.00,0.0100
3115.00,0.0099
3114.00,0.0099
3113.00,0.0099
3112.00,0.0099
3111.00,0.0098
3110.00,0.0098
3109.00,0.0098
3108.00,0.0098
3107.00,0.0098
3106.00,0.0098
3105.00,0.0097
3104.00,0.0097
3103.00,0.0097
3102.00,0.0097
3101.00,0.0096
3100.00,0.0096
3099.00,0.0096
3098.00,0.0096
3097.00,0.0096
3096.00,0.0096
3095.00,0.0096
3094.00,0.0096
3093.00,0.0096
3092.00,0.0096
3091.00,0.0096
3090.00,0.0096
3089.00,0.0096
3088.00,0.0096
3087.00,0.0096
3086.00,0.0095
3085.00,0.0095
3084.00,0.0095
3083.00,0.0095
3082.00,0.0095
3081.00,0.0095
3080.00,0.0095
3079.00,0.0095
3078.00,0.0095
3077.00,0.0095
3076.00,0.0095
3075.00,0.0095
3074.00,0.0094
3073.00,0.0094
3072.00,0.0094
3071.00,0.0093
3070.00,0.0093
3069.00,0.0093
3068.00,0.0093
3067.00,0.0093
3066.00,0.0093
3065.00,0.0092
3064.00,0.0092
3063.00,0.0092
3062.00,0.0091
3061.00,0.0091
3060.00,0.0091
3059.00,0.0091
3058.00,0.0090
3057.00,0.0090
3056.00,0.0090
3055.00,0.0090
3054.00,0.0090
3053.00,0.0089
3052.00,0.0089
3051.00,0.0089
3050.00,0.0089
3049.00,0.0089
3048.00,0.0089
3047.00,0.0089
3046.00,0.0088
3045.00,0.0088
3044.00,0.0088
3043.00,0.0087
3042.00,0.0087
3041.00,0.0087
3040.00,0.0087
3039.00,0.0087
3038.00,0.0087
3037.00,0.0087
3036.00,0.0087
3035.00,0.0087
3034.00,0.0086
3033.00,0.0086
3032.00,0.0086
3031.00,0.0086
3030.00,0.0085
3029.00,0.0085
3028.00,0.0085
3027.00,0.0085
3026.00,0.0085
3025.00,0.0085
3024.00,0.0085
3023.00,0.0084
3022.00,0.0084
3021.00,0.0085
3020.00,0.0085
3019.00,0.0085
3018.00,0.0085
3017.00,0.0085
3016.00,0.0085
3015.00,0.0085
3014.00,0.0085
3013.00,0.0086
3012.00,0.0086
3011.00,0.0087
3010.00,0.0088
3009.00,0.0089
3008.00,0.0090
3007.00,0.0091
3006.00,0.0093
3005.00,0.0094
3004.00,0.0096
3003.00,0.0098
3002.00,0.0100
3001.00,0.0103
3000.00,0.0105
2999.00,0.0108
2998.00,0.0110
2997.00,0.0113
2996.00,0.0116
2995.00,0.0120
2994.00,0.0123
2993.00,0.0126
2992.00,0.0130
2991.00,0.0133
2990.00,0.0137
2989.00,0.0140
2988.00,0.0143
2987.00,0.0146
2986.00,0.0149
2985.00,0.0152
2984.00,0.0154
2983.00,0.0156
2982.00,0.0158
2981.00,0.0160
2980.00,0.0162
2979.00,0.0164
2978.00,0.0166
2977.00,0.0167
2976.00,0.0169
2975.00,0.0170
2974.00,0.0171
2973.00,0.0173
2972.00,0.0174
2971.00,0.0176
2970.00,0.0178
2969.00,0.0180
2968.00,0.0182
2967.00,0.0185
2966.00,0.0187
2965.00,0.0190
2964.00,0.0192
2963.00,0.0195
2962.00,0.0197
2961.00,0.0200
2960.00,0.0203
2959.00,0.0205
2958.00,0.0208
2957.00,0.0210
2956.00,0.0212
2955.00,0.0214
2954.00,0.0215
2953.00,0.0216
2952.00,0.0216
2951.00,0.0216
2950.00,0.0216
2949.00,0.0215
2948.00,0.0215
2947.00,0.0215
2946.00,0.0214
2945.00,0.0214
2944.00,0.0214
2943.00,0.0214
2942.00,0.0214
2941.00,0.0214
2940.00,0.0215
2939.00,0.0215
2938.00,0.0216
2937.00,0.0217
2936.00,0.0218
2935.00,0.0219
2934.00,0.0219
2933.00,0.0220
2932.00,0.0221
2931.00,0.0221
2930.00,0.0222
2929.00,0.0222
2928.00,0.0223
2927.00,0.0223
2926.00,0.0223
2925.00,0.0223
2924.00,0.0223
2923.00,0.0222
2922.00,0.0221
2921.00,0.0219
2920.00,0.0218
2919.00,0.0216
2918.00,0.0214
2917.00,0.0212
2916.00,0.0210
2915.00,0.0207
2914.00,0.0204
2913.00,0.0201
2912.00,0.0198
2911.00,0.0195
2910.00,0.0192
2909.00,0.0189
2908.00,0.0187
2907.00,0.0184
2906.00,0.0182
2905.00,0.0180
2904.00,0.0178
2903.00,0.0177
2902.00,0.0176
2901.00,0.0175
2900.00,0.0175
2899.00,0.0175
2898.00,0.0174
2897.00,0.0174
2896.00,0.0173
2895.00,0.0173
2894.00,0.0173
2893.00,0.0174
2892.00,0.0174
2891.00,0.0174
2890.00,0.0173
2889.00,0.0173
2888.00,0.0173
2887.00,0.0173
2886.00,0.0172
2885.00,0.0172
2884.00,0.0173
2883.00,0.0173
2882.00,0.0173
2881.00,0.0173
2880.00,0.0174
2879.00,0.0175
2878.00,0.0175
2877.00,0.0176
2876.00,0.0176
2875.00,0.0177
2874.00,0.0177
2873.00,0.0178
2872.00,0.0179
2871.00,0.0179
2870.00,0.0179
2869.00,0.0179
2868.00,0.0179
2867.00,0.0178
2866.00,0.0178
2865.00,0.0177
2864.00,0.0177
2863.00,0.0177
2862.00,0.0176
2861.00,0.0175
2860.00,0.0174
2859.00,0.0173
2858.00,0.0171
2857.00,0.0169
2856.00,0.0167
2855.00,0.0164
2854.00,0.0161
2853.00,0.0158
2852.00,0.0154
2851.00,0.0150
2850.00,0.0147
2849.00,0.0143
2848.00,0.0140
2847.00,0.0137
2846.00,0.0133
2845.00,0.0130
2844.00,0.0127
2843.00,0.0124
2842.00,0.0121
2841.00,0.0117
2840.00,0.0114
2839.00,0.0111
2838.00,0.0109
2837.00,0.0107
2836.00,0.0105
2835.00,0.0104
2834.00,0.0102
2833.00,0.0100
2832.00,0.0099
2831.00,0.0097
2830.00,0.0095
2829.00,0.0093
2828.00,0.0092
2827.00,0.0090
2826.00,0.0089
2825.00,0.0087
2824.00,0.0086
2823.00,0.0084
2822.00,0.0083
2821.00,0.0082
2820.00,0.0081
2819.00,0.0080
2818.00,0.0079
2817.00,0.0078
2816.00,0.0077
2815.00,0.0077
2814.00,0.0076
2813.00,0.0075
2812.00,0.0075
2811.00,0.0074
2810.00,0.0074
2809.00,0.0073
2808.00,0.0073
2807.00,0.0072
2806.00,0.0072
2805.00,0.0071
2804.00,0.0071
2803.00,0.0071
2802.00,0.0070
2801.00,0.0070
2800.00,0.0069
2799.00,0.0069
2798.00,0.0068
2797.00,0.0068
2796.00,0.0068
2795.00,0.0067
2794.00,0.0067
2793.00,0.0067
2792.00,0.0066
2791.00,0.0066
2790.00,0.0066
2789.00,0.0066
2788.00,0.0065
2787.00,0.0065
2786.00,0.0065
2785.00,0.0065
2784.00,0.0064
2783.00,0.0064
2782.00,0.0064
2781.00,0.0064
2780.00,0.0064
2779.00,0.0063
2778.00,0.0063
2777.00,0.0063
2776.00,0.0063
2775.00,0.0063
2774.00,0.0062
2773.00,0.0062
2772.00,0.0062
2771.00,0.0062
2770.00,0.0062
2769.00,0.0062
2768.00,0.0062
2767.00,0.0062
2766.00,0.0062
2765.00,0.0062
2764.00,0.0061
2763.00,0.0061
2762.00,0.0061
2761.00,0.0061
2760.00,0.0061
2759.00,0.0061
2758.00,0.0061
2757.00,0.0061
2756.00,0.0061
2755.00,0.0061
2754.00,0.0061
2753.00,0.0061
2752.00,0.0061
2751.00,0.0061
2750.00,0.0061
2749.00,0.0061
2748.00,0.0062
2747.00,0.0062
2746.00,0.0062
2745.00,0.0062
2744.00,0.0062
2743.00,0.0062
2742.00,0.0062
2741.00,0.0062
2740.00,0.0062
2739.00,0.0062
2738.00,0.0062
2737.00,0.0062
2736.00,0.0062
2735.00,0.0062
2734.00,0.0062
2733.00,0.0062
2732.00,0.0062
2731.00,0.0062
2730.00,0.0062
2729.00,0.0061
2728.00,0.0061
2727.00,0.0061
2726.00,0.0061
2725.00,0.0061
2724.00,0.0061
2723.00,0.0061
2722.00,0.0061
2721.00,0.0061
2720.00,0.0060
2719.00,0.0060
2718.00,0.0060
2717.00,0.0060
2716.00,0.0060
2715.00,0.0060
2714.00,0.0060
2713.00,0.0059
2712.00,0.0059
2711.00,0.0059
2710.00,0.0059
2709.00,0.0059
2708.00,0.0059
2707.00,0.0059
2706.00,0.0059
2705.00,0.0058
2704.00,0.0058
2703.00,0.0058
2702.00,0.0058
2701.00,0.0058
2700.00,0.0057
2699.00,0.0057
2698.00,0.0057
2697.00,0.0057
2696.00,0.0057
2695.00,0.0056
2694.00,0.0056
2693.00,0.0056
2692.00,0.0056
2691.00,0.0056
2690.00,0.0056
2689.00,0.0055
2688.00,0.0055
2687.00,0.0055
2686.00,0.0055
2685.00,0.0055
2684.00,0.0055
2683.00,0.0055
2682.00,0.0055
2681.00,0.0055
2680.00,0.0055
2679.00,0.0054
2678.00,0.0054
2677.00,0.0054
2676.00,0.0054
2675.00,0.0054
2674.00,0.0054
2673.00,0.0054
2672.00,0.0054
2671.00,0.0054
2670.00,0.0054
2669.00,0.0054
2668.00,0.0054
2667.00,0.0055
2666.00,0.0055
2665.00,0.0055
2664.00,0.0056
2663.00,0.0056
2662.00,0.0056
2661.00,0.0057
2660.00,0.0057
2659.00,0.0057
2658.00,0.0057
2657.00,0.0057
2656.00,0.0057
2655.00,0.0057
2654.00,0.0058
2653.00,0.0058
2652.00,0.0058
2651.00,0.0057
2650.00,0.0057
2649.00,0.0057
2648.00,0.0057
2647.00,0.0057
2646.00,0.0057
2645.00,0.0056
2644.00,0.0056
2643.00,0.0056
2642.00,0.0056
2641.00,0.0056
2640.00,0.0056
2639.00,0.0056
2638.00,0.0056
2637.00,0.0056
2636.00,0.0056
2635.00,0.0056
2634.00,0.0056
2633.00,0.0055
2632.00,0.0055
2631.00,0.0055
2630.00,0.0055
2629.00,0.0055
2628.00,0.0055
2627.00,0.0054
2626.00,0.0054
2625.00,0.0054
2624.00,0.0054
2623.00,0.0054
2622.00,0.0054
2621.00,0.0054
2620.00,0.0053
2619.00,0.0053
2618.00,0.0053
2617.00,0.0053
2616.00,0.0052
2615.00,0.0052
2614.00,0.0052
2613.00,0.0052
2612.00,0.0052
2611.00,0.0052
2610.00,0.0052
2609.00,0.0052
2608.00,0.0052
2607.00,0.0052
2606.00,0.0052
2605.00,0.0051
2604.00,0.0051
2603.00,0.0051
2602.00,0.0051
2601.00,0.0051
2600.00,0.0051
2599.00,0.0051
2598.00,0.0050
2597.00,0.0050
2596.00,0.0050
2595.00,0.0049
2594.00,0.0049
2593.00,0.0049
2592.00,0.0049
2591.00,0.0049
2590.00,0.0049
2589.00,0.0049
2588.00,0.0049
2587.00,0.0049
2586.00,0.0049
2585.00,0.0049
2584.00,0.0049
2583.00,0.0049
2582.00,0.0048
2581.00,0.0048
2580.00,0.0048
2579.00,0.0048
2578.00,0.0048
2577.00,0.0048
2576.00,0.0048
2575.00,0.0048
2574.00,0.0048
2573.00,0.0048
2572.00,0.0048
2571.00,0.0048
2570.00,0.0047
2569.00,0.0047
2568.00,0.0047
2567.00,0.0047
2566.00,0.0047
2565.00,0.0046
2564.00,0.0046
2563.00,0.0046
2562.00,0.0046
2561.00,0.0045
2560.00,0.0045
2559.00,0.0045
2558.00,0.0045
2557.00,0.0044
2556.00,0.0044
2555.00,0.0044
2554.00,0.0044
2553.00,0.0044
2552.00,0.0044
2551.00,0.0044
2550.00,0.0044
2549.00,0.0044
2548.00,0.0044
2547.00,0.0044
2546.00,0.0044
2545.00,0.0044
2544.00,0.0044
2543.00,0.0043
2542.00,0.0043
2541.00,0.0042
2540.00,0.0042
2539.00,0.0042
2538.00,0.0042
2537.00,0.0042
2536.00,0.0042
2535.00,0.0042
2534.00,0.0041
2533.00,0.0041
2532.00,0.0041
2531.00,0.0041
2530.00,0.0041
2529.00,0.0041
2528.00,0.0040
2527.00,0.0040
2526.00,0.0040
2525.00,0.0039
2524.00,0.0039
2523.00,0.0039
2522.00,0.0039
2521.00,0.0039
2520.00,0.0039
2519.00,0.0039
2518.00,0.0040
2517.00,0.0040
2516.00,0.0039
2515.00,0.0039
2514.00,0.0038
2513.00,0.0038
2512.00,0.0038
2511.00,0.0038
2510.00,0.0038
2509.00,0.0038
2508.00,0.0037
2507.00,0.0037
2506.00,0.0037
2505.00,0.0037
2504.00,0.0037
2503.00,0.0037
2502.00,0.0037
2501.00,0.0037
2500.00,0.0037
2499.00,0.0037
2498.00,0.0037
2497.00,0.0038
2496.00,0.0038
2495.00,0.0038
2494.00,0.0037
2493.00,0.0037
2492.00,0.0037
2491.00,0.0037
2490.00,0.0037
2489.00,0.0037
2488.00,0.0036
2487.00,0.0036
2486.00,0.0036
2485.00,0.0035
2484.00,0.0035
2483.00,0.0035
2482.00,0.0035
2481.00,0.0035
2480.00,0.0036
2479.00,0.0036
2478.00,0.0036
2477.00,0.0036
2476.00,0.0036
2475.00,0.0035
2474.00,0.0035
2473.00,0.0035
2472.00,0.0035
2471.00,0.0035
2470.00,0.0036
2469.00,0.0036
2468.00,0.0036
2467.00,0.0036
2466.00,0.0036
2465.00,0.0036
2464.00,0.0036
2463.00,0.0036
2462.00,0.0036
2461.00,0.0037
2460.00,0.0037
2459.00,0.0037
2458.00,0.0037
2457.00,0.0037
2456.00,0.0037
2455.00,0.0037
2454.00,0.0037
2453.00,0.0037
2452.00,0.0037
2451.00,0.0037
2450.00,0.0036
2449.00,0.0036
2448.00,0.0036
2447.00,0.0036
2446.00,0.0035
2445.00,0.0035
2444.00,0.0035
2443.00,0.0036
2442.00,0.0036
2441.00,0.0035
2440.00,0.0035
2439.00,0.0035
2438.00,0.0035
2437.00,0.0035
2436.00,0.0035
2435.00,0.0035
2434.00,0.0035
2433.00,0.0035
2432.00,0.0035
2431.00,0.0034
2430.00,0.0034
2429.00,0.0034
2428.00,0.0034
2427.00,0.0035
2426.00,0.0035
2425.00,0.0035
2424.00,0.0035
2423.00,0.0034
2422.00,0.0034
2421.00,0.0033
2420.00,0.0033
2419.00,0.0033
2418.00,0.0033
2417.00,0.0033
2416.00,0.0033
2415.00,0.0033
2414.00,0.0033
2413.00,0.0033
2412.00,0.0033
2411.00,0.0033
2410.00,0.0033
2409.00,0.0033
2408.00,0.0032
2407.00,0.0032
2406.00,0.0032
2405.00,0.0031
2404.00,0.0031
2403.00,0.0031
2402.00,0.0031
2401.00,0.0031
2400.00,0.0031
2399.00,0.0031
2398.00,0.0031
2397.00,0.0031
2396.00,0.0031
2395.00,0.0031
2394.00,0.0031
2393.00,0.0031
2392.00,0.0031
2391.00,0.0031
2390.00,0.0031
2389.00,0.0031
2388.00,0.0030
2387.00,0.0030
2386.00,0.0029
2385.00,0.0029
2384.00,0.0028
2383.00,0.0028
2382.00,0.0027
2381.00,0.0028
2380.00,0.0028
2379.00,0.0028
2378.00,0.0028
2377.00,0.0028
2376.00,0.0027
2375.00,0.0027
2374.00,0.0027
2373.00,0.0027
2372.00,0.0027
2371.00,0.0027
2370.00,0.0027
2369.00,0.0027
2368.00,0.0027
2367.00,0.0027
2366.00,0.0027
2365.00,0.0027
2364.00,0.0028
2363.00,0.0028
2362.00,0.0028
2361.00,0.0028
2360.00,0.0028
2359.00,0.0027
2358.00,0.0028
2357.00,0.0028
2356.00,0.0028
2355.00,0.0028
2354.00,0.0027
2353.00,0.0027
2352.00,0.0027
2351.00,0.0027
2350.00,0.0028
2349.00,0.0030
2348.00,0.0031
2347.00,0.0032
2346.00,0.0033
2345.00,0.0032
2344.00,0.0031
2343.00,0.0031
2342.00,0.0031
2341.00,0.0031
2340.00,0.0032
2339.00,0.0032
2338.00,0.0032
2337.00,0.0032
2336.00,0.0032
2335.00,0.0032
2334.00,0.0032
2333.00,0.0032
2332.00,0.0032
2331.00,0.0032
2330.00,0.0032
2329.00,0.0034
2328.00,0.0038
2327.00,0.0042
2326.00,0.0046
2325.00,0.0047
2324.00,0.0045
2323.00,0.0043
2322.00,0.0041
2321.00,0.0040
2320.00,0.0039
2319.00,0.0039
2318.00,0.0038
2317.00,0.0037
2316.00,0.0037
2315.00,0.0037
2314.00,0.0036
2313.00,0.0036
2312.00,0.0036
2311.00,0.0036
2310.00,0.0036
2309.00,0.0036
2308.00,0.0036
2307.00,0.0037
2306.00,0.0037
2305.00,0.0037
2304.00,0.0037
2303.00,0.0037
2302.00,0.0037
2301.00,0.0037
2300.00,0.0037
2299.00,0.0038
2298.00,0.0039
2297.00,0.0040
2296.00,0.0041
2295.00,0.0042
2294.00,0.0043
2293.00,0.0044
2292.00,0.0045
2291.00,0.0046
2290.00,0.0046
2289.00,0.0047
2288.00,0.0048
2287.00,0.0048
2286.00,0.0048
2285.00,0.0047
2284.00,0.0047
2283.00,0.0046
2282.00,0.0045
2281.00,0.0044
2280.00,0.0043
2279.00,0.0042
2278.00,0.0042
2277.00,0.0041
2276.00,0.0041
2275.00,0.0041
2274.00,0.0041
2273.00,0.0041
2272.00,0.0041
2271.00,0.0040
2270.00,0.0039
2269.00,0.0038
2268.00,0.0038
2267.00,0.0037
2266.00,0.0037
2265.00,0.0037
2264.00,0.0038
2263.00,0.0038
2262.00,0.0037
2261.00,0.0037
2260.00,0.0037
2259.00,0.0037
2258.00,0.0037
2257.00,0.0036
2256.00,0.0035
2255.00,0.0034
2254.00,0.0033
2253.00,0.0033
2252.00,0.0034
2251.00,0.0035
2250.00,0.0036
2249.00,0.0036
2248.00,0.0036
2247.00,0.0036
2246.00,0.0036
2245.00,0.0036
2244.00,0.0037
2243.00,0.0038
2242.00,0.0039
2241.00,0.0039
2240.00,0.0039
2239.00,0.0039
2238.00,0.0038
2237.00,0.0038
2236.00,0.0037
2235.00,0.0037
2234.00,0.0037
2233.00,0.0037
2232.00,0.0037
2231.00,0.0036
2230.00,0.0036
2229.00,0.0036
2228.00,0.0036
2227.00,0.0037
2226.00,0.0038
2225.00,0.0039
2224.00,0.0040
2223.00,0.0041
2222.00,0.0041
2221.00,0.0040
2220.00,0.0039
2219.00,0.0038
2218.00,0.0037
2217.00,0.0037
2216.00,0.0037
2215.00,0.0037
2214.00,0.0037
2213.00,0.0038
2212.00,0.0038
2211.00,0.0038
2210.00,0.0038
2209.00,0.0037
2208.00,0.0036
2207.00,0.0036
2206.00,0.0036
2205.00,0.0037
2204.00,0.0038
2203.00,0.0039
2202.00,0.0039
2201.00,0.0039
2200.00,0.0039
2199.00,0.0039
2198.00,0.0038
2197.00,0.0038
2196.00,0.0039
2195.00,0.0039
2194.00,0.0039
2193.00,0.0040
2192.00,0.0040
2191.00,0.0040
2190.00,0.0039
2189.00,0.0039
2188.00,0.0039
2187.00,0.0039
2186.00,0.0039
2185.00,0.0037
2184.00,0.0035
2183.00,0.0033
2182.00,0.0032
2181.00,0.0033
2180.00,0.0035
2179.00,0.0036
2178.00,0.0036
2177.00,0.0034
2176.00,0.0034
2175.00,0.0034
2174.00,0.0035
2173.00,0.0037
2172.00,0.0040
2171.00,0.0042
2170.00,0.0044
2169.00,0.0046
2168.00,0.0047
2167.00,0.0048
2166.00,0.0049
2165.00,0.0051
2164.00,0.0054
2163.00,0.0054
2162.00,0.0048
2161.00,0.0033
2160.00,0.0015
2159.00,0.0001
2158.00,-0.0005
2157.00,-0.0003
2156.00,0.0002
2155.00,0.0006
2154.00,0.0008
2153.00,0.0010
2152.00,0.0011
2151.00,0.0011
2150.00,0.0011
2149.00,0.0012
2148.00,0.0012
2147.00,0.0013
2146.00,0.0014
2145.00,0.0014
2144.00,0.0015
2143.00,0.0015
2142.00,0.0015
2141.00,0.0015
2140.00,0.0016
2139.00,0.0015
2138.00,0.0014
2137.00,0.0012
2136.00,0.0010
2135.00,0.0009
2134.00,0.0009
2133.00,0.0011
2132.00,0.0012
2131.00,0.0014
2130.00,0.0016
2129.00,0.0018
2128.00,0.0020
2127.00,0.0021
2126.00,0.0022
2125.00,0.0023
2124.00,0.0024
2123.00,0.0025
2122.00,0.0025
2121.00,0.0026
2120.00,0.0027
2119.00,0.0029
2118.00,0.0030
2117.00,0.0032
2116.00,0.0033
2115.00,0.0033
2114.00,0.0033
2113.00,0.0032
2112.00,0.0032
2111.00,0.0032
2110.00,0.0032
2109.00,0.0033
2108.00,0.0033
2107.00,0.0033
2106.00,0.0033
2105.00,0.0033
2104.00,0.0034
2103.00,0.0034
2102.00,0.0033
2101.00,0.0032
2100.00,0.0032
2099.00,0.0031
2098.00,0.0031
2097.00,0.0029
2096.00,0.0028
2095.00,0.0028
2094.00,0.0028
2093.00,0.0030
2092.00,0.0031
2091.00,0.0032
2090.00,0.0032
2089.00,0.0033
2088.00,0.0034
2087.00,0.0034
2086.00,0.0034
2085.00,0.0034
2084.00,0.0034
2083.00,0.0034
2082.00,0.0035
2081.00,0.0036
2080.00,0.0036
2079.00,0.0036
2078.00,0.0035
2077.00,0.0034
2076.00,0.0034
2075.00,0.0034
2074.00,0.0034
2073.00,0.0034
2072.00,0.0034
2071.00,0.0034
2070.00,0.0033
2069.00,0.0033
2068.00,0.0033
2067.00,0.0033
2066.00,0.0033
2065.00,0.0033
2064.00,0.0033
2063.00,0.0032
2062.00,0.0032
2061.00,0.0032
2060.00,0.0033
2059.00,0.0034
2058.00,0.0034
2057.00,0.0034
2056.00,0.0034
2055.00,0.0034
2054.00,0.0036
2053.00,0.0040
2052.00,0.0044
2051.00,0.0045
2050.00,0.0042
2049.00,0.0038
2048.00,0.0035
2047.00,0.0033
2046.00,0.0031
2045.00,0.0031
2044.00,0.0031
2043.00,0.0032
2042.00,0.0033
2041.00,0.0033
2040.00,0.0032
2039.00,0.0031
2038.00,0.0029
2037.00,0.0029
2036.00,0.0029
2035.00,0.0028
2034.00,0.0027
2033.00,0.0026
2032.00,0.0026
2031.00,0.0025
2030.00,0.0024
2029.00,0.0024
2028.00,0.0025
2027.00,0.0026
2026.00,0.0025
2025.00,0.0026
2024.00,0.0026
2023.00,0.0026
2022.00,0.0025
2021.00,0.0024
2020.00,0.0024
2019.00,0.0025
2018.00,0.0024
2017.00,0.0023
2016.00,0.0023
2015.00,0.0023
2014.00,0.0022
2013.00,0.0023
2012.00,0.0024
2011.00,0.0025
2010.00,0.0024
2009.00,0.0021
2008.00,0.0018
2007.00,0.0015
2006.00,0.0014
2005.00,0.0015
2004.00,0.0018
2003.00,0.0021
2002.00,0.0022
2001.00,0.0024
2000.00,0.0025
1999.00,0.0027
1998.00,0.0027
1997.00,0.0027
1996.00,0.0027
1995.00,0.0027
1994.00,0.0028
1993.00,0.0029
1992.00,0.0031
1991.00,0.0032
1990.00,0.0032
1989.00,0.0033
1988.00,0.0034
1987.00,0.0035
1986.00,0.0035
1985.00,0.0036
1984.00,0.0039
1983.00,0.0041
1982.00,0.0043
1981.00,0.0043
1980.00,0.0041
1979.00,0.0035
1978.00,0.0029
1977.00,0.0024
1976.00,0.0022
1975.00,0.0019
1974.00,0.0017
1973.00,0.0017
1972.00,0.0018
1971.00,0.0019
1970.00,0.0019
1969.00,0.0019
1968.00,0.0019
1967.00,0.0018
1966.00,0.0017
1965.00,0.0017
1964.00,0.0018
1963.00,0.0018
1962.00,0.0016
1961.00,0.0014
1960.00,0.0012
1959.00,0.0011
1958.00,0.0011
1957.00,0.0014
1956.00,0.0017
1955.00,0.0019
1954.00,0.0020
1953.00,0.0020
1952.00,0.0021
1951.00,0.0022
1950.00,0.0021
1949.00,0.0021
1948.00,0.0021
1947.00,0.0020
1946.00,0.0020
1945.00,0.0021
1944.00,0.0021
1943.00,0.0021
1942.00,0.0020
1941.00,0.0020
1940.00,0.0020
1939.00,0.0021
1938.00,0.0021
1937.00,0.0021
1936.00,0.0021
1935.00,0.0022
1934.00,0.0022
1933.00,0.0023
1932.00,0.0023
1931.00,0.0023
1930.00,0.0023
1929.00,0.0023
1928.00,0.0022
1927.00,0.0022
1926.00,0.0022
1925.00,0.0022
1924.00,0.0023
1923.00,0.0024
1922.00,0.0024
1921.00,0.0024
1920.00,0.0024
1919.00,0.0024
1918.00,0.0024
1917.00,0.0024
1916.00,0.0024
1915.00,0.0024
1914.00,0.0024
1913.00,0.0024
1912.00,0.0024
1911.00,0.0024
1910.00,0.0024
1909.00,0.0025
1908.00,0.0025
1907.00,0.0026
1906.00,0.0026
1905.00,0.0026
1904.00,0.0026
1903.00,0.0025
1902.00,0.0025
1901.00,0.0025
1900.00,0.0025
1899.00,0.0025
1898.00,0.0026
1897.00,0.0026
1896.00,0.0027
1895.00,0.0027
1894.00,0.0026
1893.00,0.0026
1892.00,0.0026
1891.00,0.0026
1890.00,0.0026
1889.00,0.0025
1888.00,0.0025
1887.00,0.0025
1886.00,0.0026
1885.00,0.0026
1884.00,0.0026
1883.00,0.0026
1882.00,0.0026
1881.00,0.0026
1880.00,0.0026
1879.00,0.0026
1878.00,0.0026
1877.00,0.0025
1876.00,0.0025
1875.00,0.0025
1874.00,0.0025
1873.00,0.0026
1872.00,0.0027
1871.00,0.0027
1870.00,0.0027
1869.00,0.0026
1868.00,0.0026
1867.00,0.0026
1866.00,0.0026
1865.00,0.0026
1864.00,0.0026
1863.00,0.0026
1862.00,0.0026
1861.00,0.0026
1860.00,0.0026
1859.00,0.0026
1858.00,0.0026
1857.00,0.0026
1856.00,0.0026
1855.00,0.0026
1854.00,0.0026
1853.00,0.0026
1852.00,0.0026
1851.00,0.0027
1850.00,0.0026
1849.00,0.0026
1848.00,0.0027
1847.00,0.0027
1846.00,0.0026
1845.00,0.0026
1844.00,0.0025
1843.00,0.0025
1842.00,0.0026
1841.00,0.0026
1840.00,0.0027
1839.00,0.0027
1838.00,0.0027
1837.00,0.0027
1836.00,0.0027
1835.00,0.0028
1834.00,0.0028
1833.00,0.0028
1832.00,0.0028
1831.00,0.0028
1830.00,0.0027
1829.00,0.0027
1828.00,0.0027
1827.00,0.0027
1826.00,0.0027
1825.00,0.0028
1824.00,0.0027
1823.00,0.0027
1822.00,0.0027
1821.00,0.0027
1820.00,0.0026
1819.00,0.0025
1818.00,0.0024
1817.00,0.0024
1816.00,0.0024
1815.00,0.0025
1814.00,0.0026
1813.00,0.0026
1812.00,0.0027
1811.00,0.0028
1810.00,0.0028
1809.00,0.0028
1808.00,0.0028
1807.00,0.0028
1806.00,0.0028
1805.00,0.0028
1804.00,0.0028
1803.00,0.0029
1802.00,0.0029
1801.00,0.0029
1800.00,0.0029
1799.00,0.0029
1798.00,0.0029
1797.00,0.0029
1796.00,0.0029
1795.00,0.0029
1794.00,0.0028
1793.00,0.0028
1792.00,0.0028
1791.00,0.0028
1790.00,0.0028
1789.00,0.0029
1788.00,0.0030
1787.00,0.0030
1786.00,0.0030
1785.00,0.0030
1784.00,0.0031
1783.00,0.0031
1782.00,0.0031
1781.00,0.0031
1780.00,0.0031
1779.00,0.0031
1778.00,0.0030
1777.00,0.0031
1776.00,0.0031
1775.00,0.0031
1774.00,0.0031
1773.00,0.0030
1772.00,0.0031
1771.00,0.0031
1770.00,0.0031
1769.00,0.0031
1768.00,0.0031
1767.00,0.0031
1766.00,0.0031
1765.00,0.0032
1764.00,0.0033
1763.00,0.0033
1762.00,0.0032
1761.00,0.0032
1760.00,0.0033
1759.00,0.0033
1758.00,0.0033
1757.00,0.0033
1756.00,0.0033
1755.00,0.0033
1754.00,0.0032
1753.00,0.0032
1752.00,0.0033
1751.00,0.0033
1750.00,0.0033
1749.00,0.0034
1748.00,0.0034
1747.00,0.0034
1746.00,0.0034
1745.00,0.0035
1744.00,0.0035
1743.00,0.0035
1742.00,0.0034
1741.00,0.0034
1740.00,0.0035
1739.00,0.0036
1738.00,0.0036
1737.00,0.0036
1736.00,0.0037
1735.00,0.0037
1734.00,0.0038
1733.00,0.0039
1732.00,0.0042
1731.00,0.0045
1730.00,0.0046
1729.00,0.0047
1728.00,0.0049
1727.00,0.0050
1726.00,0.0051
1725.00,0.0053
1724.00,0.0055
1723.00,0.0057
1722.00,0.0058
1721.00,0.0059
1720.00,0.0060
1719.00,0.0062
1718.00,0.0064
1717.00,0.0068
1716.00,0.0072
1715.00,0.0076
1714.00,0.0080
1713.00,0.0084
1712.00,0.0089
1711.00,0.0094
1710.00,0.0099
1709.00,0.0105
1708.00,0.0112
1707.00,0.0120
1706.00,0.0130
1705.00,0.0140
1704.00,0.0150
1703.00,0.0157
1702.00,0.0166
1701.00,0.0185
1700.00,0.0214
1699.00,0.0238
1698.00,0.0255
1697.00,0.0278
1696.00,0.0312
1695.00,0.0350
1694.00,0.0380
1693.00,0.0404
1692.00,0.0429
1691.00,0.0458
1690.00,0.0493
1689.00,0.0526
1688.00,0.0553
1687.00,0.0573
1686.00,0.0596
1685.00,0.0642
1684.00,0.0708
1683.00,0.0761
1682.00,0.0787
1681.00,0.0803
1680.00,0.0819
1679.00,0.0834
1678.00,0.0844
1677.00,0.0856
1676.00,0.0879
1675.00,0.0908
1674.00,0.0930
1673.00,0.0938
1672.00,0.0941
1671.00,0.0953
1670.00,0.0978
1669.00,0.1010
1668.00,0.1034
1667.00,0.1045
1666.00,0.1047
1665.00,0.1050
1664.00,0.1065
1663.00,0.1093
1662.00,0.1123
1661.00,0.1144
1660.00,0.1155
1659.00,0.1160
1658.00,0.1160
1657.00,0.1152
1656.00,0.1136
1655.00,0.1126
1654.00,0.1147
1653.00,0.1202
1652.00,0.1233
1651.00,0.1218
1650.00,0.1183
1649.00,0.1148
1648.00,0.1126
1647.00,0.1116
1646.00,0.1105
1645.00,0.1082
1644.00,0.1049
1643.00,0.1012
1642.00,0.0973
1641.00,0.0934
1640.00,0.0896
1639.00,0.0858
1638.00,0.0819
1637.00,0.0784
1636.00,0.0755
1635.00,0.0728
1634.00,0.0700
1633.00,0.0670
1632.00,0.0640
1631.00,0.0612
1630.00,0.0588
1629.00,0.0569
1628.00,0.0555
1627.00,0.0545
1626.00,0.0537
1625.00,0.0535
1624.00,0.0540
1623.00,0.0551
1622.00,0.0562
1621.00,0.0565
1620.00,0.0561
1619.00,0.0554
1618.00,0.0547
1617.00,0.0542
1616.00,0.0536
1615.00,0.0527
1614.00,0.0514
1613.00,0.0500
1612.00,0.0487
1611.00,0.0477
1610.00,0.0466
1609.00,0.0453
1608.00,0.0438
1607.00,0.0420
1606.00,0.0399
1605.00,0.0377
1604.00,0.0355
1603.00,0.0334
1602.00,0.0315
1601.00,0.0297
1600.00,0.0283
1599.00,0.0271
1598.00,0.0262
1597.00,0.0256
1596.00,0.0252
1595.00,0.0253
1594.00,0.0257
1593.00,0.0265
1592.00,0.0276
1591.00,0.0290
1590.00,0.0306
1589.00,0.0323
1588.00,0.0337
1587.00,0.0348
1586.00,0.0354
1585.00,0.0354
1584.00,0.0348
1583.00,0.0337
1582.00,0.0323
1581.00,0.0307
1580.00,0.0291
1579.00,0.0275
1578.00,0.0261
1577.00,0.0248
1576.00,0.0238
1575.00,0.0230
1574.00,0.0224
1573.00,0.0217
1572.00,0.0209
1571.00,0.0203
1570.00,0.0198
1569.00,0.0193
1568.00,0.0188
1567.00,0.0184
1566.00,0.0179
1565.00,0.0175
1564.00,0.0169
1563.00,0.0163
1562.00,0.0157
1561.00,0.0150
1560.00,0.0147
1559.00,0.0145
1558.00,0.0144
1557.00,0.0143
1556.00,0.0141
1555.00,0.0140
1554.00,0.0138
1553.00,0.0137
1552.00,0.0135
1551.00,0.0134
1550.00,0.0132
1549.00,0.0130
1548.00,0.0128
1547.00,0.0126
1546.00,0.0125
1545.00,0.0124
1544.00,0.0122
1543.00,0.0120
1542.00,0.0117
1541.00,0.0115
1540.00,0.0115
1539.00,0.0115
1538.00,0.0115
1537.00,0.0116
1536.00,0.0115
1535.00,0.0115
1534.00,0.0116
1533.00,0.0117
1532.00,0.0117
1531.00,0.0117
1530.00,0.0117
1529.00,0.0117
1528.00,0.0117
1527.00,0.0118
1526.00,0.0119
1525.00,0.0120
1524.00,0.0121
1523.00,0.0122
1522.00,0.0124
1521.00,0.0128
1520.00,0.0132
1519.00,0.0134
1518.00,0.0137
1517.00,0.0140
1516.00,0.0143
1515.00,0.0143
1514.00,0.0144
1513.00,0.0144
1512.00,0.0145
1511.00,0.0146
1510.00,0.0146
1509.00,0.0146
1508.00,0.0149
1507.00,0.0155
1506.00,0.0163
1505.00,0.0172
1504.00,0.0180
1503.00,0.0189
1502.00,0.0200
1501.00,0.0213
1500.00,0.0228
1499.00,0.0245
1498.00,0.0263
1497.00,0.0281
1496.00,0.0295
1495.00,0.0303
1494.00,0.0304
1493.00,0.0300
1492.00,0.0293
1491.00,0.0283
1490.00,0.0271
1489.00,0.0257
1488.00,0.0241
1487.00,0.0225
1486.00,0.0210
1485.00,0.0197
1484.00,0.0185
1483.00,0.0175
1482.00,0.0167
1481.00,0.0162
1480.00,0.0158
1479.00,0.0156
1478.00,0.0156
1477.00,0.0158
1476.00,0.0162
1475.00,0.0168
1474.00,0.0179
1473.00,0.0197
1472.00,0.0221
1471.00,0.0245
1470.00,0.0267
1469.00,0.0290
1468.00,0.0314
1467.00,0.0341
1466.00,0.0375
1465.00,0.0414
1464.00,0.0451
1463.00,0.0476
1462.00,0.0490
1461.00,0.0495
1460.00,0.0494
1459.00,0.0487
1458.00,0.0477
1457.00,0.0463
1456.00,0.0445
1455.00,0.0426
1454.00,0.0409
1453.00,0.0395
1452.00,0.0385
1451.00,0.0380
1450.00,0.0381
1449.00,0.0390
1448.00,0.0405
1447.00,0.0425
1446.00,0.0446
1445.00,0.0466
1444.00,0.0488
1443.00,0.0510
1442.00,0.0532
1441.00,0.0551
1440.00,0.0566
1439.00,0.0578
1438.00,0.0593
1437.00,0.0616
1436.00,0.0641
1435.00,0.0655
1434.00,0.0660
1433.00,0.0661
1432.00,0.0664
1431.00,0.0670
1430.00,0.0680
1429.00,0.0693
1428.00,0.0707
1427.00,0.0721
1426.00,0.0737
1425.00,0.0758
1424.00,0.0780
1423.00,0.0794
1422.00,0.0794
1421.00,0.0785
1420.00,0.0768
1419.00,0.0743
1418.00,0.0709
1417.00,0.0669
1416.00,0.0627
1415.00,0.0586
1414.00,0.0549
1413.00,0.0517
1412.00,0.0490
1411.00,0.0470
1410.00,0.0455
1409.00,0.0445
1408.00,0.0438
1407.00,0.0435
1406.00,0.0436
1405.00,0.0439
1404.00,0.0442
1403.00,0.0441
1402.00,0.0437
1401.00,0.0429
1400.00,0.0418
1399.00,0.0403
1398.00,0.0385
1397.00,0.0366
1396.00,0.0346
1395.00,0.0326
1394.00,0.0308
1393.00,0.0294
1392.00,0.0283
1391.00,0.0274
1390.00,0.0268
1389.00,0.0265
1388.00,0.0266
1387.00,0.0270
1386.00,0.0276
1385.00,0.0283
1384.00,0.0291
1383.00,0.0299
1382.00,0.0309
1381.00,0.0317
1380.00,0.0325
1379.00,0.0330
1378.00,0.0334
1377.00,0.0334
1376.00,0.0334
1375.00,0.0332
1374.00,0.0330
1373.00,0.0327
1372.00,0.0322
1371.00,0.0317
1370.00,0.0312
1369.00,0.0308
1368.00,0.0305
1367.00,0.0302
1366.00,0.0301
1365.00,0.0301
1364.00,0.0304
1363.00,0.0308
1362.00,0.0312
1361.00,0.0312
1360.00,0.0308
1359.00,0.0299
1358.00,0.0288
1357.00,0.0274
1356.00,0.0260
1355.00,0.0247
1354.00,0.0236
1353.00,0.0227
1352.00,0.0221
1351.00,0.0216
1350.00,0.0213
1349.00,0.0211
1348.00,0.0209
1347.00,0.0207
1346.00,0.0205
1345.00,0.0204
1344.00,0.0203
1343.00,0.0203
1342.00,0.0203
1341.00,0.0204
1340.00,0.0205
1339.00,0.0207
1338.00,0.0209
1337.00,0.0211
1336.00,0.0214
1335.00,0.0216
1334.00,0.0219
1333.00,0.0223
1332.00,0.0227
1331.00,0.0231
1330.00,0.0236
1329.00,0.0242
1328.00,0.0248
1327.00,0.0255
1326.00,0.0263
1325.00,0.0272
1324.00,0.0281
1323.00,0.0290
1322.00,0.0299
1321.00,0.0308
1320.00,0.0314
1319.00,0.0320
1318.00,0.0323
1317.00,0.0323
1316.00,0.0321
1315.00,0.0317
1314.00,0.0313
1313.00,0.0308
1312.00,0.0302
1311.00,0.0298
1310.00,0.0295
1309.00,0.0294
1308.00,0.0294
1307.00,0.0296
1306.00,0.0299
1305.00,0.0305
1304.00,0.0313
1303.00,0.0323
1302.00,0.0337
1301.00,0.0355
1300.00,0.0378
1299.00,0.0407
1298.00,0.0441
1297.00,0.0482
1296.00,0.0528
1295.00,0.0578
1294.00,0.0629
1293.00,0.0680
1292.00,0.0729
1291.00,0.0774
1290.00,0.0813
1289.00,0.0845
1288.00,0.0871
1287.00,0.0888
1286.00,0.0895
1285.00,0.0894
1284.00,0.0884
1283.00,0.0868
1282.00,0.0849
1281.00,0.0829
1280.00,0.0810
1279.00,0.0796
1278.00,0.0785
1277.00,0.0779
1276.00,0.0777
1275.00,0.0778
1274.00,0.0778
1273.00,0.0777
1272.00,0.0773
1271.00,0.0764
1270.00,0.0750
1269.00,0.0731
1268.00,0.0707
1267.00,0.0680
1266.00,0.0651
1265.00,0.0621
1264.00,0.0591
1263.00,0.0561
1262.00,0.0534
1261.00,0.0507
1260.00,0.0483
1259.00,0.0460
1258.00,0.0440
1257.00,0.0421
1256.00,0.0404
1255.00,0.0389
1254.00,0.0376
1253.00,0.0364
1252.00,0.0355
1251.00,0.0349
1250.00,0.0345
1249.00,0.0344
1248.00,0.0345
1247.00,0.0349
1246.00,0.0354
1245.00,0.0361
1244.00,0.0370
1243.00,0.0378
1242.00,0.0386
1241.00,0.0392
1240.00,0.0398
1239.00,0.0402
1238.00,0.0406
1237.00,0.0410
1236.00,0.0413
1235.00,0.0417
1234.00,0.0420
1233.00,0.0422
1232.00,0.0423
1231.00,0.0423
1230.00,0.0422
1229.00,0.0421
1228.00,0.0420
1227.00,0.0418
1226.00,0.0417
1225.00,0.0416
1224.00,0.0416
1223.00,0.0417
1222.00,0.0418
1221.00,0.0419
1220.00,0.0419
1219.00,0.0419
1218.00,0.0416
1217.00,0.0412
1216.00,0.0404
1215.00,0.0394
1214.00,0.0383
1213.00,0.0370
1212.00,0.0356
1211.00,0.0343
1210.00,0.0331
1209.00,0.0321
1208.00,0.0312
1207.00,0.0306
1206.00,0.0301
1205.00,0.0298
1204.00,0.0297
1203.00,0.0299
1202.00,0.0302
1201.00,0.0308
1200.00,0.0315
1199.00,0.0324
1198.00,0.0332
1197.00,0.0341
1196.00,0.0348
1195.00,0.0353
1194.00,0.0354
1193.00,0.0351
1192.00,0.0344
1191.00,0.0334
1190.00,0.0322
1189.00,0.0309
1188.00,0.0297
1187.00,0.0285
1186.00,0.0275
1185.00,0.0266
1184.00,0.0259
1183.00,0.0253
1182.00,0.0249
1181.00,0.0246
1180.00,0.0244
1179.00,0.0244
1178.00,0.0244
1177.00,0.0245
1176.00,0.0246
1175.00,0.0249
1174.00,0.0251
1173.00,0.0254
1172.00,0.0256
1171.00,0.0258
1170.00,0.0260
1169.00,0.0261
1168.00,0.0261
1167.00,0.0261
1166.00,0.0262
1165.00,0.0264
1164.00,0.0268
1163.00,0.0273
1162.00,0.0281
1161.00,0.0290
1160.00,0.0300
1159.00,0.0309
1158.00,0.0316
1157.00,0.0320
1156.00,0.0321
1155.00,0.0318
1154.00,0.0311
1153.00,0.0302
1152.00,0.0290
1151.00,0.0276
1150.00,0.0262
1149.00,0.0248
1148.00,0.0234
1147.00,0.0222
1146.00,0.0212
1145.00,0.0203
1144.00,0.0196
1143.00,0.0190
1142.00,0.0186
1141.00,0.0183
1140.00,0.0182
1139.00,0.0183
1138.00,0.0186
1137.00,0.0193
1136.00,0.0204
1135.00,0.0219
1134.00,0.0237
1133.00,0.0256
1132.00,0.0275
1131.00,0.0291
1130.00,0.0300
1129.00,0.0302
1128.00,0.0295
1127.00,0.0282
1126.00,0.0265
1125.00,0.0248
1124.00,0.0231
1123.00,0.0218
1122.00,0.0207
1121.00,0.0198
1120.00,0.0192
1119.00,0.0188
1118.00,0.0186
1117.00,0.0184
1116.00,0.0184
1115.00,0.0184
1114.00,0.0184
1113.00,0.0185
1112.00,0.0186
1111.00,0.0187
1110.00,0.0188
1109.00,0.0190
1108.00,0.0193
1107.00,0.0197
1106.00,0.0202
1105.00,0.0208
1104.00,0.0214
1103.00,0.0220
1102.00,0.0225
1101.00,0.0229
1100.00,0.0230
1099.00,0.0229
1098.00,0.0225
1097.00,0.0220
1096.00,0.0214
1095.00,0.0208
1094.00,0.0203
1093.00,0.0197
1092.00,0.0193
1091.00,0.0188
1090.00,0.0185
1089.00,0.0183
1088.00,0.0182
1087.00,0.0181
1086.00,0.0181
1085.00,0.0181
1084.00,0.0182
1083.00,0.0184
1082.00,0.0186
1081.00,0.0188
1080.00,0.0191
1079.00,0.0195
1078.00,0.0201
1077.00,0.0206
1076.00,0.0212
1075.00,0.0219
1074.00,0.0225
1073.00,0.0232
1072.00,0.0240
1071.00,0.0249
1070.00,0.0259
1069.00,0.0272
1068.00,0.0288
1067.00,0.0306
1066.00,0.0327
1065.00,0.0350
1064.00,0.0375
1063.00,0.0402
1062.00,0.0429
1061.00,0.0454
1060.00,0.0475
1059.00,0.0490
1058.00,0.0498
1057.00,0.0497
1056.00,0.0486
1055.00,0.0467
1054.00,0.0442
1053.00,0.0412
1052.00,0.0382
1051.00,0.0353
1050.00,0.0327
1049.00,0.0304
1048.00,0.0286
1047.00,0.0272
1046.00,0.0260
1045.00,0.0251
1044.00,0.0244
1043.00,0.0238
1042.00,0.0234
1041.00,0.0232
1040.00,0.0230
1039.00,0.0229
1038.00,0.0229
1037.00,0.0230
1036.00,0.0232
1035.00,0.0235
1034.00,0.0240
1033.00,0.0246
1032.00,0.0251
1031.00,0.0254
1030.00,0.0256
1029.00,0.0255
1028.00,0.0251
1027.00,0.0246
1026.00,0.0240
1025.00,0.0236
1024.00,0.0232
1023.00,0.0231
1022.00,0.0231
1021.00,0.0232
1020.00,0.0233
1019.00,0.0233
1018.00,0.0232
1017.00,0.0230
1016.00,0.0226
1015.00,0.0222
1014.00,0.0217
1013.00,0.0212
1012.00,0.0207
1011.00,0.0204
1010.00,0.0203
1009.00,0.0205
1008.00,0.0208
1007.00,0.0213
1006.00,0.0220
1005.00,0.0226
1004.00,0.0232
1003.00,0.0235
1002.00,0.0237
1001.00,0.0235
1000.00,0.0232
999.00,0.0228
998.00,0.0224
997.00,0.0220
996.00,0.0215
995.00,0.0211
994.00,0.0208
993.00,0.0204
992.00,0.0200
991.00,0.0196
990.00,0.0192
989.00,0.0187
988.00,0.0183
987.00,0.0179
986.00,0.0175
985.00,0.0172
984.00,0.0169
983.00,0.0167
982.00,0.0165
981.00,0.0164
980.00,0.0164
979.00,0.0163
978.00,0.0163
977.00,0.0163
976.00,0.0161
975.00,0.0160
974.00,0.0159
973.00,0.0157
972.00,0.0155
971.00,0.0153
970.00,0.0151
969.00,0.0149
968.00,0.0147
967.00,0.0145
966.00,0.0143
965.00,0.0142
964.00,0.0140
963.00,0.0138
962.00,0.0136
961.00,0.0134
960.00,0.0131
959.00,0.0129
958.00,0.0126
957.00,0.0124
956.00,0.0123
955.00,0.0121
954.00,0.0120
953.00,0.0120
952.00,0.0120
951.00,0.0120
950.00,0.0120
949.00,0.0121
948.00,0.0123
947.00,0.0124
946.00,0.0126
945.00,0.0129
944.00,0.0131
943.00,0.0134
942.00,0.0137
941.00,0.0142
940.00,0.0148
939.00,0.0155
938.00,0.0162
937.00,0.0169
936.00,0.0175
935.00,0.0181
934.00,0.0185
933.00,0.0187
932.00,0.0187
931.00,0.0186
930.00,0.0184
929.00,0.0182
928.00,0.0181
927.00,0.0180
926.00,0.0180
925.00,0.0179
924.00,0.0178
923.00,0.0176
922.00,0.0174
921.00,0.0172
920.00,0.0170
919.00,0.0167
918.00,0.0165
917.00,0.0162
916.00,0.0159
915.00,0.0157
914.00,0.0155
913.00,0.0153
912.00,0.0152
911.00,0.0152
910.00,0.0153
909.00,0.0155
908.00,0.0157
907.00,0.0159
906.00,0.0162
905.00,0.0166
904.00,0.0171
903.00,0.0177
902.00,0.0183
901.00,0.0189
900.00,0.0194
899.00,0.0199
898.00,0.0201
897.00,0.0203
896.00,0.0203
895.00,0.0202
894.00,0.0199
893.00,0.0195
892.00,0.0190
891.00,0.0186
890.00,0.0183
889.00,0.0181
888.00,0.0179
887.00,0.0178
886.00,0.0178
885.00,0.0179
884.00,0.0180
883.00,0.0183
882.00,0.0186
881.00,0.0190
880.00,0.0195
879.00,0.0201
878.00,0.0208
877.00,0.0215
876.00,0.0222
875.00,0.0229
874.00,0.0236
873.00,0.0242
872.00,0.0247
871.00,0.0251
870.00,0.0254
869.00,0.0255
868.00,0.0256
867.00,0.0256
866.00,0.0256
865.00,0.0257
864.00,0.0258
863.00,0.0259
862.00,0.0261
861.00,0.0262
860.00,0.0264
859.00,0.0266
858.00,0.0269
857.00,0.0273
856.00,0.0276
855.00,0.0281
854.00,0.0286
853.00,0.0292
852.00,0.0297
851.00,0.0303
850.00,0.0307
849.00,0.0312
848.00,0.0316
847.00,0.0319
846.00,0.0322
845.00,0.0324
844.00,0.0325
843.00,0.0326
842.00,0.0326
841.00,0.0326
840.00,0.0325
839.00,0.0324
838.00,0.0323
837.00,0.0323
836.00,0.0323
835.00,0.0323
834.00,0.0324
833.00,0.0324
832.00,0.0324
831.00,0.0325
830.00,0.0325
829.00,0.0326
828.00,0.0326
827.00,0.0325
826.00,0.0325
825.00,0.0324
824.00,0.0324
823.00,0.0325
822.00,0.0325
821.00,0.0326
820.00,0.0327
819.00,0.0328
818.00,0.0329
817.00,0.0329
816.00,0.0329
815.00,0.0328
814.00,0.0326
813.00,0.0323
812.00,0.0317
811.00,0.0308
810.00,0.0297
809.00,0.0285
808.00,0.0272
807.00,0.0259
806.00,0.0248
805.00,0.0237
804.00,0.0228
803.00,0.0221
802.00,0.0216
801.00,0.0213
800.00,0.0211
799.00,0.0209
798.00,0.0208
797.00,0.0208
796.00,0.0208
795.00,0.0209
794.00,0.0209
793.00,0.0210
792.00,0.0211
791.00,0.0212
790.00,0.0213
789.00,0.0213
788.00,0.0213
787.00,0.0213
786.00,0.0213
785.00,0.0214
784.00,0.0215
783.00,0.0216
782.00,0.0217
781.00,0.0220
780.00,0.0223
779.00,0.0226
778.00,0.0229
777.00,0.0232
776.00,0.0233
775.00,0.0232
774.00,0.0230
773.00,0.0228
772.00,0.0227
771.00,0.0227
770.00,0.0228
769.00,0.0230
768.00,0.0232
767.00,0.0234
766.00,0.0237
765.00,0.0240
764.00,0.0243
763.00,0.0247
762.00,0.0251
761.00,0.0254
760.00,0.0258
759.00,0.0263
758.00,0.0268
757.00,0.0273
756.00,0.0279
755.00,0.0284
754.00,0.0288
753.00,0.0293
752.00,0.0297
751.00,0.0302
750.00,0.0307
749.00,0.0312
748.00,0.0317
747.00,0.0322
746.00,0.0328
745.00,0.0334
744.00,0.0340
743.00,0.0348
742.00,0.0356
741.00,0.0365
740.00,0.0375
739.00,0.0385
738.00,0.0394
737.00,0.0401
736.00,0.0403
735.00,0.0403
734.00,0.0399
733.00,0.0392
732.00,0.0385
731.00,0.0376
730.00,0.0368
729.00,0.0359
728.00,0.0351
727.00,0.0344
726.00,0.0337
725.00,0.0331
724.00,0.0325
723.00,0.0319
722.00,0.0314
721.00,0.0310
720.00,0.0307
719.00,0.0304
718.00,0.0303
717.00,0.0302
716.00,0.0301
715.00,0.0301
714.00,0.0301
713.00,0.0301
712.00,0.0301
711.00,0.0300
710.00,0.0299
709.00,0.0297
708.00,0.0296
707.00,0.0295
706.00,0.0294
705.00,0.0295
704.00,0.0296
703.00,0.0298
702.00,0.0298
701.00,0.0299
700.00,0.0301
699.00,0.0304
698.00,0.0308
697.00,0.0314
696.00,0.0322
695.00,0.0329
694.00,0.0336
693.00,0.0342
692.00,0.0348
691.00,0.0353
690.00,0.0356
689.00,0.0358
688.00,0.0360
687.00,0.0361
686.00,0.0361
685.00,0.0361
684.00,0.0360
683.00,0.0359
682.00,0.0359
681.00,0.0360
680.00,0.0361
679.00,0.0362
678.00,0.0364
677.00,0.0368
676.00,0.0372
675.00,0.0377
674.00,0.0383
673.00,0.0388
672.00,0.0393
671.00,0.0397
670.00,0.0403
669.00,0.0411
668.00,0.0423
667.00,0.0433
666.00,0.0438
665.00,0.0441
664.00,0.0446
663.00,0.0453
662.00,0.0461
661.00,0.0469
660.00,0.0479
659.00,0.0488
658.00,0.0497
657.00,0.0506
656.00,0.0515
655.00,0.0524
654.00,0.0533
653.00,0.0541
652.00,0.0548
651.00,0.0554
650.00,0.0559
649.00,0.0563
648.00,0.0564
647.00,0.0562
646.00,0.0560
645.00,0.0556
644.00,0.0551
643.00,0.0544
642.00,0.0537
641.00,0.0530
640.00,0.0523
639.00,0.0516
638.00,0.0508
637.00,0.0501
636.00,0.0494
635.00,0.0487
634.00,0.0481
633.00,0.0476
632.00,0.0472
631.00,0.0469
630.00,0.0467
629.00,0.0465
628.00,0.0464
627.00,0.0463
626.00,0.0462
625.00,0.0461
624.00,0.0460
623.00,0.0459
622.00,0.0457
621.00,0.0456
620.00,0.0454
619.00,0.0450
618.00,0.0447
617.00,0.0444
616.00,0.0442
615.00,0.0442
614.00,0.0443
613.00,0.0444
612.00,0.0447
611.00,0.0450
610.00,0.0453
609.00,0.0454
608.00,0.0455
607.00,0.0456
606.00,0.0457
605.00,0.0459
604.00,0.0461
603.00,0.0463
602.00,0.0466
601.00,0.0469
600.00,0.0472
599.00,0.0473
598.00,0.0473
597.00,0.0473
596.00,0.0473
595.00,0.0473
594.00,0.0474
593.00,0.0475
592.00,0.0478
591.00,0.0482
590.00,0.0488
589.00,0.0496
588.00,0.0507
587.00,0.0520
586.00,0.0536
585.00,0.0552
584.00,0.0568
583.00,0.0582
582.00,0.0592
581.00,0.0599
580.00,0.0605
579.00,0.0609
578.00,0.0612
577.00,0.0613
576.00,0.0613
575.00,0.0612
574.00,0.0610
573.00,0.0609
572.00,0.0608
571.00,0.0607
570.00,0.0607
569.00,0.0606
568.00,0.0606
567.00,0.0604
566.00,0.0601
565.00,0.0596
564.00,0.0590
563.00,0.0583
562.00,0.0576
561.00,0.0571
560.00,0.0568
559.00,0.0566
558.00,0.0564
557.00,0.0561
556.00,0.0557
555.00,0.0552
554.00,0.0546
553.00,0.0541
552.00,0.0537
551.00,0.0534
550.00,0.0532
549.00,0.0529
548.00,0.0526
547.00,0.0522
546.00,0.0518
545.00,0.0513
544.00,0.0509
543.00,0.0506
542.00,0.0503
541.00,0.0502
540.00,0.0501
539.00,0.0500
538.00,0.0500
537.00,0.0502
536.00,0.0507
535.00,0.0513
534.00,0.0519
533.00,0.0524
532.00,0.0527
531.00,0.0528
530.00,0.0526
529.00,0.0524
528.00,0.0521
527.00,0.0519
526.00,0.0516
525.00,0.0512
524.00,0.0506
523.00,0.0500
522.00,0.0495
521.00,0.0491
520.00,0.0488
519.00,0.0486
518.00,0.0484
517.00,0.0483
516.00,0.0483
515.00,0.0484
514.00,0.0484
513.00,0.0484
512.00,0.0485
511.00,0.0486
510.00,0.0486
509.00,0.0486
508.00,0.0486
507.00,0.0486
506.00,0.0485
505.00,0.0483
504.00,0.0479
503.00,0.0476
502.00,0.0475
501.00,0.0476
500.00,0.0477
499.00,0.0477
498.00,0.0477
497.00,0.0478
496.00,0.0479
495.00,0.0480
494.00,0.0480
493.00,0.0481
492.00,0.0483
491.00,0.0485
490.00,0.0486
489.00,0.0487
488.00,0.0486
487.00,0.0485
486.00,0.0485
485.00,0.0487
484.00,0.0491
483.00,0.0493
482.00,0.0493
481.00,0.0492
480.00,0.0491
479.00,0.0490
478.00,0.0490
477.00,0.0491
476.00,0.0494
475.00,0.0496
474.00,0.0497
473.00,0.0496
472.00,0.0493
471.00,0.0491
470.00,0.0490
469.00,0.0489
468.00,0.0487
467.00,0.0486
466.00,0.0485
465.00,0.0484
464.00,0.0482
463.00,0.0480
462.00,0.0478
461.00,0.0477
460.00,0.0476
459.00,0.0477
458.00,0.0477
457.00,0.0477
456.00,0.0476
455.00,0.0474
454.00,0.0472
453.00,0.0469
452.00,0.0468
451.00,0.0468
450.00,0.0469
449.00,0.0469
448.00,0.0468
447.00,0.0467
446.00,0.0465
445.00,0.0462
444.00,0.0457
443.00,0.0451
442.00,0.0448
441.00,0.0446
440.00,0.0444
439.00,0.0443
438.00,0.0443
437.00,0.0443
436.00,0.0444
435.00,0.0444
434.00,0.0444
433.00,0.0444
432.00,0.0443
431.00,0.0440
430.00,0.0435
429.00,0.0430
428.00,0.0428
427.00,0.0429
426.00,0.0433
425.00,0.0438
424.00,0.0440
423.00,0.0438
422.00,0.0436
421.00,0.0437
420.00,0.0442
419.00,0.0450
418.00,0.0453
417.00,0.0449
416.00,0.0443
415.00,0.0438
414.00,0.0437
413.00,0.0440
412.00,0.0446
411.00,0.0453
410.00,0.0459
409.00,0.0462
408.00,0.0461
407.00,0.0457
406.00,0.0453
405.00,0.0450
404.00,0.0447
403.00,0.0440
402.00,0.0426
401.00,0.0408
400.00,0.0394
