Created as New Dataset,Sample 937 By YargerLab Date Monday, July 28 2025
cm-1,A
4000.00,0.0043
3999.00,0.0043
3998.00,0.0043
3997.00,0.0043
3996.00,0.0043
3995.00,0.0043
3994.00,0.0043
3993.00,0.0043
3992.00,0.0043
3991.00,0.0043
3990.00,0.0043
3989.00,0.0043
3988.00,0.0043
3987.00,0.0043
3986.00,0.0043
3985.00,0.0043
3984.00,0.0043
3983.00,0.0043
3982.00,0.0043
3981.00,0.0043
3980.00,0.0043
3979.00,0.0043
3978.00,0.0043
3977.00,0.0042
3976.00,0.0042
3975.00,0.0042
3974.00,0.0042
3973.00,0.0043
3972.00,0.0043
3971.00,0.0043
3970.00,0.0043
3969.00,0.0043
3968.00,0.0043
3967.00,0.0043
3966.00,0.0043
3965.00,0.0043
3964.00,0.0043
3963.00,0.0043
3962.00,0.0043
3961.00,0.0043
3960.00,0.0043
3959.00,0.0043
3958.00,0.0043
3957.00,0.0042
3956.00,0.0042
3955.00,0.0042
3954.00,0.0042
3953.00,0.0042
3952.00,0.0042
3951.00,0.0042
3950.00,0.0042
3949.00,0.0042
3948.00,0.0042
3947.00,0.0042
3946.00,0.0042
3945.00,0.0042
3944.00,0.0043
3943.00,0.0043
3942.00,0.0043
3941.00,0.0043
3940.00,0.0043
3939.00,0.0043
3938.00,0.0043
3937.00,0.0042
3936.00,0.0042
3935.00,0.0042
3934.00,0.0042
3933.00,0.0042
3932.00,0.0042
3931.00,0.0042
3930.00,0.0042
3929.00,0.0042
3928.00,0.0042
3927.00,0.0042
3926.00,0.0042
3925.00,0.0042
3924.00,0.0042
3923.00,0.0042
3922.00,0.0042
3921.00,0.0042
3920.00,0.0042
3919.00,0.0042
3918.00,0.0042
3917.00,0.0042
3916.00,0.0042
3915.00,0.0042
3914.00,0.0042
3913.00,0.0042
3912.00,0.0043
3911.00,0.0043
3910.00,0.0043
3909.00,0.0043
3908.00,0.0043
3907.00,0.0042
3906.00,0.0042
3905.00,0.0042
3904.00,0.0041
3903.00,0.0041
3902.00,0.0041
3901.00,0.0041
3900.00,0.0041
3899.00,0.0041
3898.00,0.0042
3897.00,0.0042
3896.00,0.0042
3895.00,0.0042
3894.00,0.0042
3893.00,0.0042
3892.00,0.0042
3891.00,0.0041
3890.00,0.0041
3889.00,0.0041
3888.00,0.0041
3887.00,0.0041
3886.00,0.0041
3885.00,0.0041
3884.00,0.0041
3883.00,0.0041
3882.00,0.0041
3881.00,0.0041
3880.00,0.0041
3879.00,0.0041
3878.00,0.0041
3877.00,0.0041
3876.00,0.0041
3875.00,0.0042
3874.00,0.0042
3873.00,0.0041
3872.00,0.0041
3871.00,0.0040
3870.00,0.0040
3869.00,0.0040
3868.00,0.0041
3867.00,0.0041
3866.00,0.0041
3865.00,0.0041
3864.00,0.0041
3863.00,0.0041
3862.00,0.0041
3861.00,0.0041
3860.00,0.0041
3859.00,0.0041
3858.00,0.0041
3857.00,0.0041
3856.00,0.0041
3855.00,0.0040
3854.00,0.0040
3853.00,0.0040
3852.00,0.0040
3851.00,0.0040
3850.00,0.0040
3849.00,0.0040
3848.00,0.0041
3847.00,0.0041
3846.00,0.0041
3845.00,0.0041
3844.00,0.0041
3843.00,0.0041
3842.00,0.0041
3841.00,0.0041
3840.00,0.0041
3839.00,0.0041
3838.00,0.0041
3837.00,0.0041
3836.00,0.0041
3835.00,0.0041
3834.00,0.0041
3833.00,0.0041
3832.00,0.0041
3831.00,0.0042
3830.00,0.0042
3829.00,0.0042
3828.00,0.0042
3827.00,0.0042
3826.00,0.0042
3825.00,0.0041
3824.00,0.0041
3823.00,0.0041
3822.00,0.0041
3821.00,0.0041
3820.00,0.0041
3819.00,0.0041
3818.00,0.0040
3817.00,0.0040
3816.00,0.0041
3815.00,0.0041
3814.00,0.0041
3813.00,0.0042
3812.00,0.0042
3811.00,0.0042
3810.00,0.0042
3809.00,0.0041
3808.00,0.0041
3807.00,0.0041
3806.00,0.0040
3805.00,0.0040
3804.00,0.0040
3803.00,0.0040
3802.00,0.0040
3801.00,0.0041
3800.00,0.0041
3799.00,0.0041
3798.00,0.0041
3797.00,0.0041
3796.00,0.0041
3795.00,0.0042
3794.00,0.0042
3793.00,0.0042
3792.00,0.0042
3791.00,0.0042
3790.00,0.0043
3789.00,0.0043
3788.00,0.0043
3787.00,0.0043
3786.00,0.0043
3785.00,0.0043
3784.00,0.0042
3783.00,0.0042
3782.00,0.0042
3781.00,0.0042
3780.00,0.0042
3779.00,0.0042
3778.00,0.0042
3777.00,0.0042
3776.00,0.0042
3775.00,0.0042
3774.00,0.0042
3773.00,0.0042
3772.00,0.0042
3771.00,0.0042
3770.00,0.0042
3769.00,0.0042
3768.00,0.0042
3767.00,0.0042
3766.00,0.0042
3765.00,0.0041
3764.00,0.0041
3763.00,0.0041
3762.00,0.0041
3761.00,0.0041
3760.00,0.0041
3759.00,0.0041
3758.00,0.0041
3757.00,0.0041
3756.00,0.0041
3755.00,0.0041
3754.00,0.0040
3753.00,0.0040
3752.00,0.0040
3751.00,0.0039
3750.00,0.0039
3749.00,0.0039
3748.00,0.0039
3747.00,0.0039
3746.00,0.0039
3745.00,0.0039
3744.00,0.0039
3743.00,0.0040
3742.00,0.0040
3741.00,0.0039
3740.00,0.0039
3739.00,0.0039
3738.00,0.0039
3737.00,0.0039
3736.00,0.0039
3735.00,0.0039
3734.00,0.0039
3733.00,0.0039
3732.00,0.0039
3731.00,0.0039
3730.00,0.0039
3729.00,0.0039
3728.00,0.0040
3727.00,0.0040
3726.00,0.0040
3725.00,0.0041
3724.00,0.0041
3723.00,0.0041
3722.00,0.0041
3721.00,0.0041
3720.00,0.0041
3719.00,0.0041
3718.00,0.0041
3717.00,0.0041
3716.00,0.0040
3715.00,0.0040
3714.00,0.0040
3713.00,0.0040
3712.00,0.0040
3711.00,0.0040
3710.00,0.0040
3709.00,0.0040
3708.00,0.0040
3707.00,0.0040
3706.00,0.0040
3705.00,0.0040
3704.00,0.0040
3703.00,0.0040
3702.00,0.0040
3701.00,0.0040
3700.00,0.0040
3699.00,0.0040
3698.00,0.0040
3697.00,0.0040
3696.00,0.0040
3695.00,0.0040
3694.00,0.0040
3693.00,0.0040
3692.00,0.0040
3691.00,0.0040
3690.00,0.0040
3689.00,0.0041
3688.00,0.0041
3687.00,0.0041
3686.00,0.0041
3685.00,0.0042
3684.00,0.0042
3683.00,0.0043
3682.00,0.0043
3681.00,0.0043
3680.00,0.0043
3679.00,0.0042
3678.00,0.0042
3677.00,0.0041
3676.00,0.0041
3675.00,0.0041
3674.00,0.0041
3673.00,0.0042
3672.00,0.0042
3671.00,0.0042
3670.00,0.0043
3669.00,0.0043
3668.00,0.0044
3667.00,0.0044
3666.00,0.0044
3665.00,0.0044
3664.00,0.0045
3663.00,0.0045
3662.00,0.0045
3661.00,0.0045
3660.00,0.0045
3659.00,0.0045
3658.00,0.0044
3657.00,0.0045
3656.00,0.0045
3655.00,0.0045
3654.00,0.0045
3653.00,0.0045
3652.00,0.0045
3651.00,0.0045
3650.00,0.0045
3649.00,0.0045
3648.00,0.0046
3647.00,0.0046
3646.00,0.0047
3645.00,0.0047
3644.00,0.0048
3643.00,0.0048
3642.00,0.0049
3641.00,0.0049
3640.00,0.0050
3639.00,0.0050
3638.00,0.0050
3637.00,0.0050
3636.00,0.0051
3635.00,0.0051
3634.00,0.0051
3633.00,0.0051
3632.00,0.0051
3631.00,0.0051
3630.00,0.0051
3629.00,0.0052
3628.00,0.0053
3627.00,0.0054
3626.00,0.0054
3625.00,0.0055
3624.00,0.0055
3623.00,0.0055
3622.00,0.0056
3621.00,0.0056
3620.00,0.0057
3619.00,0.0058
3618.00,0.0058
3617.00,0.0058
3616.00,0.0059
3615.00,0.0059
3614.00,0.0060
3613.00,0.0060
3612.00,0.0061
3611.00,0.0062
3610.00,0.0062
3609.00,0.0063
3608.00,0.0064
3607.00,0.0065
3606.00,0.0065
3605.00,0.0066
3604.00,0.0067
3603.00,0.0067
3602.00,0.0068
3601.00,0.0069
3600.00,0.0069
3599.00,0.0070
3598.00,0.0070
3597.00,0.0071
3596.00,0.0071
3595.00,0.0072
3594.00,0.0073
3593.00,0.0074
3592.00,0.0075
3591.00,0.0076
3590.00,0.0076
3589.00,0.0077
3588.00,0.0078
3587.00,0.0080
3586.00,0.0081
3585.00,0.0082
3584.00,0.0082
3583.00,0.0083
3582.00,0.0084
3581.00,0.0085
3580.00,0.0086
3579.00,0.0087
3578.00,0.0088
3577.00,0.0088
3576.00,0.0089
3575.00,0.0090
3574.00,0.0091
3573.00,0.0092
3572.00,0.0093
3571.00,0.0093
3570.00,0.0094
3569.00,0.0095
3568.00,0.0095
3567.00,0.0096
3566.00,0.0097
3565.00,0.0098
3564.00,0.0099
3563.00,0.0100
3562.00,0.0101
3561.00,0.0102
3560.00,0.0103
3559.00,0.0104
3558.00,0.0105
3557.00,0.0106
3556.00,0.0107
3555.00,0.0108
3554.00,0.0108
3553.00,0.0109
3552.00,0.0110
3551.00,0.0110
3550.00,0.0111
3549.00,0.0111
3548.00,0.0112
3547.00,0.0113
3546.00,0.0114
3545.00,0.0115
3544.00,0.0115
3543.00,0.0116
3542.00,0.0116
3541.00,0.0116
3540.00,0.0117
3539.00,0.0118
3538.00,0.0118
3537.00,0.0118
3536.00,0.0119
3535.00,0.0119
3534.00,0.0119
3533.00,0.0120
3532.00,0.0120
3531.00,0.0120
3530.00,0.0121
3529.00,0.0121
3528.00,0.0122
3527.00,0.0122
3526.00,0.0122
3525.00,0.0122
3524.00,0.0122
3523.00,0.0123
3522.00,0.0123
3521.00,0.0123
3520.00,0.0123
3519.00,0.0123
3518.00,0.0124
3517.00,0.0124
3516.00,0.0124
3515.00,0.0124
3514.00,0.0125
3513.00,0.0125
3512.00,0.0125
3511.00,0.0125
3510.00,0.0125
3509.00,0.0125
3508.00,0.0125
3507.00,0.0125
3506.00,0.0125
3505.00,0.0125
3504.00,0.0125
3503.00,0.0125
3502.00,0.0126
3501.00,0.0126
3500.00,0.0126
3499.00,0.0126
3498.00,0.0126
3497.00,0.0126
3496.00,0.0127
3495.00,0.0127
3494.00,0.0127
3493.00,0.0126
3492.00,0.0126
3491.00,0.0126
3490.00,0.0127
3489.00,0.0127
3488.00,0.0127
3487.00,0.0127
3486.00,0.0128
3485.00,0.0128
3484.00,0.0128
3483.00,0.0128
3482.00,0.0128
3481.00,0.0128
3480.00,0.0128
3479.00,0.0127
3478.00,0.0128
3477.00,0.0128
3476.00,0.0128
3475.00,0.0128
3474.00,0.0128
3473.00,0.0128
3472.00,0.0129
3471.00,0.0129
3470.00,0.0129
3469.00,0.0129
3468.00,0.0129
3467.00,0.0129
3466.00,0.0129
3465.00,0.0129
3464.00,0.0129
3463.00,0.0128
3462.00,0.0128
3461.00,0.0128
3460.00,0.0128
3459.00,0.0128
3458.00,0.0128
3457.00,0.0128
3456.00,0.0128
3455.00,0.0128
3454.00,0.0128
3453.00,0.0128
3452.00,0.0128
3451.00,0.0127
3450.00,0.0127
3449.00,0.0127
3448.00,0.0127
3447.00,0.0127
3446.00,0.0127
3445.00,0.0127
3444.00,0.0127
3443.00,0.0127
3442.00,0.0126
3441.00,0.0126
3440.00,0.0126
3439.00,0.0125
3438.00,0.0125
3437.00,0.0125
3436.00,0.0125
3435.00,0.0124
3434.00,0.0124
3433.00,0.0124
3432.00,0.0124
3431.00,0.0123
3430.00,0.0123
3429.00,0.0123
3428.00,0.0123
3427.00,0.0122
3426.00,0.0122
3425.00,0.0121
3424.00,0.0121
3423.00,0.0120
3422.00,0.0120
3421.00,0.0120
3420.00,0.0119
3419.00,0.0119
3418.00,0.0119
3417.00,0.0119
3416.00,0.0118
3415.00,0.0118
3414.00,0.0117
3413.00,0.0117
3412.00,0.0116
3411.00,0.0116
3410.00,0.0116
3409.00,0.0115
3408.00,0.0115
3407.00,0.0115
3406.00,0.0114
3405.00,0.0114
3404.00,0.0113
3403.00,0.0113
3402.00,0.0112
3401.00,0.0111
3400.00,0.0111
3399.00,0.0111
3398.00,0.0111
3397.00,0.0110
3396.00,0.0110
3395.00,0.0110
3394.00,0.0109
3393.00,0.0108
3392.00,0.0108
3391.00,0.0108
3390.00,0.0108
3389.00,0.0108
3388.00,0.0108
3387.00,0.0108
3386.00,0.0107
3385.00,0.0107
3384.00,0.0107
3383.00,0.0106
3382.00,0.0106
3381.00,0.0105
3380.00,0.0105
3379.00,0.0104
3378.00,0.0104
3377.00,0.0104
3376.00,0.0103
3375.00,0.0103
3374.00,0.0103
3373.00,0.0102
3372.00,0.0101
3371.00,0.0100
3370.00,0.0099
3369.00,0.0099
3368.00,0.0099
3367.00,0.0099
3366.00,0.0100
3365.00,0.0100
3364.00,0.0100
3363.00,0.0100
3362.00,0.0100
3361.00,0.0100
3360.00,0.0100
3359.00,0.0101
3358.00,0.0101
3357.00,0.0101
3356.00,0.0100
3355.00,0.0100
3354.00,0.0099
3353.00,0.0099
3352.00,0.0098
3351.00,0.0097
3350.00,0.0097
3349.00,0.0097
3348.00,0.0098
3347.00,0.0098
3346.00,0.0098
3345.00,0.0098
3344.00,0.0097
3343.00,0.0097
3342.00,0.0097
3341.00,0.0096
3340.00,0.0095
3339.00,0.0095
3338.00,0.0095
3337.00,0.0095
3336.00,0.0096
3335.00,0.0097
3334.00,0.0097
3333.00,0.0097
3332.00,0.0097
3331.00,0.0096
3330.00,0.0096
3329.00,0.0095
3328.00,0.0094
3327.00,0.0093
3326.00,0.0092
3325.00,0.0092
3324.00,0.0093
3323.00,0.0093
3322.00,0.0094
3321.00,0.0094
3320.00,0.0094
3319.00,0.0094
3318.00,0.0094
3317.00,0.0093
3316.00,0.0093
3315.00,0.0092
3314.00,0.0092
3313.00,0.0091
3312.00,0.0090
3311.00,0.0088
3310.00,0.0087
3309.00,0.0085
3308.00,0.0084
3307.00,0.0083
3306.00,0.0083
3305.00,0.0084
3304.00,0.0085
3303.00,0.0086
3302.00,0.0087
3301.00,0.0088
3300.00,0.0087
3299.00,0.0087
3298.00,0.0086
3297.00,0.0085
3296.00,0.0084
3295.00,0.0083
3294.00,0.0083
3293.00,0.0082
3292.00,0.0083
3291.00,0.0083
3290.00,0.0084
3289.00,0.0084
3288.00,0.0084
3287.00,0.0084
3286.00,0.0084
3285.00,0.0083
3284.00,0.0083
3283.00,0.0082
3282.00,0.0082
3281.00,0.0082
3280.00,0.0082
3279.00,0.0081
3278.00,0.0080
3277.00,0.0080
3276.00,0.0079
3275.00,0.0078
3274.00,0.0077
3273.00,0.0077
3272.00,0.0076
3271.00,0.0076
3270.00,0.0076
3269.00,0.0076
3268.00,0.0076
3267.00,0.0077
3266.00,0.0076
3265.00,0.0076
3264.00,0.0075
3263.00,0.0075
3262.00,0.0075
3261.00,0.0075
3260.00,0.0075
3259.00,0.0074
3258.00,0.0074
3257.00,0.0074
3256.00,0.0073
3255.00,0.0073
3254.00,0.0072
3253.00,0.0072
3252.00,0.0072
3251.00,0.0071
3250.00,0.0071
3249.00,0.0070
3248.00,0.0070
3247.00,0.0069
3246.00,0.0069
3245.00,0.0069
3244.00,0.0069
3243.00,0.0069
3242.00,0.0069
3241.00,0.0069
3240.00,0.0069
3239.00,0.0069
3238.00,0.0068
3237.00,0.0067
3236.00,0.0067
3235.00,0.0066
3234.00,0.0066
3233.00,0.0065
3232.00,0.0066
3231.00,0.0066
3230.00,0.0066
3229.00,0.0066
3228.00,0.0066
3227.00,0.0065
3226.00,0.0065
3225.00,0.0065
3224.00,0.0065
3223.00,0.0064
3222.00,0.0064
3221.00,0.0064
3220.00,0.0063
3219.00,0.0063
3218.00,0.0062
3217.00,0.0062
3216.00,0.0062
3215.00,0.0062
3214.00,0.0062
3213.00,0.0062
3212.00,0.0062
3211.00,0.0062
3210.00,0.0061
3209.00,0.0061
3208.00,0.0061
3207.00,0.0060
3206.00,0.0060
3205.00,0.0059
3204.00,0.0059
3203.00,0.0059
3202.00,0.0059
3201.00,0.0059
3200.00,0.0059
3199.00,0.0059
3198.00,0.0059
3197.00,0.0059
3196.00,0.0059
3195.00,0.0058
3194.00,0.0058
3193.00,0.0057
3192.00,0.0057
3191.00,0.0057
3190.00,0.0057
3189.00,0.0056
3188.00,0.0056
3187.00,0.0056
3186.00,0.0056
3185.00,0.0056
3184.00,0.0056
3183.00,0.0056
3182.00,0.0056
3181.00,0.0056
3180.00,0.0056
3179.00,0.0056
3178.00,0.0056
3177.00,0.0055
3176.00,0.0055
3175.00,0.0055
3174.00,0.0055
3173.00,0.0055
3172.00,0.0055
3171.00,0.0055
3170.00,0.0055
3169.00,0.0055
3168.00,0.0055
3167.00,0.0054
3166.00,0.0054
3165.00,0.0054
3164.00,0.0054
3163.00,0.0054
3162.00,0.0054
3161.00,0.0054
3160.00,0.0054
3159.00,0.0054
3158.00,0.0054
3157.00,0.0053
3156.00,0.0053
3155.00,0.0053
3154.00,0.0053
3153.00,0.0053
3152.00,0.0053
3151.00,0.0053
3150.00,0.0053
3149.00,0.0053
3148.00,0.0053
3147.00,0.0052
3146.00,0.0052
3145.00,0.0052
3144.00,0.0052
3143.00,0.0052
3142.00,0.0052
3141.00,0.0052
3140.00,0.0052
3139.00,0.0051
3138.00,0.0051
3137.00,0.0051
3136.00,0.0051
3135.00,0.0051
3134.00,0.0051
3133.00,0.0051
3132.00,0.0051
3131.00,0.0051
3130.00,0.0051
3129.00,0.0051
3128.00,0.0051
3127.00,0.0051
3126.00,0.0051
3125.00,0.0051
3124.00,0.0051
3123.00,0.0051
3122.00,0.0051
3121.00,0.0051
3120.00,0.0051
3119.00,0.0051
3118.00,0.0051
3117.00,0.0051
3116.00,0.0051
3115.00,0.0051
3114.00,0.0051
3113.00,0.0051
3112.00,0.0051
3111.00,0.0051
3110.00,0.0050
3109.00,0.0050
3108.00,0.0050
3107.00,0.0050
3106.00,0.0050
3105.00,0.0051
3104.00,0.0051
3103.00,0.0051
3102.00,0.0051
3101.00,0.0051
3100.00,0.0051
3099.00,0.0050
3098.00,0.0050
3097.00,0.0050
3096.00,0.0050
3095.00,0.0050
3094.00,0.0050
3093.00,0.0050
3092.00,0.0050
3091.00,0.0050
3090.00,0.0050
3089.00,0.0050
3088.00,0.0050
3087.00,0.0050
3086.00,0.0050
3085.00,0.0050
3084.00,0.0050
3083.00,0.0050
3082.00,0.0050
3081.00,0.0050
3080.00,0.0050
3079.00,0.0050
3078.00,0.0050
3077.00,0.0050
3076.00,0.0050
3075.00,0.0050
3074.00,0.0050
3073.00,0.0050
3072.00,0.0050
3071.00,0.0050
3070.00,0.0050
3069.00,0.0050
3068.00,0.0050
3067.00,0.0050
3066.00,0.0050
3065.00,0.0050
3064.00,0.0050
3063.00,0.0050
3062.00,0.0050
3061.00,0.0050
3060.00,0.0050
3059.00,0.0050
3058.00,0.0050
3057.00,0.0050
3056.00,0.0050
3055.00,0.0050
3054.00,0.0050
3053.00,0.0050
3052.00,0.0050
3051.00,0.0050
3050.00,0.0050
3049.00,0.0050
3048.00,0.0050
3047.00,0.0049
3046.00,0.0049
3045.00,0.0050
3044.00,0.0050
3043.00,0.0050
3042.00,0.0050
3041.00,0.0050
3040.00,0.0050
3039.00,0.0051
3038.00,0.0051
3037.00,0.0051
3036.00,0.0051
3035.00,0.0051
3034.00,0.0051
3033.00,0.0051
3032.00,0.0051
3031.00,0.0051
3030.00,0.0051
3029.00,0.0052
3028.00,0.0052
3027.00,0.0053
3026.00,0.0053
3025.00,0.0053
3024.00,0.0053
3023.00,0.0054
3022.00,0.0054
3021.00,0.0054
3020.00,0.0055
3019.00,0.0056
3018.00,0.0056
3017.00,0.0057
3016.00,0.0057
3015.00,0.0058
3014.00,0.0059
3013.00,0.0060
3012.00,0.0061
3011.00,0.0062
3010.00,0.0064
3009.00,0.0065
3008.00,0.0067
3007.00,0.0069
3006.00,0.0071
3005.00,0.0073
3004.00,0.0074
3003.00,0.0077
3002.00,0.0079
3001.00,0.0081
3000.00,0.0084
2999.00,0.0086
2998.00,0.0089
2997.00,0.0092
2996.00,0.0094
2995.00,0.0097
2994.00,0.0100
2993.00,0.0103
2992.00,0.0107
2991.00,0.0110
2990.00,0.0114
2989.00,0.0117
2988.00,0.0120
2987.00,0.0124
2986.00,0.0127
2985.00,0.0129
2984.00,0.0132
2983.00,0.0135
2982.00,0.0138
2981.00,0.0140
2980.00,0.0142
2979.00,0.0145
2978.00,0.0147
2977.00,0.0149
2976.00,0.0151
2975.00,0.0153
2974.00,0.0155
2973.00,0.0157
2972.00,0.0158
2971.00,0.0160
2970.00,0.0162
2969.00,0.0163
2968.00,0.0164
2967.00,0.0166
2966.00,0.0167
2965.00,0.0169
2964.00,0.0170
2963.00,0.0172
2962.00,0.0173
2961.00,0.0175
2960.00,0.0177
2959.00,0.0179
2958.00,0.0180
2957.00,0.0182
2956.00,0.0184
2955.00,0.0185
2954.00,0.0186
2953.00,0.0187
2952.00,0.0188
2951.00,0.0189
2950.00,0.0189
2949.00,0.0190
2948.00,0.0189
2947.00,0.0189
2946.00,0.0188
2945.00,0.0187
2944.00,0.0186
2943.00,0.0185
2942.00,0.0183
2941.00,0.0182
2940.00,0.0181
2939.00,0.0180
2938.00,0.0179
2937.00,0.0178
2936.00,0.0177
2935.00,0.0177
2934.00,0.0176
2933.00,0.0176
2932.00,0.0175
2931.00,0.0175
2930.00,0.0176
2929.00,0.0176
2928.00,0.0177
2927.00,0.0178
2926.00,0.0179
2925.00,0.0180
2924.00,0.0181
2923.00,0.0181
2922.00,0.0182
2921.00,0.0182
2920.00,0.0182
2919.00,0.0181
2918.00,0.0181
2917.00,0.0180
2916.00,0.0179
2915.00,0.0178
2914.00,0.0176
2913.00,0.0175
2912.00,0.0173
2911.00,0.0171
2910.00,0.0169
2909.00,0.0168
2908.00,0.0166
2907.00,0.0164
2906.00,0.0162
2905.00,0.0160
2904.00,0.0159
2903.00,0.0159
2902.00,0.0158
2901.00,0.0158
2900.00,0.0158
2899.00,0.0158
2898.00,0.0158
2897.00,0.0159
2896.00,0.0159
2895.00,0.0160
2894.00,0.0160
2893.00,0.0161
2892.00,0.0162
2891.00,0.0162
2890.00,0.0162
2889.00,0.0163
2888.00,0.0163
2887.00,0.0164
2886.00,0.0164
2885.00,0.0164
2884.00,0.0165
2883.00,0.0165
2882.00,0.0165
2881.00,0.0165
2880.00,0.0165
2879.00,0.0164
2878.00,0.0164
2877.00,0.0163
2876.00,0.0162
2875.00,0.0161
2874.00,0.0160
2873.00,0.0159
2872.00,0.0158
2871.00,0.0157
2870.00,0.0156
2869.00,0.0155
2868.00,0.0154
2867.00,0.0153
2866.00,0.0152
2865.00,0.0151
2864.00,0.0149
2863.00,0.0148
2862.00,0.0146
2861.00,0.0144
2860.00,0.0143
2859.00,0.0141
2858.00,0.0140
2857.00,0.0138
2856.00,0.0136
2855.00,0.0135
2854.00,0.0133
2853.00,0.0131
2852.00,0.0129
2851.00,0.0126
2850.00,0.0124
2849.00,0.0121
2848.00,0.0119
2847.00,0.0117
2846.00,0.0116
2845.00,0.0114
2844.00,0.0113
2843.00,0.0111
2842.00,0.0109
2841.00,0.0107
2840.00,0.0105
2839.00,0.0103
2838.00,0.0102
2837.00,0.0100
2836.00,0.0099
2835.00,0.0098
2834.00,0.0096
2833.00,0.0095
2832.00,0.0093
2831.00,0.0091
2830.00,0.0089
2829.00,0.0088
2828.00,0.0086
2827.00,0.0084
2826.00,0.0082
2825.00,0.0081
2824.00,0.0079
2823.00,0.0078
2822.00,0.0076
2821.00,0.0075
2820.00,0.0074
2819.00,0.0073
2818.00,0.0072
2817.00,0.0071
2816.00,0.0070
2815.00,0.0069
2814.00,0.0068
2813.00,0.0067
2812.00,0.0066
2811.00,0.0066
2810.00,0.0065
2809.00,0.0065
2808.00,0.0065
2807.00,0.0064
2806.00,0.0064
2805.00,0.0064
2804.00,0.0063
2803.00,0.0063
2802.00,0.0062
2801.00,0.0062
2800.00,0.0061
2799.00,0.0061
2798.00,0.0061
2797.00,0.0061
2796.00,0.0061
2795.00,0.0061
2794.00,0.0061
2793.00,0.0060
2792.00,0.0060
2791.00,0.0059
2790.00,0.0059
2789.00,0.0059
2788.00,0.0059
2787.00,0.0059
2786.00,0.0059
2785.00,0.0058
2784.00,0.0058
2783.00,0.0058
2782.00,0.0058
2781.00,0.0058
2780.00,0.0058
2779.00,0.0057
2778.00,0.0057
2777.00,0.0057
2776.00,0.0057
2775.00,0.0057
2774.00,0.0057
2773.00,0.0057
2772.00,0.0056
2771.00,0.0056
2770.00,0.0056
2769.00,0.0055
2768.00,0.0055
2767.00,0.0055
2766.00,0.0055
2765.00,0.0055
2764.00,0.0055
2763.00,0.0055
2762.00,0.0055
2761.00,0.0054
2760.00,0.0054
2759.00,0.0054
2758.00,0.0054
2757.00,0.0054
2756.00,0.0054
2755.00,0.0054
2754.00,0.0054
2753.00,0.0054
2752.00,0.0054
2751.00,0.0054
2750.00,0.0054
2749.00,0.0054
2748.00,0.0054
2747.00,0.0054
2746.00,0.0054
2745.00,0.0054
2744.00,0.0054
2743.00,0.0054
2742.00,0.0054
2741.00,0.0054
2740.00,0.0054
2739.00,0.0053
2738.00,0.0053
2737.00,0.0053
2736.00,0.0053
2735.00,0.0053
2734.00,0.0053
2733.00,0.0054
2732.00,0.0054
2731.00,0.0053
2730.00,0.0053
2729.00,0.0053
2728.00,0.0053
2727.00,0.0053
2726.00,0.0052
2725.00,0.0052
2724.00,0.0053
2723.00,0.0053
2722.00,0.0053
2721.00,0.0053
2720.00,0.0053
2719.00,0.0053
2718.00,0.0053
2717.00,0.0053
2716.00,0.0053
2715.00,0.0053
2714.00,0.0052
2713.00,0.0052
2712.00,0.0052
2711.00,0.0052
2710.00,0.0052
2709.00,0.0052
2708.00,0.0051
2707.00,0.0051
2706.00,0.0051
2705.00,0.0051
2704.00,0.0051
2703.00,0.0051
2702.00,0.0051
2701.00,0.0051
2700.00,0.0051
2699.00,0.0051
2698.00,0.0051
2697.00,0.0051
2696.00,0.0050
2695.00,0.0050
2694.00,0.0050
2693.00,0.0050
2692.00,0.0050
2691.00,0.0050
2690.00,0.0050
2689.00,0.0050
2688.00,0.0050
2687.00,0.0050
2686.00,0.0050
2685.00,0.0050
2684.00,0.0050
2683.00,0.0050
2682.00,0.0050
2681.00,0.0050
2680.00,0.0050
2679.00,0.0050
2678.00,0.0050
2677.00,0.0050
2676.00,0.0050
2675.00,0.0050
2674.00,0.0050
2673.00,0.0050
2672.00,0.0050
2671.00,0.0050
2670.00,0.0050
2669.00,0.0050
2668.00,0.0050
2667.00,0.0050
2666.00,0.0051
2665.00,0.0051
2664.00,0.0052
2663.00,0.0052
2662.00,0.0052
2661.00,0.0053
2660.00,0.0053
2659.00,0.0053
2658.00,0.0054
2657.00,0.0054
2656.00,0.0054
2655.00,0.0054
2654.00,0.0054
2653.00,0.0054
2652.00,0.0054
2651.00,0.0054
2650.00,0.0054
2649.00,0.0054
2648.00,0.0054
2647.00,0.0054
2646.00,0.0054
2645.00,0.0054
2644.00,0.0054
2643.00,0.0054
2642.00,0.0054
2641.00,0.0054
2640.00,0.0054
2639.00,0.0054
2638.00,0.0054
2637.00,0.0054
2636.00,0.0054
2635.00,0.0054
2634.00,0.0054
2633.00,0.0054
2632.00,0.0054
2631.00,0.0054
2630.00,0.0054
2629.00,0.0054
2628.00,0.0053
2627.00,0.0053
2626.00,0.0053
2625.00,0.0053
2624.00,0.0053
2623.00,0.0053
2622.00,0.0053
2621.00,0.0052
2620.00,0.0052
2619.00,0.0052
2618.00,0.0052
2617.00,0.0052
2616.00,0.0052
2615.00,0.0052
2614.00,0.0052
2613.00,0.0052
2612.00,0.0052
2611.00,0.0052
2610.00,0.0052
2609.00,0.0052
2608.00,0.0052
2607.00,0.0052
2606.00,0.0052
2605.00,0.0052
2604.00,0.0052
2603.00,0.0051
2602.00,0.0051
2601.00,0.0051
2600.00,0.0051
2599.00,0.0051
2598.00,0.0050
2597.00,0.0050
2596.00,0.0050
2595.00,0.0050
2594.00,0.0050
2593.00,0.0050
2592.00,0.0051
2591.00,0.0051
2590.00,0.0051
2589.00,0.0052
2588.00,0.0051
2587.00,0.0051
2586.00,0.0051
2585.00,0.0052
2584.00,0.0052
2583.00,0.0052
2582.00,0.0052
2581.00,0.0052
2580.00,0.0052
2579.00,0.0052
2578.00,0.0052
2577.00,0.0052
2576.00,0.0052
2575.00,0.0052
2574.00,0.0052
2573.00,0.0051
2572.00,0.0051
2571.00,0.0051
2570.00,0.0052
2569.00,0.0052
2568.00,0.0052
2567.00,0.0052
2566.00,0.0051
2565.00,0.0051
2564.00,0.0051
2563.00,0.0051
2562.00,0.0050
2561.00,0.0050
2560.00,0.0050
2559.00,0.0050
2558.00,0.0050
2557.00,0.0050
2556.00,0.0050
2555.00,0.0050
2554.00,0.0050
2553.00,0.0050
2552.00,0.0050
2551.00,0.0050
2550.00,0.0050
2549.00,0.0050
2548.00,0.0050
2547.00,0.0049
2546.00,0.0049
2545.00,0.0049
2544.00,0.0049
2543.00,0.0049
2542.00,0.0049
2541.00,0.0049
2540.00,0.0049
2539.00,0.0049
2538.00,0.0049
2537.00,0.0048
2536.00,0.0048
2535.00,0.0048
2534.00,0.0048
2533.00,0.0048
2532.00,0.0048
2531.00,0.0048
2530.00,0.0048
2529.00,0.0048
2528.00,0.0047
2527.00,0.0047
2526.00,0.0047
2525.00,0.0047
2524.00,0.0047
2523.00,0.0047
2522.00,0.0046
2521.00,0.0046
2520.00,0.0046
2519.00,0.0046
2518.00,0.0046
2517.00,0.0046
2516.00,0.0047
2515.00,0.0046
2514.00,0.0046
2513.00,0.0046
2512.00,0.0046
2511.00,0.0046
2510.00,0.0046
2509.00,0.0046
2508.00,0.0046
2507.00,0.0046
2506.00,0.0046
2505.00,0.0046
2504.00,0.0046
2503.00,0.0046
2502.00,0.0046
2501.00,0.0046
2500.00,0.0046
2499.00,0.0046
2498.00,0.0046
2497.00,0.0046
2496.00,0.0046
2495.00,0.0046
2494.00,0.0046
2493.00,0.0046
2492.00,0.0046
2491.00,0.0045
2490.00,0.0045
2489.00,0.0045
2488.00,0.0046
2487.00,0.0046
2486.00,0.0045
2485.00,0.0045
2484.00,0.0045
2483.00,0.0046
2482.00,0.0045
2481.00,0.0045
2480.00,0.0045
2479.00,0.0045
2478.00,0.0045
2477.00,0.0045
2476.00,0.0045
2475.00,0.0045
2474.00,0.0045
2473.00,0.0045
2472.00,0.0045
2471.00,0.0045
2470.00,0.0045
2469.00,0.0045
2468.00,0.0045
2467.00,0.0045
2466.00,0.0045
2465.00,0.0045
2464.00,0.0045
2463.00,0.0045
2462.00,0.0045
2461.00,0.0045
2460.00,0.0046
2459.00,0.0046
2458.00,0.0046
2457.00,0.0047
2456.00,0.0047
2455.00,0.0047
2454.00,0.0047
2453.00,0.0046
2452.00,0.0046
2451.00,0.0045
2450.00,0.0045
2449.00,0.0045
2448.00,0.0045
2447.00,0.0045
2446.00,0.0045
2445.00,0.0045
2444.00,0.0045
2443.00,0.0045
2442.00,0.0045
2441.00,0.0045
2440.00,0.0045
2439.00,0.0045
2438.00,0.0045
2437.00,0.0045
2436.00,0.0046
2435.00,0.0046
2434.00,0.0046
2433.00,0.0046
2432.00,0.0045
2431.00,0.0045
2430.00,0.0045
2429.00,0.0045
2428.00,0.0045
2427.00,0.0045
2426.00,0.0045
2425.00,0.0045
2424.00,0.0045
2423.00,0.0045
2422.00,0.0044
2421.00,0.0044
2420.00,0.0044
2419.00,0.0044
2418.00,0.0045
2417.00,0.0045
2416.00,0.0045
2415.00,0.0045
2414.00,0.0045
2413.00,0.0045
2412.00,0.0045
2411.00,0.0045
2410.00,0.0045
2409.00,0.0045
2408.00,0.0044
2407.00,0.0044
2406.00,0.0044
2405.00,0.0044
2404.00,0.0044
2403.00,0.0044
2402.00,0.0044
2401.00,0.0044
2400.00,0.0044
2399.00,0.0044
2398.00,0.0043
2397.00,0.0043
2396.00,0.0043
2395.00,0.0043
2394.00,0.0043
2393.00,0.0043
2392.00,0.0043
2391.00,0.0042
2390.00,0.0042
2389.00,0.0042
2388.00,0.0042
2387.00,0.0042
2386.00,0.0041
2385.00,0.0041
2384.00,0.0040
2383.00,0.0040
2382.00,0.0039
2381.00,0.0039
2380.00,0.0038
2379.00,0.0038
2378.00,0.0038
2377.00,0.0038
2376.00,0.0038
2375.00,0.0038
2374.00,0.0039
2373.00,0.0039
2372.00,0.0038
2371.00,0.0038
2370.00,0.0037
2369.00,0.0037
2368.00,0.0037
2367.00,0.0036
2366.00,0.0036
2365.00,0.0037
2364.00,0.0037
2363.00,0.0037
2362.00,0.0038
2361.00,0.0038
2360.00,0.0038
2359.00,0.0038
2358.00,0.0039
2357.00,0.0039
2356.00,0.0039
2355.00,0.0039
2354.00,0.0039
2353.00,0.0039
2352.00,0.0039
2351.00,0.0039
2350.00,0.0039
2349.00,0.0040
2348.00,0.0040
2347.00,0.0041
2346.00,0.0041
2345.00,0.0042
2344.00,0.0042
2343.00,0.0042
2342.00,0.0042
2341.00,0.0042
2340.00,0.0043
2339.00,0.0043
2338.00,0.0043
2337.00,0.0043
2336.00,0.0043
2335.00,0.0043
2334.00,0.0043
2333.00,0.0043
2332.00,0.0043
2331.00,0.0043
2330.00,0.0043
2329.00,0.0045
2328.00,0.0048
2327.00,0.0052
2326.00,0.0055
2325.00,0.0056
2324.00,0.0055
2323.00,0.0053
2322.00,0.0051
2321.00,0.0050
2320.00,0.0049
2319.00,0.0049
2318.00,0.0048
2317.00,0.0048
2316.00,0.0048
2315.00,0.0048
2314.00,0.0047
2313.00,0.0047
2312.00,0.0046
2311.00,0.0046
2310.00,0.0045
2309.00,0.0045
2308.00,0.0045
2307.00,0.0045
2306.00,0.0045
2305.00,0.0046
2304.00,0.0046
2303.00,0.0046
2302.00,0.0046
2301.00,0.0047
2300.00,0.0047
2299.00,0.0048
2298.00,0.0048
2297.00,0.0049
2296.00,0.0049
2295.00,0.0050
2294.00,0.0051
2293.00,0.0051
2292.00,0.0052
2291.00,0.0053
2290.00,0.0053
2289.00,0.0054
2288.00,0.0055
2287.00,0.0055
2286.00,0.0055
2285.00,0.0055
2284.00,0.0054
2283.00,0.0053
2282.00,0.0052
2281.00,0.0052
2280.00,0.0052
2279.00,0.0051
2278.00,0.0051
2277.00,0.0051
2276.00,0.0051
2275.00,0.0051
2274.00,0.0051
2273.00,0.0051
2272.00,0.0051
2271.00,0.0051
2270.00,0.0050
2269.00,0.0049
2268.00,0.0048
2267.00,0.0047
2266.00,0.0047
2265.00,0.0047
2264.00,0.0048
2263.00,0.0048
2262.00,0.0048
2261.00,0.0048
2260.00,0.0049
2259.00,0.0049
2258.00,0.0048
2257.00,0.0048
2256.00,0.0047
2255.00,0.0046
2254.00,0.0045
2253.00,0.0046
2252.00,0.0047
2251.00,0.0047
2250.00,0.0047
2249.00,0.0047
2248.00,0.0047
2247.00,0.0047
2246.00,0.0047
2245.00,0.0047
2244.00,0.0047
2243.00,0.0047
2242.00,0.0046
2241.00,0.0045
2240.00,0.0045
2239.00,0.0046
2238.00,0.0046
2237.00,0.0047
2236.00,0.0047
2235.00,0.0047
2234.00,0.0047
2233.00,0.0047
2232.00,0.0046
2231.00,0.0046
2230.00,0.0045
2229.00,0.0045
2228.00,0.0046
2227.00,0.0046
2226.00,0.0047
2225.00,0.0047
2224.00,0.0047
2223.00,0.0047
2222.00,0.0047
2221.00,0.0047
2220.00,0.0047
2219.00,0.0048
2218.00,0.0048
2217.00,0.0048
2216.00,0.0047
2215.00,0.0046
2214.00,0.0045
2213.00,0.0045
2212.00,0.0046
2211.00,0.0046
2210.00,0.0046
2209.00,0.0047
2208.00,0.0047
2207.00,0.0047
2206.00,0.0046
2205.00,0.0046
2204.00,0.0046
2203.00,0.0046
2202.00,0.0045
2201.00,0.0045
2200.00,0.0045
2199.00,0.0045
2198.00,0.0045
2197.00,0.0046
2196.00,0.0046
2195.00,0.0047
2194.00,0.0048
2193.00,0.0048
2192.00,0.0048
2191.00,0.0048
2190.00,0.0048
2189.00,0.0048
2188.00,0.0049
2187.00,0.0050
2186.00,0.0050
2185.00,0.0049
2184.00,0.0047
2183.00,0.0045
2182.00,0.0044
2181.00,0.0043
2180.00,0.0044
2179.00,0.0044
2178.00,0.0042
2177.00,0.0040
2176.00,0.0039
2175.00,0.0039
2174.00,0.0040
2173.00,0.0042
2172.00,0.0045
2171.00,0.0048
2170.00,0.0050
2169.00,0.0052
2168.00,0.0055
2167.00,0.0056
2166.00,0.0057
2165.00,0.0058
2164.00,0.0060
2163.00,0.0059
2162.00,0.0053
2161.00,0.0043
2160.00,0.0030
2159.00,0.0020
2158.00,0.0014
2157.00,0.0013
2156.00,0.0016
2155.00,0.0019
2154.00,0.0021
2153.00,0.0022
2152.00,0.0024
2151.00,0.0025
2150.00,0.0026
2149.00,0.0027
2148.00,0.0028
2147.00,0.0029
2146.00,0.0029
2145.00,0.0029
2144.00,0.0029
2143.00,0.0029
2142.00,0.0029
2141.00,0.0030
2140.00,0.0030
2139.00,0.0030
2138.00,0.0029
2137.00,0.0028
2136.00,0.0026
2135.00,0.0025
2134.00,0.0024
2133.00,0.0025
2132.00,0.0026
2131.00,0.0028
2130.00,0.0030
2129.00,0.0032
2128.00,0.0033
2127.00,0.0035
2126.00,0.0036
2125.00,0.0037
2124.00,0.0039
2123.00,0.0040
2122.00,0.0041
2121.00,0.0042
2120.00,0.0042
2119.00,0.0043
2118.00,0.0043
2117.00,0.0043
2116.00,0.0044
2115.00,0.0044
2114.00,0.0044
2113.00,0.0044
2112.00,0.0045
2111.00,0.0045
2110.00,0.0045
2109.00,0.0045
2108.00,0.0045
2107.00,0.0045
2106.00,0.0045
2105.00,0.0045
2104.00,0.0044
2103.00,0.0044
2102.00,0.0044
2101.00,0.0044
2100.00,0.0044
2099.00,0.0044
2098.00,0.0042
2097.00,0.0040
2096.00,0.0039
2095.00,0.0037
2094.00,0.0037
2093.00,0.0038
2092.00,0.0039
2091.00,0.0039
2090.00,0.0040
2089.00,0.0040
2088.00,0.0041
2087.00,0.0042
2086.00,0.0043
2085.00,0.0044
2084.00,0.0045
2083.00,0.0045
2082.00,0.0044
2081.00,0.0044
2080.00,0.0044
2079.00,0.0044
2078.00,0.0044
2077.00,0.0044
2076.00,0.0045
2075.00,0.0045
2074.00,0.0045
2073.00,0.0045
2072.00,0.0045
2071.00,0.0045
2070.00,0.0044
2069.00,0.0043
2068.00,0.0043
2067.00,0.0042
2066.00,0.0042
2065.00,0.0042
2064.00,0.0041
2063.00,0.0041
2062.00,0.0040
2061.00,0.0040
2060.00,0.0040
2059.00,0.0040
2058.00,0.0041
2057.00,0.0041
2056.00,0.0042
2055.00,0.0043
2054.00,0.0045
2053.00,0.0048
2052.00,0.0051
2051.00,0.0050
2050.00,0.0047
2049.00,0.0044
2048.00,0.0042
2047.00,0.0042
2046.00,0.0042
2045.00,0.0042
2044.00,0.0042
2043.00,0.0042
2042.00,0.0042
2041.00,0.0043
2040.00,0.0044
2039.00,0.0045
2038.00,0.0044
2037.00,0.0043
2036.00,0.0041
2035.00,0.0039
2034.00,0.0037
2033.00,0.0036
2032.00,0.0037
2031.00,0.0037
2030.00,0.0036
2029.00,0.0036
2028.00,0.0036
2027.00,0.0036
2026.00,0.0035
2025.00,0.0036
2024.00,0.0037
2023.00,0.0038
2022.00,0.0037
2021.00,0.0037
2020.00,0.0036
2019.00,0.0036
2018.00,0.0036
2017.00,0.0036
2016.00,0.0036
2015.00,0.0037
2014.00,0.0037
2013.00,0.0037
2012.00,0.0037
2011.00,0.0038
2010.00,0.0037
2009.00,0.0036
2008.00,0.0034
2007.00,0.0031
2006.00,0.0030
2005.00,0.0029
2004.00,0.0030
2003.00,0.0031
2002.00,0.0032
2001.00,0.0032
2000.00,0.0033
1999.00,0.0034
1998.00,0.0035
1997.00,0.0036
1996.00,0.0037
1995.00,0.0038
1994.00,0.0039
1993.00,0.0039
1992.00,0.0038
1991.00,0.0038
1990.00,0.0038
1989.00,0.0038
1988.00,0.0039
1987.00,0.0040
1986.00,0.0040
1985.00,0.0041
1984.00,0.0044
1983.00,0.0047
1982.00,0.0049
1981.00,0.0050
1980.00,0.0047
1979.00,0.0041
1978.00,0.0035
1977.00,0.0031
1976.00,0.0030
1975.00,0.0029
1974.00,0.0028
1973.00,0.0028
1972.00,0.0028
1971.00,0.0027
1970.00,0.0026
1969.00,0.0027
1968.00,0.0028
1967.00,0.0029
1966.00,0.0029
1965.00,0.0030
1964.00,0.0030
1963.00,0.0029
1962.00,0.0028
1961.00,0.0026
1960.00,0.0025
1959.00,0.0024
1958.00,0.0024
1957.00,0.0025
1956.00,0.0026
1955.00,0.0027
1954.00,0.0027
1953.00,0.0027
1952.00,0.0028
1951.00,0.0028
1950.00,0.0028
1949.00,0.0028
1948.00,0.0029
1947.00,0.0029
1946.00,0.0029
1945.00,0.0030
1944.00,0.0031
1943.00,0.0031
1942.00,0.0031
1941.00,0.0031
1940.00,0.0031
1939.00,0.0032
1938.00,0.0031
1937.00,0.0031
1936.00,0.0030
1935.00,0.0030
1934.00,0.0030
1933.00,0.0030
1932.00,0.0030
1931.00,0.0030
1930.00,0.0029
1929.00,0.0029
1928.00,0.0030
1927.00,0.0030
1926.00,0.0031
1925.00,0.0031
1924.00,0.0032
1923.00,0.0032
1922.00,0.0032
1921.00,0.0033
1920.00,0.0033
1919.00,0.0034
1918.00,0.0034
1917.00,0.0034
1916.00,0.0034
1915.00,0.0033
1914.00,0.0033
1913.00,0.0033
1912.00,0.0033
1911.00,0.0033
1910.00,0.0033
1909.00,0.0033
1908.00,0.0033
1907.00,0.0033
1906.00,0.0032
1905.00,0.0032
1904.00,0.0032
1903.00,0.0032
1902.00,0.0032
1901.00,0.0032
1900.00,0.0032
1899.00,0.0033
1898.00,0.0032
1897.00,0.0032
1896.00,0.0032
1895.00,0.0032
1894.00,0.0032
1893.00,0.0032
1892.00,0.0032
1891.00,0.0032
1890.00,0.0032
1889.00,0.0032
1888.00,0.0032
1887.00,0.0032
1886.00,0.0031
1885.00,0.0031
1884.00,0.0031
1883.00,0.0031
1882.00,0.0031
1881.00,0.0031
1880.00,0.0032
1879.00,0.0032
1878.00,0.0032
1877.00,0.0032
1876.00,0.0032
1875.00,0.0032
1874.00,0.0032
1873.00,0.0032
1872.00,0.0032
1871.00,0.0032
1870.00,0.0032
1869.00,0.0032
1868.00,0.0032
1867.00,0.0032
1866.00,0.0032
1865.00,0.0032
1864.00,0.0033
1863.00,0.0033
1862.00,0.0033
1861.00,0.0033
1860.00,0.0033
1859.00,0.0032
1858.00,0.0032
1857.00,0.0032
1856.00,0.0032
1855.00,0.0032
1854.00,0.0032
1853.00,0.0032
1852.00,0.0032
1851.00,0.0032
1850.00,0.0032
1849.00,0.0032
1848.00,0.0033
1847.00,0.0033
1846.00,0.0033
1845.00,0.0032
1844.00,0.0032
1843.00,0.0031
1842.00,0.0031
1841.00,0.0031
1840.00,0.0032
1839.00,0.0032
1838.00,0.0032
1837.00,0.0032
1836.00,0.0032
1835.00,0.0032
1834.00,0.0032
1833.00,0.0032
1832.00,0.0032
1831.00,0.0032
1830.00,0.0032
1829.00,0.0033
1828.00,0.0033
1827.00,0.0033
1826.00,0.0032
1825.00,0.0032
1824.00,0.0032
1823.00,0.0032
1822.00,0.0032
1821.00,0.0031
1820.00,0.0030
1819.00,0.0030
1818.00,0.0028
1817.00,0.0028
1816.00,0.0028
1815.00,0.0029
1814.00,0.0030
1813.00,0.0030
1812.00,0.0031
1811.00,0.0031
1810.00,0.0031
1809.00,0.0031
1808.00,0.0031
1807.00,0.0031
1806.00,0.0031
1805.00,0.0031
1804.00,0.0032
1803.00,0.0032
1802.00,0.0032
1801.00,0.0032
1800.00,0.0032
1799.00,0.0032
1798.00,0.0032
1797.00,0.0032
1796.00,0.0032
1795.00,0.0032
1794.00,0.0032
1793.00,0.0031
1792.00,0.0032
1791.00,0.0032
1790.00,0.0032
1789.00,0.0032
1788.00,0.0032
1787.00,0.0032
1786.00,0.0032
1785.00,0.0033
1784.00,0.0033
1783.00,0.0034
1782.00,0.0034
1781.00,0.0034
1780.00,0.0034
1779.00,0.0034
1778.00,0.0033
1777.00,0.0033
1776.00,0.0034
1775.00,0.0034
1774.00,0.0034
1773.00,0.0034
1772.00,0.0035
1771.00,0.0035
1770.00,0.0035
1769.00,0.0035
1768.00,0.0036
1767.00,0.0036
1766.00,0.0036
1765.00,0.0036
1764.00,0.0036
1763.00,0.0036
1762.00,0.0036
1761.00,0.0036
1760.00,0.0037
1759.00,0.0037
1758.00,0.0037
1757.00,0.0037
1756.00,0.0037
1755.00,0.0037
1754.00,0.0038
1753.00,0.0038
1752.00,0.0038
1751.00,0.0039
1750.00,0.0039
1749.00,0.0039
1748.00,0.0040
1747.00,0.0041
1746.00,0.0041
1745.00,0.0041
1744.00,0.0041
1743.00,0.0042
1742.00,0.0042
1741.00,0.0042
1740.00,0.0043
1739.00,0.0043
1738.00,0.0043
1737.00,0.0044
1736.00,0.0045
1735.00,0.0046
1734.00,0.0047
1733.00,0.0048
1732.00,0.0049
1731.00,0.0050
1730.00,0.0050
1729.00,0.0051
1728.00,0.0053
1727.00,0.0054
1726.00,0.0055
1725.00,0.0057
1724.00,0.0059
1723.00,0.0060
1722.00,0.0062
1721.00,0.0064
1720.00,0.0067
1719.00,0.0070
1718.00,0.0074
1717.00,0.0078
1716.00,0.0082
1715.00,0.0087
1714.00,0.0091
1713.00,0.0096
1712.00,0.0102
1711.00,0.0109
1710.00,0.0116
1709.00,0.0124
1708.00,0.0134
1707.00,0.0146
1706.00,0.0159
1705.00,0.0174
1704.00,0.0190
1703.00,0.0204
1702.00,0.0219
1701.00,0.0243
1700.00,0.0274
1699.00,0.0302
1698.00,0.0326
1697.00,0.0351
1696.00,0.0385
1695.00,0.0422
1694.00,0.0455
1693.00,0.0484
1692.00,0.0513
1691.00,0.0546
1690.00,0.0581
1689.00,0.0617
1688.00,0.0650
1687.00,0.0679
1686.00,0.0710
1685.00,0.0751
1684.00,0.0800
1683.00,0.0843
1682.00,0.0875
1681.00,0.0902
1680.00,0.0930
1679.00,0.0956
1678.00,0.0981
1677.00,0.1004
1676.00,0.1031
1675.00,0.1060
1674.00,0.1083
1673.00,0.1101
1672.00,0.1116
1671.00,0.1131
1670.00,0.1146
1669.00,0.1161
1668.00,0.1174
1667.00,0.1181
1666.00,0.1185
1665.00,0.1188
1664.00,0.1192
1663.00,0.1197
1662.00,0.1199
1661.00,0.1200
1660.00,0.1198
1659.00,0.1195
1658.00,0.1189
1657.00,0.1182
1656.00,0.1173
1655.00,0.1162
1654.00,0.1149
1653.00,0.1134
1652.00,0.1116
1651.00,0.1097
1650.00,0.1075
1649.00,0.1050
1648.00,0.1021
1647.00,0.0988
1646.00,0.0953
1645.00,0.0919
1644.00,0.0887
1643.00,0.0855
1642.00,0.0823
1641.00,0.0790
1640.00,0.0759
1639.00,0.0729
1638.00,0.0701
1637.00,0.0672
1636.00,0.0642
1635.00,0.0614
1634.00,0.0590
1633.00,0.0568
1632.00,0.0547
1631.00,0.0527
1630.00,0.0507
1629.00,0.0488
1628.00,0.0469
1627.00,0.0452
1626.00,0.0437
1625.00,0.0421
1624.00,0.0405
1623.00,0.0390
1622.00,0.0377
1621.00,0.0364
1620.00,0.0352
1619.00,0.0340
1618.00,0.0328
1617.00,0.0316
1616.00,0.0305
1615.00,0.0296
1614.00,0.0287
1613.00,0.0277
1612.00,0.0268
1611.00,0.0259
1610.00,0.0251
1609.00,0.0243
1608.00,0.0236
1607.00,0.0228
1606.00,0.0222
1605.00,0.0215
1604.00,0.0210
1603.00,0.0204
1602.00,0.0198
1601.00,0.0193
1600.00,0.0188
1599.00,0.0183
1598.00,0.0179
1597.00,0.0175
1596.00,0.0171
1595.00,0.0167
1594.00,0.0163
1593.00,0.0159
1592.00,0.0156
1591.00,0.0152
1590.00,0.0149
1589.00,0.0146
1588.00,0.0143
1587.00,0.0140
1586.00,0.0138
1585.00,0.0135
1584.00,0.0133
1583.00,0.0130
1582.00,0.0128
1581.00,0.0126
1580.00,0.0124
1579.00,0.0122
1578.00,0.0121
1577.00,0.0119
1576.00,0.0117
1575.00,0.0116
1574.00,0.0114
1573.00,0.0113
1572.00,0.0112
1571.00,0.0110
1570.00,0.0109
1569.00,0.0107
1568.00,0.0106
1567.00,0.0105
1566.00,0.0104
1565.00,0.0104
1564.00,0.0103
1563.00,0.0102
1562.00,0.0102
1561.00,0.0100
1560.00,0.0099
1559.00,0.0098
1558.00,0.0097
1557.00,0.0097
1556.00,0.0097
1555.00,0.0096
1554.00,0.0095
1553.00,0.0094
1552.00,0.0094
1551.00,0.0093
1550.00,0.0092
1549.00,0.0092
1548.00,0.0091
1547.00,0.0091
1546.00,0.0090
1545.00,0.0090
1544.00,0.0090
1543.00,0.0089
1542.00,0.0089
1541.00,0.0089
1540.00,0.0088
1539.00,0.0088
1538.00,0.0088
1537.00,0.0087
1536.00,0.0087
1535.00,0.0086
1534.00,0.0086
1533.00,0.0086
1532.00,0.0086
1531.00,0.0085
1530.00,0.0085
1529.00,0.0085
1528.00,0.0085
1527.00,0.0085
1526.00,0.0085
1525.00,0.0085
1524.00,0.0085
1523.00,0.0085
1522.00,0.0085
1521.00,0.0086
1520.00,0.0086
1519.00,0.0086
1518.00,0.0087
1517.00,0.0087
1516.00,0.0088
1515.00,0.0089
1514.00,0.0090
1513.00,0.0092
1512.00,0.0094
1511.00,0.0097
1510.00,0.0100
1509.00,0.0103
1508.00,0.0108
1507.00,0.0116
1506.00,0.0125
1505.00,0.0133
1504.00,0.0142
1503.00,0.0150
1502.00,0.0160
1501.00,0.0171
1500.00,0.0183
1499.00,0.0195
1498.00,0.0208
1497.00,0.0220
1496.00,0.0230
1495.00,0.0238
1494.00,0.0242
1493.00,0.0245
1492.00,0.0244
1491.00,0.0241
1490.00,0.0235
1489.00,0.0227
1488.00,0.0216
1487.00,0.0205
1486.00,0.0193
1485.00,0.0182
1484.00,0.0172
1483.00,0.0163
1482.00,0.0155
1481.00,0.0149
1480.00,0.0145
1479.00,0.0142
1478.00,0.0142
1477.00,0.0143
1476.00,0.0147
1475.00,0.0152
1474.00,0.0160
1473.00,0.0173
1472.00,0.0190
1471.00,0.0208
1470.00,0.0227
1469.00,0.0247
1468.00,0.0269
1467.00,0.0294
1466.00,0.0323
1465.00,0.0354
1464.00,0.0384
1463.00,0.0406
1462.00,0.0422
1461.00,0.0431
1460.00,0.0435
1459.00,0.0432
1458.00,0.0422
1457.00,0.0404
1456.00,0.0384
1455.00,0.0365
1454.00,0.0349
1453.00,0.0335
1452.00,0.0324
1451.00,0.0316
1450.00,0.0312
1449.00,0.0313
1448.00,0.0317
1447.00,0.0325
1446.00,0.0337
1445.00,0.0351
1444.00,0.0368
1443.00,0.0388
1442.00,0.0409
1441.00,0.0432
1440.00,0.0454
1439.00,0.0475
1438.00,0.0498
1437.00,0.0523
1436.00,0.0549
1435.00,0.0568
1434.00,0.0582
1433.00,0.0593
1432.00,0.0604
1431.00,0.0616
1430.00,0.0629
1429.00,0.0646
1428.00,0.0664
1427.00,0.0684
1426.00,0.0707
1425.00,0.0731
1424.00,0.0755
1423.00,0.0774
1422.00,0.0785
1421.00,0.0788
1420.00,0.0783
1419.00,0.0766
1418.00,0.0739
1417.00,0.0705
1416.00,0.0667
1415.00,0.0624
1414.00,0.0579
1413.00,0.0535
1412.00,0.0492
1411.00,0.0450
1410.00,0.0413
1409.00,0.0380
1408.00,0.0351
1407.00,0.0326
1406.00,0.0303
1405.00,0.0283
1404.00,0.0265
1403.00,0.0250
1402.00,0.0238
1401.00,0.0228
1400.00,0.0218
1399.00,0.0210
1398.00,0.0204
1397.00,0.0199
1396.00,0.0195
1395.00,0.0191
1394.00,0.0190
1393.00,0.0189
1392.00,0.0189
1391.00,0.0190
1390.00,0.0192
1389.00,0.0195
1388.00,0.0199
1387.00,0.0204
1386.00,0.0210
1385.00,0.0216
1384.00,0.0223
1383.00,0.0229
1382.00,0.0237
1381.00,0.0246
1380.00,0.0254
1379.00,0.0262
1378.00,0.0270
1377.00,0.0277
1376.00,0.0282
1375.00,0.0287
1374.00,0.0290
1373.00,0.0292
1372.00,0.0291
1371.00,0.0290
1370.00,0.0287
1369.00,0.0284
1368.00,0.0279
1367.00,0.0273
1366.00,0.0266
1365.00,0.0259
1364.00,0.0250
1363.00,0.0241
1362.00,0.0231
1361.00,0.0222
1360.00,0.0213
1359.00,0.0205
1358.00,0.0198
1357.00,0.0191
1356.00,0.0185
1355.00,0.0180
1354.00,0.0175
1353.00,0.0171
1352.00,0.0167
1351.00,0.0163
1350.00,0.0160
1349.00,0.0157
1348.00,0.0155
1347.00,0.0152
1346.00,0.0150
1345.00,0.0149
1344.00,0.0148
1343.00,0.0147
1342.00,0.0147
1341.00,0.0147
1340.00,0.0148
1339.00,0.0148
1338.00,0.0150
1337.00,0.0151
1336.00,0.0153
1335.00,0.0155
1334.00,0.0158
1333.00,0.0161
1332.00,0.0164
1331.00,0.0169
1330.00,0.0174
1329.00,0.0180
1328.00,0.0187
1327.00,0.0195
1326.00,0.0204
1325.00,0.0213
1324.00,0.0224
1323.00,0.0235
1322.00,0.0246
1321.00,0.0257
1320.00,0.0267
1319.00,0.0277
1318.00,0.0284
1317.00,0.0290
1316.00,0.0294
1315.00,0.0295
1314.00,0.0294
1313.00,0.0291
1312.00,0.0286
1311.00,0.0281
1310.00,0.0275
1309.00,0.0270
1308.00,0.0265
1307.00,0.0262
1306.00,0.0261
1305.00,0.0262
1304.00,0.0266
1303.00,0.0272
1302.00,0.0281
1301.00,0.0293
1300.00,0.0310
1299.00,0.0330
1298.00,0.0355
1297.00,0.0385
1296.00,0.0420
1295.00,0.0459
1294.00,0.0502
1293.00,0.0548
1292.00,0.0595
1291.00,0.0641
1290.00,0.0686
1289.00,0.0726
1288.00,0.0762
1287.00,0.0790
1286.00,0.0811
1285.00,0.0822
1284.00,0.0826
1283.00,0.0822
1282.00,0.0812
1281.00,0.0800
1280.00,0.0786
1279.00,0.0774
1278.00,0.0766
1277.00,0.0763
1276.00,0.0764
1275.00,0.0769
1274.00,0.0777
1273.00,0.0787
1272.00,0.0795
1271.00,0.0801
1270.00,0.0803
1269.00,0.0801
1268.00,0.0794
1267.00,0.0781
1266.00,0.0765
1265.00,0.0744
1264.00,0.0721
1263.00,0.0695
1262.00,0.0668
1261.00,0.0640
1260.00,0.0613
1259.00,0.0586
1258.00,0.0561
1257.00,0.0537
1256.00,0.0514
1255.00,0.0494
1254.00,0.0475
1253.00,0.0458
1252.00,0.0443
1251.00,0.0429
1250.00,0.0417
1249.00,0.0407
1248.00,0.0398
1247.00,0.0390
1246.00,0.0384
1245.00,0.0379
1244.00,0.0376
1243.00,0.0373
1242.00,0.0372
1241.00,0.0372
1240.00,0.0373
1239.00,0.0375
1238.00,0.0378
1237.00,0.0381
1236.00,0.0385
1235.00,0.0389
1234.00,0.0394
1233.00,0.0399
1232.00,0.0403
1231.00,0.0406
1230.00,0.0409
1229.00,0.0410
1228.00,0.0411
1227.00,0.0410
1226.00,0.0409
1225.00,0.0407
1224.00,0.0404
1223.00,0.0401
1222.00,0.0397
1221.00,0.0392
1220.00,0.0387
1219.00,0.0382
1218.00,0.0376
1217.00,0.0369
1216.00,0.0363
1215.00,0.0355
1214.00,0.0348
1213.00,0.0341
1212.00,0.0334
1211.00,0.0327
1210.00,0.0320
1209.00,0.0314
1208.00,0.0308
1207.00,0.0302
1206.00,0.0296
1205.00,0.0291
1204.00,0.0286
1203.00,0.0282
1202.00,0.0277
1201.00,0.0273
1200.00,0.0269
1199.00,0.0266
1198.00,0.0262
1197.00,0.0259
1196.00,0.0256
1195.00,0.0253
1194.00,0.0250
1193.00,0.0247
1192.00,0.0245
1191.00,0.0242
1190.00,0.0240
1189.00,0.0239
1188.00,0.0237
1187.00,0.0236
1186.00,0.0236
1185.00,0.0235
1184.00,0.0235
1183.00,0.0235
1182.00,0.0235
1181.00,0.0236
1180.00,0.0237
1179.00,0.0238
1178.00,0.0240
1177.00,0.0243
1176.00,0.0246
1175.00,0.0250
1174.00,0.0254
1173.00,0.0258
1172.00,0.0261
1171.00,0.0265
1170.00,0.0268
1169.00,0.0270
1168.00,0.0271
1167.00,0.0271
1166.00,0.0270
1165.00,0.0268
1164.00,0.0265
1163.00,0.0261
1162.00,0.0256
1161.00,0.0252
1160.00,0.0247
1159.00,0.0241
1158.00,0.0236
1157.00,0.0231
1156.00,0.0225
1155.00,0.0220
1154.00,0.0215
1153.00,0.0211
1152.00,0.0206
1151.00,0.0202
1150.00,0.0198
1149.00,0.0194
1148.00,0.0190
1147.00,0.0186
1146.00,0.0182
1145.00,0.0178
1144.00,0.0174
1143.00,0.0171
1142.00,0.0167
1141.00,0.0164
1140.00,0.0160
1139.00,0.0156
1138.00,0.0154
1137.00,0.0151
1136.00,0.0150
1135.00,0.0148
1134.00,0.0147
1133.00,0.0147
1132.00,0.0146
1131.00,0.0147
1130.00,0.0147
1129.00,0.0148
1128.00,0.0149
1127.00,0.0149
1126.00,0.0150
1125.00,0.0151
1124.00,0.0152
1123.00,0.0152
1122.00,0.0153
1121.00,0.0154
1120.00,0.0155
1119.00,0.0156
1118.00,0.0156
1117.00,0.0157
1116.00,0.0157
1115.00,0.0158
1114.00,0.0158
1113.00,0.0158
1112.00,0.0158
1111.00,0.0158
1110.00,0.0159
1109.00,0.0159
1108.00,0.0159
1107.00,0.0158
1106.00,0.0158
1105.00,0.0158
1104.00,0.0158
1103.00,0.0158
1102.00,0.0157
1101.00,0.0157
1100.00,0.0157
1099.00,0.0157
1098.00,0.0157
1097.00,0.0157
1096.00,0.0157
1095.00,0.0157
1094.00,0.0157
1093.00,0.0157
1092.00,0.0157
1091.00,0.0157
1090.00,0.0157
1089.00,0.0157
1088.00,0.0157
1087.00,0.0157
1086.00,0.0157
1085.00,0.0157
1084.00,0.0157
1083.00,0.0158
1082.00,0.0159
1081.00,0.0160
1080.00,0.0162
1079.00,0.0164
1078.00,0.0166
1077.00,0.0167
1076.00,0.0169
1075.00,0.0169
1074.00,0.0169
1073.00,0.0169
1072.00,0.0168
1071.00,0.0166
1070.00,0.0164
1069.00,0.0161
1068.00,0.0159
1067.00,0.0156
1066.00,0.0154
1065.00,0.0152
1064.00,0.0150
1063.00,0.0148
1062.00,0.0147
1061.00,0.0146
1060.00,0.0145
1059.00,0.0144
1058.00,0.0143
1057.00,0.0143
1056.00,0.0143
1055.00,0.0143
1054.00,0.0143
1053.00,0.0142
1052.00,0.0142
1051.00,0.0142
1050.00,0.0143
1049.00,0.0143
1048.00,0.0144
1047.00,0.0144
1046.00,0.0144
1045.00,0.0144
1044.00,0.0144
1043.00,0.0144
1042.00,0.0145
1041.00,0.0145
1040.00,0.0145
1039.00,0.0145
1038.00,0.0146
1037.00,0.0147
1036.00,0.0147
1035.00,0.0148
1034.00,0.0149
1033.00,0.0150
1032.00,0.0152
1031.00,0.0153
1030.00,0.0155
1029.00,0.0158
1028.00,0.0161
1027.00,0.0164
1026.00,0.0167
1025.00,0.0171
1024.00,0.0175
1023.00,0.0179
1022.00,0.0184
1021.00,0.0188
1020.00,0.0192
1019.00,0.0195
1018.00,0.0196
1017.00,0.0196
1016.00,0.0193
1015.00,0.0190
1014.00,0.0185
1013.00,0.0180
1012.00,0.0174
1011.00,0.0169
1010.00,0.0165
1009.00,0.0161
1008.00,0.0159
1007.00,0.0158
1006.00,0.0159
1005.00,0.0160
1004.00,0.0162
1003.00,0.0164
1002.00,0.0166
1001.00,0.0167
1000.00,0.0167
999.00,0.0165
998.00,0.0163
997.00,0.0160
996.00,0.0156
995.00,0.0152
994.00,0.0148
993.00,0.0145
992.00,0.0142
991.00,0.0140
990.00,0.0137
989.00,0.0135
988.00,0.0133
987.00,0.0131
986.00,0.0129
985.00,0.0128
984.00,0.0127
983.00,0.0126
982.00,0.0125
981.00,0.0124
980.00,0.0123
979.00,0.0122
978.00,0.0121
977.00,0.0120
976.00,0.0119
975.00,0.0118
974.00,0.0118
973.00,0.0117
972.00,0.0116
971.00,0.0116
970.00,0.0115
969.00,0.0114
968.00,0.0113
967.00,0.0112
966.00,0.0112
965.00,0.0111
964.00,0.0110
963.00,0.0110
962.00,0.0109
961.00,0.0108
960.00,0.0107
959.00,0.0106
958.00,0.0106
957.00,0.0106
956.00,0.0105
955.00,0.0105
954.00,0.0104
953.00,0.0103
952.00,0.0103
951.00,0.0103
950.00,0.0103
949.00,0.0103
948.00,0.0103
947.00,0.0104
946.00,0.0105
945.00,0.0106
944.00,0.0108
943.00,0.0110
942.00,0.0112
941.00,0.0115
940.00,0.0119
939.00,0.0123
938.00,0.0128
937.00,0.0134
936.00,0.0139
935.00,0.0144
934.00,0.0148
933.00,0.0150
932.00,0.0151
931.00,0.0149
930.00,0.0146
929.00,0.0143
928.00,0.0140
927.00,0.0138
926.00,0.0136
925.00,0.0134
924.00,0.0132
923.00,0.0130
922.00,0.0128
921.00,0.0126
920.00,0.0125
919.00,0.0123
918.00,0.0122
917.00,0.0122
916.00,0.0121
915.00,0.0120
914.00,0.0120
913.00,0.0120
912.00,0.0120
911.00,0.0120
910.00,0.0121
909.00,0.0122
908.00,0.0123
907.00,0.0124
906.00,0.0126
905.00,0.0128
904.00,0.0131
903.00,0.0133
902.00,0.0137
901.00,0.0140
900.00,0.0143
899.00,0.0146
898.00,0.0148
897.00,0.0150
896.00,0.0151
895.00,0.0151
894.00,0.0152
893.00,0.0151
892.00,0.0150
891.00,0.0148
890.00,0.0145
889.00,0.0143
888.00,0.0140
887.00,0.0137
886.00,0.0135
885.00,0.0133
884.00,0.0131
883.00,0.0129
882.00,0.0128
881.00,0.0127
880.00,0.0125
879.00,0.0124
878.00,0.0123
877.00,0.0122
876.00,0.0122
875.00,0.0122
874.00,0.0122
873.00,0.0123
872.00,0.0123
871.00,0.0124
870.00,0.0125
869.00,0.0126
868.00,0.0127
867.00,0.0128
866.00,0.0131
865.00,0.0134
864.00,0.0137
863.00,0.0140
862.00,0.0143
861.00,0.0148
860.00,0.0152
859.00,0.0158
858.00,0.0164
857.00,0.0171
856.00,0.0178
855.00,0.0185
854.00,0.0193
853.00,0.0200
852.00,0.0207
851.00,0.0213
850.00,0.0219
849.00,0.0225
848.00,0.0230
847.00,0.0234
846.00,0.0237
845.00,0.0239
844.00,0.0240
843.00,0.0239
842.00,0.0237
841.00,0.0234
840.00,0.0230
839.00,0.0226
838.00,0.0221
837.00,0.0217
836.00,0.0212
835.00,0.0207
834.00,0.0201
833.00,0.0195
832.00,0.0190
831.00,0.0184
830.00,0.0179
829.00,0.0174
828.00,0.0169
827.00,0.0164
826.00,0.0160
825.00,0.0156
824.00,0.0152
823.00,0.0148
822.00,0.0145
821.00,0.0143
820.00,0.0140
819.00,0.0137
818.00,0.0134
817.00,0.0132
816.00,0.0129
815.00,0.0127
814.00,0.0126
813.00,0.0125
812.00,0.0124
811.00,0.0122
810.00,0.0121
809.00,0.0120
808.00,0.0119
807.00,0.0118
806.00,0.0117
805.00,0.0116
804.00,0.0115
803.00,0.0114
802.00,0.0113
801.00,0.0112
800.00,0.0111
799.00,0.0111
798.00,0.0110
797.00,0.0110
796.00,0.0110
795.00,0.0109
794.00,0.0109
793.00,0.0109
792.00,0.0109
791.00,0.0109
790.00,0.0108
789.00,0.0108
788.00,0.0108
787.00,0.0108
786.00,0.0108
785.00,0.0109
784.00,0.0109
783.00,0.0110
782.00,0.0111
781.00,0.0111
780.00,0.0111
779.00,0.0111
778.00,0.0112
777.00,0.0113
776.00,0.0114
775.00,0.0115
774.00,0.0116
773.00,0.0117
772.00,0.0118
771.00,0.0119
770.00,0.0121
769.00,0.0123
768.00,0.0126
767.00,0.0128
766.00,0.0130
765.00,0.0133
764.00,0.0136
763.00,0.0139
762.00,0.0142
761.00,0.0145
760.00,0.0148
759.00,0.0151
758.00,0.0154
757.00,0.0157
756.00,0.0160
755.00,0.0164
754.00,0.0168
753.00,0.0173
752.00,0.0177
751.00,0.0181
750.00,0.0186
749.00,0.0189
748.00,0.0193
747.00,0.0196
746.00,0.0199
745.00,0.0202
744.00,0.0206
743.00,0.0209
742.00,0.0213
741.00,0.0217
740.00,0.0220
739.00,0.0223
738.00,0.0227
737.00,0.0230
736.00,0.0233
735.00,0.0235
734.00,0.0236
733.00,0.0236
732.00,0.0235
731.00,0.0232
730.00,0.0229
729.00,0.0224
728.00,0.0219
727.00,0.0212
726.00,0.0206
725.00,0.0200
724.00,0.0195
723.00,0.0190
722.00,0.0186
721.00,0.0182
720.00,0.0178
719.00,0.0175
718.00,0.0173
717.00,0.0172
716.00,0.0171
715.00,0.0169
714.00,0.0168
713.00,0.0166
712.00,0.0165
711.00,0.0165
710.00,0.0165
709.00,0.0165
708.00,0.0165
707.00,0.0165
706.00,0.0165
705.00,0.0166
704.00,0.0167
703.00,0.0168
702.00,0.0169
701.00,0.0171
700.00,0.0172
699.00,0.0174
698.00,0.0177
697.00,0.0179
696.00,0.0181
695.00,0.0183
694.00,0.0185
693.00,0.0188
692.00,0.0190
691.00,0.0193
690.00,0.0196
689.00,0.0198
688.00,0.0201
687.00,0.0204
686.00,0.0208
685.00,0.0211
684.00,0.0215
683.00,0.0219
682.00,0.0222
681.00,0.0226
680.00,0.0229
679.00,0.0233
678.00,0.0238
677.00,0.0242
676.00,0.0247
675.00,0.0251
674.00,0.0256
673.00,0.0260
672.00,0.0264
671.00,0.0269
670.00,0.0276
669.00,0.0285
668.00,0.0295
667.00,0.0305
666.00,0.0311
665.00,0.0315
664.00,0.0320
663.00,0.0328
662.00,0.0336
661.00,0.0345
660.00,0.0354
659.00,0.0364
658.00,0.0373
657.00,0.0381
656.00,0.0389
655.00,0.0397
654.00,0.0405
653.00,0.0413
652.00,0.0420
651.00,0.0426
650.00,0.0431
649.00,0.0434
648.00,0.0436
647.00,0.0436
646.00,0.0434
645.00,0.0430
644.00,0.0426
643.00,0.0420
642.00,0.0414
641.00,0.0408
640.00,0.0402
639.00,0.0395
638.00,0.0388
637.00,0.0382
636.00,0.0375
635.00,0.0370
634.00,0.0365
633.00,0.0360
632.00,0.0355
631.00,0.0350
630.00,0.0345
629.00,0.0341
628.00,0.0337
627.00,0.0334
626.00,0.0331
625.00,0.0329
624.00,0.0327
623.00,0.0324
622.00,0.0323
621.00,0.0321
620.00,0.0319
619.00,0.0318
618.00,0.0317
617.00,0.0316
616.00,0.0316
615.00,0.0316
614.00,0.0316
613.00,0.0317
612.00,0.0318
611.00,0.0319
610.00,0.0320
609.00,0.0320
608.00,0.0321
607.00,0.0322
606.00,0.0323
605.00,0.0324
604.00,0.0325
603.00,0.0326
602.00,0.0328
601.00,0.0329
600.00,0.0331
599.00,0.0334
598.00,0.0336
597.00,0.0339
596.00,0.0342
595.00,0.0345
594.00,0.0349
593.00,0.0353
592.00,0.0358
591.00,0.0363
590.00,0.0368
589.00,0.0374
588.00,0.0381
587.00,0.0388
586.00,0.0396
585.00,0.0403
584.00,0.0410
583.00,0.0418
582.00,0.0427
581.00,0.0437
580.00,0.0446
579.00,0.0455
578.00,0.0463
577.00,0.0469
576.00,0.0474
575.00,0.0478
574.00,0.0483
573.00,0.0487
572.00,0.0489
571.00,0.0490
570.00,0.0489
569.00,0.0487
568.00,0.0485
567.00,0.0481
566.00,0.0476
565.00,0.0470
564.00,0.0464
563.00,0.0456
562.00,0.0449
561.00,0.0442
560.00,0.0436
559.00,0.0431
558.00,0.0425
557.00,0.0419
556.00,0.0414
555.00,0.0409
554.00,0.0406
553.00,0.0404
552.00,0.0401
551.00,0.0398
550.00,0.0395
549.00,0.0393
548.00,0.0391
547.00,0.0388
546.00,0.0384
545.00,0.0380
544.00,0.0376
543.00,0.0374
542.00,0.0374
541.00,0.0374
540.00,0.0374
539.00,0.0374
538.00,0.0372
537.00,0.0371
536.00,0.0369
535.00,0.0367
534.00,0.0366
533.00,0.0367
532.00,0.0367
531.00,0.0366
530.00,0.0365
529.00,0.0364
528.00,0.0363
527.00,0.0362
526.00,0.0362
525.00,0.0363
524.00,0.0364
523.00,0.0365
522.00,0.0365
521.00,0.0364
520.00,0.0364
519.00,0.0365
518.00,0.0367
517.00,0.0369
516.00,0.0370
515.00,0.0370
514.00,0.0369
513.00,0.0367
512.00,0.0367
511.00,0.0368
510.00,0.0369
509.00,0.0370
508.00,0.0369
507.00,0.0369
506.00,0.0370
505.00,0.0371
504.00,0.0372
503.00,0.0373
502.00,0.0374
501.00,0.0374
500.00,0.0375
499.00,0.0376
498.00,0.0377
497.00,0.0377
496.00,0.0377
495.00,0.0376
494.00,0.0377
493.00,0.0378
492.00,0.0381
491.00,0.0383
490.00,0.0384
489.00,0.0385
488.00,0.0384
487.00,0.0384
486.00,0.0384
485.00,0.0383
484.00,0.0381
483.00,0.0382
482.00,0.0384
481.00,0.0386
480.00,0.0389
479.00,0.0391
478.00,0.0392
477.00,0.0392
476.00,0.0392
475.00,0.0392
474.00,0.0394
473.00,0.0396
472.00,0.0398
471.00,0.0399
470.00,0.0400
469.00,0.0399
468.00,0.0397
467.00,0.0393
466.00,0.0392
465.00,0.0394
464.00,0.0398
463.00,0.0402
462.00,0.0405
461.00,0.0406
460.00,0.0404
459.00,0.0401
458.00,0.0398
457.00,0.0395
456.00,0.0393
455.00,0.0391
454.00,0.0388
453.00,0.0385
452.00,0.0383
451.00,0.0382
450.00,0.0383
449.00,0.0384
448.00,0.0382
447.00,0.0379
446.00,0.0375
445.00,0.0373
444.00,0.0372
443.00,0.0373
442.00,0.0373
441.00,0.0372
440.00,0.0371
439.00,0.0369
438.00,0.0369
437.00,0.0369
436.00,0.0368
435.00,0.0367
434.00,0.0367
433.00,0.0366
432.00,0.0366
431.00,0.0364
430.00,0.0362
429.00,0.0359
428.00,0.0357
427.00,0.0357
426.00,0.0359
425.00,0.0361
424.00,0.0360
423.00,0.0359
422.00,0.0358
421.00,0.0359
420.00,0.0358
419.00,0.0358
418.00,0.0358
417.00,0.0358
416.00,0.0358
415.00,0.0360
414.00,0.0364
413.00,0.0368
412.00,0.0368
411.00,0.0366
410.00,0.0365
409.00,0.0363
408.00,0.0357
407.00,0.0345
406.00,0.0333
405.00,0.0326
404.00,0.0324
403.00,0.0325
402.00,0.0326
401.00,0.0328
400.00,0.0333
