Created as New Dataset,Sample 623 By YargerLab Date Friday, June 06 2025
cm-1,A
4000.00,0.0191
3999.00,0.0191
3998.00,0.0191
3997.00,0.0191
3996.00,0.0191
3995.00,0.0191
3994.00,0.0191
3993.00,0.0191
3992.00,0.0191
3991.00,0.0192
3990.00,0.0192
3989.00,0.0192
3988.00,0.0192
3987.00,0.0192
3986.00,0.0192
3985.00,0.0191
3984.00,0.0191
3983.00,0.0192
3982.00,0.0192
3981.00,0.0192
3980.00,0.0192
3979.00,0.0191
3978.00,0.0191
3977.00,0.0191
3976.00,0.0191
3975.00,0.0191
3974.00,0.0191
3973.00,0.0191
3972.00,0.0191
3971.00,0.0191
3970.00,0.0191
3969.00,0.0191
3968.00,0.0191
3967.00,0.0191
3966.00,0.0191
3965.00,0.0191
3964.00,0.0191
3963.00,0.0191
3962.00,0.0191
3961.00,0.0191
3960.00,0.0191
3959.00,0.0191
3958.00,0.0191
3957.00,0.0191
3956.00,0.0191
3955.00,0.0191
3954.00,0.0191
3953.00,0.0191
3952.00,0.0191
3951.00,0.0191
3950.00,0.0190
3949.00,0.0190
3948.00,0.0191
3947.00,0.0191
3946.00,0.0191
3945.00,0.0191
3944.00,0.0191
3943.00,0.0191
3942.00,0.0191
3941.00,0.0190
3940.00,0.0190
3939.00,0.0190
3938.00,0.0191
3937.00,0.0191
3936.00,0.0191
3935.00,0.0191
3934.00,0.0191
3933.00,0.0191
3932.00,0.0191
3931.00,0.0191
3930.00,0.0191
3929.00,0.0192
3928.00,0.0192
3927.00,0.0192
3926.00,0.0193
3925.00,0.0193
3924.00,0.0192
3923.00,0.0192
3922.00,0.0192
3921.00,0.0192
3920.00,0.0192
3919.00,0.0192
3918.00,0.0193
3917.00,0.0193
3916.00,0.0193
3915.00,0.0193
3914.00,0.0193
3913.00,0.0192
3912.00,0.0192
3911.00,0.0192
3910.00,0.0192
3909.00,0.0191
3908.00,0.0191
3907.00,0.0191
3906.00,0.0190
3905.00,0.0190
3904.00,0.0190
3903.00,0.0190
3902.00,0.0191
3901.00,0.0191
3900.00,0.0191
3899.00,0.0191
3898.00,0.0190
3897.00,0.0190
3896.00,0.0189
3895.00,0.0189
3894.00,0.0189
3893.00,0.0189
3892.00,0.0189
3891.00,0.0189
3890.00,0.0189
3889.00,0.0189
3888.00,0.0189
3887.00,0.0190
3886.00,0.0190
3885.00,0.0189
3884.00,0.0190
3883.00,0.0190
3882.00,0.0190
3881.00,0.0190
3880.00,0.0190
3879.00,0.0189
3878.00,0.0189
3877.00,0.0189
3876.00,0.0189
3875.00,0.0189
3874.00,0.0189
3873.00,0.0189
3872.00,0.0189
3871.00,0.0190
3870.00,0.0189
3869.00,0.0189
3868.00,0.0189
3867.00,0.0189
3866.00,0.0189
3865.00,0.0189
3864.00,0.0189
3863.00,0.0189
3862.00,0.0189
3861.00,0.0189
3860.00,0.0189
3859.00,0.0189
3858.00,0.0189
3857.00,0.0189
3856.00,0.0190
3855.00,0.0189
3854.00,0.0189
3853.00,0.0189
3852.00,0.0190
3851.00,0.0190
3850.00,0.0190
3849.00,0.0189
3848.00,0.0189
3847.00,0.0188
3846.00,0.0188
3845.00,0.0187
3844.00,0.0188
3843.00,0.0188
3842.00,0.0188
3841.00,0.0189
3840.00,0.0189
3839.00,0.0189
3838.00,0.0189
3837.00,0.0188
3836.00,0.0188
3835.00,0.0188
3834.00,0.0188
3833.00,0.0188
3832.00,0.0188
3831.00,0.0188
3830.00,0.0187
3829.00,0.0188
3828.00,0.0188
3827.00,0.0188
3826.00,0.0187
3825.00,0.0188
3824.00,0.0188
3823.00,0.0188
3822.00,0.0188
3821.00,0.0188
3820.00,0.0188
3819.00,0.0188
3818.00,0.0188
3817.00,0.0188
3816.00,0.0188
3815.00,0.0188
3814.00,0.0188
3813.00,0.0188
3812.00,0.0188
3811.00,0.0187
3810.00,0.0187
3809.00,0.0187
3808.00,0.0188
3807.00,0.0187
3806.00,0.0187
3805.00,0.0188
3804.00,0.0188
3803.00,0.0188
3802.00,0.0188
3801.00,0.0188
3800.00,0.0188
3799.00,0.0189
3798.00,0.0189
3797.00,0.0188
3796.00,0.0188
3795.00,0.0187
3794.00,0.0187
3793.00,0.0187
3792.00,0.0187
3791.00,0.0187
3790.00,0.0187
3789.00,0.0187
3788.00,0.0187
3787.00,0.0187
3786.00,0.0187
3785.00,0.0187
3784.00,0.0187
3783.00,0.0187
3782.00,0.0187
3781.00,0.0187
3780.00,0.0187
3779.00,0.0187
3778.00,0.0187
3777.00,0.0187
3776.00,0.0187
3775.00,0.0187
3774.00,0.0187
3773.00,0.0187
3772.00,0.0187
3771.00,0.0186
3770.00,0.0186
3769.00,0.0186
3768.00,0.0186
3767.00,0.0186
3766.00,0.0186
3765.00,0.0186
3764.00,0.0186
3763.00,0.0186
3762.00,0.0187
3761.00,0.0187
3760.00,0.0187
3759.00,0.0187
3758.00,0.0187
3757.00,0.0187
3756.00,0.0187
3755.00,0.0187
3754.00,0.0186
3753.00,0.0186
3752.00,0.0186
3751.00,0.0186
3750.00,0.0187
3749.00,0.0186
3748.00,0.0186
3747.00,0.0187
3746.00,0.0187
3745.00,0.0187
3744.00,0.0187
3743.00,0.0187
3742.00,0.0187
3741.00,0.0187
3740.00,0.0186
3739.00,0.0186
3738.00,0.0185
3737.00,0.0186
3736.00,0.0186
3735.00,0.0186
3734.00,0.0187
3733.00,0.0187
3732.00,0.0186
3731.00,0.0185
3730.00,0.0185
3729.00,0.0185
3728.00,0.0185
3727.00,0.0185
3726.00,0.0184
3725.00,0.0185
3724.00,0.0185
3723.00,0.0184
3722.00,0.0184
3721.00,0.0184
3720.00,0.0184
3719.00,0.0184
3718.00,0.0184
3717.00,0.0183
3716.00,0.0183
3715.00,0.0184
3714.00,0.0184
3713.00,0.0183
3712.00,0.0183
3711.00,0.0183
3710.00,0.0183
3709.00,0.0183
3708.00,0.0183
3707.00,0.0183
3706.00,0.0183
3705.00,0.0182
3704.00,0.0182
3703.00,0.0182
3702.00,0.0182
3701.00,0.0182
3700.00,0.0182
3699.00,0.0182
3698.00,0.0182
3697.00,0.0182
3696.00,0.0182
3695.00,0.0181
3694.00,0.0181
3693.00,0.0181
3692.00,0.0181
3691.00,0.0181
3690.00,0.0181
3689.00,0.0181
3688.00,0.0181
3687.00,0.0180
3686.00,0.0180
3685.00,0.0180
3684.00,0.0179
3683.00,0.0179
3682.00,0.0178
3681.00,0.0178
3680.00,0.0177
3679.00,0.0177
3678.00,0.0177
3677.00,0.0177
3676.00,0.0176
3675.00,0.0175
3674.00,0.0175
3673.00,0.0175
3672.00,0.0175
3671.00,0.0175
3670.00,0.0174
3669.00,0.0173
3668.00,0.0173
3667.00,0.0172
3666.00,0.0172
3665.00,0.0171
3664.00,0.0171
3663.00,0.0170
3662.00,0.0170
3661.00,0.0169
3660.00,0.0170
3659.00,0.0170
3658.00,0.0170
3657.00,0.0170
3656.00,0.0170
3655.00,0.0170
3654.00,0.0170
3653.00,0.0171
3652.00,0.0171
3651.00,0.0172
3650.00,0.0172
3649.00,0.0172
3648.00,0.0172
3647.00,0.0172
3646.00,0.0172
3645.00,0.0172
3644.00,0.0172
3643.00,0.0172
3642.00,0.0172
3641.00,0.0172
3640.00,0.0172
3639.00,0.0172
3638.00,0.0172
3637.00,0.0172
3636.00,0.0172
3635.00,0.0173
3634.00,0.0174
3633.00,0.0175
3632.00,0.0176
3631.00,0.0176
3630.00,0.0176
3629.00,0.0176
3628.00,0.0177
3627.00,0.0177
3626.00,0.0177
3625.00,0.0177
3624.00,0.0177
3623.00,0.0177
3622.00,0.0177
3621.00,0.0177
3620.00,0.0177
3619.00,0.0177
3618.00,0.0177
3617.00,0.0177
3616.00,0.0177
3615.00,0.0177
3614.00,0.0177
3613.00,0.0177
3612.00,0.0178
3611.00,0.0178
3610.00,0.0178
3609.00,0.0178
3608.00,0.0177
3607.00,0.0177
3606.00,0.0178
3605.00,0.0178
3604.00,0.0178
3603.00,0.0177
3602.00,0.0177
3601.00,0.0177
3600.00,0.0177
3599.00,0.0177
3598.00,0.0177
3597.00,0.0177
3596.00,0.0177
3595.00,0.0177
3594.00,0.0176
3593.00,0.0176
3592.00,0.0176
3591.00,0.0176
3590.00,0.0177
3589.00,0.0177
3588.00,0.0177
3587.00,0.0177
3586.00,0.0177
3585.00,0.0177
3584.00,0.0176
3583.00,0.0176
3582.00,0.0176
3581.00,0.0175
3580.00,0.0176
3579.00,0.0176
3578.00,0.0176
3577.00,0.0176
3576.00,0.0176
3575.00,0.0176
3574.00,0.0176
3573.00,0.0176
3572.00,0.0176
3571.00,0.0176
3570.00,0.0176
3569.00,0.0176
3568.00,0.0176
3567.00,0.0176
3566.00,0.0176
3565.00,0.0176
3564.00,0.0177
3563.00,0.0177
3562.00,0.0177
3561.00,0.0176
3560.00,0.0176
3559.00,0.0176
3558.00,0.0176
3557.00,0.0176
3556.00,0.0176
3555.00,0.0176
3554.00,0.0176
3553.00,0.0176
3552.00,0.0176
3551.00,0.0176
3550.00,0.0176
3549.00,0.0176
3548.00,0.0176
3547.00,0.0176
3546.00,0.0176
3545.00,0.0176
3544.00,0.0176
3543.00,0.0176
3542.00,0.0176
3541.00,0.0176
3540.00,0.0176
3539.00,0.0176
3538.00,0.0176
3537.00,0.0176
3536.00,0.0175
3535.00,0.0175
3534.00,0.0175
3533.00,0.0175
3532.00,0.0175
3531.00,0.0175
3530.00,0.0175
3529.00,0.0175
3528.00,0.0175
3527.00,0.0175
3526.00,0.0175
3525.00,0.0175
3524.00,0.0175
3523.00,0.0175
3522.00,0.0175
3521.00,0.0175
3520.00,0.0174
3519.00,0.0174
3518.00,0.0174
3517.00,0.0174
3516.00,0.0174
3515.00,0.0174
3514.00,0.0174
3513.00,0.0174
3512.00,0.0174
3511.00,0.0174
3510.00,0.0174
3509.00,0.0174
3508.00,0.0174
3507.00,0.0174
3506.00,0.0174
3505.00,0.0174
3504.00,0.0174
3503.00,0.0174
3502.00,0.0174
3501.00,0.0174
3500.00,0.0174
3499.00,0.0174
3498.00,0.0173
3497.00,0.0173
3496.00,0.0173
3495.00,0.0173
3494.00,0.0173
3493.00,0.0173
3492.00,0.0173
3491.00,0.0173
3490.00,0.0172
3489.00,0.0172
3488.00,0.0172
3487.00,0.0172
3486.00,0.0172
3485.00,0.0172
3484.00,0.0171
3483.00,0.0171
3482.00,0.0171
3481.00,0.0171
3480.00,0.0171
3479.00,0.0171
3478.00,0.0171
3477.00,0.0171
3476.00,0.0171
3475.00,0.0171
3474.00,0.0171
3473.00,0.0171
3472.00,0.0171
3471.00,0.0170
3470.00,0.0170
3469.00,0.0170
3468.00,0.0170
3467.00,0.0170
3466.00,0.0170
3465.00,0.0170
3464.00,0.0170
3463.00,0.0169
3462.00,0.0169
3461.00,0.0169
3460.00,0.0169
3459.00,0.0168
3458.00,0.0168
3457.00,0.0168
3456.00,0.0168
3455.00,0.0168
3454.00,0.0168
3453.00,0.0168
3452.00,0.0168
3451.00,0.0168
3450.00,0.0168
3449.00,0.0168
3448.00,0.0168
3447.00,0.0168
3446.00,0.0168
3445.00,0.0168
3444.00,0.0168
3443.00,0.0168
3442.00,0.0168
3441.00,0.0168
3440.00,0.0168
3439.00,0.0168
3438.00,0.0168
3437.00,0.0168
3436.00,0.0168
3435.00,0.0168
3434.00,0.0168
3433.00,0.0168
3432.00,0.0168
3431.00,0.0168
3430.00,0.0168
3429.00,0.0168
3428.00,0.0168
3427.00,0.0168
3426.00,0.0168
3425.00,0.0168
3424.00,0.0169
3423.00,0.0169
3422.00,0.0169
3421.00,0.0170
3420.00,0.0170
3419.00,0.0171
3418.00,0.0171
3417.00,0.0172
3416.00,0.0172
3415.00,0.0173
3414.00,0.0174
3413.00,0.0174
3412.00,0.0175
3411.00,0.0176
3410.00,0.0177
3409.00,0.0178
3408.00,0.0180
3407.00,0.0182
3406.00,0.0183
3405.00,0.0185
3404.00,0.0186
3403.00,0.0187
3402.00,0.0188
3401.00,0.0191
3400.00,0.0194
3399.00,0.0198
3398.00,0.0203
3397.00,0.0207
3396.00,0.0210
3395.00,0.0214
3394.00,0.0217
3393.00,0.0222
3392.00,0.0228
3391.00,0.0236
3390.00,0.0244
3389.00,0.0254
3388.00,0.0264
3387.00,0.0275
3386.00,0.0288
3385.00,0.0303
3384.00,0.0319
3383.00,0.0338
3382.00,0.0359
3381.00,0.0384
3380.00,0.0411
3379.00,0.0441
3378.00,0.0473
3377.00,0.0506
3376.00,0.0539
3375.00,0.0572
3374.00,0.0601
3373.00,0.0626
3372.00,0.0646
3371.00,0.0660
3370.00,0.0668
3369.00,0.0672
3368.00,0.0671
3367.00,0.0666
3366.00,0.0659
3365.00,0.0648
3364.00,0.0635
3363.00,0.0620
3362.00,0.0604
3361.00,0.0588
3360.00,0.0571
3359.00,0.0555
3358.00,0.0538
3357.00,0.0522
3356.00,0.0506
3355.00,0.0490
3354.00,0.0474
3353.00,0.0459
3352.00,0.0445
3351.00,0.0432
3350.00,0.0420
3349.00,0.0410
3348.00,0.0400
3347.00,0.0390
3346.00,0.0381
3345.00,0.0372
3344.00,0.0364
3343.00,0.0357
3342.00,0.0350
3341.00,0.0344
3340.00,0.0338
3339.00,0.0333
3338.00,0.0327
3337.00,0.0323
3336.00,0.0318
3335.00,0.0314
3334.00,0.0310
3333.00,0.0307
3332.00,0.0303
3331.00,0.0300
3330.00,0.0297
3329.00,0.0294
3328.00,0.0291
3327.00,0.0289
3326.00,0.0286
3325.00,0.0284
3324.00,0.0283
3323.00,0.0281
3322.00,0.0279
3321.00,0.0277
3320.00,0.0276
3319.00,0.0274
3318.00,0.0272
3317.00,0.0271
3316.00,0.0270
3315.00,0.0269
3314.00,0.0268
3313.00,0.0267
3312.00,0.0266
3311.00,0.0264
3310.00,0.0263
3309.00,0.0262
3308.00,0.0261
3307.00,0.0260
3306.00,0.0259
3305.00,0.0259
3304.00,0.0258
3303.00,0.0257
3302.00,0.0256
3301.00,0.0255
3300.00,0.0254
3299.00,0.0252
3298.00,0.0251
3297.00,0.0249
3296.00,0.0248
3295.00,0.0246
3294.00,0.0245
3293.00,0.0244
3292.00,0.0244
3291.00,0.0243
3290.00,0.0242
3289.00,0.0241
3288.00,0.0240
3287.00,0.0239
3286.00,0.0237
3285.00,0.0236
3284.00,0.0235
3283.00,0.0234
3282.00,0.0232
3281.00,0.0231
3280.00,0.0230
3279.00,0.0229
3278.00,0.0228
3277.00,0.0226
3276.00,0.0225
3275.00,0.0224
3274.00,0.0223
3273.00,0.0222
3272.00,0.0221
3271.00,0.0221
3270.00,0.0220
3269.00,0.0221
3268.00,0.0221
3267.00,0.0221
3266.00,0.0220
3265.00,0.0220
3264.00,0.0220
3263.00,0.0219
3262.00,0.0219
3261.00,0.0219
3260.00,0.0218
3259.00,0.0218
3258.00,0.0218
3257.00,0.0217
3256.00,0.0217
3255.00,0.0217
3254.00,0.0217
3253.00,0.0218
3252.00,0.0218
3251.00,0.0218
3250.00,0.0217
3249.00,0.0217
3248.00,0.0216
3247.00,0.0216
3246.00,0.0217
3245.00,0.0218
3244.00,0.0219
3243.00,0.0219
3242.00,0.0220
3241.00,0.0220
3240.00,0.0220
3239.00,0.0220
3238.00,0.0219
3237.00,0.0219
3236.00,0.0218
3235.00,0.0217
3234.00,0.0217
3233.00,0.0217
3232.00,0.0218
3231.00,0.0219
3230.00,0.0219
3229.00,0.0219
3228.00,0.0218
3227.00,0.0217
3226.00,0.0216
3225.00,0.0216
3224.00,0.0215
3223.00,0.0214
3222.00,0.0213
3221.00,0.0212
3220.00,0.0211
3219.00,0.0210
3218.00,0.0210
3217.00,0.0209
3216.00,0.0208
3215.00,0.0208
3214.00,0.0207
3213.00,0.0207
3212.00,0.0206
3211.00,0.0206
3210.00,0.0205
3209.00,0.0205
3208.00,0.0204
3207.00,0.0203
3206.00,0.0202
3205.00,0.0202
3204.00,0.0201
3203.00,0.0201
3202.00,0.0201
3201.00,0.0200
3200.00,0.0200
3199.00,0.0200
3198.00,0.0200
3197.00,0.0199
3196.00,0.0199
3195.00,0.0198
3194.00,0.0198
3193.00,0.0198
3192.00,0.0198
3191.00,0.0198
3190.00,0.0198
3189.00,0.0197
3188.00,0.0197
3187.00,0.0197
3186.00,0.0196
3185.00,0.0196
3184.00,0.0196
3183.00,0.0196
3182.00,0.0196
3181.00,0.0196
3180.00,0.0195
3179.00,0.0195
3178.00,0.0195
3177.00,0.0195
3176.00,0.0195
3175.00,0.0195
3174.00,0.0195
3173.00,0.0195
3172.00,0.0195
3171.00,0.0194
3170.00,0.0194
3169.00,0.0194
3168.00,0.0194
3167.00,0.0193
3166.00,0.0193
3165.00,0.0193
3164.00,0.0193
3163.00,0.0193
3162.00,0.0193
3161.00,0.0193
3160.00,0.0193
3159.00,0.0193
3158.00,0.0193
3157.00,0.0193
3156.00,0.0193
3155.00,0.0193
3154.00,0.0193
3153.00,0.0193
3152.00,0.0193
3151.00,0.0193
3150.00,0.0193
3149.00,0.0193
3148.00,0.0193
3147.00,0.0193
3146.00,0.0193
3145.00,0.0194
3144.00,0.0194
3143.00,0.0194
3142.00,0.0194
3141.00,0.0194
3140.00,0.0194
3139.00,0.0194
3138.00,0.0194
3137.00,0.0194
3136.00,0.0194
3135.00,0.0194
3134.00,0.0194
3133.00,0.0194
3132.00,0.0194
3131.00,0.0194
3130.00,0.0195
3129.00,0.0195
3128.00,0.0195
3127.00,0.0196
3126.00,0.0196
3125.00,0.0196
3124.00,0.0197
3123.00,0.0197
3122.00,0.0197
3121.00,0.0198
3120.00,0.0198
3119.00,0.0199
3118.00,0.0199
3117.00,0.0199
3116.00,0.0200
3115.00,0.0201
3114.00,0.0202
3113.00,0.0202
3112.00,0.0203
3111.00,0.0204
3110.00,0.0205
3109.00,0.0206
3108.00,0.0206
3107.00,0.0207
3106.00,0.0208
3105.00,0.0209
3104.00,0.0210
3103.00,0.0211
3102.00,0.0211
3101.00,0.0212
3100.00,0.0212
3099.00,0.0212
3098.00,0.0212
3097.00,0.0212
3096.00,0.0212
3095.00,0.0212
3094.00,0.0212
3093.00,0.0211
3092.00,0.0211
3091.00,0.0210
3090.00,0.0210
3089.00,0.0209
3088.00,0.0208
3087.00,0.0208
3086.00,0.0208
3085.00,0.0207
3084.00,0.0207
3083.00,0.0207
3082.00,0.0207
3081.00,0.0208
3080.00,0.0208
3079.00,0.0208
3078.00,0.0209
3077.00,0.0210
3076.00,0.0211
3075.00,0.0212
3074.00,0.0214
3073.00,0.0216
3072.00,0.0218
3071.00,0.0219
3070.00,0.0219
3069.00,0.0218
3068.00,0.0216
3067.00,0.0214
3066.00,0.0211
3065.00,0.0209
3064.00,0.0206
3063.00,0.0204
3062.00,0.0203
3061.00,0.0202
3060.00,0.0201
3059.00,0.0201
3058.00,0.0200
3057.00,0.0201
3056.00,0.0201
3055.00,0.0202
3054.00,0.0202
3053.00,0.0202
3052.00,0.0202
3051.00,0.0201
3050.00,0.0200
3049.00,0.0199
3048.00,0.0199
3047.00,0.0198
3046.00,0.0197
3045.00,0.0196
3044.00,0.0196
3043.00,0.0195
3042.00,0.0195
3041.00,0.0194
3040.00,0.0194
3039.00,0.0194
3038.00,0.0194
3037.00,0.0194
3036.00,0.0194
3035.00,0.0194
3034.00,0.0194
3033.00,0.0195
3032.00,0.0195
3031.00,0.0195
3030.00,0.0196
3029.00,0.0196
3028.00,0.0197
3027.00,0.0197
3026.00,0.0198
3025.00,0.0199
3024.00,0.0200
3023.00,0.0201
3022.00,0.0202
3021.00,0.0202
3020.00,0.0203
3019.00,0.0204
3018.00,0.0204
3017.00,0.0204
3016.00,0.0204
3015.00,0.0204
3014.00,0.0203
3013.00,0.0203
3012.00,0.0203
3011.00,0.0203
3010.00,0.0203
3009.00,0.0203
3008.00,0.0202
3007.00,0.0202
3006.00,0.0201
3005.00,0.0201
3004.00,0.0201
3003.00,0.0201
3002.00,0.0202
3001.00,0.0203
3000.00,0.0204
2999.00,0.0207
2998.00,0.0210
2997.00,0.0214
2996.00,0.0218
2995.00,0.0222
2994.00,0.0226
2993.00,0.0229
2992.00,0.0232
2991.00,0.0234
2990.00,0.0235
2989.00,0.0235
2988.00,0.0235
2987.00,0.0233
2986.00,0.0230
2985.00,0.0225
2984.00,0.0219
2983.00,0.0212
2982.00,0.0207
2981.00,0.0205
2980.00,0.0206
2979.00,0.0207
2978.00,0.0207
2977.00,0.0206
2976.00,0.0203
2975.00,0.0198
2974.00,0.0193
2973.00,0.0188
2972.00,0.0185
2971.00,0.0183
2970.00,0.0183
2969.00,0.0186
2968.00,0.0189
2967.00,0.0193
2966.00,0.0196
2965.00,0.0200
2964.00,0.0205
2963.00,0.0211
2962.00,0.0217
2961.00,0.0224
2960.00,0.0230
2959.00,0.0237
2958.00,0.0243
2957.00,0.0249
2956.00,0.0255
2955.00,0.0261
2954.00,0.0267
2953.00,0.0274
2952.00,0.0281
2951.00,0.0286
2950.00,0.0290
2949.00,0.0291
2948.00,0.0291
2947.00,0.0289
2946.00,0.0286
2945.00,0.0283
2944.00,0.0281
2943.00,0.0278
2942.00,0.0275
2941.00,0.0273
2940.00,0.0271
2939.00,0.0270
2938.00,0.0269
2937.00,0.0269
2936.00,0.0267
2935.00,0.0265
2934.00,0.0262
2933.00,0.0259
2932.00,0.0254
2931.00,0.0250
2930.00,0.0246
2929.00,0.0242
2928.00,0.0239
2927.00,0.0237
2926.00,0.0234
2925.00,0.0232
2924.00,0.0230
2923.00,0.0228
2922.00,0.0226
2921.00,0.0223
2920.00,0.0221
2919.00,0.0219
2918.00,0.0217
2917.00,0.0215
2916.00,0.0213
2915.00,0.0212
2914.00,0.0211
2913.00,0.0211
2912.00,0.0211
2911.00,0.0211
2910.00,0.0212
2909.00,0.0212
2908.00,0.0212
2907.00,0.0212
2906.00,0.0212
2905.00,0.0212
2904.00,0.0212
2903.00,0.0212
2902.00,0.0212
2901.00,0.0212
2900.00,0.0212
2899.00,0.0211
2898.00,0.0210
2897.00,0.0209
2896.00,0.0208
2895.00,0.0207
2894.00,0.0206
2893.00,0.0205
2892.00,0.0204
2891.00,0.0203
2890.00,0.0202
2889.00,0.0202
2888.00,0.0202
2887.00,0.0202
2886.00,0.0202
2885.00,0.0201
2884.00,0.0201
2883.00,0.0201
2882.00,0.0202
2881.00,0.0203
2880.00,0.0204
2879.00,0.0204
2878.00,0.0205
2877.00,0.0205
2876.00,0.0205
2875.00,0.0205
2874.00,0.0205
2873.00,0.0205
2872.00,0.0204
2871.00,0.0204
2870.00,0.0203
2869.00,0.0202
2868.00,0.0201
2867.00,0.0200
2866.00,0.0200
2865.00,0.0200
2864.00,0.0200
2863.00,0.0199
2862.00,0.0199
2861.00,0.0199
2860.00,0.0199
2859.00,0.0200
2858.00,0.0200
2857.00,0.0201
2856.00,0.0201
2855.00,0.0201
2854.00,0.0201
2853.00,0.0202
2852.00,0.0202
2851.00,0.0202
2850.00,0.0202
2849.00,0.0202
2848.00,0.0203
2847.00,0.0204
2846.00,0.0205
2845.00,0.0206
2844.00,0.0207
2843.00,0.0209
2842.00,0.0209
2841.00,0.0210
2840.00,0.0211
2839.00,0.0211
2838.00,0.0211
2837.00,0.0211
2836.00,0.0211
2835.00,0.0210
2834.00,0.0209
2833.00,0.0208
2832.00,0.0207
2831.00,0.0206
2830.00,0.0205
2829.00,0.0205
2828.00,0.0204
2827.00,0.0203
2826.00,0.0202
2825.00,0.0202
2824.00,0.0201
2823.00,0.0201
2822.00,0.0201
2821.00,0.0200
2820.00,0.0200
2819.00,0.0200
2818.00,0.0201
2817.00,0.0201
2816.00,0.0201
2815.00,0.0202
2814.00,0.0202
2813.00,0.0202
2812.00,0.0203
2811.00,0.0203
2810.00,0.0203
2809.00,0.0204
2808.00,0.0204
2807.00,0.0205
2806.00,0.0205
2805.00,0.0205
2804.00,0.0205
2803.00,0.0205
2802.00,0.0205
2801.00,0.0204
2800.00,0.0204
2799.00,0.0203
2798.00,0.0203
2797.00,0.0202
2796.00,0.0202
2795.00,0.0201
2794.00,0.0200
2793.00,0.0199
2792.00,0.0199
2791.00,0.0198
2790.00,0.0197
2789.00,0.0196
2788.00,0.0195
2787.00,0.0195
2786.00,0.0194
2785.00,0.0193
2784.00,0.0193
2783.00,0.0192
2782.00,0.0191
2781.00,0.0191
2780.00,0.0191
2779.00,0.0190
2778.00,0.0190
2777.00,0.0190
2776.00,0.0189
2775.00,0.0189
2774.00,0.0189
2773.00,0.0189
2772.00,0.0189
2771.00,0.0189
2770.00,0.0188
2769.00,0.0188
2768.00,0.0189
2767.00,0.0189
2766.00,0.0189
2765.00,0.0189
2764.00,0.0189
2763.00,0.0189
2762.00,0.0189
2761.00,0.0189
2760.00,0.0188
2759.00,0.0188
2758.00,0.0188
2757.00,0.0188
2756.00,0.0188
2755.00,0.0188
2754.00,0.0188
2753.00,0.0187
2752.00,0.0187
2751.00,0.0187
2750.00,0.0186
2749.00,0.0186
2748.00,0.0186
2747.00,0.0186
2746.00,0.0186
2745.00,0.0185
2744.00,0.0185
2743.00,0.0185
2742.00,0.0185
2741.00,0.0184
2740.00,0.0184
2739.00,0.0184
2738.00,0.0184
2737.00,0.0184
2736.00,0.0184
2735.00,0.0184
2734.00,0.0184
2733.00,0.0184
2732.00,0.0184
2731.00,0.0184
2730.00,0.0184
2729.00,0.0183
2728.00,0.0183
2727.00,0.0183
2726.00,0.0182
2725.00,0.0182
2724.00,0.0182
2723.00,0.0181
2722.00,0.0181
2721.00,0.0181
2720.00,0.0181
2719.00,0.0180
2718.00,0.0180
2717.00,0.0180
2716.00,0.0180
2715.00,0.0180
2714.00,0.0180
2713.00,0.0180
2712.00,0.0180
2711.00,0.0180
2710.00,0.0180
2709.00,0.0180
2708.00,0.0180
2707.00,0.0180
2706.00,0.0180
2705.00,0.0181
2704.00,0.0181
2703.00,0.0181
2702.00,0.0181
2701.00,0.0181
2700.00,0.0181
2699.00,0.0181
2698.00,0.0181
2697.00,0.0181
2696.00,0.0181
2695.00,0.0180
2694.00,0.0180
2693.00,0.0180
2692.00,0.0180
2691.00,0.0180
2690.00,0.0180
2689.00,0.0180
2688.00,0.0180
2687.00,0.0179
2686.00,0.0179
2685.00,0.0179
2684.00,0.0179
2683.00,0.0178
2682.00,0.0178
2681.00,0.0178
2680.00,0.0178
2679.00,0.0178
2678.00,0.0178
2677.00,0.0178
2676.00,0.0178
2675.00,0.0178
2674.00,0.0177
2673.00,0.0177
2672.00,0.0177
2671.00,0.0177
2670.00,0.0177
2669.00,0.0177
2668.00,0.0177
2667.00,0.0178
2666.00,0.0178
2665.00,0.0178
2664.00,0.0179
2663.00,0.0179
2662.00,0.0180
2661.00,0.0180
2660.00,0.0180
2659.00,0.0180
2658.00,0.0181
2657.00,0.0181
2656.00,0.0181
2655.00,0.0181
2654.00,0.0181
2653.00,0.0181
2652.00,0.0180
2651.00,0.0180
2650.00,0.0180
2649.00,0.0180
2648.00,0.0180
2647.00,0.0180
2646.00,0.0180
2645.00,0.0180
2644.00,0.0180
2643.00,0.0180
2642.00,0.0180
2641.00,0.0180
2640.00,0.0181
2639.00,0.0181
2638.00,0.0181
2637.00,0.0181
2636.00,0.0181
2635.00,0.0181
2634.00,0.0181
2633.00,0.0181
2632.00,0.0181
2631.00,0.0181
2630.00,0.0181
2629.00,0.0181
2628.00,0.0182
2627.00,0.0182
2626.00,0.0182
2625.00,0.0182
2624.00,0.0182
2623.00,0.0181
2622.00,0.0181
2621.00,0.0181
2620.00,0.0181
2619.00,0.0182
2618.00,0.0182
2617.00,0.0182
2616.00,0.0182
2615.00,0.0183
2614.00,0.0183
2613.00,0.0183
2612.00,0.0182
2611.00,0.0182
2610.00,0.0182
2609.00,0.0182
2608.00,0.0182
2607.00,0.0182
2606.00,0.0182
2605.00,0.0182
2604.00,0.0182
2603.00,0.0181
2602.00,0.0181
2601.00,0.0181
2600.00,0.0181
2599.00,0.0181
2598.00,0.0181
2597.00,0.0181
2596.00,0.0180
2595.00,0.0180
2594.00,0.0180
2593.00,0.0180
2592.00,0.0180
2591.00,0.0179
2590.00,0.0179
2589.00,0.0178
2588.00,0.0178
2587.00,0.0178
2586.00,0.0178
2585.00,0.0177
2584.00,0.0177
2583.00,0.0176
2582.00,0.0176
2581.00,0.0175
2580.00,0.0175
2579.00,0.0175
2578.00,0.0175
2577.00,0.0175
2576.00,0.0175
2575.00,0.0174
2574.00,0.0174
2573.00,0.0174
2572.00,0.0174
2571.00,0.0174
2570.00,0.0174
2569.00,0.0174
2568.00,0.0174
2567.00,0.0174
2566.00,0.0173
2565.00,0.0173
2564.00,0.0174
2563.00,0.0174
2562.00,0.0174
2561.00,0.0174
2560.00,0.0175
2559.00,0.0175
2558.00,0.0175
2557.00,0.0175
2556.00,0.0175
2555.00,0.0174
2554.00,0.0174
2553.00,0.0174
2552.00,0.0174
2551.00,0.0174
2550.00,0.0174
2549.00,0.0174
2548.00,0.0173
2547.00,0.0173
2546.00,0.0172
2545.00,0.0172
2544.00,0.0172
2543.00,0.0171
2542.00,0.0171
2541.00,0.0170
2540.00,0.0170
2539.00,0.0170
2538.00,0.0169
2537.00,0.0169
2536.00,0.0169
2535.00,0.0169
2534.00,0.0168
2533.00,0.0168
2532.00,0.0168
2531.00,0.0168
2530.00,0.0168
2529.00,0.0168
2528.00,0.0168
2527.00,0.0168
2526.00,0.0168
2525.00,0.0169
2524.00,0.0169
2523.00,0.0169
2522.00,0.0170
2521.00,0.0170
2520.00,0.0170
2519.00,0.0170
2518.00,0.0170
2517.00,0.0170
2516.00,0.0171
2515.00,0.0171
2514.00,0.0171
2513.00,0.0171
2512.00,0.0171
2511.00,0.0171
2510.00,0.0170
2509.00,0.0170
2508.00,0.0170
2507.00,0.0170
2506.00,0.0170
2505.00,0.0170
2504.00,0.0170
2503.00,0.0169
2502.00,0.0169
2501.00,0.0169
2500.00,0.0169
2499.00,0.0169
2498.00,0.0169
2497.00,0.0169
2496.00,0.0169
2495.00,0.0169
2494.00,0.0169
2493.00,0.0169
2492.00,0.0169
2491.00,0.0169
2490.00,0.0168
2489.00,0.0168
2488.00,0.0168
2487.00,0.0168
2486.00,0.0169
2485.00,0.0169
2484.00,0.0169
2483.00,0.0169
2482.00,0.0169
2481.00,0.0169
2480.00,0.0170
2479.00,0.0170
2478.00,0.0170
2477.00,0.0170
2476.00,0.0169
2475.00,0.0169
2474.00,0.0169
2473.00,0.0169
2472.00,0.0169
2471.00,0.0169
2470.00,0.0169
2469.00,0.0169
2468.00,0.0169
2467.00,0.0168
2466.00,0.0168
2465.00,0.0168
2464.00,0.0168
2463.00,0.0168
2462.00,0.0168
2461.00,0.0168
2460.00,0.0169
2459.00,0.0169
2458.00,0.0169
2457.00,0.0168
2456.00,0.0168
2455.00,0.0168
2454.00,0.0167
2453.00,0.0167
2452.00,0.0167
2451.00,0.0167
2450.00,0.0166
2449.00,0.0166
2448.00,0.0166
2447.00,0.0166
2446.00,0.0165
2445.00,0.0165
2444.00,0.0165
2443.00,0.0164
2442.00,0.0164
2441.00,0.0164
2440.00,0.0164
2439.00,0.0164
2438.00,0.0164
2437.00,0.0164
2436.00,0.0164
2435.00,0.0164
2434.00,0.0164
2433.00,0.0163
2432.00,0.0163
2431.00,0.0163
2430.00,0.0163
2429.00,0.0163
2428.00,0.0163
2427.00,0.0163
2426.00,0.0163
2425.00,0.0163
2424.00,0.0163
2423.00,0.0163
2422.00,0.0163
2421.00,0.0163
2420.00,0.0162
2419.00,0.0162
2418.00,0.0162
2417.00,0.0162
2416.00,0.0162
2415.00,0.0162
2414.00,0.0162
2413.00,0.0162
2412.00,0.0162
2411.00,0.0162
2410.00,0.0162
2409.00,0.0161
2408.00,0.0161
2407.00,0.0160
2406.00,0.0159
2405.00,0.0159
2404.00,0.0159
2403.00,0.0159
2402.00,0.0159
2401.00,0.0158
2400.00,0.0158
2399.00,0.0158
2398.00,0.0158
2397.00,0.0158
2396.00,0.0158
2395.00,0.0158
2394.00,0.0157
2393.00,0.0157
2392.00,0.0157
2391.00,0.0157
2390.00,0.0157
2389.00,0.0157
2388.00,0.0157
2387.00,0.0156
2386.00,0.0156
2385.00,0.0155
2384.00,0.0154
2383.00,0.0154
2382.00,0.0153
2381.00,0.0153
2380.00,0.0153
2379.00,0.0153
2378.00,0.0153
2377.00,0.0153
2376.00,0.0153
2375.00,0.0153
2374.00,0.0152
2373.00,0.0152
2372.00,0.0152
2371.00,0.0151
2370.00,0.0151
2369.00,0.0151
2368.00,0.0151
2367.00,0.0151
2366.00,0.0152
2365.00,0.0152
2364.00,0.0152
2363.00,0.0152
2362.00,0.0152
2361.00,0.0152
2360.00,0.0152
2359.00,0.0152
2358.00,0.0152
2357.00,0.0151
2356.00,0.0151
2355.00,0.0151
2354.00,0.0151
2353.00,0.0152
2352.00,0.0152
2351.00,0.0152
2350.00,0.0152
2349.00,0.0152
2348.00,0.0153
2347.00,0.0154
2346.00,0.0154
2345.00,0.0153
2344.00,0.0153
2343.00,0.0153
2342.00,0.0153
2341.00,0.0154
2340.00,0.0155
2339.00,0.0155
2338.00,0.0155
2337.00,0.0154
2336.00,0.0154
2335.00,0.0155
2334.00,0.0155
2333.00,0.0155
2332.00,0.0154
2331.00,0.0154
2330.00,0.0154
2329.00,0.0156
2328.00,0.0160
2327.00,0.0164
2326.00,0.0167
2325.00,0.0168
2324.00,0.0166
2323.00,0.0164
2322.00,0.0161
2321.00,0.0159
2320.00,0.0158
2319.00,0.0157
2318.00,0.0157
2317.00,0.0156
2316.00,0.0157
2315.00,0.0156
2314.00,0.0155
2313.00,0.0155
2312.00,0.0154
2311.00,0.0154
2310.00,0.0154
2309.00,0.0154
2308.00,0.0154
2307.00,0.0155
2306.00,0.0155
2305.00,0.0155
2304.00,0.0155
2303.00,0.0155
2302.00,0.0155
2301.00,0.0156
2300.00,0.0157
2299.00,0.0157
2298.00,0.0157
2297.00,0.0158
2296.00,0.0158
2295.00,0.0159
2294.00,0.0160
2293.00,0.0160
2292.00,0.0161
2291.00,0.0162
2290.00,0.0163
2289.00,0.0164
2288.00,0.0164
2287.00,0.0164
2286.00,0.0163
2285.00,0.0162
2284.00,0.0162
2283.00,0.0161
2282.00,0.0160
2281.00,0.0159
2280.00,0.0158
2279.00,0.0158
2278.00,0.0158
2277.00,0.0157
2276.00,0.0157
2275.00,0.0157
2274.00,0.0156
2273.00,0.0155
2272.00,0.0154
2271.00,0.0154
2270.00,0.0153
2269.00,0.0152
2268.00,0.0152
2267.00,0.0152
2266.00,0.0152
2265.00,0.0152
2264.00,0.0153
2263.00,0.0153
2262.00,0.0153
2261.00,0.0152
2260.00,0.0152
2259.00,0.0153
2258.00,0.0153
2257.00,0.0153
2256.00,0.0152
2255.00,0.0151
2254.00,0.0150
2253.00,0.0150
2252.00,0.0151
2251.00,0.0151
2250.00,0.0151
2249.00,0.0151
2248.00,0.0151
2247.00,0.0150
2246.00,0.0150
2245.00,0.0149
2244.00,0.0149
2243.00,0.0149
2242.00,0.0148
2241.00,0.0149
2240.00,0.0149
2239.00,0.0149
2238.00,0.0148
2237.00,0.0147
2236.00,0.0147
2235.00,0.0147
2234.00,0.0146
2233.00,0.0146
2232.00,0.0145
2231.00,0.0145
2230.00,0.0144
2229.00,0.0143
2228.00,0.0143
2227.00,0.0143
2226.00,0.0143
2225.00,0.0144
2224.00,0.0144
2223.00,0.0144
2222.00,0.0144
2221.00,0.0144
2220.00,0.0144
2219.00,0.0143
2218.00,0.0141
2217.00,0.0141
2216.00,0.0141
2215.00,0.0140
2214.00,0.0139
2213.00,0.0138
2212.00,0.0137
2211.00,0.0137
2210.00,0.0137
2209.00,0.0137
2208.00,0.0137
2207.00,0.0136
2206.00,0.0135
2205.00,0.0135
2204.00,0.0135
2203.00,0.0135
2202.00,0.0134
2201.00,0.0133
2200.00,0.0133
2199.00,0.0132
2198.00,0.0131
2197.00,0.0131
2196.00,0.0131
2195.00,0.0132
2194.00,0.0132
2193.00,0.0133
2192.00,0.0134
2191.00,0.0133
2190.00,0.0132
2189.00,0.0132
2188.00,0.0133
2187.00,0.0134
2186.00,0.0133
2185.00,0.0131
2184.00,0.0129
2183.00,0.0128
2182.00,0.0127
2181.00,0.0129
2180.00,0.0131
2179.00,0.0131
2178.00,0.0129
2177.00,0.0126
2176.00,0.0125
2175.00,0.0126
2174.00,0.0128
2173.00,0.0131
2172.00,0.0135
2171.00,0.0139
2170.00,0.0142
2169.00,0.0144
2168.00,0.0147
2167.00,0.0148
2166.00,0.0147
2165.00,0.0148
2164.00,0.0150
2163.00,0.0150
2162.00,0.0143
2161.00,0.0130
2160.00,0.0116
2159.00,0.0106
2158.00,0.0102
2157.00,0.0105
2156.00,0.0110
2155.00,0.0115
2154.00,0.0117
2153.00,0.0119
2152.00,0.0121
2151.00,0.0122
2150.00,0.0121
2149.00,0.0121
2148.00,0.0121
2147.00,0.0121
2146.00,0.0120
2145.00,0.0119
2144.00,0.0120
2143.00,0.0121
2142.00,0.0122
2141.00,0.0123
2140.00,0.0123
2139.00,0.0123
2138.00,0.0120
2137.00,0.0118
2136.00,0.0117
2135.00,0.0116
2134.00,0.0115
2133.00,0.0117
2132.00,0.0119
2131.00,0.0120
2130.00,0.0121
2129.00,0.0122
2128.00,0.0124
2127.00,0.0124
2126.00,0.0124
2125.00,0.0124
2124.00,0.0125
2123.00,0.0125
2122.00,0.0125
2121.00,0.0125
2120.00,0.0127
2119.00,0.0128
2118.00,0.0129
2117.00,0.0131
2116.00,0.0132
2115.00,0.0133
2114.00,0.0133
2113.00,0.0133
2112.00,0.0134
2111.00,0.0135
2110.00,0.0135
2109.00,0.0135
2108.00,0.0135
2107.00,0.0134
2106.00,0.0134
2105.00,0.0134
2104.00,0.0135
2103.00,0.0136
2102.00,0.0136
2101.00,0.0136
2100.00,0.0136
2099.00,0.0136
2098.00,0.0134
2097.00,0.0132
2096.00,0.0131
2095.00,0.0129
2094.00,0.0128
2093.00,0.0129
2092.00,0.0131
2091.00,0.0132
2090.00,0.0133
2089.00,0.0134
2088.00,0.0134
2087.00,0.0133
2086.00,0.0132
2085.00,0.0132
2084.00,0.0133
2083.00,0.0133
2082.00,0.0133
2081.00,0.0133
2080.00,0.0133
2079.00,0.0133
2078.00,0.0133
2077.00,0.0133
2076.00,0.0134
2075.00,0.0134
2074.00,0.0133
2073.00,0.0133
2072.00,0.0133
2071.00,0.0133
2070.00,0.0131
2069.00,0.0131
2068.00,0.0131
2067.00,0.0130
2066.00,0.0129
2065.00,0.0129
2064.00,0.0129
2063.00,0.0129
2062.00,0.0129
2061.00,0.0128
2060.00,0.0128
2059.00,0.0128
2058.00,0.0127
2057.00,0.0127
2056.00,0.0127
2055.00,0.0129
2054.00,0.0131
2053.00,0.0135
2052.00,0.0138
2051.00,0.0137
2050.00,0.0131
2049.00,0.0125
2048.00,0.0122
2047.00,0.0120
2046.00,0.0119
2045.00,0.0119
2044.00,0.0119
2043.00,0.0120
2042.00,0.0119
2041.00,0.0119
2040.00,0.0121
2039.00,0.0122
2038.00,0.0121
2037.00,0.0121
2036.00,0.0120
2035.00,0.0116
2034.00,0.0112
2033.00,0.0110
2032.00,0.0110
2031.00,0.0110
2030.00,0.0109
2029.00,0.0108
2028.00,0.0109
2027.00,0.0109
2026.00,0.0108
2025.00,0.0109
2024.00,0.0111
2023.00,0.0112
2022.00,0.0111
2021.00,0.0112
2020.00,0.0114
2019.00,0.0115
2018.00,0.0114
2017.00,0.0114
2016.00,0.0116
2015.00,0.0116
2014.00,0.0115
2013.00,0.0115
2012.00,0.0116
2011.00,0.0116
2010.00,0.0113
2009.00,0.0111
2008.00,0.0110
2007.00,0.0109
2006.00,0.0107
2005.00,0.0108
2004.00,0.0110
2003.00,0.0112
2002.00,0.0113
2001.00,0.0115
2000.00,0.0117
1999.00,0.0118
1998.00,0.0118
1997.00,0.0118
1996.00,0.0119
1995.00,0.0119
1994.00,0.0118
1993.00,0.0118
1992.00,0.0120
1991.00,0.0122
1990.00,0.0123
1989.00,0.0124
1988.00,0.0127
1987.00,0.0128
1986.00,0.0127
1985.00,0.0128
1984.00,0.0132
1983.00,0.0135
1982.00,0.0137
1981.00,0.0137
1980.00,0.0134
1979.00,0.0127
1978.00,0.0120
1977.00,0.0116
1976.00,0.0116
1975.00,0.0115
1974.00,0.0113
1973.00,0.0111
1972.00,0.0111
1971.00,0.0110
1970.00,0.0109
1969.00,0.0109
1968.00,0.0112
1967.00,0.0113
1966.00,0.0112
1965.00,0.0111
1964.00,0.0111
1963.00,0.0110
1962.00,0.0107
1961.00,0.0105
1960.00,0.0105
1959.00,0.0106
1958.00,0.0105
1957.00,0.0106
1956.00,0.0108
1955.00,0.0109
1954.00,0.0108
1953.00,0.0108
1952.00,0.0109
1951.00,0.0109
1950.00,0.0108
1949.00,0.0108
1948.00,0.0109
1947.00,0.0110
1946.00,0.0109
1945.00,0.0109
1944.00,0.0111
1943.00,0.0112
1942.00,0.0112
1941.00,0.0114
1940.00,0.0116
1939.00,0.0116
1938.00,0.0114
1937.00,0.0113
1936.00,0.0113
1935.00,0.0113
1934.00,0.0112
1933.00,0.0113
1932.00,0.0114
1931.00,0.0114
1930.00,0.0114
1929.00,0.0114
1928.00,0.0116
1927.00,0.0116
1926.00,0.0116
1925.00,0.0116
1924.00,0.0118
1923.00,0.0120
1922.00,0.0121
1921.00,0.0122
1920.00,0.0123
1919.00,0.0125
1918.00,0.0126
1917.00,0.0127
1916.00,0.0129
1915.00,0.0129
1914.00,0.0128
1913.00,0.0127
1912.00,0.0126
1911.00,0.0125
1910.00,0.0123
1909.00,0.0122
1908.00,0.0122
1907.00,0.0121
1906.00,0.0120
1905.00,0.0119
1904.00,0.0119
1903.00,0.0118
1902.00,0.0117
1901.00,0.0116
1900.00,0.0116
1899.00,0.0116
1898.00,0.0115
1897.00,0.0115
1896.00,0.0115
1895.00,0.0115
1894.00,0.0114
1893.00,0.0114
1892.00,0.0115
1891.00,0.0115
1890.00,0.0115
1889.00,0.0115
1888.00,0.0117
1887.00,0.0117
1886.00,0.0117
1885.00,0.0116
1884.00,0.0117
1883.00,0.0116
1882.00,0.0116
1881.00,0.0115
1880.00,0.0116
1879.00,0.0116
1878.00,0.0115
1877.00,0.0115
1876.00,0.0115
1875.00,0.0115
1874.00,0.0114
1873.00,0.0114
1872.00,0.0114
1871.00,0.0114
1870.00,0.0113
1869.00,0.0113
1868.00,0.0114
1867.00,0.0114
1866.00,0.0113
1865.00,0.0113
1864.00,0.0113
1863.00,0.0114
1862.00,0.0113
1861.00,0.0113
1860.00,0.0115
1859.00,0.0116
1858.00,0.0116
1857.00,0.0117
1856.00,0.0119
1855.00,0.0120
1854.00,0.0120
1853.00,0.0120
1852.00,0.0120
1851.00,0.0119
1850.00,0.0117
1849.00,0.0115
1848.00,0.0114
1847.00,0.0113
1846.00,0.0111
1845.00,0.0111
1844.00,0.0112
1843.00,0.0112
1842.00,0.0111
1841.00,0.0111
1840.00,0.0111
1839.00,0.0110
1838.00,0.0110
1837.00,0.0109
1836.00,0.0109
1835.00,0.0109
1834.00,0.0108
1833.00,0.0107
1832.00,0.0107
1831.00,0.0108
1830.00,0.0107
1829.00,0.0106
1828.00,0.0106
1827.00,0.0106
1826.00,0.0105
1825.00,0.0106
1824.00,0.0106
1823.00,0.0106
1822.00,0.0105
1821.00,0.0104
1820.00,0.0103
1819.00,0.0102
1818.00,0.0101
1817.00,0.0101
1816.00,0.0102
1815.00,0.0103
1814.00,0.0103
1813.00,0.0104
1812.00,0.0105
1811.00,0.0105
1810.00,0.0105
1809.00,0.0105
1808.00,0.0106
1807.00,0.0106
1806.00,0.0106
1805.00,0.0105
1804.00,0.0106
1803.00,0.0106
1802.00,0.0106
1801.00,0.0107
1800.00,0.0108
1799.00,0.0108
1798.00,0.0109
1797.00,0.0109
1796.00,0.0110
1795.00,0.0110
1794.00,0.0110
1793.00,0.0110
1792.00,0.0111
1791.00,0.0111
1790.00,0.0110
1789.00,0.0109
1788.00,0.0108
1787.00,0.0107
1786.00,0.0106
1785.00,0.0106
1784.00,0.0107
1783.00,0.0108
1782.00,0.0107
1781.00,0.0106
1780.00,0.0106
1779.00,0.0106
1778.00,0.0105
1777.00,0.0105
1776.00,0.0106
1775.00,0.0106
1774.00,0.0106
1773.00,0.0106
1772.00,0.0107
1771.00,0.0107
1770.00,0.0106
1769.00,0.0105
1768.00,0.0107
1767.00,0.0107
1766.00,0.0107
1765.00,0.0107
1764.00,0.0108
1763.00,0.0109
1762.00,0.0109
1761.00,0.0110
1760.00,0.0112
1759.00,0.0112
1758.00,0.0112
1757.00,0.0112
1756.00,0.0113
1755.00,0.0113
1754.00,0.0111
1753.00,0.0111
1752.00,0.0113
1751.00,0.0115
1750.00,0.0115
1749.00,0.0116
1748.00,0.0117
1747.00,0.0117
1746.00,0.0116
1745.00,0.0116
1744.00,0.0117
1743.00,0.0117
1742.00,0.0116
1741.00,0.0117
1740.00,0.0119
1739.00,0.0120
1738.00,0.0119
1737.00,0.0118
1736.00,0.0119
1735.00,0.0121
1734.00,0.0123
1733.00,0.0126
1732.00,0.0129
1731.00,0.0129
1730.00,0.0129
1729.00,0.0129
1728.00,0.0131
1727.00,0.0133
1726.00,0.0133
1725.00,0.0135
1724.00,0.0139
1723.00,0.0142
1722.00,0.0143
1721.00,0.0145
1720.00,0.0152
1719.00,0.0160
1718.00,0.0168
1717.00,0.0182
1716.00,0.0199
1715.00,0.0215
1714.00,0.0232
1713.00,0.0254
1712.00,0.0283
1711.00,0.0316
1710.00,0.0355
1709.00,0.0405
1708.00,0.0469
1707.00,0.0551
1706.00,0.0657
1705.00,0.0778
1704.00,0.0889
1703.00,0.0983
1702.00,0.1087
1701.00,0.1244
1700.00,0.1435
1699.00,0.1577
1698.00,0.1646
1697.00,0.1686
1696.00,0.1727
1695.00,0.1763
1694.00,0.1781
1693.00,0.1785
1692.00,0.1792
1691.00,0.1814
1690.00,0.1844
1689.00,0.1866
1688.00,0.1864
1687.00,0.1834
1686.00,0.1782
1685.00,0.1707
1684.00,0.1611
1683.00,0.1508
1682.00,0.1405
1681.00,0.1298
1680.00,0.1191
1679.00,0.1092
1678.00,0.1004
1677.00,0.0923
1676.00,0.0846
1675.00,0.0780
1674.00,0.0727
1673.00,0.0683
1672.00,0.0645
1671.00,0.0612
1670.00,0.0585
1669.00,0.0561
1668.00,0.0538
1667.00,0.0519
1666.00,0.0502
1665.00,0.0485
1664.00,0.0470
1663.00,0.0457
1662.00,0.0448
1661.00,0.0439
1660.00,0.0431
1659.00,0.0425
1658.00,0.0421
1657.00,0.0417
1656.00,0.0413
1655.00,0.0417
1654.00,0.0439
1653.00,0.0481
1652.00,0.0522
1651.00,0.0550
1650.00,0.0574
1649.00,0.0606
1648.00,0.0658
1647.00,0.0730
1646.00,0.0804
1645.00,0.0852
1644.00,0.0870
1643.00,0.0865
1642.00,0.0844
1641.00,0.0812
1640.00,0.0772
1639.00,0.0731
1638.00,0.0691
1637.00,0.0657
1636.00,0.0632
1635.00,0.0620
1634.00,0.0617
1633.00,0.0619
1632.00,0.0627
1631.00,0.0644
1630.00,0.0672
1629.00,0.0713
1628.00,0.0764
1627.00,0.0817
1626.00,0.0867
1625.00,0.0916
1624.00,0.0971
1623.00,0.1025
1622.00,0.1066
1621.00,0.1082
1620.00,0.1081
1619.00,0.1070
1618.00,0.1051
1617.00,0.1025
1616.00,0.0991
1615.00,0.0953
1614.00,0.0909
1613.00,0.0863
1612.00,0.0818
1611.00,0.0775
1610.00,0.0735
1609.00,0.0697
1608.00,0.0662
1607.00,0.0631
1606.00,0.0602
1605.00,0.0576
1604.00,0.0551
1603.00,0.0529
1602.00,0.0508
1601.00,0.0488
1600.00,0.0469
1599.00,0.0452
1598.00,0.0437
1597.00,0.0422
1596.00,0.0408
1595.00,0.0395
1594.00,0.0385
1593.00,0.0376
1592.00,0.0367
1591.00,0.0359
1590.00,0.0351
1589.00,0.0343
1588.00,0.0335
1587.00,0.0328
1586.00,0.0324
1585.00,0.0322
1584.00,0.0323
1583.00,0.0327
1582.00,0.0330
1581.00,0.0330
1580.00,0.0325
1579.00,0.0316
1578.00,0.0304
1577.00,0.0291
1576.00,0.0279
1575.00,0.0270
1574.00,0.0262
1573.00,0.0255
1572.00,0.0247
1571.00,0.0242
1570.00,0.0237
1569.00,0.0234
1568.00,0.0231
1567.00,0.0229
1566.00,0.0231
1565.00,0.0235
1564.00,0.0240
1563.00,0.0244
1562.00,0.0245
1561.00,0.0245
1560.00,0.0243
1559.00,0.0236
1558.00,0.0227
1557.00,0.0219
1556.00,0.0213
1555.00,0.0208
1554.00,0.0204
1553.00,0.0202
1552.00,0.0199
1551.00,0.0197
1550.00,0.0195
1549.00,0.0194
1548.00,0.0191
1547.00,0.0190
1546.00,0.0189
1545.00,0.0188
1544.00,0.0186
1543.00,0.0185
1542.00,0.0185
1541.00,0.0185
1540.00,0.0185
1539.00,0.0187
1538.00,0.0189
1537.00,0.0190
1536.00,0.0189
1535.00,0.0190
1534.00,0.0194
1533.00,0.0197
1532.00,0.0200
1531.00,0.0202
1530.00,0.0203
1529.00,0.0205
1528.00,0.0206
1527.00,0.0209
1526.00,0.0213
1525.00,0.0216
1524.00,0.0220
1523.00,0.0225
1522.00,0.0233
1521.00,0.0244
1520.00,0.0254
1519.00,0.0264
1518.00,0.0276
1517.00,0.0291
1516.00,0.0309
1515.00,0.0327
1514.00,0.0346
1513.00,0.0368
1512.00,0.0394
1511.00,0.0423
1510.00,0.0453
1509.00,0.0489
1508.00,0.0546
1507.00,0.0641
1506.00,0.0760
1505.00,0.0866
1504.00,0.0954
1503.00,0.1041
1502.00,0.1141
1501.00,0.1257
1500.00,0.1383
1499.00,0.1515
1498.00,0.1650
1497.00,0.1777
1496.00,0.1875
1495.00,0.1930
1494.00,0.1942
1493.00,0.1919
1492.00,0.1873
1491.00,0.1812
1490.00,0.1742
1489.00,0.1663
1488.00,0.1575
1487.00,0.1487
1486.00,0.1404
1485.00,0.1325
1484.00,0.1250
1483.00,0.1180
1482.00,0.1117
1481.00,0.1059
1480.00,0.1007
1479.00,0.0960
1478.00,0.0919
1477.00,0.0882
1476.00,0.0847
1475.00,0.0815
1474.00,0.0787
1473.00,0.0763
1472.00,0.0744
1471.00,0.0728
1470.00,0.0713
1469.00,0.0700
1468.00,0.0687
1467.00,0.0678
1466.00,0.0677
1465.00,0.0682
1464.00,0.0691
1463.00,0.0699
1462.00,0.0703
1461.00,0.0701
1460.00,0.0695
1459.00,0.0684
1458.00,0.0672
1457.00,0.0660
1456.00,0.0651
1455.00,0.0642
1454.00,0.0636
1453.00,0.0634
1452.00,0.0638
1451.00,0.0652
1450.00,0.0682
1449.00,0.0737
1448.00,0.0812
1447.00,0.0887
1446.00,0.0930
1445.00,0.0929
1444.00,0.0891
1443.00,0.0835
1442.00,0.0782
1441.00,0.0741
1440.00,0.0713
1439.00,0.0699
1438.00,0.0702
1437.00,0.0731
1436.00,0.0783
1435.00,0.0841
1434.00,0.0895
1433.00,0.0940
1432.00,0.0967
1431.00,0.0969
1430.00,0.0944
1429.00,0.0905
1428.00,0.0861
1427.00,0.0817
1426.00,0.0777
1425.00,0.0745
1424.00,0.0732
1423.00,0.0748
1422.00,0.0801
1421.00,0.0902
1420.00,0.1051
1419.00,0.1201
1418.00,0.1274
1417.00,0.1248
1416.00,0.1159
1415.00,0.1051
1414.00,0.0949
1413.00,0.0860
1412.00,0.0783
1411.00,0.0718
1410.00,0.0664
1409.00,0.0620
1408.00,0.0583
1407.00,0.0551
1406.00,0.0524
1405.00,0.0501
1404.00,0.0479
1403.00,0.0460
1402.00,0.0444
1401.00,0.0430
1400.00,0.0418
1399.00,0.0410
1398.00,0.0403
1397.00,0.0398
1396.00,0.0393
1395.00,0.0392
1394.00,0.0394
1393.00,0.0398
1392.00,0.0405
1391.00,0.0415
1390.00,0.0431
1389.00,0.0458
1388.00,0.0498
1387.00,0.0554
1386.00,0.0618
1385.00,0.0683
1384.00,0.0746
1383.00,0.0803
1382.00,0.0846
1381.00,0.0867
1380.00,0.0862
1379.00,0.0829
1378.00,0.0777
1377.00,0.0714
1376.00,0.0648
1375.00,0.0586
1374.00,0.0534
1373.00,0.0496
1372.00,0.0471
1371.00,0.0457
1370.00,0.0455
1369.00,0.0463
1368.00,0.0482
1367.00,0.0511
1366.00,0.0546
1365.00,0.0576
1364.00,0.0589
1363.00,0.0575
1362.00,0.0535
1361.00,0.0482
1360.00,0.0430
1359.00,0.0385
1358.00,0.0349
1357.00,0.0320
1356.00,0.0298
1355.00,0.0280
1354.00,0.0266
1353.00,0.0256
1352.00,0.0247
1351.00,0.0240
1350.00,0.0234
1349.00,0.0229
1348.00,0.0225
1347.00,0.0221
1346.00,0.0218
1345.00,0.0216
1344.00,0.0213
1343.00,0.0211
1342.00,0.0210
1341.00,0.0209
1340.00,0.0208
1339.00,0.0207
1338.00,0.0207
1337.00,0.0207
1336.00,0.0207
1335.00,0.0207
1334.00,0.0207
1333.00,0.0207
1332.00,0.0208
1331.00,0.0209
1330.00,0.0211
1329.00,0.0213
1328.00,0.0216
1327.00,0.0220
1326.00,0.0224
1325.00,0.0230
1324.00,0.0238
1323.00,0.0248
1322.00,0.0262
1321.00,0.0279
1320.00,0.0300
1319.00,0.0323
1318.00,0.0349
1317.00,0.0376
1316.00,0.0404
1315.00,0.0436
1314.00,0.0479
1313.00,0.0538
1312.00,0.0617
1311.00,0.0714
1310.00,0.0823
1309.00,0.0926
1308.00,0.1003
1307.00,0.1039
1306.00,0.1029
1305.00,0.0982
1304.00,0.0912
1303.00,0.0832
1302.00,0.0753
1301.00,0.0682
1300.00,0.0624
1299.00,0.0579
1298.00,0.0549
1297.00,0.0533
1296.00,0.0529
1295.00,0.0537
1294.00,0.0554
1293.00,0.0578
1292.00,0.0609
1291.00,0.0646
1290.00,0.0689
1289.00,0.0739
1288.00,0.0797
1287.00,0.0865
1286.00,0.0946
1285.00,0.1041
1284.00,0.1151
1283.00,0.1275
1282.00,0.1413
1281.00,0.1560
1280.00,0.1709
1279.00,0.1846
1278.00,0.1956
1277.00,0.2028
1276.00,0.2051
1275.00,0.2025
1274.00,0.1958
1273.00,0.1861
1272.00,0.1746
1271.00,0.1624
1270.00,0.1502
1269.00,0.1385
1268.00,0.1275
1267.00,0.1173
1266.00,0.1080
1265.00,0.0996
1264.00,0.0920
1263.00,0.0851
1262.00,0.0789
1261.00,0.0731
1260.00,0.0679
1259.00,0.0633
1258.00,0.0591
1257.00,0.0555
1256.00,0.0524
1255.00,0.0498
1254.00,0.0479
1253.00,0.0469
1252.00,0.0467
1251.00,0.0472
1250.00,0.0477
1249.00,0.0476
1248.00,0.0467
1247.00,0.0449
1246.00,0.0427
1245.00,0.0405
1244.00,0.0385
1243.00,0.0368
1242.00,0.0354
1241.00,0.0343
1240.00,0.0333
1239.00,0.0325
1238.00,0.0318
1237.00,0.0314
1236.00,0.0310
1235.00,0.0308
1234.00,0.0307
1233.00,0.0309
1232.00,0.0312
1231.00,0.0316
1230.00,0.0322
1229.00,0.0330
1228.00,0.0338
1227.00,0.0348
1226.00,0.0358
1225.00,0.0370
1224.00,0.0384
1223.00,0.0400
1222.00,0.0420
1221.00,0.0445
1220.00,0.0473
1219.00,0.0506
1218.00,0.0542
1217.00,0.0581
1216.00,0.0625
1215.00,0.0680
1214.00,0.0751
1213.00,0.0844
1212.00,0.0961
1211.00,0.1102
1210.00,0.1263
1209.00,0.1434
1208.00,0.1603
1207.00,0.1756
1206.00,0.1881
1205.00,0.1970
1204.00,0.2020
1203.00,0.2030
1202.00,0.2006
1201.00,0.1952
1200.00,0.1875
1199.00,0.1783
1198.00,0.1685
1197.00,0.1589
1196.00,0.1504
1195.00,0.1433
1194.00,0.1382
1193.00,0.1351
1192.00,0.1337
1191.00,0.1335
1190.00,0.1338
1189.00,0.1337
1188.00,0.1326
1187.00,0.1301
1186.00,0.1263
1185.00,0.1214
1184.00,0.1158
1183.00,0.1098
1182.00,0.1040
1181.00,0.0988
1180.00,0.0944
1179.00,0.0912
1178.00,0.0893
1177.00,0.0890
1176.00,0.0902
1175.00,0.0928
1174.00,0.0959
1173.00,0.0982
1172.00,0.0982
1171.00,0.0953
1170.00,0.0896
1169.00,0.0822
1168.00,0.0744
1167.00,0.0670
1166.00,0.0606
1165.00,0.0553
1164.00,0.0509
1163.00,0.0474
1162.00,0.0448
1161.00,0.0428
1160.00,0.0415
1159.00,0.0409
1158.00,0.0413
1157.00,0.0429
1156.00,0.0452
1155.00,0.0477
1154.00,0.0496
1153.00,0.0501
1152.00,0.0498
1151.00,0.0497
1150.00,0.0509
1149.00,0.0540
1148.00,0.0594
1147.00,0.0669
1146.00,0.0761
1145.00,0.0862
1144.00,0.0964
1143.00,0.1058
1142.00,0.1140
1141.00,0.1207
1140.00,0.1260
1139.00,0.1298
1138.00,0.1321
1137.00,0.1328
1136.00,0.1316
1135.00,0.1286
1134.00,0.1240
1133.00,0.1181
1132.00,0.1115
1131.00,0.1047
1130.00,0.0982
1129.00,0.0924
1128.00,0.0876
1127.00,0.0841
1126.00,0.0821
1125.00,0.0817
1124.00,0.0832
1123.00,0.0869
1122.00,0.0933
1121.00,0.1025
1120.00,0.1145
1119.00,0.1286
1118.00,0.1435
1117.00,0.1570
1116.00,0.1670
1115.00,0.1720
1114.00,0.1716
1113.00,0.1670
1112.00,0.1598
1111.00,0.1521
1110.00,0.1456
1109.00,0.1418
1108.00,0.1414
1107.00,0.1446
1106.00,0.1507
1105.00,0.1587
1104.00,0.1680
1103.00,0.1789
1102.00,0.1921
1101.00,0.2077
1100.00,0.2238
1099.00,0.2381
1098.00,0.2482
1097.00,0.2529
1096.00,0.2524
1095.00,0.2472
1094.00,0.2386
1093.00,0.2277
1092.00,0.2157
1091.00,0.2033
1090.00,0.1910
1089.00,0.1791
1088.00,0.1680
1087.00,0.1575
1086.00,0.1479
1085.00,0.1392
1084.00,0.1313
1083.00,0.1241
1082.00,0.1176
1081.00,0.1117
1080.00,0.1064
1079.00,0.1014
1078.00,0.0969
1077.00,0.0927
1076.00,0.0888
1075.00,0.0852
1074.00,0.0820
1073.00,0.0792
1072.00,0.0769
1071.00,0.0754
1070.00,0.0747
1069.00,0.0750
1068.00,0.0766
1067.00,0.0796
1066.00,0.0843
1065.00,0.0906
1064.00,0.0985
1063.00,0.1071
1062.00,0.1156
1061.00,0.1228
1060.00,0.1274
1059.00,0.1292
1058.00,0.1280
1057.00,0.1247
1056.00,0.1198
1055.00,0.1144
1054.00,0.1089
1053.00,0.1038
1052.00,0.0995
1051.00,0.0959
1050.00,0.0934
1049.00,0.0922
1048.00,0.0925
1047.00,0.0948
1046.00,0.0992
1045.00,0.1054
1044.00,0.1123
1043.00,0.1183
1042.00,0.1219
1041.00,0.1225
1040.00,0.1204
1039.00,0.1166
1038.00,0.1125
1037.00,0.1088
1036.00,0.1062
1035.00,0.1047
1034.00,0.1044
1033.00,0.1052
1032.00,0.1072
1031.00,0.1102
1030.00,0.1143
1029.00,0.1193
1028.00,0.1247
1027.00,0.1302
1026.00,0.1350
1025.00,0.1386
1024.00,0.1406
1023.00,0.1408
1022.00,0.1393
1021.00,0.1362
1020.00,0.1320
1019.00,0.1269
1018.00,0.1214
1017.00,0.1158
1016.00,0.1104
1015.00,0.1053
1014.00,0.1007
1013.00,0.0965
1012.00,0.0927
1011.00,0.0895
1010.00,0.0868
1009.00,0.0846
1008.00,0.0828
1007.00,0.0813
1006.00,0.0798
1005.00,0.0782
1004.00,0.0763
1003.00,0.0739
1002.00,0.0715
1001.00,0.0690
1000.00,0.0668
999.00,0.0648
998.00,0.0631
997.00,0.0616
996.00,0.0603
995.00,0.0592
994.00,0.0582
993.00,0.0573
992.00,0.0565
991.00,0.0558
990.00,0.0553
989.00,0.0548
988.00,0.0545
987.00,0.0543
986.00,0.0544
985.00,0.0545
984.00,0.0549
983.00,0.0553
982.00,0.0560
981.00,0.0568
980.00,0.0577
979.00,0.0586
978.00,0.0594
977.00,0.0600
976.00,0.0602
975.00,0.0600
974.00,0.0594
973.00,0.0583
972.00,0.0569
971.00,0.0551
970.00,0.0533
969.00,0.0514
968.00,0.0496
967.00,0.0479
966.00,0.0464
965.00,0.0453
964.00,0.0445
963.00,0.0442
962.00,0.0442
961.00,0.0445
960.00,0.0450
959.00,0.0455
958.00,0.0460
957.00,0.0463
956.00,0.0463
955.00,0.0458
954.00,0.0447
953.00,0.0434
952.00,0.0419
951.00,0.0406
950.00,0.0395
949.00,0.0385
948.00,0.0376
947.00,0.0368
946.00,0.0361
945.00,0.0355
944.00,0.0350
943.00,0.0345
942.00,0.0340
941.00,0.0337
940.00,0.0333
939.00,0.0330
938.00,0.0327
937.00,0.0325
936.00,0.0322
935.00,0.0320
934.00,0.0318
933.00,0.0316
932.00,0.0314
931.00,0.0312
930.00,0.0310
929.00,0.0309
928.00,0.0308
927.00,0.0306
926.00,0.0305
925.00,0.0303
924.00,0.0301
923.00,0.0299
922.00,0.0297
921.00,0.0296
920.00,0.0294
919.00,0.0292
918.00,0.0290
917.00,0.0289
916.00,0.0288
915.00,0.0287
914.00,0.0285
913.00,0.0284
912.00,0.0283
911.00,0.0282
910.00,0.0281
909.00,0.0280
908.00,0.0279
907.00,0.0278
906.00,0.0277
905.00,0.0277
904.00,0.0276
903.00,0.0277
902.00,0.0278
901.00,0.0279
900.00,0.0280
899.00,0.0281
898.00,0.0279
897.00,0.0277
896.00,0.0273
895.00,0.0270
894.00,0.0267
893.00,0.0265
892.00,0.0263
891.00,0.0262
890.00,0.0260
889.00,0.0259
888.00,0.0258
887.00,0.0257
886.00,0.0256
885.00,0.0256
884.00,0.0257
883.00,0.0258
882.00,0.0262
881.00,0.0267
880.00,0.0271
879.00,0.0274
878.00,0.0274
877.00,0.0273
876.00,0.0271
875.00,0.0269
874.00,0.0269
873.00,0.0272
872.00,0.0279
871.00,0.0292
870.00,0.0314
869.00,0.0350
868.00,0.0406
867.00,0.0485
866.00,0.0582
865.00,0.0681
864.00,0.0754
863.00,0.0781
862.00,0.0761
861.00,0.0711
860.00,0.0660
859.00,0.0627
858.00,0.0617
857.00,0.0617
856.00,0.0614
855.00,0.0594
854.00,0.0557
853.00,0.0510
852.00,0.0463
851.00,0.0421
850.00,0.0388
849.00,0.0363
848.00,0.0343
847.00,0.0327
846.00,0.0316
845.00,0.0307
844.00,0.0300
843.00,0.0294
842.00,0.0289
841.00,0.0284
840.00,0.0279
839.00,0.0275
838.00,0.0270
837.00,0.0266
836.00,0.0262
835.00,0.0258
834.00,0.0256
833.00,0.0255
832.00,0.0254
831.00,0.0255
830.00,0.0259
829.00,0.0266
828.00,0.0278
827.00,0.0296
826.00,0.0318
825.00,0.0339
824.00,0.0352
823.00,0.0354
822.00,0.0344
821.00,0.0328
820.00,0.0312
819.00,0.0299
818.00,0.0290
817.00,0.0284
816.00,0.0280
815.00,0.0278
814.00,0.0277
813.00,0.0279
812.00,0.0285
811.00,0.0295
810.00,0.0311
809.00,0.0337
808.00,0.0377
807.00,0.0440
806.00,0.0537
805.00,0.0681
804.00,0.0871
803.00,0.1082
802.00,0.1256
801.00,0.1332
800.00,0.1285
799.00,0.1145
798.00,0.0970
797.00,0.0807
796.00,0.0678
795.00,0.0582
794.00,0.0514
793.00,0.0469
792.00,0.0442
791.00,0.0428
790.00,0.0419
789.00,0.0406
788.00,0.0386
787.00,0.0362
786.00,0.0339
785.00,0.0322
784.00,0.0312
783.00,0.0308
782.00,0.0309
781.00,0.0317
780.00,0.0330
779.00,0.0349
778.00,0.0374
777.00,0.0409
776.00,0.0458
775.00,0.0529
774.00,0.0624
773.00,0.0738
772.00,0.0852
771.00,0.0937
770.00,0.0970
769.00,0.0943
768.00,0.0869
767.00,0.0771
766.00,0.0671
765.00,0.0585
764.00,0.0516
763.00,0.0464
762.00,0.0426
761.00,0.0399
760.00,0.0379
759.00,0.0365
758.00,0.0355
757.00,0.0348
756.00,0.0343
755.00,0.0341
754.00,0.0341
753.00,0.0344
752.00,0.0350
751.00,0.0359
750.00,0.0373
749.00,0.0395
748.00,0.0426
747.00,0.0469
746.00,0.0528
745.00,0.0604
744.00,0.0690
743.00,0.0764
742.00,0.0801
741.00,0.0788
740.00,0.0744
739.00,0.0719
738.00,0.0765
737.00,0.0910
736.00,0.1127
735.00,0.1342
734.00,0.1470
733.00,0.1481
732.00,0.1420
731.00,0.1373
730.00,0.1402
729.00,0.1520
728.00,0.1688
727.00,0.1831
726.00,0.1873
725.00,0.1781
724.00,0.1588
723.00,0.1358
722.00,0.1144
721.00,0.0966
720.00,0.0827
719.00,0.0723
718.00,0.0644
717.00,0.0584
716.00,0.0536
715.00,0.0498
714.00,0.0468
713.00,0.0443
712.00,0.0422
711.00,0.0404
710.00,0.0388
709.00,0.0372
708.00,0.0358
707.00,0.0346
706.00,0.0334
705.00,0.0324
704.00,0.0315
703.00,0.0306
702.00,0.0299
701.00,0.0293
700.00,0.0287
699.00,0.0283
698.00,0.0279
697.00,0.0275
696.00,0.0272
695.00,0.0269
694.00,0.0268
693.00,0.0269
692.00,0.0271
691.00,0.0276
690.00,0.0285
689.00,0.0298
688.00,0.0313
687.00,0.0326
686.00,0.0331
685.00,0.0330
684.00,0.0324
683.00,0.0318
682.00,0.0314
681.00,0.0314
680.00,0.0318
679.00,0.0327
678.00,0.0341
677.00,0.0363
676.00,0.0396
675.00,0.0445
674.00,0.0513
673.00,0.0601
672.00,0.0698
671.00,0.0787
670.00,0.0850
669.00,0.0863
668.00,0.0809
667.00,0.0713
666.00,0.0623
665.00,0.0550
664.00,0.0488
663.00,0.0435
662.00,0.0395
661.00,0.0366
660.00,0.0345
659.00,0.0330
658.00,0.0321
657.00,0.0313
656.00,0.0307
655.00,0.0302
654.00,0.0299
653.00,0.0297
652.00,0.0295
651.00,0.0295
650.00,0.0297
649.00,0.0298
648.00,0.0300
647.00,0.0301
646.00,0.0304
645.00,0.0308
644.00,0.0310
643.00,0.0314
642.00,0.0318
641.00,0.0324
640.00,0.0330
639.00,0.0337
638.00,0.0344
637.00,0.0352
636.00,0.0360
635.00,0.0370
634.00,0.0382
633.00,0.0394
632.00,0.0407
631.00,0.0421
630.00,0.0438
629.00,0.0456
628.00,0.0475
627.00,0.0497
626.00,0.0523
625.00,0.0550
624.00,0.0580
623.00,0.0612
622.00,0.0647
621.00,0.0683
620.00,0.0720
619.00,0.0758
618.00,0.0794
617.00,0.0828
616.00,0.0856
615.00,0.0875
614.00,0.0881
613.00,0.0872
612.00,0.0849
611.00,0.0810
610.00,0.0760
609.00,0.0703
608.00,0.0643
607.00,0.0584
606.00,0.0530
605.00,0.0483
604.00,0.0445
603.00,0.0418
602.00,0.0404
601.00,0.0401
600.00,0.0407
599.00,0.0420
598.00,0.0439
597.00,0.0465
596.00,0.0498
595.00,0.0533
594.00,0.0563
593.00,0.0579
592.00,0.0574
591.00,0.0552
590.00,0.0522
589.00,0.0494
588.00,0.0476
587.00,0.0468
586.00,0.0471
585.00,0.0482
584.00,0.0498
583.00,0.0518
582.00,0.0541
581.00,0.0568
580.00,0.0597
579.00,0.0629
578.00,0.0665
577.00,0.0703
576.00,0.0744
575.00,0.0786
574.00,0.0829
573.00,0.0870
572.00,0.0911
571.00,0.0954
570.00,0.0997
569.00,0.1039
568.00,0.1076
567.00,0.1108
566.00,0.1133
565.00,0.1152
564.00,0.1166
563.00,0.1173
562.00,0.1171
561.00,0.1159
560.00,0.1138
559.00,0.1109
558.00,0.1076
557.00,0.1039
556.00,0.1001
555.00,0.0962
554.00,0.0923
553.00,0.0884
552.00,0.0847
551.00,0.0812
550.00,0.0779
549.00,0.0749
548.00,0.0721
547.00,0.0697
546.00,0.0679
545.00,0.0668
544.00,0.0669
543.00,0.0685
542.00,0.0717
541.00,0.0759
540.00,0.0794
539.00,0.0805
538.00,0.0786
537.00,0.0741
536.00,0.0685
535.00,0.0631
534.00,0.0585
533.00,0.0549
532.00,0.0518
531.00,0.0491
530.00,0.0468
529.00,0.0448
528.00,0.0431
527.00,0.0415
526.00,0.0401
525.00,0.0388
524.00,0.0377
523.00,0.0368
522.00,0.0359
521.00,0.0351
520.00,0.0342
519.00,0.0334
518.00,0.0328
517.00,0.0323
516.00,0.0318
515.00,0.0312
514.00,0.0306
513.00,0.0298
512.00,0.0290
511.00,0.0283
510.00,0.0278
509.00,0.0275
508.00,0.0272
507.00,0.0268
506.00,0.0265
505.00,0.0262
504.00,0.0260
503.00,0.0260
502.00,0.0260
501.00,0.0258
500.00,0.0254
499.00,0.0249
498.00,0.0247
497.00,0.0245
496.00,0.0244
495.00,0.0242
494.00,0.0240
493.00,0.0238
492.00,0.0234
491.00,0.0231
490.00,0.0228
489.00,0.0226
488.00,0.0223
487.00,0.0221
486.00,0.0221
485.00,0.0222
484.00,0.0223
483.00,0.0224
482.00,0.0225
481.00,0.0226
480.00,0.0225
479.00,0.0224
478.00,0.0224
477.00,0.0225
476.00,0.0226
475.00,0.0232
474.00,0.0245
473.00,0.0269
472.00,0.0300
471.00,0.0334
470.00,0.0364
469.00,0.0387
468.00,0.0401
467.00,0.0411
466.00,0.0421
465.00,0.0437
464.00,0.0464
463.00,0.0508
462.00,0.0565
461.00,0.0619
460.00,0.0653
459.00,0.0654
458.00,0.0619
457.00,0.0560
456.00,0.0496
455.00,0.0438
454.00,0.0389
453.00,0.0346
452.00,0.0311
451.00,0.0287
450.00,0.0269
449.00,0.0257
448.00,0.0248
447.00,0.0241
446.00,0.0235
445.00,0.0228
444.00,0.0220
443.00,0.0214
442.00,0.0210
441.00,0.0209
440.00,0.0207
439.00,0.0208
438.00,0.0209
437.00,0.0208
436.00,0.0206
435.00,0.0202
434.00,0.0201
433.00,0.0201
432.00,0.0203
431.00,0.0208
430.00,0.0215
429.00,0.0222
428.00,0.0227
427.00,0.0233
426.00,0.0245
425.00,0.0261
424.00,0.0277
423.00,0.0292
422.00,0.0304
421.00,0.0317
420.00,0.0333
419.00,0.0354
418.00,0.0372
417.00,0.0382
416.00,0.0383
415.00,0.0379
414.00,0.0370
413.00,0.0359
412.00,0.0345
411.00,0.0331
410.00,0.0321
409.00,0.0313
408.00,0.0308
407.00,0.0305
406.00,0.0306
405.00,0.0308
404.00,0.0308
403.00,0.0309
402.00,0.0316
401.00,0.0332
400.00,0.0353
