Created as New Dataset,Sample 857 By YargerLab Date Monday, July 21 2025
cm-1,A
4000.00,0.0196
3999.00,0.0196
3998.00,0.0196
3997.00,0.0196
3996.00,0.0196
3995.00,0.0196
3994.00,0.0196
3993.00,0.0196
3992.00,0.0196
3991.00,0.0196
3990.00,0.0196
3989.00,0.0195
3988.00,0.0195
3987.00,0.0196
3986.00,0.0196
3985.00,0.0196
3984.00,0.0196
3983.00,0.0196
3982.00,0.0196
3981.00,0.0196
3980.00,0.0196
3979.00,0.0195
3978.00,0.0195
3977.00,0.0195
3976.00,0.0195
3975.00,0.0195
3974.00,0.0195
3973.00,0.0195
3972.00,0.0195
3971.00,0.0195
3970.00,0.0195
3969.00,0.0195
3968.00,0.0195
3967.00,0.0195
3966.00,0.0195
3965.00,0.0195
3964.00,0.0195
3963.00,0.0195
3962.00,0.0195
3961.00,0.0195
3960.00,0.0195
3959.00,0.0195
3958.00,0.0195
3957.00,0.0195
3956.00,0.0195
3955.00,0.0195
3954.00,0.0195
3953.00,0.0195
3952.00,0.0194
3951.00,0.0194
3950.00,0.0193
3949.00,0.0193
3948.00,0.0193
3947.00,0.0193
3946.00,0.0193
3945.00,0.0193
3944.00,0.0193
3943.00,0.0193
3942.00,0.0193
3941.00,0.0193
3940.00,0.0193
3939.00,0.0193
3938.00,0.0193
3937.00,0.0193
3936.00,0.0192
3935.00,0.0192
3934.00,0.0192
3933.00,0.0192
3932.00,0.0192
3931.00,0.0193
3930.00,0.0193
3929.00,0.0193
3928.00,0.0193
3927.00,0.0193
3926.00,0.0193
3925.00,0.0193
3924.00,0.0193
3923.00,0.0193
3922.00,0.0193
3921.00,0.0192
3920.00,0.0192
3919.00,0.0192
3918.00,0.0192
3917.00,0.0192
3916.00,0.0192
3915.00,0.0192
3914.00,0.0192
3913.00,0.0191
3912.00,0.0192
3911.00,0.0192
3910.00,0.0192
3909.00,0.0192
3908.00,0.0191
3907.00,0.0191
3906.00,0.0190
3905.00,0.0189
3904.00,0.0189
3903.00,0.0188
3902.00,0.0188
3901.00,0.0188
3900.00,0.0188
3899.00,0.0189
3898.00,0.0189
3897.00,0.0189
3896.00,0.0189
3895.00,0.0188
3894.00,0.0188
3893.00,0.0188
3892.00,0.0188
3891.00,0.0188
3890.00,0.0188
3889.00,0.0188
3888.00,0.0187
3887.00,0.0186
3886.00,0.0186
3885.00,0.0186
3884.00,0.0186
3883.00,0.0186
3882.00,0.0186
3881.00,0.0186
3880.00,0.0187
3879.00,0.0187
3878.00,0.0187
3877.00,0.0187
3876.00,0.0187
3875.00,0.0186
3874.00,0.0186
3873.00,0.0186
3872.00,0.0185
3871.00,0.0185
3870.00,0.0185
3869.00,0.0185
3868.00,0.0185
3867.00,0.0184
3866.00,0.0184
3865.00,0.0184
3864.00,0.0185
3863.00,0.0185
3862.00,0.0185
3861.00,0.0184
3860.00,0.0184
3859.00,0.0185
3858.00,0.0185
3857.00,0.0185
3856.00,0.0185
3855.00,0.0184
3854.00,0.0184
3853.00,0.0183
3852.00,0.0183
3851.00,0.0182
3850.00,0.0182
3849.00,0.0182
3848.00,0.0183
3847.00,0.0183
3846.00,0.0184
3845.00,0.0184
3844.00,0.0184
3843.00,0.0183
3842.00,0.0183
3841.00,0.0183
3840.00,0.0183
3839.00,0.0183
3838.00,0.0183
3837.00,0.0183
3836.00,0.0183
3835.00,0.0183
3834.00,0.0183
3833.00,0.0182
3832.00,0.0182
3831.00,0.0182
3830.00,0.0182
3829.00,0.0182
3828.00,0.0182
3827.00,0.0182
3826.00,0.0182
3825.00,0.0182
3824.00,0.0181
3823.00,0.0180
3822.00,0.0180
3821.00,0.0181
3820.00,0.0181
3819.00,0.0181
3818.00,0.0180
3817.00,0.0180
3816.00,0.0181
3815.00,0.0181
3814.00,0.0182
3813.00,0.0182
3812.00,0.0182
3811.00,0.0181
3810.00,0.0182
3809.00,0.0181
3808.00,0.0181
3807.00,0.0181
3806.00,0.0181
3805.00,0.0180
3804.00,0.0180
3803.00,0.0179
3802.00,0.0179
3801.00,0.0179
3800.00,0.0179
3799.00,0.0179
3798.00,0.0179
3797.00,0.0179
3796.00,0.0180
3795.00,0.0180
3794.00,0.0181
3793.00,0.0181
3792.00,0.0181
3791.00,0.0181
3790.00,0.0181
3789.00,0.0180
3788.00,0.0180
3787.00,0.0180
3786.00,0.0180
3785.00,0.0180
3784.00,0.0180
3783.00,0.0180
3782.00,0.0179
3781.00,0.0179
3780.00,0.0179
3779.00,0.0180
3778.00,0.0180
3777.00,0.0180
3776.00,0.0179
3775.00,0.0179
3774.00,0.0179
3773.00,0.0179
3772.00,0.0178
3771.00,0.0178
3770.00,0.0178
3769.00,0.0178
3768.00,0.0178
3767.00,0.0178
3766.00,0.0178
3765.00,0.0178
3764.00,0.0178
3763.00,0.0177
3762.00,0.0177
3761.00,0.0177
3760.00,0.0177
3759.00,0.0176
3758.00,0.0176
3757.00,0.0176
3756.00,0.0175
3755.00,0.0175
3754.00,0.0174
3753.00,0.0174
3752.00,0.0173
3751.00,0.0173
3750.00,0.0172
3749.00,0.0172
3748.00,0.0172
3747.00,0.0172
3746.00,0.0172
3745.00,0.0172
3744.00,0.0172
3743.00,0.0172
3742.00,0.0172
3741.00,0.0171
3740.00,0.0171
3739.00,0.0171
3738.00,0.0171
3737.00,0.0170
3736.00,0.0170
3735.00,0.0170
3734.00,0.0170
3733.00,0.0170
3732.00,0.0170
3731.00,0.0170
3730.00,0.0171
3729.00,0.0171
3728.00,0.0171
3727.00,0.0171
3726.00,0.0171
3725.00,0.0171
3724.00,0.0171
3723.00,0.0171
3722.00,0.0171
3721.00,0.0171
3720.00,0.0171
3719.00,0.0171
3718.00,0.0171
3717.00,0.0171
3716.00,0.0171
3715.00,0.0171
3714.00,0.0171
3713.00,0.0170
3712.00,0.0170
3711.00,0.0170
3710.00,0.0170
3709.00,0.0170
3708.00,0.0170
3707.00,0.0169
3706.00,0.0170
3705.00,0.0170
3704.00,0.0170
3703.00,0.0170
3702.00,0.0170
3701.00,0.0170
3700.00,0.0170
3699.00,0.0170
3698.00,0.0170
3697.00,0.0170
3696.00,0.0170
3695.00,0.0170
3694.00,0.0170
3693.00,0.0170
3692.00,0.0170
3691.00,0.0170
3690.00,0.0169
3689.00,0.0169
3688.00,0.0169
3687.00,0.0169
3686.00,0.0169
3685.00,0.0170
3684.00,0.0170
3683.00,0.0170
3682.00,0.0171
3681.00,0.0171
3680.00,0.0172
3679.00,0.0172
3678.00,0.0172
3677.00,0.0171
3676.00,0.0171
3675.00,0.0170
3674.00,0.0170
3673.00,0.0169
3672.00,0.0169
3671.00,0.0169
3670.00,0.0169
3669.00,0.0169
3668.00,0.0170
3667.00,0.0170
3666.00,0.0171
3665.00,0.0171
3664.00,0.0172
3663.00,0.0172
3662.00,0.0173
3661.00,0.0173
3660.00,0.0173
3659.00,0.0172
3658.00,0.0172
3657.00,0.0171
3656.00,0.0171
3655.00,0.0171
3654.00,0.0171
3653.00,0.0170
3652.00,0.0170
3651.00,0.0169
3650.00,0.0168
3649.00,0.0167
3648.00,0.0167
3647.00,0.0167
3646.00,0.0168
3645.00,0.0169
3644.00,0.0169
3643.00,0.0170
3642.00,0.0170
3641.00,0.0170
3640.00,0.0170
3639.00,0.0170
3638.00,0.0171
3637.00,0.0171
3636.00,0.0171
3635.00,0.0170
3634.00,0.0170
3633.00,0.0170
3632.00,0.0169
3631.00,0.0169
3630.00,0.0168
3629.00,0.0168
3628.00,0.0168
3627.00,0.0168
3626.00,0.0168
3625.00,0.0169
3624.00,0.0169
3623.00,0.0169
3622.00,0.0169
3621.00,0.0169
3620.00,0.0169
3619.00,0.0169
3618.00,0.0169
3617.00,0.0168
3616.00,0.0168
3615.00,0.0168
3614.00,0.0168
3613.00,0.0168
3612.00,0.0169
3611.00,0.0169
3610.00,0.0169
3609.00,0.0170
3608.00,0.0170
3607.00,0.0171
3606.00,0.0171
3605.00,0.0172
3604.00,0.0172
3603.00,0.0172
3602.00,0.0172
3601.00,0.0173
3600.00,0.0173
3599.00,0.0173
3598.00,0.0173
3597.00,0.0173
3596.00,0.0173
3595.00,0.0174
3594.00,0.0174
3593.00,0.0174
3592.00,0.0174
3591.00,0.0174
3590.00,0.0173
3589.00,0.0173
3588.00,0.0174
3587.00,0.0175
3586.00,0.0175
3585.00,0.0176
3584.00,0.0176
3583.00,0.0176
3582.00,0.0177
3581.00,0.0177
3580.00,0.0178
3579.00,0.0179
3578.00,0.0179
3577.00,0.0180
3576.00,0.0180
3575.00,0.0181
3574.00,0.0181
3573.00,0.0181
3572.00,0.0181
3571.00,0.0182
3570.00,0.0181
3569.00,0.0181
3568.00,0.0181
3567.00,0.0182
3566.00,0.0183
3565.00,0.0184
3564.00,0.0185
3563.00,0.0186
3562.00,0.0187
3561.00,0.0189
3560.00,0.0190
3559.00,0.0191
3558.00,0.0192
3557.00,0.0193
3556.00,0.0194
3555.00,0.0195
3554.00,0.0196
3553.00,0.0197
3552.00,0.0199
3551.00,0.0200
3550.00,0.0201
3549.00,0.0202
3548.00,0.0204
3547.00,0.0206
3546.00,0.0208
3545.00,0.0211
3544.00,0.0215
3543.00,0.0218
3542.00,0.0221
3541.00,0.0224
3540.00,0.0228
3539.00,0.0232
3538.00,0.0237
3537.00,0.0242
3536.00,0.0248
3535.00,0.0255
3534.00,0.0263
3533.00,0.0272
3532.00,0.0282
3531.00,0.0295
3530.00,0.0309
3529.00,0.0326
3528.00,0.0345
3527.00,0.0365
3526.00,0.0386
3525.00,0.0407
3524.00,0.0427
3523.00,0.0444
3522.00,0.0458
3521.00,0.0468
3520.00,0.0474
3519.00,0.0475
3518.00,0.0473
3517.00,0.0467
3516.00,0.0458
3515.00,0.0447
3514.00,0.0434
3513.00,0.0421
3512.00,0.0407
3511.00,0.0393
3510.00,0.0380
3509.00,0.0369
3508.00,0.0358
3507.00,0.0349
3506.00,0.0340
3505.00,0.0333
3504.00,0.0327
3503.00,0.0323
3502.00,0.0319
3501.00,0.0316
3500.00,0.0314
3499.00,0.0312
3498.00,0.0310
3497.00,0.0310
3496.00,0.0309
3495.00,0.0309
3494.00,0.0310
3493.00,0.0310
3492.00,0.0311
3491.00,0.0312
3490.00,0.0313
3489.00,0.0314
3488.00,0.0315
3487.00,0.0317
3486.00,0.0318
3485.00,0.0320
3484.00,0.0322
3483.00,0.0324
3482.00,0.0327
3481.00,0.0330
3480.00,0.0333
3479.00,0.0336
3478.00,0.0339
3477.00,0.0342
3476.00,0.0345
3475.00,0.0349
3474.00,0.0352
3473.00,0.0356
3472.00,0.0361
3471.00,0.0365
3470.00,0.0369
3469.00,0.0374
3468.00,0.0378
3467.00,0.0382
3466.00,0.0386
3465.00,0.0390
3464.00,0.0394
3463.00,0.0399
3462.00,0.0404
3461.00,0.0409
3460.00,0.0414
3459.00,0.0419
3458.00,0.0424
3457.00,0.0428
3456.00,0.0433
3455.00,0.0438
3454.00,0.0443
3453.00,0.0448
3452.00,0.0452
3451.00,0.0456
3450.00,0.0461
3449.00,0.0465
3448.00,0.0469
3447.00,0.0474
3446.00,0.0479
3445.00,0.0484
3444.00,0.0488
3443.00,0.0492
3442.00,0.0496
3441.00,0.0501
3440.00,0.0505
3439.00,0.0510
3438.00,0.0514
3437.00,0.0519
3436.00,0.0523
3435.00,0.0527
3434.00,0.0531
3433.00,0.0535
3432.00,0.0539
3431.00,0.0543
3430.00,0.0547
3429.00,0.0551
3428.00,0.0555
3427.00,0.0559
3426.00,0.0564
3425.00,0.0568
3424.00,0.0573
3423.00,0.0579
3422.00,0.0585
3421.00,0.0592
3420.00,0.0600
3419.00,0.0607
3418.00,0.0614
3417.00,0.0622
3416.00,0.0629
3415.00,0.0637
3414.00,0.0644
3413.00,0.0651
3412.00,0.0657
3411.00,0.0662
3410.00,0.0665
3409.00,0.0668
3408.00,0.0669
3407.00,0.0668
3406.00,0.0666
3405.00,0.0663
3404.00,0.0658
3403.00,0.0651
3402.00,0.0643
3401.00,0.0633
3400.00,0.0621
3399.00,0.0608
3398.00,0.0594
3397.00,0.0580
3396.00,0.0567
3395.00,0.0553
3394.00,0.0539
3393.00,0.0526
3392.00,0.0513
3391.00,0.0501
3390.00,0.0489
3389.00,0.0478
3388.00,0.0467
3387.00,0.0457
3386.00,0.0448
3385.00,0.0439
3384.00,0.0432
3383.00,0.0424
3382.00,0.0417
3381.00,0.0411
3380.00,0.0405
3379.00,0.0399
3378.00,0.0393
3377.00,0.0388
3376.00,0.0383
3375.00,0.0378
3374.00,0.0374
3373.00,0.0370
3372.00,0.0366
3371.00,0.0362
3370.00,0.0358
3369.00,0.0354
3368.00,0.0350
3367.00,0.0346
3366.00,0.0343
3365.00,0.0339
3364.00,0.0336
3363.00,0.0332
3362.00,0.0329
3361.00,0.0326
3360.00,0.0324
3359.00,0.0321
3358.00,0.0318
3357.00,0.0315
3356.00,0.0312
3355.00,0.0309
3354.00,0.0307
3353.00,0.0305
3352.00,0.0303
3351.00,0.0301
3350.00,0.0299
3349.00,0.0297
3348.00,0.0295
3347.00,0.0293
3346.00,0.0291
3345.00,0.0289
3344.00,0.0288
3343.00,0.0286
3342.00,0.0285
3341.00,0.0283
3340.00,0.0281
3339.00,0.0280
3338.00,0.0279
3337.00,0.0277
3336.00,0.0276
3335.00,0.0275
3334.00,0.0274
3333.00,0.0272
3332.00,0.0271
3331.00,0.0270
3330.00,0.0268
3329.00,0.0267
3328.00,0.0266
3327.00,0.0264
3326.00,0.0263
3325.00,0.0262
3324.00,0.0261
3323.00,0.0260
3322.00,0.0260
3321.00,0.0259
3320.00,0.0258
3319.00,0.0257
3318.00,0.0256
3317.00,0.0256
3316.00,0.0255
3315.00,0.0254
3314.00,0.0253
3313.00,0.0252
3312.00,0.0251
3311.00,0.0250
3310.00,0.0249
3309.00,0.0249
3308.00,0.0248
3307.00,0.0247
3306.00,0.0246
3305.00,0.0246
3304.00,0.0245
3303.00,0.0244
3302.00,0.0243
3301.00,0.0243
3300.00,0.0242
3299.00,0.0241
3298.00,0.0240
3297.00,0.0240
3296.00,0.0239
3295.00,0.0238
3294.00,0.0238
3293.00,0.0237
3292.00,0.0237
3291.00,0.0236
3290.00,0.0236
3289.00,0.0235
3288.00,0.0234
3287.00,0.0233
3286.00,0.0233
3285.00,0.0232
3284.00,0.0231
3283.00,0.0231
3282.00,0.0230
3281.00,0.0230
3280.00,0.0229
3279.00,0.0229
3278.00,0.0228
3277.00,0.0228
3276.00,0.0227
3275.00,0.0226
3274.00,0.0226
3273.00,0.0225
3272.00,0.0225
3271.00,0.0225
3270.00,0.0225
3269.00,0.0225
3268.00,0.0225
3267.00,0.0224
3266.00,0.0224
3265.00,0.0224
3264.00,0.0223
3263.00,0.0223
3262.00,0.0223
3261.00,0.0223
3260.00,0.0222
3259.00,0.0222
3258.00,0.0221
3257.00,0.0220
3256.00,0.0220
3255.00,0.0220
3254.00,0.0220
3253.00,0.0220
3252.00,0.0220
3251.00,0.0219
3250.00,0.0219
3249.00,0.0218
3248.00,0.0218
3247.00,0.0218
3246.00,0.0218
3245.00,0.0217
3244.00,0.0217
3243.00,0.0217
3242.00,0.0217
3241.00,0.0216
3240.00,0.0215
3239.00,0.0214
3238.00,0.0214
3237.00,0.0213
3236.00,0.0213
3235.00,0.0212
3234.00,0.0212
3233.00,0.0212
3232.00,0.0211
3231.00,0.0211
3230.00,0.0210
3229.00,0.0210
3228.00,0.0210
3227.00,0.0210
3226.00,0.0209
3225.00,0.0209
3224.00,0.0209
3223.00,0.0208
3222.00,0.0208
3221.00,0.0208
3220.00,0.0208
3219.00,0.0207
3218.00,0.0207
3217.00,0.0207
3216.00,0.0206
3215.00,0.0206
3214.00,0.0206
3213.00,0.0206
3212.00,0.0205
3211.00,0.0205
3210.00,0.0205
3209.00,0.0204
3208.00,0.0204
3207.00,0.0204
3206.00,0.0204
3205.00,0.0204
3204.00,0.0203
3203.00,0.0203
3202.00,0.0203
3201.00,0.0203
3200.00,0.0202
3199.00,0.0202
3198.00,0.0201
3197.00,0.0201
3196.00,0.0200
3195.00,0.0200
3194.00,0.0200
3193.00,0.0200
3192.00,0.0200
3191.00,0.0199
3190.00,0.0199
3189.00,0.0199
3188.00,0.0198
3187.00,0.0198
3186.00,0.0198
3185.00,0.0197
3184.00,0.0197
3183.00,0.0197
3182.00,0.0197
3181.00,0.0197
3180.00,0.0197
3179.00,0.0197
3178.00,0.0197
3177.00,0.0197
3176.00,0.0197
3175.00,0.0196
3174.00,0.0196
3173.00,0.0196
3172.00,0.0196
3171.00,0.0196
3170.00,0.0196
3169.00,0.0196
3168.00,0.0196
3167.00,0.0195
3166.00,0.0195
3165.00,0.0195
3164.00,0.0195
3163.00,0.0194
3162.00,0.0194
3161.00,0.0194
3160.00,0.0194
3159.00,0.0193
3158.00,0.0192
3157.00,0.0191
3156.00,0.0191
3155.00,0.0190
3154.00,0.0189
3153.00,0.0189
3152.00,0.0189
3151.00,0.0189
3150.00,0.0188
3149.00,0.0188
3148.00,0.0187
3147.00,0.0187
3146.00,0.0186
3145.00,0.0186
3144.00,0.0185
3143.00,0.0185
3142.00,0.0184
3141.00,0.0184
3140.00,0.0184
3139.00,0.0184
3138.00,0.0183
3137.00,0.0183
3136.00,0.0183
3135.00,0.0182
3134.00,0.0182
3133.00,0.0182
3132.00,0.0181
3131.00,0.0181
3130.00,0.0181
3129.00,0.0181
3128.00,0.0181
3127.00,0.0180
3126.00,0.0180
3125.00,0.0179
3124.00,0.0179
3123.00,0.0179
3122.00,0.0179
3121.00,0.0179
3120.00,0.0179
3119.00,0.0179
3118.00,0.0179
3117.00,0.0179
3116.00,0.0179
3115.00,0.0178
3114.00,0.0177
3113.00,0.0177
3112.00,0.0176
3111.00,0.0176
3110.00,0.0176
3109.00,0.0176
3108.00,0.0176
3107.00,0.0175
3106.00,0.0175
3105.00,0.0174
3104.00,0.0174
3103.00,0.0174
3102.00,0.0174
3101.00,0.0174
3100.00,0.0175
3099.00,0.0175
3098.00,0.0175
3097.00,0.0174
3096.00,0.0174
3095.00,0.0174
3094.00,0.0175
3093.00,0.0175
3092.00,0.0176
3091.00,0.0176
3090.00,0.0176
3089.00,0.0177
3088.00,0.0177
3087.00,0.0178
3086.00,0.0180
3085.00,0.0182
3084.00,0.0184
3083.00,0.0188
3082.00,0.0192
3081.00,0.0198
3080.00,0.0206
3079.00,0.0214
3078.00,0.0223
3077.00,0.0230
3076.00,0.0234
3075.00,0.0236
3074.00,0.0233
3073.00,0.0227
3072.00,0.0220
3071.00,0.0212
3070.00,0.0204
3069.00,0.0197
3068.00,0.0192
3067.00,0.0188
3066.00,0.0185
3065.00,0.0182
3064.00,0.0180
3063.00,0.0178
3062.00,0.0177
3061.00,0.0175
3060.00,0.0174
3059.00,0.0174
3058.00,0.0173
3057.00,0.0172
3056.00,0.0172
3055.00,0.0171
3054.00,0.0171
3053.00,0.0171
3052.00,0.0171
3051.00,0.0171
3050.00,0.0171
3049.00,0.0172
3048.00,0.0173
3047.00,0.0174
3046.00,0.0174
3045.00,0.0175
3044.00,0.0176
3043.00,0.0177
3042.00,0.0178
3041.00,0.0179
3040.00,0.0179
3039.00,0.0180
3038.00,0.0181
3037.00,0.0182
3036.00,0.0183
3035.00,0.0184
3034.00,0.0185
3033.00,0.0185
3032.00,0.0185
3031.00,0.0184
3030.00,0.0183
3029.00,0.0182
3028.00,0.0180
3027.00,0.0179
3026.00,0.0178
3025.00,0.0177
3024.00,0.0176
3023.00,0.0176
3022.00,0.0176
3021.00,0.0176
3020.00,0.0176
3019.00,0.0176
3018.00,0.0176
3017.00,0.0177
3016.00,0.0178
3015.00,0.0179
3014.00,0.0181
3013.00,0.0183
3012.00,0.0184
3011.00,0.0186
3010.00,0.0187
3009.00,0.0189
3008.00,0.0190
3007.00,0.0192
3006.00,0.0194
3005.00,0.0197
3004.00,0.0199
3003.00,0.0201
3002.00,0.0204
3001.00,0.0207
3000.00,0.0210
2999.00,0.0213
2998.00,0.0215
2997.00,0.0218
2996.00,0.0221
2995.00,0.0224
2994.00,0.0228
2993.00,0.0233
2992.00,0.0237
2991.00,0.0241
2990.00,0.0245
2989.00,0.0249
2988.00,0.0253
2987.00,0.0257
2986.00,0.0261
2985.00,0.0267
2984.00,0.0274
2983.00,0.0281
2982.00,0.0289
2981.00,0.0297
2980.00,0.0305
2979.00,0.0313
2978.00,0.0322
2977.00,0.0333
2976.00,0.0346
2975.00,0.0361
2974.00,0.0378
2973.00,0.0396
2972.00,0.0415
2971.00,0.0433
2970.00,0.0450
2969.00,0.0465
2968.00,0.0478
2967.00,0.0489
2966.00,0.0496
2965.00,0.0499
2964.00,0.0501
2963.00,0.0500
2962.00,0.0498
2961.00,0.0494
2960.00,0.0489
2959.00,0.0483
2958.00,0.0475
2957.00,0.0466
2956.00,0.0458
2955.00,0.0450
2954.00,0.0442
2953.00,0.0436
2952.00,0.0432
2951.00,0.0429
2950.00,0.0430
2949.00,0.0434
2948.00,0.0442
2947.00,0.0452
2946.00,0.0466
2945.00,0.0480
2944.00,0.0494
2943.00,0.0508
2942.00,0.0521
2941.00,0.0533
2940.00,0.0546
2939.00,0.0560
2938.00,0.0575
2937.00,0.0591
2936.00,0.0609
2935.00,0.0628
2934.00,0.0648
2933.00,0.0668
2932.00,0.0688
2931.00,0.0707
2930.00,0.0726
2929.00,0.0743
2928.00,0.0759
2927.00,0.0771
2926.00,0.0780
2925.00,0.0784
2924.00,0.0785
2923.00,0.0782
2922.00,0.0777
2921.00,0.0771
2920.00,0.0765
2919.00,0.0760
2918.00,0.0755
2917.00,0.0749
2916.00,0.0741
2915.00,0.0731
2914.00,0.0719
2913.00,0.0705
2912.00,0.0688
2911.00,0.0669
2910.00,0.0650
2909.00,0.0631
2908.00,0.0612
2907.00,0.0595
2906.00,0.0579
2905.00,0.0565
2904.00,0.0552
2903.00,0.0541
2902.00,0.0531
2901.00,0.0522
2900.00,0.0512
2899.00,0.0502
2898.00,0.0492
2897.00,0.0480
2896.00,0.0469
2895.00,0.0458
2894.00,0.0448
2893.00,0.0440
2892.00,0.0433
2891.00,0.0427
2890.00,0.0422
2889.00,0.0418
2888.00,0.0415
2887.00,0.0412
2886.00,0.0410
2885.00,0.0409
2884.00,0.0408
2883.00,0.0407
2882.00,0.0407
2881.00,0.0408
2880.00,0.0409
2879.00,0.0411
2878.00,0.0414
2877.00,0.0418
2876.00,0.0422
2875.00,0.0427
2874.00,0.0432
2873.00,0.0436
2872.00,0.0438
2871.00,0.0438
2870.00,0.0436
2869.00,0.0433
2868.00,0.0429
2867.00,0.0427
2866.00,0.0428
2865.00,0.0433
2864.00,0.0442
2863.00,0.0456
2862.00,0.0475
2861.00,0.0498
2860.00,0.0524
2859.00,0.0551
2858.00,0.0574
2857.00,0.0591
2856.00,0.0598
2855.00,0.0593
2854.00,0.0577
2853.00,0.0553
2852.00,0.0524
2851.00,0.0493
2850.00,0.0463
2849.00,0.0434
2848.00,0.0408
2847.00,0.0384
2846.00,0.0362
2845.00,0.0344
2844.00,0.0327
2843.00,0.0314
2842.00,0.0303
2841.00,0.0294
2840.00,0.0288
2839.00,0.0284
2838.00,0.0282
2837.00,0.0283
2836.00,0.0288
2835.00,0.0296
2834.00,0.0307
2833.00,0.0321
2832.00,0.0336
2831.00,0.0349
2830.00,0.0357
2829.00,0.0356
2828.00,0.0347
2827.00,0.0332
2826.00,0.0312
2825.00,0.0293
2824.00,0.0274
2823.00,0.0258
2822.00,0.0245
2821.00,0.0234
2820.00,0.0226
2819.00,0.0218
2818.00,0.0213
2817.00,0.0208
2816.00,0.0203
2815.00,0.0200
2814.00,0.0196
2813.00,0.0194
2812.00,0.0191
2811.00,0.0189
2810.00,0.0187
2809.00,0.0185
2808.00,0.0183
2807.00,0.0182
2806.00,0.0180
2805.00,0.0179
2804.00,0.0177
2803.00,0.0176
2802.00,0.0175
2801.00,0.0173
2800.00,0.0172
2799.00,0.0171
2798.00,0.0169
2797.00,0.0168
2796.00,0.0167
2795.00,0.0166
2794.00,0.0165
2793.00,0.0164
2792.00,0.0163
2791.00,0.0163
2790.00,0.0162
2789.00,0.0161
2788.00,0.0160
2787.00,0.0159
2786.00,0.0158
2785.00,0.0157
2784.00,0.0157
2783.00,0.0156
2782.00,0.0155
2781.00,0.0155
2780.00,0.0154
2779.00,0.0153
2778.00,0.0153
2777.00,0.0153
2776.00,0.0152
2775.00,0.0152
2774.00,0.0151
2773.00,0.0151
2772.00,0.0150
2771.00,0.0150
2770.00,0.0149
2769.00,0.0148
2768.00,0.0148
2767.00,0.0147
2766.00,0.0147
2765.00,0.0147
2764.00,0.0146
2763.00,0.0146
2762.00,0.0145
2761.00,0.0145
2760.00,0.0145
2759.00,0.0144
2758.00,0.0144
2757.00,0.0144
2756.00,0.0144
2755.00,0.0144
2754.00,0.0144
2753.00,0.0144
2752.00,0.0144
2751.00,0.0144
2750.00,0.0144
2749.00,0.0144
2748.00,0.0144
2747.00,0.0144
2746.00,0.0144
2745.00,0.0144
2744.00,0.0144
2743.00,0.0145
2742.00,0.0145
2741.00,0.0145
2740.00,0.0146
2739.00,0.0146
2738.00,0.0147
2737.00,0.0147
2736.00,0.0148
2735.00,0.0149
2734.00,0.0150
2733.00,0.0151
2732.00,0.0153
2731.00,0.0154
2730.00,0.0155
2729.00,0.0156
2728.00,0.0155
2727.00,0.0155
2726.00,0.0153
2725.00,0.0152
2724.00,0.0150
2723.00,0.0149
2722.00,0.0148
2721.00,0.0146
2720.00,0.0145
2719.00,0.0144
2718.00,0.0143
2717.00,0.0142
2716.00,0.0141
2715.00,0.0141
2714.00,0.0140
2713.00,0.0140
2712.00,0.0139
2711.00,0.0139
2710.00,0.0138
2709.00,0.0138
2708.00,0.0138
2707.00,0.0137
2706.00,0.0137
2705.00,0.0137
2704.00,0.0136
2703.00,0.0136
2702.00,0.0135
2701.00,0.0135
2700.00,0.0135
2699.00,0.0135
2698.00,0.0135
2697.00,0.0135
2696.00,0.0134
2695.00,0.0134
2694.00,0.0134
2693.00,0.0134
2692.00,0.0134
2691.00,0.0134
2690.00,0.0135
2689.00,0.0135
2688.00,0.0135
2687.00,0.0135
2686.00,0.0135
2685.00,0.0135
2684.00,0.0135
2683.00,0.0135
2682.00,0.0135
2681.00,0.0135
2680.00,0.0136
2679.00,0.0136
2678.00,0.0136
2677.00,0.0136
2676.00,0.0136
2675.00,0.0137
2674.00,0.0137
2673.00,0.0137
2672.00,0.0137
2671.00,0.0137
2670.00,0.0137
2669.00,0.0138
2668.00,0.0138
2667.00,0.0138
2666.00,0.0139
2665.00,0.0139
2664.00,0.0139
2663.00,0.0140
2662.00,0.0140
2661.00,0.0140
2660.00,0.0140
2659.00,0.0140
2658.00,0.0140
2657.00,0.0140
2656.00,0.0139
2655.00,0.0139
2654.00,0.0139
2653.00,0.0139
2652.00,0.0138
2651.00,0.0137
2650.00,0.0137
2649.00,0.0137
2648.00,0.0136
2647.00,0.0136
2646.00,0.0136
2645.00,0.0136
2644.00,0.0135
2643.00,0.0135
2642.00,0.0134
2641.00,0.0134
2640.00,0.0134
2639.00,0.0133
2638.00,0.0133
2637.00,0.0133
2636.00,0.0133
2635.00,0.0133
2634.00,0.0132
2633.00,0.0132
2632.00,0.0132
2631.00,0.0132
2630.00,0.0132
2629.00,0.0131
2628.00,0.0131
2627.00,0.0131
2626.00,0.0131
2625.00,0.0131
2624.00,0.0131
2623.00,0.0130
2622.00,0.0130
2621.00,0.0130
2620.00,0.0129
2619.00,0.0129
2618.00,0.0128
2617.00,0.0128
2616.00,0.0128
2615.00,0.0128
2614.00,0.0128
2613.00,0.0128
2612.00,0.0128
2611.00,0.0127
2610.00,0.0127
2609.00,0.0127
2608.00,0.0127
2607.00,0.0127
2606.00,0.0126
2605.00,0.0126
2604.00,0.0125
2603.00,0.0125
2602.00,0.0125
2601.00,0.0125
2600.00,0.0125
2599.00,0.0124
2598.00,0.0124
2597.00,0.0123
2596.00,0.0123
2595.00,0.0123
2594.00,0.0123
2593.00,0.0123
2592.00,0.0123
2591.00,0.0122
2590.00,0.0122
2589.00,0.0122
2588.00,0.0122
2587.00,0.0121
2586.00,0.0121
2585.00,0.0121
2584.00,0.0121
2583.00,0.0121
2582.00,0.0121
2581.00,0.0121
2580.00,0.0121
2579.00,0.0120
2578.00,0.0120
2577.00,0.0120
2576.00,0.0120
2575.00,0.0120
2574.00,0.0119
2573.00,0.0119
2572.00,0.0119
2571.00,0.0119
2570.00,0.0119
2569.00,0.0119
2568.00,0.0119
2567.00,0.0119
2566.00,0.0118
2565.00,0.0118
2564.00,0.0118
2563.00,0.0118
2562.00,0.0118
2561.00,0.0118
2560.00,0.0118
2559.00,0.0117
2558.00,0.0117
2557.00,0.0117
2556.00,0.0117
2555.00,0.0117
2554.00,0.0117
2553.00,0.0117
2552.00,0.0116
2551.00,0.0116
2550.00,0.0116
2549.00,0.0115
2548.00,0.0115
2547.00,0.0114
2546.00,0.0114
2545.00,0.0114
2544.00,0.0114
2543.00,0.0114
2542.00,0.0115
2541.00,0.0115
2540.00,0.0115
2539.00,0.0115
2538.00,0.0114
2537.00,0.0114
2536.00,0.0113
2535.00,0.0113
2534.00,0.0113
2533.00,0.0113
2532.00,0.0113
2531.00,0.0113
2530.00,0.0113
2529.00,0.0113
2528.00,0.0113
2527.00,0.0112
2526.00,0.0112
2525.00,0.0112
2524.00,0.0112
2523.00,0.0112
2522.00,0.0111
2521.00,0.0111
2520.00,0.0111
2519.00,0.0111
2518.00,0.0111
2517.00,0.0111
2516.00,0.0111
2515.00,0.0111
2514.00,0.0110
2513.00,0.0110
2512.00,0.0110
2511.00,0.0110
2510.00,0.0110
2509.00,0.0110
2508.00,0.0110
2507.00,0.0110
2506.00,0.0110
2505.00,0.0109
2504.00,0.0109
2503.00,0.0109
2502.00,0.0109
2501.00,0.0109
2500.00,0.0109
2499.00,0.0109
2498.00,0.0109
2497.00,0.0109
2496.00,0.0109
2495.00,0.0109
2494.00,0.0109
2493.00,0.0108
2492.00,0.0108
2491.00,0.0108
2490.00,0.0107
2489.00,0.0107
2488.00,0.0107
2487.00,0.0107
2486.00,0.0107
2485.00,0.0108
2484.00,0.0108
2483.00,0.0108
2482.00,0.0108
2481.00,0.0108
2480.00,0.0108
2479.00,0.0107
2478.00,0.0107
2477.00,0.0107
2476.00,0.0108
2475.00,0.0108
2474.00,0.0108
2473.00,0.0108
2472.00,0.0108
2471.00,0.0108
2470.00,0.0108
2469.00,0.0108
2468.00,0.0108
2467.00,0.0108
2466.00,0.0107
2465.00,0.0108
2464.00,0.0108
2463.00,0.0108
2462.00,0.0108
2461.00,0.0108
2460.00,0.0109
2459.00,0.0109
2458.00,0.0109
2457.00,0.0109
2456.00,0.0109
2455.00,0.0109
2454.00,0.0109
2453.00,0.0109
2452.00,0.0109
2451.00,0.0109
2450.00,0.0109
2449.00,0.0108
2448.00,0.0108
2447.00,0.0107
2446.00,0.0107
2445.00,0.0106
2444.00,0.0106
2443.00,0.0105
2442.00,0.0104
2441.00,0.0103
2440.00,0.0103
2439.00,0.0102
2438.00,0.0102
2437.00,0.0101
2436.00,0.0100
2435.00,0.0100
2434.00,0.0099
2433.00,0.0099
2432.00,0.0099
2431.00,0.0099
2430.00,0.0099
2429.00,0.0100
2428.00,0.0099
2427.00,0.0099
2426.00,0.0098
2425.00,0.0098
2424.00,0.0097
2423.00,0.0097
2422.00,0.0097
2421.00,0.0097
2420.00,0.0097
2419.00,0.0096
2418.00,0.0096
2417.00,0.0096
2416.00,0.0096
2415.00,0.0096
2414.00,0.0096
2413.00,0.0096
2412.00,0.0095
2411.00,0.0095
2410.00,0.0095
2409.00,0.0094
2408.00,0.0093
2407.00,0.0093
2406.00,0.0093
2405.00,0.0093
2404.00,0.0092
2403.00,0.0092
2402.00,0.0092
2401.00,0.0092
2400.00,0.0092
2399.00,0.0092
2398.00,0.0092
2397.00,0.0092
2396.00,0.0092
2395.00,0.0092
2394.00,0.0092
2393.00,0.0092
2392.00,0.0092
2391.00,0.0092
2390.00,0.0092
2389.00,0.0091
2388.00,0.0091
2387.00,0.0090
2386.00,0.0090
2385.00,0.0089
2384.00,0.0088
2383.00,0.0088
2382.00,0.0087
2381.00,0.0086
2380.00,0.0086
2379.00,0.0086
2378.00,0.0086
2377.00,0.0086
2376.00,0.0086
2375.00,0.0086
2374.00,0.0086
2373.00,0.0086
2372.00,0.0086
2371.00,0.0085
2370.00,0.0084
2369.00,0.0084
2368.00,0.0083
2367.00,0.0083
2366.00,0.0083
2365.00,0.0084
2364.00,0.0084
2363.00,0.0084
2362.00,0.0084
2361.00,0.0084
2360.00,0.0084
2359.00,0.0084
2358.00,0.0084
2357.00,0.0084
2356.00,0.0085
2355.00,0.0085
2354.00,0.0084
2353.00,0.0084
2352.00,0.0083
2351.00,0.0082
2350.00,0.0082
2349.00,0.0084
2348.00,0.0086
2347.00,0.0089
2346.00,0.0090
2345.00,0.0090
2344.00,0.0088
2343.00,0.0087
2342.00,0.0086
2341.00,0.0086
2340.00,0.0087
2339.00,0.0087
2338.00,0.0087
2337.00,0.0087
2336.00,0.0087
2335.00,0.0087
2334.00,0.0087
2333.00,0.0087
2332.00,0.0086
2331.00,0.0086
2330.00,0.0086
2329.00,0.0088
2328.00,0.0092
2327.00,0.0097
2326.00,0.0100
2325.00,0.0101
2324.00,0.0099
2323.00,0.0096
2322.00,0.0094
2321.00,0.0092
2320.00,0.0091
2319.00,0.0090
2318.00,0.0089
2317.00,0.0089
2316.00,0.0089
2315.00,0.0088
2314.00,0.0088
2313.00,0.0087
2312.00,0.0086
2311.00,0.0085
2310.00,0.0085
2309.00,0.0084
2308.00,0.0085
2307.00,0.0085
2306.00,0.0085
2305.00,0.0086
2304.00,0.0086
2303.00,0.0086
2302.00,0.0086
2301.00,0.0086
2300.00,0.0087
2299.00,0.0087
2298.00,0.0088
2297.00,0.0089
2296.00,0.0090
2295.00,0.0091
2294.00,0.0092
2293.00,0.0093
2292.00,0.0095
2291.00,0.0096
2290.00,0.0097
2289.00,0.0098
2288.00,0.0098
2287.00,0.0098
2286.00,0.0097
2285.00,0.0096
2284.00,0.0095
2283.00,0.0094
2282.00,0.0093
2281.00,0.0093
2280.00,0.0092
2279.00,0.0092
2278.00,0.0091
2277.00,0.0091
2276.00,0.0090
2275.00,0.0089
2274.00,0.0089
2273.00,0.0089
2272.00,0.0089
2271.00,0.0089
2270.00,0.0088
2269.00,0.0088
2268.00,0.0087
2267.00,0.0087
2266.00,0.0086
2265.00,0.0086
2264.00,0.0085
2263.00,0.0085
2262.00,0.0086
2261.00,0.0087
2260.00,0.0088
2259.00,0.0088
2258.00,0.0087
2257.00,0.0086
2256.00,0.0084
2255.00,0.0083
2254.00,0.0082
2253.00,0.0082
2252.00,0.0082
2251.00,0.0082
2250.00,0.0083
2249.00,0.0084
2248.00,0.0084
2247.00,0.0084
2246.00,0.0084
2245.00,0.0084
2244.00,0.0084
2243.00,0.0084
2242.00,0.0084
2241.00,0.0084
2240.00,0.0084
2239.00,0.0084
2238.00,0.0084
2237.00,0.0084
2236.00,0.0084
2235.00,0.0083
2234.00,0.0083
2233.00,0.0083
2232.00,0.0083
2231.00,0.0083
2230.00,0.0083
2229.00,0.0083
2228.00,0.0083
2227.00,0.0083
2226.00,0.0082
2225.00,0.0082
2224.00,0.0082
2223.00,0.0082
2222.00,0.0082
2221.00,0.0082
2220.00,0.0082
2219.00,0.0080
2218.00,0.0080
2217.00,0.0080
2216.00,0.0080
2215.00,0.0080
2214.00,0.0079
2213.00,0.0078
2212.00,0.0077
2211.00,0.0077
2210.00,0.0076
2209.00,0.0077
2208.00,0.0077
2207.00,0.0078
2206.00,0.0079
2205.00,0.0079
2204.00,0.0080
2203.00,0.0080
2202.00,0.0079
2201.00,0.0079
2200.00,0.0078
2199.00,0.0078
2198.00,0.0078
2197.00,0.0079
2196.00,0.0080
2195.00,0.0081
2194.00,0.0082
2193.00,0.0082
2192.00,0.0081
2191.00,0.0081
2190.00,0.0080
2189.00,0.0080
2188.00,0.0080
2187.00,0.0080
2186.00,0.0079
2185.00,0.0077
2184.00,0.0074
2183.00,0.0071
2182.00,0.0069
2181.00,0.0070
2180.00,0.0074
2179.00,0.0076
2178.00,0.0076
2177.00,0.0073
2176.00,0.0071
2175.00,0.0070
2174.00,0.0072
2173.00,0.0075
2172.00,0.0078
2171.00,0.0082
2170.00,0.0085
2169.00,0.0087
2168.00,0.0089
2167.00,0.0089
2166.00,0.0088
2165.00,0.0089
2164.00,0.0090
2163.00,0.0090
2162.00,0.0083
2161.00,0.0069
2160.00,0.0052
2159.00,0.0038
2158.00,0.0032
2157.00,0.0033
2156.00,0.0038
2155.00,0.0042
2154.00,0.0044
2153.00,0.0046
2152.00,0.0048
2151.00,0.0049
2150.00,0.0050
2149.00,0.0052
2148.00,0.0053
2147.00,0.0053
2146.00,0.0052
2145.00,0.0052
2144.00,0.0052
2143.00,0.0053
2142.00,0.0054
2141.00,0.0055
2140.00,0.0055
2139.00,0.0054
2138.00,0.0052
2137.00,0.0050
2136.00,0.0047
2135.00,0.0046
2134.00,0.0046
2133.00,0.0047
2132.00,0.0050
2131.00,0.0052
2130.00,0.0055
2129.00,0.0057
2128.00,0.0059
2127.00,0.0060
2126.00,0.0061
2125.00,0.0062
2124.00,0.0063
2123.00,0.0065
2122.00,0.0066
2121.00,0.0067
2120.00,0.0068
2119.00,0.0069
2118.00,0.0071
2117.00,0.0072
2116.00,0.0072
2115.00,0.0072
2114.00,0.0072
2113.00,0.0072
2112.00,0.0072
2111.00,0.0072
2110.00,0.0072
2109.00,0.0072
2108.00,0.0072
2107.00,0.0072
2106.00,0.0071
2105.00,0.0071
2104.00,0.0072
2103.00,0.0072
2102.00,0.0071
2101.00,0.0071
2100.00,0.0070
2099.00,0.0069
2098.00,0.0067
2097.00,0.0066
2096.00,0.0065
2095.00,0.0064
2094.00,0.0064
2093.00,0.0066
2092.00,0.0067
2091.00,0.0069
2090.00,0.0070
2089.00,0.0071
2088.00,0.0071
2087.00,0.0072
2086.00,0.0073
2085.00,0.0073
2084.00,0.0074
2083.00,0.0074
2082.00,0.0073
2081.00,0.0073
2080.00,0.0072
2079.00,0.0072
2078.00,0.0072
2077.00,0.0071
2076.00,0.0071
2075.00,0.0070
2074.00,0.0069
2073.00,0.0068
2072.00,0.0068
2071.00,0.0067
2070.00,0.0067
2069.00,0.0066
2068.00,0.0066
2067.00,0.0066
2066.00,0.0066
2065.00,0.0066
2064.00,0.0066
2063.00,0.0065
2062.00,0.0064
2061.00,0.0064
2060.00,0.0064
2059.00,0.0065
2058.00,0.0066
2057.00,0.0067
2056.00,0.0067
2055.00,0.0068
2054.00,0.0072
2053.00,0.0077
2052.00,0.0081
2051.00,0.0081
2050.00,0.0076
2049.00,0.0071
2048.00,0.0067
2047.00,0.0065
2046.00,0.0063
2045.00,0.0062
2044.00,0.0062
2043.00,0.0061
2042.00,0.0061
2041.00,0.0062
2040.00,0.0062
2039.00,0.0062
2038.00,0.0060
2037.00,0.0058
2036.00,0.0056
2035.00,0.0053
2034.00,0.0052
2033.00,0.0052
2032.00,0.0052
2031.00,0.0053
2030.00,0.0053
2029.00,0.0054
2028.00,0.0056
2027.00,0.0056
2026.00,0.0056
2025.00,0.0056
2024.00,0.0057
2023.00,0.0057
2022.00,0.0057
2021.00,0.0057
2020.00,0.0057
2019.00,0.0055
2018.00,0.0053
2017.00,0.0052
2016.00,0.0053
2015.00,0.0054
2014.00,0.0054
2013.00,0.0055
2012.00,0.0056
2011.00,0.0056
2010.00,0.0054
2009.00,0.0053
2008.00,0.0050
2007.00,0.0047
2006.00,0.0045
2005.00,0.0045
2004.00,0.0047
2003.00,0.0050
2002.00,0.0051
2001.00,0.0052
2000.00,0.0053
1999.00,0.0054
1998.00,0.0054
1997.00,0.0055
1996.00,0.0057
1995.00,0.0058
1994.00,0.0059
1993.00,0.0059
1992.00,0.0060
1991.00,0.0061
1990.00,0.0062
1989.00,0.0064
1988.00,0.0065
1987.00,0.0066
1986.00,0.0068
1985.00,0.0071
1984.00,0.0075
1983.00,0.0079
1982.00,0.0082
1981.00,0.0082
1980.00,0.0077
1979.00,0.0068
1978.00,0.0058
1977.00,0.0052
1976.00,0.0050
1975.00,0.0049
1974.00,0.0048
1973.00,0.0049
1972.00,0.0050
1971.00,0.0051
1970.00,0.0051
1969.00,0.0051
1968.00,0.0050
1967.00,0.0050
1966.00,0.0051
1965.00,0.0051
1964.00,0.0051
1963.00,0.0049
1962.00,0.0047
1961.00,0.0046
1960.00,0.0045
1959.00,0.0046
1958.00,0.0046
1957.00,0.0048
1956.00,0.0051
1955.00,0.0052
1954.00,0.0052
1953.00,0.0053
1952.00,0.0053
1951.00,0.0053
1950.00,0.0053
1949.00,0.0053
1948.00,0.0053
1947.00,0.0054
1946.00,0.0054
1945.00,0.0054
1944.00,0.0055
1943.00,0.0055
1942.00,0.0055
1941.00,0.0055
1940.00,0.0056
1939.00,0.0056
1938.00,0.0056
1937.00,0.0056
1936.00,0.0056
1935.00,0.0056
1934.00,0.0056
1933.00,0.0055
1932.00,0.0055
1931.00,0.0055
1930.00,0.0055
1929.00,0.0056
1928.00,0.0057
1927.00,0.0057
1926.00,0.0057
1925.00,0.0057
1924.00,0.0057
1923.00,0.0058
1922.00,0.0059
1921.00,0.0060
1920.00,0.0060
1919.00,0.0060
1918.00,0.0059
1917.00,0.0059
1916.00,0.0060
1915.00,0.0060
1914.00,0.0061
1913.00,0.0061
1912.00,0.0062
1911.00,0.0063
1910.00,0.0063
1909.00,0.0063
1908.00,0.0063
1907.00,0.0063
1906.00,0.0062
1905.00,0.0063
1904.00,0.0063
1903.00,0.0063
1902.00,0.0064
1901.00,0.0064
1900.00,0.0065
1899.00,0.0064
1898.00,0.0064
1897.00,0.0064
1896.00,0.0064
1895.00,0.0064
1894.00,0.0064
1893.00,0.0064
1892.00,0.0064
1891.00,0.0064
1890.00,0.0064
1889.00,0.0064
1888.00,0.0064
1887.00,0.0064
1886.00,0.0064
1885.00,0.0064
1884.00,0.0065
1883.00,0.0066
1882.00,0.0066
1881.00,0.0066
1880.00,0.0066
1879.00,0.0066
1878.00,0.0066
1877.00,0.0066
1876.00,0.0066
1875.00,0.0066
1874.00,0.0065
1873.00,0.0065
1872.00,0.0065
1871.00,0.0065
1870.00,0.0065
1869.00,0.0064
1868.00,0.0064
1867.00,0.0064
1866.00,0.0064
1865.00,0.0065
1864.00,0.0065
1863.00,0.0065
1862.00,0.0065
1861.00,0.0066
1860.00,0.0066
1859.00,0.0066
1858.00,0.0066
1857.00,0.0066
1856.00,0.0066
1855.00,0.0066
1854.00,0.0066
1853.00,0.0066
1852.00,0.0066
1851.00,0.0066
1850.00,0.0065
1849.00,0.0065
1848.00,0.0065
1847.00,0.0066
1846.00,0.0065
1845.00,0.0065
1844.00,0.0065
1843.00,0.0065
1842.00,0.0065
1841.00,0.0066
1840.00,0.0066
1839.00,0.0066
1838.00,0.0066
1837.00,0.0066
1836.00,0.0067
1835.00,0.0067
1834.00,0.0067
1833.00,0.0067
1832.00,0.0067
1831.00,0.0067
1830.00,0.0068
1829.00,0.0068
1828.00,0.0068
1827.00,0.0068
1826.00,0.0068
1825.00,0.0068
1824.00,0.0068
1823.00,0.0069
1822.00,0.0069
1821.00,0.0069
1820.00,0.0068
1819.00,0.0067
1818.00,0.0066
1817.00,0.0066
1816.00,0.0067
1815.00,0.0068
1814.00,0.0069
1813.00,0.0070
1812.00,0.0071
1811.00,0.0072
1810.00,0.0072
1809.00,0.0073
1808.00,0.0074
1807.00,0.0075
1806.00,0.0075
1805.00,0.0076
1804.00,0.0076
1803.00,0.0076
1802.00,0.0075
1801.00,0.0075
1800.00,0.0076
1799.00,0.0076
1798.00,0.0076
1797.00,0.0076
1796.00,0.0075
1795.00,0.0074
1794.00,0.0073
1793.00,0.0072
1792.00,0.0072
1791.00,0.0072
1790.00,0.0073
1789.00,0.0073
1788.00,0.0074
1787.00,0.0074
1786.00,0.0074
1785.00,0.0074
1784.00,0.0074
1783.00,0.0075
1782.00,0.0075
1781.00,0.0075
1780.00,0.0076
1779.00,0.0077
1778.00,0.0077
1777.00,0.0078
1776.00,0.0078
1775.00,0.0079
1774.00,0.0080
1773.00,0.0081
1772.00,0.0081
1771.00,0.0082
1770.00,0.0081
1769.00,0.0080
1768.00,0.0080
1767.00,0.0080
1766.00,0.0079
1765.00,0.0078
1764.00,0.0078
1763.00,0.0077
1762.00,0.0077
1761.00,0.0076
1760.00,0.0076
1759.00,0.0076
1758.00,0.0076
1757.00,0.0076
1756.00,0.0076
1755.00,0.0076
1754.00,0.0076
1753.00,0.0076
1752.00,0.0075
1751.00,0.0075
1750.00,0.0074
1749.00,0.0074
1748.00,0.0075
1747.00,0.0076
1746.00,0.0077
1745.00,0.0077
1744.00,0.0078
1743.00,0.0078
1742.00,0.0079
1741.00,0.0079
1740.00,0.0080
1739.00,0.0081
1738.00,0.0081
1737.00,0.0082
1736.00,0.0082
1735.00,0.0082
1734.00,0.0083
1733.00,0.0083
1732.00,0.0084
1731.00,0.0084
1730.00,0.0085
1729.00,0.0086
1728.00,0.0088
1727.00,0.0089
1726.00,0.0089
1725.00,0.0090
1724.00,0.0091
1723.00,0.0092
1722.00,0.0092
1721.00,0.0093
1720.00,0.0094
1719.00,0.0094
1718.00,0.0094
1717.00,0.0094
1716.00,0.0096
1715.00,0.0097
1714.00,0.0099
1713.00,0.0101
1712.00,0.0103
1711.00,0.0105
1710.00,0.0107
1709.00,0.0109
1708.00,0.0112
1707.00,0.0115
1706.00,0.0118
1705.00,0.0123
1704.00,0.0128
1703.00,0.0132
1702.00,0.0137
1701.00,0.0144
1700.00,0.0155
1699.00,0.0164
1698.00,0.0172
1697.00,0.0182
1696.00,0.0198
1695.00,0.0214
1694.00,0.0227
1693.00,0.0238
1692.00,0.0249
1691.00,0.0262
1690.00,0.0275
1689.00,0.0288
1688.00,0.0300
1687.00,0.0310
1686.00,0.0319
1685.00,0.0328
1684.00,0.0339
1683.00,0.0346
1682.00,0.0351
1681.00,0.0355
1680.00,0.0359
1679.00,0.0363
1678.00,0.0367
1677.00,0.0370
1676.00,0.0374
1675.00,0.0378
1674.00,0.0382
1673.00,0.0385
1672.00,0.0390
1671.00,0.0396
1670.00,0.0403
1669.00,0.0410
1668.00,0.0418
1667.00,0.0425
1666.00,0.0432
1665.00,0.0438
1664.00,0.0444
1663.00,0.0448
1662.00,0.0450
1661.00,0.0449
1660.00,0.0448
1659.00,0.0447
1658.00,0.0446
1657.00,0.0445
1656.00,0.0445
1655.00,0.0446
1654.00,0.0443
1653.00,0.0436
1652.00,0.0430
1651.00,0.0430
1650.00,0.0434
1649.00,0.0444
1648.00,0.0463
1647.00,0.0492
1646.00,0.0525
1645.00,0.0546
1644.00,0.0552
1643.00,0.0543
1642.00,0.0524
1641.00,0.0500
1640.00,0.0480
1639.00,0.0467
1638.00,0.0464
1637.00,0.0476
1636.00,0.0508
1635.00,0.0549
1634.00,0.0582
1633.00,0.0603
1632.00,0.0617
1631.00,0.0627
1630.00,0.0636
1629.00,0.0648
1628.00,0.0665
1627.00,0.0686
1626.00,0.0709
1625.00,0.0733
1624.00,0.0753
1623.00,0.0761
1622.00,0.0747
1621.00,0.0711
1620.00,0.0664
1619.00,0.0611
1618.00,0.0555
1617.00,0.0497
1616.00,0.0446
1615.00,0.0407
1614.00,0.0377
1613.00,0.0352
1612.00,0.0329
1611.00,0.0308
1610.00,0.0289
1609.00,0.0274
1608.00,0.0261
1607.00,0.0250
1606.00,0.0242
1605.00,0.0237
1604.00,0.0233
1603.00,0.0231
1602.00,0.0231
1601.00,0.0234
1600.00,0.0239
1599.00,0.0246
1598.00,0.0256
1597.00,0.0268
1596.00,0.0284
1595.00,0.0304
1594.00,0.0330
1593.00,0.0362
1592.00,0.0402
1591.00,0.0451
1590.00,0.0507
1589.00,0.0566
1588.00,0.0626
1587.00,0.0682
1586.00,0.0733
1585.00,0.0776
1584.00,0.0812
1583.00,0.0837
1582.00,0.0846
1581.00,0.0835
1580.00,0.0808
1579.00,0.0767
1578.00,0.0714
1577.00,0.0651
1576.00,0.0586
1575.00,0.0528
1574.00,0.0482
1573.00,0.0443
1572.00,0.0407
1571.00,0.0372
1570.00,0.0337
1569.00,0.0306
1568.00,0.0281
1567.00,0.0260
1566.00,0.0242
1565.00,0.0225
1564.00,0.0212
1563.00,0.0201
1562.00,0.0193
1561.00,0.0186
1560.00,0.0177
1559.00,0.0169
1558.00,0.0165
1557.00,0.0162
1556.00,0.0158
1555.00,0.0154
1554.00,0.0151
1553.00,0.0148
1552.00,0.0144
1551.00,0.0141
1550.00,0.0139
1549.00,0.0137
1548.00,0.0135
1547.00,0.0133
1546.00,0.0132
1545.00,0.0130
1544.00,0.0128
1543.00,0.0127
1542.00,0.0126
1541.00,0.0127
1540.00,0.0128
1539.00,0.0130
1538.00,0.0130
1537.00,0.0129
1536.00,0.0128
1535.00,0.0128
1534.00,0.0128
1533.00,0.0129
1532.00,0.0129
1531.00,0.0130
1530.00,0.0130
1529.00,0.0131
1528.00,0.0132
1527.00,0.0134
1526.00,0.0137
1525.00,0.0140
1524.00,0.0145
1523.00,0.0152
1522.00,0.0164
1521.00,0.0181
1520.00,0.0197
1519.00,0.0209
1518.00,0.0222
1517.00,0.0237
1516.00,0.0250
1515.00,0.0257
1514.00,0.0257
1513.00,0.0252
1512.00,0.0243
1511.00,0.0231
1510.00,0.0219
1509.00,0.0208
1508.00,0.0198
1507.00,0.0192
1506.00,0.0189
1505.00,0.0189
1504.00,0.0188
1503.00,0.0186
1502.00,0.0185
1501.00,0.0185
1500.00,0.0184
1499.00,0.0184
1498.00,0.0183
1497.00,0.0182
1496.00,0.0181
1495.00,0.0179
1494.00,0.0176
1493.00,0.0173
1492.00,0.0169
1491.00,0.0163
1490.00,0.0158
1489.00,0.0153
1488.00,0.0150
1487.00,0.0147
1486.00,0.0145
1485.00,0.0143
1484.00,0.0142
1483.00,0.0142
1482.00,0.0142
1481.00,0.0143
1480.00,0.0145
1479.00,0.0147
1478.00,0.0150
1477.00,0.0154
1476.00,0.0160
1475.00,0.0167
1474.00,0.0178
1473.00,0.0195
1472.00,0.0221
1471.00,0.0250
1470.00,0.0280
1469.00,0.0312
1468.00,0.0344
1467.00,0.0372
1466.00,0.0397
1465.00,0.0419
1464.00,0.0440
1463.00,0.0455
1462.00,0.0467
1461.00,0.0475
1460.00,0.0480
1459.00,0.0484
1458.00,0.0490
1457.00,0.0505
1456.00,0.0525
1455.00,0.0545
1454.00,0.0569
1453.00,0.0601
1452.00,0.0644
1451.00,0.0693
1450.00,0.0750
1449.00,0.0817
1448.00,0.0891
1447.00,0.0962
1446.00,0.1018
1445.00,0.1058
1444.00,0.1083
1443.00,0.1095
1442.00,0.1097
1441.00,0.1093
1440.00,0.1082
1439.00,0.1065
1438.00,0.1047
1437.00,0.1028
1436.00,0.1007
1435.00,0.0981
1434.00,0.0952
1433.00,0.0923
1432.00,0.0892
1431.00,0.0856
1430.00,0.0815
1429.00,0.0767
1428.00,0.0714
1427.00,0.0660
1426.00,0.0609
1425.00,0.0560
1424.00,0.0515
1423.00,0.0479
1422.00,0.0449
1421.00,0.0423
1420.00,0.0393
1419.00,0.0362
1418.00,0.0334
1417.00,0.0311
1416.00,0.0293
1415.00,0.0277
1414.00,0.0264
1413.00,0.0251
1412.00,0.0240
1411.00,0.0231
1410.00,0.0224
1409.00,0.0218
1408.00,0.0213
1407.00,0.0209
1406.00,0.0206
1405.00,0.0203
1404.00,0.0201
1403.00,0.0199
1402.00,0.0198
1401.00,0.0197
1400.00,0.0195
1399.00,0.0194
1398.00,0.0194
1397.00,0.0194
1396.00,0.0193
1395.00,0.0193
1394.00,0.0194
1393.00,0.0194
1392.00,0.0194
1391.00,0.0195
1390.00,0.0197
1389.00,0.0200
1388.00,0.0204
1387.00,0.0210
1386.00,0.0219
1385.00,0.0230
1384.00,0.0244
1383.00,0.0263
1382.00,0.0288
1381.00,0.0319
1380.00,0.0358
1379.00,0.0403
1378.00,0.0451
1377.00,0.0495
1376.00,0.0526
1375.00,0.0540
1374.00,0.0535
1373.00,0.0515
1372.00,0.0487
1371.00,0.0460
1370.00,0.0433
1369.00,0.0408
1368.00,0.0386
1367.00,0.0367
1366.00,0.0350
1365.00,0.0334
1364.00,0.0318
1363.00,0.0302
1362.00,0.0289
1361.00,0.0279
1360.00,0.0271
1359.00,0.0266
1358.00,0.0262
1357.00,0.0259
1356.00,0.0258
1355.00,0.0257
1354.00,0.0257
1353.00,0.0257
1352.00,0.0258
1351.00,0.0259
1350.00,0.0262
1349.00,0.0265
1348.00,0.0270
1347.00,0.0276
1346.00,0.0282
1345.00,0.0288
1344.00,0.0293
1343.00,0.0297
1342.00,0.0299
1341.00,0.0297
1340.00,0.0291
1339.00,0.0283
1338.00,0.0276
1337.00,0.0270
1336.00,0.0267
1335.00,0.0268
1334.00,0.0273
1333.00,0.0279
1332.00,0.0288
1331.00,0.0298
1330.00,0.0308
1329.00,0.0318
1328.00,0.0328
1327.00,0.0338
1326.00,0.0349
1325.00,0.0358
1324.00,0.0364
1323.00,0.0365
1322.00,0.0360
1321.00,0.0352
1320.00,0.0345
1319.00,0.0344
1318.00,0.0350
1317.00,0.0364
1316.00,0.0387
1315.00,0.0417
1314.00,0.0449
1313.00,0.0477
1312.00,0.0496
1311.00,0.0502
1310.00,0.0498
1309.00,0.0487
1308.00,0.0476
1307.00,0.0470
1306.00,0.0472
1305.00,0.0479
1304.00,0.0490
1303.00,0.0501
1302.00,0.0510
1301.00,0.0516
1300.00,0.0520
1299.00,0.0523
1298.00,0.0526
1297.00,0.0528
1296.00,0.0531
1295.00,0.0533
1294.00,0.0535
1293.00,0.0534
1292.00,0.0532
1291.00,0.0529
1290.00,0.0525
1289.00,0.0522
1288.00,0.0522
1287.00,0.0525
1286.00,0.0531
1285.00,0.0540
1284.00,0.0550
1283.00,0.0560
1282.00,0.0569
1281.00,0.0576
1280.00,0.0580
1279.00,0.0581
1278.00,0.0579
1277.00,0.0572
1276.00,0.0561
1275.00,0.0546
1274.00,0.0527
1273.00,0.0504
1272.00,0.0478
1271.00,0.0449
1270.00,0.0420
1269.00,0.0392
1268.00,0.0366
1267.00,0.0343
1266.00,0.0324
1265.00,0.0307
1264.00,0.0292
1263.00,0.0280
1262.00,0.0270
1261.00,0.0262
1260.00,0.0255
1259.00,0.0251
1258.00,0.0248
1257.00,0.0247
1256.00,0.0247
1255.00,0.0250
1254.00,0.0255
1253.00,0.0262
1252.00,0.0271
1251.00,0.0282
1250.00,0.0294
1249.00,0.0303
1248.00,0.0309
1247.00,0.0314
1246.00,0.0319
1245.00,0.0329
1244.00,0.0346
1243.00,0.0372
1242.00,0.0406
1241.00,0.0448
1240.00,0.0493
1239.00,0.0535
1238.00,0.0569
1237.00,0.0589
1236.00,0.0596
1235.00,0.0592
1234.00,0.0582
1233.00,0.0566
1232.00,0.0547
1231.00,0.0529
1230.00,0.0517
1229.00,0.0517
1228.00,0.0531
1227.00,0.0557
1226.00,0.0592
1225.00,0.0632
1224.00,0.0673
1223.00,0.0717
1222.00,0.0766
1221.00,0.0823
1220.00,0.0891
1219.00,0.0969
1218.00,0.1051
1217.00,0.1127
1216.00,0.1187
1215.00,0.1220
1214.00,0.1222
1213.00,0.1194
1212.00,0.1143
1211.00,0.1077
1210.00,0.1005
1209.00,0.0935
1208.00,0.0872
1207.00,0.0817
1206.00,0.0768
1205.00,0.0723
1204.00,0.0677
1203.00,0.0630
1202.00,0.0582
1201.00,0.0535
1200.00,0.0491
1199.00,0.0452
1198.00,0.0418
1197.00,0.0391
1196.00,0.0370
1195.00,0.0355
1194.00,0.0346
1193.00,0.0341
1192.00,0.0340
1191.00,0.0343
1190.00,0.0349
1189.00,0.0355
1188.00,0.0363
1187.00,0.0371
1186.00,0.0380
1185.00,0.0390
1184.00,0.0400
1183.00,0.0408
1182.00,0.0415
1181.00,0.0421
1180.00,0.0427
1179.00,0.0433
1178.00,0.0439
1177.00,0.0445
1176.00,0.0451
1175.00,0.0463
1174.00,0.0481
1173.00,0.0499
1172.00,0.0507
1171.00,0.0496
1170.00,0.0467
1169.00,0.0426
1168.00,0.0384
1167.00,0.0348
1166.00,0.0318
1165.00,0.0295
1164.00,0.0278
1163.00,0.0265
1162.00,0.0255
1161.00,0.0250
1160.00,0.0247
1159.00,0.0249
1158.00,0.0256
1157.00,0.0269
1156.00,0.0291
1155.00,0.0327
1154.00,0.0376
1153.00,0.0437
1152.00,0.0495
1151.00,0.0532
1150.00,0.0534
1149.00,0.0498
1148.00,0.0437
1147.00,0.0373
1146.00,0.0317
1145.00,0.0277
1144.00,0.0248
1143.00,0.0230
1142.00,0.0218
1141.00,0.0211
1140.00,0.0209
1139.00,0.0210
1138.00,0.0215
1137.00,0.0221
1136.00,0.0226
1135.00,0.0228
1134.00,0.0228
1133.00,0.0223
1132.00,0.0216
1131.00,0.0208
1130.00,0.0199
1129.00,0.0191
1128.00,0.0183
1127.00,0.0177
1126.00,0.0172
1125.00,0.0168
1124.00,0.0164
1123.00,0.0161
1122.00,0.0160
1121.00,0.0159
1120.00,0.0159
1119.00,0.0160
1118.00,0.0161
1117.00,0.0163
1116.00,0.0165
1115.00,0.0167
1114.00,0.0170
1113.00,0.0174
1112.00,0.0177
1111.00,0.0181
1110.00,0.0186
1109.00,0.0192
1108.00,0.0199
1107.00,0.0206
1106.00,0.0215
1105.00,0.0224
1104.00,0.0233
1103.00,0.0244
1102.00,0.0257
1101.00,0.0270
1100.00,0.0281
1099.00,0.0286
1098.00,0.0283
1097.00,0.0273
1096.00,0.0258
1095.00,0.0243
1094.00,0.0230
1093.00,0.0219
1092.00,0.0211
1091.00,0.0204
1090.00,0.0198
1089.00,0.0194
1088.00,0.0192
1087.00,0.0193
1086.00,0.0198
1085.00,0.0207
1084.00,0.0219
1083.00,0.0235
1082.00,0.0253
1081.00,0.0269
1080.00,0.0280
1079.00,0.0283
1078.00,0.0277
1077.00,0.0265
1076.00,0.0251
1075.00,0.0237
1074.00,0.0226
1073.00,0.0217
1072.00,0.0210
1071.00,0.0204
1070.00,0.0199
1069.00,0.0196
1068.00,0.0193
1067.00,0.0192
1066.00,0.0193
1065.00,0.0195
1064.00,0.0199
1063.00,0.0205
1062.00,0.0214
1061.00,0.0227
1060.00,0.0245
1059.00,0.0270
1058.00,0.0305
1057.00,0.0351
1056.00,0.0408
1055.00,0.0469
1054.00,0.0525
1053.00,0.0565
1052.00,0.0586
1051.00,0.0587
1050.00,0.0571
1049.00,0.0540
1048.00,0.0496
1047.00,0.0448
1046.00,0.0404
1045.00,0.0371
1044.00,0.0351
1043.00,0.0344
1042.00,0.0346
1041.00,0.0356
1040.00,0.0370
1039.00,0.0390
1038.00,0.0419
1037.00,0.0459
1036.00,0.0509
1035.00,0.0568
1034.00,0.0627
1033.00,0.0674
1032.00,0.0698
1031.00,0.0696
1030.00,0.0673
1029.00,0.0638
1028.00,0.0603
1027.00,0.0575
1026.00,0.0561
1025.00,0.0566
1024.00,0.0589
1023.00,0.0630
1022.00,0.0684
1021.00,0.0741
1020.00,0.0786
1019.00,0.0807
1018.00,0.0798
1017.00,0.0763
1016.00,0.0713
1015.00,0.0658
1014.00,0.0605
1013.00,0.0557
1012.00,0.0518
1011.00,0.0489
1010.00,0.0473
1009.00,0.0467
1008.00,0.0469
1007.00,0.0479
1006.00,0.0497
1005.00,0.0520
1004.00,0.0541
1003.00,0.0556
1002.00,0.0558
1001.00,0.0547
1000.00,0.0521
999.00,0.0484
998.00,0.0441
997.00,0.0398
996.00,0.0360
995.00,0.0331
994.00,0.0311
993.00,0.0299
992.00,0.0295
991.00,0.0297
990.00,0.0305
989.00,0.0315
988.00,0.0325
987.00,0.0334
986.00,0.0340
985.00,0.0342
984.00,0.0337
983.00,0.0324
982.00,0.0307
981.00,0.0290
980.00,0.0276
979.00,0.0266
978.00,0.0260
977.00,0.0255
976.00,0.0251
975.00,0.0247
974.00,0.0244
973.00,0.0244
972.00,0.0246
971.00,0.0252
970.00,0.0261
969.00,0.0272
968.00,0.0284
967.00,0.0298
966.00,0.0313
965.00,0.0331
964.00,0.0351
963.00,0.0371
962.00,0.0386
961.00,0.0390
960.00,0.0381
959.00,0.0361
958.00,0.0334
957.00,0.0306
956.00,0.0281
955.00,0.0261
954.00,0.0244
953.00,0.0231
952.00,0.0221
951.00,0.0212
950.00,0.0205
949.00,0.0198
948.00,0.0192
947.00,0.0186
946.00,0.0181
945.00,0.0177
944.00,0.0172
943.00,0.0169
942.00,0.0166
941.00,0.0164
940.00,0.0162
939.00,0.0161
938.00,0.0161
937.00,0.0161
936.00,0.0162
935.00,0.0163
934.00,0.0165
933.00,0.0168
932.00,0.0172
931.00,0.0175
930.00,0.0178
929.00,0.0179
928.00,0.0179
927.00,0.0177
926.00,0.0177
925.00,0.0175
924.00,0.0174
923.00,0.0173
922.00,0.0172
921.00,0.0174
920.00,0.0177
919.00,0.0183
918.00,0.0191
917.00,0.0199
916.00,0.0206
915.00,0.0211
914.00,0.0212
913.00,0.0211
912.00,0.0210
911.00,0.0210
910.00,0.0215
909.00,0.0224
908.00,0.0238
907.00,0.0257
906.00,0.0281
905.00,0.0310
904.00,0.0343
903.00,0.0381
902.00,0.0429
901.00,0.0489
900.00,0.0560
899.00,0.0639
898.00,0.0714
897.00,0.0765
896.00,0.0780
895.00,0.0758
894.00,0.0708
893.00,0.0648
892.00,0.0590
891.00,0.0545
890.00,0.0519
889.00,0.0519
888.00,0.0549
887.00,0.0611
886.00,0.0699
885.00,0.0795
884.00,0.0869
883.00,0.0897
882.00,0.0866
881.00,0.0789
880.00,0.0692
879.00,0.0599
878.00,0.0521
877.00,0.0464
876.00,0.0425
875.00,0.0401
874.00,0.0393
873.00,0.0396
872.00,0.0409
871.00,0.0425
870.00,0.0436
869.00,0.0436
868.00,0.0428
867.00,0.0420
866.00,0.0422
865.00,0.0439
864.00,0.0465
863.00,0.0494
862.00,0.0515
861.00,0.0524
860.00,0.0522
859.00,0.0518
858.00,0.0518
857.00,0.0525
856.00,0.0539
855.00,0.0555
854.00,0.0570
853.00,0.0584
852.00,0.0595
851.00,0.0601
850.00,0.0599
849.00,0.0589
848.00,0.0571
847.00,0.0551
846.00,0.0535
845.00,0.0524
844.00,0.0517
843.00,0.0509
842.00,0.0499
841.00,0.0486
840.00,0.0475
839.00,0.0467
838.00,0.0466
837.00,0.0470
836.00,0.0479
835.00,0.0492
834.00,0.0508
833.00,0.0527
832.00,0.0546
831.00,0.0565
830.00,0.0582
829.00,0.0595
828.00,0.0602
827.00,0.0599
826.00,0.0586
825.00,0.0563
824.00,0.0531
823.00,0.0496
822.00,0.0459
821.00,0.0422
820.00,0.0388
819.00,0.0358
818.00,0.0333
817.00,0.0314
816.00,0.0300
815.00,0.0289
814.00,0.0280
813.00,0.0272
812.00,0.0267
811.00,0.0267
810.00,0.0276
809.00,0.0299
808.00,0.0338
807.00,0.0392
806.00,0.0450
805.00,0.0491
804.00,0.0502
803.00,0.0481
802.00,0.0441
801.00,0.0396
800.00,0.0355
799.00,0.0323
798.00,0.0299
797.00,0.0281
796.00,0.0268
795.00,0.0260
794.00,0.0256
793.00,0.0254
792.00,0.0252
791.00,0.0249
790.00,0.0246
789.00,0.0243
788.00,0.0242
787.00,0.0242
786.00,0.0243
785.00,0.0241
784.00,0.0235
783.00,0.0228
782.00,0.0221
781.00,0.0217
780.00,0.0215
779.00,0.0215
778.00,0.0215
777.00,0.0215
776.00,0.0214
775.00,0.0212
774.00,0.0212
773.00,0.0213
772.00,0.0215
771.00,0.0217
770.00,0.0217
769.00,0.0214
768.00,0.0209
767.00,0.0202
766.00,0.0196
765.00,0.0189
764.00,0.0184
763.00,0.0181
762.00,0.0179
761.00,0.0179
760.00,0.0179
759.00,0.0181
758.00,0.0185
757.00,0.0191
756.00,0.0199
755.00,0.0212
754.00,0.0229
753.00,0.0246
752.00,0.0260
751.00,0.0271
750.00,0.0278
749.00,0.0281
748.00,0.0278
747.00,0.0268
746.00,0.0252
745.00,0.0235
744.00,0.0220
743.00,0.0208
742.00,0.0201
741.00,0.0197
740.00,0.0195
739.00,0.0195
738.00,0.0197
737.00,0.0201
736.00,0.0207
735.00,0.0217
734.00,0.0231
733.00,0.0247
732.00,0.0262
731.00,0.0271
730.00,0.0269
729.00,0.0259
728.00,0.0245
727.00,0.0233
726.00,0.0225
725.00,0.0220
724.00,0.0217
723.00,0.0214
722.00,0.0212
721.00,0.0210
720.00,0.0206
719.00,0.0201
718.00,0.0196
717.00,0.0189
716.00,0.0183
715.00,0.0178
714.00,0.0175
713.00,0.0175
712.00,0.0174
711.00,0.0174
710.00,0.0173
709.00,0.0170
708.00,0.0167
707.00,0.0163
706.00,0.0160
705.00,0.0158
704.00,0.0156
703.00,0.0155
702.00,0.0155
701.00,0.0155
700.00,0.0155
699.00,0.0154
698.00,0.0155
697.00,0.0155
696.00,0.0155
695.00,0.0155
694.00,0.0157
693.00,0.0157
692.00,0.0157
691.00,0.0158
690.00,0.0158
689.00,0.0160
688.00,0.0162
687.00,0.0164
686.00,0.0167
685.00,0.0170
684.00,0.0172
683.00,0.0175
682.00,0.0178
681.00,0.0181
680.00,0.0184
679.00,0.0188
678.00,0.0192
677.00,0.0197
676.00,0.0202
675.00,0.0209
674.00,0.0217
673.00,0.0227
672.00,0.0238
671.00,0.0250
670.00,0.0262
669.00,0.0272
668.00,0.0280
667.00,0.0287
666.00,0.0292
665.00,0.0298
664.00,0.0303
663.00,0.0307
662.00,0.0310
661.00,0.0312
660.00,0.0313
659.00,0.0315
658.00,0.0316
657.00,0.0316
656.00,0.0313
655.00,0.0310
654.00,0.0310
653.00,0.0314
652.00,0.0320
651.00,0.0328
650.00,0.0335
649.00,0.0338
648.00,0.0336
647.00,0.0330
646.00,0.0320
645.00,0.0307
644.00,0.0294
643.00,0.0282
642.00,0.0271
641.00,0.0263
640.00,0.0256
639.00,0.0252
638.00,0.0250
637.00,0.0249
636.00,0.0249
635.00,0.0250
634.00,0.0251
633.00,0.0252
632.00,0.0255
631.00,0.0259
630.00,0.0264
629.00,0.0269
628.00,0.0274
627.00,0.0279
626.00,0.0284
625.00,0.0288
624.00,0.0289
623.00,0.0288
622.00,0.0284
621.00,0.0277
620.00,0.0266
619.00,0.0254
618.00,0.0244
617.00,0.0238
616.00,0.0240
615.00,0.0251
614.00,0.0271
613.00,0.0294
612.00,0.0315
611.00,0.0327
610.00,0.0329
609.00,0.0325
608.00,0.0320
607.00,0.0319
606.00,0.0322
605.00,0.0327
604.00,0.0333
603.00,0.0339
602.00,0.0346
601.00,0.0356
600.00,0.0366
599.00,0.0376
598.00,0.0382
597.00,0.0383
596.00,0.0382
595.00,0.0383
594.00,0.0387
593.00,0.0397
592.00,0.0412
591.00,0.0432
590.00,0.0455
589.00,0.0476
588.00,0.0493
587.00,0.0503
586.00,0.0505
585.00,0.0498
584.00,0.0484
583.00,0.0468
582.00,0.0450
581.00,0.0432
580.00,0.0415
579.00,0.0402
578.00,0.0393
577.00,0.0387
576.00,0.0384
575.00,0.0384
574.00,0.0387
573.00,0.0391
572.00,0.0395
571.00,0.0399
570.00,0.0404
569.00,0.0409
568.00,0.0411
567.00,0.0413
566.00,0.0415
565.00,0.0416
564.00,0.0417
563.00,0.0417
562.00,0.0417
561.00,0.0417
560.00,0.0415
559.00,0.0414
558.00,0.0414
557.00,0.0415
556.00,0.0415
555.00,0.0416
554.00,0.0420
553.00,0.0430
552.00,0.0442
551.00,0.0455
550.00,0.0467
549.00,0.0476
548.00,0.0483
547.00,0.0492
546.00,0.0505
545.00,0.0518
544.00,0.0526
543.00,0.0530
542.00,0.0534
541.00,0.0540
540.00,0.0553
539.00,0.0575
538.00,0.0603
537.00,0.0629
536.00,0.0645
535.00,0.0650
534.00,0.0644
533.00,0.0632
532.00,0.0617
531.00,0.0604
530.00,0.0597
529.00,0.0598
528.00,0.0608
527.00,0.0632
526.00,0.0670
525.00,0.0712
524.00,0.0753
523.00,0.0786
522.00,0.0802
521.00,0.0792
520.00,0.0752
519.00,0.0694
518.00,0.0634
517.00,0.0582
516.00,0.0544
515.00,0.0517
514.00,0.0502
513.00,0.0495
512.00,0.0494
511.00,0.0499
510.00,0.0509
509.00,0.0523
508.00,0.0540
507.00,0.0560
506.00,0.0585
505.00,0.0611
504.00,0.0639
503.00,0.0667
502.00,0.0698
501.00,0.0728
500.00,0.0754
499.00,0.0778
498.00,0.0801
497.00,0.0821
496.00,0.0834
495.00,0.0842
494.00,0.0845
493.00,0.0845
492.00,0.0840
491.00,0.0834
490.00,0.0828
489.00,0.0824
488.00,0.0820
487.00,0.0817
486.00,0.0816
485.00,0.0815
484.00,0.0810
483.00,0.0801
482.00,0.0789
481.00,0.0773
480.00,0.0755
479.00,0.0739
478.00,0.0729
477.00,0.0722
476.00,0.0718
475.00,0.0717
474.00,0.0720
473.00,0.0725
472.00,0.0731
471.00,0.0740
470.00,0.0754
469.00,0.0768
468.00,0.0779
467.00,0.0786
466.00,0.0790
465.00,0.0792
464.00,0.0791
463.00,0.0787
462.00,0.0782
461.00,0.0776
460.00,0.0767
459.00,0.0759
458.00,0.0754
457.00,0.0753
456.00,0.0752
455.00,0.0751
454.00,0.0750
453.00,0.0747
452.00,0.0738
451.00,0.0727
450.00,0.0720
449.00,0.0713
448.00,0.0706
447.00,0.0696
446.00,0.0685
445.00,0.0671
444.00,0.0657
443.00,0.0645
442.00,0.0641
441.00,0.0638
440.00,0.0634
439.00,0.0630
438.00,0.0629
437.00,0.0629
436.00,0.0626
435.00,0.0623
434.00,0.0621
433.00,0.0621
432.00,0.0625
431.00,0.0635
430.00,0.0655
429.00,0.0680
428.00,0.0709
427.00,0.0742
426.00,0.0773
425.00,0.0795
424.00,0.0801
423.00,0.0794
422.00,0.0784
421.00,0.0775
420.00,0.0763
419.00,0.0753
418.00,0.0749
417.00,0.0748
416.00,0.0748
415.00,0.0752
414.00,0.0760
413.00,0.0766
412.00,0.0768
411.00,0.0774
410.00,0.0788
409.00,0.0805
408.00,0.0820
407.00,0.0831
406.00,0.0840
405.00,0.0845
404.00,0.0848
403.00,0.0858
402.00,0.0878
401.00,0.0900
400.00,0.0913
