Created as New Dataset,Sample 894 By YargerLab Date Wednesday, July 23 2025
cm-1,A
4000.00,0.0021
3999.00,0.0021
3998.00,0.0021
3997.00,0.0021
3996.00,0.0021
3995.00,0.0021
3994.00,0.0021
3993.00,0.0021
3992.00,0.0021
3991.00,0.0021
3990.00,0.0021
3989.00,0.0021
3988.00,0.0021
3987.00,0.0022
3986.00,0.0022
3985.00,0.0022
3984.00,0.0022
3983.00,0.0021
3982.00,0.0021
3981.00,0.0021
3980.00,0.0021
3979.00,0.0021
3978.00,0.0021
3977.00,0.0020
3976.00,0.0020
3975.00,0.0020
3974.00,0.0020
3973.00,0.0021
3972.00,0.0021
3971.00,0.0021
3970.00,0.0021
3969.00,0.0021
3968.00,0.0021
3967.00,0.0021
3966.00,0.0021
3965.00,0.0021
3964.00,0.0021
3963.00,0.0021
3962.00,0.0021
3961.00,0.0021
3960.00,0.0021
3959.00,0.0022
3958.00,0.0021
3957.00,0.0021
3956.00,0.0021
3955.00,0.0021
3954.00,0.0021
3953.00,0.0021
3952.00,0.0021
3951.00,0.0021
3950.00,0.0021
3949.00,0.0021
3948.00,0.0021
3947.00,0.0021
3946.00,0.0021
3945.00,0.0021
3944.00,0.0021
3943.00,0.0021
3942.00,0.0021
3941.00,0.0021
3940.00,0.0021
3939.00,0.0021
3938.00,0.0021
3937.00,0.0020
3936.00,0.0020
3935.00,0.0020
3934.00,0.0020
3933.00,0.0020
3932.00,0.0020
3931.00,0.0020
3930.00,0.0020
3929.00,0.0020
3928.00,0.0020
3927.00,0.0020
3926.00,0.0020
3925.00,0.0020
3924.00,0.0020
3923.00,0.0021
3922.00,0.0020
3921.00,0.0020
3920.00,0.0020
3919.00,0.0020
3918.00,0.0021
3917.00,0.0021
3916.00,0.0021
3915.00,0.0021
3914.00,0.0021
3913.00,0.0021
3912.00,0.0021
3911.00,0.0021
3910.00,0.0021
3909.00,0.0020
3908.00,0.0020
3907.00,0.0020
3906.00,0.0020
3905.00,0.0020
3904.00,0.0020
3903.00,0.0020
3902.00,0.0019
3901.00,0.0019
3900.00,0.0019
3899.00,0.0020
3898.00,0.0020
3897.00,0.0020
3896.00,0.0020
3895.00,0.0020
3894.00,0.0020
3893.00,0.0020
3892.00,0.0020
3891.00,0.0020
3890.00,0.0020
3889.00,0.0020
3888.00,0.0020
3887.00,0.0020
3886.00,0.0020
3885.00,0.0020
3884.00,0.0020
3883.00,0.0020
3882.00,0.0020
3881.00,0.0020
3880.00,0.0020
3879.00,0.0020
3878.00,0.0020
3877.00,0.0020
3876.00,0.0020
3875.00,0.0020
3874.00,0.0020
3873.00,0.0020
3872.00,0.0020
3871.00,0.0019
3870.00,0.0019
3869.00,0.0019
3868.00,0.0020
3867.00,0.0020
3866.00,0.0020
3865.00,0.0020
3864.00,0.0020
3863.00,0.0020
3862.00,0.0020
3861.00,0.0019
3860.00,0.0019
3859.00,0.0018
3858.00,0.0019
3857.00,0.0019
3856.00,0.0019
3855.00,0.0020
3854.00,0.0020
3853.00,0.0019
3852.00,0.0020
3851.00,0.0020
3850.00,0.0019
3849.00,0.0019
3848.00,0.0019
3847.00,0.0019
3846.00,0.0019
3845.00,0.0019
3844.00,0.0019
3843.00,0.0019
3842.00,0.0019
3841.00,0.0019
3840.00,0.0020
3839.00,0.0020
3838.00,0.0020
3837.00,0.0019
3836.00,0.0019
3835.00,0.0019
3834.00,0.0019
3833.00,0.0019
3832.00,0.0019
3831.00,0.0020
3830.00,0.0020
3829.00,0.0020
3828.00,0.0020
3827.00,0.0020
3826.00,0.0020
3825.00,0.0019
3824.00,0.0019
3823.00,0.0019
3822.00,0.0019
3821.00,0.0019
3820.00,0.0019
3819.00,0.0019
3818.00,0.0019
3817.00,0.0019
3816.00,0.0019
3815.00,0.0020
3814.00,0.0020
3813.00,0.0020
3812.00,0.0020
3811.00,0.0020
3810.00,0.0020
3809.00,0.0020
3808.00,0.0020
3807.00,0.0019
3806.00,0.0019
3805.00,0.0019
3804.00,0.0019
3803.00,0.0019
3802.00,0.0019
3801.00,0.0019
3800.00,0.0019
3799.00,0.0019
3798.00,0.0019
3797.00,0.0020
3796.00,0.0020
3795.00,0.0020
3794.00,0.0020
3793.00,0.0020
3792.00,0.0020
3791.00,0.0020
3790.00,0.0020
3789.00,0.0020
3788.00,0.0020
3787.00,0.0020
3786.00,0.0020
3785.00,0.0020
3784.00,0.0020
3783.00,0.0020
3782.00,0.0020
3781.00,0.0019
3780.00,0.0019
3779.00,0.0019
3778.00,0.0020
3777.00,0.0020
3776.00,0.0020
3775.00,0.0020
3774.00,0.0020
3773.00,0.0020
3772.00,0.0020
3771.00,0.0020
3770.00,0.0020
3769.00,0.0020
3768.00,0.0020
3767.00,0.0020
3766.00,0.0020
3765.00,0.0020
3764.00,0.0020
3763.00,0.0019
3762.00,0.0019
3761.00,0.0019
3760.00,0.0019
3759.00,0.0019
3758.00,0.0019
3757.00,0.0019
3756.00,0.0019
3755.00,0.0019
3754.00,0.0019
3753.00,0.0019
3752.00,0.0019
3751.00,0.0019
3750.00,0.0019
3749.00,0.0019
3748.00,0.0019
3747.00,0.0019
3746.00,0.0019
3745.00,0.0019
3744.00,0.0020
3743.00,0.0020
3742.00,0.0019
3741.00,0.0019
3740.00,0.0019
3739.00,0.0018
3738.00,0.0018
3737.00,0.0017
3736.00,0.0017
3735.00,0.0017
3734.00,0.0017
3733.00,0.0018
3732.00,0.0018
3731.00,0.0018
3730.00,0.0018
3729.00,0.0018
3728.00,0.0018
3727.00,0.0019
3726.00,0.0019
3725.00,0.0019
3724.00,0.0019
3723.00,0.0019
3722.00,0.0019
3721.00,0.0019
3720.00,0.0019
3719.00,0.0019
3718.00,0.0019
3717.00,0.0019
3716.00,0.0019
3715.00,0.0019
3714.00,0.0019
3713.00,0.0018
3712.00,0.0018
3711.00,0.0018
3710.00,0.0018
3709.00,0.0018
3708.00,0.0019
3707.00,0.0019
3706.00,0.0019
3705.00,0.0018
3704.00,0.0018
3703.00,0.0018
3702.00,0.0019
3701.00,0.0019
3700.00,0.0019
3699.00,0.0019
3698.00,0.0020
3697.00,0.0020
3696.00,0.0020
3695.00,0.0019
3694.00,0.0019
3693.00,0.0019
3692.00,0.0019
3691.00,0.0019
3690.00,0.0019
3689.00,0.0019
3688.00,0.0019
3687.00,0.0019
3686.00,0.0019
3685.00,0.0019
3684.00,0.0020
3683.00,0.0020
3682.00,0.0019
3681.00,0.0019
3680.00,0.0019
3679.00,0.0019
3678.00,0.0019
3677.00,0.0019
3676.00,0.0019
3675.00,0.0019
3674.00,0.0019
3673.00,0.0020
3672.00,0.0020
3671.00,0.0020
3670.00,0.0020
3669.00,0.0021
3668.00,0.0021
3667.00,0.0022
3666.00,0.0022
3665.00,0.0022
3664.00,0.0022
3663.00,0.0022
3662.00,0.0022
3661.00,0.0022
3660.00,0.0023
3659.00,0.0023
3658.00,0.0023
3657.00,0.0024
3656.00,0.0024
3655.00,0.0024
3654.00,0.0024
3653.00,0.0024
3652.00,0.0024
3651.00,0.0023
3650.00,0.0023
3649.00,0.0023
3648.00,0.0024
3647.00,0.0025
3646.00,0.0026
3645.00,0.0026
3644.00,0.0027
3643.00,0.0027
3642.00,0.0028
3641.00,0.0028
3640.00,0.0029
3639.00,0.0029
3638.00,0.0030
3637.00,0.0030
3636.00,0.0030
3635.00,0.0030
3634.00,0.0031
3633.00,0.0031
3632.00,0.0032
3631.00,0.0032
3630.00,0.0032
3629.00,0.0032
3628.00,0.0033
3627.00,0.0033
3626.00,0.0034
3625.00,0.0034
3624.00,0.0035
3623.00,0.0036
3622.00,0.0036
3621.00,0.0037
3620.00,0.0037
3619.00,0.0038
3618.00,0.0038
3617.00,0.0038
3616.00,0.0039
3615.00,0.0039
3614.00,0.0039
3613.00,0.0040
3612.00,0.0041
3611.00,0.0042
3610.00,0.0042
3609.00,0.0042
3608.00,0.0043
3607.00,0.0043
3606.00,0.0044
3605.00,0.0044
3604.00,0.0045
3603.00,0.0045
3602.00,0.0046
3601.00,0.0046
3600.00,0.0047
3599.00,0.0048
3598.00,0.0048
3597.00,0.0049
3596.00,0.0049
3595.00,0.0050
3594.00,0.0050
3593.00,0.0051
3592.00,0.0051
3591.00,0.0052
3590.00,0.0053
3589.00,0.0053
3588.00,0.0054
3587.00,0.0055
3586.00,0.0055
3585.00,0.0056
3584.00,0.0056
3583.00,0.0057
3582.00,0.0058
3581.00,0.0058
3580.00,0.0059
3579.00,0.0059
3578.00,0.0060
3577.00,0.0060
3576.00,0.0061
3575.00,0.0062
3574.00,0.0062
3573.00,0.0063
3572.00,0.0064
3571.00,0.0064
3570.00,0.0065
3569.00,0.0065
3568.00,0.0066
3567.00,0.0067
3566.00,0.0068
3565.00,0.0068
3564.00,0.0069
3563.00,0.0070
3562.00,0.0071
3561.00,0.0071
3560.00,0.0072
3559.00,0.0073
3558.00,0.0074
3557.00,0.0075
3556.00,0.0075
3555.00,0.0076
3554.00,0.0077
3553.00,0.0077
3552.00,0.0078
3551.00,0.0079
3550.00,0.0079
3549.00,0.0080
3548.00,0.0081
3547.00,0.0081
3546.00,0.0082
3545.00,0.0083
3544.00,0.0084
3543.00,0.0085
3542.00,0.0086
3541.00,0.0087
3540.00,0.0088
3539.00,0.0089
3538.00,0.0090
3537.00,0.0091
3536.00,0.0092
3535.00,0.0093
3534.00,0.0093
3533.00,0.0094
3532.00,0.0095
3531.00,0.0096
3530.00,0.0097
3529.00,0.0099
3528.00,0.0100
3527.00,0.0101
3526.00,0.0103
3525.00,0.0105
3524.00,0.0106
3523.00,0.0108
3522.00,0.0109
3521.00,0.0111
3520.00,0.0113
3519.00,0.0114
3518.00,0.0115
3517.00,0.0116
3516.00,0.0117
3515.00,0.0118
3514.00,0.0119
3513.00,0.0120
3512.00,0.0121
3511.00,0.0122
3510.00,0.0122
3509.00,0.0123
3508.00,0.0124
3507.00,0.0125
3506.00,0.0127
3505.00,0.0128
3504.00,0.0129
3503.00,0.0130
3502.00,0.0132
3501.00,0.0133
3500.00,0.0134
3499.00,0.0136
3498.00,0.0137
3497.00,0.0139
3496.00,0.0140
3495.00,0.0141
3494.00,0.0143
3493.00,0.0144
3492.00,0.0146
3491.00,0.0147
3490.00,0.0149
3489.00,0.0150
3488.00,0.0151
3487.00,0.0153
3486.00,0.0154
3485.00,0.0156
3484.00,0.0158
3483.00,0.0159
3482.00,0.0161
3481.00,0.0162
3480.00,0.0164
3479.00,0.0165
3478.00,0.0167
3477.00,0.0168
3476.00,0.0170
3475.00,0.0171
3474.00,0.0172
3473.00,0.0174
3472.00,0.0176
3471.00,0.0177
3470.00,0.0179
3469.00,0.0180
3468.00,0.0181
3467.00,0.0182
3466.00,0.0184
3465.00,0.0185
3464.00,0.0186
3463.00,0.0188
3462.00,0.0189
3461.00,0.0190
3460.00,0.0191
3459.00,0.0193
3458.00,0.0194
3457.00,0.0195
3456.00,0.0196
3455.00,0.0197
3454.00,0.0198
3453.00,0.0199
3452.00,0.0200
3451.00,0.0201
3450.00,0.0203
3449.00,0.0204
3448.00,0.0205
3447.00,0.0206
3446.00,0.0207
3445.00,0.0208
3444.00,0.0209
3443.00,0.0210
3442.00,0.0211
3441.00,0.0211
3440.00,0.0212
3439.00,0.0213
3438.00,0.0214
3437.00,0.0214
3436.00,0.0215
3435.00,0.0216
3434.00,0.0217
3433.00,0.0218
3432.00,0.0219
3431.00,0.0220
3430.00,0.0221
3429.00,0.0222
3428.00,0.0222
3427.00,0.0223
3426.00,0.0224
3425.00,0.0225
3424.00,0.0225
3423.00,0.0226
3422.00,0.0227
3421.00,0.0227
3420.00,0.0228
3419.00,0.0229
3418.00,0.0230
3417.00,0.0231
3416.00,0.0231
3415.00,0.0232
3414.00,0.0233
3413.00,0.0234
3412.00,0.0234
3411.00,0.0235
3410.00,0.0236
3409.00,0.0237
3408.00,0.0237
3407.00,0.0238
3406.00,0.0239
3405.00,0.0239
3404.00,0.0240
3403.00,0.0240
3402.00,0.0240
3401.00,0.0241
3400.00,0.0241
3399.00,0.0242
3398.00,0.0243
3397.00,0.0244
3396.00,0.0244
3395.00,0.0245
3394.00,0.0245
3393.00,0.0246
3392.00,0.0246
3391.00,0.0247
3390.00,0.0248
3389.00,0.0249
3388.00,0.0250
3387.00,0.0251
3386.00,0.0251
3385.00,0.0252
3384.00,0.0252
3383.00,0.0253
3382.00,0.0254
3381.00,0.0255
3380.00,0.0256
3379.00,0.0257
3378.00,0.0258
3377.00,0.0260
3376.00,0.0261
3375.00,0.0262
3374.00,0.0263
3373.00,0.0263
3372.00,0.0264
3371.00,0.0265
3370.00,0.0266
3369.00,0.0267
3368.00,0.0268
3367.00,0.0269
3366.00,0.0271
3365.00,0.0272
3364.00,0.0274
3363.00,0.0275
3362.00,0.0277
3361.00,0.0278
3360.00,0.0279
3359.00,0.0280
3358.00,0.0281
3357.00,0.0283
3356.00,0.0284
3355.00,0.0285
3354.00,0.0286
3353.00,0.0287
3352.00,0.0287
3351.00,0.0288
3350.00,0.0289
3349.00,0.0290
3348.00,0.0292
3347.00,0.0293
3346.00,0.0294
3345.00,0.0295
3344.00,0.0295
3343.00,0.0296
3342.00,0.0297
3341.00,0.0298
3340.00,0.0299
3339.00,0.0299
3338.00,0.0301
3337.00,0.0302
3336.00,0.0303
3335.00,0.0305
3334.00,0.0306
3333.00,0.0307
3332.00,0.0308
3331.00,0.0308
3330.00,0.0309
3329.00,0.0309
3328.00,0.0310
3327.00,0.0310
3326.00,0.0311
3325.00,0.0311
3324.00,0.0313
3323.00,0.0314
3322.00,0.0315
3321.00,0.0316
3320.00,0.0317
3319.00,0.0318
3318.00,0.0319
3317.00,0.0321
3316.00,0.0322
3315.00,0.0322
3314.00,0.0323
3313.00,0.0324
3312.00,0.0324
3311.00,0.0324
3310.00,0.0325
3309.00,0.0326
3308.00,0.0326
3307.00,0.0327
3306.00,0.0328
3305.00,0.0329
3304.00,0.0331
3303.00,0.0332
3302.00,0.0334
3301.00,0.0335
3300.00,0.0336
3299.00,0.0336
3298.00,0.0337
3297.00,0.0337
3296.00,0.0338
3295.00,0.0338
3294.00,0.0339
3293.00,0.0340
3292.00,0.0341
3291.00,0.0342
3290.00,0.0343
3289.00,0.0345
3288.00,0.0346
3287.00,0.0346
3286.00,0.0347
3285.00,0.0347
3284.00,0.0347
3283.00,0.0348
3282.00,0.0348
3281.00,0.0348
3280.00,0.0348
3279.00,0.0348
3278.00,0.0348
3277.00,0.0348
3276.00,0.0347
3275.00,0.0347
3274.00,0.0346
3273.00,0.0345
3272.00,0.0344
3271.00,0.0343
3270.00,0.0343
3269.00,0.0343
3268.00,0.0343
3267.00,0.0343
3266.00,0.0343
3265.00,0.0342
3264.00,0.0341
3263.00,0.0340
3262.00,0.0338
3261.00,0.0337
3260.00,0.0336
3259.00,0.0334
3258.00,0.0333
3257.00,0.0332
3256.00,0.0330
3255.00,0.0329
3254.00,0.0328
3253.00,0.0327
3252.00,0.0326
3251.00,0.0325
3250.00,0.0323
3249.00,0.0322
3248.00,0.0320
3247.00,0.0319
3246.00,0.0318
3245.00,0.0317
3244.00,0.0316
3243.00,0.0315
3242.00,0.0314
3241.00,0.0314
3240.00,0.0313
3239.00,0.0311
3238.00,0.0310
3237.00,0.0309
3236.00,0.0307
3235.00,0.0306
3234.00,0.0305
3233.00,0.0304
3232.00,0.0304
3231.00,0.0304
3230.00,0.0304
3229.00,0.0303
3228.00,0.0303
3227.00,0.0303
3226.00,0.0302
3225.00,0.0302
3224.00,0.0302
3223.00,0.0301
3222.00,0.0301
3221.00,0.0300
3220.00,0.0300
3219.00,0.0299
3218.00,0.0298
3217.00,0.0298
3216.00,0.0297
3215.00,0.0297
3214.00,0.0297
3213.00,0.0296
3212.00,0.0296
3211.00,0.0295
3210.00,0.0295
3209.00,0.0295
3208.00,0.0294
3207.00,0.0294
3206.00,0.0294
3205.00,0.0293
3204.00,0.0292
3203.00,0.0292
3202.00,0.0291
3201.00,0.0290
3200.00,0.0290
3199.00,0.0289
3198.00,0.0288
3197.00,0.0288
3196.00,0.0287
3195.00,0.0286
3194.00,0.0286
3193.00,0.0285
3192.00,0.0284
3191.00,0.0283
3190.00,0.0282
3189.00,0.0281
3188.00,0.0280
3187.00,0.0279
3186.00,0.0278
3185.00,0.0277
3184.00,0.0276
3183.00,0.0275
3182.00,0.0274
3181.00,0.0273
3180.00,0.0272
3179.00,0.0270
3178.00,0.0269
3177.00,0.0268
3176.00,0.0267
3175.00,0.0266
3174.00,0.0265
3173.00,0.0264
3172.00,0.0263
3171.00,0.0262
3170.00,0.0261
3169.00,0.0260
3168.00,0.0259
3167.00,0.0257
3166.00,0.0256
3165.00,0.0255
3164.00,0.0254
3163.00,0.0253
3162.00,0.0252
3161.00,0.0251
3160.00,0.0249
3159.00,0.0248
3158.00,0.0247
3157.00,0.0246
3156.00,0.0244
3155.00,0.0243
3154.00,0.0241
3153.00,0.0240
3152.00,0.0239
3151.00,0.0238
3150.00,0.0238
3149.00,0.0237
3148.00,0.0236
3147.00,0.0235
3146.00,0.0234
3145.00,0.0233
3144.00,0.0232
3143.00,0.0231
3142.00,0.0230
3141.00,0.0229
3140.00,0.0228
3139.00,0.0227
3138.00,0.0226
3137.00,0.0225
3136.00,0.0225
3135.00,0.0224
3134.00,0.0223
3133.00,0.0222
3132.00,0.0221
3131.00,0.0221
3130.00,0.0220
3129.00,0.0219
3128.00,0.0219
3127.00,0.0218
3126.00,0.0218
3125.00,0.0217
3124.00,0.0216
3123.00,0.0215
3122.00,0.0214
3121.00,0.0213
3120.00,0.0212
3119.00,0.0212
3118.00,0.0211
3117.00,0.0210
3116.00,0.0210
3115.00,0.0210
3114.00,0.0210
3113.00,0.0210
3112.00,0.0210
3111.00,0.0210
3110.00,0.0209
3109.00,0.0209
3108.00,0.0209
3107.00,0.0209
3106.00,0.0209
3105.00,0.0209
3104.00,0.0209
3103.00,0.0209
3102.00,0.0208
3101.00,0.0208
3100.00,0.0208
3099.00,0.0208
3098.00,0.0208
3097.00,0.0208
3096.00,0.0208
3095.00,0.0208
3094.00,0.0208
3093.00,0.0207
3092.00,0.0207
3091.00,0.0207
3090.00,0.0207
3089.00,0.0207
3088.00,0.0208
3087.00,0.0208
3086.00,0.0207
3085.00,0.0207
3084.00,0.0207
3083.00,0.0207
3082.00,0.0207
3081.00,0.0206
3080.00,0.0206
3079.00,0.0206
3078.00,0.0207
3077.00,0.0208
3076.00,0.0209
3075.00,0.0210
3074.00,0.0210
3073.00,0.0210
3072.00,0.0210
3071.00,0.0209
3070.00,0.0208
3069.00,0.0207
3068.00,0.0206
3067.00,0.0206
3066.00,0.0205
3065.00,0.0205
3064.00,0.0204
3063.00,0.0204
3062.00,0.0204
3061.00,0.0203
3060.00,0.0203
3059.00,0.0202
3058.00,0.0201
3057.00,0.0200
3056.00,0.0199
3055.00,0.0198
3054.00,0.0198
3053.00,0.0197
3052.00,0.0196
3051.00,0.0195
3050.00,0.0194
3049.00,0.0194
3048.00,0.0193
3047.00,0.0192
3046.00,0.0191
3045.00,0.0190
3044.00,0.0189
3043.00,0.0188
3042.00,0.0187
3041.00,0.0187
3040.00,0.0187
3039.00,0.0187
3038.00,0.0186
3037.00,0.0186
3036.00,0.0185
3035.00,0.0184
3034.00,0.0183
3033.00,0.0183
3032.00,0.0182
3031.00,0.0182
3030.00,0.0182
3029.00,0.0181
3028.00,0.0180
3027.00,0.0178
3026.00,0.0177
3025.00,0.0176
3024.00,0.0175
3023.00,0.0174
3022.00,0.0173
3021.00,0.0172
3020.00,0.0171
3019.00,0.0170
3018.00,0.0169
3017.00,0.0167
3016.00,0.0166
3015.00,0.0165
3014.00,0.0165
3013.00,0.0164
3012.00,0.0164
3011.00,0.0163
3010.00,0.0163
3009.00,0.0163
3008.00,0.0163
3007.00,0.0162
3006.00,0.0161
3005.00,0.0161
3004.00,0.0160
3003.00,0.0159
3002.00,0.0158
3001.00,0.0158
3000.00,0.0157
2999.00,0.0157
2998.00,0.0157
2997.00,0.0157
2996.00,0.0157
2995.00,0.0158
2994.00,0.0158
2993.00,0.0159
2992.00,0.0159
2991.00,0.0160
2990.00,0.0161
2989.00,0.0162
2988.00,0.0163
2987.00,0.0164
2986.00,0.0165
2985.00,0.0166
2984.00,0.0166
2983.00,0.0166
2982.00,0.0167
2981.00,0.0168
2980.00,0.0171
2979.00,0.0174
2978.00,0.0178
2977.00,0.0181
2976.00,0.0184
2975.00,0.0187
2974.00,0.0190
2973.00,0.0193
2972.00,0.0196
2971.00,0.0200
2970.00,0.0203
2969.00,0.0206
2968.00,0.0209
2967.00,0.0212
2966.00,0.0215
2965.00,0.0217
2964.00,0.0219
2963.00,0.0221
2962.00,0.0222
2961.00,0.0222
2960.00,0.0223
2959.00,0.0223
2958.00,0.0222
2957.00,0.0222
2956.00,0.0221
2955.00,0.0220
2954.00,0.0218
2953.00,0.0217
2952.00,0.0216
2951.00,0.0216
2950.00,0.0215
2949.00,0.0214
2948.00,0.0214
2947.00,0.0214
2946.00,0.0214
2945.00,0.0216
2944.00,0.0218
2943.00,0.0220
2942.00,0.0222
2941.00,0.0225
2940.00,0.0227
2939.00,0.0230
2938.00,0.0233
2937.00,0.0235
2936.00,0.0238
2935.00,0.0240
2934.00,0.0241
2933.00,0.0243
2932.00,0.0244
2931.00,0.0245
2930.00,0.0246
2929.00,0.0246
2928.00,0.0247
2927.00,0.0246
2926.00,0.0246
2925.00,0.0245
2924.00,0.0244
2923.00,0.0242
2922.00,0.0240
2921.00,0.0238
2920.00,0.0236
2919.00,0.0233
2918.00,0.0231
2917.00,0.0228
2916.00,0.0226
2915.00,0.0223
2914.00,0.0221
2913.00,0.0219
2912.00,0.0217
2911.00,0.0214
2910.00,0.0212
2909.00,0.0209
2908.00,0.0207
2907.00,0.0205
2906.00,0.0203
2905.00,0.0200
2904.00,0.0198
2903.00,0.0197
2902.00,0.0195
2901.00,0.0193
2900.00,0.0191
2899.00,0.0190
2898.00,0.0188
2897.00,0.0186
2896.00,0.0185
2895.00,0.0183
2894.00,0.0182
2893.00,0.0181
2892.00,0.0180
2891.00,0.0179
2890.00,0.0178
2889.00,0.0178
2888.00,0.0177
2887.00,0.0177
2886.00,0.0177
2885.00,0.0177
2884.00,0.0176
2883.00,0.0177
2882.00,0.0177
2881.00,0.0178
2880.00,0.0179
2879.00,0.0180
2878.00,0.0181
2877.00,0.0181
2876.00,0.0182
2875.00,0.0182
2874.00,0.0182
2873.00,0.0182
2872.00,0.0182
2871.00,0.0181
2870.00,0.0180
2869.00,0.0179
2868.00,0.0178
2867.00,0.0176
2866.00,0.0175
2865.00,0.0174
2864.00,0.0173
2863.00,0.0172
2862.00,0.0172
2861.00,0.0172
2860.00,0.0173
2859.00,0.0173
2858.00,0.0174
2857.00,0.0174
2856.00,0.0173
2855.00,0.0172
2854.00,0.0171
2853.00,0.0168
2852.00,0.0166
2851.00,0.0164
2850.00,0.0161
2849.00,0.0158
2848.00,0.0156
2847.00,0.0153
2846.00,0.0151
2845.00,0.0148
2844.00,0.0146
2843.00,0.0144
2842.00,0.0143
2841.00,0.0141
2840.00,0.0140
2839.00,0.0139
2838.00,0.0138
2837.00,0.0137
2836.00,0.0137
2835.00,0.0137
2834.00,0.0137
2833.00,0.0137
2832.00,0.0137
2831.00,0.0137
2830.00,0.0136
2829.00,0.0136
2828.00,0.0135
2827.00,0.0134
2826.00,0.0133
2825.00,0.0131
2824.00,0.0130
2823.00,0.0129
2822.00,0.0128
2821.00,0.0127
2820.00,0.0126
2819.00,0.0125
2818.00,0.0124
2817.00,0.0124
2816.00,0.0123
2815.00,0.0122
2814.00,0.0122
2813.00,0.0121
2812.00,0.0120
2811.00,0.0120
2810.00,0.0119
2809.00,0.0119
2808.00,0.0118
2807.00,0.0118
2806.00,0.0118
2805.00,0.0118
2804.00,0.0117
2803.00,0.0117
2802.00,0.0116
2801.00,0.0116
2800.00,0.0115
2799.00,0.0115
2798.00,0.0114
2797.00,0.0114
2796.00,0.0114
2795.00,0.0114
2794.00,0.0113
2793.00,0.0113
2792.00,0.0112
2791.00,0.0112
2790.00,0.0112
2789.00,0.0111
2788.00,0.0111
2787.00,0.0111
2786.00,0.0111
2785.00,0.0111
2784.00,0.0110
2783.00,0.0110
2782.00,0.0109
2781.00,0.0109
2780.00,0.0108
2779.00,0.0108
2778.00,0.0107
2777.00,0.0107
2776.00,0.0106
2775.00,0.0106
2774.00,0.0106
2773.00,0.0106
2772.00,0.0106
2771.00,0.0105
2770.00,0.0105
2769.00,0.0105
2768.00,0.0104
2767.00,0.0104
2766.00,0.0104
2765.00,0.0104
2764.00,0.0103
2763.00,0.0103
2762.00,0.0103
2761.00,0.0103
2760.00,0.0102
2759.00,0.0102
2758.00,0.0102
2757.00,0.0101
2756.00,0.0101
2755.00,0.0101
2754.00,0.0101
2753.00,0.0100
2752.00,0.0100
2751.00,0.0100
2750.00,0.0099
2749.00,0.0099
2748.00,0.0099
2747.00,0.0099
2746.00,0.0099
2745.00,0.0098
2744.00,0.0098
2743.00,0.0098
2742.00,0.0098
2741.00,0.0098
2740.00,0.0097
2739.00,0.0097
2738.00,0.0097
2737.00,0.0096
2736.00,0.0096
2735.00,0.0096
2734.00,0.0096
2733.00,0.0096
2732.00,0.0096
2731.00,0.0096
2730.00,0.0095
2729.00,0.0095
2728.00,0.0095
2727.00,0.0094
2726.00,0.0094
2725.00,0.0093
2724.00,0.0093
2723.00,0.0093
2722.00,0.0092
2721.00,0.0092
2720.00,0.0092
2719.00,0.0091
2718.00,0.0091
2717.00,0.0091
2716.00,0.0091
2715.00,0.0090
2714.00,0.0090
2713.00,0.0090
2712.00,0.0089
2711.00,0.0089
2710.00,0.0089
2709.00,0.0088
2708.00,0.0088
2707.00,0.0088
2706.00,0.0087
2705.00,0.0087
2704.00,0.0087
2703.00,0.0087
2702.00,0.0087
2701.00,0.0086
2700.00,0.0086
2699.00,0.0086
2698.00,0.0086
2697.00,0.0086
2696.00,0.0086
2695.00,0.0086
2694.00,0.0086
2693.00,0.0085
2692.00,0.0085
2691.00,0.0085
2690.00,0.0085
2689.00,0.0085
2688.00,0.0084
2687.00,0.0084
2686.00,0.0084
2685.00,0.0084
2684.00,0.0084
2683.00,0.0084
2682.00,0.0083
2681.00,0.0083
2680.00,0.0083
2679.00,0.0083
2678.00,0.0083
2677.00,0.0083
2676.00,0.0083
2675.00,0.0083
2674.00,0.0082
2673.00,0.0082
2672.00,0.0082
2671.00,0.0082
2670.00,0.0082
2669.00,0.0082
2668.00,0.0082
2667.00,0.0082
2666.00,0.0082
2665.00,0.0083
2664.00,0.0083
2663.00,0.0084
2662.00,0.0084
2661.00,0.0084
2660.00,0.0084
2659.00,0.0084
2658.00,0.0084
2657.00,0.0084
2656.00,0.0084
2655.00,0.0084
2654.00,0.0084
2653.00,0.0084
2652.00,0.0083
2651.00,0.0083
2650.00,0.0083
2649.00,0.0083
2648.00,0.0083
2647.00,0.0083
2646.00,0.0083
2645.00,0.0083
2644.00,0.0082
2643.00,0.0082
2642.00,0.0082
2641.00,0.0082
2640.00,0.0082
2639.00,0.0081
2638.00,0.0081
2637.00,0.0081
2636.00,0.0081
2635.00,0.0081
2634.00,0.0081
2633.00,0.0081
2632.00,0.0080
2631.00,0.0080
2630.00,0.0079
2629.00,0.0079
2628.00,0.0079
2627.00,0.0079
2626.00,0.0079
2625.00,0.0078
2624.00,0.0078
2623.00,0.0078
2622.00,0.0078
2621.00,0.0078
2620.00,0.0078
2619.00,0.0078
2618.00,0.0078
2617.00,0.0077
2616.00,0.0077
2615.00,0.0076
2614.00,0.0076
2613.00,0.0076
2612.00,0.0076
2611.00,0.0076
2610.00,0.0076
2609.00,0.0076
2608.00,0.0076
2607.00,0.0075
2606.00,0.0075
2605.00,0.0074
2604.00,0.0074
2603.00,0.0074
2602.00,0.0074
2601.00,0.0073
2600.00,0.0073
2599.00,0.0073
2598.00,0.0072
2597.00,0.0072
2596.00,0.0072
2595.00,0.0072
2594.00,0.0072
2593.00,0.0071
2592.00,0.0071
2591.00,0.0071
2590.00,0.0070
2589.00,0.0070
2588.00,0.0070
2587.00,0.0070
2586.00,0.0070
2585.00,0.0069
2584.00,0.0069
2583.00,0.0069
2582.00,0.0068
2581.00,0.0068
2580.00,0.0068
2579.00,0.0068
2578.00,0.0068
2577.00,0.0068
2576.00,0.0067
2575.00,0.0067
2574.00,0.0067
2573.00,0.0066
2572.00,0.0066
2571.00,0.0066
2570.00,0.0066
2569.00,0.0065
2568.00,0.0065
2567.00,0.0065
2566.00,0.0065
2565.00,0.0064
2564.00,0.0064
2563.00,0.0064
2562.00,0.0064
2561.00,0.0064
2560.00,0.0064
2559.00,0.0064
2558.00,0.0064
2557.00,0.0064
2556.00,0.0064
2555.00,0.0064
2554.00,0.0063
2553.00,0.0063
2552.00,0.0063
2551.00,0.0063
2550.00,0.0063
2549.00,0.0063
2548.00,0.0063
2547.00,0.0063
2546.00,0.0062
2545.00,0.0062
2544.00,0.0062
2543.00,0.0062
2542.00,0.0062
2541.00,0.0062
2540.00,0.0061
2539.00,0.0061
2538.00,0.0061
2537.00,0.0061
2536.00,0.0060
2535.00,0.0060
2534.00,0.0060
2533.00,0.0059
2532.00,0.0059
2531.00,0.0060
2530.00,0.0060
2529.00,0.0060
2528.00,0.0060
2527.00,0.0059
2526.00,0.0059
2525.00,0.0059
2524.00,0.0058
2523.00,0.0058
2522.00,0.0058
2521.00,0.0058
2520.00,0.0058
2519.00,0.0058
2518.00,0.0058
2517.00,0.0058
2516.00,0.0058
2515.00,0.0058
2514.00,0.0058
2513.00,0.0058
2512.00,0.0058
2511.00,0.0058
2510.00,0.0057
2509.00,0.0057
2508.00,0.0057
2507.00,0.0057
2506.00,0.0057
2505.00,0.0057
2504.00,0.0057
2503.00,0.0056
2502.00,0.0056
2501.00,0.0056
2500.00,0.0055
2499.00,0.0055
2498.00,0.0055
2497.00,0.0055
2496.00,0.0055
2495.00,0.0055
2494.00,0.0055
2493.00,0.0055
2492.00,0.0055
2491.00,0.0055
2490.00,0.0055
2489.00,0.0055
2488.00,0.0055
2487.00,0.0055
2486.00,0.0055
2485.00,0.0055
2484.00,0.0055
2483.00,0.0055
2482.00,0.0055
2481.00,0.0054
2480.00,0.0054
2479.00,0.0054
2478.00,0.0053
2477.00,0.0053
2476.00,0.0053
2475.00,0.0053
2474.00,0.0053
2473.00,0.0054
2472.00,0.0054
2471.00,0.0054
2470.00,0.0053
2469.00,0.0053
2468.00,0.0053
2467.00,0.0053
2466.00,0.0053
2465.00,0.0053
2464.00,0.0053
2463.00,0.0053
2462.00,0.0053
2461.00,0.0053
2460.00,0.0053
2459.00,0.0053
2458.00,0.0053
2457.00,0.0054
2456.00,0.0054
2455.00,0.0054
2454.00,0.0053
2453.00,0.0053
2452.00,0.0052
2451.00,0.0052
2450.00,0.0052
2449.00,0.0052
2448.00,0.0052
2447.00,0.0052
2446.00,0.0051
2445.00,0.0051
2444.00,0.0050
2443.00,0.0050
2442.00,0.0050
2441.00,0.0050
2440.00,0.0050
2439.00,0.0050
2438.00,0.0049
2437.00,0.0049
2436.00,0.0049
2435.00,0.0049
2434.00,0.0049
2433.00,0.0049
2432.00,0.0049
2431.00,0.0048
2430.00,0.0048
2429.00,0.0048
2428.00,0.0048
2427.00,0.0047
2426.00,0.0047
2425.00,0.0047
2424.00,0.0047
2423.00,0.0047
2422.00,0.0047
2421.00,0.0046
2420.00,0.0046
2419.00,0.0046
2418.00,0.0046
2417.00,0.0046
2416.00,0.0046
2415.00,0.0046
2414.00,0.0046
2413.00,0.0045
2412.00,0.0046
2411.00,0.0046
2410.00,0.0045
2409.00,0.0045
2408.00,0.0044
2407.00,0.0043
2406.00,0.0043
2405.00,0.0043
2404.00,0.0043
2403.00,0.0043
2402.00,0.0043
2401.00,0.0044
2400.00,0.0044
2399.00,0.0044
2398.00,0.0043
2397.00,0.0043
2396.00,0.0043
2395.00,0.0043
2394.00,0.0042
2393.00,0.0042
2392.00,0.0042
2391.00,0.0042
2390.00,0.0041
2389.00,0.0041
2388.00,0.0041
2387.00,0.0041
2386.00,0.0040
2385.00,0.0040
2384.00,0.0039
2383.00,0.0039
2382.00,0.0039
2381.00,0.0039
2380.00,0.0038
2379.00,0.0038
2378.00,0.0038
2377.00,0.0038
2376.00,0.0038
2375.00,0.0038
2374.00,0.0038
2373.00,0.0038
2372.00,0.0038
2371.00,0.0037
2370.00,0.0037
2369.00,0.0037
2368.00,0.0036
2367.00,0.0037
2366.00,0.0037
2365.00,0.0037
2364.00,0.0038
2363.00,0.0038
2362.00,0.0038
2361.00,0.0038
2360.00,0.0038
2359.00,0.0037
2358.00,0.0037
2357.00,0.0038
2356.00,0.0038
2355.00,0.0038
2354.00,0.0038
2353.00,0.0038
2352.00,0.0037
2351.00,0.0037
2350.00,0.0037
2349.00,0.0038
2348.00,0.0040
2347.00,0.0041
2346.00,0.0042
2345.00,0.0042
2344.00,0.0041
2343.00,0.0041
2342.00,0.0041
2341.00,0.0041
2340.00,0.0041
2339.00,0.0042
2338.00,0.0042
2337.00,0.0041
2336.00,0.0041
2335.00,0.0041
2334.00,0.0041
2333.00,0.0041
2332.00,0.0041
2331.00,0.0041
2330.00,0.0041
2329.00,0.0043
2328.00,0.0046
2327.00,0.0051
2326.00,0.0054
2325.00,0.0055
2324.00,0.0054
2323.00,0.0051
2322.00,0.0049
2321.00,0.0047
2320.00,0.0046
2319.00,0.0046
2318.00,0.0045
2317.00,0.0045
2316.00,0.0045
2315.00,0.0045
2314.00,0.0044
2313.00,0.0043
2312.00,0.0043
2311.00,0.0042
2310.00,0.0042
2309.00,0.0042
2308.00,0.0043
2307.00,0.0043
2306.00,0.0043
2305.00,0.0043
2304.00,0.0043
2303.00,0.0043
2302.00,0.0044
2301.00,0.0044
2300.00,0.0044
2299.00,0.0045
2298.00,0.0046
2297.00,0.0046
2296.00,0.0047
2295.00,0.0048
2294.00,0.0049
2293.00,0.0050
2292.00,0.0051
2291.00,0.0051
2290.00,0.0052
2289.00,0.0052
2288.00,0.0053
2287.00,0.0053
2286.00,0.0052
2285.00,0.0052
2284.00,0.0051
2283.00,0.0051
2282.00,0.0050
2281.00,0.0050
2280.00,0.0049
2279.00,0.0049
2278.00,0.0048
2277.00,0.0048
2276.00,0.0048
2275.00,0.0048
2274.00,0.0048
2273.00,0.0048
2272.00,0.0048
2271.00,0.0047
2270.00,0.0047
2269.00,0.0045
2268.00,0.0044
2267.00,0.0044
2266.00,0.0043
2265.00,0.0044
2264.00,0.0044
2263.00,0.0045
2262.00,0.0045
2261.00,0.0046
2260.00,0.0046
2259.00,0.0046
2258.00,0.0044
2257.00,0.0043
2256.00,0.0041
2255.00,0.0041
2254.00,0.0040
2253.00,0.0041
2252.00,0.0042
2251.00,0.0042
2250.00,0.0042
2249.00,0.0042
2248.00,0.0042
2247.00,0.0042
2246.00,0.0042
2245.00,0.0042
2244.00,0.0042
2243.00,0.0042
2242.00,0.0042
2241.00,0.0042
2240.00,0.0042
2239.00,0.0042
2238.00,0.0042
2237.00,0.0041
2236.00,0.0041
2235.00,0.0041
2234.00,0.0041
2233.00,0.0041
2232.00,0.0042
2231.00,0.0042
2230.00,0.0043
2229.00,0.0043
2228.00,0.0043
2227.00,0.0043
2226.00,0.0042
2225.00,0.0042
2224.00,0.0042
2223.00,0.0042
2222.00,0.0041
2221.00,0.0040
2220.00,0.0040
2219.00,0.0039
2218.00,0.0039
2217.00,0.0038
2216.00,0.0038
2215.00,0.0038
2214.00,0.0038
2213.00,0.0038
2212.00,0.0038
2211.00,0.0038
2210.00,0.0037
2209.00,0.0037
2208.00,0.0037
2207.00,0.0038
2206.00,0.0038
2205.00,0.0039
2204.00,0.0040
2203.00,0.0040
2202.00,0.0039
2201.00,0.0039
2200.00,0.0040
2199.00,0.0040
2198.00,0.0041
2197.00,0.0042
2196.00,0.0043
2195.00,0.0044
2194.00,0.0043
2193.00,0.0042
2192.00,0.0041
2191.00,0.0041
2190.00,0.0041
2189.00,0.0043
2188.00,0.0045
2187.00,0.0044
2186.00,0.0042
2185.00,0.0040
2184.00,0.0038
2183.00,0.0036
2182.00,0.0035
2181.00,0.0036
2180.00,0.0036
2179.00,0.0036
2178.00,0.0036
2177.00,0.0035
2176.00,0.0035
2175.00,0.0035
2174.00,0.0036
2173.00,0.0038
2172.00,0.0040
2171.00,0.0044
2170.00,0.0046
2169.00,0.0048
2168.00,0.0049
2167.00,0.0048
2166.00,0.0047
2165.00,0.0048
2164.00,0.0050
2163.00,0.0049
2162.00,0.0043
2161.00,0.0031
2160.00,0.0016
2159.00,0.0005
2158.00,0.0000
2157.00,0.0001
2156.00,0.0004
2155.00,0.0007
2154.00,0.0010
2153.00,0.0013
2152.00,0.0016
2151.00,0.0017
2150.00,0.0017
2149.00,0.0017
2148.00,0.0017
2147.00,0.0017
2146.00,0.0017
2145.00,0.0017
2144.00,0.0018
2143.00,0.0019
2142.00,0.0021
2141.00,0.0022
2140.00,0.0022
2139.00,0.0021
2138.00,0.0020
2137.00,0.0018
2136.00,0.0016
2135.00,0.0014
2134.00,0.0014
2133.00,0.0015
2132.00,0.0017
2131.00,0.0019
2130.00,0.0021
2129.00,0.0023
2128.00,0.0024
2127.00,0.0025
2126.00,0.0026
2125.00,0.0027
2124.00,0.0029
2123.00,0.0030
2122.00,0.0031
2121.00,0.0031
2120.00,0.0031
2119.00,0.0031
2118.00,0.0033
2117.00,0.0034
2116.00,0.0036
2115.00,0.0037
2114.00,0.0037
2113.00,0.0037
2112.00,0.0037
2111.00,0.0037
2110.00,0.0036
2109.00,0.0036
2108.00,0.0036
2107.00,0.0036
2106.00,0.0036
2105.00,0.0036
2104.00,0.0035
2103.00,0.0035
2102.00,0.0034
2101.00,0.0034
2100.00,0.0034
2099.00,0.0033
2098.00,0.0032
2097.00,0.0030
2096.00,0.0029
2095.00,0.0029
2094.00,0.0030
2093.00,0.0031
2092.00,0.0032
2091.00,0.0033
2090.00,0.0034
2089.00,0.0035
2088.00,0.0036
2087.00,0.0036
2086.00,0.0037
2085.00,0.0038
2084.00,0.0038
2083.00,0.0038
2082.00,0.0037
2081.00,0.0037
2080.00,0.0038
2079.00,0.0038
2078.00,0.0038
2077.00,0.0037
2076.00,0.0037
2075.00,0.0035
2074.00,0.0034
2073.00,0.0034
2072.00,0.0033
2071.00,0.0033
2070.00,0.0033
2069.00,0.0033
2068.00,0.0033
2067.00,0.0033
2066.00,0.0032
2065.00,0.0031
2064.00,0.0030
2063.00,0.0030
2062.00,0.0029
2061.00,0.0030
2060.00,0.0030
2059.00,0.0031
2058.00,0.0031
2057.00,0.0032
2056.00,0.0032
2055.00,0.0033
2054.00,0.0035
2053.00,0.0039
2052.00,0.0042
2051.00,0.0043
2050.00,0.0040
2049.00,0.0036
2048.00,0.0033
2047.00,0.0032
2046.00,0.0031
2045.00,0.0031
2044.00,0.0031
2043.00,0.0031
2042.00,0.0030
2041.00,0.0030
2040.00,0.0031
2039.00,0.0031
2038.00,0.0030
2037.00,0.0029
2036.00,0.0028
2035.00,0.0026
2034.00,0.0024
2033.00,0.0025
2032.00,0.0026
2031.00,0.0026
2030.00,0.0025
2029.00,0.0023
2028.00,0.0022
2027.00,0.0021
2026.00,0.0019
2025.00,0.0019
2024.00,0.0018
2023.00,0.0018
2022.00,0.0017
2021.00,0.0018
2020.00,0.0020
2019.00,0.0021
2018.00,0.0023
2017.00,0.0024
2016.00,0.0025
2015.00,0.0025
2014.00,0.0024
2013.00,0.0024
2012.00,0.0025
2011.00,0.0024
2010.00,0.0023
2009.00,0.0020
2008.00,0.0017
2007.00,0.0015
2006.00,0.0014
2005.00,0.0015
2004.00,0.0017
2003.00,0.0018
2002.00,0.0018
2001.00,0.0019
2000.00,0.0021
1999.00,0.0022
1998.00,0.0024
1997.00,0.0025
1996.00,0.0026
1995.00,0.0026
1994.00,0.0025
1993.00,0.0026
1992.00,0.0027
1991.00,0.0028
1990.00,0.0028
1989.00,0.0029
1988.00,0.0030
1987.00,0.0031
1986.00,0.0032
1985.00,0.0032
1984.00,0.0034
1983.00,0.0036
1982.00,0.0038
1981.00,0.0040
1980.00,0.0039
1979.00,0.0034
1978.00,0.0027
1977.00,0.0021
1976.00,0.0019
1975.00,0.0018
1974.00,0.0017
1973.00,0.0017
1972.00,0.0017
1971.00,0.0017
1970.00,0.0018
1969.00,0.0018
1968.00,0.0019
1967.00,0.0020
1966.00,0.0019
1965.00,0.0018
1964.00,0.0017
1963.00,0.0017
1962.00,0.0015
1961.00,0.0014
1960.00,0.0014
1959.00,0.0014
1958.00,0.0015
1957.00,0.0017
1956.00,0.0019
1955.00,0.0020
1954.00,0.0020
1953.00,0.0021
1952.00,0.0022
1951.00,0.0022
1950.00,0.0021
1949.00,0.0021
1948.00,0.0021
1947.00,0.0021
1946.00,0.0020
1945.00,0.0020
1944.00,0.0021
1943.00,0.0021
1942.00,0.0022
1941.00,0.0023
1940.00,0.0023
1939.00,0.0022
1938.00,0.0021
1937.00,0.0020
1936.00,0.0020
1935.00,0.0020
1934.00,0.0019
1933.00,0.0019
1932.00,0.0020
1931.00,0.0020
1930.00,0.0021
1929.00,0.0021
1928.00,0.0021
1927.00,0.0021
1926.00,0.0020
1925.00,0.0020
1924.00,0.0021
1923.00,0.0022
1922.00,0.0023
1921.00,0.0025
1920.00,0.0026
1919.00,0.0026
1918.00,0.0025
1917.00,0.0024
1916.00,0.0024
1915.00,0.0025
1914.00,0.0025
1913.00,0.0026
1912.00,0.0026
1911.00,0.0025
1910.00,0.0025
1909.00,0.0024
1908.00,0.0025
1907.00,0.0025
1906.00,0.0026
1905.00,0.0026
1904.00,0.0026
1903.00,0.0026
1902.00,0.0026
1901.00,0.0026
1900.00,0.0026
1899.00,0.0026
1898.00,0.0026
1897.00,0.0027
1896.00,0.0027
1895.00,0.0028
1894.00,0.0027
1893.00,0.0027
1892.00,0.0027
1891.00,0.0026
1890.00,0.0026
1889.00,0.0026
1888.00,0.0027
1887.00,0.0028
1886.00,0.0028
1885.00,0.0028
1884.00,0.0028
1883.00,0.0027
1882.00,0.0027
1881.00,0.0028
1880.00,0.0028
1879.00,0.0028
1878.00,0.0027
1877.00,0.0027
1876.00,0.0027
1875.00,0.0027
1874.00,0.0027
1873.00,0.0027
1872.00,0.0027
1871.00,0.0027
1870.00,0.0026
1869.00,0.0026
1868.00,0.0027
1867.00,0.0028
1866.00,0.0028
1865.00,0.0029
1864.00,0.0029
1863.00,0.0029
1862.00,0.0028
1861.00,0.0028
1860.00,0.0028
1859.00,0.0028
1858.00,0.0027
1857.00,0.0027
1856.00,0.0028
1855.00,0.0028
1854.00,0.0027
1853.00,0.0027
1852.00,0.0027
1851.00,0.0027
1850.00,0.0027
1849.00,0.0027
1848.00,0.0028
1847.00,0.0028
1846.00,0.0029
1845.00,0.0029
1844.00,0.0029
1843.00,0.0029
1842.00,0.0029
1841.00,0.0029
1840.00,0.0028
1839.00,0.0028
1838.00,0.0028
1837.00,0.0028
1836.00,0.0028
1835.00,0.0029
1834.00,0.0029
1833.00,0.0029
1832.00,0.0030
1831.00,0.0030
1830.00,0.0029
1829.00,0.0029
1828.00,0.0030
1827.00,0.0030
1826.00,0.0030
1825.00,0.0030
1824.00,0.0030
1823.00,0.0030
1822.00,0.0030
1821.00,0.0029
1820.00,0.0029
1819.00,0.0028
1818.00,0.0027
1817.00,0.0027
1816.00,0.0027
1815.00,0.0028
1814.00,0.0029
1813.00,0.0029
1812.00,0.0030
1811.00,0.0030
1810.00,0.0031
1809.00,0.0031
1808.00,0.0031
1807.00,0.0031
1806.00,0.0031
1805.00,0.0031
1804.00,0.0031
1803.00,0.0032
1802.00,0.0032
1801.00,0.0033
1800.00,0.0033
1799.00,0.0033
1798.00,0.0033
1797.00,0.0034
1796.00,0.0034
1795.00,0.0035
1794.00,0.0035
1793.00,0.0035
1792.00,0.0035
1791.00,0.0036
1790.00,0.0036
1789.00,0.0036
1788.00,0.0036
1787.00,0.0035
1786.00,0.0035
1785.00,0.0035
1784.00,0.0036
1783.00,0.0036
1782.00,0.0036
1781.00,0.0035
1780.00,0.0035
1779.00,0.0035
1778.00,0.0035
1777.00,0.0035
1776.00,0.0036
1775.00,0.0037
1774.00,0.0038
1773.00,0.0038
1772.00,0.0039
1771.00,0.0039
1770.00,0.0040
1769.00,0.0040
1768.00,0.0040
1767.00,0.0040
1766.00,0.0040
1765.00,0.0040
1764.00,0.0040
1763.00,0.0041
1762.00,0.0041
1761.00,0.0041
1760.00,0.0042
1759.00,0.0042
1758.00,0.0042
1757.00,0.0042
1756.00,0.0043
1755.00,0.0043
1754.00,0.0044
1753.00,0.0045
1752.00,0.0045
1751.00,0.0046
1750.00,0.0046
1749.00,0.0046
1748.00,0.0047
1747.00,0.0047
1746.00,0.0048
1745.00,0.0049
1744.00,0.0050
1743.00,0.0051
1742.00,0.0051
1741.00,0.0052
1740.00,0.0052
1739.00,0.0053
1738.00,0.0055
1737.00,0.0057
1736.00,0.0060
1735.00,0.0062
1734.00,0.0063
1733.00,0.0065
1732.00,0.0067
1731.00,0.0068
1730.00,0.0069
1729.00,0.0070
1728.00,0.0072
1727.00,0.0075
1726.00,0.0077
1725.00,0.0080
1724.00,0.0083
1723.00,0.0087
1722.00,0.0090
1721.00,0.0094
1720.00,0.0099
1719.00,0.0103
1718.00,0.0108
1717.00,0.0113
1716.00,0.0119
1715.00,0.0123
1714.00,0.0126
1713.00,0.0129
1712.00,0.0133
1711.00,0.0137
1710.00,0.0141
1709.00,0.0147
1708.00,0.0153
1707.00,0.0159
1706.00,0.0166
1705.00,0.0175
1704.00,0.0184
1703.00,0.0195
1702.00,0.0205
1701.00,0.0218
1700.00,0.0233
1699.00,0.0248
1698.00,0.0262
1697.00,0.0274
1696.00,0.0288
1695.00,0.0301
1694.00,0.0313
1693.00,0.0323
1692.00,0.0333
1691.00,0.0343
1690.00,0.0355
1689.00,0.0367
1688.00,0.0379
1687.00,0.0393
1686.00,0.0405
1685.00,0.0418
1684.00,0.0432
1683.00,0.0445
1682.00,0.0456
1681.00,0.0467
1680.00,0.0477
1679.00,0.0488
1678.00,0.0500
1677.00,0.0512
1676.00,0.0524
1675.00,0.0536
1674.00,0.0549
1673.00,0.0561
1672.00,0.0574
1671.00,0.0586
1670.00,0.0598
1669.00,0.0611
1668.00,0.0625
1667.00,0.0638
1666.00,0.0651
1665.00,0.0663
1664.00,0.0675
1663.00,0.0687
1662.00,0.0699
1661.00,0.0711
1660.00,0.0723
1659.00,0.0734
1658.00,0.0745
1657.00,0.0757
1656.00,0.0770
1655.00,0.0782
1654.00,0.0790
1653.00,0.0794
1652.00,0.0799
1651.00,0.0806
1650.00,0.0811
1649.00,0.0816
1648.00,0.0820
1647.00,0.0823
1646.00,0.0825
1645.00,0.0830
1644.00,0.0834
1643.00,0.0838
1642.00,0.0841
1641.00,0.0843
1640.00,0.0846
1639.00,0.0850
1638.00,0.0855
1637.00,0.0858
1636.00,0.0859
1635.00,0.0860
1634.00,0.0863
1633.00,0.0868
1632.00,0.0873
1631.00,0.0878
1630.00,0.0881
1629.00,0.0883
1628.00,0.0884
1627.00,0.0884
1626.00,0.0884
1625.00,0.0883
1624.00,0.0878
1623.00,0.0870
1622.00,0.0861
1621.00,0.0854
1620.00,0.0849
1619.00,0.0843
1618.00,0.0832
1617.00,0.0815
1616.00,0.0796
1615.00,0.0780
1614.00,0.0767
1613.00,0.0755
1612.00,0.0742
1611.00,0.0729
1610.00,0.0715
1609.00,0.0702
1608.00,0.0689
1607.00,0.0677
1606.00,0.0667
1605.00,0.0657
1604.00,0.0647
1603.00,0.0638
1602.00,0.0629
1601.00,0.0621
1600.00,0.0614
1599.00,0.0607
1598.00,0.0601
1597.00,0.0595
1596.00,0.0589
1595.00,0.0584
1594.00,0.0579
1593.00,0.0575
1592.00,0.0572
1591.00,0.0569
1590.00,0.0567
1589.00,0.0566
1588.00,0.0565
1587.00,0.0565
1586.00,0.0564
1585.00,0.0563
1584.00,0.0562
1583.00,0.0561
1582.00,0.0559
1581.00,0.0557
1580.00,0.0555
1579.00,0.0554
1578.00,0.0553
1577.00,0.0551
1576.00,0.0546
1575.00,0.0542
1574.00,0.0541
1573.00,0.0541
1572.00,0.0542
1571.00,0.0542
1570.00,0.0541
1569.00,0.0542
1568.00,0.0543
1567.00,0.0546
1566.00,0.0549
1565.00,0.0552
1564.00,0.0556
1563.00,0.0562
1562.00,0.0569
1561.00,0.0578
1560.00,0.0583
1559.00,0.0586
1558.00,0.0593
1557.00,0.0601
1556.00,0.0608
1555.00,0.0614
1554.00,0.0621
1553.00,0.0628
1552.00,0.0635
1551.00,0.0642
1550.00,0.0650
1549.00,0.0657
1548.00,0.0665
1547.00,0.0672
1546.00,0.0679
1545.00,0.0686
1544.00,0.0692
1543.00,0.0699
1542.00,0.0705
1541.00,0.0710
1540.00,0.0712
1539.00,0.0715
1538.00,0.0719
1537.00,0.0722
1536.00,0.0724
1535.00,0.0726
1534.00,0.0726
1533.00,0.0727
1532.00,0.0729
1531.00,0.0731
1530.00,0.0733
1529.00,0.0734
1528.00,0.0735
1527.00,0.0735
1526.00,0.0734
1525.00,0.0734
1524.00,0.0735
1523.00,0.0735
1522.00,0.0734
1521.00,0.0733
1520.00,0.0733
1519.00,0.0733
1518.00,0.0732
1517.00,0.0729
1516.00,0.0726
1515.00,0.0723
1514.00,0.0719
1513.00,0.0713
1512.00,0.0705
1511.00,0.0698
1510.00,0.0691
1509.00,0.0685
1508.00,0.0675
1507.00,0.0660
1506.00,0.0644
1505.00,0.0632
1504.00,0.0623
1503.00,0.0614
1502.00,0.0605
1501.00,0.0597
1500.00,0.0588
1499.00,0.0580
1498.00,0.0571
1497.00,0.0561
1496.00,0.0551
1495.00,0.0541
1494.00,0.0532
1493.00,0.0524
1492.00,0.0514
1491.00,0.0504
1490.00,0.0493
1489.00,0.0483
1488.00,0.0474
1487.00,0.0466
1486.00,0.0458
1485.00,0.0451
1484.00,0.0444
1483.00,0.0439
1482.00,0.0433
1481.00,0.0429
1480.00,0.0426
1479.00,0.0424
1478.00,0.0422
1477.00,0.0422
1476.00,0.0423
1475.00,0.0425
1474.00,0.0429
1473.00,0.0432
1472.00,0.0437
1471.00,0.0442
1470.00,0.0447
1469.00,0.0452
1468.00,0.0456
1467.00,0.0460
1466.00,0.0464
1465.00,0.0466
1464.00,0.0470
1463.00,0.0473
1462.00,0.0477
1461.00,0.0482
1460.00,0.0487
1459.00,0.0493
1458.00,0.0499
1457.00,0.0505
1456.00,0.0510
1455.00,0.0514
1454.00,0.0517
1453.00,0.0519
1452.00,0.0522
1451.00,0.0526
1450.00,0.0531
1449.00,0.0534
1448.00,0.0538
1447.00,0.0541
1446.00,0.0543
1445.00,0.0545
1444.00,0.0546
1443.00,0.0546
1442.00,0.0544
1441.00,0.0543
1440.00,0.0542
1439.00,0.0540
1438.00,0.0536
1437.00,0.0529
1436.00,0.0519
1435.00,0.0511
1434.00,0.0504
1433.00,0.0497
1432.00,0.0491
1431.00,0.0483
1430.00,0.0476
1429.00,0.0469
1428.00,0.0463
1427.00,0.0459
1426.00,0.0454
1425.00,0.0450
1424.00,0.0446
1423.00,0.0443
1422.00,0.0442
1421.00,0.0442
1420.00,0.0440
1419.00,0.0438
1418.00,0.0437
1417.00,0.0436
1416.00,0.0435
1415.00,0.0435
1414.00,0.0434
1413.00,0.0435
1412.00,0.0435
1411.00,0.0436
1410.00,0.0438
1409.00,0.0440
1408.00,0.0442
1407.00,0.0444
1406.00,0.0447
1405.00,0.0449
1404.00,0.0452
1403.00,0.0455
1402.00,0.0458
1401.00,0.0460
1400.00,0.0462
1399.00,0.0463
1398.00,0.0465
1397.00,0.0467
1396.00,0.0469
1395.00,0.0470
1394.00,0.0470
1393.00,0.0471
1392.00,0.0470
1391.00,0.0470
1390.00,0.0470
1389.00,0.0470
1388.00,0.0469
1387.00,0.0467
1386.00,0.0465
1385.00,0.0462
1384.00,0.0458
1383.00,0.0455
1382.00,0.0452
1381.00,0.0450
1380.00,0.0448
1379.00,0.0447
1378.00,0.0445
1377.00,0.0444
1376.00,0.0441
1375.00,0.0438
1374.00,0.0434
1373.00,0.0430
1372.00,0.0426
1371.00,0.0422
1370.00,0.0419
1369.00,0.0414
1368.00,0.0410
1367.00,0.0405
1366.00,0.0401
1365.00,0.0396
1364.00,0.0391
1363.00,0.0386
1362.00,0.0382
1361.00,0.0378
1360.00,0.0375
1359.00,0.0372
1358.00,0.0369
1357.00,0.0367
1356.00,0.0365
1355.00,0.0363
1354.00,0.0362
1353.00,0.0361
1352.00,0.0360
1351.00,0.0360
1350.00,0.0359
1349.00,0.0359
1348.00,0.0359
1347.00,0.0359
1346.00,0.0359
1345.00,0.0359
1344.00,0.0359
1343.00,0.0360
1342.00,0.0361
1341.00,0.0361
1340.00,0.0362
1339.00,0.0362
1338.00,0.0363
1337.00,0.0363
1336.00,0.0363
1335.00,0.0363
1334.00,0.0363
1333.00,0.0363
1332.00,0.0363
1331.00,0.0363
1330.00,0.0363
1329.00,0.0364
1328.00,0.0364
1327.00,0.0364
1326.00,0.0365
1325.00,0.0366
1324.00,0.0366
1323.00,0.0367
1322.00,0.0368
1321.00,0.0369
1320.00,0.0370
1319.00,0.0371
1318.00,0.0373
1317.00,0.0374
1316.00,0.0376
1315.00,0.0377
1314.00,0.0378
1313.00,0.0379
1312.00,0.0380
1311.00,0.0380
1310.00,0.0380
1309.00,0.0380
1308.00,0.0380
1307.00,0.0380
1306.00,0.0379
1305.00,0.0379
1304.00,0.0380
1303.00,0.0380
1302.00,0.0380
1301.00,0.0381
1300.00,0.0381
1299.00,0.0382
1298.00,0.0383
1297.00,0.0384
1296.00,0.0386
1295.00,0.0387
1294.00,0.0388
1293.00,0.0389
1292.00,0.0390
1291.00,0.0390
1290.00,0.0391
1289.00,0.0391
1288.00,0.0391
1287.00,0.0391
1286.00,0.0391
1285.00,0.0392
1284.00,0.0392
1283.00,0.0393
1282.00,0.0393
1281.00,0.0393
1280.00,0.0394
1279.00,0.0394
1278.00,0.0393
1277.00,0.0393
1276.00,0.0393
1275.00,0.0393
1274.00,0.0392
1273.00,0.0392
1272.00,0.0392
1271.00,0.0391
1270.00,0.0391
1269.00,0.0391
1268.00,0.0391
1267.00,0.0391
1266.00,0.0392
1265.00,0.0393
1264.00,0.0395
1263.00,0.0397
1262.00,0.0399
1261.00,0.0402
1260.00,0.0405
1259.00,0.0409
1258.00,0.0412
1257.00,0.0416
1256.00,0.0420
1255.00,0.0424
1254.00,0.0429
1253.00,0.0434
1252.00,0.0439
1251.00,0.0444
1250.00,0.0450
1249.00,0.0455
1248.00,0.0460
1247.00,0.0465
1246.00,0.0470
1245.00,0.0475
1244.00,0.0481
1243.00,0.0485
1242.00,0.0490
1241.00,0.0494
1240.00,0.0499
1239.00,0.0502
1238.00,0.0506
1237.00,0.0508
1236.00,0.0509
1235.00,0.0510
1234.00,0.0510
1233.00,0.0509
1232.00,0.0508
1231.00,0.0506
1230.00,0.0505
1229.00,0.0503
1228.00,0.0503
1227.00,0.0502
1226.00,0.0501
1225.00,0.0501
1224.00,0.0500
1223.00,0.0498
1222.00,0.0496
1221.00,0.0494
1220.00,0.0492
1219.00,0.0490
1218.00,0.0488
1217.00,0.0486
1216.00,0.0484
1215.00,0.0480
1214.00,0.0475
1213.00,0.0469
1212.00,0.0463
1211.00,0.0455
1210.00,0.0448
1209.00,0.0441
1208.00,0.0434
1207.00,0.0428
1206.00,0.0421
1205.00,0.0415
1204.00,0.0409
1203.00,0.0404
1202.00,0.0398
1201.00,0.0391
1200.00,0.0385
1199.00,0.0379
1198.00,0.0373
1197.00,0.0367
1196.00,0.0362
1195.00,0.0357
1194.00,0.0352
1193.00,0.0348
1192.00,0.0345
1191.00,0.0341
1190.00,0.0339
1189.00,0.0336
1188.00,0.0334
1187.00,0.0332
1186.00,0.0331
1185.00,0.0330
1184.00,0.0330
1183.00,0.0330
1182.00,0.0331
1181.00,0.0332
1180.00,0.0333
1179.00,0.0335
1178.00,0.0337
1177.00,0.0340
1176.00,0.0344
1175.00,0.0348
1174.00,0.0351
1173.00,0.0354
1172.00,0.0357
1171.00,0.0358
1170.00,0.0359
1169.00,0.0360
1168.00,0.0360
1167.00,0.0361
1166.00,0.0363
1165.00,0.0365
1164.00,0.0367
1163.00,0.0369
1162.00,0.0371
1161.00,0.0373
1160.00,0.0376
1159.00,0.0378
1158.00,0.0380
1157.00,0.0383
1156.00,0.0385
1155.00,0.0387
1154.00,0.0389
1153.00,0.0391
1152.00,0.0393
1151.00,0.0394
1150.00,0.0393
1149.00,0.0390
1148.00,0.0386
1147.00,0.0380
1146.00,0.0374
1145.00,0.0368
1144.00,0.0363
1143.00,0.0358
1142.00,0.0354
1141.00,0.0351
1140.00,0.0348
1139.00,0.0347
1138.00,0.0345
1137.00,0.0345
1136.00,0.0345
1135.00,0.0345
1134.00,0.0346
1133.00,0.0347
1132.00,0.0348
1131.00,0.0349
1130.00,0.0351
1129.00,0.0353
1128.00,0.0355
1127.00,0.0357
1126.00,0.0360
1125.00,0.0362
1124.00,0.0365
1123.00,0.0368
1122.00,0.0370
1121.00,0.0373
1120.00,0.0376
1119.00,0.0378
1118.00,0.0381
1117.00,0.0384
1116.00,0.0388
1115.00,0.0391
1114.00,0.0395
1113.00,0.0399
1112.00,0.0403
1111.00,0.0406
1110.00,0.0410
1109.00,0.0413
1108.00,0.0417
1107.00,0.0421
1106.00,0.0424
1105.00,0.0428
1104.00,0.0431
1103.00,0.0435
1102.00,0.0438
1101.00,0.0442
1100.00,0.0445
1099.00,0.0449
1098.00,0.0452
1097.00,0.0456
1096.00,0.0459
1095.00,0.0462
1094.00,0.0466
1093.00,0.0470
1092.00,0.0474
1091.00,0.0478
1090.00,0.0482
1089.00,0.0487
1088.00,0.0492
1087.00,0.0497
1086.00,0.0501
1085.00,0.0506
1084.00,0.0510
1083.00,0.0513
1082.00,0.0516
1081.00,0.0518
1080.00,0.0519
1079.00,0.0519
1078.00,0.0518
1077.00,0.0516
1076.00,0.0514
1075.00,0.0511
1074.00,0.0509
1073.00,0.0506
1072.00,0.0504
1071.00,0.0501
1070.00,0.0500
1069.00,0.0500
1068.00,0.0500
1067.00,0.0501
1066.00,0.0501
1065.00,0.0503
1064.00,0.0504
1063.00,0.0506
1062.00,0.0508
1061.00,0.0511
1060.00,0.0515
1059.00,0.0520
1058.00,0.0525
1057.00,0.0531
1056.00,0.0537
1055.00,0.0543
1054.00,0.0548
1053.00,0.0552
1052.00,0.0555
1051.00,0.0556
1050.00,0.0554
1049.00,0.0551
1048.00,0.0547
1047.00,0.0543
1046.00,0.0539
1045.00,0.0535
1044.00,0.0532
1043.00,0.0530
1042.00,0.0528
1041.00,0.0527
1040.00,0.0526
1039.00,0.0526
1038.00,0.0527
1037.00,0.0529
1036.00,0.0532
1035.00,0.0535
1034.00,0.0539
1033.00,0.0544
1032.00,0.0548
1031.00,0.0553
1030.00,0.0556
1029.00,0.0559
1028.00,0.0561
1027.00,0.0562
1026.00,0.0561
1025.00,0.0560
1024.00,0.0557
1023.00,0.0554
1022.00,0.0550
1021.00,0.0547
1020.00,0.0543
1019.00,0.0539
1018.00,0.0534
1017.00,0.0527
1016.00,0.0520
1015.00,0.0512
1014.00,0.0504
1013.00,0.0496
1012.00,0.0489
1011.00,0.0482
1010.00,0.0476
1009.00,0.0470
1008.00,0.0465
1007.00,0.0460
1006.00,0.0456
1005.00,0.0453
1004.00,0.0449
1003.00,0.0444
1002.00,0.0440
1001.00,0.0435
1000.00,0.0430
999.00,0.0424
998.00,0.0418
997.00,0.0412
996.00,0.0406
995.00,0.0400
994.00,0.0394
993.00,0.0388
992.00,0.0382
991.00,0.0376
990.00,0.0370
989.00,0.0364
988.00,0.0359
987.00,0.0354
986.00,0.0349
985.00,0.0344
984.00,0.0340
983.00,0.0335
982.00,0.0331
981.00,0.0328
980.00,0.0325
979.00,0.0324
978.00,0.0324
977.00,0.0325
976.00,0.0326
975.00,0.0327
974.00,0.0328
973.00,0.0330
972.00,0.0332
971.00,0.0334
970.00,0.0336
969.00,0.0339
968.00,0.0341
967.00,0.0342
966.00,0.0344
965.00,0.0345
964.00,0.0346
963.00,0.0346
962.00,0.0346
961.00,0.0345
960.00,0.0343
959.00,0.0340
958.00,0.0336
957.00,0.0332
956.00,0.0328
955.00,0.0323
954.00,0.0319
953.00,0.0315
952.00,0.0311
951.00,0.0308
950.00,0.0305
949.00,0.0302
948.00,0.0300
947.00,0.0298
946.00,0.0297
945.00,0.0296
944.00,0.0296
943.00,0.0295
942.00,0.0295
941.00,0.0296
940.00,0.0297
939.00,0.0298
938.00,0.0299
937.00,0.0301
936.00,0.0302
935.00,0.0303
934.00,0.0304
933.00,0.0305
932.00,0.0306
931.00,0.0306
930.00,0.0307
929.00,0.0306
928.00,0.0306
927.00,0.0305
926.00,0.0305
925.00,0.0304
924.00,0.0303
923.00,0.0302
922.00,0.0301
921.00,0.0300
920.00,0.0299
919.00,0.0298
918.00,0.0297
917.00,0.0296
916.00,0.0295
915.00,0.0293
914.00,0.0292
913.00,0.0290
912.00,0.0288
911.00,0.0287
910.00,0.0285
909.00,0.0284
908.00,0.0283
907.00,0.0283
906.00,0.0284
905.00,0.0285
904.00,0.0286
903.00,0.0288
902.00,0.0291
901.00,0.0294
900.00,0.0297
899.00,0.0300
898.00,0.0304
897.00,0.0307
896.00,0.0310
895.00,0.0311
894.00,0.0312
893.00,0.0312
892.00,0.0312
891.00,0.0312
890.00,0.0312
889.00,0.0313
888.00,0.0314
887.00,0.0315
886.00,0.0317
885.00,0.0318
884.00,0.0319
883.00,0.0319
882.00,0.0316
881.00,0.0313
880.00,0.0308
879.00,0.0304
878.00,0.0300
877.00,0.0296
876.00,0.0293
875.00,0.0291
874.00,0.0290
873.00,0.0290
872.00,0.0290
871.00,0.0291
870.00,0.0292
869.00,0.0293
868.00,0.0295
867.00,0.0297
866.00,0.0299
865.00,0.0301
864.00,0.0304
863.00,0.0306
862.00,0.0308
861.00,0.0309
860.00,0.0310
859.00,0.0311
858.00,0.0311
857.00,0.0313
856.00,0.0314
855.00,0.0316
854.00,0.0318
853.00,0.0320
852.00,0.0322
851.00,0.0323
850.00,0.0324
849.00,0.0324
848.00,0.0324
847.00,0.0324
846.00,0.0325
845.00,0.0325
844.00,0.0326
843.00,0.0326
842.00,0.0327
841.00,0.0329
840.00,0.0331
839.00,0.0333
838.00,0.0335
837.00,0.0337
836.00,0.0339
835.00,0.0341
834.00,0.0344
833.00,0.0346
832.00,0.0349
831.00,0.0351
830.00,0.0353
829.00,0.0354
828.00,0.0355
827.00,0.0355
826.00,0.0354
825.00,0.0354
824.00,0.0353
823.00,0.0352
822.00,0.0351
821.00,0.0350
820.00,0.0349
819.00,0.0349
818.00,0.0349
817.00,0.0349
816.00,0.0349
815.00,0.0349
814.00,0.0350
813.00,0.0350
812.00,0.0350
811.00,0.0350
810.00,0.0352
809.00,0.0353
808.00,0.0355
807.00,0.0357
806.00,0.0360
805.00,0.0363
804.00,0.0366
803.00,0.0368
802.00,0.0369
801.00,0.0370
800.00,0.0371
799.00,0.0372
798.00,0.0374
797.00,0.0376
796.00,0.0378
795.00,0.0380
794.00,0.0383
793.00,0.0385
792.00,0.0388
791.00,0.0391
790.00,0.0394
789.00,0.0398
788.00,0.0401
787.00,0.0404
786.00,0.0408
785.00,0.0412
784.00,0.0416
783.00,0.0419
782.00,0.0421
781.00,0.0423
780.00,0.0425
779.00,0.0425
778.00,0.0425
777.00,0.0423
776.00,0.0422
775.00,0.0420
774.00,0.0419
773.00,0.0417
772.00,0.0416
771.00,0.0417
770.00,0.0418
769.00,0.0419
768.00,0.0421
767.00,0.0422
766.00,0.0424
765.00,0.0426
764.00,0.0427
763.00,0.0428
762.00,0.0429
761.00,0.0430
760.00,0.0431
759.00,0.0433
758.00,0.0435
757.00,0.0437
756.00,0.0439
755.00,0.0441
754.00,0.0444
753.00,0.0446
752.00,0.0449
751.00,0.0452
750.00,0.0455
749.00,0.0457
748.00,0.0459
747.00,0.0460
746.00,0.0461
745.00,0.0462
744.00,0.0463
743.00,0.0464
742.00,0.0465
741.00,0.0466
740.00,0.0467
739.00,0.0469
738.00,0.0470
737.00,0.0471
736.00,0.0473
735.00,0.0474
734.00,0.0477
733.00,0.0479
732.00,0.0482
731.00,0.0485
730.00,0.0487
729.00,0.0490
728.00,0.0492
727.00,0.0495
726.00,0.0498
725.00,0.0500
724.00,0.0503
723.00,0.0506
722.00,0.0509
721.00,0.0511
720.00,0.0513
719.00,0.0516
718.00,0.0519
717.00,0.0522
716.00,0.0526
715.00,0.0529
714.00,0.0532
713.00,0.0535
712.00,0.0538
711.00,0.0542
710.00,0.0547
709.00,0.0551
708.00,0.0556
707.00,0.0560
706.00,0.0564
705.00,0.0569
704.00,0.0573
703.00,0.0577
702.00,0.0580
701.00,0.0583
700.00,0.0586
699.00,0.0588
698.00,0.0590
697.00,0.0591
696.00,0.0593
695.00,0.0594
694.00,0.0595
693.00,0.0595
692.00,0.0595
691.00,0.0595
690.00,0.0596
689.00,0.0597
688.00,0.0599
687.00,0.0601
686.00,0.0603
685.00,0.0605
684.00,0.0607
683.00,0.0609
682.00,0.0611
681.00,0.0613
680.00,0.0616
679.00,0.0618
678.00,0.0620
677.00,0.0623
676.00,0.0625
675.00,0.0628
674.00,0.0631
673.00,0.0633
672.00,0.0636
671.00,0.0638
670.00,0.0641
669.00,0.0644
668.00,0.0647
667.00,0.0651
666.00,0.0653
665.00,0.0655
664.00,0.0658
663.00,0.0662
662.00,0.0665
661.00,0.0668
660.00,0.0671
659.00,0.0673
658.00,0.0675
657.00,0.0676
656.00,0.0678
655.00,0.0679
654.00,0.0680
653.00,0.0682
652.00,0.0684
651.00,0.0686
650.00,0.0687
649.00,0.0689
648.00,0.0691
647.00,0.0692
646.00,0.0693
645.00,0.0694
644.00,0.0695
643.00,0.0696
642.00,0.0698
641.00,0.0699
640.00,0.0699
639.00,0.0700
638.00,0.0702
637.00,0.0703
636.00,0.0705
635.00,0.0706
634.00,0.0707
633.00,0.0708
632.00,0.0709
631.00,0.0710
630.00,0.0712
629.00,0.0714
628.00,0.0717
627.00,0.0719
626.00,0.0722
625.00,0.0724
624.00,0.0726
623.00,0.0728
622.00,0.0731
621.00,0.0733
620.00,0.0736
619.00,0.0738
618.00,0.0740
617.00,0.0741
616.00,0.0743
615.00,0.0745
614.00,0.0746
613.00,0.0748
612.00,0.0750
611.00,0.0752
610.00,0.0755
609.00,0.0757
608.00,0.0760
607.00,0.0763
606.00,0.0766
605.00,0.0768
604.00,0.0770
603.00,0.0773
602.00,0.0777
601.00,0.0781
600.00,0.0785
599.00,0.0788
598.00,0.0790
597.00,0.0792
596.00,0.0795
595.00,0.0799
594.00,0.0803
593.00,0.0808
592.00,0.0812
591.00,0.0815
590.00,0.0817
589.00,0.0819
588.00,0.0822
587.00,0.0825
586.00,0.0827
585.00,0.0829
584.00,0.0831
583.00,0.0833
582.00,0.0834
581.00,0.0836
580.00,0.0838
579.00,0.0840
578.00,0.0841
577.00,0.0842
576.00,0.0843
575.00,0.0844
574.00,0.0845
573.00,0.0846
572.00,0.0846
571.00,0.0845
570.00,0.0845
569.00,0.0844
568.00,0.0844
567.00,0.0844
566.00,0.0844
565.00,0.0845
564.00,0.0846
563.00,0.0847
562.00,0.0847
561.00,0.0846
560.00,0.0846
559.00,0.0847
558.00,0.0848
557.00,0.0850
556.00,0.0853
555.00,0.0855
554.00,0.0856
553.00,0.0858
552.00,0.0860
551.00,0.0863
550.00,0.0865
549.00,0.0868
548.00,0.0871
547.00,0.0874
546.00,0.0876
545.00,0.0878
544.00,0.0880
543.00,0.0883
542.00,0.0887
541.00,0.0891
540.00,0.0895
539.00,0.0900
538.00,0.0904
537.00,0.0907
536.00,0.0911
535.00,0.0914
534.00,0.0916
533.00,0.0917
532.00,0.0919
531.00,0.0921
530.00,0.0922
529.00,0.0923
528.00,0.0924
527.00,0.0925
526.00,0.0927
525.00,0.0929
524.00,0.0931
523.00,0.0933
522.00,0.0933
521.00,0.0933
520.00,0.0932
519.00,0.0930
518.00,0.0927
517.00,0.0925
516.00,0.0924
515.00,0.0922
514.00,0.0919
513.00,0.0916
512.00,0.0913
511.00,0.0911
510.00,0.0909
509.00,0.0909
508.00,0.0909
507.00,0.0909
506.00,0.0908
505.00,0.0906
504.00,0.0904
503.00,0.0901
502.00,0.0898
501.00,0.0896
500.00,0.0897
499.00,0.0899
498.00,0.0901
497.00,0.0903
496.00,0.0904
495.00,0.0903
494.00,0.0902
493.00,0.0901
492.00,0.0902
491.00,0.0902
490.00,0.0902
489.00,0.0901
488.00,0.0900
487.00,0.0900
486.00,0.0901
485.00,0.0902
484.00,0.0901
483.00,0.0899
482.00,0.0896
481.00,0.0892
480.00,0.0890
479.00,0.0889
478.00,0.0888
477.00,0.0887
476.00,0.0886
475.00,0.0884
474.00,0.0881
473.00,0.0877
472.00,0.0877
471.00,0.0880
470.00,0.0882
469.00,0.0883
468.00,0.0882
467.00,0.0881
466.00,0.0881
465.00,0.0881
464.00,0.0880
463.00,0.0878
462.00,0.0875
461.00,0.0874
460.00,0.0876
459.00,0.0879
458.00,0.0881
457.00,0.0880
456.00,0.0877
455.00,0.0871
454.00,0.0866
453.00,0.0862
452.00,0.0860
451.00,0.0860
450.00,0.0860
449.00,0.0861
448.00,0.0861
447.00,0.0859
446.00,0.0855
445.00,0.0852
444.00,0.0851
443.00,0.0851
442.00,0.0850
441.00,0.0851
440.00,0.0852
439.00,0.0852
438.00,0.0852
437.00,0.0855
436.00,0.0860
435.00,0.0864
434.00,0.0865
433.00,0.0865
432.00,0.0867
431.00,0.0869
430.00,0.0870
429.00,0.0872
428.00,0.0877
427.00,0.0883
426.00,0.0886
425.00,0.0886
424.00,0.0884
423.00,0.0880
422.00,0.0875
421.00,0.0869
420.00,0.0861
419.00,0.0854
418.00,0.0850
417.00,0.0849
416.00,0.0851
415.00,0.0854
414.00,0.0858
413.00,0.0864
412.00,0.0873
411.00,0.0878
410.00,0.0878
409.00,0.0874
408.00,0.0868
407.00,0.0862
406.00,0.0855
405.00,0.0850
404.00,0.0849
403.00,0.0845
402.00,0.0840
401.00,0.0838
400.00,0.0837
