Created as New Dataset,Sample 902 By YargerLab Date Wednesday, July 23 2025
cm-1,A
4000.00,0.0032
3999.00,0.0032
3998.00,0.0032
3997.00,0.0032
3996.00,0.0032
3995.00,0.0032
3994.00,0.0032
3993.00,0.0032
3992.00,0.0032
3991.00,0.0032
3990.00,0.0032
3989.00,0.0032
3988.00,0.0032
3987.00,0.0032
3986.00,0.0032
3985.00,0.0032
3984.00,0.0032
3983.00,0.0032
3982.00,0.0032
3981.00,0.0032
3980.00,0.0032
3979.00,0.0032
3978.00,0.0032
3977.00,0.0032
3976.00,0.0032
3975.00,0.0032
3974.00,0.0032
3973.00,0.0032
3972.00,0.0032
3971.00,0.0032
3970.00,0.0032
3969.00,0.0032
3968.00,0.0032
3967.00,0.0032
3966.00,0.0032
3965.00,0.0032
3964.00,0.0032
3963.00,0.0032
3962.00,0.0032
3961.00,0.0032
3960.00,0.0032
3959.00,0.0032
3958.00,0.0031
3957.00,0.0031
3956.00,0.0031
3955.00,0.0031
3954.00,0.0031
3953.00,0.0032
3952.00,0.0032
3951.00,0.0031
3950.00,0.0031
3949.00,0.0031
3948.00,0.0031
3947.00,0.0031
3946.00,0.0031
3945.00,0.0031
3944.00,0.0032
3943.00,0.0032
3942.00,0.0032
3941.00,0.0032
3940.00,0.0032
3939.00,0.0032
3938.00,0.0032
3937.00,0.0032
3936.00,0.0032
3935.00,0.0032
3934.00,0.0032
3933.00,0.0031
3932.00,0.0031
3931.00,0.0031
3930.00,0.0031
3929.00,0.0031
3928.00,0.0031
3927.00,0.0031
3926.00,0.0031
3925.00,0.0031
3924.00,0.0031
3923.00,0.0031
3922.00,0.0031
3921.00,0.0031
3920.00,0.0031
3919.00,0.0031
3918.00,0.0031
3917.00,0.0031
3916.00,0.0031
3915.00,0.0031
3914.00,0.0031
3913.00,0.0031
3912.00,0.0031
3911.00,0.0031
3910.00,0.0031
3909.00,0.0032
3908.00,0.0032
3907.00,0.0032
3906.00,0.0032
3905.00,0.0032
3904.00,0.0033
3903.00,0.0033
3902.00,0.0032
3901.00,0.0032
3900.00,0.0032
3899.00,0.0032
3898.00,0.0032
3897.00,0.0032
3896.00,0.0032
3895.00,0.0032
3894.00,0.0032
3893.00,0.0032
3892.00,0.0032
3891.00,0.0032
3890.00,0.0032
3889.00,0.0032
3888.00,0.0032
3887.00,0.0031
3886.00,0.0031
3885.00,0.0031
3884.00,0.0032
3883.00,0.0032
3882.00,0.0031
3881.00,0.0031
3880.00,0.0031
3879.00,0.0031
3878.00,0.0032
3877.00,0.0032
3876.00,0.0032
3875.00,0.0032
3874.00,0.0032
3873.00,0.0032
3872.00,0.0032
3871.00,0.0032
3870.00,0.0032
3869.00,0.0031
3868.00,0.0032
3867.00,0.0032
3866.00,0.0031
3865.00,0.0032
3864.00,0.0032
3863.00,0.0032
3862.00,0.0032
3861.00,0.0032
3860.00,0.0032
3859.00,0.0032
3858.00,0.0033
3857.00,0.0033
3856.00,0.0034
3855.00,0.0034
3854.00,0.0034
3853.00,0.0033
3852.00,0.0033
3851.00,0.0033
3850.00,0.0032
3849.00,0.0031
3848.00,0.0031
3847.00,0.0031
3846.00,0.0031
3845.00,0.0032
3844.00,0.0032
3843.00,0.0032
3842.00,0.0033
3841.00,0.0033
3840.00,0.0033
3839.00,0.0032
3838.00,0.0032
3837.00,0.0032
3836.00,0.0032
3835.00,0.0032
3834.00,0.0032
3833.00,0.0032
3832.00,0.0032
3831.00,0.0032
3830.00,0.0032
3829.00,0.0032
3828.00,0.0032
3827.00,0.0032
3826.00,0.0032
3825.00,0.0032
3824.00,0.0033
3823.00,0.0033
3822.00,0.0033
3821.00,0.0032
3820.00,0.0032
3819.00,0.0033
3818.00,0.0032
3817.00,0.0032
3816.00,0.0032
3815.00,0.0032
3814.00,0.0032
3813.00,0.0032
3812.00,0.0032
3811.00,0.0032
3810.00,0.0032
3809.00,0.0032
3808.00,0.0032
3807.00,0.0032
3806.00,0.0033
3805.00,0.0033
3804.00,0.0033
3803.00,0.0033
3802.00,0.0033
3801.00,0.0033
3800.00,0.0033
3799.00,0.0032
3798.00,0.0032
3797.00,0.0031
3796.00,0.0031
3795.00,0.0031
3794.00,0.0031
3793.00,0.0031
3792.00,0.0031
3791.00,0.0032
3790.00,0.0032
3789.00,0.0032
3788.00,0.0031
3787.00,0.0031
3786.00,0.0031
3785.00,0.0032
3784.00,0.0032
3783.00,0.0032
3782.00,0.0032
3781.00,0.0032
3780.00,0.0032
3779.00,0.0032
3778.00,0.0032
3777.00,0.0032
3776.00,0.0032
3775.00,0.0032
3774.00,0.0032
3773.00,0.0032
3772.00,0.0033
3771.00,0.0033
3770.00,0.0033
3769.00,0.0033
3768.00,0.0033
3767.00,0.0032
3766.00,0.0032
3765.00,0.0032
3764.00,0.0032
3763.00,0.0032
3762.00,0.0032
3761.00,0.0032
3760.00,0.0032
3759.00,0.0032
3758.00,0.0032
3757.00,0.0033
3756.00,0.0033
3755.00,0.0033
3754.00,0.0033
3753.00,0.0034
3752.00,0.0033
3751.00,0.0033
3750.00,0.0033
3749.00,0.0033
3748.00,0.0033
3747.00,0.0032
3746.00,0.0032
3745.00,0.0032
3744.00,0.0031
3743.00,0.0032
3742.00,0.0032
3741.00,0.0031
3740.00,0.0031
3739.00,0.0030
3738.00,0.0031
3737.00,0.0030
3736.00,0.0030
3735.00,0.0030
3734.00,0.0030
3733.00,0.0029
3732.00,0.0030
3731.00,0.0030
3730.00,0.0030
3729.00,0.0031
3728.00,0.0030
3727.00,0.0030
3726.00,0.0030
3725.00,0.0030
3724.00,0.0030
3723.00,0.0030
3722.00,0.0030
3721.00,0.0030
3720.00,0.0030
3719.00,0.0031
3718.00,0.0031
3717.00,0.0031
3716.00,0.0032
3715.00,0.0032
3714.00,0.0032
3713.00,0.0032
3712.00,0.0031
3711.00,0.0031
3710.00,0.0031
3709.00,0.0031
3708.00,0.0031
3707.00,0.0031
3706.00,0.0030
3705.00,0.0030
3704.00,0.0030
3703.00,0.0030
3702.00,0.0030
3701.00,0.0030
3700.00,0.0030
3699.00,0.0030
3698.00,0.0030
3697.00,0.0030
3696.00,0.0030
3695.00,0.0030
3694.00,0.0030
3693.00,0.0031
3692.00,0.0031
3691.00,0.0031
3690.00,0.0032
3689.00,0.0032
3688.00,0.0033
3687.00,0.0033
3686.00,0.0033
3685.00,0.0033
3684.00,0.0033
3683.00,0.0033
3682.00,0.0033
3681.00,0.0034
3680.00,0.0034
3679.00,0.0035
3678.00,0.0035
3677.00,0.0035
3676.00,0.0035
3675.00,0.0035
3674.00,0.0036
3673.00,0.0036
3672.00,0.0036
3671.00,0.0035
3670.00,0.0035
3669.00,0.0036
3668.00,0.0036
3667.00,0.0036
3666.00,0.0036
3665.00,0.0036
3664.00,0.0036
3663.00,0.0037
3662.00,0.0037
3661.00,0.0037
3660.00,0.0037
3659.00,0.0037
3658.00,0.0037
3657.00,0.0037
3656.00,0.0038
3655.00,0.0038
3654.00,0.0039
3653.00,0.0039
3652.00,0.0039
3651.00,0.0039
3650.00,0.0039
3649.00,0.0039
3648.00,0.0040
3647.00,0.0040
3646.00,0.0040
3645.00,0.0040
3644.00,0.0040
3643.00,0.0040
3642.00,0.0040
3641.00,0.0041
3640.00,0.0041
3639.00,0.0042
3638.00,0.0042
3637.00,0.0043
3636.00,0.0043
3635.00,0.0043
3634.00,0.0044
3633.00,0.0044
3632.00,0.0045
3631.00,0.0045
3630.00,0.0045
3629.00,0.0045
3628.00,0.0045
3627.00,0.0046
3626.00,0.0045
3625.00,0.0045
3624.00,0.0046
3623.00,0.0046
3622.00,0.0047
3621.00,0.0048
3620.00,0.0048
3619.00,0.0049
3618.00,0.0050
3617.00,0.0051
3616.00,0.0051
3615.00,0.0052
3614.00,0.0052
3613.00,0.0052
3612.00,0.0053
3611.00,0.0053
3610.00,0.0054
3609.00,0.0054
3608.00,0.0055
3607.00,0.0055
3606.00,0.0056
3605.00,0.0056
3604.00,0.0056
3603.00,0.0056
3602.00,0.0057
3601.00,0.0057
3600.00,0.0058
3599.00,0.0059
3598.00,0.0060
3597.00,0.0060
3596.00,0.0061
3595.00,0.0061
3594.00,0.0061
3593.00,0.0062
3592.00,0.0062
3591.00,0.0063
3590.00,0.0064
3589.00,0.0064
3588.00,0.0065
3587.00,0.0066
3586.00,0.0067
3585.00,0.0068
3584.00,0.0069
3583.00,0.0069
3582.00,0.0070
3581.00,0.0070
3580.00,0.0071
3579.00,0.0071
3578.00,0.0072
3577.00,0.0073
3576.00,0.0074
3575.00,0.0075
3574.00,0.0076
3573.00,0.0076
3572.00,0.0077
3571.00,0.0077
3570.00,0.0078
3569.00,0.0078
3568.00,0.0078
3567.00,0.0079
3566.00,0.0080
3565.00,0.0081
3564.00,0.0082
3563.00,0.0083
3562.00,0.0084
3561.00,0.0085
3560.00,0.0085
3559.00,0.0086
3558.00,0.0087
3557.00,0.0087
3556.00,0.0088
3555.00,0.0089
3554.00,0.0089
3553.00,0.0090
3552.00,0.0090
3551.00,0.0091
3550.00,0.0091
3549.00,0.0092
3548.00,0.0092
3547.00,0.0092
3546.00,0.0093
3545.00,0.0093
3544.00,0.0094
3543.00,0.0094
3542.00,0.0094
3541.00,0.0095
3540.00,0.0095
3539.00,0.0096
3538.00,0.0096
3537.00,0.0097
3536.00,0.0098
3535.00,0.0099
3534.00,0.0099
3533.00,0.0099
3532.00,0.0100
3531.00,0.0100
3530.00,0.0101
3529.00,0.0101
3528.00,0.0102
3527.00,0.0102
3526.00,0.0102
3525.00,0.0103
3524.00,0.0103
3523.00,0.0103
3522.00,0.0104
3521.00,0.0104
3520.00,0.0105
3519.00,0.0105
3518.00,0.0105
3517.00,0.0106
3516.00,0.0106
3515.00,0.0107
3514.00,0.0107
3513.00,0.0108
3512.00,0.0109
3511.00,0.0109
3510.00,0.0110
3509.00,0.0110
3508.00,0.0111
3507.00,0.0111
3506.00,0.0111
3505.00,0.0111
3504.00,0.0112
3503.00,0.0112
3502.00,0.0113
3501.00,0.0113
3500.00,0.0114
3499.00,0.0114
3498.00,0.0115
3497.00,0.0116
3496.00,0.0117
3495.00,0.0117
3494.00,0.0118
3493.00,0.0118
3492.00,0.0118
3491.00,0.0119
3490.00,0.0119
3489.00,0.0119
3488.00,0.0120
3487.00,0.0120
3486.00,0.0121
3485.00,0.0121
3484.00,0.0121
3483.00,0.0122
3482.00,0.0122
3481.00,0.0123
3480.00,0.0123
3479.00,0.0124
3478.00,0.0124
3477.00,0.0124
3476.00,0.0125
3475.00,0.0125
3474.00,0.0126
3473.00,0.0126
3472.00,0.0127
3471.00,0.0128
3470.00,0.0128
3469.00,0.0128
3468.00,0.0128
3467.00,0.0129
3466.00,0.0129
3465.00,0.0129
3464.00,0.0130
3463.00,0.0130
3462.00,0.0131
3461.00,0.0131
3460.00,0.0132
3459.00,0.0132
3458.00,0.0132
3457.00,0.0132
3456.00,0.0132
3455.00,0.0132
3454.00,0.0133
3453.00,0.0133
3452.00,0.0133
3451.00,0.0134
3450.00,0.0134
3449.00,0.0134
3448.00,0.0135
3447.00,0.0135
3446.00,0.0135
3445.00,0.0136
3444.00,0.0136
3443.00,0.0136
3442.00,0.0136
3441.00,0.0136
3440.00,0.0137
3439.00,0.0137
3438.00,0.0138
3437.00,0.0138
3436.00,0.0138
3435.00,0.0138
3434.00,0.0138
3433.00,0.0138
3432.00,0.0138
3431.00,0.0139
3430.00,0.0139
3429.00,0.0139
3428.00,0.0139
3427.00,0.0139
3426.00,0.0139
3425.00,0.0139
3424.00,0.0139
3423.00,0.0139
3422.00,0.0139
3421.00,0.0139
3420.00,0.0139
3419.00,0.0140
3418.00,0.0140
3417.00,0.0140
3416.00,0.0140
3415.00,0.0140
3414.00,0.0140
3413.00,0.0140
3412.00,0.0140
3411.00,0.0140
3410.00,0.0141
3409.00,0.0141
3408.00,0.0141
3407.00,0.0141
3406.00,0.0141
3405.00,0.0142
3404.00,0.0142
3403.00,0.0142
3402.00,0.0142
3401.00,0.0142
3400.00,0.0142
3399.00,0.0142
3398.00,0.0142
3397.00,0.0143
3396.00,0.0143
3395.00,0.0143
3394.00,0.0143
3393.00,0.0143
3392.00,0.0144
3391.00,0.0144
3390.00,0.0144
3389.00,0.0144
3388.00,0.0144
3387.00,0.0144
3386.00,0.0145
3385.00,0.0145
3384.00,0.0145
3383.00,0.0146
3382.00,0.0146
3381.00,0.0146
3380.00,0.0146
3379.00,0.0146
3378.00,0.0147
3377.00,0.0147
3376.00,0.0147
3375.00,0.0147
3374.00,0.0147
3373.00,0.0147
3372.00,0.0147
3371.00,0.0146
3370.00,0.0146
3369.00,0.0146
3368.00,0.0147
3367.00,0.0147
3366.00,0.0148
3365.00,0.0149
3364.00,0.0149
3363.00,0.0150
3362.00,0.0150
3361.00,0.0150
3360.00,0.0150
3359.00,0.0150
3358.00,0.0150
3357.00,0.0151
3356.00,0.0151
3355.00,0.0151
3354.00,0.0151
3353.00,0.0151
3352.00,0.0150
3351.00,0.0150
3350.00,0.0151
3349.00,0.0151
3348.00,0.0152
3347.00,0.0152
3346.00,0.0152
3345.00,0.0152
3344.00,0.0153
3343.00,0.0153
3342.00,0.0153
3341.00,0.0153
3340.00,0.0153
3339.00,0.0153
3338.00,0.0153
3337.00,0.0153
3336.00,0.0153
3335.00,0.0154
3334.00,0.0154
3333.00,0.0154
3332.00,0.0155
3331.00,0.0155
3330.00,0.0155
3329.00,0.0155
3328.00,0.0155
3327.00,0.0155
3326.00,0.0155
3325.00,0.0155
3324.00,0.0155
3323.00,0.0156
3322.00,0.0156
3321.00,0.0156
3320.00,0.0156
3319.00,0.0156
3318.00,0.0157
3317.00,0.0157
3316.00,0.0157
3315.00,0.0157
3314.00,0.0156
3313.00,0.0156
3312.00,0.0156
3311.00,0.0155
3310.00,0.0155
3309.00,0.0154
3308.00,0.0154
3307.00,0.0154
3306.00,0.0154
3305.00,0.0154
3304.00,0.0155
3303.00,0.0157
3302.00,0.0157
3301.00,0.0158
3300.00,0.0158
3299.00,0.0158
3298.00,0.0157
3297.00,0.0156
3296.00,0.0156
3295.00,0.0156
3294.00,0.0156
3293.00,0.0156
3292.00,0.0157
3291.00,0.0157
3290.00,0.0157
3289.00,0.0158
3288.00,0.0158
3287.00,0.0158
3286.00,0.0158
3285.00,0.0158
3284.00,0.0158
3283.00,0.0158
3282.00,0.0158
3281.00,0.0158
3280.00,0.0158
3279.00,0.0157
3278.00,0.0157
3277.00,0.0157
3276.00,0.0156
3275.00,0.0156
3274.00,0.0156
3273.00,0.0156
3272.00,0.0156
3271.00,0.0156
3270.00,0.0156
3269.00,0.0156
3268.00,0.0157
3267.00,0.0157
3266.00,0.0157
3265.00,0.0157
3264.00,0.0157
3263.00,0.0156
3262.00,0.0156
3261.00,0.0156
3260.00,0.0156
3259.00,0.0156
3258.00,0.0156
3257.00,0.0156
3256.00,0.0156
3255.00,0.0156
3254.00,0.0156
3253.00,0.0156
3252.00,0.0155
3251.00,0.0155
3250.00,0.0155
3249.00,0.0155
3248.00,0.0155
3247.00,0.0155
3246.00,0.0155
3245.00,0.0155
3244.00,0.0154
3243.00,0.0154
3242.00,0.0154
3241.00,0.0154
3240.00,0.0154
3239.00,0.0154
3238.00,0.0154
3237.00,0.0153
3236.00,0.0153
3235.00,0.0153
3234.00,0.0153
3233.00,0.0153
3232.00,0.0152
3231.00,0.0152
3230.00,0.0152
3229.00,0.0152
3228.00,0.0152
3227.00,0.0152
3226.00,0.0151
3225.00,0.0151
3224.00,0.0151
3223.00,0.0151
3222.00,0.0151
3221.00,0.0150
3220.00,0.0150
3219.00,0.0150
3218.00,0.0150
3217.00,0.0150
3216.00,0.0150
3215.00,0.0150
3214.00,0.0149
3213.00,0.0149
3212.00,0.0149
3211.00,0.0149
3210.00,0.0148
3209.00,0.0148
3208.00,0.0148
3207.00,0.0148
3206.00,0.0147
3205.00,0.0147
3204.00,0.0147
3203.00,0.0147
3202.00,0.0147
3201.00,0.0146
3200.00,0.0146
3199.00,0.0146
3198.00,0.0146
3197.00,0.0146
3196.00,0.0146
3195.00,0.0146
3194.00,0.0146
3193.00,0.0145
3192.00,0.0145
3191.00,0.0145
3190.00,0.0144
3189.00,0.0144
3188.00,0.0143
3187.00,0.0143
3186.00,0.0143
3185.00,0.0143
3184.00,0.0143
3183.00,0.0142
3182.00,0.0142
3181.00,0.0142
3180.00,0.0141
3179.00,0.0141
3178.00,0.0141
3177.00,0.0141
3176.00,0.0140
3175.00,0.0140
3174.00,0.0140
3173.00,0.0139
3172.00,0.0139
3171.00,0.0139
3170.00,0.0138
3169.00,0.0138
3168.00,0.0138
3167.00,0.0137
3166.00,0.0137
3165.00,0.0136
3164.00,0.0136
3163.00,0.0135
3162.00,0.0134
3161.00,0.0134
3160.00,0.0133
3159.00,0.0133
3158.00,0.0133
3157.00,0.0132
3156.00,0.0132
3155.00,0.0131
3154.00,0.0131
3153.00,0.0131
3152.00,0.0130
3151.00,0.0130
3150.00,0.0129
3149.00,0.0129
3148.00,0.0128
3147.00,0.0128
3146.00,0.0128
3145.00,0.0127
3144.00,0.0127
3143.00,0.0127
3142.00,0.0126
3141.00,0.0126
3140.00,0.0125
3139.00,0.0125
3138.00,0.0125
3137.00,0.0124
3136.00,0.0124
3135.00,0.0123
3134.00,0.0123
3133.00,0.0123
3132.00,0.0123
3131.00,0.0123
3130.00,0.0122
3129.00,0.0122
3128.00,0.0121
3127.00,0.0121
3126.00,0.0121
3125.00,0.0120
3124.00,0.0120
3123.00,0.0120
3122.00,0.0120
3121.00,0.0119
3120.00,0.0119
3119.00,0.0118
3118.00,0.0118
3117.00,0.0118
3116.00,0.0117
3115.00,0.0117
3114.00,0.0117
3113.00,0.0116
3112.00,0.0115
3111.00,0.0115
3110.00,0.0114
3109.00,0.0114
3108.00,0.0114
3107.00,0.0113
3106.00,0.0113
3105.00,0.0112
3104.00,0.0112
3103.00,0.0112
3102.00,0.0111
3101.00,0.0111
3100.00,0.0111
3099.00,0.0110
3098.00,0.0110
3097.00,0.0109
3096.00,0.0109
3095.00,0.0108
3094.00,0.0108
3093.00,0.0108
3092.00,0.0108
3091.00,0.0107
3090.00,0.0107
3089.00,0.0107
3088.00,0.0106
3087.00,0.0106
3086.00,0.0106
3085.00,0.0106
3084.00,0.0106
3083.00,0.0106
3082.00,0.0106
3081.00,0.0105
3080.00,0.0105
3079.00,0.0105
3078.00,0.0105
3077.00,0.0105
3076.00,0.0105
3075.00,0.0105
3074.00,0.0105
3073.00,0.0104
3072.00,0.0104
3071.00,0.0104
3070.00,0.0104
3069.00,0.0104
3068.00,0.0103
3067.00,0.0103
3066.00,0.0102
3065.00,0.0101
3064.00,0.0100
3063.00,0.0100
3062.00,0.0099
3061.00,0.0098
3060.00,0.0097
3059.00,0.0096
3058.00,0.0096
3057.00,0.0095
3056.00,0.0095
3055.00,0.0094
3054.00,0.0094
3053.00,0.0094
3052.00,0.0094
3051.00,0.0093
3050.00,0.0093
3049.00,0.0093
3048.00,0.0092
3047.00,0.0092
3046.00,0.0092
3045.00,0.0091
3044.00,0.0091
3043.00,0.0091
3042.00,0.0090
3041.00,0.0090
3040.00,0.0090
3039.00,0.0090
3038.00,0.0089
3037.00,0.0089
3036.00,0.0089
3035.00,0.0089
3034.00,0.0089
3033.00,0.0088
3032.00,0.0088
3031.00,0.0088
3030.00,0.0088
3029.00,0.0088
3028.00,0.0088
3027.00,0.0088
3026.00,0.0088
3025.00,0.0089
3024.00,0.0089
3023.00,0.0089
3022.00,0.0089
3021.00,0.0089
3020.00,0.0090
3019.00,0.0091
3018.00,0.0091
3017.00,0.0092
3016.00,0.0093
3015.00,0.0094
3014.00,0.0094
3013.00,0.0095
3012.00,0.0096
3011.00,0.0098
3010.00,0.0099
3009.00,0.0101
3008.00,0.0102
3007.00,0.0104
3006.00,0.0106
3005.00,0.0108
3004.00,0.0109
3003.00,0.0112
3002.00,0.0114
3001.00,0.0116
3000.00,0.0119
2999.00,0.0122
2998.00,0.0124
2997.00,0.0127
2996.00,0.0130
2995.00,0.0134
2994.00,0.0137
2993.00,0.0141
2992.00,0.0144
2991.00,0.0148
2990.00,0.0152
2989.00,0.0155
2988.00,0.0159
2987.00,0.0163
2986.00,0.0167
2985.00,0.0171
2984.00,0.0174
2983.00,0.0178
2982.00,0.0181
2981.00,0.0185
2980.00,0.0188
2979.00,0.0192
2978.00,0.0195
2977.00,0.0199
2976.00,0.0202
2975.00,0.0206
2974.00,0.0209
2973.00,0.0213
2972.00,0.0217
2971.00,0.0221
2970.00,0.0225
2969.00,0.0229
2968.00,0.0234
2967.00,0.0238
2966.00,0.0242
2965.00,0.0247
2964.00,0.0251
2963.00,0.0256
2962.00,0.0260
2961.00,0.0264
2960.00,0.0267
2959.00,0.0271
2958.00,0.0273
2957.00,0.0276
2956.00,0.0277
2955.00,0.0278
2954.00,0.0278
2953.00,0.0278
2952.00,0.0278
2951.00,0.0277
2950.00,0.0276
2949.00,0.0275
2948.00,0.0274
2947.00,0.0273
2946.00,0.0272
2945.00,0.0271
2944.00,0.0271
2943.00,0.0271
2942.00,0.0271
2941.00,0.0272
2940.00,0.0273
2939.00,0.0275
2938.00,0.0277
2937.00,0.0280
2936.00,0.0283
2935.00,0.0287
2934.00,0.0291
2933.00,0.0295
2932.00,0.0299
2931.00,0.0302
2930.00,0.0306
2929.00,0.0310
2928.00,0.0313
2927.00,0.0316
2926.00,0.0318
2925.00,0.0320
2924.00,0.0321
2923.00,0.0322
2922.00,0.0322
2921.00,0.0322
2920.00,0.0321
2919.00,0.0319
2918.00,0.0316
2917.00,0.0313
2916.00,0.0309
2915.00,0.0305
2914.00,0.0301
2913.00,0.0296
2912.00,0.0291
2911.00,0.0287
2910.00,0.0282
2909.00,0.0277
2908.00,0.0272
2907.00,0.0268
2906.00,0.0264
2905.00,0.0260
2904.00,0.0257
2903.00,0.0254
2902.00,0.0252
2901.00,0.0250
2900.00,0.0248
2899.00,0.0246
2898.00,0.0245
2897.00,0.0244
2896.00,0.0244
2895.00,0.0243
2894.00,0.0242
2893.00,0.0241
2892.00,0.0240
2891.00,0.0240
2890.00,0.0239
2889.00,0.0238
2888.00,0.0237
2887.00,0.0237
2886.00,0.0236
2885.00,0.0235
2884.00,0.0235
2883.00,0.0234
2882.00,0.0234
2881.00,0.0234
2880.00,0.0234
2879.00,0.0234
2878.00,0.0234
2877.00,0.0234
2876.00,0.0234
2875.00,0.0234
2874.00,0.0233
2873.00,0.0233
2872.00,0.0233
2871.00,0.0233
2870.00,0.0232
2869.00,0.0231
2868.00,0.0230
2867.00,0.0229
2866.00,0.0228
2865.00,0.0228
2864.00,0.0227
2863.00,0.0227
2862.00,0.0228
2861.00,0.0228
2860.00,0.0229
2859.00,0.0229
2858.00,0.0229
2857.00,0.0229
2856.00,0.0228
2855.00,0.0226
2854.00,0.0223
2853.00,0.0219
2852.00,0.0214
2851.00,0.0209
2850.00,0.0203
2849.00,0.0196
2848.00,0.0190
2847.00,0.0183
2846.00,0.0177
2845.00,0.0171
2844.00,0.0165
2843.00,0.0160
2842.00,0.0155
2841.00,0.0150
2840.00,0.0147
2839.00,0.0143
2838.00,0.0141
2837.00,0.0139
2836.00,0.0137
2835.00,0.0135
2834.00,0.0134
2833.00,0.0132
2832.00,0.0131
2831.00,0.0129
2830.00,0.0127
2829.00,0.0125
2828.00,0.0122
2827.00,0.0119
2826.00,0.0116
2825.00,0.0113
2824.00,0.0110
2823.00,0.0107
2822.00,0.0104
2821.00,0.0101
2820.00,0.0098
2819.00,0.0095
2818.00,0.0093
2817.00,0.0091
2816.00,0.0089
2815.00,0.0087
2814.00,0.0086
2813.00,0.0084
2812.00,0.0083
2811.00,0.0082
2810.00,0.0081
2809.00,0.0080
2808.00,0.0080
2807.00,0.0079
2806.00,0.0078
2805.00,0.0078
2804.00,0.0077
2803.00,0.0076
2802.00,0.0076
2801.00,0.0075
2800.00,0.0074
2799.00,0.0074
2798.00,0.0074
2797.00,0.0073
2796.00,0.0073
2795.00,0.0073
2794.00,0.0073
2793.00,0.0072
2792.00,0.0072
2791.00,0.0072
2790.00,0.0071
2789.00,0.0071
2788.00,0.0071
2787.00,0.0070
2786.00,0.0070
2785.00,0.0070
2784.00,0.0070
2783.00,0.0069
2782.00,0.0069
2781.00,0.0069
2780.00,0.0069
2779.00,0.0068
2778.00,0.0068
2777.00,0.0067
2776.00,0.0067
2775.00,0.0067
2774.00,0.0067
2773.00,0.0067
2772.00,0.0066
2771.00,0.0066
2770.00,0.0066
2769.00,0.0065
2768.00,0.0065
2767.00,0.0065
2766.00,0.0065
2765.00,0.0065
2764.00,0.0064
2763.00,0.0064
2762.00,0.0064
2761.00,0.0064
2760.00,0.0064
2759.00,0.0064
2758.00,0.0064
2757.00,0.0064
2756.00,0.0064
2755.00,0.0064
2754.00,0.0064
2753.00,0.0064
2752.00,0.0064
2751.00,0.0064
2750.00,0.0064
2749.00,0.0064
2748.00,0.0064
2747.00,0.0064
2746.00,0.0064
2745.00,0.0064
2744.00,0.0064
2743.00,0.0064
2742.00,0.0064
2741.00,0.0064
2740.00,0.0064
2739.00,0.0064
2738.00,0.0064
2737.00,0.0065
2736.00,0.0065
2735.00,0.0065
2734.00,0.0065
2733.00,0.0066
2732.00,0.0066
2731.00,0.0065
2730.00,0.0065
2729.00,0.0065
2728.00,0.0065
2727.00,0.0066
2726.00,0.0066
2725.00,0.0066
2724.00,0.0066
2723.00,0.0066
2722.00,0.0065
2721.00,0.0065
2720.00,0.0065
2719.00,0.0065
2718.00,0.0065
2717.00,0.0065
2716.00,0.0065
2715.00,0.0064
2714.00,0.0064
2713.00,0.0064
2712.00,0.0064
2711.00,0.0064
2710.00,0.0063
2709.00,0.0063
2708.00,0.0063
2707.00,0.0063
2706.00,0.0063
2705.00,0.0063
2704.00,0.0063
2703.00,0.0063
2702.00,0.0063
2701.00,0.0062
2700.00,0.0062
2699.00,0.0062
2698.00,0.0062
2697.00,0.0062
2696.00,0.0062
2695.00,0.0062
2694.00,0.0062
2693.00,0.0062
2692.00,0.0061
2691.00,0.0061
2690.00,0.0061
2689.00,0.0061
2688.00,0.0061
2687.00,0.0061
2686.00,0.0061
2685.00,0.0061
2684.00,0.0061
2683.00,0.0061
2682.00,0.0061
2681.00,0.0061
2680.00,0.0061
2679.00,0.0061
2678.00,0.0061
2677.00,0.0060
2676.00,0.0060
2675.00,0.0060
2674.00,0.0060
2673.00,0.0060
2672.00,0.0060
2671.00,0.0060
2670.00,0.0060
2669.00,0.0060
2668.00,0.0060
2667.00,0.0061
2666.00,0.0061
2665.00,0.0061
2664.00,0.0062
2663.00,0.0062
2662.00,0.0063
2661.00,0.0063
2660.00,0.0063
2659.00,0.0063
2658.00,0.0063
2657.00,0.0063
2656.00,0.0063
2655.00,0.0063
2654.00,0.0063
2653.00,0.0063
2652.00,0.0062
2651.00,0.0062
2650.00,0.0062
2649.00,0.0062
2648.00,0.0062
2647.00,0.0062
2646.00,0.0062
2645.00,0.0062
2644.00,0.0061
2643.00,0.0061
2642.00,0.0061
2641.00,0.0061
2640.00,0.0061
2639.00,0.0061
2638.00,0.0061
2637.00,0.0060
2636.00,0.0060
2635.00,0.0060
2634.00,0.0060
2633.00,0.0059
2632.00,0.0059
2631.00,0.0059
2630.00,0.0059
2629.00,0.0059
2628.00,0.0059
2627.00,0.0059
2626.00,0.0059
2625.00,0.0059
2624.00,0.0058
2623.00,0.0058
2622.00,0.0058
2621.00,0.0057
2620.00,0.0057
2619.00,0.0057
2618.00,0.0057
2617.00,0.0057
2616.00,0.0057
2615.00,0.0056
2614.00,0.0056
2613.00,0.0056
2612.00,0.0055
2611.00,0.0055
2610.00,0.0055
2609.00,0.0055
2608.00,0.0055
2607.00,0.0055
2606.00,0.0055
2605.00,0.0055
2604.00,0.0055
2603.00,0.0055
2602.00,0.0055
2601.00,0.0055
2600.00,0.0055
2599.00,0.0055
2598.00,0.0054
2597.00,0.0054
2596.00,0.0054
2595.00,0.0054
2594.00,0.0053
2593.00,0.0053
2592.00,0.0053
2591.00,0.0053
2590.00,0.0053
2589.00,0.0053
2588.00,0.0053
2587.00,0.0053
2586.00,0.0053
2585.00,0.0053
2584.00,0.0053
2583.00,0.0052
2582.00,0.0052
2581.00,0.0052
2580.00,0.0052
2579.00,0.0052
2578.00,0.0052
2577.00,0.0052
2576.00,0.0052
2575.00,0.0052
2574.00,0.0052
2573.00,0.0052
2572.00,0.0052
2571.00,0.0052
2570.00,0.0051
2569.00,0.0051
2568.00,0.0050
2567.00,0.0050
2566.00,0.0050
2565.00,0.0050
2564.00,0.0050
2563.00,0.0050
2562.00,0.0050
2561.00,0.0049
2560.00,0.0049
2559.00,0.0049
2558.00,0.0049
2557.00,0.0049
2556.00,0.0049
2555.00,0.0049
2554.00,0.0049
2553.00,0.0049
2552.00,0.0048
2551.00,0.0048
2550.00,0.0048
2549.00,0.0048
2548.00,0.0048
2547.00,0.0048
2546.00,0.0048
2545.00,0.0047
2544.00,0.0047
2543.00,0.0047
2542.00,0.0047
2541.00,0.0047
2540.00,0.0047
2539.00,0.0047
2538.00,0.0047
2537.00,0.0047
2536.00,0.0047
2535.00,0.0047
2534.00,0.0047
2533.00,0.0046
2532.00,0.0046
2531.00,0.0046
2530.00,0.0046
2529.00,0.0046
2528.00,0.0046
2527.00,0.0046
2526.00,0.0045
2525.00,0.0045
2524.00,0.0045
2523.00,0.0045
2522.00,0.0045
2521.00,0.0044
2520.00,0.0044
2519.00,0.0045
2518.00,0.0045
2517.00,0.0045
2516.00,0.0046
2515.00,0.0046
2514.00,0.0045
2513.00,0.0045
2512.00,0.0044
2511.00,0.0044
2510.00,0.0044
2509.00,0.0044
2508.00,0.0044
2507.00,0.0044
2506.00,0.0044
2505.00,0.0044
2504.00,0.0044
2503.00,0.0044
2502.00,0.0043
2501.00,0.0043
2500.00,0.0043
2499.00,0.0043
2498.00,0.0043
2497.00,0.0043
2496.00,0.0043
2495.00,0.0043
2494.00,0.0043
2493.00,0.0043
2492.00,0.0043
2491.00,0.0043
2490.00,0.0043
2489.00,0.0043
2488.00,0.0043
2487.00,0.0043
2486.00,0.0043
2485.00,0.0043
2484.00,0.0043
2483.00,0.0042
2482.00,0.0042
2481.00,0.0042
2480.00,0.0042
2479.00,0.0042
2478.00,0.0042
2477.00,0.0042
2476.00,0.0042
2475.00,0.0042
2474.00,0.0041
2473.00,0.0041
2472.00,0.0041
2471.00,0.0041
2470.00,0.0041
2469.00,0.0042
2468.00,0.0041
2467.00,0.0041
2466.00,0.0041
2465.00,0.0041
2464.00,0.0041
2463.00,0.0041
2462.00,0.0042
2461.00,0.0042
2460.00,0.0042
2459.00,0.0043
2458.00,0.0043
2457.00,0.0043
2456.00,0.0043
2455.00,0.0042
2454.00,0.0042
2453.00,0.0042
2452.00,0.0043
2451.00,0.0043
2450.00,0.0042
2449.00,0.0042
2448.00,0.0042
2447.00,0.0042
2446.00,0.0042
2445.00,0.0042
2444.00,0.0041
2443.00,0.0041
2442.00,0.0041
2441.00,0.0041
2440.00,0.0041
2439.00,0.0041
2438.00,0.0041
2437.00,0.0041
2436.00,0.0041
2435.00,0.0041
2434.00,0.0041
2433.00,0.0041
2432.00,0.0041
2431.00,0.0041
2430.00,0.0041
2429.00,0.0040
2428.00,0.0040
2427.00,0.0040
2426.00,0.0040
2425.00,0.0039
2424.00,0.0039
2423.00,0.0039
2422.00,0.0039
2421.00,0.0039
2420.00,0.0039
2419.00,0.0039
2418.00,0.0039
2417.00,0.0039
2416.00,0.0039
2415.00,0.0039
2414.00,0.0039
2413.00,0.0039
2412.00,0.0039
2411.00,0.0039
2410.00,0.0039
2409.00,0.0038
2408.00,0.0038
2407.00,0.0038
2406.00,0.0038
2405.00,0.0038
2404.00,0.0038
2403.00,0.0038
2402.00,0.0038
2401.00,0.0038
2400.00,0.0038
2399.00,0.0038
2398.00,0.0038
2397.00,0.0038
2396.00,0.0038
2395.00,0.0038
2394.00,0.0038
2393.00,0.0038
2392.00,0.0038
2391.00,0.0038
2390.00,0.0038
2389.00,0.0037
2388.00,0.0037
2387.00,0.0036
2386.00,0.0036
2385.00,0.0035
2384.00,0.0035
2383.00,0.0034
2382.00,0.0033
2381.00,0.0033
2380.00,0.0032
2379.00,0.0032
2378.00,0.0032
2377.00,0.0032
2376.00,0.0032
2375.00,0.0032
2374.00,0.0032
2373.00,0.0033
2372.00,0.0033
2371.00,0.0032
2370.00,0.0032
2369.00,0.0032
2368.00,0.0032
2367.00,0.0032
2366.00,0.0032
2365.00,0.0032
2364.00,0.0032
2363.00,0.0033
2362.00,0.0033
2361.00,0.0033
2360.00,0.0033
2359.00,0.0033
2358.00,0.0032
2357.00,0.0032
2356.00,0.0033
2355.00,0.0033
2354.00,0.0034
2353.00,0.0034
2352.00,0.0033
2351.00,0.0033
2350.00,0.0034
2349.00,0.0034
2348.00,0.0035
2347.00,0.0035
2346.00,0.0036
2345.00,0.0036
2344.00,0.0035
2343.00,0.0035
2342.00,0.0035
2341.00,0.0036
2340.00,0.0037
2339.00,0.0038
2338.00,0.0038
2337.00,0.0038
2336.00,0.0038
2335.00,0.0038
2334.00,0.0038
2333.00,0.0038
2332.00,0.0038
2331.00,0.0039
2330.00,0.0040
2329.00,0.0042
2328.00,0.0045
2327.00,0.0050
2326.00,0.0053
2325.00,0.0054
2324.00,0.0053
2323.00,0.0051
2322.00,0.0049
2321.00,0.0047
2320.00,0.0046
2319.00,0.0046
2318.00,0.0045
2317.00,0.0045
2316.00,0.0045
2315.00,0.0044
2314.00,0.0044
2313.00,0.0044
2312.00,0.0043
2311.00,0.0042
2310.00,0.0042
2309.00,0.0042
2308.00,0.0042
2307.00,0.0042
2306.00,0.0042
2305.00,0.0042
2304.00,0.0043
2303.00,0.0043
2302.00,0.0043
2301.00,0.0043
2300.00,0.0044
2299.00,0.0044
2298.00,0.0045
2297.00,0.0045
2296.00,0.0046
2295.00,0.0046
2294.00,0.0047
2293.00,0.0048
2292.00,0.0049
2291.00,0.0050
2290.00,0.0051
2289.00,0.0052
2288.00,0.0052
2287.00,0.0052
2286.00,0.0051
2285.00,0.0051
2284.00,0.0050
2283.00,0.0050
2282.00,0.0049
2281.00,0.0048
2280.00,0.0048
2279.00,0.0047
2278.00,0.0047
2277.00,0.0046
2276.00,0.0046
2275.00,0.0045
2274.00,0.0045
2273.00,0.0045
2272.00,0.0045
2271.00,0.0044
2270.00,0.0044
2269.00,0.0044
2268.00,0.0044
2267.00,0.0044
2266.00,0.0043
2265.00,0.0043
2264.00,0.0043
2263.00,0.0044
2262.00,0.0044
2261.00,0.0045
2260.00,0.0045
2259.00,0.0045
2258.00,0.0044
2257.00,0.0043
2256.00,0.0042
2255.00,0.0041
2254.00,0.0041
2253.00,0.0041
2252.00,0.0041
2251.00,0.0041
2250.00,0.0042
2249.00,0.0042
2248.00,0.0042
2247.00,0.0042
2246.00,0.0042
2245.00,0.0042
2244.00,0.0042
2243.00,0.0042
2242.00,0.0043
2241.00,0.0043
2240.00,0.0043
2239.00,0.0044
2238.00,0.0044
2237.00,0.0045
2236.00,0.0045
2235.00,0.0045
2234.00,0.0043
2233.00,0.0042
2232.00,0.0042
2231.00,0.0042
2230.00,0.0041
2229.00,0.0041
2228.00,0.0041
2227.00,0.0041
2226.00,0.0041
2225.00,0.0041
2224.00,0.0041
2223.00,0.0041
2222.00,0.0041
2221.00,0.0040
2220.00,0.0041
2219.00,0.0041
2218.00,0.0042
2217.00,0.0042
2216.00,0.0042
2215.00,0.0042
2214.00,0.0041
2213.00,0.0041
2212.00,0.0043
2211.00,0.0043
2210.00,0.0044
2209.00,0.0043
2208.00,0.0043
2207.00,0.0042
2206.00,0.0041
2205.00,0.0040
2204.00,0.0040
2203.00,0.0040
2202.00,0.0040
2201.00,0.0040
2200.00,0.0041
2199.00,0.0041
2198.00,0.0041
2197.00,0.0042
2196.00,0.0043
2195.00,0.0043
2194.00,0.0043
2193.00,0.0044
2192.00,0.0044
2191.00,0.0044
2190.00,0.0044
2189.00,0.0044
2188.00,0.0045
2187.00,0.0046
2186.00,0.0045
2185.00,0.0043
2184.00,0.0042
2183.00,0.0039
2182.00,0.0037
2181.00,0.0036
2180.00,0.0036
2179.00,0.0038
2178.00,0.0038
2177.00,0.0038
2176.00,0.0038
2175.00,0.0039
2174.00,0.0040
2173.00,0.0043
2172.00,0.0046
2171.00,0.0048
2170.00,0.0050
2169.00,0.0051
2168.00,0.0052
2167.00,0.0053
2166.00,0.0053
2165.00,0.0054
2164.00,0.0056
2163.00,0.0055
2162.00,0.0048
2161.00,0.0035
2160.00,0.0020
2159.00,0.0008
2158.00,0.0004
2157.00,0.0006
2156.00,0.0010
2155.00,0.0013
2154.00,0.0015
2153.00,0.0018
2152.00,0.0020
2151.00,0.0021
2150.00,0.0020
2149.00,0.0019
2148.00,0.0019
2147.00,0.0020
2146.00,0.0021
2145.00,0.0021
2144.00,0.0021
2143.00,0.0021
2142.00,0.0021
2141.00,0.0022
2140.00,0.0022
2139.00,0.0022
2138.00,0.0021
2137.00,0.0019
2136.00,0.0017
2135.00,0.0016
2134.00,0.0016
2133.00,0.0017
2132.00,0.0020
2131.00,0.0023
2130.00,0.0025
2129.00,0.0026
2128.00,0.0028
2127.00,0.0028
2126.00,0.0028
2125.00,0.0029
2124.00,0.0030
2123.00,0.0032
2122.00,0.0033
2121.00,0.0034
2120.00,0.0035
2119.00,0.0036
2118.00,0.0036
2117.00,0.0036
2116.00,0.0037
2115.00,0.0038
2114.00,0.0038
2113.00,0.0038
2112.00,0.0038
2111.00,0.0038
2110.00,0.0038
2109.00,0.0038
2108.00,0.0038
2107.00,0.0038
2106.00,0.0038
2105.00,0.0038
2104.00,0.0038
2103.00,0.0038
2102.00,0.0038
2101.00,0.0038
2100.00,0.0037
2099.00,0.0036
2098.00,0.0034
2097.00,0.0033
2096.00,0.0031
2095.00,0.0030
2094.00,0.0030
2093.00,0.0031
2092.00,0.0033
2091.00,0.0035
2090.00,0.0036
2089.00,0.0037
2088.00,0.0038
2087.00,0.0039
2086.00,0.0039
2085.00,0.0040
2084.00,0.0040
2083.00,0.0039
2082.00,0.0038
2081.00,0.0038
2080.00,0.0038
2079.00,0.0039
2078.00,0.0039
2077.00,0.0039
2076.00,0.0039
2075.00,0.0038
2074.00,0.0038
2073.00,0.0037
2072.00,0.0038
2071.00,0.0038
2070.00,0.0037
2069.00,0.0037
2068.00,0.0036
2067.00,0.0035
2066.00,0.0035
2065.00,0.0035
2064.00,0.0035
2063.00,0.0035
2062.00,0.0035
2061.00,0.0035
2060.00,0.0036
2059.00,0.0036
2058.00,0.0036
2057.00,0.0035
2056.00,0.0035
2055.00,0.0035
2054.00,0.0038
2053.00,0.0042
2052.00,0.0046
2051.00,0.0046
2050.00,0.0041
2049.00,0.0037
2048.00,0.0033
2047.00,0.0032
2046.00,0.0033
2045.00,0.0034
2044.00,0.0036
2043.00,0.0037
2042.00,0.0037
2041.00,0.0037
2040.00,0.0038
2039.00,0.0039
2038.00,0.0039
2037.00,0.0039
2036.00,0.0038
2035.00,0.0036
2034.00,0.0033
2033.00,0.0031
2032.00,0.0030
2031.00,0.0030
2030.00,0.0029
2029.00,0.0030
2028.00,0.0031
2027.00,0.0031
2026.00,0.0030
2025.00,0.0030
2024.00,0.0031
2023.00,0.0031
2022.00,0.0030
2021.00,0.0028
2020.00,0.0028
2019.00,0.0029
2018.00,0.0029
2017.00,0.0030
2016.00,0.0031
2015.00,0.0031
2014.00,0.0030
2013.00,0.0032
2012.00,0.0034
2011.00,0.0034
2010.00,0.0031
2009.00,0.0027
2008.00,0.0023
2007.00,0.0020
2006.00,0.0019
2005.00,0.0020
2004.00,0.0022
2003.00,0.0024
2002.00,0.0024
2001.00,0.0025
2000.00,0.0028
1999.00,0.0029
1998.00,0.0031
1997.00,0.0032
1996.00,0.0032
1995.00,0.0032
1994.00,0.0031
1993.00,0.0031
1992.00,0.0031
1991.00,0.0032
1990.00,0.0033
1989.00,0.0034
1988.00,0.0036
1987.00,0.0037
1986.00,0.0037
1985.00,0.0039
1984.00,0.0042
1983.00,0.0045
1982.00,0.0047
1981.00,0.0048
1980.00,0.0045
1979.00,0.0038
1978.00,0.0030
1977.00,0.0025
1976.00,0.0023
1975.00,0.0023
1974.00,0.0022
1973.00,0.0022
1972.00,0.0023
1971.00,0.0024
1970.00,0.0025
1969.00,0.0025
1968.00,0.0025
1967.00,0.0025
1966.00,0.0024
1965.00,0.0023
1964.00,0.0023
1963.00,0.0022
1962.00,0.0020
1961.00,0.0018
1960.00,0.0017
1959.00,0.0016
1958.00,0.0016
1957.00,0.0018
1956.00,0.0020
1955.00,0.0021
1954.00,0.0021
1953.00,0.0022
1952.00,0.0023
1951.00,0.0023
1950.00,0.0023
1949.00,0.0023
1948.00,0.0024
1947.00,0.0025
1946.00,0.0025
1945.00,0.0026
1944.00,0.0026
1943.00,0.0025
1942.00,0.0024
1941.00,0.0023
1940.00,0.0024
1939.00,0.0024
1938.00,0.0024
1937.00,0.0025
1936.00,0.0026
1935.00,0.0026
1934.00,0.0026
1933.00,0.0025
1932.00,0.0025
1931.00,0.0025
1930.00,0.0024
1929.00,0.0024
1928.00,0.0025
1927.00,0.0025
1926.00,0.0026
1925.00,0.0026
1924.00,0.0027
1923.00,0.0027
1922.00,0.0027
1921.00,0.0028
1920.00,0.0028
1919.00,0.0028
1918.00,0.0028
1917.00,0.0027
1916.00,0.0027
1915.00,0.0027
1914.00,0.0027
1913.00,0.0028
1912.00,0.0028
1911.00,0.0029
1910.00,0.0028
1909.00,0.0028
1908.00,0.0028
1907.00,0.0028
1906.00,0.0027
1905.00,0.0027
1904.00,0.0027
1903.00,0.0028
1902.00,0.0028
1901.00,0.0028
1900.00,0.0028
1899.00,0.0029
1898.00,0.0029
1897.00,0.0029
1896.00,0.0029
1895.00,0.0029
1894.00,0.0029
1893.00,0.0029
1892.00,0.0029
1891.00,0.0030
1890.00,0.0029
1889.00,0.0029
1888.00,0.0029
1887.00,0.0030
1886.00,0.0029
1885.00,0.0029
1884.00,0.0029
1883.00,0.0029
1882.00,0.0029
1881.00,0.0029
1880.00,0.0029
1879.00,0.0029
1878.00,0.0029
1877.00,0.0029
1876.00,0.0029
1875.00,0.0029
1874.00,0.0029
1873.00,0.0029
1872.00,0.0030
1871.00,0.0030
1870.00,0.0030
1869.00,0.0030
1868.00,0.0030
1867.00,0.0030
1866.00,0.0030
1865.00,0.0030
1864.00,0.0030
1863.00,0.0031
1862.00,0.0030
1861.00,0.0030
1860.00,0.0031
1859.00,0.0031
1858.00,0.0031
1857.00,0.0031
1856.00,0.0031
1855.00,0.0031
1854.00,0.0031
1853.00,0.0030
1852.00,0.0030
1851.00,0.0030
1850.00,0.0030
1849.00,0.0031
1848.00,0.0031
1847.00,0.0032
1846.00,0.0032
1845.00,0.0032
1844.00,0.0032
1843.00,0.0032
1842.00,0.0031
1841.00,0.0031
1840.00,0.0031
1839.00,0.0031
1838.00,0.0031
1837.00,0.0031
1836.00,0.0031
1835.00,0.0032
1834.00,0.0032
1833.00,0.0032
1832.00,0.0033
1831.00,0.0033
1830.00,0.0032
1829.00,0.0032
1828.00,0.0032
1827.00,0.0033
1826.00,0.0032
1825.00,0.0032
1824.00,0.0033
1823.00,0.0033
1822.00,0.0032
1821.00,0.0032
1820.00,0.0031
1819.00,0.0030
1818.00,0.0029
1817.00,0.0028
1816.00,0.0029
1815.00,0.0030
1814.00,0.0030
1813.00,0.0031
1812.00,0.0031
1811.00,0.0032
1810.00,0.0032
1809.00,0.0032
1808.00,0.0033
1807.00,0.0033
1806.00,0.0033
1805.00,0.0033
1804.00,0.0033
1803.00,0.0034
1802.00,0.0034
1801.00,0.0034
1800.00,0.0034
1799.00,0.0034
1798.00,0.0033
1797.00,0.0034
1796.00,0.0035
1795.00,0.0035
1794.00,0.0036
1793.00,0.0036
1792.00,0.0036
1791.00,0.0036
1790.00,0.0035
1789.00,0.0035
1788.00,0.0036
1787.00,0.0037
1786.00,0.0037
1785.00,0.0037
1784.00,0.0037
1783.00,0.0037
1782.00,0.0037
1781.00,0.0036
1780.00,0.0036
1779.00,0.0037
1778.00,0.0037
1777.00,0.0037
1776.00,0.0038
1775.00,0.0039
1774.00,0.0039
1773.00,0.0038
1772.00,0.0038
1771.00,0.0038
1770.00,0.0039
1769.00,0.0040
1768.00,0.0041
1767.00,0.0041
1766.00,0.0041
1765.00,0.0040
1764.00,0.0041
1763.00,0.0042
1762.00,0.0042
1761.00,0.0042
1760.00,0.0042
1759.00,0.0043
1758.00,0.0043
1757.00,0.0044
1756.00,0.0044
1755.00,0.0045
1754.00,0.0046
1753.00,0.0046
1752.00,0.0048
1751.00,0.0049
1750.00,0.0048
1749.00,0.0048
1748.00,0.0048
1747.00,0.0049
1746.00,0.0048
1745.00,0.0049
1744.00,0.0050
1743.00,0.0050
1742.00,0.0050
1741.00,0.0051
1740.00,0.0051
1739.00,0.0052
1738.00,0.0053
1737.00,0.0054
1736.00,0.0056
1735.00,0.0057
1734.00,0.0057
1733.00,0.0057
1732.00,0.0059
1731.00,0.0060
1730.00,0.0061
1729.00,0.0062
1728.00,0.0064
1727.00,0.0066
1726.00,0.0067
1725.00,0.0069
1724.00,0.0072
1723.00,0.0075
1722.00,0.0078
1721.00,0.0081
1720.00,0.0086
1719.00,0.0093
1718.00,0.0099
1717.00,0.0107
1716.00,0.0116
1715.00,0.0123
1714.00,0.0129
1713.00,0.0135
1712.00,0.0141
1711.00,0.0146
1710.00,0.0151
1709.00,0.0156
1708.00,0.0162
1707.00,0.0170
1706.00,0.0179
1705.00,0.0190
1704.00,0.0202
1703.00,0.0215
1702.00,0.0229
1701.00,0.0252
1700.00,0.0285
1699.00,0.0315
1698.00,0.0339
1697.00,0.0367
1696.00,0.0407
1695.00,0.0453
1694.00,0.0492
1693.00,0.0525
1692.00,0.0558
1691.00,0.0595
1690.00,0.0636
1689.00,0.0677
1688.00,0.0714
1687.00,0.0745
1686.00,0.0774
1685.00,0.0815
1684.00,0.0872
1683.00,0.0923
1682.00,0.0955
1681.00,0.0977
1680.00,0.0996
1679.00,0.1015
1678.00,0.1030
1677.00,0.1044
1676.00,0.1061
1675.00,0.1083
1674.00,0.1103
1673.00,0.1115
1672.00,0.1122
1671.00,0.1129
1670.00,0.1142
1669.00,0.1161
1668.00,0.1179
1667.00,0.1191
1666.00,0.1198
1665.00,0.1203
1664.00,0.1211
1663.00,0.1225
1662.00,0.1242
1661.00,0.1258
1660.00,0.1268
1659.00,0.1273
1658.00,0.1276
1657.00,0.1275
1656.00,0.1269
1655.00,0.1259
1654.00,0.1254
1653.00,0.1264
1652.00,0.1275
1651.00,0.1269
1650.00,0.1248
1649.00,0.1219
1648.00,0.1186
1647.00,0.1156
1646.00,0.1128
1645.00,0.1098
1644.00,0.1065
1643.00,0.1026
1642.00,0.0984
1641.00,0.0941
1640.00,0.0899
1639.00,0.0858
1638.00,0.0817
1637.00,0.0773
1636.00,0.0729
1635.00,0.0690
1634.00,0.0657
1633.00,0.0628
1632.00,0.0601
1631.00,0.0574
1630.00,0.0550
1629.00,0.0529
1628.00,0.0511
1627.00,0.0496
1626.00,0.0484
1625.00,0.0473
1624.00,0.0464
1623.00,0.0457
1622.00,0.0452
1621.00,0.0447
1620.00,0.0441
1619.00,0.0435
1618.00,0.0427
1617.00,0.0420
1616.00,0.0412
1615.00,0.0403
1614.00,0.0392
1613.00,0.0378
1612.00,0.0362
1611.00,0.0347
1610.00,0.0332
1609.00,0.0318
1608.00,0.0305
1607.00,0.0294
1606.00,0.0286
1605.00,0.0279
1604.00,0.0274
1603.00,0.0272
1602.00,0.0273
1601.00,0.0276
1600.00,0.0281
1599.00,0.0287
1598.00,0.0294
1597.00,0.0302
1596.00,0.0308
1595.00,0.0314
1594.00,0.0318
1593.00,0.0319
1592.00,0.0318
1591.00,0.0314
1590.00,0.0309
1589.00,0.0303
1588.00,0.0296
1587.00,0.0288
1586.00,0.0280
1585.00,0.0271
1584.00,0.0262
1583.00,0.0253
1582.00,0.0244
1581.00,0.0235
1580.00,0.0226
1579.00,0.0218
1578.00,0.0210
1577.00,0.0202
1576.00,0.0193
1575.00,0.0185
1574.00,0.0180
1573.00,0.0175
1572.00,0.0170
1571.00,0.0165
1570.00,0.0161
1569.00,0.0156
1568.00,0.0153
1567.00,0.0150
1566.00,0.0147
1565.00,0.0143
1564.00,0.0140
1563.00,0.0139
1562.00,0.0138
1561.00,0.0137
1560.00,0.0135
1559.00,0.0133
1558.00,0.0131
1557.00,0.0130
1556.00,0.0129
1555.00,0.0127
1554.00,0.0126
1553.00,0.0125
1552.00,0.0124
1551.00,0.0124
1550.00,0.0123
1549.00,0.0123
1548.00,0.0122
1547.00,0.0122
1546.00,0.0122
1545.00,0.0122
1544.00,0.0122
1543.00,0.0122
1542.00,0.0122
1541.00,0.0121
1540.00,0.0121
1539.00,0.0120
1538.00,0.0119
1537.00,0.0119
1536.00,0.0119
1535.00,0.0118
1534.00,0.0118
1533.00,0.0118
1532.00,0.0118
1531.00,0.0118
1530.00,0.0117
1529.00,0.0117
1528.00,0.0117
1527.00,0.0118
1526.00,0.0118
1525.00,0.0119
1524.00,0.0119
1523.00,0.0119
1522.00,0.0120
1521.00,0.0120
1520.00,0.0121
1519.00,0.0122
1518.00,0.0122
1517.00,0.0123
1516.00,0.0123
1515.00,0.0124
1514.00,0.0125
1513.00,0.0126
1512.00,0.0128
1511.00,0.0131
1510.00,0.0134
1509.00,0.0137
1508.00,0.0143
1507.00,0.0150
1506.00,0.0159
1505.00,0.0168
1504.00,0.0176
1503.00,0.0185
1502.00,0.0195
1501.00,0.0207
1500.00,0.0221
1499.00,0.0235
1498.00,0.0250
1497.00,0.0265
1496.00,0.0278
1495.00,0.0286
1494.00,0.0290
1493.00,0.0289
1492.00,0.0285
1491.00,0.0277
1490.00,0.0267
1489.00,0.0254
1488.00,0.0240
1487.00,0.0225
1486.00,0.0211
1485.00,0.0199
1484.00,0.0189
1483.00,0.0181
1482.00,0.0175
1481.00,0.0171
1480.00,0.0170
1479.00,0.0170
1478.00,0.0171
1477.00,0.0176
1476.00,0.0183
1475.00,0.0191
1474.00,0.0203
1473.00,0.0221
1472.00,0.0245
1471.00,0.0270
1470.00,0.0294
1469.00,0.0319
1468.00,0.0346
1467.00,0.0376
1466.00,0.0411
1465.00,0.0449
1464.00,0.0485
1463.00,0.0512
1462.00,0.0529
1461.00,0.0537
1460.00,0.0539
1459.00,0.0533
1458.00,0.0521
1457.00,0.0504
1456.00,0.0485
1455.00,0.0469
1454.00,0.0454
1453.00,0.0443
1452.00,0.0436
1451.00,0.0435
1450.00,0.0438
1449.00,0.0447
1448.00,0.0463
1447.00,0.0482
1446.00,0.0503
1445.00,0.0525
1444.00,0.0549
1443.00,0.0574
1442.00,0.0599
1441.00,0.0624
1440.00,0.0647
1439.00,0.0667
1438.00,0.0688
1437.00,0.0714
1436.00,0.0743
1435.00,0.0766
1434.00,0.0782
1433.00,0.0796
1432.00,0.0813
1431.00,0.0833
1430.00,0.0854
1429.00,0.0877
1428.00,0.0897
1427.00,0.0913
1426.00,0.0927
1425.00,0.0941
1424.00,0.0954
1423.00,0.0960
1422.00,0.0957
1421.00,0.0943
1420.00,0.0917
1419.00,0.0877
1418.00,0.0830
1417.00,0.0779
1416.00,0.0726
1415.00,0.0671
1414.00,0.0619
1413.00,0.0571
1412.00,0.0528
1411.00,0.0491
1410.00,0.0459
1409.00,0.0433
1408.00,0.0410
1407.00,0.0391
1406.00,0.0375
1405.00,0.0362
1404.00,0.0351
1403.00,0.0342
1402.00,0.0335
1401.00,0.0328
1400.00,0.0323
1399.00,0.0319
1398.00,0.0316
1397.00,0.0314
1396.00,0.0312
1395.00,0.0311
1394.00,0.0311
1393.00,0.0311
1392.00,0.0312
1391.00,0.0312
1390.00,0.0314
1389.00,0.0317
1388.00,0.0322
1387.00,0.0329
1386.00,0.0336
1385.00,0.0344
1384.00,0.0352
1383.00,0.0361
1382.00,0.0372
1381.00,0.0385
1380.00,0.0397
1379.00,0.0410
1378.00,0.0422
1377.00,0.0431
1376.00,0.0438
1375.00,0.0442
1374.00,0.0444
1373.00,0.0442
1372.00,0.0438
1371.00,0.0433
1370.00,0.0427
1369.00,0.0421
1368.00,0.0415
1367.00,0.0409
1366.00,0.0402
1365.00,0.0395
1364.00,0.0387
1363.00,0.0379
1362.00,0.0370
1361.00,0.0361
1360.00,0.0352
1359.00,0.0342
1358.00,0.0334
1357.00,0.0326
1356.00,0.0318
1355.00,0.0311
1354.00,0.0303
1353.00,0.0296
1352.00,0.0289
1351.00,0.0282
1350.00,0.0275
1349.00,0.0270
1348.00,0.0264
1347.00,0.0260
1346.00,0.0256
1345.00,0.0252
1344.00,0.0250
1343.00,0.0247
1342.00,0.0246
1341.00,0.0245
1340.00,0.0245
1339.00,0.0246
1338.00,0.0247
1337.00,0.0248
1336.00,0.0249
1335.00,0.0251
1334.00,0.0253
1333.00,0.0256
1332.00,0.0260
1331.00,0.0264
1330.00,0.0270
1329.00,0.0276
1328.00,0.0284
1327.00,0.0293
1326.00,0.0304
1325.00,0.0316
1324.00,0.0328
1323.00,0.0341
1322.00,0.0353
1321.00,0.0364
1320.00,0.0374
1319.00,0.0382
1318.00,0.0388
1317.00,0.0390
1316.00,0.0390
1315.00,0.0386
1314.00,0.0381
1313.00,0.0374
1312.00,0.0366
1311.00,0.0358
1310.00,0.0350
1309.00,0.0344
1308.00,0.0339
1307.00,0.0336
1306.00,0.0335
1305.00,0.0337
1304.00,0.0342
1303.00,0.0351
1302.00,0.0365
1301.00,0.0383
1300.00,0.0407
1299.00,0.0437
1298.00,0.0473
1297.00,0.0515
1296.00,0.0563
1295.00,0.0615
1294.00,0.0669
1293.00,0.0723
1292.00,0.0776
1291.00,0.0824
1290.00,0.0867
1289.00,0.0902
1288.00,0.0929
1287.00,0.0947
1286.00,0.0955
1285.00,0.0952
1284.00,0.0941
1283.00,0.0922
1282.00,0.0899
1281.00,0.0876
1280.00,0.0854
1279.00,0.0838
1278.00,0.0828
1277.00,0.0825
1276.00,0.0827
1275.00,0.0833
1274.00,0.0840
1273.00,0.0846
1272.00,0.0850
1271.00,0.0848
1270.00,0.0840
1269.00,0.0827
1268.00,0.0807
1267.00,0.0783
1266.00,0.0756
1265.00,0.0727
1264.00,0.0698
1263.00,0.0671
1262.00,0.0646
1261.00,0.0624
1260.00,0.0606
1259.00,0.0593
1258.00,0.0583
1257.00,0.0576
1256.00,0.0572
1255.00,0.0569
1254.00,0.0566
1253.00,0.0564
1252.00,0.0560
1251.00,0.0556
1250.00,0.0550
1249.00,0.0544
1248.00,0.0536
1247.00,0.0528
1246.00,0.0520
1245.00,0.0511
1244.00,0.0502
1243.00,0.0493
1242.00,0.0484
1241.00,0.0477
1240.00,0.0471
1239.00,0.0467
1238.00,0.0464
1237.00,0.0464
1236.00,0.0464
1235.00,0.0465
1234.00,0.0468
1233.00,0.0471
1232.00,0.0473
1231.00,0.0476
1230.00,0.0479
1229.00,0.0481
1228.00,0.0484
1227.00,0.0487
1226.00,0.0489
1225.00,0.0493
1224.00,0.0495
1223.00,0.0498
1222.00,0.0499
1221.00,0.0498
1220.00,0.0494
1219.00,0.0489
1218.00,0.0481
1217.00,0.0472
1216.00,0.0462
1215.00,0.0451
1214.00,0.0440
1213.00,0.0429
1212.00,0.0418
1211.00,0.0407
1210.00,0.0397
1209.00,0.0388
1208.00,0.0379
1207.00,0.0371
1206.00,0.0365
1205.00,0.0359
1204.00,0.0353
1203.00,0.0348
1202.00,0.0342
1201.00,0.0337
1200.00,0.0332
1199.00,0.0327
1198.00,0.0322
1197.00,0.0318
1196.00,0.0314
1195.00,0.0312
1194.00,0.0311
1193.00,0.0310
1192.00,0.0309
1191.00,0.0309
1190.00,0.0308
1189.00,0.0308
1188.00,0.0307
1187.00,0.0305
1186.00,0.0303
1185.00,0.0301
1184.00,0.0298
1183.00,0.0296
1182.00,0.0295
1181.00,0.0295
1180.00,0.0295
1179.00,0.0298
1178.00,0.0302
1177.00,0.0307
1176.00,0.0314
1175.00,0.0322
1174.00,0.0329
1173.00,0.0335
1172.00,0.0340
1171.00,0.0342
1170.00,0.0343
1169.00,0.0341
1168.00,0.0337
1167.00,0.0331
1166.00,0.0324
1165.00,0.0317
1164.00,0.0309
1163.00,0.0302
1162.00,0.0296
1161.00,0.0292
1160.00,0.0290
1159.00,0.0291
1158.00,0.0294
1157.00,0.0300
1156.00,0.0308
1155.00,0.0314
1154.00,0.0318
1153.00,0.0319
1152.00,0.0315
1151.00,0.0307
1150.00,0.0297
1149.00,0.0285
1148.00,0.0272
1147.00,0.0260
1146.00,0.0249
1145.00,0.0240
1144.00,0.0231
1143.00,0.0225
1142.00,0.0219
1141.00,0.0214
1140.00,0.0210
1139.00,0.0208
1138.00,0.0205
1137.00,0.0204
1136.00,0.0202
1135.00,0.0200
1134.00,0.0197
1133.00,0.0195
1132.00,0.0192
1131.00,0.0190
1130.00,0.0188
1129.00,0.0187
1128.00,0.0186
1127.00,0.0185
1126.00,0.0184
1125.00,0.0184
1124.00,0.0183
1123.00,0.0183
1122.00,0.0183
1121.00,0.0184
1120.00,0.0184
1119.00,0.0185
1118.00,0.0186
1117.00,0.0187
1116.00,0.0188
1115.00,0.0189
1114.00,0.0190
1113.00,0.0191
1112.00,0.0191
1111.00,0.0192
1110.00,0.0192
1109.00,0.0192
1108.00,0.0192
1107.00,0.0192
1106.00,0.0192
1105.00,0.0193
1104.00,0.0193
1103.00,0.0195
1102.00,0.0196
1101.00,0.0199
1100.00,0.0201
1099.00,0.0203
1098.00,0.0205
1097.00,0.0207
1096.00,0.0209
1095.00,0.0209
1094.00,0.0209
1093.00,0.0209
1092.00,0.0207
1091.00,0.0205
1090.00,0.0203
1089.00,0.0201
1088.00,0.0199
1087.00,0.0198
1086.00,0.0197
1085.00,0.0197
1084.00,0.0198
1083.00,0.0199
1082.00,0.0202
1081.00,0.0205
1080.00,0.0208
1079.00,0.0211
1078.00,0.0215
1077.00,0.0217
1076.00,0.0218
1075.00,0.0217
1074.00,0.0216
1073.00,0.0213
1072.00,0.0210
1071.00,0.0206
1070.00,0.0202
1069.00,0.0199
1068.00,0.0196
1067.00,0.0195
1066.00,0.0195
1065.00,0.0197
1064.00,0.0201
1063.00,0.0208
1062.00,0.0218
1061.00,0.0232
1060.00,0.0250
1059.00,0.0269
1058.00,0.0289
1057.00,0.0304
1056.00,0.0312
1055.00,0.0311
1054.00,0.0303
1053.00,0.0288
1052.00,0.0270
1051.00,0.0252
1050.00,0.0236
1049.00,0.0224
1048.00,0.0216
1047.00,0.0212
1046.00,0.0211
1045.00,0.0212
1044.00,0.0216
1043.00,0.0223
1042.00,0.0231
1041.00,0.0242
1040.00,0.0256
1039.00,0.0272
1038.00,0.0292
1037.00,0.0314
1036.00,0.0337
1035.00,0.0359
1034.00,0.0378
1033.00,0.0393
1032.00,0.0402
1031.00,0.0404
1030.00,0.0400
1029.00,0.0390
1028.00,0.0376
1027.00,0.0359
1026.00,0.0343
1025.00,0.0329
1024.00,0.0317
1023.00,0.0308
1022.00,0.0302
1021.00,0.0299
1020.00,0.0297
1019.00,0.0296
1018.00,0.0293
1017.00,0.0289
1016.00,0.0283
1015.00,0.0274
1014.00,0.0265
1013.00,0.0254
1012.00,0.0245
1011.00,0.0236
1010.00,0.0229
1009.00,0.0225
1008.00,0.0223
1007.00,0.0223
1006.00,0.0225
1005.00,0.0228
1004.00,0.0231
1003.00,0.0233
1002.00,0.0234
1001.00,0.0233
1000.00,0.0230
999.00,0.0225
998.00,0.0219
997.00,0.0213
996.00,0.0208
995.00,0.0202
994.00,0.0197
993.00,0.0194
992.00,0.0191
991.00,0.0190
990.00,0.0190
989.00,0.0189
988.00,0.0189
987.00,0.0187
986.00,0.0185
985.00,0.0183
984.00,0.0180
983.00,0.0177
982.00,0.0174
981.00,0.0171
980.00,0.0169
979.00,0.0167
978.00,0.0166
977.00,0.0165
976.00,0.0164
975.00,0.0163
974.00,0.0162
973.00,0.0161
972.00,0.0161
971.00,0.0160
970.00,0.0160
969.00,0.0160
968.00,0.0160
967.00,0.0160
966.00,0.0161
965.00,0.0161
964.00,0.0160
963.00,0.0159
962.00,0.0158
961.00,0.0156
960.00,0.0154
959.00,0.0152
958.00,0.0149
957.00,0.0146
956.00,0.0144
955.00,0.0141
954.00,0.0138
953.00,0.0136
952.00,0.0133
951.00,0.0132
950.00,0.0130
949.00,0.0129
948.00,0.0128
947.00,0.0128
946.00,0.0128
945.00,0.0129
944.00,0.0130
943.00,0.0132
942.00,0.0134
941.00,0.0137
940.00,0.0141
939.00,0.0146
938.00,0.0152
937.00,0.0158
936.00,0.0165
935.00,0.0171
934.00,0.0177
933.00,0.0180
932.00,0.0181
931.00,0.0179
930.00,0.0176
929.00,0.0172
928.00,0.0169
927.00,0.0166
926.00,0.0163
925.00,0.0160
924.00,0.0157
923.00,0.0155
922.00,0.0153
921.00,0.0152
920.00,0.0152
919.00,0.0152
918.00,0.0152
917.00,0.0154
916.00,0.0155
915.00,0.0157
914.00,0.0159
913.00,0.0160
912.00,0.0162
911.00,0.0164
910.00,0.0166
909.00,0.0169
908.00,0.0173
907.00,0.0177
906.00,0.0181
905.00,0.0187
904.00,0.0192
903.00,0.0198
902.00,0.0204
901.00,0.0210
900.00,0.0216
899.00,0.0220
898.00,0.0225
897.00,0.0228
896.00,0.0231
895.00,0.0234
894.00,0.0236
893.00,0.0237
892.00,0.0238
891.00,0.0238
890.00,0.0239
889.00,0.0240
888.00,0.0240
887.00,0.0241
886.00,0.0242
885.00,0.0243
884.00,0.0244
883.00,0.0244
882.00,0.0243
881.00,0.0242
880.00,0.0240
879.00,0.0238
878.00,0.0235
877.00,0.0231
876.00,0.0227
875.00,0.0223
874.00,0.0218
873.00,0.0214
872.00,0.0211
871.00,0.0208
870.00,0.0206
869.00,0.0205
868.00,0.0205
867.00,0.0206
866.00,0.0208
865.00,0.0210
864.00,0.0213
863.00,0.0216
862.00,0.0221
861.00,0.0226
860.00,0.0233
859.00,0.0241
858.00,0.0249
857.00,0.0258
856.00,0.0267
855.00,0.0275
854.00,0.0284
853.00,0.0292
852.00,0.0300
851.00,0.0307
850.00,0.0313
849.00,0.0319
848.00,0.0323
847.00,0.0327
846.00,0.0329
845.00,0.0331
844.00,0.0331
843.00,0.0331
842.00,0.0330
841.00,0.0330
840.00,0.0328
839.00,0.0327
838.00,0.0326
837.00,0.0325
836.00,0.0325
835.00,0.0324
834.00,0.0324
833.00,0.0323
832.00,0.0322
831.00,0.0319
830.00,0.0317
829.00,0.0313
828.00,0.0308
827.00,0.0301
826.00,0.0294
825.00,0.0285
824.00,0.0276
823.00,0.0267
822.00,0.0258
821.00,0.0249
820.00,0.0241
819.00,0.0234
818.00,0.0227
817.00,0.0222
816.00,0.0217
815.00,0.0213
814.00,0.0211
813.00,0.0209
812.00,0.0207
811.00,0.0206
810.00,0.0206
809.00,0.0207
808.00,0.0208
807.00,0.0209
806.00,0.0210
805.00,0.0210
804.00,0.0208
803.00,0.0206
802.00,0.0203
801.00,0.0200
800.00,0.0198
799.00,0.0197
798.00,0.0196
797.00,0.0197
796.00,0.0198
795.00,0.0200
794.00,0.0202
793.00,0.0203
792.00,0.0203
791.00,0.0202
790.00,0.0201
789.00,0.0199
788.00,0.0198
787.00,0.0196
786.00,0.0195
785.00,0.0194
784.00,0.0194
783.00,0.0195
782.00,0.0196
781.00,0.0198
780.00,0.0200
779.00,0.0202
778.00,0.0204
777.00,0.0208
776.00,0.0212
775.00,0.0215
774.00,0.0218
773.00,0.0221
772.00,0.0222
771.00,0.0223
770.00,0.0224
769.00,0.0226
768.00,0.0227
767.00,0.0228
766.00,0.0230
765.00,0.0232
764.00,0.0235
763.00,0.0238
762.00,0.0241
761.00,0.0246
760.00,0.0250
759.00,0.0255
758.00,0.0259
757.00,0.0262
756.00,0.0265
755.00,0.0266
754.00,0.0266
753.00,0.0266
752.00,0.0266
751.00,0.0267
750.00,0.0268
749.00,0.0271
748.00,0.0275
747.00,0.0279
746.00,0.0284
745.00,0.0288
744.00,0.0292
743.00,0.0296
742.00,0.0301
741.00,0.0306
740.00,0.0312
739.00,0.0317
738.00,0.0322
737.00,0.0327
736.00,0.0331
735.00,0.0334
734.00,0.0336
733.00,0.0336
732.00,0.0334
731.00,0.0331
730.00,0.0326
729.00,0.0319
728.00,0.0312
727.00,0.0304
726.00,0.0296
725.00,0.0290
724.00,0.0284
723.00,0.0279
722.00,0.0274
721.00,0.0270
720.00,0.0265
719.00,0.0262
718.00,0.0259
717.00,0.0256
716.00,0.0254
715.00,0.0253
714.00,0.0253
713.00,0.0252
712.00,0.0251
711.00,0.0250
710.00,0.0249
709.00,0.0249
708.00,0.0249
707.00,0.0249
706.00,0.0249
705.00,0.0249
704.00,0.0250
703.00,0.0251
702.00,0.0252
701.00,0.0254
700.00,0.0255
699.00,0.0257
698.00,0.0259
697.00,0.0261
696.00,0.0263
695.00,0.0265
694.00,0.0266
693.00,0.0268
692.00,0.0270
691.00,0.0273
690.00,0.0277
689.00,0.0280
688.00,0.0283
687.00,0.0287
686.00,0.0291
685.00,0.0295
684.00,0.0299
683.00,0.0303
682.00,0.0308
681.00,0.0313
680.00,0.0317
679.00,0.0321
678.00,0.0325
677.00,0.0329
676.00,0.0332
675.00,0.0336
674.00,0.0339
673.00,0.0343
672.00,0.0346
671.00,0.0349
670.00,0.0355
669.00,0.0363
668.00,0.0374
667.00,0.0384
666.00,0.0388
665.00,0.0390
664.00,0.0393
663.00,0.0400
662.00,0.0408
661.00,0.0415
660.00,0.0423
659.00,0.0432
658.00,0.0441
657.00,0.0450
656.00,0.0460
655.00,0.0469
654.00,0.0478
653.00,0.0486
652.00,0.0493
651.00,0.0499
650.00,0.0503
649.00,0.0506
648.00,0.0507
647.00,0.0507
646.00,0.0505
645.00,0.0502
644.00,0.0496
643.00,0.0488
642.00,0.0479
641.00,0.0469
640.00,0.0459
639.00,0.0449
638.00,0.0440
637.00,0.0431
636.00,0.0423
635.00,0.0416
634.00,0.0409
633.00,0.0402
632.00,0.0396
631.00,0.0389
630.00,0.0383
629.00,0.0377
628.00,0.0373
627.00,0.0369
626.00,0.0366
625.00,0.0363
624.00,0.0360
623.00,0.0357
622.00,0.0355
621.00,0.0353
620.00,0.0352
619.00,0.0352
618.00,0.0352
617.00,0.0354
616.00,0.0355
615.00,0.0356
614.00,0.0356
613.00,0.0356
612.00,0.0356
611.00,0.0357
610.00,0.0359
609.00,0.0361
608.00,0.0363
607.00,0.0363
606.00,0.0363
605.00,0.0364
604.00,0.0364
603.00,0.0365
602.00,0.0367
601.00,0.0368
600.00,0.0369
599.00,0.0369
598.00,0.0370
597.00,0.0372
596.00,0.0374
595.00,0.0375
594.00,0.0378
593.00,0.0381
592.00,0.0386
591.00,0.0391
590.00,0.0396
589.00,0.0402
588.00,0.0409
587.00,0.0416
586.00,0.0424
585.00,0.0433
584.00,0.0443
583.00,0.0454
582.00,0.0464
581.00,0.0473
580.00,0.0481
579.00,0.0488
578.00,0.0493
577.00,0.0498
576.00,0.0501
575.00,0.0503
574.00,0.0504
573.00,0.0504
572.00,0.0502
571.00,0.0500
570.00,0.0496
569.00,0.0492
568.00,0.0487
567.00,0.0481
566.00,0.0475
565.00,0.0469
564.00,0.0464
563.00,0.0459
562.00,0.0455
561.00,0.0451
560.00,0.0448
559.00,0.0445
558.00,0.0442
557.00,0.0439
556.00,0.0436
555.00,0.0435
554.00,0.0436
553.00,0.0437
552.00,0.0437
551.00,0.0435
550.00,0.0432
549.00,0.0428
548.00,0.0425
547.00,0.0421
546.00,0.0417
545.00,0.0412
544.00,0.0409
543.00,0.0406
542.00,0.0404
541.00,0.0403
540.00,0.0402
539.00,0.0401
538.00,0.0400
537.00,0.0402
536.00,0.0406
535.00,0.0410
534.00,0.0415
533.00,0.0419
532.00,0.0422
531.00,0.0426
530.00,0.0429
529.00,0.0431
528.00,0.0431
527.00,0.0429
526.00,0.0428
525.00,0.0426
524.00,0.0424
523.00,0.0422
522.00,0.0419
521.00,0.0414
520.00,0.0409
519.00,0.0404
518.00,0.0400
517.00,0.0397
516.00,0.0393
515.00,0.0387
514.00,0.0382
513.00,0.0379
512.00,0.0378
511.00,0.0377
510.00,0.0377
509.00,0.0376
508.00,0.0375
507.00,0.0375
506.00,0.0374
505.00,0.0373
504.00,0.0373
503.00,0.0374
502.00,0.0375
501.00,0.0376
500.00,0.0376
499.00,0.0376
498.00,0.0377
497.00,0.0379
496.00,0.0381
495.00,0.0382
494.00,0.0382
493.00,0.0383
492.00,0.0383
491.00,0.0384
490.00,0.0385
489.00,0.0387
488.00,0.0389
487.00,0.0391
486.00,0.0393
485.00,0.0394
484.00,0.0394
483.00,0.0393
482.00,0.0391
481.00,0.0389
480.00,0.0389
479.00,0.0391
478.00,0.0393
477.00,0.0396
476.00,0.0397
475.00,0.0398
474.00,0.0399
473.00,0.0402
472.00,0.0405
471.00,0.0407
470.00,0.0409
469.00,0.0411
468.00,0.0412
467.00,0.0411
466.00,0.0408
465.00,0.0403
464.00,0.0399
463.00,0.0398
462.00,0.0399
461.00,0.0400
460.00,0.0400
459.00,0.0397
458.00,0.0394
457.00,0.0392
456.00,0.0392
455.00,0.0391
454.00,0.0389
453.00,0.0385
452.00,0.0381
451.00,0.0377
450.00,0.0374
449.00,0.0372
448.00,0.0371
447.00,0.0371
446.00,0.0370
445.00,0.0369
444.00,0.0366
443.00,0.0362
442.00,0.0358
441.00,0.0353
440.00,0.0349
439.00,0.0347
438.00,0.0348
437.00,0.0350
436.00,0.0349
435.00,0.0348
434.00,0.0349
433.00,0.0351
432.00,0.0353
431.00,0.0352
430.00,0.0348
429.00,0.0344
428.00,0.0342
427.00,0.0342
426.00,0.0344
425.00,0.0344
424.00,0.0345
423.00,0.0347
422.00,0.0351
421.00,0.0356
420.00,0.0362
419.00,0.0364
418.00,0.0362
417.00,0.0354
416.00,0.0343
415.00,0.0335
414.00,0.0333
413.00,0.0335
412.00,0.0337
411.00,0.0339
410.00,0.0341
409.00,0.0344
408.00,0.0347
407.00,0.0349
406.00,0.0351
405.00,0.0352
404.00,0.0354
403.00,0.0355
402.00,0.0355
401.00,0.0355
400.00,0.0354
