Created as New Dataset,Sample 1001 By YargerLab Date Wednesday, July 30 2025
cm-1,A
4000.00,0.0007
3999.00,0.0007
3998.00,0.0006
3997.00,0.0006
3996.00,0.0006
3995.00,0.0006
3994.00,0.0006
3993.00,0.0006
3992.00,0.0006
3991.00,0.0006
3990.00,0.0006
3989.00,0.0006
3988.00,0.0006
3987.00,0.0006
3986.00,0.0006
3985.00,0.0006
3984.00,0.0006
3983.00,0.0006
3982.00,0.0006
3981.00,0.0006
3980.00,0.0006
3979.00,0.0006
3978.00,0.0006
3977.00,0.0006
3976.00,0.0006
3975.00,0.0006
3974.00,0.0006
3973.00,0.0006
3972.00,0.0006
3971.00,0.0006
3970.00,0.0006
3969.00,0.0006
3968.00,0.0006
3967.00,0.0006
3966.00,0.0006
3965.00,0.0006
3964.00,0.0006
3963.00,0.0006
3962.00,0.0006
3961.00,0.0006
3960.00,0.0006
3959.00,0.0006
3958.00,0.0006
3957.00,0.0006
3956.00,0.0006
3955.00,0.0007
3954.00,0.0007
3953.00,0.0006
3952.00,0.0006
3951.00,0.0006
3950.00,0.0006
3949.00,0.0006
3948.00,0.0006
3947.00,0.0006
3946.00,0.0005
3945.00,0.0005
3944.00,0.0005
3943.00,0.0006
3942.00,0.0006
3941.00,0.0006
3940.00,0.0006
3939.00,0.0006
3938.00,0.0006
3937.00,0.0006
3936.00,0.0005
3935.00,0.0005
3934.00,0.0005
3933.00,0.0005
3932.00,0.0006
3931.00,0.0006
3930.00,0.0006
3929.00,0.0006
3928.00,0.0005
3927.00,0.0005
3926.00,0.0005
3925.00,0.0005
3924.00,0.0006
3923.00,0.0006
3922.00,0.0005
3921.00,0.0005
3920.00,0.0006
3919.00,0.0006
3918.00,0.0006
3917.00,0.0006
3916.00,0.0006
3915.00,0.0005
3914.00,0.0005
3913.00,0.0005
3912.00,0.0006
3911.00,0.0006
3910.00,0.0006
3909.00,0.0006
3908.00,0.0005
3907.00,0.0005
3906.00,0.0005
3905.00,0.0005
3904.00,0.0004
3903.00,0.0004
3902.00,0.0004
3901.00,0.0004
3900.00,0.0004
3899.00,0.0005
3898.00,0.0005
3897.00,0.0005
3896.00,0.0005
3895.00,0.0005
3894.00,0.0005
3893.00,0.0005
3892.00,0.0005
3891.00,0.0006
3890.00,0.0005
3889.00,0.0005
3888.00,0.0005
3887.00,0.0005
3886.00,0.0005
3885.00,0.0004
3884.00,0.0004
3883.00,0.0003
3882.00,0.0004
3881.00,0.0004
3880.00,0.0005
3879.00,0.0005
3878.00,0.0005
3877.00,0.0005
3876.00,0.0005
3875.00,0.0005
3874.00,0.0005
3873.00,0.0005
3872.00,0.0004
3871.00,0.0004
3870.00,0.0004
3869.00,0.0004
3868.00,0.0004
3867.00,0.0004
3866.00,0.0004
3865.00,0.0004
3864.00,0.0004
3863.00,0.0004
3862.00,0.0004
3861.00,0.0004
3860.00,0.0005
3859.00,0.0005
3858.00,0.0005
3857.00,0.0005
3856.00,0.0004
3855.00,0.0004
3854.00,0.0004
3853.00,0.0004
3852.00,0.0003
3851.00,0.0003
3850.00,0.0003
3849.00,0.0004
3848.00,0.0005
3847.00,0.0005
3846.00,0.0005
3845.00,0.0005
3844.00,0.0006
3843.00,0.0006
3842.00,0.0005
3841.00,0.0005
3840.00,0.0005
3839.00,0.0005
3838.00,0.0005
3837.00,0.0004
3836.00,0.0004
3835.00,0.0004
3834.00,0.0004
3833.00,0.0004
3832.00,0.0005
3831.00,0.0005
3830.00,0.0005
3829.00,0.0005
3828.00,0.0005
3827.00,0.0006
3826.00,0.0006
3825.00,0.0006
3824.00,0.0005
3823.00,0.0005
3822.00,0.0005
3821.00,0.0005
3820.00,0.0005
3819.00,0.0005
3818.00,0.0004
3817.00,0.0004
3816.00,0.0005
3815.00,0.0005
3814.00,0.0005
3813.00,0.0005
3812.00,0.0005
3811.00,0.0006
3810.00,0.0006
3809.00,0.0006
3808.00,0.0006
3807.00,0.0006
3806.00,0.0006
3805.00,0.0006
3804.00,0.0005
3803.00,0.0005
3802.00,0.0005
3801.00,0.0005
3800.00,0.0005
3799.00,0.0004
3798.00,0.0004
3797.00,0.0005
3796.00,0.0005
3795.00,0.0006
3794.00,0.0006
3793.00,0.0006
3792.00,0.0006
3791.00,0.0006
3790.00,0.0006
3789.00,0.0006
3788.00,0.0006
3787.00,0.0006
3786.00,0.0007
3785.00,0.0007
3784.00,0.0007
3783.00,0.0007
3782.00,0.0006
3781.00,0.0006
3780.00,0.0006
3779.00,0.0006
3778.00,0.0006
3777.00,0.0006
3776.00,0.0006
3775.00,0.0006
3774.00,0.0007
3773.00,0.0007
3772.00,0.0007
3771.00,0.0007
3770.00,0.0007
3769.00,0.0007
3768.00,0.0006
3767.00,0.0006
3766.00,0.0006
3765.00,0.0006
3764.00,0.0006
3763.00,0.0006
3762.00,0.0006
3761.00,0.0006
3760.00,0.0006
3759.00,0.0006
3758.00,0.0006
3757.00,0.0005
3756.00,0.0005
3755.00,0.0005
3754.00,0.0005
3753.00,0.0005
3752.00,0.0004
3751.00,0.0004
3750.00,0.0004
3749.00,0.0004
3748.00,0.0003
3747.00,0.0003
3746.00,0.0002
3745.00,0.0003
3744.00,0.0003
3743.00,0.0004
3742.00,0.0004
3741.00,0.0005
3740.00,0.0005
3739.00,0.0005
3738.00,0.0005
3737.00,0.0005
3736.00,0.0005
3735.00,0.0004
3734.00,0.0004
3733.00,0.0004
3732.00,0.0004
3731.00,0.0004
3730.00,0.0004
3729.00,0.0004
3728.00,0.0004
3727.00,0.0004
3726.00,0.0004
3725.00,0.0004
3724.00,0.0004
3723.00,0.0004
3722.00,0.0004
3721.00,0.0005
3720.00,0.0005
3719.00,0.0005
3718.00,0.0006
3717.00,0.0006
3716.00,0.0006
3715.00,0.0006
3714.00,0.0006
3713.00,0.0005
3712.00,0.0005
3711.00,0.0005
3710.00,0.0004
3709.00,0.0004
3708.00,0.0004
3707.00,0.0005
3706.00,0.0005
3705.00,0.0005
3704.00,0.0005
3703.00,0.0005
3702.00,0.0005
3701.00,0.0005
3700.00,0.0005
3699.00,0.0005
3698.00,0.0005
3697.00,0.0005
3696.00,0.0006
3695.00,0.0006
3694.00,0.0006
3693.00,0.0006
3692.00,0.0005
3691.00,0.0005
3690.00,0.0005
3689.00,0.0005
3688.00,0.0005
3687.00,0.0004
3686.00,0.0004
3685.00,0.0004
3684.00,0.0005
3683.00,0.0005
3682.00,0.0006
3681.00,0.0006
3680.00,0.0006
3679.00,0.0006
3678.00,0.0005
3677.00,0.0005
3676.00,0.0005
3675.00,0.0005
3674.00,0.0004
3673.00,0.0003
3672.00,0.0003
3671.00,0.0003
3670.00,0.0004
3669.00,0.0004
3668.00,0.0004
3667.00,0.0005
3666.00,0.0005
3665.00,0.0005
3664.00,0.0005
3663.00,0.0006
3662.00,0.0006
3661.00,0.0006
3660.00,0.0006
3659.00,0.0006
3658.00,0.0006
3657.00,0.0006
3656.00,0.0006
3655.00,0.0006
3654.00,0.0006
3653.00,0.0005
3652.00,0.0005
3651.00,0.0005
3650.00,0.0005
3649.00,0.0004
3648.00,0.0004
3647.00,0.0004
3646.00,0.0004
3645.00,0.0005
3644.00,0.0006
3643.00,0.0007
3642.00,0.0008
3641.00,0.0008
3640.00,0.0008
3639.00,0.0008
3638.00,0.0008
3637.00,0.0008
3636.00,0.0009
3635.00,0.0009
3634.00,0.0009
3633.00,0.0009
3632.00,0.0009
3631.00,0.0009
3630.00,0.0009
3629.00,0.0009
3628.00,0.0008
3627.00,0.0008
3626.00,0.0008
3625.00,0.0009
3624.00,0.0009
3623.00,0.0009
3622.00,0.0009
3621.00,0.0009
3620.00,0.0009
3619.00,0.0009
3618.00,0.0009
3617.00,0.0009
3616.00,0.0009
3615.00,0.0009
3614.00,0.0010
3613.00,0.0010
3612.00,0.0010
3611.00,0.0010
3610.00,0.0010
3609.00,0.0011
3608.00,0.0011
3607.00,0.0011
3606.00,0.0012
3605.00,0.0012
3604.00,0.0013
3603.00,0.0014
3602.00,0.0014
3601.00,0.0014
3600.00,0.0014
3599.00,0.0014
3598.00,0.0014
3597.00,0.0014
3596.00,0.0014
3595.00,0.0014
3594.00,0.0014
3593.00,0.0014
3592.00,0.0014
3591.00,0.0014
3590.00,0.0015
3589.00,0.0015
3588.00,0.0015
3587.00,0.0015
3586.00,0.0015
3585.00,0.0015
3584.00,0.0015
3583.00,0.0015
3582.00,0.0015
3581.00,0.0016
3580.00,0.0016
3579.00,0.0016
3578.00,0.0017
3577.00,0.0017
3576.00,0.0017
3575.00,0.0018
3574.00,0.0018
3573.00,0.0018
3572.00,0.0018
3571.00,0.0018
3570.00,0.0018
3569.00,0.0018
3568.00,0.0018
3567.00,0.0018
3566.00,0.0018
3565.00,0.0018
3564.00,0.0018
3563.00,0.0019
3562.00,0.0019
3561.00,0.0020
3560.00,0.0020
3559.00,0.0020
3558.00,0.0020
3557.00,0.0020
3556.00,0.0020
3555.00,0.0020
3554.00,0.0021
3553.00,0.0021
3552.00,0.0021
3551.00,0.0022
3550.00,0.0022
3549.00,0.0022
3548.00,0.0023
3547.00,0.0023
3546.00,0.0024
3545.00,0.0024
3544.00,0.0023
3543.00,0.0023
3542.00,0.0023
3541.00,0.0024
3540.00,0.0024
3539.00,0.0024
3538.00,0.0025
3537.00,0.0025
3536.00,0.0025
3535.00,0.0025
3534.00,0.0025
3533.00,0.0025
3532.00,0.0025
3531.00,0.0026
3530.00,0.0026
3529.00,0.0025
3528.00,0.0025
3527.00,0.0025
3526.00,0.0026
3525.00,0.0026
3524.00,0.0027
3523.00,0.0027
3522.00,0.0028
3521.00,0.0028
3520.00,0.0028
3519.00,0.0029
3518.00,0.0029
3517.00,0.0029
3516.00,0.0029
3515.00,0.0029
3514.00,0.0029
3513.00,0.0029
3512.00,0.0029
3511.00,0.0029
3510.00,0.0030
3509.00,0.0030
3508.00,0.0030
3507.00,0.0030
3506.00,0.0030
3505.00,0.0031
3504.00,0.0031
3503.00,0.0031
3502.00,0.0031
3501.00,0.0031
3500.00,0.0031
3499.00,0.0031
3498.00,0.0032
3497.00,0.0032
3496.00,0.0032
3495.00,0.0032
3494.00,0.0032
3493.00,0.0033
3492.00,0.0033
3491.00,0.0033
3490.00,0.0033
3489.00,0.0033
3488.00,0.0033
3487.00,0.0033
3486.00,0.0034
3485.00,0.0034
3484.00,0.0034
3483.00,0.0034
3482.00,0.0034
3481.00,0.0035
3480.00,0.0035
3479.00,0.0035
3478.00,0.0036
3477.00,0.0036
3476.00,0.0036
3475.00,0.0036
3474.00,0.0036
3473.00,0.0037
3472.00,0.0037
3471.00,0.0037
3470.00,0.0037
3469.00,0.0038
3468.00,0.0038
3467.00,0.0038
3466.00,0.0038
3465.00,0.0038
3464.00,0.0038
3463.00,0.0038
3462.00,0.0039
3461.00,0.0039
3460.00,0.0039
3459.00,0.0040
3458.00,0.0040
3457.00,0.0040
3456.00,0.0040
3455.00,0.0040
3454.00,0.0040
3453.00,0.0040
3452.00,0.0041
3451.00,0.0041
3450.00,0.0041
3449.00,0.0041
3448.00,0.0041
3447.00,0.0042
3446.00,0.0042
3445.00,0.0042
3444.00,0.0042
3443.00,0.0042
3442.00,0.0043
3441.00,0.0043
3440.00,0.0043
3439.00,0.0043
3438.00,0.0043
3437.00,0.0043
3436.00,0.0043
3435.00,0.0044
3434.00,0.0044
3433.00,0.0044
3432.00,0.0044
3431.00,0.0045
3430.00,0.0045
3429.00,0.0045
3428.00,0.0046
3427.00,0.0046
3426.00,0.0046
3425.00,0.0047
3424.00,0.0047
3423.00,0.0047
3422.00,0.0047
3421.00,0.0047
3420.00,0.0047
3419.00,0.0047
3418.00,0.0047
3417.00,0.0048
3416.00,0.0048
3415.00,0.0048
3414.00,0.0048
3413.00,0.0049
3412.00,0.0049
3411.00,0.0049
3410.00,0.0050
3409.00,0.0050
3408.00,0.0050
3407.00,0.0050
3406.00,0.0050
3405.00,0.0050
3404.00,0.0050
3403.00,0.0050
3402.00,0.0050
3401.00,0.0050
3400.00,0.0051
3399.00,0.0051
3398.00,0.0051
3397.00,0.0052
3396.00,0.0052
3395.00,0.0052
3394.00,0.0053
3393.00,0.0053
3392.00,0.0053
3391.00,0.0054
3390.00,0.0054
3389.00,0.0054
3388.00,0.0054
3387.00,0.0054
3386.00,0.0055
3385.00,0.0055
3384.00,0.0055
3383.00,0.0056
3382.00,0.0056
3381.00,0.0056
3380.00,0.0056
3379.00,0.0056
3378.00,0.0057
3377.00,0.0057
3376.00,0.0057
3375.00,0.0058
3374.00,0.0058
3373.00,0.0058
3372.00,0.0058
3371.00,0.0058
3370.00,0.0058
3369.00,0.0058
3368.00,0.0058
3367.00,0.0059
3366.00,0.0059
3365.00,0.0059
3364.00,0.0060
3363.00,0.0060
3362.00,0.0060
3361.00,0.0061
3360.00,0.0061
3359.00,0.0061
3358.00,0.0062
3357.00,0.0062
3356.00,0.0063
3355.00,0.0063
3354.00,0.0063
3353.00,0.0063
3352.00,0.0064
3351.00,0.0064
3350.00,0.0065
3349.00,0.0065
3348.00,0.0065
3347.00,0.0066
3346.00,0.0066
3345.00,0.0066
3344.00,0.0067
3343.00,0.0067
3342.00,0.0068
3341.00,0.0068
3340.00,0.0068
3339.00,0.0068
3338.00,0.0069
3337.00,0.0069
3336.00,0.0070
3335.00,0.0070
3334.00,0.0071
3333.00,0.0071
3332.00,0.0072
3331.00,0.0072
3330.00,0.0072
3329.00,0.0073
3328.00,0.0073
3327.00,0.0073
3326.00,0.0073
3325.00,0.0074
3324.00,0.0074
3323.00,0.0075
3322.00,0.0075
3321.00,0.0076
3320.00,0.0077
3319.00,0.0077
3318.00,0.0078
3317.00,0.0078
3316.00,0.0079
3315.00,0.0079
3314.00,0.0080
3313.00,0.0080
3312.00,0.0080
3311.00,0.0080
3310.00,0.0080
3309.00,0.0080
3308.00,0.0081
3307.00,0.0081
3306.00,0.0082
3305.00,0.0082
3304.00,0.0083
3303.00,0.0084
3302.00,0.0084
3301.00,0.0085
3300.00,0.0085
3299.00,0.0086
3298.00,0.0086
3297.00,0.0086
3296.00,0.0087
3295.00,0.0087
3294.00,0.0087
3293.00,0.0087
3292.00,0.0088
3291.00,0.0088
3290.00,0.0089
3289.00,0.0089
3288.00,0.0090
3287.00,0.0090
3286.00,0.0090
3285.00,0.0090
3284.00,0.0090
3283.00,0.0090
3282.00,0.0090
3281.00,0.0091
3280.00,0.0091
3279.00,0.0091
3278.00,0.0091
3277.00,0.0091
3276.00,0.0090
3275.00,0.0090
3274.00,0.0090
3273.00,0.0090
3272.00,0.0090
3271.00,0.0090
3270.00,0.0090
3269.00,0.0090
3268.00,0.0090
3267.00,0.0090
3266.00,0.0089
3265.00,0.0089
3264.00,0.0088
3263.00,0.0088
3262.00,0.0088
3261.00,0.0088
3260.00,0.0087
3259.00,0.0087
3258.00,0.0086
3257.00,0.0086
3256.00,0.0085
3255.00,0.0085
3254.00,0.0084
3253.00,0.0084
3252.00,0.0083
3251.00,0.0083
3250.00,0.0082
3249.00,0.0082
3248.00,0.0081
3247.00,0.0081
3246.00,0.0081
3245.00,0.0080
3244.00,0.0080
3243.00,0.0079
3242.00,0.0079
3241.00,0.0078
3240.00,0.0078
3239.00,0.0078
3238.00,0.0078
3237.00,0.0077
3236.00,0.0077
3235.00,0.0076
3234.00,0.0076
3233.00,0.0075
3232.00,0.0075
3231.00,0.0075
3230.00,0.0075
3229.00,0.0075
3228.00,0.0075
3227.00,0.0075
3226.00,0.0074
3225.00,0.0074
3224.00,0.0073
3223.00,0.0073
3222.00,0.0072
3221.00,0.0072
3220.00,0.0072
3219.00,0.0072
3218.00,0.0071
3217.00,0.0071
3216.00,0.0071
3215.00,0.0071
3214.00,0.0071
3213.00,0.0071
3212.00,0.0071
3211.00,0.0071
3210.00,0.0070
3209.00,0.0070
3208.00,0.0070
3207.00,0.0069
3206.00,0.0069
3205.00,0.0069
3204.00,0.0069
3203.00,0.0069
3202.00,0.0068
3201.00,0.0068
3200.00,0.0068
3199.00,0.0068
3198.00,0.0068
3197.00,0.0067
3196.00,0.0067
3195.00,0.0067
3194.00,0.0066
3193.00,0.0066
3192.00,0.0066
3191.00,0.0066
3190.00,0.0065
3189.00,0.0065
3188.00,0.0065
3187.00,0.0065
3186.00,0.0065
3185.00,0.0064
3184.00,0.0064
3183.00,0.0063
3182.00,0.0063
3181.00,0.0063
3180.00,0.0063
3179.00,0.0063
3178.00,0.0062
3177.00,0.0062
3176.00,0.0062
3175.00,0.0061
3174.00,0.0061
3173.00,0.0061
3172.00,0.0061
3171.00,0.0060
3170.00,0.0060
3169.00,0.0060
3168.00,0.0060
3167.00,0.0059
3166.00,0.0059
3165.00,0.0059
3164.00,0.0058
3163.00,0.0058
3162.00,0.0058
3161.00,0.0058
3160.00,0.0058
3159.00,0.0057
3158.00,0.0057
3157.00,0.0057
3156.00,0.0057
3155.00,0.0056
3154.00,0.0056
3153.00,0.0055
3152.00,0.0055
3151.00,0.0055
3150.00,0.0055
3149.00,0.0055
3148.00,0.0054
3147.00,0.0054
3146.00,0.0054
3145.00,0.0054
3144.00,0.0053
3143.00,0.0053
3142.00,0.0052
3141.00,0.0052
3140.00,0.0052
3139.00,0.0052
3138.00,0.0052
3137.00,0.0051
3136.00,0.0051
3135.00,0.0051
3134.00,0.0051
3133.00,0.0050
3132.00,0.0050
3131.00,0.0050
3130.00,0.0050
3129.00,0.0050
3128.00,0.0050
3127.00,0.0050
3126.00,0.0050
3125.00,0.0050
3124.00,0.0049
3123.00,0.0049
3122.00,0.0049
3121.00,0.0048
3120.00,0.0048
3119.00,0.0048
3118.00,0.0048
3117.00,0.0048
3116.00,0.0048
3115.00,0.0048
3114.00,0.0048
3113.00,0.0048
3112.00,0.0048
3111.00,0.0048
3110.00,0.0048
3109.00,0.0048
3108.00,0.0048
3107.00,0.0048
3106.00,0.0048
3105.00,0.0049
3104.00,0.0049
3103.00,0.0049
3102.00,0.0049
3101.00,0.0049
3100.00,0.0049
3099.00,0.0049
3098.00,0.0049
3097.00,0.0049
3096.00,0.0049
3095.00,0.0049
3094.00,0.0049
3093.00,0.0049
3092.00,0.0049
3091.00,0.0049
3090.00,0.0049
3089.00,0.0049
3088.00,0.0049
3087.00,0.0049
3086.00,0.0049
3085.00,0.0049
3084.00,0.0049
3083.00,0.0049
3082.00,0.0049
3081.00,0.0049
3080.00,0.0049
3079.00,0.0049
3078.00,0.0049
3077.00,0.0049
3076.00,0.0049
3075.00,0.0050
3074.00,0.0050
3073.00,0.0050
3072.00,0.0050
3071.00,0.0050
3070.00,0.0050
3069.00,0.0050
3068.00,0.0050
3067.00,0.0050
3066.00,0.0050
3065.00,0.0050
3064.00,0.0050
3063.00,0.0050
3062.00,0.0050
3061.00,0.0050
3060.00,0.0050
3059.00,0.0050
3058.00,0.0050
3057.00,0.0050
3056.00,0.0049
3055.00,0.0049
3054.00,0.0049
3053.00,0.0049
3052.00,0.0049
3051.00,0.0048
3050.00,0.0048
3049.00,0.0048
3048.00,0.0048
3047.00,0.0047
3046.00,0.0047
3045.00,0.0047
3044.00,0.0047
3043.00,0.0047
3042.00,0.0046
3041.00,0.0046
3040.00,0.0046
3039.00,0.0047
3038.00,0.0047
3037.00,0.0046
3036.00,0.0046
3035.00,0.0046
3034.00,0.0046
3033.00,0.0045
3032.00,0.0045
3031.00,0.0045
3030.00,0.0045
3029.00,0.0045
3028.00,0.0045
3027.00,0.0045
3026.00,0.0044
3025.00,0.0044
3024.00,0.0044
3023.00,0.0044
3022.00,0.0043
3021.00,0.0043
3020.00,0.0042
3019.00,0.0042
3018.00,0.0041
3017.00,0.0041
3016.00,0.0041
3015.00,0.0041
3014.00,0.0040
3013.00,0.0040
3012.00,0.0040
3011.00,0.0040
3010.00,0.0039
3009.00,0.0039
3008.00,0.0039
3007.00,0.0039
3006.00,0.0038
3005.00,0.0038
3004.00,0.0038
3003.00,0.0037
3002.00,0.0037
3001.00,0.0037
3000.00,0.0037
2999.00,0.0036
2998.00,0.0036
2997.00,0.0036
2996.00,0.0036
2995.00,0.0036
2994.00,0.0036
2993.00,0.0036
2992.00,0.0036
2991.00,0.0036
2990.00,0.0036
2989.00,0.0036
2988.00,0.0037
2987.00,0.0037
2986.00,0.0036
2985.00,0.0036
2984.00,0.0036
2983.00,0.0035
2982.00,0.0035
2981.00,0.0035
2980.00,0.0036
2979.00,0.0036
2978.00,0.0037
2977.00,0.0038
2976.00,0.0038
2975.00,0.0039
2974.00,0.0039
2973.00,0.0040
2972.00,0.0041
2971.00,0.0041
2970.00,0.0042
2969.00,0.0043
2968.00,0.0044
2967.00,0.0044
2966.00,0.0044
2965.00,0.0045
2964.00,0.0045
2963.00,0.0046
2962.00,0.0046
2961.00,0.0046
2960.00,0.0046
2959.00,0.0046
2958.00,0.0046
2957.00,0.0046
2956.00,0.0046
2955.00,0.0046
2954.00,0.0046
2953.00,0.0046
2952.00,0.0046
2951.00,0.0046
2950.00,0.0046
2949.00,0.0046
2948.00,0.0045
2947.00,0.0045
2946.00,0.0045
2945.00,0.0045
2944.00,0.0045
2943.00,0.0046
2942.00,0.0046
2941.00,0.0047
2940.00,0.0047
2939.00,0.0047
2938.00,0.0048
2937.00,0.0048
2936.00,0.0048
2935.00,0.0048
2934.00,0.0048
2933.00,0.0048
2932.00,0.0048
2931.00,0.0047
2930.00,0.0047
2929.00,0.0047
2928.00,0.0047
2927.00,0.0046
2926.00,0.0046
2925.00,0.0045
2924.00,0.0044
2923.00,0.0043
2922.00,0.0041
2921.00,0.0040
2920.00,0.0039
2919.00,0.0037
2918.00,0.0036
2917.00,0.0035
2916.00,0.0035
2915.00,0.0035
2914.00,0.0036
2913.00,0.0037
2912.00,0.0038
2911.00,0.0039
2910.00,0.0040
2909.00,0.0040
2908.00,0.0040
2907.00,0.0040
2906.00,0.0039
2905.00,0.0039
2904.00,0.0039
2903.00,0.0039
2902.00,0.0039
2901.00,0.0039
2900.00,0.0039
2899.00,0.0039
2898.00,0.0038
2897.00,0.0038
2896.00,0.0037
2895.00,0.0037
2894.00,0.0037
2893.00,0.0037
2892.00,0.0037
2891.00,0.0037
2890.00,0.0037
2889.00,0.0036
2888.00,0.0036
2887.00,0.0036
2886.00,0.0036
2885.00,0.0036
2884.00,0.0036
2883.00,0.0037
2882.00,0.0037
2881.00,0.0038
2880.00,0.0038
2879.00,0.0038
2878.00,0.0039
2877.00,0.0039
2876.00,0.0039
2875.00,0.0039
2874.00,0.0039
2873.00,0.0039
2872.00,0.0038
2871.00,0.0038
2870.00,0.0038
2869.00,0.0038
2868.00,0.0038
2867.00,0.0037
2866.00,0.0037
2865.00,0.0037
2864.00,0.0037
2863.00,0.0036
2862.00,0.0036
2861.00,0.0036
2860.00,0.0035
2859.00,0.0035
2858.00,0.0035
2857.00,0.0035
2856.00,0.0034
2855.00,0.0034
2854.00,0.0033
2853.00,0.0032
2852.00,0.0030
2851.00,0.0029
2850.00,0.0028
2849.00,0.0028
2848.00,0.0028
2847.00,0.0028
2846.00,0.0029
2845.00,0.0030
2844.00,0.0031
2843.00,0.0031
2842.00,0.0032
2841.00,0.0032
2840.00,0.0032
2839.00,0.0032
2838.00,0.0032
2837.00,0.0031
2836.00,0.0031
2835.00,0.0031
2834.00,0.0031
2833.00,0.0031
2832.00,0.0031
2831.00,0.0031
2830.00,0.0031
2829.00,0.0031
2828.00,0.0031
2827.00,0.0031
2826.00,0.0031
2825.00,0.0030
2824.00,0.0030
2823.00,0.0030
2822.00,0.0030
2821.00,0.0030
2820.00,0.0030
2819.00,0.0030
2818.00,0.0030
2817.00,0.0030
2816.00,0.0030
2815.00,0.0030
2814.00,0.0029
2813.00,0.0029
2812.00,0.0029
2811.00,0.0029
2810.00,0.0029
2809.00,0.0029
2808.00,0.0029
2807.00,0.0029
2806.00,0.0029
2805.00,0.0029
2804.00,0.0029
2803.00,0.0029
2802.00,0.0029
2801.00,0.0029
2800.00,0.0029
2799.00,0.0028
2798.00,0.0028
2797.00,0.0028
2796.00,0.0028
2795.00,0.0028
2794.00,0.0028
2793.00,0.0028
2792.00,0.0028
2791.00,0.0028
2790.00,0.0028
2789.00,0.0028
2788.00,0.0028
2787.00,0.0027
2786.00,0.0027
2785.00,0.0027
2784.00,0.0027
2783.00,0.0027
2782.00,0.0027
2781.00,0.0027
2780.00,0.0027
2779.00,0.0026
2778.00,0.0026
2777.00,0.0026
2776.00,0.0026
2775.00,0.0026
2774.00,0.0026
2773.00,0.0026
2772.00,0.0026
2771.00,0.0026
2770.00,0.0026
2769.00,0.0026
2768.00,0.0026
2767.00,0.0026
2766.00,0.0026
2765.00,0.0026
2764.00,0.0026
2763.00,0.0025
2762.00,0.0025
2761.00,0.0025
2760.00,0.0025
2759.00,0.0025
2758.00,0.0025
2757.00,0.0025
2756.00,0.0025
2755.00,0.0025
2754.00,0.0025
2753.00,0.0025
2752.00,0.0025
2751.00,0.0025
2750.00,0.0025
2749.00,0.0025
2748.00,0.0024
2747.00,0.0024
2746.00,0.0024
2745.00,0.0024
2744.00,0.0024
2743.00,0.0024
2742.00,0.0024
2741.00,0.0024
2740.00,0.0024
2739.00,0.0024
2738.00,0.0024
2737.00,0.0024
2736.00,0.0024
2735.00,0.0024
2734.00,0.0023
2733.00,0.0023
2732.00,0.0023
2731.00,0.0023
2730.00,0.0023
2729.00,0.0023
2728.00,0.0023
2727.00,0.0023
2726.00,0.0023
2725.00,0.0023
2724.00,0.0023
2723.00,0.0023
2722.00,0.0023
2721.00,0.0023
2720.00,0.0023
2719.00,0.0023
2718.00,0.0022
2717.00,0.0022
2716.00,0.0022
2715.00,0.0023
2714.00,0.0023
2713.00,0.0023
2712.00,0.0023
2711.00,0.0023
2710.00,0.0023
2709.00,0.0022
2708.00,0.0022
2707.00,0.0022
2706.00,0.0022
2705.00,0.0021
2704.00,0.0021
2703.00,0.0021
2702.00,0.0021
2701.00,0.0021
2700.00,0.0022
2699.00,0.0022
2698.00,0.0022
2697.00,0.0021
2696.00,0.0021
2695.00,0.0021
2694.00,0.0021
2693.00,0.0021
2692.00,0.0021
2691.00,0.0021
2690.00,0.0021
2689.00,0.0021
2688.00,0.0021
2687.00,0.0021
2686.00,0.0021
2685.00,0.0021
2684.00,0.0021
2683.00,0.0021
2682.00,0.0021
2681.00,0.0021
2680.00,0.0021
2679.00,0.0021
2678.00,0.0021
2677.00,0.0021
2676.00,0.0021
2675.00,0.0021
2674.00,0.0021
2673.00,0.0021
2672.00,0.0021
2671.00,0.0021
2670.00,0.0021
2669.00,0.0021
2668.00,0.0021
2667.00,0.0021
2666.00,0.0022
2665.00,0.0022
2664.00,0.0022
2663.00,0.0022
2662.00,0.0023
2661.00,0.0023
2660.00,0.0024
2659.00,0.0024
2658.00,0.0024
2657.00,0.0024
2656.00,0.0024
2655.00,0.0024
2654.00,0.0024
2653.00,0.0024
2652.00,0.0024
2651.00,0.0024
2650.00,0.0024
2649.00,0.0024
2648.00,0.0024
2647.00,0.0024
2646.00,0.0024
2645.00,0.0024
2644.00,0.0024
2643.00,0.0023
2642.00,0.0024
2641.00,0.0024
2640.00,0.0023
2639.00,0.0023
2638.00,0.0023
2637.00,0.0023
2636.00,0.0024
2635.00,0.0024
2634.00,0.0024
2633.00,0.0024
2632.00,0.0024
2631.00,0.0023
2630.00,0.0023
2629.00,0.0023
2628.00,0.0023
2627.00,0.0023
2626.00,0.0023
2625.00,0.0023
2624.00,0.0023
2623.00,0.0023
2622.00,0.0023
2621.00,0.0023
2620.00,0.0023
2619.00,0.0022
2618.00,0.0022
2617.00,0.0022
2616.00,0.0022
2615.00,0.0022
2614.00,0.0022
2613.00,0.0022
2612.00,0.0022
2611.00,0.0022
2610.00,0.0022
2609.00,0.0022
2608.00,0.0022
2607.00,0.0022
2606.00,0.0021
2605.00,0.0021
2604.00,0.0021
2603.00,0.0021
2602.00,0.0021
2601.00,0.0021
2600.00,0.0021
2599.00,0.0021
2598.00,0.0021
2597.00,0.0020
2596.00,0.0020
2595.00,0.0020
2594.00,0.0020
2593.00,0.0020
2592.00,0.0020
2591.00,0.0020
2590.00,0.0020
2589.00,0.0020
2588.00,0.0020
2587.00,0.0019
2586.00,0.0019
2585.00,0.0019
2584.00,0.0019
2583.00,0.0019
2582.00,0.0019
2581.00,0.0019
2580.00,0.0019
2579.00,0.0019
2578.00,0.0019
2577.00,0.0019
2576.00,0.0019
2575.00,0.0019
2574.00,0.0019
2573.00,0.0019
2572.00,0.0019
2571.00,0.0019
2570.00,0.0019
2569.00,0.0019
2568.00,0.0019
2567.00,0.0018
2566.00,0.0018
2565.00,0.0018
2564.00,0.0018
2563.00,0.0018
2562.00,0.0018
2561.00,0.0018
2560.00,0.0018
2559.00,0.0018
2558.00,0.0018
2557.00,0.0018
2556.00,0.0018
2555.00,0.0018
2554.00,0.0018
2553.00,0.0018
2552.00,0.0017
2551.00,0.0018
2550.00,0.0018
2549.00,0.0018
2548.00,0.0017
2547.00,0.0017
2546.00,0.0017
2545.00,0.0017
2544.00,0.0017
2543.00,0.0017
2542.00,0.0016
2541.00,0.0016
2540.00,0.0016
2539.00,0.0016
2538.00,0.0017
2537.00,0.0017
2536.00,0.0017
2535.00,0.0017
2534.00,0.0017
2533.00,0.0017
2532.00,0.0016
2531.00,0.0016
2530.00,0.0016
2529.00,0.0016
2528.00,0.0016
2527.00,0.0016
2526.00,0.0016
2525.00,0.0016
2524.00,0.0016
2523.00,0.0015
2522.00,0.0015
2521.00,0.0016
2520.00,0.0016
2519.00,0.0016
2518.00,0.0016
2517.00,0.0016
2516.00,0.0016
2515.00,0.0015
2514.00,0.0015
2513.00,0.0015
2512.00,0.0016
2511.00,0.0016
2510.00,0.0016
2509.00,0.0016
2508.00,0.0016
2507.00,0.0015
2506.00,0.0015
2505.00,0.0015
2504.00,0.0015
2503.00,0.0015
2502.00,0.0015
2501.00,0.0016
2500.00,0.0016
2499.00,0.0016
2498.00,0.0016
2497.00,0.0016
2496.00,0.0015
2495.00,0.0015
2494.00,0.0015
2493.00,0.0015
2492.00,0.0015
2491.00,0.0015
2490.00,0.0016
2489.00,0.0016
2488.00,0.0015
2487.00,0.0015
2486.00,0.0015
2485.00,0.0015
2484.00,0.0015
2483.00,0.0015
2482.00,0.0015
2481.00,0.0015
2480.00,0.0015
2479.00,0.0014
2478.00,0.0014
2477.00,0.0014
2476.00,0.0014
2475.00,0.0014
2474.00,0.0014
2473.00,0.0014
2472.00,0.0015
2471.00,0.0014
2470.00,0.0014
2469.00,0.0014
2468.00,0.0014
2467.00,0.0014
2466.00,0.0014
2465.00,0.0014
2464.00,0.0015
2463.00,0.0015
2462.00,0.0015
2461.00,0.0014
2460.00,0.0014
2459.00,0.0015
2458.00,0.0015
2457.00,0.0015
2456.00,0.0016
2455.00,0.0015
2454.00,0.0015
2453.00,0.0015
2452.00,0.0015
2451.00,0.0015
2450.00,0.0015
2449.00,0.0014
2448.00,0.0014
2447.00,0.0013
2446.00,0.0013
2445.00,0.0014
2444.00,0.0014
2443.00,0.0015
2442.00,0.0015
2441.00,0.0015
2440.00,0.0014
2439.00,0.0014
2438.00,0.0013
2437.00,0.0013
2436.00,0.0012
2435.00,0.0012
2434.00,0.0012
2433.00,0.0012
2432.00,0.0012
2431.00,0.0012
2430.00,0.0012
2429.00,0.0012
2428.00,0.0012
2427.00,0.0012
2426.00,0.0012
2425.00,0.0012
2424.00,0.0012
2423.00,0.0011
2422.00,0.0012
2421.00,0.0012
2420.00,0.0012
2419.00,0.0012
2418.00,0.0012
2417.00,0.0012
2416.00,0.0012
2415.00,0.0012
2414.00,0.0012
2413.00,0.0012
2412.00,0.0012
2411.00,0.0012
2410.00,0.0011
2409.00,0.0011
2408.00,0.0011
2407.00,0.0011
2406.00,0.0011
2405.00,0.0010
2404.00,0.0010
2403.00,0.0010
2402.00,0.0010
2401.00,0.0010
2400.00,0.0010
2399.00,0.0010
2398.00,0.0010
2397.00,0.0010
2396.00,0.0010
2395.00,0.0010
2394.00,0.0010
2393.00,0.0010
2392.00,0.0010
2391.00,0.0010
2390.00,0.0010
2389.00,0.0009
2388.00,0.0009
2387.00,0.0009
2386.00,0.0009
2385.00,0.0009
2384.00,0.0009
2383.00,0.0009
2382.00,0.0009
2381.00,0.0008
2380.00,0.0008
2379.00,0.0009
2378.00,0.0009
2377.00,0.0009
2376.00,0.0009
2375.00,0.0009
2374.00,0.0009
2373.00,0.0009
2372.00,0.0009
2371.00,0.0009
2370.00,0.0009
2369.00,0.0009
2368.00,0.0009
2367.00,0.0009
2366.00,0.0009
2365.00,0.0010
2364.00,0.0010
2363.00,0.0011
2362.00,0.0011
2361.00,0.0012
2360.00,0.0011
2359.00,0.0010
2358.00,0.0010
2357.00,0.0010
2356.00,0.0010
2355.00,0.0010
2354.00,0.0009
2353.00,0.0010
2352.00,0.0011
2351.00,0.0012
2350.00,0.0012
2349.00,0.0012
2348.00,0.0011
2347.00,0.0011
2346.00,0.0011
2345.00,0.0012
2344.00,0.0012
2343.00,0.0012
2342.00,0.0012
2341.00,0.0013
2340.00,0.0013
2339.00,0.0013
2338.00,0.0013
2337.00,0.0013
2336.00,0.0012
2335.00,0.0012
2334.00,0.0012
2333.00,0.0011
2332.00,0.0011
2331.00,0.0011
2330.00,0.0012
2329.00,0.0014
2328.00,0.0016
2327.00,0.0019
2326.00,0.0022
2325.00,0.0023
2324.00,0.0022
2323.00,0.0021
2322.00,0.0019
2321.00,0.0018
2320.00,0.0017
2319.00,0.0017
2318.00,0.0016
2317.00,0.0016
2316.00,0.0016
2315.00,0.0015
2314.00,0.0015
2313.00,0.0015
2312.00,0.0014
2311.00,0.0014
2310.00,0.0014
2309.00,0.0014
2308.00,0.0014
2307.00,0.0014
2306.00,0.0014
2305.00,0.0014
2304.00,0.0014
2303.00,0.0014
2302.00,0.0014
2301.00,0.0014
2300.00,0.0015
2299.00,0.0015
2298.00,0.0016
2297.00,0.0016
2296.00,0.0017
2295.00,0.0017
2294.00,0.0018
2293.00,0.0018
2292.00,0.0019
2291.00,0.0020
2290.00,0.0021
2289.00,0.0021
2288.00,0.0021
2287.00,0.0021
2286.00,0.0020
2285.00,0.0020
2284.00,0.0019
2283.00,0.0018
2282.00,0.0018
2281.00,0.0018
2280.00,0.0018
2279.00,0.0018
2278.00,0.0017
2277.00,0.0017
2276.00,0.0017
2275.00,0.0016
2274.00,0.0016
2273.00,0.0015
2272.00,0.0015
2271.00,0.0014
2270.00,0.0014
2269.00,0.0014
2268.00,0.0013
2267.00,0.0013
2266.00,0.0013
2265.00,0.0013
2264.00,0.0013
2263.00,0.0013
2262.00,0.0013
2261.00,0.0013
2260.00,0.0013
2259.00,0.0014
2258.00,0.0013
2257.00,0.0012
2256.00,0.0011
2255.00,0.0011
2254.00,0.0011
2253.00,0.0012
2252.00,0.0012
2251.00,0.0013
2250.00,0.0012
2249.00,0.0012
2248.00,0.0012
2247.00,0.0012
2246.00,0.0012
2245.00,0.0012
2244.00,0.0012
2243.00,0.0012
2242.00,0.0012
2241.00,0.0012
2240.00,0.0012
2239.00,0.0012
2238.00,0.0013
2237.00,0.0014
2236.00,0.0014
2235.00,0.0015
2234.00,0.0014
2233.00,0.0013
2232.00,0.0012
2231.00,0.0011
2230.00,0.0011
2229.00,0.0012
2228.00,0.0013
2227.00,0.0015
2226.00,0.0016
2225.00,0.0015
2224.00,0.0014
2223.00,0.0013
2222.00,0.0013
2221.00,0.0013
2220.00,0.0014
2219.00,0.0014
2218.00,0.0013
2217.00,0.0013
2216.00,0.0012
2215.00,0.0012
2214.00,0.0012
2213.00,0.0011
2212.00,0.0011
2211.00,0.0011
2210.00,0.0012
2209.00,0.0012
2208.00,0.0013
2207.00,0.0013
2206.00,0.0012
2205.00,0.0011
2204.00,0.0010
2203.00,0.0009
2202.00,0.0009
2201.00,0.0009
2200.00,0.0009
2199.00,0.0010
2198.00,0.0012
2197.00,0.0013
2196.00,0.0013
2195.00,0.0013
2194.00,0.0013
2193.00,0.0013
2192.00,0.0012
2191.00,0.0012
2190.00,0.0012
2189.00,0.0012
2188.00,0.0013
2187.00,0.0014
2186.00,0.0014
2185.00,0.0014
2184.00,0.0012
2183.00,0.0009
2182.00,0.0007
2181.00,0.0006
2180.00,0.0007
2179.00,0.0008
2178.00,0.0009
2177.00,0.0008
2176.00,0.0008
2175.00,0.0007
2174.00,0.0008
2173.00,0.0009
2172.00,0.0012
2171.00,0.0014
2170.00,0.0016
2169.00,0.0017
2168.00,0.0017
2167.00,0.0017
2166.00,0.0018
2165.00,0.0020
2164.00,0.0023
2163.00,0.0024
2162.00,0.0022
2161.00,0.0014
2160.00,0.0002
2159.00,-0.0009
2158.00,-0.0016
2157.00,-0.0018
2156.00,-0.0016
2155.00,-0.0014
2154.00,-0.0011
2153.00,-0.0009
2152.00,-0.0006
2151.00,-0.0005
2150.00,-0.0004
2149.00,-0.0004
2148.00,-0.0004
2147.00,-0.0004
2146.00,-0.0004
2145.00,-0.0003
2144.00,-0.0001
2143.00,-0.0000
2142.00,0.0000
2141.00,-0.0001
2140.00,-0.0002
2139.00,-0.0003
2138.00,-0.0003
2137.00,-0.0004
2136.00,-0.0005
2135.00,-0.0006
2134.00,-0.0007
2133.00,-0.0007
2132.00,-0.0005
2131.00,-0.0003
2130.00,-0.0001
2129.00,0.0000
2128.00,0.0002
2127.00,0.0003
2126.00,0.0003
2125.00,0.0004
2124.00,0.0004
2123.00,0.0004
2122.00,0.0005
2121.00,0.0005
2120.00,0.0006
2119.00,0.0007
2118.00,0.0008
2117.00,0.0008
2116.00,0.0009
2115.00,0.0009
2114.00,0.0010
2113.00,0.0011
2112.00,0.0011
2111.00,0.0011
2110.00,0.0011
2109.00,0.0010
2108.00,0.0010
2107.00,0.0010
2106.00,0.0010
2105.00,0.0010
2104.00,0.0010
2103.00,0.0010
2102.00,0.0010
2101.00,0.0011
2100.00,0.0010
2099.00,0.0010
2098.00,0.0009
2097.00,0.0008
2096.00,0.0007
2095.00,0.0006
2094.00,0.0007
2093.00,0.0008
2092.00,0.0009
2091.00,0.0009
2090.00,0.0009
2089.00,0.0008
2088.00,0.0008
2087.00,0.0009
2086.00,0.0009
2085.00,0.0010
2084.00,0.0011
2083.00,0.0012
2082.00,0.0012
2081.00,0.0011
2080.00,0.0011
2079.00,0.0010
2078.00,0.0010
2077.00,0.0009
2076.00,0.0009
2075.00,0.0010
2074.00,0.0010
2073.00,0.0010
2072.00,0.0010
2071.00,0.0010
2070.00,0.0011
2069.00,0.0011
2068.00,0.0010
2067.00,0.0009
2066.00,0.0008
2065.00,0.0008
2064.00,0.0008
2063.00,0.0008
2062.00,0.0009
2061.00,0.0010
2060.00,0.0011
2059.00,0.0012
2058.00,0.0012
2057.00,0.0012
2056.00,0.0012
2055.00,0.0012
2054.00,0.0013
2053.00,0.0016
2052.00,0.0018
2051.00,0.0018
2050.00,0.0016
2049.00,0.0014
2048.00,0.0012
2047.00,0.0011
2046.00,0.0011
2045.00,0.0011
2044.00,0.0012
2043.00,0.0012
2042.00,0.0011
2041.00,0.0010
2040.00,0.0009
2039.00,0.0010
2038.00,0.0010
2037.00,0.0010
2036.00,0.0010
2035.00,0.0010
2034.00,0.0009
2033.00,0.0009
2032.00,0.0007
2031.00,0.0006
2030.00,0.0005
2029.00,0.0005
2028.00,0.0005
2027.00,0.0005
2026.00,0.0005
2025.00,0.0005
2024.00,0.0005
2023.00,0.0004
2022.00,0.0004
2021.00,0.0004
2020.00,0.0004
2019.00,0.0003
2018.00,0.0003
2017.00,0.0004
2016.00,0.0004
2015.00,0.0003
2014.00,0.0003
2013.00,0.0004
2012.00,0.0007
2011.00,0.0009
2010.00,0.0010
2009.00,0.0008
2008.00,0.0004
2007.00,0.0000
2006.00,-0.0002
2005.00,-0.0003
2004.00,-0.0002
2003.00,-0.0001
2002.00,-0.0000
2001.00,0.0001
2000.00,0.0003
1999.00,0.0004
1998.00,0.0005
1997.00,0.0006
1996.00,0.0006
1995.00,0.0006
1994.00,0.0006
1993.00,0.0006
1992.00,0.0006
1991.00,0.0006
1990.00,0.0007
1989.00,0.0007
1988.00,0.0008
1987.00,0.0009
1986.00,0.0010
1985.00,0.0011
1984.00,0.0013
1983.00,0.0015
1982.00,0.0018
1981.00,0.0019
1980.00,0.0018
1979.00,0.0014
1978.00,0.0009
1977.00,0.0005
1976.00,0.0003
1975.00,0.0001
1974.00,-0.0000
1973.00,-0.0001
1972.00,-0.0001
1971.00,0.0000
1970.00,0.0001
1969.00,0.0001
1968.00,-0.0000
1967.00,-0.0001
1966.00,-0.0001
1965.00,-0.0000
1964.00,0.0000
1963.00,0.0000
1962.00,-0.0001
1961.00,-0.0003
1960.00,-0.0004
1959.00,-0.0003
1958.00,-0.0002
1957.00,-0.0000
1956.00,0.0000
1955.00,-0.0000
1954.00,-0.0001
1953.00,-0.0000
1952.00,0.0001
1951.00,0.0002
1950.00,0.0003
1949.00,0.0003
1948.00,0.0002
1947.00,0.0002
1946.00,0.0002
1945.00,0.0002
1944.00,0.0002
1943.00,0.0003
1942.00,0.0004
1941.00,0.0004
1940.00,0.0004
1939.00,0.0003
1938.00,0.0002
1937.00,0.0001
1936.00,0.0001
1935.00,0.0002
1934.00,0.0002
1933.00,0.0002
1932.00,0.0002
1931.00,0.0002
1930.00,0.0002
1929.00,0.0002
1928.00,0.0002
1927.00,0.0002
1926.00,0.0002
1925.00,0.0001
1924.00,0.0002
1923.00,0.0003
1922.00,0.0003
1921.00,0.0004
1920.00,0.0004
1919.00,0.0004
1918.00,0.0004
1917.00,0.0005
1916.00,0.0005
1915.00,0.0005
1914.00,0.0005
1913.00,0.0005
1912.00,0.0005
1911.00,0.0005
1910.00,0.0005
1909.00,0.0005
1908.00,0.0005
1907.00,0.0006
1906.00,0.0005
1905.00,0.0005
1904.00,0.0005
1903.00,0.0006
1902.00,0.0006
1901.00,0.0006
1900.00,0.0006
1899.00,0.0006
1898.00,0.0006
1897.00,0.0006
1896.00,0.0006
1895.00,0.0006
1894.00,0.0006
1893.00,0.0006
1892.00,0.0005
1891.00,0.0005
1890.00,0.0005
1889.00,0.0005
1888.00,0.0006
1887.00,0.0006
1886.00,0.0006
1885.00,0.0006
1884.00,0.0006
1883.00,0.0006
1882.00,0.0006
1881.00,0.0006
1880.00,0.0006
1879.00,0.0006
1878.00,0.0006
1877.00,0.0006
1876.00,0.0006
1875.00,0.0006
1874.00,0.0006
1873.00,0.0005
1872.00,0.0005
1871.00,0.0004
1870.00,0.0004
1869.00,0.0004
1868.00,0.0005
1867.00,0.0005
1866.00,0.0005
1865.00,0.0005
1864.00,0.0005
1863.00,0.0005
1862.00,0.0006
1861.00,0.0006
1860.00,0.0006
1859.00,0.0006
1858.00,0.0006
1857.00,0.0006
1856.00,0.0006
1855.00,0.0006
1854.00,0.0006
1853.00,0.0006
1852.00,0.0006
1851.00,0.0006
1850.00,0.0006
1849.00,0.0006
1848.00,0.0006
1847.00,0.0006
1846.00,0.0005
1845.00,0.0006
1844.00,0.0007
1843.00,0.0008
1842.00,0.0008
1841.00,0.0007
1840.00,0.0006
1839.00,0.0006
1838.00,0.0005
1837.00,0.0006
1836.00,0.0006
1835.00,0.0007
1834.00,0.0007
1833.00,0.0006
1832.00,0.0005
1831.00,0.0004
1830.00,0.0004
1829.00,0.0005
1828.00,0.0006
1827.00,0.0005
1826.00,0.0005
1825.00,0.0006
1824.00,0.0007
1823.00,0.0007
1822.00,0.0006
1821.00,0.0006
1820.00,0.0006
1819.00,0.0005
1818.00,0.0005
1817.00,0.0005
1816.00,0.0005
1815.00,0.0005
1814.00,0.0005
1813.00,0.0005
1812.00,0.0006
1811.00,0.0006
1810.00,0.0007
1809.00,0.0007
1808.00,0.0008
1807.00,0.0008
1806.00,0.0008
1805.00,0.0007
1804.00,0.0007
1803.00,0.0007
1802.00,0.0006
1801.00,0.0006
1800.00,0.0006
1799.00,0.0007
1798.00,0.0007
1797.00,0.0007
1796.00,0.0007
1795.00,0.0007
1794.00,0.0006
1793.00,0.0006
1792.00,0.0007
1791.00,0.0008
1790.00,0.0009
1789.00,0.0009
1788.00,0.0009
1787.00,0.0009
1786.00,0.0009
1785.00,0.0009
1784.00,0.0009
1783.00,0.0009
1782.00,0.0008
1781.00,0.0008
1780.00,0.0008
1779.00,0.0008
1778.00,0.0008
1777.00,0.0008
1776.00,0.0007
1775.00,0.0006
1774.00,0.0005
1773.00,0.0005
1772.00,0.0006
1771.00,0.0008
1770.00,0.0010
1769.00,0.0010
1768.00,0.0011
1767.00,0.0011
1766.00,0.0011
1765.00,0.0011
1764.00,0.0010
1763.00,0.0010
1762.00,0.0011
1761.00,0.0012
1760.00,0.0013
1759.00,0.0013
1758.00,0.0013
1757.00,0.0014
1756.00,0.0015
1755.00,0.0016
1754.00,0.0016
1753.00,0.0016
1752.00,0.0016
1751.00,0.0017
1750.00,0.0017
1749.00,0.0018
1748.00,0.0019
1747.00,0.0020
1746.00,0.0022
1745.00,0.0023
1744.00,0.0024
1743.00,0.0025
1742.00,0.0025
1741.00,0.0026
1740.00,0.0028
1739.00,0.0030
1738.00,0.0032
1737.00,0.0033
1736.00,0.0033
1735.00,0.0035
1734.00,0.0038
1733.00,0.0041
1732.00,0.0042
1731.00,0.0042
1730.00,0.0042
1729.00,0.0043
1728.00,0.0045
1727.00,0.0045
1726.00,0.0046
1725.00,0.0046
1724.00,0.0047
1723.00,0.0047
1722.00,0.0047
1721.00,0.0047
1720.00,0.0046
1719.00,0.0046
1718.00,0.0046
1717.00,0.0047
1716.00,0.0047
1715.00,0.0048
1714.00,0.0048
1713.00,0.0048
1712.00,0.0048
1711.00,0.0049
1710.00,0.0049
1709.00,0.0049
1708.00,0.0048
1707.00,0.0048
1706.00,0.0049
1705.00,0.0051
1704.00,0.0053
1703.00,0.0055
1702.00,0.0056
1701.00,0.0058
1700.00,0.0062
1699.00,0.0065
1698.00,0.0067
1697.00,0.0069
1696.00,0.0072
1695.00,0.0076
1694.00,0.0078
1693.00,0.0080
1692.00,0.0081
1691.00,0.0083
1690.00,0.0086
1689.00,0.0089
1688.00,0.0091
1687.00,0.0094
1686.00,0.0096
1685.00,0.0098
1684.00,0.0101
1683.00,0.0105
1682.00,0.0107
1681.00,0.0110
1680.00,0.0114
1679.00,0.0117
1678.00,0.0120
1677.00,0.0123
1676.00,0.0126
1675.00,0.0129
1674.00,0.0131
1673.00,0.0134
1672.00,0.0136
1671.00,0.0139
1670.00,0.0142
1669.00,0.0146
1668.00,0.0150
1667.00,0.0153
1666.00,0.0157
1665.00,0.0161
1664.00,0.0165
1663.00,0.0169
1662.00,0.0172
1661.00,0.0176
1660.00,0.0180
1659.00,0.0185
1658.00,0.0189
1657.00,0.0194
1656.00,0.0200
1655.00,0.0204
1654.00,0.0206
1653.00,0.0205
1652.00,0.0203
1651.00,0.0204
1650.00,0.0206
1649.00,0.0209
1648.00,0.0212
1647.00,0.0213
1646.00,0.0212
1645.00,0.0211
1644.00,0.0212
1643.00,0.0213
1642.00,0.0215
1641.00,0.0216
1640.00,0.0217
1639.00,0.0218
1638.00,0.0219
1637.00,0.0219
1636.00,0.0217
1635.00,0.0215
1634.00,0.0214
1633.00,0.0215
1632.00,0.0218
1631.00,0.0220
1630.00,0.0222
1629.00,0.0223
1628.00,0.0223
1627.00,0.0224
1626.00,0.0224
1625.00,0.0224
1624.00,0.0223
1623.00,0.0220
1622.00,0.0218
1621.00,0.0216
1620.00,0.0216
1619.00,0.0215
1618.00,0.0212
1617.00,0.0206
1616.00,0.0199
1615.00,0.0193
1614.00,0.0189
1613.00,0.0186
1612.00,0.0182
1611.00,0.0178
1610.00,0.0173
1609.00,0.0168
1608.00,0.0163
1607.00,0.0158
1606.00,0.0154
1605.00,0.0149
1604.00,0.0145
1603.00,0.0141
1602.00,0.0137
1601.00,0.0134
1600.00,0.0130
1599.00,0.0127
1598.00,0.0125
1597.00,0.0122
1596.00,0.0120
1595.00,0.0117
1594.00,0.0114
1593.00,0.0112
1592.00,0.0110
1591.00,0.0108
1590.00,0.0107
1589.00,0.0105
1588.00,0.0103
1587.00,0.0102
1586.00,0.0101
1585.00,0.0099
1584.00,0.0098
1583.00,0.0097
1582.00,0.0096
1581.00,0.0096
1580.00,0.0095
1579.00,0.0095
1578.00,0.0095
1577.00,0.0095
1576.00,0.0095
1575.00,0.0096
1574.00,0.0097
1573.00,0.0098
1572.00,0.0099
1571.00,0.0099
1570.00,0.0101
1569.00,0.0103
1568.00,0.0105
1567.00,0.0107
1566.00,0.0109
1565.00,0.0112
1564.00,0.0116
1563.00,0.0119
1562.00,0.0122
1561.00,0.0123
1560.00,0.0124
1559.00,0.0126
1558.00,0.0130
1557.00,0.0134
1556.00,0.0139
1555.00,0.0143
1554.00,0.0147
1553.00,0.0151
1552.00,0.0155
1551.00,0.0158
1550.00,0.0161
1549.00,0.0164
1548.00,0.0168
1547.00,0.0171
1546.00,0.0173
1545.00,0.0175
1544.00,0.0176
1543.00,0.0177
1542.00,0.0178
1541.00,0.0178
1540.00,0.0178
1539.00,0.0180
1538.00,0.0182
1537.00,0.0185
1536.00,0.0188
1535.00,0.0190
1534.00,0.0191
1533.00,0.0192
1532.00,0.0192
1531.00,0.0194
1530.00,0.0195
1529.00,0.0197
1528.00,0.0198
1527.00,0.0198
1526.00,0.0198
1525.00,0.0198
1524.00,0.0199
1523.00,0.0199
1522.00,0.0199
1521.00,0.0198
1520.00,0.0198
1519.00,0.0197
1518.00,0.0198
1517.00,0.0199
1516.00,0.0199
1515.00,0.0199
1514.00,0.0199
1513.00,0.0199
1512.00,0.0197
1511.00,0.0196
1510.00,0.0194
1509.00,0.0191
1508.00,0.0187
1507.00,0.0179
1506.00,0.0172
1505.00,0.0168
1504.00,0.0166
1503.00,0.0164
1502.00,0.0162
1501.00,0.0160
1500.00,0.0157
1499.00,0.0154
1498.00,0.0150
1497.00,0.0146
1496.00,0.0142
1495.00,0.0137
1494.00,0.0133
1493.00,0.0129
1492.00,0.0126
1491.00,0.0122
1490.00,0.0118
1489.00,0.0114
1488.00,0.0110
1487.00,0.0108
1486.00,0.0106
1485.00,0.0104
1484.00,0.0102
1483.00,0.0100
1482.00,0.0098
1481.00,0.0097
1480.00,0.0095
1479.00,0.0095
1478.00,0.0094
1477.00,0.0093
1476.00,0.0093
1475.00,0.0093
1474.00,0.0093
1473.00,0.0093
1472.00,0.0095
1471.00,0.0096
1470.00,0.0098
1469.00,0.0099
1468.00,0.0100
1467.00,0.0100
1466.00,0.0100
1465.00,0.0100
1464.00,0.0101
1463.00,0.0101
1462.00,0.0102
1461.00,0.0102
1460.00,0.0103
1459.00,0.0104
1458.00,0.0106
1457.00,0.0108
1456.00,0.0109
1455.00,0.0110
1454.00,0.0110
1453.00,0.0110
1452.00,0.0111
1451.00,0.0111
1450.00,0.0111
1449.00,0.0111
1448.00,0.0111
1447.00,0.0111
1446.00,0.0111
1445.00,0.0111
1444.00,0.0110
1443.00,0.0110
1442.00,0.0110
1441.00,0.0110
1440.00,0.0110
1439.00,0.0109
1438.00,0.0108
1437.00,0.0107
1436.00,0.0105
1435.00,0.0104
1434.00,0.0102
1433.00,0.0101
1432.00,0.0100
1431.00,0.0098
1430.00,0.0097
1429.00,0.0096
1428.00,0.0096
1427.00,0.0096
1426.00,0.0095
1425.00,0.0095
1424.00,0.0094
1423.00,0.0095
1422.00,0.0095
1421.00,0.0095
1420.00,0.0096
1419.00,0.0096
1418.00,0.0096
1417.00,0.0097
1416.00,0.0097
1415.00,0.0097
1414.00,0.0097
1413.00,0.0097
1412.00,0.0097
1411.00,0.0097
1410.00,0.0097
1409.00,0.0097
1408.00,0.0097
1407.00,0.0097
1406.00,0.0097
1405.00,0.0097
1404.00,0.0097
1403.00,0.0097
1402.00,0.0097
1401.00,0.0097
1400.00,0.0097
1399.00,0.0098
1398.00,0.0098
1397.00,0.0098
1396.00,0.0099
1395.00,0.0099
1394.00,0.0100
1393.00,0.0100
1392.00,0.0101
1391.00,0.0102
1390.00,0.0102
1389.00,0.0103
1388.00,0.0103
1387.00,0.0103
1386.00,0.0103
1385.00,0.0102
1384.00,0.0101
1383.00,0.0100
1382.00,0.0100
1381.00,0.0099
1380.00,0.0098
1379.00,0.0098
1378.00,0.0097
1377.00,0.0097
1376.00,0.0097
1375.00,0.0096
1374.00,0.0096
1373.00,0.0097
1372.00,0.0097
1371.00,0.0097
1370.00,0.0097
1369.00,0.0097
1368.00,0.0097
1367.00,0.0096
1366.00,0.0096
1365.00,0.0096
1364.00,0.0095
1363.00,0.0094
1362.00,0.0094
1361.00,0.0093
1360.00,0.0093
1359.00,0.0093
1358.00,0.0092
1357.00,0.0092
1356.00,0.0092
1355.00,0.0092
1354.00,0.0092
1353.00,0.0092
1352.00,0.0092
1351.00,0.0092
1350.00,0.0092
1349.00,0.0093
1348.00,0.0093
1347.00,0.0093
1346.00,0.0093
1345.00,0.0093
1344.00,0.0094
1343.00,0.0094
1342.00,0.0094
1341.00,0.0094
1340.00,0.0094
1339.00,0.0094
1338.00,0.0094
1337.00,0.0093
1336.00,0.0093
1335.00,0.0093
1334.00,0.0093
1333.00,0.0093
1332.00,0.0093
1331.00,0.0093
1330.00,0.0093
1329.00,0.0093
1328.00,0.0093
1327.00,0.0093
1326.00,0.0093
1325.00,0.0094
1324.00,0.0094
1323.00,0.0094
1322.00,0.0094
1321.00,0.0094
1320.00,0.0094
1319.00,0.0094
1318.00,0.0094
1317.00,0.0095
1316.00,0.0095
1315.00,0.0095
1314.00,0.0096
1313.00,0.0096
1312.00,0.0096
1311.00,0.0096
1310.00,0.0096
1309.00,0.0096
1308.00,0.0097
1307.00,0.0097
1306.00,0.0097
1305.00,0.0097
1304.00,0.0098
1303.00,0.0098
1302.00,0.0098
1301.00,0.0098
1300.00,0.0098
1299.00,0.0098
1298.00,0.0099
1297.00,0.0099
1296.00,0.0099
1295.00,0.0100
1294.00,0.0100
1293.00,0.0101
1292.00,0.0101
1291.00,0.0101
1290.00,0.0102
1289.00,0.0102
1288.00,0.0102
1287.00,0.0103
1286.00,0.0103
1285.00,0.0103
1284.00,0.0104
1283.00,0.0104
1282.00,0.0104
1281.00,0.0105
1280.00,0.0105
1279.00,0.0106
1278.00,0.0106
1277.00,0.0106
1276.00,0.0106
1275.00,0.0106
1274.00,0.0106
1273.00,0.0107
1272.00,0.0107
1271.00,0.0107
1270.00,0.0107
1269.00,0.0108
1268.00,0.0109
1267.00,0.0110
1266.00,0.0110
1265.00,0.0111
1264.00,0.0111
1263.00,0.0112
1262.00,0.0112
1261.00,0.0112
1260.00,0.0113
1259.00,0.0113
1258.00,0.0114
1257.00,0.0114
1256.00,0.0114
1255.00,0.0115
1254.00,0.0116
1253.00,0.0117
1252.00,0.0118
1251.00,0.0119
1250.00,0.0119
1249.00,0.0120
1248.00,0.0121
1247.00,0.0122
1246.00,0.0122
1245.00,0.0123
1244.00,0.0123
1243.00,0.0124
1242.00,0.0125
1241.00,0.0125
1240.00,0.0126
1239.00,0.0127
1238.00,0.0127
1237.00,0.0128
1236.00,0.0128
1235.00,0.0128
1234.00,0.0128
1233.00,0.0129
1232.00,0.0129
1231.00,0.0129
1230.00,0.0129
1229.00,0.0129
1228.00,0.0129
1227.00,0.0129
1226.00,0.0129
1225.00,0.0129
1224.00,0.0128
1223.00,0.0128
1222.00,0.0127
1221.00,0.0127
1220.00,0.0126
1219.00,0.0126
1218.00,0.0125
1217.00,0.0124
1216.00,0.0124
1215.00,0.0123
1214.00,0.0123
1213.00,0.0122
1212.00,0.0121
1211.00,0.0120
1210.00,0.0119
1209.00,0.0119
1208.00,0.0118
1207.00,0.0118
1206.00,0.0117
1205.00,0.0116
1204.00,0.0116
1203.00,0.0115
1202.00,0.0115
1201.00,0.0115
1200.00,0.0115
1199.00,0.0115
1198.00,0.0115
1197.00,0.0115
1196.00,0.0116
1195.00,0.0116
1194.00,0.0116
1193.00,0.0116
1192.00,0.0116
1191.00,0.0116
1190.00,0.0116
1189.00,0.0117
1188.00,0.0117
1187.00,0.0117
1186.00,0.0118
1185.00,0.0118
1184.00,0.0119
1183.00,0.0119
1182.00,0.0119
1181.00,0.0120
1180.00,0.0120
1179.00,0.0121
1178.00,0.0121
1177.00,0.0122
1176.00,0.0123
1175.00,0.0124
1174.00,0.0125
1173.00,0.0127
1172.00,0.0127
1171.00,0.0128
1170.00,0.0128
1169.00,0.0128
1168.00,0.0128
1167.00,0.0128
1166.00,0.0128
1165.00,0.0128
1164.00,0.0128
1163.00,0.0128
1162.00,0.0128
1161.00,0.0128
1160.00,0.0128
1159.00,0.0128
1158.00,0.0128
1157.00,0.0128
1156.00,0.0128
1155.00,0.0128
1154.00,0.0127
1153.00,0.0127
1152.00,0.0126
1151.00,0.0125
1150.00,0.0125
1149.00,0.0124
1148.00,0.0123
1147.00,0.0123
1146.00,0.0122
1145.00,0.0121
1144.00,0.0121
1143.00,0.0120
1142.00,0.0120
1141.00,0.0120
1140.00,0.0119
1139.00,0.0119
1138.00,0.0118
1137.00,0.0118
1136.00,0.0118
1135.00,0.0117
1134.00,0.0117
1133.00,0.0118
1132.00,0.0118
1131.00,0.0118
1130.00,0.0118
1129.00,0.0119
1128.00,0.0119
1127.00,0.0119
1126.00,0.0119
1125.00,0.0119
1124.00,0.0119
1123.00,0.0119
1122.00,0.0119
1121.00,0.0119
1120.00,0.0119
1119.00,0.0119
1118.00,0.0119
1117.00,0.0119
1116.00,0.0119
1115.00,0.0119
1114.00,0.0119
1113.00,0.0119
1112.00,0.0119
1111.00,0.0119
1110.00,0.0119
1109.00,0.0119
1108.00,0.0119
1107.00,0.0120
1106.00,0.0120
1105.00,0.0121
1104.00,0.0121
1103.00,0.0122
1102.00,0.0122
1101.00,0.0122
1100.00,0.0122
1099.00,0.0122
1098.00,0.0122
1097.00,0.0122
1096.00,0.0122
1095.00,0.0122
1094.00,0.0122
1093.00,0.0122
1092.00,0.0122
1091.00,0.0123
1090.00,0.0123
1089.00,0.0124
1088.00,0.0125
1087.00,0.0126
1086.00,0.0126
1085.00,0.0126
1084.00,0.0127
1083.00,0.0128
1082.00,0.0129
1081.00,0.0129
1080.00,0.0129
1079.00,0.0130
1078.00,0.0130
1077.00,0.0131
1076.00,0.0131
1075.00,0.0130
1074.00,0.0130
1073.00,0.0130
1072.00,0.0129
1071.00,0.0129
1070.00,0.0129
1069.00,0.0128
1068.00,0.0128
1067.00,0.0127
1066.00,0.0127
1065.00,0.0127
1064.00,0.0127
1063.00,0.0127
1062.00,0.0127
1061.00,0.0128
1060.00,0.0127
1059.00,0.0128
1058.00,0.0128
1057.00,0.0128
1056.00,0.0128
1055.00,0.0128
1054.00,0.0128
1053.00,0.0128
1052.00,0.0128
1051.00,0.0127
1050.00,0.0127
1049.00,0.0126
1048.00,0.0126
1047.00,0.0126
1046.00,0.0126
1045.00,0.0126
1044.00,0.0126
1043.00,0.0125
1042.00,0.0125
1041.00,0.0125
1040.00,0.0124
1039.00,0.0124
1038.00,0.0124
1037.00,0.0124
1036.00,0.0124
1035.00,0.0124
1034.00,0.0124
1033.00,0.0124
1032.00,0.0124
1031.00,0.0124
1030.00,0.0123
1029.00,0.0123
1028.00,0.0123
1027.00,0.0123
1026.00,0.0123
1025.00,0.0123
1024.00,0.0123
1023.00,0.0122
1022.00,0.0122
1021.00,0.0121
1020.00,0.0120
1019.00,0.0120
1018.00,0.0119
1017.00,0.0118
1016.00,0.0117
1015.00,0.0116
1014.00,0.0115
1013.00,0.0114
1012.00,0.0113
1011.00,0.0112
1010.00,0.0111
1009.00,0.0110
1008.00,0.0109
1007.00,0.0109
1006.00,0.0109
1005.00,0.0108
1004.00,0.0108
1003.00,0.0107
1002.00,0.0106
1001.00,0.0105
1000.00,0.0105
999.00,0.0104
998.00,0.0104
997.00,0.0104
996.00,0.0103
995.00,0.0102
994.00,0.0101
993.00,0.0100
992.00,0.0099
991.00,0.0099
990.00,0.0099
989.00,0.0098
988.00,0.0098
987.00,0.0098
986.00,0.0097
985.00,0.0096
984.00,0.0096
983.00,0.0095
982.00,0.0094
981.00,0.0093
980.00,0.0093
979.00,0.0093
978.00,0.0092
977.00,0.0092
976.00,0.0091
975.00,0.0091
974.00,0.0090
973.00,0.0090
972.00,0.0090
971.00,0.0089
970.00,0.0089
969.00,0.0089
968.00,0.0089
967.00,0.0088
966.00,0.0088
965.00,0.0088
964.00,0.0088
963.00,0.0088
962.00,0.0087
961.00,0.0087
960.00,0.0087
959.00,0.0087
958.00,0.0087
957.00,0.0087
956.00,0.0087
955.00,0.0087
954.00,0.0086
953.00,0.0086
952.00,0.0086
951.00,0.0086
950.00,0.0086
949.00,0.0086
948.00,0.0086
947.00,0.0086
946.00,0.0086
945.00,0.0086
944.00,0.0086
943.00,0.0086
942.00,0.0086
941.00,0.0087
940.00,0.0087
939.00,0.0087
938.00,0.0087
937.00,0.0087
936.00,0.0088
935.00,0.0088
934.00,0.0088
933.00,0.0089
932.00,0.0089
931.00,0.0089
930.00,0.0089
929.00,0.0089
928.00,0.0089
927.00,0.0088
926.00,0.0088
925.00,0.0088
924.00,0.0088
923.00,0.0088
922.00,0.0088
921.00,0.0088
920.00,0.0088
919.00,0.0088
918.00,0.0088
917.00,0.0087
916.00,0.0087
915.00,0.0086
914.00,0.0086
913.00,0.0086
912.00,0.0086
911.00,0.0086
910.00,0.0086
909.00,0.0086
908.00,0.0086
907.00,0.0086
906.00,0.0086
905.00,0.0086
904.00,0.0085
903.00,0.0085
902.00,0.0085
901.00,0.0085
900.00,0.0085
899.00,0.0085
898.00,0.0085
897.00,0.0085
896.00,0.0085
895.00,0.0084
894.00,0.0084
893.00,0.0084
892.00,0.0084
891.00,0.0084
890.00,0.0084
889.00,0.0084
888.00,0.0084
887.00,0.0084
886.00,0.0084
885.00,0.0084
884.00,0.0083
883.00,0.0083
882.00,0.0083
881.00,0.0084
880.00,0.0084
879.00,0.0084
878.00,0.0084
877.00,0.0084
876.00,0.0083
875.00,0.0083
874.00,0.0082
873.00,0.0082
872.00,0.0082
871.00,0.0082
870.00,0.0082
869.00,0.0082
868.00,0.0081
867.00,0.0081
866.00,0.0081
865.00,0.0081
864.00,0.0082
863.00,0.0083
862.00,0.0083
861.00,0.0083
860.00,0.0083
859.00,0.0084
858.00,0.0084
857.00,0.0084
856.00,0.0084
855.00,0.0084
854.00,0.0084
853.00,0.0084
852.00,0.0085
851.00,0.0085
850.00,0.0086
849.00,0.0086
848.00,0.0086
847.00,0.0086
846.00,0.0086
845.00,0.0086
844.00,0.0085
843.00,0.0086
842.00,0.0086
841.00,0.0087
840.00,0.0087
839.00,0.0088
838.00,0.0088
837.00,0.0089
836.00,0.0089
835.00,0.0089
834.00,0.0090
833.00,0.0091
832.00,0.0091
831.00,0.0092
830.00,0.0092
829.00,0.0092
828.00,0.0092
827.00,0.0092
826.00,0.0092
825.00,0.0092
824.00,0.0092
823.00,0.0092
822.00,0.0092
821.00,0.0092
820.00,0.0093
819.00,0.0093
818.00,0.0093
817.00,0.0093
816.00,0.0094
815.00,0.0094
814.00,0.0095
813.00,0.0095
812.00,0.0095
811.00,0.0095
810.00,0.0095
809.00,0.0096
808.00,0.0096
807.00,0.0097
806.00,0.0098
805.00,0.0098
804.00,0.0098
803.00,0.0098
802.00,0.0098
801.00,0.0098
800.00,0.0099
799.00,0.0099
798.00,0.0100
797.00,0.0100
796.00,0.0101
795.00,0.0101
794.00,0.0101
793.00,0.0101
792.00,0.0102
791.00,0.0103
790.00,0.0103
789.00,0.0104
788.00,0.0104
787.00,0.0105
786.00,0.0105
785.00,0.0106
784.00,0.0106
783.00,0.0107
782.00,0.0108
781.00,0.0109
780.00,0.0109
779.00,0.0110
778.00,0.0111
777.00,0.0112
776.00,0.0112
775.00,0.0112
774.00,0.0112
773.00,0.0112
772.00,0.0112
771.00,0.0113
770.00,0.0113
769.00,0.0113
768.00,0.0113
767.00,0.0114
766.00,0.0115
765.00,0.0115
764.00,0.0116
763.00,0.0116
762.00,0.0117
761.00,0.0118
760.00,0.0118
759.00,0.0118
758.00,0.0119
757.00,0.0119
756.00,0.0120
755.00,0.0120
754.00,0.0121
753.00,0.0122
752.00,0.0122
751.00,0.0123
750.00,0.0123
749.00,0.0123
748.00,0.0124
747.00,0.0125
746.00,0.0127
745.00,0.0128
744.00,0.0128
743.00,0.0129
742.00,0.0129
741.00,0.0129
740.00,0.0129
739.00,0.0129
738.00,0.0129
737.00,0.0130
736.00,0.0130
735.00,0.0130
734.00,0.0131
733.00,0.0131
732.00,0.0132
731.00,0.0132
730.00,0.0132
729.00,0.0132
728.00,0.0133
727.00,0.0133
726.00,0.0134
725.00,0.0136
724.00,0.0137
723.00,0.0138
722.00,0.0139
721.00,0.0140
720.00,0.0141
719.00,0.0143
718.00,0.0144
717.00,0.0145
716.00,0.0146
715.00,0.0147
714.00,0.0148
713.00,0.0149
712.00,0.0150
711.00,0.0151
710.00,0.0152
709.00,0.0153
708.00,0.0154
707.00,0.0156
706.00,0.0158
705.00,0.0160
704.00,0.0162
703.00,0.0163
702.00,0.0164
701.00,0.0165
700.00,0.0165
699.00,0.0165
698.00,0.0166
697.00,0.0166
696.00,0.0167
695.00,0.0168
694.00,0.0169
693.00,0.0169
692.00,0.0169
691.00,0.0169
690.00,0.0168
689.00,0.0168
688.00,0.0169
687.00,0.0169
686.00,0.0169
685.00,0.0170
684.00,0.0171
683.00,0.0172
682.00,0.0172
681.00,0.0173
680.00,0.0173
679.00,0.0173
678.00,0.0174
677.00,0.0174
676.00,0.0175
675.00,0.0175
674.00,0.0176
673.00,0.0177
672.00,0.0177
671.00,0.0178
670.00,0.0179
669.00,0.0179
668.00,0.0178
667.00,0.0178
666.00,0.0179
665.00,0.0180
664.00,0.0181
663.00,0.0182
662.00,0.0182
661.00,0.0182
660.00,0.0182
659.00,0.0182
658.00,0.0183
657.00,0.0184
656.00,0.0185
655.00,0.0186
654.00,0.0187
653.00,0.0187
652.00,0.0188
651.00,0.0188
650.00,0.0189
649.00,0.0189
648.00,0.0190
647.00,0.0189
646.00,0.0189
645.00,0.0190
644.00,0.0191
643.00,0.0192
642.00,0.0193
641.00,0.0193
640.00,0.0193
639.00,0.0193
638.00,0.0193
637.00,0.0193
636.00,0.0194
635.00,0.0195
634.00,0.0196
633.00,0.0197
632.00,0.0199
631.00,0.0201
630.00,0.0202
629.00,0.0203
628.00,0.0204
627.00,0.0204
626.00,0.0205
625.00,0.0205
624.00,0.0205
623.00,0.0206
622.00,0.0206
621.00,0.0206
620.00,0.0206
619.00,0.0205
618.00,0.0205
617.00,0.0204
616.00,0.0205
615.00,0.0205
614.00,0.0207
613.00,0.0208
612.00,0.0209
611.00,0.0210
610.00,0.0211
609.00,0.0213
608.00,0.0214
607.00,0.0213
606.00,0.0212
605.00,0.0211
604.00,0.0210
603.00,0.0209
602.00,0.0209
601.00,0.0209
600.00,0.0210
599.00,0.0212
598.00,0.0212
597.00,0.0213
596.00,0.0213
595.00,0.0213
594.00,0.0212
593.00,0.0213
592.00,0.0213
591.00,0.0215
590.00,0.0216
589.00,0.0217
588.00,0.0217
587.00,0.0217
586.00,0.0216
585.00,0.0215
584.00,0.0216
583.00,0.0216
582.00,0.0217
581.00,0.0217
580.00,0.0218
579.00,0.0220
578.00,0.0221
577.00,0.0221
576.00,0.0221
575.00,0.0221
574.00,0.0221
573.00,0.0222
572.00,0.0223
571.00,0.0224
570.00,0.0224
569.00,0.0225
568.00,0.0225
567.00,0.0224
566.00,0.0224
565.00,0.0224
564.00,0.0226
563.00,0.0228
562.00,0.0229
561.00,0.0229
560.00,0.0229
559.00,0.0228
558.00,0.0227
557.00,0.0228
556.00,0.0229
555.00,0.0230
554.00,0.0230
553.00,0.0231
552.00,0.0232
551.00,0.0233
550.00,0.0233
549.00,0.0233
548.00,0.0233
547.00,0.0234
546.00,0.0235
545.00,0.0236
544.00,0.0237
543.00,0.0237
542.00,0.0237
541.00,0.0237
540.00,0.0237
539.00,0.0238
538.00,0.0239
537.00,0.0239
536.00,0.0240
535.00,0.0241
534.00,0.0243
533.00,0.0244
532.00,0.0244
531.00,0.0243
530.00,0.0241
529.00,0.0240
528.00,0.0241
527.00,0.0242
526.00,0.0243
525.00,0.0243
524.00,0.0242
523.00,0.0241
522.00,0.0240
521.00,0.0240
520.00,0.0241
519.00,0.0242
518.00,0.0242
517.00,0.0241
516.00,0.0240
515.00,0.0239
514.00,0.0238
513.00,0.0239
512.00,0.0240
511.00,0.0241
510.00,0.0243
509.00,0.0243
508.00,0.0243
507.00,0.0242
506.00,0.0240
505.00,0.0239
504.00,0.0239
503.00,0.0240
502.00,0.0242
501.00,0.0243
500.00,0.0243
499.00,0.0242
498.00,0.0242
497.00,0.0241
496.00,0.0241
495.00,0.0240
494.00,0.0239
493.00,0.0240
492.00,0.0242
491.00,0.0244
490.00,0.0244
489.00,0.0243
488.00,0.0242
487.00,0.0242
486.00,0.0241
485.00,0.0240
484.00,0.0240
483.00,0.0240
482.00,0.0239
481.00,0.0240
480.00,0.0240
479.00,0.0241
478.00,0.0242
477.00,0.0243
476.00,0.0244
475.00,0.0244
474.00,0.0243
473.00,0.0241
472.00,0.0240
471.00,0.0241
470.00,0.0242
469.00,0.0242
468.00,0.0240
467.00,0.0239
466.00,0.0238
465.00,0.0238
464.00,0.0240
463.00,0.0242
462.00,0.0244
461.00,0.0244
460.00,0.0243
459.00,0.0242
458.00,0.0241
457.00,0.0242
456.00,0.0242
455.00,0.0242
454.00,0.0240
453.00,0.0240
452.00,0.0241
451.00,0.0242
450.00,0.0242
449.00,0.0242
448.00,0.0243
447.00,0.0243
446.00,0.0242
445.00,0.0241
444.00,0.0240
443.00,0.0240
442.00,0.0240
441.00,0.0240
440.00,0.0240
439.00,0.0239
438.00,0.0239
437.00,0.0239
436.00,0.0241
435.00,0.0243
434.00,0.0244
433.00,0.0243
432.00,0.0240
431.00,0.0237
430.00,0.0238
429.00,0.0242
428.00,0.0246
427.00,0.0246
426.00,0.0242
425.00,0.0236
424.00,0.0232
423.00,0.0231
422.00,0.0233
421.00,0.0237
420.00,0.0242
419.00,0.0244
418.00,0.0242
417.00,0.0238
416.00,0.0235
415.00,0.0233
414.00,0.0233
413.00,0.0236
412.00,0.0238
411.00,0.0236
410.00,0.0232
409.00,0.0229
408.00,0.0229
407.00,0.0230
406.00,0.0227
405.00,0.0224
404.00,0.0225
403.00,0.0231
402.00,0.0240
401.00,0.0249
400.00,0.0253
