Created as New Dataset,Sample 938 By YargerLab Date Monday, July 28 2025
cm-1,A
4000.00,0.0037
3999.00,0.0037
3998.00,0.0037
3997.00,0.0037
3996.00,0.0037
3995.00,0.0037
3994.00,0.0037
3993.00,0.0037
3992.00,0.0037
3991.00,0.0037
3990.00,0.0037
3989.00,0.0037
3988.00,0.0037
3987.00,0.0038
3986.00,0.0038
3985.00,0.0038
3984.00,0.0038
3983.00,0.0037
3982.00,0.0037
3981.00,0.0037
3980.00,0.0037
3979.00,0.0037
3978.00,0.0037
3977.00,0.0037
3976.00,0.0037
3975.00,0.0037
3974.00,0.0037
3973.00,0.0037
3972.00,0.0037
3971.00,0.0037
3970.00,0.0037
3969.00,0.0037
3968.00,0.0037
3967.00,0.0037
3966.00,0.0037
3965.00,0.0037
3964.00,0.0037
3963.00,0.0037
3962.00,0.0036
3961.00,0.0036
3960.00,0.0036
3959.00,0.0037
3958.00,0.0037
3957.00,0.0037
3956.00,0.0037
3955.00,0.0037
3954.00,0.0036
3953.00,0.0036
3952.00,0.0036
3951.00,0.0036
3950.00,0.0036
3949.00,0.0036
3948.00,0.0037
3947.00,0.0037
3946.00,0.0037
3945.00,0.0036
3944.00,0.0036
3943.00,0.0037
3942.00,0.0037
3941.00,0.0037
3940.00,0.0037
3939.00,0.0036
3938.00,0.0036
3937.00,0.0036
3936.00,0.0036
3935.00,0.0036
3934.00,0.0036
3933.00,0.0036
3932.00,0.0036
3931.00,0.0036
3930.00,0.0036
3929.00,0.0036
3928.00,0.0036
3927.00,0.0036
3926.00,0.0036
3925.00,0.0036
3924.00,0.0036
3923.00,0.0036
3922.00,0.0036
3921.00,0.0036
3920.00,0.0036
3919.00,0.0036
3918.00,0.0036
3917.00,0.0036
3916.00,0.0036
3915.00,0.0036
3914.00,0.0036
3913.00,0.0036
3912.00,0.0036
3911.00,0.0036
3910.00,0.0036
3909.00,0.0036
3908.00,0.0036
3907.00,0.0036
3906.00,0.0036
3905.00,0.0035
3904.00,0.0035
3903.00,0.0035
3902.00,0.0035
3901.00,0.0035
3900.00,0.0035
3899.00,0.0035
3898.00,0.0036
3897.00,0.0036
3896.00,0.0036
3895.00,0.0036
3894.00,0.0036
3893.00,0.0036
3892.00,0.0036
3891.00,0.0036
3890.00,0.0036
3889.00,0.0036
3888.00,0.0036
3887.00,0.0035
3886.00,0.0035
3885.00,0.0035
3884.00,0.0035
3883.00,0.0035
3882.00,0.0035
3881.00,0.0035
3880.00,0.0035
3879.00,0.0036
3878.00,0.0036
3877.00,0.0036
3876.00,0.0035
3875.00,0.0035
3874.00,0.0035
3873.00,0.0035
3872.00,0.0035
3871.00,0.0035
3870.00,0.0035
3869.00,0.0035
3868.00,0.0035
3867.00,0.0035
3866.00,0.0035
3865.00,0.0035
3864.00,0.0035
3863.00,0.0035
3862.00,0.0035
3861.00,0.0035
3860.00,0.0035
3859.00,0.0035
3858.00,0.0036
3857.00,0.0036
3856.00,0.0036
3855.00,0.0036
3854.00,0.0036
3853.00,0.0036
3852.00,0.0036
3851.00,0.0036
3850.00,0.0035
3849.00,0.0035
3848.00,0.0035
3847.00,0.0035
3846.00,0.0035
3845.00,0.0035
3844.00,0.0035
3843.00,0.0035
3842.00,0.0035
3841.00,0.0035
3840.00,0.0035
3839.00,0.0035
3838.00,0.0035
3837.00,0.0035
3836.00,0.0035
3835.00,0.0035
3834.00,0.0035
3833.00,0.0035
3832.00,0.0035
3831.00,0.0035
3830.00,0.0036
3829.00,0.0036
3828.00,0.0036
3827.00,0.0036
3826.00,0.0036
3825.00,0.0036
3824.00,0.0035
3823.00,0.0035
3822.00,0.0034
3821.00,0.0035
3820.00,0.0035
3819.00,0.0035
3818.00,0.0035
3817.00,0.0035
3816.00,0.0035
3815.00,0.0035
3814.00,0.0036
3813.00,0.0036
3812.00,0.0036
3811.00,0.0036
3810.00,0.0036
3809.00,0.0036
3808.00,0.0035
3807.00,0.0035
3806.00,0.0035
3805.00,0.0035
3804.00,0.0035
3803.00,0.0034
3802.00,0.0034
3801.00,0.0035
3800.00,0.0035
3799.00,0.0035
3798.00,0.0035
3797.00,0.0035
3796.00,0.0035
3795.00,0.0035
3794.00,0.0035
3793.00,0.0035
3792.00,0.0036
3791.00,0.0036
3790.00,0.0036
3789.00,0.0036
3788.00,0.0036
3787.00,0.0036
3786.00,0.0036
3785.00,0.0036
3784.00,0.0036
3783.00,0.0036
3782.00,0.0035
3781.00,0.0035
3780.00,0.0035
3779.00,0.0036
3778.00,0.0036
3777.00,0.0036
3776.00,0.0036
3775.00,0.0035
3774.00,0.0035
3773.00,0.0035
3772.00,0.0035
3771.00,0.0035
3770.00,0.0035
3769.00,0.0036
3768.00,0.0036
3767.00,0.0036
3766.00,0.0036
3765.00,0.0035
3764.00,0.0035
3763.00,0.0035
3762.00,0.0035
3761.00,0.0035
3760.00,0.0035
3759.00,0.0036
3758.00,0.0036
3757.00,0.0036
3756.00,0.0036
3755.00,0.0035
3754.00,0.0035
3753.00,0.0035
3752.00,0.0035
3751.00,0.0034
3750.00,0.0034
3749.00,0.0034
3748.00,0.0034
3747.00,0.0034
3746.00,0.0034
3745.00,0.0034
3744.00,0.0034
3743.00,0.0034
3742.00,0.0034
3741.00,0.0034
3740.00,0.0034
3739.00,0.0034
3738.00,0.0034
3737.00,0.0033
3736.00,0.0033
3735.00,0.0033
3734.00,0.0033
3733.00,0.0033
3732.00,0.0033
3731.00,0.0034
3730.00,0.0034
3729.00,0.0034
3728.00,0.0034
3727.00,0.0034
3726.00,0.0034
3725.00,0.0035
3724.00,0.0035
3723.00,0.0035
3722.00,0.0035
3721.00,0.0035
3720.00,0.0035
3719.00,0.0035
3718.00,0.0035
3717.00,0.0035
3716.00,0.0034
3715.00,0.0034
3714.00,0.0034
3713.00,0.0034
3712.00,0.0034
3711.00,0.0034
3710.00,0.0034
3709.00,0.0034
3708.00,0.0034
3707.00,0.0034
3706.00,0.0034
3705.00,0.0034
3704.00,0.0034
3703.00,0.0034
3702.00,0.0035
3701.00,0.0035
3700.00,0.0035
3699.00,0.0035
3698.00,0.0035
3697.00,0.0035
3696.00,0.0035
3695.00,0.0035
3694.00,0.0035
3693.00,0.0035
3692.00,0.0035
3691.00,0.0035
3690.00,0.0035
3689.00,0.0036
3688.00,0.0036
3687.00,0.0036
3686.00,0.0037
3685.00,0.0037
3684.00,0.0037
3683.00,0.0037
3682.00,0.0037
3681.00,0.0037
3680.00,0.0037
3679.00,0.0037
3678.00,0.0037
3677.00,0.0037
3676.00,0.0037
3675.00,0.0038
3674.00,0.0038
3673.00,0.0038
3672.00,0.0038
3671.00,0.0038
3670.00,0.0039
3669.00,0.0039
3668.00,0.0039
3667.00,0.0039
3666.00,0.0039
3665.00,0.0040
3664.00,0.0040
3663.00,0.0040
3662.00,0.0041
3661.00,0.0041
3660.00,0.0041
3659.00,0.0041
3658.00,0.0041
3657.00,0.0041
3656.00,0.0041
3655.00,0.0042
3654.00,0.0042
3653.00,0.0042
3652.00,0.0042
3651.00,0.0042
3650.00,0.0042
3649.00,0.0043
3648.00,0.0043
3647.00,0.0044
3646.00,0.0044
3645.00,0.0045
3644.00,0.0045
3643.00,0.0045
3642.00,0.0045
3641.00,0.0046
3640.00,0.0046
3639.00,0.0047
3638.00,0.0047
3637.00,0.0048
3636.00,0.0048
3635.00,0.0048
3634.00,0.0048
3633.00,0.0048
3632.00,0.0049
3631.00,0.0049
3630.00,0.0049
3629.00,0.0050
3628.00,0.0051
3627.00,0.0052
3626.00,0.0052
3625.00,0.0053
3624.00,0.0053
3623.00,0.0054
3622.00,0.0054
3621.00,0.0055
3620.00,0.0055
3619.00,0.0055
3618.00,0.0056
3617.00,0.0056
3616.00,0.0057
3615.00,0.0058
3614.00,0.0058
3613.00,0.0059
3612.00,0.0060
3611.00,0.0060
3610.00,0.0061
3609.00,0.0062
3608.00,0.0062
3607.00,0.0063
3606.00,0.0064
3605.00,0.0065
3604.00,0.0066
3603.00,0.0067
3602.00,0.0068
3601.00,0.0068
3600.00,0.0069
3599.00,0.0070
3598.00,0.0070
3597.00,0.0071
3596.00,0.0071
3595.00,0.0072
3594.00,0.0073
3593.00,0.0074
3592.00,0.0075
3591.00,0.0076
3590.00,0.0077
3589.00,0.0078
3588.00,0.0079
3587.00,0.0080
3586.00,0.0081
3585.00,0.0082
3584.00,0.0083
3583.00,0.0084
3582.00,0.0085
3581.00,0.0085
3580.00,0.0086
3579.00,0.0087
3578.00,0.0088
3577.00,0.0089
3576.00,0.0090
3575.00,0.0091
3574.00,0.0092
3573.00,0.0093
3572.00,0.0095
3571.00,0.0096
3570.00,0.0096
3569.00,0.0097
3568.00,0.0097
3567.00,0.0098
3566.00,0.0099
3565.00,0.0100
3564.00,0.0101
3563.00,0.0102
3562.00,0.0103
3561.00,0.0105
3560.00,0.0106
3559.00,0.0107
3558.00,0.0108
3557.00,0.0109
3556.00,0.0109
3555.00,0.0110
3554.00,0.0111
3553.00,0.0112
3552.00,0.0113
3551.00,0.0114
3550.00,0.0115
3549.00,0.0116
3548.00,0.0117
3547.00,0.0118
3546.00,0.0119
3545.00,0.0120
3544.00,0.0121
3543.00,0.0121
3542.00,0.0121
3541.00,0.0122
3540.00,0.0123
3539.00,0.0124
3538.00,0.0125
3537.00,0.0125
3536.00,0.0126
3535.00,0.0127
3534.00,0.0127
3533.00,0.0128
3532.00,0.0129
3531.00,0.0129
3530.00,0.0130
3529.00,0.0131
3528.00,0.0131
3527.00,0.0132
3526.00,0.0132
3525.00,0.0133
3524.00,0.0133
3523.00,0.0134
3522.00,0.0134
3521.00,0.0135
3520.00,0.0135
3519.00,0.0136
3518.00,0.0137
3517.00,0.0138
3516.00,0.0139
3515.00,0.0139
3514.00,0.0140
3513.00,0.0140
3512.00,0.0140
3511.00,0.0141
3510.00,0.0141
3509.00,0.0142
3508.00,0.0142
3507.00,0.0143
3506.00,0.0144
3505.00,0.0144
3504.00,0.0145
3503.00,0.0146
3502.00,0.0146
3501.00,0.0147
3500.00,0.0147
3499.00,0.0147
3498.00,0.0148
3497.00,0.0149
3496.00,0.0149
3495.00,0.0150
3494.00,0.0151
3493.00,0.0151
3492.00,0.0152
3491.00,0.0153
3490.00,0.0153
3489.00,0.0154
3488.00,0.0155
3487.00,0.0155
3486.00,0.0156
3485.00,0.0157
3484.00,0.0157
3483.00,0.0158
3482.00,0.0159
3481.00,0.0159
3480.00,0.0160
3479.00,0.0160
3478.00,0.0161
3477.00,0.0161
3476.00,0.0162
3475.00,0.0163
3474.00,0.0163
3473.00,0.0164
3472.00,0.0164
3471.00,0.0165
3470.00,0.0166
3469.00,0.0167
3468.00,0.0167
3467.00,0.0168
3466.00,0.0169
3465.00,0.0169
3464.00,0.0170
3463.00,0.0170
3462.00,0.0171
3461.00,0.0171
3460.00,0.0171
3459.00,0.0172
3458.00,0.0172
3457.00,0.0173
3456.00,0.0173
3455.00,0.0174
3454.00,0.0174
3453.00,0.0175
3452.00,0.0175
3451.00,0.0176
3450.00,0.0176
3449.00,0.0176
3448.00,0.0177
3447.00,0.0177
3446.00,0.0178
3445.00,0.0178
3444.00,0.0179
3443.00,0.0179
3442.00,0.0179
3441.00,0.0179
3440.00,0.0180
3439.00,0.0180
3438.00,0.0180
3437.00,0.0181
3436.00,0.0181
3435.00,0.0182
3434.00,0.0182
3433.00,0.0183
3432.00,0.0183
3431.00,0.0183
3430.00,0.0184
3429.00,0.0184
3428.00,0.0185
3427.00,0.0185
3426.00,0.0185
3425.00,0.0185
3424.00,0.0186
3423.00,0.0186
3422.00,0.0186
3421.00,0.0186
3420.00,0.0187
3419.00,0.0187
3418.00,0.0188
3417.00,0.0188
3416.00,0.0188
3415.00,0.0189
3414.00,0.0189
3413.00,0.0189
3412.00,0.0189
3411.00,0.0189
3410.00,0.0190
3409.00,0.0190
3408.00,0.0190
3407.00,0.0190
3406.00,0.0191
3405.00,0.0191
3404.00,0.0191
3403.00,0.0190
3402.00,0.0190
3401.00,0.0190
3400.00,0.0190
3399.00,0.0190
3398.00,0.0190
3397.00,0.0190
3396.00,0.0190
3395.00,0.0190
3394.00,0.0189
3393.00,0.0189
3392.00,0.0189
3391.00,0.0188
3390.00,0.0188
3389.00,0.0188
3388.00,0.0188
3387.00,0.0188
3386.00,0.0188
3385.00,0.0188
3384.00,0.0188
3383.00,0.0187
3382.00,0.0187
3381.00,0.0186
3380.00,0.0186
3379.00,0.0185
3378.00,0.0185
3377.00,0.0185
3376.00,0.0185
3375.00,0.0185
3374.00,0.0184
3373.00,0.0184
3372.00,0.0183
3371.00,0.0182
3370.00,0.0181
3369.00,0.0181
3368.00,0.0181
3367.00,0.0181
3366.00,0.0181
3365.00,0.0182
3364.00,0.0182
3363.00,0.0182
3362.00,0.0182
3361.00,0.0182
3360.00,0.0182
3359.00,0.0182
3358.00,0.0182
3357.00,0.0182
3356.00,0.0182
3355.00,0.0182
3354.00,0.0181
3353.00,0.0181
3352.00,0.0180
3351.00,0.0180
3350.00,0.0180
3349.00,0.0180
3348.00,0.0181
3347.00,0.0181
3346.00,0.0181
3345.00,0.0180
3344.00,0.0180
3343.00,0.0179
3342.00,0.0179
3341.00,0.0179
3340.00,0.0178
3339.00,0.0178
3338.00,0.0178
3337.00,0.0178
3336.00,0.0179
3335.00,0.0179
3334.00,0.0180
3333.00,0.0180
3332.00,0.0180
3331.00,0.0180
3330.00,0.0179
3329.00,0.0179
3328.00,0.0179
3327.00,0.0178
3326.00,0.0178
3325.00,0.0178
3324.00,0.0178
3323.00,0.0178
3322.00,0.0179
3321.00,0.0179
3320.00,0.0179
3319.00,0.0179
3318.00,0.0179
3317.00,0.0179
3316.00,0.0179
3315.00,0.0179
3314.00,0.0179
3313.00,0.0179
3312.00,0.0178
3311.00,0.0177
3310.00,0.0176
3309.00,0.0175
3308.00,0.0175
3307.00,0.0174
3306.00,0.0174
3305.00,0.0175
3304.00,0.0176
3303.00,0.0177
3302.00,0.0178
3301.00,0.0179
3300.00,0.0179
3299.00,0.0179
3298.00,0.0178
3297.00,0.0178
3296.00,0.0177
3295.00,0.0177
3294.00,0.0177
3293.00,0.0177
3292.00,0.0178
3291.00,0.0178
3290.00,0.0179
3289.00,0.0180
3288.00,0.0180
3287.00,0.0180
3286.00,0.0180
3285.00,0.0179
3284.00,0.0179
3283.00,0.0179
3282.00,0.0179
3281.00,0.0179
3280.00,0.0178
3279.00,0.0178
3278.00,0.0178
3277.00,0.0177
3276.00,0.0177
3275.00,0.0176
3274.00,0.0175
3273.00,0.0174
3272.00,0.0174
3271.00,0.0174
3270.00,0.0174
3269.00,0.0174
3268.00,0.0174
3267.00,0.0174
3266.00,0.0174
3265.00,0.0174
3264.00,0.0173
3263.00,0.0173
3262.00,0.0172
3261.00,0.0172
3260.00,0.0171
3259.00,0.0171
3258.00,0.0170
3257.00,0.0170
3256.00,0.0169
3255.00,0.0168
3254.00,0.0168
3253.00,0.0168
3252.00,0.0167
3251.00,0.0167
3250.00,0.0166
3249.00,0.0165
3248.00,0.0165
3247.00,0.0164
3246.00,0.0164
3245.00,0.0164
3244.00,0.0164
3243.00,0.0163
3242.00,0.0163
3241.00,0.0163
3240.00,0.0162
3239.00,0.0161
3238.00,0.0161
3237.00,0.0160
3236.00,0.0159
3235.00,0.0158
3234.00,0.0158
3233.00,0.0157
3232.00,0.0157
3231.00,0.0157
3230.00,0.0157
3229.00,0.0157
3228.00,0.0157
3227.00,0.0156
3226.00,0.0155
3225.00,0.0155
3224.00,0.0154
3223.00,0.0153
3222.00,0.0153
3221.00,0.0152
3220.00,0.0152
3219.00,0.0151
3218.00,0.0151
3217.00,0.0150
3216.00,0.0150
3215.00,0.0149
3214.00,0.0148
3213.00,0.0148
3212.00,0.0148
3211.00,0.0147
3210.00,0.0147
3209.00,0.0147
3208.00,0.0146
3207.00,0.0145
3206.00,0.0145
3205.00,0.0144
3204.00,0.0143
3203.00,0.0142
3202.00,0.0142
3201.00,0.0141
3200.00,0.0141
3199.00,0.0141
3198.00,0.0140
3197.00,0.0140
3196.00,0.0139
3195.00,0.0138
3194.00,0.0137
3193.00,0.0136
3192.00,0.0136
3191.00,0.0135
3190.00,0.0134
3189.00,0.0134
3188.00,0.0133
3187.00,0.0132
3186.00,0.0132
3185.00,0.0131
3184.00,0.0130
3183.00,0.0130
3182.00,0.0129
3181.00,0.0129
3180.00,0.0128
3179.00,0.0127
3178.00,0.0127
3177.00,0.0126
3176.00,0.0125
3175.00,0.0125
3174.00,0.0124
3173.00,0.0123
3172.00,0.0123
3171.00,0.0122
3170.00,0.0121
3169.00,0.0121
3168.00,0.0120
3167.00,0.0120
3166.00,0.0119
3165.00,0.0119
3164.00,0.0118
3163.00,0.0117
3162.00,0.0117
3161.00,0.0116
3160.00,0.0115
3159.00,0.0115
3158.00,0.0114
3157.00,0.0113
3156.00,0.0113
3155.00,0.0112
3154.00,0.0111
3153.00,0.0110
3152.00,0.0110
3151.00,0.0109
3150.00,0.0109
3149.00,0.0108
3148.00,0.0108
3147.00,0.0107
3146.00,0.0107
3145.00,0.0107
3144.00,0.0106
3143.00,0.0105
3142.00,0.0105
3141.00,0.0104
3140.00,0.0104
3139.00,0.0103
3138.00,0.0103
3137.00,0.0102
3136.00,0.0102
3135.00,0.0102
3134.00,0.0102
3133.00,0.0101
3132.00,0.0101
3131.00,0.0100
3130.00,0.0100
3129.00,0.0100
3128.00,0.0099
3127.00,0.0099
3126.00,0.0099
3125.00,0.0099
3124.00,0.0098
3123.00,0.0098
3122.00,0.0097
3121.00,0.0097
3120.00,0.0097
3119.00,0.0096
3118.00,0.0096
3117.00,0.0096
3116.00,0.0096
3115.00,0.0096
3114.00,0.0095
3113.00,0.0095
3112.00,0.0095
3111.00,0.0095
3110.00,0.0095
3109.00,0.0094
3108.00,0.0094
3107.00,0.0094
3106.00,0.0094
3105.00,0.0094
3104.00,0.0094
3103.00,0.0093
3102.00,0.0093
3101.00,0.0092
3100.00,0.0092
3099.00,0.0092
3098.00,0.0092
3097.00,0.0092
3096.00,0.0092
3095.00,0.0092
3094.00,0.0092
3093.00,0.0092
3092.00,0.0092
3091.00,0.0092
3090.00,0.0092
3089.00,0.0092
3088.00,0.0092
3087.00,0.0092
3086.00,0.0092
3085.00,0.0092
3084.00,0.0092
3083.00,0.0092
3082.00,0.0092
3081.00,0.0092
3080.00,0.0092
3079.00,0.0092
3078.00,0.0092
3077.00,0.0092
3076.00,0.0092
3075.00,0.0092
3074.00,0.0091
3073.00,0.0091
3072.00,0.0091
3071.00,0.0091
3070.00,0.0091
3069.00,0.0090
3068.00,0.0090
3067.00,0.0090
3066.00,0.0090
3065.00,0.0090
3064.00,0.0090
3063.00,0.0090
3062.00,0.0090
3061.00,0.0090
3060.00,0.0090
3059.00,0.0090
3058.00,0.0090
3057.00,0.0089
3056.00,0.0089
3055.00,0.0089
3054.00,0.0089
3053.00,0.0089
3052.00,0.0089
3051.00,0.0089
3050.00,0.0089
3049.00,0.0088
3048.00,0.0088
3047.00,0.0088
3046.00,0.0087
3045.00,0.0087
3044.00,0.0087
3043.00,0.0087
3042.00,0.0087
3041.00,0.0087
3040.00,0.0087
3039.00,0.0088
3038.00,0.0088
3037.00,0.0088
3036.00,0.0088
3035.00,0.0088
3034.00,0.0088
3033.00,0.0088
3032.00,0.0088
3031.00,0.0087
3030.00,0.0087
3029.00,0.0088
3028.00,0.0088
3027.00,0.0088
3026.00,0.0088
3025.00,0.0087
3024.00,0.0087
3023.00,0.0087
3022.00,0.0087
3021.00,0.0087
3020.00,0.0088
3019.00,0.0088
3018.00,0.0088
3017.00,0.0088
3016.00,0.0088
3015.00,0.0089
3014.00,0.0089
3013.00,0.0090
3012.00,0.0091
3011.00,0.0093
3010.00,0.0094
3009.00,0.0096
3008.00,0.0097
3007.00,0.0099
3006.00,0.0101
3005.00,0.0103
3004.00,0.0105
3003.00,0.0107
3002.00,0.0110
3001.00,0.0112
3000.00,0.0115
2999.00,0.0118
2998.00,0.0121
2997.00,0.0124
2996.00,0.0127
2995.00,0.0131
2994.00,0.0134
2993.00,0.0138
2992.00,0.0142
2991.00,0.0146
2990.00,0.0150
2989.00,0.0153
2988.00,0.0157
2987.00,0.0161
2986.00,0.0165
2985.00,0.0169
2984.00,0.0174
2983.00,0.0179
2982.00,0.0183
2981.00,0.0187
2980.00,0.0191
2979.00,0.0195
2978.00,0.0198
2977.00,0.0201
2976.00,0.0204
2975.00,0.0207
2974.00,0.0211
2973.00,0.0216
2972.00,0.0220
2971.00,0.0224
2970.00,0.0228
2969.00,0.0231
2968.00,0.0234
2967.00,0.0236
2966.00,0.0239
2965.00,0.0241
2964.00,0.0244
2963.00,0.0246
2962.00,0.0248
2961.00,0.0249
2960.00,0.0250
2959.00,0.0251
2958.00,0.0250
2957.00,0.0249
2956.00,0.0248
2955.00,0.0246
2954.00,0.0244
2953.00,0.0242
2952.00,0.0240
2951.00,0.0238
2950.00,0.0236
2949.00,0.0235
2948.00,0.0234
2947.00,0.0233
2946.00,0.0232
2945.00,0.0232
2944.00,0.0232
2943.00,0.0232
2942.00,0.0233
2941.00,0.0234
2940.00,0.0235
2939.00,0.0237
2938.00,0.0240
2937.00,0.0243
2936.00,0.0247
2935.00,0.0251
2934.00,0.0255
2933.00,0.0260
2932.00,0.0264
2931.00,0.0269
2930.00,0.0272
2929.00,0.0276
2928.00,0.0279
2927.00,0.0281
2926.00,0.0282
2925.00,0.0282
2924.00,0.0281
2923.00,0.0279
2922.00,0.0276
2921.00,0.0274
2920.00,0.0270
2919.00,0.0267
2918.00,0.0263
2917.00,0.0258
2916.00,0.0253
2915.00,0.0248
2914.00,0.0243
2913.00,0.0238
2912.00,0.0233
2911.00,0.0228
2910.00,0.0224
2909.00,0.0220
2908.00,0.0216
2907.00,0.0213
2906.00,0.0210
2905.00,0.0207
2904.00,0.0205
2903.00,0.0203
2902.00,0.0201
2901.00,0.0200
2900.00,0.0198
2899.00,0.0197
2898.00,0.0196
2897.00,0.0196
2896.00,0.0195
2895.00,0.0195
2894.00,0.0195
2893.00,0.0194
2892.00,0.0194
2891.00,0.0194
2890.00,0.0193
2889.00,0.0193
2888.00,0.0192
2887.00,0.0192
2886.00,0.0192
2885.00,0.0192
2884.00,0.0192
2883.00,0.0192
2882.00,0.0192
2881.00,0.0192
2880.00,0.0193
2879.00,0.0193
2878.00,0.0193
2877.00,0.0194
2876.00,0.0195
2875.00,0.0195
2874.00,0.0195
2873.00,0.0195
2872.00,0.0195
2871.00,0.0194
2870.00,0.0193
2869.00,0.0192
2868.00,0.0191
2867.00,0.0190
2866.00,0.0189
2865.00,0.0189
2864.00,0.0189
2863.00,0.0189
2862.00,0.0190
2861.00,0.0191
2860.00,0.0193
2859.00,0.0194
2858.00,0.0195
2857.00,0.0196
2856.00,0.0195
2855.00,0.0194
2854.00,0.0192
2853.00,0.0189
2852.00,0.0186
2851.00,0.0182
2850.00,0.0177
2849.00,0.0171
2848.00,0.0165
2847.00,0.0159
2846.00,0.0153
2845.00,0.0148
2844.00,0.0143
2843.00,0.0138
2842.00,0.0134
2841.00,0.0129
2840.00,0.0126
2839.00,0.0122
2838.00,0.0120
2837.00,0.0117
2836.00,0.0115
2835.00,0.0113
2834.00,0.0111
2833.00,0.0109
2832.00,0.0107
2831.00,0.0105
2830.00,0.0103
2829.00,0.0101
2828.00,0.0100
2827.00,0.0098
2826.00,0.0097
2825.00,0.0095
2824.00,0.0094
2823.00,0.0092
2822.00,0.0090
2821.00,0.0089
2820.00,0.0088
2819.00,0.0087
2818.00,0.0086
2817.00,0.0085
2816.00,0.0084
2815.00,0.0083
2814.00,0.0082
2813.00,0.0082
2812.00,0.0081
2811.00,0.0080
2810.00,0.0080
2809.00,0.0079
2808.00,0.0079
2807.00,0.0078
2806.00,0.0078
2805.00,0.0078
2804.00,0.0077
2803.00,0.0077
2802.00,0.0076
2801.00,0.0076
2800.00,0.0075
2799.00,0.0075
2798.00,0.0075
2797.00,0.0075
2796.00,0.0074
2795.00,0.0074
2794.00,0.0074
2793.00,0.0073
2792.00,0.0073
2791.00,0.0072
2790.00,0.0072
2789.00,0.0071
2788.00,0.0071
2787.00,0.0071
2786.00,0.0071
2785.00,0.0071
2784.00,0.0070
2783.00,0.0070
2782.00,0.0070
2781.00,0.0069
2780.00,0.0069
2779.00,0.0069
2778.00,0.0069
2777.00,0.0068
2776.00,0.0068
2775.00,0.0068
2774.00,0.0068
2773.00,0.0067
2772.00,0.0067
2771.00,0.0067
2770.00,0.0067
2769.00,0.0066
2768.00,0.0066
2767.00,0.0066
2766.00,0.0066
2765.00,0.0066
2764.00,0.0066
2763.00,0.0066
2762.00,0.0066
2761.00,0.0065
2760.00,0.0065
2759.00,0.0065
2758.00,0.0064
2757.00,0.0064
2756.00,0.0064
2755.00,0.0064
2754.00,0.0064
2753.00,0.0064
2752.00,0.0064
2751.00,0.0064
2750.00,0.0064
2749.00,0.0064
2748.00,0.0064
2747.00,0.0064
2746.00,0.0064
2745.00,0.0064
2744.00,0.0064
2743.00,0.0064
2742.00,0.0064
2741.00,0.0064
2740.00,0.0064
2739.00,0.0064
2738.00,0.0064
2737.00,0.0064
2736.00,0.0064
2735.00,0.0064
2734.00,0.0064
2733.00,0.0064
2732.00,0.0064
2731.00,0.0064
2730.00,0.0064
2729.00,0.0063
2728.00,0.0063
2727.00,0.0063
2726.00,0.0063
2725.00,0.0063
2724.00,0.0063
2723.00,0.0063
2722.00,0.0062
2721.00,0.0062
2720.00,0.0062
2719.00,0.0062
2718.00,0.0062
2717.00,0.0062
2716.00,0.0062
2715.00,0.0061
2714.00,0.0061
2713.00,0.0061
2712.00,0.0061
2711.00,0.0061
2710.00,0.0061
2709.00,0.0060
2708.00,0.0060
2707.00,0.0060
2706.00,0.0060
2705.00,0.0060
2704.00,0.0060
2703.00,0.0059
2702.00,0.0059
2701.00,0.0059
2700.00,0.0059
2699.00,0.0059
2698.00,0.0059
2697.00,0.0059
2696.00,0.0059
2695.00,0.0058
2694.00,0.0058
2693.00,0.0058
2692.00,0.0058
2691.00,0.0058
2690.00,0.0058
2689.00,0.0058
2688.00,0.0058
2687.00,0.0058
2686.00,0.0057
2685.00,0.0057
2684.00,0.0057
2683.00,0.0057
2682.00,0.0057
2681.00,0.0057
2680.00,0.0056
2679.00,0.0056
2678.00,0.0057
2677.00,0.0057
2676.00,0.0057
2675.00,0.0057
2674.00,0.0057
2673.00,0.0057
2672.00,0.0057
2671.00,0.0057
2670.00,0.0057
2669.00,0.0057
2668.00,0.0057
2667.00,0.0058
2666.00,0.0058
2665.00,0.0059
2664.00,0.0059
2663.00,0.0059
2662.00,0.0060
2661.00,0.0060
2660.00,0.0061
2659.00,0.0061
2658.00,0.0061
2657.00,0.0061
2656.00,0.0062
2655.00,0.0062
2654.00,0.0062
2653.00,0.0061
2652.00,0.0061
2651.00,0.0061
2650.00,0.0062
2649.00,0.0062
2648.00,0.0062
2647.00,0.0062
2646.00,0.0062
2645.00,0.0061
2644.00,0.0061
2643.00,0.0061
2642.00,0.0061
2641.00,0.0061
2640.00,0.0061
2639.00,0.0061
2638.00,0.0061
2637.00,0.0060
2636.00,0.0060
2635.00,0.0060
2634.00,0.0060
2633.00,0.0060
2632.00,0.0060
2631.00,0.0059
2630.00,0.0059
2629.00,0.0059
2628.00,0.0059
2627.00,0.0058
2626.00,0.0058
2625.00,0.0058
2624.00,0.0058
2623.00,0.0058
2622.00,0.0058
2621.00,0.0058
2620.00,0.0058
2619.00,0.0057
2618.00,0.0057
2617.00,0.0057
2616.00,0.0057
2615.00,0.0057
2614.00,0.0057
2613.00,0.0057
2612.00,0.0057
2611.00,0.0057
2610.00,0.0057
2609.00,0.0057
2608.00,0.0057
2607.00,0.0057
2606.00,0.0056
2605.00,0.0056
2604.00,0.0056
2603.00,0.0056
2602.00,0.0056
2601.00,0.0056
2600.00,0.0056
2599.00,0.0055
2598.00,0.0055
2597.00,0.0055
2596.00,0.0055
2595.00,0.0055
2594.00,0.0055
2593.00,0.0055
2592.00,0.0055
2591.00,0.0055
2590.00,0.0056
2589.00,0.0056
2588.00,0.0056
2587.00,0.0056
2586.00,0.0056
2585.00,0.0056
2584.00,0.0056
2583.00,0.0055
2582.00,0.0055
2581.00,0.0055
2580.00,0.0055
2579.00,0.0055
2578.00,0.0055
2577.00,0.0055
2576.00,0.0055
2575.00,0.0054
2574.00,0.0054
2573.00,0.0054
2572.00,0.0054
2571.00,0.0054
2570.00,0.0054
2569.00,0.0054
2568.00,0.0054
2567.00,0.0054
2566.00,0.0054
2565.00,0.0054
2564.00,0.0054
2563.00,0.0054
2562.00,0.0054
2561.00,0.0054
2560.00,0.0053
2559.00,0.0053
2558.00,0.0053
2557.00,0.0052
2556.00,0.0052
2555.00,0.0052
2554.00,0.0052
2553.00,0.0052
2552.00,0.0052
2551.00,0.0052
2550.00,0.0052
2549.00,0.0052
2548.00,0.0051
2547.00,0.0051
2546.00,0.0050
2545.00,0.0050
2544.00,0.0050
2543.00,0.0050
2542.00,0.0050
2541.00,0.0050
2540.00,0.0050
2539.00,0.0050
2538.00,0.0050
2537.00,0.0050
2536.00,0.0050
2535.00,0.0050
2534.00,0.0050
2533.00,0.0050
2532.00,0.0049
2531.00,0.0049
2530.00,0.0049
2529.00,0.0049
2528.00,0.0049
2527.00,0.0048
2526.00,0.0048
2525.00,0.0048
2524.00,0.0048
2523.00,0.0048
2522.00,0.0048
2521.00,0.0048
2520.00,0.0048
2519.00,0.0048
2518.00,0.0048
2517.00,0.0048
2516.00,0.0048
2515.00,0.0047
2514.00,0.0047
2513.00,0.0047
2512.00,0.0047
2511.00,0.0047
2510.00,0.0047
2509.00,0.0047
2508.00,0.0047
2507.00,0.0047
2506.00,0.0047
2505.00,0.0047
2504.00,0.0047
2503.00,0.0047
2502.00,0.0046
2501.00,0.0046
2500.00,0.0046
2499.00,0.0046
2498.00,0.0046
2497.00,0.0046
2496.00,0.0046
2495.00,0.0046
2494.00,0.0046
2493.00,0.0046
2492.00,0.0046
2491.00,0.0046
2490.00,0.0046
2489.00,0.0046
2488.00,0.0046
2487.00,0.0046
2486.00,0.0046
2485.00,0.0046
2484.00,0.0046
2483.00,0.0046
2482.00,0.0045
2481.00,0.0045
2480.00,0.0045
2479.00,0.0045
2478.00,0.0044
2477.00,0.0044
2476.00,0.0044
2475.00,0.0044
2474.00,0.0044
2473.00,0.0044
2472.00,0.0044
2471.00,0.0044
2470.00,0.0044
2469.00,0.0044
2468.00,0.0044
2467.00,0.0044
2466.00,0.0044
2465.00,0.0044
2464.00,0.0044
2463.00,0.0044
2462.00,0.0044
2461.00,0.0044
2460.00,0.0045
2459.00,0.0045
2458.00,0.0045
2457.00,0.0046
2456.00,0.0046
2455.00,0.0046
2454.00,0.0046
2453.00,0.0046
2452.00,0.0046
2451.00,0.0045
2450.00,0.0045
2449.00,0.0045
2448.00,0.0045
2447.00,0.0044
2446.00,0.0044
2445.00,0.0045
2444.00,0.0045
2443.00,0.0045
2442.00,0.0045
2441.00,0.0044
2440.00,0.0044
2439.00,0.0043
2438.00,0.0043
2437.00,0.0043
2436.00,0.0043
2435.00,0.0043
2434.00,0.0043
2433.00,0.0043
2432.00,0.0043
2431.00,0.0043
2430.00,0.0043
2429.00,0.0043
2428.00,0.0043
2427.00,0.0043
2426.00,0.0043
2425.00,0.0043
2424.00,0.0043
2423.00,0.0043
2422.00,0.0042
2421.00,0.0042
2420.00,0.0042
2419.00,0.0042
2418.00,0.0042
2417.00,0.0043
2416.00,0.0043
2415.00,0.0043
2414.00,0.0043
2413.00,0.0042
2412.00,0.0042
2411.00,0.0042
2410.00,0.0042
2409.00,0.0042
2408.00,0.0042
2407.00,0.0042
2406.00,0.0042
2405.00,0.0041
2404.00,0.0041
2403.00,0.0041
2402.00,0.0041
2401.00,0.0041
2400.00,0.0040
2399.00,0.0040
2398.00,0.0040
2397.00,0.0040
2396.00,0.0040
2395.00,0.0040
2394.00,0.0040
2393.00,0.0040
2392.00,0.0040
2391.00,0.0039
2390.00,0.0039
2389.00,0.0039
2388.00,0.0039
2387.00,0.0039
2386.00,0.0039
2385.00,0.0038
2384.00,0.0037
2383.00,0.0037
2382.00,0.0036
2381.00,0.0036
2380.00,0.0035
2379.00,0.0035
2378.00,0.0035
2377.00,0.0035
2376.00,0.0035
2375.00,0.0036
2374.00,0.0036
2373.00,0.0035
2372.00,0.0035
2371.00,0.0035
2370.00,0.0034
2369.00,0.0034
2368.00,0.0033
2367.00,0.0034
2366.00,0.0034
2365.00,0.0035
2364.00,0.0035
2363.00,0.0036
2362.00,0.0036
2361.00,0.0036
2360.00,0.0035
2359.00,0.0035
2358.00,0.0035
2357.00,0.0036
2356.00,0.0036
2355.00,0.0036
2354.00,0.0036
2353.00,0.0036
2352.00,0.0036
2351.00,0.0036
2350.00,0.0036
2349.00,0.0037
2348.00,0.0038
2347.00,0.0039
2346.00,0.0039
2345.00,0.0039
2344.00,0.0039
2343.00,0.0039
2342.00,0.0039
2341.00,0.0039
2340.00,0.0039
2339.00,0.0040
2338.00,0.0040
2337.00,0.0040
2336.00,0.0040
2335.00,0.0040
2334.00,0.0040
2333.00,0.0040
2332.00,0.0040
2331.00,0.0040
2330.00,0.0040
2329.00,0.0042
2328.00,0.0045
2327.00,0.0049
2326.00,0.0052
2325.00,0.0053
2324.00,0.0052
2323.00,0.0050
2322.00,0.0048
2321.00,0.0046
2320.00,0.0045
2319.00,0.0045
2318.00,0.0045
2317.00,0.0045
2316.00,0.0045
2315.00,0.0044
2314.00,0.0044
2313.00,0.0043
2312.00,0.0043
2311.00,0.0042
2310.00,0.0042
2309.00,0.0042
2308.00,0.0042
2307.00,0.0041
2306.00,0.0042
2305.00,0.0042
2304.00,0.0042
2303.00,0.0043
2302.00,0.0043
2301.00,0.0043
2300.00,0.0044
2299.00,0.0044
2298.00,0.0045
2297.00,0.0046
2296.00,0.0047
2295.00,0.0047
2294.00,0.0048
2293.00,0.0048
2292.00,0.0049
2291.00,0.0050
2290.00,0.0051
2289.00,0.0052
2288.00,0.0053
2287.00,0.0053
2286.00,0.0053
2285.00,0.0052
2284.00,0.0052
2283.00,0.0051
2282.00,0.0050
2281.00,0.0049
2280.00,0.0048
2279.00,0.0048
2278.00,0.0047
2277.00,0.0047
2276.00,0.0046
2275.00,0.0046
2274.00,0.0047
2273.00,0.0047
2272.00,0.0047
2271.00,0.0047
2270.00,0.0046
2269.00,0.0045
2268.00,0.0044
2267.00,0.0042
2266.00,0.0042
2265.00,0.0042
2264.00,0.0042
2263.00,0.0043
2262.00,0.0044
2261.00,0.0044
2260.00,0.0044
2259.00,0.0044
2258.00,0.0044
2257.00,0.0042
2256.00,0.0041
2255.00,0.0040
2254.00,0.0039
2253.00,0.0040
2252.00,0.0041
2251.00,0.0042
2250.00,0.0043
2249.00,0.0043
2248.00,0.0043
2247.00,0.0043
2246.00,0.0042
2245.00,0.0042
2244.00,0.0042
2243.00,0.0042
2242.00,0.0042
2241.00,0.0041
2240.00,0.0041
2239.00,0.0042
2238.00,0.0043
2237.00,0.0043
2236.00,0.0044
2235.00,0.0044
2234.00,0.0043
2233.00,0.0042
2232.00,0.0042
2231.00,0.0041
2230.00,0.0041
2229.00,0.0041
2228.00,0.0041
2227.00,0.0042
2226.00,0.0043
2225.00,0.0043
2224.00,0.0043
2223.00,0.0043
2222.00,0.0043
2221.00,0.0043
2220.00,0.0044
2219.00,0.0044
2218.00,0.0043
2217.00,0.0043
2216.00,0.0043
2215.00,0.0043
2214.00,0.0043
2213.00,0.0042
2212.00,0.0042
2211.00,0.0042
2210.00,0.0042
2209.00,0.0042
2208.00,0.0042
2207.00,0.0042
2206.00,0.0041
2205.00,0.0041
2204.00,0.0041
2203.00,0.0041
2202.00,0.0041
2201.00,0.0040
2200.00,0.0040
2199.00,0.0040
2198.00,0.0039
2197.00,0.0040
2196.00,0.0041
2195.00,0.0042
2194.00,0.0042
2193.00,0.0043
2192.00,0.0043
2191.00,0.0043
2190.00,0.0043
2189.00,0.0044
2188.00,0.0044
2187.00,0.0045
2186.00,0.0045
2185.00,0.0043
2184.00,0.0041
2183.00,0.0038
2182.00,0.0037
2181.00,0.0037
2180.00,0.0039
2179.00,0.0040
2178.00,0.0039
2177.00,0.0036
2176.00,0.0035
2175.00,0.0034
2174.00,0.0035
2173.00,0.0038
2172.00,0.0041
2171.00,0.0044
2170.00,0.0047
2169.00,0.0050
2168.00,0.0052
2167.00,0.0054
2166.00,0.0055
2165.00,0.0056
2164.00,0.0055
2163.00,0.0054
2162.00,0.0049
2161.00,0.0039
2160.00,0.0026
2159.00,0.0014
2158.00,0.0006
2157.00,0.0005
2156.00,0.0008
2155.00,0.0012
2154.00,0.0015
2153.00,0.0017
2152.00,0.0019
2151.00,0.0020
2150.00,0.0022
2149.00,0.0024
2148.00,0.0024
2147.00,0.0024
2146.00,0.0023
2145.00,0.0022
2144.00,0.0022
2143.00,0.0023
2142.00,0.0023
2141.00,0.0025
2140.00,0.0025
2139.00,0.0026
2138.00,0.0025
2137.00,0.0023
2136.00,0.0021
2135.00,0.0019
2134.00,0.0019
2133.00,0.0020
2132.00,0.0022
2131.00,0.0025
2130.00,0.0026
2129.00,0.0027
2128.00,0.0028
2127.00,0.0029
2126.00,0.0030
2125.00,0.0031
2124.00,0.0033
2123.00,0.0034
2122.00,0.0035
2121.00,0.0035
2120.00,0.0036
2119.00,0.0037
2118.00,0.0038
2117.00,0.0039
2116.00,0.0040
2115.00,0.0041
2114.00,0.0041
2113.00,0.0040
2112.00,0.0040
2111.00,0.0039
2110.00,0.0039
2109.00,0.0038
2108.00,0.0038
2107.00,0.0037
2106.00,0.0038
2105.00,0.0038
2104.00,0.0039
2103.00,0.0039
2102.00,0.0040
2101.00,0.0040
2100.00,0.0039
2099.00,0.0038
2098.00,0.0036
2097.00,0.0034
2096.00,0.0032
2095.00,0.0031
2094.00,0.0031
2093.00,0.0032
2092.00,0.0034
2091.00,0.0035
2090.00,0.0036
2089.00,0.0037
2088.00,0.0037
2087.00,0.0038
2086.00,0.0038
2085.00,0.0038
2084.00,0.0039
2083.00,0.0039
2082.00,0.0039
2081.00,0.0039
2080.00,0.0039
2079.00,0.0040
2078.00,0.0040
2077.00,0.0040
2076.00,0.0039
2075.00,0.0038
2074.00,0.0038
2073.00,0.0038
2072.00,0.0038
2071.00,0.0039
2070.00,0.0039
2069.00,0.0038
2068.00,0.0038
2067.00,0.0038
2066.00,0.0037
2065.00,0.0037
2064.00,0.0037
2063.00,0.0037
2062.00,0.0036
2061.00,0.0035
2060.00,0.0035
2059.00,0.0035
2058.00,0.0035
2057.00,0.0035
2056.00,0.0035
2055.00,0.0036
2054.00,0.0038
2053.00,0.0041
2052.00,0.0044
2051.00,0.0045
2050.00,0.0042
2049.00,0.0039
2048.00,0.0037
2047.00,0.0037
2046.00,0.0036
2045.00,0.0036
2044.00,0.0035
2043.00,0.0035
2042.00,0.0036
2041.00,0.0037
2040.00,0.0039
2039.00,0.0040
2038.00,0.0039
2037.00,0.0037
2036.00,0.0034
2035.00,0.0031
2034.00,0.0029
2033.00,0.0029
2032.00,0.0029
2031.00,0.0030
2030.00,0.0030
2029.00,0.0029
2028.00,0.0029
2027.00,0.0029
2026.00,0.0030
2025.00,0.0031
2024.00,0.0033
2023.00,0.0033
2022.00,0.0031
2021.00,0.0029
2020.00,0.0027
2019.00,0.0026
2018.00,0.0026
2017.00,0.0026
2016.00,0.0027
2015.00,0.0027
2014.00,0.0026
2013.00,0.0026
2012.00,0.0027
2011.00,0.0028
2010.00,0.0027
2009.00,0.0026
2008.00,0.0024
2007.00,0.0023
2006.00,0.0022
2005.00,0.0023
2004.00,0.0024
2003.00,0.0025
2002.00,0.0025
2001.00,0.0026
2000.00,0.0027
1999.00,0.0027
1998.00,0.0027
1997.00,0.0028
1996.00,0.0029
1995.00,0.0030
1994.00,0.0030
1993.00,0.0031
1992.00,0.0031
1991.00,0.0032
1990.00,0.0032
1989.00,0.0033
1988.00,0.0033
1987.00,0.0033
1986.00,0.0034
1985.00,0.0036
1984.00,0.0039
1983.00,0.0042
1982.00,0.0045
1981.00,0.0045
1980.00,0.0043
1979.00,0.0038
1978.00,0.0032
1977.00,0.0027
1976.00,0.0025
1975.00,0.0025
1974.00,0.0026
1973.00,0.0026
1972.00,0.0025
1971.00,0.0024
1970.00,0.0022
1969.00,0.0022
1968.00,0.0024
1967.00,0.0025
1966.00,0.0025
1965.00,0.0024
1964.00,0.0024
1963.00,0.0022
1962.00,0.0020
1961.00,0.0018
1960.00,0.0018
1959.00,0.0018
1958.00,0.0019
1957.00,0.0021
1956.00,0.0022
1955.00,0.0023
1954.00,0.0024
1953.00,0.0024
1952.00,0.0025
1951.00,0.0026
1950.00,0.0026
1949.00,0.0026
1948.00,0.0026
1947.00,0.0025
1946.00,0.0025
1945.00,0.0025
1944.00,0.0025
1943.00,0.0025
1942.00,0.0025
1941.00,0.0025
1940.00,0.0025
1939.00,0.0025
1938.00,0.0025
1937.00,0.0024
1936.00,0.0024
1935.00,0.0024
1934.00,0.0025
1933.00,0.0025
1932.00,0.0026
1931.00,0.0026
1930.00,0.0025
1929.00,0.0025
1928.00,0.0025
1927.00,0.0025
1926.00,0.0025
1925.00,0.0026
1924.00,0.0027
1923.00,0.0028
1922.00,0.0029
1921.00,0.0029
1920.00,0.0030
1919.00,0.0030
1918.00,0.0029
1917.00,0.0029
1916.00,0.0028
1915.00,0.0028
1914.00,0.0028
1913.00,0.0028
1912.00,0.0029
1911.00,0.0030
1910.00,0.0030
1909.00,0.0030
1908.00,0.0030
1907.00,0.0030
1906.00,0.0030
1905.00,0.0030
1904.00,0.0029
1903.00,0.0029
1902.00,0.0028
1901.00,0.0028
1900.00,0.0028
1899.00,0.0028
1898.00,0.0029
1897.00,0.0029
1896.00,0.0029
1895.00,0.0030
1894.00,0.0030
1893.00,0.0031
1892.00,0.0031
1891.00,0.0031
1890.00,0.0030
1889.00,0.0029
1888.00,0.0029
1887.00,0.0028
1886.00,0.0028
1885.00,0.0028
1884.00,0.0028
1883.00,0.0029
1882.00,0.0029
1881.00,0.0029
1880.00,0.0029
1879.00,0.0030
1878.00,0.0030
1877.00,0.0030
1876.00,0.0030
1875.00,0.0030
1874.00,0.0030
1873.00,0.0030
1872.00,0.0030
1871.00,0.0031
1870.00,0.0031
1869.00,0.0030
1868.00,0.0029
1867.00,0.0029
1866.00,0.0029
1865.00,0.0030
1864.00,0.0030
1863.00,0.0031
1862.00,0.0030
1861.00,0.0030
1860.00,0.0030
1859.00,0.0030
1858.00,0.0030
1857.00,0.0030
1856.00,0.0030
1855.00,0.0030
1854.00,0.0030
1853.00,0.0031
1852.00,0.0031
1851.00,0.0031
1850.00,0.0031
1849.00,0.0032
1848.00,0.0032
1847.00,0.0033
1846.00,0.0033
1845.00,0.0032
1844.00,0.0032
1843.00,0.0031
1842.00,0.0031
1841.00,0.0031
1840.00,0.0031
1839.00,0.0031
1838.00,0.0032
1837.00,0.0032
1836.00,0.0032
1835.00,0.0032
1834.00,0.0032
1833.00,0.0032
1832.00,0.0033
1831.00,0.0033
1830.00,0.0032
1829.00,0.0032
1828.00,0.0032
1827.00,0.0032
1826.00,0.0032
1825.00,0.0032
1824.00,0.0032
1823.00,0.0032
1822.00,0.0031
1821.00,0.0031
1820.00,0.0030
1819.00,0.0030
1818.00,0.0029
1817.00,0.0028
1816.00,0.0029
1815.00,0.0030
1814.00,0.0031
1813.00,0.0031
1812.00,0.0032
1811.00,0.0032
1810.00,0.0032
1809.00,0.0032
1808.00,0.0032
1807.00,0.0033
1806.00,0.0033
1805.00,0.0033
1804.00,0.0033
1803.00,0.0034
1802.00,0.0034
1801.00,0.0034
1800.00,0.0034
1799.00,0.0034
1798.00,0.0034
1797.00,0.0034
1796.00,0.0034
1795.00,0.0035
1794.00,0.0035
1793.00,0.0036
1792.00,0.0036
1791.00,0.0035
1790.00,0.0035
1789.00,0.0035
1788.00,0.0035
1787.00,0.0036
1786.00,0.0036
1785.00,0.0036
1784.00,0.0037
1783.00,0.0037
1782.00,0.0037
1781.00,0.0037
1780.00,0.0037
1779.00,0.0037
1778.00,0.0037
1777.00,0.0037
1776.00,0.0038
1775.00,0.0039
1774.00,0.0040
1773.00,0.0040
1772.00,0.0040
1771.00,0.0041
1770.00,0.0041
1769.00,0.0041
1768.00,0.0041
1767.00,0.0041
1766.00,0.0041
1765.00,0.0042
1764.00,0.0042
1763.00,0.0043
1762.00,0.0043
1761.00,0.0043
1760.00,0.0043
1759.00,0.0044
1758.00,0.0044
1757.00,0.0044
1756.00,0.0044
1755.00,0.0045
1754.00,0.0045
1753.00,0.0045
1752.00,0.0046
1751.00,0.0047
1750.00,0.0047
1749.00,0.0047
1748.00,0.0048
1747.00,0.0049
1746.00,0.0049
1745.00,0.0050
1744.00,0.0051
1743.00,0.0052
1742.00,0.0052
1741.00,0.0053
1740.00,0.0054
1739.00,0.0055
1738.00,0.0055
1737.00,0.0056
1736.00,0.0058
1735.00,0.0059
1734.00,0.0060
1733.00,0.0060
1732.00,0.0062
1731.00,0.0063
1730.00,0.0064
1729.00,0.0065
1728.00,0.0067
1727.00,0.0069
1726.00,0.0071
1725.00,0.0073
1724.00,0.0075
1723.00,0.0077
1722.00,0.0079
1721.00,0.0082
1720.00,0.0085
1719.00,0.0088
1718.00,0.0090
1717.00,0.0093
1716.00,0.0097
1715.00,0.0101
1714.00,0.0104
1713.00,0.0108
1712.00,0.0114
1711.00,0.0119
1710.00,0.0125
1709.00,0.0132
1708.00,0.0140
1707.00,0.0149
1706.00,0.0158
1705.00,0.0169
1704.00,0.0181
1703.00,0.0193
1702.00,0.0207
1701.00,0.0226
1700.00,0.0249
1699.00,0.0270
1698.00,0.0289
1697.00,0.0309
1696.00,0.0336
1695.00,0.0367
1694.00,0.0394
1693.00,0.0419
1692.00,0.0444
1691.00,0.0471
1690.00,0.0500
1689.00,0.0529
1688.00,0.0556
1687.00,0.0582
1686.00,0.0608
1685.00,0.0638
1684.00,0.0671
1683.00,0.0700
1682.00,0.0724
1681.00,0.0745
1680.00,0.0767
1679.00,0.0789
1678.00,0.0809
1677.00,0.0829
1676.00,0.0848
1675.00,0.0866
1674.00,0.0882
1673.00,0.0897
1672.00,0.0912
1671.00,0.0926
1670.00,0.0938
1669.00,0.0948
1668.00,0.0958
1667.00,0.0969
1666.00,0.0979
1665.00,0.0990
1664.00,0.1000
1663.00,0.1008
1662.00,0.1013
1661.00,0.1019
1660.00,0.1025
1659.00,0.1031
1658.00,0.1036
1657.00,0.1041
1656.00,0.1047
1655.00,0.1050
1654.00,0.1044
1653.00,0.1027
1652.00,0.1011
1651.00,0.1004
1650.00,0.1001
1649.00,0.0995
1648.00,0.0981
1647.00,0.0959
1646.00,0.0933
1645.00,0.0909
1644.00,0.0889
1643.00,0.0871
1642.00,0.0851
1641.00,0.0829
1640.00,0.0808
1639.00,0.0788
1638.00,0.0768
1637.00,0.0745
1636.00,0.0718
1635.00,0.0692
1634.00,0.0670
1633.00,0.0654
1632.00,0.0641
1631.00,0.0630
1630.00,0.0619
1629.00,0.0609
1628.00,0.0601
1627.00,0.0595
1626.00,0.0589
1625.00,0.0584
1624.00,0.0577
1623.00,0.0569
1622.00,0.0560
1621.00,0.0550
1620.00,0.0539
1619.00,0.0527
1618.00,0.0512
1617.00,0.0494
1616.00,0.0476
1615.00,0.0462
1614.00,0.0450
1613.00,0.0441
1612.00,0.0431
1611.00,0.0422
1610.00,0.0411
1609.00,0.0400
1608.00,0.0387
1607.00,0.0374
1606.00,0.0361
1605.00,0.0349
1604.00,0.0337
1603.00,0.0327
1602.00,0.0317
1601.00,0.0307
1600.00,0.0298
1599.00,0.0291
1598.00,0.0284
1597.00,0.0278
1596.00,0.0273
1595.00,0.0269
1594.00,0.0266
1593.00,0.0264
1592.00,0.0263
1591.00,0.0263
1590.00,0.0265
1589.00,0.0268
1588.00,0.0271
1587.00,0.0274
1586.00,0.0276
1585.00,0.0278
1584.00,0.0277
1583.00,0.0276
1582.00,0.0274
1581.00,0.0271
1580.00,0.0267
1579.00,0.0263
1578.00,0.0259
1577.00,0.0254
1576.00,0.0248
1575.00,0.0244
1574.00,0.0241
1573.00,0.0239
1572.00,0.0237
1571.00,0.0236
1570.00,0.0235
1569.00,0.0234
1568.00,0.0232
1567.00,0.0231
1566.00,0.0230
1565.00,0.0228
1564.00,0.0227
1563.00,0.0225
1562.00,0.0224
1561.00,0.0225
1560.00,0.0225
1559.00,0.0225
1558.00,0.0226
1557.00,0.0227
1556.00,0.0227
1555.00,0.0228
1554.00,0.0229
1553.00,0.0231
1552.00,0.0233
1551.00,0.0234
1550.00,0.0235
1549.00,0.0237
1548.00,0.0238
1547.00,0.0240
1546.00,0.0241
1545.00,0.0243
1544.00,0.0244
1543.00,0.0245
1542.00,0.0246
1541.00,0.0247
1540.00,0.0247
1539.00,0.0248
1538.00,0.0249
1537.00,0.0249
1536.00,0.0249
1535.00,0.0249
1534.00,0.0250
1533.00,0.0250
1532.00,0.0249
1531.00,0.0249
1530.00,0.0249
1529.00,0.0249
1528.00,0.0249
1527.00,0.0249
1526.00,0.0249
1525.00,0.0249
1524.00,0.0248
1523.00,0.0248
1522.00,0.0248
1521.00,0.0250
1520.00,0.0251
1519.00,0.0252
1518.00,0.0253
1517.00,0.0254
1516.00,0.0255
1515.00,0.0256
1514.00,0.0256
1513.00,0.0257
1512.00,0.0258
1511.00,0.0259
1510.00,0.0259
1509.00,0.0260
1508.00,0.0261
1507.00,0.0263
1506.00,0.0267
1505.00,0.0272
1504.00,0.0276
1503.00,0.0281
1502.00,0.0288
1501.00,0.0296
1500.00,0.0306
1499.00,0.0318
1498.00,0.0329
1497.00,0.0340
1496.00,0.0347
1495.00,0.0350
1494.00,0.0349
1493.00,0.0345
1492.00,0.0337
1491.00,0.0327
1490.00,0.0314
1489.00,0.0300
1488.00,0.0286
1487.00,0.0273
1486.00,0.0261
1485.00,0.0251
1484.00,0.0242
1483.00,0.0234
1482.00,0.0228
1481.00,0.0223
1480.00,0.0220
1479.00,0.0219
1478.00,0.0220
1477.00,0.0223
1476.00,0.0228
1475.00,0.0235
1474.00,0.0244
1473.00,0.0258
1472.00,0.0275
1471.00,0.0294
1470.00,0.0314
1469.00,0.0335
1468.00,0.0358
1467.00,0.0383
1466.00,0.0407
1465.00,0.0431
1464.00,0.0452
1463.00,0.0468
1462.00,0.0479
1461.00,0.0487
1460.00,0.0491
1459.00,0.0490
1458.00,0.0481
1457.00,0.0465
1456.00,0.0447
1455.00,0.0432
1454.00,0.0420
1453.00,0.0411
1452.00,0.0405
1451.00,0.0401
1450.00,0.0400
1449.00,0.0403
1448.00,0.0410
1447.00,0.0419
1446.00,0.0431
1445.00,0.0446
1444.00,0.0462
1443.00,0.0480
1442.00,0.0499
1441.00,0.0517
1440.00,0.0534
1439.00,0.0549
1438.00,0.0564
1437.00,0.0577
1436.00,0.0588
1435.00,0.0596
1434.00,0.0602
1433.00,0.0608
1432.00,0.0613
1431.00,0.0618
1430.00,0.0623
1429.00,0.0630
1428.00,0.0638
1427.00,0.0649
1426.00,0.0660
1425.00,0.0672
1424.00,0.0683
1423.00,0.0690
1422.00,0.0693
1421.00,0.0690
1420.00,0.0678
1419.00,0.0656
1418.00,0.0628
1417.00,0.0599
1416.00,0.0570
1415.00,0.0541
1414.00,0.0511
1413.00,0.0483
1412.00,0.0457
1411.00,0.0434
1410.00,0.0415
1409.00,0.0400
1408.00,0.0388
1407.00,0.0378
1406.00,0.0372
1405.00,0.0367
1404.00,0.0363
1403.00,0.0360
1402.00,0.0358
1401.00,0.0356
1400.00,0.0352
1399.00,0.0347
1398.00,0.0341
1397.00,0.0334
1396.00,0.0326
1395.00,0.0319
1394.00,0.0312
1393.00,0.0306
1392.00,0.0302
1391.00,0.0300
1390.00,0.0300
1389.00,0.0303
1388.00,0.0307
1387.00,0.0313
1386.00,0.0318
1385.00,0.0321
1384.00,0.0324
1383.00,0.0327
1382.00,0.0332
1381.00,0.0338
1380.00,0.0345
1379.00,0.0351
1378.00,0.0355
1377.00,0.0358
1376.00,0.0358
1375.00,0.0357
1374.00,0.0354
1373.00,0.0350
1372.00,0.0346
1371.00,0.0343
1370.00,0.0340
1369.00,0.0339
1368.00,0.0337
1367.00,0.0337
1366.00,0.0336
1365.00,0.0333
1364.00,0.0329
1363.00,0.0323
1362.00,0.0319
1361.00,0.0315
1360.00,0.0310
1359.00,0.0303
1358.00,0.0293
1357.00,0.0283
1356.00,0.0272
1355.00,0.0264
1354.00,0.0258
1353.00,0.0253
1352.00,0.0249
1351.00,0.0246
1350.00,0.0244
1349.00,0.0243
1348.00,0.0242
1347.00,0.0241
1346.00,0.0240
1345.00,0.0239
1344.00,0.0238
1343.00,0.0237
1342.00,0.0236
1341.00,0.0235
1340.00,0.0234
1339.00,0.0233
1338.00,0.0233
1337.00,0.0233
1336.00,0.0234
1335.00,0.0236
1334.00,0.0239
1333.00,0.0242
1332.00,0.0246
1331.00,0.0250
1330.00,0.0255
1329.00,0.0260
1328.00,0.0265
1327.00,0.0271
1326.00,0.0277
1325.00,0.0284
1324.00,0.0291
1323.00,0.0299
1322.00,0.0307
1321.00,0.0314
1320.00,0.0321
1319.00,0.0327
1318.00,0.0331
1317.00,0.0333
1316.00,0.0334
1315.00,0.0333
1314.00,0.0331
1313.00,0.0328
1312.00,0.0324
1311.00,0.0320
1310.00,0.0317
1309.00,0.0316
1308.00,0.0316
1307.00,0.0318
1306.00,0.0322
1305.00,0.0328
1304.00,0.0337
1303.00,0.0348
1302.00,0.0360
1301.00,0.0374
1300.00,0.0388
1299.00,0.0403
1298.00,0.0422
1297.00,0.0444
1296.00,0.0470
1295.00,0.0500
1294.00,0.0531
1293.00,0.0562
1292.00,0.0592
1291.00,0.0621
1290.00,0.0647
1289.00,0.0671
1288.00,0.0691
1287.00,0.0706
1286.00,0.0716
1285.00,0.0720
1284.00,0.0718
1283.00,0.0711
1282.00,0.0700
1281.00,0.0686
1280.00,0.0672
1279.00,0.0660
1278.00,0.0652
1277.00,0.0647
1276.00,0.0645
1275.00,0.0646
1274.00,0.0648
1273.00,0.0651
1272.00,0.0651
1271.00,0.0650
1270.00,0.0646
1269.00,0.0638
1268.00,0.0628
1267.00,0.0615
1266.00,0.0601
1265.00,0.0584
1264.00,0.0566
1263.00,0.0547
1262.00,0.0529
1261.00,0.0510
1260.00,0.0492
1259.00,0.0475
1258.00,0.0459
1257.00,0.0445
1256.00,0.0432
1255.00,0.0421
1254.00,0.0411
1253.00,0.0402
1252.00,0.0395
1251.00,0.0390
1250.00,0.0386
1249.00,0.0383
1248.00,0.0382
1247.00,0.0382
1246.00,0.0383
1245.00,0.0385
1244.00,0.0387
1243.00,0.0389
1242.00,0.0391
1241.00,0.0394
1240.00,0.0397
1239.00,0.0401
1238.00,0.0407
1237.00,0.0414
1236.00,0.0421
1235.00,0.0427
1234.00,0.0432
1233.00,0.0436
1232.00,0.0437
1231.00,0.0437
1230.00,0.0435
1229.00,0.0432
1228.00,0.0428
1227.00,0.0424
1226.00,0.0419
1225.00,0.0415
1224.00,0.0410
1223.00,0.0405
1222.00,0.0401
1221.00,0.0397
1220.00,0.0394
1219.00,0.0390
1218.00,0.0387
1217.00,0.0384
1216.00,0.0380
1215.00,0.0375
1214.00,0.0370
1213.00,0.0363
1212.00,0.0355
1211.00,0.0345
1210.00,0.0336
1209.00,0.0328
1208.00,0.0320
1207.00,0.0313
1206.00,0.0307
1205.00,0.0303
1204.00,0.0299
1203.00,0.0297
1202.00,0.0297
1201.00,0.0298
1200.00,0.0299
1199.00,0.0302
1198.00,0.0305
1197.00,0.0308
1196.00,0.0311
1195.00,0.0312
1194.00,0.0311
1193.00,0.0307
1192.00,0.0302
1191.00,0.0295
1190.00,0.0288
1189.00,0.0281
1188.00,0.0274
1187.00,0.0268
1186.00,0.0263
1185.00,0.0259
1184.00,0.0255
1183.00,0.0253
1182.00,0.0252
1181.00,0.0252
1180.00,0.0252
1179.00,0.0253
1178.00,0.0255
1177.00,0.0257
1176.00,0.0260
1175.00,0.0264
1174.00,0.0268
1173.00,0.0273
1172.00,0.0277
1171.00,0.0281
1170.00,0.0285
1169.00,0.0289
1168.00,0.0292
1167.00,0.0295
1166.00,0.0299
1165.00,0.0302
1164.00,0.0304
1163.00,0.0306
1162.00,0.0309
1161.00,0.0312
1160.00,0.0316
1159.00,0.0321
1158.00,0.0327
1157.00,0.0334
1156.00,0.0338
1155.00,0.0339
1154.00,0.0336
1153.00,0.0327
1152.00,0.0314
1151.00,0.0299
1150.00,0.0286
1149.00,0.0274
1148.00,0.0264
1147.00,0.0255
1146.00,0.0249
1145.00,0.0244
1144.00,0.0240
1143.00,0.0237
1142.00,0.0235
1141.00,0.0234
1140.00,0.0233
1139.00,0.0233
1138.00,0.0235
1137.00,0.0239
1136.00,0.0243
1135.00,0.0249
1134.00,0.0258
1133.00,0.0269
1132.00,0.0281
1131.00,0.0293
1130.00,0.0303
1129.00,0.0309
1128.00,0.0310
1127.00,0.0306
1126.00,0.0300
1125.00,0.0292
1124.00,0.0282
1123.00,0.0273
1122.00,0.0265
1121.00,0.0259
1120.00,0.0254
1119.00,0.0251
1118.00,0.0250
1117.00,0.0250
1116.00,0.0250
1115.00,0.0252
1114.00,0.0253
1113.00,0.0255
1112.00,0.0256
1111.00,0.0257
1110.00,0.0259
1109.00,0.0260
1108.00,0.0262
1107.00,0.0263
1106.00,0.0265
1105.00,0.0268
1104.00,0.0273
1103.00,0.0278
1102.00,0.0284
1101.00,0.0290
1100.00,0.0294
1099.00,0.0294
1098.00,0.0293
1097.00,0.0288
1096.00,0.0282
1095.00,0.0276
1094.00,0.0271
1093.00,0.0267
1092.00,0.0263
1091.00,0.0261
1090.00,0.0260
1089.00,0.0259
1088.00,0.0258
1087.00,0.0257
1086.00,0.0257
1085.00,0.0258
1084.00,0.0258
1083.00,0.0258
1082.00,0.0259
1081.00,0.0261
1080.00,0.0261
1079.00,0.0262
1078.00,0.0263
1077.00,0.0264
1076.00,0.0264
1075.00,0.0264
1074.00,0.0264
1073.00,0.0263
1072.00,0.0262
1071.00,0.0260
1070.00,0.0260
1069.00,0.0259
1068.00,0.0258
1067.00,0.0258
1066.00,0.0259
1065.00,0.0261
1064.00,0.0264
1063.00,0.0267
1062.00,0.0273
1061.00,0.0280
1060.00,0.0289
1059.00,0.0300
1058.00,0.0313
1057.00,0.0327
1056.00,0.0340
1055.00,0.0350
1054.00,0.0356
1053.00,0.0360
1052.00,0.0362
1051.00,0.0363
1050.00,0.0364
1049.00,0.0364
1048.00,0.0359
1047.00,0.0352
1046.00,0.0344
1045.00,0.0334
1044.00,0.0323
1043.00,0.0313
1042.00,0.0304
1041.00,0.0296
1040.00,0.0290
1039.00,0.0286
1038.00,0.0284
1037.00,0.0284
1036.00,0.0284
1035.00,0.0285
1034.00,0.0288
1033.00,0.0292
1032.00,0.0297
1031.00,0.0306
1030.00,0.0318
1029.00,0.0332
1028.00,0.0344
1027.00,0.0353
1026.00,0.0356
1025.00,0.0352
1024.00,0.0343
1023.00,0.0334
1022.00,0.0325
1021.00,0.0317
1020.00,0.0310
1019.00,0.0304
1018.00,0.0298
1017.00,0.0292
1016.00,0.0285
1015.00,0.0278
1014.00,0.0271
1013.00,0.0265
1012.00,0.0258
1011.00,0.0253
1010.00,0.0250
1009.00,0.0248
1008.00,0.0248
1007.00,0.0250
1006.00,0.0254
1005.00,0.0259
1004.00,0.0262
1003.00,0.0264
1002.00,0.0264
1001.00,0.0261
1000.00,0.0257
999.00,0.0251
998.00,0.0246
997.00,0.0240
996.00,0.0234
995.00,0.0229
994.00,0.0224
993.00,0.0219
992.00,0.0213
991.00,0.0208
990.00,0.0203
989.00,0.0198
988.00,0.0194
987.00,0.0190
986.00,0.0186
985.00,0.0183
984.00,0.0180
983.00,0.0178
982.00,0.0177
981.00,0.0175
980.00,0.0174
979.00,0.0173
978.00,0.0173
977.00,0.0172
976.00,0.0172
975.00,0.0172
974.00,0.0172
973.00,0.0172
972.00,0.0172
971.00,0.0172
970.00,0.0173
969.00,0.0174
968.00,0.0175
967.00,0.0175
966.00,0.0177
965.00,0.0179
964.00,0.0182
963.00,0.0186
962.00,0.0192
961.00,0.0197
960.00,0.0203
959.00,0.0208
958.00,0.0213
957.00,0.0217
956.00,0.0218
955.00,0.0217
954.00,0.0215
953.00,0.0210
952.00,0.0204
951.00,0.0198
950.00,0.0192
949.00,0.0186
948.00,0.0181
947.00,0.0176
946.00,0.0172
945.00,0.0169
944.00,0.0167
943.00,0.0166
942.00,0.0168
941.00,0.0170
940.00,0.0173
939.00,0.0177
938.00,0.0181
937.00,0.0186
936.00,0.0189
935.00,0.0193
934.00,0.0196
933.00,0.0197
932.00,0.0196
931.00,0.0194
930.00,0.0190
929.00,0.0187
928.00,0.0184
927.00,0.0182
926.00,0.0181
925.00,0.0180
924.00,0.0179
923.00,0.0179
922.00,0.0179
921.00,0.0177
920.00,0.0174
919.00,0.0171
918.00,0.0167
917.00,0.0164
916.00,0.0160
915.00,0.0158
914.00,0.0156
913.00,0.0155
912.00,0.0153
911.00,0.0152
910.00,0.0153
909.00,0.0153
908.00,0.0154
907.00,0.0155
906.00,0.0157
905.00,0.0160
904.00,0.0163
903.00,0.0168
902.00,0.0173
901.00,0.0179
900.00,0.0184
899.00,0.0187
898.00,0.0189
897.00,0.0189
896.00,0.0187
895.00,0.0185
894.00,0.0185
893.00,0.0185
892.00,0.0186
891.00,0.0187
890.00,0.0186
889.00,0.0183
888.00,0.0178
887.00,0.0172
886.00,0.0168
885.00,0.0165
884.00,0.0163
883.00,0.0162
882.00,0.0162
881.00,0.0162
880.00,0.0162
879.00,0.0163
878.00,0.0166
877.00,0.0170
876.00,0.0176
875.00,0.0183
874.00,0.0193
873.00,0.0202
872.00,0.0211
871.00,0.0219
870.00,0.0224
869.00,0.0225
868.00,0.0221
867.00,0.0217
866.00,0.0212
865.00,0.0208
864.00,0.0205
863.00,0.0202
862.00,0.0200
861.00,0.0200
860.00,0.0200
859.00,0.0201
858.00,0.0206
857.00,0.0212
856.00,0.0219
855.00,0.0228
854.00,0.0238
853.00,0.0247
852.00,0.0254
851.00,0.0261
850.00,0.0268
849.00,0.0273
848.00,0.0275
847.00,0.0275
846.00,0.0273
845.00,0.0271
844.00,0.0268
843.00,0.0265
842.00,0.0262
841.00,0.0260
840.00,0.0258
839.00,0.0258
838.00,0.0259
837.00,0.0262
836.00,0.0265
835.00,0.0266
834.00,0.0267
833.00,0.0265
832.00,0.0261
831.00,0.0255
830.00,0.0248
829.00,0.0240
828.00,0.0231
827.00,0.0224
826.00,0.0219
825.00,0.0217
824.00,0.0219
823.00,0.0227
822.00,0.0241
821.00,0.0255
820.00,0.0263
819.00,0.0266
818.00,0.0269
817.00,0.0272
816.00,0.0273
815.00,0.0268
814.00,0.0256
813.00,0.0239
812.00,0.0223
811.00,0.0210
810.00,0.0202
809.00,0.0196
808.00,0.0191
807.00,0.0187
806.00,0.0185
805.00,0.0183
804.00,0.0182
803.00,0.0181
802.00,0.0181
801.00,0.0181
800.00,0.0181
799.00,0.0181
798.00,0.0181
797.00,0.0182
796.00,0.0181
795.00,0.0181
794.00,0.0182
793.00,0.0183
792.00,0.0184
791.00,0.0184
790.00,0.0186
789.00,0.0187
788.00,0.0188
787.00,0.0188
786.00,0.0190
785.00,0.0191
784.00,0.0193
783.00,0.0194
782.00,0.0196
781.00,0.0198
780.00,0.0199
779.00,0.0200
778.00,0.0203
777.00,0.0206
776.00,0.0208
775.00,0.0210
774.00,0.0212
773.00,0.0211
772.00,0.0210
771.00,0.0209
770.00,0.0210
769.00,0.0212
768.00,0.0213
767.00,0.0215
766.00,0.0218
765.00,0.0221
764.00,0.0224
763.00,0.0228
762.00,0.0232
761.00,0.0235
760.00,0.0238
759.00,0.0241
758.00,0.0245
757.00,0.0248
756.00,0.0250
755.00,0.0252
754.00,0.0256
753.00,0.0260
752.00,0.0264
751.00,0.0268
750.00,0.0271
749.00,0.0275
748.00,0.0278
747.00,0.0281
746.00,0.0285
745.00,0.0288
744.00,0.0292
743.00,0.0295
742.00,0.0300
741.00,0.0305
740.00,0.0310
739.00,0.0317
738.00,0.0325
737.00,0.0333
736.00,0.0341
735.00,0.0346
734.00,0.0348
733.00,0.0346
732.00,0.0342
731.00,0.0339
730.00,0.0337
729.00,0.0335
728.00,0.0331
727.00,0.0326
726.00,0.0320
725.00,0.0315
724.00,0.0309
723.00,0.0305
722.00,0.0302
721.00,0.0300
720.00,0.0298
719.00,0.0298
718.00,0.0300
717.00,0.0303
716.00,0.0305
715.00,0.0306
714.00,0.0307
713.00,0.0307
712.00,0.0307
711.00,0.0306
710.00,0.0307
709.00,0.0308
708.00,0.0309
707.00,0.0310
706.00,0.0313
705.00,0.0315
704.00,0.0317
703.00,0.0320
702.00,0.0323
701.00,0.0326
700.00,0.0329
699.00,0.0332
698.00,0.0336
697.00,0.0339
696.00,0.0340
695.00,0.0341
694.00,0.0342
693.00,0.0343
692.00,0.0346
691.00,0.0349
690.00,0.0353
689.00,0.0357
688.00,0.0360
687.00,0.0362
686.00,0.0365
685.00,0.0367
684.00,0.0368
683.00,0.0370
682.00,0.0373
681.00,0.0376
680.00,0.0379
679.00,0.0383
678.00,0.0388
677.00,0.0394
676.00,0.0400
675.00,0.0405
674.00,0.0411
673.00,0.0416
672.00,0.0420
671.00,0.0425
670.00,0.0431
669.00,0.0438
668.00,0.0444
667.00,0.0450
666.00,0.0454
665.00,0.0459
664.00,0.0463
663.00,0.0470
662.00,0.0477
661.00,0.0483
660.00,0.0488
659.00,0.0492
658.00,0.0497
657.00,0.0501
656.00,0.0505
655.00,0.0510
654.00,0.0516
653.00,0.0522
652.00,0.0526
651.00,0.0529
650.00,0.0533
649.00,0.0535
648.00,0.0536
647.00,0.0537
646.00,0.0537
645.00,0.0536
644.00,0.0532
643.00,0.0529
642.00,0.0526
641.00,0.0523
640.00,0.0519
639.00,0.0514
638.00,0.0511
637.00,0.0507
636.00,0.0503
635.00,0.0500
634.00,0.0498
633.00,0.0496
632.00,0.0493
631.00,0.0490
630.00,0.0489
629.00,0.0488
628.00,0.0487
627.00,0.0487
626.00,0.0488
625.00,0.0489
624.00,0.0489
623.00,0.0490
622.00,0.0492
621.00,0.0493
620.00,0.0494
619.00,0.0493
618.00,0.0494
617.00,0.0493
616.00,0.0491
615.00,0.0490
614.00,0.0491
613.00,0.0491
612.00,0.0491
611.00,0.0490
610.00,0.0492
609.00,0.0495
608.00,0.0498
607.00,0.0503
606.00,0.0509
605.00,0.0514
604.00,0.0519
603.00,0.0522
602.00,0.0527
601.00,0.0530
600.00,0.0532
599.00,0.0533
598.00,0.0536
597.00,0.0539
596.00,0.0540
595.00,0.0543
594.00,0.0546
593.00,0.0549
592.00,0.0552
591.00,0.0555
590.00,0.0560
589.00,0.0565
588.00,0.0568
587.00,0.0572
586.00,0.0577
585.00,0.0582
584.00,0.0587
583.00,0.0594
582.00,0.0602
581.00,0.0611
580.00,0.0617
579.00,0.0624
578.00,0.0632
577.00,0.0638
576.00,0.0640
575.00,0.0641
574.00,0.0642
573.00,0.0642
572.00,0.0640
571.00,0.0637
570.00,0.0635
569.00,0.0633
568.00,0.0628
567.00,0.0624
566.00,0.0622
565.00,0.0621
564.00,0.0619
563.00,0.0618
562.00,0.0619
561.00,0.0618
560.00,0.0616
559.00,0.0614
558.00,0.0613
557.00,0.0610
556.00,0.0605
555.00,0.0600
554.00,0.0597
553.00,0.0596
552.00,0.0593
551.00,0.0591
550.00,0.0591
549.00,0.0593
548.00,0.0595
547.00,0.0596
546.00,0.0598
545.00,0.0598
544.00,0.0595
543.00,0.0593
542.00,0.0592
541.00,0.0591
540.00,0.0588
539.00,0.0584
538.00,0.0583
537.00,0.0582
536.00,0.0581
535.00,0.0582
534.00,0.0586
533.00,0.0591
532.00,0.0593
531.00,0.0595
530.00,0.0597
529.00,0.0597
528.00,0.0595
527.00,0.0591
526.00,0.0589
525.00,0.0586
524.00,0.0582
523.00,0.0580
522.00,0.0580
521.00,0.0580
520.00,0.0577
519.00,0.0575
518.00,0.0577
517.00,0.0578
516.00,0.0576
515.00,0.0573
514.00,0.0572
513.00,0.0571
512.00,0.0568
511.00,0.0568
510.00,0.0570
509.00,0.0572
508.00,0.0572
507.00,0.0572
506.00,0.0574
505.00,0.0574
504.00,0.0572
503.00,0.0569
502.00,0.0569
501.00,0.0569
500.00,0.0565
499.00,0.0563
498.00,0.0564
497.00,0.0566
496.00,0.0566
495.00,0.0566
494.00,0.0569
493.00,0.0574
492.00,0.0575
491.00,0.0575
490.00,0.0576
489.00,0.0575
488.00,0.0570
487.00,0.0566
486.00,0.0568
485.00,0.0569
484.00,0.0568
483.00,0.0567
482.00,0.0569
481.00,0.0570
480.00,0.0568
479.00,0.0566
478.00,0.0567
477.00,0.0567
476.00,0.0563
475.00,0.0558
474.00,0.0560
473.00,0.0562
472.00,0.0562
471.00,0.0562
470.00,0.0566
469.00,0.0568
468.00,0.0564
467.00,0.0560
466.00,0.0559
465.00,0.0560
464.00,0.0557
463.00,0.0556
462.00,0.0559
461.00,0.0563
460.00,0.0563
459.00,0.0563
458.00,0.0565
457.00,0.0565
456.00,0.0557
455.00,0.0549
454.00,0.0545
453.00,0.0543
452.00,0.0537
451.00,0.0535
450.00,0.0539
449.00,0.0544
448.00,0.0543
447.00,0.0541
446.00,0.0544
445.00,0.0546
444.00,0.0543
443.00,0.0540
442.00,0.0541
441.00,0.0540
440.00,0.0534
439.00,0.0531
438.00,0.0535
437.00,0.0539
436.00,0.0538
435.00,0.0536
434.00,0.0539
433.00,0.0541
432.00,0.0536
431.00,0.0532
430.00,0.0533
429.00,0.0534
428.00,0.0529
427.00,0.0527
426.00,0.0533
425.00,0.0536
424.00,0.0531
423.00,0.0527
422.00,0.0533
421.00,0.0539
420.00,0.0535
419.00,0.0528
418.00,0.0528
417.00,0.0527
416.00,0.0521
415.00,0.0520
414.00,0.0532
413.00,0.0542
412.00,0.0539
411.00,0.0534
410.00,0.0534
409.00,0.0530
408.00,0.0513
407.00,0.0499
406.00,0.0501
405.00,0.0505
404.00,0.0494
403.00,0.0483
402.00,0.0485
401.00,0.0488
400.00,0.0478
