Created as New Dataset,Sample 849 By YargerLab Date Monday, July 21 2025
cm-1,A
4000.00,0.0042
3999.00,0.0042
3998.00,0.0042
3997.00,0.0042
3996.00,0.0042
3995.00,0.0042
3994.00,0.0042
3993.00,0.0042
3992.00,0.0042
3991.00,0.0042
3990.00,0.0042
3989.00,0.0042
3988.00,0.0042
3987.00,0.0042
3986.00,0.0042
3985.00,0.0042
3984.00,0.0042
3983.00,0.0042
3982.00,0.0042
3981.00,0.0042
3980.00,0.0042
3979.00,0.0042
3978.00,0.0042
3977.00,0.0042
3976.00,0.0042
3975.00,0.0042
3974.00,0.0042
3973.00,0.0042
3972.00,0.0042
3971.00,0.0042
3970.00,0.0042
3969.00,0.0042
3968.00,0.0042
3967.00,0.0042
3966.00,0.0042
3965.00,0.0042
3964.00,0.0042
3963.00,0.0042
3962.00,0.0042
3961.00,0.0042
3960.00,0.0042
3959.00,0.0042
3958.00,0.0042
3957.00,0.0042
3956.00,0.0042
3955.00,0.0042
3954.00,0.0042
3953.00,0.0042
3952.00,0.0042
3951.00,0.0041
3950.00,0.0041
3949.00,0.0041
3948.00,0.0041
3947.00,0.0041
3946.00,0.0042
3945.00,0.0042
3944.00,0.0041
3943.00,0.0041
3942.00,0.0041
3941.00,0.0041
3940.00,0.0041
3939.00,0.0041
3938.00,0.0041
3937.00,0.0041
3936.00,0.0041
3935.00,0.0042
3934.00,0.0042
3933.00,0.0042
3932.00,0.0042
3931.00,0.0041
3930.00,0.0041
3929.00,0.0041
3928.00,0.0041
3927.00,0.0041
3926.00,0.0041
3925.00,0.0042
3924.00,0.0042
3923.00,0.0042
3922.00,0.0042
3921.00,0.0042
3920.00,0.0042
3919.00,0.0042
3918.00,0.0042
3917.00,0.0042
3916.00,0.0042
3915.00,0.0042
3914.00,0.0042
3913.00,0.0042
3912.00,0.0042
3911.00,0.0042
3910.00,0.0042
3909.00,0.0042
3908.00,0.0042
3907.00,0.0042
3906.00,0.0042
3905.00,0.0042
3904.00,0.0042
3903.00,0.0042
3902.00,0.0042
3901.00,0.0041
3900.00,0.0041
3899.00,0.0041
3898.00,0.0041
3897.00,0.0041
3896.00,0.0041
3895.00,0.0041
3894.00,0.0041
3893.00,0.0041
3892.00,0.0041
3891.00,0.0041
3890.00,0.0041
3889.00,0.0041
3888.00,0.0041
3887.00,0.0041
3886.00,0.0041
3885.00,0.0042
3884.00,0.0042
3883.00,0.0042
3882.00,0.0041
3881.00,0.0041
3880.00,0.0041
3879.00,0.0041
3878.00,0.0041
3877.00,0.0041
3876.00,0.0041
3875.00,0.0041
3874.00,0.0041
3873.00,0.0042
3872.00,0.0042
3871.00,0.0041
3870.00,0.0041
3869.00,0.0041
3868.00,0.0041
3867.00,0.0041
3866.00,0.0041
3865.00,0.0041
3864.00,0.0041
3863.00,0.0041
3862.00,0.0041
3861.00,0.0041
3860.00,0.0041
3859.00,0.0041
3858.00,0.0041
3857.00,0.0041
3856.00,0.0041
3855.00,0.0041
3854.00,0.0041
3853.00,0.0040
3852.00,0.0040
3851.00,0.0040
3850.00,0.0040
3849.00,0.0040
3848.00,0.0041
3847.00,0.0042
3846.00,0.0042
3845.00,0.0042
3844.00,0.0042
3843.00,0.0042
3842.00,0.0042
3841.00,0.0042
3840.00,0.0042
3839.00,0.0042
3838.00,0.0042
3837.00,0.0041
3836.00,0.0042
3835.00,0.0042
3834.00,0.0042
3833.00,0.0041
3832.00,0.0042
3831.00,0.0042
3830.00,0.0042
3829.00,0.0042
3828.00,0.0042
3827.00,0.0042
3826.00,0.0042
3825.00,0.0042
3824.00,0.0042
3823.00,0.0042
3822.00,0.0041
3821.00,0.0041
3820.00,0.0041
3819.00,0.0041
3818.00,0.0041
3817.00,0.0041
3816.00,0.0041
3815.00,0.0041
3814.00,0.0041
3813.00,0.0041
3812.00,0.0042
3811.00,0.0042
3810.00,0.0042
3809.00,0.0042
3808.00,0.0042
3807.00,0.0042
3806.00,0.0042
3805.00,0.0042
3804.00,0.0042
3803.00,0.0042
3802.00,0.0041
3801.00,0.0041
3800.00,0.0041
3799.00,0.0041
3798.00,0.0041
3797.00,0.0041
3796.00,0.0041
3795.00,0.0042
3794.00,0.0042
3793.00,0.0042
3792.00,0.0042
3791.00,0.0042
3790.00,0.0042
3789.00,0.0042
3788.00,0.0042
3787.00,0.0042
3786.00,0.0042
3785.00,0.0042
3784.00,0.0043
3783.00,0.0043
3782.00,0.0043
3781.00,0.0043
3780.00,0.0043
3779.00,0.0042
3778.00,0.0042
3777.00,0.0042
3776.00,0.0042
3775.00,0.0042
3774.00,0.0042
3773.00,0.0043
3772.00,0.0043
3771.00,0.0043
3770.00,0.0043
3769.00,0.0043
3768.00,0.0043
3767.00,0.0043
3766.00,0.0042
3765.00,0.0042
3764.00,0.0043
3763.00,0.0043
3762.00,0.0042
3761.00,0.0042
3760.00,0.0043
3759.00,0.0043
3758.00,0.0042
3757.00,0.0042
3756.00,0.0042
3755.00,0.0042
3754.00,0.0042
3753.00,0.0042
3752.00,0.0042
3751.00,0.0042
3750.00,0.0041
3749.00,0.0041
3748.00,0.0041
3747.00,0.0041
3746.00,0.0041
3745.00,0.0041
3744.00,0.0041
3743.00,0.0042
3742.00,0.0041
3741.00,0.0041
3740.00,0.0042
3739.00,0.0043
3738.00,0.0043
3737.00,0.0042
3736.00,0.0042
3735.00,0.0041
3734.00,0.0041
3733.00,0.0040
3732.00,0.0040
3731.00,0.0041
3730.00,0.0042
3729.00,0.0042
3728.00,0.0042
3727.00,0.0042
3726.00,0.0042
3725.00,0.0042
3724.00,0.0042
3723.00,0.0042
3722.00,0.0042
3721.00,0.0041
3720.00,0.0041
3719.00,0.0042
3718.00,0.0042
3717.00,0.0042
3716.00,0.0043
3715.00,0.0043
3714.00,0.0043
3713.00,0.0043
3712.00,0.0042
3711.00,0.0042
3710.00,0.0042
3709.00,0.0041
3708.00,0.0041
3707.00,0.0041
3706.00,0.0042
3705.00,0.0042
3704.00,0.0042
3703.00,0.0042
3702.00,0.0042
3701.00,0.0043
3700.00,0.0043
3699.00,0.0043
3698.00,0.0043
3697.00,0.0043
3696.00,0.0043
3695.00,0.0043
3694.00,0.0043
3693.00,0.0043
3692.00,0.0043
3691.00,0.0043
3690.00,0.0043
3689.00,0.0043
3688.00,0.0044
3687.00,0.0045
3686.00,0.0045
3685.00,0.0046
3684.00,0.0046
3683.00,0.0047
3682.00,0.0048
3681.00,0.0048
3680.00,0.0049
3679.00,0.0049
3678.00,0.0049
3677.00,0.0049
3676.00,0.0049
3675.00,0.0049
3674.00,0.0049
3673.00,0.0049
3672.00,0.0049
3671.00,0.0049
3670.00,0.0049
3669.00,0.0050
3668.00,0.0050
3667.00,0.0051
3666.00,0.0052
3665.00,0.0053
3664.00,0.0053
3663.00,0.0054
3662.00,0.0054
3661.00,0.0055
3660.00,0.0055
3659.00,0.0056
3658.00,0.0056
3657.00,0.0056
3656.00,0.0057
3655.00,0.0057
3654.00,0.0058
3653.00,0.0059
3652.00,0.0059
3651.00,0.0059
3650.00,0.0060
3649.00,0.0061
3648.00,0.0061
3647.00,0.0062
3646.00,0.0062
3645.00,0.0063
3644.00,0.0064
3643.00,0.0065
3642.00,0.0065
3641.00,0.0066
3640.00,0.0067
3639.00,0.0068
3638.00,0.0068
3637.00,0.0069
3636.00,0.0070
3635.00,0.0071
3634.00,0.0071
3633.00,0.0072
3632.00,0.0073
3631.00,0.0073
3630.00,0.0074
3629.00,0.0076
3628.00,0.0078
3627.00,0.0079
3626.00,0.0080
3625.00,0.0081
3624.00,0.0082
3623.00,0.0082
3622.00,0.0083
3621.00,0.0083
3620.00,0.0084
3619.00,0.0086
3618.00,0.0087
3617.00,0.0088
3616.00,0.0090
3615.00,0.0091
3614.00,0.0092
3613.00,0.0093
3612.00,0.0095
3611.00,0.0097
3610.00,0.0098
3609.00,0.0099
3608.00,0.0101
3607.00,0.0102
3606.00,0.0103
3605.00,0.0104
3604.00,0.0106
3603.00,0.0107
3602.00,0.0108
3601.00,0.0110
3600.00,0.0111
3599.00,0.0113
3598.00,0.0115
3597.00,0.0116
3596.00,0.0118
3595.00,0.0120
3594.00,0.0122
3593.00,0.0123
3592.00,0.0124
3591.00,0.0125
3590.00,0.0126
3589.00,0.0128
3588.00,0.0130
3587.00,0.0132
3586.00,0.0135
3585.00,0.0137
3584.00,0.0139
3583.00,0.0140
3582.00,0.0142
3581.00,0.0143
3580.00,0.0145
3579.00,0.0147
3578.00,0.0149
3577.00,0.0151
3576.00,0.0153
3575.00,0.0155
3574.00,0.0157
3573.00,0.0159
3572.00,0.0161
3571.00,0.0163
3570.00,0.0164
3569.00,0.0165
3568.00,0.0167
3567.00,0.0170
3566.00,0.0173
3565.00,0.0176
3564.00,0.0178
3563.00,0.0180
3562.00,0.0182
3561.00,0.0184
3560.00,0.0186
3559.00,0.0187
3558.00,0.0189
3557.00,0.0191
3556.00,0.0192
3555.00,0.0194
3554.00,0.0195
3553.00,0.0197
3552.00,0.0199
3551.00,0.0201
3550.00,0.0203
3549.00,0.0204
3548.00,0.0206
3547.00,0.0207
3546.00,0.0210
3545.00,0.0212
3544.00,0.0214
3543.00,0.0216
3542.00,0.0218
3541.00,0.0219
3540.00,0.0221
3539.00,0.0222
3538.00,0.0224
3537.00,0.0225
3536.00,0.0227
3535.00,0.0228
3534.00,0.0229
3533.00,0.0230
3532.00,0.0231
3531.00,0.0233
3530.00,0.0234
3529.00,0.0235
3528.00,0.0237
3527.00,0.0239
3526.00,0.0240
3525.00,0.0241
3524.00,0.0242
3523.00,0.0244
3522.00,0.0245
3521.00,0.0246
3520.00,0.0247
3519.00,0.0248
3518.00,0.0250
3517.00,0.0251
3516.00,0.0251
3515.00,0.0252
3514.00,0.0253
3513.00,0.0253
3512.00,0.0254
3511.00,0.0255
3510.00,0.0256
3509.00,0.0257
3508.00,0.0259
3507.00,0.0260
3506.00,0.0261
3505.00,0.0261
3504.00,0.0262
3503.00,0.0264
3502.00,0.0265
3501.00,0.0266
3500.00,0.0267
3499.00,0.0267
3498.00,0.0268
3497.00,0.0269
3496.00,0.0269
3495.00,0.0270
3494.00,0.0271
3493.00,0.0271
3492.00,0.0272
3491.00,0.0273
3490.00,0.0274
3489.00,0.0275
3488.00,0.0275
3487.00,0.0276
3486.00,0.0276
3485.00,0.0277
3484.00,0.0277
3483.00,0.0278
3482.00,0.0279
3481.00,0.0280
3480.00,0.0281
3479.00,0.0281
3478.00,0.0282
3477.00,0.0282
3476.00,0.0283
3475.00,0.0283
3474.00,0.0284
3473.00,0.0285
3472.00,0.0286
3471.00,0.0287
3470.00,0.0288
3469.00,0.0288
3468.00,0.0289
3467.00,0.0289
3466.00,0.0289
3465.00,0.0290
3464.00,0.0290
3463.00,0.0291
3462.00,0.0291
3461.00,0.0292
3460.00,0.0293
3459.00,0.0293
3458.00,0.0294
3457.00,0.0294
3456.00,0.0295
3455.00,0.0295
3454.00,0.0295
3453.00,0.0296
3452.00,0.0296
3451.00,0.0296
3450.00,0.0297
3449.00,0.0297
3448.00,0.0297
3447.00,0.0297
3446.00,0.0298
3445.00,0.0298
3444.00,0.0299
3443.00,0.0299
3442.00,0.0299
3441.00,0.0299
3440.00,0.0300
3439.00,0.0300
3438.00,0.0300
3437.00,0.0301
3436.00,0.0301
3435.00,0.0301
3434.00,0.0301
3433.00,0.0301
3432.00,0.0301
3431.00,0.0301
3430.00,0.0301
3429.00,0.0301
3428.00,0.0300
3427.00,0.0300
3426.00,0.0300
3425.00,0.0300
3424.00,0.0300
3423.00,0.0299
3422.00,0.0299
3421.00,0.0299
3420.00,0.0300
3419.00,0.0300
3418.00,0.0300
3417.00,0.0300
3416.00,0.0299
3415.00,0.0299
3414.00,0.0299
3413.00,0.0299
3412.00,0.0298
3411.00,0.0298
3410.00,0.0297
3409.00,0.0297
3408.00,0.0297
3407.00,0.0296
3406.00,0.0296
3405.00,0.0296
3404.00,0.0296
3403.00,0.0295
3402.00,0.0294
3401.00,0.0294
3400.00,0.0293
3399.00,0.0292
3398.00,0.0292
3397.00,0.0291
3396.00,0.0291
3395.00,0.0290
3394.00,0.0289
3393.00,0.0289
3392.00,0.0288
3391.00,0.0288
3390.00,0.0287
3389.00,0.0286
3388.00,0.0285
3387.00,0.0284
3386.00,0.0284
3385.00,0.0283
3384.00,0.0282
3383.00,0.0281
3382.00,0.0281
3381.00,0.0280
3380.00,0.0279
3379.00,0.0278
3378.00,0.0277
3377.00,0.0277
3376.00,0.0276
3375.00,0.0275
3374.00,0.0274
3373.00,0.0273
3372.00,0.0272
3371.00,0.0270
3370.00,0.0269
3369.00,0.0268
3368.00,0.0267
3367.00,0.0267
3366.00,0.0266
3365.00,0.0266
3364.00,0.0265
3363.00,0.0264
3362.00,0.0263
3361.00,0.0262
3360.00,0.0261
3359.00,0.0260
3358.00,0.0259
3357.00,0.0259
3356.00,0.0258
3355.00,0.0256
3354.00,0.0255
3353.00,0.0254
3352.00,0.0253
3351.00,0.0252
3350.00,0.0251
3349.00,0.0251
3348.00,0.0251
3347.00,0.0250
3346.00,0.0249
3345.00,0.0248
3344.00,0.0247
3343.00,0.0246
3342.00,0.0245
3341.00,0.0244
3340.00,0.0243
3339.00,0.0242
3338.00,0.0241
3337.00,0.0241
3336.00,0.0242
3335.00,0.0242
3334.00,0.0242
3333.00,0.0241
3332.00,0.0241
3331.00,0.0240
3330.00,0.0239
3329.00,0.0238
3328.00,0.0237
3327.00,0.0236
3326.00,0.0235
3325.00,0.0234
3324.00,0.0234
3323.00,0.0234
3322.00,0.0235
3321.00,0.0235
3320.00,0.0234
3319.00,0.0234
3318.00,0.0233
3317.00,0.0233
3316.00,0.0232
3315.00,0.0231
3314.00,0.0230
3313.00,0.0229
3312.00,0.0228
3311.00,0.0227
3310.00,0.0225
3309.00,0.0224
3308.00,0.0222
3307.00,0.0221
3306.00,0.0221
3305.00,0.0222
3304.00,0.0223
3303.00,0.0224
3302.00,0.0224
3301.00,0.0224
3300.00,0.0224
3299.00,0.0223
3298.00,0.0222
3297.00,0.0220
3296.00,0.0219
3295.00,0.0219
3294.00,0.0218
3293.00,0.0218
3292.00,0.0218
3291.00,0.0219
3290.00,0.0219
3289.00,0.0219
3288.00,0.0219
3287.00,0.0219
3286.00,0.0218
3285.00,0.0217
3284.00,0.0217
3283.00,0.0216
3282.00,0.0216
3281.00,0.0215
3280.00,0.0214
3279.00,0.0213
3278.00,0.0212
3277.00,0.0210
3276.00,0.0209
3275.00,0.0208
3274.00,0.0207
3273.00,0.0205
3272.00,0.0204
3271.00,0.0204
3270.00,0.0204
3269.00,0.0204
3268.00,0.0204
3267.00,0.0204
3266.00,0.0203
3265.00,0.0203
3264.00,0.0202
3263.00,0.0201
3262.00,0.0200
3261.00,0.0199
3260.00,0.0197
3259.00,0.0196
3258.00,0.0195
3257.00,0.0193
3256.00,0.0193
3255.00,0.0192
3254.00,0.0191
3253.00,0.0190
3252.00,0.0190
3251.00,0.0189
3250.00,0.0187
3249.00,0.0186
3248.00,0.0185
3247.00,0.0184
3246.00,0.0183
3245.00,0.0183
3244.00,0.0182
3243.00,0.0181
3242.00,0.0180
3241.00,0.0179
3240.00,0.0178
3239.00,0.0177
3238.00,0.0176
3237.00,0.0174
3236.00,0.0173
3235.00,0.0172
3234.00,0.0171
3233.00,0.0170
3232.00,0.0169
3231.00,0.0169
3230.00,0.0168
3229.00,0.0168
3228.00,0.0167
3227.00,0.0166
3226.00,0.0165
3225.00,0.0164
3224.00,0.0163
3223.00,0.0162
3222.00,0.0161
3221.00,0.0159
3220.00,0.0158
3219.00,0.0157
3218.00,0.0156
3217.00,0.0155
3216.00,0.0154
3215.00,0.0154
3214.00,0.0153
3213.00,0.0152
3212.00,0.0151
3211.00,0.0150
3210.00,0.0149
3209.00,0.0148
3208.00,0.0147
3207.00,0.0146
3206.00,0.0146
3205.00,0.0145
3204.00,0.0144
3203.00,0.0143
3202.00,0.0142
3201.00,0.0141
3200.00,0.0140
3199.00,0.0139
3198.00,0.0138
3197.00,0.0138
3196.00,0.0137
3195.00,0.0136
3194.00,0.0135
3193.00,0.0134
3192.00,0.0133
3191.00,0.0132
3190.00,0.0132
3189.00,0.0131
3188.00,0.0130
3187.00,0.0129
3186.00,0.0129
3185.00,0.0128
3184.00,0.0127
3183.00,0.0126
3182.00,0.0126
3181.00,0.0125
3180.00,0.0124
3179.00,0.0124
3178.00,0.0123
3177.00,0.0122
3176.00,0.0121
3175.00,0.0121
3174.00,0.0120
3173.00,0.0119
3172.00,0.0119
3171.00,0.0118
3170.00,0.0117
3169.00,0.0117
3168.00,0.0116
3167.00,0.0116
3166.00,0.0115
3165.00,0.0115
3164.00,0.0114
3163.00,0.0114
3162.00,0.0113
3161.00,0.0112
3160.00,0.0112
3159.00,0.0111
3158.00,0.0111
3157.00,0.0110
3156.00,0.0109
3155.00,0.0109
3154.00,0.0108
3153.00,0.0108
3152.00,0.0107
3151.00,0.0107
3150.00,0.0106
3149.00,0.0106
3148.00,0.0105
3147.00,0.0105
3146.00,0.0105
3145.00,0.0104
3144.00,0.0104
3143.00,0.0103
3142.00,0.0102
3141.00,0.0101
3140.00,0.0101
3139.00,0.0100
3138.00,0.0100
3137.00,0.0100
3136.00,0.0099
3135.00,0.0099
3134.00,0.0098
3133.00,0.0098
3132.00,0.0098
3131.00,0.0097
3130.00,0.0097
3129.00,0.0097
3128.00,0.0096
3127.00,0.0096
3126.00,0.0095
3125.00,0.0095
3124.00,0.0095
3123.00,0.0094
3122.00,0.0094
3121.00,0.0093
3120.00,0.0093
3119.00,0.0092
3118.00,0.0092
3117.00,0.0092
3116.00,0.0092
3115.00,0.0092
3114.00,0.0091
3113.00,0.0091
3112.00,0.0091
3111.00,0.0091
3110.00,0.0090
3109.00,0.0090
3108.00,0.0090
3107.00,0.0089
3106.00,0.0089
3105.00,0.0088
3104.00,0.0088
3103.00,0.0088
3102.00,0.0088
3101.00,0.0088
3100.00,0.0088
3099.00,0.0088
3098.00,0.0087
3097.00,0.0087
3096.00,0.0087
3095.00,0.0086
3094.00,0.0086
3093.00,0.0085
3092.00,0.0085
3091.00,0.0085
3090.00,0.0084
3089.00,0.0084
3088.00,0.0084
3087.00,0.0083
3086.00,0.0083
3085.00,0.0083
3084.00,0.0083
3083.00,0.0083
3082.00,0.0082
3081.00,0.0082
3080.00,0.0082
3079.00,0.0082
3078.00,0.0081
3077.00,0.0081
3076.00,0.0081
3075.00,0.0081
3074.00,0.0081
3073.00,0.0081
3072.00,0.0080
3071.00,0.0080
3070.00,0.0080
3069.00,0.0079
3068.00,0.0079
3067.00,0.0079
3066.00,0.0079
3065.00,0.0079
3064.00,0.0079
3063.00,0.0078
3062.00,0.0078
3061.00,0.0078
3060.00,0.0078
3059.00,0.0078
3058.00,0.0077
3057.00,0.0077
3056.00,0.0077
3055.00,0.0077
3054.00,0.0076
3053.00,0.0076
3052.00,0.0076
3051.00,0.0077
3050.00,0.0077
3049.00,0.0076
3048.00,0.0076
3047.00,0.0076
3046.00,0.0076
3045.00,0.0076
3044.00,0.0076
3043.00,0.0076
3042.00,0.0076
3041.00,0.0076
3040.00,0.0076
3039.00,0.0076
3038.00,0.0076
3037.00,0.0076
3036.00,0.0076
3035.00,0.0076
3034.00,0.0076
3033.00,0.0076
3032.00,0.0076
3031.00,0.0077
3030.00,0.0077
3029.00,0.0077
3028.00,0.0077
3027.00,0.0077
3026.00,0.0078
3025.00,0.0078
3024.00,0.0078
3023.00,0.0079
3022.00,0.0080
3021.00,0.0080
3020.00,0.0081
3019.00,0.0082
3018.00,0.0082
3017.00,0.0083
3016.00,0.0084
3015.00,0.0086
3014.00,0.0087
3013.00,0.0089
3012.00,0.0090
3011.00,0.0092
3010.00,0.0094
3009.00,0.0096
3008.00,0.0099
3007.00,0.0101
3006.00,0.0104
3005.00,0.0107
3004.00,0.0110
3003.00,0.0113
3002.00,0.0117
3001.00,0.0120
3000.00,0.0124
2999.00,0.0128
2998.00,0.0132
2997.00,0.0136
2996.00,0.0140
2995.00,0.0144
2994.00,0.0148
2993.00,0.0152
2992.00,0.0157
2991.00,0.0161
2990.00,0.0165
2989.00,0.0170
2988.00,0.0174
2987.00,0.0178
2986.00,0.0182
2985.00,0.0186
2984.00,0.0190
2983.00,0.0194
2982.00,0.0198
2981.00,0.0201
2980.00,0.0204
2979.00,0.0207
2978.00,0.0210
2977.00,0.0213
2976.00,0.0216
2975.00,0.0219
2974.00,0.0222
2973.00,0.0225
2972.00,0.0229
2971.00,0.0232
2970.00,0.0235
2969.00,0.0238
2968.00,0.0241
2967.00,0.0244
2966.00,0.0247
2965.00,0.0250
2964.00,0.0253
2963.00,0.0256
2962.00,0.0258
2961.00,0.0260
2960.00,0.0262
2959.00,0.0263
2958.00,0.0265
2957.00,0.0266
2956.00,0.0267
2955.00,0.0268
2954.00,0.0268
2953.00,0.0268
2952.00,0.0268
2951.00,0.0267
2950.00,0.0266
2949.00,0.0265
2948.00,0.0263
2947.00,0.0262
2946.00,0.0260
2945.00,0.0258
2944.00,0.0256
2943.00,0.0255
2942.00,0.0253
2941.00,0.0252
2940.00,0.0250
2939.00,0.0249
2938.00,0.0249
2937.00,0.0249
2936.00,0.0249
2935.00,0.0249
2934.00,0.0250
2933.00,0.0251
2932.00,0.0251
2931.00,0.0252
2930.00,0.0253
2929.00,0.0254
2928.00,0.0256
2927.00,0.0257
2926.00,0.0258
2925.00,0.0259
2924.00,0.0259
2923.00,0.0259
2922.00,0.0259
2921.00,0.0258
2920.00,0.0257
2919.00,0.0255
2918.00,0.0253
2917.00,0.0251
2916.00,0.0248
2915.00,0.0245
2914.00,0.0242
2913.00,0.0238
2912.00,0.0235
2911.00,0.0232
2910.00,0.0229
2909.00,0.0227
2908.00,0.0224
2907.00,0.0222
2906.00,0.0220
2905.00,0.0218
2904.00,0.0217
2903.00,0.0217
2902.00,0.0216
2901.00,0.0216
2900.00,0.0216
2899.00,0.0216
2898.00,0.0216
2897.00,0.0217
2896.00,0.0217
2895.00,0.0218
2894.00,0.0218
2893.00,0.0218
2892.00,0.0219
2891.00,0.0219
2890.00,0.0219
2889.00,0.0219
2888.00,0.0219
2887.00,0.0219
2886.00,0.0218
2885.00,0.0218
2884.00,0.0218
2883.00,0.0217
2882.00,0.0217
2881.00,0.0216
2880.00,0.0216
2879.00,0.0215
2878.00,0.0214
2877.00,0.0213
2876.00,0.0212
2875.00,0.0211
2874.00,0.0210
2873.00,0.0209
2872.00,0.0208
2871.00,0.0206
2870.00,0.0205
2869.00,0.0204
2868.00,0.0203
2867.00,0.0201
2866.00,0.0200
2865.00,0.0198
2864.00,0.0197
2863.00,0.0195
2862.00,0.0194
2861.00,0.0192
2860.00,0.0190
2859.00,0.0188
2858.00,0.0185
2857.00,0.0183
2856.00,0.0180
2855.00,0.0178
2854.00,0.0174
2853.00,0.0171
2852.00,0.0167
2851.00,0.0163
2850.00,0.0159
2849.00,0.0155
2848.00,0.0151
2847.00,0.0148
2846.00,0.0144
2845.00,0.0141
2844.00,0.0138
2843.00,0.0135
2842.00,0.0132
2841.00,0.0129
2840.00,0.0126
2839.00,0.0124
2838.00,0.0122
2837.00,0.0120
2836.00,0.0118
2835.00,0.0117
2834.00,0.0115
2833.00,0.0113
2832.00,0.0112
2831.00,0.0110
2830.00,0.0108
2829.00,0.0106
2828.00,0.0104
2827.00,0.0102
2826.00,0.0101
2825.00,0.0099
2824.00,0.0097
2823.00,0.0095
2822.00,0.0094
2821.00,0.0092
2820.00,0.0091
2819.00,0.0090
2818.00,0.0088
2817.00,0.0087
2816.00,0.0087
2815.00,0.0086
2814.00,0.0085
2813.00,0.0084
2812.00,0.0083
2811.00,0.0082
2810.00,0.0082
2809.00,0.0082
2808.00,0.0081
2807.00,0.0081
2806.00,0.0080
2805.00,0.0080
2804.00,0.0079
2803.00,0.0079
2802.00,0.0078
2801.00,0.0078
2800.00,0.0077
2799.00,0.0077
2798.00,0.0076
2797.00,0.0076
2796.00,0.0076
2795.00,0.0075
2794.00,0.0075
2793.00,0.0075
2792.00,0.0074
2791.00,0.0074
2790.00,0.0074
2789.00,0.0073
2788.00,0.0073
2787.00,0.0073
2786.00,0.0073
2785.00,0.0073
2784.00,0.0073
2783.00,0.0072
2782.00,0.0072
2781.00,0.0072
2780.00,0.0071
2779.00,0.0071
2778.00,0.0071
2777.00,0.0071
2776.00,0.0070
2775.00,0.0070
2774.00,0.0070
2773.00,0.0069
2772.00,0.0069
2771.00,0.0069
2770.00,0.0069
2769.00,0.0069
2768.00,0.0069
2767.00,0.0069
2766.00,0.0069
2765.00,0.0069
2764.00,0.0068
2763.00,0.0068
2762.00,0.0068
2761.00,0.0068
2760.00,0.0068
2759.00,0.0068
2758.00,0.0068
2757.00,0.0068
2756.00,0.0067
2755.00,0.0067
2754.00,0.0067
2753.00,0.0068
2752.00,0.0068
2751.00,0.0068
2750.00,0.0067
2749.00,0.0067
2748.00,0.0067
2747.00,0.0067
2746.00,0.0067
2745.00,0.0067
2744.00,0.0067
2743.00,0.0067
2742.00,0.0067
2741.00,0.0067
2740.00,0.0067
2739.00,0.0067
2738.00,0.0067
2737.00,0.0067
2736.00,0.0067
2735.00,0.0067
2734.00,0.0067
2733.00,0.0067
2732.00,0.0067
2731.00,0.0067
2730.00,0.0066
2729.00,0.0066
2728.00,0.0066
2727.00,0.0066
2726.00,0.0066
2725.00,0.0066
2724.00,0.0066
2723.00,0.0066
2722.00,0.0066
2721.00,0.0066
2720.00,0.0066
2719.00,0.0066
2718.00,0.0065
2717.00,0.0065
2716.00,0.0065
2715.00,0.0065
2714.00,0.0065
2713.00,0.0065
2712.00,0.0065
2711.00,0.0065
2710.00,0.0064
2709.00,0.0064
2708.00,0.0064
2707.00,0.0064
2706.00,0.0064
2705.00,0.0064
2704.00,0.0064
2703.00,0.0064
2702.00,0.0064
2701.00,0.0064
2700.00,0.0064
2699.00,0.0064
2698.00,0.0063
2697.00,0.0063
2696.00,0.0063
2695.00,0.0063
2694.00,0.0063
2693.00,0.0063
2692.00,0.0063
2691.00,0.0063
2690.00,0.0063
2689.00,0.0063
2688.00,0.0063
2687.00,0.0063
2686.00,0.0062
2685.00,0.0062
2684.00,0.0062
2683.00,0.0062
2682.00,0.0062
2681.00,0.0062
2680.00,0.0062
2679.00,0.0062
2678.00,0.0062
2677.00,0.0062
2676.00,0.0062
2675.00,0.0062
2674.00,0.0062
2673.00,0.0062
2672.00,0.0062
2671.00,0.0062
2670.00,0.0062
2669.00,0.0062
2668.00,0.0063
2667.00,0.0063
2666.00,0.0064
2665.00,0.0064
2664.00,0.0065
2663.00,0.0065
2662.00,0.0066
2661.00,0.0066
2660.00,0.0067
2659.00,0.0067
2658.00,0.0067
2657.00,0.0067
2656.00,0.0067
2655.00,0.0067
2654.00,0.0067
2653.00,0.0068
2652.00,0.0068
2651.00,0.0067
2650.00,0.0067
2649.00,0.0067
2648.00,0.0067
2647.00,0.0067
2646.00,0.0067
2645.00,0.0067
2644.00,0.0067
2643.00,0.0067
2642.00,0.0067
2641.00,0.0067
2640.00,0.0067
2639.00,0.0067
2638.00,0.0066
2637.00,0.0066
2636.00,0.0067
2635.00,0.0067
2634.00,0.0067
2633.00,0.0067
2632.00,0.0066
2631.00,0.0066
2630.00,0.0066
2629.00,0.0066
2628.00,0.0066
2627.00,0.0066
2626.00,0.0066
2625.00,0.0066
2624.00,0.0065
2623.00,0.0065
2622.00,0.0065
2621.00,0.0065
2620.00,0.0065
2619.00,0.0065
2618.00,0.0064
2617.00,0.0064
2616.00,0.0064
2615.00,0.0064
2614.00,0.0064
2613.00,0.0064
2612.00,0.0064
2611.00,0.0064
2610.00,0.0064
2609.00,0.0064
2608.00,0.0064
2607.00,0.0064
2606.00,0.0063
2605.00,0.0063
2604.00,0.0063
2603.00,0.0063
2602.00,0.0063
2601.00,0.0063
2600.00,0.0063
2599.00,0.0063
2598.00,0.0063
2597.00,0.0063
2596.00,0.0063
2595.00,0.0063
2594.00,0.0063
2593.00,0.0063
2592.00,0.0063
2591.00,0.0063
2590.00,0.0063
2589.00,0.0063
2588.00,0.0063
2587.00,0.0063
2586.00,0.0063
2585.00,0.0063
2584.00,0.0063
2583.00,0.0063
2582.00,0.0063
2581.00,0.0063
2580.00,0.0063
2579.00,0.0063
2578.00,0.0063
2577.00,0.0063
2576.00,0.0063
2575.00,0.0063
2574.00,0.0063
2573.00,0.0063
2572.00,0.0063
2571.00,0.0063
2570.00,0.0063
2569.00,0.0063
2568.00,0.0063
2567.00,0.0063
2566.00,0.0062
2565.00,0.0062
2564.00,0.0061
2563.00,0.0061
2562.00,0.0061
2561.00,0.0061
2560.00,0.0061
2559.00,0.0061
2558.00,0.0061
2557.00,0.0061
2556.00,0.0061
2555.00,0.0061
2554.00,0.0061
2553.00,0.0061
2552.00,0.0061
2551.00,0.0061
2550.00,0.0060
2549.00,0.0060
2548.00,0.0060
2547.00,0.0060
2546.00,0.0060
2545.00,0.0060
2544.00,0.0060
2543.00,0.0060
2542.00,0.0060
2541.00,0.0061
2540.00,0.0060
2539.00,0.0060
2538.00,0.0060
2537.00,0.0059
2536.00,0.0059
2535.00,0.0058
2534.00,0.0058
2533.00,0.0058
2532.00,0.0059
2531.00,0.0059
2530.00,0.0059
2529.00,0.0059
2528.00,0.0059
2527.00,0.0059
2526.00,0.0058
2525.00,0.0059
2524.00,0.0059
2523.00,0.0058
2522.00,0.0058
2521.00,0.0058
2520.00,0.0058
2519.00,0.0058
2518.00,0.0058
2517.00,0.0058
2516.00,0.0058
2515.00,0.0058
2514.00,0.0057
2513.00,0.0057
2512.00,0.0057
2511.00,0.0056
2510.00,0.0056
2509.00,0.0057
2508.00,0.0057
2507.00,0.0057
2506.00,0.0057
2505.00,0.0057
2504.00,0.0058
2503.00,0.0058
2502.00,0.0058
2501.00,0.0057
2500.00,0.0057
2499.00,0.0057
2498.00,0.0057
2497.00,0.0057
2496.00,0.0057
2495.00,0.0057
2494.00,0.0057
2493.00,0.0057
2492.00,0.0057
2491.00,0.0056
2490.00,0.0056
2489.00,0.0056
2488.00,0.0056
2487.00,0.0056
2486.00,0.0056
2485.00,0.0056
2484.00,0.0057
2483.00,0.0057
2482.00,0.0057
2481.00,0.0057
2480.00,0.0056
2479.00,0.0056
2478.00,0.0056
2477.00,0.0056
2476.00,0.0056
2475.00,0.0056
2474.00,0.0056
2473.00,0.0056
2472.00,0.0056
2471.00,0.0056
2470.00,0.0057
2469.00,0.0057
2468.00,0.0057
2467.00,0.0056
2466.00,0.0056
2465.00,0.0056
2464.00,0.0057
2463.00,0.0057
2462.00,0.0058
2461.00,0.0058
2460.00,0.0058
2459.00,0.0058
2458.00,0.0058
2457.00,0.0058
2456.00,0.0058
2455.00,0.0058
2454.00,0.0058
2453.00,0.0058
2452.00,0.0059
2451.00,0.0059
2450.00,0.0058
2449.00,0.0058
2448.00,0.0058
2447.00,0.0058
2446.00,0.0058
2445.00,0.0058
2444.00,0.0058
2443.00,0.0057
2442.00,0.0057
2441.00,0.0057
2440.00,0.0057
2439.00,0.0057
2438.00,0.0057
2437.00,0.0057
2436.00,0.0057
2435.00,0.0056
2434.00,0.0056
2433.00,0.0057
2432.00,0.0057
2431.00,0.0057
2430.00,0.0057
2429.00,0.0057
2428.00,0.0057
2427.00,0.0057
2426.00,0.0057
2425.00,0.0057
2424.00,0.0057
2423.00,0.0057
2422.00,0.0057
2421.00,0.0057
2420.00,0.0057
2419.00,0.0057
2418.00,0.0057
2417.00,0.0057
2416.00,0.0057
2415.00,0.0057
2414.00,0.0057
2413.00,0.0057
2412.00,0.0057
2411.00,0.0057
2410.00,0.0057
2409.00,0.0056
2408.00,0.0056
2407.00,0.0056
2406.00,0.0056
2405.00,0.0056
2404.00,0.0056
2403.00,0.0056
2402.00,0.0056
2401.00,0.0056
2400.00,0.0056
2399.00,0.0056
2398.00,0.0056
2397.00,0.0056
2396.00,0.0056
2395.00,0.0056
2394.00,0.0055
2393.00,0.0055
2392.00,0.0056
2391.00,0.0055
2390.00,0.0055
2389.00,0.0055
2388.00,0.0055
2387.00,0.0054
2386.00,0.0054
2385.00,0.0053
2384.00,0.0053
2383.00,0.0052
2382.00,0.0051
2381.00,0.0051
2380.00,0.0051
2379.00,0.0051
2378.00,0.0051
2377.00,0.0052
2376.00,0.0052
2375.00,0.0052
2374.00,0.0051
2373.00,0.0051
2372.00,0.0051
2371.00,0.0050
2370.00,0.0050
2369.00,0.0050
2368.00,0.0050
2367.00,0.0050
2366.00,0.0051
2365.00,0.0051
2364.00,0.0052
2363.00,0.0052
2362.00,0.0052
2361.00,0.0052
2360.00,0.0052
2359.00,0.0052
2358.00,0.0052
2357.00,0.0052
2356.00,0.0052
2355.00,0.0053
2354.00,0.0053
2353.00,0.0053
2352.00,0.0053
2351.00,0.0052
2350.00,0.0053
2349.00,0.0054
2348.00,0.0056
2347.00,0.0057
2346.00,0.0058
2345.00,0.0057
2344.00,0.0056
2343.00,0.0056
2342.00,0.0056
2341.00,0.0057
2340.00,0.0058
2339.00,0.0058
2338.00,0.0058
2337.00,0.0058
2336.00,0.0058
2335.00,0.0058
2334.00,0.0058
2333.00,0.0058
2332.00,0.0058
2331.00,0.0058
2330.00,0.0058
2329.00,0.0061
2328.00,0.0065
2327.00,0.0069
2326.00,0.0073
2325.00,0.0074
2324.00,0.0073
2323.00,0.0071
2322.00,0.0069
2321.00,0.0067
2320.00,0.0066
2319.00,0.0065
2318.00,0.0065
2317.00,0.0065
2316.00,0.0065
2315.00,0.0064
2314.00,0.0064
2313.00,0.0064
2312.00,0.0063
2311.00,0.0063
2310.00,0.0062
2309.00,0.0062
2308.00,0.0062
2307.00,0.0062
2306.00,0.0062
2305.00,0.0063
2304.00,0.0063
2303.00,0.0062
2302.00,0.0062
2301.00,0.0062
2300.00,0.0063
2299.00,0.0063
2298.00,0.0064
2297.00,0.0065
2296.00,0.0066
2295.00,0.0067
2294.00,0.0067
2293.00,0.0068
2292.00,0.0070
2291.00,0.0071
2290.00,0.0072
2289.00,0.0073
2288.00,0.0073
2287.00,0.0073
2286.00,0.0073
2285.00,0.0072
2284.00,0.0072
2283.00,0.0071
2282.00,0.0070
2281.00,0.0069
2280.00,0.0069
2279.00,0.0069
2278.00,0.0068
2277.00,0.0068
2276.00,0.0067
2275.00,0.0067
2274.00,0.0067
2273.00,0.0067
2272.00,0.0067
2271.00,0.0067
2270.00,0.0066
2269.00,0.0066
2268.00,0.0065
2267.00,0.0064
2266.00,0.0063
2265.00,0.0063
2264.00,0.0063
2263.00,0.0064
2262.00,0.0064
2261.00,0.0065
2260.00,0.0066
2259.00,0.0066
2258.00,0.0065
2257.00,0.0064
2256.00,0.0063
2255.00,0.0062
2254.00,0.0062
2253.00,0.0062
2252.00,0.0062
2251.00,0.0062
2250.00,0.0062
2249.00,0.0063
2248.00,0.0063
2247.00,0.0063
2246.00,0.0063
2245.00,0.0063
2244.00,0.0064
2243.00,0.0064
2242.00,0.0064
2241.00,0.0064
2240.00,0.0064
2239.00,0.0064
2238.00,0.0063
2237.00,0.0063
2236.00,0.0064
2235.00,0.0064
2234.00,0.0064
2233.00,0.0064
2232.00,0.0064
2231.00,0.0063
2230.00,0.0063
2229.00,0.0063
2228.00,0.0064
2227.00,0.0063
2226.00,0.0063
2225.00,0.0063
2224.00,0.0064
2223.00,0.0064
2222.00,0.0064
2221.00,0.0064
2220.00,0.0065
2219.00,0.0064
2218.00,0.0064
2217.00,0.0064
2216.00,0.0064
2215.00,0.0064
2214.00,0.0063
2213.00,0.0063
2212.00,0.0064
2211.00,0.0064
2210.00,0.0064
2209.00,0.0064
2208.00,0.0064
2207.00,0.0064
2206.00,0.0064
2205.00,0.0064
2204.00,0.0065
2203.00,0.0065
2202.00,0.0065
2201.00,0.0064
2200.00,0.0064
2199.00,0.0064
2198.00,0.0065
2197.00,0.0067
2196.00,0.0069
2195.00,0.0070
2194.00,0.0069
2193.00,0.0067
2192.00,0.0067
2191.00,0.0066
2190.00,0.0066
2189.00,0.0067
2188.00,0.0068
2187.00,0.0069
2186.00,0.0069
2185.00,0.0067
2184.00,0.0065
2183.00,0.0062
2182.00,0.0060
2181.00,0.0061
2180.00,0.0063
2179.00,0.0065
2178.00,0.0064
2177.00,0.0062
2176.00,0.0061
2175.00,0.0060
2174.00,0.0060
2173.00,0.0063
2172.00,0.0067
2171.00,0.0070
2170.00,0.0072
2169.00,0.0074
2168.00,0.0075
2167.00,0.0075
2166.00,0.0075
2165.00,0.0077
2164.00,0.0079
2163.00,0.0080
2162.00,0.0074
2161.00,0.0062
2160.00,0.0047
2159.00,0.0033
2158.00,0.0027
2157.00,0.0028
2156.00,0.0033
2155.00,0.0036
2154.00,0.0038
2153.00,0.0040
2152.00,0.0041
2151.00,0.0042
2150.00,0.0043
2149.00,0.0045
2148.00,0.0046
2147.00,0.0047
2146.00,0.0046
2145.00,0.0045
2144.00,0.0045
2143.00,0.0045
2142.00,0.0046
2141.00,0.0047
2140.00,0.0048
2139.00,0.0047
2138.00,0.0046
2137.00,0.0044
2136.00,0.0043
2135.00,0.0041
2134.00,0.0041
2133.00,0.0042
2132.00,0.0045
2131.00,0.0047
2130.00,0.0049
2129.00,0.0051
2128.00,0.0053
2127.00,0.0055
2126.00,0.0055
2125.00,0.0056
2124.00,0.0057
2123.00,0.0058
2122.00,0.0058
2121.00,0.0059
2120.00,0.0061
2119.00,0.0062
2118.00,0.0063
2117.00,0.0065
2116.00,0.0066
2115.00,0.0066
2114.00,0.0065
2113.00,0.0065
2112.00,0.0064
2111.00,0.0064
2110.00,0.0064
2109.00,0.0065
2108.00,0.0065
2107.00,0.0065
2106.00,0.0064
2105.00,0.0064
2104.00,0.0064
2103.00,0.0064
2102.00,0.0064
2101.00,0.0063
2100.00,0.0063
2099.00,0.0063
2098.00,0.0061
2097.00,0.0060
2096.00,0.0059
2095.00,0.0058
2094.00,0.0057
2093.00,0.0058
2092.00,0.0060
2091.00,0.0061
2090.00,0.0062
2089.00,0.0062
2088.00,0.0063
2087.00,0.0063
2086.00,0.0063
2085.00,0.0064
2084.00,0.0065
2083.00,0.0065
2082.00,0.0065
2081.00,0.0064
2080.00,0.0064
2079.00,0.0064
2078.00,0.0063
2077.00,0.0063
2076.00,0.0063
2075.00,0.0063
2074.00,0.0062
2073.00,0.0062
2072.00,0.0062
2071.00,0.0062
2070.00,0.0061
2069.00,0.0060
2068.00,0.0060
2067.00,0.0060
2066.00,0.0060
2065.00,0.0060
2064.00,0.0061
2063.00,0.0060
2062.00,0.0059
2061.00,0.0058
2060.00,0.0058
2059.00,0.0058
2058.00,0.0058
2057.00,0.0058
2056.00,0.0059
2055.00,0.0060
2054.00,0.0063
2053.00,0.0068
2052.00,0.0072
2051.00,0.0072
2050.00,0.0068
2049.00,0.0063
2048.00,0.0060
2047.00,0.0059
2046.00,0.0057
2045.00,0.0058
2044.00,0.0059
2043.00,0.0059
2042.00,0.0058
2041.00,0.0058
2040.00,0.0059
2039.00,0.0059
2038.00,0.0058
2037.00,0.0058
2036.00,0.0058
2035.00,0.0055
2034.00,0.0052
2033.00,0.0051
2032.00,0.0051
2031.00,0.0051
2030.00,0.0049
2029.00,0.0049
2028.00,0.0050
2027.00,0.0050
2026.00,0.0048
2025.00,0.0047
2024.00,0.0049
2023.00,0.0051
2022.00,0.0051
2021.00,0.0051
2020.00,0.0051
2019.00,0.0049
2018.00,0.0046
2017.00,0.0046
2016.00,0.0046
2015.00,0.0046
2014.00,0.0045
2013.00,0.0045
2012.00,0.0048
2011.00,0.0049
2010.00,0.0049
2009.00,0.0048
2008.00,0.0048
2007.00,0.0046
2006.00,0.0044
2005.00,0.0043
2004.00,0.0045
2003.00,0.0045
2002.00,0.0044
2001.00,0.0044
2000.00,0.0046
1999.00,0.0047
1998.00,0.0047
1997.00,0.0047
1996.00,0.0049
1995.00,0.0050
1994.00,0.0050
1993.00,0.0051
1992.00,0.0053
1991.00,0.0054
1990.00,0.0054
1989.00,0.0054
1988.00,0.0056
1987.00,0.0057
1986.00,0.0057
1985.00,0.0058
1984.00,0.0061
1983.00,0.0064
1982.00,0.0067
1981.00,0.0068
1980.00,0.0066
1979.00,0.0060
1978.00,0.0051
1977.00,0.0045
1976.00,0.0042
1975.00,0.0041
1974.00,0.0040
1973.00,0.0041
1972.00,0.0043
1971.00,0.0043
1970.00,0.0043
1969.00,0.0043
1968.00,0.0044
1967.00,0.0043
1966.00,0.0042
1965.00,0.0041
1964.00,0.0041
1963.00,0.0040
1962.00,0.0038
1961.00,0.0036
1960.00,0.0036
1959.00,0.0035
1958.00,0.0035
1957.00,0.0037
1956.00,0.0039
1955.00,0.0041
1954.00,0.0042
1953.00,0.0043
1952.00,0.0043
1951.00,0.0043
1950.00,0.0043
1949.00,0.0043
1948.00,0.0044
1947.00,0.0043
1946.00,0.0042
1945.00,0.0042
1944.00,0.0043
1943.00,0.0044
1942.00,0.0044
1941.00,0.0045
1940.00,0.0045
1939.00,0.0045
1938.00,0.0044
1937.00,0.0044
1936.00,0.0044
1935.00,0.0043
1934.00,0.0042
1933.00,0.0042
1932.00,0.0043
1931.00,0.0042
1930.00,0.0042
1929.00,0.0043
1928.00,0.0044
1927.00,0.0044
1926.00,0.0043
1925.00,0.0044
1924.00,0.0045
1923.00,0.0045
1922.00,0.0045
1921.00,0.0045
1920.00,0.0047
1919.00,0.0046
1918.00,0.0046
1917.00,0.0046
1916.00,0.0047
1915.00,0.0046
1914.00,0.0046
1913.00,0.0046
1912.00,0.0048
1911.00,0.0048
1910.00,0.0047
1909.00,0.0048
1908.00,0.0049
1907.00,0.0048
1906.00,0.0048
1905.00,0.0048
1904.00,0.0049
1903.00,0.0048
1902.00,0.0047
1901.00,0.0046
1900.00,0.0047
1899.00,0.0047
1898.00,0.0046
1897.00,0.0046
1896.00,0.0048
1895.00,0.0047
1894.00,0.0045
1893.00,0.0045
1892.00,0.0046
1891.00,0.0046
1890.00,0.0046
1889.00,0.0045
1888.00,0.0046
1887.00,0.0046
1886.00,0.0046
1885.00,0.0047
1884.00,0.0048
1883.00,0.0048
1882.00,0.0047
1881.00,0.0047
1880.00,0.0048
1879.00,0.0048
1878.00,0.0047
1877.00,0.0047
1876.00,0.0048
1875.00,0.0048
1874.00,0.0046
1873.00,0.0046
1872.00,0.0047
1871.00,0.0048
1870.00,0.0048
1869.00,0.0048
1868.00,0.0049
1867.00,0.0049
1866.00,0.0047
1865.00,0.0047
1864.00,0.0048
1863.00,0.0048
1862.00,0.0047
1861.00,0.0047
1860.00,0.0048
1859.00,0.0048
1858.00,0.0047
1857.00,0.0047
1856.00,0.0048
1855.00,0.0048
1854.00,0.0048
1853.00,0.0047
1852.00,0.0048
1851.00,0.0048
1850.00,0.0047
1849.00,0.0047
1848.00,0.0048
1847.00,0.0048
1846.00,0.0048
1845.00,0.0048
1844.00,0.0048
1843.00,0.0047
1842.00,0.0046
1841.00,0.0047
1840.00,0.0048
1839.00,0.0048
1838.00,0.0047
1837.00,0.0047
1836.00,0.0047
1835.00,0.0047
1834.00,0.0046
1833.00,0.0047
1832.00,0.0048
1831.00,0.0050
1830.00,0.0049
1829.00,0.0048
1828.00,0.0049
1827.00,0.0049
1826.00,0.0048
1825.00,0.0048
1824.00,0.0048
1823.00,0.0048
1822.00,0.0047
1821.00,0.0046
1820.00,0.0046
1819.00,0.0046
1818.00,0.0044
1817.00,0.0043
1816.00,0.0044
1815.00,0.0045
1814.00,0.0045
1813.00,0.0046
1812.00,0.0048
1811.00,0.0048
1810.00,0.0047
1809.00,0.0046
1808.00,0.0047
1807.00,0.0047
1806.00,0.0047
1805.00,0.0046
1804.00,0.0047
1803.00,0.0048
1802.00,0.0048
1801.00,0.0047
1800.00,0.0048
1799.00,0.0049
1798.00,0.0048
1797.00,0.0047
1796.00,0.0047
1795.00,0.0048
1794.00,0.0048
1793.00,0.0047
1792.00,0.0049
1791.00,0.0049
1790.00,0.0048
1789.00,0.0046
1788.00,0.0048
1787.00,0.0049
1786.00,0.0049
1785.00,0.0048
1784.00,0.0049
1783.00,0.0050
1782.00,0.0051
1781.00,0.0050
1780.00,0.0050
1779.00,0.0051
1778.00,0.0050
1777.00,0.0048
1776.00,0.0048
1775.00,0.0050
1774.00,0.0051
1773.00,0.0050
1772.00,0.0050
1771.00,0.0051
1770.00,0.0051
1769.00,0.0050
1768.00,0.0051
1767.00,0.0052
1766.00,0.0052
1765.00,0.0051
1764.00,0.0052
1763.00,0.0054
1762.00,0.0055
1761.00,0.0053
1760.00,0.0052
1759.00,0.0054
1758.00,0.0055
1757.00,0.0055
1756.00,0.0053
1755.00,0.0054
1754.00,0.0055
1753.00,0.0055
1752.00,0.0055
1751.00,0.0057
1750.00,0.0058
1749.00,0.0058
1748.00,0.0057
1747.00,0.0058
1746.00,0.0060
1745.00,0.0060
1744.00,0.0059
1743.00,0.0059
1742.00,0.0060
1741.00,0.0061
1740.00,0.0060
1739.00,0.0059
1738.00,0.0059
1737.00,0.0061
1736.00,0.0062
1735.00,0.0063
1734.00,0.0065
1733.00,0.0066
1732.00,0.0067
1731.00,0.0067
1730.00,0.0068
1729.00,0.0070
1728.00,0.0071
1727.00,0.0071
1726.00,0.0072
1725.00,0.0075
1724.00,0.0078
1723.00,0.0078
1722.00,0.0078
1721.00,0.0079
1720.00,0.0083
1719.00,0.0086
1718.00,0.0087
1717.00,0.0090
1716.00,0.0095
1715.00,0.0098
1714.00,0.0099
1713.00,0.0102
1712.00,0.0108
1711.00,0.0113
1710.00,0.0115
1709.00,0.0120
1708.00,0.0128
1707.00,0.0138
1706.00,0.0145
1705.00,0.0152
1704.00,0.0162
1703.00,0.0172
1702.00,0.0182
1701.00,0.0198
1700.00,0.0224
1699.00,0.0248
1698.00,0.0264
1697.00,0.0285
1696.00,0.0318
1695.00,0.0355
1694.00,0.0384
1693.00,0.0408
1692.00,0.0436
1691.00,0.0471
1690.00,0.0508
1689.00,0.0542
1688.00,0.0574
1687.00,0.0604
1686.00,0.0637
1685.00,0.0683
1684.00,0.0745
1683.00,0.0803
1682.00,0.0843
1681.00,0.0872
1680.00,0.0903
1679.00,0.0935
1678.00,0.0965
1677.00,0.0995
1676.00,0.1032
1675.00,0.1079
1674.00,0.1121
1673.00,0.1150
1672.00,0.1172
1671.00,0.1202
1670.00,0.1242
1669.00,0.1287
1668.00,0.1324
1667.00,0.1351
1666.00,0.1371
1665.00,0.1389
1664.00,0.1413
1663.00,0.1446
1662.00,0.1483
1661.00,0.1512
1660.00,0.1534
1659.00,0.1550
1658.00,0.1563
1657.00,0.1569
1656.00,0.1570
1655.00,0.1571
1654.00,0.1593
1653.00,0.1640
1652.00,0.1675
1651.00,0.1679
1650.00,0.1664
1649.00,0.1645
1648.00,0.1631
1647.00,0.1626
1646.00,0.1623
1645.00,0.1611
1644.00,0.1589
1643.00,0.1561
1642.00,0.1529
1641.00,0.1494
1640.00,0.1458
1639.00,0.1422
1638.00,0.1383
1637.00,0.1342
1636.00,0.1301
1635.00,0.1263
1634.00,0.1226
1633.00,0.1186
1632.00,0.1144
1631.00,0.1103
1630.00,0.1062
1629.00,0.1021
1628.00,0.0981
1627.00,0.0945
1626.00,0.0911
1625.00,0.0877
1624.00,0.0844
1623.00,0.0813
1622.00,0.0785
1621.00,0.0757
1620.00,0.0729
1619.00,0.0702
1618.00,0.0677
1617.00,0.0654
1616.00,0.0631
1615.00,0.0611
1614.00,0.0592
1613.00,0.0573
1612.00,0.0552
1611.00,0.0532
1610.00,0.0515
1609.00,0.0498
1608.00,0.0481
1607.00,0.0464
1606.00,0.0450
1605.00,0.0436
1604.00,0.0422
1603.00,0.0408
1602.00,0.0396
1601.00,0.0385
1600.00,0.0373
1599.00,0.0362
1598.00,0.0352
1597.00,0.0343
1596.00,0.0334
1595.00,0.0325
1594.00,0.0317
1593.00,0.0310
1592.00,0.0302
1591.00,0.0295
1590.00,0.0289
1589.00,0.0283
1588.00,0.0277
1587.00,0.0270
1586.00,0.0265
1585.00,0.0260
1584.00,0.0255
1583.00,0.0249
1582.00,0.0244
1581.00,0.0239
1580.00,0.0233
1579.00,0.0228
1578.00,0.0224
1577.00,0.0222
1576.00,0.0218
1575.00,0.0214
1574.00,0.0210
1573.00,0.0206
1572.00,0.0202
1571.00,0.0199
1570.00,0.0197
1569.00,0.0196
1568.00,0.0192
1567.00,0.0189
1566.00,0.0187
1565.00,0.0185
1564.00,0.0181
1563.00,0.0176
1562.00,0.0173
1561.00,0.0172
1560.00,0.0172
1559.00,0.0170
1558.00,0.0169
1557.00,0.0170
1556.00,0.0168
1555.00,0.0165
1554.00,0.0164
1553.00,0.0164
1552.00,0.0164
1551.00,0.0161
1550.00,0.0160
1549.00,0.0160
1548.00,0.0159
1547.00,0.0156
1546.00,0.0154
1545.00,0.0155
1544.00,0.0154
1543.00,0.0150
1542.00,0.0147
1541.00,0.0150
1540.00,0.0154
1539.00,0.0150
1538.00,0.0146
1537.00,0.0146
1536.00,0.0147
1535.00,0.0146
1534.00,0.0144
1533.00,0.0145
1532.00,0.0145
1531.00,0.0144
1530.00,0.0141
1529.00,0.0141
1528.00,0.0143
1527.00,0.0142
1526.00,0.0139
1525.00,0.0138
1524.00,0.0140
1523.00,0.0141
1522.00,0.0140
1521.00,0.0140
1520.00,0.0142
1519.00,0.0143
1518.00,0.0143
1517.00,0.0145
1516.00,0.0148
1515.00,0.0150
1514.00,0.0150
1513.00,0.0152
1512.00,0.0156
1511.00,0.0159
1510.00,0.0162
1509.00,0.0165
1508.00,0.0176
1507.00,0.0192
1506.00,0.0208
1505.00,0.0221
1504.00,0.0234
1503.00,0.0248
1502.00,0.0262
1501.00,0.0277
1500.00,0.0295
1499.00,0.0314
1498.00,0.0332
1497.00,0.0349
1496.00,0.0365
1495.00,0.0374
1494.00,0.0376
1493.00,0.0374
1492.00,0.0369
1491.00,0.0361
1490.00,0.0347
1489.00,0.0331
1488.00,0.0314
1487.00,0.0297
1486.00,0.0279
1485.00,0.0264
1484.00,0.0252
1483.00,0.0242
1482.00,0.0233
1481.00,0.0227
1480.00,0.0225
1479.00,0.0224
1478.00,0.0225
1477.00,0.0230
1476.00,0.0239
1475.00,0.0251
1474.00,0.0267
1473.00,0.0290
1472.00,0.0323
1471.00,0.0356
1470.00,0.0385
1469.00,0.0415
1468.00,0.0449
1467.00,0.0488
1466.00,0.0531
1465.00,0.0577
1464.00,0.0620
1463.00,0.0650
1462.00,0.0663
1461.00,0.0665
1460.00,0.0660
1459.00,0.0649
1458.00,0.0626
1457.00,0.0592
1456.00,0.0561
1455.00,0.0537
1454.00,0.0517
1453.00,0.0499
1452.00,0.0489
1451.00,0.0486
1450.00,0.0490
1449.00,0.0500
1448.00,0.0520
1447.00,0.0548
1446.00,0.0577
1445.00,0.0605
1444.00,0.0637
1443.00,0.0671
1442.00,0.0704
1441.00,0.0731
1440.00,0.0754
1439.00,0.0775
1438.00,0.0794
1437.00,0.0812
1436.00,0.0827
1435.00,0.0837
1434.00,0.0838
1433.00,0.0834
1432.00,0.0832
1431.00,0.0837
1430.00,0.0849
1429.00,0.0865
1428.00,0.0886
1427.00,0.0912
1426.00,0.0939
1425.00,0.0967
1424.00,0.0992
1423.00,0.1009
1422.00,0.1013
1421.00,0.1001
1420.00,0.0974
1419.00,0.0936
1418.00,0.0888
1417.00,0.0833
1416.00,0.0775
1415.00,0.0718
1414.00,0.0663
1413.00,0.0610
1412.00,0.0559
1411.00,0.0516
1410.00,0.0479
1409.00,0.0446
1408.00,0.0415
1407.00,0.0390
1406.00,0.0371
1405.00,0.0352
1404.00,0.0334
1403.00,0.0319
1402.00,0.0310
1401.00,0.0300
1400.00,0.0290
1399.00,0.0282
1398.00,0.0278
1397.00,0.0274
1396.00,0.0269
1395.00,0.0266
1394.00,0.0267
1393.00,0.0267
1392.00,0.0266
1391.00,0.0267
1390.00,0.0271
1389.00,0.0277
1388.00,0.0283
1387.00,0.0291
1386.00,0.0301
1385.00,0.0311
1384.00,0.0320
1383.00,0.0329
1382.00,0.0340
1381.00,0.0351
1380.00,0.0360
1379.00,0.0368
1378.00,0.0377
1377.00,0.0384
1376.00,0.0389
1375.00,0.0392
1374.00,0.0396
1373.00,0.0398
1372.00,0.0396
1371.00,0.0392
1370.00,0.0389
1369.00,0.0384
1368.00,0.0376
1367.00,0.0367
1366.00,0.0358
1365.00,0.0349
1364.00,0.0338
1363.00,0.0327
1362.00,0.0315
1361.00,0.0305
1360.00,0.0294
1359.00,0.0285
1358.00,0.0276
1357.00,0.0269
1356.00,0.0262
1355.00,0.0256
1354.00,0.0251
1353.00,0.0246
1352.00,0.0241
1351.00,0.0237
1350.00,0.0234
1349.00,0.0231
1348.00,0.0228
1347.00,0.0225
1346.00,0.0223
1345.00,0.0222
1344.00,0.0221
1343.00,0.0220
1342.00,0.0221
1341.00,0.0222
1340.00,0.0224
1339.00,0.0226
1338.00,0.0229
1337.00,0.0232
1336.00,0.0235
1335.00,0.0239
1334.00,0.0244
1333.00,0.0250
1332.00,0.0257
1331.00,0.0265
1330.00,0.0275
1329.00,0.0285
1328.00,0.0297
1327.00,0.0310
1326.00,0.0325
1325.00,0.0340
1324.00,0.0356
1323.00,0.0372
1322.00,0.0388
1321.00,0.0403
1320.00,0.0415
1319.00,0.0426
1318.00,0.0433
1317.00,0.0437
1316.00,0.0437
1315.00,0.0434
1314.00,0.0428
1313.00,0.0420
1312.00,0.0411
1311.00,0.0401
1310.00,0.0393
1309.00,0.0385
1308.00,0.0380
1307.00,0.0377
1306.00,0.0378
1305.00,0.0382
1304.00,0.0391
1303.00,0.0404
1302.00,0.0423
1301.00,0.0449
1300.00,0.0480
1299.00,0.0519
1298.00,0.0565
1297.00,0.0618
1296.00,0.0677
1295.00,0.0739
1294.00,0.0804
1293.00,0.0867
1292.00,0.0927
1291.00,0.0982
1290.00,0.1031
1289.00,0.1070
1288.00,0.1099
1287.00,0.1117
1286.00,0.1124
1285.00,0.1121
1284.00,0.1108
1283.00,0.1090
1282.00,0.1070
1281.00,0.1051
1280.00,0.1036
1279.00,0.1027
1278.00,0.1024
1277.00,0.1027
1276.00,0.1033
1275.00,0.1042
1274.00,0.1051
1273.00,0.1057
1272.00,0.1059
1271.00,0.1054
1270.00,0.1044
1269.00,0.1027
1268.00,0.1005
1267.00,0.0977
1266.00,0.0946
1265.00,0.0912
1264.00,0.0876
1263.00,0.0840
1262.00,0.0804
1261.00,0.0770
1260.00,0.0736
1259.00,0.0704
1258.00,0.0675
1257.00,0.0648
1256.00,0.0623
1255.00,0.0601
1254.00,0.0581
1253.00,0.0563
1252.00,0.0547
1251.00,0.0532
1250.00,0.0521
1249.00,0.0511
1248.00,0.0502
1247.00,0.0496
1246.00,0.0491
1245.00,0.0488
1244.00,0.0486
1243.00,0.0485
1242.00,0.0487
1241.00,0.0489
1240.00,0.0492
1239.00,0.0496
1238.00,0.0502
1237.00,0.0508
1236.00,0.0515
1235.00,0.0521
1234.00,0.0529
1233.00,0.0535
1232.00,0.0541
1231.00,0.0545
1230.00,0.0549
1229.00,0.0551
1228.00,0.0551
1227.00,0.0551
1226.00,0.0550
1225.00,0.0549
1224.00,0.0548
1223.00,0.0546
1222.00,0.0545
1221.00,0.0544
1220.00,0.0542
1219.00,0.0539
1218.00,0.0537
1217.00,0.0533
1216.00,0.0528
1215.00,0.0522
1214.00,0.0516
1213.00,0.0508
1212.00,0.0500
1211.00,0.0491
1210.00,0.0483
1209.00,0.0475
1208.00,0.0467
1207.00,0.0458
1206.00,0.0451
1205.00,0.0443
1204.00,0.0436
1203.00,0.0429
1202.00,0.0423
1201.00,0.0416
1200.00,0.0409
1199.00,0.0403
1198.00,0.0398
1197.00,0.0393
1196.00,0.0387
1195.00,0.0383
1194.00,0.0379
1193.00,0.0374
1192.00,0.0370
1191.00,0.0366
1190.00,0.0364
1189.00,0.0362
1188.00,0.0360
1187.00,0.0359
1186.00,0.0359
1185.00,0.0359
1184.00,0.0359
1183.00,0.0359
1182.00,0.0361
1181.00,0.0363
1180.00,0.0366
1179.00,0.0369
1178.00,0.0373
1177.00,0.0379
1176.00,0.0384
1175.00,0.0389
1174.00,0.0395
1173.00,0.0401
1172.00,0.0406
1171.00,0.0409
1170.00,0.0412
1169.00,0.0414
1168.00,0.0413
1167.00,0.0411
1166.00,0.0408
1165.00,0.0403
1164.00,0.0397
1163.00,0.0390
1162.00,0.0384
1161.00,0.0377
1160.00,0.0370
1159.00,0.0364
1158.00,0.0358
1157.00,0.0352
1156.00,0.0346
1155.00,0.0341
1154.00,0.0336
1153.00,0.0332
1152.00,0.0328
1151.00,0.0324
1150.00,0.0320
1149.00,0.0316
1148.00,0.0312
1147.00,0.0307
1146.00,0.0303
1145.00,0.0299
1144.00,0.0294
1143.00,0.0290
1142.00,0.0286
1141.00,0.0282
1140.00,0.0278
1139.00,0.0274
1138.00,0.0271
1137.00,0.0269
1136.00,0.0266
1135.00,0.0263
1134.00,0.0262
1133.00,0.0261
1132.00,0.0260
1131.00,0.0260
1130.00,0.0260
1129.00,0.0260
1128.00,0.0260
1127.00,0.0260
1126.00,0.0261
1125.00,0.0262
1124.00,0.0263
1123.00,0.0263
1122.00,0.0264
1121.00,0.0265
1120.00,0.0266
1119.00,0.0266
1118.00,0.0268
1117.00,0.0268
1116.00,0.0268
1115.00,0.0268
1114.00,0.0269
1113.00,0.0270
1112.00,0.0270
1111.00,0.0271
1110.00,0.0272
1109.00,0.0272
1108.00,0.0272
1107.00,0.0272
1106.00,0.0272
1105.00,0.0273
1104.00,0.0273
1103.00,0.0273
1102.00,0.0274
1101.00,0.0274
1100.00,0.0274
1099.00,0.0274
1098.00,0.0275
1097.00,0.0275
1096.00,0.0275
1095.00,0.0276
1094.00,0.0276
1093.00,0.0277
1092.00,0.0276
1091.00,0.0275
1090.00,0.0275
1089.00,0.0275
1088.00,0.0274
1087.00,0.0274
1086.00,0.0275
1085.00,0.0276
1084.00,0.0276
1083.00,0.0276
1082.00,0.0277
1081.00,0.0278
1080.00,0.0279
1079.00,0.0281
1078.00,0.0283
1077.00,0.0285
1076.00,0.0286
1075.00,0.0287
1074.00,0.0287
1073.00,0.0286
1072.00,0.0284
1071.00,0.0281
1070.00,0.0278
1069.00,0.0275
1068.00,0.0271
1067.00,0.0268
1066.00,0.0266
1065.00,0.0264
1064.00,0.0261
1063.00,0.0259
1062.00,0.0258
1061.00,0.0257
1060.00,0.0256
1059.00,0.0255
1058.00,0.0255
1057.00,0.0255
1056.00,0.0254
1055.00,0.0254
1054.00,0.0255
1053.00,0.0255
1052.00,0.0254
1051.00,0.0254
1050.00,0.0254
1049.00,0.0254
1048.00,0.0253
1047.00,0.0253
1046.00,0.0253
1045.00,0.0253
1044.00,0.0252
1043.00,0.0251
1042.00,0.0252
1041.00,0.0252
1040.00,0.0252
1039.00,0.0252
1038.00,0.0253
1037.00,0.0255
1036.00,0.0256
1035.00,0.0258
1034.00,0.0260
1033.00,0.0263
1032.00,0.0265
1031.00,0.0267
1030.00,0.0269
1029.00,0.0272
1028.00,0.0275
1027.00,0.0278
1026.00,0.0282
1025.00,0.0287
1024.00,0.0292
1023.00,0.0297
1022.00,0.0303
1021.00,0.0309
1020.00,0.0312
1019.00,0.0315
1018.00,0.0316
1017.00,0.0314
1016.00,0.0310
1015.00,0.0304
1014.00,0.0297
1013.00,0.0289
1012.00,0.0281
1011.00,0.0275
1010.00,0.0270
1009.00,0.0267
1008.00,0.0266
1007.00,0.0266
1006.00,0.0269
1005.00,0.0274
1004.00,0.0277
1003.00,0.0280
1002.00,0.0281
1001.00,0.0280
1000.00,0.0276
999.00,0.0270
998.00,0.0265
997.00,0.0260
996.00,0.0254
995.00,0.0248
994.00,0.0244
993.00,0.0240
992.00,0.0236
991.00,0.0233
990.00,0.0231
989.00,0.0230
988.00,0.0227
987.00,0.0225
986.00,0.0223
985.00,0.0222
984.00,0.0220
983.00,0.0219
982.00,0.0218
981.00,0.0217
980.00,0.0215
979.00,0.0214
978.00,0.0213
977.00,0.0212
976.00,0.0210
975.00,0.0209
974.00,0.0208
973.00,0.0207
972.00,0.0206
971.00,0.0205
970.00,0.0204
969.00,0.0204
968.00,0.0203
967.00,0.0202
966.00,0.0201
965.00,0.0201
964.00,0.0200
963.00,0.0199
962.00,0.0199
961.00,0.0200
960.00,0.0199
959.00,0.0199
958.00,0.0199
957.00,0.0198
956.00,0.0197
955.00,0.0196
954.00,0.0196
953.00,0.0195
952.00,0.0194
951.00,0.0194
950.00,0.0194
949.00,0.0194
948.00,0.0194
947.00,0.0194
946.00,0.0195
945.00,0.0196
944.00,0.0198
943.00,0.0200
942.00,0.0204
941.00,0.0209
940.00,0.0215
939.00,0.0221
938.00,0.0228
937.00,0.0235
936.00,0.0241
935.00,0.0245
934.00,0.0248
933.00,0.0248
932.00,0.0246
931.00,0.0242
930.00,0.0238
929.00,0.0234
928.00,0.0230
927.00,0.0227
926.00,0.0225
925.00,0.0223
924.00,0.0220
923.00,0.0217
922.00,0.0216
921.00,0.0214
920.00,0.0212
919.00,0.0211
918.00,0.0210
917.00,0.0209
916.00,0.0208
915.00,0.0208
914.00,0.0208
913.00,0.0209
912.00,0.0209
911.00,0.0209
910.00,0.0209
909.00,0.0210
908.00,0.0211
907.00,0.0212
906.00,0.0214
905.00,0.0217
904.00,0.0219
903.00,0.0222
902.00,0.0225
901.00,0.0229
900.00,0.0231
899.00,0.0233
898.00,0.0236
897.00,0.0238
896.00,0.0238
895.00,0.0238
894.00,0.0237
893.00,0.0236
892.00,0.0233
891.00,0.0230
890.00,0.0228
889.00,0.0225
888.00,0.0222
887.00,0.0219
886.00,0.0217
885.00,0.0215
884.00,0.0212
883.00,0.0209
882.00,0.0208
881.00,0.0207
880.00,0.0205
879.00,0.0204
878.00,0.0204
877.00,0.0204
876.00,0.0204
875.00,0.0204
874.00,0.0205
873.00,0.0206
872.00,0.0207
871.00,0.0208
870.00,0.0210
869.00,0.0212
868.00,0.0214
867.00,0.0217
866.00,0.0220
865.00,0.0224
864.00,0.0227
863.00,0.0231
862.00,0.0236
861.00,0.0241
860.00,0.0247
859.00,0.0253
858.00,0.0261
857.00,0.0268
856.00,0.0275
855.00,0.0283
854.00,0.0292
853.00,0.0301
852.00,0.0309
851.00,0.0317
850.00,0.0324
849.00,0.0331
848.00,0.0337
847.00,0.0341
846.00,0.0345
845.00,0.0347
844.00,0.0347
843.00,0.0345
842.00,0.0344
841.00,0.0341
840.00,0.0337
839.00,0.0333
838.00,0.0329
837.00,0.0324
836.00,0.0319
835.00,0.0313
834.00,0.0308
833.00,0.0303
832.00,0.0297
831.00,0.0291
830.00,0.0286
829.00,0.0282
828.00,0.0277
827.00,0.0272
826.00,0.0269
825.00,0.0266
824.00,0.0262
823.00,0.0259
822.00,0.0256
821.00,0.0254
820.00,0.0251
819.00,0.0249
818.00,0.0248
817.00,0.0247
816.00,0.0245
815.00,0.0244
814.00,0.0243
813.00,0.0243
812.00,0.0242
811.00,0.0241
810.00,0.0241
809.00,0.0241
808.00,0.0241
807.00,0.0241
806.00,0.0241
805.00,0.0242
804.00,0.0241
803.00,0.0241
802.00,0.0242
801.00,0.0243
800.00,0.0243
799.00,0.0243
798.00,0.0244
797.00,0.0245
796.00,0.0244
795.00,0.0244
794.00,0.0245
793.00,0.0246
792.00,0.0246
791.00,0.0246
790.00,0.0247
789.00,0.0248
788.00,0.0249
787.00,0.0249
786.00,0.0251
785.00,0.0252
784.00,0.0253
783.00,0.0254
782.00,0.0255
781.00,0.0257
780.00,0.0258
779.00,0.0259
778.00,0.0262
777.00,0.0264
776.00,0.0266
775.00,0.0268
774.00,0.0271
773.00,0.0274
772.00,0.0276
771.00,0.0279
770.00,0.0283
769.00,0.0286
768.00,0.0289
767.00,0.0292
766.00,0.0296
765.00,0.0300
764.00,0.0304
763.00,0.0308
762.00,0.0313
761.00,0.0319
760.00,0.0324
759.00,0.0329
758.00,0.0335
757.00,0.0341
756.00,0.0347
755.00,0.0353
754.00,0.0359
753.00,0.0366
752.00,0.0371
751.00,0.0377
750.00,0.0383
749.00,0.0390
748.00,0.0396
747.00,0.0402
746.00,0.0409
745.00,0.0415
744.00,0.0420
743.00,0.0426
742.00,0.0433
741.00,0.0440
740.00,0.0447
739.00,0.0453
738.00,0.0458
737.00,0.0463
736.00,0.0466
735.00,0.0469
734.00,0.0471
733.00,0.0472
732.00,0.0470
731.00,0.0467
730.00,0.0462
729.00,0.0456
728.00,0.0449
727.00,0.0442
726.00,0.0435
725.00,0.0430
724.00,0.0425
723.00,0.0420
722.00,0.0417
721.00,0.0415
720.00,0.0411
719.00,0.0408
718.00,0.0406
717.00,0.0405
716.00,0.0404
715.00,0.0403
714.00,0.0404
713.00,0.0405
712.00,0.0405
711.00,0.0406
710.00,0.0407
709.00,0.0408
708.00,0.0409
707.00,0.0410
706.00,0.0411
705.00,0.0413
704.00,0.0415
703.00,0.0417
702.00,0.0419
701.00,0.0421
700.00,0.0423
699.00,0.0426
698.00,0.0429
697.00,0.0432
696.00,0.0435
695.00,0.0438
694.00,0.0441
693.00,0.0445
692.00,0.0448
691.00,0.0452
690.00,0.0456
689.00,0.0460
688.00,0.0465
687.00,0.0470
686.00,0.0476
685.00,0.0481
684.00,0.0486
683.00,0.0491
682.00,0.0497
681.00,0.0502
680.00,0.0506
679.00,0.0511
678.00,0.0517
677.00,0.0522
676.00,0.0526
675.00,0.0533
674.00,0.0540
673.00,0.0545
672.00,0.0550
671.00,0.0554
670.00,0.0561
669.00,0.0568
668.00,0.0578
667.00,0.0591
666.00,0.0602
665.00,0.0608
664.00,0.0615
663.00,0.0625
662.00,0.0637
661.00,0.0648
660.00,0.0657
659.00,0.0669
658.00,0.0682
657.00,0.0695
656.00,0.0706
655.00,0.0718
654.00,0.0731
653.00,0.0742
652.00,0.0750
651.00,0.0758
650.00,0.0766
649.00,0.0773
648.00,0.0776
647.00,0.0778
646.00,0.0779
645.00,0.0779
644.00,0.0775
643.00,0.0771
642.00,0.0766
641.00,0.0761
640.00,0.0753
639.00,0.0745
638.00,0.0740
637.00,0.0735
636.00,0.0728
635.00,0.0722
634.00,0.0718
633.00,0.0714
632.00,0.0709
631.00,0.0704
630.00,0.0702
629.00,0.0700
628.00,0.0696
627.00,0.0693
626.00,0.0691
625.00,0.0690
624.00,0.0687
623.00,0.0685
622.00,0.0684
621.00,0.0684
620.00,0.0682
619.00,0.0681
618.00,0.0682
617.00,0.0683
616.00,0.0684
615.00,0.0684
614.00,0.0686
613.00,0.0688
612.00,0.0686
611.00,0.0685
610.00,0.0686
609.00,0.0688
608.00,0.0688
607.00,0.0689
606.00,0.0692
605.00,0.0694
604.00,0.0694
603.00,0.0695
602.00,0.0697
601.00,0.0699
600.00,0.0701
599.00,0.0703
598.00,0.0708
597.00,0.0713
596.00,0.0715
595.00,0.0718
594.00,0.0724
593.00,0.0730
592.00,0.0736
591.00,0.0743
590.00,0.0751
589.00,0.0758
588.00,0.0764
587.00,0.0772
586.00,0.0783
585.00,0.0795
584.00,0.0804
583.00,0.0814
582.00,0.0826
581.00,0.0838
580.00,0.0847
579.00,0.0856
578.00,0.0865
577.00,0.0873
576.00,0.0878
575.00,0.0883
574.00,0.0889
573.00,0.0893
572.00,0.0893
571.00,0.0892
570.00,0.0893
569.00,0.0893
568.00,0.0888
567.00,0.0883
566.00,0.0880
565.00,0.0877
564.00,0.0871
563.00,0.0866
562.00,0.0862
561.00,0.0859
560.00,0.0853
559.00,0.0848
558.00,0.0846
557.00,0.0844
556.00,0.0839
555.00,0.0834
554.00,0.0833
553.00,0.0832
552.00,0.0827
551.00,0.0821
550.00,0.0819
549.00,0.0817
548.00,0.0812
547.00,0.0809
546.00,0.0808
545.00,0.0807
544.00,0.0803
543.00,0.0799
542.00,0.0799
541.00,0.0799
540.00,0.0796
539.00,0.0793
538.00,0.0793
537.00,0.0794
536.00,0.0792
535.00,0.0790
534.00,0.0793
533.00,0.0795
532.00,0.0793
531.00,0.0790
530.00,0.0791
529.00,0.0792
528.00,0.0790
527.00,0.0789
526.00,0.0793
525.00,0.0798
524.00,0.0798
523.00,0.0796
522.00,0.0797
521.00,0.0798
520.00,0.0796
519.00,0.0794
518.00,0.0795
517.00,0.0797
516.00,0.0795
515.00,0.0793
514.00,0.0794
513.00,0.0796
512.00,0.0794
511.00,0.0791
510.00,0.0792
509.00,0.0793
508.00,0.0791
507.00,0.0790
506.00,0.0793
505.00,0.0796
504.00,0.0795
503.00,0.0793
502.00,0.0794
501.00,0.0797
500.00,0.0797
499.00,0.0797
498.00,0.0802
497.00,0.0806
496.00,0.0806
495.00,0.0805
494.00,0.0807
493.00,0.0810
492.00,0.0810
491.00,0.0810
490.00,0.0812
489.00,0.0813
488.00,0.0810
487.00,0.0807
486.00,0.0809
485.00,0.0812
484.00,0.0812
483.00,0.0813
482.00,0.0816
481.00,0.0819
480.00,0.0818
479.00,0.0817
478.00,0.0820
477.00,0.0825
476.00,0.0826
475.00,0.0826
474.00,0.0831
473.00,0.0833
472.00,0.0829
471.00,0.0826
470.00,0.0827
469.00,0.0829
468.00,0.0825
467.00,0.0822
466.00,0.0824
465.00,0.0825
464.00,0.0821
463.00,0.0816
462.00,0.0816
461.00,0.0816
460.00,0.0811
459.00,0.0810
458.00,0.0816
457.00,0.0819
456.00,0.0811
455.00,0.0802
454.00,0.0799
453.00,0.0799
452.00,0.0796
451.00,0.0793
450.00,0.0795
449.00,0.0796
448.00,0.0789
447.00,0.0781
446.00,0.0779
445.00,0.0777
444.00,0.0770
443.00,0.0765
442.00,0.0768
441.00,0.0768
440.00,0.0761
439.00,0.0755
438.00,0.0756
437.00,0.0758
436.00,0.0752
435.00,0.0747
434.00,0.0748
433.00,0.0750
432.00,0.0743
431.00,0.0736
430.00,0.0735
429.00,0.0733
428.00,0.0726
427.00,0.0724
426.00,0.0732
425.00,0.0738
424.00,0.0728
423.00,0.0717
422.00,0.0716
421.00,0.0720
420.00,0.0714
419.00,0.0709
418.00,0.0716
417.00,0.0719
416.00,0.0709
415.00,0.0704
414.00,0.0710
413.00,0.0710
412.00,0.0693
411.00,0.0679
410.00,0.0688
409.00,0.0700
408.00,0.0695
407.00,0.0684
406.00,0.0684
405.00,0.0682
404.00,0.0668
403.00,0.0660
402.00,0.0678
401.00,0.0698
400.00,0.0692
