Created as New Dataset,Sample 1063 By YargerLab Date Monday, August 04 2025
cm-1,A
4000.00,0.0002
3999.00,0.0002
3998.00,0.0002
3997.00,0.0001
3996.00,0.0001
3995.00,0.0001
3994.00,0.0001
3993.00,0.0002
3992.00,0.0002
3991.00,0.0001
3990.00,0.0001
3989.00,0.0001
3988.00,0.0001
3987.00,0.0001
3986.00,0.0001
3985.00,0.0002
3984.00,0.0002
3983.00,0.0002
3982.00,0.0002
3981.00,0.0002
3980.00,0.0002
3979.00,0.0002
3978.00,0.0002
3977.00,0.0002
3976.00,0.0002
3975.00,0.0002
3974.00,0.0002
3973.00,0.0002
3972.00,0.0002
3971.00,0.0002
3970.00,0.0002
3969.00,0.0002
3968.00,0.0001
3967.00,0.0001
3966.00,0.0001
3965.00,0.0001
3964.00,0.0001
3963.00,0.0001
3962.00,0.0001
3961.00,0.0001
3960.00,0.0002
3959.00,0.0002
3958.00,0.0002
3957.00,0.0001
3956.00,0.0001
3955.00,0.0001
3954.00,0.0001
3953.00,0.0001
3952.00,0.0001
3951.00,0.0002
3950.00,0.0002
3949.00,0.0002
3948.00,0.0002
3947.00,0.0002
3946.00,0.0002
3945.00,0.0001
3944.00,0.0001
3943.00,0.0001
3942.00,0.0001
3941.00,0.0001
3940.00,0.0001
3939.00,0.0001
3938.00,0.0001
3937.00,0.0002
3936.00,0.0001
3935.00,0.0001
3934.00,0.0001
3933.00,0.0001
3932.00,0.0001
3931.00,0.0001
3930.00,0.0002
3929.00,0.0002
3928.00,0.0002
3927.00,0.0002
3926.00,0.0001
3925.00,0.0001
3924.00,0.0001
3923.00,0.0001
3922.00,0.0001
3921.00,0.0001
3920.00,0.0001
3919.00,0.0001
3918.00,0.0002
3917.00,0.0002
3916.00,0.0002
3915.00,0.0002
3914.00,0.0002
3913.00,0.0002
3912.00,0.0001
3911.00,0.0001
3910.00,0.0001
3909.00,0.0001
3908.00,0.0001
3907.00,0.0001
3906.00,0.0001
3905.00,0.0001
3904.00,0.0001
3903.00,0.0001
3902.00,0.0001
3901.00,0.0002
3900.00,0.0002
3899.00,0.0002
3898.00,0.0002
3897.00,0.0002
3896.00,0.0002
3895.00,0.0002
3894.00,0.0001
3893.00,0.0001
3892.00,0.0002
3891.00,0.0002
3890.00,0.0002
3889.00,0.0002
3888.00,0.0002
3887.00,0.0002
3886.00,0.0002
3885.00,0.0002
3884.00,0.0002
3883.00,0.0002
3882.00,0.0002
3881.00,0.0002
3880.00,0.0002
3879.00,0.0002
3878.00,0.0002
3877.00,0.0002
3876.00,0.0002
3875.00,0.0002
3874.00,0.0002
3873.00,0.0002
3872.00,0.0002
3871.00,0.0002
3870.00,0.0002
3869.00,0.0002
3868.00,0.0002
3867.00,0.0002
3866.00,0.0002
3865.00,0.0002
3864.00,0.0002
3863.00,0.0002
3862.00,0.0002
3861.00,0.0002
3860.00,0.0002
3859.00,0.0002
3858.00,0.0002
3857.00,0.0002
3856.00,0.0001
3855.00,0.0001
3854.00,0.0001
3853.00,0.0002
3852.00,0.0002
3851.00,0.0002
3850.00,0.0002
3849.00,0.0002
3848.00,0.0002
3847.00,0.0002
3846.00,0.0002
3845.00,0.0002
3844.00,0.0002
3843.00,0.0002
3842.00,0.0002
3841.00,0.0003
3840.00,0.0003
3839.00,0.0003
3838.00,0.0003
3837.00,0.0003
3836.00,0.0003
3835.00,0.0002
3834.00,0.0002
3833.00,0.0002
3832.00,0.0002
3831.00,0.0003
3830.00,0.0003
3829.00,0.0002
3828.00,0.0002
3827.00,0.0002
3826.00,0.0002
3825.00,0.0002
3824.00,0.0002
3823.00,0.0002
3822.00,0.0002
3821.00,0.0002
3820.00,0.0002
3819.00,0.0002
3818.00,0.0002
3817.00,0.0002
3816.00,0.0003
3815.00,0.0003
3814.00,0.0003
3813.00,0.0003
3812.00,0.0002
3811.00,0.0002
3810.00,0.0002
3809.00,0.0002
3808.00,0.0002
3807.00,0.0002
3806.00,0.0002
3805.00,0.0003
3804.00,0.0003
3803.00,0.0003
3802.00,0.0003
3801.00,0.0003
3800.00,0.0003
3799.00,0.0003
3798.00,0.0003
3797.00,0.0003
3796.00,0.0003
3795.00,0.0002
3794.00,0.0002
3793.00,0.0002
3792.00,0.0002
3791.00,0.0002
3790.00,0.0002
3789.00,0.0002
3788.00,0.0002
3787.00,0.0002
3786.00,0.0002
3785.00,0.0002
3784.00,0.0002
3783.00,0.0003
3782.00,0.0003
3781.00,0.0003
3780.00,0.0003
3779.00,0.0003
3778.00,0.0003
3777.00,0.0003
3776.00,0.0003
3775.00,0.0003
3774.00,0.0003
3773.00,0.0003
3772.00,0.0003
3771.00,0.0003
3770.00,0.0003
3769.00,0.0003
3768.00,0.0003
3767.00,0.0003
3766.00,0.0003
3765.00,0.0003
3764.00,0.0003
3763.00,0.0003
3762.00,0.0003
3761.00,0.0002
3760.00,0.0002
3759.00,0.0003
3758.00,0.0003
3757.00,0.0003
3756.00,0.0004
3755.00,0.0004
3754.00,0.0004
3753.00,0.0004
3752.00,0.0005
3751.00,0.0005
3750.00,0.0005
3749.00,0.0005
3748.00,0.0005
3747.00,0.0004
3746.00,0.0004
3745.00,0.0004
3744.00,0.0004
3743.00,0.0004
3742.00,0.0003
3741.00,0.0003
3740.00,0.0004
3739.00,0.0004
3738.00,0.0004
3737.00,0.0004
3736.00,0.0004
3735.00,0.0004
3734.00,0.0004
3733.00,0.0004
3732.00,0.0004
3731.00,0.0004
3730.00,0.0004
3729.00,0.0004
3728.00,0.0004
3727.00,0.0004
3726.00,0.0004
3725.00,0.0003
3724.00,0.0003
3723.00,0.0003
3722.00,0.0003
3721.00,0.0003
3720.00,0.0003
3719.00,0.0003
3718.00,0.0002
3717.00,0.0002
3716.00,0.0002
3715.00,0.0003
3714.00,0.0003
3713.00,0.0003
3712.00,0.0003
3711.00,0.0003
3710.00,0.0003
3709.00,0.0003
3708.00,0.0003
3707.00,0.0003
3706.00,0.0003
3705.00,0.0003
3704.00,0.0003
3703.00,0.0003
3702.00,0.0003
3701.00,0.0003
3700.00,0.0003
3699.00,0.0003
3698.00,0.0003
3697.00,0.0003
3696.00,0.0003
3695.00,0.0003
3694.00,0.0003
3693.00,0.0003
3692.00,0.0003
3691.00,0.0003
3690.00,0.0003
3689.00,0.0004
3688.00,0.0004
3687.00,0.0004
3686.00,0.0004
3685.00,0.0004
3684.00,0.0005
3683.00,0.0005
3682.00,0.0005
3681.00,0.0005
3680.00,0.0006
3679.00,0.0006
3678.00,0.0006
3677.00,0.0006
3676.00,0.0006
3675.00,0.0006
3674.00,0.0006
3673.00,0.0006
3672.00,0.0007
3671.00,0.0007
3670.00,0.0006
3669.00,0.0006
3668.00,0.0006
3667.00,0.0007
3666.00,0.0007
3665.00,0.0007
3664.00,0.0008
3663.00,0.0008
3662.00,0.0008
3661.00,0.0008
3660.00,0.0008
3659.00,0.0008
3658.00,0.0008
3657.00,0.0008
3656.00,0.0009
3655.00,0.0009
3654.00,0.0009
3653.00,0.0010
3652.00,0.0010
3651.00,0.0010
3650.00,0.0011
3649.00,0.0012
3648.00,0.0012
3647.00,0.0012
3646.00,0.0012
3645.00,0.0012
3644.00,0.0012
3643.00,0.0012
3642.00,0.0012
3641.00,0.0013
3640.00,0.0013
3639.00,0.0013
3638.00,0.0013
3637.00,0.0014
3636.00,0.0014
3635.00,0.0014
3634.00,0.0014
3633.00,0.0014
3632.00,0.0014
3631.00,0.0014
3630.00,0.0015
3629.00,0.0015
3628.00,0.0016
3627.00,0.0016
3626.00,0.0017
3625.00,0.0017
3624.00,0.0017
3623.00,0.0017
3622.00,0.0017
3621.00,0.0017
3620.00,0.0018
3619.00,0.0018
3618.00,0.0019
3617.00,0.0020
3616.00,0.0020
3615.00,0.0021
3614.00,0.0021
3613.00,0.0021
3612.00,0.0022
3611.00,0.0022
3610.00,0.0022
3609.00,0.0023
3608.00,0.0023
3607.00,0.0023
3606.00,0.0024
3605.00,0.0024
3604.00,0.0024
3603.00,0.0024
3602.00,0.0025
3601.00,0.0025
3600.00,0.0026
3599.00,0.0027
3598.00,0.0027
3597.00,0.0027
3596.00,0.0027
3595.00,0.0028
3594.00,0.0028
3593.00,0.0029
3592.00,0.0029
3591.00,0.0030
3590.00,0.0031
3589.00,0.0031
3588.00,0.0031
3587.00,0.0031
3586.00,0.0032
3585.00,0.0032
3584.00,0.0033
3583.00,0.0034
3582.00,0.0034
3581.00,0.0035
3580.00,0.0035
3579.00,0.0036
3578.00,0.0036
3577.00,0.0037
3576.00,0.0037
3575.00,0.0038
3574.00,0.0038
3573.00,0.0039
3572.00,0.0040
3571.00,0.0041
3570.00,0.0041
3569.00,0.0042
3568.00,0.0043
3567.00,0.0043
3566.00,0.0043
3565.00,0.0043
3564.00,0.0044
3563.00,0.0045
3562.00,0.0045
3561.00,0.0046
3560.00,0.0046
3559.00,0.0047
3558.00,0.0047
3557.00,0.0047
3556.00,0.0048
3555.00,0.0048
3554.00,0.0049
3553.00,0.0050
3552.00,0.0050
3551.00,0.0050
3550.00,0.0051
3549.00,0.0052
3548.00,0.0052
3547.00,0.0053
3546.00,0.0053
3545.00,0.0054
3544.00,0.0054
3543.00,0.0054
3542.00,0.0055
3541.00,0.0055
3540.00,0.0055
3539.00,0.0056
3538.00,0.0056
3537.00,0.0057
3536.00,0.0057
3535.00,0.0057
3534.00,0.0058
3533.00,0.0058
3532.00,0.0059
3531.00,0.0059
3530.00,0.0059
3529.00,0.0060
3528.00,0.0061
3527.00,0.0061
3526.00,0.0062
3525.00,0.0062
3524.00,0.0062
3523.00,0.0062
3522.00,0.0062
3521.00,0.0063
3520.00,0.0063
3519.00,0.0063
3518.00,0.0064
3517.00,0.0064
3516.00,0.0064
3515.00,0.0065
3514.00,0.0065
3513.00,0.0065
3512.00,0.0065
3511.00,0.0066
3510.00,0.0066
3509.00,0.0066
3508.00,0.0066
3507.00,0.0067
3506.00,0.0067
3505.00,0.0068
3504.00,0.0068
3503.00,0.0068
3502.00,0.0068
3501.00,0.0069
3500.00,0.0069
3499.00,0.0069
3498.00,0.0070
3497.00,0.0070
3496.00,0.0070
3495.00,0.0071
3494.00,0.0071
3493.00,0.0071
3492.00,0.0071
3491.00,0.0071
3490.00,0.0071
3489.00,0.0071
3488.00,0.0071
3487.00,0.0071
3486.00,0.0071
3485.00,0.0072
3484.00,0.0072
3483.00,0.0072
3482.00,0.0073
3481.00,0.0073
3480.00,0.0073
3479.00,0.0073
3478.00,0.0074
3477.00,0.0074
3476.00,0.0074
3475.00,0.0075
3474.00,0.0075
3473.00,0.0075
3472.00,0.0075
3471.00,0.0075
3470.00,0.0075
3469.00,0.0076
3468.00,0.0076
3467.00,0.0076
3466.00,0.0076
3465.00,0.0076
3464.00,0.0076
3463.00,0.0076
3462.00,0.0077
3461.00,0.0077
3460.00,0.0077
3459.00,0.0078
3458.00,0.0078
3457.00,0.0078
3456.00,0.0078
3455.00,0.0078
3454.00,0.0078
3453.00,0.0078
3452.00,0.0079
3451.00,0.0079
3450.00,0.0079
3449.00,0.0079
3448.00,0.0079
3447.00,0.0079
3446.00,0.0079
3445.00,0.0079
3444.00,0.0079
3443.00,0.0079
3442.00,0.0079
3441.00,0.0080
3440.00,0.0080
3439.00,0.0080
3438.00,0.0080
3437.00,0.0080
3436.00,0.0080
3435.00,0.0080
3434.00,0.0080
3433.00,0.0080
3432.00,0.0080
3431.00,0.0080
3430.00,0.0080
3429.00,0.0080
3428.00,0.0080
3427.00,0.0080
3426.00,0.0080
3425.00,0.0080
3424.00,0.0080
3423.00,0.0080
3422.00,0.0080
3421.00,0.0080
3420.00,0.0080
3419.00,0.0080
3418.00,0.0080
3417.00,0.0081
3416.00,0.0081
3415.00,0.0081
3414.00,0.0081
3413.00,0.0080
3412.00,0.0080
3411.00,0.0080
3410.00,0.0080
3409.00,0.0080
3408.00,0.0080
3407.00,0.0080
3406.00,0.0080
3405.00,0.0079
3404.00,0.0079
3403.00,0.0079
3402.00,0.0080
3401.00,0.0080
3400.00,0.0080
3399.00,0.0080
3398.00,0.0080
3397.00,0.0079
3396.00,0.0079
3395.00,0.0079
3394.00,0.0079
3393.00,0.0079
3392.00,0.0079
3391.00,0.0079
3390.00,0.0079
3389.00,0.0079
3388.00,0.0079
3387.00,0.0079
3386.00,0.0079
3385.00,0.0079
3384.00,0.0078
3383.00,0.0078
3382.00,0.0078
3381.00,0.0078
3380.00,0.0078
3379.00,0.0078
3378.00,0.0078
3377.00,0.0078
3376.00,0.0078
3375.00,0.0077
3374.00,0.0077
3373.00,0.0076
3372.00,0.0076
3371.00,0.0075
3370.00,0.0074
3369.00,0.0074
3368.00,0.0074
3367.00,0.0074
3366.00,0.0074
3365.00,0.0075
3364.00,0.0075
3363.00,0.0075
3362.00,0.0075
3361.00,0.0075
3360.00,0.0075
3359.00,0.0075
3358.00,0.0075
3357.00,0.0074
3356.00,0.0074
3355.00,0.0074
3354.00,0.0074
3353.00,0.0073
3352.00,0.0073
3351.00,0.0073
3350.00,0.0073
3349.00,0.0073
3348.00,0.0073
3347.00,0.0073
3346.00,0.0073
3345.00,0.0073
3344.00,0.0072
3343.00,0.0072
3342.00,0.0072
3341.00,0.0071
3340.00,0.0071
3339.00,0.0071
3338.00,0.0071
3337.00,0.0071
3336.00,0.0071
3335.00,0.0071
3334.00,0.0071
3333.00,0.0071
3332.00,0.0071
3331.00,0.0071
3330.00,0.0071
3329.00,0.0071
3328.00,0.0071
3327.00,0.0070
3326.00,0.0070
3325.00,0.0070
3324.00,0.0070
3323.00,0.0070
3322.00,0.0071
3321.00,0.0071
3320.00,0.0071
3319.00,0.0071
3318.00,0.0071
3317.00,0.0071
3316.00,0.0071
3315.00,0.0070
3314.00,0.0070
3313.00,0.0070
3312.00,0.0070
3311.00,0.0069
3310.00,0.0068
3309.00,0.0067
3308.00,0.0066
3307.00,0.0066
3306.00,0.0066
3305.00,0.0066
3304.00,0.0067
3303.00,0.0068
3302.00,0.0069
3301.00,0.0070
3300.00,0.0070
3299.00,0.0069
3298.00,0.0069
3297.00,0.0068
3296.00,0.0067
3295.00,0.0067
3294.00,0.0067
3293.00,0.0067
3292.00,0.0068
3291.00,0.0068
3290.00,0.0068
3289.00,0.0069
3288.00,0.0069
3287.00,0.0069
3286.00,0.0069
3285.00,0.0069
3284.00,0.0069
3283.00,0.0069
3282.00,0.0069
3281.00,0.0068
3280.00,0.0068
3279.00,0.0068
3278.00,0.0068
3277.00,0.0068
3276.00,0.0067
3275.00,0.0067
3274.00,0.0067
3273.00,0.0066
3272.00,0.0065
3271.00,0.0065
3270.00,0.0065
3269.00,0.0065
3268.00,0.0066
3267.00,0.0066
3266.00,0.0066
3265.00,0.0066
3264.00,0.0065
3263.00,0.0065
3262.00,0.0065
3261.00,0.0065
3260.00,0.0065
3259.00,0.0064
3258.00,0.0064
3257.00,0.0064
3256.00,0.0064
3255.00,0.0064
3254.00,0.0063
3253.00,0.0063
3252.00,0.0063
3251.00,0.0063
3250.00,0.0062
3249.00,0.0062
3248.00,0.0061
3247.00,0.0061
3246.00,0.0061
3245.00,0.0061
3244.00,0.0061
3243.00,0.0061
3242.00,0.0061
3241.00,0.0061
3240.00,0.0061
3239.00,0.0061
3238.00,0.0061
3237.00,0.0060
3236.00,0.0060
3235.00,0.0060
3234.00,0.0059
3233.00,0.0059
3232.00,0.0059
3231.00,0.0059
3230.00,0.0059
3229.00,0.0059
3228.00,0.0059
3227.00,0.0059
3226.00,0.0058
3225.00,0.0058
3224.00,0.0058
3223.00,0.0058
3222.00,0.0057
3221.00,0.0057
3220.00,0.0057
3219.00,0.0056
3218.00,0.0056
3217.00,0.0056
3216.00,0.0056
3215.00,0.0056
3214.00,0.0056
3213.00,0.0056
3212.00,0.0055
3211.00,0.0055
3210.00,0.0055
3209.00,0.0055
3208.00,0.0054
3207.00,0.0054
3206.00,0.0054
3205.00,0.0053
3204.00,0.0053
3203.00,0.0053
3202.00,0.0053
3201.00,0.0052
3200.00,0.0052
3199.00,0.0052
3198.00,0.0052
3197.00,0.0052
3196.00,0.0051
3195.00,0.0051
3194.00,0.0051
3193.00,0.0050
3192.00,0.0050
3191.00,0.0050
3190.00,0.0050
3189.00,0.0050
3188.00,0.0049
3187.00,0.0049
3186.00,0.0049
3185.00,0.0049
3184.00,0.0048
3183.00,0.0048
3182.00,0.0048
3181.00,0.0048
3180.00,0.0048
3179.00,0.0048
3178.00,0.0048
3177.00,0.0048
3176.00,0.0047
3175.00,0.0047
3174.00,0.0047
3173.00,0.0047
3172.00,0.0047
3171.00,0.0046
3170.00,0.0046
3169.00,0.0046
3168.00,0.0046
3167.00,0.0046
3166.00,0.0046
3165.00,0.0046
3164.00,0.0046
3163.00,0.0045
3162.00,0.0045
3161.00,0.0045
3160.00,0.0045
3159.00,0.0045
3158.00,0.0045
3157.00,0.0045
3156.00,0.0044
3155.00,0.0044
3154.00,0.0044
3153.00,0.0044
3152.00,0.0043
3151.00,0.0043
3150.00,0.0043
3149.00,0.0043
3148.00,0.0043
3147.00,0.0042
3146.00,0.0042
3145.00,0.0042
3144.00,0.0042
3143.00,0.0042
3142.00,0.0042
3141.00,0.0042
3140.00,0.0041
3139.00,0.0041
3138.00,0.0041
3137.00,0.0041
3136.00,0.0040
3135.00,0.0040
3134.00,0.0040
3133.00,0.0040
3132.00,0.0040
3131.00,0.0040
3130.00,0.0040
3129.00,0.0040
3128.00,0.0040
3127.00,0.0040
3126.00,0.0040
3125.00,0.0039
3124.00,0.0039
3123.00,0.0039
3122.00,0.0039
3121.00,0.0039
3120.00,0.0039
3119.00,0.0039
3118.00,0.0039
3117.00,0.0039
3116.00,0.0038
3115.00,0.0038
3114.00,0.0038
3113.00,0.0038
3112.00,0.0038
3111.00,0.0038
3110.00,0.0038
3109.00,0.0037
3108.00,0.0037
3107.00,0.0037
3106.00,0.0037
3105.00,0.0037
3104.00,0.0037
3103.00,0.0037
3102.00,0.0037
3101.00,0.0037
3100.00,0.0037
3099.00,0.0037
3098.00,0.0036
3097.00,0.0036
3096.00,0.0036
3095.00,0.0036
3094.00,0.0036
3093.00,0.0036
3092.00,0.0036
3091.00,0.0035
3090.00,0.0035
3089.00,0.0035
3088.00,0.0035
3087.00,0.0035
3086.00,0.0035
3085.00,0.0035
3084.00,0.0035
3083.00,0.0035
3082.00,0.0035
3081.00,0.0035
3080.00,0.0035
3079.00,0.0035
3078.00,0.0035
3077.00,0.0035
3076.00,0.0035
3075.00,0.0035
3074.00,0.0034
3073.00,0.0034
3072.00,0.0034
3071.00,0.0034
3070.00,0.0034
3069.00,0.0034
3068.00,0.0034
3067.00,0.0034
3066.00,0.0034
3065.00,0.0034
3064.00,0.0034
3063.00,0.0034
3062.00,0.0033
3061.00,0.0033
3060.00,0.0033
3059.00,0.0033
3058.00,0.0033
3057.00,0.0032
3056.00,0.0032
3055.00,0.0032
3054.00,0.0032
3053.00,0.0032
3052.00,0.0032
3051.00,0.0032
3050.00,0.0032
3049.00,0.0032
3048.00,0.0032
3047.00,0.0032
3046.00,0.0032
3045.00,0.0031
3044.00,0.0031
3043.00,0.0031
3042.00,0.0031
3041.00,0.0031
3040.00,0.0031
3039.00,0.0031
3038.00,0.0030
3037.00,0.0030
3036.00,0.0030
3035.00,0.0030
3034.00,0.0031
3033.00,0.0031
3032.00,0.0031
3031.00,0.0031
3030.00,0.0030
3029.00,0.0030
3028.00,0.0030
3027.00,0.0030
3026.00,0.0030
3025.00,0.0030
3024.00,0.0030
3023.00,0.0030
3022.00,0.0030
3021.00,0.0031
3020.00,0.0031
3019.00,0.0031
3018.00,0.0031
3017.00,0.0031
3016.00,0.0031
3015.00,0.0031
3014.00,0.0031
3013.00,0.0032
3012.00,0.0032
3011.00,0.0033
3010.00,0.0033
3009.00,0.0034
3008.00,0.0034
3007.00,0.0035
3006.00,0.0036
3005.00,0.0037
3004.00,0.0039
3003.00,0.0040
3002.00,0.0041
3001.00,0.0042
3000.00,0.0043
2999.00,0.0045
2998.00,0.0046
2997.00,0.0048
2996.00,0.0050
2995.00,0.0051
2994.00,0.0053
2993.00,0.0055
2992.00,0.0057
2991.00,0.0059
2990.00,0.0061
2989.00,0.0062
2988.00,0.0064
2987.00,0.0066
2986.00,0.0068
2985.00,0.0070
2984.00,0.0072
2983.00,0.0073
2982.00,0.0074
2981.00,0.0076
2980.00,0.0076
2979.00,0.0077
2978.00,0.0078
2977.00,0.0079
2976.00,0.0079
2975.00,0.0080
2974.00,0.0081
2973.00,0.0082
2972.00,0.0083
2971.00,0.0083
2970.00,0.0084
2969.00,0.0085
2968.00,0.0086
2967.00,0.0087
2966.00,0.0088
2965.00,0.0089
2964.00,0.0090
2963.00,0.0091
2962.00,0.0092
2961.00,0.0094
2960.00,0.0095
2959.00,0.0096
2958.00,0.0097
2957.00,0.0097
2956.00,0.0098
2955.00,0.0098
2954.00,0.0099
2953.00,0.0099
2952.00,0.0099
2951.00,0.0099
2950.00,0.0098
2949.00,0.0098
2948.00,0.0097
2947.00,0.0097
2946.00,0.0096
2945.00,0.0095
2944.00,0.0095
2943.00,0.0094
2942.00,0.0094
2941.00,0.0094
2940.00,0.0094
2939.00,0.0094
2938.00,0.0094
2937.00,0.0095
2936.00,0.0096
2935.00,0.0097
2934.00,0.0097
2933.00,0.0098
2932.00,0.0098
2931.00,0.0099
2930.00,0.0099
2929.00,0.0100
2928.00,0.0100
2927.00,0.0101
2926.00,0.0101
2925.00,0.0101
2924.00,0.0101
2923.00,0.0101
2922.00,0.0100
2921.00,0.0099
2920.00,0.0098
2919.00,0.0096
2918.00,0.0094
2917.00,0.0093
2916.00,0.0091
2915.00,0.0089
2914.00,0.0088
2913.00,0.0086
2912.00,0.0085
2911.00,0.0084
2910.00,0.0083
2909.00,0.0082
2908.00,0.0081
2907.00,0.0080
2906.00,0.0079
2905.00,0.0078
2904.00,0.0077
2903.00,0.0076
2902.00,0.0076
2901.00,0.0076
2900.00,0.0076
2899.00,0.0075
2898.00,0.0075
2897.00,0.0076
2896.00,0.0076
2895.00,0.0076
2894.00,0.0076
2893.00,0.0076
2892.00,0.0076
2891.00,0.0076
2890.00,0.0077
2889.00,0.0076
2888.00,0.0076
2887.00,0.0076
2886.00,0.0076
2885.00,0.0076
2884.00,0.0076
2883.00,0.0076
2882.00,0.0076
2881.00,0.0076
2880.00,0.0076
2879.00,0.0076
2878.00,0.0076
2877.00,0.0076
2876.00,0.0077
2875.00,0.0077
2874.00,0.0077
2873.00,0.0077
2872.00,0.0077
2871.00,0.0077
2870.00,0.0077
2869.00,0.0076
2868.00,0.0076
2867.00,0.0076
2866.00,0.0076
2865.00,0.0076
2864.00,0.0076
2863.00,0.0075
2862.00,0.0075
2861.00,0.0075
2860.00,0.0075
2859.00,0.0074
2858.00,0.0074
2857.00,0.0073
2856.00,0.0072
2855.00,0.0071
2854.00,0.0069
2853.00,0.0067
2852.00,0.0065
2851.00,0.0063
2850.00,0.0060
2849.00,0.0057
2848.00,0.0055
2847.00,0.0054
2846.00,0.0052
2845.00,0.0051
2844.00,0.0049
2843.00,0.0048
2842.00,0.0046
2841.00,0.0045
2840.00,0.0043
2839.00,0.0042
2838.00,0.0040
2837.00,0.0039
2836.00,0.0039
2835.00,0.0038
2834.00,0.0037
2833.00,0.0036
2832.00,0.0035
2831.00,0.0035
2830.00,0.0034
2829.00,0.0033
2828.00,0.0032
2827.00,0.0031
2826.00,0.0030
2825.00,0.0030
2824.00,0.0029
2823.00,0.0028
2822.00,0.0028
2821.00,0.0027
2820.00,0.0026
2819.00,0.0026
2818.00,0.0025
2817.00,0.0025
2816.00,0.0025
2815.00,0.0024
2814.00,0.0024
2813.00,0.0023
2812.00,0.0023
2811.00,0.0023
2810.00,0.0023
2809.00,0.0022
2808.00,0.0022
2807.00,0.0022
2806.00,0.0022
2805.00,0.0022
2804.00,0.0022
2803.00,0.0021
2802.00,0.0021
2801.00,0.0021
2800.00,0.0021
2799.00,0.0021
2798.00,0.0020
2797.00,0.0020
2796.00,0.0020
2795.00,0.0020
2794.00,0.0020
2793.00,0.0020
2792.00,0.0020
2791.00,0.0019
2790.00,0.0019
2789.00,0.0019
2788.00,0.0019
2787.00,0.0019
2786.00,0.0019
2785.00,0.0019
2784.00,0.0018
2783.00,0.0018
2782.00,0.0018
2781.00,0.0018
2780.00,0.0018
2779.00,0.0018
2778.00,0.0018
2777.00,0.0018
2776.00,0.0018
2775.00,0.0018
2774.00,0.0017
2773.00,0.0017
2772.00,0.0017
2771.00,0.0017
2770.00,0.0017
2769.00,0.0017
2768.00,0.0017
2767.00,0.0017
2766.00,0.0017
2765.00,0.0017
2764.00,0.0017
2763.00,0.0017
2762.00,0.0017
2761.00,0.0017
2760.00,0.0017
2759.00,0.0017
2758.00,0.0017
2757.00,0.0017
2756.00,0.0017
2755.00,0.0017
2754.00,0.0017
2753.00,0.0017
2752.00,0.0017
2751.00,0.0017
2750.00,0.0017
2749.00,0.0017
2748.00,0.0017
2747.00,0.0017
2746.00,0.0017
2745.00,0.0017
2744.00,0.0017
2743.00,0.0017
2742.00,0.0018
2741.00,0.0017
2740.00,0.0017
2739.00,0.0017
2738.00,0.0017
2737.00,0.0017
2736.00,0.0017
2735.00,0.0017
2734.00,0.0018
2733.00,0.0018
2732.00,0.0018
2731.00,0.0018
2730.00,0.0017
2729.00,0.0017
2728.00,0.0017
2727.00,0.0017
2726.00,0.0017
2725.00,0.0017
2724.00,0.0017
2723.00,0.0017
2722.00,0.0017
2721.00,0.0017
2720.00,0.0017
2719.00,0.0017
2718.00,0.0017
2717.00,0.0017
2716.00,0.0016
2715.00,0.0016
2714.00,0.0016
2713.00,0.0016
2712.00,0.0016
2711.00,0.0016
2710.00,0.0016
2709.00,0.0016
2708.00,0.0016
2707.00,0.0016
2706.00,0.0016
2705.00,0.0016
2704.00,0.0015
2703.00,0.0015
2702.00,0.0015
2701.00,0.0015
2700.00,0.0015
2699.00,0.0015
2698.00,0.0015
2697.00,0.0015
2696.00,0.0015
2695.00,0.0015
2694.00,0.0015
2693.00,0.0015
2692.00,0.0014
2691.00,0.0014
2690.00,0.0014
2689.00,0.0014
2688.00,0.0014
2687.00,0.0014
2686.00,0.0014
2685.00,0.0014
2684.00,0.0014
2683.00,0.0014
2682.00,0.0014
2681.00,0.0014
2680.00,0.0014
2679.00,0.0014
2678.00,0.0014
2677.00,0.0014
2676.00,0.0014
2675.00,0.0014
2674.00,0.0014
2673.00,0.0014
2672.00,0.0014
2671.00,0.0014
2670.00,0.0014
2669.00,0.0014
2668.00,0.0014
2667.00,0.0014
2666.00,0.0014
2665.00,0.0015
2664.00,0.0015
2663.00,0.0015
2662.00,0.0016
2661.00,0.0016
2660.00,0.0016
2659.00,0.0017
2658.00,0.0017
2657.00,0.0017
2656.00,0.0017
2655.00,0.0017
2654.00,0.0017
2653.00,0.0017
2652.00,0.0017
2651.00,0.0017
2650.00,0.0017
2649.00,0.0017
2648.00,0.0017
2647.00,0.0017
2646.00,0.0017
2645.00,0.0016
2644.00,0.0016
2643.00,0.0016
2642.00,0.0016
2641.00,0.0016
2640.00,0.0016
2639.00,0.0016
2638.00,0.0016
2637.00,0.0016
2636.00,0.0016
2635.00,0.0016
2634.00,0.0016
2633.00,0.0016
2632.00,0.0016
2631.00,0.0016
2630.00,0.0015
2629.00,0.0015
2628.00,0.0015
2627.00,0.0015
2626.00,0.0014
2625.00,0.0014
2624.00,0.0014
2623.00,0.0014
2622.00,0.0014
2621.00,0.0015
2620.00,0.0015
2619.00,0.0014
2618.00,0.0014
2617.00,0.0014
2616.00,0.0014
2615.00,0.0014
2614.00,0.0014
2613.00,0.0014
2612.00,0.0014
2611.00,0.0014
2610.00,0.0014
2609.00,0.0014
2608.00,0.0014
2607.00,0.0014
2606.00,0.0014
2605.00,0.0014
2604.00,0.0014
2603.00,0.0013
2602.00,0.0013
2601.00,0.0013
2600.00,0.0013
2599.00,0.0013
2598.00,0.0013
2597.00,0.0013
2596.00,0.0013
2595.00,0.0013
2594.00,0.0013
2593.00,0.0013
2592.00,0.0013
2591.00,0.0013
2590.00,0.0013
2589.00,0.0013
2588.00,0.0013
2587.00,0.0012
2586.00,0.0012
2585.00,0.0013
2584.00,0.0013
2583.00,0.0013
2582.00,0.0013
2581.00,0.0013
2580.00,0.0013
2579.00,0.0012
2578.00,0.0012
2577.00,0.0012
2576.00,0.0012
2575.00,0.0012
2574.00,0.0012
2573.00,0.0013
2572.00,0.0013
2571.00,0.0013
2570.00,0.0012
2569.00,0.0012
2568.00,0.0012
2567.00,0.0012
2566.00,0.0012
2565.00,0.0012
2564.00,0.0011
2563.00,0.0011
2562.00,0.0011
2561.00,0.0011
2560.00,0.0010
2559.00,0.0010
2558.00,0.0010
2557.00,0.0010
2556.00,0.0010
2555.00,0.0010
2554.00,0.0010
2553.00,0.0010
2552.00,0.0010
2551.00,0.0010
2550.00,0.0010
2549.00,0.0010
2548.00,0.0010
2547.00,0.0010
2546.00,0.0010
2545.00,0.0010
2544.00,0.0010
2543.00,0.0010
2542.00,0.0010
2541.00,0.0010
2540.00,0.0010
2539.00,0.0009
2538.00,0.0008
2537.00,0.0008
2536.00,0.0008
2535.00,0.0009
2534.00,0.0009
2533.00,0.0009
2532.00,0.0009
2531.00,0.0009
2530.00,0.0008
2529.00,0.0008
2528.00,0.0008
2527.00,0.0009
2526.00,0.0009
2525.00,0.0008
2524.00,0.0008
2523.00,0.0007
2522.00,0.0007
2521.00,0.0007
2520.00,0.0007
2519.00,0.0006
2518.00,0.0006
2517.00,0.0006
2516.00,0.0006
2515.00,0.0006
2514.00,0.0006
2513.00,0.0007
2512.00,0.0007
2511.00,0.0007
2510.00,0.0006
2509.00,0.0006
2508.00,0.0006
2507.00,0.0006
2506.00,0.0006
2505.00,0.0006
2504.00,0.0006
2503.00,0.0006
2502.00,0.0005
2501.00,0.0005
2500.00,0.0005
2499.00,0.0005
2498.00,0.0006
2497.00,0.0006
2496.00,0.0006
2495.00,0.0006
2494.00,0.0006
2493.00,0.0006
2492.00,0.0006
2491.00,0.0005
2490.00,0.0005
2489.00,0.0005
2488.00,0.0005
2487.00,0.0005
2486.00,0.0006
2485.00,0.0006
2484.00,0.0006
2483.00,0.0006
2482.00,0.0005
2481.00,0.0005
2480.00,0.0005
2479.00,0.0005
2478.00,0.0005
2477.00,0.0005
2476.00,0.0006
2475.00,0.0006
2474.00,0.0006
2473.00,0.0006
2472.00,0.0006
2471.00,0.0006
2470.00,0.0005
2469.00,0.0006
2468.00,0.0006
2467.00,0.0006
2466.00,0.0006
2465.00,0.0006
2464.00,0.0006
2463.00,0.0006
2462.00,0.0007
2461.00,0.0007
2460.00,0.0007
2459.00,0.0006
2458.00,0.0006
2457.00,0.0006
2456.00,0.0006
2455.00,0.0006
2454.00,0.0007
2453.00,0.0007
2452.00,0.0007
2451.00,0.0007
2450.00,0.0007
2449.00,0.0006
2448.00,0.0006
2447.00,0.0006
2446.00,0.0006
2445.00,0.0006
2444.00,0.0006
2443.00,0.0006
2442.00,0.0006
2441.00,0.0006
2440.00,0.0006
2439.00,0.0005
2438.00,0.0005
2437.00,0.0005
2436.00,0.0005
2435.00,0.0005
2434.00,0.0004
2433.00,0.0004
2432.00,0.0004
2431.00,0.0003
2430.00,0.0003
2429.00,0.0004
2428.00,0.0004
2427.00,0.0004
2426.00,0.0005
2425.00,0.0005
2424.00,0.0005
2423.00,0.0005
2422.00,0.0004
2421.00,0.0004
2420.00,0.0004
2419.00,0.0005
2418.00,0.0005
2417.00,0.0006
2416.00,0.0006
2415.00,0.0005
2414.00,0.0005
2413.00,0.0005
2412.00,0.0005
2411.00,0.0004
2410.00,0.0004
2409.00,0.0003
2408.00,0.0003
2407.00,0.0003
2406.00,0.0003
2405.00,0.0003
2404.00,0.0003
2403.00,0.0003
2402.00,0.0003
2401.00,0.0003
2400.00,0.0003
2399.00,0.0003
2398.00,0.0003
2397.00,0.0003
2396.00,0.0003
2395.00,0.0003
2394.00,0.0003
2393.00,0.0003
2392.00,0.0003
2391.00,0.0002
2390.00,0.0002
2389.00,0.0002
2388.00,0.0002
2387.00,0.0002
2386.00,0.0002
2385.00,0.0002
2384.00,0.0002
2383.00,0.0002
2382.00,0.0002
2381.00,0.0002
2380.00,0.0002
2379.00,0.0002
2378.00,0.0002
2377.00,0.0002
2376.00,0.0002
2375.00,0.0002
2374.00,0.0002
2373.00,0.0001
2372.00,0.0001
2371.00,0.0001
2370.00,0.0001
2369.00,0.0001
2368.00,0.0001
2367.00,0.0001
2366.00,0.0001
2365.00,0.0002
2364.00,0.0002
2363.00,0.0002
2362.00,0.0002
2361.00,0.0003
2360.00,0.0003
2359.00,0.0003
2358.00,0.0003
2357.00,0.0004
2356.00,0.0003
2355.00,0.0003
2354.00,0.0003
2353.00,0.0002
2352.00,0.0002
2351.00,0.0002
2350.00,0.0003
2349.00,0.0004
2348.00,0.0004
2347.00,0.0005
2346.00,0.0005
2345.00,0.0005
2344.00,0.0005
2343.00,0.0005
2342.00,0.0006
2341.00,0.0006
2340.00,0.0006
2339.00,0.0006
2338.00,0.0006
2337.00,0.0006
2336.00,0.0006
2335.00,0.0005
2334.00,0.0005
2333.00,0.0005
2332.00,0.0005
2331.00,0.0005
2330.00,0.0005
2329.00,0.0007
2328.00,0.0009
2327.00,0.0013
2326.00,0.0015
2325.00,0.0016
2324.00,0.0016
2323.00,0.0015
2322.00,0.0014
2321.00,0.0013
2320.00,0.0012
2319.00,0.0012
2318.00,0.0011
2317.00,0.0011
2316.00,0.0011
2315.00,0.0010
2314.00,0.0010
2313.00,0.0009
2312.00,0.0009
2311.00,0.0009
2310.00,0.0009
2309.00,0.0009
2308.00,0.0009
2307.00,0.0009
2306.00,0.0009
2305.00,0.0008
2304.00,0.0009
2303.00,0.0009
2302.00,0.0009
2301.00,0.0010
2300.00,0.0010
2299.00,0.0010
2298.00,0.0011
2297.00,0.0011
2296.00,0.0011
2295.00,0.0012
2294.00,0.0012
2293.00,0.0012
2292.00,0.0013
2291.00,0.0013
2290.00,0.0014
2289.00,0.0014
2288.00,0.0015
2287.00,0.0015
2286.00,0.0014
2285.00,0.0013
2284.00,0.0012
2283.00,0.0012
2282.00,0.0011
2281.00,0.0012
2280.00,0.0012
2279.00,0.0012
2278.00,0.0011
2277.00,0.0011
2276.00,0.0011
2275.00,0.0010
2274.00,0.0010
2273.00,0.0010
2272.00,0.0010
2271.00,0.0010
2270.00,0.0009
2269.00,0.0008
2268.00,0.0008
2267.00,0.0008
2266.00,0.0008
2265.00,0.0008
2264.00,0.0008
2263.00,0.0008
2262.00,0.0008
2261.00,0.0008
2260.00,0.0008
2259.00,0.0009
2258.00,0.0009
2257.00,0.0009
2256.00,0.0008
2255.00,0.0007
2254.00,0.0007
2253.00,0.0007
2252.00,0.0008
2251.00,0.0008
2250.00,0.0008
2249.00,0.0008
2248.00,0.0008
2247.00,0.0008
2246.00,0.0008
2245.00,0.0008
2244.00,0.0008
2243.00,0.0008
2242.00,0.0008
2241.00,0.0008
2240.00,0.0009
2239.00,0.0009
2238.00,0.0009
2237.00,0.0009
2236.00,0.0009
2235.00,0.0008
2234.00,0.0007
2233.00,0.0007
2232.00,0.0007
2231.00,0.0007
2230.00,0.0007
2229.00,0.0007
2228.00,0.0007
2227.00,0.0007
2226.00,0.0007
2225.00,0.0007
2224.00,0.0006
2223.00,0.0006
2222.00,0.0006
2221.00,0.0006
2220.00,0.0006
2219.00,0.0006
2218.00,0.0006
2217.00,0.0006
2216.00,0.0007
2215.00,0.0007
2214.00,0.0008
2213.00,0.0009
2212.00,0.0009
2211.00,0.0009
2210.00,0.0009
2209.00,0.0008
2208.00,0.0007
2207.00,0.0008
2206.00,0.0008
2205.00,0.0009
2204.00,0.0009
2203.00,0.0009
2202.00,0.0009
2201.00,0.0009
2200.00,0.0009
2199.00,0.0010
2198.00,0.0010
2197.00,0.0010
2196.00,0.0010
2195.00,0.0009
2194.00,0.0008
2193.00,0.0008
2192.00,0.0008
2191.00,0.0010
2190.00,0.0011
2189.00,0.0011
2188.00,0.0010
2187.00,0.0009
2186.00,0.0007
2185.00,0.0006
2184.00,0.0005
2183.00,0.0003
2182.00,0.0003
2181.00,0.0004
2180.00,0.0005
2179.00,0.0006
2178.00,0.0006
2177.00,0.0005
2176.00,0.0005
2175.00,0.0005
2174.00,0.0006
2173.00,0.0007
2172.00,0.0008
2171.00,0.0009
2170.00,0.0010
2169.00,0.0011
2168.00,0.0013
2167.00,0.0014
2166.00,0.0014
2165.00,0.0015
2164.00,0.0015
2163.00,0.0015
2162.00,0.0012
2161.00,0.0007
2160.00,-0.0000
2159.00,-0.0008
2158.00,-0.0014
2157.00,-0.0017
2156.00,-0.0016
2155.00,-0.0014
2154.00,-0.0011
2153.00,-0.0008
2152.00,-0.0005
2151.00,-0.0004
2150.00,-0.0003
2149.00,-0.0004
2148.00,-0.0004
2147.00,-0.0005
2146.00,-0.0006
2145.00,-0.0005
2144.00,-0.0005
2143.00,-0.0005
2142.00,-0.0005
2141.00,-0.0005
2140.00,-0.0005
2139.00,-0.0005
2138.00,-0.0006
2137.00,-0.0007
2136.00,-0.0009
2135.00,-0.0010
2134.00,-0.0011
2133.00,-0.0011
2132.00,-0.0009
2131.00,-0.0008
2130.00,-0.0006
2129.00,-0.0005
2128.00,-0.0004
2127.00,-0.0003
2126.00,-0.0002
2125.00,-0.0001
2124.00,-0.0000
2123.00,0.0000
2122.00,0.0001
2121.00,0.0002
2120.00,0.0003
2119.00,0.0003
2118.00,0.0004
2117.00,0.0004
2116.00,0.0005
2115.00,0.0005
2114.00,0.0005
2113.00,0.0005
2112.00,0.0005
2111.00,0.0005
2110.00,0.0005
2109.00,0.0005
2108.00,0.0005
2107.00,0.0005
2106.00,0.0005
2105.00,0.0006
2104.00,0.0007
2103.00,0.0007
2102.00,0.0007
2101.00,0.0006
2100.00,0.0005
2099.00,0.0005
2098.00,0.0004
2097.00,0.0003
2096.00,0.0001
2095.00,0.0001
2094.00,0.0002
2093.00,0.0003
2092.00,0.0004
2091.00,0.0004
2090.00,0.0005
2089.00,0.0005
2088.00,0.0005
2087.00,0.0005
2086.00,0.0005
2085.00,0.0005
2084.00,0.0005
2083.00,0.0006
2082.00,0.0007
2081.00,0.0008
2080.00,0.0008
2079.00,0.0009
2078.00,0.0008
2077.00,0.0008
2076.00,0.0007
2075.00,0.0007
2074.00,0.0006
2073.00,0.0005
2072.00,0.0005
2071.00,0.0004
2070.00,0.0004
2069.00,0.0004
2068.00,0.0004
2067.00,0.0003
2066.00,0.0003
2065.00,0.0003
2064.00,0.0004
2063.00,0.0005
2062.00,0.0005
2061.00,0.0006
2060.00,0.0007
2059.00,0.0007
2058.00,0.0007
2057.00,0.0007
2056.00,0.0007
2055.00,0.0007
2054.00,0.0008
2053.00,0.0011
2052.00,0.0013
2051.00,0.0013
2050.00,0.0011
2049.00,0.0008
2048.00,0.0007
2047.00,0.0006
2046.00,0.0006
2045.00,0.0007
2044.00,0.0007
2043.00,0.0007
2042.00,0.0007
2041.00,0.0007
2040.00,0.0006
2039.00,0.0006
2038.00,0.0005
2037.00,0.0005
2036.00,0.0005
2035.00,0.0005
2034.00,0.0003
2033.00,0.0001
2032.00,-0.0001
2031.00,-0.0001
2030.00,-0.0002
2029.00,-0.0003
2028.00,-0.0003
2027.00,-0.0003
2026.00,-0.0002
2025.00,-0.0002
2024.00,-0.0002
2023.00,-0.0001
2022.00,-0.0001
2021.00,-0.0001
2020.00,-0.0001
2019.00,-0.0002
2018.00,-0.0003
2017.00,-0.0004
2016.00,-0.0004
2015.00,-0.0003
2014.00,-0.0002
2013.00,-0.0001
2012.00,-0.0001
2011.00,-0.0002
2010.00,-0.0002
2009.00,-0.0003
2008.00,-0.0003
2007.00,-0.0004
2006.00,-0.0005
2005.00,-0.0006
2004.00,-0.0005
2003.00,-0.0003
2002.00,-0.0002
2001.00,-0.0002
2000.00,-0.0001
1999.00,-0.0001
1998.00,-0.0000
1997.00,0.0000
1996.00,0.0001
1995.00,0.0001
1994.00,-0.0001
1993.00,-0.0002
1992.00,-0.0001
1991.00,0.0000
1990.00,0.0002
1989.00,0.0003
1988.00,0.0004
1987.00,0.0004
1986.00,0.0005
1985.00,0.0007
1984.00,0.0009
1983.00,0.0011
1982.00,0.0012
1981.00,0.0012
1980.00,0.0010
1979.00,0.0005
1978.00,0.0001
1977.00,-0.0003
1976.00,-0.0004
1975.00,-0.0005
1974.00,-0.0005
1973.00,-0.0005
1972.00,-0.0004
1971.00,-0.0004
1970.00,-0.0004
1969.00,-0.0003
1968.00,-0.0002
1967.00,-0.0000
1966.00,0.0001
1965.00,0.0001
1964.00,-0.0000
1963.00,-0.0002
1962.00,-0.0004
1961.00,-0.0006
1960.00,-0.0007
1959.00,-0.0008
1958.00,-0.0008
1957.00,-0.0007
1956.00,-0.0006
1955.00,-0.0004
1954.00,-0.0004
1953.00,-0.0003
1952.00,-0.0003
1951.00,-0.0003
1950.00,-0.0004
1949.00,-0.0004
1948.00,-0.0004
1947.00,-0.0005
1946.00,-0.0005
1945.00,-0.0005
1944.00,-0.0004
1943.00,-0.0004
1942.00,-0.0004
1941.00,-0.0003
1940.00,-0.0003
1939.00,-0.0002
1938.00,-0.0002
1937.00,-0.0002
1936.00,-0.0001
1935.00,-0.0001
1934.00,-0.0001
1933.00,-0.0001
1932.00,-0.0001
1931.00,-0.0001
1930.00,-0.0001
1929.00,-0.0001
1928.00,-0.0002
1927.00,-0.0002
1926.00,-0.0003
1925.00,-0.0003
1924.00,-0.0002
1923.00,-0.0001
1922.00,-0.0001
1921.00,-0.0001
1920.00,-0.0001
1919.00,-0.0002
1918.00,-0.0002
1917.00,-0.0001
1916.00,-0.0001
1915.00,-0.0001
1914.00,-0.0001
1913.00,-0.0001
1912.00,-0.0000
1911.00,-0.0000
1910.00,0.0000
1909.00,0.0000
1908.00,0.0000
1907.00,0.0000
1906.00,0.0000
1905.00,0.0000
1904.00,-0.0000
1903.00,-0.0000
1902.00,-0.0000
1901.00,-0.0000
1900.00,0.0000
1899.00,0.0000
1898.00,0.0000
1897.00,0.0000
1896.00,0.0000
1895.00,0.0001
1894.00,0.0001
1893.00,0.0001
1892.00,0.0001
1891.00,0.0001
1890.00,0.0001
1889.00,0.0001
1888.00,0.0002
1887.00,0.0002
1886.00,0.0002
1885.00,0.0001
1884.00,0.0001
1883.00,0.0000
1882.00,0.0000
1881.00,0.0001
1880.00,0.0001
1879.00,0.0002
1878.00,0.0002
1877.00,0.0001
1876.00,0.0001
1875.00,0.0001
1874.00,0.0001
1873.00,0.0001
1872.00,0.0001
1871.00,0.0001
1870.00,0.0001
1869.00,0.0002
1868.00,0.0002
1867.00,0.0003
1866.00,0.0003
1865.00,0.0002
1864.00,0.0002
1863.00,0.0002
1862.00,0.0002
1861.00,0.0002
1860.00,0.0002
1859.00,0.0002
1858.00,0.0002
1857.00,0.0002
1856.00,0.0002
1855.00,0.0003
1854.00,0.0003
1853.00,0.0003
1852.00,0.0003
1851.00,0.0003
1850.00,0.0002
1849.00,0.0002
1848.00,0.0001
1847.00,0.0001
1846.00,0.0001
1845.00,0.0002
1844.00,0.0002
1843.00,0.0002
1842.00,0.0002
1841.00,0.0002
1840.00,0.0002
1839.00,0.0002
1838.00,0.0002
1837.00,0.0002
1836.00,0.0002
1835.00,0.0003
1834.00,0.0003
1833.00,0.0003
1832.00,0.0003
1831.00,0.0003
1830.00,0.0002
1829.00,0.0002
1828.00,0.0003
1827.00,0.0003
1826.00,0.0003
1825.00,0.0004
1824.00,0.0004
1823.00,0.0004
1822.00,0.0004
1821.00,0.0004
1820.00,0.0003
1819.00,0.0002
1818.00,0.0002
1817.00,0.0002
1816.00,0.0002
1815.00,0.0002
1814.00,0.0002
1813.00,0.0002
1812.00,0.0003
1811.00,0.0003
1810.00,0.0003
1809.00,0.0003
1808.00,0.0004
1807.00,0.0004
1806.00,0.0004
1805.00,0.0004
1804.00,0.0004
1803.00,0.0004
1802.00,0.0004
1801.00,0.0005
1800.00,0.0005
1799.00,0.0005
1798.00,0.0006
1797.00,0.0006
1796.00,0.0005
1795.00,0.0005
1794.00,0.0005
1793.00,0.0005
1792.00,0.0005
1791.00,0.0005
1790.00,0.0006
1789.00,0.0006
1788.00,0.0006
1787.00,0.0006
1786.00,0.0007
1785.00,0.0007
1784.00,0.0007
1783.00,0.0007
1782.00,0.0007
1781.00,0.0007
1780.00,0.0007
1779.00,0.0007
1778.00,0.0007
1777.00,0.0007
1776.00,0.0007
1775.00,0.0006
1774.00,0.0006
1773.00,0.0007
1772.00,0.0008
1771.00,0.0008
1770.00,0.0008
1769.00,0.0008
1768.00,0.0009
1767.00,0.0009
1766.00,0.0009
1765.00,0.0009
1764.00,0.0009
1763.00,0.0009
1762.00,0.0009
1761.00,0.0009
1760.00,0.0009
1759.00,0.0010
1758.00,0.0010
1757.00,0.0010
1756.00,0.0011
1755.00,0.0011
1754.00,0.0011
1753.00,0.0011
1752.00,0.0012
1751.00,0.0012
1750.00,0.0012
1749.00,0.0013
1748.00,0.0013
1747.00,0.0014
1746.00,0.0014
1745.00,0.0014
1744.00,0.0014
1743.00,0.0014
1742.00,0.0014
1741.00,0.0014
1740.00,0.0015
1739.00,0.0016
1738.00,0.0016
1737.00,0.0016
1736.00,0.0016
1735.00,0.0017
1734.00,0.0018
1733.00,0.0019
1732.00,0.0019
1731.00,0.0020
1730.00,0.0020
1729.00,0.0021
1728.00,0.0022
1727.00,0.0023
1726.00,0.0023
1725.00,0.0024
1724.00,0.0025
1723.00,0.0026
1722.00,0.0026
1721.00,0.0027
1720.00,0.0027
1719.00,0.0028
1718.00,0.0029
1717.00,0.0031
1716.00,0.0033
1715.00,0.0034
1714.00,0.0036
1713.00,0.0038
1712.00,0.0040
1711.00,0.0042
1710.00,0.0044
1709.00,0.0047
1708.00,0.0049
1707.00,0.0052
1706.00,0.0056
1705.00,0.0060
1704.00,0.0063
1703.00,0.0067
1702.00,0.0072
1701.00,0.0080
1700.00,0.0090
1699.00,0.0099
1698.00,0.0107
1697.00,0.0117
1696.00,0.0129
1695.00,0.0143
1694.00,0.0155
1693.00,0.0167
1692.00,0.0180
1691.00,0.0194
1690.00,0.0209
1689.00,0.0223
1688.00,0.0237
1687.00,0.0250
1686.00,0.0263
1685.00,0.0278
1684.00,0.0295
1683.00,0.0310
1682.00,0.0322
1681.00,0.0334
1680.00,0.0347
1679.00,0.0358
1678.00,0.0369
1677.00,0.0380
1676.00,0.0391
1675.00,0.0400
1674.00,0.0409
1673.00,0.0419
1672.00,0.0428
1671.00,0.0438
1670.00,0.0446
1669.00,0.0454
1668.00,0.0463
1667.00,0.0472
1666.00,0.0482
1665.00,0.0491
1664.00,0.0501
1663.00,0.0509
1662.00,0.0515
1661.00,0.0522
1660.00,0.0529
1659.00,0.0536
1658.00,0.0543
1657.00,0.0549
1656.00,0.0556
1655.00,0.0563
1654.00,0.0562
1653.00,0.0553
1652.00,0.0545
1651.00,0.0545
1650.00,0.0549
1649.00,0.0552
1648.00,0.0549
1647.00,0.0540
1646.00,0.0526
1645.00,0.0515
1644.00,0.0506
1643.00,0.0498
1642.00,0.0489
1641.00,0.0477
1640.00,0.0465
1639.00,0.0454
1638.00,0.0442
1637.00,0.0426
1636.00,0.0404
1635.00,0.0381
1634.00,0.0363
1633.00,0.0350
1632.00,0.0339
1631.00,0.0329
1630.00,0.0318
1629.00,0.0306
1628.00,0.0294
1627.00,0.0285
1626.00,0.0278
1625.00,0.0273
1624.00,0.0270
1623.00,0.0267
1622.00,0.0266
1621.00,0.0266
1620.00,0.0267
1619.00,0.0267
1618.00,0.0265
1617.00,0.0258
1616.00,0.0250
1615.00,0.0243
1614.00,0.0237
1613.00,0.0232
1612.00,0.0227
1611.00,0.0222
1610.00,0.0216
1609.00,0.0210
1608.00,0.0203
1607.00,0.0195
1606.00,0.0186
1605.00,0.0177
1604.00,0.0167
1603.00,0.0157
1602.00,0.0148
1601.00,0.0139
1600.00,0.0132
1599.00,0.0126
1598.00,0.0121
1597.00,0.0116
1596.00,0.0113
1595.00,0.0111
1594.00,0.0111
1593.00,0.0112
1592.00,0.0115
1591.00,0.0120
1590.00,0.0125
1589.00,0.0132
1588.00,0.0138
1587.00,0.0143
1586.00,0.0147
1585.00,0.0147
1584.00,0.0146
1583.00,0.0142
1582.00,0.0136
1581.00,0.0129
1580.00,0.0123
1579.00,0.0117
1578.00,0.0111
1577.00,0.0104
1576.00,0.0098
1575.00,0.0093
1574.00,0.0090
1573.00,0.0087
1572.00,0.0085
1571.00,0.0083
1570.00,0.0080
1569.00,0.0077
1568.00,0.0075
1567.00,0.0073
1566.00,0.0071
1565.00,0.0069
1564.00,0.0067
1563.00,0.0065
1562.00,0.0063
1561.00,0.0062
1560.00,0.0060
1559.00,0.0058
1558.00,0.0055
1557.00,0.0054
1556.00,0.0054
1555.00,0.0054
1554.00,0.0054
1553.00,0.0054
1552.00,0.0053
1551.00,0.0052
1550.00,0.0051
1549.00,0.0051
1548.00,0.0050
1547.00,0.0050
1546.00,0.0049
1545.00,0.0048
1544.00,0.0047
1543.00,0.0046
1542.00,0.0045
1541.00,0.0045
1540.00,0.0044
1539.00,0.0044
1538.00,0.0045
1537.00,0.0045
1536.00,0.0045
1535.00,0.0045
1534.00,0.0045
1533.00,0.0045
1532.00,0.0045
1531.00,0.0046
1530.00,0.0046
1529.00,0.0047
1528.00,0.0047
1527.00,0.0047
1526.00,0.0047
1525.00,0.0048
1524.00,0.0048
1523.00,0.0049
1522.00,0.0050
1521.00,0.0052
1520.00,0.0053
1519.00,0.0054
1518.00,0.0056
1517.00,0.0057
1516.00,0.0058
1515.00,0.0059
1514.00,0.0060
1513.00,0.0061
1512.00,0.0061
1511.00,0.0062
1510.00,0.0062
1509.00,0.0063
1508.00,0.0064
1507.00,0.0066
1506.00,0.0070
1505.00,0.0075
1504.00,0.0080
1503.00,0.0085
1502.00,0.0092
1501.00,0.0100
1500.00,0.0108
1499.00,0.0118
1498.00,0.0127
1497.00,0.0136
1496.00,0.0142
1495.00,0.0147
1494.00,0.0149
1493.00,0.0149
1492.00,0.0146
1491.00,0.0141
1490.00,0.0133
1489.00,0.0124
1488.00,0.0115
1487.00,0.0107
1486.00,0.0100
1485.00,0.0093
1484.00,0.0088
1483.00,0.0083
1482.00,0.0079
1481.00,0.0076
1480.00,0.0074
1479.00,0.0073
1478.00,0.0074
1477.00,0.0075
1476.00,0.0077
1475.00,0.0081
1474.00,0.0086
1473.00,0.0094
1472.00,0.0105
1471.00,0.0117
1470.00,0.0129
1469.00,0.0143
1468.00,0.0157
1467.00,0.0173
1466.00,0.0191
1465.00,0.0210
1464.00,0.0228
1463.00,0.0242
1462.00,0.0252
1461.00,0.0258
1460.00,0.0261
1459.00,0.0259
1458.00,0.0249
1457.00,0.0234
1456.00,0.0217
1455.00,0.0205
1454.00,0.0197
1453.00,0.0191
1452.00,0.0187
1451.00,0.0185
1450.00,0.0186
1449.00,0.0191
1448.00,0.0199
1447.00,0.0209
1446.00,0.0220
1445.00,0.0233
1444.00,0.0246
1443.00,0.0258
1442.00,0.0270
1441.00,0.0281
1440.00,0.0291
1439.00,0.0299
1438.00,0.0305
1437.00,0.0309
1436.00,0.0311
1435.00,0.0312
1434.00,0.0314
1433.00,0.0315
1432.00,0.0316
1431.00,0.0317
1430.00,0.0319
1429.00,0.0322
1428.00,0.0329
1427.00,0.0338
1426.00,0.0349
1425.00,0.0360
1424.00,0.0369
1423.00,0.0376
1422.00,0.0379
1421.00,0.0377
1420.00,0.0368
1419.00,0.0349
1418.00,0.0327
1417.00,0.0307
1416.00,0.0287
1415.00,0.0268
1414.00,0.0250
1413.00,0.0234
1412.00,0.0221
1411.00,0.0209
1410.00,0.0201
1409.00,0.0195
1408.00,0.0190
1407.00,0.0188
1406.00,0.0186
1405.00,0.0185
1404.00,0.0185
1403.00,0.0184
1402.00,0.0183
1401.00,0.0181
1400.00,0.0177
1399.00,0.0170
1398.00,0.0163
1397.00,0.0155
1396.00,0.0147
1395.00,0.0139
1394.00,0.0131
1393.00,0.0125
1392.00,0.0121
1391.00,0.0118
1390.00,0.0116
1389.00,0.0115
1388.00,0.0116
1387.00,0.0117
1386.00,0.0120
1385.00,0.0123
1384.00,0.0127
1383.00,0.0132
1382.00,0.0136
1381.00,0.0141
1380.00,0.0145
1379.00,0.0148
1378.00,0.0151
1377.00,0.0152
1376.00,0.0153
1375.00,0.0152
1374.00,0.0151
1373.00,0.0150
1372.00,0.0148
1371.00,0.0146
1370.00,0.0144
1369.00,0.0141
1368.00,0.0138
1367.00,0.0136
1366.00,0.0134
1365.00,0.0133
1364.00,0.0133
1363.00,0.0133
1362.00,0.0132
1361.00,0.0132
1360.00,0.0130
1359.00,0.0126
1358.00,0.0122
1357.00,0.0116
1356.00,0.0110
1355.00,0.0105
1354.00,0.0100
1353.00,0.0097
1352.00,0.0094
1351.00,0.0092
1350.00,0.0091
1349.00,0.0090
1348.00,0.0090
1347.00,0.0089
1346.00,0.0089
1345.00,0.0089
1344.00,0.0089
1343.00,0.0089
1342.00,0.0089
1341.00,0.0090
1340.00,0.0091
1339.00,0.0092
1338.00,0.0093
1337.00,0.0095
1336.00,0.0098
1335.00,0.0100
1334.00,0.0103
1333.00,0.0105
1332.00,0.0108
1331.00,0.0111
1330.00,0.0114
1329.00,0.0118
1328.00,0.0122
1327.00,0.0126
1326.00,0.0131
1325.00,0.0136
1324.00,0.0141
1323.00,0.0146
1322.00,0.0151
1321.00,0.0156
1320.00,0.0159
1319.00,0.0161
1318.00,0.0162
1317.00,0.0162
1316.00,0.0160
1315.00,0.0158
1314.00,0.0154
1313.00,0.0150
1312.00,0.0147
1311.00,0.0144
1310.00,0.0141
1309.00,0.0140
1308.00,0.0139
1307.00,0.0140
1306.00,0.0142
1305.00,0.0145
1304.00,0.0150
1303.00,0.0156
1302.00,0.0164
1301.00,0.0174
1300.00,0.0186
1299.00,0.0202
1298.00,0.0220
1297.00,0.0242
1296.00,0.0265
1295.00,0.0291
1294.00,0.0316
1293.00,0.0341
1292.00,0.0364
1291.00,0.0384
1290.00,0.0401
1289.00,0.0413
1288.00,0.0422
1287.00,0.0427
1286.00,0.0429
1285.00,0.0426
1284.00,0.0421
1283.00,0.0413
1282.00,0.0404
1281.00,0.0396
1280.00,0.0389
1279.00,0.0384
1278.00,0.0381
1277.00,0.0380
1276.00,0.0380
1275.00,0.0380
1274.00,0.0380
1273.00,0.0379
1272.00,0.0377
1271.00,0.0372
1270.00,0.0364
1269.00,0.0355
1268.00,0.0344
1267.00,0.0331
1266.00,0.0316
1265.00,0.0301
1264.00,0.0286
1263.00,0.0272
1262.00,0.0259
1261.00,0.0246
1260.00,0.0234
1259.00,0.0223
1258.00,0.0212
1257.00,0.0203
1256.00,0.0194
1255.00,0.0187
1254.00,0.0180
1253.00,0.0174
1252.00,0.0170
1251.00,0.0166
1250.00,0.0163
1249.00,0.0161
1248.00,0.0160
1247.00,0.0160
1246.00,0.0162
1245.00,0.0164
1244.00,0.0167
1243.00,0.0171
1242.00,0.0174
1241.00,0.0178
1240.00,0.0181
1239.00,0.0183
1238.00,0.0186
1237.00,0.0188
1236.00,0.0191
1235.00,0.0193
1234.00,0.0195
1233.00,0.0196
1232.00,0.0197
1231.00,0.0197
1230.00,0.0197
1229.00,0.0196
1228.00,0.0196
1227.00,0.0195
1226.00,0.0194
1225.00,0.0193
1224.00,0.0193
1223.00,0.0193
1222.00,0.0194
1221.00,0.0194
1220.00,0.0195
1219.00,0.0195
1218.00,0.0194
1217.00,0.0192
1216.00,0.0189
1215.00,0.0185
1214.00,0.0179
1213.00,0.0173
1212.00,0.0166
1211.00,0.0160
1210.00,0.0154
1209.00,0.0149
1208.00,0.0144
1207.00,0.0140
1206.00,0.0137
1205.00,0.0135
1204.00,0.0133
1203.00,0.0133
1202.00,0.0133
1201.00,0.0135
1200.00,0.0137
1199.00,0.0140
1198.00,0.0143
1197.00,0.0147
1196.00,0.0150
1195.00,0.0152
1194.00,0.0153
1193.00,0.0152
1192.00,0.0150
1191.00,0.0146
1190.00,0.0141
1189.00,0.0136
1188.00,0.0131
1187.00,0.0126
1186.00,0.0122
1185.00,0.0118
1184.00,0.0115
1183.00,0.0113
1182.00,0.0112
1181.00,0.0111
1180.00,0.0110
1179.00,0.0111
1178.00,0.0111
1177.00,0.0112
1176.00,0.0113
1175.00,0.0115
1174.00,0.0117
1173.00,0.0119
1172.00,0.0121
1171.00,0.0122
1170.00,0.0122
1169.00,0.0123
1168.00,0.0122
1167.00,0.0122
1166.00,0.0121
1165.00,0.0121
1164.00,0.0121
1163.00,0.0122
1162.00,0.0124
1161.00,0.0126
1160.00,0.0129
1159.00,0.0133
1158.00,0.0135
1157.00,0.0137
1156.00,0.0137
1155.00,0.0135
1154.00,0.0133
1153.00,0.0129
1152.00,0.0124
1151.00,0.0118
1150.00,0.0113
1149.00,0.0107
1148.00,0.0101
1147.00,0.0096
1146.00,0.0092
1145.00,0.0088
1144.00,0.0085
1143.00,0.0082
1142.00,0.0080
1141.00,0.0078
1140.00,0.0078
1139.00,0.0078
1138.00,0.0079
1137.00,0.0081
1136.00,0.0084
1135.00,0.0090
1134.00,0.0096
1133.00,0.0104
1132.00,0.0112
1131.00,0.0119
1130.00,0.0124
1129.00,0.0125
1128.00,0.0124
1127.00,0.0119
1126.00,0.0112
1125.00,0.0105
1124.00,0.0099
1123.00,0.0093
1122.00,0.0089
1121.00,0.0086
1120.00,0.0083
1119.00,0.0081
1118.00,0.0080
1117.00,0.0079
1116.00,0.0079
1115.00,0.0079
1114.00,0.0079
1113.00,0.0080
1112.00,0.0080
1111.00,0.0080
1110.00,0.0081
1109.00,0.0082
1108.00,0.0083
1107.00,0.0084
1106.00,0.0086
1105.00,0.0088
1104.00,0.0091
1103.00,0.0094
1102.00,0.0096
1101.00,0.0098
1100.00,0.0099
1099.00,0.0099
1098.00,0.0098
1097.00,0.0096
1096.00,0.0094
1095.00,0.0091
1094.00,0.0089
1093.00,0.0087
1092.00,0.0085
1091.00,0.0084
1090.00,0.0082
1089.00,0.0081
1088.00,0.0081
1087.00,0.0080
1086.00,0.0080
1085.00,0.0080
1084.00,0.0080
1083.00,0.0081
1082.00,0.0082
1081.00,0.0084
1080.00,0.0085
1079.00,0.0086
1078.00,0.0088
1077.00,0.0090
1076.00,0.0092
1075.00,0.0095
1074.00,0.0097
1073.00,0.0100
1072.00,0.0103
1071.00,0.0106
1070.00,0.0109
1069.00,0.0114
1068.00,0.0120
1067.00,0.0126
1066.00,0.0134
1065.00,0.0142
1064.00,0.0152
1063.00,0.0161
1062.00,0.0171
1061.00,0.0181
1060.00,0.0189
1059.00,0.0195
1058.00,0.0198
1057.00,0.0197
1056.00,0.0193
1055.00,0.0185
1054.00,0.0175
1053.00,0.0164
1052.00,0.0153
1051.00,0.0141
1050.00,0.0131
1049.00,0.0122
1048.00,0.0114
1047.00,0.0109
1046.00,0.0105
1045.00,0.0102
1044.00,0.0100
1043.00,0.0098
1042.00,0.0096
1041.00,0.0095
1040.00,0.0095
1039.00,0.0094
1038.00,0.0094
1037.00,0.0095
1036.00,0.0095
1035.00,0.0096
1034.00,0.0098
1033.00,0.0100
1032.00,0.0102
1031.00,0.0104
1030.00,0.0105
1029.00,0.0105
1028.00,0.0104
1027.00,0.0102
1026.00,0.0100
1025.00,0.0099
1024.00,0.0098
1023.00,0.0099
1022.00,0.0100
1021.00,0.0101
1020.00,0.0103
1019.00,0.0104
1018.00,0.0104
1017.00,0.0104
1016.00,0.0103
1015.00,0.0101
1014.00,0.0098
1013.00,0.0095
1012.00,0.0091
1011.00,0.0089
1010.00,0.0088
1009.00,0.0088
1008.00,0.0089
1007.00,0.0091
1006.00,0.0095
1005.00,0.0099
1004.00,0.0102
1003.00,0.0105
1002.00,0.0106
1001.00,0.0106
1000.00,0.0104
999.00,0.0101
998.00,0.0097
997.00,0.0094
996.00,0.0091
995.00,0.0089
994.00,0.0086
993.00,0.0084
992.00,0.0082
991.00,0.0080
990.00,0.0077
989.00,0.0075
988.00,0.0073
987.00,0.0071
986.00,0.0070
985.00,0.0069
984.00,0.0068
983.00,0.0067
982.00,0.0066
981.00,0.0066
980.00,0.0066
979.00,0.0066
978.00,0.0065
977.00,0.0065
976.00,0.0065
975.00,0.0066
974.00,0.0066
973.00,0.0065
972.00,0.0064
971.00,0.0063
970.00,0.0062
969.00,0.0062
968.00,0.0061
967.00,0.0061
966.00,0.0060
965.00,0.0060
964.00,0.0059
963.00,0.0059
962.00,0.0059
961.00,0.0058
960.00,0.0058
959.00,0.0057
958.00,0.0057
957.00,0.0056
956.00,0.0056
955.00,0.0055
954.00,0.0055
953.00,0.0055
952.00,0.0055
951.00,0.0055
950.00,0.0055
949.00,0.0055
948.00,0.0056
947.00,0.0056
946.00,0.0057
945.00,0.0057
944.00,0.0058
943.00,0.0060
942.00,0.0061
941.00,0.0064
940.00,0.0066
939.00,0.0069
938.00,0.0072
937.00,0.0076
936.00,0.0080
935.00,0.0083
934.00,0.0086
933.00,0.0087
932.00,0.0087
931.00,0.0085
930.00,0.0084
929.00,0.0082
928.00,0.0082
927.00,0.0081
926.00,0.0081
925.00,0.0080
924.00,0.0080
923.00,0.0079
922.00,0.0078
921.00,0.0076
920.00,0.0075
919.00,0.0074
918.00,0.0072
917.00,0.0071
916.00,0.0070
915.00,0.0070
914.00,0.0069
913.00,0.0068
912.00,0.0068
911.00,0.0068
910.00,0.0068
909.00,0.0069
908.00,0.0070
907.00,0.0071
906.00,0.0073
905.00,0.0075
904.00,0.0077
903.00,0.0080
902.00,0.0083
901.00,0.0087
900.00,0.0090
899.00,0.0092
898.00,0.0094
897.00,0.0095
896.00,0.0095
895.00,0.0095
894.00,0.0094
893.00,0.0092
892.00,0.0090
891.00,0.0088
890.00,0.0086
889.00,0.0085
888.00,0.0084
887.00,0.0084
886.00,0.0084
885.00,0.0084
884.00,0.0085
883.00,0.0086
882.00,0.0087
881.00,0.0088
880.00,0.0090
879.00,0.0092
878.00,0.0095
877.00,0.0098
876.00,0.0101
875.00,0.0105
874.00,0.0108
873.00,0.0111
872.00,0.0113
871.00,0.0115
870.00,0.0117
869.00,0.0118
868.00,0.0119
867.00,0.0119
866.00,0.0120
865.00,0.0120
864.00,0.0121
863.00,0.0122
862.00,0.0123
861.00,0.0124
860.00,0.0126
859.00,0.0127
858.00,0.0129
857.00,0.0132
856.00,0.0134
855.00,0.0137
854.00,0.0140
853.00,0.0143
852.00,0.0146
851.00,0.0149
850.00,0.0152
849.00,0.0154
848.00,0.0157
847.00,0.0159
846.00,0.0160
845.00,0.0161
844.00,0.0162
843.00,0.0162
842.00,0.0162
841.00,0.0162
840.00,0.0162
839.00,0.0162
838.00,0.0162
837.00,0.0162
836.00,0.0161
835.00,0.0161
834.00,0.0161
833.00,0.0161
832.00,0.0161
831.00,0.0162
830.00,0.0161
829.00,0.0160
828.00,0.0159
827.00,0.0158
826.00,0.0157
825.00,0.0156
824.00,0.0155
823.00,0.0154
822.00,0.0152
821.00,0.0152
820.00,0.0151
819.00,0.0152
818.00,0.0152
817.00,0.0153
816.00,0.0153
815.00,0.0152
814.00,0.0150
813.00,0.0148
812.00,0.0146
811.00,0.0142
810.00,0.0138
809.00,0.0133
808.00,0.0129
807.00,0.0124
806.00,0.0120
805.00,0.0116
804.00,0.0113
803.00,0.0110
802.00,0.0108
801.00,0.0108
800.00,0.0107
799.00,0.0107
798.00,0.0106
797.00,0.0106
796.00,0.0106
795.00,0.0106
794.00,0.0106
793.00,0.0106
792.00,0.0107
791.00,0.0108
790.00,0.0109
789.00,0.0110
788.00,0.0110
787.00,0.0111
786.00,0.0111
785.00,0.0111
784.00,0.0112
783.00,0.0113
782.00,0.0114
781.00,0.0115
780.00,0.0117
779.00,0.0119
778.00,0.0120
777.00,0.0121
776.00,0.0122
775.00,0.0122
774.00,0.0122
773.00,0.0122
772.00,0.0122
771.00,0.0123
770.00,0.0124
769.00,0.0125
768.00,0.0127
767.00,0.0128
766.00,0.0130
765.00,0.0132
764.00,0.0135
763.00,0.0138
762.00,0.0140
761.00,0.0142
760.00,0.0145
759.00,0.0147
758.00,0.0150
757.00,0.0153
756.00,0.0156
755.00,0.0159
754.00,0.0161
753.00,0.0164
752.00,0.0166
751.00,0.0169
750.00,0.0172
749.00,0.0175
748.00,0.0178
747.00,0.0181
746.00,0.0185
745.00,0.0188
744.00,0.0191
743.00,0.0195
742.00,0.0199
741.00,0.0204
740.00,0.0209
739.00,0.0214
738.00,0.0218
737.00,0.0221
736.00,0.0223
735.00,0.0223
734.00,0.0222
733.00,0.0220
732.00,0.0217
731.00,0.0214
730.00,0.0209
729.00,0.0205
728.00,0.0201
727.00,0.0198
726.00,0.0195
725.00,0.0192
724.00,0.0189
723.00,0.0186
722.00,0.0184
721.00,0.0182
720.00,0.0181
719.00,0.0180
718.00,0.0180
717.00,0.0179
716.00,0.0179
715.00,0.0179
714.00,0.0179
713.00,0.0179
712.00,0.0179
711.00,0.0178
710.00,0.0178
709.00,0.0177
708.00,0.0177
707.00,0.0177
706.00,0.0178
705.00,0.0179
704.00,0.0180
703.00,0.0181
702.00,0.0182
701.00,0.0182
700.00,0.0183
699.00,0.0184
698.00,0.0185
697.00,0.0187
696.00,0.0190
695.00,0.0194
694.00,0.0197
693.00,0.0200
692.00,0.0203
691.00,0.0206
690.00,0.0209
689.00,0.0211
688.00,0.0213
687.00,0.0214
686.00,0.0215
685.00,0.0215
684.00,0.0216
683.00,0.0216
682.00,0.0217
681.00,0.0218
680.00,0.0219
679.00,0.0220
678.00,0.0221
677.00,0.0223
676.00,0.0225
675.00,0.0227
674.00,0.0230
673.00,0.0232
672.00,0.0234
671.00,0.0236
670.00,0.0238
669.00,0.0240
668.00,0.0243
667.00,0.0247
666.00,0.0252
665.00,0.0257
664.00,0.0262
663.00,0.0267
662.00,0.0272
661.00,0.0276
660.00,0.0281
659.00,0.0287
658.00,0.0293
657.00,0.0298
656.00,0.0303
655.00,0.0308
654.00,0.0313
653.00,0.0318
652.00,0.0323
651.00,0.0327
650.00,0.0330
649.00,0.0332
648.00,0.0334
647.00,0.0335
646.00,0.0335
645.00,0.0334
644.00,0.0332
643.00,0.0329
642.00,0.0326
641.00,0.0323
640.00,0.0320
639.00,0.0316
638.00,0.0312
637.00,0.0308
636.00,0.0304
635.00,0.0301
634.00,0.0298
633.00,0.0296
632.00,0.0294
631.00,0.0293
630.00,0.0291
629.00,0.0290
628.00,0.0289
627.00,0.0288
626.00,0.0287
625.00,0.0287
624.00,0.0286
623.00,0.0285
622.00,0.0284
621.00,0.0284
620.00,0.0283
619.00,0.0283
618.00,0.0282
617.00,0.0281
616.00,0.0280
615.00,0.0279
614.00,0.0279
613.00,0.0279
612.00,0.0280
611.00,0.0281
610.00,0.0283
609.00,0.0285
608.00,0.0286
607.00,0.0286
606.00,0.0287
605.00,0.0289
604.00,0.0291
603.00,0.0292
602.00,0.0293
601.00,0.0293
600.00,0.0293
599.00,0.0294
598.00,0.0294
597.00,0.0295
596.00,0.0296
595.00,0.0296
594.00,0.0297
593.00,0.0298
592.00,0.0299
591.00,0.0302
590.00,0.0305
589.00,0.0309
588.00,0.0315
587.00,0.0322
586.00,0.0329
585.00,0.0337
584.00,0.0343
583.00,0.0349
582.00,0.0355
581.00,0.0360
580.00,0.0364
579.00,0.0366
578.00,0.0366
577.00,0.0366
576.00,0.0366
575.00,0.0367
574.00,0.0368
573.00,0.0369
572.00,0.0369
571.00,0.0369
570.00,0.0369
569.00,0.0369
568.00,0.0369
567.00,0.0368
566.00,0.0366
565.00,0.0364
564.00,0.0362
563.00,0.0360
562.00,0.0356
561.00,0.0352
560.00,0.0349
559.00,0.0346
558.00,0.0343
557.00,0.0342
556.00,0.0340
555.00,0.0338
554.00,0.0335
553.00,0.0334
552.00,0.0332
551.00,0.0331
550.00,0.0330
549.00,0.0329
548.00,0.0329
547.00,0.0327
546.00,0.0325
545.00,0.0324
544.00,0.0322
543.00,0.0320
542.00,0.0318
541.00,0.0316
540.00,0.0315
539.00,0.0313
538.00,0.0313
537.00,0.0314
536.00,0.0316
535.00,0.0317
534.00,0.0319
533.00,0.0320
532.00,0.0321
531.00,0.0323
530.00,0.0323
529.00,0.0323
528.00,0.0323
527.00,0.0322
526.00,0.0320
525.00,0.0318
524.00,0.0315
523.00,0.0312
522.00,0.0310
521.00,0.0308
520.00,0.0307
519.00,0.0306
518.00,0.0304
517.00,0.0303
516.00,0.0302
515.00,0.0302
514.00,0.0303
513.00,0.0303
512.00,0.0303
511.00,0.0303
510.00,0.0304
509.00,0.0306
508.00,0.0306
507.00,0.0305
506.00,0.0303
505.00,0.0301
504.00,0.0301
503.00,0.0301
502.00,0.0300
501.00,0.0300
500.00,0.0299
499.00,0.0298
498.00,0.0296
497.00,0.0295
496.00,0.0294
495.00,0.0294
494.00,0.0295
493.00,0.0296
492.00,0.0298
491.00,0.0299
490.00,0.0299
489.00,0.0299
488.00,0.0300
487.00,0.0301
486.00,0.0302
485.00,0.0301
484.00,0.0300
483.00,0.0299
482.00,0.0297
481.00,0.0296
480.00,0.0296
479.00,0.0298
478.00,0.0298
477.00,0.0298
476.00,0.0295
475.00,0.0293
474.00,0.0292
473.00,0.0294
472.00,0.0295
471.00,0.0295
470.00,0.0294
469.00,0.0292
468.00,0.0290
467.00,0.0290
466.00,0.0291
465.00,0.0293
464.00,0.0295
463.00,0.0296
462.00,0.0295
461.00,0.0292
460.00,0.0289
459.00,0.0288
458.00,0.0288
457.00,0.0289
456.00,0.0290
455.00,0.0290
454.00,0.0289
453.00,0.0288
452.00,0.0287
451.00,0.0288
450.00,0.0289
449.00,0.0289
448.00,0.0288
447.00,0.0285
446.00,0.0282
445.00,0.0281
444.00,0.0281
443.00,0.0283
442.00,0.0285
441.00,0.0286
440.00,0.0286
439.00,0.0285
438.00,0.0284
437.00,0.0284
436.00,0.0285
435.00,0.0286
434.00,0.0286
433.00,0.0285
432.00,0.0284
431.00,0.0281
430.00,0.0280
429.00,0.0281
428.00,0.0283
427.00,0.0287
426.00,0.0289
425.00,0.0289
424.00,0.0288
423.00,0.0287
422.00,0.0287
421.00,0.0285
420.00,0.0282
419.00,0.0279
418.00,0.0280
417.00,0.0283
416.00,0.0285
415.00,0.0286
414.00,0.0287
413.00,0.0289
412.00,0.0290
411.00,0.0291
410.00,0.0294
409.00,0.0299
408.00,0.0304
407.00,0.0303
406.00,0.0299
405.00,0.0296
404.00,0.0293
403.00,0.0287
402.00,0.0280
401.00,0.0280
400.00,0.0291
