Created as New Dataset,Sample 979 By YargerLab Date Wednesday, July 30 2025
cm-1,A
4000.00,0.0022
3999.00,0.0022
3998.00,0.0022
3997.00,0.0022
3996.00,0.0022
3995.00,0.0022
3994.00,0.0022
3993.00,0.0022
3992.00,0.0022
3991.00,0.0022
3990.00,0.0022
3989.00,0.0022
3988.00,0.0022
3987.00,0.0022
3986.00,0.0022
3985.00,0.0022
3984.00,0.0022
3983.00,0.0022
3982.00,0.0022
3981.00,0.0022
3980.00,0.0022
3979.00,0.0022
3978.00,0.0022
3977.00,0.0022
3976.00,0.0022
3975.00,0.0022
3974.00,0.0022
3973.00,0.0022
3972.00,0.0021
3971.00,0.0021
3970.00,0.0021
3969.00,0.0021
3968.00,0.0021
3967.00,0.0022
3966.00,0.0022
3965.00,0.0022
3964.00,0.0022
3963.00,0.0022
3962.00,0.0021
3961.00,0.0021
3960.00,0.0021
3959.00,0.0021
3958.00,0.0021
3957.00,0.0021
3956.00,0.0022
3955.00,0.0022
3954.00,0.0022
3953.00,0.0022
3952.00,0.0022
3951.00,0.0022
3950.00,0.0022
3949.00,0.0022
3948.00,0.0022
3947.00,0.0022
3946.00,0.0022
3945.00,0.0022
3944.00,0.0022
3943.00,0.0022
3942.00,0.0022
3941.00,0.0022
3940.00,0.0022
3939.00,0.0022
3938.00,0.0021
3937.00,0.0021
3936.00,0.0021
3935.00,0.0021
3934.00,0.0022
3933.00,0.0021
3932.00,0.0021
3931.00,0.0021
3930.00,0.0021
3929.00,0.0022
3928.00,0.0022
3927.00,0.0022
3926.00,0.0022
3925.00,0.0022
3924.00,0.0022
3923.00,0.0022
3922.00,0.0022
3921.00,0.0022
3920.00,0.0022
3919.00,0.0022
3918.00,0.0022
3917.00,0.0022
3916.00,0.0022
3915.00,0.0021
3914.00,0.0021
3913.00,0.0021
3912.00,0.0021
3911.00,0.0021
3910.00,0.0021
3909.00,0.0021
3908.00,0.0021
3907.00,0.0021
3906.00,0.0021
3905.00,0.0022
3904.00,0.0022
3903.00,0.0022
3902.00,0.0022
3901.00,0.0022
3900.00,0.0021
3899.00,0.0021
3898.00,0.0021
3897.00,0.0021
3896.00,0.0022
3895.00,0.0022
3894.00,0.0021
3893.00,0.0021
3892.00,0.0021
3891.00,0.0021
3890.00,0.0021
3889.00,0.0022
3888.00,0.0022
3887.00,0.0022
3886.00,0.0022
3885.00,0.0022
3884.00,0.0022
3883.00,0.0022
3882.00,0.0022
3881.00,0.0022
3880.00,0.0022
3879.00,0.0022
3878.00,0.0022
3877.00,0.0021
3876.00,0.0021
3875.00,0.0021
3874.00,0.0022
3873.00,0.0022
3872.00,0.0022
3871.00,0.0022
3870.00,0.0022
3869.00,0.0022
3868.00,0.0022
3867.00,0.0022
3866.00,0.0022
3865.00,0.0021
3864.00,0.0021
3863.00,0.0022
3862.00,0.0022
3861.00,0.0022
3860.00,0.0022
3859.00,0.0022
3858.00,0.0022
3857.00,0.0022
3856.00,0.0021
3855.00,0.0021
3854.00,0.0021
3853.00,0.0022
3852.00,0.0022
3851.00,0.0022
3850.00,0.0021
3849.00,0.0021
3848.00,0.0021
3847.00,0.0021
3846.00,0.0021
3845.00,0.0022
3844.00,0.0022
3843.00,0.0022
3842.00,0.0022
3841.00,0.0022
3840.00,0.0022
3839.00,0.0022
3838.00,0.0022
3837.00,0.0022
3836.00,0.0022
3835.00,0.0022
3834.00,0.0022
3833.00,0.0022
3832.00,0.0022
3831.00,0.0022
3830.00,0.0022
3829.00,0.0022
3828.00,0.0022
3827.00,0.0022
3826.00,0.0022
3825.00,0.0022
3824.00,0.0022
3823.00,0.0022
3822.00,0.0022
3821.00,0.0023
3820.00,0.0023
3819.00,0.0023
3818.00,0.0022
3817.00,0.0022
3816.00,0.0022
3815.00,0.0022
3814.00,0.0022
3813.00,0.0022
3812.00,0.0021
3811.00,0.0021
3810.00,0.0021
3809.00,0.0021
3808.00,0.0022
3807.00,0.0022
3806.00,0.0022
3805.00,0.0022
3804.00,0.0022
3803.00,0.0021
3802.00,0.0021
3801.00,0.0021
3800.00,0.0021
3799.00,0.0022
3798.00,0.0021
3797.00,0.0021
3796.00,0.0021
3795.00,0.0022
3794.00,0.0022
3793.00,0.0022
3792.00,0.0021
3791.00,0.0021
3790.00,0.0021
3789.00,0.0021
3788.00,0.0022
3787.00,0.0022
3786.00,0.0022
3785.00,0.0022
3784.00,0.0022
3783.00,0.0022
3782.00,0.0022
3781.00,0.0022
3780.00,0.0022
3779.00,0.0022
3778.00,0.0022
3777.00,0.0022
3776.00,0.0021
3775.00,0.0021
3774.00,0.0021
3773.00,0.0022
3772.00,0.0022
3771.00,0.0022
3770.00,0.0022
3769.00,0.0023
3768.00,0.0023
3767.00,0.0023
3766.00,0.0022
3765.00,0.0022
3764.00,0.0022
3763.00,0.0022
3762.00,0.0022
3761.00,0.0022
3760.00,0.0022
3759.00,0.0022
3758.00,0.0022
3757.00,0.0022
3756.00,0.0022
3755.00,0.0023
3754.00,0.0023
3753.00,0.0023
3752.00,0.0023
3751.00,0.0023
3750.00,0.0023
3749.00,0.0023
3748.00,0.0023
3747.00,0.0023
3746.00,0.0022
3745.00,0.0022
3744.00,0.0022
3743.00,0.0022
3742.00,0.0022
3741.00,0.0022
3740.00,0.0022
3739.00,0.0022
3738.00,0.0022
3737.00,0.0022
3736.00,0.0022
3735.00,0.0022
3734.00,0.0021
3733.00,0.0021
3732.00,0.0021
3731.00,0.0021
3730.00,0.0021
3729.00,0.0021
3728.00,0.0021
3727.00,0.0021
3726.00,0.0022
3725.00,0.0022
3724.00,0.0022
3723.00,0.0022
3722.00,0.0022
3721.00,0.0022
3720.00,0.0022
3719.00,0.0022
3718.00,0.0021
3717.00,0.0021
3716.00,0.0022
3715.00,0.0022
3714.00,0.0022
3713.00,0.0022
3712.00,0.0022
3711.00,0.0023
3710.00,0.0022
3709.00,0.0022
3708.00,0.0021
3707.00,0.0021
3706.00,0.0021
3705.00,0.0021
3704.00,0.0021
3703.00,0.0020
3702.00,0.0020
3701.00,0.0020
3700.00,0.0020
3699.00,0.0021
3698.00,0.0021
3697.00,0.0021
3696.00,0.0021
3695.00,0.0022
3694.00,0.0022
3693.00,0.0022
3692.00,0.0022
3691.00,0.0023
3690.00,0.0023
3689.00,0.0023
3688.00,0.0023
3687.00,0.0024
3686.00,0.0024
3685.00,0.0024
3684.00,0.0024
3683.00,0.0024
3682.00,0.0024
3681.00,0.0024
3680.00,0.0025
3679.00,0.0025
3678.00,0.0026
3677.00,0.0026
3676.00,0.0026
3675.00,0.0026
3674.00,0.0027
3673.00,0.0027
3672.00,0.0027
3671.00,0.0027
3670.00,0.0027
3669.00,0.0027
3668.00,0.0026
3667.00,0.0026
3666.00,0.0026
3665.00,0.0026
3664.00,0.0026
3663.00,0.0027
3662.00,0.0027
3661.00,0.0028
3660.00,0.0028
3659.00,0.0028
3658.00,0.0028
3657.00,0.0028
3656.00,0.0029
3655.00,0.0030
3654.00,0.0030
3653.00,0.0030
3652.00,0.0031
3651.00,0.0031
3650.00,0.0032
3649.00,0.0032
3648.00,0.0033
3647.00,0.0033
3646.00,0.0033
3645.00,0.0033
3644.00,0.0033
3643.00,0.0033
3642.00,0.0033
3641.00,0.0034
3640.00,0.0034
3639.00,0.0034
3638.00,0.0034
3637.00,0.0034
3636.00,0.0035
3635.00,0.0035
3634.00,0.0035
3633.00,0.0036
3632.00,0.0036
3631.00,0.0036
3630.00,0.0036
3629.00,0.0037
3628.00,0.0037
3627.00,0.0037
3626.00,0.0038
3625.00,0.0038
3624.00,0.0039
3623.00,0.0039
3622.00,0.0040
3621.00,0.0040
3620.00,0.0040
3619.00,0.0040
3618.00,0.0041
3617.00,0.0042
3616.00,0.0043
3615.00,0.0043
3614.00,0.0044
3613.00,0.0044
3612.00,0.0045
3611.00,0.0045
3610.00,0.0045
3609.00,0.0046
3608.00,0.0046
3607.00,0.0047
3606.00,0.0047
3605.00,0.0048
3604.00,0.0048
3603.00,0.0048
3602.00,0.0049
3601.00,0.0049
3600.00,0.0050
3599.00,0.0051
3598.00,0.0051
3597.00,0.0052
3596.00,0.0052
3595.00,0.0053
3594.00,0.0054
3593.00,0.0055
3592.00,0.0055
3591.00,0.0056
3590.00,0.0056
3589.00,0.0057
3588.00,0.0057
3587.00,0.0058
3586.00,0.0059
3585.00,0.0060
3584.00,0.0060
3583.00,0.0061
3582.00,0.0061
3581.00,0.0062
3580.00,0.0062
3579.00,0.0063
3578.00,0.0064
3577.00,0.0064
3576.00,0.0065
3575.00,0.0066
3574.00,0.0067
3573.00,0.0068
3572.00,0.0069
3571.00,0.0069
3570.00,0.0070
3569.00,0.0071
3568.00,0.0072
3567.00,0.0073
3566.00,0.0073
3565.00,0.0074
3564.00,0.0074
3563.00,0.0075
3562.00,0.0075
3561.00,0.0075
3560.00,0.0076
3559.00,0.0076
3558.00,0.0077
3557.00,0.0078
3556.00,0.0078
3555.00,0.0079
3554.00,0.0080
3553.00,0.0080
3552.00,0.0081
3551.00,0.0082
3550.00,0.0082
3549.00,0.0083
3548.00,0.0084
3547.00,0.0084
3546.00,0.0085
3545.00,0.0086
3544.00,0.0086
3543.00,0.0087
3542.00,0.0087
3541.00,0.0087
3540.00,0.0087
3539.00,0.0088
3538.00,0.0088
3537.00,0.0089
3536.00,0.0089
3535.00,0.0090
3534.00,0.0090
3533.00,0.0091
3532.00,0.0091
3531.00,0.0091
3530.00,0.0091
3529.00,0.0092
3528.00,0.0093
3527.00,0.0093
3526.00,0.0094
3525.00,0.0094
3524.00,0.0094
3523.00,0.0095
3522.00,0.0095
3521.00,0.0096
3520.00,0.0096
3519.00,0.0096
3518.00,0.0096
3517.00,0.0097
3516.00,0.0097
3515.00,0.0097
3514.00,0.0098
3513.00,0.0098
3512.00,0.0098
3511.00,0.0099
3510.00,0.0099
3509.00,0.0099
3508.00,0.0100
3507.00,0.0100
3506.00,0.0101
3505.00,0.0102
3504.00,0.0102
3503.00,0.0103
3502.00,0.0103
3501.00,0.0103
3500.00,0.0103
3499.00,0.0103
3498.00,0.0103
3497.00,0.0103
3496.00,0.0104
3495.00,0.0104
3494.00,0.0105
3493.00,0.0105
3492.00,0.0106
3491.00,0.0106
3490.00,0.0106
3489.00,0.0107
3488.00,0.0107
3487.00,0.0107
3486.00,0.0107
3485.00,0.0107
3484.00,0.0108
3483.00,0.0108
3482.00,0.0108
3481.00,0.0109
3480.00,0.0109
3479.00,0.0109
3478.00,0.0110
3477.00,0.0110
3476.00,0.0110
3475.00,0.0110
3474.00,0.0111
3473.00,0.0111
3472.00,0.0111
3471.00,0.0112
3470.00,0.0112
3469.00,0.0112
3468.00,0.0113
3467.00,0.0113
3466.00,0.0113
3465.00,0.0113
3464.00,0.0113
3463.00,0.0113
3462.00,0.0113
3461.00,0.0114
3460.00,0.0114
3459.00,0.0114
3458.00,0.0114
3457.00,0.0114
3456.00,0.0114
3455.00,0.0115
3454.00,0.0115
3453.00,0.0115
3452.00,0.0115
3451.00,0.0115
3450.00,0.0115
3449.00,0.0115
3448.00,0.0115
3447.00,0.0116
3446.00,0.0116
3445.00,0.0116
3444.00,0.0116
3443.00,0.0115
3442.00,0.0115
3441.00,0.0115
3440.00,0.0115
3439.00,0.0115
3438.00,0.0115
3437.00,0.0116
3436.00,0.0116
3435.00,0.0116
3434.00,0.0116
3433.00,0.0116
3432.00,0.0116
3431.00,0.0116
3430.00,0.0116
3429.00,0.0115
3428.00,0.0115
3427.00,0.0115
3426.00,0.0115
3425.00,0.0115
3424.00,0.0115
3423.00,0.0115
3422.00,0.0115
3421.00,0.0115
3420.00,0.0115
3419.00,0.0115
3418.00,0.0115
3417.00,0.0115
3416.00,0.0115
3415.00,0.0115
3414.00,0.0114
3413.00,0.0114
3412.00,0.0114
3411.00,0.0114
3410.00,0.0114
3409.00,0.0114
3408.00,0.0114
3407.00,0.0114
3406.00,0.0114
3405.00,0.0114
3404.00,0.0113
3403.00,0.0113
3402.00,0.0113
3401.00,0.0113
3400.00,0.0113
3399.00,0.0113
3398.00,0.0113
3397.00,0.0113
3396.00,0.0113
3395.00,0.0113
3394.00,0.0113
3393.00,0.0112
3392.00,0.0112
3391.00,0.0113
3390.00,0.0113
3389.00,0.0113
3388.00,0.0113
3387.00,0.0113
3386.00,0.0113
3385.00,0.0113
3384.00,0.0113
3383.00,0.0113
3382.00,0.0113
3381.00,0.0113
3380.00,0.0112
3379.00,0.0112
3378.00,0.0112
3377.00,0.0112
3376.00,0.0112
3375.00,0.0112
3374.00,0.0112
3373.00,0.0112
3372.00,0.0111
3371.00,0.0111
3370.00,0.0111
3369.00,0.0111
3368.00,0.0111
3367.00,0.0111
3366.00,0.0111
3365.00,0.0112
3364.00,0.0112
3363.00,0.0112
3362.00,0.0112
3361.00,0.0112
3360.00,0.0112
3359.00,0.0112
3358.00,0.0112
3357.00,0.0112
3356.00,0.0112
3355.00,0.0112
3354.00,0.0112
3353.00,0.0111
3352.00,0.0111
3351.00,0.0111
3350.00,0.0111
3349.00,0.0112
3348.00,0.0112
3347.00,0.0112
3346.00,0.0112
3345.00,0.0111
3344.00,0.0111
3343.00,0.0111
3342.00,0.0111
3341.00,0.0111
3340.00,0.0111
3339.00,0.0111
3338.00,0.0110
3337.00,0.0111
3336.00,0.0111
3335.00,0.0111
3334.00,0.0112
3333.00,0.0112
3332.00,0.0112
3331.00,0.0112
3330.00,0.0111
3329.00,0.0111
3328.00,0.0110
3327.00,0.0110
3326.00,0.0110
3325.00,0.0110
3324.00,0.0111
3323.00,0.0111
3322.00,0.0111
3321.00,0.0111
3320.00,0.0111
3319.00,0.0111
3318.00,0.0111
3317.00,0.0111
3316.00,0.0111
3315.00,0.0111
3314.00,0.0111
3313.00,0.0111
3312.00,0.0110
3311.00,0.0110
3310.00,0.0109
3309.00,0.0108
3308.00,0.0108
3307.00,0.0108
3306.00,0.0108
3305.00,0.0108
3304.00,0.0109
3303.00,0.0110
3302.00,0.0111
3301.00,0.0111
3300.00,0.0111
3299.00,0.0111
3298.00,0.0110
3297.00,0.0110
3296.00,0.0110
3295.00,0.0110
3294.00,0.0110
3293.00,0.0111
3292.00,0.0111
3291.00,0.0111
3290.00,0.0112
3289.00,0.0112
3288.00,0.0112
3287.00,0.0112
3286.00,0.0112
3285.00,0.0112
3284.00,0.0112
3283.00,0.0112
3282.00,0.0112
3281.00,0.0111
3280.00,0.0111
3279.00,0.0111
3278.00,0.0111
3277.00,0.0111
3276.00,0.0110
3275.00,0.0110
3274.00,0.0110
3273.00,0.0110
3272.00,0.0110
3271.00,0.0110
3270.00,0.0110
3269.00,0.0110
3268.00,0.0110
3267.00,0.0110
3266.00,0.0110
3265.00,0.0111
3264.00,0.0111
3263.00,0.0111
3262.00,0.0111
3261.00,0.0111
3260.00,0.0111
3259.00,0.0111
3258.00,0.0110
3257.00,0.0110
3256.00,0.0110
3255.00,0.0110
3254.00,0.0110
3253.00,0.0110
3252.00,0.0110
3251.00,0.0110
3250.00,0.0110
3249.00,0.0109
3248.00,0.0109
3247.00,0.0109
3246.00,0.0109
3245.00,0.0109
3244.00,0.0109
3243.00,0.0109
3242.00,0.0109
3241.00,0.0109
3240.00,0.0109
3239.00,0.0109
3238.00,0.0109
3237.00,0.0109
3236.00,0.0109
3235.00,0.0109
3234.00,0.0109
3233.00,0.0109
3232.00,0.0109
3231.00,0.0109
3230.00,0.0109
3229.00,0.0109
3228.00,0.0109
3227.00,0.0109
3226.00,0.0109
3225.00,0.0108
3224.00,0.0108
3223.00,0.0108
3222.00,0.0108
3221.00,0.0108
3220.00,0.0108
3219.00,0.0108
3218.00,0.0108
3217.00,0.0108
3216.00,0.0108
3215.00,0.0108
3214.00,0.0108
3213.00,0.0108
3212.00,0.0108
3211.00,0.0107
3210.00,0.0107
3209.00,0.0107
3208.00,0.0106
3207.00,0.0106
3206.00,0.0106
3205.00,0.0106
3204.00,0.0105
3203.00,0.0105
3202.00,0.0105
3201.00,0.0105
3200.00,0.0105
3199.00,0.0105
3198.00,0.0105
3197.00,0.0105
3196.00,0.0105
3195.00,0.0105
3194.00,0.0105
3193.00,0.0105
3192.00,0.0105
3191.00,0.0104
3190.00,0.0104
3189.00,0.0104
3188.00,0.0104
3187.00,0.0104
3186.00,0.0104
3185.00,0.0104
3184.00,0.0104
3183.00,0.0104
3182.00,0.0104
3181.00,0.0103
3180.00,0.0103
3179.00,0.0103
3178.00,0.0103
3177.00,0.0103
3176.00,0.0103
3175.00,0.0103
3174.00,0.0103
3173.00,0.0103
3172.00,0.0103
3171.00,0.0103
3170.00,0.0103
3169.00,0.0103
3168.00,0.0102
3167.00,0.0102
3166.00,0.0102
3165.00,0.0102
3164.00,0.0102
3163.00,0.0101
3162.00,0.0101
3161.00,0.0101
3160.00,0.0100
3159.00,0.0100
3158.00,0.0100
3157.00,0.0099
3156.00,0.0099
3155.00,0.0099
3154.00,0.0099
3153.00,0.0099
3152.00,0.0099
3151.00,0.0099
3150.00,0.0099
3149.00,0.0099
3148.00,0.0099
3147.00,0.0098
3146.00,0.0098
3145.00,0.0098
3144.00,0.0098
3143.00,0.0098
3142.00,0.0098
3141.00,0.0097
3140.00,0.0097
3139.00,0.0097
3138.00,0.0097
3137.00,0.0097
3136.00,0.0097
3135.00,0.0096
3134.00,0.0096
3133.00,0.0096
3132.00,0.0096
3131.00,0.0096
3130.00,0.0096
3129.00,0.0096
3128.00,0.0096
3127.00,0.0096
3126.00,0.0095
3125.00,0.0095
3124.00,0.0095
3123.00,0.0095
3122.00,0.0095
3121.00,0.0095
3120.00,0.0095
3119.00,0.0095
3118.00,0.0095
3117.00,0.0095
3116.00,0.0095
3115.00,0.0095
3114.00,0.0095
3113.00,0.0094
3112.00,0.0094
3111.00,0.0093
3110.00,0.0093
3109.00,0.0092
3108.00,0.0092
3107.00,0.0092
3106.00,0.0092
3105.00,0.0091
3104.00,0.0091
3103.00,0.0091
3102.00,0.0091
3101.00,0.0091
3100.00,0.0091
3099.00,0.0091
3098.00,0.0090
3097.00,0.0090
3096.00,0.0090
3095.00,0.0090
3094.00,0.0090
3093.00,0.0090
3092.00,0.0091
3091.00,0.0091
3090.00,0.0091
3089.00,0.0091
3088.00,0.0091
3087.00,0.0091
3086.00,0.0091
3085.00,0.0091
3084.00,0.0091
3083.00,0.0091
3082.00,0.0091
3081.00,0.0091
3080.00,0.0091
3079.00,0.0091
3078.00,0.0091
3077.00,0.0090
3076.00,0.0090
3075.00,0.0090
3074.00,0.0090
3073.00,0.0090
3072.00,0.0090
3071.00,0.0090
3070.00,0.0090
3069.00,0.0089
3068.00,0.0089
3067.00,0.0088
3066.00,0.0088
3065.00,0.0088
3064.00,0.0087
3063.00,0.0087
3062.00,0.0087
3061.00,0.0087
3060.00,0.0087
3059.00,0.0087
3058.00,0.0086
3057.00,0.0086
3056.00,0.0086
3055.00,0.0086
3054.00,0.0086
3053.00,0.0086
3052.00,0.0086
3051.00,0.0085
3050.00,0.0085
3049.00,0.0085
3048.00,0.0085
3047.00,0.0085
3046.00,0.0085
3045.00,0.0085
3044.00,0.0085
3043.00,0.0085
3042.00,0.0085
3041.00,0.0084
3040.00,0.0084
3039.00,0.0084
3038.00,0.0084
3037.00,0.0084
3036.00,0.0084
3035.00,0.0084
3034.00,0.0084
3033.00,0.0084
3032.00,0.0084
3031.00,0.0084
3030.00,0.0084
3029.00,0.0084
3028.00,0.0084
3027.00,0.0083
3026.00,0.0083
3025.00,0.0083
3024.00,0.0083
3023.00,0.0083
3022.00,0.0083
3021.00,0.0083
3020.00,0.0083
3019.00,0.0084
3018.00,0.0084
3017.00,0.0085
3016.00,0.0085
3015.00,0.0085
3014.00,0.0086
3013.00,0.0087
3012.00,0.0088
3011.00,0.0089
3010.00,0.0090
3009.00,0.0092
3008.00,0.0093
3007.00,0.0095
3006.00,0.0096
3005.00,0.0098
3004.00,0.0100
3003.00,0.0103
3002.00,0.0105
3001.00,0.0108
3000.00,0.0111
2999.00,0.0115
2998.00,0.0118
2997.00,0.0122
2996.00,0.0126
2995.00,0.0130
2994.00,0.0134
2993.00,0.0139
2992.00,0.0143
2991.00,0.0148
2990.00,0.0153
2989.00,0.0158
2988.00,0.0162
2987.00,0.0167
2986.00,0.0171
2985.00,0.0176
2984.00,0.0179
2983.00,0.0183
2982.00,0.0186
2981.00,0.0190
2980.00,0.0193
2979.00,0.0196
2978.00,0.0198
2977.00,0.0200
2976.00,0.0202
2975.00,0.0204
2974.00,0.0206
2973.00,0.0208
2972.00,0.0210
2971.00,0.0212
2970.00,0.0214
2969.00,0.0217
2968.00,0.0219
2967.00,0.0222
2966.00,0.0225
2965.00,0.0228
2964.00,0.0231
2963.00,0.0234
2962.00,0.0238
2961.00,0.0241
2960.00,0.0244
2959.00,0.0247
2958.00,0.0250
2957.00,0.0252
2956.00,0.0255
2955.00,0.0256
2954.00,0.0258
2953.00,0.0259
2952.00,0.0259
2951.00,0.0259
2950.00,0.0258
2949.00,0.0258
2948.00,0.0257
2947.00,0.0256
2946.00,0.0256
2945.00,0.0255
2944.00,0.0255
2943.00,0.0255
2942.00,0.0255
2941.00,0.0256
2940.00,0.0257
2939.00,0.0258
2938.00,0.0259
2937.00,0.0261
2936.00,0.0263
2935.00,0.0265
2934.00,0.0268
2933.00,0.0270
2932.00,0.0273
2931.00,0.0275
2930.00,0.0277
2929.00,0.0280
2928.00,0.0281
2927.00,0.0283
2926.00,0.0284
2925.00,0.0284
2924.00,0.0283
2923.00,0.0283
2922.00,0.0282
2921.00,0.0280
2920.00,0.0278
2919.00,0.0275
2918.00,0.0272
2917.00,0.0269
2916.00,0.0265
2915.00,0.0261
2914.00,0.0257
2913.00,0.0252
2912.00,0.0247
2911.00,0.0242
2910.00,0.0237
2909.00,0.0233
2908.00,0.0228
2907.00,0.0225
2906.00,0.0221
2905.00,0.0218
2904.00,0.0216
2903.00,0.0213
2902.00,0.0211
2901.00,0.0210
2900.00,0.0209
2899.00,0.0208
2898.00,0.0207
2897.00,0.0206
2896.00,0.0206
2895.00,0.0205
2894.00,0.0205
2893.00,0.0205
2892.00,0.0205
2891.00,0.0204
2890.00,0.0204
2889.00,0.0203
2888.00,0.0202
2887.00,0.0202
2886.00,0.0201
2885.00,0.0201
2884.00,0.0201
2883.00,0.0201
2882.00,0.0201
2881.00,0.0201
2880.00,0.0202
2879.00,0.0203
2878.00,0.0204
2877.00,0.0204
2876.00,0.0205
2875.00,0.0206
2874.00,0.0207
2873.00,0.0209
2872.00,0.0209
2871.00,0.0210
2870.00,0.0209
2869.00,0.0209
2868.00,0.0208
2867.00,0.0207
2866.00,0.0207
2865.00,0.0206
2864.00,0.0206
2863.00,0.0206
2862.00,0.0206
2861.00,0.0206
2860.00,0.0207
2859.00,0.0207
2858.00,0.0206
2857.00,0.0205
2856.00,0.0203
2855.00,0.0199
2854.00,0.0196
2853.00,0.0192
2852.00,0.0187
2851.00,0.0183
2850.00,0.0177
2849.00,0.0172
2848.00,0.0167
2847.00,0.0162
2846.00,0.0156
2845.00,0.0151
2844.00,0.0147
2843.00,0.0142
2842.00,0.0137
2841.00,0.0133
2840.00,0.0129
2839.00,0.0126
2838.00,0.0123
2837.00,0.0120
2836.00,0.0117
2835.00,0.0115
2834.00,0.0112
2833.00,0.0110
2832.00,0.0107
2831.00,0.0105
2830.00,0.0103
2829.00,0.0101
2828.00,0.0099
2827.00,0.0097
2826.00,0.0095
2825.00,0.0093
2824.00,0.0092
2823.00,0.0090
2822.00,0.0088
2821.00,0.0087
2820.00,0.0085
2819.00,0.0084
2818.00,0.0083
2817.00,0.0082
2816.00,0.0081
2815.00,0.0080
2814.00,0.0079
2813.00,0.0078
2812.00,0.0076
2811.00,0.0075
2810.00,0.0074
2809.00,0.0074
2808.00,0.0073
2807.00,0.0072
2806.00,0.0071
2805.00,0.0070
2804.00,0.0069
2803.00,0.0069
2802.00,0.0068
2801.00,0.0068
2800.00,0.0067
2799.00,0.0067
2798.00,0.0066
2797.00,0.0066
2796.00,0.0065
2795.00,0.0065
2794.00,0.0064
2793.00,0.0064
2792.00,0.0064
2791.00,0.0063
2790.00,0.0063
2789.00,0.0063
2788.00,0.0062
2787.00,0.0062
2786.00,0.0062
2785.00,0.0061
2784.00,0.0061
2783.00,0.0061
2782.00,0.0060
2781.00,0.0060
2780.00,0.0060
2779.00,0.0059
2778.00,0.0059
2777.00,0.0058
2776.00,0.0058
2775.00,0.0058
2774.00,0.0058
2773.00,0.0057
2772.00,0.0057
2771.00,0.0057
2770.00,0.0057
2769.00,0.0056
2768.00,0.0056
2767.00,0.0056
2766.00,0.0056
2765.00,0.0056
2764.00,0.0056
2763.00,0.0055
2762.00,0.0055
2761.00,0.0056
2760.00,0.0056
2759.00,0.0055
2758.00,0.0055
2757.00,0.0055
2756.00,0.0055
2755.00,0.0055
2754.00,0.0055
2753.00,0.0055
2752.00,0.0055
2751.00,0.0055
2750.00,0.0055
2749.00,0.0055
2748.00,0.0055
2747.00,0.0055
2746.00,0.0055
2745.00,0.0055
2744.00,0.0056
2743.00,0.0056
2742.00,0.0056
2741.00,0.0056
2740.00,0.0056
2739.00,0.0056
2738.00,0.0056
2737.00,0.0056
2736.00,0.0056
2735.00,0.0056
2734.00,0.0056
2733.00,0.0056
2732.00,0.0056
2731.00,0.0056
2730.00,0.0056
2729.00,0.0055
2728.00,0.0055
2727.00,0.0055
2726.00,0.0055
2725.00,0.0055
2724.00,0.0055
2723.00,0.0054
2722.00,0.0054
2721.00,0.0054
2720.00,0.0054
2719.00,0.0054
2718.00,0.0054
2717.00,0.0053
2716.00,0.0053
2715.00,0.0053
2714.00,0.0053
2713.00,0.0052
2712.00,0.0052
2711.00,0.0052
2710.00,0.0052
2709.00,0.0052
2708.00,0.0052
2707.00,0.0052
2706.00,0.0051
2705.00,0.0051
2704.00,0.0051
2703.00,0.0050
2702.00,0.0050
2701.00,0.0050
2700.00,0.0050
2699.00,0.0050
2698.00,0.0050
2697.00,0.0050
2696.00,0.0050
2695.00,0.0050
2694.00,0.0049
2693.00,0.0049
2692.00,0.0049
2691.00,0.0049
2690.00,0.0049
2689.00,0.0049
2688.00,0.0048
2687.00,0.0048
2686.00,0.0048
2685.00,0.0048
2684.00,0.0048
2683.00,0.0048
2682.00,0.0048
2681.00,0.0048
2680.00,0.0047
2679.00,0.0047
2678.00,0.0047
2677.00,0.0047
2676.00,0.0047
2675.00,0.0047
2674.00,0.0047
2673.00,0.0047
2672.00,0.0047
2671.00,0.0047
2670.00,0.0047
2669.00,0.0047
2668.00,0.0047
2667.00,0.0047
2666.00,0.0048
2665.00,0.0048
2664.00,0.0048
2663.00,0.0048
2662.00,0.0049
2661.00,0.0049
2660.00,0.0049
2659.00,0.0049
2658.00,0.0049
2657.00,0.0050
2656.00,0.0050
2655.00,0.0050
2654.00,0.0050
2653.00,0.0050
2652.00,0.0050
2651.00,0.0050
2650.00,0.0049
2649.00,0.0049
2648.00,0.0049
2647.00,0.0049
2646.00,0.0049
2645.00,0.0049
2644.00,0.0049
2643.00,0.0048
2642.00,0.0048
2641.00,0.0048
2640.00,0.0048
2639.00,0.0048
2638.00,0.0048
2637.00,0.0048
2636.00,0.0047
2635.00,0.0047
2634.00,0.0047
2633.00,0.0046
2632.00,0.0046
2631.00,0.0046
2630.00,0.0046
2629.00,0.0046
2628.00,0.0046
2627.00,0.0046
2626.00,0.0046
2625.00,0.0046
2624.00,0.0045
2623.00,0.0045
2622.00,0.0045
2621.00,0.0045
2620.00,0.0045
2619.00,0.0045
2618.00,0.0045
2617.00,0.0045
2616.00,0.0045
2615.00,0.0044
2614.00,0.0044
2613.00,0.0044
2612.00,0.0044
2611.00,0.0044
2610.00,0.0044
2609.00,0.0043
2608.00,0.0043
2607.00,0.0043
2606.00,0.0043
2605.00,0.0043
2604.00,0.0043
2603.00,0.0042
2602.00,0.0042
2601.00,0.0042
2600.00,0.0043
2599.00,0.0043
2598.00,0.0042
2597.00,0.0042
2596.00,0.0042
2595.00,0.0042
2594.00,0.0042
2593.00,0.0041
2592.00,0.0041
2591.00,0.0041
2590.00,0.0041
2589.00,0.0041
2588.00,0.0041
2587.00,0.0041
2586.00,0.0041
2585.00,0.0040
2584.00,0.0040
2583.00,0.0040
2582.00,0.0040
2581.00,0.0041
2580.00,0.0040
2579.00,0.0040
2578.00,0.0040
2577.00,0.0040
2576.00,0.0040
2575.00,0.0040
2574.00,0.0041
2573.00,0.0040
2572.00,0.0040
2571.00,0.0040
2570.00,0.0040
2569.00,0.0040
2568.00,0.0040
2567.00,0.0040
2566.00,0.0039
2565.00,0.0039
2564.00,0.0039
2563.00,0.0039
2562.00,0.0039
2561.00,0.0039
2560.00,0.0039
2559.00,0.0038
2558.00,0.0038
2557.00,0.0037
2556.00,0.0037
2555.00,0.0037
2554.00,0.0037
2553.00,0.0037
2552.00,0.0037
2551.00,0.0037
2550.00,0.0037
2549.00,0.0036
2548.00,0.0036
2547.00,0.0036
2546.00,0.0036
2545.00,0.0036
2544.00,0.0036
2543.00,0.0036
2542.00,0.0036
2541.00,0.0035
2540.00,0.0035
2539.00,0.0035
2538.00,0.0035
2537.00,0.0035
2536.00,0.0035
2535.00,0.0034
2534.00,0.0034
2533.00,0.0034
2532.00,0.0034
2531.00,0.0034
2530.00,0.0034
2529.00,0.0034
2528.00,0.0034
2527.00,0.0033
2526.00,0.0033
2525.00,0.0033
2524.00,0.0033
2523.00,0.0032
2522.00,0.0032
2521.00,0.0032
2520.00,0.0032
2519.00,0.0032
2518.00,0.0032
2517.00,0.0032
2516.00,0.0032
2515.00,0.0031
2514.00,0.0031
2513.00,0.0030
2512.00,0.0030
2511.00,0.0030
2510.00,0.0031
2509.00,0.0031
2508.00,0.0031
2507.00,0.0031
2506.00,0.0030
2505.00,0.0030
2504.00,0.0030
2503.00,0.0030
2502.00,0.0030
2501.00,0.0030
2500.00,0.0030
2499.00,0.0030
2498.00,0.0030
2497.00,0.0030
2496.00,0.0030
2495.00,0.0029
2494.00,0.0029
2493.00,0.0029
2492.00,0.0029
2491.00,0.0030
2490.00,0.0030
2489.00,0.0030
2488.00,0.0030
2487.00,0.0030
2486.00,0.0030
2485.00,0.0029
2484.00,0.0029
2483.00,0.0029
2482.00,0.0029
2481.00,0.0029
2480.00,0.0029
2479.00,0.0029
2478.00,0.0028
2477.00,0.0028
2476.00,0.0028
2475.00,0.0028
2474.00,0.0028
2473.00,0.0028
2472.00,0.0028
2471.00,0.0029
2470.00,0.0029
2469.00,0.0029
2468.00,0.0028
2467.00,0.0028
2466.00,0.0028
2465.00,0.0028
2464.00,0.0028
2463.00,0.0029
2462.00,0.0029
2461.00,0.0030
2460.00,0.0030
2459.00,0.0030
2458.00,0.0030
2457.00,0.0030
2456.00,0.0030
2455.00,0.0030
2454.00,0.0030
2453.00,0.0029
2452.00,0.0029
2451.00,0.0029
2450.00,0.0029
2449.00,0.0029
2448.00,0.0029
2447.00,0.0029
2446.00,0.0029
2445.00,0.0029
2444.00,0.0029
2443.00,0.0029
2442.00,0.0028
2441.00,0.0028
2440.00,0.0028
2439.00,0.0028
2438.00,0.0028
2437.00,0.0028
2436.00,0.0028
2435.00,0.0028
2434.00,0.0028
2433.00,0.0028
2432.00,0.0028
2431.00,0.0028
2430.00,0.0028
2429.00,0.0028
2428.00,0.0028
2427.00,0.0028
2426.00,0.0028
2425.00,0.0027
2424.00,0.0027
2423.00,0.0027
2422.00,0.0027
2421.00,0.0027
2420.00,0.0027
2419.00,0.0027
2418.00,0.0027
2417.00,0.0027
2416.00,0.0027
2415.00,0.0027
2414.00,0.0026
2413.00,0.0026
2412.00,0.0027
2411.00,0.0027
2410.00,0.0027
2409.00,0.0027
2408.00,0.0026
2407.00,0.0026
2406.00,0.0025
2405.00,0.0025
2404.00,0.0025
2403.00,0.0025
2402.00,0.0025
2401.00,0.0025
2400.00,0.0026
2399.00,0.0026
2398.00,0.0026
2397.00,0.0026
2396.00,0.0025
2395.00,0.0025
2394.00,0.0024
2393.00,0.0024
2392.00,0.0024
2391.00,0.0025
2390.00,0.0025
2389.00,0.0024
2388.00,0.0024
2387.00,0.0024
2386.00,0.0023
2385.00,0.0023
2384.00,0.0023
2383.00,0.0022
2382.00,0.0022
2381.00,0.0021
2380.00,0.0021
2379.00,0.0021
2378.00,0.0022
2377.00,0.0022
2376.00,0.0022
2375.00,0.0023
2374.00,0.0023
2373.00,0.0023
2372.00,0.0022
2371.00,0.0022
2370.00,0.0021
2369.00,0.0021
2368.00,0.0022
2367.00,0.0022
2366.00,0.0022
2365.00,0.0023
2364.00,0.0023
2363.00,0.0023
2362.00,0.0024
2361.00,0.0025
2360.00,0.0025
2359.00,0.0025
2358.00,0.0025
2357.00,0.0024
2356.00,0.0024
2355.00,0.0025
2354.00,0.0025
2353.00,0.0025
2352.00,0.0025
2351.00,0.0025
2350.00,0.0025
2349.00,0.0026
2348.00,0.0027
2347.00,0.0027
2346.00,0.0027
2345.00,0.0027
2344.00,0.0027
2343.00,0.0028
2342.00,0.0028
2341.00,0.0028
2340.00,0.0029
2339.00,0.0029
2338.00,0.0029
2337.00,0.0029
2336.00,0.0029
2335.00,0.0028
2334.00,0.0028
2333.00,0.0027
2332.00,0.0027
2331.00,0.0027
2330.00,0.0028
2329.00,0.0030
2328.00,0.0034
2327.00,0.0038
2326.00,0.0041
2325.00,0.0042
2324.00,0.0041
2323.00,0.0038
2322.00,0.0036
2321.00,0.0034
2320.00,0.0034
2319.00,0.0034
2318.00,0.0033
2317.00,0.0033
2316.00,0.0033
2315.00,0.0033
2314.00,0.0032
2313.00,0.0031
2312.00,0.0031
2311.00,0.0031
2310.00,0.0031
2309.00,0.0030
2308.00,0.0031
2307.00,0.0031
2306.00,0.0031
2305.00,0.0031
2304.00,0.0031
2303.00,0.0031
2302.00,0.0032
2301.00,0.0032
2300.00,0.0032
2299.00,0.0033
2298.00,0.0033
2297.00,0.0033
2296.00,0.0033
2295.00,0.0033
2294.00,0.0034
2293.00,0.0035
2292.00,0.0035
2291.00,0.0036
2290.00,0.0037
2289.00,0.0037
2288.00,0.0038
2287.00,0.0038
2286.00,0.0037
2285.00,0.0037
2284.00,0.0036
2283.00,0.0036
2282.00,0.0036
2281.00,0.0036
2280.00,0.0035
2279.00,0.0035
2278.00,0.0034
2277.00,0.0034
2276.00,0.0033
2275.00,0.0033
2274.00,0.0032
2273.00,0.0032
2272.00,0.0032
2271.00,0.0032
2270.00,0.0032
2269.00,0.0031
2268.00,0.0030
2267.00,0.0030
2266.00,0.0029
2265.00,0.0028
2264.00,0.0028
2263.00,0.0028
2262.00,0.0028
2261.00,0.0029
2260.00,0.0029
2259.00,0.0029
2258.00,0.0029
2257.00,0.0028
2256.00,0.0028
2255.00,0.0027
2254.00,0.0027
2253.00,0.0026
2252.00,0.0027
2251.00,0.0027
2250.00,0.0028
2249.00,0.0029
2248.00,0.0030
2247.00,0.0030
2246.00,0.0030
2245.00,0.0029
2244.00,0.0029
2243.00,0.0029
2242.00,0.0029
2241.00,0.0029
2240.00,0.0029
2239.00,0.0029
2238.00,0.0028
2237.00,0.0029
2236.00,0.0029
2235.00,0.0030
2234.00,0.0030
2233.00,0.0029
2232.00,0.0029
2231.00,0.0028
2230.00,0.0027
2229.00,0.0027
2228.00,0.0027
2227.00,0.0026
2226.00,0.0026
2225.00,0.0026
2224.00,0.0027
2223.00,0.0028
2222.00,0.0029
2221.00,0.0028
2220.00,0.0028
2219.00,0.0028
2218.00,0.0027
2217.00,0.0026
2216.00,0.0026
2215.00,0.0026
2214.00,0.0026
2213.00,0.0026
2212.00,0.0028
2211.00,0.0029
2210.00,0.0029
2209.00,0.0029
2208.00,0.0029
2207.00,0.0029
2206.00,0.0028
2205.00,0.0028
2204.00,0.0028
2203.00,0.0028
2202.00,0.0028
2201.00,0.0029
2200.00,0.0030
2199.00,0.0031
2198.00,0.0031
2197.00,0.0030
2196.00,0.0029
2195.00,0.0028
2194.00,0.0028
2193.00,0.0029
2192.00,0.0030
2191.00,0.0031
2190.00,0.0031
2189.00,0.0031
2188.00,0.0031
2187.00,0.0031
2186.00,0.0029
2185.00,0.0028
2184.00,0.0026
2183.00,0.0024
2182.00,0.0023
2181.00,0.0024
2180.00,0.0025
2179.00,0.0025
2178.00,0.0023
2177.00,0.0022
2176.00,0.0021
2175.00,0.0021
2174.00,0.0022
2173.00,0.0023
2172.00,0.0026
2171.00,0.0028
2170.00,0.0030
2169.00,0.0032
2168.00,0.0034
2167.00,0.0035
2166.00,0.0036
2165.00,0.0037
2164.00,0.0039
2163.00,0.0039
2162.00,0.0034
2161.00,0.0024
2160.00,0.0011
2159.00,-0.0000
2158.00,-0.0005
2157.00,-0.0005
2156.00,-0.0001
2155.00,0.0003
2154.00,0.0006
2153.00,0.0009
2152.00,0.0011
2151.00,0.0012
2150.00,0.0011
2149.00,0.0011
2148.00,0.0010
2147.00,0.0010
2146.00,0.0010
2145.00,0.0010
2144.00,0.0011
2143.00,0.0012
2142.00,0.0012
2141.00,0.0012
2140.00,0.0011
2139.00,0.0011
2138.00,0.0009
2137.00,0.0007
2136.00,0.0005
2135.00,0.0004
2134.00,0.0004
2133.00,0.0005
2132.00,0.0007
2131.00,0.0009
2130.00,0.0010
2129.00,0.0011
2128.00,0.0013
2127.00,0.0013
2126.00,0.0014
2125.00,0.0015
2124.00,0.0016
2123.00,0.0017
2122.00,0.0018
2121.00,0.0018
2120.00,0.0020
2119.00,0.0021
2118.00,0.0022
2117.00,0.0024
2116.00,0.0025
2115.00,0.0025
2114.00,0.0025
2113.00,0.0024
2112.00,0.0024
2111.00,0.0023
2110.00,0.0023
2109.00,0.0023
2108.00,0.0023
2107.00,0.0024
2106.00,0.0024
2105.00,0.0025
2104.00,0.0025
2103.00,0.0026
2102.00,0.0026
2101.00,0.0025
2100.00,0.0024
2099.00,0.0024
2098.00,0.0022
2097.00,0.0021
2096.00,0.0021
2095.00,0.0020
2094.00,0.0020
2093.00,0.0021
2092.00,0.0021
2091.00,0.0022
2090.00,0.0022
2089.00,0.0023
2088.00,0.0024
2087.00,0.0025
2086.00,0.0025
2085.00,0.0026
2084.00,0.0026
2083.00,0.0027
2082.00,0.0027
2081.00,0.0027
2080.00,0.0027
2079.00,0.0028
2078.00,0.0028
2077.00,0.0028
2076.00,0.0028
2075.00,0.0027
2074.00,0.0027
2073.00,0.0027
2072.00,0.0027
2071.00,0.0026
2070.00,0.0025
2069.00,0.0024
2068.00,0.0024
2067.00,0.0024
2066.00,0.0024
2065.00,0.0024
2064.00,0.0024
2063.00,0.0023
2062.00,0.0022
2061.00,0.0022
2060.00,0.0023
2059.00,0.0025
2058.00,0.0025
2057.00,0.0025
2056.00,0.0024
2055.00,0.0024
2054.00,0.0026
2053.00,0.0030
2052.00,0.0035
2051.00,0.0036
2050.00,0.0034
2049.00,0.0031
2048.00,0.0029
2047.00,0.0027
2046.00,0.0025
2045.00,0.0025
2044.00,0.0025
2043.00,0.0025
2042.00,0.0025
2041.00,0.0025
2040.00,0.0027
2039.00,0.0027
2038.00,0.0027
2037.00,0.0026
2036.00,0.0025
2035.00,0.0023
2034.00,0.0021
2033.00,0.0019
2032.00,0.0019
2031.00,0.0019
2030.00,0.0018
2029.00,0.0017
2028.00,0.0017
2027.00,0.0017
2026.00,0.0017
2025.00,0.0018
2024.00,0.0019
2023.00,0.0020
2022.00,0.0020
2021.00,0.0019
2020.00,0.0018
2019.00,0.0017
2018.00,0.0015
2017.00,0.0015
2016.00,0.0016
2015.00,0.0017
2014.00,0.0018
2013.00,0.0018
2012.00,0.0019
2011.00,0.0019
2010.00,0.0018
2009.00,0.0017
2008.00,0.0015
2007.00,0.0012
2006.00,0.0010
2005.00,0.0010
2004.00,0.0012
2003.00,0.0014
2002.00,0.0015
2001.00,0.0017
2000.00,0.0019
1999.00,0.0021
1998.00,0.0022
1997.00,0.0024
1996.00,0.0025
1995.00,0.0025
1994.00,0.0024
1993.00,0.0023
1992.00,0.0023
1991.00,0.0022
1990.00,0.0021
1989.00,0.0021
1988.00,0.0022
1987.00,0.0023
1986.00,0.0024
1985.00,0.0026
1984.00,0.0028
1983.00,0.0031
1982.00,0.0033
1981.00,0.0034
1980.00,0.0031
1979.00,0.0026
1978.00,0.0019
1977.00,0.0014
1976.00,0.0012
1975.00,0.0011
1974.00,0.0010
1973.00,0.0011
1972.00,0.0013
1971.00,0.0015
1970.00,0.0016
1969.00,0.0017
1968.00,0.0017
1967.00,0.0016
1966.00,0.0014
1965.00,0.0012
1964.00,0.0011
1963.00,0.0011
1962.00,0.0011
1961.00,0.0010
1960.00,0.0011
1959.00,0.0011
1958.00,0.0012
1957.00,0.0013
1956.00,0.0013
1955.00,0.0013
1954.00,0.0013
1953.00,0.0013
1952.00,0.0013
1951.00,0.0013
1950.00,0.0013
1949.00,0.0013
1948.00,0.0014
1947.00,0.0015
1946.00,0.0014
1945.00,0.0014
1944.00,0.0014
1943.00,0.0014
1942.00,0.0015
1941.00,0.0015
1940.00,0.0016
1939.00,0.0015
1938.00,0.0014
1937.00,0.0014
1936.00,0.0014
1935.00,0.0015
1934.00,0.0015
1933.00,0.0016
1932.00,0.0017
1931.00,0.0018
1930.00,0.0019
1929.00,0.0019
1928.00,0.0018
1927.00,0.0017
1926.00,0.0017
1925.00,0.0017
1924.00,0.0018
1923.00,0.0020
1922.00,0.0020
1921.00,0.0021
1920.00,0.0021
1919.00,0.0021
1918.00,0.0021
1917.00,0.0020
1916.00,0.0019
1915.00,0.0019
1914.00,0.0018
1913.00,0.0018
1912.00,0.0018
1911.00,0.0019
1910.00,0.0019
1909.00,0.0019
1908.00,0.0019
1907.00,0.0019
1906.00,0.0019
1905.00,0.0019
1904.00,0.0019
1903.00,0.0020
1902.00,0.0020
1901.00,0.0020
1900.00,0.0020
1899.00,0.0019
1898.00,0.0019
1897.00,0.0018
1896.00,0.0018
1895.00,0.0019
1894.00,0.0019
1893.00,0.0020
1892.00,0.0020
1891.00,0.0020
1890.00,0.0019
1889.00,0.0020
1888.00,0.0020
1887.00,0.0020
1886.00,0.0020
1885.00,0.0020
1884.00,0.0020
1883.00,0.0020
1882.00,0.0020
1881.00,0.0019
1880.00,0.0019
1879.00,0.0019
1878.00,0.0019
1877.00,0.0019
1876.00,0.0020
1875.00,0.0021
1874.00,0.0021
1873.00,0.0022
1872.00,0.0022
1871.00,0.0022
1870.00,0.0021
1869.00,0.0021
1868.00,0.0021
1867.00,0.0021
1866.00,0.0021
1865.00,0.0021
1864.00,0.0021
1863.00,0.0021
1862.00,0.0021
1861.00,0.0021
1860.00,0.0021
1859.00,0.0021
1858.00,0.0021
1857.00,0.0021
1856.00,0.0022
1855.00,0.0022
1854.00,0.0022
1853.00,0.0022
1852.00,0.0022
1851.00,0.0022
1850.00,0.0021
1849.00,0.0021
1848.00,0.0022
1847.00,0.0022
1846.00,0.0022
1845.00,0.0022
1844.00,0.0022
1843.00,0.0022
1842.00,0.0021
1841.00,0.0021
1840.00,0.0021
1839.00,0.0022
1838.00,0.0022
1837.00,0.0022
1836.00,0.0022
1835.00,0.0022
1834.00,0.0022
1833.00,0.0022
1832.00,0.0022
1831.00,0.0022
1830.00,0.0022
1829.00,0.0022
1828.00,0.0023
1827.00,0.0023
1826.00,0.0024
1825.00,0.0024
1824.00,0.0024
1823.00,0.0023
1822.00,0.0022
1821.00,0.0021
1820.00,0.0021
1819.00,0.0020
1818.00,0.0019
1817.00,0.0019
1816.00,0.0020
1815.00,0.0021
1814.00,0.0021
1813.00,0.0021
1812.00,0.0022
1811.00,0.0022
1810.00,0.0022
1809.00,0.0022
1808.00,0.0023
1807.00,0.0023
1806.00,0.0023
1805.00,0.0023
1804.00,0.0023
1803.00,0.0023
1802.00,0.0024
1801.00,0.0024
1800.00,0.0025
1799.00,0.0025
1798.00,0.0025
1797.00,0.0025
1796.00,0.0025
1795.00,0.0025
1794.00,0.0025
1793.00,0.0025
1792.00,0.0026
1791.00,0.0026
1790.00,0.0026
1789.00,0.0026
1788.00,0.0026
1787.00,0.0027
1786.00,0.0027
1785.00,0.0027
1784.00,0.0027
1783.00,0.0027
1782.00,0.0027
1781.00,0.0027
1780.00,0.0028
1779.00,0.0028
1778.00,0.0027
1777.00,0.0027
1776.00,0.0028
1775.00,0.0028
1774.00,0.0027
1773.00,0.0027
1772.00,0.0028
1771.00,0.0029
1770.00,0.0030
1769.00,0.0030
1768.00,0.0031
1767.00,0.0031
1766.00,0.0031
1765.00,0.0031
1764.00,0.0031
1763.00,0.0032
1762.00,0.0032
1761.00,0.0032
1760.00,0.0033
1759.00,0.0033
1758.00,0.0033
1757.00,0.0033
1756.00,0.0034
1755.00,0.0034
1754.00,0.0034
1753.00,0.0034
1752.00,0.0035
1751.00,0.0036
1750.00,0.0036
1749.00,0.0036
1748.00,0.0037
1747.00,0.0038
1746.00,0.0038
1745.00,0.0038
1744.00,0.0039
1743.00,0.0039
1742.00,0.0040
1741.00,0.0040
1740.00,0.0041
1739.00,0.0043
1738.00,0.0043
1737.00,0.0043
1736.00,0.0044
1735.00,0.0044
1734.00,0.0045
1733.00,0.0046
1732.00,0.0048
1731.00,0.0050
1730.00,0.0051
1729.00,0.0052
1728.00,0.0054
1727.00,0.0055
1726.00,0.0056
1725.00,0.0057
1724.00,0.0060
1723.00,0.0062
1722.00,0.0064
1721.00,0.0065
1720.00,0.0067
1719.00,0.0069
1718.00,0.0071
1717.00,0.0076
1716.00,0.0081
1715.00,0.0086
1714.00,0.0090
1713.00,0.0095
1712.00,0.0101
1711.00,0.0107
1710.00,0.0114
1709.00,0.0122
1708.00,0.0132
1707.00,0.0144
1706.00,0.0159
1705.00,0.0175
1704.00,0.0191
1703.00,0.0206
1702.00,0.0222
1701.00,0.0250
1700.00,0.0287
1699.00,0.0319
1698.00,0.0343
1697.00,0.0371
1696.00,0.0412
1695.00,0.0458
1694.00,0.0497
1693.00,0.0528
1692.00,0.0558
1691.00,0.0592
1690.00,0.0628
1689.00,0.0664
1688.00,0.0695
1687.00,0.0720
1686.00,0.0743
1685.00,0.0779
1684.00,0.0829
1683.00,0.0873
1682.00,0.0900
1681.00,0.0917
1680.00,0.0932
1679.00,0.0947
1678.00,0.0959
1677.00,0.0969
1676.00,0.0981
1675.00,0.0996
1674.00,0.1009
1673.00,0.1016
1672.00,0.1019
1671.00,0.1021
1670.00,0.1027
1669.00,0.1037
1668.00,0.1046
1667.00,0.1051
1666.00,0.1054
1665.00,0.1054
1664.00,0.1057
1663.00,0.1063
1662.00,0.1072
1661.00,0.1079
1660.00,0.1083
1659.00,0.1084
1658.00,0.1083
1657.00,0.1080
1656.00,0.1073
1655.00,0.1062
1654.00,0.1052
1653.00,0.1049
1652.00,0.1050
1651.00,0.1044
1650.00,0.1031
1649.00,0.1009
1648.00,0.0983
1647.00,0.0955
1646.00,0.0928
1645.00,0.0902
1644.00,0.0875
1643.00,0.0846
1642.00,0.0814
1641.00,0.0782
1640.00,0.0751
1639.00,0.0721
1638.00,0.0690
1637.00,0.0658
1636.00,0.0625
1635.00,0.0594
1634.00,0.0570
1633.00,0.0548
1632.00,0.0528
1631.00,0.0509
1630.00,0.0492
1629.00,0.0477
1628.00,0.0467
1627.00,0.0461
1626.00,0.0458
1625.00,0.0459
1624.00,0.0465
1623.00,0.0475
1622.00,0.0486
1621.00,0.0493
1620.00,0.0496
1619.00,0.0494
1618.00,0.0488
1617.00,0.0481
1616.00,0.0473
1615.00,0.0464
1614.00,0.0454
1613.00,0.0443
1612.00,0.0433
1611.00,0.0424
1610.00,0.0414
1609.00,0.0403
1608.00,0.0389
1607.00,0.0373
1606.00,0.0355
1605.00,0.0335
1604.00,0.0314
1603.00,0.0295
1602.00,0.0277
1601.00,0.0261
1600.00,0.0248
1599.00,0.0237
1598.00,0.0229
1597.00,0.0223
1596.00,0.0220
1595.00,0.0220
1594.00,0.0225
1593.00,0.0233
1592.00,0.0244
1591.00,0.0259
1590.00,0.0276
1589.00,0.0293
1588.00,0.0309
1587.00,0.0321
1586.00,0.0328
1585.00,0.0330
1584.00,0.0325
1583.00,0.0315
1582.00,0.0302
1581.00,0.0287
1580.00,0.0271
1579.00,0.0255
1578.00,0.0240
1577.00,0.0226
1576.00,0.0215
1575.00,0.0208
1574.00,0.0202
1573.00,0.0196
1572.00,0.0190
1571.00,0.0183
1570.00,0.0178
1569.00,0.0173
1568.00,0.0168
1567.00,0.0163
1566.00,0.0159
1565.00,0.0154
1564.00,0.0150
1563.00,0.0146
1562.00,0.0141
1561.00,0.0136
1560.00,0.0132
1559.00,0.0130
1558.00,0.0131
1557.00,0.0129
1556.00,0.0126
1555.00,0.0124
1554.00,0.0122
1553.00,0.0121
1552.00,0.0119
1551.00,0.0118
1550.00,0.0117
1549.00,0.0116
1548.00,0.0115
1547.00,0.0113
1546.00,0.0112
1545.00,0.0111
1544.00,0.0110
1543.00,0.0108
1542.00,0.0106
1541.00,0.0105
1540.00,0.0104
1539.00,0.0105
1538.00,0.0105
1537.00,0.0106
1536.00,0.0106
1535.00,0.0105
1534.00,0.0105
1533.00,0.0106
1532.00,0.0106
1531.00,0.0105
1530.00,0.0106
1529.00,0.0106
1528.00,0.0107
1527.00,0.0108
1526.00,0.0110
1525.00,0.0111
1524.00,0.0112
1523.00,0.0113
1522.00,0.0115
1521.00,0.0120
1520.00,0.0124
1519.00,0.0126
1518.00,0.0129
1517.00,0.0132
1516.00,0.0135
1515.00,0.0137
1514.00,0.0138
1513.00,0.0139
1512.00,0.0141
1511.00,0.0142
1510.00,0.0143
1509.00,0.0144
1508.00,0.0145
1507.00,0.0152
1506.00,0.0161
1505.00,0.0169
1504.00,0.0177
1503.00,0.0186
1502.00,0.0197
1501.00,0.0211
1500.00,0.0226
1499.00,0.0244
1498.00,0.0262
1497.00,0.0280
1496.00,0.0294
1495.00,0.0303
1494.00,0.0307
1493.00,0.0307
1492.00,0.0301
1491.00,0.0292
1490.00,0.0281
1489.00,0.0267
1488.00,0.0252
1487.00,0.0236
1486.00,0.0221
1485.00,0.0207
1484.00,0.0195
1483.00,0.0184
1482.00,0.0175
1481.00,0.0169
1480.00,0.0166
1479.00,0.0164
1478.00,0.0164
1477.00,0.0166
1476.00,0.0171
1475.00,0.0177
1474.00,0.0187
1473.00,0.0204
1472.00,0.0226
1471.00,0.0248
1470.00,0.0271
1469.00,0.0294
1468.00,0.0318
1467.00,0.0346
1466.00,0.0378
1465.00,0.0415
1464.00,0.0449
1463.00,0.0476
1462.00,0.0493
1461.00,0.0504
1460.00,0.0508
1459.00,0.0504
1458.00,0.0493
1457.00,0.0476
1456.00,0.0455
1455.00,0.0434
1454.00,0.0416
1453.00,0.0401
1452.00,0.0389
1451.00,0.0381
1450.00,0.0379
1449.00,0.0383
1448.00,0.0393
1447.00,0.0407
1446.00,0.0424
1445.00,0.0441
1444.00,0.0460
1443.00,0.0480
1442.00,0.0501
1441.00,0.0521
1440.00,0.0539
1439.00,0.0556
1438.00,0.0575
1437.00,0.0598
1436.00,0.0622
1435.00,0.0640
1434.00,0.0651
1433.00,0.0660
1432.00,0.0668
1431.00,0.0677
1430.00,0.0687
1429.00,0.0700
1428.00,0.0714
1427.00,0.0729
1426.00,0.0746
1425.00,0.0766
1424.00,0.0789
1423.00,0.0807
1422.00,0.0816
1421.00,0.0816
1420.00,0.0805
1419.00,0.0784
1418.00,0.0755
1417.00,0.0719
1416.00,0.0680
1415.00,0.0638
1414.00,0.0598
1413.00,0.0562
1412.00,0.0530
1411.00,0.0503
1410.00,0.0483
1409.00,0.0468
1408.00,0.0457
1407.00,0.0449
1406.00,0.0446
1405.00,0.0445
1404.00,0.0445
1403.00,0.0444
1402.00,0.0440
1401.00,0.0433
1400.00,0.0421
1399.00,0.0407
1398.00,0.0389
1397.00,0.0371
1396.00,0.0350
1395.00,0.0330
1394.00,0.0312
1393.00,0.0298
1392.00,0.0286
1391.00,0.0277
1390.00,0.0271
1389.00,0.0268
1388.00,0.0268
1387.00,0.0271
1386.00,0.0278
1385.00,0.0285
1384.00,0.0294
1383.00,0.0304
1382.00,0.0314
1381.00,0.0325
1380.00,0.0334
1379.00,0.0341
1378.00,0.0346
1377.00,0.0348
1376.00,0.0349
1375.00,0.0348
1374.00,0.0347
1373.00,0.0346
1372.00,0.0342
1371.00,0.0338
1370.00,0.0334
1369.00,0.0329
1368.00,0.0325
1367.00,0.0321
1366.00,0.0319
1365.00,0.0319
1364.00,0.0320
1363.00,0.0322
1362.00,0.0325
1361.00,0.0324
1360.00,0.0319
1359.00,0.0310
1358.00,0.0297
1357.00,0.0282
1356.00,0.0266
1355.00,0.0251
1354.00,0.0239
1353.00,0.0229
1352.00,0.0222
1351.00,0.0216
1350.00,0.0212
1349.00,0.0209
1348.00,0.0206
1347.00,0.0204
1346.00,0.0203
1345.00,0.0202
1344.00,0.0201
1343.00,0.0201
1342.00,0.0201
1341.00,0.0201
1340.00,0.0202
1339.00,0.0203
1338.00,0.0205
1337.00,0.0207
1336.00,0.0210
1335.00,0.0213
1334.00,0.0217
1333.00,0.0221
1332.00,0.0225
1331.00,0.0230
1330.00,0.0235
1329.00,0.0241
1328.00,0.0248
1327.00,0.0255
1326.00,0.0263
1325.00,0.0272
1324.00,0.0281
1323.00,0.0291
1322.00,0.0301
1321.00,0.0310
1320.00,0.0317
1319.00,0.0323
1318.00,0.0328
1317.00,0.0329
1316.00,0.0329
1315.00,0.0326
1314.00,0.0322
1313.00,0.0317
1312.00,0.0311
1311.00,0.0306
1310.00,0.0303
1309.00,0.0301
1308.00,0.0301
1307.00,0.0303
1306.00,0.0306
1305.00,0.0312
1304.00,0.0319
1303.00,0.0329
1302.00,0.0341
1301.00,0.0357
1300.00,0.0376
1299.00,0.0401
1298.00,0.0430
1297.00,0.0465
1296.00,0.0505
1295.00,0.0548
1294.00,0.0594
1293.00,0.0641
1292.00,0.0686
1291.00,0.0730
1290.00,0.0771
1289.00,0.0807
1288.00,0.0837
1287.00,0.0860
1286.00,0.0875
1285.00,0.0882
1284.00,0.0881
1283.00,0.0873
1282.00,0.0859
1281.00,0.0842
1280.00,0.0825
1279.00,0.0809
1278.00,0.0797
1277.00,0.0790
1276.00,0.0788
1275.00,0.0789
1274.00,0.0793
1273.00,0.0797
1272.00,0.0799
1271.00,0.0798
1270.00,0.0792
1269.00,0.0781
1268.00,0.0765
1267.00,0.0744
1266.00,0.0719
1265.00,0.0692
1264.00,0.0662
1263.00,0.0632
1262.00,0.0603
1261.00,0.0574
1260.00,0.0545
1259.00,0.0519
1258.00,0.0494
1257.00,0.0472
1256.00,0.0451
1255.00,0.0432
1254.00,0.0416
1253.00,0.0403
1252.00,0.0391
1251.00,0.0381
1250.00,0.0375
1249.00,0.0371
1248.00,0.0369
1247.00,0.0371
1246.00,0.0375
1245.00,0.0381
1244.00,0.0388
1243.00,0.0396
1242.00,0.0405
1241.00,0.0413
1240.00,0.0419
1239.00,0.0425
1238.00,0.0430
1237.00,0.0435
1236.00,0.0440
1235.00,0.0443
1234.00,0.0447
1233.00,0.0450
1232.00,0.0451
1231.00,0.0451
1230.00,0.0451
1229.00,0.0450
1228.00,0.0448
1227.00,0.0446
1226.00,0.0444
1225.00,0.0442
1224.00,0.0440
1223.00,0.0439
1222.00,0.0438
1221.00,0.0438
1220.00,0.0437
1219.00,0.0435
1218.00,0.0431
1217.00,0.0426
1216.00,0.0418
1215.00,0.0408
1214.00,0.0396
1213.00,0.0383
1212.00,0.0369
1211.00,0.0355
1210.00,0.0342
1209.00,0.0331
1208.00,0.0321
1207.00,0.0313
1206.00,0.0307
1205.00,0.0303
1204.00,0.0301
1203.00,0.0302
1202.00,0.0305
1201.00,0.0310
1200.00,0.0317
1199.00,0.0325
1198.00,0.0334
1197.00,0.0344
1196.00,0.0352
1195.00,0.0358
1194.00,0.0361
1193.00,0.0360
1192.00,0.0355
1191.00,0.0346
1190.00,0.0334
1189.00,0.0321
1188.00,0.0308
1187.00,0.0295
1186.00,0.0285
1185.00,0.0275
1184.00,0.0267
1183.00,0.0261
1182.00,0.0256
1181.00,0.0253
1180.00,0.0250
1179.00,0.0249
1178.00,0.0249
1177.00,0.0251
1176.00,0.0252
1175.00,0.0255
1174.00,0.0258
1173.00,0.0262
1172.00,0.0265
1171.00,0.0268
1170.00,0.0271
1169.00,0.0274
1168.00,0.0276
1167.00,0.0277
1166.00,0.0279
1165.00,0.0282
1164.00,0.0286
1163.00,0.0291
1162.00,0.0299
1161.00,0.0308
1160.00,0.0318
1159.00,0.0327
1158.00,0.0335
1157.00,0.0340
1156.00,0.0340
1155.00,0.0336
1154.00,0.0328
1153.00,0.0318
1152.00,0.0305
1151.00,0.0290
1150.00,0.0276
1149.00,0.0261
1148.00,0.0247
1147.00,0.0234
1146.00,0.0223
1145.00,0.0213
1144.00,0.0204
1143.00,0.0197
1142.00,0.0192
1141.00,0.0188
1140.00,0.0187
1139.00,0.0187
1138.00,0.0190
1137.00,0.0197
1136.00,0.0206
1135.00,0.0220
1134.00,0.0237
1133.00,0.0257
1132.00,0.0277
1131.00,0.0293
1130.00,0.0304
1129.00,0.0306
1128.00,0.0300
1127.00,0.0287
1126.00,0.0271
1125.00,0.0253
1124.00,0.0236
1123.00,0.0222
1122.00,0.0211
1121.00,0.0203
1120.00,0.0196
1119.00,0.0192
1118.00,0.0189
1117.00,0.0188
1116.00,0.0187
1115.00,0.0187
1114.00,0.0188
1113.00,0.0189
1112.00,0.0190
1111.00,0.0192
1110.00,0.0194
1109.00,0.0196
1108.00,0.0198
1107.00,0.0202
1106.00,0.0207
1105.00,0.0212
1104.00,0.0218
1103.00,0.0225
1102.00,0.0231
1101.00,0.0236
1100.00,0.0238
1099.00,0.0237
1098.00,0.0233
1097.00,0.0228
1096.00,0.0221
1095.00,0.0213
1094.00,0.0206
1093.00,0.0200
1092.00,0.0194
1091.00,0.0188
1090.00,0.0184
1089.00,0.0181
1088.00,0.0179
1087.00,0.0177
1086.00,0.0176
1085.00,0.0176
1084.00,0.0175
1083.00,0.0175
1082.00,0.0177
1081.00,0.0180
1080.00,0.0183
1079.00,0.0187
1078.00,0.0192
1077.00,0.0197
1076.00,0.0203
1075.00,0.0208
1074.00,0.0214
1073.00,0.0220
1072.00,0.0226
1071.00,0.0234
1070.00,0.0245
1069.00,0.0257
1068.00,0.0271
1067.00,0.0288
1066.00,0.0307
1065.00,0.0328
1064.00,0.0351
1063.00,0.0376
1062.00,0.0401
1061.00,0.0425
1060.00,0.0444
1059.00,0.0459
1058.00,0.0467
1057.00,0.0468
1056.00,0.0459
1055.00,0.0443
1054.00,0.0421
1053.00,0.0395
1052.00,0.0367
1051.00,0.0341
1050.00,0.0318
1049.00,0.0298
1048.00,0.0283
1047.00,0.0272
1046.00,0.0265
1045.00,0.0261
1044.00,0.0258
1043.00,0.0258
1042.00,0.0259
1041.00,0.0261
1040.00,0.0263
1039.00,0.0265
1038.00,0.0268
1037.00,0.0271
1036.00,0.0274
1035.00,0.0278
1034.00,0.0283
1033.00,0.0287
1032.00,0.0291
1031.00,0.0294
1030.00,0.0294
1029.00,0.0291
1028.00,0.0285
1027.00,0.0278
1026.00,0.0271
1025.00,0.0264
1024.00,0.0258
1023.00,0.0254
1022.00,0.0252
1021.00,0.0252
1020.00,0.0252
1019.00,0.0251
1018.00,0.0251
1017.00,0.0248
1016.00,0.0244
1015.00,0.0239
1014.00,0.0232
1013.00,0.0224
1012.00,0.0217
1011.00,0.0210
1010.00,0.0207
1009.00,0.0206
1008.00,0.0206
1007.00,0.0209
1006.00,0.0215
1005.00,0.0222
1004.00,0.0228
1003.00,0.0232
1002.00,0.0234
1001.00,0.0233
1000.00,0.0229
999.00,0.0224
998.00,0.0218
997.00,0.0212
996.00,0.0206
995.00,0.0201
994.00,0.0196
993.00,0.0191
992.00,0.0186
991.00,0.0181
990.00,0.0177
989.00,0.0173
988.00,0.0169
987.00,0.0164
986.00,0.0160
985.00,0.0156
984.00,0.0153
983.00,0.0151
982.00,0.0150
981.00,0.0150
980.00,0.0149
979.00,0.0149
978.00,0.0149
977.00,0.0149
976.00,0.0148
975.00,0.0147
974.00,0.0147
973.00,0.0145
972.00,0.0143
971.00,0.0141
970.00,0.0139
969.00,0.0137
968.00,0.0135
967.00,0.0133
966.00,0.0132
965.00,0.0131
964.00,0.0129
963.00,0.0128
962.00,0.0127
961.00,0.0125
960.00,0.0124
959.00,0.0122
958.00,0.0121
957.00,0.0120
956.00,0.0118
955.00,0.0117
954.00,0.0116
953.00,0.0115
952.00,0.0114
951.00,0.0114
950.00,0.0114
949.00,0.0115
948.00,0.0115
947.00,0.0116
946.00,0.0117
945.00,0.0118
944.00,0.0120
943.00,0.0123
942.00,0.0127
941.00,0.0131
940.00,0.0137
939.00,0.0143
938.00,0.0151
937.00,0.0159
936.00,0.0167
935.00,0.0174
934.00,0.0180
933.00,0.0183
932.00,0.0184
931.00,0.0182
930.00,0.0180
929.00,0.0178
928.00,0.0176
927.00,0.0174
926.00,0.0174
925.00,0.0173
924.00,0.0171
923.00,0.0169
922.00,0.0166
921.00,0.0164
920.00,0.0160
919.00,0.0157
918.00,0.0155
917.00,0.0152
916.00,0.0148
915.00,0.0145
914.00,0.0142
913.00,0.0140
912.00,0.0138
911.00,0.0137
910.00,0.0138
909.00,0.0139
908.00,0.0140
907.00,0.0143
906.00,0.0147
905.00,0.0151
904.00,0.0156
903.00,0.0162
902.00,0.0169
901.00,0.0176
900.00,0.0182
899.00,0.0187
898.00,0.0191
897.00,0.0193
896.00,0.0193
895.00,0.0191
894.00,0.0188
893.00,0.0184
892.00,0.0180
891.00,0.0175
890.00,0.0172
889.00,0.0168
888.00,0.0165
887.00,0.0163
886.00,0.0163
885.00,0.0163
884.00,0.0165
883.00,0.0167
882.00,0.0170
881.00,0.0175
880.00,0.0179
879.00,0.0185
878.00,0.0191
877.00,0.0198
876.00,0.0205
875.00,0.0212
874.00,0.0220
873.00,0.0227
872.00,0.0232
871.00,0.0235
870.00,0.0238
869.00,0.0239
868.00,0.0239
867.00,0.0239
866.00,0.0240
865.00,0.0240
864.00,0.0240
863.00,0.0241
862.00,0.0243
861.00,0.0244
860.00,0.0246
859.00,0.0248
858.00,0.0252
857.00,0.0256
856.00,0.0261
855.00,0.0266
854.00,0.0273
853.00,0.0279
852.00,0.0285
851.00,0.0292
850.00,0.0299
849.00,0.0305
848.00,0.0310
847.00,0.0314
846.00,0.0319
845.00,0.0322
844.00,0.0323
843.00,0.0323
842.00,0.0323
841.00,0.0322
840.00,0.0321
839.00,0.0319
838.00,0.0318
837.00,0.0316
836.00,0.0315
835.00,0.0314
834.00,0.0313
833.00,0.0313
832.00,0.0312
831.00,0.0310
830.00,0.0309
829.00,0.0308
828.00,0.0307
827.00,0.0305
826.00,0.0303
825.00,0.0302
824.00,0.0301
823.00,0.0300
822.00,0.0300
821.00,0.0301
820.00,0.0302
819.00,0.0303
818.00,0.0305
817.00,0.0307
816.00,0.0307
815.00,0.0307
814.00,0.0306
813.00,0.0302
812.00,0.0296
811.00,0.0288
810.00,0.0278
809.00,0.0266
808.00,0.0251
807.00,0.0236
806.00,0.0223
805.00,0.0211
804.00,0.0199
803.00,0.0191
802.00,0.0184
801.00,0.0180
800.00,0.0176
799.00,0.0174
798.00,0.0173
797.00,0.0172
796.00,0.0171
795.00,0.0170
794.00,0.0171
793.00,0.0171
792.00,0.0171
791.00,0.0171
790.00,0.0172
789.00,0.0173
788.00,0.0173
787.00,0.0173
786.00,0.0173
785.00,0.0173
784.00,0.0173
783.00,0.0174
782.00,0.0176
781.00,0.0179
780.00,0.0181
779.00,0.0184
778.00,0.0187
777.00,0.0189
776.00,0.0189
775.00,0.0188
774.00,0.0186
773.00,0.0185
772.00,0.0183
771.00,0.0183
770.00,0.0184
769.00,0.0185
768.00,0.0186
767.00,0.0188
766.00,0.0192
765.00,0.0195
764.00,0.0198
763.00,0.0201
762.00,0.0205
761.00,0.0209
760.00,0.0213
759.00,0.0217
758.00,0.0222
757.00,0.0227
756.00,0.0231
755.00,0.0236
754.00,0.0241
753.00,0.0245
752.00,0.0249
751.00,0.0253
750.00,0.0258
749.00,0.0263
748.00,0.0268
747.00,0.0272
746.00,0.0277
745.00,0.0282
744.00,0.0288
743.00,0.0296
742.00,0.0305
741.00,0.0314
740.00,0.0324
739.00,0.0334
738.00,0.0343
737.00,0.0350
736.00,0.0352
735.00,0.0350
734.00,0.0346
733.00,0.0340
732.00,0.0332
731.00,0.0323
730.00,0.0315
729.00,0.0306
728.00,0.0297
727.00,0.0288
726.00,0.0281
725.00,0.0274
724.00,0.0267
723.00,0.0260
722.00,0.0255
721.00,0.0251
720.00,0.0247
719.00,0.0243
718.00,0.0242
717.00,0.0241
716.00,0.0239
715.00,0.0238
714.00,0.0238
713.00,0.0238
712.00,0.0236
711.00,0.0234
710.00,0.0232
709.00,0.0231
708.00,0.0228
707.00,0.0227
706.00,0.0228
705.00,0.0228
704.00,0.0228
703.00,0.0228
702.00,0.0229
701.00,0.0231
700.00,0.0233
699.00,0.0236
698.00,0.0240
697.00,0.0245
696.00,0.0249
695.00,0.0255
694.00,0.0262
693.00,0.0268
692.00,0.0273
691.00,0.0278
690.00,0.0282
689.00,0.0285
688.00,0.0285
687.00,0.0286
686.00,0.0286
685.00,0.0286
684.00,0.0284
683.00,0.0283
682.00,0.0283
681.00,0.0284
680.00,0.0284
679.00,0.0285
678.00,0.0287
677.00,0.0291
676.00,0.0294
675.00,0.0298
674.00,0.0303
673.00,0.0307
672.00,0.0311
671.00,0.0314
670.00,0.0319
669.00,0.0326
668.00,0.0335
667.00,0.0345
666.00,0.0353
665.00,0.0358
664.00,0.0364
663.00,0.0371
662.00,0.0380
661.00,0.0388
660.00,0.0396
659.00,0.0405
658.00,0.0414
657.00,0.0423
656.00,0.0431
655.00,0.0439
654.00,0.0447
653.00,0.0455
652.00,0.0462
651.00,0.0467
650.00,0.0472
649.00,0.0476
648.00,0.0476
647.00,0.0475
646.00,0.0473
645.00,0.0469
644.00,0.0464
643.00,0.0458
642.00,0.0452
641.00,0.0445
640.00,0.0436
639.00,0.0427
638.00,0.0419
637.00,0.0411
636.00,0.0404
635.00,0.0397
634.00,0.0391
633.00,0.0386
632.00,0.0380
631.00,0.0376
630.00,0.0373
629.00,0.0370
628.00,0.0366
627.00,0.0364
626.00,0.0364
625.00,0.0363
624.00,0.0360
623.00,0.0358
622.00,0.0356
621.00,0.0354
620.00,0.0352
619.00,0.0350
618.00,0.0349
617.00,0.0349
616.00,0.0346
615.00,0.0344
614.00,0.0343
613.00,0.0343
612.00,0.0343
611.00,0.0344
610.00,0.0346
609.00,0.0349
608.00,0.0351
607.00,0.0352
606.00,0.0355
605.00,0.0357
604.00,0.0359
603.00,0.0361
602.00,0.0364
601.00,0.0366
600.00,0.0367
599.00,0.0367
598.00,0.0369
597.00,0.0370
596.00,0.0370
595.00,0.0369
594.00,0.0370
593.00,0.0371
592.00,0.0371
591.00,0.0373
590.00,0.0379
589.00,0.0388
588.00,0.0397
587.00,0.0410
586.00,0.0425
585.00,0.0441
584.00,0.0455
583.00,0.0466
582.00,0.0476
581.00,0.0484
580.00,0.0487
579.00,0.0490
578.00,0.0493
577.00,0.0496
576.00,0.0497
575.00,0.0498
574.00,0.0500
573.00,0.0501
572.00,0.0501
571.00,0.0500
570.00,0.0500
569.00,0.0498
568.00,0.0494
567.00,0.0489
566.00,0.0486
565.00,0.0482
564.00,0.0476
563.00,0.0470
562.00,0.0466
561.00,0.0462
560.00,0.0456
559.00,0.0451
558.00,0.0448
557.00,0.0445
556.00,0.0439
555.00,0.0433
554.00,0.0428
553.00,0.0424
552.00,0.0420
551.00,0.0416
550.00,0.0415
549.00,0.0413
548.00,0.0409
547.00,0.0405
546.00,0.0402
545.00,0.0398
544.00,0.0391
543.00,0.0386
542.00,0.0384
541.00,0.0383
540.00,0.0381
539.00,0.0381
538.00,0.0384
537.00,0.0388
536.00,0.0392
535.00,0.0396
534.00,0.0402
533.00,0.0407
532.00,0.0410
531.00,0.0410
530.00,0.0411
529.00,0.0408
528.00,0.0402
527.00,0.0396
526.00,0.0394
525.00,0.0391
524.00,0.0386
523.00,0.0382
522.00,0.0381
521.00,0.0379
520.00,0.0374
519.00,0.0369
518.00,0.0367
517.00,0.0367
516.00,0.0365
515.00,0.0363
514.00,0.0364
513.00,0.0365
512.00,0.0364
511.00,0.0365
510.00,0.0370
509.00,0.0374
508.00,0.0375
507.00,0.0374
506.00,0.0376
505.00,0.0376
504.00,0.0373
503.00,0.0369
502.00,0.0369
501.00,0.0368
500.00,0.0365
499.00,0.0364
498.00,0.0365
497.00,0.0367
496.00,0.0367
495.00,0.0366
494.00,0.0368
493.00,0.0370
492.00,0.0369
491.00,0.0369
490.00,0.0372
489.00,0.0375
488.00,0.0374
487.00,0.0373
486.00,0.0376
485.00,0.0379
484.00,0.0379
483.00,0.0380
482.00,0.0383
481.00,0.0385
480.00,0.0381
479.00,0.0376
478.00,0.0375
477.00,0.0375
476.00,0.0371
475.00,0.0368
474.00,0.0371
473.00,0.0376
472.00,0.0378
471.00,0.0380
470.00,0.0383
469.00,0.0384
468.00,0.0380
467.00,0.0378
466.00,0.0381
465.00,0.0382
464.00,0.0377
463.00,0.0374
462.00,0.0375
461.00,0.0377
460.00,0.0375
459.00,0.0373
458.00,0.0375
457.00,0.0375
456.00,0.0369
455.00,0.0365
454.00,0.0367
453.00,0.0369
452.00,0.0367
451.00,0.0367
450.00,0.0370
449.00,0.0372
448.00,0.0366
447.00,0.0360
446.00,0.0358
445.00,0.0357
444.00,0.0352
443.00,0.0352
442.00,0.0359
441.00,0.0364
440.00,0.0361
439.00,0.0356
438.00,0.0357
437.00,0.0359
436.00,0.0354
435.00,0.0349
434.00,0.0349
433.00,0.0348
432.00,0.0341
431.00,0.0335
430.00,0.0337
429.00,0.0337
428.00,0.0332
427.00,0.0327
426.00,0.0331
425.00,0.0335
424.00,0.0331
423.00,0.0326
422.00,0.0328
421.00,0.0330
420.00,0.0327
419.00,0.0330
418.00,0.0347
417.00,0.0355
416.00,0.0347
415.00,0.0338
414.00,0.0339
413.00,0.0341
412.00,0.0337
411.00,0.0335
410.00,0.0343
409.00,0.0346
408.00,0.0337
407.00,0.0329
406.00,0.0334
405.00,0.0336
404.00,0.0325
403.00,0.0315
402.00,0.0322
401.00,0.0329
400.00,0.0325
