Created as New Dataset,Sample 557 By YargerLab Date Thursday, June 05 2025
cm-1,A
4000.00,0.0011
3999.00,0.0011
3998.00,0.0011
3997.00,0.0011
3996.00,0.0010
3995.00,0.0010
3994.00,0.0010
3993.00,0.0010
3992.00,0.0010
3991.00,0.0010
3990.00,0.0010
3989.00,0.0010
3988.00,0.0011
3987.00,0.0011
3986.00,0.0011
3985.00,0.0010
3984.00,0.0010
3983.00,0.0010
3982.00,0.0011
3981.00,0.0011
3980.00,0.0011
3979.00,0.0011
3978.00,0.0011
3977.00,0.0011
3976.00,0.0011
3975.00,0.0011
3974.00,0.0010
3973.00,0.0010
3972.00,0.0010
3971.00,0.0010
3970.00,0.0010
3969.00,0.0010
3968.00,0.0010
3967.00,0.0010
3966.00,0.0010
3965.00,0.0010
3964.00,0.0010
3963.00,0.0011
3962.00,0.0011
3961.00,0.0011
3960.00,0.0010
3959.00,0.0010
3958.00,0.0010
3957.00,0.0010
3956.00,0.0010
3955.00,0.0010
3954.00,0.0010
3953.00,0.0010
3952.00,0.0010
3951.00,0.0011
3950.00,0.0010
3949.00,0.0010
3948.00,0.0010
3947.00,0.0010
3946.00,0.0010
3945.00,0.0010
3944.00,0.0011
3943.00,0.0010
3942.00,0.0010
3941.00,0.0010
3940.00,0.0010
3939.00,0.0011
3938.00,0.0011
3937.00,0.0011
3936.00,0.0011
3935.00,0.0011
3934.00,0.0011
3933.00,0.0011
3932.00,0.0010
3931.00,0.0010
3930.00,0.0011
3929.00,0.0011
3928.00,0.0011
3927.00,0.0011
3926.00,0.0010
3925.00,0.0010
3924.00,0.0010
3923.00,0.0010
3922.00,0.0010
3921.00,0.0010
3920.00,0.0010
3919.00,0.0010
3918.00,0.0010
3917.00,0.0010
3916.00,0.0010
3915.00,0.0010
3914.00,0.0010
3913.00,0.0010
3912.00,0.0010
3911.00,0.0010
3910.00,0.0010
3909.00,0.0010
3908.00,0.0011
3907.00,0.0011
3906.00,0.0011
3905.00,0.0011
3904.00,0.0012
3903.00,0.0012
3902.00,0.0012
3901.00,0.0012
3900.00,0.0011
3899.00,0.0011
3898.00,0.0011
3897.00,0.0010
3896.00,0.0010
3895.00,0.0010
3894.00,0.0010
3893.00,0.0010
3892.00,0.0010
3891.00,0.0010
3890.00,0.0010
3889.00,0.0010
3888.00,0.0010
3887.00,0.0010
3886.00,0.0010
3885.00,0.0010
3884.00,0.0010
3883.00,0.0011
3882.00,0.0011
3881.00,0.0010
3880.00,0.0010
3879.00,0.0010
3878.00,0.0010
3877.00,0.0010
3876.00,0.0010
3875.00,0.0010
3874.00,0.0010
3873.00,0.0010
3872.00,0.0010
3871.00,0.0010
3870.00,0.0010
3869.00,0.0010
3868.00,0.0010
3867.00,0.0010
3866.00,0.0010
3865.00,0.0010
3864.00,0.0010
3863.00,0.0010
3862.00,0.0010
3861.00,0.0010
3860.00,0.0009
3859.00,0.0010
3858.00,0.0010
3857.00,0.0011
3856.00,0.0012
3855.00,0.0013
3854.00,0.0013
3853.00,0.0013
3852.00,0.0012
3851.00,0.0012
3850.00,0.0012
3849.00,0.0011
3848.00,0.0010
3847.00,0.0010
3846.00,0.0010
3845.00,0.0010
3844.00,0.0010
3843.00,0.0010
3842.00,0.0011
3841.00,0.0011
3840.00,0.0011
3839.00,0.0011
3838.00,0.0011
3837.00,0.0011
3836.00,0.0011
3835.00,0.0011
3834.00,0.0010
3833.00,0.0010
3832.00,0.0010
3831.00,0.0010
3830.00,0.0010
3829.00,0.0010
3828.00,0.0009
3827.00,0.0009
3826.00,0.0009
3825.00,0.0010
3824.00,0.0010
3823.00,0.0010
3822.00,0.0010
3821.00,0.0010
3820.00,0.0010
3819.00,0.0010
3818.00,0.0011
3817.00,0.0010
3816.00,0.0010
3815.00,0.0010
3814.00,0.0009
3813.00,0.0009
3812.00,0.0010
3811.00,0.0010
3810.00,0.0010
3809.00,0.0011
3808.00,0.0011
3807.00,0.0010
3806.00,0.0011
3805.00,0.0011
3804.00,0.0011
3803.00,0.0011
3802.00,0.0011
3801.00,0.0010
3800.00,0.0010
3799.00,0.0010
3798.00,0.0010
3797.00,0.0010
3796.00,0.0010
3795.00,0.0009
3794.00,0.0009
3793.00,0.0010
3792.00,0.0009
3791.00,0.0009
3790.00,0.0009
3789.00,0.0009
3788.00,0.0009
3787.00,0.0009
3786.00,0.0009
3785.00,0.0010
3784.00,0.0010
3783.00,0.0010
3782.00,0.0010
3781.00,0.0010
3780.00,0.0010
3779.00,0.0010
3778.00,0.0010
3777.00,0.0010
3776.00,0.0010
3775.00,0.0010
3774.00,0.0010
3773.00,0.0011
3772.00,0.0011
3771.00,0.0011
3770.00,0.0010
3769.00,0.0010
3768.00,0.0010
3767.00,0.0010
3766.00,0.0010
3765.00,0.0010
3764.00,0.0010
3763.00,0.0010
3762.00,0.0010
3761.00,0.0010
3760.00,0.0010
3759.00,0.0010
3758.00,0.0010
3757.00,0.0011
3756.00,0.0011
3755.00,0.0011
3754.00,0.0012
3753.00,0.0012
3752.00,0.0013
3751.00,0.0013
3750.00,0.0013
3749.00,0.0013
3748.00,0.0013
3747.00,0.0013
3746.00,0.0013
3745.00,0.0012
3744.00,0.0012
3743.00,0.0011
3742.00,0.0012
3741.00,0.0012
3740.00,0.0011
3739.00,0.0011
3738.00,0.0011
3737.00,0.0011
3736.00,0.0012
3735.00,0.0012
3734.00,0.0012
3733.00,0.0012
3732.00,0.0012
3731.00,0.0012
3730.00,0.0012
3729.00,0.0012
3728.00,0.0012
3727.00,0.0011
3726.00,0.0011
3725.00,0.0011
3724.00,0.0011
3723.00,0.0011
3722.00,0.0011
3721.00,0.0011
3720.00,0.0011
3719.00,0.0011
3718.00,0.0011
3717.00,0.0011
3716.00,0.0011
3715.00,0.0012
3714.00,0.0012
3713.00,0.0012
3712.00,0.0012
3711.00,0.0012
3710.00,0.0012
3709.00,0.0012
3708.00,0.0012
3707.00,0.0012
3706.00,0.0012
3705.00,0.0012
3704.00,0.0012
3703.00,0.0012
3702.00,0.0012
3701.00,0.0012
3700.00,0.0012
3699.00,0.0012
3698.00,0.0013
3697.00,0.0013
3696.00,0.0013
3695.00,0.0013
3694.00,0.0013
3693.00,0.0014
3692.00,0.0015
3691.00,0.0015
3690.00,0.0015
3689.00,0.0015
3688.00,0.0015
3687.00,0.0016
3686.00,0.0016
3685.00,0.0016
3684.00,0.0016
3683.00,0.0016
3682.00,0.0016
3681.00,0.0017
3680.00,0.0017
3679.00,0.0018
3678.00,0.0019
3677.00,0.0020
3676.00,0.0020
3675.00,0.0020
3674.00,0.0020
3673.00,0.0021
3672.00,0.0022
3671.00,0.0022
3670.00,0.0023
3669.00,0.0023
3668.00,0.0024
3667.00,0.0024
3666.00,0.0025
3665.00,0.0025
3664.00,0.0026
3663.00,0.0026
3662.00,0.0027
3661.00,0.0028
3660.00,0.0029
3659.00,0.0030
3658.00,0.0031
3657.00,0.0032
3656.00,0.0032
3655.00,0.0033
3654.00,0.0034
3653.00,0.0035
3652.00,0.0036
3651.00,0.0037
3650.00,0.0038
3649.00,0.0039
3648.00,0.0040
3647.00,0.0041
3646.00,0.0041
3645.00,0.0041
3644.00,0.0042
3643.00,0.0042
3642.00,0.0042
3641.00,0.0043
3640.00,0.0044
3639.00,0.0045
3638.00,0.0046
3637.00,0.0047
3636.00,0.0047
3635.00,0.0048
3634.00,0.0049
3633.00,0.0050
3632.00,0.0052
3631.00,0.0053
3630.00,0.0055
3629.00,0.0056
3628.00,0.0058
3627.00,0.0059
3626.00,0.0060
3625.00,0.0060
3624.00,0.0060
3623.00,0.0060
3622.00,0.0061
3621.00,0.0062
3620.00,0.0063
3619.00,0.0064
3618.00,0.0066
3617.00,0.0067
3616.00,0.0068
3615.00,0.0069
3614.00,0.0070
3613.00,0.0071
3612.00,0.0073
3611.00,0.0074
3610.00,0.0075
3609.00,0.0077
3608.00,0.0078
3607.00,0.0079
3606.00,0.0080
3605.00,0.0080
3604.00,0.0081
3603.00,0.0082
3602.00,0.0083
3601.00,0.0085
3600.00,0.0086
3599.00,0.0087
3598.00,0.0088
3597.00,0.0089
3596.00,0.0090
3595.00,0.0091
3594.00,0.0092
3593.00,0.0093
3592.00,0.0094
3591.00,0.0096
3590.00,0.0097
3589.00,0.0098
3588.00,0.0100
3587.00,0.0102
3586.00,0.0103
3585.00,0.0105
3584.00,0.0106
3583.00,0.0107
3582.00,0.0108
3581.00,0.0109
3580.00,0.0110
3579.00,0.0111
3578.00,0.0112
3577.00,0.0113
3576.00,0.0114
3575.00,0.0116
3574.00,0.0117
3573.00,0.0118
3572.00,0.0119
3571.00,0.0120
3570.00,0.0121
3569.00,0.0123
3568.00,0.0125
3567.00,0.0127
3566.00,0.0128
3565.00,0.0130
3564.00,0.0131
3563.00,0.0132
3562.00,0.0133
3561.00,0.0134
3560.00,0.0135
3559.00,0.0136
3558.00,0.0138
3557.00,0.0139
3556.00,0.0141
3555.00,0.0142
3554.00,0.0144
3553.00,0.0145
3552.00,0.0147
3551.00,0.0148
3550.00,0.0149
3549.00,0.0150
3548.00,0.0152
3547.00,0.0153
3546.00,0.0154
3545.00,0.0156
3544.00,0.0157
3543.00,0.0158
3542.00,0.0159
3541.00,0.0160
3540.00,0.0161
3539.00,0.0162
3538.00,0.0164
3537.00,0.0165
3536.00,0.0166
3535.00,0.0168
3534.00,0.0169
3533.00,0.0170
3532.00,0.0171
3531.00,0.0172
3530.00,0.0173
3529.00,0.0174
3528.00,0.0176
3527.00,0.0177
3526.00,0.0178
3525.00,0.0180
3524.00,0.0181
3523.00,0.0182
3522.00,0.0183
3521.00,0.0184
3520.00,0.0185
3519.00,0.0187
3518.00,0.0188
3517.00,0.0189
3516.00,0.0190
3515.00,0.0191
3514.00,0.0192
3513.00,0.0194
3512.00,0.0195
3511.00,0.0197
3510.00,0.0198
3509.00,0.0199
3508.00,0.0201
3507.00,0.0202
3506.00,0.0203
3505.00,0.0204
3504.00,0.0206
3503.00,0.0207
3502.00,0.0209
3501.00,0.0210
3500.00,0.0211
3499.00,0.0212
3498.00,0.0213
3497.00,0.0214
3496.00,0.0215
3495.00,0.0216
3494.00,0.0218
3493.00,0.0219
3492.00,0.0221
3491.00,0.0222
3490.00,0.0224
3489.00,0.0225
3488.00,0.0226
3487.00,0.0227
3486.00,0.0228
3485.00,0.0230
3484.00,0.0231
3483.00,0.0232
3482.00,0.0234
3481.00,0.0235
3480.00,0.0237
3479.00,0.0238
3478.00,0.0239
3477.00,0.0240
3476.00,0.0242
3475.00,0.0243
3474.00,0.0244
3473.00,0.0246
3472.00,0.0247
3471.00,0.0249
3470.00,0.0250
3469.00,0.0252
3468.00,0.0253
3467.00,0.0254
3466.00,0.0255
3465.00,0.0257
3464.00,0.0258
3463.00,0.0259
3462.00,0.0261
3461.00,0.0262
3460.00,0.0264
3459.00,0.0265
3458.00,0.0266
3457.00,0.0267
3456.00,0.0268
3455.00,0.0269
3454.00,0.0271
3453.00,0.0272
3452.00,0.0273
3451.00,0.0275
3450.00,0.0276
3449.00,0.0278
3448.00,0.0279
3447.00,0.0281
3446.00,0.0282
3445.00,0.0283
3444.00,0.0285
3443.00,0.0286
3442.00,0.0287
3441.00,0.0288
3440.00,0.0289
3439.00,0.0291
3438.00,0.0293
3437.00,0.0294
3436.00,0.0295
3435.00,0.0297
3434.00,0.0298
3433.00,0.0299
3432.00,0.0300
3431.00,0.0302
3430.00,0.0304
3429.00,0.0305
3428.00,0.0307
3427.00,0.0308
3426.00,0.0309
3425.00,0.0311
3424.00,0.0312
3423.00,0.0314
3422.00,0.0315
3421.00,0.0317
3420.00,0.0319
3419.00,0.0320
3418.00,0.0321
3417.00,0.0322
3416.00,0.0323
3415.00,0.0325
3414.00,0.0326
3413.00,0.0328
3412.00,0.0329
3411.00,0.0331
3410.00,0.0332
3409.00,0.0333
3408.00,0.0335
3407.00,0.0336
3406.00,0.0337
3405.00,0.0338
3404.00,0.0340
3403.00,0.0341
3402.00,0.0342
3401.00,0.0344
3400.00,0.0346
3399.00,0.0347
3398.00,0.0349
3397.00,0.0350
3396.00,0.0351
3395.00,0.0352
3394.00,0.0353
3393.00,0.0355
3392.00,0.0356
3391.00,0.0357
3390.00,0.0359
3389.00,0.0360
3388.00,0.0362
3387.00,0.0364
3386.00,0.0366
3385.00,0.0367
3384.00,0.0369
3383.00,0.0370
3382.00,0.0371
3381.00,0.0373
3380.00,0.0374
3379.00,0.0375
3378.00,0.0377
3377.00,0.0378
3376.00,0.0380
3375.00,0.0382
3374.00,0.0383
3373.00,0.0385
3372.00,0.0386
3371.00,0.0388
3370.00,0.0390
3369.00,0.0392
3368.00,0.0394
3367.00,0.0396
3366.00,0.0399
3365.00,0.0401
3364.00,0.0403
3363.00,0.0405
3362.00,0.0407
3361.00,0.0409
3360.00,0.0411
3359.00,0.0413
3358.00,0.0415
3357.00,0.0418
3356.00,0.0420
3355.00,0.0422
3354.00,0.0423
3353.00,0.0425
3352.00,0.0427
3351.00,0.0429
3350.00,0.0432
3349.00,0.0434
3348.00,0.0437
3347.00,0.0439
3346.00,0.0442
3345.00,0.0444
3344.00,0.0446
3343.00,0.0449
3342.00,0.0451
3341.00,0.0453
3340.00,0.0456
3339.00,0.0459
3338.00,0.0462
3337.00,0.0465
3336.00,0.0468
3335.00,0.0471
3334.00,0.0474
3333.00,0.0477
3332.00,0.0480
3331.00,0.0483
3330.00,0.0486
3329.00,0.0489
3328.00,0.0491
3327.00,0.0494
3326.00,0.0497
3325.00,0.0501
3324.00,0.0504
3323.00,0.0508
3322.00,0.0512
3321.00,0.0516
3320.00,0.0520
3319.00,0.0523
3318.00,0.0527
3317.00,0.0531
3316.00,0.0534
3315.00,0.0538
3314.00,0.0542
3313.00,0.0546
3312.00,0.0549
3311.00,0.0553
3310.00,0.0556
3309.00,0.0560
3308.00,0.0564
3307.00,0.0568
3306.00,0.0572
3305.00,0.0577
3304.00,0.0582
3303.00,0.0587
3302.00,0.0591
3301.00,0.0596
3300.00,0.0600
3299.00,0.0604
3298.00,0.0608
3297.00,0.0612
3296.00,0.0615
3295.00,0.0619
3294.00,0.0623
3293.00,0.0627
3292.00,0.0631
3291.00,0.0635
3290.00,0.0639
3289.00,0.0643
3288.00,0.0646
3287.00,0.0649
3286.00,0.0653
3285.00,0.0656
3284.00,0.0658
3283.00,0.0661
3282.00,0.0663
3281.00,0.0665
3280.00,0.0667
3279.00,0.0668
3278.00,0.0670
3277.00,0.0670
3276.00,0.0671
3275.00,0.0671
3274.00,0.0671
3273.00,0.0670
3272.00,0.0669
3271.00,0.0668
3270.00,0.0668
3269.00,0.0667
3268.00,0.0666
3267.00,0.0664
3266.00,0.0662
3265.00,0.0659
3264.00,0.0656
3263.00,0.0653
3262.00,0.0650
3261.00,0.0646
3260.00,0.0642
3259.00,0.0638
3258.00,0.0633
3257.00,0.0629
3256.00,0.0625
3255.00,0.0621
3254.00,0.0617
3253.00,0.0613
3252.00,0.0609
3251.00,0.0605
3250.00,0.0600
3249.00,0.0595
3248.00,0.0591
3247.00,0.0587
3246.00,0.0584
3245.00,0.0580
3244.00,0.0577
3243.00,0.0573
3242.00,0.0570
3241.00,0.0566
3240.00,0.0563
3239.00,0.0559
3238.00,0.0555
3237.00,0.0551
3236.00,0.0547
3235.00,0.0543
3234.00,0.0539
3233.00,0.0537
3232.00,0.0534
3231.00,0.0532
3230.00,0.0530
3229.00,0.0527
3228.00,0.0525
3227.00,0.0522
3226.00,0.0519
3225.00,0.0516
3224.00,0.0513
3223.00,0.0510
3222.00,0.0508
3221.00,0.0505
3220.00,0.0502
3219.00,0.0500
3218.00,0.0497
3217.00,0.0495
3216.00,0.0492
3215.00,0.0490
3214.00,0.0488
3213.00,0.0485
3212.00,0.0483
3211.00,0.0480
3210.00,0.0478
3209.00,0.0476
3208.00,0.0473
3207.00,0.0471
3206.00,0.0469
3205.00,0.0466
3204.00,0.0464
3203.00,0.0461
3202.00,0.0459
3201.00,0.0457
3200.00,0.0455
3199.00,0.0453
3198.00,0.0450
3197.00,0.0448
3196.00,0.0445
3195.00,0.0443
3194.00,0.0440
3193.00,0.0438
3192.00,0.0436
3191.00,0.0434
3190.00,0.0432
3189.00,0.0429
3188.00,0.0427
3187.00,0.0425
3186.00,0.0423
3185.00,0.0420
3184.00,0.0418
3183.00,0.0415
3182.00,0.0413
3181.00,0.0411
3180.00,0.0408
3179.00,0.0406
3178.00,0.0404
3177.00,0.0402
3176.00,0.0400
3175.00,0.0398
3174.00,0.0396
3173.00,0.0394
3172.00,0.0392
3171.00,0.0389
3170.00,0.0387
3169.00,0.0385
3168.00,0.0383
3167.00,0.0381
3166.00,0.0379
3165.00,0.0377
3164.00,0.0375
3163.00,0.0373
3162.00,0.0371
3161.00,0.0370
3160.00,0.0368
3159.00,0.0366
3158.00,0.0364
3157.00,0.0362
3156.00,0.0360
3155.00,0.0357
3154.00,0.0355
3153.00,0.0353
3152.00,0.0352
3151.00,0.0351
3150.00,0.0350
3149.00,0.0349
3148.00,0.0347
3147.00,0.0346
3146.00,0.0344
3145.00,0.0342
3144.00,0.0341
3143.00,0.0339
3142.00,0.0338
3141.00,0.0336
3140.00,0.0335
3139.00,0.0333
3138.00,0.0332
3137.00,0.0332
3136.00,0.0331
3135.00,0.0330
3134.00,0.0329
3133.00,0.0328
3132.00,0.0327
3131.00,0.0326
3130.00,0.0325
3129.00,0.0324
3128.00,0.0323
3127.00,0.0323
3126.00,0.0322
3125.00,0.0321
3124.00,0.0320
3123.00,0.0318
3122.00,0.0317
3121.00,0.0316
3120.00,0.0316
3119.00,0.0316
3118.00,0.0316
3117.00,0.0315
3116.00,0.0316
3115.00,0.0316
3114.00,0.0317
3113.00,0.0317
3112.00,0.0317
3111.00,0.0317
3110.00,0.0317
3109.00,0.0318
3108.00,0.0318
3107.00,0.0319
3106.00,0.0320
3105.00,0.0320
3104.00,0.0320
3103.00,0.0321
3102.00,0.0321
3101.00,0.0321
3100.00,0.0322
3099.00,0.0323
3098.00,0.0324
3097.00,0.0324
3096.00,0.0325
3095.00,0.0325
3094.00,0.0325
3093.00,0.0325
3092.00,0.0326
3091.00,0.0326
3090.00,0.0327
3089.00,0.0327
3088.00,0.0327
3087.00,0.0327
3086.00,0.0327
3085.00,0.0327
3084.00,0.0328
3083.00,0.0328
3082.00,0.0328
3081.00,0.0328
3080.00,0.0328
3079.00,0.0328
3078.00,0.0328
3077.00,0.0328
3076.00,0.0329
3075.00,0.0329
3074.00,0.0329
3073.00,0.0328
3072.00,0.0328
3071.00,0.0327
3070.00,0.0326
3069.00,0.0325
3068.00,0.0323
3067.00,0.0323
3066.00,0.0322
3065.00,0.0322
3064.00,0.0321
3063.00,0.0320
3062.00,0.0319
3061.00,0.0318
3060.00,0.0316
3059.00,0.0314
3058.00,0.0312
3057.00,0.0311
3056.00,0.0309
3055.00,0.0307
3054.00,0.0305
3053.00,0.0303
3052.00,0.0301
3051.00,0.0300
3050.00,0.0298
3049.00,0.0297
3048.00,0.0295
3047.00,0.0293
3046.00,0.0291
3045.00,0.0289
3044.00,0.0287
3043.00,0.0285
3042.00,0.0284
3041.00,0.0283
3040.00,0.0282
3039.00,0.0281
3038.00,0.0280
3037.00,0.0278
3036.00,0.0276
3035.00,0.0274
3034.00,0.0273
3033.00,0.0272
3032.00,0.0271
3031.00,0.0270
3030.00,0.0269
3029.00,0.0268
3028.00,0.0266
3027.00,0.0264
3026.00,0.0262
3025.00,0.0261
3024.00,0.0259
3023.00,0.0258
3022.00,0.0257
3021.00,0.0255
3020.00,0.0253
3019.00,0.0252
3018.00,0.0250
3017.00,0.0248
3016.00,0.0247
3015.00,0.0246
3014.00,0.0245
3013.00,0.0244
3012.00,0.0244
3011.00,0.0244
3010.00,0.0243
3009.00,0.0243
3008.00,0.0243
3007.00,0.0243
3006.00,0.0242
3005.00,0.0242
3004.00,0.0242
3003.00,0.0241
3002.00,0.0241
3001.00,0.0241
3000.00,0.0241
2999.00,0.0242
2998.00,0.0242
2997.00,0.0243
2996.00,0.0244
2995.00,0.0245
2994.00,0.0247
2993.00,0.0248
2992.00,0.0250
2991.00,0.0253
2990.00,0.0256
2989.00,0.0258
2988.00,0.0261
2987.00,0.0264
2986.00,0.0267
2985.00,0.0270
2984.00,0.0273
2983.00,0.0276
2982.00,0.0280
2981.00,0.0284
2980.00,0.0288
2979.00,0.0292
2978.00,0.0297
2977.00,0.0302
2976.00,0.0306
2975.00,0.0311
2974.00,0.0315
2973.00,0.0320
2972.00,0.0324
2971.00,0.0328
2970.00,0.0333
2969.00,0.0337
2968.00,0.0341
2967.00,0.0344
2966.00,0.0347
2965.00,0.0350
2964.00,0.0352
2963.00,0.0354
2962.00,0.0354
2961.00,0.0355
2960.00,0.0355
2959.00,0.0354
2958.00,0.0352
2957.00,0.0351
2956.00,0.0348
2955.00,0.0346
2954.00,0.0343
2953.00,0.0341
2952.00,0.0339
2951.00,0.0336
2950.00,0.0334
2949.00,0.0333
2948.00,0.0332
2947.00,0.0332
2946.00,0.0332
2945.00,0.0334
2944.00,0.0336
2943.00,0.0338
2942.00,0.0341
2941.00,0.0344
2940.00,0.0347
2939.00,0.0350
2938.00,0.0353
2937.00,0.0355
2936.00,0.0358
2935.00,0.0360
2934.00,0.0362
2933.00,0.0363
2932.00,0.0364
2931.00,0.0365
2930.00,0.0365
2929.00,0.0364
2928.00,0.0364
2927.00,0.0363
2926.00,0.0361
2925.00,0.0359
2924.00,0.0357
2923.00,0.0354
2922.00,0.0351
2921.00,0.0347
2920.00,0.0343
2919.00,0.0339
2918.00,0.0335
2917.00,0.0330
2916.00,0.0325
2915.00,0.0321
2914.00,0.0316
2913.00,0.0312
2912.00,0.0307
2911.00,0.0303
2910.00,0.0300
2909.00,0.0296
2908.00,0.0293
2907.00,0.0290
2906.00,0.0287
2905.00,0.0284
2904.00,0.0281
2903.00,0.0278
2902.00,0.0276
2901.00,0.0274
2900.00,0.0271
2899.00,0.0269
2898.00,0.0267
2897.00,0.0265
2896.00,0.0263
2895.00,0.0262
2894.00,0.0260
2893.00,0.0259
2892.00,0.0258
2891.00,0.0257
2890.00,0.0256
2889.00,0.0255
2888.00,0.0255
2887.00,0.0255
2886.00,0.0255
2885.00,0.0255
2884.00,0.0256
2883.00,0.0257
2882.00,0.0259
2881.00,0.0261
2880.00,0.0262
2879.00,0.0263
2878.00,0.0265
2877.00,0.0265
2876.00,0.0266
2875.00,0.0266
2874.00,0.0265
2873.00,0.0264
2872.00,0.0263
2871.00,0.0261
2870.00,0.0258
2869.00,0.0256
2868.00,0.0253
2867.00,0.0249
2866.00,0.0246
2865.00,0.0244
2864.00,0.0241
2863.00,0.0239
2862.00,0.0237
2861.00,0.0235
2860.00,0.0234
2859.00,0.0233
2858.00,0.0232
2857.00,0.0231
2856.00,0.0230
2855.00,0.0228
2854.00,0.0227
2853.00,0.0224
2852.00,0.0222
2851.00,0.0219
2850.00,0.0215
2849.00,0.0212
2848.00,0.0208
2847.00,0.0204
2846.00,0.0201
2845.00,0.0197
2844.00,0.0194
2843.00,0.0192
2842.00,0.0189
2841.00,0.0187
2840.00,0.0185
2839.00,0.0183
2838.00,0.0182
2837.00,0.0180
2836.00,0.0179
2835.00,0.0178
2834.00,0.0177
2833.00,0.0176
2832.00,0.0175
2831.00,0.0174
2830.00,0.0173
2829.00,0.0172
2828.00,0.0172
2827.00,0.0171
2826.00,0.0170
2825.00,0.0169
2824.00,0.0168
2823.00,0.0168
2822.00,0.0167
2821.00,0.0166
2820.00,0.0166
2819.00,0.0165
2818.00,0.0165
2817.00,0.0164
2816.00,0.0164
2815.00,0.0163
2814.00,0.0163
2813.00,0.0162
2812.00,0.0161
2811.00,0.0161
2810.00,0.0160
2809.00,0.0159
2808.00,0.0159
2807.00,0.0159
2806.00,0.0158
2805.00,0.0157
2804.00,0.0157
2803.00,0.0156
2802.00,0.0156
2801.00,0.0155
2800.00,0.0154
2799.00,0.0154
2798.00,0.0153
2797.00,0.0153
2796.00,0.0152
2795.00,0.0152
2794.00,0.0151
2793.00,0.0150
2792.00,0.0150
2791.00,0.0149
2790.00,0.0148
2789.00,0.0148
2788.00,0.0148
2787.00,0.0147
2786.00,0.0147
2785.00,0.0147
2784.00,0.0146
2783.00,0.0146
2782.00,0.0145
2781.00,0.0145
2780.00,0.0144
2779.00,0.0143
2778.00,0.0143
2777.00,0.0142
2776.00,0.0141
2775.00,0.0141
2774.00,0.0140
2773.00,0.0140
2772.00,0.0140
2771.00,0.0140
2770.00,0.0139
2769.00,0.0139
2768.00,0.0138
2767.00,0.0137
2766.00,0.0137
2765.00,0.0136
2764.00,0.0135
2763.00,0.0135
2762.00,0.0134
2761.00,0.0134
2760.00,0.0133
2759.00,0.0133
2758.00,0.0132
2757.00,0.0132
2756.00,0.0131
2755.00,0.0131
2754.00,0.0130
2753.00,0.0130
2752.00,0.0129
2751.00,0.0129
2750.00,0.0129
2749.00,0.0128
2748.00,0.0128
2747.00,0.0127
2746.00,0.0127
2745.00,0.0126
2744.00,0.0126
2743.00,0.0125
2742.00,0.0125
2741.00,0.0125
2740.00,0.0124
2739.00,0.0124
2738.00,0.0123
2737.00,0.0123
2736.00,0.0122
2735.00,0.0122
2734.00,0.0121
2733.00,0.0121
2732.00,0.0121
2731.00,0.0120
2730.00,0.0119
2729.00,0.0119
2728.00,0.0118
2727.00,0.0117
2726.00,0.0117
2725.00,0.0117
2724.00,0.0116
2723.00,0.0116
2722.00,0.0115
2721.00,0.0115
2720.00,0.0114
2719.00,0.0114
2718.00,0.0113
2717.00,0.0113
2716.00,0.0112
2715.00,0.0112
2714.00,0.0111
2713.00,0.0111
2712.00,0.0110
2711.00,0.0110
2710.00,0.0109
2709.00,0.0109
2708.00,0.0109
2707.00,0.0108
2706.00,0.0108
2705.00,0.0108
2704.00,0.0107
2703.00,0.0107
2702.00,0.0107
2701.00,0.0106
2700.00,0.0106
2699.00,0.0106
2698.00,0.0106
2697.00,0.0105
2696.00,0.0105
2695.00,0.0105
2694.00,0.0105
2693.00,0.0105
2692.00,0.0105
2691.00,0.0104
2690.00,0.0104
2689.00,0.0104
2688.00,0.0104
2687.00,0.0103
2686.00,0.0103
2685.00,0.0103
2684.00,0.0103
2683.00,0.0103
2682.00,0.0102
2681.00,0.0102
2680.00,0.0102
2679.00,0.0102
2678.00,0.0102
2677.00,0.0102
2676.00,0.0102
2675.00,0.0101
2674.00,0.0101
2673.00,0.0101
2672.00,0.0101
2671.00,0.0100
2670.00,0.0100
2669.00,0.0100
2668.00,0.0100
2667.00,0.0101
2666.00,0.0101
2665.00,0.0101
2664.00,0.0101
2663.00,0.0102
2662.00,0.0102
2661.00,0.0102
2660.00,0.0102
2659.00,0.0102
2658.00,0.0102
2657.00,0.0102
2656.00,0.0102
2655.00,0.0102
2654.00,0.0102
2653.00,0.0102
2652.00,0.0102
2651.00,0.0102
2650.00,0.0102
2649.00,0.0101
2648.00,0.0101
2647.00,0.0101
2646.00,0.0101
2645.00,0.0100
2644.00,0.0100
2643.00,0.0100
2642.00,0.0099
2641.00,0.0099
2640.00,0.0099
2639.00,0.0099
2638.00,0.0099
2637.00,0.0099
2636.00,0.0099
2635.00,0.0099
2634.00,0.0099
2633.00,0.0098
2632.00,0.0098
2631.00,0.0098
2630.00,0.0097
2629.00,0.0097
2628.00,0.0097
2627.00,0.0097
2626.00,0.0096
2625.00,0.0096
2624.00,0.0096
2623.00,0.0095
2622.00,0.0095
2621.00,0.0094
2620.00,0.0094
2619.00,0.0094
2618.00,0.0094
2617.00,0.0094
2616.00,0.0093
2615.00,0.0093
2614.00,0.0093
2613.00,0.0092
2612.00,0.0092
2611.00,0.0092
2610.00,0.0092
2609.00,0.0091
2608.00,0.0091
2607.00,0.0090
2606.00,0.0090
2605.00,0.0090
2604.00,0.0089
2603.00,0.0089
2602.00,0.0089
2601.00,0.0089
2600.00,0.0089
2599.00,0.0089
2598.00,0.0088
2597.00,0.0088
2596.00,0.0087
2595.00,0.0087
2594.00,0.0086
2593.00,0.0086
2592.00,0.0085
2591.00,0.0085
2590.00,0.0084
2589.00,0.0084
2588.00,0.0084
2587.00,0.0084
2586.00,0.0084
2585.00,0.0084
2584.00,0.0084
2583.00,0.0084
2582.00,0.0083
2581.00,0.0083
2580.00,0.0082
2579.00,0.0082
2578.00,0.0081
2577.00,0.0081
2576.00,0.0081
2575.00,0.0081
2574.00,0.0080
2573.00,0.0080
2572.00,0.0080
2571.00,0.0079
2570.00,0.0079
2569.00,0.0079
2568.00,0.0079
2567.00,0.0079
2566.00,0.0078
2565.00,0.0078
2564.00,0.0078
2563.00,0.0078
2562.00,0.0078
2561.00,0.0078
2560.00,0.0078
2559.00,0.0078
2558.00,0.0077
2557.00,0.0077
2556.00,0.0076
2555.00,0.0076
2554.00,0.0076
2553.00,0.0075
2552.00,0.0075
2551.00,0.0075
2550.00,0.0075
2549.00,0.0074
2548.00,0.0074
2547.00,0.0074
2546.00,0.0074
2545.00,0.0074
2544.00,0.0074
2543.00,0.0074
2542.00,0.0074
2541.00,0.0074
2540.00,0.0074
2539.00,0.0073
2538.00,0.0073
2537.00,0.0072
2536.00,0.0072
2535.00,0.0072
2534.00,0.0072
2533.00,0.0072
2532.00,0.0072
2531.00,0.0072
2530.00,0.0072
2529.00,0.0071
2528.00,0.0071
2527.00,0.0070
2526.00,0.0070
2525.00,0.0070
2524.00,0.0070
2523.00,0.0070
2522.00,0.0070
2521.00,0.0070
2520.00,0.0070
2519.00,0.0070
2518.00,0.0070
2517.00,0.0070
2516.00,0.0069
2515.00,0.0069
2514.00,0.0069
2513.00,0.0068
2512.00,0.0068
2511.00,0.0068
2510.00,0.0068
2509.00,0.0068
2508.00,0.0068
2507.00,0.0068
2506.00,0.0067
2505.00,0.0067
2504.00,0.0067
2503.00,0.0067
2502.00,0.0067
2501.00,0.0067
2500.00,0.0066
2499.00,0.0066
2498.00,0.0066
2497.00,0.0066
2496.00,0.0066
2495.00,0.0065
2494.00,0.0065
2493.00,0.0065
2492.00,0.0065
2491.00,0.0064
2490.00,0.0064
2489.00,0.0064
2488.00,0.0064
2487.00,0.0064
2486.00,0.0063
2485.00,0.0063
2484.00,0.0063
2483.00,0.0063
2482.00,0.0063
2481.00,0.0062
2480.00,0.0062
2479.00,0.0062
2478.00,0.0062
2477.00,0.0062
2476.00,0.0062
2475.00,0.0061
2474.00,0.0061
2473.00,0.0061
2472.00,0.0061
2471.00,0.0061
2470.00,0.0061
2469.00,0.0061
2468.00,0.0061
2467.00,0.0061
2466.00,0.0061
2465.00,0.0060
2464.00,0.0060
2463.00,0.0060
2462.00,0.0060
2461.00,0.0060
2460.00,0.0060
2459.00,0.0061
2458.00,0.0061
2457.00,0.0061
2456.00,0.0060
2455.00,0.0060
2454.00,0.0060
2453.00,0.0060
2452.00,0.0060
2451.00,0.0060
2450.00,0.0059
2449.00,0.0059
2448.00,0.0059
2447.00,0.0058
2446.00,0.0057
2445.00,0.0057
2444.00,0.0056
2443.00,0.0056
2442.00,0.0055
2441.00,0.0055
2440.00,0.0055
2439.00,0.0055
2438.00,0.0055
2437.00,0.0054
2436.00,0.0054
2435.00,0.0053
2434.00,0.0053
2433.00,0.0053
2432.00,0.0053
2431.00,0.0053
2430.00,0.0053
2429.00,0.0053
2428.00,0.0053
2427.00,0.0053
2426.00,0.0052
2425.00,0.0051
2424.00,0.0051
2423.00,0.0050
2422.00,0.0050
2421.00,0.0050
2420.00,0.0050
2419.00,0.0050
2418.00,0.0050
2417.00,0.0050
2416.00,0.0050
2415.00,0.0049
2414.00,0.0049
2413.00,0.0050
2412.00,0.0050
2411.00,0.0049
2410.00,0.0049
2409.00,0.0048
2408.00,0.0047
2407.00,0.0047
2406.00,0.0046
2405.00,0.0046
2404.00,0.0046
2403.00,0.0046
2402.00,0.0045
2401.00,0.0045
2400.00,0.0045
2399.00,0.0045
2398.00,0.0045
2397.00,0.0045
2396.00,0.0045
2395.00,0.0044
2394.00,0.0044
2393.00,0.0044
2392.00,0.0044
2391.00,0.0044
2390.00,0.0044
2389.00,0.0044
2388.00,0.0044
2387.00,0.0043
2386.00,0.0043
2385.00,0.0042
2384.00,0.0042
2383.00,0.0041
2382.00,0.0040
2381.00,0.0040
2380.00,0.0040
2379.00,0.0040
2378.00,0.0040
2377.00,0.0040
2376.00,0.0040
2375.00,0.0040
2374.00,0.0039
2373.00,0.0039
2372.00,0.0039
2371.00,0.0038
2370.00,0.0038
2369.00,0.0038
2368.00,0.0037
2367.00,0.0038
2366.00,0.0038
2365.00,0.0038
2364.00,0.0038
2363.00,0.0039
2362.00,0.0039
2361.00,0.0039
2360.00,0.0039
2359.00,0.0039
2358.00,0.0038
2357.00,0.0038
2356.00,0.0038
2355.00,0.0038
2354.00,0.0038
2353.00,0.0038
2352.00,0.0038
2351.00,0.0038
2350.00,0.0038
2349.00,0.0038
2348.00,0.0039
2347.00,0.0041
2346.00,0.0043
2345.00,0.0044
2344.00,0.0044
2343.00,0.0042
2342.00,0.0041
2341.00,0.0041
2340.00,0.0041
2339.00,0.0041
2338.00,0.0041
2337.00,0.0041
2336.00,0.0042
2335.00,0.0042
2334.00,0.0041
2333.00,0.0041
2332.00,0.0041
2331.00,0.0040
2330.00,0.0041
2329.00,0.0042
2328.00,0.0046
2327.00,0.0050
2326.00,0.0053
2325.00,0.0054
2324.00,0.0053
2323.00,0.0051
2322.00,0.0048
2321.00,0.0046
2320.00,0.0045
2319.00,0.0044
2318.00,0.0043
2317.00,0.0042
2316.00,0.0042
2315.00,0.0043
2314.00,0.0042
2313.00,0.0042
2312.00,0.0042
2311.00,0.0041
2310.00,0.0040
2309.00,0.0040
2308.00,0.0040
2307.00,0.0040
2306.00,0.0040
2305.00,0.0041
2304.00,0.0042
2303.00,0.0042
2302.00,0.0042
2301.00,0.0042
2300.00,0.0042
2299.00,0.0043
2298.00,0.0043
2297.00,0.0044
2296.00,0.0045
2295.00,0.0045
2294.00,0.0046
2293.00,0.0047
2292.00,0.0048
2291.00,0.0049
2290.00,0.0050
2289.00,0.0051
2288.00,0.0051
2287.00,0.0051
2286.00,0.0051
2285.00,0.0050
2284.00,0.0049
2283.00,0.0049
2282.00,0.0048
2281.00,0.0048
2280.00,0.0048
2279.00,0.0048
2278.00,0.0048
2277.00,0.0047
2276.00,0.0047
2275.00,0.0047
2274.00,0.0046
2273.00,0.0045
2272.00,0.0044
2271.00,0.0043
2270.00,0.0042
2269.00,0.0041
2268.00,0.0041
2267.00,0.0040
2266.00,0.0039
2265.00,0.0039
2264.00,0.0040
2263.00,0.0040
2262.00,0.0041
2261.00,0.0041
2260.00,0.0041
2259.00,0.0042
2258.00,0.0041
2257.00,0.0040
2256.00,0.0039
2255.00,0.0038
2254.00,0.0037
2253.00,0.0037
2252.00,0.0037
2251.00,0.0038
2250.00,0.0038
2249.00,0.0038
2248.00,0.0038
2247.00,0.0038
2246.00,0.0039
2245.00,0.0039
2244.00,0.0039
2243.00,0.0039
2242.00,0.0038
2241.00,0.0038
2240.00,0.0038
2239.00,0.0038
2238.00,0.0037
2237.00,0.0036
2236.00,0.0037
2235.00,0.0037
2234.00,0.0038
2233.00,0.0039
2232.00,0.0039
2231.00,0.0040
2230.00,0.0039
2229.00,0.0039
2228.00,0.0038
2227.00,0.0037
2226.00,0.0036
2225.00,0.0036
2224.00,0.0037
2223.00,0.0037
2222.00,0.0037
2221.00,0.0036
2220.00,0.0036
2219.00,0.0036
2218.00,0.0037
2217.00,0.0038
2216.00,0.0039
2215.00,0.0040
2214.00,0.0040
2213.00,0.0039
2212.00,0.0038
2211.00,0.0037
2210.00,0.0036
2209.00,0.0035
2208.00,0.0035
2207.00,0.0035
2206.00,0.0036
2205.00,0.0036
2204.00,0.0037
2203.00,0.0037
2202.00,0.0037
2201.00,0.0037
2200.00,0.0038
2199.00,0.0039
2198.00,0.0039
2197.00,0.0039
2196.00,0.0040
2195.00,0.0041
2194.00,0.0040
2193.00,0.0040
2192.00,0.0040
2191.00,0.0041
2190.00,0.0041
2189.00,0.0042
2188.00,0.0042
2187.00,0.0040
2186.00,0.0039
2185.00,0.0037
2184.00,0.0035
2183.00,0.0033
2182.00,0.0032
2181.00,0.0033
2180.00,0.0035
2179.00,0.0035
2178.00,0.0033
2177.00,0.0030
2176.00,0.0029
2175.00,0.0029
2174.00,0.0030
2173.00,0.0034
2172.00,0.0038
2171.00,0.0042
2170.00,0.0044
2169.00,0.0046
2168.00,0.0046
2167.00,0.0045
2166.00,0.0044
2165.00,0.0045
2164.00,0.0047
2163.00,0.0047
2162.00,0.0040
2161.00,0.0026
2160.00,0.0009
2159.00,-0.0004
2158.00,-0.0010
2157.00,-0.0008
2156.00,-0.0002
2155.00,0.0003
2154.00,0.0007
2153.00,0.0011
2152.00,0.0014
2151.00,0.0015
2150.00,0.0014
2149.00,0.0013
2148.00,0.0012
2147.00,0.0012
2146.00,0.0012
2145.00,0.0014
2144.00,0.0015
2143.00,0.0015
2142.00,0.0016
2141.00,0.0017
2140.00,0.0018
2139.00,0.0018
2138.00,0.0017
2137.00,0.0014
2136.00,0.0012
2135.00,0.0010
2134.00,0.0010
2133.00,0.0011
2132.00,0.0013
2131.00,0.0015
2130.00,0.0018
2129.00,0.0021
2128.00,0.0023
2127.00,0.0025
2126.00,0.0027
2125.00,0.0028
2124.00,0.0029
2123.00,0.0029
2122.00,0.0030
2121.00,0.0030
2120.00,0.0031
2119.00,0.0031
2118.00,0.0032
2117.00,0.0033
2116.00,0.0034
2115.00,0.0034
2114.00,0.0034
2113.00,0.0035
2112.00,0.0036
2111.00,0.0036
2110.00,0.0035
2109.00,0.0035
2108.00,0.0034
2107.00,0.0034
2106.00,0.0034
2105.00,0.0034
2104.00,0.0034
2103.00,0.0034
2102.00,0.0034
2101.00,0.0034
2100.00,0.0033
2099.00,0.0032
2098.00,0.0030
2097.00,0.0029
2096.00,0.0029
2095.00,0.0030
2094.00,0.0030
2093.00,0.0031
2092.00,0.0032
2091.00,0.0033
2090.00,0.0033
2089.00,0.0034
2088.00,0.0035
2087.00,0.0035
2086.00,0.0036
2085.00,0.0036
2084.00,0.0037
2083.00,0.0037
2082.00,0.0038
2081.00,0.0038
2080.00,0.0038
2079.00,0.0038
2078.00,0.0037
2077.00,0.0036
2076.00,0.0036
2075.00,0.0035
2074.00,0.0034
2073.00,0.0034
2072.00,0.0034
2071.00,0.0034
2070.00,0.0034
2069.00,0.0034
2068.00,0.0035
2067.00,0.0034
2066.00,0.0033
2065.00,0.0033
2064.00,0.0033
2063.00,0.0034
2062.00,0.0033
2061.00,0.0033
2060.00,0.0034
2059.00,0.0034
2058.00,0.0033
2057.00,0.0032
2056.00,0.0032
2055.00,0.0034
2054.00,0.0037
2053.00,0.0042
2052.00,0.0045
2051.00,0.0044
2050.00,0.0040
2049.00,0.0037
2048.00,0.0034
2047.00,0.0033
2046.00,0.0032
2045.00,0.0032
2044.00,0.0033
2043.00,0.0034
2042.00,0.0034
2041.00,0.0034
2040.00,0.0034
2039.00,0.0034
2038.00,0.0033
2037.00,0.0032
2036.00,0.0032
2035.00,0.0030
2034.00,0.0028
2033.00,0.0027
2032.00,0.0026
2031.00,0.0025
2030.00,0.0024
2029.00,0.0023
2028.00,0.0024
2027.00,0.0024
2026.00,0.0023
2025.00,0.0022
2024.00,0.0021
2023.00,0.0021
2022.00,0.0021
2021.00,0.0021
2020.00,0.0023
2019.00,0.0023
2018.00,0.0023
2017.00,0.0021
2016.00,0.0021
2015.00,0.0021
2014.00,0.0022
2013.00,0.0024
2012.00,0.0026
2011.00,0.0027
2010.00,0.0025
2009.00,0.0021
2008.00,0.0018
2007.00,0.0015
2006.00,0.0013
2005.00,0.0013
2004.00,0.0014
2003.00,0.0015
2002.00,0.0017
2001.00,0.0019
2000.00,0.0022
1999.00,0.0023
1998.00,0.0024
1997.00,0.0026
1996.00,0.0028
1995.00,0.0029
1994.00,0.0029
1993.00,0.0028
1992.00,0.0028
1991.00,0.0029
1990.00,0.0029
1989.00,0.0030
1988.00,0.0030
1987.00,0.0031
1986.00,0.0033
1985.00,0.0035
1984.00,0.0038
1983.00,0.0040
1982.00,0.0041
1981.00,0.0041
1980.00,0.0038
1979.00,0.0032
1978.00,0.0025
1977.00,0.0020
1976.00,0.0018
1975.00,0.0016
1974.00,0.0015
1973.00,0.0015
1972.00,0.0016
1971.00,0.0016
1970.00,0.0016
1969.00,0.0016
1968.00,0.0017
1967.00,0.0018
1966.00,0.0019
1965.00,0.0020
1964.00,0.0020
1963.00,0.0019
1962.00,0.0017
1961.00,0.0015
1960.00,0.0013
1959.00,0.0013
1958.00,0.0013
1957.00,0.0014
1956.00,0.0017
1955.00,0.0019
1954.00,0.0020
1953.00,0.0020
1952.00,0.0020
1951.00,0.0020
1950.00,0.0019
1949.00,0.0019
1948.00,0.0019
1947.00,0.0020
1946.00,0.0020
1945.00,0.0020
1944.00,0.0020
1943.00,0.0021
1942.00,0.0021
1941.00,0.0021
1940.00,0.0022
1939.00,0.0023
1938.00,0.0023
1937.00,0.0023
1936.00,0.0024
1935.00,0.0023
1934.00,0.0023
1933.00,0.0023
1932.00,0.0023
1931.00,0.0023
1930.00,0.0023
1929.00,0.0023
1928.00,0.0024
1927.00,0.0024
1926.00,0.0024
1925.00,0.0024
1924.00,0.0024
1923.00,0.0025
1922.00,0.0026
1921.00,0.0027
1920.00,0.0027
1919.00,0.0027
1918.00,0.0026
1917.00,0.0026
1916.00,0.0027
1915.00,0.0027
1914.00,0.0027
1913.00,0.0027
1912.00,0.0028
1911.00,0.0028
1910.00,0.0028
1909.00,0.0028
1908.00,0.0029
1907.00,0.0029
1906.00,0.0029
1905.00,0.0028
1904.00,0.0028
1903.00,0.0028
1902.00,0.0027
1901.00,0.0028
1900.00,0.0029
1899.00,0.0029
1898.00,0.0029
1897.00,0.0029
1896.00,0.0029
1895.00,0.0030
1894.00,0.0030
1893.00,0.0030
1892.00,0.0030
1891.00,0.0030
1890.00,0.0029
1889.00,0.0029
1888.00,0.0030
1887.00,0.0030
1886.00,0.0030
1885.00,0.0030
1884.00,0.0031
1883.00,0.0032
1882.00,0.0032
1881.00,0.0031
1880.00,0.0031
1879.00,0.0031
1878.00,0.0031
1877.00,0.0030
1876.00,0.0031
1875.00,0.0031
1874.00,0.0031
1873.00,0.0032
1872.00,0.0032
1871.00,0.0031
1870.00,0.0029
1869.00,0.0029
1868.00,0.0029
1867.00,0.0029
1866.00,0.0030
1865.00,0.0030
1864.00,0.0031
1863.00,0.0032
1862.00,0.0032
1861.00,0.0032
1860.00,0.0032
1859.00,0.0032
1858.00,0.0032
1857.00,0.0033
1856.00,0.0033
1855.00,0.0033
1854.00,0.0033
1853.00,0.0033
1852.00,0.0033
1851.00,0.0033
1850.00,0.0032
1849.00,0.0033
1848.00,0.0033
1847.00,0.0033
1846.00,0.0032
1845.00,0.0031
1844.00,0.0032
1843.00,0.0033
1842.00,0.0033
1841.00,0.0033
1840.00,0.0033
1839.00,0.0034
1838.00,0.0034
1837.00,0.0034
1836.00,0.0034
1835.00,0.0034
1834.00,0.0034
1833.00,0.0034
1832.00,0.0034
1831.00,0.0034
1830.00,0.0033
1829.00,0.0034
1828.00,0.0035
1827.00,0.0035
1826.00,0.0035
1825.00,0.0034
1824.00,0.0035
1823.00,0.0036
1822.00,0.0036
1821.00,0.0037
1820.00,0.0037
1819.00,0.0036
1818.00,0.0035
1817.00,0.0035
1816.00,0.0036
1815.00,0.0037
1814.00,0.0038
1813.00,0.0038
1812.00,0.0039
1811.00,0.0039
1810.00,0.0040
1809.00,0.0040
1808.00,0.0041
1807.00,0.0041
1806.00,0.0042
1805.00,0.0043
1804.00,0.0043
1803.00,0.0043
1802.00,0.0042
1801.00,0.0042
1800.00,0.0043
1799.00,0.0043
1798.00,0.0044
1797.00,0.0044
1796.00,0.0045
1795.00,0.0046
1794.00,0.0046
1793.00,0.0046
1792.00,0.0046
1791.00,0.0047
1790.00,0.0048
1789.00,0.0048
1788.00,0.0049
1787.00,0.0050
1786.00,0.0050
1785.00,0.0050
1784.00,0.0051
1783.00,0.0052
1782.00,0.0052
1781.00,0.0052
1780.00,0.0053
1779.00,0.0054
1778.00,0.0054
1777.00,0.0054
1776.00,0.0055
1775.00,0.0055
1774.00,0.0056
1773.00,0.0057
1772.00,0.0059
1771.00,0.0060
1770.00,0.0060
1769.00,0.0060
1768.00,0.0061
1767.00,0.0063
1766.00,0.0065
1765.00,0.0067
1764.00,0.0068
1763.00,0.0069
1762.00,0.0070
1761.00,0.0073
1760.00,0.0075
1759.00,0.0077
1758.00,0.0078
1757.00,0.0081
1756.00,0.0084
1755.00,0.0087
1754.00,0.0089
1753.00,0.0091
1752.00,0.0095
1751.00,0.0099
1750.00,0.0103
1749.00,0.0106
1748.00,0.0109
1747.00,0.0113
1746.00,0.0117
1745.00,0.0120
1744.00,0.0125
1743.00,0.0129
1742.00,0.0133
1741.00,0.0137
1740.00,0.0143
1739.00,0.0149
1738.00,0.0153
1737.00,0.0156
1736.00,0.0160
1735.00,0.0167
1734.00,0.0176
1733.00,0.0185
1732.00,0.0192
1731.00,0.0194
1730.00,0.0196
1729.00,0.0200
1728.00,0.0205
1727.00,0.0209
1726.00,0.0213
1725.00,0.0218
1724.00,0.0223
1723.00,0.0227
1722.00,0.0231
1721.00,0.0233
1720.00,0.0235
1719.00,0.0239
1718.00,0.0245
1717.00,0.0253
1716.00,0.0262
1715.00,0.0266
1714.00,0.0269
1713.00,0.0272
1712.00,0.0277
1711.00,0.0284
1710.00,0.0291
1709.00,0.0299
1708.00,0.0308
1707.00,0.0319
1706.00,0.0332
1705.00,0.0349
1704.00,0.0365
1703.00,0.0379
1702.00,0.0396
1701.00,0.0427
1700.00,0.0468
1699.00,0.0502
1698.00,0.0525
1697.00,0.0546
1696.00,0.0573
1695.00,0.0599
1694.00,0.0614
1693.00,0.0620
1692.00,0.0626
1691.00,0.0635
1690.00,0.0647
1689.00,0.0661
1688.00,0.0672
1687.00,0.0683
1686.00,0.0697
1685.00,0.0721
1684.00,0.0753
1683.00,0.0777
1682.00,0.0790
1681.00,0.0800
1680.00,0.0814
1679.00,0.0830
1678.00,0.0845
1677.00,0.0860
1676.00,0.0880
1675.00,0.0904
1674.00,0.0923
1673.00,0.0938
1672.00,0.0952
1671.00,0.0970
1670.00,0.0994
1669.00,0.1020
1668.00,0.1043
1667.00,0.1060
1666.00,0.1074
1665.00,0.1090
1664.00,0.1110
1663.00,0.1136
1662.00,0.1160
1661.00,0.1181
1660.00,0.1200
1659.00,0.1218
1658.00,0.1233
1657.00,0.1245
1656.00,0.1255
1655.00,0.1270
1654.00,0.1298
1653.00,0.1338
1652.00,0.1365
1651.00,0.1371
1650.00,0.1367
1649.00,0.1364
1648.00,0.1372
1647.00,0.1389
1646.00,0.1406
1645.00,0.1417
1644.00,0.1423
1643.00,0.1429
1642.00,0.1435
1641.00,0.1444
1640.00,0.1453
1639.00,0.1461
1638.00,0.1471
1637.00,0.1488
1636.00,0.1518
1635.00,0.1549
1634.00,0.1572
1633.00,0.1587
1632.00,0.1603
1631.00,0.1622
1630.00,0.1645
1629.00,0.1672
1628.00,0.1701
1627.00,0.1727
1626.00,0.1748
1625.00,0.1767
1624.00,0.1788
1623.00,0.1808
1622.00,0.1818
1621.00,0.1816
1620.00,0.1809
1619.00,0.1799
1618.00,0.1786
1617.00,0.1766
1616.00,0.1736
1615.00,0.1699
1614.00,0.1656
1613.00,0.1609
1612.00,0.1562
1611.00,0.1513
1610.00,0.1462
1609.00,0.1408
1608.00,0.1355
1607.00,0.1304
1606.00,0.1256
1605.00,0.1210
1604.00,0.1167
1603.00,0.1126
1602.00,0.1088
1601.00,0.1052
1600.00,0.1019
1599.00,0.0988
1598.00,0.0961
1597.00,0.0936
1596.00,0.0911
1595.00,0.0889
1594.00,0.0870
1593.00,0.0851
1592.00,0.0833
1591.00,0.0817
1590.00,0.0803
1589.00,0.0791
1588.00,0.0780
1587.00,0.0771
1586.00,0.0764
1585.00,0.0759
1584.00,0.0755
1583.00,0.0753
1582.00,0.0753
1581.00,0.0753
1580.00,0.0753
1579.00,0.0754
1578.00,0.0759
1577.00,0.0771
1576.00,0.0787
1575.00,0.0802
1574.00,0.0810
1573.00,0.0813
1572.00,0.0816
1571.00,0.0826
1570.00,0.0843
1569.00,0.0863
1568.00,0.0879
1567.00,0.0892
1566.00,0.0907
1565.00,0.0924
1564.00,0.0940
1563.00,0.0952
1562.00,0.0961
1561.00,0.0973
1560.00,0.0998
1559.00,0.1038
1558.00,0.1075
1557.00,0.1092
1556.00,0.1102
1555.00,0.1118
1554.00,0.1139
1553.00,0.1160
1552.00,0.1178
1551.00,0.1195
1550.00,0.1215
1549.00,0.1235
1548.00,0.1251
1547.00,0.1264
1546.00,0.1278
1545.00,0.1295
1544.00,0.1310
1543.00,0.1323
1542.00,0.1337
1541.00,0.1360
1540.00,0.1390
1539.00,0.1417
1538.00,0.1430
1537.00,0.1433
1536.00,0.1432
1535.00,0.1437
1534.00,0.1452
1533.00,0.1468
1532.00,0.1479
1531.00,0.1484
1530.00,0.1488
1529.00,0.1493
1528.00,0.1499
1527.00,0.1504
1526.00,0.1509
1525.00,0.1511
1524.00,0.1510
1523.00,0.1511
1522.00,0.1518
1521.00,0.1526
1520.00,0.1528
1519.00,0.1524
1518.00,0.1520
1517.00,0.1519
1516.00,0.1515
1515.00,0.1505
1514.00,0.1490
1513.00,0.1471
1512.00,0.1448
1511.00,0.1422
1510.00,0.1395
1509.00,0.1367
1508.00,0.1340
1507.00,0.1312
1506.00,0.1282
1505.00,0.1250
1504.00,0.1220
1503.00,0.1192
1502.00,0.1163
1501.00,0.1135
1500.00,0.1107
1499.00,0.1080
1498.00,0.1053
1497.00,0.1026
1496.00,0.0999
1495.00,0.0973
1494.00,0.0947
1493.00,0.0919
1492.00,0.0892
1491.00,0.0866
1490.00,0.0840
1489.00,0.0816
1488.00,0.0794
1487.00,0.0775
1486.00,0.0757
1485.00,0.0741
1484.00,0.0726
1483.00,0.0713
1482.00,0.0702
1481.00,0.0692
1480.00,0.0684
1479.00,0.0678
1478.00,0.0673
1477.00,0.0671
1476.00,0.0670
1475.00,0.0673
1474.00,0.0679
1473.00,0.0691
1472.00,0.0705
1471.00,0.0716
1470.00,0.0722
1469.00,0.0724
1468.00,0.0726
1467.00,0.0728
1466.00,0.0730
1465.00,0.0733
1464.00,0.0737
1463.00,0.0740
1462.00,0.0741
1461.00,0.0742
1460.00,0.0743
1459.00,0.0748
1458.00,0.0759
1457.00,0.0777
1456.00,0.0792
1455.00,0.0800
1454.00,0.0801
1453.00,0.0801
1452.00,0.0802
1451.00,0.0803
1450.00,0.0803
1449.00,0.0802
1448.00,0.0802
1447.00,0.0801
1446.00,0.0799
1445.00,0.0796
1444.00,0.0793
1443.00,0.0790
1442.00,0.0786
1441.00,0.0782
1440.00,0.0776
1439.00,0.0770
1438.00,0.0763
1437.00,0.0756
1436.00,0.0748
1435.00,0.0739
1434.00,0.0729
1433.00,0.0720
1432.00,0.0711
1431.00,0.0703
1430.00,0.0696
1429.00,0.0691
1428.00,0.0686
1427.00,0.0683
1426.00,0.0681
1425.00,0.0681
1424.00,0.0683
1423.00,0.0686
1422.00,0.0687
1421.00,0.0690
1420.00,0.0696
1419.00,0.0705
1418.00,0.0715
1417.00,0.0722
1416.00,0.0727
1415.00,0.0733
1414.00,0.0740
1413.00,0.0747
1412.00,0.0753
1411.00,0.0759
1410.00,0.0765
1409.00,0.0769
1408.00,0.0772
1407.00,0.0775
1406.00,0.0778
1405.00,0.0782
1404.00,0.0785
1403.00,0.0787
1402.00,0.0788
1401.00,0.0788
1400.00,0.0789
1399.00,0.0791
1398.00,0.0792
1397.00,0.0793
1396.00,0.0794
1395.00,0.0797
1394.00,0.0800
1393.00,0.0802
1392.00,0.0803
1391.00,0.0803
1390.00,0.0803
1389.00,0.0803
1388.00,0.0802
1387.00,0.0800
1386.00,0.0795
1385.00,0.0789
1384.00,0.0782
1383.00,0.0774
1382.00,0.0766
1381.00,0.0758
1380.00,0.0751
1379.00,0.0744
1378.00,0.0737
1377.00,0.0730
1376.00,0.0724
1375.00,0.0720
1374.00,0.0717
1373.00,0.0714
1372.00,0.0712
1371.00,0.0710
1370.00,0.0708
1369.00,0.0704
1368.00,0.0699
1367.00,0.0693
1366.00,0.0685
1365.00,0.0676
1364.00,0.0668
1363.00,0.0660
1362.00,0.0654
1361.00,0.0650
1360.00,0.0645
1359.00,0.0642
1358.00,0.0639
1357.00,0.0636
1356.00,0.0634
1355.00,0.0632
1354.00,0.0630
1353.00,0.0628
1352.00,0.0627
1351.00,0.0626
1350.00,0.0625
1349.00,0.0624
1348.00,0.0623
1347.00,0.0623
1346.00,0.0623
1345.00,0.0622
1344.00,0.0621
1343.00,0.0620
1342.00,0.0620
1341.00,0.0618
1340.00,0.0617
1339.00,0.0617
1338.00,0.0616
1337.00,0.0615
1336.00,0.0614
1335.00,0.0612
1334.00,0.0610
1333.00,0.0608
1332.00,0.0607
1331.00,0.0605
1330.00,0.0605
1329.00,0.0604
1328.00,0.0604
1327.00,0.0604
1326.00,0.0604
1325.00,0.0604
1324.00,0.0605
1323.00,0.0606
1322.00,0.0607
1321.00,0.0608
1320.00,0.0610
1319.00,0.0611
1318.00,0.0613
1317.00,0.0614
1316.00,0.0615
1315.00,0.0616
1314.00,0.0617
1313.00,0.0617
1312.00,0.0617
1311.00,0.0617
1310.00,0.0617
1309.00,0.0617
1308.00,0.0617
1307.00,0.0617
1306.00,0.0616
1305.00,0.0616
1304.00,0.0616
1303.00,0.0616
1302.00,0.0616
1301.00,0.0617
1300.00,0.0618
1299.00,0.0619
1298.00,0.0621
1297.00,0.0623
1296.00,0.0625
1295.00,0.0628
1294.00,0.0631
1293.00,0.0634
1292.00,0.0637
1291.00,0.0640
1290.00,0.0643
1289.00,0.0646
1288.00,0.0648
1287.00,0.0651
1286.00,0.0654
1285.00,0.0657
1284.00,0.0659
1283.00,0.0662
1282.00,0.0664
1281.00,0.0667
1280.00,0.0669
1279.00,0.0670
1278.00,0.0671
1277.00,0.0672
1276.00,0.0673
1275.00,0.0673
1274.00,0.0674
1273.00,0.0675
1272.00,0.0676
1271.00,0.0678
1270.00,0.0681
1269.00,0.0684
1268.00,0.0687
1267.00,0.0691
1266.00,0.0695
1265.00,0.0700
1264.00,0.0705
1263.00,0.0711
1262.00,0.0717
1261.00,0.0723
1260.00,0.0730
1259.00,0.0736
1258.00,0.0743
1257.00,0.0749
1256.00,0.0756
1255.00,0.0762
1254.00,0.0769
1253.00,0.0776
1252.00,0.0782
1251.00,0.0789
1250.00,0.0796
1249.00,0.0803
1248.00,0.0810
1247.00,0.0816
1246.00,0.0823
1245.00,0.0830
1244.00,0.0836
1243.00,0.0843
1242.00,0.0850
1241.00,0.0856
1240.00,0.0861
1239.00,0.0867
1238.00,0.0872
1237.00,0.0877
1236.00,0.0881
1235.00,0.0885
1234.00,0.0888
1233.00,0.0891
1232.00,0.0892
1231.00,0.0894
1230.00,0.0894
1229.00,0.0894
1228.00,0.0894
1227.00,0.0892
1226.00,0.0891
1225.00,0.0888
1224.00,0.0886
1223.00,0.0882
1222.00,0.0879
1221.00,0.0874
1220.00,0.0869
1219.00,0.0864
1218.00,0.0858
1217.00,0.0851
1216.00,0.0844
1215.00,0.0836
1214.00,0.0828
1213.00,0.0820
1212.00,0.0811
1211.00,0.0803
1210.00,0.0794
1209.00,0.0785
1208.00,0.0777
1207.00,0.0769
1206.00,0.0761
1205.00,0.0754
1204.00,0.0746
1203.00,0.0739
1202.00,0.0733
1201.00,0.0726
1200.00,0.0720
1199.00,0.0714
1198.00,0.0709
1197.00,0.0704
1196.00,0.0699
1195.00,0.0695
1194.00,0.0691
1193.00,0.0687
1192.00,0.0683
1191.00,0.0680
1190.00,0.0677
1189.00,0.0674
1188.00,0.0671
1187.00,0.0669
1186.00,0.0668
1185.00,0.0666
1184.00,0.0665
1183.00,0.0664
1182.00,0.0665
1181.00,0.0665
1180.00,0.0667
1179.00,0.0669
1178.00,0.0672
1177.00,0.0675
1176.00,0.0679
1175.00,0.0684
1174.00,0.0689
1173.00,0.0693
1172.00,0.0697
1171.00,0.0699
1170.00,0.0702
1169.00,0.0703
1168.00,0.0705
1167.00,0.0707
1166.00,0.0709
1165.00,0.0712
1164.00,0.0714
1163.00,0.0718
1162.00,0.0721
1161.00,0.0725
1160.00,0.0728
1159.00,0.0731
1158.00,0.0734
1157.00,0.0735
1156.00,0.0735
1155.00,0.0735
1154.00,0.0733
1153.00,0.0730
1152.00,0.0726
1151.00,0.0721
1150.00,0.0716
1149.00,0.0709
1148.00,0.0703
1147.00,0.0696
1146.00,0.0689
1145.00,0.0682
1144.00,0.0674
1143.00,0.0667
1142.00,0.0661
1141.00,0.0655
1140.00,0.0650
1139.00,0.0646
1138.00,0.0643
1137.00,0.0641
1136.00,0.0639
1135.00,0.0637
1134.00,0.0637
1133.00,0.0638
1132.00,0.0639
1131.00,0.0641
1130.00,0.0644
1129.00,0.0646
1128.00,0.0649
1127.00,0.0652
1126.00,0.0655
1125.00,0.0658
1124.00,0.0660
1123.00,0.0662
1122.00,0.0664
1121.00,0.0667
1120.00,0.0668
1119.00,0.0670
1118.00,0.0673
1117.00,0.0675
1116.00,0.0677
1115.00,0.0679
1114.00,0.0681
1113.00,0.0682
1112.00,0.0683
1111.00,0.0685
1110.00,0.0687
1109.00,0.0689
1108.00,0.0691
1107.00,0.0694
1106.00,0.0697
1105.00,0.0700
1104.00,0.0703
1103.00,0.0706
1102.00,0.0709
1101.00,0.0712
1100.00,0.0714
1099.00,0.0717
1098.00,0.0721
1097.00,0.0726
1096.00,0.0730
1095.00,0.0736
1094.00,0.0743
1093.00,0.0751
1092.00,0.0759
1091.00,0.0768
1090.00,0.0779
1089.00,0.0790
1088.00,0.0801
1087.00,0.0812
1086.00,0.0825
1085.00,0.0836
1084.00,0.0848
1083.00,0.0858
1082.00,0.0869
1081.00,0.0878
1080.00,0.0885
1079.00,0.0891
1078.00,0.0895
1077.00,0.0898
1076.00,0.0898
1075.00,0.0898
1074.00,0.0897
1073.00,0.0895
1072.00,0.0893
1071.00,0.0892
1070.00,0.0891
1069.00,0.0891
1068.00,0.0893
1067.00,0.0896
1066.00,0.0900
1065.00,0.0904
1064.00,0.0909
1063.00,0.0914
1062.00,0.0920
1061.00,0.0925
1060.00,0.0930
1059.00,0.0935
1058.00,0.0940
1057.00,0.0943
1056.00,0.0945
1055.00,0.0946
1054.00,0.0947
1053.00,0.0947
1052.00,0.0946
1051.00,0.0945
1050.00,0.0944
1049.00,0.0943
1048.00,0.0941
1047.00,0.0939
1046.00,0.0937
1045.00,0.0934
1044.00,0.0932
1043.00,0.0929
1042.00,0.0927
1041.00,0.0924
1040.00,0.0920
1039.00,0.0917
1038.00,0.0914
1037.00,0.0912
1036.00,0.0909
1035.00,0.0906
1034.00,0.0905
1033.00,0.0905
1032.00,0.0904
1031.00,0.0903
1030.00,0.0902
1029.00,0.0900
1028.00,0.0897
1027.00,0.0894
1026.00,0.0891
1025.00,0.0887
1024.00,0.0882
1023.00,0.0876
1022.00,0.0869
1021.00,0.0862
1020.00,0.0854
1019.00,0.0845
1018.00,0.0837
1017.00,0.0827
1016.00,0.0818
1015.00,0.0808
1014.00,0.0799
1013.00,0.0789
1012.00,0.0780
1011.00,0.0770
1010.00,0.0761
1009.00,0.0752
1008.00,0.0743
1007.00,0.0734
1006.00,0.0726
1005.00,0.0718
1004.00,0.0711
1003.00,0.0703
1002.00,0.0695
1001.00,0.0687
1000.00,0.0678
999.00,0.0670
998.00,0.0662
997.00,0.0653
996.00,0.0644
995.00,0.0634
994.00,0.0624
993.00,0.0614
992.00,0.0604
991.00,0.0593
990.00,0.0584
989.00,0.0574
988.00,0.0565
987.00,0.0557
986.00,0.0549
985.00,0.0542
984.00,0.0535
983.00,0.0530
982.00,0.0525
981.00,0.0522
980.00,0.0518
979.00,0.0516
978.00,0.0515
977.00,0.0515
976.00,0.0515
975.00,0.0516
974.00,0.0517
973.00,0.0518
972.00,0.0518
971.00,0.0519
970.00,0.0520
969.00,0.0521
968.00,0.0521
967.00,0.0521
966.00,0.0521
965.00,0.0521
964.00,0.0520
963.00,0.0519
962.00,0.0518
961.00,0.0517
960.00,0.0515
959.00,0.0514
958.00,0.0513
957.00,0.0511
956.00,0.0509
955.00,0.0508
954.00,0.0507
953.00,0.0506
952.00,0.0505
951.00,0.0504
950.00,0.0504
949.00,0.0504
948.00,0.0505
947.00,0.0506
946.00,0.0507
945.00,0.0509
944.00,0.0511
943.00,0.0512
942.00,0.0515
941.00,0.0517
940.00,0.0520
939.00,0.0522
938.00,0.0525
937.00,0.0527
936.00,0.0529
935.00,0.0530
934.00,0.0532
933.00,0.0533
932.00,0.0534
931.00,0.0535
930.00,0.0535
929.00,0.0535
928.00,0.0534
927.00,0.0533
926.00,0.0532
925.00,0.0531
924.00,0.0529
923.00,0.0527
922.00,0.0525
921.00,0.0523
920.00,0.0520
919.00,0.0518
918.00,0.0517
917.00,0.0515
916.00,0.0512
915.00,0.0509
914.00,0.0507
913.00,0.0505
912.00,0.0502
911.00,0.0500
910.00,0.0499
909.00,0.0497
908.00,0.0495
907.00,0.0494
906.00,0.0493
905.00,0.0492
904.00,0.0490
903.00,0.0489
902.00,0.0487
901.00,0.0486
900.00,0.0484
899.00,0.0483
898.00,0.0483
897.00,0.0482
896.00,0.0481
895.00,0.0480
894.00,0.0479
893.00,0.0479
892.00,0.0478
891.00,0.0477
890.00,0.0477
889.00,0.0476
888.00,0.0475
887.00,0.0474
886.00,0.0474
885.00,0.0474
884.00,0.0473
883.00,0.0472
882.00,0.0472
881.00,0.0472
880.00,0.0471
879.00,0.0471
878.00,0.0471
877.00,0.0470
876.00,0.0470
875.00,0.0469
874.00,0.0469
873.00,0.0468
872.00,0.0467
871.00,0.0467
870.00,0.0467
869.00,0.0468
868.00,0.0469
867.00,0.0469
866.00,0.0471
865.00,0.0472
864.00,0.0474
863.00,0.0476
862.00,0.0478
861.00,0.0481
860.00,0.0483
859.00,0.0486
858.00,0.0489
857.00,0.0493
856.00,0.0496
855.00,0.0499
854.00,0.0502
853.00,0.0505
852.00,0.0507
851.00,0.0508
850.00,0.0510
849.00,0.0510
848.00,0.0510
847.00,0.0510
846.00,0.0511
845.00,0.0512
844.00,0.0513
843.00,0.0515
842.00,0.0518
841.00,0.0521
840.00,0.0524
839.00,0.0527
838.00,0.0531
837.00,0.0534
836.00,0.0538
835.00,0.0542
834.00,0.0547
833.00,0.0552
832.00,0.0556
831.00,0.0559
830.00,0.0563
829.00,0.0566
828.00,0.0569
827.00,0.0571
826.00,0.0573
825.00,0.0575
824.00,0.0576
823.00,0.0576
822.00,0.0577
821.00,0.0578
820.00,0.0580
819.00,0.0582
818.00,0.0585
817.00,0.0587
816.00,0.0590
815.00,0.0592
814.00,0.0596
813.00,0.0599
812.00,0.0602
811.00,0.0605
810.00,0.0609
809.00,0.0612
808.00,0.0615
807.00,0.0617
806.00,0.0621
805.00,0.0625
804.00,0.0628
803.00,0.0631
802.00,0.0636
801.00,0.0640
800.00,0.0644
799.00,0.0648
798.00,0.0654
797.00,0.0659
796.00,0.0663
795.00,0.0667
794.00,0.0673
793.00,0.0679
792.00,0.0685
791.00,0.0691
790.00,0.0699
789.00,0.0706
788.00,0.0713
787.00,0.0720
786.00,0.0728
785.00,0.0734
784.00,0.0739
783.00,0.0743
782.00,0.0748
781.00,0.0751
780.00,0.0754
779.00,0.0756
778.00,0.0759
777.00,0.0762
776.00,0.0763
775.00,0.0765
774.00,0.0767
773.00,0.0769
772.00,0.0771
771.00,0.0773
770.00,0.0776
769.00,0.0778
768.00,0.0780
767.00,0.0782
766.00,0.0785
765.00,0.0787
764.00,0.0789
763.00,0.0792
762.00,0.0795
761.00,0.0798
760.00,0.0801
759.00,0.0805
758.00,0.0809
757.00,0.0813
756.00,0.0816
755.00,0.0820
754.00,0.0825
753.00,0.0830
752.00,0.0834
751.00,0.0839
750.00,0.0845
749.00,0.0851
748.00,0.0856
747.00,0.0862
746.00,0.0867
745.00,0.0871
744.00,0.0875
743.00,0.0879
742.00,0.0884
741.00,0.0888
740.00,0.0891
739.00,0.0894
738.00,0.0898
737.00,0.0903
736.00,0.0907
735.00,0.0912
734.00,0.0919
733.00,0.0926
732.00,0.0932
731.00,0.0940
730.00,0.0948
729.00,0.0958
728.00,0.0967
727.00,0.0978
726.00,0.0990
725.00,0.1002
724.00,0.1013
723.00,0.1025
722.00,0.1037
721.00,0.1048
720.00,0.1058
719.00,0.1069
718.00,0.1080
717.00,0.1091
716.00,0.1101
715.00,0.1110
714.00,0.1119
713.00,0.1128
712.00,0.1137
711.00,0.1146
710.00,0.1157
709.00,0.1167
708.00,0.1177
707.00,0.1187
706.00,0.1199
705.00,0.1211
704.00,0.1222
703.00,0.1233
702.00,0.1243
701.00,0.1253
700.00,0.1261
699.00,0.1267
698.00,0.1271
697.00,0.1274
696.00,0.1274
695.00,0.1274
694.00,0.1273
693.00,0.1272
692.00,0.1271
691.00,0.1271
690.00,0.1272
689.00,0.1273
688.00,0.1273
687.00,0.1274
686.00,0.1276
685.00,0.1278
684.00,0.1278
683.00,0.1279
682.00,0.1281
681.00,0.1283
680.00,0.1284
679.00,0.1286
678.00,0.1288
677.00,0.1290
676.00,0.1291
675.00,0.1293
674.00,0.1296
673.00,0.1299
672.00,0.1300
671.00,0.1300
670.00,0.1302
669.00,0.1307
668.00,0.1313
667.00,0.1319
666.00,0.1321
665.00,0.1322
664.00,0.1322
663.00,0.1324
662.00,0.1327
661.00,0.1330
660.00,0.1333
659.00,0.1335
658.00,0.1339
657.00,0.1342
656.00,0.1343
655.00,0.1345
654.00,0.1347
653.00,0.1349
652.00,0.1350
651.00,0.1352
650.00,0.1355
649.00,0.1359
648.00,0.1361
647.00,0.1364
646.00,0.1367
645.00,0.1370
644.00,0.1373
643.00,0.1376
642.00,0.1380
641.00,0.1384
640.00,0.1386
639.00,0.1388
638.00,0.1391
637.00,0.1394
636.00,0.1397
635.00,0.1401
634.00,0.1407
633.00,0.1411
632.00,0.1414
631.00,0.1417
630.00,0.1421
629.00,0.1425
628.00,0.1428
627.00,0.1431
626.00,0.1435
625.00,0.1439
624.00,0.1442
623.00,0.1444
622.00,0.1446
621.00,0.1448
620.00,0.1448
619.00,0.1449
618.00,0.1451
617.00,0.1453
616.00,0.1453
615.00,0.1454
614.00,0.1456
613.00,0.1457
612.00,0.1456
611.00,0.1455
610.00,0.1455
609.00,0.1457
608.00,0.1459
607.00,0.1461
606.00,0.1463
605.00,0.1464
604.00,0.1464
603.00,0.1464
602.00,0.1466
601.00,0.1468
600.00,0.1468
599.00,0.1470
598.00,0.1472
597.00,0.1474
596.00,0.1475
595.00,0.1476
594.00,0.1478
593.00,0.1481
592.00,0.1483
591.00,0.1486
590.00,0.1489
589.00,0.1491
588.00,0.1491
587.00,0.1493
586.00,0.1497
585.00,0.1502
584.00,0.1507
583.00,0.1512
582.00,0.1519
581.00,0.1523
580.00,0.1526
579.00,0.1528
578.00,0.1533
577.00,0.1537
576.00,0.1539
575.00,0.1542
574.00,0.1546
573.00,0.1549
572.00,0.1550
571.00,0.1551
570.00,0.1555
569.00,0.1558
568.00,0.1561
567.00,0.1564
566.00,0.1568
565.00,0.1571
564.00,0.1572
563.00,0.1573
562.00,0.1577
561.00,0.1582
560.00,0.1585
559.00,0.1589
558.00,0.1594
557.00,0.1598
556.00,0.1599
555.00,0.1601
554.00,0.1604
553.00,0.1607
552.00,0.1610
551.00,0.1614
550.00,0.1619
549.00,0.1624
548.00,0.1626
547.00,0.1628
546.00,0.1632
545.00,0.1636
544.00,0.1638
543.00,0.1640
542.00,0.1644
541.00,0.1649
540.00,0.1651
539.00,0.1653
538.00,0.1657
537.00,0.1661
536.00,0.1663
535.00,0.1665
534.00,0.1670
533.00,0.1673
532.00,0.1672
531.00,0.1671
530.00,0.1674
529.00,0.1679
528.00,0.1682
527.00,0.1685
526.00,0.1689
525.00,0.1692
524.00,0.1693
523.00,0.1695
522.00,0.1700
521.00,0.1705
520.00,0.1707
519.00,0.1709
518.00,0.1711
517.00,0.1714
516.00,0.1714
515.00,0.1716
514.00,0.1720
513.00,0.1722
512.00,0.1721
511.00,0.1722
510.00,0.1725
509.00,0.1728
508.00,0.1728
507.00,0.1728
506.00,0.1729
505.00,0.1728
504.00,0.1724
503.00,0.1722
502.00,0.1724
501.00,0.1727
500.00,0.1727
499.00,0.1726
498.00,0.1728
497.00,0.1728
496.00,0.1727
495.00,0.1727
494.00,0.1730
493.00,0.1732
492.00,0.1731
491.00,0.1730
490.00,0.1732
489.00,0.1733
488.00,0.1731
487.00,0.1728
486.00,0.1729
485.00,0.1729
484.00,0.1726
483.00,0.1724
482.00,0.1725
481.00,0.1725
480.00,0.1721
479.00,0.1718
478.00,0.1720
477.00,0.1723
476.00,0.1722
475.00,0.1721
474.00,0.1723
473.00,0.1723
472.00,0.1720
471.00,0.1720
470.00,0.1725
469.00,0.1729
468.00,0.1726
467.00,0.1723
466.00,0.1724
465.00,0.1726
464.00,0.1724
463.00,0.1722
462.00,0.1724
461.00,0.1724
460.00,0.1717
459.00,0.1710
458.00,0.1712
457.00,0.1717
456.00,0.1719
455.00,0.1719
454.00,0.1720
453.00,0.1717
452.00,0.1709
451.00,0.1703
450.00,0.1703
449.00,0.1702
448.00,0.1696
447.00,0.1690
446.00,0.1688
445.00,0.1684
444.00,0.1677
443.00,0.1672
442.00,0.1675
441.00,0.1677
440.00,0.1670
439.00,0.1663
438.00,0.1661
437.00,0.1661
436.00,0.1658
435.00,0.1655
434.00,0.1656
433.00,0.1655
432.00,0.1650
431.00,0.1649
430.00,0.1655
429.00,0.1658
428.00,0.1651
427.00,0.1645
426.00,0.1647
425.00,0.1650
424.00,0.1645
423.00,0.1641
422.00,0.1643
421.00,0.1644
420.00,0.1635
419.00,0.1630
418.00,0.1639
417.00,0.1645
416.00,0.1635
415.00,0.1626
414.00,0.1627
413.00,0.1629
412.00,0.1622
411.00,0.1618
410.00,0.1627
409.00,0.1638
408.00,0.1637
407.00,0.1634
406.00,0.1636
405.00,0.1632
404.00,0.1615
403.00,0.1599
402.00,0.1598
401.00,0.1592
400.00,0.1567
