Created as New Dataset,Sample 1038 By YargerLab Date Monday, August 04 2025
cm-1,A
4000.00,0.0007
3999.00,0.0007
3998.00,0.0006
3997.00,0.0006
3996.00,0.0006
3995.00,0.0006
3994.00,0.0006
3993.00,0.0006
3992.00,0.0006
3991.00,0.0006
3990.00,0.0006
3989.00,0.0006
3988.00,0.0006
3987.00,0.0006
3986.00,0.0006
3985.00,0.0006
3984.00,0.0005
3983.00,0.0005
3982.00,0.0005
3981.00,0.0006
3980.00,0.0006
3979.00,0.0006
3978.00,0.0006
3977.00,0.0006
3976.00,0.0006
3975.00,0.0006
3974.00,0.0006
3973.00,0.0006
3972.00,0.0006
3971.00,0.0006
3970.00,0.0006
3969.00,0.0007
3968.00,0.0007
3967.00,0.0006
3966.00,0.0006
3965.00,0.0006
3964.00,0.0006
3963.00,0.0006
3962.00,0.0006
3961.00,0.0006
3960.00,0.0006
3959.00,0.0006
3958.00,0.0006
3957.00,0.0006
3956.00,0.0006
3955.00,0.0006
3954.00,0.0006
3953.00,0.0007
3952.00,0.0007
3951.00,0.0007
3950.00,0.0007
3949.00,0.0007
3948.00,0.0007
3947.00,0.0007
3946.00,0.0006
3945.00,0.0006
3944.00,0.0006
3943.00,0.0006
3942.00,0.0006
3941.00,0.0006
3940.00,0.0006
3939.00,0.0006
3938.00,0.0006
3937.00,0.0006
3936.00,0.0007
3935.00,0.0007
3934.00,0.0007
3933.00,0.0007
3932.00,0.0007
3931.00,0.0007
3930.00,0.0007
3929.00,0.0006
3928.00,0.0007
3927.00,0.0007
3926.00,0.0007
3925.00,0.0007
3924.00,0.0007
3923.00,0.0006
3922.00,0.0006
3921.00,0.0006
3920.00,0.0006
3919.00,0.0007
3918.00,0.0007
3917.00,0.0007
3916.00,0.0007
3915.00,0.0007
3914.00,0.0007
3913.00,0.0006
3912.00,0.0006
3911.00,0.0006
3910.00,0.0006
3909.00,0.0007
3908.00,0.0007
3907.00,0.0007
3906.00,0.0008
3905.00,0.0008
3904.00,0.0008
3903.00,0.0008
3902.00,0.0008
3901.00,0.0008
3900.00,0.0009
3899.00,0.0009
3898.00,0.0009
3897.00,0.0008
3896.00,0.0008
3895.00,0.0008
3894.00,0.0007
3893.00,0.0007
3892.00,0.0007
3891.00,0.0007
3890.00,0.0007
3889.00,0.0007
3888.00,0.0007
3887.00,0.0008
3886.00,0.0008
3885.00,0.0008
3884.00,0.0008
3883.00,0.0008
3882.00,0.0008
3881.00,0.0008
3880.00,0.0008
3879.00,0.0008
3878.00,0.0007
3877.00,0.0007
3876.00,0.0007
3875.00,0.0007
3874.00,0.0007
3873.00,0.0008
3872.00,0.0008
3871.00,0.0008
3870.00,0.0008
3869.00,0.0008
3868.00,0.0008
3867.00,0.0008
3866.00,0.0009
3865.00,0.0009
3864.00,0.0009
3863.00,0.0009
3862.00,0.0008
3861.00,0.0008
3860.00,0.0008
3859.00,0.0008
3858.00,0.0008
3857.00,0.0008
3856.00,0.0009
3855.00,0.0010
3854.00,0.0010
3853.00,0.0011
3852.00,0.0011
3851.00,0.0012
3850.00,0.0011
3849.00,0.0010
3848.00,0.0010
3847.00,0.0009
3846.00,0.0008
3845.00,0.0007
3844.00,0.0007
3843.00,0.0007
3842.00,0.0007
3841.00,0.0007
3840.00,0.0007
3839.00,0.0008
3838.00,0.0008
3837.00,0.0009
3836.00,0.0009
3835.00,0.0009
3834.00,0.0009
3833.00,0.0009
3832.00,0.0009
3831.00,0.0009
3830.00,0.0008
3829.00,0.0008
3828.00,0.0007
3827.00,0.0007
3826.00,0.0007
3825.00,0.0007
3824.00,0.0007
3823.00,0.0007
3822.00,0.0008
3821.00,0.0008
3820.00,0.0008
3819.00,0.0008
3818.00,0.0008
3817.00,0.0008
3816.00,0.0008
3815.00,0.0008
3814.00,0.0008
3813.00,0.0008
3812.00,0.0008
3811.00,0.0008
3810.00,0.0008
3809.00,0.0007
3808.00,0.0007
3807.00,0.0007
3806.00,0.0007
3805.00,0.0008
3804.00,0.0008
3803.00,0.0009
3802.00,0.0009
3801.00,0.0009
3800.00,0.0009
3799.00,0.0009
3798.00,0.0009
3797.00,0.0008
3796.00,0.0008
3795.00,0.0008
3794.00,0.0007
3793.00,0.0007
3792.00,0.0007
3791.00,0.0007
3790.00,0.0007
3789.00,0.0007
3788.00,0.0007
3787.00,0.0007
3786.00,0.0007
3785.00,0.0007
3784.00,0.0007
3783.00,0.0007
3782.00,0.0007
3781.00,0.0007
3780.00,0.0007
3779.00,0.0007
3778.00,0.0007
3777.00,0.0007
3776.00,0.0007
3775.00,0.0007
3774.00,0.0007
3773.00,0.0007
3772.00,0.0007
3771.00,0.0007
3770.00,0.0007
3769.00,0.0008
3768.00,0.0008
3767.00,0.0008
3766.00,0.0008
3765.00,0.0008
3764.00,0.0008
3763.00,0.0008
3762.00,0.0007
3761.00,0.0007
3760.00,0.0007
3759.00,0.0007
3758.00,0.0008
3757.00,0.0008
3756.00,0.0008
3755.00,0.0009
3754.00,0.0009
3753.00,0.0010
3752.00,0.0010
3751.00,0.0011
3750.00,0.0011
3749.00,0.0011
3748.00,0.0012
3747.00,0.0012
3746.00,0.0012
3745.00,0.0012
3744.00,0.0011
3743.00,0.0011
3742.00,0.0011
3741.00,0.0010
3740.00,0.0010
3739.00,0.0010
3738.00,0.0010
3737.00,0.0009
3736.00,0.0009
3735.00,0.0008
3734.00,0.0008
3733.00,0.0008
3732.00,0.0008
3731.00,0.0008
3730.00,0.0008
3729.00,0.0008
3728.00,0.0007
3727.00,0.0007
3726.00,0.0008
3725.00,0.0008
3724.00,0.0008
3723.00,0.0008
3722.00,0.0008
3721.00,0.0008
3720.00,0.0007
3719.00,0.0007
3718.00,0.0007
3717.00,0.0007
3716.00,0.0007
3715.00,0.0007
3714.00,0.0007
3713.00,0.0007
3712.00,0.0008
3711.00,0.0008
3710.00,0.0008
3709.00,0.0008
3708.00,0.0007
3707.00,0.0007
3706.00,0.0006
3705.00,0.0006
3704.00,0.0006
3703.00,0.0006
3702.00,0.0006
3701.00,0.0006
3700.00,0.0006
3699.00,0.0006
3698.00,0.0006
3697.00,0.0006
3696.00,0.0006
3695.00,0.0006
3694.00,0.0006
3693.00,0.0006
3692.00,0.0007
3691.00,0.0007
3690.00,0.0008
3689.00,0.0008
3688.00,0.0008
3687.00,0.0009
3686.00,0.0009
3685.00,0.0009
3684.00,0.0009
3683.00,0.0009
3682.00,0.0009
3681.00,0.0009
3680.00,0.0009
3679.00,0.0009
3678.00,0.0010
3677.00,0.0010
3676.00,0.0010
3675.00,0.0010
3674.00,0.0011
3673.00,0.0011
3672.00,0.0011
3671.00,0.0012
3670.00,0.0012
3669.00,0.0012
3668.00,0.0011
3667.00,0.0011
3666.00,0.0011
3665.00,0.0011
3664.00,0.0010
3663.00,0.0010
3662.00,0.0010
3661.00,0.0009
3660.00,0.0009
3659.00,0.0010
3658.00,0.0010
3657.00,0.0010
3656.00,0.0010
3655.00,0.0011
3654.00,0.0011
3653.00,0.0012
3652.00,0.0012
3651.00,0.0013
3650.00,0.0014
3649.00,0.0014
3648.00,0.0014
3647.00,0.0014
3646.00,0.0014
3645.00,0.0013
3644.00,0.0013
3643.00,0.0012
3642.00,0.0012
3641.00,0.0012
3640.00,0.0012
3639.00,0.0011
3638.00,0.0011
3637.00,0.0011
3636.00,0.0012
3635.00,0.0012
3634.00,0.0012
3633.00,0.0013
3632.00,0.0014
3631.00,0.0014
3630.00,0.0015
3629.00,0.0015
3628.00,0.0015
3627.00,0.0015
3626.00,0.0015
3625.00,0.0015
3624.00,0.0015
3623.00,0.0015
3622.00,0.0015
3621.00,0.0015
3620.00,0.0015
3619.00,0.0015
3618.00,0.0015
3617.00,0.0015
3616.00,0.0015
3615.00,0.0015
3614.00,0.0015
3613.00,0.0015
3612.00,0.0015
3611.00,0.0015
3610.00,0.0016
3609.00,0.0016
3608.00,0.0017
3607.00,0.0017
3606.00,0.0017
3605.00,0.0017
3604.00,0.0017
3603.00,0.0016
3602.00,0.0016
3601.00,0.0016
3600.00,0.0017
3599.00,0.0017
3598.00,0.0017
3597.00,0.0017
3596.00,0.0017
3595.00,0.0017
3594.00,0.0017
3593.00,0.0017
3592.00,0.0018
3591.00,0.0018
3590.00,0.0019
3589.00,0.0019
3588.00,0.0020
3587.00,0.0020
3586.00,0.0019
3585.00,0.0020
3584.00,0.0020
3583.00,0.0020
3582.00,0.0020
3581.00,0.0020
3580.00,0.0020
3579.00,0.0020
3578.00,0.0020
3577.00,0.0019
3576.00,0.0020
3575.00,0.0020
3574.00,0.0020
3573.00,0.0020
3572.00,0.0021
3571.00,0.0022
3570.00,0.0022
3569.00,0.0023
3568.00,0.0023
3567.00,0.0023
3566.00,0.0023
3565.00,0.0023
3564.00,0.0023
3563.00,0.0023
3562.00,0.0024
3561.00,0.0024
3560.00,0.0024
3559.00,0.0024
3558.00,0.0024
3557.00,0.0024
3556.00,0.0024
3555.00,0.0024
3554.00,0.0025
3553.00,0.0025
3552.00,0.0025
3551.00,0.0025
3550.00,0.0025
3549.00,0.0025
3548.00,0.0025
3547.00,0.0026
3546.00,0.0026
3545.00,0.0026
3544.00,0.0027
3543.00,0.0027
3542.00,0.0027
3541.00,0.0027
3540.00,0.0027
3539.00,0.0027
3538.00,0.0027
3537.00,0.0027
3536.00,0.0027
3535.00,0.0027
3534.00,0.0027
3533.00,0.0028
3532.00,0.0028
3531.00,0.0028
3530.00,0.0028
3529.00,0.0029
3528.00,0.0029
3527.00,0.0029
3526.00,0.0030
3525.00,0.0030
3524.00,0.0030
3523.00,0.0030
3522.00,0.0030
3521.00,0.0030
3520.00,0.0030
3519.00,0.0030
3518.00,0.0030
3517.00,0.0031
3516.00,0.0031
3515.00,0.0031
3514.00,0.0031
3513.00,0.0031
3512.00,0.0031
3511.00,0.0031
3510.00,0.0031
3509.00,0.0032
3508.00,0.0032
3507.00,0.0032
3506.00,0.0032
3505.00,0.0032
3504.00,0.0033
3503.00,0.0033
3502.00,0.0032
3501.00,0.0032
3500.00,0.0032
3499.00,0.0033
3498.00,0.0033
3497.00,0.0033
3496.00,0.0033
3495.00,0.0033
3494.00,0.0034
3493.00,0.0034
3492.00,0.0034
3491.00,0.0034
3490.00,0.0035
3489.00,0.0035
3488.00,0.0035
3487.00,0.0035
3486.00,0.0035
3485.00,0.0035
3484.00,0.0035
3483.00,0.0035
3482.00,0.0035
3481.00,0.0035
3480.00,0.0036
3479.00,0.0036
3478.00,0.0036
3477.00,0.0036
3476.00,0.0037
3475.00,0.0037
3474.00,0.0037
3473.00,0.0037
3472.00,0.0037
3471.00,0.0037
3470.00,0.0037
3469.00,0.0037
3468.00,0.0038
3467.00,0.0038
3466.00,0.0038
3465.00,0.0038
3464.00,0.0038
3463.00,0.0038
3462.00,0.0038
3461.00,0.0038
3460.00,0.0038
3459.00,0.0038
3458.00,0.0038
3457.00,0.0038
3456.00,0.0038
3455.00,0.0039
3454.00,0.0039
3453.00,0.0039
3452.00,0.0039
3451.00,0.0038
3450.00,0.0038
3449.00,0.0039
3448.00,0.0039
3447.00,0.0039
3446.00,0.0039
3445.00,0.0040
3444.00,0.0039
3443.00,0.0039
3442.00,0.0039
3441.00,0.0039
3440.00,0.0039
3439.00,0.0039
3438.00,0.0039
3437.00,0.0039
3436.00,0.0039
3435.00,0.0039
3434.00,0.0039
3433.00,0.0039
3432.00,0.0039
3431.00,0.0039
3430.00,0.0040
3429.00,0.0040
3428.00,0.0040
3427.00,0.0040
3426.00,0.0041
3425.00,0.0041
3424.00,0.0041
3423.00,0.0041
3422.00,0.0041
3421.00,0.0041
3420.00,0.0041
3419.00,0.0041
3418.00,0.0041
3417.00,0.0041
3416.00,0.0041
3415.00,0.0041
3414.00,0.0041
3413.00,0.0041
3412.00,0.0042
3411.00,0.0042
3410.00,0.0042
3409.00,0.0042
3408.00,0.0042
3407.00,0.0042
3406.00,0.0042
3405.00,0.0042
3404.00,0.0042
3403.00,0.0043
3402.00,0.0043
3401.00,0.0043
3400.00,0.0043
3399.00,0.0044
3398.00,0.0044
3397.00,0.0044
3396.00,0.0044
3395.00,0.0044
3394.00,0.0044
3393.00,0.0044
3392.00,0.0044
3391.00,0.0044
3390.00,0.0044
3389.00,0.0044
3388.00,0.0045
3387.00,0.0045
3386.00,0.0045
3385.00,0.0045
3384.00,0.0046
3383.00,0.0046
3382.00,0.0046
3381.00,0.0046
3380.00,0.0046
3379.00,0.0046
3378.00,0.0046
3377.00,0.0046
3376.00,0.0047
3375.00,0.0047
3374.00,0.0047
3373.00,0.0047
3372.00,0.0047
3371.00,0.0047
3370.00,0.0048
3369.00,0.0048
3368.00,0.0048
3367.00,0.0048
3366.00,0.0049
3365.00,0.0049
3364.00,0.0049
3363.00,0.0049
3362.00,0.0050
3361.00,0.0050
3360.00,0.0050
3359.00,0.0050
3358.00,0.0051
3357.00,0.0051
3356.00,0.0052
3355.00,0.0052
3354.00,0.0052
3353.00,0.0052
3352.00,0.0052
3351.00,0.0052
3350.00,0.0052
3349.00,0.0052
3348.00,0.0053
3347.00,0.0053
3346.00,0.0053
3345.00,0.0053
3344.00,0.0053
3343.00,0.0054
3342.00,0.0054
3341.00,0.0055
3340.00,0.0055
3339.00,0.0055
3338.00,0.0055
3337.00,0.0055
3336.00,0.0056
3335.00,0.0056
3334.00,0.0056
3333.00,0.0056
3332.00,0.0056
3331.00,0.0056
3330.00,0.0056
3329.00,0.0057
3328.00,0.0057
3327.00,0.0057
3326.00,0.0057
3325.00,0.0058
3324.00,0.0058
3323.00,0.0058
3322.00,0.0058
3321.00,0.0059
3320.00,0.0059
3319.00,0.0059
3318.00,0.0060
3317.00,0.0060
3316.00,0.0060
3315.00,0.0061
3314.00,0.0061
3313.00,0.0061
3312.00,0.0061
3311.00,0.0061
3310.00,0.0061
3309.00,0.0061
3308.00,0.0061
3307.00,0.0061
3306.00,0.0061
3305.00,0.0062
3304.00,0.0062
3303.00,0.0063
3302.00,0.0064
3301.00,0.0064
3300.00,0.0064
3299.00,0.0065
3298.00,0.0065
3297.00,0.0065
3296.00,0.0065
3295.00,0.0065
3294.00,0.0065
3293.00,0.0065
3292.00,0.0065
3291.00,0.0066
3290.00,0.0066
3289.00,0.0066
3288.00,0.0067
3287.00,0.0067
3286.00,0.0067
3285.00,0.0067
3284.00,0.0067
3283.00,0.0068
3282.00,0.0068
3281.00,0.0068
3280.00,0.0068
3279.00,0.0069
3278.00,0.0069
3277.00,0.0069
3276.00,0.0069
3275.00,0.0069
3274.00,0.0069
3273.00,0.0069
3272.00,0.0069
3271.00,0.0069
3270.00,0.0070
3269.00,0.0070
3268.00,0.0070
3267.00,0.0070
3266.00,0.0070
3265.00,0.0070
3264.00,0.0070
3263.00,0.0071
3262.00,0.0071
3261.00,0.0071
3260.00,0.0072
3259.00,0.0072
3258.00,0.0072
3257.00,0.0073
3256.00,0.0073
3255.00,0.0073
3254.00,0.0073
3253.00,0.0073
3252.00,0.0073
3251.00,0.0073
3250.00,0.0073
3249.00,0.0074
3248.00,0.0074
3247.00,0.0074
3246.00,0.0075
3245.00,0.0075
3244.00,0.0075
3243.00,0.0075
3242.00,0.0075
3241.00,0.0076
3240.00,0.0076
3239.00,0.0076
3238.00,0.0076
3237.00,0.0076
3236.00,0.0075
3235.00,0.0075
3234.00,0.0075
3233.00,0.0075
3232.00,0.0075
3231.00,0.0076
3230.00,0.0076
3229.00,0.0076
3228.00,0.0077
3227.00,0.0077
3226.00,0.0077
3225.00,0.0077
3224.00,0.0077
3223.00,0.0077
3222.00,0.0077
3221.00,0.0077
3220.00,0.0077
3219.00,0.0077
3218.00,0.0078
3217.00,0.0078
3216.00,0.0078
3215.00,0.0078
3214.00,0.0078
3213.00,0.0077
3212.00,0.0077
3211.00,0.0077
3210.00,0.0077
3209.00,0.0077
3208.00,0.0078
3207.00,0.0078
3206.00,0.0078
3205.00,0.0078
3204.00,0.0078
3203.00,0.0078
3202.00,0.0078
3201.00,0.0078
3200.00,0.0079
3199.00,0.0079
3198.00,0.0079
3197.00,0.0079
3196.00,0.0079
3195.00,0.0079
3194.00,0.0079
3193.00,0.0079
3192.00,0.0079
3191.00,0.0079
3190.00,0.0079
3189.00,0.0079
3188.00,0.0079
3187.00,0.0080
3186.00,0.0080
3185.00,0.0080
3184.00,0.0080
3183.00,0.0079
3182.00,0.0079
3181.00,0.0079
3180.00,0.0079
3179.00,0.0079
3178.00,0.0079
3177.00,0.0079
3176.00,0.0079
3175.00,0.0079
3174.00,0.0079
3173.00,0.0079
3172.00,0.0079
3171.00,0.0079
3170.00,0.0079
3169.00,0.0079
3168.00,0.0079
3167.00,0.0079
3166.00,0.0079
3165.00,0.0079
3164.00,0.0079
3163.00,0.0079
3162.00,0.0079
3161.00,0.0079
3160.00,0.0079
3159.00,0.0079
3158.00,0.0079
3157.00,0.0079
3156.00,0.0078
3155.00,0.0078
3154.00,0.0078
3153.00,0.0078
3152.00,0.0078
3151.00,0.0078
3150.00,0.0078
3149.00,0.0078
3148.00,0.0078
3147.00,0.0077
3146.00,0.0077
3145.00,0.0077
3144.00,0.0077
3143.00,0.0077
3142.00,0.0077
3141.00,0.0077
3140.00,0.0077
3139.00,0.0077
3138.00,0.0077
3137.00,0.0077
3136.00,0.0077
3135.00,0.0077
3134.00,0.0077
3133.00,0.0076
3132.00,0.0076
3131.00,0.0076
3130.00,0.0076
3129.00,0.0076
3128.00,0.0076
3127.00,0.0076
3126.00,0.0076
3125.00,0.0076
3124.00,0.0076
3123.00,0.0076
3122.00,0.0076
3121.00,0.0076
3120.00,0.0076
3119.00,0.0076
3118.00,0.0076
3117.00,0.0076
3116.00,0.0076
3115.00,0.0076
3114.00,0.0076
3113.00,0.0076
3112.00,0.0075
3111.00,0.0075
3110.00,0.0075
3109.00,0.0074
3108.00,0.0074
3107.00,0.0074
3106.00,0.0074
3105.00,0.0074
3104.00,0.0073
3103.00,0.0073
3102.00,0.0073
3101.00,0.0073
3100.00,0.0073
3099.00,0.0073
3098.00,0.0072
3097.00,0.0072
3096.00,0.0072
3095.00,0.0072
3094.00,0.0072
3093.00,0.0073
3092.00,0.0073
3091.00,0.0073
3090.00,0.0073
3089.00,0.0073
3088.00,0.0073
3087.00,0.0074
3086.00,0.0074
3085.00,0.0074
3084.00,0.0074
3083.00,0.0074
3082.00,0.0074
3081.00,0.0075
3080.00,0.0075
3079.00,0.0075
3078.00,0.0075
3077.00,0.0074
3076.00,0.0074
3075.00,0.0074
3074.00,0.0074
3073.00,0.0074
3072.00,0.0073
3071.00,0.0073
3070.00,0.0073
3069.00,0.0072
3068.00,0.0072
3067.00,0.0072
3066.00,0.0072
3065.00,0.0072
3064.00,0.0071
3063.00,0.0071
3062.00,0.0071
3061.00,0.0070
3060.00,0.0070
3059.00,0.0070
3058.00,0.0069
3057.00,0.0069
3056.00,0.0069
3055.00,0.0069
3054.00,0.0068
3053.00,0.0068
3052.00,0.0068
3051.00,0.0068
3050.00,0.0068
3049.00,0.0068
3048.00,0.0068
3047.00,0.0068
3046.00,0.0068
3045.00,0.0067
3044.00,0.0067
3043.00,0.0067
3042.00,0.0067
3041.00,0.0067
3040.00,0.0067
3039.00,0.0067
3038.00,0.0067
3037.00,0.0067
3036.00,0.0067
3035.00,0.0067
3034.00,0.0066
3033.00,0.0066
3032.00,0.0066
3031.00,0.0066
3030.00,0.0065
3029.00,0.0065
3028.00,0.0065
3027.00,0.0065
3026.00,0.0065
3025.00,0.0064
3024.00,0.0064
3023.00,0.0064
3022.00,0.0064
3021.00,0.0064
3020.00,0.0064
3019.00,0.0063
3018.00,0.0063
3017.00,0.0063
3016.00,0.0064
3015.00,0.0064
3014.00,0.0064
3013.00,0.0064
3012.00,0.0064
3011.00,0.0064
3010.00,0.0065
3009.00,0.0066
3008.00,0.0067
3007.00,0.0068
3006.00,0.0069
3005.00,0.0070
3004.00,0.0071
3003.00,0.0073
3002.00,0.0074
3001.00,0.0075
3000.00,0.0077
2999.00,0.0080
2998.00,0.0082
2997.00,0.0085
2996.00,0.0088
2995.00,0.0090
2994.00,0.0094
2993.00,0.0097
2992.00,0.0101
2991.00,0.0104
2990.00,0.0108
2989.00,0.0111
2988.00,0.0115
2987.00,0.0118
2986.00,0.0121
2985.00,0.0124
2984.00,0.0127
2983.00,0.0130
2982.00,0.0132
2981.00,0.0134
2980.00,0.0136
2979.00,0.0138
2978.00,0.0140
2977.00,0.0141
2976.00,0.0142
2975.00,0.0143
2974.00,0.0145
2973.00,0.0146
2972.00,0.0147
2971.00,0.0148
2970.00,0.0149
2969.00,0.0151
2968.00,0.0153
2967.00,0.0155
2966.00,0.0157
2965.00,0.0160
2964.00,0.0162
2963.00,0.0165
2962.00,0.0167
2961.00,0.0169
2960.00,0.0172
2959.00,0.0174
2958.00,0.0176
2957.00,0.0178
2956.00,0.0179
2955.00,0.0180
2954.00,0.0180
2953.00,0.0181
2952.00,0.0180
2951.00,0.0180
2950.00,0.0179
2949.00,0.0178
2948.00,0.0177
2947.00,0.0177
2946.00,0.0176
2945.00,0.0176
2944.00,0.0177
2943.00,0.0177
2942.00,0.0178
2941.00,0.0179
2940.00,0.0181
2939.00,0.0184
2938.00,0.0186
2937.00,0.0189
2936.00,0.0191
2935.00,0.0194
2934.00,0.0196
2933.00,0.0199
2932.00,0.0201
2931.00,0.0203
2930.00,0.0205
2929.00,0.0206
2928.00,0.0207
2927.00,0.0208
2926.00,0.0208
2925.00,0.0208
2924.00,0.0206
2923.00,0.0204
2922.00,0.0202
2921.00,0.0199
2920.00,0.0197
2919.00,0.0193
2918.00,0.0190
2917.00,0.0187
2916.00,0.0183
2915.00,0.0180
2914.00,0.0177
2913.00,0.0173
2912.00,0.0170
2911.00,0.0167
2910.00,0.0163
2909.00,0.0160
2908.00,0.0157
2907.00,0.0153
2906.00,0.0150
2905.00,0.0147
2904.00,0.0145
2903.00,0.0143
2902.00,0.0141
2901.00,0.0140
2900.00,0.0138
2899.00,0.0137
2898.00,0.0136
2897.00,0.0136
2896.00,0.0135
2895.00,0.0135
2894.00,0.0134
2893.00,0.0134
2892.00,0.0133
2891.00,0.0133
2890.00,0.0132
2889.00,0.0132
2888.00,0.0131
2887.00,0.0131
2886.00,0.0130
2885.00,0.0130
2884.00,0.0130
2883.00,0.0131
2882.00,0.0131
2881.00,0.0132
2880.00,0.0133
2879.00,0.0134
2878.00,0.0135
2877.00,0.0137
2876.00,0.0138
2875.00,0.0139
2874.00,0.0141
2873.00,0.0143
2872.00,0.0145
2871.00,0.0146
2870.00,0.0146
2869.00,0.0146
2868.00,0.0146
2867.00,0.0146
2866.00,0.0146
2865.00,0.0146
2864.00,0.0146
2863.00,0.0147
2862.00,0.0148
2861.00,0.0149
2860.00,0.0149
2859.00,0.0150
2858.00,0.0150
2857.00,0.0149
2856.00,0.0147
2855.00,0.0145
2854.00,0.0142
2853.00,0.0138
2852.00,0.0133
2851.00,0.0128
2850.00,0.0124
2849.00,0.0119
2848.00,0.0115
2847.00,0.0111
2846.00,0.0107
2845.00,0.0103
2844.00,0.0099
2843.00,0.0096
2842.00,0.0092
2841.00,0.0089
2840.00,0.0085
2839.00,0.0082
2838.00,0.0080
2837.00,0.0077
2836.00,0.0075
2835.00,0.0073
2834.00,0.0071
2833.00,0.0069
2832.00,0.0068
2831.00,0.0066
2830.00,0.0065
2829.00,0.0063
2828.00,0.0062
2827.00,0.0060
2826.00,0.0059
2825.00,0.0057
2824.00,0.0056
2823.00,0.0055
2822.00,0.0054
2821.00,0.0053
2820.00,0.0052
2819.00,0.0051
2818.00,0.0050
2817.00,0.0049
2816.00,0.0049
2815.00,0.0048
2814.00,0.0047
2813.00,0.0046
2812.00,0.0045
2811.00,0.0045
2810.00,0.0044
2809.00,0.0044
2808.00,0.0044
2807.00,0.0043
2806.00,0.0043
2805.00,0.0042
2804.00,0.0042
2803.00,0.0041
2802.00,0.0041
2801.00,0.0041
2800.00,0.0040
2799.00,0.0040
2798.00,0.0040
2797.00,0.0040
2796.00,0.0039
2795.00,0.0039
2794.00,0.0039
2793.00,0.0039
2792.00,0.0038
2791.00,0.0038
2790.00,0.0038
2789.00,0.0037
2788.00,0.0037
2787.00,0.0037
2786.00,0.0037
2785.00,0.0037
2784.00,0.0037
2783.00,0.0036
2782.00,0.0036
2781.00,0.0036
2780.00,0.0036
2779.00,0.0036
2778.00,0.0036
2777.00,0.0036
2776.00,0.0036
2775.00,0.0035
2774.00,0.0035
2773.00,0.0035
2772.00,0.0034
2771.00,0.0034
2770.00,0.0034
2769.00,0.0034
2768.00,0.0034
2767.00,0.0034
2766.00,0.0034
2765.00,0.0034
2764.00,0.0034
2763.00,0.0034
2762.00,0.0034
2761.00,0.0034
2760.00,0.0034
2759.00,0.0034
2758.00,0.0034
2757.00,0.0034
2756.00,0.0034
2755.00,0.0034
2754.00,0.0034
2753.00,0.0034
2752.00,0.0034
2751.00,0.0034
2750.00,0.0034
2749.00,0.0034
2748.00,0.0034
2747.00,0.0035
2746.00,0.0035
2745.00,0.0035
2744.00,0.0035
2743.00,0.0035
2742.00,0.0035
2741.00,0.0035
2740.00,0.0035
2739.00,0.0035
2738.00,0.0035
2737.00,0.0036
2736.00,0.0036
2735.00,0.0036
2734.00,0.0036
2733.00,0.0036
2732.00,0.0036
2731.00,0.0036
2730.00,0.0036
2729.00,0.0036
2728.00,0.0035
2727.00,0.0035
2726.00,0.0035
2725.00,0.0035
2724.00,0.0034
2723.00,0.0034
2722.00,0.0034
2721.00,0.0034
2720.00,0.0034
2719.00,0.0034
2718.00,0.0034
2717.00,0.0033
2716.00,0.0033
2715.00,0.0033
2714.00,0.0033
2713.00,0.0033
2712.00,0.0033
2711.00,0.0033
2710.00,0.0033
2709.00,0.0032
2708.00,0.0032
2707.00,0.0032
2706.00,0.0032
2705.00,0.0032
2704.00,0.0032
2703.00,0.0032
2702.00,0.0032
2701.00,0.0031
2700.00,0.0031
2699.00,0.0031
2698.00,0.0031
2697.00,0.0031
2696.00,0.0031
2695.00,0.0030
2694.00,0.0030
2693.00,0.0030
2692.00,0.0030
2691.00,0.0030
2690.00,0.0029
2689.00,0.0029
2688.00,0.0029
2687.00,0.0029
2686.00,0.0029
2685.00,0.0028
2684.00,0.0028
2683.00,0.0028
2682.00,0.0028
2681.00,0.0028
2680.00,0.0028
2679.00,0.0028
2678.00,0.0028
2677.00,0.0028
2676.00,0.0028
2675.00,0.0028
2674.00,0.0028
2673.00,0.0028
2672.00,0.0028
2671.00,0.0028
2670.00,0.0028
2669.00,0.0028
2668.00,0.0028
2667.00,0.0028
2666.00,0.0028
2665.00,0.0029
2664.00,0.0029
2663.00,0.0029
2662.00,0.0029
2661.00,0.0029
2660.00,0.0030
2659.00,0.0030
2658.00,0.0030
2657.00,0.0030
2656.00,0.0030
2655.00,0.0030
2654.00,0.0030
2653.00,0.0030
2652.00,0.0030
2651.00,0.0030
2650.00,0.0030
2649.00,0.0030
2648.00,0.0030
2647.00,0.0029
2646.00,0.0029
2645.00,0.0029
2644.00,0.0029
2643.00,0.0029
2642.00,0.0029
2641.00,0.0029
2640.00,0.0028
2639.00,0.0028
2638.00,0.0028
2637.00,0.0028
2636.00,0.0028
2635.00,0.0028
2634.00,0.0028
2633.00,0.0027
2632.00,0.0027
2631.00,0.0027
2630.00,0.0027
2629.00,0.0027
2628.00,0.0027
2627.00,0.0027
2626.00,0.0027
2625.00,0.0027
2624.00,0.0027
2623.00,0.0026
2622.00,0.0026
2621.00,0.0026
2620.00,0.0026
2619.00,0.0026
2618.00,0.0026
2617.00,0.0026
2616.00,0.0026
2615.00,0.0025
2614.00,0.0025
2613.00,0.0025
2612.00,0.0025
2611.00,0.0025
2610.00,0.0025
2609.00,0.0024
2608.00,0.0024
2607.00,0.0024
2606.00,0.0024
2605.00,0.0024
2604.00,0.0024
2603.00,0.0024
2602.00,0.0023
2601.00,0.0023
2600.00,0.0023
2599.00,0.0023
2598.00,0.0023
2597.00,0.0023
2596.00,0.0022
2595.00,0.0022
2594.00,0.0022
2593.00,0.0022
2592.00,0.0022
2591.00,0.0022
2590.00,0.0022
2589.00,0.0022
2588.00,0.0022
2587.00,0.0022
2586.00,0.0022
2585.00,0.0022
2584.00,0.0022
2583.00,0.0022
2582.00,0.0021
2581.00,0.0021
2580.00,0.0021
2579.00,0.0021
2578.00,0.0021
2577.00,0.0021
2576.00,0.0020
2575.00,0.0020
2574.00,0.0020
2573.00,0.0020
2572.00,0.0019
2571.00,0.0019
2570.00,0.0019
2569.00,0.0019
2568.00,0.0019
2567.00,0.0020
2566.00,0.0020
2565.00,0.0019
2564.00,0.0019
2563.00,0.0019
2562.00,0.0018
2561.00,0.0018
2560.00,0.0018
2559.00,0.0018
2558.00,0.0018
2557.00,0.0017
2556.00,0.0017
2555.00,0.0018
2554.00,0.0018
2553.00,0.0018
2552.00,0.0018
2551.00,0.0018
2550.00,0.0017
2549.00,0.0017
2548.00,0.0017
2547.00,0.0016
2546.00,0.0016
2545.00,0.0017
2544.00,0.0017
2543.00,0.0017
2542.00,0.0017
2541.00,0.0016
2540.00,0.0016
2539.00,0.0015
2538.00,0.0015
2537.00,0.0015
2536.00,0.0014
2535.00,0.0014
2534.00,0.0014
2533.00,0.0014
2532.00,0.0014
2531.00,0.0014
2530.00,0.0014
2529.00,0.0014
2528.00,0.0014
2527.00,0.0013
2526.00,0.0013
2525.00,0.0013
2524.00,0.0012
2523.00,0.0012
2522.00,0.0012
2521.00,0.0012
2520.00,0.0012
2519.00,0.0012
2518.00,0.0012
2517.00,0.0012
2516.00,0.0012
2515.00,0.0011
2514.00,0.0011
2513.00,0.0011
2512.00,0.0010
2511.00,0.0010
2510.00,0.0010
2509.00,0.0009
2508.00,0.0009
2507.00,0.0010
2506.00,0.0010
2505.00,0.0010
2504.00,0.0010
2503.00,0.0010
2502.00,0.0010
2501.00,0.0010
2500.00,0.0010
2499.00,0.0010
2498.00,0.0010
2497.00,0.0010
2496.00,0.0010
2495.00,0.0009
2494.00,0.0009
2493.00,0.0010
2492.00,0.0010
2491.00,0.0010
2490.00,0.0010
2489.00,0.0009
2488.00,0.0009
2487.00,0.0009
2486.00,0.0009
2485.00,0.0009
2484.00,0.0009
2483.00,0.0009
2482.00,0.0008
2481.00,0.0008
2480.00,0.0009
2479.00,0.0009
2478.00,0.0009
2477.00,0.0009
2476.00,0.0008
2475.00,0.0008
2474.00,0.0008
2473.00,0.0008
2472.00,0.0008
2471.00,0.0009
2470.00,0.0009
2469.00,0.0009
2468.00,0.0009
2467.00,0.0009
2466.00,0.0008
2465.00,0.0008
2464.00,0.0009
2463.00,0.0009
2462.00,0.0009
2461.00,0.0009
2460.00,0.0009
2459.00,0.0009
2458.00,0.0009
2457.00,0.0009
2456.00,0.0009
2455.00,0.0009
2454.00,0.0009
2453.00,0.0009
2452.00,0.0008
2451.00,0.0008
2450.00,0.0008
2449.00,0.0008
2448.00,0.0008
2447.00,0.0008
2446.00,0.0008
2445.00,0.0008
2444.00,0.0008
2443.00,0.0008
2442.00,0.0008
2441.00,0.0008
2440.00,0.0008
2439.00,0.0008
2438.00,0.0008
2437.00,0.0007
2436.00,0.0007
2435.00,0.0008
2434.00,0.0007
2433.00,0.0007
2432.00,0.0007
2431.00,0.0007
2430.00,0.0007
2429.00,0.0006
2428.00,0.0006
2427.00,0.0006
2426.00,0.0006
2425.00,0.0006
2424.00,0.0006
2423.00,0.0007
2422.00,0.0007
2421.00,0.0006
2420.00,0.0007
2419.00,0.0007
2418.00,0.0006
2417.00,0.0006
2416.00,0.0006
2415.00,0.0006
2414.00,0.0006
2413.00,0.0006
2412.00,0.0006
2411.00,0.0006
2410.00,0.0006
2409.00,0.0006
2408.00,0.0005
2407.00,0.0005
2406.00,0.0004
2405.00,0.0004
2404.00,0.0004
2403.00,0.0004
2402.00,0.0004
2401.00,0.0004
2400.00,0.0004
2399.00,0.0004
2398.00,0.0004
2397.00,0.0004
2396.00,0.0004
2395.00,0.0003
2394.00,0.0003
2393.00,0.0003
2392.00,0.0003
2391.00,0.0003
2390.00,0.0003
2389.00,0.0003
2388.00,0.0003
2387.00,0.0003
2386.00,0.0002
2385.00,0.0001
2384.00,0.0001
2383.00,-0.0000
2382.00,-0.0001
2381.00,-0.0002
2380.00,-0.0002
2379.00,-0.0002
2378.00,-0.0002
2377.00,-0.0002
2376.00,-0.0001
2375.00,-0.0001
2374.00,-0.0001
2373.00,-0.0001
2372.00,-0.0001
2371.00,-0.0001
2370.00,-0.0002
2369.00,-0.0002
2368.00,-0.0003
2367.00,-0.0002
2366.00,-0.0002
2365.00,-0.0002
2364.00,-0.0001
2363.00,-0.0001
2362.00,-0.0001
2361.00,-0.0001
2360.00,-0.0001
2359.00,-0.0001
2358.00,-0.0001
2357.00,-0.0000
2356.00,0.0000
2355.00,0.0000
2354.00,0.0000
2353.00,-0.0000
2352.00,0.0000
2351.00,0.0000
2350.00,0.0000
2349.00,0.0001
2348.00,0.0001
2347.00,0.0002
2346.00,0.0002
2345.00,0.0002
2344.00,0.0002
2343.00,0.0002
2342.00,0.0002
2341.00,0.0003
2340.00,0.0004
2339.00,0.0004
2338.00,0.0004
2337.00,0.0004
2336.00,0.0004
2335.00,0.0004
2334.00,0.0004
2333.00,0.0004
2332.00,0.0004
2331.00,0.0004
2330.00,0.0005
2329.00,0.0006
2328.00,0.0009
2327.00,0.0013
2326.00,0.0016
2325.00,0.0017
2324.00,0.0016
2323.00,0.0014
2322.00,0.0012
2321.00,0.0010
2320.00,0.0009
2319.00,0.0009
2318.00,0.0008
2317.00,0.0008
2316.00,0.0008
2315.00,0.0007
2314.00,0.0007
2313.00,0.0006
2312.00,0.0006
2311.00,0.0006
2310.00,0.0006
2309.00,0.0005
2308.00,0.0006
2307.00,0.0006
2306.00,0.0006
2305.00,0.0006
2304.00,0.0006
2303.00,0.0007
2302.00,0.0008
2301.00,0.0008
2300.00,0.0009
2299.00,0.0009
2298.00,0.0009
2297.00,0.0009
2296.00,0.0010
2295.00,0.0011
2294.00,0.0012
2293.00,0.0013
2292.00,0.0014
2291.00,0.0015
2290.00,0.0015
2289.00,0.0016
2288.00,0.0016
2287.00,0.0017
2286.00,0.0017
2285.00,0.0016
2284.00,0.0016
2283.00,0.0015
2282.00,0.0014
2281.00,0.0014
2280.00,0.0013
2279.00,0.0013
2278.00,0.0012
2277.00,0.0012
2276.00,0.0011
2275.00,0.0011
2274.00,0.0011
2273.00,0.0010
2272.00,0.0010
2271.00,0.0010
2270.00,0.0010
2269.00,0.0009
2268.00,0.0009
2267.00,0.0008
2266.00,0.0007
2265.00,0.0007
2264.00,0.0008
2263.00,0.0009
2262.00,0.0009
2261.00,0.0010
2260.00,0.0010
2259.00,0.0011
2258.00,0.0010
2257.00,0.0009
2256.00,0.0008
2255.00,0.0007
2254.00,0.0005
2253.00,0.0005
2252.00,0.0005
2251.00,0.0005
2250.00,0.0006
2249.00,0.0006
2248.00,0.0007
2247.00,0.0007
2246.00,0.0007
2245.00,0.0007
2244.00,0.0007
2243.00,0.0007
2242.00,0.0007
2241.00,0.0007
2240.00,0.0008
2239.00,0.0008
2238.00,0.0008
2237.00,0.0009
2236.00,0.0010
2235.00,0.0010
2234.00,0.0009
2233.00,0.0008
2232.00,0.0007
2231.00,0.0006
2230.00,0.0006
2229.00,0.0007
2228.00,0.0008
2227.00,0.0008
2226.00,0.0007
2225.00,0.0006
2224.00,0.0006
2223.00,0.0006
2222.00,0.0007
2221.00,0.0007
2220.00,0.0007
2219.00,0.0006
2218.00,0.0006
2217.00,0.0005
2216.00,0.0006
2215.00,0.0007
2214.00,0.0008
2213.00,0.0008
2212.00,0.0008
2211.00,0.0007
2210.00,0.0007
2209.00,0.0006
2208.00,0.0006
2207.00,0.0006
2206.00,0.0006
2205.00,0.0007
2204.00,0.0007
2203.00,0.0007
2202.00,0.0007
2201.00,0.0008
2200.00,0.0007
2199.00,0.0007
2198.00,0.0005
2197.00,0.0005
2196.00,0.0005
2195.00,0.0006
2194.00,0.0007
2193.00,0.0007
2192.00,0.0008
2191.00,0.0009
2190.00,0.0010
2189.00,0.0011
2188.00,0.0011
2187.00,0.0011
2186.00,0.0009
2185.00,0.0008
2184.00,0.0006
2183.00,0.0005
2182.00,0.0004
2181.00,0.0005
2180.00,0.0006
2179.00,0.0006
2178.00,0.0005
2177.00,0.0004
2176.00,0.0003
2175.00,0.0004
2174.00,0.0005
2173.00,0.0007
2172.00,0.0009
2171.00,0.0011
2170.00,0.0013
2169.00,0.0014
2168.00,0.0014
2167.00,0.0013
2166.00,0.0012
2165.00,0.0013
2164.00,0.0015
2163.00,0.0016
2162.00,0.0012
2161.00,0.0004
2160.00,-0.0008
2159.00,-0.0019
2158.00,-0.0025
2157.00,-0.0027
2156.00,-0.0024
2155.00,-0.0020
2154.00,-0.0017
2153.00,-0.0015
2152.00,-0.0014
2151.00,-0.0014
2150.00,-0.0013
2149.00,-0.0013
2148.00,-0.0013
2147.00,-0.0013
2146.00,-0.0013
2145.00,-0.0012
2144.00,-0.0012
2143.00,-0.0011
2142.00,-0.0011
2141.00,-0.0010
2140.00,-0.0009
2139.00,-0.0009
2138.00,-0.0011
2137.00,-0.0013
2136.00,-0.0015
2135.00,-0.0017
2134.00,-0.0017
2133.00,-0.0016
2132.00,-0.0014
2131.00,-0.0012
2130.00,-0.0010
2129.00,-0.0009
2128.00,-0.0008
2127.00,-0.0007
2126.00,-0.0007
2125.00,-0.0006
2124.00,-0.0006
2123.00,-0.0005
2122.00,-0.0004
2121.00,-0.0003
2120.00,-0.0002
2119.00,-0.0001
2118.00,0.0001
2117.00,0.0002
2116.00,0.0003
2115.00,0.0003
2114.00,0.0003
2113.00,0.0003
2112.00,0.0003
2111.00,0.0004
2110.00,0.0004
2109.00,0.0004
2108.00,0.0004
2107.00,0.0004
2106.00,0.0003
2105.00,0.0003
2104.00,0.0002
2103.00,0.0002
2102.00,0.0002
2101.00,0.0003
2100.00,0.0003
2099.00,0.0002
2098.00,0.0001
2097.00,-0.0000
2096.00,-0.0002
2095.00,-0.0002
2094.00,-0.0002
2093.00,-0.0000
2092.00,0.0001
2091.00,0.0003
2090.00,0.0004
2089.00,0.0005
2088.00,0.0005
2087.00,0.0005
2086.00,0.0004
2085.00,0.0003
2084.00,0.0003
2083.00,0.0004
2082.00,0.0004
2081.00,0.0005
2080.00,0.0006
2079.00,0.0007
2078.00,0.0007
2077.00,0.0007
2076.00,0.0007
2075.00,0.0006
2074.00,0.0005
2073.00,0.0004
2072.00,0.0003
2071.00,0.0003
2070.00,0.0003
2069.00,0.0004
2068.00,0.0006
2067.00,0.0007
2066.00,0.0007
2065.00,0.0006
2064.00,0.0005
2063.00,0.0004
2062.00,0.0003
2061.00,0.0003
2060.00,0.0004
2059.00,0.0004
2058.00,0.0005
2057.00,0.0005
2056.00,0.0005
2055.00,0.0006
2054.00,0.0008
2053.00,0.0011
2052.00,0.0014
2051.00,0.0014
2050.00,0.0012
2049.00,0.0008
2048.00,0.0006
2047.00,0.0006
2046.00,0.0006
2045.00,0.0006
2044.00,0.0006
2043.00,0.0006
2042.00,0.0006
2041.00,0.0006
2040.00,0.0007
2039.00,0.0008
2038.00,0.0008
2037.00,0.0008
2036.00,0.0008
2035.00,0.0007
2034.00,0.0005
2033.00,0.0002
2032.00,-0.0001
2031.00,-0.0004
2030.00,-0.0006
2029.00,-0.0006
2028.00,-0.0004
2027.00,-0.0002
2026.00,-0.0001
2025.00,-0.0000
2024.00,0.0001
2023.00,0.0001
2022.00,0.0001
2021.00,0.0002
2020.00,0.0003
2019.00,0.0002
2018.00,0.0001
2017.00,-0.0001
2016.00,-0.0002
2015.00,-0.0003
2014.00,-0.0004
2013.00,-0.0004
2012.00,-0.0003
2011.00,-0.0003
2010.00,-0.0003
2009.00,-0.0004
2008.00,-0.0006
2007.00,-0.0008
2006.00,-0.0009
2005.00,-0.0008
2004.00,-0.0007
2003.00,-0.0005
2002.00,-0.0005
2001.00,-0.0005
2000.00,-0.0004
1999.00,-0.0003
1998.00,-0.0002
1997.00,-0.0001
1996.00,0.0001
1995.00,0.0002
1994.00,0.0002
1993.00,0.0002
1992.00,0.0002
1991.00,0.0003
1990.00,0.0003
1989.00,0.0004
1988.00,0.0005
1987.00,0.0006
1986.00,0.0007
1985.00,0.0007
1984.00,0.0009
1983.00,0.0012
1982.00,0.0016
1981.00,0.0017
1980.00,0.0014
1979.00,0.0007
1978.00,-0.0000
1977.00,-0.0005
1976.00,-0.0007
1975.00,-0.0006
1974.00,-0.0005
1973.00,-0.0005
1972.00,-0.0005
1971.00,-0.0006
1970.00,-0.0006
1969.00,-0.0006
1968.00,-0.0007
1967.00,-0.0007
1966.00,-0.0008
1965.00,-0.0008
1964.00,-0.0007
1963.00,-0.0006
1962.00,-0.0006
1961.00,-0.0007
1960.00,-0.0008
1959.00,-0.0009
1958.00,-0.0009
1957.00,-0.0008
1956.00,-0.0007
1955.00,-0.0006
1954.00,-0.0006
1953.00,-0.0005
1952.00,-0.0005
1951.00,-0.0005
1950.00,-0.0005
1949.00,-0.0006
1948.00,-0.0006
1947.00,-0.0006
1946.00,-0.0006
1945.00,-0.0005
1944.00,-0.0004
1943.00,-0.0003
1942.00,-0.0003
1941.00,-0.0003
1940.00,-0.0003
1939.00,-0.0004
1938.00,-0.0004
1937.00,-0.0004
1936.00,-0.0004
1935.00,-0.0003
1934.00,-0.0003
1933.00,-0.0002
1932.00,-0.0002
1931.00,-0.0002
1930.00,-0.0002
1929.00,-0.0003
1928.00,-0.0002
1927.00,-0.0002
1926.00,-0.0003
1925.00,-0.0003
1924.00,-0.0003
1923.00,-0.0002
1922.00,-0.0002
1921.00,-0.0001
1920.00,-0.0000
1919.00,0.0000
1918.00,0.0001
1917.00,0.0001
1916.00,0.0001
1915.00,0.0001
1914.00,0.0000
1913.00,-0.0000
1912.00,-0.0000
1911.00,-0.0000
1910.00,0.0000
1909.00,0.0001
1908.00,0.0001
1907.00,0.0002
1906.00,0.0001
1905.00,0.0001
1904.00,0.0001
1903.00,0.0002
1902.00,0.0002
1901.00,0.0002
1900.00,0.0002
1899.00,0.0001
1898.00,0.0001
1897.00,0.0001
1896.00,0.0002
1895.00,0.0002
1894.00,0.0002
1893.00,0.0002
1892.00,0.0001
1891.00,0.0001
1890.00,0.0000
1889.00,0.0001
1888.00,0.0001
1887.00,0.0001
1886.00,0.0002
1885.00,0.0002
1884.00,0.0002
1883.00,0.0002
1882.00,0.0002
1881.00,0.0003
1880.00,0.0003
1879.00,0.0003
1878.00,0.0002
1877.00,0.0002
1876.00,0.0002
1875.00,0.0002
1874.00,0.0001
1873.00,0.0001
1872.00,0.0001
1871.00,0.0001
1870.00,0.0001
1869.00,0.0001
1868.00,0.0001
1867.00,0.0002
1866.00,0.0002
1865.00,0.0002
1864.00,0.0003
1863.00,0.0003
1862.00,0.0003
1861.00,0.0002
1860.00,0.0002
1859.00,0.0002
1858.00,0.0002
1857.00,0.0003
1856.00,0.0003
1855.00,0.0004
1854.00,0.0004
1853.00,0.0003
1852.00,0.0003
1851.00,0.0002
1850.00,0.0002
1849.00,0.0002
1848.00,0.0003
1847.00,0.0003
1846.00,0.0003
1845.00,0.0003
1844.00,0.0003
1843.00,0.0003
1842.00,0.0003
1841.00,0.0002
1840.00,0.0002
1839.00,0.0003
1838.00,0.0003
1837.00,0.0003
1836.00,0.0003
1835.00,0.0003
1834.00,0.0003
1833.00,0.0003
1832.00,0.0003
1831.00,0.0003
1830.00,0.0003
1829.00,0.0003
1828.00,0.0003
1827.00,0.0003
1826.00,0.0003
1825.00,0.0003
1824.00,0.0003
1823.00,0.0004
1822.00,0.0003
1821.00,0.0003
1820.00,0.0003
1819.00,0.0003
1818.00,0.0002
1817.00,0.0002
1816.00,0.0002
1815.00,0.0002
1814.00,0.0003
1813.00,0.0003
1812.00,0.0004
1811.00,0.0004
1810.00,0.0004
1809.00,0.0005
1808.00,0.0005
1807.00,0.0005
1806.00,0.0005
1805.00,0.0005
1804.00,0.0006
1803.00,0.0006
1802.00,0.0005
1801.00,0.0005
1800.00,0.0005
1799.00,0.0006
1798.00,0.0006
1797.00,0.0006
1796.00,0.0006
1795.00,0.0006
1794.00,0.0006
1793.00,0.0006
1792.00,0.0007
1791.00,0.0007
1790.00,0.0008
1789.00,0.0008
1788.00,0.0008
1787.00,0.0008
1786.00,0.0008
1785.00,0.0008
1784.00,0.0009
1783.00,0.0009
1782.00,0.0009
1781.00,0.0009
1780.00,0.0009
1779.00,0.0009
1778.00,0.0009
1777.00,0.0009
1776.00,0.0009
1775.00,0.0009
1774.00,0.0009
1773.00,0.0009
1772.00,0.0010
1771.00,0.0010
1770.00,0.0010
1769.00,0.0010
1768.00,0.0011
1767.00,0.0012
1766.00,0.0012
1765.00,0.0012
1764.00,0.0012
1763.00,0.0012
1762.00,0.0013
1761.00,0.0013
1760.00,0.0013
1759.00,0.0014
1758.00,0.0014
1757.00,0.0014
1756.00,0.0015
1755.00,0.0015
1754.00,0.0015
1753.00,0.0015
1752.00,0.0015
1751.00,0.0016
1750.00,0.0016
1749.00,0.0015
1748.00,0.0016
1747.00,0.0016
1746.00,0.0017
1745.00,0.0017
1744.00,0.0018
1743.00,0.0018
1742.00,0.0018
1741.00,0.0018
1740.00,0.0019
1739.00,0.0020
1738.00,0.0020
1737.00,0.0020
1736.00,0.0021
1735.00,0.0021
1734.00,0.0021
1733.00,0.0022
1732.00,0.0023
1731.00,0.0024
1730.00,0.0025
1729.00,0.0026
1728.00,0.0028
1727.00,0.0029
1726.00,0.0030
1725.00,0.0032
1724.00,0.0033
1723.00,0.0035
1722.00,0.0036
1721.00,0.0036
1720.00,0.0037
1719.00,0.0039
1718.00,0.0040
1717.00,0.0042
1716.00,0.0045
1715.00,0.0047
1714.00,0.0049
1713.00,0.0052
1712.00,0.0056
1711.00,0.0060
1710.00,0.0064
1709.00,0.0069
1708.00,0.0075
1707.00,0.0082
1706.00,0.0089
1705.00,0.0099
1704.00,0.0108
1703.00,0.0118
1702.00,0.0129
1701.00,0.0145
1700.00,0.0167
1699.00,0.0188
1698.00,0.0206
1697.00,0.0227
1696.00,0.0256
1695.00,0.0288
1694.00,0.0316
1693.00,0.0341
1692.00,0.0367
1691.00,0.0396
1690.00,0.0424
1689.00,0.0452
1688.00,0.0477
1687.00,0.0499
1686.00,0.0521
1685.00,0.0542
1684.00,0.0563
1683.00,0.0579
1682.00,0.0590
1681.00,0.0600
1680.00,0.0611
1679.00,0.0620
1678.00,0.0627
1677.00,0.0631
1676.00,0.0632
1675.00,0.0630
1674.00,0.0627
1673.00,0.0625
1672.00,0.0626
1671.00,0.0627
1670.00,0.0627
1669.00,0.0627
1668.00,0.0628
1667.00,0.0632
1666.00,0.0638
1665.00,0.0645
1664.00,0.0653
1663.00,0.0660
1662.00,0.0665
1661.00,0.0670
1660.00,0.0675
1659.00,0.0681
1658.00,0.0686
1657.00,0.0691
1656.00,0.0697
1655.00,0.0700
1654.00,0.0696
1653.00,0.0679
1652.00,0.0662
1651.00,0.0652
1650.00,0.0647
1649.00,0.0642
1648.00,0.0631
1647.00,0.0611
1646.00,0.0585
1645.00,0.0561
1644.00,0.0540
1643.00,0.0522
1642.00,0.0503
1641.00,0.0483
1640.00,0.0462
1639.00,0.0443
1638.00,0.0424
1637.00,0.0402
1636.00,0.0377
1635.00,0.0351
1634.00,0.0332
1633.00,0.0318
1632.00,0.0308
1631.00,0.0301
1630.00,0.0294
1629.00,0.0290
1628.00,0.0288
1627.00,0.0290
1626.00,0.0296
1625.00,0.0305
1624.00,0.0319
1623.00,0.0335
1622.00,0.0352
1621.00,0.0366
1620.00,0.0378
1619.00,0.0386
1618.00,0.0389
1617.00,0.0385
1616.00,0.0376
1615.00,0.0367
1614.00,0.0359
1613.00,0.0354
1612.00,0.0349
1611.00,0.0344
1610.00,0.0338
1609.00,0.0329
1608.00,0.0318
1607.00,0.0303
1606.00,0.0285
1605.00,0.0266
1604.00,0.0246
1603.00,0.0227
1602.00,0.0209
1601.00,0.0194
1600.00,0.0181
1599.00,0.0171
1598.00,0.0164
1597.00,0.0161
1596.00,0.0160
1595.00,0.0164
1594.00,0.0171
1593.00,0.0182
1592.00,0.0197
1591.00,0.0217
1590.00,0.0238
1589.00,0.0260
1588.00,0.0279
1587.00,0.0295
1586.00,0.0305
1585.00,0.0308
1584.00,0.0304
1583.00,0.0295
1582.00,0.0281
1581.00,0.0264
1580.00,0.0248
1579.00,0.0233
1578.00,0.0218
1577.00,0.0203
1576.00,0.0187
1575.00,0.0175
1574.00,0.0167
1573.00,0.0161
1572.00,0.0156
1571.00,0.0150
1570.00,0.0144
1569.00,0.0138
1568.00,0.0132
1567.00,0.0127
1566.00,0.0123
1565.00,0.0119
1564.00,0.0115
1563.00,0.0111
1562.00,0.0108
1561.00,0.0105
1560.00,0.0100
1559.00,0.0093
1558.00,0.0089
1557.00,0.0086
1556.00,0.0084
1555.00,0.0083
1554.00,0.0083
1553.00,0.0083
1552.00,0.0082
1551.00,0.0081
1550.00,0.0080
1549.00,0.0079
1548.00,0.0078
1547.00,0.0077
1546.00,0.0076
1545.00,0.0075
1544.00,0.0074
1543.00,0.0072
1542.00,0.0070
1541.00,0.0068
1540.00,0.0067
1539.00,0.0067
1538.00,0.0068
1537.00,0.0068
1536.00,0.0069
1535.00,0.0069
1534.00,0.0070
1533.00,0.0070
1532.00,0.0071
1531.00,0.0072
1530.00,0.0073
1529.00,0.0074
1528.00,0.0075
1527.00,0.0076
1526.00,0.0078
1525.00,0.0079
1524.00,0.0081
1523.00,0.0083
1522.00,0.0086
1521.00,0.0090
1520.00,0.0093
1519.00,0.0096
1518.00,0.0099
1517.00,0.0103
1516.00,0.0106
1515.00,0.0108
1514.00,0.0110
1513.00,0.0111
1512.00,0.0112
1511.00,0.0113
1510.00,0.0113
1509.00,0.0114
1508.00,0.0114
1507.00,0.0115
1506.00,0.0117
1505.00,0.0121
1504.00,0.0126
1503.00,0.0134
1502.00,0.0144
1501.00,0.0156
1500.00,0.0170
1499.00,0.0184
1498.00,0.0200
1497.00,0.0213
1496.00,0.0222
1495.00,0.0227
1494.00,0.0228
1493.00,0.0226
1492.00,0.0221
1491.00,0.0212
1490.00,0.0200
1489.00,0.0186
1488.00,0.0172
1487.00,0.0160
1486.00,0.0148
1485.00,0.0138
1484.00,0.0130
1483.00,0.0123
1482.00,0.0117
1481.00,0.0113
1480.00,0.0110
1479.00,0.0109
1478.00,0.0109
1477.00,0.0110
1476.00,0.0113
1475.00,0.0117
1474.00,0.0124
1473.00,0.0134
1472.00,0.0149
1471.00,0.0166
1470.00,0.0184
1469.00,0.0204
1468.00,0.0225
1467.00,0.0248
1466.00,0.0272
1465.00,0.0298
1464.00,0.0321
1463.00,0.0341
1462.00,0.0355
1461.00,0.0366
1460.00,0.0373
1459.00,0.0374
1458.00,0.0366
1457.00,0.0350
1456.00,0.0330
1455.00,0.0314
1454.00,0.0302
1453.00,0.0293
1452.00,0.0287
1451.00,0.0284
1450.00,0.0284
1449.00,0.0289
1448.00,0.0297
1447.00,0.0308
1446.00,0.0321
1445.00,0.0334
1444.00,0.0349
1443.00,0.0362
1442.00,0.0376
1441.00,0.0388
1440.00,0.0400
1439.00,0.0411
1438.00,0.0423
1437.00,0.0435
1436.00,0.0447
1435.00,0.0458
1434.00,0.0468
1433.00,0.0478
1432.00,0.0487
1431.00,0.0495
1430.00,0.0501
1429.00,0.0508
1428.00,0.0515
1427.00,0.0523
1426.00,0.0533
1425.00,0.0544
1424.00,0.0556
1423.00,0.0564
1422.00,0.0569
1421.00,0.0569
1420.00,0.0559
1419.00,0.0537
1418.00,0.0509
1417.00,0.0481
1416.00,0.0454
1415.00,0.0430
1414.00,0.0408
1413.00,0.0389
1412.00,0.0374
1411.00,0.0364
1410.00,0.0358
1409.00,0.0357
1408.00,0.0359
1407.00,0.0364
1406.00,0.0370
1405.00,0.0378
1404.00,0.0385
1403.00,0.0391
1402.00,0.0393
1401.00,0.0393
1400.00,0.0386
1399.00,0.0372
1398.00,0.0355
1397.00,0.0335
1396.00,0.0313
1395.00,0.0290
1394.00,0.0268
1393.00,0.0249
1392.00,0.0235
1391.00,0.0224
1390.00,0.0216
1389.00,0.0211
1388.00,0.0208
1387.00,0.0208
1386.00,0.0211
1385.00,0.0217
1384.00,0.0225
1383.00,0.0235
1382.00,0.0245
1381.00,0.0254
1380.00,0.0261
1379.00,0.0265
1378.00,0.0267
1377.00,0.0266
1376.00,0.0262
1375.00,0.0258
1374.00,0.0252
1373.00,0.0246
1372.00,0.0240
1371.00,0.0236
1370.00,0.0232
1369.00,0.0228
1368.00,0.0226
1367.00,0.0225
1366.00,0.0227
1365.00,0.0232
1364.00,0.0239
1363.00,0.0248
1362.00,0.0256
1361.00,0.0261
1360.00,0.0260
1359.00,0.0254
1358.00,0.0242
1357.00,0.0228
1356.00,0.0212
1355.00,0.0197
1354.00,0.0185
1353.00,0.0175
1352.00,0.0168
1351.00,0.0163
1350.00,0.0160
1349.00,0.0158
1348.00,0.0157
1347.00,0.0156
1346.00,0.0155
1345.00,0.0155
1344.00,0.0154
1343.00,0.0155
1342.00,0.0155
1341.00,0.0156
1340.00,0.0157
1339.00,0.0158
1338.00,0.0160
1337.00,0.0163
1336.00,0.0166
1335.00,0.0169
1334.00,0.0172
1333.00,0.0176
1332.00,0.0179
1331.00,0.0182
1330.00,0.0186
1329.00,0.0190
1328.00,0.0193
1327.00,0.0197
1326.00,0.0202
1325.00,0.0207
1324.00,0.0212
1323.00,0.0218
1322.00,0.0223
1321.00,0.0228
1320.00,0.0232
1319.00,0.0234
1318.00,0.0234
1317.00,0.0233
1316.00,0.0230
1315.00,0.0227
1314.00,0.0223
1313.00,0.0219
1312.00,0.0215
1311.00,0.0213
1310.00,0.0212
1309.00,0.0212
1308.00,0.0214
1307.00,0.0218
1306.00,0.0223
1305.00,0.0229
1304.00,0.0236
1303.00,0.0245
1302.00,0.0255
1301.00,0.0268
1300.00,0.0284
1299.00,0.0304
1298.00,0.0328
1297.00,0.0356
1296.00,0.0388
1295.00,0.0423
1294.00,0.0458
1293.00,0.0493
1292.00,0.0525
1291.00,0.0554
1290.00,0.0580
1289.00,0.0602
1288.00,0.0620
1287.00,0.0632
1286.00,0.0639
1285.00,0.0639
1284.00,0.0634
1283.00,0.0624
1282.00,0.0610
1281.00,0.0594
1280.00,0.0578
1279.00,0.0563
1278.00,0.0552
1277.00,0.0544
1276.00,0.0539
1275.00,0.0537
1274.00,0.0536
1273.00,0.0535
1272.00,0.0531
1271.00,0.0524
1270.00,0.0514
1269.00,0.0500
1268.00,0.0482
1267.00,0.0462
1266.00,0.0440
1265.00,0.0417
1264.00,0.0394
1263.00,0.0372
1262.00,0.0350
1261.00,0.0330
1260.00,0.0311
1259.00,0.0294
1258.00,0.0278
1257.00,0.0264
1256.00,0.0252
1255.00,0.0240
1254.00,0.0231
1253.00,0.0224
1252.00,0.0219
1251.00,0.0215
1250.00,0.0215
1249.00,0.0216
1248.00,0.0220
1247.00,0.0226
1246.00,0.0236
1245.00,0.0246
1244.00,0.0258
1243.00,0.0270
1242.00,0.0282
1241.00,0.0292
1240.00,0.0301
1239.00,0.0308
1238.00,0.0313
1237.00,0.0317
1236.00,0.0321
1235.00,0.0323
1234.00,0.0324
1233.00,0.0324
1232.00,0.0323
1231.00,0.0321
1230.00,0.0318
1229.00,0.0315
1228.00,0.0312
1227.00,0.0309
1226.00,0.0307
1225.00,0.0306
1224.00,0.0305
1223.00,0.0305
1222.00,0.0306
1221.00,0.0307
1220.00,0.0308
1219.00,0.0308
1218.00,0.0307
1217.00,0.0303
1216.00,0.0297
1215.00,0.0288
1214.00,0.0277
1213.00,0.0264
1212.00,0.0250
1211.00,0.0236
1210.00,0.0224
1209.00,0.0213
1208.00,0.0203
1207.00,0.0197
1206.00,0.0192
1205.00,0.0191
1204.00,0.0192
1203.00,0.0195
1202.00,0.0202
1201.00,0.0212
1200.00,0.0223
1199.00,0.0237
1198.00,0.0251
1197.00,0.0265
1196.00,0.0278
1195.00,0.0289
1194.00,0.0295
1193.00,0.0296
1192.00,0.0291
1191.00,0.0280
1190.00,0.0266
1189.00,0.0250
1188.00,0.0233
1187.00,0.0217
1186.00,0.0202
1185.00,0.0190
1184.00,0.0179
1183.00,0.0170
1182.00,0.0163
1181.00,0.0158
1180.00,0.0154
1179.00,0.0152
1178.00,0.0151
1177.00,0.0152
1176.00,0.0153
1175.00,0.0154
1174.00,0.0157
1173.00,0.0159
1172.00,0.0161
1171.00,0.0163
1170.00,0.0165
1169.00,0.0167
1168.00,0.0169
1167.00,0.0171
1166.00,0.0174
1165.00,0.0179
1164.00,0.0186
1163.00,0.0196
1162.00,0.0210
1161.00,0.0225
1160.00,0.0241
1159.00,0.0257
1158.00,0.0271
1157.00,0.0280
1156.00,0.0283
1155.00,0.0281
1154.00,0.0273
1153.00,0.0261
1152.00,0.0246
1151.00,0.0229
1150.00,0.0211
1149.00,0.0193
1148.00,0.0176
1147.00,0.0161
1146.00,0.0148
1145.00,0.0137
1144.00,0.0128
1143.00,0.0122
1142.00,0.0118
1141.00,0.0116
1140.00,0.0116
1139.00,0.0118
1138.00,0.0124
1137.00,0.0134
1136.00,0.0148
1135.00,0.0166
1134.00,0.0189
1133.00,0.0215
1132.00,0.0240
1131.00,0.0262
1130.00,0.0277
1129.00,0.0281
1128.00,0.0274
1127.00,0.0257
1126.00,0.0234
1125.00,0.0209
1124.00,0.0185
1123.00,0.0164
1122.00,0.0148
1121.00,0.0136
1120.00,0.0127
1119.00,0.0120
1118.00,0.0116
1117.00,0.0113
1116.00,0.0112
1115.00,0.0111
1114.00,0.0112
1113.00,0.0113
1112.00,0.0115
1111.00,0.0117
1110.00,0.0120
1109.00,0.0123
1108.00,0.0127
1107.00,0.0132
1106.00,0.0138
1105.00,0.0145
1104.00,0.0153
1103.00,0.0162
1102.00,0.0171
1101.00,0.0178
1100.00,0.0181
1099.00,0.0180
1098.00,0.0176
1097.00,0.0169
1096.00,0.0160
1095.00,0.0151
1094.00,0.0142
1093.00,0.0134
1092.00,0.0126
1091.00,0.0119
1090.00,0.0114
1089.00,0.0109
1088.00,0.0106
1087.00,0.0104
1086.00,0.0104
1085.00,0.0105
1084.00,0.0105
1083.00,0.0106
1082.00,0.0109
1081.00,0.0112
1080.00,0.0116
1079.00,0.0121
1078.00,0.0127
1077.00,0.0133
1076.00,0.0139
1075.00,0.0146
1074.00,0.0153
1073.00,0.0162
1072.00,0.0172
1071.00,0.0184
1070.00,0.0198
1069.00,0.0215
1068.00,0.0235
1067.00,0.0257
1066.00,0.0283
1065.00,0.0312
1064.00,0.0342
1063.00,0.0374
1062.00,0.0406
1061.00,0.0437
1060.00,0.0463
1059.00,0.0484
1058.00,0.0497
1057.00,0.0500
1056.00,0.0491
1055.00,0.0472
1054.00,0.0443
1053.00,0.0408
1052.00,0.0369
1051.00,0.0330
1050.00,0.0294
1049.00,0.0263
1048.00,0.0237
1047.00,0.0216
1046.00,0.0200
1045.00,0.0188
1044.00,0.0179
1043.00,0.0172
1042.00,0.0168
1041.00,0.0165
1040.00,0.0163
1039.00,0.0162
1038.00,0.0163
1037.00,0.0164
1036.00,0.0166
1035.00,0.0171
1034.00,0.0177
1033.00,0.0184
1032.00,0.0191
1031.00,0.0196
1030.00,0.0198
1029.00,0.0196
1028.00,0.0189
1027.00,0.0180
1026.00,0.0170
1025.00,0.0160
1024.00,0.0153
1023.00,0.0147
1022.00,0.0145
1021.00,0.0144
1020.00,0.0145
1019.00,0.0145
1018.00,0.0145
1017.00,0.0145
1016.00,0.0142
1015.00,0.0139
1014.00,0.0134
1013.00,0.0130
1012.00,0.0125
1011.00,0.0122
1010.00,0.0121
1009.00,0.0123
1008.00,0.0128
1007.00,0.0135
1006.00,0.0145
1005.00,0.0154
1004.00,0.0161
1003.00,0.0166
1002.00,0.0168
1001.00,0.0167
1000.00,0.0162
999.00,0.0156
998.00,0.0150
997.00,0.0144
996.00,0.0139
995.00,0.0134
994.00,0.0130
993.00,0.0126
992.00,0.0122
991.00,0.0117
990.00,0.0113
989.00,0.0108
988.00,0.0103
987.00,0.0099
986.00,0.0095
985.00,0.0091
984.00,0.0088
983.00,0.0086
982.00,0.0085
981.00,0.0086
980.00,0.0086
979.00,0.0087
978.00,0.0089
977.00,0.0090
976.00,0.0090
975.00,0.0089
974.00,0.0089
973.00,0.0088
972.00,0.0086
971.00,0.0083
970.00,0.0081
969.00,0.0079
968.00,0.0077
967.00,0.0075
966.00,0.0074
965.00,0.0073
964.00,0.0072
963.00,0.0070
962.00,0.0069
961.00,0.0068
960.00,0.0066
959.00,0.0065
958.00,0.0063
957.00,0.0062
956.00,0.0060
955.00,0.0059
954.00,0.0058
953.00,0.0058
952.00,0.0057
951.00,0.0057
950.00,0.0057
949.00,0.0058
948.00,0.0058
947.00,0.0059
946.00,0.0061
945.00,0.0063
944.00,0.0065
943.00,0.0068
942.00,0.0072
941.00,0.0077
940.00,0.0083
939.00,0.0089
938.00,0.0097
937.00,0.0104
936.00,0.0111
935.00,0.0118
934.00,0.0123
933.00,0.0126
932.00,0.0127
931.00,0.0125
930.00,0.0124
929.00,0.0122
928.00,0.0121
927.00,0.0121
926.00,0.0121
925.00,0.0121
924.00,0.0120
923.00,0.0118
922.00,0.0116
921.00,0.0113
920.00,0.0110
919.00,0.0106
918.00,0.0103
917.00,0.0100
916.00,0.0096
915.00,0.0093
914.00,0.0090
913.00,0.0088
912.00,0.0086
911.00,0.0085
910.00,0.0086
909.00,0.0087
908.00,0.0088
907.00,0.0090
906.00,0.0095
905.00,0.0100
904.00,0.0106
903.00,0.0113
902.00,0.0121
901.00,0.0129
900.00,0.0136
899.00,0.0142
898.00,0.0146
897.00,0.0149
896.00,0.0149
895.00,0.0146
894.00,0.0143
893.00,0.0137
892.00,0.0131
891.00,0.0126
890.00,0.0121
889.00,0.0118
888.00,0.0115
887.00,0.0114
886.00,0.0114
885.00,0.0116
884.00,0.0119
883.00,0.0122
882.00,0.0128
881.00,0.0134
880.00,0.0141
879.00,0.0148
878.00,0.0157
877.00,0.0167
876.00,0.0176
875.00,0.0185
874.00,0.0194
873.00,0.0202
872.00,0.0209
871.00,0.0213
870.00,0.0216
869.00,0.0217
868.00,0.0216
867.00,0.0215
866.00,0.0214
865.00,0.0213
864.00,0.0212
863.00,0.0212
862.00,0.0212
861.00,0.0211
860.00,0.0211
859.00,0.0212
858.00,0.0214
857.00,0.0216
856.00,0.0219
855.00,0.0222
854.00,0.0226
853.00,0.0231
852.00,0.0235
851.00,0.0240
850.00,0.0245
849.00,0.0250
848.00,0.0253
847.00,0.0256
846.00,0.0259
845.00,0.0261
844.00,0.0263
843.00,0.0263
842.00,0.0264
841.00,0.0264
840.00,0.0263
839.00,0.0262
838.00,0.0263
837.00,0.0263
836.00,0.0264
835.00,0.0265
834.00,0.0267
833.00,0.0268
832.00,0.0268
831.00,0.0268
830.00,0.0268
829.00,0.0268
828.00,0.0267
827.00,0.0266
826.00,0.0266
825.00,0.0267
824.00,0.0268
823.00,0.0270
822.00,0.0274
821.00,0.0278
820.00,0.0282
819.00,0.0287
818.00,0.0292
817.00,0.0297
816.00,0.0299
815.00,0.0301
814.00,0.0301
813.00,0.0299
812.00,0.0292
811.00,0.0282
810.00,0.0268
809.00,0.0250
808.00,0.0229
807.00,0.0207
806.00,0.0187
805.00,0.0169
804.00,0.0154
803.00,0.0143
802.00,0.0136
801.00,0.0130
800.00,0.0126
799.00,0.0124
798.00,0.0123
797.00,0.0123
796.00,0.0122
795.00,0.0122
794.00,0.0123
793.00,0.0124
792.00,0.0124
791.00,0.0124
790.00,0.0125
789.00,0.0125
788.00,0.0125
787.00,0.0125
786.00,0.0126
785.00,0.0127
784.00,0.0128
783.00,0.0129
782.00,0.0131
781.00,0.0134
780.00,0.0137
779.00,0.0141
778.00,0.0144
777.00,0.0146
776.00,0.0145
775.00,0.0142
774.00,0.0139
773.00,0.0136
772.00,0.0133
771.00,0.0133
770.00,0.0134
769.00,0.0136
768.00,0.0137
767.00,0.0139
766.00,0.0141
765.00,0.0144
764.00,0.0147
763.00,0.0150
762.00,0.0153
761.00,0.0157
760.00,0.0160
759.00,0.0164
758.00,0.0168
757.00,0.0172
756.00,0.0175
755.00,0.0179
754.00,0.0184
753.00,0.0187
752.00,0.0190
751.00,0.0193
750.00,0.0198
749.00,0.0202
748.00,0.0207
747.00,0.0212
746.00,0.0217
745.00,0.0222
744.00,0.0227
743.00,0.0234
742.00,0.0244
741.00,0.0255
740.00,0.0267
739.00,0.0278
738.00,0.0287
737.00,0.0293
736.00,0.0293
735.00,0.0289
734.00,0.0281
733.00,0.0271
732.00,0.0260
731.00,0.0250
730.00,0.0240
729.00,0.0231
728.00,0.0221
727.00,0.0212
726.00,0.0204
725.00,0.0196
724.00,0.0190
723.00,0.0184
722.00,0.0180
721.00,0.0177
720.00,0.0174
719.00,0.0172
718.00,0.0171
717.00,0.0171
716.00,0.0171
715.00,0.0170
714.00,0.0170
713.00,0.0170
712.00,0.0169
711.00,0.0167
710.00,0.0165
709.00,0.0162
708.00,0.0160
707.00,0.0158
706.00,0.0157
705.00,0.0157
704.00,0.0157
703.00,0.0157
702.00,0.0158
701.00,0.0159
700.00,0.0160
699.00,0.0162
698.00,0.0167
697.00,0.0173
696.00,0.0180
695.00,0.0188
694.00,0.0197
693.00,0.0205
692.00,0.0211
691.00,0.0215
690.00,0.0217
689.00,0.0218
688.00,0.0217
687.00,0.0215
686.00,0.0213
685.00,0.0210
684.00,0.0207
683.00,0.0204
682.00,0.0202
681.00,0.0201
680.00,0.0200
679.00,0.0200
678.00,0.0201
677.00,0.0202
676.00,0.0203
675.00,0.0205
674.00,0.0209
673.00,0.0214
672.00,0.0219
671.00,0.0224
670.00,0.0230
669.00,0.0238
668.00,0.0246
667.00,0.0253
666.00,0.0257
665.00,0.0260
664.00,0.0263
663.00,0.0268
662.00,0.0275
661.00,0.0283
660.00,0.0291
659.00,0.0299
658.00,0.0307
657.00,0.0314
656.00,0.0321
655.00,0.0328
654.00,0.0335
653.00,0.0341
652.00,0.0346
651.00,0.0350
650.00,0.0353
649.00,0.0354
648.00,0.0354
647.00,0.0351
646.00,0.0348
645.00,0.0343
644.00,0.0336
643.00,0.0328
642.00,0.0321
641.00,0.0313
640.00,0.0304
639.00,0.0295
638.00,0.0288
637.00,0.0281
636.00,0.0273
635.00,0.0266
634.00,0.0260
633.00,0.0256
632.00,0.0252
631.00,0.0249
630.00,0.0248
629.00,0.0247
628.00,0.0245
627.00,0.0245
626.00,0.0245
625.00,0.0245
624.00,0.0244
623.00,0.0242
622.00,0.0241
621.00,0.0240
620.00,0.0237
619.00,0.0234
618.00,0.0233
617.00,0.0230
616.00,0.0228
615.00,0.0226
614.00,0.0226
613.00,0.0226
612.00,0.0226
611.00,0.0227
610.00,0.0230
609.00,0.0233
608.00,0.0235
607.00,0.0238
606.00,0.0241
605.00,0.0244
604.00,0.0246
603.00,0.0248
602.00,0.0251
601.00,0.0254
600.00,0.0255
599.00,0.0255
598.00,0.0255
597.00,0.0254
596.00,0.0250
595.00,0.0247
594.00,0.0245
593.00,0.0245
592.00,0.0246
591.00,0.0249
590.00,0.0256
589.00,0.0267
588.00,0.0279
587.00,0.0294
586.00,0.0313
585.00,0.0332
584.00,0.0348
583.00,0.0361
582.00,0.0372
581.00,0.0378
580.00,0.0380
579.00,0.0380
578.00,0.0381
577.00,0.0380
576.00,0.0376
575.00,0.0373
574.00,0.0372
573.00,0.0370
572.00,0.0367
571.00,0.0365
570.00,0.0365
569.00,0.0365
568.00,0.0363
567.00,0.0361
566.00,0.0360
565.00,0.0359
564.00,0.0354
563.00,0.0348
562.00,0.0343
561.00,0.0338
560.00,0.0332
559.00,0.0328
558.00,0.0327
557.00,0.0325
556.00,0.0321
555.00,0.0316
554.00,0.0310
553.00,0.0305
552.00,0.0300
551.00,0.0296
550.00,0.0294
549.00,0.0292
548.00,0.0287
547.00,0.0282
546.00,0.0277
545.00,0.0272
544.00,0.0266
543.00,0.0261
542.00,0.0260
541.00,0.0260
540.00,0.0260
539.00,0.0262
538.00,0.0267
537.00,0.0273
536.00,0.0279
535.00,0.0286
534.00,0.0294
533.00,0.0302
532.00,0.0305
531.00,0.0306
530.00,0.0306
529.00,0.0304
528.00,0.0296
527.00,0.0288
526.00,0.0280
525.00,0.0273
524.00,0.0264
523.00,0.0257
522.00,0.0254
521.00,0.0253
520.00,0.0249
519.00,0.0247
518.00,0.0247
517.00,0.0248
516.00,0.0247
515.00,0.0246
514.00,0.0246
513.00,0.0246
512.00,0.0245
511.00,0.0246
510.00,0.0251
509.00,0.0256
508.00,0.0259
507.00,0.0259
506.00,0.0260
505.00,0.0259
504.00,0.0255
503.00,0.0251
502.00,0.0251
501.00,0.0251
500.00,0.0248
499.00,0.0245
498.00,0.0245
497.00,0.0243
496.00,0.0239
495.00,0.0238
494.00,0.0241
493.00,0.0245
492.00,0.0247
491.00,0.0249
490.00,0.0252
489.00,0.0253
488.00,0.0252
487.00,0.0252
486.00,0.0255
485.00,0.0258
484.00,0.0257
483.00,0.0257
482.00,0.0259
481.00,0.0258
480.00,0.0255
479.00,0.0253
478.00,0.0257
477.00,0.0261
476.00,0.0259
475.00,0.0257
474.00,0.0258
473.00,0.0258
472.00,0.0254
471.00,0.0253
470.00,0.0256
469.00,0.0258
468.00,0.0255
467.00,0.0252
466.00,0.0252
465.00,0.0252
464.00,0.0250
463.00,0.0249
462.00,0.0253
461.00,0.0256
460.00,0.0255
459.00,0.0254
458.00,0.0256
457.00,0.0258
456.00,0.0255
455.00,0.0253
454.00,0.0256
453.00,0.0256
452.00,0.0253
451.00,0.0251
450.00,0.0254
449.00,0.0257
448.00,0.0255
447.00,0.0253
446.00,0.0254
445.00,0.0252
444.00,0.0246
443.00,0.0240
442.00,0.0240
441.00,0.0241
440.00,0.0238
439.00,0.0237
438.00,0.0241
437.00,0.0243
436.00,0.0240
435.00,0.0235
434.00,0.0234
433.00,0.0231
432.00,0.0224
431.00,0.0221
430.00,0.0226
429.00,0.0231
428.00,0.0230
427.00,0.0231
426.00,0.0238
425.00,0.0244
424.00,0.0242
423.00,0.0241
422.00,0.0246
421.00,0.0249
420.00,0.0240
419.00,0.0232
418.00,0.0240
417.00,0.0248
416.00,0.0246
415.00,0.0242
414.00,0.0246
413.00,0.0252
412.00,0.0253
411.00,0.0253
410.00,0.0257
409.00,0.0253
408.00,0.0236
407.00,0.0224
406.00,0.0229
405.00,0.0238
404.00,0.0239
403.00,0.0241
402.00,0.0250
401.00,0.0248
400.00,0.0227
