Created as New Dataset,Sample 856 By YargerLab Date Monday, July 21 2025
cm-1,A
4000.00,0.0201
3999.00,0.0201
3998.00,0.0201
3997.00,0.0201
3996.00,0.0201
3995.00,0.0201
3994.00,0.0201
3993.00,0.0201
3992.00,0.0201
3991.00,0.0200
3990.00,0.0200
3989.00,0.0200
3988.00,0.0200
3987.00,0.0200
3986.00,0.0200
3985.00,0.0200
3984.00,0.0200
3983.00,0.0200
3982.00,0.0200
3981.00,0.0200
3980.00,0.0200
3979.00,0.0200
3978.00,0.0200
3977.00,0.0200
3976.00,0.0200
3975.00,0.0199
3974.00,0.0199
3973.00,0.0199
3972.00,0.0199
3971.00,0.0199
3970.00,0.0199
3969.00,0.0200
3968.00,0.0200
3967.00,0.0200
3966.00,0.0199
3965.00,0.0199
3964.00,0.0199
3963.00,0.0199
3962.00,0.0198
3961.00,0.0198
3960.00,0.0198
3959.00,0.0198
3958.00,0.0198
3957.00,0.0198
3956.00,0.0198
3955.00,0.0198
3954.00,0.0198
3953.00,0.0198
3952.00,0.0198
3951.00,0.0197
3950.00,0.0197
3949.00,0.0197
3948.00,0.0197
3947.00,0.0197
3946.00,0.0196
3945.00,0.0196
3944.00,0.0196
3943.00,0.0196
3942.00,0.0197
3941.00,0.0197
3940.00,0.0196
3939.00,0.0196
3938.00,0.0196
3937.00,0.0196
3936.00,0.0196
3935.00,0.0196
3934.00,0.0196
3933.00,0.0196
3932.00,0.0196
3931.00,0.0196
3930.00,0.0196
3929.00,0.0196
3928.00,0.0196
3927.00,0.0196
3926.00,0.0196
3925.00,0.0196
3924.00,0.0196
3923.00,0.0196
3922.00,0.0195
3921.00,0.0195
3920.00,0.0195
3919.00,0.0194
3918.00,0.0194
3917.00,0.0194
3916.00,0.0194
3915.00,0.0195
3914.00,0.0195
3913.00,0.0195
3912.00,0.0195
3911.00,0.0196
3910.00,0.0196
3909.00,0.0195
3908.00,0.0195
3907.00,0.0194
3906.00,0.0194
3905.00,0.0193
3904.00,0.0192
3903.00,0.0192
3902.00,0.0192
3901.00,0.0192
3900.00,0.0192
3899.00,0.0193
3898.00,0.0193
3897.00,0.0193
3896.00,0.0193
3895.00,0.0193
3894.00,0.0193
3893.00,0.0193
3892.00,0.0193
3891.00,0.0193
3890.00,0.0193
3889.00,0.0192
3888.00,0.0191
3887.00,0.0191
3886.00,0.0191
3885.00,0.0191
3884.00,0.0191
3883.00,0.0191
3882.00,0.0191
3881.00,0.0192
3880.00,0.0192
3879.00,0.0192
3878.00,0.0192
3877.00,0.0192
3876.00,0.0191
3875.00,0.0191
3874.00,0.0191
3873.00,0.0191
3872.00,0.0191
3871.00,0.0190
3870.00,0.0190
3869.00,0.0190
3868.00,0.0190
3867.00,0.0189
3866.00,0.0189
3865.00,0.0189
3864.00,0.0190
3863.00,0.0190
3862.00,0.0190
3861.00,0.0190
3860.00,0.0190
3859.00,0.0190
3858.00,0.0190
3857.00,0.0190
3856.00,0.0189
3855.00,0.0189
3854.00,0.0188
3853.00,0.0188
3852.00,0.0188
3851.00,0.0188
3850.00,0.0188
3849.00,0.0188
3848.00,0.0189
3847.00,0.0189
3846.00,0.0190
3845.00,0.0190
3844.00,0.0189
3843.00,0.0189
3842.00,0.0189
3841.00,0.0188
3840.00,0.0188
3839.00,0.0188
3838.00,0.0188
3837.00,0.0188
3836.00,0.0189
3835.00,0.0189
3834.00,0.0189
3833.00,0.0189
3832.00,0.0188
3831.00,0.0188
3830.00,0.0188
3829.00,0.0188
3828.00,0.0188
3827.00,0.0188
3826.00,0.0188
3825.00,0.0188
3824.00,0.0188
3823.00,0.0187
3822.00,0.0187
3821.00,0.0187
3820.00,0.0187
3819.00,0.0187
3818.00,0.0187
3817.00,0.0186
3816.00,0.0187
3815.00,0.0187
3814.00,0.0187
3813.00,0.0187
3812.00,0.0187
3811.00,0.0187
3810.00,0.0187
3809.00,0.0187
3808.00,0.0187
3807.00,0.0187
3806.00,0.0187
3805.00,0.0186
3804.00,0.0185
3803.00,0.0185
3802.00,0.0184
3801.00,0.0184
3800.00,0.0184
3799.00,0.0184
3798.00,0.0185
3797.00,0.0185
3796.00,0.0186
3795.00,0.0186
3794.00,0.0186
3793.00,0.0186
3792.00,0.0186
3791.00,0.0186
3790.00,0.0186
3789.00,0.0186
3788.00,0.0185
3787.00,0.0185
3786.00,0.0185
3785.00,0.0185
3784.00,0.0185
3783.00,0.0185
3782.00,0.0185
3781.00,0.0185
3780.00,0.0185
3779.00,0.0185
3778.00,0.0185
3777.00,0.0185
3776.00,0.0185
3775.00,0.0185
3774.00,0.0185
3773.00,0.0185
3772.00,0.0184
3771.00,0.0184
3770.00,0.0184
3769.00,0.0184
3768.00,0.0184
3767.00,0.0184
3766.00,0.0184
3765.00,0.0183
3764.00,0.0183
3763.00,0.0183
3762.00,0.0183
3761.00,0.0182
3760.00,0.0182
3759.00,0.0182
3758.00,0.0182
3757.00,0.0182
3756.00,0.0182
3755.00,0.0181
3754.00,0.0180
3753.00,0.0180
3752.00,0.0179
3751.00,0.0179
3750.00,0.0178
3749.00,0.0178
3748.00,0.0178
3747.00,0.0178
3746.00,0.0178
3745.00,0.0178
3744.00,0.0178
3743.00,0.0178
3742.00,0.0178
3741.00,0.0178
3740.00,0.0178
3739.00,0.0177
3738.00,0.0177
3737.00,0.0177
3736.00,0.0176
3735.00,0.0177
3734.00,0.0177
3733.00,0.0177
3732.00,0.0177
3731.00,0.0177
3730.00,0.0177
3729.00,0.0177
3728.00,0.0178
3727.00,0.0178
3726.00,0.0178
3725.00,0.0178
3724.00,0.0178
3723.00,0.0178
3722.00,0.0178
3721.00,0.0178
3720.00,0.0178
3719.00,0.0178
3718.00,0.0178
3717.00,0.0178
3716.00,0.0178
3715.00,0.0178
3714.00,0.0178
3713.00,0.0177
3712.00,0.0177
3711.00,0.0176
3710.00,0.0176
3709.00,0.0176
3708.00,0.0176
3707.00,0.0176
3706.00,0.0176
3705.00,0.0177
3704.00,0.0177
3703.00,0.0177
3702.00,0.0177
3701.00,0.0177
3700.00,0.0177
3699.00,0.0177
3698.00,0.0177
3697.00,0.0177
3696.00,0.0177
3695.00,0.0177
3694.00,0.0177
3693.00,0.0177
3692.00,0.0177
3691.00,0.0177
3690.00,0.0177
3689.00,0.0177
3688.00,0.0177
3687.00,0.0177
3686.00,0.0177
3685.00,0.0177
3684.00,0.0178
3683.00,0.0178
3682.00,0.0178
3681.00,0.0179
3680.00,0.0179
3679.00,0.0179
3678.00,0.0179
3677.00,0.0178
3676.00,0.0177
3675.00,0.0177
3674.00,0.0177
3673.00,0.0176
3672.00,0.0176
3671.00,0.0176
3670.00,0.0176
3669.00,0.0177
3668.00,0.0178
3667.00,0.0178
3666.00,0.0179
3665.00,0.0179
3664.00,0.0179
3663.00,0.0180
3662.00,0.0180
3661.00,0.0180
3660.00,0.0180
3659.00,0.0180
3658.00,0.0179
3657.00,0.0179
3656.00,0.0179
3655.00,0.0179
3654.00,0.0179
3653.00,0.0179
3652.00,0.0178
3651.00,0.0177
3650.00,0.0177
3649.00,0.0176
3648.00,0.0176
3647.00,0.0176
3646.00,0.0177
3645.00,0.0177
3644.00,0.0178
3643.00,0.0178
3642.00,0.0179
3641.00,0.0179
3640.00,0.0180
3639.00,0.0180
3638.00,0.0180
3637.00,0.0180
3636.00,0.0180
3635.00,0.0180
3634.00,0.0180
3633.00,0.0180
3632.00,0.0180
3631.00,0.0179
3630.00,0.0179
3629.00,0.0179
3628.00,0.0179
3627.00,0.0179
3626.00,0.0180
3625.00,0.0180
3624.00,0.0180
3623.00,0.0181
3622.00,0.0181
3621.00,0.0181
3620.00,0.0181
3619.00,0.0181
3618.00,0.0181
3617.00,0.0181
3616.00,0.0181
3615.00,0.0181
3614.00,0.0181
3613.00,0.0182
3612.00,0.0182
3611.00,0.0183
3610.00,0.0183
3609.00,0.0183
3608.00,0.0184
3607.00,0.0184
3606.00,0.0184
3605.00,0.0185
3604.00,0.0185
3603.00,0.0185
3602.00,0.0185
3601.00,0.0186
3600.00,0.0186
3599.00,0.0186
3598.00,0.0187
3597.00,0.0187
3596.00,0.0187
3595.00,0.0187
3594.00,0.0187
3593.00,0.0187
3592.00,0.0187
3591.00,0.0187
3590.00,0.0187
3589.00,0.0187
3588.00,0.0187
3587.00,0.0188
3586.00,0.0188
3585.00,0.0189
3584.00,0.0189
3583.00,0.0189
3582.00,0.0190
3581.00,0.0190
3580.00,0.0191
3579.00,0.0191
3578.00,0.0192
3577.00,0.0192
3576.00,0.0193
3575.00,0.0193
3574.00,0.0193
3573.00,0.0194
3572.00,0.0194
3571.00,0.0195
3570.00,0.0194
3569.00,0.0194
3568.00,0.0193
3567.00,0.0193
3566.00,0.0193
3565.00,0.0194
3564.00,0.0195
3563.00,0.0196
3562.00,0.0197
3561.00,0.0198
3560.00,0.0198
3559.00,0.0199
3558.00,0.0199
3557.00,0.0199
3556.00,0.0200
3555.00,0.0200
3554.00,0.0200
3553.00,0.0200
3552.00,0.0201
3551.00,0.0201
3550.00,0.0201
3549.00,0.0201
3548.00,0.0201
3547.00,0.0202
3546.00,0.0202
3545.00,0.0203
3544.00,0.0204
3543.00,0.0205
3542.00,0.0205
3541.00,0.0206
3540.00,0.0206
3539.00,0.0207
3538.00,0.0207
3537.00,0.0208
3536.00,0.0208
3535.00,0.0209
3534.00,0.0209
3533.00,0.0209
3532.00,0.0210
3531.00,0.0210
3530.00,0.0210
3529.00,0.0211
3528.00,0.0211
3527.00,0.0212
3526.00,0.0212
3525.00,0.0213
3524.00,0.0213
3523.00,0.0214
3522.00,0.0214
3521.00,0.0215
3520.00,0.0216
3519.00,0.0216
3518.00,0.0217
3517.00,0.0218
3516.00,0.0218
3515.00,0.0219
3514.00,0.0219
3513.00,0.0220
3512.00,0.0220
3511.00,0.0220
3510.00,0.0221
3509.00,0.0222
3508.00,0.0222
3507.00,0.0223
3506.00,0.0224
3505.00,0.0225
3504.00,0.0226
3503.00,0.0226
3502.00,0.0227
3501.00,0.0228
3500.00,0.0229
3499.00,0.0229
3498.00,0.0230
3497.00,0.0231
3496.00,0.0232
3495.00,0.0233
3494.00,0.0234
3493.00,0.0234
3492.00,0.0235
3491.00,0.0236
3490.00,0.0237
3489.00,0.0237
3488.00,0.0238
3487.00,0.0239
3486.00,0.0240
3485.00,0.0240
3484.00,0.0241
3483.00,0.0242
3482.00,0.0243
3481.00,0.0244
3480.00,0.0245
3479.00,0.0246
3478.00,0.0247
3477.00,0.0247
3476.00,0.0248
3475.00,0.0249
3474.00,0.0251
3473.00,0.0252
3472.00,0.0253
3471.00,0.0254
3470.00,0.0255
3469.00,0.0256
3468.00,0.0257
3467.00,0.0258
3466.00,0.0259
3465.00,0.0259
3464.00,0.0260
3463.00,0.0261
3462.00,0.0261
3461.00,0.0262
3460.00,0.0263
3459.00,0.0264
3458.00,0.0265
3457.00,0.0266
3456.00,0.0267
3455.00,0.0268
3454.00,0.0268
3453.00,0.0269
3452.00,0.0269
3451.00,0.0270
3450.00,0.0270
3449.00,0.0271
3448.00,0.0271
3447.00,0.0272
3446.00,0.0273
3445.00,0.0273
3444.00,0.0273
3443.00,0.0274
3442.00,0.0274
3441.00,0.0275
3440.00,0.0276
3439.00,0.0277
3438.00,0.0277
3437.00,0.0278
3436.00,0.0279
3435.00,0.0279
3434.00,0.0279
3433.00,0.0279
3432.00,0.0279
3431.00,0.0279
3430.00,0.0280
3429.00,0.0280
3428.00,0.0281
3427.00,0.0281
3426.00,0.0281
3425.00,0.0281
3424.00,0.0281
3423.00,0.0281
3422.00,0.0282
3421.00,0.0282
3420.00,0.0283
3419.00,0.0283
3418.00,0.0283
3417.00,0.0284
3416.00,0.0284
3415.00,0.0285
3414.00,0.0285
3413.00,0.0286
3412.00,0.0286
3411.00,0.0286
3410.00,0.0286
3409.00,0.0286
3408.00,0.0286
3407.00,0.0287
3406.00,0.0287
3405.00,0.0287
3404.00,0.0288
3403.00,0.0288
3402.00,0.0289
3401.00,0.0289
3400.00,0.0290
3399.00,0.0290
3398.00,0.0290
3397.00,0.0291
3396.00,0.0291
3395.00,0.0291
3394.00,0.0291
3393.00,0.0291
3392.00,0.0292
3391.00,0.0292
3390.00,0.0293
3389.00,0.0293
3388.00,0.0293
3387.00,0.0294
3386.00,0.0294
3385.00,0.0294
3384.00,0.0294
3383.00,0.0295
3382.00,0.0295
3381.00,0.0296
3380.00,0.0296
3379.00,0.0297
3378.00,0.0297
3377.00,0.0297
3376.00,0.0298
3375.00,0.0298
3374.00,0.0299
3373.00,0.0299
3372.00,0.0299
3371.00,0.0299
3370.00,0.0299
3369.00,0.0299
3368.00,0.0300
3367.00,0.0301
3366.00,0.0302
3365.00,0.0303
3364.00,0.0303
3363.00,0.0304
3362.00,0.0304
3361.00,0.0305
3360.00,0.0305
3359.00,0.0305
3358.00,0.0305
3357.00,0.0306
3356.00,0.0306
3355.00,0.0306
3354.00,0.0306
3353.00,0.0306
3352.00,0.0306
3351.00,0.0307
3350.00,0.0307
3349.00,0.0308
3348.00,0.0309
3347.00,0.0310
3346.00,0.0310
3345.00,0.0310
3344.00,0.0310
3343.00,0.0310
3342.00,0.0310
3341.00,0.0310
3340.00,0.0310
3339.00,0.0310
3338.00,0.0311
3337.00,0.0311
3336.00,0.0312
3335.00,0.0313
3334.00,0.0314
3333.00,0.0315
3332.00,0.0315
3331.00,0.0315
3330.00,0.0316
3329.00,0.0316
3328.00,0.0315
3327.00,0.0315
3326.00,0.0315
3325.00,0.0315
3324.00,0.0316
3323.00,0.0317
3322.00,0.0318
3321.00,0.0319
3320.00,0.0319
3319.00,0.0320
3318.00,0.0320
3317.00,0.0320
3316.00,0.0320
3315.00,0.0320
3314.00,0.0320
3313.00,0.0320
3312.00,0.0320
3311.00,0.0319
3310.00,0.0318
3309.00,0.0318
3308.00,0.0317
3307.00,0.0317
3306.00,0.0318
3305.00,0.0319
3304.00,0.0320
3303.00,0.0321
3302.00,0.0322
3301.00,0.0323
3300.00,0.0323
3299.00,0.0322
3298.00,0.0322
3297.00,0.0322
3296.00,0.0322
3295.00,0.0322
3294.00,0.0322
3293.00,0.0322
3292.00,0.0322
3291.00,0.0323
3290.00,0.0323
3289.00,0.0323
3288.00,0.0323
3287.00,0.0323
3286.00,0.0323
3285.00,0.0323
3284.00,0.0324
3283.00,0.0324
3282.00,0.0324
3281.00,0.0324
3280.00,0.0324
3279.00,0.0323
3278.00,0.0323
3277.00,0.0323
3276.00,0.0323
3275.00,0.0322
3274.00,0.0322
3273.00,0.0322
3272.00,0.0322
3271.00,0.0322
3270.00,0.0322
3269.00,0.0323
3268.00,0.0323
3267.00,0.0323
3266.00,0.0323
3265.00,0.0322
3264.00,0.0322
3263.00,0.0322
3262.00,0.0322
3261.00,0.0322
3260.00,0.0322
3259.00,0.0322
3258.00,0.0322
3257.00,0.0322
3256.00,0.0322
3255.00,0.0322
3254.00,0.0322
3253.00,0.0322
3252.00,0.0322
3251.00,0.0322
3250.00,0.0321
3249.00,0.0321
3248.00,0.0321
3247.00,0.0321
3246.00,0.0321
3245.00,0.0321
3244.00,0.0321
3243.00,0.0321
3242.00,0.0320
3241.00,0.0320
3240.00,0.0320
3239.00,0.0320
3238.00,0.0319
3237.00,0.0319
3236.00,0.0319
3235.00,0.0319
3234.00,0.0319
3233.00,0.0318
3232.00,0.0318
3231.00,0.0318
3230.00,0.0318
3229.00,0.0317
3228.00,0.0317
3227.00,0.0317
3226.00,0.0317
3225.00,0.0317
3224.00,0.0316
3223.00,0.0316
3222.00,0.0316
3221.00,0.0315
3220.00,0.0315
3219.00,0.0314
3218.00,0.0314
3217.00,0.0314
3216.00,0.0313
3215.00,0.0313
3214.00,0.0313
3213.00,0.0313
3212.00,0.0313
3211.00,0.0313
3210.00,0.0312
3209.00,0.0312
3208.00,0.0312
3207.00,0.0312
3206.00,0.0312
3205.00,0.0312
3204.00,0.0312
3203.00,0.0311
3202.00,0.0311
3201.00,0.0310
3200.00,0.0310
3199.00,0.0310
3198.00,0.0310
3197.00,0.0309
3196.00,0.0309
3195.00,0.0308
3194.00,0.0308
3193.00,0.0307
3192.00,0.0307
3191.00,0.0307
3190.00,0.0306
3189.00,0.0306
3188.00,0.0305
3187.00,0.0305
3186.00,0.0304
3185.00,0.0304
3184.00,0.0304
3183.00,0.0303
3182.00,0.0303
3181.00,0.0302
3180.00,0.0301
3179.00,0.0301
3178.00,0.0300
3177.00,0.0299
3176.00,0.0299
3175.00,0.0298
3174.00,0.0298
3173.00,0.0297
3172.00,0.0296
3171.00,0.0295
3170.00,0.0295
3169.00,0.0294
3168.00,0.0294
3167.00,0.0293
3166.00,0.0292
3165.00,0.0291
3164.00,0.0291
3163.00,0.0290
3162.00,0.0289
3161.00,0.0289
3160.00,0.0288
3159.00,0.0287
3158.00,0.0286
3157.00,0.0286
3156.00,0.0285
3155.00,0.0284
3154.00,0.0284
3153.00,0.0283
3152.00,0.0283
3151.00,0.0282
3150.00,0.0281
3149.00,0.0280
3148.00,0.0279
3147.00,0.0278
3146.00,0.0278
3145.00,0.0277
3144.00,0.0277
3143.00,0.0276
3142.00,0.0276
3141.00,0.0275
3140.00,0.0275
3139.00,0.0274
3138.00,0.0273
3137.00,0.0272
3136.00,0.0271
3135.00,0.0271
3134.00,0.0270
3133.00,0.0270
3132.00,0.0269
3131.00,0.0269
3130.00,0.0268
3129.00,0.0267
3128.00,0.0267
3127.00,0.0266
3126.00,0.0265
3125.00,0.0264
3124.00,0.0264
3123.00,0.0263
3122.00,0.0263
3121.00,0.0263
3120.00,0.0262
3119.00,0.0262
3118.00,0.0261
3117.00,0.0261
3116.00,0.0260
3115.00,0.0259
3114.00,0.0258
3113.00,0.0257
3112.00,0.0257
3111.00,0.0256
3110.00,0.0256
3109.00,0.0255
3108.00,0.0254
3107.00,0.0253
3106.00,0.0252
3105.00,0.0251
3104.00,0.0250
3103.00,0.0250
3102.00,0.0250
3101.00,0.0249
3100.00,0.0249
3099.00,0.0249
3098.00,0.0248
3097.00,0.0247
3096.00,0.0246
3095.00,0.0246
3094.00,0.0246
3093.00,0.0245
3092.00,0.0245
3091.00,0.0245
3090.00,0.0245
3089.00,0.0244
3088.00,0.0244
3087.00,0.0244
3086.00,0.0244
3085.00,0.0244
3084.00,0.0244
3083.00,0.0245
3082.00,0.0245
3081.00,0.0245
3080.00,0.0246
3079.00,0.0246
3078.00,0.0245
3077.00,0.0245
3076.00,0.0244
3075.00,0.0244
3074.00,0.0244
3073.00,0.0243
3072.00,0.0243
3071.00,0.0242
3070.00,0.0242
3069.00,0.0241
3068.00,0.0240
3067.00,0.0239
3066.00,0.0238
3065.00,0.0236
3064.00,0.0234
3063.00,0.0233
3062.00,0.0231
3061.00,0.0229
3060.00,0.0228
3059.00,0.0227
3058.00,0.0226
3057.00,0.0225
3056.00,0.0224
3055.00,0.0223
3054.00,0.0222
3053.00,0.0222
3052.00,0.0221
3051.00,0.0221
3050.00,0.0221
3049.00,0.0220
3048.00,0.0220
3047.00,0.0220
3046.00,0.0219
3045.00,0.0219
3044.00,0.0219
3043.00,0.0218
3042.00,0.0218
3041.00,0.0218
3040.00,0.0217
3039.00,0.0217
3038.00,0.0216
3037.00,0.0216
3036.00,0.0216
3035.00,0.0215
3034.00,0.0215
3033.00,0.0214
3032.00,0.0214
3031.00,0.0213
3030.00,0.0213
3029.00,0.0212
3028.00,0.0212
3027.00,0.0212
3026.00,0.0212
3025.00,0.0212
3024.00,0.0212
3023.00,0.0213
3022.00,0.0213
3021.00,0.0213
3020.00,0.0213
3019.00,0.0214
3018.00,0.0214
3017.00,0.0214
3016.00,0.0215
3015.00,0.0216
3014.00,0.0218
3013.00,0.0219
3012.00,0.0220
3011.00,0.0220
3010.00,0.0221
3009.00,0.0222
3008.00,0.0223
3007.00,0.0225
3006.00,0.0227
3005.00,0.0229
3004.00,0.0231
3003.00,0.0233
3002.00,0.0235
3001.00,0.0237
3000.00,0.0240
2999.00,0.0243
2998.00,0.0246
2997.00,0.0249
2996.00,0.0252
2995.00,0.0255
2994.00,0.0258
2993.00,0.0262
2992.00,0.0265
2991.00,0.0269
2990.00,0.0273
2989.00,0.0276
2988.00,0.0280
2987.00,0.0284
2986.00,0.0287
2985.00,0.0291
2984.00,0.0296
2983.00,0.0300
2982.00,0.0305
2981.00,0.0309
2980.00,0.0312
2979.00,0.0315
2978.00,0.0318
2977.00,0.0322
2976.00,0.0326
2975.00,0.0330
2974.00,0.0335
2973.00,0.0341
2972.00,0.0346
2971.00,0.0352
2970.00,0.0358
2969.00,0.0364
2968.00,0.0370
2967.00,0.0377
2966.00,0.0384
2965.00,0.0391
2964.00,0.0399
2963.00,0.0405
2962.00,0.0412
2961.00,0.0417
2960.00,0.0422
2959.00,0.0427
2958.00,0.0430
2957.00,0.0433
2956.00,0.0435
2955.00,0.0436
2954.00,0.0437
2953.00,0.0437
2952.00,0.0436
2951.00,0.0434
2950.00,0.0432
2949.00,0.0430
2948.00,0.0429
2947.00,0.0428
2946.00,0.0428
2945.00,0.0429
2944.00,0.0430
2943.00,0.0432
2942.00,0.0435
2941.00,0.0439
2940.00,0.0444
2939.00,0.0450
2938.00,0.0457
2937.00,0.0464
2936.00,0.0472
2935.00,0.0480
2934.00,0.0488
2933.00,0.0496
2932.00,0.0504
2931.00,0.0510
2930.00,0.0517
2929.00,0.0522
2928.00,0.0527
2927.00,0.0531
2926.00,0.0534
2925.00,0.0536
2924.00,0.0537
2923.00,0.0537
2922.00,0.0536
2921.00,0.0534
2920.00,0.0531
2919.00,0.0527
2918.00,0.0523
2917.00,0.0518
2916.00,0.0512
2915.00,0.0506
2914.00,0.0500
2913.00,0.0493
2912.00,0.0486
2911.00,0.0479
2910.00,0.0472
2909.00,0.0465
2908.00,0.0458
2907.00,0.0452
2906.00,0.0446
2905.00,0.0440
2904.00,0.0435
2903.00,0.0430
2902.00,0.0426
2901.00,0.0422
2900.00,0.0418
2899.00,0.0415
2898.00,0.0412
2897.00,0.0409
2896.00,0.0407
2895.00,0.0404
2894.00,0.0402
2893.00,0.0400
2892.00,0.0397
2891.00,0.0395
2890.00,0.0393
2889.00,0.0391
2888.00,0.0389
2887.00,0.0387
2886.00,0.0385
2885.00,0.0383
2884.00,0.0382
2883.00,0.0381
2882.00,0.0380
2881.00,0.0379
2880.00,0.0379
2879.00,0.0379
2878.00,0.0379
2877.00,0.0380
2876.00,0.0381
2875.00,0.0382
2874.00,0.0384
2873.00,0.0385
2872.00,0.0386
2871.00,0.0386
2870.00,0.0386
2869.00,0.0385
2868.00,0.0384
2867.00,0.0383
2866.00,0.0383
2865.00,0.0383
2864.00,0.0384
2863.00,0.0386
2862.00,0.0389
2861.00,0.0392
2860.00,0.0395
2859.00,0.0399
2858.00,0.0401
2857.00,0.0403
2856.00,0.0402
2855.00,0.0400
2854.00,0.0397
2853.00,0.0391
2852.00,0.0384
2851.00,0.0376
2850.00,0.0367
2849.00,0.0357
2848.00,0.0347
2847.00,0.0337
2846.00,0.0327
2845.00,0.0318
2844.00,0.0309
2843.00,0.0300
2842.00,0.0293
2841.00,0.0287
2840.00,0.0281
2839.00,0.0277
2838.00,0.0274
2837.00,0.0271
2836.00,0.0270
2835.00,0.0268
2834.00,0.0267
2833.00,0.0266
2832.00,0.0265
2831.00,0.0263
2830.00,0.0261
2829.00,0.0258
2828.00,0.0254
2827.00,0.0250
2826.00,0.0246
2825.00,0.0241
2824.00,0.0236
2823.00,0.0231
2822.00,0.0226
2821.00,0.0221
2820.00,0.0217
2819.00,0.0213
2818.00,0.0210
2817.00,0.0207
2816.00,0.0204
2815.00,0.0202
2814.00,0.0200
2813.00,0.0197
2812.00,0.0195
2811.00,0.0193
2810.00,0.0192
2809.00,0.0190
2808.00,0.0189
2807.00,0.0188
2806.00,0.0187
2805.00,0.0186
2804.00,0.0185
2803.00,0.0184
2802.00,0.0183
2801.00,0.0182
2800.00,0.0181
2799.00,0.0180
2798.00,0.0179
2797.00,0.0178
2796.00,0.0178
2795.00,0.0177
2794.00,0.0176
2793.00,0.0176
2792.00,0.0175
2791.00,0.0175
2790.00,0.0174
2789.00,0.0173
2788.00,0.0173
2787.00,0.0173
2786.00,0.0172
2785.00,0.0172
2784.00,0.0171
2783.00,0.0171
2782.00,0.0170
2781.00,0.0170
2780.00,0.0169
2779.00,0.0169
2778.00,0.0169
2777.00,0.0168
2776.00,0.0168
2775.00,0.0167
2774.00,0.0167
2773.00,0.0167
2772.00,0.0166
2771.00,0.0166
2770.00,0.0166
2769.00,0.0165
2768.00,0.0165
2767.00,0.0165
2766.00,0.0165
2765.00,0.0165
2764.00,0.0164
2763.00,0.0164
2762.00,0.0164
2761.00,0.0164
2760.00,0.0163
2759.00,0.0163
2758.00,0.0163
2757.00,0.0163
2756.00,0.0163
2755.00,0.0163
2754.00,0.0163
2753.00,0.0163
2752.00,0.0163
2751.00,0.0163
2750.00,0.0163
2749.00,0.0163
2748.00,0.0163
2747.00,0.0163
2746.00,0.0162
2745.00,0.0162
2744.00,0.0162
2743.00,0.0162
2742.00,0.0163
2741.00,0.0163
2740.00,0.0163
2739.00,0.0163
2738.00,0.0163
2737.00,0.0163
2736.00,0.0163
2735.00,0.0164
2734.00,0.0164
2733.00,0.0164
2732.00,0.0164
2731.00,0.0164
2730.00,0.0164
2729.00,0.0164
2728.00,0.0164
2727.00,0.0164
2726.00,0.0164
2725.00,0.0164
2724.00,0.0164
2723.00,0.0164
2722.00,0.0163
2721.00,0.0163
2720.00,0.0162
2719.00,0.0162
2718.00,0.0162
2717.00,0.0161
2716.00,0.0161
2715.00,0.0160
2714.00,0.0160
2713.00,0.0159
2712.00,0.0159
2711.00,0.0159
2710.00,0.0158
2709.00,0.0158
2708.00,0.0158
2707.00,0.0158
2706.00,0.0157
2705.00,0.0157
2704.00,0.0157
2703.00,0.0157
2702.00,0.0157
2701.00,0.0157
2700.00,0.0157
2699.00,0.0156
2698.00,0.0156
2697.00,0.0156
2696.00,0.0156
2695.00,0.0156
2694.00,0.0156
2693.00,0.0156
2692.00,0.0156
2691.00,0.0156
2690.00,0.0155
2689.00,0.0155
2688.00,0.0155
2687.00,0.0155
2686.00,0.0155
2685.00,0.0155
2684.00,0.0155
2683.00,0.0155
2682.00,0.0154
2681.00,0.0154
2680.00,0.0154
2679.00,0.0154
2678.00,0.0154
2677.00,0.0154
2676.00,0.0154
2675.00,0.0154
2674.00,0.0154
2673.00,0.0153
2672.00,0.0153
2671.00,0.0153
2670.00,0.0153
2669.00,0.0153
2668.00,0.0154
2667.00,0.0154
2666.00,0.0154
2665.00,0.0155
2664.00,0.0155
2663.00,0.0155
2662.00,0.0155
2661.00,0.0155
2660.00,0.0155
2659.00,0.0155
2658.00,0.0155
2657.00,0.0155
2656.00,0.0154
2655.00,0.0154
2654.00,0.0154
2653.00,0.0153
2652.00,0.0153
2651.00,0.0153
2650.00,0.0153
2649.00,0.0153
2648.00,0.0152
2647.00,0.0152
2646.00,0.0152
2645.00,0.0151
2644.00,0.0151
2643.00,0.0151
2642.00,0.0150
2641.00,0.0150
2640.00,0.0150
2639.00,0.0149
2638.00,0.0149
2637.00,0.0149
2636.00,0.0149
2635.00,0.0149
2634.00,0.0148
2633.00,0.0148
2632.00,0.0148
2631.00,0.0147
2630.00,0.0147
2629.00,0.0146
2628.00,0.0146
2627.00,0.0146
2626.00,0.0145
2625.00,0.0145
2624.00,0.0145
2623.00,0.0144
2622.00,0.0144
2621.00,0.0143
2620.00,0.0143
2619.00,0.0143
2618.00,0.0142
2617.00,0.0142
2616.00,0.0142
2615.00,0.0141
2614.00,0.0141
2613.00,0.0141
2612.00,0.0140
2611.00,0.0140
2610.00,0.0140
2609.00,0.0139
2608.00,0.0139
2607.00,0.0139
2606.00,0.0138
2605.00,0.0138
2604.00,0.0138
2603.00,0.0138
2602.00,0.0137
2601.00,0.0137
2600.00,0.0137
2599.00,0.0137
2598.00,0.0136
2597.00,0.0136
2596.00,0.0136
2595.00,0.0136
2594.00,0.0136
2593.00,0.0136
2592.00,0.0136
2591.00,0.0135
2590.00,0.0135
2589.00,0.0135
2588.00,0.0135
2587.00,0.0135
2586.00,0.0135
2585.00,0.0135
2584.00,0.0134
2583.00,0.0134
2582.00,0.0134
2581.00,0.0133
2580.00,0.0133
2579.00,0.0133
2578.00,0.0133
2577.00,0.0133
2576.00,0.0133
2575.00,0.0132
2574.00,0.0132
2573.00,0.0132
2572.00,0.0131
2571.00,0.0131
2570.00,0.0131
2569.00,0.0131
2568.00,0.0131
2567.00,0.0131
2566.00,0.0130
2565.00,0.0130
2564.00,0.0129
2563.00,0.0129
2562.00,0.0129
2561.00,0.0129
2560.00,0.0129
2559.00,0.0128
2558.00,0.0128
2557.00,0.0127
2556.00,0.0127
2555.00,0.0127
2554.00,0.0127
2553.00,0.0127
2552.00,0.0127
2551.00,0.0127
2550.00,0.0126
2549.00,0.0126
2548.00,0.0125
2547.00,0.0125
2546.00,0.0125
2545.00,0.0125
2544.00,0.0125
2543.00,0.0125
2542.00,0.0125
2541.00,0.0125
2540.00,0.0125
2539.00,0.0124
2538.00,0.0124
2537.00,0.0124
2536.00,0.0124
2535.00,0.0123
2534.00,0.0123
2533.00,0.0122
2532.00,0.0122
2531.00,0.0122
2530.00,0.0122
2529.00,0.0122
2528.00,0.0122
2527.00,0.0122
2526.00,0.0122
2525.00,0.0122
2524.00,0.0121
2523.00,0.0121
2522.00,0.0121
2521.00,0.0120
2520.00,0.0120
2519.00,0.0120
2518.00,0.0120
2517.00,0.0120
2516.00,0.0120
2515.00,0.0119
2514.00,0.0119
2513.00,0.0118
2512.00,0.0118
2511.00,0.0117
2510.00,0.0117
2509.00,0.0117
2508.00,0.0117
2507.00,0.0117
2506.00,0.0117
2505.00,0.0116
2504.00,0.0116
2503.00,0.0116
2502.00,0.0116
2501.00,0.0116
2500.00,0.0116
2499.00,0.0116
2498.00,0.0116
2497.00,0.0116
2496.00,0.0116
2495.00,0.0116
2494.00,0.0116
2493.00,0.0116
2492.00,0.0115
2491.00,0.0115
2490.00,0.0114
2489.00,0.0114
2488.00,0.0114
2487.00,0.0113
2486.00,0.0113
2485.00,0.0113
2484.00,0.0113
2483.00,0.0113
2482.00,0.0113
2481.00,0.0113
2480.00,0.0113
2479.00,0.0113
2478.00,0.0112
2477.00,0.0112
2476.00,0.0112
2475.00,0.0112
2474.00,0.0112
2473.00,0.0112
2472.00,0.0112
2471.00,0.0112
2470.00,0.0112
2469.00,0.0112
2468.00,0.0112
2467.00,0.0111
2466.00,0.0111
2465.00,0.0111
2464.00,0.0111
2463.00,0.0111
2462.00,0.0111
2461.00,0.0111
2460.00,0.0111
2459.00,0.0111
2458.00,0.0111
2457.00,0.0111
2456.00,0.0111
2455.00,0.0111
2454.00,0.0111
2453.00,0.0111
2452.00,0.0110
2451.00,0.0110
2450.00,0.0110
2449.00,0.0110
2448.00,0.0109
2447.00,0.0109
2446.00,0.0109
2445.00,0.0109
2444.00,0.0109
2443.00,0.0108
2442.00,0.0108
2441.00,0.0108
2440.00,0.0108
2439.00,0.0107
2438.00,0.0107
2437.00,0.0106
2436.00,0.0106
2435.00,0.0105
2434.00,0.0105
2433.00,0.0105
2432.00,0.0105
2431.00,0.0105
2430.00,0.0105
2429.00,0.0105
2428.00,0.0105
2427.00,0.0105
2426.00,0.0105
2425.00,0.0105
2424.00,0.0105
2423.00,0.0105
2422.00,0.0105
2421.00,0.0105
2420.00,0.0104
2419.00,0.0104
2418.00,0.0104
2417.00,0.0104
2416.00,0.0104
2415.00,0.0103
2414.00,0.0103
2413.00,0.0103
2412.00,0.0103
2411.00,0.0103
2410.00,0.0103
2409.00,0.0103
2408.00,0.0102
2407.00,0.0101
2406.00,0.0101
2405.00,0.0101
2404.00,0.0100
2403.00,0.0100
2402.00,0.0100
2401.00,0.0100
2400.00,0.0100
2399.00,0.0101
2398.00,0.0101
2397.00,0.0100
2396.00,0.0100
2395.00,0.0100
2394.00,0.0100
2393.00,0.0100
2392.00,0.0100
2391.00,0.0100
2390.00,0.0099
2389.00,0.0099
2388.00,0.0099
2387.00,0.0099
2386.00,0.0098
2385.00,0.0097
2384.00,0.0097
2383.00,0.0096
2382.00,0.0095
2381.00,0.0095
2380.00,0.0095
2379.00,0.0095
2378.00,0.0095
2377.00,0.0095
2376.00,0.0096
2375.00,0.0096
2374.00,0.0096
2373.00,0.0096
2372.00,0.0096
2371.00,0.0096
2370.00,0.0095
2369.00,0.0094
2368.00,0.0094
2367.00,0.0094
2366.00,0.0094
2365.00,0.0094
2364.00,0.0094
2363.00,0.0095
2362.00,0.0096
2361.00,0.0096
2360.00,0.0096
2359.00,0.0096
2358.00,0.0096
2357.00,0.0096
2356.00,0.0096
2355.00,0.0096
2354.00,0.0096
2353.00,0.0095
2352.00,0.0095
2351.00,0.0095
2350.00,0.0095
2349.00,0.0097
2348.00,0.0098
2347.00,0.0099
2346.00,0.0099
2345.00,0.0098
2344.00,0.0098
2343.00,0.0097
2342.00,0.0097
2341.00,0.0098
2340.00,0.0099
2339.00,0.0100
2338.00,0.0100
2337.00,0.0100
2336.00,0.0100
2335.00,0.0100
2334.00,0.0100
2333.00,0.0100
2332.00,0.0099
2331.00,0.0099
2330.00,0.0099
2329.00,0.0101
2328.00,0.0105
2327.00,0.0110
2326.00,0.0113
2325.00,0.0114
2324.00,0.0112
2323.00,0.0110
2322.00,0.0107
2321.00,0.0105
2320.00,0.0103
2319.00,0.0103
2318.00,0.0102
2317.00,0.0102
2316.00,0.0102
2315.00,0.0102
2314.00,0.0101
2313.00,0.0100
2312.00,0.0099
2311.00,0.0098
2310.00,0.0097
2309.00,0.0097
2308.00,0.0097
2307.00,0.0097
2306.00,0.0098
2305.00,0.0098
2304.00,0.0097
2303.00,0.0097
2302.00,0.0097
2301.00,0.0096
2300.00,0.0097
2299.00,0.0098
2298.00,0.0099
2297.00,0.0099
2296.00,0.0100
2295.00,0.0101
2294.00,0.0101
2293.00,0.0102
2292.00,0.0103
2291.00,0.0104
2290.00,0.0105
2289.00,0.0106
2288.00,0.0107
2287.00,0.0107
2286.00,0.0106
2285.00,0.0105
2284.00,0.0104
2283.00,0.0103
2282.00,0.0102
2281.00,0.0102
2280.00,0.0102
2279.00,0.0102
2278.00,0.0102
2277.00,0.0101
2276.00,0.0100
2275.00,0.0099
2274.00,0.0099
2273.00,0.0098
2272.00,0.0099
2271.00,0.0098
2270.00,0.0098
2269.00,0.0097
2268.00,0.0096
2267.00,0.0095
2266.00,0.0095
2265.00,0.0095
2264.00,0.0095
2263.00,0.0095
2262.00,0.0095
2261.00,0.0096
2260.00,0.0096
2259.00,0.0096
2258.00,0.0095
2257.00,0.0094
2256.00,0.0093
2255.00,0.0092
2254.00,0.0091
2253.00,0.0091
2252.00,0.0091
2251.00,0.0091
2250.00,0.0091
2249.00,0.0092
2248.00,0.0092
2247.00,0.0092
2246.00,0.0093
2245.00,0.0093
2244.00,0.0093
2243.00,0.0093
2242.00,0.0093
2241.00,0.0093
2240.00,0.0092
2239.00,0.0092
2238.00,0.0092
2237.00,0.0092
2236.00,0.0092
2235.00,0.0091
2234.00,0.0091
2233.00,0.0091
2232.00,0.0091
2231.00,0.0091
2230.00,0.0091
2229.00,0.0091
2228.00,0.0091
2227.00,0.0091
2226.00,0.0090
2225.00,0.0090
2224.00,0.0090
2223.00,0.0090
2222.00,0.0089
2221.00,0.0089
2220.00,0.0089
2219.00,0.0089
2218.00,0.0089
2217.00,0.0090
2216.00,0.0090
2215.00,0.0089
2214.00,0.0087
2213.00,0.0087
2212.00,0.0087
2211.00,0.0087
2210.00,0.0088
2209.00,0.0088
2208.00,0.0088
2207.00,0.0088
2206.00,0.0087
2205.00,0.0087
2204.00,0.0088
2203.00,0.0089
2202.00,0.0089
2201.00,0.0088
2200.00,0.0088
2199.00,0.0088
2198.00,0.0089
2197.00,0.0091
2196.00,0.0092
2195.00,0.0093
2194.00,0.0092
2193.00,0.0091
2192.00,0.0090
2191.00,0.0089
2190.00,0.0088
2189.00,0.0089
2188.00,0.0090
2187.00,0.0090
2186.00,0.0090
2185.00,0.0088
2184.00,0.0086
2183.00,0.0082
2182.00,0.0080
2181.00,0.0081
2180.00,0.0083
2179.00,0.0084
2178.00,0.0083
2177.00,0.0080
2176.00,0.0077
2175.00,0.0077
2174.00,0.0079
2173.00,0.0082
2172.00,0.0086
2171.00,0.0089
2170.00,0.0092
2169.00,0.0094
2168.00,0.0096
2167.00,0.0096
2166.00,0.0097
2165.00,0.0098
2164.00,0.0099
2163.00,0.0098
2162.00,0.0090
2161.00,0.0076
2160.00,0.0060
2159.00,0.0046
2158.00,0.0041
2157.00,0.0044
2156.00,0.0049
2155.00,0.0054
2154.00,0.0056
2153.00,0.0058
2152.00,0.0059
2151.00,0.0060
2150.00,0.0061
2149.00,0.0062
2148.00,0.0063
2147.00,0.0064
2146.00,0.0064
2145.00,0.0063
2144.00,0.0064
2143.00,0.0064
2142.00,0.0064
2141.00,0.0065
2140.00,0.0065
2139.00,0.0065
2138.00,0.0064
2137.00,0.0062
2136.00,0.0060
2135.00,0.0059
2134.00,0.0059
2133.00,0.0061
2132.00,0.0063
2131.00,0.0065
2130.00,0.0066
2129.00,0.0068
2128.00,0.0069
2127.00,0.0071
2126.00,0.0072
2125.00,0.0073
2124.00,0.0075
2123.00,0.0076
2122.00,0.0077
2121.00,0.0078
2120.00,0.0079
2119.00,0.0080
2118.00,0.0081
2117.00,0.0082
2116.00,0.0082
2115.00,0.0081
2114.00,0.0081
2113.00,0.0080
2112.00,0.0081
2111.00,0.0081
2110.00,0.0081
2109.00,0.0082
2108.00,0.0083
2107.00,0.0083
2106.00,0.0083
2105.00,0.0082
2104.00,0.0082
2103.00,0.0082
2102.00,0.0082
2101.00,0.0082
2100.00,0.0082
2099.00,0.0081
2098.00,0.0080
2097.00,0.0078
2096.00,0.0077
2095.00,0.0077
2094.00,0.0077
2093.00,0.0078
2092.00,0.0080
2091.00,0.0081
2090.00,0.0081
2089.00,0.0082
2088.00,0.0082
2087.00,0.0083
2086.00,0.0083
2085.00,0.0083
2084.00,0.0084
2083.00,0.0084
2082.00,0.0083
2081.00,0.0083
2080.00,0.0082
2079.00,0.0082
2078.00,0.0081
2077.00,0.0081
2076.00,0.0081
2075.00,0.0080
2074.00,0.0080
2073.00,0.0080
2072.00,0.0080
2071.00,0.0079
2070.00,0.0078
2069.00,0.0077
2068.00,0.0076
2067.00,0.0076
2066.00,0.0076
2065.00,0.0076
2064.00,0.0075
2063.00,0.0075
2062.00,0.0074
2061.00,0.0074
2060.00,0.0074
2059.00,0.0075
2058.00,0.0076
2057.00,0.0075
2056.00,0.0075
2055.00,0.0076
2054.00,0.0079
2053.00,0.0084
2052.00,0.0089
2051.00,0.0089
2050.00,0.0085
2049.00,0.0080
2048.00,0.0077
2047.00,0.0075
2046.00,0.0075
2045.00,0.0074
2044.00,0.0075
2043.00,0.0075
2042.00,0.0075
2041.00,0.0075
2040.00,0.0075
2039.00,0.0075
2038.00,0.0074
2037.00,0.0073
2036.00,0.0071
2035.00,0.0070
2034.00,0.0068
2033.00,0.0067
2032.00,0.0067
2031.00,0.0067
2030.00,0.0066
2029.00,0.0065
2028.00,0.0066
2027.00,0.0065
2026.00,0.0064
2025.00,0.0063
2024.00,0.0064
2023.00,0.0065
2022.00,0.0067
2021.00,0.0068
2020.00,0.0070
2019.00,0.0069
2018.00,0.0068
2017.00,0.0067
2016.00,0.0067
2015.00,0.0068
2014.00,0.0068
2013.00,0.0069
2012.00,0.0070
2011.00,0.0070
2010.00,0.0069
2009.00,0.0067
2008.00,0.0065
2007.00,0.0062
2006.00,0.0060
2005.00,0.0061
2004.00,0.0063
2003.00,0.0065
2002.00,0.0066
2001.00,0.0067
2000.00,0.0067
1999.00,0.0067
1998.00,0.0066
1997.00,0.0066
1996.00,0.0067
1995.00,0.0068
1994.00,0.0069
1993.00,0.0070
1992.00,0.0072
1991.00,0.0073
1990.00,0.0073
1989.00,0.0074
1988.00,0.0075
1987.00,0.0077
1986.00,0.0078
1985.00,0.0081
1984.00,0.0085
1983.00,0.0088
1982.00,0.0089
1981.00,0.0089
1980.00,0.0086
1979.00,0.0079
1978.00,0.0071
1977.00,0.0066
1976.00,0.0064
1975.00,0.0063
1974.00,0.0061
1973.00,0.0061
1972.00,0.0063
1971.00,0.0064
1970.00,0.0065
1969.00,0.0064
1968.00,0.0064
1967.00,0.0063
1966.00,0.0062
1965.00,0.0062
1964.00,0.0062
1963.00,0.0062
1962.00,0.0061
1961.00,0.0059
1960.00,0.0059
1959.00,0.0059
1958.00,0.0060
1957.00,0.0062
1956.00,0.0064
1955.00,0.0066
1954.00,0.0067
1953.00,0.0067
1952.00,0.0067
1951.00,0.0067
1950.00,0.0066
1949.00,0.0066
1948.00,0.0066
1947.00,0.0067
1946.00,0.0067
1945.00,0.0067
1944.00,0.0068
1943.00,0.0068
1942.00,0.0068
1941.00,0.0067
1940.00,0.0067
1939.00,0.0067
1938.00,0.0067
1937.00,0.0066
1936.00,0.0066
1935.00,0.0066
1934.00,0.0066
1933.00,0.0067
1932.00,0.0068
1931.00,0.0068
1930.00,0.0069
1929.00,0.0069
1928.00,0.0069
1927.00,0.0069
1926.00,0.0068
1925.00,0.0067
1924.00,0.0068
1923.00,0.0069
1922.00,0.0070
1921.00,0.0071
1920.00,0.0073
1919.00,0.0073
1918.00,0.0072
1917.00,0.0072
1916.00,0.0072
1915.00,0.0072
1914.00,0.0072
1913.00,0.0072
1912.00,0.0073
1911.00,0.0074
1910.00,0.0074
1909.00,0.0074
1908.00,0.0074
1907.00,0.0073
1906.00,0.0072
1905.00,0.0072
1904.00,0.0073
1903.00,0.0074
1902.00,0.0074
1901.00,0.0074
1900.00,0.0074
1899.00,0.0074
1898.00,0.0073
1897.00,0.0073
1896.00,0.0074
1895.00,0.0074
1894.00,0.0073
1893.00,0.0073
1892.00,0.0073
1891.00,0.0074
1890.00,0.0073
1889.00,0.0073
1888.00,0.0073
1887.00,0.0073
1886.00,0.0073
1885.00,0.0073
1884.00,0.0074
1883.00,0.0074
1882.00,0.0074
1881.00,0.0074
1880.00,0.0074
1879.00,0.0074
1878.00,0.0073
1877.00,0.0074
1876.00,0.0074
1875.00,0.0074
1874.00,0.0074
1873.00,0.0074
1872.00,0.0075
1871.00,0.0075
1870.00,0.0076
1869.00,0.0076
1868.00,0.0076
1867.00,0.0076
1866.00,0.0075
1865.00,0.0075
1864.00,0.0075
1863.00,0.0075
1862.00,0.0075
1861.00,0.0075
1860.00,0.0076
1859.00,0.0076
1858.00,0.0075
1857.00,0.0075
1856.00,0.0076
1855.00,0.0076
1854.00,0.0076
1853.00,0.0075
1852.00,0.0075
1851.00,0.0075
1850.00,0.0075
1849.00,0.0076
1848.00,0.0077
1847.00,0.0078
1846.00,0.0078
1845.00,0.0078
1844.00,0.0077
1843.00,0.0076
1842.00,0.0076
1841.00,0.0075
1840.00,0.0076
1839.00,0.0076
1838.00,0.0076
1837.00,0.0075
1836.00,0.0075
1835.00,0.0076
1834.00,0.0076
1833.00,0.0076
1832.00,0.0077
1831.00,0.0078
1830.00,0.0078
1829.00,0.0078
1828.00,0.0078
1827.00,0.0078
1826.00,0.0078
1825.00,0.0077
1824.00,0.0077
1823.00,0.0077
1822.00,0.0076
1821.00,0.0076
1820.00,0.0075
1819.00,0.0074
1818.00,0.0073
1817.00,0.0073
1816.00,0.0074
1815.00,0.0075
1814.00,0.0075
1813.00,0.0076
1812.00,0.0077
1811.00,0.0077
1810.00,0.0077
1809.00,0.0077
1808.00,0.0077
1807.00,0.0077
1806.00,0.0077
1805.00,0.0078
1804.00,0.0079
1803.00,0.0079
1802.00,0.0079
1801.00,0.0079
1800.00,0.0079
1799.00,0.0079
1798.00,0.0079
1797.00,0.0079
1796.00,0.0080
1795.00,0.0080
1794.00,0.0080
1793.00,0.0081
1792.00,0.0081
1791.00,0.0081
1790.00,0.0080
1789.00,0.0080
1788.00,0.0081
1787.00,0.0081
1786.00,0.0082
1785.00,0.0082
1784.00,0.0082
1783.00,0.0082
1782.00,0.0082
1781.00,0.0082
1780.00,0.0082
1779.00,0.0082
1778.00,0.0082
1777.00,0.0082
1776.00,0.0082
1775.00,0.0083
1774.00,0.0084
1773.00,0.0084
1772.00,0.0084
1771.00,0.0085
1770.00,0.0084
1769.00,0.0085
1768.00,0.0085
1767.00,0.0085
1766.00,0.0085
1765.00,0.0085
1764.00,0.0085
1763.00,0.0086
1762.00,0.0086
1761.00,0.0086
1760.00,0.0086
1759.00,0.0086
1758.00,0.0086
1757.00,0.0087
1756.00,0.0087
1755.00,0.0087
1754.00,0.0088
1753.00,0.0088
1752.00,0.0089
1751.00,0.0090
1750.00,0.0089
1749.00,0.0089
1748.00,0.0089
1747.00,0.0089
1746.00,0.0089
1745.00,0.0090
1744.00,0.0091
1743.00,0.0092
1742.00,0.0092
1741.00,0.0092
1740.00,0.0093
1739.00,0.0093
1738.00,0.0094
1737.00,0.0095
1736.00,0.0097
1735.00,0.0099
1734.00,0.0099
1733.00,0.0099
1732.00,0.0101
1731.00,0.0102
1730.00,0.0102
1729.00,0.0103
1728.00,0.0105
1727.00,0.0106
1726.00,0.0108
1725.00,0.0109
1724.00,0.0112
1723.00,0.0114
1722.00,0.0115
1721.00,0.0118
1720.00,0.0121
1719.00,0.0125
1718.00,0.0127
1717.00,0.0129
1716.00,0.0133
1715.00,0.0137
1714.00,0.0140
1713.00,0.0144
1712.00,0.0149
1711.00,0.0155
1710.00,0.0162
1709.00,0.0169
1708.00,0.0179
1707.00,0.0190
1706.00,0.0203
1705.00,0.0218
1704.00,0.0234
1703.00,0.0249
1702.00,0.0266
1701.00,0.0292
1700.00,0.0328
1699.00,0.0359
1698.00,0.0384
1697.00,0.0413
1696.00,0.0456
1695.00,0.0503
1694.00,0.0542
1693.00,0.0574
1692.00,0.0607
1691.00,0.0644
1690.00,0.0683
1689.00,0.0721
1688.00,0.0755
1687.00,0.0782
1686.00,0.0808
1685.00,0.0841
1684.00,0.0881
1683.00,0.0912
1682.00,0.0929
1681.00,0.0939
1680.00,0.0948
1679.00,0.0956
1678.00,0.0963
1677.00,0.0969
1676.00,0.0979
1675.00,0.0991
1674.00,0.1003
1673.00,0.1013
1672.00,0.1023
1671.00,0.1038
1670.00,0.1060
1669.00,0.1088
1668.00,0.1114
1667.00,0.1135
1666.00,0.1153
1665.00,0.1170
1664.00,0.1191
1663.00,0.1217
1662.00,0.1241
1661.00,0.1261
1660.00,0.1274
1659.00,0.1283
1658.00,0.1289
1657.00,0.1292
1656.00,0.1291
1655.00,0.1287
1654.00,0.1281
1653.00,0.1275
1652.00,0.1264
1651.00,0.1246
1650.00,0.1223
1649.00,0.1195
1648.00,0.1163
1647.00,0.1127
1646.00,0.1090
1645.00,0.1054
1644.00,0.1018
1643.00,0.0981
1642.00,0.0941
1641.00,0.0900
1640.00,0.0860
1639.00,0.0822
1638.00,0.0785
1637.00,0.0747
1636.00,0.0709
1635.00,0.0677
1634.00,0.0653
1633.00,0.0636
1632.00,0.0623
1631.00,0.0614
1630.00,0.0607
1629.00,0.0604
1628.00,0.0602
1627.00,0.0602
1626.00,0.0600
1625.00,0.0597
1624.00,0.0593
1623.00,0.0589
1622.00,0.0583
1621.00,0.0576
1620.00,0.0567
1619.00,0.0558
1618.00,0.0547
1617.00,0.0532
1616.00,0.0516
1615.00,0.0498
1614.00,0.0480
1613.00,0.0461
1612.00,0.0441
1611.00,0.0421
1610.00,0.0402
1609.00,0.0385
1608.00,0.0369
1607.00,0.0356
1606.00,0.0347
1605.00,0.0340
1604.00,0.0336
1603.00,0.0336
1602.00,0.0340
1601.00,0.0347
1600.00,0.0356
1599.00,0.0368
1598.00,0.0381
1597.00,0.0396
1596.00,0.0411
1595.00,0.0425
1594.00,0.0438
1593.00,0.0450
1592.00,0.0459
1591.00,0.0468
1590.00,0.0475
1589.00,0.0481
1588.00,0.0485
1587.00,0.0487
1586.00,0.0487
1585.00,0.0483
1584.00,0.0476
1583.00,0.0465
1582.00,0.0452
1581.00,0.0437
1580.00,0.0420
1579.00,0.0404
1578.00,0.0388
1577.00,0.0369
1576.00,0.0349
1575.00,0.0331
1574.00,0.0317
1573.00,0.0306
1572.00,0.0295
1571.00,0.0284
1570.00,0.0273
1569.00,0.0262
1568.00,0.0252
1567.00,0.0243
1566.00,0.0236
1565.00,0.0229
1564.00,0.0223
1563.00,0.0219
1562.00,0.0217
1561.00,0.0215
1560.00,0.0211
1559.00,0.0206
1558.00,0.0202
1557.00,0.0199
1556.00,0.0195
1555.00,0.0192
1554.00,0.0189
1553.00,0.0188
1552.00,0.0186
1551.00,0.0184
1550.00,0.0183
1549.00,0.0181
1548.00,0.0180
1547.00,0.0180
1546.00,0.0180
1545.00,0.0181
1544.00,0.0181
1543.00,0.0180
1542.00,0.0180
1541.00,0.0180
1540.00,0.0180
1539.00,0.0181
1538.00,0.0181
1537.00,0.0180
1536.00,0.0180
1535.00,0.0180
1534.00,0.0181
1533.00,0.0182
1532.00,0.0182
1531.00,0.0182
1530.00,0.0183
1529.00,0.0184
1528.00,0.0186
1527.00,0.0188
1526.00,0.0190
1525.00,0.0191
1524.00,0.0193
1523.00,0.0195
1522.00,0.0197
1521.00,0.0199
1520.00,0.0201
1519.00,0.0201
1518.00,0.0201
1517.00,0.0200
1516.00,0.0199
1515.00,0.0198
1514.00,0.0197
1513.00,0.0196
1512.00,0.0196
1511.00,0.0196
1510.00,0.0196
1509.00,0.0197
1508.00,0.0199
1507.00,0.0202
1506.00,0.0207
1505.00,0.0212
1504.00,0.0217
1503.00,0.0224
1502.00,0.0232
1501.00,0.0242
1500.00,0.0254
1499.00,0.0267
1498.00,0.0281
1497.00,0.0295
1496.00,0.0307
1495.00,0.0315
1494.00,0.0319
1493.00,0.0320
1492.00,0.0317
1491.00,0.0310
1490.00,0.0299
1489.00,0.0286
1488.00,0.0271
1487.00,0.0256
1486.00,0.0243
1485.00,0.0232
1484.00,0.0222
1483.00,0.0215
1482.00,0.0209
1481.00,0.0205
1480.00,0.0204
1479.00,0.0204
1478.00,0.0206
1477.00,0.0211
1476.00,0.0219
1475.00,0.0227
1474.00,0.0240
1473.00,0.0259
1472.00,0.0284
1471.00,0.0311
1470.00,0.0338
1469.00,0.0366
1468.00,0.0396
1467.00,0.0429
1466.00,0.0465
1465.00,0.0504
1464.00,0.0540
1463.00,0.0566
1462.00,0.0582
1461.00,0.0591
1460.00,0.0594
1459.00,0.0593
1458.00,0.0585
1457.00,0.0574
1456.00,0.0564
1455.00,0.0556
1454.00,0.0552
1453.00,0.0552
1452.00,0.0558
1451.00,0.0569
1450.00,0.0584
1449.00,0.0605
1448.00,0.0631
1447.00,0.0658
1446.00,0.0684
1445.00,0.0710
1444.00,0.0736
1443.00,0.0760
1442.00,0.0784
1441.00,0.0805
1440.00,0.0824
1439.00,0.0839
1438.00,0.0853
1437.00,0.0870
1436.00,0.0886
1435.00,0.0899
1434.00,0.0909
1433.00,0.0921
1432.00,0.0938
1431.00,0.0957
1430.00,0.0978
1429.00,0.0999
1428.00,0.1014
1427.00,0.1024
1426.00,0.1030
1425.00,0.1034
1424.00,0.1035
1423.00,0.1030
1422.00,0.1018
1421.00,0.0998
1420.00,0.0965
1419.00,0.0916
1418.00,0.0859
1417.00,0.0802
1416.00,0.0746
1415.00,0.0692
1414.00,0.0642
1413.00,0.0596
1412.00,0.0555
1411.00,0.0519
1410.00,0.0490
1409.00,0.0466
1408.00,0.0446
1407.00,0.0429
1406.00,0.0417
1405.00,0.0406
1404.00,0.0397
1403.00,0.0391
1402.00,0.0386
1401.00,0.0382
1400.00,0.0379
1399.00,0.0378
1398.00,0.0377
1397.00,0.0377
1396.00,0.0377
1395.00,0.0378
1394.00,0.0380
1393.00,0.0381
1392.00,0.0382
1391.00,0.0384
1390.00,0.0387
1389.00,0.0391
1388.00,0.0397
1387.00,0.0404
1386.00,0.0412
1385.00,0.0421
1384.00,0.0431
1383.00,0.0444
1382.00,0.0459
1381.00,0.0477
1380.00,0.0494
1379.00,0.0513
1378.00,0.0529
1377.00,0.0543
1376.00,0.0552
1375.00,0.0556
1374.00,0.0555
1373.00,0.0549
1372.00,0.0539
1371.00,0.0527
1370.00,0.0516
1369.00,0.0504
1368.00,0.0493
1367.00,0.0481
1366.00,0.0470
1365.00,0.0460
1364.00,0.0448
1363.00,0.0437
1362.00,0.0425
1361.00,0.0415
1360.00,0.0406
1359.00,0.0399
1358.00,0.0393
1357.00,0.0388
1356.00,0.0384
1355.00,0.0381
1354.00,0.0378
1353.00,0.0375
1352.00,0.0372
1351.00,0.0369
1350.00,0.0366
1349.00,0.0363
1348.00,0.0360
1347.00,0.0358
1346.00,0.0356
1345.00,0.0353
1344.00,0.0351
1343.00,0.0350
1342.00,0.0349
1341.00,0.0348
1340.00,0.0348
1339.00,0.0347
1338.00,0.0348
1337.00,0.0348
1336.00,0.0349
1335.00,0.0350
1334.00,0.0351
1333.00,0.0352
1332.00,0.0354
1331.00,0.0356
1330.00,0.0359
1329.00,0.0363
1328.00,0.0369
1327.00,0.0376
1326.00,0.0385
1325.00,0.0396
1324.00,0.0407
1323.00,0.0420
1322.00,0.0432
1321.00,0.0444
1320.00,0.0454
1319.00,0.0463
1318.00,0.0469
1317.00,0.0472
1316.00,0.0471
1315.00,0.0469
1314.00,0.0464
1313.00,0.0458
1312.00,0.0451
1311.00,0.0444
1310.00,0.0438
1309.00,0.0433
1308.00,0.0429
1307.00,0.0427
1306.00,0.0427
1305.00,0.0428
1304.00,0.0431
1303.00,0.0438
1302.00,0.0450
1301.00,0.0466
1300.00,0.0489
1299.00,0.0518
1298.00,0.0554
1297.00,0.0597
1296.00,0.0646
1295.00,0.0698
1294.00,0.0750
1293.00,0.0801
1292.00,0.0846
1291.00,0.0884
1290.00,0.0914
1289.00,0.0936
1288.00,0.0948
1287.00,0.0952
1286.00,0.0947
1285.00,0.0936
1284.00,0.0918
1283.00,0.0897
1282.00,0.0874
1281.00,0.0852
1280.00,0.0834
1279.00,0.0821
1278.00,0.0813
1277.00,0.0810
1276.00,0.0811
1275.00,0.0814
1274.00,0.0816
1273.00,0.0818
1272.00,0.0816
1271.00,0.0809
1270.00,0.0797
1269.00,0.0781
1268.00,0.0762
1267.00,0.0739
1266.00,0.0716
1265.00,0.0692
1264.00,0.0669
1263.00,0.0648
1262.00,0.0631
1261.00,0.0618
1260.00,0.0608
1259.00,0.0603
1258.00,0.0602
1257.00,0.0604
1256.00,0.0609
1255.00,0.0616
1254.00,0.0623
1253.00,0.0630
1252.00,0.0636
1251.00,0.0641
1250.00,0.0644
1249.00,0.0646
1248.00,0.0647
1247.00,0.0647
1246.00,0.0646
1245.00,0.0644
1244.00,0.0640
1243.00,0.0635
1242.00,0.0628
1241.00,0.0620
1240.00,0.0610
1239.00,0.0600
1238.00,0.0590
1237.00,0.0581
1236.00,0.0572
1235.00,0.0565
1234.00,0.0558
1233.00,0.0553
1232.00,0.0549
1231.00,0.0546
1230.00,0.0544
1229.00,0.0543
1228.00,0.0542
1227.00,0.0541
1226.00,0.0540
1225.00,0.0539
1224.00,0.0536
1223.00,0.0533
1222.00,0.0529
1221.00,0.0523
1220.00,0.0517
1219.00,0.0511
1218.00,0.0504
1217.00,0.0498
1216.00,0.0490
1215.00,0.0483
1214.00,0.0475
1213.00,0.0468
1212.00,0.0460
1211.00,0.0452
1210.00,0.0446
1209.00,0.0441
1208.00,0.0438
1207.00,0.0436
1206.00,0.0437
1205.00,0.0438
1204.00,0.0439
1203.00,0.0439
1202.00,0.0437
1201.00,0.0433
1200.00,0.0426
1199.00,0.0417
1198.00,0.0408
1197.00,0.0399
1196.00,0.0390
1195.00,0.0383
1194.00,0.0377
1193.00,0.0371
1192.00,0.0367
1191.00,0.0364
1190.00,0.0362
1189.00,0.0360
1188.00,0.0357
1187.00,0.0355
1186.00,0.0353
1185.00,0.0350
1184.00,0.0348
1183.00,0.0347
1182.00,0.0347
1181.00,0.0348
1180.00,0.0351
1179.00,0.0357
1178.00,0.0365
1177.00,0.0375
1176.00,0.0385
1175.00,0.0396
1174.00,0.0405
1173.00,0.0412
1172.00,0.0416
1171.00,0.0416
1170.00,0.0412
1169.00,0.0406
1168.00,0.0397
1167.00,0.0386
1166.00,0.0375
1165.00,0.0364
1164.00,0.0353
1163.00,0.0344
1162.00,0.0337
1161.00,0.0332
1160.00,0.0332
1159.00,0.0335
1158.00,0.0342
1157.00,0.0354
1156.00,0.0367
1155.00,0.0381
1154.00,0.0394
1153.00,0.0403
1152.00,0.0407
1151.00,0.0405
1150.00,0.0398
1149.00,0.0386
1148.00,0.0369
1147.00,0.0349
1146.00,0.0327
1145.00,0.0307
1144.00,0.0289
1143.00,0.0274
1142.00,0.0262
1141.00,0.0253
1140.00,0.0247
1139.00,0.0242
1138.00,0.0240
1137.00,0.0239
1136.00,0.0237
1135.00,0.0235
1134.00,0.0232
1133.00,0.0230
1132.00,0.0226
1131.00,0.0223
1130.00,0.0220
1129.00,0.0218
1128.00,0.0216
1127.00,0.0214
1126.00,0.0213
1125.00,0.0213
1124.00,0.0212
1123.00,0.0212
1122.00,0.0212
1121.00,0.0213
1120.00,0.0213
1119.00,0.0214
1118.00,0.0215
1117.00,0.0216
1116.00,0.0217
1115.00,0.0219
1114.00,0.0221
1113.00,0.0224
1112.00,0.0226
1111.00,0.0227
1110.00,0.0228
1109.00,0.0228
1108.00,0.0229
1107.00,0.0229
1106.00,0.0230
1105.00,0.0231
1104.00,0.0232
1103.00,0.0233
1102.00,0.0236
1101.00,0.0239
1100.00,0.0241
1099.00,0.0244
1098.00,0.0247
1097.00,0.0248
1096.00,0.0248
1095.00,0.0248
1094.00,0.0246
1093.00,0.0243
1092.00,0.0239
1091.00,0.0234
1090.00,0.0230
1089.00,0.0227
1088.00,0.0224
1087.00,0.0223
1086.00,0.0224
1085.00,0.0226
1084.00,0.0228
1083.00,0.0231
1082.00,0.0235
1081.00,0.0239
1080.00,0.0244
1079.00,0.0248
1078.00,0.0251
1077.00,0.0253
1076.00,0.0254
1075.00,0.0253
1074.00,0.0252
1073.00,0.0250
1072.00,0.0246
1071.00,0.0242
1070.00,0.0238
1069.00,0.0235
1068.00,0.0233
1067.00,0.0233
1066.00,0.0235
1065.00,0.0239
1064.00,0.0245
1063.00,0.0254
1062.00,0.0269
1061.00,0.0288
1060.00,0.0314
1059.00,0.0343
1058.00,0.0376
1057.00,0.0407
1056.00,0.0432
1055.00,0.0447
1054.00,0.0449
1053.00,0.0439
1052.00,0.0418
1051.00,0.0390
1050.00,0.0362
1049.00,0.0336
1048.00,0.0316
1047.00,0.0303
1046.00,0.0296
1045.00,0.0295
1044.00,0.0298
1043.00,0.0305
1042.00,0.0317
1041.00,0.0332
1040.00,0.0351
1039.00,0.0375
1038.00,0.0405
1037.00,0.0439
1036.00,0.0476
1035.00,0.0514
1034.00,0.0552
1033.00,0.0585
1032.00,0.0613
1031.00,0.0633
1030.00,0.0644
1029.00,0.0645
1028.00,0.0636
1027.00,0.0618
1026.00,0.0595
1025.00,0.0568
1024.00,0.0542
1023.00,0.0519
1022.00,0.0499
1021.00,0.0484
1020.00,0.0470
1019.00,0.0459
1018.00,0.0447
1017.00,0.0434
1016.00,0.0420
1015.00,0.0404
1014.00,0.0388
1013.00,0.0372
1012.00,0.0357
1011.00,0.0345
1010.00,0.0334
1009.00,0.0326
1008.00,0.0320
1007.00,0.0316
1006.00,0.0314
1005.00,0.0313
1004.00,0.0311
1003.00,0.0310
1002.00,0.0307
1001.00,0.0304
1000.00,0.0300
999.00,0.0295
998.00,0.0290
997.00,0.0284
996.00,0.0278
995.00,0.0272
994.00,0.0268
993.00,0.0265
992.00,0.0263
991.00,0.0263
990.00,0.0264
989.00,0.0264
988.00,0.0263
987.00,0.0262
986.00,0.0260
985.00,0.0256
984.00,0.0251
983.00,0.0246
982.00,0.0240
981.00,0.0235
980.00,0.0231
979.00,0.0228
978.00,0.0225
977.00,0.0224
976.00,0.0223
975.00,0.0222
974.00,0.0221
973.00,0.0221
972.00,0.0220
971.00,0.0220
970.00,0.0221
969.00,0.0222
968.00,0.0222
967.00,0.0223
966.00,0.0224
965.00,0.0225
964.00,0.0225
963.00,0.0224
962.00,0.0223
961.00,0.0221
960.00,0.0217
959.00,0.0213
958.00,0.0208
957.00,0.0202
956.00,0.0194
955.00,0.0187
954.00,0.0180
953.00,0.0174
952.00,0.0169
951.00,0.0165
950.00,0.0162
949.00,0.0159
948.00,0.0157
947.00,0.0155
946.00,0.0154
945.00,0.0154
944.00,0.0153
943.00,0.0154
942.00,0.0155
941.00,0.0157
940.00,0.0160
939.00,0.0164
938.00,0.0168
937.00,0.0174
936.00,0.0180
935.00,0.0185
934.00,0.0190
933.00,0.0193
932.00,0.0194
931.00,0.0193
930.00,0.0191
929.00,0.0188
928.00,0.0184
927.00,0.0181
926.00,0.0179
925.00,0.0178
924.00,0.0176
923.00,0.0175
922.00,0.0175
921.00,0.0175
920.00,0.0176
919.00,0.0178
918.00,0.0180
917.00,0.0183
916.00,0.0185
915.00,0.0187
914.00,0.0190
913.00,0.0193
912.00,0.0196
911.00,0.0198
910.00,0.0203
909.00,0.0208
908.00,0.0214
907.00,0.0222
906.00,0.0232
905.00,0.0242
904.00,0.0253
903.00,0.0264
902.00,0.0274
901.00,0.0284
900.00,0.0293
899.00,0.0300
898.00,0.0308
897.00,0.0315
896.00,0.0322
895.00,0.0328
894.00,0.0335
893.00,0.0342
892.00,0.0348
891.00,0.0355
890.00,0.0362
889.00,0.0369
888.00,0.0376
887.00,0.0381
886.00,0.0386
885.00,0.0390
884.00,0.0391
883.00,0.0390
882.00,0.0388
881.00,0.0384
880.00,0.0377
879.00,0.0370
878.00,0.0361
877.00,0.0351
876.00,0.0341
875.00,0.0332
874.00,0.0323
873.00,0.0316
872.00,0.0309
871.00,0.0303
870.00,0.0299
869.00,0.0298
868.00,0.0297
867.00,0.0299
866.00,0.0302
865.00,0.0305
864.00,0.0309
863.00,0.0312
862.00,0.0316
861.00,0.0320
860.00,0.0326
859.00,0.0332
858.00,0.0340
857.00,0.0348
856.00,0.0356
855.00,0.0364
854.00,0.0373
853.00,0.0381
852.00,0.0388
851.00,0.0394
850.00,0.0400
849.00,0.0404
848.00,0.0408
847.00,0.0412
846.00,0.0414
845.00,0.0416
844.00,0.0417
843.00,0.0418
842.00,0.0418
841.00,0.0418
840.00,0.0419
839.00,0.0421
838.00,0.0423
837.00,0.0426
836.00,0.0429
835.00,0.0433
834.00,0.0437
833.00,0.0441
832.00,0.0444
831.00,0.0445
830.00,0.0446
829.00,0.0445
828.00,0.0441
827.00,0.0434
826.00,0.0427
825.00,0.0417
824.00,0.0406
823.00,0.0394
822.00,0.0382
821.00,0.0370
820.00,0.0357
819.00,0.0346
818.00,0.0336
817.00,0.0327
816.00,0.0320
815.00,0.0315
814.00,0.0311
813.00,0.0308
812.00,0.0306
811.00,0.0304
810.00,0.0304
809.00,0.0306
808.00,0.0308
807.00,0.0312
806.00,0.0316
805.00,0.0319
804.00,0.0319
803.00,0.0315
802.00,0.0309
801.00,0.0302
800.00,0.0295
799.00,0.0291
798.00,0.0289
797.00,0.0290
796.00,0.0291
795.00,0.0293
794.00,0.0294
793.00,0.0294
792.00,0.0293
791.00,0.0290
790.00,0.0287
789.00,0.0283
788.00,0.0279
787.00,0.0275
786.00,0.0272
785.00,0.0269
784.00,0.0267
783.00,0.0265
782.00,0.0265
781.00,0.0266
780.00,0.0268
779.00,0.0271
778.00,0.0274
777.00,0.0279
776.00,0.0283
775.00,0.0286
774.00,0.0290
773.00,0.0294
772.00,0.0296
771.00,0.0298
770.00,0.0299
769.00,0.0300
768.00,0.0301
767.00,0.0302
766.00,0.0304
765.00,0.0306
764.00,0.0309
763.00,0.0312
762.00,0.0317
761.00,0.0323
760.00,0.0330
759.00,0.0337
758.00,0.0345
757.00,0.0351
756.00,0.0355
755.00,0.0358
754.00,0.0359
753.00,0.0359
752.00,0.0357
751.00,0.0354
750.00,0.0352
749.00,0.0350
748.00,0.0349
747.00,0.0349
746.00,0.0351
745.00,0.0353
744.00,0.0355
743.00,0.0359
742.00,0.0364
741.00,0.0370
740.00,0.0375
739.00,0.0380
738.00,0.0386
737.00,0.0391
736.00,0.0395
735.00,0.0400
734.00,0.0404
733.00,0.0407
732.00,0.0407
731.00,0.0405
730.00,0.0401
729.00,0.0396
728.00,0.0389
727.00,0.0382
726.00,0.0375
725.00,0.0369
724.00,0.0362
723.00,0.0355
722.00,0.0349
721.00,0.0344
720.00,0.0340
719.00,0.0336
718.00,0.0333
717.00,0.0331
716.00,0.0329
715.00,0.0327
714.00,0.0326
713.00,0.0325
712.00,0.0325
711.00,0.0324
710.00,0.0325
709.00,0.0325
708.00,0.0325
707.00,0.0324
706.00,0.0325
705.00,0.0325
704.00,0.0326
703.00,0.0327
702.00,0.0328
701.00,0.0330
700.00,0.0331
699.00,0.0332
698.00,0.0334
697.00,0.0336
696.00,0.0338
695.00,0.0340
694.00,0.0343
693.00,0.0346
692.00,0.0348
691.00,0.0351
690.00,0.0354
689.00,0.0358
688.00,0.0362
687.00,0.0366
686.00,0.0372
685.00,0.0377
684.00,0.0382
683.00,0.0387
682.00,0.0392
681.00,0.0396
680.00,0.0401
679.00,0.0405
678.00,0.0411
677.00,0.0415
676.00,0.0418
675.00,0.0421
674.00,0.0424
673.00,0.0427
672.00,0.0430
671.00,0.0433
670.00,0.0439
669.00,0.0446
668.00,0.0455
667.00,0.0461
666.00,0.0464
665.00,0.0465
664.00,0.0468
663.00,0.0473
662.00,0.0479
661.00,0.0485
660.00,0.0491
659.00,0.0498
658.00,0.0507
657.00,0.0516
656.00,0.0524
655.00,0.0532
654.00,0.0540
653.00,0.0547
652.00,0.0554
651.00,0.0559
650.00,0.0562
649.00,0.0564
648.00,0.0563
647.00,0.0561
646.00,0.0558
645.00,0.0553
644.00,0.0547
643.00,0.0539
642.00,0.0530
641.00,0.0519
640.00,0.0508
639.00,0.0497
638.00,0.0488
637.00,0.0479
636.00,0.0470
635.00,0.0461
634.00,0.0452
633.00,0.0443
632.00,0.0435
631.00,0.0428
630.00,0.0423
629.00,0.0417
628.00,0.0411
627.00,0.0406
626.00,0.0401
625.00,0.0397
624.00,0.0393
623.00,0.0390
622.00,0.0388
621.00,0.0387
620.00,0.0387
619.00,0.0387
618.00,0.0388
617.00,0.0391
616.00,0.0392
615.00,0.0393
614.00,0.0394
613.00,0.0395
612.00,0.0396
611.00,0.0397
610.00,0.0400
609.00,0.0402
608.00,0.0403
607.00,0.0404
606.00,0.0406
605.00,0.0408
604.00,0.0409
603.00,0.0410
602.00,0.0411
601.00,0.0412
600.00,0.0413
599.00,0.0415
598.00,0.0418
597.00,0.0420
596.00,0.0421
595.00,0.0421
594.00,0.0421
593.00,0.0421
592.00,0.0423
591.00,0.0425
590.00,0.0429
589.00,0.0433
588.00,0.0438
587.00,0.0444
586.00,0.0452
585.00,0.0460
584.00,0.0469
583.00,0.0479
582.00,0.0490
581.00,0.0501
580.00,0.0510
579.00,0.0516
578.00,0.0520
577.00,0.0522
576.00,0.0522
575.00,0.0521
574.00,0.0519
573.00,0.0516
572.00,0.0512
571.00,0.0507
570.00,0.0503
569.00,0.0499
568.00,0.0492
567.00,0.0486
566.00,0.0480
565.00,0.0476
564.00,0.0471
563.00,0.0466
562.00,0.0462
561.00,0.0460
560.00,0.0460
559.00,0.0461
558.00,0.0465
557.00,0.0470
556.00,0.0475
555.00,0.0480
554.00,0.0486
553.00,0.0491
552.00,0.0492
551.00,0.0490
550.00,0.0487
549.00,0.0484
548.00,0.0478
547.00,0.0472
546.00,0.0466
545.00,0.0459
544.00,0.0452
543.00,0.0446
542.00,0.0442
541.00,0.0440
540.00,0.0437
539.00,0.0436
538.00,0.0437
537.00,0.0440
536.00,0.0442
535.00,0.0443
534.00,0.0446
533.00,0.0447
532.00,0.0445
531.00,0.0442
530.00,0.0443
529.00,0.0445
528.00,0.0449
527.00,0.0455
526.00,0.0464
525.00,0.0472
524.00,0.0475
523.00,0.0473
522.00,0.0468
521.00,0.0459
520.00,0.0447
519.00,0.0434
518.00,0.0424
517.00,0.0414
516.00,0.0405
515.00,0.0398
514.00,0.0394
513.00,0.0391
512.00,0.0388
511.00,0.0386
510.00,0.0385
509.00,0.0383
508.00,0.0381
507.00,0.0379
506.00,0.0380
505.00,0.0381
504.00,0.0380
503.00,0.0379
502.00,0.0379
501.00,0.0380
500.00,0.0381
499.00,0.0383
498.00,0.0389
497.00,0.0393
496.00,0.0395
495.00,0.0397
494.00,0.0401
493.00,0.0406
492.00,0.0409
491.00,0.0412
490.00,0.0414
489.00,0.0415
488.00,0.0415
487.00,0.0416
486.00,0.0419
485.00,0.0421
484.00,0.0422
483.00,0.0422
482.00,0.0425
481.00,0.0428
480.00,0.0428
479.00,0.0428
478.00,0.0431
477.00,0.0433
476.00,0.0433
475.00,0.0434
474.00,0.0437
473.00,0.0441
472.00,0.0444
471.00,0.0446
470.00,0.0448
469.00,0.0448
468.00,0.0444
467.00,0.0439
466.00,0.0438
465.00,0.0437
464.00,0.0433
463.00,0.0429
462.00,0.0428
461.00,0.0427
460.00,0.0424
459.00,0.0420
458.00,0.0416
457.00,0.0410
456.00,0.0401
455.00,0.0396
454.00,0.0397
453.00,0.0399
452.00,0.0398
451.00,0.0397
450.00,0.0401
449.00,0.0406
448.00,0.0407
447.00,0.0405
446.00,0.0404
445.00,0.0402
444.00,0.0398
443.00,0.0396
442.00,0.0398
441.00,0.0399
440.00,0.0396
439.00,0.0395
438.00,0.0397
437.00,0.0400
436.00,0.0398
435.00,0.0394
434.00,0.0392
433.00,0.0392
432.00,0.0390
431.00,0.0390
430.00,0.0394
429.00,0.0399
428.00,0.0400
427.00,0.0403
426.00,0.0411
425.00,0.0418
424.00,0.0419
423.00,0.0416
422.00,0.0417
421.00,0.0419
420.00,0.0417
419.00,0.0412
418.00,0.0412
417.00,0.0411
416.00,0.0405
415.00,0.0402
414.00,0.0404
413.00,0.0403
412.00,0.0392
411.00,0.0380
410.00,0.0377
409.00,0.0378
408.00,0.0376
407.00,0.0373
406.00,0.0373
405.00,0.0374
404.00,0.0373
403.00,0.0380
402.00,0.0397
401.00,0.0412
400.00,0.0415
