Created as New Dataset,Sample 845 By YargerLab Date Monday, July 21 2025
cm-1,A
4000.00,0.0078
3999.00,0.0078
3998.00,0.0078
3997.00,0.0078
3996.00,0.0078
3995.00,0.0078
3994.00,0.0078
3993.00,0.0078
3992.00,0.0078
3991.00,0.0078
3990.00,0.0078
3989.00,0.0078
3988.00,0.0078
3987.00,0.0078
3986.00,0.0078
3985.00,0.0078
3984.00,0.0078
3983.00,0.0078
3982.00,0.0078
3981.00,0.0078
3980.00,0.0078
3979.00,0.0078
3978.00,0.0078
3977.00,0.0078
3976.00,0.0078
3975.00,0.0078
3974.00,0.0078
3973.00,0.0078
3972.00,0.0078
3971.00,0.0078
3970.00,0.0078
3969.00,0.0078
3968.00,0.0079
3967.00,0.0079
3966.00,0.0079
3965.00,0.0079
3964.00,0.0079
3963.00,0.0079
3962.00,0.0079
3961.00,0.0079
3960.00,0.0079
3959.00,0.0079
3958.00,0.0079
3957.00,0.0079
3956.00,0.0079
3955.00,0.0079
3954.00,0.0079
3953.00,0.0079
3952.00,0.0079
3951.00,0.0079
3950.00,0.0079
3949.00,0.0079
3948.00,0.0079
3947.00,0.0079
3946.00,0.0079
3945.00,0.0079
3944.00,0.0079
3943.00,0.0079
3942.00,0.0079
3941.00,0.0079
3940.00,0.0079
3939.00,0.0078
3938.00,0.0078
3937.00,0.0078
3936.00,0.0079
3935.00,0.0079
3934.00,0.0079
3933.00,0.0079
3932.00,0.0079
3931.00,0.0079
3930.00,0.0079
3929.00,0.0079
3928.00,0.0079
3927.00,0.0079
3926.00,0.0079
3925.00,0.0079
3924.00,0.0080
3923.00,0.0080
3922.00,0.0080
3921.00,0.0080
3920.00,0.0080
3919.00,0.0080
3918.00,0.0080
3917.00,0.0079
3916.00,0.0079
3915.00,0.0079
3914.00,0.0079
3913.00,0.0079
3912.00,0.0079
3911.00,0.0079
3910.00,0.0079
3909.00,0.0079
3908.00,0.0079
3907.00,0.0079
3906.00,0.0079
3905.00,0.0078
3904.00,0.0078
3903.00,0.0078
3902.00,0.0078
3901.00,0.0078
3900.00,0.0078
3899.00,0.0078
3898.00,0.0078
3897.00,0.0078
3896.00,0.0078
3895.00,0.0077
3894.00,0.0077
3893.00,0.0077
3892.00,0.0077
3891.00,0.0077
3890.00,0.0077
3889.00,0.0077
3888.00,0.0077
3887.00,0.0077
3886.00,0.0077
3885.00,0.0077
3884.00,0.0077
3883.00,0.0077
3882.00,0.0077
3881.00,0.0077
3880.00,0.0077
3879.00,0.0077
3878.00,0.0078
3877.00,0.0078
3876.00,0.0077
3875.00,0.0077
3874.00,0.0077
3873.00,0.0077
3872.00,0.0077
3871.00,0.0077
3870.00,0.0076
3869.00,0.0076
3868.00,0.0076
3867.00,0.0076
3866.00,0.0077
3865.00,0.0077
3864.00,0.0077
3863.00,0.0077
3862.00,0.0077
3861.00,0.0077
3860.00,0.0077
3859.00,0.0077
3858.00,0.0077
3857.00,0.0077
3856.00,0.0077
3855.00,0.0077
3854.00,0.0077
3853.00,0.0077
3852.00,0.0076
3851.00,0.0076
3850.00,0.0076
3849.00,0.0076
3848.00,0.0076
3847.00,0.0076
3846.00,0.0076
3845.00,0.0077
3844.00,0.0077
3843.00,0.0077
3842.00,0.0077
3841.00,0.0077
3840.00,0.0077
3839.00,0.0077
3838.00,0.0077
3837.00,0.0076
3836.00,0.0076
3835.00,0.0076
3834.00,0.0076
3833.00,0.0076
3832.00,0.0076
3831.00,0.0076
3830.00,0.0076
3829.00,0.0076
3828.00,0.0076
3827.00,0.0076
3826.00,0.0076
3825.00,0.0076
3824.00,0.0076
3823.00,0.0076
3822.00,0.0075
3821.00,0.0075
3820.00,0.0075
3819.00,0.0075
3818.00,0.0075
3817.00,0.0075
3816.00,0.0075
3815.00,0.0075
3814.00,0.0075
3813.00,0.0075
3812.00,0.0075
3811.00,0.0075
3810.00,0.0075
3809.00,0.0076
3808.00,0.0075
3807.00,0.0075
3806.00,0.0075
3805.00,0.0076
3804.00,0.0076
3803.00,0.0076
3802.00,0.0075
3801.00,0.0075
3800.00,0.0075
3799.00,0.0075
3798.00,0.0075
3797.00,0.0075
3796.00,0.0075
3795.00,0.0075
3794.00,0.0075
3793.00,0.0075
3792.00,0.0075
3791.00,0.0075
3790.00,0.0075
3789.00,0.0075
3788.00,0.0075
3787.00,0.0075
3786.00,0.0075
3785.00,0.0075
3784.00,0.0075
3783.00,0.0075
3782.00,0.0075
3781.00,0.0075
3780.00,0.0075
3779.00,0.0075
3778.00,0.0075
3777.00,0.0075
3776.00,0.0075
3775.00,0.0075
3774.00,0.0075
3773.00,0.0075
3772.00,0.0075
3771.00,0.0075
3770.00,0.0075
3769.00,0.0075
3768.00,0.0075
3767.00,0.0075
3766.00,0.0075
3765.00,0.0075
3764.00,0.0075
3763.00,0.0075
3762.00,0.0074
3761.00,0.0074
3760.00,0.0074
3759.00,0.0074
3758.00,0.0074
3757.00,0.0074
3756.00,0.0074
3755.00,0.0074
3754.00,0.0074
3753.00,0.0074
3752.00,0.0074
3751.00,0.0075
3750.00,0.0075
3749.00,0.0075
3748.00,0.0075
3747.00,0.0074
3746.00,0.0074
3745.00,0.0074
3744.00,0.0074
3743.00,0.0074
3742.00,0.0074
3741.00,0.0074
3740.00,0.0075
3739.00,0.0075
3738.00,0.0075
3737.00,0.0074
3736.00,0.0074
3735.00,0.0074
3734.00,0.0073
3733.00,0.0073
3732.00,0.0073
3731.00,0.0073
3730.00,0.0073
3729.00,0.0073
3728.00,0.0073
3727.00,0.0073
3726.00,0.0073
3725.00,0.0073
3724.00,0.0073
3723.00,0.0073
3722.00,0.0073
3721.00,0.0072
3720.00,0.0072
3719.00,0.0072
3718.00,0.0072
3717.00,0.0072
3716.00,0.0073
3715.00,0.0073
3714.00,0.0073
3713.00,0.0072
3712.00,0.0072
3711.00,0.0072
3710.00,0.0071
3709.00,0.0071
3708.00,0.0071
3707.00,0.0071
3706.00,0.0071
3705.00,0.0071
3704.00,0.0072
3703.00,0.0072
3702.00,0.0072
3701.00,0.0072
3700.00,0.0072
3699.00,0.0072
3698.00,0.0072
3697.00,0.0072
3696.00,0.0072
3695.00,0.0072
3694.00,0.0072
3693.00,0.0072
3692.00,0.0072
3691.00,0.0072
3690.00,0.0071
3689.00,0.0071
3688.00,0.0071
3687.00,0.0071
3686.00,0.0071
3685.00,0.0071
3684.00,0.0071
3683.00,0.0071
3682.00,0.0072
3681.00,0.0072
3680.00,0.0072
3679.00,0.0073
3678.00,0.0073
3677.00,0.0073
3676.00,0.0072
3675.00,0.0072
3674.00,0.0071
3673.00,0.0071
3672.00,0.0071
3671.00,0.0071
3670.00,0.0070
3669.00,0.0071
3668.00,0.0071
3667.00,0.0071
3666.00,0.0071
3665.00,0.0071
3664.00,0.0071
3663.00,0.0071
3662.00,0.0071
3661.00,0.0071
3660.00,0.0071
3659.00,0.0070
3658.00,0.0070
3657.00,0.0070
3656.00,0.0070
3655.00,0.0070
3654.00,0.0070
3653.00,0.0070
3652.00,0.0070
3651.00,0.0070
3650.00,0.0069
3649.00,0.0069
3648.00,0.0069
3647.00,0.0069
3646.00,0.0069
3645.00,0.0069
3644.00,0.0069
3643.00,0.0069
3642.00,0.0069
3641.00,0.0069
3640.00,0.0069
3639.00,0.0069
3638.00,0.0069
3637.00,0.0070
3636.00,0.0070
3635.00,0.0070
3634.00,0.0070
3633.00,0.0070
3632.00,0.0070
3631.00,0.0070
3630.00,0.0070
3629.00,0.0070
3628.00,0.0070
3627.00,0.0070
3626.00,0.0070
3625.00,0.0070
3624.00,0.0069
3623.00,0.0069
3622.00,0.0069
3621.00,0.0069
3620.00,0.0069
3619.00,0.0070
3618.00,0.0070
3617.00,0.0070
3616.00,0.0070
3615.00,0.0070
3614.00,0.0070
3613.00,0.0070
3612.00,0.0070
3611.00,0.0070
3610.00,0.0070
3609.00,0.0070
3608.00,0.0070
3607.00,0.0070
3606.00,0.0070
3605.00,0.0070
3604.00,0.0070
3603.00,0.0070
3602.00,0.0070
3601.00,0.0070
3600.00,0.0071
3599.00,0.0071
3598.00,0.0071
3597.00,0.0071
3596.00,0.0072
3595.00,0.0072
3594.00,0.0072
3593.00,0.0071
3592.00,0.0071
3591.00,0.0071
3590.00,0.0071
3589.00,0.0071
3588.00,0.0071
3587.00,0.0071
3586.00,0.0071
3585.00,0.0072
3584.00,0.0072
3583.00,0.0072
3582.00,0.0072
3581.00,0.0073
3580.00,0.0073
3579.00,0.0073
3578.00,0.0073
3577.00,0.0074
3576.00,0.0074
3575.00,0.0074
3574.00,0.0074
3573.00,0.0075
3572.00,0.0075
3571.00,0.0076
3570.00,0.0076
3569.00,0.0077
3568.00,0.0077
3567.00,0.0077
3566.00,0.0077
3565.00,0.0078
3564.00,0.0078
3563.00,0.0079
3562.00,0.0079
3561.00,0.0080
3560.00,0.0081
3559.00,0.0081
3558.00,0.0082
3557.00,0.0083
3556.00,0.0084
3555.00,0.0085
3554.00,0.0086
3553.00,0.0087
3552.00,0.0088
3551.00,0.0089
3550.00,0.0090
3549.00,0.0092
3548.00,0.0093
3547.00,0.0096
3546.00,0.0098
3545.00,0.0101
3544.00,0.0103
3543.00,0.0106
3542.00,0.0110
3541.00,0.0113
3540.00,0.0117
3539.00,0.0122
3538.00,0.0127
3537.00,0.0134
3536.00,0.0140
3535.00,0.0148
3534.00,0.0157
3533.00,0.0168
3532.00,0.0181
3531.00,0.0195
3530.00,0.0213
3529.00,0.0233
3528.00,0.0255
3527.00,0.0278
3526.00,0.0301
3525.00,0.0323
3524.00,0.0343
3523.00,0.0360
3522.00,0.0372
3521.00,0.0379
3520.00,0.0382
3519.00,0.0379
3518.00,0.0373
3517.00,0.0363
3516.00,0.0350
3515.00,0.0335
3514.00,0.0319
3513.00,0.0303
3512.00,0.0288
3511.00,0.0273
3510.00,0.0259
3509.00,0.0246
3508.00,0.0236
3507.00,0.0227
3506.00,0.0219
3505.00,0.0213
3504.00,0.0207
3503.00,0.0203
3502.00,0.0199
3501.00,0.0196
3500.00,0.0194
3499.00,0.0193
3498.00,0.0192
3497.00,0.0191
3496.00,0.0191
3495.00,0.0190
3494.00,0.0191
3493.00,0.0191
3492.00,0.0192
3491.00,0.0193
3490.00,0.0194
3489.00,0.0195
3488.00,0.0197
3487.00,0.0198
3486.00,0.0200
3485.00,0.0201
3484.00,0.0203
3483.00,0.0206
3482.00,0.0208
3481.00,0.0211
3480.00,0.0213
3479.00,0.0216
3478.00,0.0219
3477.00,0.0222
3476.00,0.0225
3475.00,0.0228
3474.00,0.0232
3473.00,0.0236
3472.00,0.0239
3471.00,0.0244
3470.00,0.0248
3469.00,0.0252
3468.00,0.0256
3467.00,0.0260
3466.00,0.0264
3465.00,0.0269
3464.00,0.0273
3463.00,0.0278
3462.00,0.0283
3461.00,0.0288
3460.00,0.0293
3459.00,0.0298
3458.00,0.0303
3457.00,0.0308
3456.00,0.0313
3455.00,0.0318
3454.00,0.0322
3453.00,0.0327
3452.00,0.0331
3451.00,0.0336
3450.00,0.0340
3449.00,0.0345
3448.00,0.0349
3447.00,0.0353
3446.00,0.0357
3445.00,0.0362
3444.00,0.0366
3443.00,0.0370
3442.00,0.0374
3441.00,0.0378
3440.00,0.0383
3439.00,0.0387
3438.00,0.0391
3437.00,0.0395
3436.00,0.0399
3435.00,0.0403
3434.00,0.0406
3433.00,0.0410
3432.00,0.0413
3431.00,0.0417
3430.00,0.0420
3429.00,0.0424
3428.00,0.0427
3427.00,0.0431
3426.00,0.0435
3425.00,0.0440
3424.00,0.0445
3423.00,0.0450
3422.00,0.0455
3421.00,0.0461
3420.00,0.0467
3419.00,0.0474
3418.00,0.0481
3417.00,0.0488
3416.00,0.0495
3415.00,0.0502
3414.00,0.0508
3413.00,0.0514
3412.00,0.0518
3411.00,0.0522
3410.00,0.0524
3409.00,0.0524
3408.00,0.0524
3407.00,0.0521
3406.00,0.0517
3405.00,0.0510
3404.00,0.0503
3403.00,0.0494
3402.00,0.0483
3401.00,0.0471
3400.00,0.0458
3399.00,0.0445
3398.00,0.0431
3397.00,0.0417
3396.00,0.0403
3395.00,0.0390
3394.00,0.0376
3393.00,0.0364
3392.00,0.0351
3391.00,0.0340
3390.00,0.0329
3389.00,0.0319
3388.00,0.0310
3387.00,0.0301
3386.00,0.0293
3385.00,0.0285
3384.00,0.0278
3383.00,0.0271
3382.00,0.0265
3381.00,0.0259
3380.00,0.0254
3379.00,0.0248
3378.00,0.0243
3377.00,0.0239
3376.00,0.0234
3375.00,0.0230
3374.00,0.0225
3373.00,0.0221
3372.00,0.0218
3371.00,0.0214
3370.00,0.0210
3369.00,0.0207
3368.00,0.0203
3367.00,0.0200
3366.00,0.0197
3365.00,0.0194
3364.00,0.0191
3363.00,0.0188
3362.00,0.0185
3361.00,0.0182
3360.00,0.0180
3359.00,0.0177
3358.00,0.0174
3357.00,0.0172
3356.00,0.0170
3355.00,0.0167
3354.00,0.0165
3353.00,0.0163
3352.00,0.0161
3351.00,0.0159
3350.00,0.0157
3349.00,0.0156
3348.00,0.0154
3347.00,0.0153
3346.00,0.0151
3345.00,0.0150
3344.00,0.0148
3343.00,0.0146
3342.00,0.0145
3341.00,0.0143
3340.00,0.0142
3339.00,0.0140
3338.00,0.0139
3337.00,0.0138
3336.00,0.0137
3335.00,0.0136
3334.00,0.0135
3333.00,0.0134
3332.00,0.0133
3331.00,0.0132
3330.00,0.0131
3329.00,0.0130
3328.00,0.0128
3327.00,0.0127
3326.00,0.0126
3325.00,0.0125
3324.00,0.0124
3323.00,0.0124
3322.00,0.0123
3321.00,0.0122
3320.00,0.0122
3319.00,0.0121
3318.00,0.0121
3317.00,0.0120
3316.00,0.0119
3315.00,0.0118
3314.00,0.0117
3313.00,0.0116
3312.00,0.0116
3311.00,0.0115
3310.00,0.0114
3309.00,0.0114
3308.00,0.0113
3307.00,0.0113
3306.00,0.0112
3305.00,0.0111
3304.00,0.0111
3303.00,0.0110
3302.00,0.0110
3301.00,0.0110
3300.00,0.0109
3299.00,0.0108
3298.00,0.0108
3297.00,0.0107
3296.00,0.0106
3295.00,0.0106
3294.00,0.0105
3293.00,0.0105
3292.00,0.0105
3291.00,0.0105
3290.00,0.0105
3289.00,0.0104
3288.00,0.0104
3287.00,0.0103
3286.00,0.0102
3285.00,0.0102
3284.00,0.0101
3283.00,0.0101
3282.00,0.0100
3281.00,0.0100
3280.00,0.0100
3279.00,0.0099
3278.00,0.0099
3277.00,0.0098
3276.00,0.0098
3275.00,0.0097
3274.00,0.0097
3273.00,0.0096
3272.00,0.0096
3271.00,0.0096
3270.00,0.0096
3269.00,0.0096
3268.00,0.0096
3267.00,0.0097
3266.00,0.0097
3265.00,0.0096
3264.00,0.0096
3263.00,0.0096
3262.00,0.0096
3261.00,0.0095
3260.00,0.0095
3259.00,0.0095
3258.00,0.0095
3257.00,0.0095
3256.00,0.0094
3255.00,0.0095
3254.00,0.0095
3253.00,0.0095
3252.00,0.0094
3251.00,0.0094
3250.00,0.0094
3249.00,0.0093
3248.00,0.0093
3247.00,0.0093
3246.00,0.0093
3245.00,0.0093
3244.00,0.0093
3243.00,0.0093
3242.00,0.0093
3241.00,0.0093
3240.00,0.0093
3239.00,0.0092
3238.00,0.0092
3237.00,0.0091
3236.00,0.0090
3235.00,0.0090
3234.00,0.0089
3233.00,0.0089
3232.00,0.0089
3231.00,0.0089
3230.00,0.0090
3229.00,0.0090
3228.00,0.0090
3227.00,0.0089
3226.00,0.0089
3225.00,0.0089
3224.00,0.0089
3223.00,0.0089
3222.00,0.0089
3221.00,0.0088
3220.00,0.0088
3219.00,0.0088
3218.00,0.0088
3217.00,0.0088
3216.00,0.0088
3215.00,0.0088
3214.00,0.0089
3213.00,0.0088
3212.00,0.0088
3211.00,0.0088
3210.00,0.0088
3209.00,0.0088
3208.00,0.0088
3207.00,0.0088
3206.00,0.0088
3205.00,0.0088
3204.00,0.0088
3203.00,0.0088
3202.00,0.0088
3201.00,0.0087
3200.00,0.0087
3199.00,0.0087
3198.00,0.0087
3197.00,0.0087
3196.00,0.0087
3195.00,0.0087
3194.00,0.0086
3193.00,0.0086
3192.00,0.0087
3191.00,0.0087
3190.00,0.0087
3189.00,0.0087
3188.00,0.0087
3187.00,0.0087
3186.00,0.0087
3185.00,0.0087
3184.00,0.0087
3183.00,0.0086
3182.00,0.0087
3181.00,0.0087
3180.00,0.0087
3179.00,0.0087
3178.00,0.0087
3177.00,0.0087
3176.00,0.0087
3175.00,0.0087
3174.00,0.0087
3173.00,0.0087
3172.00,0.0087
3171.00,0.0088
3170.00,0.0088
3169.00,0.0088
3168.00,0.0089
3167.00,0.0089
3166.00,0.0089
3165.00,0.0089
3164.00,0.0089
3163.00,0.0089
3162.00,0.0088
3161.00,0.0088
3160.00,0.0088
3159.00,0.0088
3158.00,0.0088
3157.00,0.0087
3156.00,0.0087
3155.00,0.0086
3154.00,0.0086
3153.00,0.0085
3152.00,0.0086
3151.00,0.0086
3150.00,0.0086
3149.00,0.0086
3148.00,0.0086
3147.00,0.0086
3146.00,0.0086
3145.00,0.0086
3144.00,0.0086
3143.00,0.0085
3142.00,0.0085
3141.00,0.0084
3140.00,0.0084
3139.00,0.0084
3138.00,0.0084
3137.00,0.0084
3136.00,0.0085
3135.00,0.0085
3134.00,0.0085
3133.00,0.0084
3132.00,0.0084
3131.00,0.0084
3130.00,0.0084
3129.00,0.0084
3128.00,0.0084
3127.00,0.0084
3126.00,0.0084
3125.00,0.0084
3124.00,0.0084
3123.00,0.0084
3122.00,0.0084
3121.00,0.0083
3120.00,0.0083
3119.00,0.0083
3118.00,0.0083
3117.00,0.0083
3116.00,0.0083
3115.00,0.0084
3114.00,0.0084
3113.00,0.0084
3112.00,0.0084
3111.00,0.0084
3110.00,0.0084
3109.00,0.0084
3108.00,0.0083
3107.00,0.0083
3106.00,0.0083
3105.00,0.0083
3104.00,0.0083
3103.00,0.0084
3102.00,0.0084
3101.00,0.0084
3100.00,0.0084
3099.00,0.0085
3098.00,0.0085
3097.00,0.0085
3096.00,0.0085
3095.00,0.0085
3094.00,0.0085
3093.00,0.0085
3092.00,0.0086
3091.00,0.0086
3090.00,0.0086
3089.00,0.0087
3088.00,0.0087
3087.00,0.0088
3086.00,0.0089
3085.00,0.0090
3084.00,0.0092
3083.00,0.0094
3082.00,0.0098
3081.00,0.0102
3080.00,0.0108
3079.00,0.0116
3078.00,0.0125
3077.00,0.0135
3076.00,0.0143
3075.00,0.0149
3074.00,0.0150
3073.00,0.0148
3072.00,0.0142
3071.00,0.0134
3070.00,0.0125
3069.00,0.0118
3068.00,0.0111
3067.00,0.0107
3066.00,0.0103
3065.00,0.0100
3064.00,0.0098
3063.00,0.0096
3062.00,0.0095
3061.00,0.0094
3060.00,0.0093
3059.00,0.0092
3058.00,0.0092
3057.00,0.0091
3056.00,0.0091
3055.00,0.0090
3054.00,0.0090
3053.00,0.0089
3052.00,0.0089
3051.00,0.0090
3050.00,0.0090
3049.00,0.0091
3048.00,0.0091
3047.00,0.0092
3046.00,0.0093
3045.00,0.0093
3044.00,0.0094
3043.00,0.0095
3042.00,0.0096
3041.00,0.0097
3040.00,0.0098
3039.00,0.0098
3038.00,0.0099
3037.00,0.0100
3036.00,0.0101
3035.00,0.0103
3034.00,0.0104
3033.00,0.0105
3032.00,0.0105
3031.00,0.0105
3030.00,0.0105
3029.00,0.0104
3028.00,0.0103
3027.00,0.0101
3026.00,0.0099
3025.00,0.0098
3024.00,0.0097
3023.00,0.0097
3022.00,0.0096
3021.00,0.0096
3020.00,0.0095
3019.00,0.0095
3018.00,0.0095
3017.00,0.0095
3016.00,0.0095
3015.00,0.0095
3014.00,0.0096
3013.00,0.0096
3012.00,0.0097
3011.00,0.0097
3010.00,0.0098
3009.00,0.0099
3008.00,0.0100
3007.00,0.0101
3006.00,0.0102
3005.00,0.0102
3004.00,0.0103
3003.00,0.0103
3002.00,0.0104
3001.00,0.0105
3000.00,0.0106
2999.00,0.0108
2998.00,0.0109
2997.00,0.0110
2996.00,0.0111
2995.00,0.0112
2994.00,0.0114
2993.00,0.0116
2992.00,0.0118
2991.00,0.0121
2990.00,0.0123
2989.00,0.0126
2988.00,0.0128
2987.00,0.0130
2986.00,0.0131
2985.00,0.0132
2984.00,0.0134
2983.00,0.0137
2982.00,0.0140
2981.00,0.0144
2980.00,0.0150
2979.00,0.0156
2978.00,0.0164
2977.00,0.0173
2976.00,0.0183
2975.00,0.0196
2974.00,0.0211
2973.00,0.0227
2972.00,0.0244
2971.00,0.0262
2970.00,0.0279
2969.00,0.0295
2968.00,0.0309
2967.00,0.0320
2966.00,0.0327
2965.00,0.0331
2964.00,0.0332
2963.00,0.0331
2962.00,0.0330
2961.00,0.0327
2960.00,0.0323
2959.00,0.0318
2958.00,0.0311
2957.00,0.0303
2956.00,0.0294
2955.00,0.0285
2954.00,0.0276
2953.00,0.0268
2952.00,0.0262
2951.00,0.0258
2950.00,0.0256
2949.00,0.0257
2948.00,0.0262
2947.00,0.0270
2946.00,0.0281
2945.00,0.0295
2944.00,0.0311
2943.00,0.0326
2942.00,0.0340
2941.00,0.0354
2940.00,0.0366
2939.00,0.0378
2938.00,0.0390
2937.00,0.0403
2936.00,0.0417
2935.00,0.0433
2934.00,0.0449
2933.00,0.0466
2932.00,0.0484
2931.00,0.0502
2930.00,0.0520
2929.00,0.0538
2928.00,0.0554
2927.00,0.0568
2926.00,0.0578
2925.00,0.0583
2924.00,0.0583
2923.00,0.0580
2922.00,0.0575
2921.00,0.0569
2920.00,0.0563
2919.00,0.0558
2918.00,0.0553
2917.00,0.0548
2916.00,0.0542
2915.00,0.0535
2914.00,0.0526
2913.00,0.0515
2912.00,0.0501
2911.00,0.0486
2910.00,0.0470
2909.00,0.0454
2908.00,0.0438
2907.00,0.0423
2906.00,0.0409
2905.00,0.0397
2904.00,0.0387
2903.00,0.0378
2902.00,0.0370
2901.00,0.0363
2900.00,0.0356
2899.00,0.0348
2898.00,0.0339
2897.00,0.0329
2896.00,0.0319
2895.00,0.0309
2894.00,0.0301
2893.00,0.0293
2892.00,0.0287
2891.00,0.0281
2890.00,0.0277
2889.00,0.0274
2888.00,0.0271
2887.00,0.0269
2886.00,0.0267
2885.00,0.0265
2884.00,0.0265
2883.00,0.0264
2882.00,0.0264
2881.00,0.0265
2880.00,0.0266
2879.00,0.0268
2878.00,0.0271
2877.00,0.0275
2876.00,0.0279
2875.00,0.0284
2874.00,0.0288
2873.00,0.0292
2872.00,0.0295
2871.00,0.0296
2870.00,0.0294
2869.00,0.0291
2868.00,0.0288
2867.00,0.0285
2866.00,0.0285
2865.00,0.0287
2864.00,0.0293
2863.00,0.0303
2862.00,0.0318
2861.00,0.0338
2860.00,0.0362
2859.00,0.0387
2858.00,0.0412
2857.00,0.0431
2856.00,0.0443
2855.00,0.0444
2854.00,0.0434
2853.00,0.0416
2852.00,0.0392
2851.00,0.0366
2850.00,0.0340
2849.00,0.0315
2848.00,0.0292
2847.00,0.0272
2846.00,0.0254
2845.00,0.0239
2844.00,0.0225
2843.00,0.0214
2842.00,0.0206
2841.00,0.0199
2840.00,0.0194
2839.00,0.0190
2838.00,0.0189
2837.00,0.0190
2836.00,0.0194
2835.00,0.0201
2834.00,0.0211
2833.00,0.0223
2832.00,0.0237
2831.00,0.0250
2830.00,0.0259
2829.00,0.0261
2828.00,0.0256
2827.00,0.0245
2826.00,0.0229
2825.00,0.0213
2824.00,0.0197
2823.00,0.0183
2822.00,0.0171
2821.00,0.0162
2820.00,0.0155
2819.00,0.0149
2818.00,0.0145
2817.00,0.0141
2816.00,0.0138
2815.00,0.0135
2814.00,0.0132
2813.00,0.0130
2812.00,0.0128
2811.00,0.0126
2810.00,0.0125
2809.00,0.0123
2808.00,0.0122
2807.00,0.0121
2806.00,0.0120
2805.00,0.0119
2804.00,0.0118
2803.00,0.0117
2802.00,0.0116
2801.00,0.0115
2800.00,0.0114
2799.00,0.0113
2798.00,0.0112
2797.00,0.0111
2796.00,0.0110
2795.00,0.0110
2794.00,0.0109
2793.00,0.0109
2792.00,0.0108
2791.00,0.0108
2790.00,0.0107
2789.00,0.0106
2788.00,0.0106
2787.00,0.0106
2786.00,0.0105
2785.00,0.0105
2784.00,0.0104
2783.00,0.0104
2782.00,0.0103
2781.00,0.0103
2780.00,0.0102
2779.00,0.0102
2778.00,0.0101
2777.00,0.0101
2776.00,0.0100
2775.00,0.0100
2774.00,0.0100
2773.00,0.0099
2772.00,0.0099
2771.00,0.0099
2770.00,0.0099
2769.00,0.0098
2768.00,0.0098
2767.00,0.0098
2766.00,0.0098
2765.00,0.0097
2764.00,0.0097
2763.00,0.0097
2762.00,0.0096
2761.00,0.0096
2760.00,0.0096
2759.00,0.0095
2758.00,0.0095
2757.00,0.0095
2756.00,0.0095
2755.00,0.0095
2754.00,0.0095
2753.00,0.0095
2752.00,0.0095
2751.00,0.0095
2750.00,0.0095
2749.00,0.0095
2748.00,0.0095
2747.00,0.0095
2746.00,0.0095
2745.00,0.0096
2744.00,0.0096
2743.00,0.0096
2742.00,0.0097
2741.00,0.0097
2740.00,0.0097
2739.00,0.0098
2738.00,0.0098
2737.00,0.0099
2736.00,0.0100
2735.00,0.0101
2734.00,0.0102
2733.00,0.0103
2732.00,0.0104
2731.00,0.0105
2730.00,0.0105
2729.00,0.0106
2728.00,0.0106
2727.00,0.0106
2726.00,0.0105
2725.00,0.0104
2724.00,0.0102
2723.00,0.0101
2722.00,0.0100
2721.00,0.0099
2720.00,0.0098
2719.00,0.0098
2718.00,0.0097
2717.00,0.0096
2716.00,0.0096
2715.00,0.0095
2714.00,0.0095
2713.00,0.0095
2712.00,0.0094
2711.00,0.0094
2710.00,0.0093
2709.00,0.0093
2708.00,0.0093
2707.00,0.0093
2706.00,0.0092
2705.00,0.0092
2704.00,0.0092
2703.00,0.0092
2702.00,0.0092
2701.00,0.0091
2700.00,0.0091
2699.00,0.0091
2698.00,0.0091
2697.00,0.0091
2696.00,0.0091
2695.00,0.0090
2694.00,0.0090
2693.00,0.0091
2692.00,0.0091
2691.00,0.0091
2690.00,0.0091
2689.00,0.0091
2688.00,0.0092
2687.00,0.0092
2686.00,0.0092
2685.00,0.0092
2684.00,0.0092
2683.00,0.0092
2682.00,0.0092
2681.00,0.0092
2680.00,0.0092
2679.00,0.0093
2678.00,0.0093
2677.00,0.0093
2676.00,0.0094
2675.00,0.0094
2674.00,0.0094
2673.00,0.0094
2672.00,0.0094
2671.00,0.0095
2670.00,0.0095
2669.00,0.0095
2668.00,0.0095
2667.00,0.0096
2666.00,0.0096
2665.00,0.0096
2664.00,0.0097
2663.00,0.0097
2662.00,0.0097
2661.00,0.0097
2660.00,0.0097
2659.00,0.0097
2658.00,0.0097
2657.00,0.0097
2656.00,0.0097
2655.00,0.0097
2654.00,0.0096
2653.00,0.0096
2652.00,0.0096
2651.00,0.0096
2650.00,0.0095
2649.00,0.0095
2648.00,0.0095
2647.00,0.0095
2646.00,0.0095
2645.00,0.0094
2644.00,0.0094
2643.00,0.0094
2642.00,0.0094
2641.00,0.0093
2640.00,0.0093
2639.00,0.0093
2638.00,0.0093
2637.00,0.0093
2636.00,0.0093
2635.00,0.0093
2634.00,0.0093
2633.00,0.0093
2632.00,0.0093
2631.00,0.0093
2630.00,0.0093
2629.00,0.0093
2628.00,0.0093
2627.00,0.0093
2626.00,0.0093
2625.00,0.0093
2624.00,0.0093
2623.00,0.0092
2622.00,0.0092
2621.00,0.0092
2620.00,0.0092
2619.00,0.0092
2618.00,0.0092
2617.00,0.0092
2616.00,0.0092
2615.00,0.0092
2614.00,0.0092
2613.00,0.0092
2612.00,0.0092
2611.00,0.0092
2610.00,0.0092
2609.00,0.0092
2608.00,0.0091
2607.00,0.0091
2606.00,0.0091
2605.00,0.0091
2604.00,0.0090
2603.00,0.0090
2602.00,0.0090
2601.00,0.0090
2600.00,0.0090
2599.00,0.0089
2598.00,0.0089
2597.00,0.0089
2596.00,0.0089
2595.00,0.0089
2594.00,0.0089
2593.00,0.0089
2592.00,0.0090
2591.00,0.0090
2590.00,0.0089
2589.00,0.0089
2588.00,0.0089
2587.00,0.0089
2586.00,0.0089
2585.00,0.0089
2584.00,0.0089
2583.00,0.0089
2582.00,0.0089
2581.00,0.0089
2580.00,0.0089
2579.00,0.0089
2578.00,0.0089
2577.00,0.0089
2576.00,0.0089
2575.00,0.0089
2574.00,0.0089
2573.00,0.0089
2572.00,0.0089
2571.00,0.0089
2570.00,0.0089
2569.00,0.0088
2568.00,0.0088
2567.00,0.0088
2566.00,0.0088
2565.00,0.0087
2564.00,0.0088
2563.00,0.0088
2562.00,0.0088
2561.00,0.0088
2560.00,0.0088
2559.00,0.0088
2558.00,0.0088
2557.00,0.0087
2556.00,0.0087
2555.00,0.0088
2554.00,0.0088
2553.00,0.0088
2552.00,0.0087
2551.00,0.0087
2550.00,0.0086
2549.00,0.0086
2548.00,0.0086
2547.00,0.0086
2546.00,0.0086
2545.00,0.0086
2544.00,0.0087
2543.00,0.0087
2542.00,0.0087
2541.00,0.0087
2540.00,0.0087
2539.00,0.0087
2538.00,0.0087
2537.00,0.0086
2536.00,0.0086
2535.00,0.0086
2534.00,0.0086
2533.00,0.0086
2532.00,0.0086
2531.00,0.0086
2530.00,0.0086
2529.00,0.0086
2528.00,0.0086
2527.00,0.0086
2526.00,0.0086
2525.00,0.0086
2524.00,0.0086
2523.00,0.0086
2522.00,0.0086
2521.00,0.0086
2520.00,0.0086
2519.00,0.0086
2518.00,0.0087
2517.00,0.0087
2516.00,0.0086
2515.00,0.0086
2514.00,0.0086
2513.00,0.0085
2512.00,0.0085
2511.00,0.0085
2510.00,0.0086
2509.00,0.0086
2508.00,0.0085
2507.00,0.0085
2506.00,0.0085
2505.00,0.0085
2504.00,0.0085
2503.00,0.0085
2502.00,0.0085
2501.00,0.0085
2500.00,0.0085
2499.00,0.0085
2498.00,0.0086
2497.00,0.0086
2496.00,0.0085
2495.00,0.0085
2494.00,0.0085
2493.00,0.0085
2492.00,0.0085
2491.00,0.0085
2490.00,0.0085
2489.00,0.0085
2488.00,0.0085
2487.00,0.0085
2486.00,0.0085
2485.00,0.0085
2484.00,0.0086
2483.00,0.0086
2482.00,0.0086
2481.00,0.0086
2480.00,0.0086
2479.00,0.0086
2478.00,0.0086
2477.00,0.0086
2476.00,0.0086
2475.00,0.0086
2474.00,0.0086
2473.00,0.0086
2472.00,0.0086
2471.00,0.0086
2470.00,0.0086
2469.00,0.0087
2468.00,0.0087
2467.00,0.0087
2466.00,0.0086
2465.00,0.0086
2464.00,0.0086
2463.00,0.0087
2462.00,0.0087
2461.00,0.0087
2460.00,0.0087
2459.00,0.0087
2458.00,0.0088
2457.00,0.0088
2456.00,0.0088
2455.00,0.0088
2454.00,0.0088
2453.00,0.0088
2452.00,0.0088
2451.00,0.0088
2450.00,0.0087
2449.00,0.0087
2448.00,0.0087
2447.00,0.0087
2446.00,0.0086
2445.00,0.0086
2444.00,0.0085
2443.00,0.0085
2442.00,0.0084
2441.00,0.0084
2440.00,0.0084
2439.00,0.0084
2438.00,0.0083
2437.00,0.0083
2436.00,0.0082
2435.00,0.0082
2434.00,0.0081
2433.00,0.0081
2432.00,0.0081
2431.00,0.0081
2430.00,0.0081
2429.00,0.0081
2428.00,0.0081
2427.00,0.0081
2426.00,0.0080
2425.00,0.0080
2424.00,0.0080
2423.00,0.0080
2422.00,0.0080
2421.00,0.0080
2420.00,0.0080
2419.00,0.0079
2418.00,0.0079
2417.00,0.0079
2416.00,0.0079
2415.00,0.0079
2414.00,0.0078
2413.00,0.0078
2412.00,0.0078
2411.00,0.0078
2410.00,0.0078
2409.00,0.0078
2408.00,0.0078
2407.00,0.0078
2406.00,0.0078
2405.00,0.0078
2404.00,0.0078
2403.00,0.0078
2402.00,0.0077
2401.00,0.0077
2400.00,0.0077
2399.00,0.0077
2398.00,0.0077
2397.00,0.0077
2396.00,0.0077
2395.00,0.0077
2394.00,0.0077
2393.00,0.0077
2392.00,0.0077
2391.00,0.0077
2390.00,0.0077
2389.00,0.0077
2388.00,0.0077
2387.00,0.0077
2386.00,0.0077
2385.00,0.0076
2384.00,0.0075
2383.00,0.0074
2382.00,0.0073
2381.00,0.0072
2380.00,0.0072
2379.00,0.0071
2378.00,0.0071
2377.00,0.0071
2376.00,0.0071
2375.00,0.0071
2374.00,0.0071
2373.00,0.0072
2372.00,0.0072
2371.00,0.0072
2370.00,0.0072
2369.00,0.0072
2368.00,0.0071
2367.00,0.0071
2366.00,0.0071
2365.00,0.0071
2364.00,0.0072
2363.00,0.0073
2362.00,0.0073
2361.00,0.0072
2360.00,0.0072
2359.00,0.0072
2358.00,0.0072
2357.00,0.0072
2356.00,0.0072
2355.00,0.0073
2354.00,0.0073
2353.00,0.0072
2352.00,0.0072
2351.00,0.0072
2350.00,0.0072
2349.00,0.0073
2348.00,0.0073
2347.00,0.0073
2346.00,0.0073
2345.00,0.0073
2344.00,0.0073
2343.00,0.0073
2342.00,0.0074
2341.00,0.0074
2340.00,0.0075
2339.00,0.0075
2338.00,0.0075
2337.00,0.0075
2336.00,0.0075
2335.00,0.0075
2334.00,0.0075
2333.00,0.0074
2332.00,0.0074
2331.00,0.0074
2330.00,0.0075
2329.00,0.0076
2328.00,0.0079
2327.00,0.0082
2326.00,0.0085
2325.00,0.0085
2324.00,0.0085
2323.00,0.0083
2322.00,0.0081
2321.00,0.0080
2320.00,0.0079
2319.00,0.0079
2318.00,0.0079
2317.00,0.0078
2316.00,0.0078
2315.00,0.0078
2314.00,0.0078
2313.00,0.0078
2312.00,0.0078
2311.00,0.0077
2310.00,0.0077
2309.00,0.0077
2308.00,0.0077
2307.00,0.0078
2306.00,0.0078
2305.00,0.0078
2304.00,0.0078
2303.00,0.0078
2302.00,0.0078
2301.00,0.0078
2300.00,0.0078
2299.00,0.0078
2298.00,0.0079
2297.00,0.0080
2296.00,0.0080
2295.00,0.0081
2294.00,0.0081
2293.00,0.0082
2292.00,0.0082
2291.00,0.0083
2290.00,0.0084
2289.00,0.0085
2288.00,0.0085
2287.00,0.0086
2286.00,0.0086
2285.00,0.0086
2284.00,0.0085
2283.00,0.0084
2282.00,0.0083
2281.00,0.0082
2280.00,0.0081
2279.00,0.0081
2278.00,0.0081
2277.00,0.0080
2276.00,0.0080
2275.00,0.0079
2274.00,0.0079
2273.00,0.0079
2272.00,0.0079
2271.00,0.0080
2270.00,0.0080
2269.00,0.0079
2268.00,0.0079
2267.00,0.0079
2266.00,0.0078
2265.00,0.0078
2264.00,0.0078
2263.00,0.0078
2262.00,0.0078
2261.00,0.0079
2260.00,0.0080
2259.00,0.0080
2258.00,0.0079
2257.00,0.0078
2256.00,0.0077
2255.00,0.0076
2254.00,0.0075
2253.00,0.0076
2252.00,0.0076
2251.00,0.0077
2250.00,0.0077
2249.00,0.0077
2248.00,0.0077
2247.00,0.0077
2246.00,0.0077
2245.00,0.0078
2244.00,0.0078
2243.00,0.0078
2242.00,0.0077
2241.00,0.0077
2240.00,0.0077
2239.00,0.0077
2238.00,0.0077
2237.00,0.0078
2236.00,0.0078
2235.00,0.0079
2234.00,0.0079
2233.00,0.0078
2232.00,0.0077
2231.00,0.0076
2230.00,0.0075
2229.00,0.0075
2228.00,0.0075
2227.00,0.0076
2226.00,0.0076
2225.00,0.0077
2224.00,0.0077
2223.00,0.0077
2222.00,0.0076
2221.00,0.0076
2220.00,0.0075
2219.00,0.0075
2218.00,0.0075
2217.00,0.0076
2216.00,0.0075
2215.00,0.0075
2214.00,0.0074
2213.00,0.0074
2212.00,0.0074
2211.00,0.0074
2210.00,0.0074
2209.00,0.0074
2208.00,0.0074
2207.00,0.0074
2206.00,0.0074
2205.00,0.0074
2204.00,0.0074
2203.00,0.0075
2202.00,0.0076
2201.00,0.0076
2200.00,0.0077
2199.00,0.0077
2198.00,0.0077
2197.00,0.0078
2196.00,0.0078
2195.00,0.0078
2194.00,0.0078
2193.00,0.0077
2192.00,0.0077
2191.00,0.0077
2190.00,0.0076
2189.00,0.0077
2188.00,0.0077
2187.00,0.0077
2186.00,0.0077
2185.00,0.0076
2184.00,0.0074
2183.00,0.0072
2182.00,0.0070
2181.00,0.0070
2180.00,0.0071
2179.00,0.0072
2178.00,0.0073
2177.00,0.0071
2176.00,0.0070
2175.00,0.0070
2174.00,0.0070
2173.00,0.0072
2172.00,0.0075
2171.00,0.0077
2170.00,0.0079
2169.00,0.0081
2168.00,0.0082
2167.00,0.0082
2166.00,0.0082
2165.00,0.0083
2164.00,0.0084
2163.00,0.0084
2162.00,0.0080
2161.00,0.0071
2160.00,0.0058
2159.00,0.0047
2158.00,0.0042
2157.00,0.0043
2156.00,0.0046
2155.00,0.0049
2154.00,0.0051
2153.00,0.0053
2152.00,0.0054
2151.00,0.0055
2150.00,0.0056
2149.00,0.0057
2148.00,0.0058
2147.00,0.0058
2146.00,0.0058
2145.00,0.0057
2144.00,0.0057
2143.00,0.0058
2142.00,0.0059
2141.00,0.0060
2140.00,0.0060
2139.00,0.0059
2138.00,0.0057
2137.00,0.0056
2136.00,0.0054
2135.00,0.0053
2134.00,0.0053
2133.00,0.0054
2132.00,0.0056
2131.00,0.0058
2130.00,0.0059
2129.00,0.0061
2128.00,0.0062
2127.00,0.0062
2126.00,0.0063
2125.00,0.0063
2124.00,0.0064
2123.00,0.0064
2122.00,0.0065
2121.00,0.0066
2120.00,0.0067
2119.00,0.0067
2118.00,0.0068
2117.00,0.0069
2116.00,0.0069
2115.00,0.0069
2114.00,0.0069
2113.00,0.0069
2112.00,0.0069
2111.00,0.0069
2110.00,0.0069
2109.00,0.0070
2108.00,0.0071
2107.00,0.0070
2106.00,0.0069
2105.00,0.0068
2104.00,0.0068
2103.00,0.0068
2102.00,0.0068
2101.00,0.0068
2100.00,0.0068
2099.00,0.0068
2098.00,0.0067
2097.00,0.0066
2096.00,0.0065
2095.00,0.0064
2094.00,0.0064
2093.00,0.0065
2092.00,0.0066
2091.00,0.0067
2090.00,0.0068
2089.00,0.0068
2088.00,0.0068
2087.00,0.0069
2086.00,0.0070
2085.00,0.0070
2084.00,0.0071
2083.00,0.0071
2082.00,0.0071
2081.00,0.0070
2080.00,0.0070
2079.00,0.0070
2078.00,0.0070
2077.00,0.0070
2076.00,0.0069
2075.00,0.0069
2074.00,0.0069
2073.00,0.0069
2072.00,0.0069
2071.00,0.0068
2070.00,0.0067
2069.00,0.0066
2068.00,0.0065
2067.00,0.0065
2066.00,0.0066
2065.00,0.0066
2064.00,0.0065
2063.00,0.0064
2062.00,0.0063
2061.00,0.0062
2060.00,0.0062
2059.00,0.0062
2058.00,0.0063
2057.00,0.0064
2056.00,0.0064
2055.00,0.0065
2054.00,0.0067
2053.00,0.0070
2052.00,0.0074
2051.00,0.0074
2050.00,0.0072
2049.00,0.0069
2048.00,0.0066
2047.00,0.0065
2046.00,0.0064
2045.00,0.0063
2044.00,0.0061
2043.00,0.0060
2042.00,0.0059
2041.00,0.0059
2040.00,0.0059
2039.00,0.0059
2038.00,0.0059
2037.00,0.0058
2036.00,0.0057
2035.00,0.0056
2034.00,0.0055
2033.00,0.0054
2032.00,0.0054
2031.00,0.0056
2030.00,0.0057
2029.00,0.0058
2028.00,0.0058
2027.00,0.0058
2026.00,0.0057
2025.00,0.0056
2024.00,0.0056
2023.00,0.0057
2022.00,0.0059
2021.00,0.0060
2020.00,0.0060
2019.00,0.0059
2018.00,0.0058
2017.00,0.0057
2016.00,0.0057
2015.00,0.0057
2014.00,0.0058
2013.00,0.0058
2012.00,0.0059
2011.00,0.0060
2010.00,0.0059
2009.00,0.0057
2008.00,0.0055
2007.00,0.0052
2006.00,0.0051
2005.00,0.0051
2004.00,0.0052
2003.00,0.0053
2002.00,0.0054
2001.00,0.0055
2000.00,0.0056
1999.00,0.0057
1998.00,0.0059
1997.00,0.0060
1996.00,0.0061
1995.00,0.0062
1994.00,0.0063
1993.00,0.0063
1992.00,0.0063
1991.00,0.0064
1990.00,0.0065
1989.00,0.0066
1988.00,0.0067
1987.00,0.0067
1986.00,0.0068
1985.00,0.0069
1984.00,0.0070
1983.00,0.0072
1982.00,0.0074
1981.00,0.0074
1980.00,0.0072
1979.00,0.0068
1978.00,0.0062
1977.00,0.0058
1976.00,0.0056
1975.00,0.0056
1974.00,0.0056
1973.00,0.0057
1972.00,0.0058
1971.00,0.0058
1970.00,0.0058
1969.00,0.0057
1968.00,0.0056
1967.00,0.0056
1966.00,0.0055
1965.00,0.0054
1964.00,0.0054
1963.00,0.0054
1962.00,0.0054
1961.00,0.0054
1960.00,0.0054
1959.00,0.0054
1958.00,0.0054
1957.00,0.0055
1956.00,0.0057
1955.00,0.0058
1954.00,0.0059
1953.00,0.0059
1952.00,0.0059
1951.00,0.0058
1950.00,0.0058
1949.00,0.0058
1948.00,0.0059
1947.00,0.0059
1946.00,0.0060
1945.00,0.0060
1944.00,0.0060
1943.00,0.0060
1942.00,0.0060
1941.00,0.0060
1940.00,0.0060
1939.00,0.0060
1938.00,0.0060
1937.00,0.0060
1936.00,0.0060
1935.00,0.0060
1934.00,0.0060
1933.00,0.0060
1932.00,0.0060
1931.00,0.0059
1930.00,0.0059
1929.00,0.0059
1928.00,0.0060
1927.00,0.0060
1926.00,0.0059
1925.00,0.0059
1924.00,0.0059
1923.00,0.0060
1922.00,0.0060
1921.00,0.0061
1920.00,0.0061
1919.00,0.0062
1918.00,0.0062
1917.00,0.0062
1916.00,0.0062
1915.00,0.0062
1914.00,0.0062
1913.00,0.0063
1912.00,0.0063
1911.00,0.0063
1910.00,0.0063
1909.00,0.0063
1908.00,0.0063
1907.00,0.0064
1906.00,0.0064
1905.00,0.0064
1904.00,0.0065
1903.00,0.0065
1902.00,0.0064
1901.00,0.0064
1900.00,0.0064
1899.00,0.0064
1898.00,0.0064
1897.00,0.0065
1896.00,0.0065
1895.00,0.0065
1894.00,0.0066
1893.00,0.0065
1892.00,0.0065
1891.00,0.0065
1890.00,0.0065
1889.00,0.0065
1888.00,0.0065
1887.00,0.0065
1886.00,0.0065
1885.00,0.0065
1884.00,0.0066
1883.00,0.0066
1882.00,0.0066
1881.00,0.0066
1880.00,0.0066
1879.00,0.0067
1878.00,0.0067
1877.00,0.0066
1876.00,0.0066
1875.00,0.0066
1874.00,0.0066
1873.00,0.0066
1872.00,0.0066
1871.00,0.0066
1870.00,0.0066
1869.00,0.0067
1868.00,0.0067
1867.00,0.0066
1866.00,0.0066
1865.00,0.0066
1864.00,0.0066
1863.00,0.0066
1862.00,0.0067
1861.00,0.0067
1860.00,0.0066
1859.00,0.0066
1858.00,0.0066
1857.00,0.0066
1856.00,0.0066
1855.00,0.0066
1854.00,0.0066
1853.00,0.0066
1852.00,0.0066
1851.00,0.0066
1850.00,0.0065
1849.00,0.0065
1848.00,0.0066
1847.00,0.0066
1846.00,0.0066
1845.00,0.0066
1844.00,0.0066
1843.00,0.0066
1842.00,0.0066
1841.00,0.0067
1840.00,0.0067
1839.00,0.0067
1838.00,0.0067
1837.00,0.0066
1836.00,0.0066
1835.00,0.0066
1834.00,0.0066
1833.00,0.0067
1832.00,0.0067
1831.00,0.0067
1830.00,0.0068
1829.00,0.0068
1828.00,0.0068
1827.00,0.0068
1826.00,0.0068
1825.00,0.0068
1824.00,0.0069
1823.00,0.0069
1822.00,0.0069
1821.00,0.0069
1820.00,0.0068
1819.00,0.0067
1818.00,0.0067
1817.00,0.0066
1816.00,0.0067
1815.00,0.0068
1814.00,0.0069
1813.00,0.0069
1812.00,0.0070
1811.00,0.0070
1810.00,0.0071
1809.00,0.0071
1808.00,0.0071
1807.00,0.0072
1806.00,0.0073
1805.00,0.0073
1804.00,0.0074
1803.00,0.0074
1802.00,0.0074
1801.00,0.0074
1800.00,0.0074
1799.00,0.0075
1798.00,0.0075
1797.00,0.0075
1796.00,0.0074
1795.00,0.0073
1794.00,0.0072
1793.00,0.0071
1792.00,0.0071
1791.00,0.0071
1790.00,0.0071
1789.00,0.0071
1788.00,0.0072
1787.00,0.0072
1786.00,0.0072
1785.00,0.0072
1784.00,0.0072
1783.00,0.0072
1782.00,0.0072
1781.00,0.0073
1780.00,0.0073
1779.00,0.0074
1778.00,0.0074
1777.00,0.0074
1776.00,0.0075
1775.00,0.0076
1774.00,0.0077
1773.00,0.0078
1772.00,0.0078
1771.00,0.0078
1770.00,0.0078
1769.00,0.0077
1768.00,0.0077
1767.00,0.0076
1766.00,0.0075
1765.00,0.0074
1764.00,0.0074
1763.00,0.0073
1762.00,0.0072
1761.00,0.0072
1760.00,0.0072
1759.00,0.0072
1758.00,0.0072
1757.00,0.0072
1756.00,0.0072
1755.00,0.0072
1754.00,0.0072
1753.00,0.0072
1752.00,0.0072
1751.00,0.0072
1750.00,0.0071
1749.00,0.0071
1748.00,0.0071
1747.00,0.0071
1746.00,0.0072
1745.00,0.0072
1744.00,0.0072
1743.00,0.0071
1742.00,0.0071
1741.00,0.0071
1740.00,0.0072
1739.00,0.0072
1738.00,0.0072
1737.00,0.0072
1736.00,0.0072
1735.00,0.0072
1734.00,0.0073
1733.00,0.0073
1732.00,0.0073
1731.00,0.0074
1730.00,0.0074
1729.00,0.0074
1728.00,0.0074
1727.00,0.0074
1726.00,0.0074
1725.00,0.0074
1724.00,0.0075
1723.00,0.0075
1722.00,0.0075
1721.00,0.0075
1720.00,0.0075
1719.00,0.0075
1718.00,0.0075
1717.00,0.0075
1716.00,0.0075
1715.00,0.0075
1714.00,0.0075
1713.00,0.0076
1712.00,0.0077
1711.00,0.0077
1710.00,0.0078
1709.00,0.0078
1708.00,0.0078
1707.00,0.0078
1706.00,0.0079
1705.00,0.0079
1704.00,0.0079
1703.00,0.0079
1702.00,0.0080
1701.00,0.0080
1700.00,0.0080
1699.00,0.0080
1698.00,0.0081
1697.00,0.0081
1696.00,0.0081
1695.00,0.0081
1694.00,0.0081
1693.00,0.0081
1692.00,0.0081
1691.00,0.0082
1690.00,0.0081
1689.00,0.0081
1688.00,0.0080
1687.00,0.0080
1686.00,0.0080
1685.00,0.0080
1684.00,0.0079
1683.00,0.0079
1682.00,0.0079
1681.00,0.0080
1680.00,0.0080
1679.00,0.0081
1678.00,0.0081
1677.00,0.0081
1676.00,0.0082
1675.00,0.0083
1674.00,0.0084
1673.00,0.0084
1672.00,0.0085
1671.00,0.0086
1670.00,0.0088
1669.00,0.0089
1668.00,0.0091
1667.00,0.0094
1666.00,0.0096
1665.00,0.0098
1664.00,0.0100
1663.00,0.0102
1662.00,0.0103
1661.00,0.0104
1660.00,0.0104
1659.00,0.0104
1658.00,0.0104
1657.00,0.0104
1656.00,0.0104
1655.00,0.0106
1654.00,0.0110
1653.00,0.0117
1652.00,0.0125
1651.00,0.0132
1650.00,0.0140
1649.00,0.0152
1648.00,0.0172
1647.00,0.0206
1646.00,0.0244
1645.00,0.0276
1644.00,0.0294
1643.00,0.0300
1642.00,0.0295
1641.00,0.0284
1640.00,0.0273
1639.00,0.0267
1638.00,0.0269
1637.00,0.0283
1636.00,0.0312
1635.00,0.0349
1634.00,0.0382
1633.00,0.0407
1632.00,0.0427
1631.00,0.0443
1630.00,0.0455
1629.00,0.0467
1628.00,0.0479
1627.00,0.0496
1626.00,0.0516
1625.00,0.0538
1624.00,0.0560
1623.00,0.0570
1622.00,0.0563
1621.00,0.0540
1620.00,0.0508
1619.00,0.0470
1618.00,0.0425
1617.00,0.0375
1616.00,0.0328
1615.00,0.0294
1614.00,0.0271
1613.00,0.0253
1612.00,0.0238
1611.00,0.0223
1610.00,0.0210
1609.00,0.0199
1608.00,0.0190
1607.00,0.0182
1606.00,0.0177
1605.00,0.0172
1604.00,0.0169
1603.00,0.0167
1602.00,0.0166
1601.00,0.0167
1600.00,0.0169
1599.00,0.0172
1598.00,0.0177
1597.00,0.0184
1596.00,0.0194
1595.00,0.0207
1594.00,0.0224
1593.00,0.0248
1592.00,0.0279
1591.00,0.0318
1590.00,0.0365
1589.00,0.0418
1588.00,0.0473
1587.00,0.0527
1586.00,0.0576
1585.00,0.0620
1584.00,0.0657
1583.00,0.0687
1582.00,0.0703
1581.00,0.0705
1580.00,0.0691
1579.00,0.0666
1578.00,0.0627
1577.00,0.0572
1576.00,0.0508
1575.00,0.0451
1574.00,0.0410
1573.00,0.0380
1572.00,0.0353
1571.00,0.0325
1570.00,0.0295
1569.00,0.0267
1568.00,0.0244
1567.00,0.0227
1566.00,0.0212
1565.00,0.0198
1564.00,0.0186
1563.00,0.0176
1562.00,0.0170
1561.00,0.0164
1560.00,0.0157
1559.00,0.0150
1558.00,0.0144
1557.00,0.0140
1556.00,0.0138
1555.00,0.0136
1554.00,0.0134
1553.00,0.0132
1552.00,0.0129
1551.00,0.0127
1550.00,0.0125
1549.00,0.0123
1548.00,0.0121
1547.00,0.0119
1546.00,0.0118
1545.00,0.0116
1544.00,0.0115
1543.00,0.0113
1542.00,0.0112
1541.00,0.0112
1540.00,0.0112
1539.00,0.0112
1538.00,0.0113
1537.00,0.0113
1536.00,0.0113
1535.00,0.0112
1534.00,0.0113
1533.00,0.0113
1532.00,0.0113
1531.00,0.0113
1530.00,0.0113
1529.00,0.0113
1528.00,0.0114
1527.00,0.0115
1526.00,0.0116
1525.00,0.0119
1524.00,0.0121
1523.00,0.0126
1522.00,0.0134
1521.00,0.0145
1520.00,0.0157
1519.00,0.0167
1518.00,0.0179
1517.00,0.0191
1516.00,0.0202
1515.00,0.0209
1514.00,0.0212
1513.00,0.0211
1512.00,0.0205
1511.00,0.0197
1510.00,0.0188
1509.00,0.0180
1508.00,0.0171
1507.00,0.0161
1506.00,0.0154
1505.00,0.0150
1504.00,0.0148
1503.00,0.0147
1502.00,0.0145
1501.00,0.0143
1500.00,0.0140
1499.00,0.0137
1498.00,0.0133
1497.00,0.0130
1496.00,0.0126
1495.00,0.0123
1494.00,0.0120
1493.00,0.0118
1492.00,0.0116
1491.00,0.0113
1490.00,0.0111
1489.00,0.0109
1488.00,0.0108
1487.00,0.0107
1486.00,0.0107
1485.00,0.0107
1484.00,0.0107
1483.00,0.0107
1482.00,0.0108
1481.00,0.0109
1480.00,0.0110
1479.00,0.0111
1478.00,0.0112
1477.00,0.0114
1476.00,0.0117
1475.00,0.0120
1474.00,0.0125
1473.00,0.0135
1472.00,0.0148
1471.00,0.0165
1470.00,0.0185
1469.00,0.0207
1468.00,0.0229
1467.00,0.0247
1466.00,0.0261
1465.00,0.0271
1464.00,0.0278
1463.00,0.0286
1462.00,0.0294
1461.00,0.0303
1460.00,0.0311
1459.00,0.0317
1458.00,0.0325
1457.00,0.0338
1456.00,0.0354
1455.00,0.0372
1454.00,0.0393
1453.00,0.0422
1452.00,0.0459
1451.00,0.0501
1450.00,0.0550
1449.00,0.0606
1448.00,0.0667
1447.00,0.0725
1446.00,0.0773
1445.00,0.0808
1444.00,0.0830
1443.00,0.0839
1442.00,0.0838
1441.00,0.0831
1440.00,0.0821
1439.00,0.0806
1438.00,0.0787
1437.00,0.0762
1436.00,0.0732
1435.00,0.0702
1434.00,0.0676
1433.00,0.0650
1432.00,0.0621
1431.00,0.0585
1430.00,0.0543
1429.00,0.0495
1428.00,0.0446
1427.00,0.0400
1426.00,0.0358
1425.00,0.0319
1424.00,0.0285
1423.00,0.0258
1422.00,0.0238
1421.00,0.0223
1420.00,0.0208
1419.00,0.0195
1418.00,0.0185
1417.00,0.0177
1416.00,0.0171
1415.00,0.0166
1414.00,0.0162
1413.00,0.0158
1412.00,0.0154
1411.00,0.0151
1410.00,0.0149
1409.00,0.0147
1408.00,0.0144
1407.00,0.0142
1406.00,0.0141
1405.00,0.0140
1404.00,0.0139
1403.00,0.0138
1402.00,0.0138
1401.00,0.0137
1400.00,0.0135
1399.00,0.0134
1398.00,0.0134
1397.00,0.0133
1396.00,0.0132
1395.00,0.0131
1394.00,0.0130
1393.00,0.0129
1392.00,0.0128
1391.00,0.0128
1390.00,0.0129
1389.00,0.0129
1388.00,0.0131
1387.00,0.0134
1386.00,0.0138
1385.00,0.0144
1384.00,0.0153
1383.00,0.0165
1382.00,0.0182
1381.00,0.0204
1380.00,0.0233
1379.00,0.0269
1378.00,0.0307
1377.00,0.0343
1376.00,0.0370
1375.00,0.0383
1374.00,0.0379
1373.00,0.0362
1372.00,0.0341
1371.00,0.0320
1370.00,0.0301
1369.00,0.0283
1368.00,0.0267
1367.00,0.0254
1366.00,0.0244
1365.00,0.0233
1364.00,0.0223
1363.00,0.0213
1362.00,0.0204
1361.00,0.0197
1360.00,0.0193
1359.00,0.0190
1358.00,0.0187
1357.00,0.0186
1356.00,0.0184
1355.00,0.0184
1354.00,0.0185
1353.00,0.0186
1352.00,0.0187
1351.00,0.0189
1350.00,0.0191
1349.00,0.0194
1348.00,0.0198
1347.00,0.0202
1346.00,0.0208
1345.00,0.0214
1344.00,0.0218
1343.00,0.0223
1342.00,0.0225
1341.00,0.0225
1340.00,0.0221
1339.00,0.0215
1338.00,0.0208
1337.00,0.0201
1336.00,0.0197
1335.00,0.0197
1334.00,0.0199
1333.00,0.0203
1332.00,0.0210
1331.00,0.0217
1330.00,0.0225
1329.00,0.0233
1328.00,0.0240
1327.00,0.0247
1326.00,0.0254
1325.00,0.0261
1324.00,0.0265
1323.00,0.0265
1322.00,0.0260
1321.00,0.0252
1320.00,0.0243
1319.00,0.0238
1318.00,0.0239
1317.00,0.0248
1316.00,0.0264
1315.00,0.0287
1314.00,0.0314
1313.00,0.0339
1312.00,0.0357
1311.00,0.0366
1310.00,0.0365
1309.00,0.0358
1308.00,0.0348
1307.00,0.0342
1306.00,0.0341
1305.00,0.0346
1304.00,0.0354
1303.00,0.0363
1302.00,0.0371
1301.00,0.0374
1300.00,0.0374
1299.00,0.0371
1298.00,0.0366
1297.00,0.0359
1296.00,0.0350
1295.00,0.0340
1294.00,0.0330
1293.00,0.0320
1292.00,0.0310
1291.00,0.0301
1290.00,0.0294
1289.00,0.0289
1288.00,0.0288
1287.00,0.0291
1286.00,0.0300
1285.00,0.0312
1284.00,0.0326
1283.00,0.0340
1282.00,0.0354
1281.00,0.0366
1280.00,0.0375
1279.00,0.0381
1278.00,0.0382
1277.00,0.0380
1276.00,0.0373
1275.00,0.0363
1274.00,0.0349
1273.00,0.0333
1272.00,0.0313
1271.00,0.0292
1270.00,0.0271
1269.00,0.0251
1268.00,0.0232
1267.00,0.0216
1266.00,0.0203
1265.00,0.0192
1264.00,0.0183
1263.00,0.0175
1262.00,0.0170
1261.00,0.0164
1260.00,0.0160
1259.00,0.0156
1258.00,0.0153
1257.00,0.0151
1256.00,0.0150
1255.00,0.0150
1254.00,0.0153
1253.00,0.0156
1252.00,0.0162
1251.00,0.0170
1250.00,0.0178
1249.00,0.0186
1248.00,0.0192
1247.00,0.0197
1246.00,0.0201
1245.00,0.0209
1244.00,0.0222
1243.00,0.0242
1242.00,0.0269
1241.00,0.0304
1240.00,0.0342
1239.00,0.0381
1238.00,0.0413
1237.00,0.0434
1236.00,0.0444
1235.00,0.0445
1234.00,0.0439
1233.00,0.0429
1232.00,0.0415
1231.00,0.0400
1230.00,0.0389
1229.00,0.0386
1228.00,0.0395
1227.00,0.0416
1226.00,0.0446
1225.00,0.0481
1224.00,0.0518
1223.00,0.0558
1222.00,0.0603
1221.00,0.0656
1220.00,0.0719
1219.00,0.0795
1218.00,0.0878
1217.00,0.0958
1216.00,0.1023
1215.00,0.1063
1214.00,0.1071
1213.00,0.1049
1212.00,0.1001
1211.00,0.0938
1210.00,0.0869
1209.00,0.0801
1208.00,0.0738
1207.00,0.0684
1206.00,0.0637
1205.00,0.0594
1204.00,0.0553
1203.00,0.0513
1202.00,0.0473
1201.00,0.0434
1200.00,0.0398
1199.00,0.0366
1198.00,0.0340
1197.00,0.0317
1196.00,0.0300
1195.00,0.0287
1194.00,0.0279
1193.00,0.0274
1192.00,0.0273
1191.00,0.0275
1190.00,0.0279
1189.00,0.0285
1188.00,0.0291
1187.00,0.0297
1186.00,0.0305
1185.00,0.0313
1184.00,0.0321
1183.00,0.0328
1182.00,0.0334
1181.00,0.0338
1180.00,0.0341
1179.00,0.0344
1178.00,0.0348
1177.00,0.0351
1176.00,0.0354
1175.00,0.0362
1174.00,0.0375
1173.00,0.0389
1172.00,0.0396
1171.00,0.0389
1170.00,0.0367
1169.00,0.0334
1168.00,0.0300
1167.00,0.0269
1166.00,0.0245
1165.00,0.0226
1164.00,0.0211
1163.00,0.0200
1162.00,0.0193
1161.00,0.0188
1160.00,0.0185
1159.00,0.0185
1158.00,0.0187
1157.00,0.0194
1156.00,0.0207
1155.00,0.0230
1154.00,0.0264
1153.00,0.0309
1152.00,0.0357
1151.00,0.0394
1150.00,0.0406
1149.00,0.0387
1148.00,0.0345
1147.00,0.0297
1146.00,0.0255
1145.00,0.0224
1144.00,0.0202
1143.00,0.0188
1142.00,0.0179
1141.00,0.0174
1140.00,0.0172
1139.00,0.0173
1138.00,0.0176
1137.00,0.0180
1136.00,0.0183
1135.00,0.0185
1134.00,0.0185
1133.00,0.0182
1132.00,0.0176
1131.00,0.0170
1130.00,0.0163
1129.00,0.0156
1128.00,0.0151
1127.00,0.0146
1126.00,0.0143
1125.00,0.0140
1124.00,0.0137
1123.00,0.0136
1122.00,0.0135
1121.00,0.0134
1120.00,0.0134
1119.00,0.0134
1118.00,0.0135
1117.00,0.0136
1116.00,0.0137
1115.00,0.0138
1114.00,0.0140
1113.00,0.0142
1112.00,0.0143
1111.00,0.0146
1110.00,0.0148
1109.00,0.0152
1108.00,0.0156
1107.00,0.0161
1106.00,0.0168
1105.00,0.0174
1104.00,0.0181
1103.00,0.0190
1102.00,0.0200
1101.00,0.0210
1100.00,0.0219
1099.00,0.0225
1098.00,0.0226
1097.00,0.0219
1096.00,0.0208
1095.00,0.0196
1094.00,0.0185
1093.00,0.0177
1092.00,0.0170
1091.00,0.0165
1090.00,0.0161
1089.00,0.0158
1088.00,0.0156
1087.00,0.0157
1086.00,0.0160
1085.00,0.0166
1084.00,0.0175
1083.00,0.0187
1082.00,0.0201
1081.00,0.0215
1080.00,0.0224
1079.00,0.0228
1078.00,0.0225
1077.00,0.0216
1076.00,0.0204
1075.00,0.0193
1074.00,0.0184
1073.00,0.0177
1072.00,0.0170
1071.00,0.0166
1070.00,0.0162
1069.00,0.0159
1068.00,0.0157
1067.00,0.0155
1066.00,0.0156
1065.00,0.0157
1064.00,0.0159
1063.00,0.0162
1062.00,0.0167
1061.00,0.0173
1060.00,0.0182
1059.00,0.0196
1058.00,0.0217
1057.00,0.0248
1056.00,0.0289
1055.00,0.0337
1054.00,0.0386
1053.00,0.0426
1052.00,0.0451
1051.00,0.0461
1050.00,0.0456
1049.00,0.0436
1048.00,0.0405
1047.00,0.0367
1046.00,0.0331
1045.00,0.0302
1044.00,0.0283
1043.00,0.0274
1042.00,0.0273
1041.00,0.0276
1040.00,0.0284
1039.00,0.0295
1038.00,0.0312
1037.00,0.0338
1036.00,0.0372
1035.00,0.0414
1034.00,0.0460
1033.00,0.0500
1032.00,0.0522
1031.00,0.0524
1030.00,0.0507
1029.00,0.0479
1028.00,0.0450
1027.00,0.0427
1026.00,0.0417
1025.00,0.0422
1024.00,0.0444
1023.00,0.0482
1022.00,0.0533
1021.00,0.0589
1020.00,0.0635
1019.00,0.0660
1018.00,0.0658
1017.00,0.0631
1016.00,0.0588
1015.00,0.0542
1014.00,0.0497
1013.00,0.0456
1012.00,0.0423
1011.00,0.0399
1010.00,0.0385
1009.00,0.0379
1008.00,0.0379
1007.00,0.0385
1006.00,0.0399
1005.00,0.0419
1004.00,0.0440
1003.00,0.0456
1002.00,0.0464
1001.00,0.0460
1000.00,0.0442
999.00,0.0415
998.00,0.0381
997.00,0.0346
996.00,0.0314
995.00,0.0289
994.00,0.0271
993.00,0.0260
992.00,0.0253
991.00,0.0252
990.00,0.0255
989.00,0.0261
988.00,0.0268
987.00,0.0275
986.00,0.0281
985.00,0.0284
984.00,0.0282
983.00,0.0274
982.00,0.0263
981.00,0.0250
980.00,0.0238
979.00,0.0230
978.00,0.0225
977.00,0.0221
976.00,0.0218
975.00,0.0214
974.00,0.0212
973.00,0.0210
972.00,0.0210
971.00,0.0213
970.00,0.0220
969.00,0.0228
968.00,0.0237
967.00,0.0248
966.00,0.0260
965.00,0.0275
964.00,0.0291
963.00,0.0307
962.00,0.0322
961.00,0.0328
960.00,0.0323
959.00,0.0307
958.00,0.0285
957.00,0.0261
956.00,0.0238
955.00,0.0219
954.00,0.0204
953.00,0.0193
952.00,0.0184
951.00,0.0178
950.00,0.0173
949.00,0.0169
948.00,0.0165
947.00,0.0162
946.00,0.0160
945.00,0.0158
944.00,0.0156
943.00,0.0154
942.00,0.0153
941.00,0.0152
940.00,0.0151
939.00,0.0150
938.00,0.0150
937.00,0.0150
936.00,0.0150
935.00,0.0150
934.00,0.0151
933.00,0.0153
932.00,0.0155
931.00,0.0159
930.00,0.0162
929.00,0.0164
928.00,0.0165
927.00,0.0165
926.00,0.0165
925.00,0.0164
924.00,0.0163
923.00,0.0162
922.00,0.0163
921.00,0.0163
920.00,0.0165
919.00,0.0169
918.00,0.0175
917.00,0.0181
916.00,0.0186
915.00,0.0189
914.00,0.0191
913.00,0.0190
912.00,0.0188
911.00,0.0187
910.00,0.0188
909.00,0.0193
908.00,0.0202
907.00,0.0215
906.00,0.0232
905.00,0.0252
904.00,0.0274
903.00,0.0301
902.00,0.0335
901.00,0.0379
900.00,0.0434
899.00,0.0502
898.00,0.0571
897.00,0.0625
896.00,0.0648
895.00,0.0634
894.00,0.0592
893.00,0.0538
892.00,0.0485
891.00,0.0442
890.00,0.0417
889.00,0.0413
888.00,0.0435
887.00,0.0485
886.00,0.0560
885.00,0.0643
884.00,0.0708
883.00,0.0730
882.00,0.0700
881.00,0.0632
880.00,0.0548
879.00,0.0471
878.00,0.0410
877.00,0.0366
876.00,0.0337
875.00,0.0319
874.00,0.0312
873.00,0.0314
872.00,0.0323
871.00,0.0337
870.00,0.0348
869.00,0.0351
868.00,0.0346
867.00,0.0338
866.00,0.0338
865.00,0.0349
864.00,0.0370
863.00,0.0397
862.00,0.0421
861.00,0.0433
860.00,0.0433
859.00,0.0428
858.00,0.0426
857.00,0.0430
856.00,0.0439
855.00,0.0452
854.00,0.0465
853.00,0.0477
852.00,0.0485
851.00,0.0489
850.00,0.0486
849.00,0.0474
848.00,0.0455
847.00,0.0435
846.00,0.0418
845.00,0.0406
844.00,0.0398
843.00,0.0392
842.00,0.0385
841.00,0.0378
840.00,0.0371
839.00,0.0367
838.00,0.0368
837.00,0.0372
836.00,0.0379
835.00,0.0390
834.00,0.0405
833.00,0.0422
832.00,0.0439
831.00,0.0456
830.00,0.0472
829.00,0.0484
828.00,0.0490
827.00,0.0488
826.00,0.0477
825.00,0.0458
824.00,0.0431
823.00,0.0401
822.00,0.0371
821.00,0.0342
820.00,0.0315
819.00,0.0291
818.00,0.0271
817.00,0.0256
816.00,0.0245
815.00,0.0237
814.00,0.0232
813.00,0.0227
812.00,0.0223
811.00,0.0222
810.00,0.0227
809.00,0.0240
808.00,0.0265
807.00,0.0304
806.00,0.0350
805.00,0.0388
804.00,0.0405
803.00,0.0396
802.00,0.0369
801.00,0.0336
800.00,0.0304
799.00,0.0278
798.00,0.0258
797.00,0.0243
796.00,0.0232
795.00,0.0224
794.00,0.0220
793.00,0.0218
792.00,0.0215
791.00,0.0213
790.00,0.0212
789.00,0.0210
788.00,0.0209
787.00,0.0210
786.00,0.0212
785.00,0.0213
784.00,0.0210
783.00,0.0205
782.00,0.0199
781.00,0.0195
780.00,0.0192
779.00,0.0191
778.00,0.0191
777.00,0.0191
776.00,0.0189
775.00,0.0187
774.00,0.0185
773.00,0.0185
772.00,0.0185
771.00,0.0186
770.00,0.0187
769.00,0.0185
768.00,0.0181
767.00,0.0176
766.00,0.0171
765.00,0.0166
764.00,0.0161
763.00,0.0158
762.00,0.0156
761.00,0.0155
760.00,0.0155
759.00,0.0155
758.00,0.0157
757.00,0.0161
756.00,0.0166
755.00,0.0175
754.00,0.0188
753.00,0.0201
752.00,0.0212
751.00,0.0220
750.00,0.0226
749.00,0.0230
748.00,0.0229
747.00,0.0223
746.00,0.0211
745.00,0.0198
744.00,0.0184
743.00,0.0174
742.00,0.0168
741.00,0.0163
740.00,0.0160
739.00,0.0159
738.00,0.0160
737.00,0.0162
736.00,0.0165
735.00,0.0172
734.00,0.0183
733.00,0.0197
732.00,0.0209
731.00,0.0217
730.00,0.0218
729.00,0.0210
728.00,0.0199
727.00,0.0190
726.00,0.0185
725.00,0.0182
724.00,0.0179
723.00,0.0177
722.00,0.0175
721.00,0.0173
720.00,0.0171
719.00,0.0169
718.00,0.0167
717.00,0.0163
716.00,0.0158
715.00,0.0154
714.00,0.0152
713.00,0.0152
712.00,0.0151
711.00,0.0151
710.00,0.0150
709.00,0.0148
708.00,0.0145
707.00,0.0142
706.00,0.0140
705.00,0.0139
704.00,0.0137
703.00,0.0135
702.00,0.0135
701.00,0.0134
700.00,0.0133
699.00,0.0133
698.00,0.0133
697.00,0.0133
696.00,0.0133
695.00,0.0133
694.00,0.0133
693.00,0.0133
692.00,0.0132
691.00,0.0132
690.00,0.0132
689.00,0.0133
688.00,0.0134
687.00,0.0134
686.00,0.0135
685.00,0.0137
684.00,0.0137
683.00,0.0137
682.00,0.0139
681.00,0.0140
680.00,0.0142
679.00,0.0144
678.00,0.0148
677.00,0.0152
676.00,0.0155
675.00,0.0159
674.00,0.0165
673.00,0.0172
672.00,0.0180
671.00,0.0189
670.00,0.0198
669.00,0.0206
668.00,0.0212
667.00,0.0217
666.00,0.0221
665.00,0.0224
664.00,0.0226
663.00,0.0228
662.00,0.0230
661.00,0.0230
660.00,0.0230
659.00,0.0230
658.00,0.0231
657.00,0.0230
656.00,0.0227
655.00,0.0224
654.00,0.0223
653.00,0.0226
652.00,0.0230
651.00,0.0237
650.00,0.0245
649.00,0.0250
648.00,0.0249
647.00,0.0245
646.00,0.0238
645.00,0.0230
644.00,0.0219
643.00,0.0210
642.00,0.0203
641.00,0.0197
640.00,0.0192
639.00,0.0188
638.00,0.0188
637.00,0.0189
636.00,0.0189
635.00,0.0190
634.00,0.0192
633.00,0.0194
632.00,0.0197
631.00,0.0201
630.00,0.0206
629.00,0.0211
628.00,0.0215
627.00,0.0219
626.00,0.0224
625.00,0.0227
624.00,0.0229
623.00,0.0229
622.00,0.0229
621.00,0.0224
620.00,0.0216
619.00,0.0206
618.00,0.0197
617.00,0.0191
616.00,0.0189
615.00,0.0195
614.00,0.0209
613.00,0.0228
612.00,0.0245
611.00,0.0257
610.00,0.0261
609.00,0.0259
608.00,0.0252
607.00,0.0248
606.00,0.0249
605.00,0.0252
604.00,0.0256
603.00,0.0260
602.00,0.0266
601.00,0.0274
600.00,0.0283
599.00,0.0290
598.00,0.0296
597.00,0.0298
596.00,0.0296
595.00,0.0294
594.00,0.0297
593.00,0.0304
592.00,0.0314
591.00,0.0329
590.00,0.0347
589.00,0.0364
588.00,0.0378
587.00,0.0387
586.00,0.0391
585.00,0.0387
584.00,0.0376
583.00,0.0362
582.00,0.0346
581.00,0.0330
580.00,0.0314
579.00,0.0302
578.00,0.0295
577.00,0.0290
576.00,0.0287
575.00,0.0287
574.00,0.0291
573.00,0.0295
572.00,0.0297
571.00,0.0300
570.00,0.0306
569.00,0.0312
568.00,0.0315
567.00,0.0317
566.00,0.0321
565.00,0.0325
564.00,0.0326
563.00,0.0328
562.00,0.0330
561.00,0.0331
560.00,0.0329
559.00,0.0328
558.00,0.0328
557.00,0.0329
556.00,0.0327
555.00,0.0328
554.00,0.0332
553.00,0.0338
552.00,0.0344
551.00,0.0350
550.00,0.0359
549.00,0.0365
548.00,0.0370
547.00,0.0378
546.00,0.0391
545.00,0.0404
544.00,0.0412
543.00,0.0416
542.00,0.0422
541.00,0.0430
540.00,0.0441
539.00,0.0458
538.00,0.0482
537.00,0.0507
536.00,0.0523
535.00,0.0529
534.00,0.0527
533.00,0.0517
532.00,0.0502
531.00,0.0489
530.00,0.0481
529.00,0.0478
528.00,0.0481
527.00,0.0495
526.00,0.0522
525.00,0.0553
524.00,0.0584
523.00,0.0609
522.00,0.0624
521.00,0.0620
520.00,0.0591
519.00,0.0546
518.00,0.0500
517.00,0.0461
516.00,0.0431
515.00,0.0411
514.00,0.0402
513.00,0.0400
512.00,0.0400
511.00,0.0403
510.00,0.0412
509.00,0.0423
508.00,0.0435
507.00,0.0450
506.00,0.0471
505.00,0.0492
504.00,0.0512
503.00,0.0535
502.00,0.0564
501.00,0.0592
500.00,0.0616
499.00,0.0638
498.00,0.0659
497.00,0.0676
496.00,0.0684
495.00,0.0689
494.00,0.0693
493.00,0.0693
492.00,0.0687
491.00,0.0678
490.00,0.0671
489.00,0.0665
488.00,0.0659
487.00,0.0655
486.00,0.0654
485.00,0.0651
484.00,0.0643
483.00,0.0634
482.00,0.0626
481.00,0.0615
480.00,0.0599
479.00,0.0583
478.00,0.0571
477.00,0.0563
476.00,0.0555
475.00,0.0553
474.00,0.0557
473.00,0.0563
472.00,0.0567
471.00,0.0572
470.00,0.0583
469.00,0.0595
468.00,0.0602
467.00,0.0607
466.00,0.0614
465.00,0.0618
464.00,0.0615
463.00,0.0612
462.00,0.0613
461.00,0.0612
460.00,0.0605
459.00,0.0597
458.00,0.0595
457.00,0.0593
456.00,0.0587
455.00,0.0583
454.00,0.0585
453.00,0.0586
452.00,0.0581
451.00,0.0575
450.00,0.0572
449.00,0.0567
448.00,0.0556
447.00,0.0545
446.00,0.0538
445.00,0.0532
444.00,0.0522
443.00,0.0515
442.00,0.0513
441.00,0.0510
440.00,0.0501
439.00,0.0495
438.00,0.0497
437.00,0.0499
436.00,0.0494
435.00,0.0488
434.00,0.0488
433.00,0.0490
432.00,0.0490
431.00,0.0497
430.00,0.0515
429.00,0.0536
428.00,0.0555
427.00,0.0578
426.00,0.0608
425.00,0.0631
424.00,0.0635
423.00,0.0630
422.00,0.0628
421.00,0.0624
420.00,0.0609
419.00,0.0594
418.00,0.0593
417.00,0.0595
416.00,0.0591
415.00,0.0593
414.00,0.0604
413.00,0.0613
412.00,0.0610
411.00,0.0613
410.00,0.0634
409.00,0.0657
408.00,0.0666
407.00,0.0669
406.00,0.0678
405.00,0.0683
404.00,0.0677
403.00,0.0678
402.00,0.0700
401.00,0.0727
400.00,0.0739
