Created as New Dataset,Sample 954 By YargerLab Date Tuesday, July 29 2025
cm-1,A
4000.00,0.0059
3999.00,0.0058
3998.00,0.0058
3997.00,0.0058
3996.00,0.0058
3995.00,0.0058
3994.00,0.0058
3993.00,0.0058
3992.00,0.0058
3991.00,0.0058
3990.00,0.0058
3989.00,0.0058
3988.00,0.0058
3987.00,0.0058
3986.00,0.0058
3985.00,0.0058
3984.00,0.0059
3983.00,0.0059
3982.00,0.0059
3981.00,0.0058
3980.00,0.0058
3979.00,0.0058
3978.00,0.0058
3977.00,0.0058
3976.00,0.0059
3975.00,0.0059
3974.00,0.0059
3973.00,0.0059
3972.00,0.0060
3971.00,0.0060
3970.00,0.0060
3969.00,0.0060
3968.00,0.0059
3967.00,0.0059
3966.00,0.0059
3965.00,0.0059
3964.00,0.0059
3963.00,0.0059
3962.00,0.0059
3961.00,0.0059
3960.00,0.0059
3959.00,0.0059
3958.00,0.0058
3957.00,0.0058
3956.00,0.0058
3955.00,0.0058
3954.00,0.0058
3953.00,0.0058
3952.00,0.0058
3951.00,0.0058
3950.00,0.0058
3949.00,0.0058
3948.00,0.0058
3947.00,0.0058
3946.00,0.0058
3945.00,0.0058
3944.00,0.0058
3943.00,0.0058
3942.00,0.0058
3941.00,0.0058
3940.00,0.0059
3939.00,0.0059
3938.00,0.0059
3937.00,0.0059
3936.00,0.0058
3935.00,0.0058
3934.00,0.0058
3933.00,0.0058
3932.00,0.0058
3931.00,0.0058
3930.00,0.0058
3929.00,0.0058
3928.00,0.0058
3927.00,0.0058
3926.00,0.0058
3925.00,0.0058
3924.00,0.0058
3923.00,0.0058
3922.00,0.0058
3921.00,0.0058
3920.00,0.0058
3919.00,0.0058
3918.00,0.0058
3917.00,0.0058
3916.00,0.0058
3915.00,0.0058
3914.00,0.0058
3913.00,0.0058
3912.00,0.0058
3911.00,0.0059
3910.00,0.0059
3909.00,0.0059
3908.00,0.0058
3907.00,0.0058
3906.00,0.0058
3905.00,0.0058
3904.00,0.0058
3903.00,0.0058
3902.00,0.0058
3901.00,0.0058
3900.00,0.0058
3899.00,0.0058
3898.00,0.0058
3897.00,0.0058
3896.00,0.0058
3895.00,0.0058
3894.00,0.0058
3893.00,0.0057
3892.00,0.0057
3891.00,0.0057
3890.00,0.0057
3889.00,0.0058
3888.00,0.0058
3887.00,0.0058
3886.00,0.0058
3885.00,0.0058
3884.00,0.0058
3883.00,0.0058
3882.00,0.0058
3881.00,0.0058
3880.00,0.0058
3879.00,0.0058
3878.00,0.0058
3877.00,0.0058
3876.00,0.0058
3875.00,0.0058
3874.00,0.0058
3873.00,0.0058
3872.00,0.0058
3871.00,0.0057
3870.00,0.0057
3869.00,0.0057
3868.00,0.0057
3867.00,0.0057
3866.00,0.0057
3865.00,0.0057
3864.00,0.0057
3863.00,0.0057
3862.00,0.0057
3861.00,0.0058
3860.00,0.0058
3859.00,0.0058
3858.00,0.0058
3857.00,0.0058
3856.00,0.0059
3855.00,0.0059
3854.00,0.0058
3853.00,0.0058
3852.00,0.0058
3851.00,0.0058
3850.00,0.0058
3849.00,0.0058
3848.00,0.0058
3847.00,0.0057
3846.00,0.0057
3845.00,0.0057
3844.00,0.0057
3843.00,0.0056
3842.00,0.0056
3841.00,0.0056
3840.00,0.0056
3839.00,0.0057
3838.00,0.0057
3837.00,0.0057
3836.00,0.0057
3835.00,0.0057
3834.00,0.0057
3833.00,0.0057
3832.00,0.0057
3831.00,0.0057
3830.00,0.0057
3829.00,0.0057
3828.00,0.0057
3827.00,0.0057
3826.00,0.0057
3825.00,0.0057
3824.00,0.0057
3823.00,0.0057
3822.00,0.0057
3821.00,0.0057
3820.00,0.0057
3819.00,0.0057
3818.00,0.0057
3817.00,0.0057
3816.00,0.0057
3815.00,0.0057
3814.00,0.0057
3813.00,0.0057
3812.00,0.0058
3811.00,0.0057
3810.00,0.0057
3809.00,0.0058
3808.00,0.0058
3807.00,0.0057
3806.00,0.0057
3805.00,0.0057
3804.00,0.0057
3803.00,0.0057
3802.00,0.0056
3801.00,0.0056
3800.00,0.0056
3799.00,0.0056
3798.00,0.0056
3797.00,0.0056
3796.00,0.0056
3795.00,0.0056
3794.00,0.0057
3793.00,0.0057
3792.00,0.0057
3791.00,0.0057
3790.00,0.0057
3789.00,0.0057
3788.00,0.0057
3787.00,0.0057
3786.00,0.0057
3785.00,0.0057
3784.00,0.0057
3783.00,0.0057
3782.00,0.0057
3781.00,0.0057
3780.00,0.0057
3779.00,0.0056
3778.00,0.0056
3777.00,0.0057
3776.00,0.0057
3775.00,0.0057
3774.00,0.0057
3773.00,0.0057
3772.00,0.0057
3771.00,0.0057
3770.00,0.0057
3769.00,0.0057
3768.00,0.0057
3767.00,0.0057
3766.00,0.0057
3765.00,0.0058
3764.00,0.0058
3763.00,0.0058
3762.00,0.0058
3761.00,0.0058
3760.00,0.0058
3759.00,0.0057
3758.00,0.0057
3757.00,0.0057
3756.00,0.0057
3755.00,0.0057
3754.00,0.0057
3753.00,0.0057
3752.00,0.0057
3751.00,0.0057
3750.00,0.0057
3749.00,0.0057
3748.00,0.0057
3747.00,0.0057
3746.00,0.0057
3745.00,0.0057
3744.00,0.0057
3743.00,0.0057
3742.00,0.0057
3741.00,0.0057
3740.00,0.0057
3739.00,0.0056
3738.00,0.0056
3737.00,0.0056
3736.00,0.0055
3735.00,0.0055
3734.00,0.0055
3733.00,0.0055
3732.00,0.0056
3731.00,0.0056
3730.00,0.0056
3729.00,0.0056
3728.00,0.0056
3727.00,0.0056
3726.00,0.0055
3725.00,0.0055
3724.00,0.0055
3723.00,0.0055
3722.00,0.0055
3721.00,0.0055
3720.00,0.0055
3719.00,0.0055
3718.00,0.0055
3717.00,0.0055
3716.00,0.0055
3715.00,0.0055
3714.00,0.0055
3713.00,0.0055
3712.00,0.0055
3711.00,0.0055
3710.00,0.0055
3709.00,0.0055
3708.00,0.0055
3707.00,0.0055
3706.00,0.0055
3705.00,0.0055
3704.00,0.0054
3703.00,0.0054
3702.00,0.0054
3701.00,0.0054
3700.00,0.0054
3699.00,0.0054
3698.00,0.0054
3697.00,0.0054
3696.00,0.0054
3695.00,0.0054
3694.00,0.0054
3693.00,0.0054
3692.00,0.0054
3691.00,0.0054
3690.00,0.0055
3689.00,0.0055
3688.00,0.0055
3687.00,0.0055
3686.00,0.0055
3685.00,0.0055
3684.00,0.0055
3683.00,0.0055
3682.00,0.0054
3681.00,0.0054
3680.00,0.0054
3679.00,0.0054
3678.00,0.0054
3677.00,0.0054
3676.00,0.0054
3675.00,0.0054
3674.00,0.0054
3673.00,0.0055
3672.00,0.0055
3671.00,0.0055
3670.00,0.0055
3669.00,0.0055
3668.00,0.0055
3667.00,0.0055
3666.00,0.0056
3665.00,0.0055
3664.00,0.0055
3663.00,0.0055
3662.00,0.0055
3661.00,0.0055
3660.00,0.0055
3659.00,0.0055
3658.00,0.0055
3657.00,0.0055
3656.00,0.0054
3655.00,0.0054
3654.00,0.0055
3653.00,0.0055
3652.00,0.0055
3651.00,0.0055
3650.00,0.0055
3649.00,0.0054
3648.00,0.0054
3647.00,0.0054
3646.00,0.0055
3645.00,0.0055
3644.00,0.0055
3643.00,0.0055
3642.00,0.0054
3641.00,0.0054
3640.00,0.0054
3639.00,0.0054
3638.00,0.0055
3637.00,0.0055
3636.00,0.0055
3635.00,0.0055
3634.00,0.0055
3633.00,0.0055
3632.00,0.0055
3631.00,0.0056
3630.00,0.0056
3629.00,0.0056
3628.00,0.0056
3627.00,0.0056
3626.00,0.0056
3625.00,0.0056
3624.00,0.0056
3623.00,0.0056
3622.00,0.0056
3621.00,0.0056
3620.00,0.0056
3619.00,0.0056
3618.00,0.0056
3617.00,0.0056
3616.00,0.0056
3615.00,0.0056
3614.00,0.0056
3613.00,0.0057
3612.00,0.0057
3611.00,0.0057
3610.00,0.0058
3609.00,0.0058
3608.00,0.0058
3607.00,0.0058
3606.00,0.0058
3605.00,0.0058
3604.00,0.0058
3603.00,0.0059
3602.00,0.0059
3601.00,0.0059
3600.00,0.0059
3599.00,0.0059
3598.00,0.0059
3597.00,0.0059
3596.00,0.0059
3595.00,0.0059
3594.00,0.0059
3593.00,0.0059
3592.00,0.0059
3591.00,0.0059
3590.00,0.0059
3589.00,0.0059
3588.00,0.0059
3587.00,0.0060
3586.00,0.0060
3585.00,0.0061
3584.00,0.0061
3583.00,0.0061
3582.00,0.0062
3581.00,0.0062
3580.00,0.0062
3579.00,0.0062
3578.00,0.0062
3577.00,0.0063
3576.00,0.0063
3575.00,0.0063
3574.00,0.0063
3573.00,0.0063
3572.00,0.0064
3571.00,0.0064
3570.00,0.0064
3569.00,0.0064
3568.00,0.0064
3567.00,0.0064
3566.00,0.0064
3565.00,0.0064
3564.00,0.0065
3563.00,0.0065
3562.00,0.0066
3561.00,0.0066
3560.00,0.0067
3559.00,0.0067
3558.00,0.0067
3557.00,0.0068
3556.00,0.0068
3555.00,0.0069
3554.00,0.0069
3553.00,0.0069
3552.00,0.0070
3551.00,0.0070
3550.00,0.0070
3549.00,0.0071
3548.00,0.0071
3547.00,0.0071
3546.00,0.0071
3545.00,0.0072
3544.00,0.0072
3543.00,0.0073
3542.00,0.0074
3541.00,0.0074
3540.00,0.0074
3539.00,0.0075
3538.00,0.0075
3537.00,0.0076
3536.00,0.0076
3535.00,0.0077
3534.00,0.0077
3533.00,0.0077
3532.00,0.0078
3531.00,0.0078
3530.00,0.0078
3529.00,0.0079
3528.00,0.0079
3527.00,0.0080
3526.00,0.0081
3525.00,0.0081
3524.00,0.0082
3523.00,0.0082
3522.00,0.0082
3521.00,0.0083
3520.00,0.0083
3519.00,0.0084
3518.00,0.0084
3517.00,0.0085
3516.00,0.0085
3515.00,0.0085
3514.00,0.0086
3513.00,0.0086
3512.00,0.0086
3511.00,0.0087
3510.00,0.0087
3509.00,0.0088
3508.00,0.0088
3507.00,0.0088
3506.00,0.0089
3505.00,0.0089
3504.00,0.0089
3503.00,0.0090
3502.00,0.0091
3501.00,0.0091
3500.00,0.0092
3499.00,0.0092
3498.00,0.0093
3497.00,0.0093
3496.00,0.0094
3495.00,0.0095
3494.00,0.0096
3493.00,0.0096
3492.00,0.0097
3491.00,0.0098
3490.00,0.0098
3489.00,0.0099
3488.00,0.0100
3487.00,0.0101
3486.00,0.0102
3485.00,0.0103
3484.00,0.0104
3483.00,0.0105
3482.00,0.0106
3481.00,0.0107
3480.00,0.0108
3479.00,0.0109
3478.00,0.0110
3477.00,0.0111
3476.00,0.0112
3475.00,0.0113
3474.00,0.0114
3473.00,0.0115
3472.00,0.0116
3471.00,0.0117
3470.00,0.0118
3469.00,0.0120
3468.00,0.0121
3467.00,0.0122
3466.00,0.0123
3465.00,0.0125
3464.00,0.0126
3463.00,0.0127
3462.00,0.0128
3461.00,0.0129
3460.00,0.0131
3459.00,0.0132
3458.00,0.0134
3457.00,0.0135
3456.00,0.0137
3455.00,0.0138
3454.00,0.0140
3453.00,0.0141
3452.00,0.0142
3451.00,0.0143
3450.00,0.0145
3449.00,0.0146
3448.00,0.0148
3447.00,0.0149
3446.00,0.0151
3445.00,0.0153
3444.00,0.0155
3443.00,0.0157
3442.00,0.0158
3441.00,0.0160
3440.00,0.0162
3439.00,0.0163
3438.00,0.0165
3437.00,0.0167
3436.00,0.0169
3435.00,0.0172
3434.00,0.0174
3433.00,0.0176
3432.00,0.0178
3431.00,0.0180
3430.00,0.0182
3429.00,0.0185
3428.00,0.0187
3427.00,0.0189
3426.00,0.0192
3425.00,0.0194
3424.00,0.0197
3423.00,0.0199
3422.00,0.0202
3421.00,0.0204
3420.00,0.0207
3419.00,0.0210
3418.00,0.0213
3417.00,0.0215
3416.00,0.0218
3415.00,0.0220
3414.00,0.0222
3413.00,0.0224
3412.00,0.0226
3411.00,0.0228
3410.00,0.0230
3409.00,0.0232
3408.00,0.0233
3407.00,0.0235
3406.00,0.0237
3405.00,0.0238
3404.00,0.0240
3403.00,0.0241
3402.00,0.0242
3401.00,0.0243
3400.00,0.0243
3399.00,0.0243
3398.00,0.0243
3397.00,0.0243
3396.00,0.0243
3395.00,0.0243
3394.00,0.0242
3393.00,0.0242
3392.00,0.0241
3391.00,0.0240
3390.00,0.0239
3389.00,0.0238
3388.00,0.0237
3387.00,0.0236
3386.00,0.0235
3385.00,0.0234
3384.00,0.0232
3383.00,0.0231
3382.00,0.0230
3381.00,0.0228
3380.00,0.0226
3379.00,0.0225
3378.00,0.0223
3377.00,0.0221
3376.00,0.0219
3375.00,0.0218
3374.00,0.0216
3373.00,0.0215
3372.00,0.0214
3371.00,0.0213
3370.00,0.0212
3369.00,0.0211
3368.00,0.0209
3367.00,0.0208
3366.00,0.0207
3365.00,0.0205
3364.00,0.0204
3363.00,0.0203
3362.00,0.0201
3361.00,0.0200
3360.00,0.0199
3359.00,0.0198
3358.00,0.0197
3357.00,0.0196
3356.00,0.0195
3355.00,0.0194
3354.00,0.0194
3353.00,0.0193
3352.00,0.0192
3351.00,0.0191
3350.00,0.0190
3349.00,0.0190
3348.00,0.0189
3347.00,0.0188
3346.00,0.0188
3345.00,0.0187
3344.00,0.0187
3343.00,0.0186
3342.00,0.0186
3341.00,0.0185
3340.00,0.0185
3339.00,0.0185
3338.00,0.0185
3337.00,0.0184
3336.00,0.0184
3335.00,0.0184
3334.00,0.0184
3333.00,0.0184
3332.00,0.0184
3331.00,0.0184
3330.00,0.0184
3329.00,0.0184
3328.00,0.0183
3327.00,0.0183
3326.00,0.0183
3325.00,0.0183
3324.00,0.0184
3323.00,0.0184
3322.00,0.0184
3321.00,0.0184
3320.00,0.0185
3319.00,0.0185
3318.00,0.0186
3317.00,0.0186
3316.00,0.0187
3315.00,0.0187
3314.00,0.0188
3313.00,0.0188
3312.00,0.0189
3311.00,0.0189
3310.00,0.0189
3309.00,0.0190
3308.00,0.0190
3307.00,0.0191
3306.00,0.0192
3305.00,0.0192
3304.00,0.0193
3303.00,0.0194
3302.00,0.0195
3301.00,0.0196
3300.00,0.0196
3299.00,0.0197
3298.00,0.0198
3297.00,0.0199
3296.00,0.0199
3295.00,0.0200
3294.00,0.0201
3293.00,0.0202
3292.00,0.0203
3291.00,0.0204
3290.00,0.0205
3289.00,0.0206
3288.00,0.0207
3287.00,0.0208
3286.00,0.0209
3285.00,0.0210
3284.00,0.0211
3283.00,0.0212
3282.00,0.0213
3281.00,0.0213
3280.00,0.0214
3279.00,0.0215
3278.00,0.0216
3277.00,0.0218
3276.00,0.0219
3275.00,0.0220
3274.00,0.0221
3273.00,0.0222
3272.00,0.0223
3271.00,0.0224
3270.00,0.0225
3269.00,0.0225
3268.00,0.0226
3267.00,0.0227
3266.00,0.0228
3265.00,0.0229
3264.00,0.0230
3263.00,0.0231
3262.00,0.0233
3261.00,0.0234
3260.00,0.0235
3259.00,0.0236
3258.00,0.0237
3257.00,0.0238
3256.00,0.0239
3255.00,0.0240
3254.00,0.0242
3253.00,0.0243
3252.00,0.0244
3251.00,0.0245
3250.00,0.0245
3249.00,0.0246
3248.00,0.0247
3247.00,0.0247
3246.00,0.0248
3245.00,0.0249
3244.00,0.0250
3243.00,0.0251
3242.00,0.0252
3241.00,0.0253
3240.00,0.0253
3239.00,0.0254
3238.00,0.0254
3237.00,0.0254
3236.00,0.0254
3235.00,0.0253
3234.00,0.0253
3233.00,0.0253
3232.00,0.0253
3231.00,0.0254
3230.00,0.0254
3229.00,0.0255
3228.00,0.0255
3227.00,0.0255
3226.00,0.0255
3225.00,0.0256
3224.00,0.0256
3223.00,0.0255
3222.00,0.0255
3221.00,0.0254
3220.00,0.0254
3219.00,0.0253
3218.00,0.0252
3217.00,0.0252
3216.00,0.0251
3215.00,0.0251
3214.00,0.0250
3213.00,0.0250
3212.00,0.0249
3211.00,0.0248
3210.00,0.0247
3209.00,0.0246
3208.00,0.0245
3207.00,0.0244
3206.00,0.0243
3205.00,0.0241
3204.00,0.0240
3203.00,0.0239
3202.00,0.0238
3201.00,0.0237
3200.00,0.0235
3199.00,0.0234
3198.00,0.0233
3197.00,0.0231
3196.00,0.0230
3195.00,0.0229
3194.00,0.0227
3193.00,0.0226
3192.00,0.0225
3191.00,0.0223
3190.00,0.0222
3189.00,0.0220
3188.00,0.0219
3187.00,0.0218
3186.00,0.0217
3185.00,0.0215
3184.00,0.0214
3183.00,0.0212
3182.00,0.0210
3181.00,0.0209
3180.00,0.0208
3179.00,0.0207
3178.00,0.0205
3177.00,0.0204
3176.00,0.0203
3175.00,0.0201
3174.00,0.0200
3173.00,0.0198
3172.00,0.0197
3171.00,0.0195
3170.00,0.0194
3169.00,0.0192
3168.00,0.0191
3167.00,0.0189
3166.00,0.0188
3165.00,0.0186
3164.00,0.0184
3163.00,0.0183
3162.00,0.0181
3161.00,0.0180
3160.00,0.0178
3159.00,0.0176
3158.00,0.0175
3157.00,0.0173
3156.00,0.0171
3155.00,0.0169
3154.00,0.0168
3153.00,0.0166
3152.00,0.0165
3151.00,0.0164
3150.00,0.0162
3149.00,0.0161
3148.00,0.0160
3147.00,0.0158
3146.00,0.0157
3145.00,0.0156
3144.00,0.0154
3143.00,0.0153
3142.00,0.0152
3141.00,0.0150
3140.00,0.0149
3139.00,0.0148
3138.00,0.0147
3137.00,0.0146
3136.00,0.0145
3135.00,0.0144
3134.00,0.0143
3133.00,0.0142
3132.00,0.0141
3131.00,0.0140
3130.00,0.0139
3129.00,0.0138
3128.00,0.0138
3127.00,0.0137
3126.00,0.0136
3125.00,0.0135
3124.00,0.0134
3123.00,0.0133
3122.00,0.0132
3121.00,0.0131
3120.00,0.0131
3119.00,0.0130
3118.00,0.0129
3117.00,0.0128
3116.00,0.0127
3115.00,0.0126
3114.00,0.0125
3113.00,0.0124
3112.00,0.0123
3111.00,0.0122
3110.00,0.0121
3109.00,0.0120
3108.00,0.0120
3107.00,0.0119
3106.00,0.0118
3105.00,0.0117
3104.00,0.0116
3103.00,0.0116
3102.00,0.0115
3101.00,0.0114
3100.00,0.0113
3099.00,0.0113
3098.00,0.0112
3097.00,0.0112
3096.00,0.0112
3095.00,0.0112
3094.00,0.0112
3093.00,0.0112
3092.00,0.0112
3091.00,0.0113
3090.00,0.0113
3089.00,0.0114
3088.00,0.0114
3087.00,0.0114
3086.00,0.0114
3085.00,0.0114
3084.00,0.0114
3083.00,0.0114
3082.00,0.0114
3081.00,0.0114
3080.00,0.0113
3079.00,0.0113
3078.00,0.0112
3077.00,0.0112
3076.00,0.0111
3075.00,0.0111
3074.00,0.0110
3073.00,0.0110
3072.00,0.0110
3071.00,0.0109
3070.00,0.0109
3069.00,0.0109
3068.00,0.0109
3067.00,0.0109
3066.00,0.0108
3065.00,0.0108
3064.00,0.0108
3063.00,0.0108
3062.00,0.0108
3061.00,0.0108
3060.00,0.0109
3059.00,0.0109
3058.00,0.0109
3057.00,0.0110
3056.00,0.0110
3055.00,0.0110
3054.00,0.0110
3053.00,0.0110
3052.00,0.0110
3051.00,0.0110
3050.00,0.0110
3049.00,0.0109
3048.00,0.0109
3047.00,0.0108
3046.00,0.0108
3045.00,0.0108
3044.00,0.0108
3043.00,0.0108
3042.00,0.0109
3041.00,0.0109
3040.00,0.0110
3039.00,0.0111
3038.00,0.0112
3037.00,0.0113
3036.00,0.0114
3035.00,0.0115
3034.00,0.0116
3033.00,0.0116
3032.00,0.0116
3031.00,0.0116
3030.00,0.0116
3029.00,0.0115
3028.00,0.0114
3027.00,0.0113
3026.00,0.0111
3025.00,0.0110
3024.00,0.0109
3023.00,0.0107
3022.00,0.0106
3021.00,0.0104
3020.00,0.0103
3019.00,0.0102
3018.00,0.0102
3017.00,0.0101
3016.00,0.0101
3015.00,0.0100
3014.00,0.0100
3013.00,0.0101
3012.00,0.0101
3011.00,0.0101
3010.00,0.0102
3009.00,0.0103
3008.00,0.0104
3007.00,0.0105
3006.00,0.0107
3005.00,0.0109
3004.00,0.0111
3003.00,0.0114
3002.00,0.0117
3001.00,0.0120
3000.00,0.0124
2999.00,0.0128
2998.00,0.0133
2997.00,0.0138
2996.00,0.0143
2995.00,0.0147
2994.00,0.0151
2993.00,0.0155
2992.00,0.0158
2991.00,0.0161
2990.00,0.0164
2989.00,0.0167
2988.00,0.0170
2987.00,0.0174
2986.00,0.0179
2985.00,0.0184
2984.00,0.0191
2983.00,0.0199
2982.00,0.0209
2981.00,0.0218
2980.00,0.0227
2979.00,0.0234
2978.00,0.0238
2977.00,0.0241
2976.00,0.0244
2975.00,0.0249
2974.00,0.0256
2973.00,0.0266
2972.00,0.0278
2971.00,0.0289
2970.00,0.0298
2969.00,0.0305
2968.00,0.0310
2967.00,0.0313
2966.00,0.0317
2965.00,0.0323
2964.00,0.0329
2963.00,0.0335
2962.00,0.0341
2961.00,0.0345
2960.00,0.0347
2959.00,0.0345
2958.00,0.0340
2957.00,0.0333
2956.00,0.0323
2955.00,0.0312
2954.00,0.0302
2953.00,0.0292
2952.00,0.0283
2951.00,0.0276
2950.00,0.0271
2949.00,0.0268
2948.00,0.0266
2947.00,0.0267
2946.00,0.0270
2945.00,0.0274
2944.00,0.0281
2943.00,0.0288
2942.00,0.0297
2941.00,0.0306
2940.00,0.0318
2939.00,0.0330
2938.00,0.0345
2937.00,0.0362
2936.00,0.0381
2935.00,0.0402
2934.00,0.0424
2933.00,0.0447
2932.00,0.0469
2931.00,0.0491
2930.00,0.0511
2929.00,0.0527
2928.00,0.0539
2927.00,0.0546
2926.00,0.0548
2925.00,0.0545
2924.00,0.0538
2923.00,0.0528
2922.00,0.0515
2921.00,0.0501
2920.00,0.0486
2919.00,0.0470
2918.00,0.0454
2917.00,0.0439
2916.00,0.0423
2915.00,0.0409
2914.00,0.0395
2913.00,0.0382
2912.00,0.0370
2911.00,0.0359
2910.00,0.0349
2909.00,0.0340
2908.00,0.0331
2907.00,0.0322
2906.00,0.0315
2905.00,0.0307
2904.00,0.0300
2903.00,0.0293
2902.00,0.0287
2901.00,0.0280
2900.00,0.0274
2899.00,0.0268
2898.00,0.0263
2897.00,0.0258
2896.00,0.0253
2895.00,0.0248
2894.00,0.0244
2893.00,0.0240
2892.00,0.0237
2891.00,0.0233
2890.00,0.0230
2889.00,0.0227
2888.00,0.0224
2887.00,0.0221
2886.00,0.0219
2885.00,0.0217
2884.00,0.0215
2883.00,0.0215
2882.00,0.0216
2881.00,0.0218
2880.00,0.0221
2879.00,0.0225
2878.00,0.0231
2877.00,0.0238
2876.00,0.0246
2875.00,0.0254
2874.00,0.0261
2873.00,0.0266
2872.00,0.0269
2871.00,0.0270
2870.00,0.0269
2869.00,0.0267
2868.00,0.0266
2867.00,0.0266
2866.00,0.0268
2865.00,0.0273
2864.00,0.0282
2863.00,0.0294
2862.00,0.0309
2861.00,0.0326
2860.00,0.0345
2859.00,0.0363
2858.00,0.0378
2857.00,0.0389
2856.00,0.0396
2855.00,0.0399
2854.00,0.0399
2853.00,0.0396
2852.00,0.0390
2851.00,0.0380
2850.00,0.0366
2849.00,0.0348
2848.00,0.0329
2847.00,0.0310
2846.00,0.0290
2845.00,0.0273
2844.00,0.0256
2843.00,0.0242
2842.00,0.0229
2841.00,0.0217
2840.00,0.0207
2839.00,0.0198
2838.00,0.0191
2837.00,0.0184
2836.00,0.0179
2835.00,0.0174
2834.00,0.0170
2833.00,0.0165
2832.00,0.0162
2831.00,0.0158
2830.00,0.0155
2829.00,0.0152
2828.00,0.0149
2827.00,0.0147
2826.00,0.0144
2825.00,0.0141
2824.00,0.0139
2823.00,0.0137
2822.00,0.0135
2821.00,0.0133
2820.00,0.0132
2819.00,0.0130
2818.00,0.0129
2817.00,0.0128
2816.00,0.0126
2815.00,0.0125
2814.00,0.0124
2813.00,0.0123
2812.00,0.0122
2811.00,0.0121
2810.00,0.0120
2809.00,0.0119
2808.00,0.0119
2807.00,0.0118
2806.00,0.0117
2805.00,0.0117
2804.00,0.0116
2803.00,0.0116
2802.00,0.0115
2801.00,0.0114
2800.00,0.0113
2799.00,0.0112
2798.00,0.0111
2797.00,0.0111
2796.00,0.0110
2795.00,0.0110
2794.00,0.0109
2793.00,0.0108
2792.00,0.0107
2791.00,0.0106
2790.00,0.0106
2789.00,0.0105
2788.00,0.0105
2787.00,0.0105
2786.00,0.0104
2785.00,0.0104
2784.00,0.0103
2783.00,0.0102
2782.00,0.0102
2781.00,0.0102
2780.00,0.0101
2779.00,0.0101
2778.00,0.0100
2777.00,0.0100
2776.00,0.0099
2775.00,0.0099
2774.00,0.0099
2773.00,0.0099
2772.00,0.0099
2771.00,0.0099
2770.00,0.0098
2769.00,0.0098
2768.00,0.0098
2767.00,0.0097
2766.00,0.0097
2765.00,0.0097
2764.00,0.0097
2763.00,0.0097
2762.00,0.0097
2761.00,0.0097
2760.00,0.0097
2759.00,0.0097
2758.00,0.0097
2757.00,0.0097
2756.00,0.0097
2755.00,0.0097
2754.00,0.0097
2753.00,0.0097
2752.00,0.0097
2751.00,0.0097
2750.00,0.0097
2749.00,0.0097
2748.00,0.0097
2747.00,0.0097
2746.00,0.0098
2745.00,0.0098
2744.00,0.0098
2743.00,0.0099
2742.00,0.0099
2741.00,0.0099
2740.00,0.0100
2739.00,0.0100
2738.00,0.0101
2737.00,0.0101
2736.00,0.0102
2735.00,0.0103
2734.00,0.0103
2733.00,0.0104
2732.00,0.0105
2731.00,0.0105
2730.00,0.0106
2729.00,0.0106
2728.00,0.0105
2727.00,0.0105
2726.00,0.0104
2725.00,0.0104
2724.00,0.0103
2723.00,0.0103
2722.00,0.0103
2721.00,0.0102
2720.00,0.0102
2719.00,0.0102
2718.00,0.0101
2717.00,0.0101
2716.00,0.0100
2715.00,0.0100
2714.00,0.0099
2713.00,0.0099
2712.00,0.0099
2711.00,0.0099
2710.00,0.0099
2709.00,0.0099
2708.00,0.0099
2707.00,0.0099
2706.00,0.0098
2705.00,0.0098
2704.00,0.0098
2703.00,0.0098
2702.00,0.0098
2701.00,0.0098
2700.00,0.0097
2699.00,0.0097
2698.00,0.0097
2697.00,0.0097
2696.00,0.0096
2695.00,0.0096
2694.00,0.0096
2693.00,0.0096
2692.00,0.0096
2691.00,0.0095
2690.00,0.0095
2689.00,0.0094
2688.00,0.0094
2687.00,0.0094
2686.00,0.0094
2685.00,0.0093
2684.00,0.0093
2683.00,0.0093
2682.00,0.0093
2681.00,0.0093
2680.00,0.0092
2679.00,0.0092
2678.00,0.0092
2677.00,0.0093
2676.00,0.0093
2675.00,0.0093
2674.00,0.0093
2673.00,0.0093
2672.00,0.0093
2671.00,0.0093
2670.00,0.0094
2669.00,0.0094
2668.00,0.0095
2667.00,0.0095
2666.00,0.0096
2665.00,0.0096
2664.00,0.0097
2663.00,0.0098
2662.00,0.0098
2661.00,0.0099
2660.00,0.0099
2659.00,0.0099
2658.00,0.0099
2657.00,0.0099
2656.00,0.0100
2655.00,0.0100
2654.00,0.0100
2653.00,0.0100
2652.00,0.0100
2651.00,0.0100
2650.00,0.0100
2649.00,0.0100
2648.00,0.0100
2647.00,0.0100
2646.00,0.0100
2645.00,0.0100
2644.00,0.0100
2643.00,0.0100
2642.00,0.0099
2641.00,0.0099
2640.00,0.0099
2639.00,0.0099
2638.00,0.0098
2637.00,0.0098
2636.00,0.0097
2635.00,0.0097
2634.00,0.0096
2633.00,0.0096
2632.00,0.0095
2631.00,0.0095
2630.00,0.0095
2629.00,0.0094
2628.00,0.0094
2627.00,0.0094
2626.00,0.0093
2625.00,0.0093
2624.00,0.0092
2623.00,0.0092
2622.00,0.0092
2621.00,0.0092
2620.00,0.0092
2619.00,0.0092
2618.00,0.0092
2617.00,0.0091
2616.00,0.0091
2615.00,0.0091
2614.00,0.0091
2613.00,0.0091
2612.00,0.0091
2611.00,0.0091
2610.00,0.0091
2609.00,0.0091
2608.00,0.0091
2607.00,0.0091
2606.00,0.0091
2605.00,0.0091
2604.00,0.0091
2603.00,0.0092
2602.00,0.0092
2601.00,0.0093
2600.00,0.0093
2599.00,0.0093
2598.00,0.0093
2597.00,0.0092
2596.00,0.0092
2595.00,0.0092
2594.00,0.0092
2593.00,0.0092
2592.00,0.0092
2591.00,0.0093
2590.00,0.0093
2589.00,0.0093
2588.00,0.0094
2587.00,0.0094
2586.00,0.0094
2585.00,0.0094
2584.00,0.0094
2583.00,0.0093
2582.00,0.0093
2581.00,0.0092
2580.00,0.0092
2579.00,0.0092
2578.00,0.0092
2577.00,0.0092
2576.00,0.0092
2575.00,0.0092
2574.00,0.0091
2573.00,0.0091
2572.00,0.0091
2571.00,0.0091
2570.00,0.0091
2569.00,0.0091
2568.00,0.0091
2567.00,0.0091
2566.00,0.0091
2565.00,0.0091
2564.00,0.0091
2563.00,0.0090
2562.00,0.0090
2561.00,0.0089
2560.00,0.0089
2559.00,0.0088
2558.00,0.0088
2557.00,0.0087
2556.00,0.0087
2555.00,0.0087
2554.00,0.0086
2553.00,0.0086
2552.00,0.0086
2551.00,0.0085
2550.00,0.0085
2549.00,0.0085
2548.00,0.0086
2547.00,0.0086
2546.00,0.0086
2545.00,0.0086
2544.00,0.0086
2543.00,0.0086
2542.00,0.0086
2541.00,0.0086
2540.00,0.0086
2539.00,0.0086
2538.00,0.0086
2537.00,0.0086
2536.00,0.0086
2535.00,0.0087
2534.00,0.0087
2533.00,0.0086
2532.00,0.0086
2531.00,0.0086
2530.00,0.0086
2529.00,0.0086
2528.00,0.0086
2527.00,0.0085
2526.00,0.0085
2525.00,0.0084
2524.00,0.0084
2523.00,0.0083
2522.00,0.0083
2521.00,0.0083
2520.00,0.0083
2519.00,0.0083
2518.00,0.0083
2517.00,0.0082
2516.00,0.0082
2515.00,0.0082
2514.00,0.0082
2513.00,0.0081
2512.00,0.0081
2511.00,0.0081
2510.00,0.0081
2509.00,0.0081
2508.00,0.0081
2507.00,0.0080
2506.00,0.0080
2505.00,0.0080
2504.00,0.0080
2503.00,0.0080
2502.00,0.0080
2501.00,0.0080
2500.00,0.0080
2499.00,0.0079
2498.00,0.0079
2497.00,0.0079
2496.00,0.0079
2495.00,0.0079
2494.00,0.0078
2493.00,0.0078
2492.00,0.0078
2491.00,0.0078
2490.00,0.0078
2489.00,0.0078
2488.00,0.0078
2487.00,0.0078
2486.00,0.0078
2485.00,0.0078
2484.00,0.0078
2483.00,0.0078
2482.00,0.0078
2481.00,0.0077
2480.00,0.0077
2479.00,0.0077
2478.00,0.0076
2477.00,0.0076
2476.00,0.0076
2475.00,0.0076
2474.00,0.0076
2473.00,0.0076
2472.00,0.0076
2471.00,0.0077
2470.00,0.0076
2469.00,0.0076
2468.00,0.0076
2467.00,0.0075
2466.00,0.0075
2465.00,0.0075
2464.00,0.0075
2463.00,0.0075
2462.00,0.0076
2461.00,0.0076
2460.00,0.0076
2459.00,0.0076
2458.00,0.0076
2457.00,0.0076
2456.00,0.0077
2455.00,0.0077
2454.00,0.0077
2453.00,0.0077
2452.00,0.0077
2451.00,0.0077
2450.00,0.0077
2449.00,0.0077
2448.00,0.0077
2447.00,0.0077
2446.00,0.0076
2445.00,0.0076
2444.00,0.0076
2443.00,0.0075
2442.00,0.0075
2441.00,0.0075
2440.00,0.0074
2439.00,0.0074
2438.00,0.0074
2437.00,0.0074
2436.00,0.0073
2435.00,0.0073
2434.00,0.0073
2433.00,0.0073
2432.00,0.0073
2431.00,0.0073
2430.00,0.0073
2429.00,0.0073
2428.00,0.0073
2427.00,0.0073
2426.00,0.0073
2425.00,0.0073
2424.00,0.0073
2423.00,0.0072
2422.00,0.0072
2421.00,0.0072
2420.00,0.0072
2419.00,0.0072
2418.00,0.0072
2417.00,0.0072
2416.00,0.0072
2415.00,0.0072
2414.00,0.0072
2413.00,0.0072
2412.00,0.0072
2411.00,0.0072
2410.00,0.0072
2409.00,0.0072
2408.00,0.0072
2407.00,0.0071
2406.00,0.0071
2405.00,0.0071
2404.00,0.0071
2403.00,0.0071
2402.00,0.0071
2401.00,0.0071
2400.00,0.0071
2399.00,0.0071
2398.00,0.0071
2397.00,0.0071
2396.00,0.0071
2395.00,0.0071
2394.00,0.0071
2393.00,0.0071
2392.00,0.0070
2391.00,0.0070
2390.00,0.0070
2389.00,0.0070
2388.00,0.0070
2387.00,0.0070
2386.00,0.0070
2385.00,0.0070
2384.00,0.0069
2383.00,0.0069
2382.00,0.0068
2381.00,0.0067
2380.00,0.0067
2379.00,0.0067
2378.00,0.0067
2377.00,0.0067
2376.00,0.0067
2375.00,0.0068
2374.00,0.0068
2373.00,0.0068
2372.00,0.0068
2371.00,0.0068
2370.00,0.0068
2369.00,0.0067
2368.00,0.0068
2367.00,0.0068
2366.00,0.0068
2365.00,0.0068
2364.00,0.0068
2363.00,0.0068
2362.00,0.0068
2361.00,0.0068
2360.00,0.0068
2359.00,0.0068
2358.00,0.0068
2357.00,0.0068
2356.00,0.0068
2355.00,0.0068
2354.00,0.0068
2353.00,0.0069
2352.00,0.0069
2351.00,0.0068
2350.00,0.0068
2349.00,0.0068
2348.00,0.0069
2347.00,0.0070
2346.00,0.0071
2345.00,0.0072
2344.00,0.0072
2343.00,0.0071
2342.00,0.0071
2341.00,0.0071
2340.00,0.0071
2339.00,0.0071
2338.00,0.0070
2337.00,0.0070
2336.00,0.0070
2335.00,0.0069
2334.00,0.0069
2333.00,0.0069
2332.00,0.0069
2331.00,0.0069
2330.00,0.0070
2329.00,0.0071
2328.00,0.0074
2327.00,0.0078
2326.00,0.0080
2325.00,0.0082
2324.00,0.0081
2323.00,0.0079
2322.00,0.0077
2321.00,0.0076
2320.00,0.0075
2319.00,0.0074
2318.00,0.0073
2317.00,0.0072
2316.00,0.0072
2315.00,0.0072
2314.00,0.0072
2313.00,0.0071
2312.00,0.0071
2311.00,0.0070
2310.00,0.0070
2309.00,0.0069
2308.00,0.0069
2307.00,0.0069
2306.00,0.0070
2305.00,0.0070
2304.00,0.0070
2303.00,0.0071
2302.00,0.0071
2301.00,0.0071
2300.00,0.0071
2299.00,0.0072
2298.00,0.0073
2297.00,0.0074
2296.00,0.0074
2295.00,0.0075
2294.00,0.0076
2293.00,0.0077
2292.00,0.0077
2291.00,0.0078
2290.00,0.0079
2289.00,0.0080
2288.00,0.0080
2287.00,0.0080
2286.00,0.0080
2285.00,0.0080
2284.00,0.0079
2283.00,0.0078
2282.00,0.0078
2281.00,0.0077
2280.00,0.0076
2279.00,0.0076
2278.00,0.0075
2277.00,0.0074
2276.00,0.0074
2275.00,0.0074
2274.00,0.0073
2273.00,0.0073
2272.00,0.0073
2271.00,0.0073
2270.00,0.0072
2269.00,0.0072
2268.00,0.0071
2267.00,0.0070
2266.00,0.0070
2265.00,0.0069
2264.00,0.0069
2263.00,0.0069
2262.00,0.0069
2261.00,0.0069
2260.00,0.0069
2259.00,0.0069
2258.00,0.0069
2257.00,0.0068
2256.00,0.0067
2255.00,0.0067
2254.00,0.0066
2253.00,0.0066
2252.00,0.0066
2251.00,0.0066
2250.00,0.0066
2249.00,0.0066
2248.00,0.0067
2247.00,0.0067
2246.00,0.0067
2245.00,0.0067
2244.00,0.0067
2243.00,0.0067
2242.00,0.0067
2241.00,0.0067
2240.00,0.0066
2239.00,0.0066
2238.00,0.0067
2237.00,0.0068
2236.00,0.0069
2235.00,0.0070
2234.00,0.0071
2233.00,0.0070
2232.00,0.0070
2231.00,0.0069
2230.00,0.0068
2229.00,0.0067
2228.00,0.0067
2227.00,0.0067
2226.00,0.0068
2225.00,0.0068
2224.00,0.0068
2223.00,0.0068
2222.00,0.0067
2221.00,0.0067
2220.00,0.0067
2219.00,0.0067
2218.00,0.0067
2217.00,0.0067
2216.00,0.0067
2215.00,0.0067
2214.00,0.0067
2213.00,0.0067
2212.00,0.0067
2211.00,0.0067
2210.00,0.0067
2209.00,0.0068
2208.00,0.0068
2207.00,0.0068
2206.00,0.0068
2205.00,0.0069
2204.00,0.0070
2203.00,0.0070
2202.00,0.0069
2201.00,0.0067
2200.00,0.0065
2199.00,0.0064
2198.00,0.0064
2197.00,0.0065
2196.00,0.0066
2195.00,0.0066
2194.00,0.0066
2193.00,0.0066
2192.00,0.0065
2191.00,0.0066
2190.00,0.0066
2189.00,0.0067
2188.00,0.0068
2187.00,0.0069
2186.00,0.0069
2185.00,0.0068
2184.00,0.0066
2183.00,0.0063
2182.00,0.0061
2181.00,0.0061
2180.00,0.0062
2179.00,0.0064
2178.00,0.0064
2177.00,0.0063
2176.00,0.0061
2175.00,0.0061
2174.00,0.0061
2173.00,0.0063
2172.00,0.0064
2171.00,0.0065
2170.00,0.0067
2169.00,0.0069
2168.00,0.0072
2167.00,0.0074
2166.00,0.0075
2165.00,0.0076
2164.00,0.0076
2163.00,0.0075
2162.00,0.0069
2161.00,0.0059
2160.00,0.0047
2159.00,0.0036
2158.00,0.0031
2157.00,0.0031
2156.00,0.0034
2155.00,0.0038
2154.00,0.0042
2153.00,0.0045
2152.00,0.0048
2151.00,0.0049
2150.00,0.0048
2149.00,0.0047
2148.00,0.0046
2147.00,0.0046
2146.00,0.0045
2145.00,0.0045
2144.00,0.0046
2143.00,0.0047
2142.00,0.0048
2141.00,0.0049
2140.00,0.0049
2139.00,0.0048
2138.00,0.0047
2137.00,0.0045
2136.00,0.0043
2135.00,0.0042
2134.00,0.0042
2133.00,0.0043
2132.00,0.0044
2131.00,0.0046
2130.00,0.0048
2129.00,0.0049
2128.00,0.0051
2127.00,0.0053
2126.00,0.0054
2125.00,0.0054
2124.00,0.0055
2123.00,0.0055
2122.00,0.0055
2121.00,0.0056
2120.00,0.0056
2119.00,0.0057
2118.00,0.0057
2117.00,0.0058
2116.00,0.0058
2115.00,0.0059
2114.00,0.0059
2113.00,0.0059
2112.00,0.0059
2111.00,0.0059
2110.00,0.0059
2109.00,0.0059
2108.00,0.0059
2107.00,0.0058
2106.00,0.0058
2105.00,0.0058
2104.00,0.0058
2103.00,0.0058
2102.00,0.0058
2101.00,0.0058
2100.00,0.0057
2099.00,0.0056
2098.00,0.0054
2097.00,0.0052
2096.00,0.0051
2095.00,0.0051
2094.00,0.0052
2093.00,0.0053
2092.00,0.0055
2091.00,0.0057
2090.00,0.0058
2089.00,0.0058
2088.00,0.0058
2087.00,0.0058
2086.00,0.0057
2085.00,0.0057
2084.00,0.0058
2083.00,0.0059
2082.00,0.0060
2081.00,0.0061
2080.00,0.0061
2079.00,0.0061
2078.00,0.0061
2077.00,0.0061
2076.00,0.0061
2075.00,0.0061
2074.00,0.0060
2073.00,0.0060
2072.00,0.0060
2071.00,0.0059
2070.00,0.0058
2069.00,0.0057
2068.00,0.0056
2067.00,0.0056
2066.00,0.0057
2065.00,0.0057
2064.00,0.0057
2063.00,0.0057
2062.00,0.0057
2061.00,0.0057
2060.00,0.0056
2059.00,0.0056
2058.00,0.0056
2057.00,0.0056
2056.00,0.0055
2055.00,0.0056
2054.00,0.0058
2053.00,0.0061
2052.00,0.0063
2051.00,0.0063
2050.00,0.0059
2049.00,0.0056
2048.00,0.0054
2047.00,0.0055
2046.00,0.0055
2045.00,0.0055
2044.00,0.0055
2043.00,0.0056
2042.00,0.0056
2041.00,0.0056
2040.00,0.0057
2039.00,0.0058
2038.00,0.0058
2037.00,0.0057
2036.00,0.0056
2035.00,0.0055
2034.00,0.0053
2033.00,0.0051
2032.00,0.0050
2031.00,0.0049
2030.00,0.0048
2029.00,0.0048
2028.00,0.0049
2027.00,0.0051
2026.00,0.0052
2025.00,0.0053
2024.00,0.0053
2023.00,0.0053
2022.00,0.0051
2021.00,0.0049
2020.00,0.0048
2019.00,0.0047
2018.00,0.0046
2017.00,0.0046
2016.00,0.0045
2015.00,0.0045
2014.00,0.0045
2013.00,0.0047
2012.00,0.0048
2011.00,0.0049
2010.00,0.0049
2009.00,0.0047
2008.00,0.0046
2007.00,0.0044
2006.00,0.0044
2005.00,0.0044
2004.00,0.0045
2003.00,0.0046
2002.00,0.0046
2001.00,0.0046
2000.00,0.0047
1999.00,0.0048
1998.00,0.0050
1997.00,0.0053
1996.00,0.0054
1995.00,0.0055
1994.00,0.0054
1993.00,0.0053
1992.00,0.0053
1991.00,0.0054
1990.00,0.0055
1989.00,0.0056
1988.00,0.0057
1987.00,0.0057
1986.00,0.0057
1985.00,0.0059
1984.00,0.0061
1983.00,0.0064
1982.00,0.0067
1981.00,0.0068
1980.00,0.0068
1979.00,0.0063
1978.00,0.0057
1977.00,0.0052
1976.00,0.0049
1975.00,0.0047
1974.00,0.0046
1973.00,0.0045
1972.00,0.0045
1971.00,0.0045
1970.00,0.0046
1969.00,0.0047
1968.00,0.0048
1967.00,0.0048
1966.00,0.0048
1965.00,0.0048
1964.00,0.0048
1963.00,0.0048
1962.00,0.0047
1961.00,0.0045
1960.00,0.0045
1959.00,0.0045
1958.00,0.0046
1957.00,0.0047
1956.00,0.0048
1955.00,0.0049
1954.00,0.0050
1953.00,0.0050
1952.00,0.0051
1951.00,0.0050
1950.00,0.0050
1949.00,0.0050
1948.00,0.0050
1947.00,0.0050
1946.00,0.0050
1945.00,0.0050
1944.00,0.0049
1943.00,0.0048
1942.00,0.0047
1941.00,0.0047
1940.00,0.0048
1939.00,0.0048
1938.00,0.0049
1937.00,0.0050
1936.00,0.0051
1935.00,0.0051
1934.00,0.0051
1933.00,0.0052
1932.00,0.0053
1931.00,0.0053
1930.00,0.0053
1929.00,0.0054
1928.00,0.0054
1927.00,0.0054
1926.00,0.0055
1925.00,0.0055
1924.00,0.0055
1923.00,0.0055
1922.00,0.0055
1921.00,0.0055
1920.00,0.0055
1919.00,0.0055
1918.00,0.0055
1917.00,0.0056
1916.00,0.0056
1915.00,0.0057
1914.00,0.0058
1913.00,0.0059
1912.00,0.0062
1911.00,0.0065
1910.00,0.0069
1909.00,0.0072
1908.00,0.0073
1907.00,0.0072
1906.00,0.0070
1905.00,0.0067
1904.00,0.0065
1903.00,0.0063
1902.00,0.0062
1901.00,0.0061
1900.00,0.0061
1899.00,0.0062
1898.00,0.0062
1897.00,0.0062
1896.00,0.0063
1895.00,0.0064
1894.00,0.0065
1893.00,0.0065
1892.00,0.0065
1891.00,0.0064
1890.00,0.0062
1889.00,0.0060
1888.00,0.0059
1887.00,0.0058
1886.00,0.0058
1885.00,0.0058
1884.00,0.0059
1883.00,0.0059
1882.00,0.0059
1881.00,0.0059
1880.00,0.0058
1879.00,0.0058
1878.00,0.0057
1877.00,0.0057
1876.00,0.0057
1875.00,0.0057
1874.00,0.0057
1873.00,0.0057
1872.00,0.0057
1871.00,0.0057
1870.00,0.0056
1869.00,0.0056
1868.00,0.0056
1867.00,0.0057
1866.00,0.0057
1865.00,0.0057
1864.00,0.0058
1863.00,0.0058
1862.00,0.0058
1861.00,0.0058
1860.00,0.0059
1859.00,0.0059
1858.00,0.0059
1857.00,0.0059
1856.00,0.0059
1855.00,0.0059
1854.00,0.0059
1853.00,0.0060
1852.00,0.0061
1851.00,0.0061
1850.00,0.0062
1849.00,0.0063
1848.00,0.0064
1847.00,0.0065
1846.00,0.0065
1845.00,0.0063
1844.00,0.0062
1843.00,0.0061
1842.00,0.0060
1841.00,0.0060
1840.00,0.0060
1839.00,0.0060
1838.00,0.0059
1837.00,0.0059
1836.00,0.0059
1835.00,0.0059
1834.00,0.0059
1833.00,0.0059
1832.00,0.0059
1831.00,0.0058
1830.00,0.0058
1829.00,0.0057
1828.00,0.0057
1827.00,0.0056
1826.00,0.0056
1825.00,0.0057
1824.00,0.0057
1823.00,0.0057
1822.00,0.0057
1821.00,0.0057
1820.00,0.0057
1819.00,0.0057
1818.00,0.0056
1817.00,0.0056
1816.00,0.0057
1815.00,0.0057
1814.00,0.0058
1813.00,0.0058
1812.00,0.0058
1811.00,0.0058
1810.00,0.0058
1809.00,0.0058
1808.00,0.0059
1807.00,0.0059
1806.00,0.0059
1805.00,0.0059
1804.00,0.0059
1803.00,0.0059
1802.00,0.0059
1801.00,0.0060
1800.00,0.0060
1799.00,0.0060
1798.00,0.0060
1797.00,0.0061
1796.00,0.0062
1795.00,0.0062
1794.00,0.0062
1793.00,0.0061
1792.00,0.0060
1791.00,0.0060
1790.00,0.0060
1789.00,0.0060
1788.00,0.0061
1787.00,0.0061
1786.00,0.0061
1785.00,0.0061
1784.00,0.0061
1783.00,0.0061
1782.00,0.0061
1781.00,0.0061
1780.00,0.0062
1779.00,0.0063
1778.00,0.0063
1777.00,0.0064
1776.00,0.0065
1775.00,0.0066
1774.00,0.0066
1773.00,0.0065
1772.00,0.0064
1771.00,0.0063
1770.00,0.0062
1769.00,0.0062
1768.00,0.0063
1767.00,0.0063
1766.00,0.0063
1765.00,0.0063
1764.00,0.0063
1763.00,0.0064
1762.00,0.0064
1761.00,0.0065
1760.00,0.0066
1759.00,0.0066
1758.00,0.0066
1757.00,0.0066
1756.00,0.0065
1755.00,0.0064
1754.00,0.0064
1753.00,0.0064
1752.00,0.0064
1751.00,0.0063
1750.00,0.0062
1749.00,0.0062
1748.00,0.0062
1747.00,0.0062
1746.00,0.0063
1745.00,0.0063
1744.00,0.0064
1743.00,0.0064
1742.00,0.0064
1741.00,0.0063
1740.00,0.0063
1739.00,0.0063
1738.00,0.0063
1737.00,0.0063
1736.00,0.0063
1735.00,0.0062
1734.00,0.0062
1733.00,0.0062
1732.00,0.0063
1731.00,0.0065
1730.00,0.0068
1729.00,0.0070
1728.00,0.0071
1727.00,0.0072
1726.00,0.0073
1725.00,0.0074
1724.00,0.0075
1723.00,0.0076
1722.00,0.0076
1721.00,0.0076
1720.00,0.0075
1719.00,0.0075
1718.00,0.0075
1717.00,0.0075
1716.00,0.0076
1715.00,0.0077
1714.00,0.0079
1713.00,0.0081
1712.00,0.0083
1711.00,0.0085
1710.00,0.0087
1709.00,0.0088
1708.00,0.0089
1707.00,0.0090
1706.00,0.0090
1705.00,0.0091
1704.00,0.0092
1703.00,0.0093
1702.00,0.0093
1701.00,0.0095
1700.00,0.0097
1699.00,0.0099
1698.00,0.0102
1697.00,0.0108
1696.00,0.0116
1695.00,0.0122
1694.00,0.0126
1693.00,0.0129
1692.00,0.0134
1691.00,0.0140
1690.00,0.0145
1689.00,0.0149
1688.00,0.0153
1687.00,0.0155
1686.00,0.0157
1685.00,0.0160
1684.00,0.0166
1683.00,0.0170
1682.00,0.0173
1681.00,0.0177
1680.00,0.0182
1679.00,0.0186
1678.00,0.0188
1677.00,0.0190
1676.00,0.0192
1675.00,0.0195
1674.00,0.0198
1673.00,0.0200
1672.00,0.0202
1671.00,0.0206
1670.00,0.0209
1669.00,0.0213
1668.00,0.0217
1667.00,0.0219
1666.00,0.0221
1665.00,0.0223
1664.00,0.0225
1663.00,0.0228
1662.00,0.0230
1661.00,0.0232
1660.00,0.0234
1659.00,0.0235
1658.00,0.0235
1657.00,0.0234
1656.00,0.0232
1655.00,0.0229
1654.00,0.0228
1653.00,0.0229
1652.00,0.0230
1651.00,0.0228
1650.00,0.0226
1649.00,0.0225
1648.00,0.0225
1647.00,0.0226
1646.00,0.0226
1645.00,0.0225
1644.00,0.0225
1643.00,0.0225
1642.00,0.0226
1641.00,0.0226
1640.00,0.0225
1639.00,0.0223
1638.00,0.0221
1637.00,0.0220
1636.00,0.0223
1635.00,0.0229
1634.00,0.0238
1633.00,0.0252
1632.00,0.0272
1631.00,0.0299
1630.00,0.0333
1629.00,0.0377
1628.00,0.0430
1627.00,0.0485
1626.00,0.0534
1625.00,0.0578
1624.00,0.0619
1623.00,0.0653
1622.00,0.0675
1621.00,0.0684
1620.00,0.0682
1619.00,0.0669
1618.00,0.0642
1617.00,0.0602
1616.00,0.0563
1615.00,0.0538
1614.00,0.0528
1613.00,0.0530
1612.00,0.0538
1611.00,0.0545
1610.00,0.0545
1609.00,0.0535
1608.00,0.0516
1607.00,0.0490
1606.00,0.0459
1605.00,0.0427
1604.00,0.0397
1603.00,0.0367
1602.00,0.0341
1601.00,0.0318
1600.00,0.0299
1599.00,0.0283
1598.00,0.0272
1597.00,0.0265
1596.00,0.0263
1595.00,0.0266
1594.00,0.0275
1593.00,0.0290
1592.00,0.0312
1591.00,0.0341
1590.00,0.0376
1589.00,0.0415
1588.00,0.0454
1587.00,0.0491
1586.00,0.0522
1585.00,0.0544
1584.00,0.0558
1583.00,0.0564
1582.00,0.0561
1581.00,0.0551
1580.00,0.0539
1579.00,0.0523
1578.00,0.0503
1577.00,0.0478
1576.00,0.0448
1575.00,0.0420
1574.00,0.0400
1573.00,0.0386
1572.00,0.0375
1571.00,0.0365
1570.00,0.0355
1569.00,0.0344
1568.00,0.0334
1567.00,0.0323
1566.00,0.0310
1565.00,0.0293
1564.00,0.0275
1563.00,0.0258
1562.00,0.0243
1561.00,0.0228
1560.00,0.0209
1559.00,0.0189
1558.00,0.0173
1557.00,0.0164
1556.00,0.0161
1555.00,0.0160
1554.00,0.0159
1553.00,0.0157
1552.00,0.0154
1551.00,0.0152
1550.00,0.0151
1549.00,0.0149
1548.00,0.0147
1547.00,0.0145
1546.00,0.0143
1545.00,0.0140
1544.00,0.0138
1543.00,0.0135
1542.00,0.0131
1541.00,0.0127
1540.00,0.0124
1539.00,0.0122
1538.00,0.0122
1537.00,0.0122
1536.00,0.0123
1535.00,0.0123
1534.00,0.0122
1533.00,0.0121
1532.00,0.0120
1531.00,0.0119
1530.00,0.0120
1529.00,0.0120
1528.00,0.0121
1527.00,0.0122
1526.00,0.0123
1525.00,0.0124
1524.00,0.0124
1523.00,0.0126
1522.00,0.0128
1521.00,0.0132
1520.00,0.0135
1519.00,0.0139
1518.00,0.0144
1517.00,0.0151
1516.00,0.0159
1515.00,0.0166
1514.00,0.0173
1513.00,0.0179
1512.00,0.0184
1511.00,0.0188
1510.00,0.0191
1509.00,0.0192
1508.00,0.0193
1507.00,0.0193
1506.00,0.0193
1505.00,0.0194
1504.00,0.0198
1503.00,0.0207
1502.00,0.0219
1501.00,0.0236
1500.00,0.0260
1499.00,0.0292
1498.00,0.0331
1497.00,0.0367
1496.00,0.0389
1495.00,0.0392
1494.00,0.0379
1493.00,0.0357
1492.00,0.0330
1491.00,0.0300
1490.00,0.0270
1489.00,0.0246
1488.00,0.0226
1487.00,0.0210
1486.00,0.0198
1485.00,0.0189
1484.00,0.0182
1483.00,0.0176
1482.00,0.0171
1481.00,0.0168
1480.00,0.0165
1479.00,0.0164
1478.00,0.0164
1477.00,0.0165
1476.00,0.0168
1475.00,0.0171
1474.00,0.0178
1473.00,0.0191
1472.00,0.0211
1471.00,0.0238
1470.00,0.0269
1469.00,0.0305
1468.00,0.0341
1467.00,0.0373
1466.00,0.0395
1465.00,0.0405
1464.00,0.0404
1463.00,0.0399
1462.00,0.0396
1461.00,0.0396
1460.00,0.0397
1459.00,0.0397
1458.00,0.0394
1457.00,0.0386
1456.00,0.0375
1455.00,0.0364
1454.00,0.0358
1453.00,0.0354
1452.00,0.0354
1451.00,0.0356
1450.00,0.0360
1449.00,0.0365
1448.00,0.0372
1447.00,0.0381
1446.00,0.0392
1445.00,0.0406
1444.00,0.0422
1443.00,0.0439
1442.00,0.0456
1441.00,0.0471
1440.00,0.0483
1439.00,0.0493
1438.00,0.0503
1437.00,0.0514
1436.00,0.0527
1435.00,0.0542
1434.00,0.0559
1433.00,0.0576
1432.00,0.0592
1431.00,0.0606
1430.00,0.0615
1429.00,0.0619
1428.00,0.0619
1427.00,0.0614
1426.00,0.0606
1425.00,0.0596
1424.00,0.0585
1423.00,0.0572
1422.00,0.0560
1421.00,0.0547
1420.00,0.0532
1419.00,0.0513
1418.00,0.0495
1417.00,0.0478
1416.00,0.0464
1415.00,0.0452
1414.00,0.0442
1413.00,0.0436
1412.00,0.0435
1411.00,0.0438
1410.00,0.0448
1409.00,0.0463
1408.00,0.0483
1407.00,0.0508
1406.00,0.0539
1405.00,0.0574
1404.00,0.0609
1403.00,0.0640
1402.00,0.0665
1401.00,0.0682
1400.00,0.0690
1399.00,0.0687
1398.00,0.0673
1397.00,0.0650
1396.00,0.0620
1395.00,0.0584
1394.00,0.0545
1393.00,0.0511
1392.00,0.0483
1391.00,0.0463
1390.00,0.0453
1389.00,0.0455
1388.00,0.0466
1387.00,0.0479
1386.00,0.0482
1385.00,0.0473
1384.00,0.0457
1383.00,0.0442
1382.00,0.0435
1381.00,0.0435
1380.00,0.0438
1379.00,0.0440
1378.00,0.0438
1377.00,0.0431
1376.00,0.0418
1375.00,0.0397
1374.00,0.0373
1373.00,0.0351
1372.00,0.0337
1371.00,0.0333
1370.00,0.0341
1369.00,0.0360
1368.00,0.0388
1367.00,0.0421
1366.00,0.0450
1365.00,0.0470
1364.00,0.0483
1363.00,0.0497
1362.00,0.0520
1361.00,0.0549
1360.00,0.0571
1359.00,0.0573
1358.00,0.0555
1357.00,0.0524
1356.00,0.0493
1355.00,0.0468
1354.00,0.0450
1353.00,0.0439
1352.00,0.0432
1351.00,0.0430
1350.00,0.0431
1349.00,0.0434
1348.00,0.0438
1347.00,0.0439
1346.00,0.0437
1345.00,0.0430
1344.00,0.0420
1343.00,0.0408
1342.00,0.0393
1341.00,0.0377
1340.00,0.0360
1339.00,0.0344
1338.00,0.0331
1337.00,0.0323
1336.00,0.0319
1335.00,0.0321
1334.00,0.0326
1333.00,0.0334
1332.00,0.0341
1331.00,0.0348
1330.00,0.0352
1329.00,0.0354
1328.00,0.0353
1327.00,0.0349
1326.00,0.0344
1325.00,0.0337
1324.00,0.0331
1323.00,0.0327
1322.00,0.0323
1321.00,0.0320
1320.00,0.0318
1319.00,0.0314
1318.00,0.0308
1317.00,0.0302
1316.00,0.0294
1315.00,0.0287
1314.00,0.0281
1313.00,0.0278
1312.00,0.0278
1311.00,0.0282
1310.00,0.0290
1309.00,0.0303
1308.00,0.0319
1307.00,0.0340
1306.00,0.0367
1305.00,0.0399
1304.00,0.0435
1303.00,0.0474
1302.00,0.0507
1301.00,0.0529
1300.00,0.0537
1299.00,0.0532
1298.00,0.0520
1297.00,0.0509
1296.00,0.0501
1295.00,0.0499
1294.00,0.0497
1293.00,0.0494
1292.00,0.0490
1291.00,0.0485
1290.00,0.0483
1289.00,0.0487
1288.00,0.0498
1287.00,0.0516
1286.00,0.0537
1285.00,0.0557
1284.00,0.0573
1283.00,0.0580
1282.00,0.0576
1281.00,0.0561
1280.00,0.0536
1279.00,0.0506
1278.00,0.0475
1277.00,0.0446
1276.00,0.0421
1275.00,0.0402
1274.00,0.0386
1273.00,0.0372
1272.00,0.0361
1271.00,0.0350
1270.00,0.0340
1269.00,0.0331
1268.00,0.0324
1267.00,0.0317
1266.00,0.0311
1265.00,0.0304
1264.00,0.0297
1263.00,0.0289
1262.00,0.0281
1261.00,0.0273
1260.00,0.0265
1259.00,0.0258
1258.00,0.0252
1257.00,0.0248
1256.00,0.0244
1255.00,0.0243
1254.00,0.0243
1253.00,0.0245
1252.00,0.0249
1251.00,0.0256
1250.00,0.0267
1249.00,0.0282
1248.00,0.0300
1247.00,0.0321
1246.00,0.0344
1245.00,0.0365
1244.00,0.0384
1243.00,0.0400
1242.00,0.0412
1241.00,0.0424
1240.00,0.0437
1239.00,0.0453
1238.00,0.0475
1237.00,0.0501
1236.00,0.0527
1235.00,0.0550
1234.00,0.0566
1233.00,0.0570
1232.00,0.0563
1231.00,0.0546
1230.00,0.0523
1229.00,0.0496
1228.00,0.0470
1227.00,0.0446
1226.00,0.0425
1225.00,0.0407
1224.00,0.0392
1223.00,0.0382
1222.00,0.0375
1221.00,0.0373
1220.00,0.0375
1219.00,0.0382
1218.00,0.0392
1217.00,0.0404
1216.00,0.0417
1215.00,0.0427
1214.00,0.0431
1213.00,0.0428
1212.00,0.0415
1211.00,0.0396
1210.00,0.0374
1209.00,0.0353
1208.00,0.0334
1207.00,0.0321
1206.00,0.0314
1205.00,0.0314
1204.00,0.0322
1203.00,0.0337
1202.00,0.0360
1201.00,0.0387
1200.00,0.0420
1199.00,0.0455
1198.00,0.0494
1197.00,0.0534
1196.00,0.0569
1195.00,0.0596
1194.00,0.0608
1193.00,0.0605
1192.00,0.0589
1191.00,0.0563
1190.00,0.0530
1189.00,0.0492
1188.00,0.0453
1187.00,0.0415
1186.00,0.0380
1185.00,0.0350
1184.00,0.0324
1183.00,0.0303
1182.00,0.0286
1181.00,0.0272
1180.00,0.0261
1179.00,0.0252
1178.00,0.0245
1177.00,0.0239
1176.00,0.0234
1175.00,0.0230
1174.00,0.0227
1173.00,0.0225
1172.00,0.0223
1171.00,0.0222
1170.00,0.0221
1169.00,0.0221
1168.00,0.0221
1167.00,0.0222
1166.00,0.0225
1165.00,0.0231
1164.00,0.0239
1163.00,0.0251
1162.00,0.0268
1161.00,0.0293
1160.00,0.0328
1159.00,0.0374
1158.00,0.0431
1157.00,0.0493
1156.00,0.0550
1155.00,0.0590
1154.00,0.0601
1153.00,0.0581
1152.00,0.0533
1151.00,0.0471
1150.00,0.0407
1149.00,0.0352
1148.00,0.0309
1147.00,0.0279
1146.00,0.0259
1145.00,0.0246
1144.00,0.0237
1143.00,0.0232
1142.00,0.0229
1141.00,0.0229
1140.00,0.0232
1139.00,0.0238
1138.00,0.0249
1137.00,0.0265
1136.00,0.0288
1135.00,0.0322
1134.00,0.0368
1133.00,0.0428
1132.00,0.0500
1131.00,0.0575
1130.00,0.0642
1129.00,0.0691
1128.00,0.0715
1127.00,0.0716
1126.00,0.0698
1125.00,0.0665
1124.00,0.0620
1123.00,0.0569
1122.00,0.0516
1121.00,0.0466
1120.00,0.0423
1119.00,0.0390
1118.00,0.0366
1117.00,0.0352
1116.00,0.0344
1115.00,0.0339
1114.00,0.0335
1113.00,0.0329
1112.00,0.0320
1111.00,0.0309
1110.00,0.0298
1109.00,0.0289
1108.00,0.0284
1107.00,0.0283
1106.00,0.0290
1105.00,0.0305
1104.00,0.0332
1103.00,0.0368
1102.00,0.0412
1101.00,0.0455
1100.00,0.0486
1099.00,0.0497
1098.00,0.0486
1097.00,0.0456
1096.00,0.0415
1095.00,0.0371
1094.00,0.0330
1093.00,0.0295
1092.00,0.0268
1091.00,0.0248
1090.00,0.0233
1089.00,0.0222
1088.00,0.0214
1087.00,0.0207
1086.00,0.0202
1085.00,0.0198
1084.00,0.0195
1083.00,0.0193
1082.00,0.0192
1081.00,0.0192
1080.00,0.0192
1079.00,0.0192
1078.00,0.0193
1077.00,0.0195
1076.00,0.0197
1075.00,0.0200
1074.00,0.0203
1073.00,0.0208
1072.00,0.0213
1071.00,0.0220
1070.00,0.0227
1069.00,0.0236
1068.00,0.0245
1067.00,0.0256
1066.00,0.0268
1065.00,0.0283
1064.00,0.0302
1063.00,0.0327
1062.00,0.0360
1061.00,0.0402
1060.00,0.0455
1059.00,0.0520
1058.00,0.0595
1057.00,0.0677
1056.00,0.0757
1055.00,0.0826
1054.00,0.0878
1053.00,0.0914
1052.00,0.0937
1051.00,0.0951
1050.00,0.0958
1049.00,0.0954
1048.00,0.0938
1047.00,0.0909
1046.00,0.0866
1045.00,0.0813
1044.00,0.0754
1043.00,0.0692
1042.00,0.0634
1041.00,0.0583
1040.00,0.0541
1039.00,0.0512
1038.00,0.0495
1037.00,0.0488
1036.00,0.0489
1035.00,0.0495
1034.00,0.0505
1033.00,0.0521
1032.00,0.0549
1031.00,0.0594
1030.00,0.0657
1029.00,0.0730
1028.00,0.0800
1027.00,0.0851
1026.00,0.0869
1025.00,0.0850
1024.00,0.0801
1023.00,0.0734
1022.00,0.0662
1021.00,0.0595
1020.00,0.0535
1019.00,0.0485
1018.00,0.0443
1017.00,0.0409
1016.00,0.0381
1015.00,0.0357
1014.00,0.0339
1013.00,0.0325
1012.00,0.0316
1011.00,0.0313
1010.00,0.0318
1009.00,0.0331
1008.00,0.0351
1007.00,0.0377
1006.00,0.0406
1005.00,0.0432
1004.00,0.0452
1003.00,0.0462
1002.00,0.0460
1001.00,0.0451
1000.00,0.0437
999.00,0.0423
998.00,0.0409
997.00,0.0397
996.00,0.0387
995.00,0.0379
994.00,0.0370
993.00,0.0360
992.00,0.0347
991.00,0.0330
990.00,0.0313
989.00,0.0295
988.00,0.0279
987.00,0.0266
986.00,0.0255
985.00,0.0245
984.00,0.0238
983.00,0.0232
982.00,0.0227
981.00,0.0224
980.00,0.0222
979.00,0.0221
978.00,0.0221
977.00,0.0222
976.00,0.0222
975.00,0.0222
974.00,0.0222
973.00,0.0220
972.00,0.0219
971.00,0.0217
970.00,0.0216
969.00,0.0215
968.00,0.0215
967.00,0.0216
966.00,0.0218
965.00,0.0222
964.00,0.0226
963.00,0.0232
962.00,0.0234
961.00,0.0232
960.00,0.0225
959.00,0.0214
958.00,0.0202
957.00,0.0191
956.00,0.0183
955.00,0.0176
954.00,0.0171
953.00,0.0166
952.00,0.0164
951.00,0.0164
950.00,0.0168
949.00,0.0174
948.00,0.0178
947.00,0.0179
946.00,0.0177
945.00,0.0175
944.00,0.0176
943.00,0.0180
942.00,0.0187
941.00,0.0195
940.00,0.0204
939.00,0.0211
938.00,0.0217
937.00,0.0221
936.00,0.0226
935.00,0.0232
934.00,0.0238
933.00,0.0243
932.00,0.0246
931.00,0.0244
930.00,0.0239
929.00,0.0232
928.00,0.0228
927.00,0.0227
926.00,0.0231
925.00,0.0239
924.00,0.0252
923.00,0.0266
922.00,0.0276
921.00,0.0277
920.00,0.0269
919.00,0.0254
918.00,0.0234
917.00,0.0215
916.00,0.0198
915.00,0.0185
914.00,0.0175
913.00,0.0168
912.00,0.0162
911.00,0.0159
910.00,0.0157
909.00,0.0156
908.00,0.0158
907.00,0.0161
906.00,0.0166
905.00,0.0176
904.00,0.0190
903.00,0.0209
902.00,0.0233
901.00,0.0258
900.00,0.0280
899.00,0.0291
898.00,0.0289
897.00,0.0276
896.00,0.0258
895.00,0.0242
894.00,0.0234
893.00,0.0239
892.00,0.0257
891.00,0.0279
890.00,0.0294
889.00,0.0290
888.00,0.0267
887.00,0.0237
886.00,0.0211
885.00,0.0193
884.00,0.0185
883.00,0.0183
882.00,0.0186
881.00,0.0192
880.00,0.0203
879.00,0.0220
878.00,0.0244
877.00,0.0278
876.00,0.0322
875.00,0.0374
874.00,0.0433
873.00,0.0496
872.00,0.0557
871.00,0.0608
870.00,0.0639
869.00,0.0646
868.00,0.0628
867.00,0.0595
866.00,0.0555
865.00,0.0515
864.00,0.0475
863.00,0.0436
862.00,0.0399
861.00,0.0365
860.00,0.0339
859.00,0.0323
858.00,0.0320
857.00,0.0331
856.00,0.0354
855.00,0.0384
854.00,0.0414
853.00,0.0443
852.00,0.0474
851.00,0.0507
850.00,0.0539
849.00,0.0559
848.00,0.0559
847.00,0.0539
846.00,0.0505
845.00,0.0469
844.00,0.0435
843.00,0.0408
842.00,0.0390
841.00,0.0380
840.00,0.0381
839.00,0.0394
838.00,0.0422
837.00,0.0461
836.00,0.0503
835.00,0.0542
834.00,0.0569
833.00,0.0580
832.00,0.0575
831.00,0.0553
830.00,0.0516
829.00,0.0469
828.00,0.0418
827.00,0.0372
826.00,0.0340
825.00,0.0329
824.00,0.0349
823.00,0.0406
822.00,0.0496
821.00,0.0593
820.00,0.0666
819.00,0.0706
818.00,0.0734
817.00,0.0771
816.00,0.0807
815.00,0.0806
814.00,0.0743
813.00,0.0637
812.00,0.0524
811.00,0.0432
810.00,0.0366
809.00,0.0319
808.00,0.0286
807.00,0.0262
806.00,0.0244
805.00,0.0229
804.00,0.0218
803.00,0.0210
802.00,0.0203
801.00,0.0198
800.00,0.0193
799.00,0.0190
798.00,0.0186
797.00,0.0183
796.00,0.0181
795.00,0.0179
794.00,0.0177
793.00,0.0175
792.00,0.0173
791.00,0.0172
790.00,0.0170
789.00,0.0169
788.00,0.0167
787.00,0.0167
786.00,0.0166
785.00,0.0166
784.00,0.0167
783.00,0.0167
782.00,0.0168
781.00,0.0169
780.00,0.0172
779.00,0.0178
778.00,0.0189
777.00,0.0206
776.00,0.0229
775.00,0.0249
774.00,0.0258
773.00,0.0253
772.00,0.0237
771.00,0.0219
770.00,0.0205
769.00,0.0197
768.00,0.0192
767.00,0.0189
766.00,0.0188
765.00,0.0190
764.00,0.0194
763.00,0.0201
762.00,0.0211
761.00,0.0221
760.00,0.0229
759.00,0.0232
758.00,0.0231
757.00,0.0226
756.00,0.0219
755.00,0.0212
754.00,0.0207
753.00,0.0204
752.00,0.0202
751.00,0.0202
750.00,0.0203
749.00,0.0204
748.00,0.0207
747.00,0.0209
746.00,0.0212
745.00,0.0215
744.00,0.0220
743.00,0.0228
742.00,0.0238
741.00,0.0252
740.00,0.0272
739.00,0.0302
738.00,0.0342
737.00,0.0391
736.00,0.0439
735.00,0.0472
734.00,0.0483
733.00,0.0473
732.00,0.0457
731.00,0.0448
730.00,0.0451
729.00,0.0459
728.00,0.0460
727.00,0.0445
726.00,0.0416
725.00,0.0379
724.00,0.0344
723.00,0.0317
722.00,0.0299
721.00,0.0290
720.00,0.0289
719.00,0.0298
718.00,0.0314
717.00,0.0335
716.00,0.0355
715.00,0.0369
714.00,0.0373
713.00,0.0367
712.00,0.0355
711.00,0.0341
710.00,0.0326
709.00,0.0315
708.00,0.0307
707.00,0.0303
706.00,0.0304
705.00,0.0307
704.00,0.0313
703.00,0.0322
702.00,0.0332
701.00,0.0344
700.00,0.0356
699.00,0.0365
698.00,0.0371
697.00,0.0370
696.00,0.0364
695.00,0.0355
694.00,0.0345
693.00,0.0340
692.00,0.0344
691.00,0.0357
690.00,0.0377
689.00,0.0397
688.00,0.0410
687.00,0.0410
686.00,0.0398
685.00,0.0382
684.00,0.0367
683.00,0.0358
682.00,0.0354
681.00,0.0354
680.00,0.0357
679.00,0.0363
678.00,0.0373
677.00,0.0386
676.00,0.0403
675.00,0.0422
674.00,0.0442
673.00,0.0460
672.00,0.0475
671.00,0.0485
670.00,0.0488
669.00,0.0482
668.00,0.0471
667.00,0.0460
666.00,0.0454
665.00,0.0454
664.00,0.0460
663.00,0.0469
662.00,0.0477
661.00,0.0480
660.00,0.0475
659.00,0.0463
658.00,0.0446
657.00,0.0428
656.00,0.0412
655.00,0.0400
654.00,0.0391
653.00,0.0385
652.00,0.0380
651.00,0.0375
650.00,0.0371
649.00,0.0368
648.00,0.0366
647.00,0.0364
646.00,0.0362
645.00,0.0360
644.00,0.0357
643.00,0.0354
642.00,0.0351
641.00,0.0348
640.00,0.0346
639.00,0.0344
638.00,0.0342
637.00,0.0341
636.00,0.0340
635.00,0.0340
634.00,0.0340
633.00,0.0340
632.00,0.0340
631.00,0.0340
630.00,0.0341
629.00,0.0343
628.00,0.0347
627.00,0.0353
626.00,0.0362
625.00,0.0373
624.00,0.0387
623.00,0.0402
622.00,0.0418
621.00,0.0433
620.00,0.0442
619.00,0.0444
618.00,0.0437
617.00,0.0422
616.00,0.0402
615.00,0.0381
614.00,0.0362
613.00,0.0348
612.00,0.0339
611.00,0.0339
610.00,0.0347
609.00,0.0366
608.00,0.0394
607.00,0.0429
606.00,0.0468
605.00,0.0505
604.00,0.0538
603.00,0.0562
602.00,0.0576
601.00,0.0584
600.00,0.0586
599.00,0.0585
598.00,0.0583
597.00,0.0580
596.00,0.0577
595.00,0.0572
594.00,0.0567
593.00,0.0561
592.00,0.0554
591.00,0.0547
590.00,0.0540
589.00,0.0532
588.00,0.0523
587.00,0.0516
586.00,0.0510
585.00,0.0506
584.00,0.0506
583.00,0.0509
582.00,0.0513
581.00,0.0521
580.00,0.0536
579.00,0.0560
578.00,0.0590
577.00,0.0617
576.00,0.0630
575.00,0.0624
574.00,0.0600
573.00,0.0568
572.00,0.0536
571.00,0.0509
570.00,0.0487
569.00,0.0470
568.00,0.0459
567.00,0.0456
566.00,0.0461
565.00,0.0474
564.00,0.0493
563.00,0.0516
562.00,0.0542
561.00,0.0568
560.00,0.0587
559.00,0.0594
558.00,0.0586
557.00,0.0570
556.00,0.0550
555.00,0.0530
554.00,0.0515
553.00,0.0507
552.00,0.0508
551.00,0.0519
550.00,0.0540
549.00,0.0568
548.00,0.0596
547.00,0.0620
546.00,0.0633
545.00,0.0634
544.00,0.0623
543.00,0.0605
542.00,0.0583
541.00,0.0561
540.00,0.0540
539.00,0.0525
538.00,0.0514
537.00,0.0510
536.00,0.0514
535.00,0.0526
534.00,0.0545
533.00,0.0569
532.00,0.0592
531.00,0.0604
530.00,0.0601
529.00,0.0584
528.00,0.0558
527.00,0.0529
526.00,0.0499
525.00,0.0473
524.00,0.0451
523.00,0.0434
522.00,0.0419
521.00,0.0408
520.00,0.0401
519.00,0.0395
518.00,0.0390
517.00,0.0384
516.00,0.0378
515.00,0.0372
514.00,0.0367
513.00,0.0365
512.00,0.0366
511.00,0.0368
510.00,0.0373
509.00,0.0378
508.00,0.0385
507.00,0.0391
506.00,0.0395
505.00,0.0395
504.00,0.0391
503.00,0.0383
502.00,0.0372
501.00,0.0361
500.00,0.0353
499.00,0.0348
498.00,0.0346
497.00,0.0346
496.00,0.0350
495.00,0.0358
494.00,0.0368
493.00,0.0377
492.00,0.0383
491.00,0.0385
490.00,0.0382
489.00,0.0375
488.00,0.0365
487.00,0.0353
486.00,0.0343
485.00,0.0337
484.00,0.0334
483.00,0.0332
482.00,0.0328
481.00,0.0322
480.00,0.0316
479.00,0.0312
478.00,0.0308
477.00,0.0306
476.00,0.0305
475.00,0.0302
474.00,0.0299
473.00,0.0296
472.00,0.0296
471.00,0.0297
470.00,0.0298
469.00,0.0299
468.00,0.0299
467.00,0.0298
466.00,0.0297
465.00,0.0296
464.00,0.0294
463.00,0.0292
462.00,0.0290
461.00,0.0290
460.00,0.0290
459.00,0.0291
458.00,0.0290
457.00,0.0288
456.00,0.0287
455.00,0.0288
454.00,0.0288
453.00,0.0287
452.00,0.0284
451.00,0.0282
450.00,0.0280
449.00,0.0279
448.00,0.0279
447.00,0.0279
446.00,0.0280
445.00,0.0281
444.00,0.0282
443.00,0.0280
442.00,0.0278
441.00,0.0276
440.00,0.0276
439.00,0.0278
438.00,0.0279
437.00,0.0278
436.00,0.0276
435.00,0.0273
434.00,0.0270
433.00,0.0268
432.00,0.0267
431.00,0.0267
430.00,0.0265
429.00,0.0261
428.00,0.0254
427.00,0.0249
426.00,0.0246
425.00,0.0244
424.00,0.0242
423.00,0.0242
422.00,0.0244
421.00,0.0245
420.00,0.0242
419.00,0.0237
418.00,0.0236
417.00,0.0242
416.00,0.0252
415.00,0.0264
414.00,0.0276
413.00,0.0286
412.00,0.0297
411.00,0.0312
410.00,0.0326
409.00,0.0333
408.00,0.0329
407.00,0.0318
406.00,0.0305
405.00,0.0291
404.00,0.0276
403.00,0.0265
402.00,0.0261
401.00,0.0262
400.00,0.0262
