Created as New Dataset,Sample 676 By YargerLab Date Thursday, June 12 2025
cm-1,A
4000.00,0.0058
3999.00,0.0058
3998.00,0.0059
3997.00,0.0059
3996.00,0.0059
3995.00,0.0058
3994.00,0.0058
3993.00,0.0058
3992.00,0.0058
3991.00,0.0059
3990.00,0.0059
3989.00,0.0059
3988.00,0.0059
3987.00,0.0058
3986.00,0.0058
3985.00,0.0058
3984.00,0.0058
3983.00,0.0058
3982.00,0.0058
3981.00,0.0058
3980.00,0.0058
3979.00,0.0058
3978.00,0.0058
3977.00,0.0058
3976.00,0.0059
3975.00,0.0059
3974.00,0.0059
3973.00,0.0059
3972.00,0.0059
3971.00,0.0058
3970.00,0.0058
3969.00,0.0058
3968.00,0.0058
3967.00,0.0058
3966.00,0.0058
3965.00,0.0058
3964.00,0.0058
3963.00,0.0058
3962.00,0.0058
3961.00,0.0058
3960.00,0.0058
3959.00,0.0058
3958.00,0.0058
3957.00,0.0058
3956.00,0.0058
3955.00,0.0058
3954.00,0.0058
3953.00,0.0058
3952.00,0.0058
3951.00,0.0058
3950.00,0.0058
3949.00,0.0058
3948.00,0.0058
3947.00,0.0058
3946.00,0.0058
3945.00,0.0058
3944.00,0.0058
3943.00,0.0058
3942.00,0.0058
3941.00,0.0058
3940.00,0.0058
3939.00,0.0058
3938.00,0.0058
3937.00,0.0058
3936.00,0.0058
3935.00,0.0058
3934.00,0.0058
3933.00,0.0058
3932.00,0.0058
3931.00,0.0058
3930.00,0.0058
3929.00,0.0058
3928.00,0.0058
3927.00,0.0058
3926.00,0.0058
3925.00,0.0058
3924.00,0.0058
3923.00,0.0058
3922.00,0.0058
3921.00,0.0058
3920.00,0.0058
3919.00,0.0058
3918.00,0.0058
3917.00,0.0058
3916.00,0.0058
3915.00,0.0058
3914.00,0.0058
3913.00,0.0058
3912.00,0.0058
3911.00,0.0057
3910.00,0.0058
3909.00,0.0058
3908.00,0.0058
3907.00,0.0058
3906.00,0.0058
3905.00,0.0057
3904.00,0.0057
3903.00,0.0057
3902.00,0.0057
3901.00,0.0057
3900.00,0.0057
3899.00,0.0057
3898.00,0.0057
3897.00,0.0057
3896.00,0.0057
3895.00,0.0057
3894.00,0.0057
3893.00,0.0057
3892.00,0.0057
3891.00,0.0057
3890.00,0.0057
3889.00,0.0057
3888.00,0.0057
3887.00,0.0057
3886.00,0.0057
3885.00,0.0057
3884.00,0.0057
3883.00,0.0057
3882.00,0.0057
3881.00,0.0057
3880.00,0.0057
3879.00,0.0057
3878.00,0.0057
3877.00,0.0057
3876.00,0.0057
3875.00,0.0057
3874.00,0.0057
3873.00,0.0057
3872.00,0.0057
3871.00,0.0057
3870.00,0.0057
3869.00,0.0057
3868.00,0.0057
3867.00,0.0057
3866.00,0.0057
3865.00,0.0057
3864.00,0.0057
3863.00,0.0057
3862.00,0.0057
3861.00,0.0057
3860.00,0.0057
3859.00,0.0057
3858.00,0.0057
3857.00,0.0057
3856.00,0.0057
3855.00,0.0057
3854.00,0.0057
3853.00,0.0057
3852.00,0.0057
3851.00,0.0057
3850.00,0.0057
3849.00,0.0057
3848.00,0.0057
3847.00,0.0057
3846.00,0.0057
3845.00,0.0057
3844.00,0.0057
3843.00,0.0057
3842.00,0.0057
3841.00,0.0057
3840.00,0.0057
3839.00,0.0057
3838.00,0.0057
3837.00,0.0057
3836.00,0.0057
3835.00,0.0057
3834.00,0.0057
3833.00,0.0057
3832.00,0.0057
3831.00,0.0057
3830.00,0.0057
3829.00,0.0057
3828.00,0.0058
3827.00,0.0058
3826.00,0.0058
3825.00,0.0058
3824.00,0.0057
3823.00,0.0057
3822.00,0.0057
3821.00,0.0057
3820.00,0.0057
3819.00,0.0057
3818.00,0.0057
3817.00,0.0057
3816.00,0.0057
3815.00,0.0057
3814.00,0.0057
3813.00,0.0057
3812.00,0.0057
3811.00,0.0057
3810.00,0.0057
3809.00,0.0057
3808.00,0.0057
3807.00,0.0057
3806.00,0.0057
3805.00,0.0057
3804.00,0.0057
3803.00,0.0058
3802.00,0.0058
3801.00,0.0058
3800.00,0.0058
3799.00,0.0057
3798.00,0.0057
3797.00,0.0057
3796.00,0.0057
3795.00,0.0056
3794.00,0.0056
3793.00,0.0056
3792.00,0.0056
3791.00,0.0056
3790.00,0.0056
3789.00,0.0056
3788.00,0.0057
3787.00,0.0057
3786.00,0.0057
3785.00,0.0057
3784.00,0.0057
3783.00,0.0057
3782.00,0.0057
3781.00,0.0057
3780.00,0.0057
3779.00,0.0057
3778.00,0.0057
3777.00,0.0057
3776.00,0.0057
3775.00,0.0057
3774.00,0.0057
3773.00,0.0057
3772.00,0.0057
3771.00,0.0057
3770.00,0.0057
3769.00,0.0057
3768.00,0.0057
3767.00,0.0057
3766.00,0.0057
3765.00,0.0057
3764.00,0.0057
3763.00,0.0057
3762.00,0.0057
3761.00,0.0057
3760.00,0.0057
3759.00,0.0057
3758.00,0.0057
3757.00,0.0057
3756.00,0.0057
3755.00,0.0057
3754.00,0.0057
3753.00,0.0057
3752.00,0.0057
3751.00,0.0057
3750.00,0.0057
3749.00,0.0057
3748.00,0.0057
3747.00,0.0056
3746.00,0.0056
3745.00,0.0056
3744.00,0.0056
3743.00,0.0056
3742.00,0.0056
3741.00,0.0056
3740.00,0.0056
3739.00,0.0056
3738.00,0.0056
3737.00,0.0056
3736.00,0.0056
3735.00,0.0056
3734.00,0.0056
3733.00,0.0056
3732.00,0.0056
3731.00,0.0056
3730.00,0.0056
3729.00,0.0056
3728.00,0.0056
3727.00,0.0055
3726.00,0.0055
3725.00,0.0055
3724.00,0.0055
3723.00,0.0055
3722.00,0.0055
3721.00,0.0055
3720.00,0.0055
3719.00,0.0055
3718.00,0.0055
3717.00,0.0055
3716.00,0.0055
3715.00,0.0055
3714.00,0.0055
3713.00,0.0055
3712.00,0.0055
3711.00,0.0055
3710.00,0.0055
3709.00,0.0055
3708.00,0.0055
3707.00,0.0055
3706.00,0.0055
3705.00,0.0055
3704.00,0.0055
3703.00,0.0055
3702.00,0.0055
3701.00,0.0055
3700.00,0.0054
3699.00,0.0054
3698.00,0.0054
3697.00,0.0054
3696.00,0.0054
3695.00,0.0054
3694.00,0.0054
3693.00,0.0054
3692.00,0.0054
3691.00,0.0054
3690.00,0.0054
3689.00,0.0054
3688.00,0.0054
3687.00,0.0054
3686.00,0.0053
3685.00,0.0053
3684.00,0.0053
3683.00,0.0053
3682.00,0.0053
3681.00,0.0053
3680.00,0.0053
3679.00,0.0053
3678.00,0.0053
3677.00,0.0053
3676.00,0.0053
3675.00,0.0053
3674.00,0.0052
3673.00,0.0052
3672.00,0.0052
3671.00,0.0052
3670.00,0.0052
3669.00,0.0052
3668.00,0.0052
3667.00,0.0052
3666.00,0.0052
3665.00,0.0052
3664.00,0.0052
3663.00,0.0052
3662.00,0.0052
3661.00,0.0052
3660.00,0.0052
3659.00,0.0052
3658.00,0.0052
3657.00,0.0051
3656.00,0.0051
3655.00,0.0052
3654.00,0.0052
3653.00,0.0052
3652.00,0.0052
3651.00,0.0052
3650.00,0.0051
3649.00,0.0051
3648.00,0.0052
3647.00,0.0052
3646.00,0.0052
3645.00,0.0052
3644.00,0.0052
3643.00,0.0052
3642.00,0.0052
3641.00,0.0052
3640.00,0.0052
3639.00,0.0052
3638.00,0.0053
3637.00,0.0053
3636.00,0.0053
3635.00,0.0053
3634.00,0.0053
3633.00,0.0053
3632.00,0.0053
3631.00,0.0053
3630.00,0.0053
3629.00,0.0053
3628.00,0.0053
3627.00,0.0053
3626.00,0.0053
3625.00,0.0053
3624.00,0.0053
3623.00,0.0053
3622.00,0.0053
3621.00,0.0054
3620.00,0.0054
3619.00,0.0054
3618.00,0.0054
3617.00,0.0054
3616.00,0.0054
3615.00,0.0054
3614.00,0.0054
3613.00,0.0054
3612.00,0.0054
3611.00,0.0053
3610.00,0.0053
3609.00,0.0053
3608.00,0.0053
3607.00,0.0053
3606.00,0.0053
3605.00,0.0053
3604.00,0.0054
3603.00,0.0054
3602.00,0.0054
3601.00,0.0054
3600.00,0.0054
3599.00,0.0053
3598.00,0.0053
3597.00,0.0053
3596.00,0.0053
3595.00,0.0053
3594.00,0.0053
3593.00,0.0053
3592.00,0.0053
3591.00,0.0053
3590.00,0.0053
3589.00,0.0053
3588.00,0.0052
3587.00,0.0052
3586.00,0.0052
3585.00,0.0052
3584.00,0.0052
3583.00,0.0052
3582.00,0.0053
3581.00,0.0053
3580.00,0.0053
3579.00,0.0053
3578.00,0.0053
3577.00,0.0053
3576.00,0.0053
3575.00,0.0053
3574.00,0.0053
3573.00,0.0053
3572.00,0.0052
3571.00,0.0052
3570.00,0.0052
3569.00,0.0052
3568.00,0.0052
3567.00,0.0052
3566.00,0.0052
3565.00,0.0052
3564.00,0.0053
3563.00,0.0053
3562.00,0.0053
3561.00,0.0053
3560.00,0.0053
3559.00,0.0053
3558.00,0.0053
3557.00,0.0053
3556.00,0.0053
3555.00,0.0053
3554.00,0.0053
3553.00,0.0053
3552.00,0.0054
3551.00,0.0054
3550.00,0.0054
3549.00,0.0053
3548.00,0.0053
3547.00,0.0053
3546.00,0.0053
3545.00,0.0053
3544.00,0.0053
3543.00,0.0053
3542.00,0.0053
3541.00,0.0053
3540.00,0.0054
3539.00,0.0054
3538.00,0.0054
3537.00,0.0054
3536.00,0.0054
3535.00,0.0054
3534.00,0.0054
3533.00,0.0054
3532.00,0.0054
3531.00,0.0054
3530.00,0.0054
3529.00,0.0054
3528.00,0.0054
3527.00,0.0054
3526.00,0.0054
3525.00,0.0054
3524.00,0.0054
3523.00,0.0054
3522.00,0.0053
3521.00,0.0053
3520.00,0.0053
3519.00,0.0054
3518.00,0.0054
3517.00,0.0054
3516.00,0.0054
3515.00,0.0054
3514.00,0.0054
3513.00,0.0054
3512.00,0.0054
3511.00,0.0054
3510.00,0.0054
3509.00,0.0053
3508.00,0.0053
3507.00,0.0053
3506.00,0.0053
3505.00,0.0054
3504.00,0.0054
3503.00,0.0054
3502.00,0.0054
3501.00,0.0054
3500.00,0.0054
3499.00,0.0054
3498.00,0.0054
3497.00,0.0054
3496.00,0.0054
3495.00,0.0054
3494.00,0.0054
3493.00,0.0054
3492.00,0.0054
3491.00,0.0054
3490.00,0.0054
3489.00,0.0054
3488.00,0.0054
3487.00,0.0054
3486.00,0.0054
3485.00,0.0054
3484.00,0.0054
3483.00,0.0054
3482.00,0.0055
3481.00,0.0055
3480.00,0.0055
3479.00,0.0055
3478.00,0.0055
3477.00,0.0055
3476.00,0.0055
3475.00,0.0055
3474.00,0.0054
3473.00,0.0054
3472.00,0.0054
3471.00,0.0054
3470.00,0.0054
3469.00,0.0054
3468.00,0.0054
3467.00,0.0054
3466.00,0.0054
3465.00,0.0054
3464.00,0.0054
3463.00,0.0054
3462.00,0.0055
3461.00,0.0055
3460.00,0.0055
3459.00,0.0055
3458.00,0.0055
3457.00,0.0055
3456.00,0.0055
3455.00,0.0055
3454.00,0.0055
3453.00,0.0055
3452.00,0.0055
3451.00,0.0055
3450.00,0.0055
3449.00,0.0055
3448.00,0.0055
3447.00,0.0055
3446.00,0.0055
3445.00,0.0055
3444.00,0.0055
3443.00,0.0055
3442.00,0.0055
3441.00,0.0056
3440.00,0.0056
3439.00,0.0056
3438.00,0.0056
3437.00,0.0055
3436.00,0.0055
3435.00,0.0055
3434.00,0.0055
3433.00,0.0055
3432.00,0.0055
3431.00,0.0055
3430.00,0.0055
3429.00,0.0055
3428.00,0.0056
3427.00,0.0056
3426.00,0.0055
3425.00,0.0055
3424.00,0.0055
3423.00,0.0056
3422.00,0.0056
3421.00,0.0056
3420.00,0.0056
3419.00,0.0056
3418.00,0.0056
3417.00,0.0056
3416.00,0.0057
3415.00,0.0057
3414.00,0.0057
3413.00,0.0057
3412.00,0.0058
3411.00,0.0057
3410.00,0.0057
3409.00,0.0057
3408.00,0.0057
3407.00,0.0058
3406.00,0.0058
3405.00,0.0058
3404.00,0.0058
3403.00,0.0058
3402.00,0.0058
3401.00,0.0058
3400.00,0.0058
3399.00,0.0059
3398.00,0.0059
3397.00,0.0060
3396.00,0.0060
3395.00,0.0061
3394.00,0.0062
3393.00,0.0062
3392.00,0.0062
3391.00,0.0063
3390.00,0.0064
3389.00,0.0065
3388.00,0.0065
3387.00,0.0066
3386.00,0.0067
3385.00,0.0068
3384.00,0.0069
3383.00,0.0069
3382.00,0.0070
3381.00,0.0071
3380.00,0.0072
3379.00,0.0073
3378.00,0.0074
3377.00,0.0075
3376.00,0.0076
3375.00,0.0076
3374.00,0.0077
3373.00,0.0077
3372.00,0.0077
3371.00,0.0077
3370.00,0.0078
3369.00,0.0079
3368.00,0.0080
3367.00,0.0082
3366.00,0.0084
3365.00,0.0086
3364.00,0.0088
3363.00,0.0090
3362.00,0.0092
3361.00,0.0094
3360.00,0.0096
3359.00,0.0099
3358.00,0.0102
3357.00,0.0105
3356.00,0.0108
3355.00,0.0111
3354.00,0.0114
3353.00,0.0117
3352.00,0.0121
3351.00,0.0124
3350.00,0.0129
3349.00,0.0134
3348.00,0.0140
3347.00,0.0146
3346.00,0.0153
3345.00,0.0160
3344.00,0.0167
3343.00,0.0176
3342.00,0.0185
3341.00,0.0195
3340.00,0.0206
3339.00,0.0217
3338.00,0.0228
3337.00,0.0238
3336.00,0.0248
3335.00,0.0256
3334.00,0.0264
3333.00,0.0269
3332.00,0.0273
3331.00,0.0274
3330.00,0.0275
3329.00,0.0274
3328.00,0.0272
3327.00,0.0270
3326.00,0.0267
3325.00,0.0264
3324.00,0.0260
3323.00,0.0256
3322.00,0.0251
3321.00,0.0246
3320.00,0.0241
3319.00,0.0235
3318.00,0.0229
3317.00,0.0222
3316.00,0.0215
3315.00,0.0209
3314.00,0.0202
3313.00,0.0196
3312.00,0.0190
3311.00,0.0184
3310.00,0.0179
3309.00,0.0174
3308.00,0.0170
3307.00,0.0165
3306.00,0.0162
3305.00,0.0158
3304.00,0.0155
3303.00,0.0153
3302.00,0.0150
3301.00,0.0148
3300.00,0.0146
3299.00,0.0144
3298.00,0.0142
3297.00,0.0141
3296.00,0.0139
3295.00,0.0137
3294.00,0.0136
3293.00,0.0135
3292.00,0.0133
3291.00,0.0132
3290.00,0.0132
3289.00,0.0131
3288.00,0.0129
3287.00,0.0128
3286.00,0.0126
3285.00,0.0124
3284.00,0.0122
3283.00,0.0120
3282.00,0.0119
3281.00,0.0118
3280.00,0.0117
3279.00,0.0116
3278.00,0.0115
3277.00,0.0113
3276.00,0.0112
3275.00,0.0112
3274.00,0.0111
3273.00,0.0111
3272.00,0.0111
3271.00,0.0110
3270.00,0.0110
3269.00,0.0110
3268.00,0.0111
3267.00,0.0111
3266.00,0.0111
3265.00,0.0111
3264.00,0.0111
3263.00,0.0111
3262.00,0.0111
3261.00,0.0110
3260.00,0.0110
3259.00,0.0109
3258.00,0.0109
3257.00,0.0108
3256.00,0.0108
3255.00,0.0108
3254.00,0.0108
3253.00,0.0107
3252.00,0.0107
3251.00,0.0107
3250.00,0.0106
3249.00,0.0106
3248.00,0.0106
3247.00,0.0106
3246.00,0.0106
3245.00,0.0106
3244.00,0.0106
3243.00,0.0106
3242.00,0.0105
3241.00,0.0105
3240.00,0.0105
3239.00,0.0105
3238.00,0.0104
3237.00,0.0104
3236.00,0.0103
3235.00,0.0102
3234.00,0.0101
3233.00,0.0100
3232.00,0.0099
3231.00,0.0098
3230.00,0.0098
3229.00,0.0097
3228.00,0.0096
3227.00,0.0095
3226.00,0.0094
3225.00,0.0093
3224.00,0.0091
3223.00,0.0090
3222.00,0.0089
3221.00,0.0088
3220.00,0.0087
3219.00,0.0086
3218.00,0.0086
3217.00,0.0085
3216.00,0.0085
3215.00,0.0084
3214.00,0.0083
3213.00,0.0083
3212.00,0.0082
3211.00,0.0082
3210.00,0.0082
3209.00,0.0081
3208.00,0.0081
3207.00,0.0080
3206.00,0.0080
3205.00,0.0079
3204.00,0.0078
3203.00,0.0078
3202.00,0.0077
3201.00,0.0077
3200.00,0.0076
3199.00,0.0076
3198.00,0.0075
3197.00,0.0075
3196.00,0.0075
3195.00,0.0075
3194.00,0.0075
3193.00,0.0075
3192.00,0.0075
3191.00,0.0074
3190.00,0.0074
3189.00,0.0074
3188.00,0.0074
3187.00,0.0073
3186.00,0.0073
3185.00,0.0073
3184.00,0.0073
3183.00,0.0073
3182.00,0.0073
3181.00,0.0073
3180.00,0.0073
3179.00,0.0073
3178.00,0.0073
3177.00,0.0072
3176.00,0.0072
3175.00,0.0072
3174.00,0.0072
3173.00,0.0072
3172.00,0.0071
3171.00,0.0071
3170.00,0.0071
3169.00,0.0071
3168.00,0.0071
3167.00,0.0071
3166.00,0.0071
3165.00,0.0071
3164.00,0.0071
3163.00,0.0071
3162.00,0.0071
3161.00,0.0071
3160.00,0.0071
3159.00,0.0071
3158.00,0.0070
3157.00,0.0070
3156.00,0.0070
3155.00,0.0070
3154.00,0.0071
3153.00,0.0071
3152.00,0.0071
3151.00,0.0071
3150.00,0.0071
3149.00,0.0071
3148.00,0.0071
3147.00,0.0072
3146.00,0.0072
3145.00,0.0072
3144.00,0.0072
3143.00,0.0072
3142.00,0.0071
3141.00,0.0071
3140.00,0.0071
3139.00,0.0071
3138.00,0.0072
3137.00,0.0072
3136.00,0.0072
3135.00,0.0072
3134.00,0.0073
3133.00,0.0073
3132.00,0.0074
3131.00,0.0074
3130.00,0.0074
3129.00,0.0074
3128.00,0.0074
3127.00,0.0074
3126.00,0.0075
3125.00,0.0075
3124.00,0.0075
3123.00,0.0076
3122.00,0.0076
3121.00,0.0077
3120.00,0.0077
3119.00,0.0078
3118.00,0.0078
3117.00,0.0079
3116.00,0.0079
3115.00,0.0080
3114.00,0.0081
3113.00,0.0082
3112.00,0.0083
3111.00,0.0083
3110.00,0.0084
3109.00,0.0085
3108.00,0.0086
3107.00,0.0088
3106.00,0.0088
3105.00,0.0089
3104.00,0.0090
3103.00,0.0090
3102.00,0.0090
3101.00,0.0090
3100.00,0.0090
3099.00,0.0089
3098.00,0.0089
3097.00,0.0088
3096.00,0.0087
3095.00,0.0086
3094.00,0.0085
3093.00,0.0085
3092.00,0.0084
3091.00,0.0083
3090.00,0.0083
3089.00,0.0082
3088.00,0.0082
3087.00,0.0082
3086.00,0.0083
3085.00,0.0083
3084.00,0.0084
3083.00,0.0085
3082.00,0.0085
3081.00,0.0085
3080.00,0.0085
3079.00,0.0085
3078.00,0.0085
3077.00,0.0084
3076.00,0.0084
3075.00,0.0083
3074.00,0.0081
3073.00,0.0079
3072.00,0.0078
3071.00,0.0076
3070.00,0.0075
3069.00,0.0075
3068.00,0.0075
3067.00,0.0076
3066.00,0.0077
3065.00,0.0078
3064.00,0.0078
3063.00,0.0079
3062.00,0.0079
3061.00,0.0078
3060.00,0.0078
3059.00,0.0077
3058.00,0.0076
3057.00,0.0075
3056.00,0.0074
3055.00,0.0074
3054.00,0.0074
3053.00,0.0074
3052.00,0.0073
3051.00,0.0073
3050.00,0.0073
3049.00,0.0073
3048.00,0.0073
3047.00,0.0072
3046.00,0.0072
3045.00,0.0072
3044.00,0.0071
3043.00,0.0072
3042.00,0.0072
3041.00,0.0073
3040.00,0.0074
3039.00,0.0074
3038.00,0.0075
3037.00,0.0075
3036.00,0.0076
3035.00,0.0076
3034.00,0.0076
3033.00,0.0077
3032.00,0.0078
3031.00,0.0079
3030.00,0.0079
3029.00,0.0080
3028.00,0.0080
3027.00,0.0080
3026.00,0.0080
3025.00,0.0079
3024.00,0.0078
3023.00,0.0078
3022.00,0.0077
3021.00,0.0076
3020.00,0.0075
3019.00,0.0075
3018.00,0.0074
3017.00,0.0074
3016.00,0.0074
3015.00,0.0074
3014.00,0.0074
3013.00,0.0074
3012.00,0.0074
3011.00,0.0075
3010.00,0.0075
3009.00,0.0077
3008.00,0.0078
3007.00,0.0080
3006.00,0.0081
3005.00,0.0083
3004.00,0.0085
3003.00,0.0087
3002.00,0.0089
3001.00,0.0091
3000.00,0.0092
2999.00,0.0094
2998.00,0.0094
2997.00,0.0094
2996.00,0.0094
2995.00,0.0092
2994.00,0.0089
2993.00,0.0086
2992.00,0.0083
2991.00,0.0081
2990.00,0.0078
2989.00,0.0077
2988.00,0.0075
2987.00,0.0074
2986.00,0.0072
2985.00,0.0070
2984.00,0.0068
2983.00,0.0066
2982.00,0.0064
2981.00,0.0063
2980.00,0.0063
2979.00,0.0064
2978.00,0.0065
2977.00,0.0066
2976.00,0.0066
2975.00,0.0066
2974.00,0.0066
2973.00,0.0066
2972.00,0.0066
2971.00,0.0067
2970.00,0.0068
2969.00,0.0070
2968.00,0.0071
2967.00,0.0074
2966.00,0.0076
2965.00,0.0079
2964.00,0.0082
2963.00,0.0086
2962.00,0.0091
2961.00,0.0096
2960.00,0.0101
2959.00,0.0107
2958.00,0.0112
2957.00,0.0117
2956.00,0.0122
2955.00,0.0125
2954.00,0.0127
2953.00,0.0127
2952.00,0.0126
2951.00,0.0124
2950.00,0.0120
2949.00,0.0115
2948.00,0.0110
2947.00,0.0106
2946.00,0.0102
2945.00,0.0098
2944.00,0.0095
2943.00,0.0093
2942.00,0.0091
2941.00,0.0089
2940.00,0.0088
2939.00,0.0087
2938.00,0.0086
2937.00,0.0086
2936.00,0.0086
2935.00,0.0085
2934.00,0.0085
2933.00,0.0084
2932.00,0.0084
2931.00,0.0084
2930.00,0.0083
2929.00,0.0083
2928.00,0.0083
2927.00,0.0082
2926.00,0.0082
2925.00,0.0081
2924.00,0.0080
2923.00,0.0079
2922.00,0.0079
2921.00,0.0078
2920.00,0.0077
2919.00,0.0076
2918.00,0.0076
2917.00,0.0075
2916.00,0.0075
2915.00,0.0075
2914.00,0.0075
2913.00,0.0075
2912.00,0.0075
2911.00,0.0075
2910.00,0.0075
2909.00,0.0074
2908.00,0.0074
2907.00,0.0073
2906.00,0.0073
2905.00,0.0072
2904.00,0.0072
2903.00,0.0071
2902.00,0.0071
2901.00,0.0071
2900.00,0.0071
2899.00,0.0070
2898.00,0.0070
2897.00,0.0070
2896.00,0.0069
2895.00,0.0069
2894.00,0.0068
2893.00,0.0068
2892.00,0.0068
2891.00,0.0068
2890.00,0.0068
2889.00,0.0068
2888.00,0.0068
2887.00,0.0069
2886.00,0.0069
2885.00,0.0069
2884.00,0.0069
2883.00,0.0069
2882.00,0.0070
2881.00,0.0071
2880.00,0.0071
2879.00,0.0072
2878.00,0.0072
2877.00,0.0072
2876.00,0.0073
2875.00,0.0073
2874.00,0.0073
2873.00,0.0074
2872.00,0.0074
2871.00,0.0075
2870.00,0.0075
2869.00,0.0076
2868.00,0.0076
2867.00,0.0075
2866.00,0.0075
2865.00,0.0074
2864.00,0.0073
2863.00,0.0073
2862.00,0.0072
2861.00,0.0072
2860.00,0.0071
2859.00,0.0071
2858.00,0.0071
2857.00,0.0071
2856.00,0.0071
2855.00,0.0071
2854.00,0.0071
2853.00,0.0071
2852.00,0.0071
2851.00,0.0071
2850.00,0.0072
2849.00,0.0073
2848.00,0.0074
2847.00,0.0075
2846.00,0.0077
2845.00,0.0078
2844.00,0.0079
2843.00,0.0080
2842.00,0.0080
2841.00,0.0079
2840.00,0.0078
2839.00,0.0077
2838.00,0.0075
2837.00,0.0074
2836.00,0.0073
2835.00,0.0072
2834.00,0.0071
2833.00,0.0071
2832.00,0.0070
2831.00,0.0070
2830.00,0.0069
2829.00,0.0069
2828.00,0.0069
2827.00,0.0069
2826.00,0.0069
2825.00,0.0068
2824.00,0.0068
2823.00,0.0068
2822.00,0.0068
2821.00,0.0068
2820.00,0.0068
2819.00,0.0068
2818.00,0.0068
2817.00,0.0068
2816.00,0.0068
2815.00,0.0069
2814.00,0.0069
2813.00,0.0069
2812.00,0.0069
2811.00,0.0069
2810.00,0.0069
2809.00,0.0069
2808.00,0.0069
2807.00,0.0069
2806.00,0.0069
2805.00,0.0069
2804.00,0.0069
2803.00,0.0068
2802.00,0.0068
2801.00,0.0068
2800.00,0.0068
2799.00,0.0068
2798.00,0.0067
2797.00,0.0067
2796.00,0.0067
2795.00,0.0066
2794.00,0.0066
2793.00,0.0066
2792.00,0.0065
2791.00,0.0065
2790.00,0.0064
2789.00,0.0064
2788.00,0.0064
2787.00,0.0064
2786.00,0.0064
2785.00,0.0063
2784.00,0.0063
2783.00,0.0063
2782.00,0.0063
2781.00,0.0063
2780.00,0.0063
2779.00,0.0062
2778.00,0.0062
2777.00,0.0062
2776.00,0.0062
2775.00,0.0062
2774.00,0.0062
2773.00,0.0062
2772.00,0.0062
2771.00,0.0062
2770.00,0.0062
2769.00,0.0062
2768.00,0.0062
2767.00,0.0062
2766.00,0.0062
2765.00,0.0062
2764.00,0.0062
2763.00,0.0062
2762.00,0.0062
2761.00,0.0062
2760.00,0.0062
2759.00,0.0062
2758.00,0.0062
2757.00,0.0062
2756.00,0.0062
2755.00,0.0062
2754.00,0.0062
2753.00,0.0062
2752.00,0.0062
2751.00,0.0062
2750.00,0.0062
2749.00,0.0062
2748.00,0.0062
2747.00,0.0062
2746.00,0.0062
2745.00,0.0062
2744.00,0.0061
2743.00,0.0062
2742.00,0.0062
2741.00,0.0062
2740.00,0.0062
2739.00,0.0062
2738.00,0.0062
2737.00,0.0061
2736.00,0.0061
2735.00,0.0061
2734.00,0.0061
2733.00,0.0061
2732.00,0.0061
2731.00,0.0061
2730.00,0.0061
2729.00,0.0061
2728.00,0.0061
2727.00,0.0061
2726.00,0.0061
2725.00,0.0061
2724.00,0.0062
2723.00,0.0062
2722.00,0.0062
2721.00,0.0062
2720.00,0.0062
2719.00,0.0061
2718.00,0.0062
2717.00,0.0062
2716.00,0.0062
2715.00,0.0062
2714.00,0.0062
2713.00,0.0062
2712.00,0.0062
2711.00,0.0062
2710.00,0.0062
2709.00,0.0062
2708.00,0.0062
2707.00,0.0062
2706.00,0.0062
2705.00,0.0062
2704.00,0.0062
2703.00,0.0062
2702.00,0.0062
2701.00,0.0062
2700.00,0.0062
2699.00,0.0062
2698.00,0.0062
2697.00,0.0062
2696.00,0.0062
2695.00,0.0062
2694.00,0.0062
2693.00,0.0062
2692.00,0.0062
2691.00,0.0061
2690.00,0.0061
2689.00,0.0061
2688.00,0.0061
2687.00,0.0061
2686.00,0.0061
2685.00,0.0061
2684.00,0.0061
2683.00,0.0061
2682.00,0.0061
2681.00,0.0061
2680.00,0.0061
2679.00,0.0061
2678.00,0.0061
2677.00,0.0061
2676.00,0.0062
2675.00,0.0062
2674.00,0.0062
2673.00,0.0062
2672.00,0.0062
2671.00,0.0062
2670.00,0.0062
2669.00,0.0061
2668.00,0.0061
2667.00,0.0061
2666.00,0.0061
2665.00,0.0062
2664.00,0.0062
2663.00,0.0062
2662.00,0.0062
2661.00,0.0062
2660.00,0.0063
2659.00,0.0063
2658.00,0.0063
2657.00,0.0063
2656.00,0.0063
2655.00,0.0063
2654.00,0.0063
2653.00,0.0063
2652.00,0.0064
2651.00,0.0064
2650.00,0.0064
2649.00,0.0064
2648.00,0.0064
2647.00,0.0064
2646.00,0.0064
2645.00,0.0064
2644.00,0.0064
2643.00,0.0064
2642.00,0.0064
2641.00,0.0064
2640.00,0.0064
2639.00,0.0064
2638.00,0.0064
2637.00,0.0064
2636.00,0.0064
2635.00,0.0064
2634.00,0.0064
2633.00,0.0063
2632.00,0.0063
2631.00,0.0063
2630.00,0.0063
2629.00,0.0063
2628.00,0.0063
2627.00,0.0064
2626.00,0.0064
2625.00,0.0063
2624.00,0.0063
2623.00,0.0063
2622.00,0.0063
2621.00,0.0063
2620.00,0.0063
2619.00,0.0063
2618.00,0.0063
2617.00,0.0063
2616.00,0.0064
2615.00,0.0064
2614.00,0.0063
2613.00,0.0063
2612.00,0.0063
2611.00,0.0063
2610.00,0.0063
2609.00,0.0062
2608.00,0.0062
2607.00,0.0062
2606.00,0.0062
2605.00,0.0062
2604.00,0.0062
2603.00,0.0062
2602.00,0.0062
2601.00,0.0062
2600.00,0.0062
2599.00,0.0061
2598.00,0.0061
2597.00,0.0061
2596.00,0.0061
2595.00,0.0060
2594.00,0.0060
2593.00,0.0060
2592.00,0.0060
2591.00,0.0060
2590.00,0.0060
2589.00,0.0060
2588.00,0.0060
2587.00,0.0060
2586.00,0.0060
2585.00,0.0060
2584.00,0.0060
2583.00,0.0060
2582.00,0.0060
2581.00,0.0059
2580.00,0.0059
2579.00,0.0059
2578.00,0.0059
2577.00,0.0059
2576.00,0.0058
2575.00,0.0058
2574.00,0.0058
2573.00,0.0058
2572.00,0.0058
2571.00,0.0058
2570.00,0.0058
2569.00,0.0058
2568.00,0.0057
2567.00,0.0057
2566.00,0.0057
2565.00,0.0057
2564.00,0.0058
2563.00,0.0058
2562.00,0.0057
2561.00,0.0057
2560.00,0.0057
2559.00,0.0057
2558.00,0.0057
2557.00,0.0057
2556.00,0.0057
2555.00,0.0057
2554.00,0.0057
2553.00,0.0058
2552.00,0.0058
2551.00,0.0057
2550.00,0.0057
2549.00,0.0057
2548.00,0.0057
2547.00,0.0057
2546.00,0.0057
2545.00,0.0057
2544.00,0.0057
2543.00,0.0057
2542.00,0.0057
2541.00,0.0057
2540.00,0.0057
2539.00,0.0057
2538.00,0.0057
2537.00,0.0057
2536.00,0.0057
2535.00,0.0057
2534.00,0.0057
2533.00,0.0057
2532.00,0.0057
2531.00,0.0058
2530.00,0.0058
2529.00,0.0058
2528.00,0.0058
2527.00,0.0057
2526.00,0.0057
2525.00,0.0056
2524.00,0.0056
2523.00,0.0056
2522.00,0.0056
2521.00,0.0056
2520.00,0.0056
2519.00,0.0056
2518.00,0.0056
2517.00,0.0056
2516.00,0.0056
2515.00,0.0056
2514.00,0.0056
2513.00,0.0056
2512.00,0.0055
2511.00,0.0055
2510.00,0.0054
2509.00,0.0054
2508.00,0.0055
2507.00,0.0055
2506.00,0.0055
2505.00,0.0055
2504.00,0.0055
2503.00,0.0055
2502.00,0.0055
2501.00,0.0055
2500.00,0.0055
2499.00,0.0055
2498.00,0.0055
2497.00,0.0055
2496.00,0.0055
2495.00,0.0055
2494.00,0.0055
2493.00,0.0055
2492.00,0.0055
2491.00,0.0055
2490.00,0.0055
2489.00,0.0055
2488.00,0.0055
2487.00,0.0055
2486.00,0.0055
2485.00,0.0055
2484.00,0.0055
2483.00,0.0055
2482.00,0.0055
2481.00,0.0055
2480.00,0.0054
2479.00,0.0054
2478.00,0.0053
2477.00,0.0053
2476.00,0.0054
2475.00,0.0054
2474.00,0.0055
2473.00,0.0054
2472.00,0.0054
2471.00,0.0054
2470.00,0.0054
2469.00,0.0054
2468.00,0.0054
2467.00,0.0054
2466.00,0.0054
2465.00,0.0054
2464.00,0.0054
2463.00,0.0055
2462.00,0.0055
2461.00,0.0055
2460.00,0.0055
2459.00,0.0055
2458.00,0.0055
2457.00,0.0056
2456.00,0.0056
2455.00,0.0057
2454.00,0.0057
2453.00,0.0057
2452.00,0.0056
2451.00,0.0056
2450.00,0.0056
2449.00,0.0056
2448.00,0.0056
2447.00,0.0055
2446.00,0.0055
2445.00,0.0055
2444.00,0.0055
2443.00,0.0055
2442.00,0.0054
2441.00,0.0054
2440.00,0.0054
2439.00,0.0054
2438.00,0.0053
2437.00,0.0053
2436.00,0.0053
2435.00,0.0053
2434.00,0.0053
2433.00,0.0053
2432.00,0.0053
2431.00,0.0053
2430.00,0.0052
2429.00,0.0053
2428.00,0.0053
2427.00,0.0053
2426.00,0.0053
2425.00,0.0053
2424.00,0.0052
2423.00,0.0052
2422.00,0.0052
2421.00,0.0052
2420.00,0.0053
2419.00,0.0053
2418.00,0.0052
2417.00,0.0052
2416.00,0.0052
2415.00,0.0052
2414.00,0.0052
2413.00,0.0052
2412.00,0.0052
2411.00,0.0051
2410.00,0.0051
2409.00,0.0050
2408.00,0.0050
2407.00,0.0050
2406.00,0.0050
2405.00,0.0050
2404.00,0.0050
2403.00,0.0050
2402.00,0.0050
2401.00,0.0050
2400.00,0.0050
2399.00,0.0050
2398.00,0.0050
2397.00,0.0050
2396.00,0.0050
2395.00,0.0050
2394.00,0.0050
2393.00,0.0050
2392.00,0.0049
2391.00,0.0049
2390.00,0.0049
2389.00,0.0049
2388.00,0.0049
2387.00,0.0049
2386.00,0.0049
2385.00,0.0049
2384.00,0.0048
2383.00,0.0048
2382.00,0.0048
2381.00,0.0047
2380.00,0.0047
2379.00,0.0047
2378.00,0.0047
2377.00,0.0047
2376.00,0.0047
2375.00,0.0047
2374.00,0.0047
2373.00,0.0046
2372.00,0.0046
2371.00,0.0046
2370.00,0.0045
2369.00,0.0045
2368.00,0.0045
2367.00,0.0045
2366.00,0.0046
2365.00,0.0046
2364.00,0.0046
2363.00,0.0046
2362.00,0.0046
2361.00,0.0046
2360.00,0.0046
2359.00,0.0046
2358.00,0.0046
2357.00,0.0046
2356.00,0.0046
2355.00,0.0046
2354.00,0.0047
2353.00,0.0047
2352.00,0.0046
2351.00,0.0046
2350.00,0.0046
2349.00,0.0046
2348.00,0.0047
2347.00,0.0048
2346.00,0.0048
2345.00,0.0047
2344.00,0.0047
2343.00,0.0047
2342.00,0.0047
2341.00,0.0048
2340.00,0.0048
2339.00,0.0048
2338.00,0.0049
2337.00,0.0048
2336.00,0.0048
2335.00,0.0048
2334.00,0.0047
2333.00,0.0047
2332.00,0.0048
2331.00,0.0048
2330.00,0.0049
2329.00,0.0050
2328.00,0.0052
2327.00,0.0054
2326.00,0.0056
2325.00,0.0057
2324.00,0.0057
2323.00,0.0056
2322.00,0.0054
2321.00,0.0053
2320.00,0.0052
2319.00,0.0052
2318.00,0.0051
2317.00,0.0051
2316.00,0.0051
2315.00,0.0051
2314.00,0.0051
2313.00,0.0050
2312.00,0.0050
2311.00,0.0049
2310.00,0.0048
2309.00,0.0048
2308.00,0.0048
2307.00,0.0048
2306.00,0.0049
2305.00,0.0049
2304.00,0.0050
2303.00,0.0050
2302.00,0.0050
2301.00,0.0050
2300.00,0.0050
2299.00,0.0051
2298.00,0.0051
2297.00,0.0051
2296.00,0.0052
2295.00,0.0052
2294.00,0.0053
2293.00,0.0054
2292.00,0.0054
2291.00,0.0055
2290.00,0.0056
2289.00,0.0056
2288.00,0.0056
2287.00,0.0056
2286.00,0.0056
2285.00,0.0056
2284.00,0.0056
2283.00,0.0055
2282.00,0.0054
2281.00,0.0054
2280.00,0.0054
2279.00,0.0054
2278.00,0.0054
2277.00,0.0054
2276.00,0.0054
2275.00,0.0053
2274.00,0.0053
2273.00,0.0052
2272.00,0.0052
2271.00,0.0051
2270.00,0.0051
2269.00,0.0050
2268.00,0.0050
2267.00,0.0050
2266.00,0.0050
2265.00,0.0049
2264.00,0.0049
2263.00,0.0049
2262.00,0.0050
2261.00,0.0050
2260.00,0.0050
2259.00,0.0050
2258.00,0.0050
2257.00,0.0049
2256.00,0.0047
2255.00,0.0046
2254.00,0.0045
2253.00,0.0045
2252.00,0.0045
2251.00,0.0045
2250.00,0.0045
2249.00,0.0045
2248.00,0.0045
2247.00,0.0044
2246.00,0.0044
2245.00,0.0043
2244.00,0.0043
2243.00,0.0043
2242.00,0.0043
2241.00,0.0043
2240.00,0.0043
2239.00,0.0043
2238.00,0.0043
2237.00,0.0043
2236.00,0.0043
2235.00,0.0043
2234.00,0.0043
2233.00,0.0043
2232.00,0.0044
2231.00,0.0044
2230.00,0.0044
2229.00,0.0044
2228.00,0.0044
2227.00,0.0044
2226.00,0.0044
2225.00,0.0044
2224.00,0.0045
2223.00,0.0045
2222.00,0.0044
2221.00,0.0044
2220.00,0.0043
2219.00,0.0043
2218.00,0.0043
2217.00,0.0043
2216.00,0.0043
2215.00,0.0043
2214.00,0.0043
2213.00,0.0043
2212.00,0.0043
2211.00,0.0043
2210.00,0.0042
2209.00,0.0042
2208.00,0.0041
2207.00,0.0041
2206.00,0.0041
2205.00,0.0042
2204.00,0.0043
2203.00,0.0043
2202.00,0.0043
2201.00,0.0043
2200.00,0.0043
2199.00,0.0043
2198.00,0.0043
2197.00,0.0043
2196.00,0.0043
2195.00,0.0043
2194.00,0.0042
2193.00,0.0042
2192.00,0.0043
2191.00,0.0043
2190.00,0.0043
2189.00,0.0042
2188.00,0.0043
2187.00,0.0044
2186.00,0.0045
2185.00,0.0045
2184.00,0.0044
2183.00,0.0043
2182.00,0.0042
2181.00,0.0042
2180.00,0.0044
2179.00,0.0045
2178.00,0.0044
2177.00,0.0043
2176.00,0.0042
2175.00,0.0041
2174.00,0.0042
2173.00,0.0043
2172.00,0.0045
2171.00,0.0047
2170.00,0.0048
2169.00,0.0049
2168.00,0.0049
2167.00,0.0049
2166.00,0.0049
2165.00,0.0050
2164.00,0.0051
2163.00,0.0052
2162.00,0.0049
2161.00,0.0043
2160.00,0.0035
2159.00,0.0027
2158.00,0.0023
2157.00,0.0022
2156.00,0.0024
2155.00,0.0027
2154.00,0.0029
2153.00,0.0031
2152.00,0.0032
2151.00,0.0032
2150.00,0.0032
2149.00,0.0031
2148.00,0.0030
2147.00,0.0029
2146.00,0.0029
2145.00,0.0029
2144.00,0.0029
2143.00,0.0029
2142.00,0.0030
2141.00,0.0030
2140.00,0.0031
2139.00,0.0031
2138.00,0.0030
2137.00,0.0029
2136.00,0.0028
2135.00,0.0027
2134.00,0.0027
2133.00,0.0028
2132.00,0.0029
2131.00,0.0030
2130.00,0.0032
2129.00,0.0033
2128.00,0.0034
2127.00,0.0035
2126.00,0.0036
2125.00,0.0036
2124.00,0.0037
2123.00,0.0037
2122.00,0.0038
2121.00,0.0038
2120.00,0.0038
2119.00,0.0038
2118.00,0.0039
2117.00,0.0040
2116.00,0.0041
2115.00,0.0041
2114.00,0.0042
2113.00,0.0042
2112.00,0.0041
2111.00,0.0041
2110.00,0.0041
2109.00,0.0041
2108.00,0.0041
2107.00,0.0042
2106.00,0.0042
2105.00,0.0042
2104.00,0.0042
2103.00,0.0041
2102.00,0.0041
2101.00,0.0041
2100.00,0.0041
2099.00,0.0041
2098.00,0.0040
2097.00,0.0039
2096.00,0.0038
2095.00,0.0037
2094.00,0.0037
2093.00,0.0038
2092.00,0.0039
2091.00,0.0040
2090.00,0.0040
2089.00,0.0041
2088.00,0.0041
2087.00,0.0042
2086.00,0.0042
2085.00,0.0041
2084.00,0.0041
2083.00,0.0042
2082.00,0.0042
2081.00,0.0043
2080.00,0.0043
2079.00,0.0043
2078.00,0.0043
2077.00,0.0042
2076.00,0.0042
2075.00,0.0042
2074.00,0.0042
2073.00,0.0042
2072.00,0.0042
2071.00,0.0042
2070.00,0.0042
2069.00,0.0042
2068.00,0.0042
2067.00,0.0042
2066.00,0.0041
2065.00,0.0041
2064.00,0.0040
2063.00,0.0040
2062.00,0.0039
2061.00,0.0039
2060.00,0.0039
2059.00,0.0039
2058.00,0.0039
2057.00,0.0039
2056.00,0.0039
2055.00,0.0039
2054.00,0.0040
2053.00,0.0042
2052.00,0.0044
2051.00,0.0043
2050.00,0.0041
2049.00,0.0038
2048.00,0.0036
2047.00,0.0034
2046.00,0.0033
2045.00,0.0033
2044.00,0.0033
2043.00,0.0034
2042.00,0.0034
2041.00,0.0034
2040.00,0.0035
2039.00,0.0035
2038.00,0.0035
2037.00,0.0034
2036.00,0.0032
2035.00,0.0030
2034.00,0.0029
2033.00,0.0029
2032.00,0.0030
2031.00,0.0031
2030.00,0.0031
2029.00,0.0031
2028.00,0.0031
2027.00,0.0031
2026.00,0.0030
2025.00,0.0030
2024.00,0.0030
2023.00,0.0031
2022.00,0.0031
2021.00,0.0032
2020.00,0.0032
2019.00,0.0033
2018.00,0.0033
2017.00,0.0033
2016.00,0.0033
2015.00,0.0034
2014.00,0.0035
2013.00,0.0037
2012.00,0.0039
2011.00,0.0039
2010.00,0.0038
2009.00,0.0036
2008.00,0.0034
2007.00,0.0032
2006.00,0.0032
2005.00,0.0032
2004.00,0.0033
2003.00,0.0034
2002.00,0.0034
2001.00,0.0035
2000.00,0.0037
1999.00,0.0038
1998.00,0.0040
1997.00,0.0041
1996.00,0.0041
1995.00,0.0040
1994.00,0.0040
1993.00,0.0040
1992.00,0.0040
1991.00,0.0039
1990.00,0.0039
1989.00,0.0039
1988.00,0.0039
1987.00,0.0040
1986.00,0.0041
1985.00,0.0042
1984.00,0.0043
1983.00,0.0046
1982.00,0.0047
1981.00,0.0047
1980.00,0.0045
1979.00,0.0041
1978.00,0.0037
1977.00,0.0034
1976.00,0.0032
1975.00,0.0031
1974.00,0.0031
1973.00,0.0032
1972.00,0.0033
1971.00,0.0035
1970.00,0.0035
1969.00,0.0035
1968.00,0.0034
1967.00,0.0033
1966.00,0.0033
1965.00,0.0034
1964.00,0.0034
1963.00,0.0033
1962.00,0.0032
1961.00,0.0030
1960.00,0.0029
1959.00,0.0029
1958.00,0.0028
1957.00,0.0029
1956.00,0.0031
1955.00,0.0034
1954.00,0.0035
1953.00,0.0036
1952.00,0.0035
1951.00,0.0034
1950.00,0.0033
1949.00,0.0032
1948.00,0.0032
1947.00,0.0032
1946.00,0.0032
1945.00,0.0033
1944.00,0.0034
1943.00,0.0034
1942.00,0.0034
1941.00,0.0033
1940.00,0.0033
1939.00,0.0032
1938.00,0.0032
1937.00,0.0032
1936.00,0.0033
1935.00,0.0035
1934.00,0.0036
1933.00,0.0036
1932.00,0.0037
1931.00,0.0037
1930.00,0.0037
1929.00,0.0037
1928.00,0.0036
1927.00,0.0035
1926.00,0.0035
1925.00,0.0036
1924.00,0.0037
1923.00,0.0038
1922.00,0.0038
1921.00,0.0039
1920.00,0.0038
1919.00,0.0038
1918.00,0.0037
1917.00,0.0036
1916.00,0.0036
1915.00,0.0035
1914.00,0.0034
1913.00,0.0034
1912.00,0.0035
1911.00,0.0036
1910.00,0.0036
1909.00,0.0036
1908.00,0.0036
1907.00,0.0035
1906.00,0.0034
1905.00,0.0034
1904.00,0.0035
1903.00,0.0035
1902.00,0.0035
1901.00,0.0035
1900.00,0.0035
1899.00,0.0034
1898.00,0.0034
1897.00,0.0035
1896.00,0.0035
1895.00,0.0036
1894.00,0.0036
1893.00,0.0036
1892.00,0.0036
1891.00,0.0036
1890.00,0.0036
1889.00,0.0036
1888.00,0.0035
1887.00,0.0035
1886.00,0.0035
1885.00,0.0035
1884.00,0.0035
1883.00,0.0034
1882.00,0.0034
1881.00,0.0033
1880.00,0.0033
1879.00,0.0033
1878.00,0.0033
1877.00,0.0033
1876.00,0.0033
1875.00,0.0033
1874.00,0.0033
1873.00,0.0034
1872.00,0.0035
1871.00,0.0036
1870.00,0.0036
1869.00,0.0036
1868.00,0.0036
1867.00,0.0035
1866.00,0.0034
1865.00,0.0034
1864.00,0.0034
1863.00,0.0034
1862.00,0.0034
1861.00,0.0034
1860.00,0.0034
1859.00,0.0034
1858.00,0.0034
1857.00,0.0034
1856.00,0.0034
1855.00,0.0034
1854.00,0.0035
1853.00,0.0035
1852.00,0.0037
1851.00,0.0037
1850.00,0.0038
1849.00,0.0038
1848.00,0.0038
1847.00,0.0038
1846.00,0.0037
1845.00,0.0036
1844.00,0.0036
1843.00,0.0035
1842.00,0.0034
1841.00,0.0033
1840.00,0.0033
1839.00,0.0033
1838.00,0.0033
1837.00,0.0033
1836.00,0.0033
1835.00,0.0033
1834.00,0.0033
1833.00,0.0033
1832.00,0.0033
1831.00,0.0034
1830.00,0.0034
1829.00,0.0034
1828.00,0.0034
1827.00,0.0034
1826.00,0.0034
1825.00,0.0035
1824.00,0.0034
1823.00,0.0034
1822.00,0.0033
1821.00,0.0032
1820.00,0.0032
1819.00,0.0031
1818.00,0.0031
1817.00,0.0031
1816.00,0.0031
1815.00,0.0032
1814.00,0.0032
1813.00,0.0033
1812.00,0.0034
1811.00,0.0034
1810.00,0.0033
1809.00,0.0033
1808.00,0.0033
1807.00,0.0033
1806.00,0.0033
1805.00,0.0034
1804.00,0.0035
1803.00,0.0036
1802.00,0.0037
1801.00,0.0037
1800.00,0.0036
1799.00,0.0036
1798.00,0.0036
1797.00,0.0036
1796.00,0.0037
1795.00,0.0037
1794.00,0.0036
1793.00,0.0036
1792.00,0.0036
1791.00,0.0036
1790.00,0.0036
1789.00,0.0035
1788.00,0.0035
1787.00,0.0035
1786.00,0.0036
1785.00,0.0036
1784.00,0.0036
1783.00,0.0036
1782.00,0.0036
1781.00,0.0036
1780.00,0.0036
1779.00,0.0036
1778.00,0.0036
1777.00,0.0036
1776.00,0.0036
1775.00,0.0037
1774.00,0.0036
1773.00,0.0036
1772.00,0.0036
1771.00,0.0036
1770.00,0.0037
1769.00,0.0038
1768.00,0.0038
1767.00,0.0038
1766.00,0.0037
1765.00,0.0037
1764.00,0.0038
1763.00,0.0038
1762.00,0.0039
1761.00,0.0040
1760.00,0.0041
1759.00,0.0041
1758.00,0.0042
1757.00,0.0042
1756.00,0.0043
1755.00,0.0043
1754.00,0.0044
1753.00,0.0045
1752.00,0.0047
1751.00,0.0049
1750.00,0.0050
1749.00,0.0050
1748.00,0.0050
1747.00,0.0051
1746.00,0.0052
1745.00,0.0053
1744.00,0.0055
1743.00,0.0056
1742.00,0.0057
1741.00,0.0057
1740.00,0.0059
1739.00,0.0061
1738.00,0.0064
1737.00,0.0067
1736.00,0.0070
1735.00,0.0073
1734.00,0.0076
1733.00,0.0079
1732.00,0.0081
1731.00,0.0082
1730.00,0.0083
1729.00,0.0084
1728.00,0.0086
1727.00,0.0087
1726.00,0.0089
1725.00,0.0090
1724.00,0.0091
1723.00,0.0091
1722.00,0.0090
1721.00,0.0089
1720.00,0.0088
1719.00,0.0087
1718.00,0.0086
1717.00,0.0086
1716.00,0.0087
1715.00,0.0089
1714.00,0.0090
1713.00,0.0093
1712.00,0.0098
1711.00,0.0103
1710.00,0.0108
1709.00,0.0114
1708.00,0.0121
1707.00,0.0129
1706.00,0.0136
1705.00,0.0144
1704.00,0.0151
1703.00,0.0157
1702.00,0.0163
1701.00,0.0172
1700.00,0.0187
1699.00,0.0203
1698.00,0.0220
1697.00,0.0244
1696.00,0.0282
1695.00,0.0332
1694.00,0.0387
1693.00,0.0445
1692.00,0.0509
1691.00,0.0576
1690.00,0.0637
1689.00,0.0679
1688.00,0.0699
1687.00,0.0701
1686.00,0.0693
1685.00,0.0690
1684.00,0.0703
1683.00,0.0729
1682.00,0.0760
1681.00,0.0795
1680.00,0.0829
1679.00,0.0855
1678.00,0.0863
1677.00,0.0850
1676.00,0.0814
1675.00,0.0760
1674.00,0.0700
1673.00,0.0642
1672.00,0.0588
1671.00,0.0533
1670.00,0.0480
1669.00,0.0432
1668.00,0.0394
1667.00,0.0365
1666.00,0.0342
1665.00,0.0323
1664.00,0.0304
1663.00,0.0288
1662.00,0.0275
1661.00,0.0265
1660.00,0.0256
1659.00,0.0249
1658.00,0.0244
1657.00,0.0242
1656.00,0.0241
1655.00,0.0243
1654.00,0.0256
1653.00,0.0281
1652.00,0.0310
1651.00,0.0333
1650.00,0.0352
1649.00,0.0370
1648.00,0.0386
1647.00,0.0396
1646.00,0.0395
1645.00,0.0385
1644.00,0.0368
1643.00,0.0348
1642.00,0.0328
1641.00,0.0308
1640.00,0.0290
1639.00,0.0275
1638.00,0.0263
1637.00,0.0253
1636.00,0.0247
1635.00,0.0245
1634.00,0.0249
1633.00,0.0257
1632.00,0.0265
1631.00,0.0275
1630.00,0.0286
1629.00,0.0296
1628.00,0.0304
1627.00,0.0309
1626.00,0.0311
1625.00,0.0312
1624.00,0.0311
1623.00,0.0311
1622.00,0.0312
1621.00,0.0311
1620.00,0.0309
1619.00,0.0306
1618.00,0.0301
1617.00,0.0294
1616.00,0.0286
1615.00,0.0276
1614.00,0.0267
1613.00,0.0258
1612.00,0.0248
1611.00,0.0239
1610.00,0.0233
1609.00,0.0228
1608.00,0.0227
1607.00,0.0230
1606.00,0.0236
1605.00,0.0243
1604.00,0.0247
1603.00,0.0243
1602.00,0.0233
1601.00,0.0217
1600.00,0.0199
1599.00,0.0183
1598.00,0.0169
1597.00,0.0159
1596.00,0.0151
1595.00,0.0145
1594.00,0.0140
1593.00,0.0135
1592.00,0.0130
1591.00,0.0125
1590.00,0.0120
1589.00,0.0115
1588.00,0.0111
1587.00,0.0107
1586.00,0.0104
1585.00,0.0101
1584.00,0.0099
1583.00,0.0098
1582.00,0.0097
1581.00,0.0098
1580.00,0.0100
1579.00,0.0104
1578.00,0.0109
1577.00,0.0117
1576.00,0.0126
1575.00,0.0132
1574.00,0.0133
1573.00,0.0130
1572.00,0.0124
1571.00,0.0117
1570.00,0.0111
1569.00,0.0107
1568.00,0.0104
1567.00,0.0102
1566.00,0.0101
1565.00,0.0100
1564.00,0.0100
1563.00,0.0100
1562.00,0.0101
1561.00,0.0101
1560.00,0.0102
1559.00,0.0102
1558.00,0.0102
1557.00,0.0102
1556.00,0.0103
1555.00,0.0103
1554.00,0.0103
1553.00,0.0103
1552.00,0.0104
1551.00,0.0105
1550.00,0.0107
1549.00,0.0107
1548.00,0.0108
1547.00,0.0110
1546.00,0.0115
1545.00,0.0120
1544.00,0.0125
1543.00,0.0128
1542.00,0.0134
1541.00,0.0143
1540.00,0.0159
1539.00,0.0181
1538.00,0.0207
1537.00,0.0234
1536.00,0.0268
1535.00,0.0317
1534.00,0.0387
1533.00,0.0470
1532.00,0.0548
1531.00,0.0614
1530.00,0.0668
1529.00,0.0710
1528.00,0.0736
1527.00,0.0740
1526.00,0.0723
1525.00,0.0689
1524.00,0.0647
1523.00,0.0600
1522.00,0.0548
1521.00,0.0495
1520.00,0.0449
1519.00,0.0415
1518.00,0.0386
1517.00,0.0360
1516.00,0.0337
1515.00,0.0318
1514.00,0.0302
1513.00,0.0288
1512.00,0.0278
1511.00,0.0271
1510.00,0.0269
1509.00,0.0271
1508.00,0.0278
1507.00,0.0293
1506.00,0.0315
1505.00,0.0339
1504.00,0.0366
1503.00,0.0395
1502.00,0.0429
1501.00,0.0466
1500.00,0.0505
1499.00,0.0544
1498.00,0.0580
1497.00,0.0609
1496.00,0.0629
1495.00,0.0638
1494.00,0.0638
1493.00,0.0632
1492.00,0.0621
1491.00,0.0608
1490.00,0.0592
1489.00,0.0572
1488.00,0.0549
1487.00,0.0525
1486.00,0.0501
1485.00,0.0478
1484.00,0.0457
1483.00,0.0436
1482.00,0.0417
1481.00,0.0400
1480.00,0.0385
1479.00,0.0372
1478.00,0.0361
1477.00,0.0350
1476.00,0.0340
1475.00,0.0329
1474.00,0.0318
1473.00,0.0307
1472.00,0.0296
1471.00,0.0288
1470.00,0.0282
1469.00,0.0279
1468.00,0.0276
1467.00,0.0274
1466.00,0.0272
1465.00,0.0269
1464.00,0.0266
1463.00,0.0262
1462.00,0.0258
1461.00,0.0255
1460.00,0.0253
1459.00,0.0252
1458.00,0.0251
1457.00,0.0250
1456.00,0.0248
1455.00,0.0244
1454.00,0.0241
1453.00,0.0239
1452.00,0.0238
1451.00,0.0239
1450.00,0.0242
1449.00,0.0248
1448.00,0.0258
1447.00,0.0271
1446.00,0.0286
1445.00,0.0300
1444.00,0.0312
1443.00,0.0321
1442.00,0.0328
1441.00,0.0337
1440.00,0.0349
1439.00,0.0369
1438.00,0.0400
1437.00,0.0444
1436.00,0.0493
1435.00,0.0537
1434.00,0.0571
1433.00,0.0598
1432.00,0.0611
1431.00,0.0605
1430.00,0.0579
1429.00,0.0538
1428.00,0.0493
1427.00,0.0451
1426.00,0.0413
1425.00,0.0380
1424.00,0.0350
1423.00,0.0325
1422.00,0.0305
1421.00,0.0288
1420.00,0.0272
1419.00,0.0257
1418.00,0.0243
1417.00,0.0230
1416.00,0.0218
1415.00,0.0207
1414.00,0.0197
1413.00,0.0189
1412.00,0.0182
1411.00,0.0175
1410.00,0.0170
1409.00,0.0165
1408.00,0.0160
1407.00,0.0156
1406.00,0.0153
1405.00,0.0149
1404.00,0.0145
1403.00,0.0142
1402.00,0.0139
1401.00,0.0137
1400.00,0.0136
1399.00,0.0136
1398.00,0.0135
1397.00,0.0135
1396.00,0.0135
1395.00,0.0136
1394.00,0.0137
1393.00,0.0139
1392.00,0.0143
1391.00,0.0148
1390.00,0.0155
1389.00,0.0162
1388.00,0.0169
1387.00,0.0175
1386.00,0.0179
1385.00,0.0183
1384.00,0.0188
1383.00,0.0196
1382.00,0.0205
1381.00,0.0213
1380.00,0.0219
1379.00,0.0219
1378.00,0.0214
1377.00,0.0204
1376.00,0.0192
1375.00,0.0179
1374.00,0.0167
1373.00,0.0157
1372.00,0.0148
1371.00,0.0142
1370.00,0.0139
1369.00,0.0137
1368.00,0.0136
1367.00,0.0137
1366.00,0.0140
1365.00,0.0147
1364.00,0.0156
1363.00,0.0167
1362.00,0.0180
1361.00,0.0193
1360.00,0.0207
1359.00,0.0224
1358.00,0.0245
1357.00,0.0270
1356.00,0.0302
1355.00,0.0345
1354.00,0.0400
1353.00,0.0467
1352.00,0.0541
1351.00,0.0612
1350.00,0.0667
1349.00,0.0694
1348.00,0.0690
1347.00,0.0661
1346.00,0.0621
1345.00,0.0583
1344.00,0.0555
1343.00,0.0540
1342.00,0.0533
1341.00,0.0530
1340.00,0.0523
1339.00,0.0508
1338.00,0.0486
1337.00,0.0457
1336.00,0.0426
1335.00,0.0394
1334.00,0.0364
1333.00,0.0337
1332.00,0.0313
1331.00,0.0294
1330.00,0.0280
1329.00,0.0271
1328.00,0.0266
1327.00,0.0265
1326.00,0.0269
1325.00,0.0280
1324.00,0.0299
1323.00,0.0327
1322.00,0.0359
1321.00,0.0393
1320.00,0.0423
1319.00,0.0448
1318.00,0.0467
1317.00,0.0483
1316.00,0.0500
1315.00,0.0520
1314.00,0.0542
1313.00,0.0562
1312.00,0.0580
1311.00,0.0594
1310.00,0.0603
1309.00,0.0605
1308.00,0.0597
1307.00,0.0580
1306.00,0.0556
1305.00,0.0528
1304.00,0.0500
1303.00,0.0472
1302.00,0.0445
1301.00,0.0421
1300.00,0.0399
1299.00,0.0381
1298.00,0.0365
1297.00,0.0352
1296.00,0.0341
1295.00,0.0335
1294.00,0.0333
1293.00,0.0334
1292.00,0.0336
1291.00,0.0339
1290.00,0.0338
1289.00,0.0334
1288.00,0.0326
1287.00,0.0316
1286.00,0.0306
1285.00,0.0297
1284.00,0.0289
1283.00,0.0283
1282.00,0.0279
1281.00,0.0276
1280.00,0.0273
1279.00,0.0273
1278.00,0.0273
1277.00,0.0274
1276.00,0.0277
1275.00,0.0280
1274.00,0.0284
1273.00,0.0288
1272.00,0.0292
1271.00,0.0296
1270.00,0.0297
1269.00,0.0294
1268.00,0.0286
1267.00,0.0274
1266.00,0.0260
1265.00,0.0245
1264.00,0.0230
1263.00,0.0218
1262.00,0.0208
1261.00,0.0201
1260.00,0.0195
1259.00,0.0190
1258.00,0.0187
1257.00,0.0184
1256.00,0.0183
1255.00,0.0182
1254.00,0.0182
1253.00,0.0183
1252.00,0.0185
1251.00,0.0188
1250.00,0.0191
1249.00,0.0196
1248.00,0.0200
1247.00,0.0206
1246.00,0.0213
1245.00,0.0221
1244.00,0.0232
1243.00,0.0247
1242.00,0.0266
1241.00,0.0291
1240.00,0.0321
1239.00,0.0353
1238.00,0.0386
1237.00,0.0420
1236.00,0.0460
1235.00,0.0510
1234.00,0.0572
1233.00,0.0647
1232.00,0.0730
1231.00,0.0818
1230.00,0.0907
1229.00,0.0993
1228.00,0.1071
1227.00,0.1132
1226.00,0.1172
1225.00,0.1186
1224.00,0.1174
1223.00,0.1141
1222.00,0.1094
1221.00,0.1040
1220.00,0.0983
1219.00,0.0928
1218.00,0.0876
1217.00,0.0828
1216.00,0.0783
1215.00,0.0741
1214.00,0.0701
1213.00,0.0663
1212.00,0.0626
1211.00,0.0591
1210.00,0.0558
1209.00,0.0527
1208.00,0.0497
1207.00,0.0471
1206.00,0.0446
1205.00,0.0424
1204.00,0.0403
1203.00,0.0386
1202.00,0.0371
1201.00,0.0359
1200.00,0.0351
1199.00,0.0348
1198.00,0.0352
1197.00,0.0365
1196.00,0.0389
1195.00,0.0425
1194.00,0.0474
1193.00,0.0529
1192.00,0.0584
1191.00,0.0629
1190.00,0.0656
1189.00,0.0660
1188.00,0.0642
1187.00,0.0608
1186.00,0.0566
1185.00,0.0523
1184.00,0.0483
1183.00,0.0447
1182.00,0.0416
1181.00,0.0387
1180.00,0.0361
1179.00,0.0337
1178.00,0.0317
1177.00,0.0300
1176.00,0.0286
1175.00,0.0275
1174.00,0.0268
1173.00,0.0263
1172.00,0.0261
1171.00,0.0263
1170.00,0.0271
1169.00,0.0285
1168.00,0.0305
1167.00,0.0332
1166.00,0.0358
1165.00,0.0379
1164.00,0.0387
1163.00,0.0379
1162.00,0.0359
1161.00,0.0332
1160.00,0.0305
1159.00,0.0284
1158.00,0.0274
1157.00,0.0278
1156.00,0.0296
1155.00,0.0328
1154.00,0.0369
1153.00,0.0405
1152.00,0.0425
1151.00,0.0422
1150.00,0.0399
1149.00,0.0366
1148.00,0.0331
1147.00,0.0300
1146.00,0.0275
1145.00,0.0256
1144.00,0.0240
1143.00,0.0228
1142.00,0.0220
1141.00,0.0215
1140.00,0.0213
1139.00,0.0215
1138.00,0.0218
1137.00,0.0222
1136.00,0.0226
1135.00,0.0229
1134.00,0.0233
1133.00,0.0238
1132.00,0.0246
1131.00,0.0260
1130.00,0.0282
1129.00,0.0314
1128.00,0.0358
1127.00,0.0419
1126.00,0.0495
1125.00,0.0585
1124.00,0.0680
1123.00,0.0769
1122.00,0.0841
1121.00,0.0885
1120.00,0.0899
1119.00,0.0886
1118.00,0.0852
1117.00,0.0806
1116.00,0.0753
1115.00,0.0700
1114.00,0.0650
1113.00,0.0605
1112.00,0.0567
1111.00,0.0538
1110.00,0.0518
1109.00,0.0509
1108.00,0.0513
1107.00,0.0530
1106.00,0.0560
1105.00,0.0602
1104.00,0.0647
1103.00,0.0689
1102.00,0.0718
1101.00,0.0729
1100.00,0.0720
1099.00,0.0695
1098.00,0.0660
1097.00,0.0619
1096.00,0.0577
1095.00,0.0537
1094.00,0.0500
1093.00,0.0467
1092.00,0.0436
1091.00,0.0407
1090.00,0.0382
1089.00,0.0359
1088.00,0.0339
1087.00,0.0321
1086.00,0.0306
1085.00,0.0292
1084.00,0.0281
1083.00,0.0271
1082.00,0.0263
1081.00,0.0255
1080.00,0.0249
1079.00,0.0243
1078.00,0.0239
1077.00,0.0236
1076.00,0.0233
1075.00,0.0233
1074.00,0.0235
1073.00,0.0238
1072.00,0.0242
1071.00,0.0244
1070.00,0.0244
1069.00,0.0240
1068.00,0.0234
1067.00,0.0227
1066.00,0.0222
1065.00,0.0219
1064.00,0.0219
1063.00,0.0223
1062.00,0.0232
1061.00,0.0247
1060.00,0.0267
1059.00,0.0293
1058.00,0.0323
1057.00,0.0352
1056.00,0.0376
1055.00,0.0390
1054.00,0.0395
1053.00,0.0389
1052.00,0.0378
1051.00,0.0366
1050.00,0.0355
1049.00,0.0343
1048.00,0.0331
1047.00,0.0318
1046.00,0.0306
1045.00,0.0295
1044.00,0.0287
1043.00,0.0282
1042.00,0.0280
1041.00,0.0280
1040.00,0.0280
1039.00,0.0282
1038.00,0.0284
1037.00,0.0287
1036.00,0.0289
1035.00,0.0292
1034.00,0.0297
1033.00,0.0303
1032.00,0.0312
1031.00,0.0325
1030.00,0.0342
1029.00,0.0364
1028.00,0.0392
1027.00,0.0425
1026.00,0.0462
1025.00,0.0499
1024.00,0.0533
1023.00,0.0558
1022.00,0.0573
1021.00,0.0575
1020.00,0.0564
1019.00,0.0545
1018.00,0.0519
1017.00,0.0489
1016.00,0.0459
1015.00,0.0428
1014.00,0.0400
1013.00,0.0375
1012.00,0.0351
1011.00,0.0330
1010.00,0.0312
1009.00,0.0296
1008.00,0.0281
1007.00,0.0269
1006.00,0.0260
1005.00,0.0252
1004.00,0.0247
1003.00,0.0242
1002.00,0.0238
1001.00,0.0232
1000.00,0.0224
999.00,0.0216
998.00,0.0209
997.00,0.0203
996.00,0.0198
995.00,0.0194
994.00,0.0190
993.00,0.0186
992.00,0.0182
991.00,0.0178
990.00,0.0176
989.00,0.0174
988.00,0.0171
987.00,0.0169
986.00,0.0167
985.00,0.0166
984.00,0.0164
983.00,0.0162
982.00,0.0160
981.00,0.0158
980.00,0.0156
979.00,0.0154
978.00,0.0153
977.00,0.0152
976.00,0.0150
975.00,0.0149
974.00,0.0149
973.00,0.0149
972.00,0.0151
971.00,0.0153
970.00,0.0156
969.00,0.0157
968.00,0.0156
967.00,0.0155
966.00,0.0155
965.00,0.0158
964.00,0.0164
963.00,0.0170
962.00,0.0172
961.00,0.0171
960.00,0.0167
959.00,0.0164
958.00,0.0166
957.00,0.0171
956.00,0.0179
955.00,0.0185
954.00,0.0188
953.00,0.0186
952.00,0.0180
951.00,0.0172
950.00,0.0164
949.00,0.0157
948.00,0.0151
947.00,0.0146
946.00,0.0142
945.00,0.0138
944.00,0.0134
943.00,0.0131
942.00,0.0129
941.00,0.0127
940.00,0.0125
939.00,0.0123
938.00,0.0122
937.00,0.0121
936.00,0.0119
935.00,0.0118
934.00,0.0117
933.00,0.0116
932.00,0.0115
931.00,0.0115
930.00,0.0114
929.00,0.0114
928.00,0.0113
927.00,0.0113
926.00,0.0113
925.00,0.0114
924.00,0.0115
923.00,0.0115
922.00,0.0116
921.00,0.0116
920.00,0.0114
919.00,0.0113
918.00,0.0111
917.00,0.0110
916.00,0.0108
915.00,0.0107
914.00,0.0107
913.00,0.0106
912.00,0.0106
911.00,0.0105
910.00,0.0105
909.00,0.0105
908.00,0.0104
907.00,0.0103
906.00,0.0103
905.00,0.0103
904.00,0.0102
903.00,0.0101
902.00,0.0101
901.00,0.0100
900.00,0.0100
899.00,0.0099
898.00,0.0099
897.00,0.0099
896.00,0.0098
895.00,0.0097
894.00,0.0097
893.00,0.0097
892.00,0.0097
891.00,0.0097
890.00,0.0097
889.00,0.0097
888.00,0.0097
887.00,0.0098
886.00,0.0100
885.00,0.0103
884.00,0.0105
883.00,0.0105
882.00,0.0104
881.00,0.0100
880.00,0.0097
879.00,0.0094
878.00,0.0093
877.00,0.0092
876.00,0.0092
875.00,0.0091
874.00,0.0091
873.00,0.0092
872.00,0.0092
871.00,0.0092
870.00,0.0093
869.00,0.0093
868.00,0.0094
867.00,0.0095
866.00,0.0097
865.00,0.0100
864.00,0.0107
863.00,0.0122
862.00,0.0154
861.00,0.0208
860.00,0.0271
859.00,0.0317
858.00,0.0324
857.00,0.0289
856.00,0.0235
855.00,0.0187
854.00,0.0154
853.00,0.0134
852.00,0.0122
851.00,0.0115
850.00,0.0111
849.00,0.0107
848.00,0.0104
847.00,0.0103
846.00,0.0103
845.00,0.0103
844.00,0.0103
843.00,0.0105
842.00,0.0108
841.00,0.0114
840.00,0.0123
839.00,0.0142
838.00,0.0172
837.00,0.0212
836.00,0.0257
835.00,0.0300
834.00,0.0336
833.00,0.0369
832.00,0.0403
831.00,0.0436
830.00,0.0461
829.00,0.0467
828.00,0.0449
827.00,0.0414
826.00,0.0371
825.00,0.0329
824.00,0.0292
823.00,0.0261
822.00,0.0236
821.00,0.0214
820.00,0.0194
819.00,0.0177
818.00,0.0163
817.00,0.0151
816.00,0.0141
815.00,0.0133
814.00,0.0127
813.00,0.0124
812.00,0.0123
811.00,0.0125
810.00,0.0130
809.00,0.0136
808.00,0.0143
807.00,0.0148
806.00,0.0149
805.00,0.0144
804.00,0.0136
803.00,0.0128
802.00,0.0125
801.00,0.0127
800.00,0.0138
799.00,0.0164
798.00,0.0219
797.00,0.0307
796.00,0.0418
795.00,0.0521
794.00,0.0578
793.00,0.0570
792.00,0.0513
791.00,0.0440
790.00,0.0377
789.00,0.0327
788.00,0.0287
787.00,0.0253
786.00,0.0226
785.00,0.0205
784.00,0.0189
783.00,0.0176
782.00,0.0168
781.00,0.0160
780.00,0.0154
779.00,0.0150
778.00,0.0148
777.00,0.0148
776.00,0.0152
775.00,0.0162
774.00,0.0174
773.00,0.0184
772.00,0.0185
771.00,0.0179
770.00,0.0172
769.00,0.0170
768.00,0.0182
767.00,0.0214
766.00,0.0269
765.00,0.0338
764.00,0.0402
763.00,0.0441
762.00,0.0441
761.00,0.0409
760.00,0.0362
759.00,0.0315
758.00,0.0279
757.00,0.0252
756.00,0.0233
755.00,0.0220
754.00,0.0213
753.00,0.0211
752.00,0.0216
751.00,0.0232
750.00,0.0262
749.00,0.0311
748.00,0.0377
747.00,0.0451
746.00,0.0514
745.00,0.0543
744.00,0.0531
743.00,0.0486
742.00,0.0427
741.00,0.0369
740.00,0.0318
739.00,0.0277
738.00,0.0245
737.00,0.0220
736.00,0.0199
735.00,0.0183
734.00,0.0172
733.00,0.0162
732.00,0.0155
731.00,0.0149
730.00,0.0145
729.00,0.0142
728.00,0.0139
727.00,0.0136
726.00,0.0134
725.00,0.0133
724.00,0.0133
723.00,0.0134
722.00,0.0138
721.00,0.0144
720.00,0.0153
719.00,0.0170
718.00,0.0201
717.00,0.0251
716.00,0.0326
715.00,0.0420
714.00,0.0513
713.00,0.0573
712.00,0.0579
711.00,0.0537
710.00,0.0469
709.00,0.0398
708.00,0.0338
707.00,0.0294
706.00,0.0263
705.00,0.0241
704.00,0.0225
703.00,0.0213
702.00,0.0205
701.00,0.0199
700.00,0.0194
699.00,0.0193
698.00,0.0195
697.00,0.0199
696.00,0.0205
695.00,0.0216
694.00,0.0232
693.00,0.0253
692.00,0.0279
691.00,0.0311
690.00,0.0348
689.00,0.0385
688.00,0.0415
687.00,0.0431
686.00,0.0431
685.00,0.0411
684.00,0.0379
683.00,0.0343
682.00,0.0311
681.00,0.0287
680.00,0.0271
679.00,0.0265
678.00,0.0269
677.00,0.0281
676.00,0.0296
675.00,0.0310
674.00,0.0318
673.00,0.0315
672.00,0.0302
671.00,0.0285
670.00,0.0270
669.00,0.0259
668.00,0.0252
667.00,0.0252
666.00,0.0256
665.00,0.0261
664.00,0.0265
663.00,0.0267
662.00,0.0267
661.00,0.0263
660.00,0.0255
659.00,0.0246
658.00,0.0237
657.00,0.0228
656.00,0.0218
655.00,0.0208
654.00,0.0199
653.00,0.0191
652.00,0.0183
651.00,0.0175
650.00,0.0168
649.00,0.0162
648.00,0.0155
647.00,0.0150
646.00,0.0147
645.00,0.0144
644.00,0.0139
643.00,0.0136
642.00,0.0133
641.00,0.0131
640.00,0.0127
639.00,0.0124
638.00,0.0123
637.00,0.0122
636.00,0.0122
635.00,0.0123
634.00,0.0125
633.00,0.0129
632.00,0.0133
631.00,0.0140
630.00,0.0153
629.00,0.0172
628.00,0.0198
627.00,0.0233
626.00,0.0274
625.00,0.0311
624.00,0.0337
623.00,0.0348
622.00,0.0344
621.00,0.0328
620.00,0.0305
619.00,0.0282
618.00,0.0261
617.00,0.0242
616.00,0.0226
615.00,0.0214
614.00,0.0206
613.00,0.0203
612.00,0.0203
611.00,0.0209
610.00,0.0218
609.00,0.0226
608.00,0.0228
607.00,0.0223
606.00,0.0214
605.00,0.0202
604.00,0.0189
603.00,0.0179
602.00,0.0171
601.00,0.0164
600.00,0.0156
599.00,0.0150
598.00,0.0148
597.00,0.0147
596.00,0.0148
595.00,0.0152
594.00,0.0162
593.00,0.0176
592.00,0.0191
591.00,0.0202
590.00,0.0208
589.00,0.0206
588.00,0.0201
587.00,0.0201
586.00,0.0208
585.00,0.0216
584.00,0.0218
583.00,0.0211
582.00,0.0200
581.00,0.0185
580.00,0.0170
579.00,0.0159
578.00,0.0153
577.00,0.0149
576.00,0.0145
575.00,0.0142
574.00,0.0142
573.00,0.0144
572.00,0.0147
571.00,0.0151
570.00,0.0158
569.00,0.0163
568.00,0.0166
567.00,0.0169
566.00,0.0175
565.00,0.0181
564.00,0.0183
563.00,0.0181
562.00,0.0176
561.00,0.0168
560.00,0.0157
559.00,0.0148
558.00,0.0141
557.00,0.0136
556.00,0.0130
555.00,0.0126
554.00,0.0124
553.00,0.0124
552.00,0.0124
551.00,0.0124
550.00,0.0124
549.00,0.0122
548.00,0.0117
547.00,0.0113
546.00,0.0113
545.00,0.0113
544.00,0.0111
543.00,0.0109
542.00,0.0110
541.00,0.0109
540.00,0.0107
539.00,0.0106
538.00,0.0108
537.00,0.0109
536.00,0.0108
535.00,0.0107
534.00,0.0107
533.00,0.0107
532.00,0.0105
531.00,0.0103
530.00,0.0103
529.00,0.0102
528.00,0.0100
527.00,0.0098
526.00,0.0100
525.00,0.0100
524.00,0.0097
523.00,0.0094
522.00,0.0094
521.00,0.0095
520.00,0.0094
519.00,0.0096
518.00,0.0101
517.00,0.0107
516.00,0.0109
515.00,0.0111
514.00,0.0115
513.00,0.0116
512.00,0.0114
511.00,0.0111
510.00,0.0110
509.00,0.0109
508.00,0.0105
507.00,0.0102
506.00,0.0102
505.00,0.0101
504.00,0.0100
503.00,0.0099
502.00,0.0101
501.00,0.0102
500.00,0.0099
499.00,0.0096
498.00,0.0096
497.00,0.0097
496.00,0.0096
495.00,0.0095
494.00,0.0098
493.00,0.0099
492.00,0.0096
491.00,0.0095
490.00,0.0097
489.00,0.0099
488.00,0.0098
487.00,0.0097
486.00,0.0099
485.00,0.0100
484.00,0.0099
483.00,0.0099
482.00,0.0103
481.00,0.0107
480.00,0.0108
479.00,0.0111
478.00,0.0118
477.00,0.0125
476.00,0.0131
475.00,0.0139
474.00,0.0154
473.00,0.0169
472.00,0.0180
471.00,0.0193
470.00,0.0208
469.00,0.0220
468.00,0.0223
467.00,0.0222
466.00,0.0220
465.00,0.0213
464.00,0.0200
463.00,0.0186
462.00,0.0178
461.00,0.0169
460.00,0.0157
459.00,0.0147
458.00,0.0144
457.00,0.0140
456.00,0.0132
455.00,0.0125
454.00,0.0123
453.00,0.0121
452.00,0.0113
451.00,0.0107
450.00,0.0109
449.00,0.0112
448.00,0.0110
447.00,0.0108
446.00,0.0111
445.00,0.0113
444.00,0.0110
443.00,0.0106
442.00,0.0106
441.00,0.0104
440.00,0.0099
439.00,0.0097
438.00,0.0101
437.00,0.0103
436.00,0.0097
435.00,0.0091
434.00,0.0093
433.00,0.0096
432.00,0.0093
431.00,0.0093
430.00,0.0102
429.00,0.0109
428.00,0.0108
427.00,0.0108
426.00,0.0115
425.00,0.0122
424.00,0.0122
423.00,0.0121
422.00,0.0127
421.00,0.0132
420.00,0.0131
419.00,0.0136
418.00,0.0154
417.00,0.0168
416.00,0.0172
415.00,0.0178
414.00,0.0196
413.00,0.0212
412.00,0.0212
411.00,0.0206
410.00,0.0206
409.00,0.0207
408.00,0.0199
407.00,0.0191
406.00,0.0190
405.00,0.0186
404.00,0.0171
403.00,0.0160
402.00,0.0163
401.00,0.0161
400.00,0.0144
