Created as New Dataset,Sample 871 By YargerLab Date Monday, July 21 2025
cm-1,A
4000.00,0.0044
3999.00,0.0044
3998.00,0.0044
3997.00,0.0044
3996.00,0.0044
3995.00,0.0044
3994.00,0.0044
3993.00,0.0044
3992.00,0.0044
3991.00,0.0044
3990.00,0.0044
3989.00,0.0044
3988.00,0.0044
3987.00,0.0044
3986.00,0.0044
3985.00,0.0044
3984.00,0.0044
3983.00,0.0044
3982.00,0.0044
3981.00,0.0044
3980.00,0.0045
3979.00,0.0045
3978.00,0.0045
3977.00,0.0045
3976.00,0.0044
3975.00,0.0044
3974.00,0.0044
3973.00,0.0045
3972.00,0.0045
3971.00,0.0045
3970.00,0.0045
3969.00,0.0045
3968.00,0.0045
3967.00,0.0045
3966.00,0.0044
3965.00,0.0045
3964.00,0.0045
3963.00,0.0045
3962.00,0.0045
3961.00,0.0045
3960.00,0.0045
3959.00,0.0045
3958.00,0.0045
3957.00,0.0045
3956.00,0.0045
3955.00,0.0045
3954.00,0.0045
3953.00,0.0045
3952.00,0.0045
3951.00,0.0045
3950.00,0.0045
3949.00,0.0045
3948.00,0.0045
3947.00,0.0045
3946.00,0.0045
3945.00,0.0045
3944.00,0.0045
3943.00,0.0045
3942.00,0.0044
3941.00,0.0044
3940.00,0.0044
3939.00,0.0044
3938.00,0.0044
3937.00,0.0045
3936.00,0.0045
3935.00,0.0045
3934.00,0.0045
3933.00,0.0045
3932.00,0.0045
3931.00,0.0045
3930.00,0.0045
3929.00,0.0045
3928.00,0.0045
3927.00,0.0045
3926.00,0.0045
3925.00,0.0045
3924.00,0.0045
3923.00,0.0045
3922.00,0.0045
3921.00,0.0045
3920.00,0.0045
3919.00,0.0045
3918.00,0.0045
3917.00,0.0045
3916.00,0.0045
3915.00,0.0045
3914.00,0.0045
3913.00,0.0045
3912.00,0.0045
3911.00,0.0045
3910.00,0.0045
3909.00,0.0045
3908.00,0.0045
3907.00,0.0045
3906.00,0.0045
3905.00,0.0045
3904.00,0.0045
3903.00,0.0045
3902.00,0.0044
3901.00,0.0044
3900.00,0.0044
3899.00,0.0044
3898.00,0.0044
3897.00,0.0044
3896.00,0.0044
3895.00,0.0044
3894.00,0.0044
3893.00,0.0044
3892.00,0.0044
3891.00,0.0044
3890.00,0.0044
3889.00,0.0044
3888.00,0.0044
3887.00,0.0044
3886.00,0.0044
3885.00,0.0044
3884.00,0.0043
3883.00,0.0043
3882.00,0.0043
3881.00,0.0043
3880.00,0.0043
3879.00,0.0044
3878.00,0.0044
3877.00,0.0044
3876.00,0.0044
3875.00,0.0044
3874.00,0.0044
3873.00,0.0043
3872.00,0.0043
3871.00,0.0043
3870.00,0.0043
3869.00,0.0043
3868.00,0.0043
3867.00,0.0043
3866.00,0.0043
3865.00,0.0043
3864.00,0.0043
3863.00,0.0043
3862.00,0.0043
3861.00,0.0044
3860.00,0.0044
3859.00,0.0044
3858.00,0.0043
3857.00,0.0043
3856.00,0.0042
3855.00,0.0042
3854.00,0.0041
3853.00,0.0041
3852.00,0.0041
3851.00,0.0041
3850.00,0.0041
3849.00,0.0042
3848.00,0.0042
3847.00,0.0042
3846.00,0.0043
3845.00,0.0043
3844.00,0.0043
3843.00,0.0043
3842.00,0.0043
3841.00,0.0043
3840.00,0.0043
3839.00,0.0042
3838.00,0.0042
3837.00,0.0042
3836.00,0.0042
3835.00,0.0042
3834.00,0.0042
3833.00,0.0042
3832.00,0.0042
3831.00,0.0043
3830.00,0.0043
3829.00,0.0043
3828.00,0.0042
3827.00,0.0042
3826.00,0.0042
3825.00,0.0042
3824.00,0.0042
3823.00,0.0041
3822.00,0.0041
3821.00,0.0041
3820.00,0.0042
3819.00,0.0041
3818.00,0.0041
3817.00,0.0041
3816.00,0.0042
3815.00,0.0042
3814.00,0.0042
3813.00,0.0042
3812.00,0.0042
3811.00,0.0043
3810.00,0.0043
3809.00,0.0043
3808.00,0.0043
3807.00,0.0043
3806.00,0.0043
3805.00,0.0042
3804.00,0.0041
3803.00,0.0041
3802.00,0.0041
3801.00,0.0041
3800.00,0.0042
3799.00,0.0042
3798.00,0.0042
3797.00,0.0043
3796.00,0.0043
3795.00,0.0043
3794.00,0.0043
3793.00,0.0043
3792.00,0.0043
3791.00,0.0043
3790.00,0.0043
3789.00,0.0043
3788.00,0.0043
3787.00,0.0043
3786.00,0.0043
3785.00,0.0043
3784.00,0.0043
3783.00,0.0042
3782.00,0.0042
3781.00,0.0042
3780.00,0.0042
3779.00,0.0043
3778.00,0.0043
3777.00,0.0042
3776.00,0.0042
3775.00,0.0043
3774.00,0.0043
3773.00,0.0043
3772.00,0.0043
3771.00,0.0043
3770.00,0.0043
3769.00,0.0043
3768.00,0.0043
3767.00,0.0043
3766.00,0.0043
3765.00,0.0043
3764.00,0.0043
3763.00,0.0043
3762.00,0.0043
3761.00,0.0043
3760.00,0.0043
3759.00,0.0043
3758.00,0.0043
3757.00,0.0042
3756.00,0.0042
3755.00,0.0042
3754.00,0.0042
3753.00,0.0042
3752.00,0.0042
3751.00,0.0042
3750.00,0.0042
3749.00,0.0042
3748.00,0.0042
3747.00,0.0042
3746.00,0.0041
3745.00,0.0041
3744.00,0.0041
3743.00,0.0041
3742.00,0.0041
3741.00,0.0041
3740.00,0.0041
3739.00,0.0041
3738.00,0.0042
3737.00,0.0042
3736.00,0.0042
3735.00,0.0042
3734.00,0.0041
3733.00,0.0041
3732.00,0.0040
3731.00,0.0040
3730.00,0.0040
3729.00,0.0040
3728.00,0.0040
3727.00,0.0041
3726.00,0.0041
3725.00,0.0041
3724.00,0.0041
3723.00,0.0041
3722.00,0.0041
3721.00,0.0041
3720.00,0.0040
3719.00,0.0040
3718.00,0.0040
3717.00,0.0041
3716.00,0.0041
3715.00,0.0041
3714.00,0.0041
3713.00,0.0041
3712.00,0.0041
3711.00,0.0041
3710.00,0.0041
3709.00,0.0041
3708.00,0.0040
3707.00,0.0040
3706.00,0.0040
3705.00,0.0040
3704.00,0.0040
3703.00,0.0040
3702.00,0.0040
3701.00,0.0040
3700.00,0.0041
3699.00,0.0041
3698.00,0.0041
3697.00,0.0041
3696.00,0.0041
3695.00,0.0041
3694.00,0.0041
3693.00,0.0041
3692.00,0.0040
3691.00,0.0040
3690.00,0.0040
3689.00,0.0040
3688.00,0.0040
3687.00,0.0040
3686.00,0.0040
3685.00,0.0041
3684.00,0.0041
3683.00,0.0041
3682.00,0.0042
3681.00,0.0042
3680.00,0.0042
3679.00,0.0042
3678.00,0.0042
3677.00,0.0042
3676.00,0.0041
3675.00,0.0041
3674.00,0.0041
3673.00,0.0041
3672.00,0.0040
3671.00,0.0041
3670.00,0.0041
3669.00,0.0041
3668.00,0.0041
3667.00,0.0041
3666.00,0.0041
3665.00,0.0042
3664.00,0.0042
3663.00,0.0042
3662.00,0.0043
3661.00,0.0043
3660.00,0.0043
3659.00,0.0043
3658.00,0.0043
3657.00,0.0043
3656.00,0.0043
3655.00,0.0043
3654.00,0.0043
3653.00,0.0043
3652.00,0.0043
3651.00,0.0043
3650.00,0.0043
3649.00,0.0044
3648.00,0.0044
3647.00,0.0044
3646.00,0.0044
3645.00,0.0044
3644.00,0.0044
3643.00,0.0044
3642.00,0.0044
3641.00,0.0044
3640.00,0.0045
3639.00,0.0045
3638.00,0.0045
3637.00,0.0045
3636.00,0.0045
3635.00,0.0045
3634.00,0.0045
3633.00,0.0046
3632.00,0.0046
3631.00,0.0046
3630.00,0.0045
3629.00,0.0046
3628.00,0.0046
3627.00,0.0046
3626.00,0.0047
3625.00,0.0047
3624.00,0.0047
3623.00,0.0048
3622.00,0.0048
3621.00,0.0048
3620.00,0.0048
3619.00,0.0048
3618.00,0.0049
3617.00,0.0050
3616.00,0.0050
3615.00,0.0051
3614.00,0.0052
3613.00,0.0052
3612.00,0.0052
3611.00,0.0053
3610.00,0.0053
3609.00,0.0053
3608.00,0.0053
3607.00,0.0054
3606.00,0.0054
3605.00,0.0054
3604.00,0.0054
3603.00,0.0055
3602.00,0.0055
3601.00,0.0055
3600.00,0.0056
3599.00,0.0056
3598.00,0.0056
3597.00,0.0056
3596.00,0.0057
3595.00,0.0057
3594.00,0.0058
3593.00,0.0059
3592.00,0.0059
3591.00,0.0060
3590.00,0.0060
3589.00,0.0061
3588.00,0.0061
3587.00,0.0061
3586.00,0.0062
3585.00,0.0062
3584.00,0.0063
3583.00,0.0063
3582.00,0.0064
3581.00,0.0065
3580.00,0.0065
3579.00,0.0066
3578.00,0.0066
3577.00,0.0067
3576.00,0.0068
3575.00,0.0068
3574.00,0.0069
3573.00,0.0070
3572.00,0.0070
3571.00,0.0071
3570.00,0.0072
3569.00,0.0073
3568.00,0.0073
3567.00,0.0074
3566.00,0.0075
3565.00,0.0076
3564.00,0.0077
3563.00,0.0078
3562.00,0.0078
3561.00,0.0079
3560.00,0.0080
3559.00,0.0081
3558.00,0.0083
3557.00,0.0084
3556.00,0.0085
3555.00,0.0086
3554.00,0.0087
3553.00,0.0089
3552.00,0.0090
3551.00,0.0091
3550.00,0.0093
3549.00,0.0095
3548.00,0.0096
3547.00,0.0098
3546.00,0.0100
3545.00,0.0102
3544.00,0.0105
3543.00,0.0107
3542.00,0.0110
3541.00,0.0113
3540.00,0.0116
3539.00,0.0120
3538.00,0.0124
3537.00,0.0128
3536.00,0.0133
3535.00,0.0139
3534.00,0.0146
3533.00,0.0153
3532.00,0.0162
3531.00,0.0172
3530.00,0.0184
3529.00,0.0198
3528.00,0.0214
3527.00,0.0230
3526.00,0.0247
3525.00,0.0263
3524.00,0.0277
3523.00,0.0290
3522.00,0.0299
3521.00,0.0306
3520.00,0.0309
3519.00,0.0308
3518.00,0.0305
3517.00,0.0299
3516.00,0.0290
3515.00,0.0281
3514.00,0.0271
3513.00,0.0260
3512.00,0.0250
3511.00,0.0240
3510.00,0.0230
3509.00,0.0222
3508.00,0.0214
3507.00,0.0208
3506.00,0.0203
3505.00,0.0199
3504.00,0.0196
3503.00,0.0193
3502.00,0.0191
3501.00,0.0189
3500.00,0.0188
3499.00,0.0187
3498.00,0.0187
3497.00,0.0187
3496.00,0.0187
3495.00,0.0188
3494.00,0.0189
3493.00,0.0190
3492.00,0.0190
3491.00,0.0192
3490.00,0.0193
3489.00,0.0194
3488.00,0.0196
3487.00,0.0198
3486.00,0.0199
3485.00,0.0201
3484.00,0.0203
3483.00,0.0206
3482.00,0.0208
3481.00,0.0211
3480.00,0.0213
3479.00,0.0216
3478.00,0.0218
3477.00,0.0221
3476.00,0.0224
3475.00,0.0228
3474.00,0.0231
3473.00,0.0234
3472.00,0.0237
3471.00,0.0241
3470.00,0.0244
3469.00,0.0248
3468.00,0.0251
3467.00,0.0255
3466.00,0.0259
3465.00,0.0263
3464.00,0.0267
3463.00,0.0270
3462.00,0.0274
3461.00,0.0278
3460.00,0.0282
3459.00,0.0286
3458.00,0.0290
3457.00,0.0294
3456.00,0.0298
3455.00,0.0301
3454.00,0.0305
3453.00,0.0309
3452.00,0.0313
3451.00,0.0316
3450.00,0.0320
3449.00,0.0323
3448.00,0.0327
3447.00,0.0330
3446.00,0.0333
3445.00,0.0337
3444.00,0.0341
3443.00,0.0344
3442.00,0.0347
3441.00,0.0351
3440.00,0.0354
3439.00,0.0357
3438.00,0.0360
3437.00,0.0364
3436.00,0.0367
3435.00,0.0370
3434.00,0.0373
3433.00,0.0376
3432.00,0.0378
3431.00,0.0381
3430.00,0.0384
3429.00,0.0387
3428.00,0.0390
3427.00,0.0393
3426.00,0.0396
3425.00,0.0399
3424.00,0.0403
3423.00,0.0406
3422.00,0.0411
3421.00,0.0415
3420.00,0.0420
3419.00,0.0425
3418.00,0.0430
3417.00,0.0435
3416.00,0.0440
3415.00,0.0446
3414.00,0.0451
3413.00,0.0456
3412.00,0.0460
3411.00,0.0463
3410.00,0.0466
3409.00,0.0467
3408.00,0.0468
3407.00,0.0467
3406.00,0.0465
3405.00,0.0461
3404.00,0.0456
3403.00,0.0450
3402.00,0.0443
3401.00,0.0434
3400.00,0.0425
3399.00,0.0414
3398.00,0.0403
3397.00,0.0392
3396.00,0.0381
3395.00,0.0370
3394.00,0.0360
3393.00,0.0349
3392.00,0.0339
3391.00,0.0330
3390.00,0.0321
3389.00,0.0313
3388.00,0.0305
3387.00,0.0298
3386.00,0.0291
3385.00,0.0285
3384.00,0.0278
3383.00,0.0273
3382.00,0.0267
3381.00,0.0262
3380.00,0.0258
3379.00,0.0253
3378.00,0.0248
3377.00,0.0244
3376.00,0.0240
3375.00,0.0236
3374.00,0.0233
3373.00,0.0229
3372.00,0.0226
3371.00,0.0223
3370.00,0.0219
3369.00,0.0216
3368.00,0.0213
3367.00,0.0210
3366.00,0.0207
3365.00,0.0205
3364.00,0.0202
3363.00,0.0200
3362.00,0.0197
3361.00,0.0195
3360.00,0.0193
3359.00,0.0190
3358.00,0.0188
3357.00,0.0186
3356.00,0.0184
3355.00,0.0182
3354.00,0.0180
3353.00,0.0178
3352.00,0.0175
3351.00,0.0174
3350.00,0.0172
3349.00,0.0170
3348.00,0.0169
3347.00,0.0167
3346.00,0.0166
3345.00,0.0164
3344.00,0.0163
3343.00,0.0161
3342.00,0.0160
3341.00,0.0158
3340.00,0.0157
3339.00,0.0156
3338.00,0.0154
3337.00,0.0153
3336.00,0.0153
3335.00,0.0152
3334.00,0.0151
3333.00,0.0150
3332.00,0.0149
3331.00,0.0148
3330.00,0.0147
3329.00,0.0146
3328.00,0.0144
3327.00,0.0143
3326.00,0.0142
3325.00,0.0141
3324.00,0.0141
3323.00,0.0140
3322.00,0.0140
3321.00,0.0139
3320.00,0.0139
3319.00,0.0138
3318.00,0.0137
3317.00,0.0136
3316.00,0.0135
3315.00,0.0134
3314.00,0.0134
3313.00,0.0133
3312.00,0.0132
3311.00,0.0131
3310.00,0.0129
3309.00,0.0128
3308.00,0.0127
3307.00,0.0126
3306.00,0.0125
3305.00,0.0125
3304.00,0.0125
3303.00,0.0125
3302.00,0.0124
3301.00,0.0124
3300.00,0.0123
3299.00,0.0123
3298.00,0.0122
3297.00,0.0121
3296.00,0.0120
3295.00,0.0120
3294.00,0.0119
3293.00,0.0118
3292.00,0.0118
3291.00,0.0117
3290.00,0.0117
3289.00,0.0117
3288.00,0.0117
3287.00,0.0116
3286.00,0.0116
3285.00,0.0115
3284.00,0.0114
3283.00,0.0114
3282.00,0.0113
3281.00,0.0113
3280.00,0.0112
3279.00,0.0112
3278.00,0.0111
3277.00,0.0110
3276.00,0.0109
3275.00,0.0109
3274.00,0.0108
3273.00,0.0107
3272.00,0.0106
3271.00,0.0106
3270.00,0.0106
3269.00,0.0106
3268.00,0.0106
3267.00,0.0106
3266.00,0.0106
3265.00,0.0106
3264.00,0.0105
3263.00,0.0105
3262.00,0.0105
3261.00,0.0104
3260.00,0.0104
3259.00,0.0103
3258.00,0.0103
3257.00,0.0102
3256.00,0.0101
3255.00,0.0101
3254.00,0.0101
3253.00,0.0101
3252.00,0.0101
3251.00,0.0101
3250.00,0.0100
3249.00,0.0099
3248.00,0.0098
3247.00,0.0098
3246.00,0.0097
3245.00,0.0097
3244.00,0.0097
3243.00,0.0097
3242.00,0.0096
3241.00,0.0096
3240.00,0.0095
3239.00,0.0095
3238.00,0.0094
3237.00,0.0093
3236.00,0.0093
3235.00,0.0092
3234.00,0.0091
3233.00,0.0091
3232.00,0.0090
3231.00,0.0090
3230.00,0.0090
3229.00,0.0090
3228.00,0.0089
3227.00,0.0089
3226.00,0.0089
3225.00,0.0089
3224.00,0.0088
3223.00,0.0088
3222.00,0.0088
3221.00,0.0087
3220.00,0.0087
3219.00,0.0087
3218.00,0.0086
3217.00,0.0086
3216.00,0.0086
3215.00,0.0086
3214.00,0.0085
3213.00,0.0085
3212.00,0.0084
3211.00,0.0084
3210.00,0.0084
3209.00,0.0084
3208.00,0.0083
3207.00,0.0083
3206.00,0.0083
3205.00,0.0082
3204.00,0.0082
3203.00,0.0082
3202.00,0.0082
3201.00,0.0082
3200.00,0.0082
3199.00,0.0081
3198.00,0.0081
3197.00,0.0080
3196.00,0.0080
3195.00,0.0079
3194.00,0.0079
3193.00,0.0079
3192.00,0.0079
3191.00,0.0079
3190.00,0.0078
3189.00,0.0078
3188.00,0.0078
3187.00,0.0077
3186.00,0.0077
3185.00,0.0077
3184.00,0.0076
3183.00,0.0076
3182.00,0.0076
3181.00,0.0076
3180.00,0.0076
3179.00,0.0076
3178.00,0.0076
3177.00,0.0076
3176.00,0.0077
3175.00,0.0076
3174.00,0.0076
3173.00,0.0076
3172.00,0.0076
3171.00,0.0076
3170.00,0.0076
3169.00,0.0076
3168.00,0.0075
3167.00,0.0075
3166.00,0.0075
3165.00,0.0075
3164.00,0.0075
3163.00,0.0075
3162.00,0.0075
3161.00,0.0074
3160.00,0.0074
3159.00,0.0074
3158.00,0.0073
3157.00,0.0073
3156.00,0.0073
3155.00,0.0072
3154.00,0.0071
3153.00,0.0071
3152.00,0.0070
3151.00,0.0070
3150.00,0.0070
3149.00,0.0070
3148.00,0.0070
3147.00,0.0070
3146.00,0.0070
3145.00,0.0070
3144.00,0.0070
3143.00,0.0069
3142.00,0.0069
3141.00,0.0069
3140.00,0.0069
3139.00,0.0068
3138.00,0.0068
3137.00,0.0068
3136.00,0.0068
3135.00,0.0068
3134.00,0.0068
3133.00,0.0068
3132.00,0.0068
3131.00,0.0067
3130.00,0.0067
3129.00,0.0067
3128.00,0.0066
3127.00,0.0066
3126.00,0.0066
3125.00,0.0066
3124.00,0.0066
3123.00,0.0066
3122.00,0.0066
3121.00,0.0066
3120.00,0.0066
3119.00,0.0065
3118.00,0.0065
3117.00,0.0065
3116.00,0.0065
3115.00,0.0065
3114.00,0.0064
3113.00,0.0064
3112.00,0.0064
3111.00,0.0064
3110.00,0.0064
3109.00,0.0064
3108.00,0.0064
3107.00,0.0064
3106.00,0.0064
3105.00,0.0064
3104.00,0.0064
3103.00,0.0064
3102.00,0.0064
3101.00,0.0064
3100.00,0.0064
3099.00,0.0064
3098.00,0.0064
3097.00,0.0065
3096.00,0.0065
3095.00,0.0066
3094.00,0.0066
3093.00,0.0066
3092.00,0.0066
3091.00,0.0067
3090.00,0.0067
3089.00,0.0067
3088.00,0.0068
3087.00,0.0069
3086.00,0.0070
3085.00,0.0071
3084.00,0.0072
3083.00,0.0074
3082.00,0.0077
3081.00,0.0080
3080.00,0.0085
3079.00,0.0091
3078.00,0.0098
3077.00,0.0104
3076.00,0.0110
3075.00,0.0113
3074.00,0.0113
3073.00,0.0110
3072.00,0.0106
3071.00,0.0100
3070.00,0.0094
3069.00,0.0088
3068.00,0.0083
3067.00,0.0080
3066.00,0.0077
3065.00,0.0075
3064.00,0.0073
3063.00,0.0072
3062.00,0.0071
3061.00,0.0070
3060.00,0.0069
3059.00,0.0068
3058.00,0.0068
3057.00,0.0067
3056.00,0.0067
3055.00,0.0066
3054.00,0.0066
3053.00,0.0066
3052.00,0.0066
3051.00,0.0066
3050.00,0.0067
3049.00,0.0067
3048.00,0.0067
3047.00,0.0068
3046.00,0.0069
3045.00,0.0070
3044.00,0.0070
3043.00,0.0071
3042.00,0.0072
3041.00,0.0072
3040.00,0.0073
3039.00,0.0074
3038.00,0.0075
3037.00,0.0076
3036.00,0.0077
3035.00,0.0078
3034.00,0.0079
3033.00,0.0079
3032.00,0.0080
3031.00,0.0079
3030.00,0.0079
3029.00,0.0078
3028.00,0.0077
3027.00,0.0076
3026.00,0.0075
3025.00,0.0074
3024.00,0.0074
3023.00,0.0073
3022.00,0.0073
3021.00,0.0073
3020.00,0.0073
3019.00,0.0073
3018.00,0.0073
3017.00,0.0073
3016.00,0.0073
3015.00,0.0074
3014.00,0.0074
3013.00,0.0075
3012.00,0.0076
3011.00,0.0077
3010.00,0.0078
3009.00,0.0080
3008.00,0.0081
3007.00,0.0082
3006.00,0.0083
3005.00,0.0084
3004.00,0.0086
3003.00,0.0087
3002.00,0.0088
3001.00,0.0090
3000.00,0.0092
2999.00,0.0094
2998.00,0.0096
2997.00,0.0098
2996.00,0.0100
2995.00,0.0103
2994.00,0.0105
2993.00,0.0108
2992.00,0.0111
2991.00,0.0114
2990.00,0.0117
2989.00,0.0120
2988.00,0.0122
2987.00,0.0125
2986.00,0.0127
2985.00,0.0130
2984.00,0.0132
2983.00,0.0136
2982.00,0.0140
2981.00,0.0145
2980.00,0.0150
2979.00,0.0157
2978.00,0.0164
2977.00,0.0173
2976.00,0.0183
2975.00,0.0194
2974.00,0.0206
2973.00,0.0220
2972.00,0.0234
2971.00,0.0249
2970.00,0.0264
2969.00,0.0277
2968.00,0.0290
2967.00,0.0300
2966.00,0.0307
2965.00,0.0312
2964.00,0.0315
2963.00,0.0316
2962.00,0.0316
2961.00,0.0315
2960.00,0.0313
2959.00,0.0310
2958.00,0.0305
2957.00,0.0299
2956.00,0.0293
2955.00,0.0287
2954.00,0.0281
2953.00,0.0275
2952.00,0.0271
2951.00,0.0267
2950.00,0.0266
2949.00,0.0267
2948.00,0.0271
2947.00,0.0278
2946.00,0.0287
2945.00,0.0298
2944.00,0.0310
2943.00,0.0322
2942.00,0.0334
2941.00,0.0345
2940.00,0.0356
2939.00,0.0367
2938.00,0.0378
2937.00,0.0391
2936.00,0.0404
2935.00,0.0419
2934.00,0.0434
2933.00,0.0450
2932.00,0.0466
2931.00,0.0481
2930.00,0.0497
2929.00,0.0511
2928.00,0.0524
2927.00,0.0535
2926.00,0.0543
2925.00,0.0547
2924.00,0.0548
2923.00,0.0545
2922.00,0.0541
2921.00,0.0536
2920.00,0.0531
2919.00,0.0526
2918.00,0.0521
2917.00,0.0516
2916.00,0.0510
2915.00,0.0502
2914.00,0.0492
2913.00,0.0480
2912.00,0.0467
2911.00,0.0452
2910.00,0.0437
2909.00,0.0422
2908.00,0.0408
2907.00,0.0394
2906.00,0.0381
2905.00,0.0370
2904.00,0.0360
2903.00,0.0352
2902.00,0.0345
2901.00,0.0338
2900.00,0.0331
2899.00,0.0324
2898.00,0.0316
2897.00,0.0308
2896.00,0.0300
2895.00,0.0292
2894.00,0.0284
2893.00,0.0278
2892.00,0.0272
2891.00,0.0267
2890.00,0.0263
2889.00,0.0260
2888.00,0.0258
2887.00,0.0256
2886.00,0.0255
2885.00,0.0253
2884.00,0.0253
2883.00,0.0252
2882.00,0.0252
2881.00,0.0252
2880.00,0.0253
2879.00,0.0255
2878.00,0.0257
2877.00,0.0259
2876.00,0.0263
2875.00,0.0267
2874.00,0.0270
2873.00,0.0274
2872.00,0.0276
2871.00,0.0276
2870.00,0.0275
2869.00,0.0272
2868.00,0.0270
2867.00,0.0267
2866.00,0.0267
2865.00,0.0270
2864.00,0.0275
2863.00,0.0285
2862.00,0.0297
2861.00,0.0314
2860.00,0.0333
2859.00,0.0353
2858.00,0.0371
2857.00,0.0385
2856.00,0.0393
2855.00,0.0392
2854.00,0.0382
2853.00,0.0366
2852.00,0.0346
2851.00,0.0324
2850.00,0.0302
2849.00,0.0280
2848.00,0.0260
2847.00,0.0242
2846.00,0.0225
2845.00,0.0210
2844.00,0.0197
2843.00,0.0187
2842.00,0.0178
2841.00,0.0171
2840.00,0.0166
2839.00,0.0163
2838.00,0.0162
2837.00,0.0162
2836.00,0.0165
2835.00,0.0170
2834.00,0.0178
2833.00,0.0187
2832.00,0.0198
2831.00,0.0207
2830.00,0.0212
2829.00,0.0213
2828.00,0.0208
2827.00,0.0197
2826.00,0.0184
2825.00,0.0169
2824.00,0.0156
2823.00,0.0144
2822.00,0.0134
2821.00,0.0126
2820.00,0.0120
2819.00,0.0114
2818.00,0.0110
2817.00,0.0107
2816.00,0.0104
2815.00,0.0101
2814.00,0.0099
2813.00,0.0097
2812.00,0.0095
2811.00,0.0094
2810.00,0.0092
2809.00,0.0091
2808.00,0.0089
2807.00,0.0088
2806.00,0.0087
2805.00,0.0086
2804.00,0.0085
2803.00,0.0084
2802.00,0.0083
2801.00,0.0082
2800.00,0.0081
2799.00,0.0080
2798.00,0.0079
2797.00,0.0079
2796.00,0.0078
2795.00,0.0077
2794.00,0.0077
2793.00,0.0076
2792.00,0.0075
2791.00,0.0075
2790.00,0.0074
2789.00,0.0074
2788.00,0.0073
2787.00,0.0073
2786.00,0.0072
2785.00,0.0072
2784.00,0.0072
2783.00,0.0071
2782.00,0.0071
2781.00,0.0070
2780.00,0.0070
2779.00,0.0069
2778.00,0.0069
2777.00,0.0069
2776.00,0.0068
2775.00,0.0068
2774.00,0.0068
2773.00,0.0067
2772.00,0.0067
2771.00,0.0067
2770.00,0.0066
2769.00,0.0066
2768.00,0.0066
2767.00,0.0066
2766.00,0.0066
2765.00,0.0066
2764.00,0.0065
2763.00,0.0065
2762.00,0.0065
2761.00,0.0064
2760.00,0.0064
2759.00,0.0064
2758.00,0.0064
2757.00,0.0064
2756.00,0.0064
2755.00,0.0064
2754.00,0.0064
2753.00,0.0064
2752.00,0.0064
2751.00,0.0063
2750.00,0.0063
2749.00,0.0064
2748.00,0.0064
2747.00,0.0064
2746.00,0.0064
2745.00,0.0064
2744.00,0.0065
2743.00,0.0065
2742.00,0.0065
2741.00,0.0065
2740.00,0.0066
2739.00,0.0066
2738.00,0.0067
2737.00,0.0067
2736.00,0.0068
2735.00,0.0068
2734.00,0.0069
2733.00,0.0070
2732.00,0.0071
2731.00,0.0072
2730.00,0.0073
2729.00,0.0073
2728.00,0.0073
2727.00,0.0073
2726.00,0.0072
2725.00,0.0071
2724.00,0.0070
2723.00,0.0069
2722.00,0.0068
2721.00,0.0067
2720.00,0.0066
2719.00,0.0066
2718.00,0.0065
2717.00,0.0064
2716.00,0.0064
2715.00,0.0063
2714.00,0.0063
2713.00,0.0063
2712.00,0.0062
2711.00,0.0062
2710.00,0.0062
2709.00,0.0062
2708.00,0.0062
2707.00,0.0061
2706.00,0.0061
2705.00,0.0061
2704.00,0.0060
2703.00,0.0060
2702.00,0.0060
2701.00,0.0060
2700.00,0.0060
2699.00,0.0060
2698.00,0.0060
2697.00,0.0060
2696.00,0.0060
2695.00,0.0060
2694.00,0.0060
2693.00,0.0060
2692.00,0.0060
2691.00,0.0060
2690.00,0.0060
2689.00,0.0060
2688.00,0.0060
2687.00,0.0060
2686.00,0.0060
2685.00,0.0060
2684.00,0.0061
2683.00,0.0061
2682.00,0.0061
2681.00,0.0061
2680.00,0.0061
2679.00,0.0061
2678.00,0.0062
2677.00,0.0062
2676.00,0.0062
2675.00,0.0062
2674.00,0.0062
2673.00,0.0062
2672.00,0.0062
2671.00,0.0062
2670.00,0.0063
2669.00,0.0063
2668.00,0.0063
2667.00,0.0064
2666.00,0.0064
2665.00,0.0064
2664.00,0.0065
2663.00,0.0065
2662.00,0.0065
2661.00,0.0065
2660.00,0.0065
2659.00,0.0065
2658.00,0.0065
2657.00,0.0065
2656.00,0.0065
2655.00,0.0066
2654.00,0.0066
2653.00,0.0066
2652.00,0.0066
2651.00,0.0065
2650.00,0.0065
2649.00,0.0065
2648.00,0.0065
2647.00,0.0065
2646.00,0.0064
2645.00,0.0064
2644.00,0.0064
2643.00,0.0064
2642.00,0.0063
2641.00,0.0063
2640.00,0.0063
2639.00,0.0063
2638.00,0.0063
2637.00,0.0063
2636.00,0.0063
2635.00,0.0063
2634.00,0.0063
2633.00,0.0063
2632.00,0.0063
2631.00,0.0063
2630.00,0.0063
2629.00,0.0063
2628.00,0.0063
2627.00,0.0063
2626.00,0.0063
2625.00,0.0063
2624.00,0.0062
2623.00,0.0062
2622.00,0.0063
2621.00,0.0063
2620.00,0.0063
2619.00,0.0063
2618.00,0.0063
2617.00,0.0062
2616.00,0.0062
2615.00,0.0062
2614.00,0.0062
2613.00,0.0062
2612.00,0.0062
2611.00,0.0061
2610.00,0.0061
2609.00,0.0061
2608.00,0.0061
2607.00,0.0061
2606.00,0.0061
2605.00,0.0061
2604.00,0.0061
2603.00,0.0061
2602.00,0.0060
2601.00,0.0060
2600.00,0.0060
2599.00,0.0060
2598.00,0.0060
2597.00,0.0060
2596.00,0.0060
2595.00,0.0060
2594.00,0.0060
2593.00,0.0060
2592.00,0.0060
2591.00,0.0060
2590.00,0.0059
2589.00,0.0059
2588.00,0.0059
2587.00,0.0059
2586.00,0.0059
2585.00,0.0059
2584.00,0.0059
2583.00,0.0059
2582.00,0.0059
2581.00,0.0059
2580.00,0.0059
2579.00,0.0059
2578.00,0.0059
2577.00,0.0059
2576.00,0.0059
2575.00,0.0058
2574.00,0.0058
2573.00,0.0058
2572.00,0.0058
2571.00,0.0058
2570.00,0.0058
2569.00,0.0058
2568.00,0.0058
2567.00,0.0058
2566.00,0.0058
2565.00,0.0059
2564.00,0.0058
2563.00,0.0058
2562.00,0.0058
2561.00,0.0058
2560.00,0.0058
2559.00,0.0058
2558.00,0.0057
2557.00,0.0057
2556.00,0.0057
2555.00,0.0057
2554.00,0.0057
2553.00,0.0057
2552.00,0.0057
2551.00,0.0057
2550.00,0.0057
2549.00,0.0057
2548.00,0.0057
2547.00,0.0057
2546.00,0.0056
2545.00,0.0056
2544.00,0.0056
2543.00,0.0056
2542.00,0.0056
2541.00,0.0055
2540.00,0.0056
2539.00,0.0056
2538.00,0.0056
2537.00,0.0056
2536.00,0.0056
2535.00,0.0055
2534.00,0.0055
2533.00,0.0055
2532.00,0.0055
2531.00,0.0056
2530.00,0.0055
2529.00,0.0055
2528.00,0.0054
2527.00,0.0054
2526.00,0.0055
2525.00,0.0055
2524.00,0.0055
2523.00,0.0055
2522.00,0.0055
2521.00,0.0054
2520.00,0.0054
2519.00,0.0054
2518.00,0.0054
2517.00,0.0054
2516.00,0.0054
2515.00,0.0054
2514.00,0.0054
2513.00,0.0054
2512.00,0.0054
2511.00,0.0054
2510.00,0.0054
2509.00,0.0054
2508.00,0.0054
2507.00,0.0054
2506.00,0.0054
2505.00,0.0055
2504.00,0.0055
2503.00,0.0055
2502.00,0.0054
2501.00,0.0054
2500.00,0.0054
2499.00,0.0054
2498.00,0.0054
2497.00,0.0053
2496.00,0.0053
2495.00,0.0054
2494.00,0.0054
2493.00,0.0054
2492.00,0.0055
2491.00,0.0055
2490.00,0.0054
2489.00,0.0054
2488.00,0.0054
2487.00,0.0054
2486.00,0.0054
2485.00,0.0054
2484.00,0.0054
2483.00,0.0054
2482.00,0.0054
2481.00,0.0054
2480.00,0.0054
2479.00,0.0054
2478.00,0.0054
2477.00,0.0054
2476.00,0.0055
2475.00,0.0055
2474.00,0.0055
2473.00,0.0054
2472.00,0.0054
2471.00,0.0054
2470.00,0.0054
2469.00,0.0054
2468.00,0.0055
2467.00,0.0055
2466.00,0.0054
2465.00,0.0054
2464.00,0.0054
2463.00,0.0055
2462.00,0.0055
2461.00,0.0055
2460.00,0.0056
2459.00,0.0056
2458.00,0.0056
2457.00,0.0056
2456.00,0.0056
2455.00,0.0056
2454.00,0.0056
2453.00,0.0056
2452.00,0.0056
2451.00,0.0056
2450.00,0.0056
2449.00,0.0056
2448.00,0.0056
2447.00,0.0055
2446.00,0.0055
2445.00,0.0054
2444.00,0.0054
2443.00,0.0054
2442.00,0.0053
2441.00,0.0053
2440.00,0.0053
2439.00,0.0052
2438.00,0.0052
2437.00,0.0051
2436.00,0.0051
2435.00,0.0051
2434.00,0.0051
2433.00,0.0050
2432.00,0.0050
2431.00,0.0050
2430.00,0.0050
2429.00,0.0050
2428.00,0.0050
2427.00,0.0049
2426.00,0.0049
2425.00,0.0049
2424.00,0.0049
2423.00,0.0049
2422.00,0.0049
2421.00,0.0049
2420.00,0.0049
2419.00,0.0049
2418.00,0.0048
2417.00,0.0048
2416.00,0.0049
2415.00,0.0049
2414.00,0.0049
2413.00,0.0049
2412.00,0.0049
2411.00,0.0049
2410.00,0.0048
2409.00,0.0048
2408.00,0.0047
2407.00,0.0046
2406.00,0.0046
2405.00,0.0046
2404.00,0.0046
2403.00,0.0046
2402.00,0.0046
2401.00,0.0046
2400.00,0.0047
2399.00,0.0047
2398.00,0.0046
2397.00,0.0046
2396.00,0.0046
2395.00,0.0046
2394.00,0.0046
2393.00,0.0046
2392.00,0.0046
2391.00,0.0046
2390.00,0.0046
2389.00,0.0046
2388.00,0.0046
2387.00,0.0046
2386.00,0.0045
2385.00,0.0045
2384.00,0.0044
2383.00,0.0044
2382.00,0.0044
2381.00,0.0043
2380.00,0.0042
2379.00,0.0042
2378.00,0.0042
2377.00,0.0042
2376.00,0.0043
2375.00,0.0043
2374.00,0.0043
2373.00,0.0043
2372.00,0.0043
2371.00,0.0042
2370.00,0.0042
2369.00,0.0041
2368.00,0.0041
2367.00,0.0041
2366.00,0.0041
2365.00,0.0041
2364.00,0.0042
2363.00,0.0042
2362.00,0.0043
2361.00,0.0043
2360.00,0.0043
2359.00,0.0043
2358.00,0.0042
2357.00,0.0043
2356.00,0.0043
2355.00,0.0043
2354.00,0.0043
2353.00,0.0043
2352.00,0.0042
2351.00,0.0041
2350.00,0.0041
2349.00,0.0042
2348.00,0.0044
2347.00,0.0045
2346.00,0.0046
2345.00,0.0046
2344.00,0.0045
2343.00,0.0045
2342.00,0.0045
2341.00,0.0045
2340.00,0.0046
2339.00,0.0046
2338.00,0.0046
2337.00,0.0046
2336.00,0.0046
2335.00,0.0046
2334.00,0.0046
2333.00,0.0046
2332.00,0.0046
2331.00,0.0046
2330.00,0.0046
2329.00,0.0048
2328.00,0.0050
2327.00,0.0054
2326.00,0.0057
2325.00,0.0059
2324.00,0.0058
2323.00,0.0056
2322.00,0.0054
2321.00,0.0052
2320.00,0.0051
2319.00,0.0050
2318.00,0.0050
2317.00,0.0051
2316.00,0.0051
2315.00,0.0051
2314.00,0.0050
2313.00,0.0049
2312.00,0.0048
2311.00,0.0048
2310.00,0.0047
2309.00,0.0047
2308.00,0.0048
2307.00,0.0048
2306.00,0.0049
2305.00,0.0049
2304.00,0.0049
2303.00,0.0049
2302.00,0.0049
2301.00,0.0049
2300.00,0.0050
2299.00,0.0051
2298.00,0.0051
2297.00,0.0052
2296.00,0.0052
2295.00,0.0053
2294.00,0.0053
2293.00,0.0054
2292.00,0.0055
2291.00,0.0056
2290.00,0.0056
2289.00,0.0057
2288.00,0.0057
2287.00,0.0057
2286.00,0.0057
2285.00,0.0057
2284.00,0.0056
2283.00,0.0056
2282.00,0.0055
2281.00,0.0055
2280.00,0.0054
2279.00,0.0054
2278.00,0.0053
2277.00,0.0052
2276.00,0.0052
2275.00,0.0051
2274.00,0.0051
2273.00,0.0050
2272.00,0.0050
2271.00,0.0050
2270.00,0.0049
2269.00,0.0049
2268.00,0.0048
2267.00,0.0047
2266.00,0.0047
2265.00,0.0047
2264.00,0.0048
2263.00,0.0048
2262.00,0.0048
2261.00,0.0049
2260.00,0.0049
2259.00,0.0049
2258.00,0.0049
2257.00,0.0048
2256.00,0.0047
2255.00,0.0046
2254.00,0.0046
2253.00,0.0047
2252.00,0.0047
2251.00,0.0048
2250.00,0.0048
2249.00,0.0047
2248.00,0.0048
2247.00,0.0048
2246.00,0.0048
2245.00,0.0049
2244.00,0.0049
2243.00,0.0049
2242.00,0.0050
2241.00,0.0050
2240.00,0.0050
2239.00,0.0050
2238.00,0.0049
2237.00,0.0049
2236.00,0.0049
2235.00,0.0049
2234.00,0.0049
2233.00,0.0049
2232.00,0.0049
2231.00,0.0049
2230.00,0.0049
2229.00,0.0049
2228.00,0.0049
2227.00,0.0048
2226.00,0.0048
2225.00,0.0048
2224.00,0.0048
2223.00,0.0048
2222.00,0.0048
2221.00,0.0048
2220.00,0.0048
2219.00,0.0048
2218.00,0.0047
2217.00,0.0046
2216.00,0.0045
2215.00,0.0045
2214.00,0.0045
2213.00,0.0046
2212.00,0.0047
2211.00,0.0047
2210.00,0.0047
2209.00,0.0047
2208.00,0.0048
2207.00,0.0049
2206.00,0.0049
2205.00,0.0049
2204.00,0.0049
2203.00,0.0049
2202.00,0.0049
2201.00,0.0049
2200.00,0.0049
2199.00,0.0050
2198.00,0.0050
2197.00,0.0050
2196.00,0.0049
2195.00,0.0049
2194.00,0.0048
2193.00,0.0048
2192.00,0.0048
2191.00,0.0048
2190.00,0.0049
2189.00,0.0050
2188.00,0.0051
2187.00,0.0052
2186.00,0.0052
2185.00,0.0051
2184.00,0.0049
2183.00,0.0047
2182.00,0.0046
2181.00,0.0047
2180.00,0.0048
2179.00,0.0048
2178.00,0.0046
2177.00,0.0045
2176.00,0.0044
2175.00,0.0044
2174.00,0.0045
2173.00,0.0047
2172.00,0.0048
2171.00,0.0051
2170.00,0.0052
2169.00,0.0054
2168.00,0.0056
2167.00,0.0057
2166.00,0.0059
2165.00,0.0061
2164.00,0.0063
2163.00,0.0062
2162.00,0.0057
2161.00,0.0046
2160.00,0.0032
2159.00,0.0021
2158.00,0.0015
2157.00,0.0014
2156.00,0.0016
2155.00,0.0020
2154.00,0.0023
2153.00,0.0027
2152.00,0.0030
2151.00,0.0032
2150.00,0.0032
2149.00,0.0031
2148.00,0.0030
2147.00,0.0030
2146.00,0.0029
2145.00,0.0030
2144.00,0.0030
2143.00,0.0030
2142.00,0.0029
2141.00,0.0029
2140.00,0.0030
2139.00,0.0030
2138.00,0.0029
2137.00,0.0027
2136.00,0.0025
2135.00,0.0024
2134.00,0.0023
2133.00,0.0024
2132.00,0.0027
2131.00,0.0029
2130.00,0.0031
2129.00,0.0032
2128.00,0.0033
2127.00,0.0034
2126.00,0.0035
2125.00,0.0036
2124.00,0.0037
2123.00,0.0039
2122.00,0.0039
2121.00,0.0040
2120.00,0.0041
2119.00,0.0041
2118.00,0.0043
2117.00,0.0044
2116.00,0.0045
2115.00,0.0046
2114.00,0.0045
2113.00,0.0044
2112.00,0.0043
2111.00,0.0042
2110.00,0.0041
2109.00,0.0040
2108.00,0.0039
2107.00,0.0040
2106.00,0.0040
2105.00,0.0041
2104.00,0.0041
2103.00,0.0041
2102.00,0.0041
2101.00,0.0041
2100.00,0.0042
2099.00,0.0041
2098.00,0.0040
2097.00,0.0038
2096.00,0.0038
2095.00,0.0037
2094.00,0.0038
2093.00,0.0038
2092.00,0.0039
2091.00,0.0040
2090.00,0.0041
2089.00,0.0042
2088.00,0.0043
2087.00,0.0043
2086.00,0.0043
2085.00,0.0044
2084.00,0.0044
2083.00,0.0044
2082.00,0.0044
2081.00,0.0045
2080.00,0.0045
2079.00,0.0044
2078.00,0.0044
2077.00,0.0043
2076.00,0.0043
2075.00,0.0042
2074.00,0.0041
2073.00,0.0040
2072.00,0.0039
2071.00,0.0039
2070.00,0.0040
2069.00,0.0040
2068.00,0.0041
2067.00,0.0040
2066.00,0.0040
2065.00,0.0039
2064.00,0.0039
2063.00,0.0038
2062.00,0.0038
2061.00,0.0037
2060.00,0.0038
2059.00,0.0039
2058.00,0.0039
2057.00,0.0040
2056.00,0.0040
2055.00,0.0041
2054.00,0.0042
2053.00,0.0045
2052.00,0.0048
2051.00,0.0049
2050.00,0.0046
2049.00,0.0043
2048.00,0.0040
2047.00,0.0039
2046.00,0.0039
2045.00,0.0039
2044.00,0.0039
2043.00,0.0038
2042.00,0.0037
2041.00,0.0036
2040.00,0.0037
2039.00,0.0038
2038.00,0.0038
2037.00,0.0038
2036.00,0.0038
2035.00,0.0036
2034.00,0.0033
2033.00,0.0031
2032.00,0.0031
2031.00,0.0031
2030.00,0.0031
2029.00,0.0031
2028.00,0.0031
2027.00,0.0032
2026.00,0.0032
2025.00,0.0033
2024.00,0.0034
2023.00,0.0035
2022.00,0.0035
2021.00,0.0034
2020.00,0.0034
2019.00,0.0034
2018.00,0.0033
2017.00,0.0033
2016.00,0.0033
2015.00,0.0032
2014.00,0.0030
2013.00,0.0029
2012.00,0.0029
2011.00,0.0029
2010.00,0.0029
2009.00,0.0028
2008.00,0.0027
2007.00,0.0025
2006.00,0.0023
2005.00,0.0023
2004.00,0.0025
2003.00,0.0028
2002.00,0.0030
2001.00,0.0032
2000.00,0.0033
1999.00,0.0034
1998.00,0.0033
1997.00,0.0033
1996.00,0.0033
1995.00,0.0034
1994.00,0.0035
1993.00,0.0035
1992.00,0.0036
1991.00,0.0037
1990.00,0.0039
1989.00,0.0041
1988.00,0.0042
1987.00,0.0043
1986.00,0.0043
1985.00,0.0042
1984.00,0.0043
1983.00,0.0044
1982.00,0.0047
1981.00,0.0048
1980.00,0.0048
1979.00,0.0043
1978.00,0.0037
1977.00,0.0032
1976.00,0.0029
1975.00,0.0026
1974.00,0.0023
1973.00,0.0022
1972.00,0.0022
1971.00,0.0023
1970.00,0.0024
1969.00,0.0024
1968.00,0.0025
1967.00,0.0025
1966.00,0.0026
1965.00,0.0028
1964.00,0.0029
1963.00,0.0029
1962.00,0.0028
1961.00,0.0026
1960.00,0.0025
1959.00,0.0025
1958.00,0.0025
1957.00,0.0025
1956.00,0.0027
1955.00,0.0028
1954.00,0.0028
1953.00,0.0028
1952.00,0.0028
1951.00,0.0028
1950.00,0.0027
1949.00,0.0027
1948.00,0.0028
1947.00,0.0029
1946.00,0.0030
1945.00,0.0031
1944.00,0.0031
1943.00,0.0032
1942.00,0.0032
1941.00,0.0032
1940.00,0.0032
1939.00,0.0032
1938.00,0.0032
1937.00,0.0032
1936.00,0.0032
1935.00,0.0032
1934.00,0.0032
1933.00,0.0031
1932.00,0.0031
1931.00,0.0030
1930.00,0.0030
1929.00,0.0030
1928.00,0.0030
1927.00,0.0031
1926.00,0.0031
1925.00,0.0031
1924.00,0.0032
1923.00,0.0033
1922.00,0.0034
1921.00,0.0034
1920.00,0.0034
1919.00,0.0034
1918.00,0.0034
1917.00,0.0034
1916.00,0.0034
1915.00,0.0034
1914.00,0.0034
1913.00,0.0034
1912.00,0.0034
1911.00,0.0034
1910.00,0.0034
1909.00,0.0034
1908.00,0.0035
1907.00,0.0035
1906.00,0.0035
1905.00,0.0035
1904.00,0.0036
1903.00,0.0036
1902.00,0.0036
1901.00,0.0036
1900.00,0.0036
1899.00,0.0036
1898.00,0.0036
1897.00,0.0036
1896.00,0.0036
1895.00,0.0036
1894.00,0.0036
1893.00,0.0036
1892.00,0.0036
1891.00,0.0036
1890.00,0.0037
1889.00,0.0037
1888.00,0.0038
1887.00,0.0038
1886.00,0.0037
1885.00,0.0037
1884.00,0.0037
1883.00,0.0038
1882.00,0.0038
1881.00,0.0038
1880.00,0.0038
1879.00,0.0039
1878.00,0.0039
1877.00,0.0039
1876.00,0.0039
1875.00,0.0038
1874.00,0.0038
1873.00,0.0037
1872.00,0.0037
1871.00,0.0036
1870.00,0.0036
1869.00,0.0036
1868.00,0.0037
1867.00,0.0038
1866.00,0.0038
1865.00,0.0038
1864.00,0.0038
1863.00,0.0038
1862.00,0.0038
1861.00,0.0038
1860.00,0.0038
1859.00,0.0038
1858.00,0.0038
1857.00,0.0038
1856.00,0.0038
1855.00,0.0039
1854.00,0.0038
1853.00,0.0038
1852.00,0.0038
1851.00,0.0038
1850.00,0.0038
1849.00,0.0038
1848.00,0.0038
1847.00,0.0039
1846.00,0.0039
1845.00,0.0039
1844.00,0.0039
1843.00,0.0039
1842.00,0.0039
1841.00,0.0039
1840.00,0.0039
1839.00,0.0039
1838.00,0.0039
1837.00,0.0039
1836.00,0.0040
1835.00,0.0040
1834.00,0.0040
1833.00,0.0040
1832.00,0.0040
1831.00,0.0040
1830.00,0.0040
1829.00,0.0040
1828.00,0.0040
1827.00,0.0041
1826.00,0.0041
1825.00,0.0041
1824.00,0.0041
1823.00,0.0041
1822.00,0.0041
1821.00,0.0041
1820.00,0.0041
1819.00,0.0040
1818.00,0.0039
1817.00,0.0038
1816.00,0.0039
1815.00,0.0039
1814.00,0.0040
1813.00,0.0040
1812.00,0.0041
1811.00,0.0042
1810.00,0.0042
1809.00,0.0043
1808.00,0.0044
1807.00,0.0045
1806.00,0.0045
1805.00,0.0045
1804.00,0.0045
1803.00,0.0046
1802.00,0.0046
1801.00,0.0046
1800.00,0.0046
1799.00,0.0046
1798.00,0.0046
1797.00,0.0045
1796.00,0.0045
1795.00,0.0045
1794.00,0.0045
1793.00,0.0044
1792.00,0.0044
1791.00,0.0045
1790.00,0.0045
1789.00,0.0045
1788.00,0.0045
1787.00,0.0045
1786.00,0.0045
1785.00,0.0045
1784.00,0.0045
1783.00,0.0045
1782.00,0.0045
1781.00,0.0045
1780.00,0.0045
1779.00,0.0046
1778.00,0.0046
1777.00,0.0046
1776.00,0.0046
1775.00,0.0047
1774.00,0.0048
1773.00,0.0049
1772.00,0.0050
1771.00,0.0051
1770.00,0.0051
1769.00,0.0051
1768.00,0.0050
1767.00,0.0049
1766.00,0.0049
1765.00,0.0048
1764.00,0.0048
1763.00,0.0047
1762.00,0.0047
1761.00,0.0047
1760.00,0.0047
1759.00,0.0047
1758.00,0.0047
1757.00,0.0047
1756.00,0.0047
1755.00,0.0047
1754.00,0.0047
1753.00,0.0046
1752.00,0.0047
1751.00,0.0047
1750.00,0.0047
1749.00,0.0046
1748.00,0.0047
1747.00,0.0047
1746.00,0.0047
1745.00,0.0046
1744.00,0.0047
1743.00,0.0047
1742.00,0.0048
1741.00,0.0048
1740.00,0.0049
1739.00,0.0049
1738.00,0.0050
1737.00,0.0050
1736.00,0.0050
1735.00,0.0050
1734.00,0.0049
1733.00,0.0050
1732.00,0.0050
1731.00,0.0051
1730.00,0.0052
1729.00,0.0053
1728.00,0.0054
1727.00,0.0054
1726.00,0.0054
1725.00,0.0055
1724.00,0.0056
1723.00,0.0057
1722.00,0.0057
1721.00,0.0058
1720.00,0.0058
1719.00,0.0058
1718.00,0.0058
1717.00,0.0059
1716.00,0.0061
1715.00,0.0064
1714.00,0.0066
1713.00,0.0067
1712.00,0.0069
1711.00,0.0071
1710.00,0.0073
1709.00,0.0075
1708.00,0.0077
1707.00,0.0080
1706.00,0.0083
1705.00,0.0087
1704.00,0.0091
1703.00,0.0095
1702.00,0.0099
1701.00,0.0105
1700.00,0.0111
1699.00,0.0116
1698.00,0.0119
1697.00,0.0123
1696.00,0.0132
1695.00,0.0142
1694.00,0.0150
1693.00,0.0157
1692.00,0.0164
1691.00,0.0172
1690.00,0.0181
1689.00,0.0190
1688.00,0.0198
1687.00,0.0206
1686.00,0.0214
1685.00,0.0225
1684.00,0.0240
1683.00,0.0255
1682.00,0.0266
1681.00,0.0275
1680.00,0.0286
1679.00,0.0297
1678.00,0.0307
1677.00,0.0319
1676.00,0.0333
1675.00,0.0348
1674.00,0.0362
1673.00,0.0373
1672.00,0.0384
1671.00,0.0396
1670.00,0.0410
1669.00,0.0425
1668.00,0.0438
1667.00,0.0449
1666.00,0.0458
1665.00,0.0466
1664.00,0.0474
1663.00,0.0483
1662.00,0.0490
1661.00,0.0495
1660.00,0.0499
1659.00,0.0502
1658.00,0.0504
1657.00,0.0506
1656.00,0.0507
1655.00,0.0509
1654.00,0.0510
1653.00,0.0514
1652.00,0.0520
1651.00,0.0525
1650.00,0.0530
1649.00,0.0537
1648.00,0.0549
1647.00,0.0571
1646.00,0.0596
1645.00,0.0615
1644.00,0.0623
1643.00,0.0621
1642.00,0.0608
1641.00,0.0591
1640.00,0.0573
1639.00,0.0559
1638.00,0.0551
1637.00,0.0552
1636.00,0.0566
1635.00,0.0587
1634.00,0.0606
1633.00,0.0619
1632.00,0.0630
1631.00,0.0637
1630.00,0.0642
1629.00,0.0645
1628.00,0.0650
1627.00,0.0657
1626.00,0.0667
1625.00,0.0678
1624.00,0.0685
1623.00,0.0683
1622.00,0.0665
1621.00,0.0636
1620.00,0.0601
1619.00,0.0560
1618.00,0.0512
1617.00,0.0460
1616.00,0.0412
1615.00,0.0376
1614.00,0.0350
1613.00,0.0329
1612.00,0.0310
1611.00,0.0291
1610.00,0.0274
1609.00,0.0259
1608.00,0.0247
1607.00,0.0236
1606.00,0.0227
1605.00,0.0220
1604.00,0.0214
1603.00,0.0210
1602.00,0.0207
1601.00,0.0206
1600.00,0.0206
1599.00,0.0208
1598.00,0.0211
1597.00,0.0217
1596.00,0.0225
1595.00,0.0237
1594.00,0.0252
1593.00,0.0273
1592.00,0.0300
1591.00,0.0334
1590.00,0.0373
1589.00,0.0417
1588.00,0.0461
1587.00,0.0504
1586.00,0.0541
1585.00,0.0573
1584.00,0.0600
1583.00,0.0618
1582.00,0.0624
1581.00,0.0618
1580.00,0.0600
1579.00,0.0573
1578.00,0.0536
1577.00,0.0487
1576.00,0.0434
1575.00,0.0388
1574.00,0.0354
1573.00,0.0329
1572.00,0.0306
1571.00,0.0282
1570.00,0.0257
1569.00,0.0233
1568.00,0.0214
1567.00,0.0199
1566.00,0.0186
1565.00,0.0175
1564.00,0.0164
1563.00,0.0156
1562.00,0.0151
1561.00,0.0147
1560.00,0.0141
1559.00,0.0135
1558.00,0.0131
1557.00,0.0128
1556.00,0.0124
1555.00,0.0122
1554.00,0.0120
1553.00,0.0118
1552.00,0.0116
1551.00,0.0114
1550.00,0.0112
1549.00,0.0111
1548.00,0.0110
1547.00,0.0109
1546.00,0.0108
1545.00,0.0107
1544.00,0.0107
1543.00,0.0107
1542.00,0.0106
1541.00,0.0105
1540.00,0.0104
1539.00,0.0105
1538.00,0.0105
1537.00,0.0104
1536.00,0.0104
1535.00,0.0104
1534.00,0.0103
1533.00,0.0103
1532.00,0.0103
1531.00,0.0102
1530.00,0.0103
1529.00,0.0103
1528.00,0.0104
1527.00,0.0105
1526.00,0.0107
1525.00,0.0110
1524.00,0.0113
1523.00,0.0116
1522.00,0.0123
1521.00,0.0134
1520.00,0.0144
1519.00,0.0153
1518.00,0.0163
1517.00,0.0172
1516.00,0.0181
1515.00,0.0187
1514.00,0.0189
1513.00,0.0187
1512.00,0.0182
1511.00,0.0176
1510.00,0.0168
1509.00,0.0161
1508.00,0.0155
1507.00,0.0151
1506.00,0.0151
1505.00,0.0152
1504.00,0.0153
1503.00,0.0155
1502.00,0.0158
1501.00,0.0161
1500.00,0.0164
1499.00,0.0167
1498.00,0.0169
1497.00,0.0170
1496.00,0.0171
1495.00,0.0171
1494.00,0.0170
1493.00,0.0168
1492.00,0.0165
1491.00,0.0159
1490.00,0.0153
1489.00,0.0147
1488.00,0.0142
1487.00,0.0137
1486.00,0.0133
1485.00,0.0129
1484.00,0.0126
1483.00,0.0123
1482.00,0.0122
1481.00,0.0121
1480.00,0.0122
1479.00,0.0123
1478.00,0.0126
1477.00,0.0130
1476.00,0.0134
1475.00,0.0140
1474.00,0.0149
1473.00,0.0163
1472.00,0.0184
1471.00,0.0207
1470.00,0.0232
1469.00,0.0258
1468.00,0.0285
1467.00,0.0310
1466.00,0.0333
1465.00,0.0354
1464.00,0.0372
1463.00,0.0386
1462.00,0.0397
1461.00,0.0406
1460.00,0.0412
1459.00,0.0415
1458.00,0.0416
1457.00,0.0420
1456.00,0.0428
1455.00,0.0437
1454.00,0.0452
1453.00,0.0473
1452.00,0.0502
1451.00,0.0537
1450.00,0.0578
1449.00,0.0626
1448.00,0.0679
1447.00,0.0731
1446.00,0.0774
1445.00,0.0808
1444.00,0.0833
1443.00,0.0847
1442.00,0.0855
1441.00,0.0857
1440.00,0.0855
1439.00,0.0849
1438.00,0.0838
1437.00,0.0821
1436.00,0.0798
1435.00,0.0774
1434.00,0.0753
1433.00,0.0733
1432.00,0.0711
1431.00,0.0685
1430.00,0.0657
1429.00,0.0626
1428.00,0.0594
1427.00,0.0564
1426.00,0.0536
1425.00,0.0511
1424.00,0.0488
1423.00,0.0469
1422.00,0.0453
1421.00,0.0437
1420.00,0.0416
1419.00,0.0391
1418.00,0.0365
1417.00,0.0342
1416.00,0.0321
1415.00,0.0300
1414.00,0.0280
1413.00,0.0262
1412.00,0.0244
1411.00,0.0229
1410.00,0.0216
1409.00,0.0205
1408.00,0.0195
1407.00,0.0187
1406.00,0.0180
1405.00,0.0174
1404.00,0.0168
1403.00,0.0163
1402.00,0.0160
1401.00,0.0156
1400.00,0.0153
1399.00,0.0150
1398.00,0.0148
1397.00,0.0147
1396.00,0.0145
1395.00,0.0144
1394.00,0.0144
1393.00,0.0144
1392.00,0.0144
1391.00,0.0144
1390.00,0.0146
1389.00,0.0148
1388.00,0.0151
1387.00,0.0156
1386.00,0.0164
1385.00,0.0172
1384.00,0.0183
1383.00,0.0196
1382.00,0.0214
1381.00,0.0235
1380.00,0.0262
1379.00,0.0293
1378.00,0.0326
1377.00,0.0356
1376.00,0.0379
1375.00,0.0390
1374.00,0.0388
1373.00,0.0376
1372.00,0.0358
1371.00,0.0341
1370.00,0.0323
1369.00,0.0307
1368.00,0.0292
1367.00,0.0279
1366.00,0.0268
1365.00,0.0257
1364.00,0.0245
1363.00,0.0233
1362.00,0.0224
1361.00,0.0216
1360.00,0.0209
1359.00,0.0204
1358.00,0.0201
1357.00,0.0198
1356.00,0.0196
1355.00,0.0195
1354.00,0.0195
1353.00,0.0195
1352.00,0.0195
1351.00,0.0195
1350.00,0.0196
1349.00,0.0198
1348.00,0.0201
1347.00,0.0205
1346.00,0.0209
1345.00,0.0213
1344.00,0.0217
1343.00,0.0219
1342.00,0.0221
1341.00,0.0221
1340.00,0.0218
1339.00,0.0214
1338.00,0.0210
1337.00,0.0207
1336.00,0.0205
1335.00,0.0206
1334.00,0.0210
1333.00,0.0215
1332.00,0.0221
1331.00,0.0229
1330.00,0.0238
1329.00,0.0246
1328.00,0.0255
1327.00,0.0263
1326.00,0.0272
1325.00,0.0281
1324.00,0.0288
1323.00,0.0293
1322.00,0.0294
1321.00,0.0293
1320.00,0.0291
1319.00,0.0291
1318.00,0.0296
1317.00,0.0306
1316.00,0.0320
1315.00,0.0339
1314.00,0.0360
1313.00,0.0378
1312.00,0.0390
1311.00,0.0395
1310.00,0.0392
1309.00,0.0384
1308.00,0.0375
1307.00,0.0370
1306.00,0.0369
1305.00,0.0373
1304.00,0.0381
1303.00,0.0391
1302.00,0.0401
1301.00,0.0410
1300.00,0.0418
1299.00,0.0426
1298.00,0.0434
1297.00,0.0444
1296.00,0.0454
1295.00,0.0465
1294.00,0.0476
1293.00,0.0486
1292.00,0.0495
1291.00,0.0503
1290.00,0.0509
1289.00,0.0515
1288.00,0.0521
1287.00,0.0527
1286.00,0.0534
1285.00,0.0542
1284.00,0.0549
1283.00,0.0555
1282.00,0.0560
1281.00,0.0563
1280.00,0.0565
1279.00,0.0566
1278.00,0.0565
1277.00,0.0563
1276.00,0.0558
1275.00,0.0550
1274.00,0.0540
1273.00,0.0527
1272.00,0.0511
1271.00,0.0493
1270.00,0.0472
1269.00,0.0451
1268.00,0.0430
1267.00,0.0409
1266.00,0.0389
1265.00,0.0370
1264.00,0.0353
1263.00,0.0336
1262.00,0.0321
1261.00,0.0307
1260.00,0.0295
1259.00,0.0284
1258.00,0.0275
1257.00,0.0267
1256.00,0.0262
1255.00,0.0258
1254.00,0.0256
1253.00,0.0257
1252.00,0.0259
1251.00,0.0264
1250.00,0.0270
1249.00,0.0276
1248.00,0.0280
1247.00,0.0284
1246.00,0.0289
1245.00,0.0296
1244.00,0.0308
1243.00,0.0326
1242.00,0.0350
1241.00,0.0379
1240.00,0.0411
1239.00,0.0442
1238.00,0.0467
1237.00,0.0484
1236.00,0.0490
1235.00,0.0490
1234.00,0.0484
1233.00,0.0475
1232.00,0.0464
1231.00,0.0452
1230.00,0.0445
1229.00,0.0444
1228.00,0.0453
1227.00,0.0471
1226.00,0.0495
1225.00,0.0522
1224.00,0.0550
1223.00,0.0580
1222.00,0.0613
1221.00,0.0652
1220.00,0.0698
1219.00,0.0752
1218.00,0.0810
1217.00,0.0864
1216.00,0.0904
1215.00,0.0925
1214.00,0.0921
1213.00,0.0895
1212.00,0.0852
1211.00,0.0799
1210.00,0.0744
1209.00,0.0692
1208.00,0.0646
1207.00,0.0607
1206.00,0.0574
1205.00,0.0543
1204.00,0.0514
1203.00,0.0484
1202.00,0.0453
1201.00,0.0423
1200.00,0.0394
1199.00,0.0367
1198.00,0.0344
1197.00,0.0324
1196.00,0.0309
1195.00,0.0297
1194.00,0.0289
1193.00,0.0284
1192.00,0.0281
1191.00,0.0281
1190.00,0.0283
1189.00,0.0286
1188.00,0.0290
1187.00,0.0294
1186.00,0.0300
1185.00,0.0306
1184.00,0.0311
1183.00,0.0317
1182.00,0.0323
1181.00,0.0328
1180.00,0.0332
1179.00,0.0338
1178.00,0.0343
1177.00,0.0349
1176.00,0.0354
1175.00,0.0362
1174.00,0.0373
1173.00,0.0384
1172.00,0.0389
1171.00,0.0383
1170.00,0.0366
1169.00,0.0340
1168.00,0.0313
1167.00,0.0289
1166.00,0.0269
1165.00,0.0253
1164.00,0.0240
1163.00,0.0230
1162.00,0.0222
1161.00,0.0216
1160.00,0.0213
1159.00,0.0211
1158.00,0.0213
1157.00,0.0219
1156.00,0.0230
1155.00,0.0250
1154.00,0.0280
1153.00,0.0318
1152.00,0.0358
1151.00,0.0388
1150.00,0.0395
1149.00,0.0377
1148.00,0.0339
1147.00,0.0296
1146.00,0.0257
1145.00,0.0228
1144.00,0.0207
1143.00,0.0193
1142.00,0.0184
1141.00,0.0178
1140.00,0.0175
1139.00,0.0174
1138.00,0.0176
1137.00,0.0178
1136.00,0.0180
1135.00,0.0181
1134.00,0.0181
1133.00,0.0178
1132.00,0.0172
1131.00,0.0166
1130.00,0.0160
1129.00,0.0154
1128.00,0.0149
1127.00,0.0146
1126.00,0.0143
1125.00,0.0141
1124.00,0.0139
1123.00,0.0137
1122.00,0.0136
1121.00,0.0136
1120.00,0.0136
1119.00,0.0136
1118.00,0.0137
1117.00,0.0138
1116.00,0.0139
1115.00,0.0140
1114.00,0.0142
1113.00,0.0144
1112.00,0.0145
1111.00,0.0147
1110.00,0.0150
1109.00,0.0153
1108.00,0.0157
1107.00,0.0161
1106.00,0.0167
1105.00,0.0173
1104.00,0.0179
1103.00,0.0185
1102.00,0.0193
1101.00,0.0201
1100.00,0.0208
1099.00,0.0212
1098.00,0.0212
1097.00,0.0207
1096.00,0.0198
1095.00,0.0189
1094.00,0.0180
1093.00,0.0173
1092.00,0.0168
1091.00,0.0163
1090.00,0.0160
1089.00,0.0158
1088.00,0.0156
1087.00,0.0157
1086.00,0.0159
1085.00,0.0164
1084.00,0.0171
1083.00,0.0181
1082.00,0.0193
1081.00,0.0204
1080.00,0.0211
1079.00,0.0214
1078.00,0.0212
1077.00,0.0205
1076.00,0.0196
1075.00,0.0187
1074.00,0.0180
1073.00,0.0174
1072.00,0.0169
1071.00,0.0165
1070.00,0.0162
1069.00,0.0159
1068.00,0.0156
1067.00,0.0154
1066.00,0.0154
1065.00,0.0155
1064.00,0.0156
1063.00,0.0159
1062.00,0.0164
1061.00,0.0171
1060.00,0.0180
1059.00,0.0194
1058.00,0.0215
1057.00,0.0243
1056.00,0.0279
1055.00,0.0320
1054.00,0.0359
1053.00,0.0390
1052.00,0.0406
1051.00,0.0409
1050.00,0.0400
1049.00,0.0380
1048.00,0.0352
1047.00,0.0321
1046.00,0.0292
1045.00,0.0269
1044.00,0.0255
1043.00,0.0248
1042.00,0.0249
1041.00,0.0254
1040.00,0.0262
1039.00,0.0274
1038.00,0.0290
1037.00,0.0314
1036.00,0.0344
1035.00,0.0381
1034.00,0.0421
1033.00,0.0455
1032.00,0.0475
1031.00,0.0480
1030.00,0.0469
1029.00,0.0450
1028.00,0.0429
1027.00,0.0411
1026.00,0.0403
1025.00,0.0405
1024.00,0.0418
1023.00,0.0444
1022.00,0.0479
1021.00,0.0516
1020.00,0.0545
1019.00,0.0558
1018.00,0.0551
1017.00,0.0527
1016.00,0.0493
1015.00,0.0457
1014.00,0.0423
1013.00,0.0392
1012.00,0.0366
1011.00,0.0346
1010.00,0.0335
1009.00,0.0329
1008.00,0.0329
1007.00,0.0334
1006.00,0.0345
1005.00,0.0359
1004.00,0.0373
1003.00,0.0384
1002.00,0.0388
1001.00,0.0385
1000.00,0.0372
999.00,0.0350
998.00,0.0324
997.00,0.0296
996.00,0.0271
995.00,0.0251
994.00,0.0237
993.00,0.0228
992.00,0.0224
991.00,0.0224
990.00,0.0228
989.00,0.0234
988.00,0.0240
987.00,0.0245
986.00,0.0249
985.00,0.0250
984.00,0.0247
983.00,0.0240
982.00,0.0231
981.00,0.0220
980.00,0.0210
979.00,0.0203
978.00,0.0199
977.00,0.0195
976.00,0.0192
975.00,0.0189
974.00,0.0186
973.00,0.0184
972.00,0.0184
971.00,0.0186
970.00,0.0192
969.00,0.0198
968.00,0.0205
967.00,0.0213
966.00,0.0223
965.00,0.0233
964.00,0.0245
963.00,0.0258
962.00,0.0268
961.00,0.0272
960.00,0.0266
959.00,0.0253
958.00,0.0236
957.00,0.0217
956.00,0.0200
955.00,0.0185
954.00,0.0174
953.00,0.0165
952.00,0.0157
951.00,0.0152
950.00,0.0148
949.00,0.0145
948.00,0.0143
947.00,0.0141
946.00,0.0140
945.00,0.0139
944.00,0.0138
943.00,0.0137
942.00,0.0137
941.00,0.0137
940.00,0.0138
939.00,0.0139
938.00,0.0141
937.00,0.0143
936.00,0.0145
935.00,0.0147
934.00,0.0150
933.00,0.0152
932.00,0.0153
931.00,0.0155
930.00,0.0157
929.00,0.0158
928.00,0.0157
927.00,0.0156
926.00,0.0155
925.00,0.0155
924.00,0.0153
923.00,0.0152
922.00,0.0152
921.00,0.0152
920.00,0.0154
919.00,0.0157
918.00,0.0162
917.00,0.0168
916.00,0.0172
915.00,0.0175
914.00,0.0175
913.00,0.0174
912.00,0.0173
911.00,0.0172
910.00,0.0175
909.00,0.0180
908.00,0.0188
907.00,0.0199
906.00,0.0214
905.00,0.0233
904.00,0.0253
903.00,0.0278
902.00,0.0309
901.00,0.0349
900.00,0.0397
899.00,0.0452
898.00,0.0506
897.00,0.0546
896.00,0.0560
895.00,0.0547
894.00,0.0514
893.00,0.0472
892.00,0.0432
891.00,0.0399
890.00,0.0380
889.00,0.0378
888.00,0.0395
887.00,0.0435
886.00,0.0494
885.00,0.0558
884.00,0.0609
883.00,0.0628
882.00,0.0606
881.00,0.0553
880.00,0.0485
879.00,0.0420
878.00,0.0367
877.00,0.0329
876.00,0.0303
875.00,0.0287
874.00,0.0281
873.00,0.0283
872.00,0.0290
871.00,0.0301
870.00,0.0310
869.00,0.0312
868.00,0.0308
867.00,0.0303
866.00,0.0303
865.00,0.0312
864.00,0.0328
863.00,0.0347
862.00,0.0364
861.00,0.0372
860.00,0.0373
859.00,0.0370
858.00,0.0370
857.00,0.0375
856.00,0.0384
855.00,0.0397
854.00,0.0410
853.00,0.0423
852.00,0.0432
851.00,0.0439
850.00,0.0442
849.00,0.0438
848.00,0.0427
847.00,0.0415
846.00,0.0404
845.00,0.0395
844.00,0.0389
843.00,0.0383
842.00,0.0376
841.00,0.0368
840.00,0.0359
839.00,0.0353
838.00,0.0351
837.00,0.0352
836.00,0.0356
835.00,0.0363
834.00,0.0372
833.00,0.0382
832.00,0.0393
831.00,0.0404
830.00,0.0414
829.00,0.0420
828.00,0.0422
827.00,0.0418
826.00,0.0409
825.00,0.0393
824.00,0.0371
823.00,0.0347
822.00,0.0323
821.00,0.0300
820.00,0.0278
819.00,0.0258
818.00,0.0243
817.00,0.0231
816.00,0.0222
815.00,0.0216
814.00,0.0211
813.00,0.0207
812.00,0.0203
811.00,0.0202
810.00,0.0207
809.00,0.0218
808.00,0.0240
807.00,0.0271
806.00,0.0308
805.00,0.0337
804.00,0.0348
803.00,0.0338
802.00,0.0316
801.00,0.0288
800.00,0.0261
799.00,0.0240
798.00,0.0225
797.00,0.0214
796.00,0.0206
795.00,0.0202
794.00,0.0200
793.00,0.0198
792.00,0.0197
791.00,0.0196
790.00,0.0195
789.00,0.0194
788.00,0.0193
787.00,0.0194
786.00,0.0195
785.00,0.0196
784.00,0.0193
783.00,0.0190
782.00,0.0186
781.00,0.0184
780.00,0.0183
779.00,0.0184
778.00,0.0185
777.00,0.0186
776.00,0.0186
775.00,0.0185
774.00,0.0186
773.00,0.0188
772.00,0.0189
771.00,0.0190
770.00,0.0192
769.00,0.0192
768.00,0.0189
767.00,0.0186
766.00,0.0182
765.00,0.0179
764.00,0.0176
763.00,0.0175
762.00,0.0176
761.00,0.0177
760.00,0.0178
759.00,0.0181
758.00,0.0185
757.00,0.0190
756.00,0.0197
755.00,0.0205
754.00,0.0217
753.00,0.0229
752.00,0.0239
751.00,0.0248
750.00,0.0254
749.00,0.0258
748.00,0.0258
747.00,0.0254
746.00,0.0247
745.00,0.0239
744.00,0.0231
743.00,0.0226
742.00,0.0223
741.00,0.0221
740.00,0.0220
739.00,0.0221
738.00,0.0223
737.00,0.0226
736.00,0.0230
735.00,0.0236
734.00,0.0244
733.00,0.0253
732.00,0.0260
731.00,0.0265
730.00,0.0264
729.00,0.0258
728.00,0.0249
727.00,0.0240
726.00,0.0234
725.00,0.0230
724.00,0.0226
723.00,0.0222
722.00,0.0220
721.00,0.0218
720.00,0.0215
719.00,0.0212
718.00,0.0209
717.00,0.0206
716.00,0.0202
715.00,0.0198
714.00,0.0197
713.00,0.0197
712.00,0.0196
711.00,0.0196
710.00,0.0197
709.00,0.0196
708.00,0.0194
707.00,0.0191
706.00,0.0190
705.00,0.0189
704.00,0.0188
703.00,0.0188
702.00,0.0188
701.00,0.0189
700.00,0.0189
699.00,0.0190
698.00,0.0191
697.00,0.0193
696.00,0.0193
695.00,0.0193
694.00,0.0195
693.00,0.0197
692.00,0.0198
691.00,0.0199
690.00,0.0201
689.00,0.0203
688.00,0.0204
687.00,0.0206
686.00,0.0209
685.00,0.0212
684.00,0.0214
683.00,0.0217
682.00,0.0220
681.00,0.0223
680.00,0.0225
679.00,0.0229
678.00,0.0234
677.00,0.0238
676.00,0.0243
675.00,0.0248
674.00,0.0254
673.00,0.0261
672.00,0.0268
671.00,0.0276
670.00,0.0285
669.00,0.0294
668.00,0.0303
667.00,0.0310
666.00,0.0316
665.00,0.0321
664.00,0.0326
663.00,0.0330
662.00,0.0335
661.00,0.0339
660.00,0.0343
659.00,0.0347
658.00,0.0351
657.00,0.0354
656.00,0.0355
655.00,0.0357
654.00,0.0359
653.00,0.0363
652.00,0.0368
651.00,0.0374
650.00,0.0381
649.00,0.0385
648.00,0.0385
647.00,0.0381
646.00,0.0375
645.00,0.0367
644.00,0.0358
643.00,0.0349
642.00,0.0342
641.00,0.0336
640.00,0.0331
639.00,0.0327
638.00,0.0324
637.00,0.0322
636.00,0.0320
635.00,0.0320
634.00,0.0321
633.00,0.0322
632.00,0.0322
631.00,0.0323
630.00,0.0325
629.00,0.0327
628.00,0.0329
627.00,0.0331
626.00,0.0335
625.00,0.0337
624.00,0.0338
623.00,0.0337
622.00,0.0335
621.00,0.0330
620.00,0.0323
619.00,0.0316
618.00,0.0310
617.00,0.0307
616.00,0.0306
615.00,0.0311
614.00,0.0321
613.00,0.0335
612.00,0.0348
611.00,0.0357
610.00,0.0361
609.00,0.0359
608.00,0.0355
607.00,0.0353
606.00,0.0356
605.00,0.0360
604.00,0.0365
603.00,0.0369
602.00,0.0374
601.00,0.0380
600.00,0.0386
599.00,0.0392
598.00,0.0397
597.00,0.0398
596.00,0.0397
595.00,0.0398
594.00,0.0403
593.00,0.0411
592.00,0.0420
591.00,0.0433
590.00,0.0448
589.00,0.0464
588.00,0.0476
587.00,0.0485
586.00,0.0491
585.00,0.0492
584.00,0.0488
583.00,0.0482
582.00,0.0475
581.00,0.0467
580.00,0.0459
579.00,0.0453
578.00,0.0450
577.00,0.0449
576.00,0.0447
575.00,0.0446
574.00,0.0448
573.00,0.0450
572.00,0.0450
571.00,0.0451
570.00,0.0455
569.00,0.0458
568.00,0.0458
567.00,0.0458
566.00,0.0458
565.00,0.0458
564.00,0.0456
563.00,0.0455
562.00,0.0456
561.00,0.0457
560.00,0.0456
559.00,0.0455
558.00,0.0455
557.00,0.0455
556.00,0.0454
555.00,0.0454
554.00,0.0456
553.00,0.0460
552.00,0.0464
551.00,0.0469
550.00,0.0476
549.00,0.0482
548.00,0.0484
547.00,0.0488
546.00,0.0494
545.00,0.0500
544.00,0.0502
543.00,0.0502
542.00,0.0504
541.00,0.0508
540.00,0.0515
539.00,0.0529
538.00,0.0548
537.00,0.0566
536.00,0.0576
535.00,0.0579
534.00,0.0576
533.00,0.0570
532.00,0.0561
531.00,0.0554
530.00,0.0551
529.00,0.0551
528.00,0.0555
527.00,0.0567
526.00,0.0588
525.00,0.0613
524.00,0.0636
523.00,0.0658
522.00,0.0673
521.00,0.0672
520.00,0.0649
519.00,0.0612
518.00,0.0575
517.00,0.0543
516.00,0.0519
515.00,0.0504
514.00,0.0496
513.00,0.0492
512.00,0.0488
511.00,0.0487
510.00,0.0493
509.00,0.0503
508.00,0.0513
507.00,0.0526
506.00,0.0543
505.00,0.0560
504.00,0.0575
503.00,0.0592
502.00,0.0612
501.00,0.0632
500.00,0.0648
499.00,0.0662
498.00,0.0677
497.00,0.0688
496.00,0.0693
495.00,0.0694
494.00,0.0696
493.00,0.0696
492.00,0.0692
491.00,0.0688
490.00,0.0686
489.00,0.0685
488.00,0.0682
487.00,0.0679
486.00,0.0679
485.00,0.0678
484.00,0.0674
483.00,0.0670
482.00,0.0668
481.00,0.0663
480.00,0.0650
479.00,0.0637
478.00,0.0628
477.00,0.0622
476.00,0.0616
475.00,0.0614
474.00,0.0619
473.00,0.0626
472.00,0.0633
471.00,0.0642
470.00,0.0653
469.00,0.0660
468.00,0.0659
467.00,0.0657
466.00,0.0658
465.00,0.0661
464.00,0.0661
463.00,0.0662
462.00,0.0666
461.00,0.0666
460.00,0.0659
459.00,0.0652
458.00,0.0650
457.00,0.0649
456.00,0.0644
455.00,0.0640
454.00,0.0638
453.00,0.0632
452.00,0.0621
451.00,0.0612
450.00,0.0613
449.00,0.0613
448.00,0.0607
447.00,0.0597
446.00,0.0590
445.00,0.0582
444.00,0.0572
443.00,0.0565
442.00,0.0563
441.00,0.0561
440.00,0.0553
439.00,0.0549
438.00,0.0551
437.00,0.0553
436.00,0.0546
435.00,0.0539
434.00,0.0540
433.00,0.0545
432.00,0.0548
431.00,0.0554
430.00,0.0569
429.00,0.0587
428.00,0.0602
427.00,0.0619
426.00,0.0642
425.00,0.0660
424.00,0.0664
423.00,0.0660
422.00,0.0660
421.00,0.0658
420.00,0.0645
419.00,0.0633
418.00,0.0634
417.00,0.0634
416.00,0.0625
415.00,0.0620
414.00,0.0625
413.00,0.0632
412.00,0.0630
411.00,0.0632
410.00,0.0647
409.00,0.0665
408.00,0.0675
407.00,0.0686
406.00,0.0705
405.00,0.0715
404.00,0.0708
403.00,0.0699
402.00,0.0704
401.00,0.0710
400.00,0.0702
