Created as New Dataset,Sample 636 By YargerLab Date Saturday, June 07 2025
cm-1,A
4000.00,0.0126
3999.00,0.0126
3998.00,0.0126
3997.00,0.0126
3996.00,0.0126
3995.00,0.0126
3994.00,0.0126
3993.00,0.0126
3992.00,0.0126
3991.00,0.0126
3990.00,0.0126
3989.00,0.0126
3988.00,0.0126
3987.00,0.0126
3986.00,0.0126
3985.00,0.0126
3984.00,0.0126
3983.00,0.0126
3982.00,0.0125
3981.00,0.0125
3980.00,0.0125
3979.00,0.0125
3978.00,0.0125
3977.00,0.0125
3976.00,0.0125
3975.00,0.0125
3974.00,0.0125
3973.00,0.0125
3972.00,0.0125
3971.00,0.0125
3970.00,0.0125
3969.00,0.0125
3968.00,0.0125
3967.00,0.0125
3966.00,0.0125
3965.00,0.0125
3964.00,0.0125
3963.00,0.0125
3962.00,0.0125
3961.00,0.0125
3960.00,0.0125
3959.00,0.0125
3958.00,0.0125
3957.00,0.0125
3956.00,0.0125
3955.00,0.0125
3954.00,0.0125
3953.00,0.0124
3952.00,0.0124
3951.00,0.0124
3950.00,0.0124
3949.00,0.0124
3948.00,0.0123
3947.00,0.0123
3946.00,0.0123
3945.00,0.0123
3944.00,0.0123
3943.00,0.0124
3942.00,0.0124
3941.00,0.0124
3940.00,0.0124
3939.00,0.0124
3938.00,0.0124
3937.00,0.0124
3936.00,0.0124
3935.00,0.0123
3934.00,0.0123
3933.00,0.0123
3932.00,0.0123
3931.00,0.0124
3930.00,0.0124
3929.00,0.0124
3928.00,0.0125
3927.00,0.0125
3926.00,0.0125
3925.00,0.0126
3924.00,0.0126
3923.00,0.0126
3922.00,0.0125
3921.00,0.0124
3920.00,0.0123
3919.00,0.0123
3918.00,0.0123
3917.00,0.0123
3916.00,0.0124
3915.00,0.0124
3914.00,0.0124
3913.00,0.0125
3912.00,0.0125
3911.00,0.0124
3910.00,0.0124
3909.00,0.0124
3908.00,0.0124
3907.00,0.0123
3906.00,0.0123
3905.00,0.0122
3904.00,0.0120
3903.00,0.0118
3902.00,0.0117
3901.00,0.0117
3900.00,0.0117
3899.00,0.0118
3898.00,0.0119
3897.00,0.0120
3896.00,0.0120
3895.00,0.0120
3894.00,0.0120
3893.00,0.0121
3892.00,0.0121
3891.00,0.0121
3890.00,0.0121
3889.00,0.0120
3888.00,0.0119
3887.00,0.0117
3886.00,0.0117
3885.00,0.0118
3884.00,0.0118
3883.00,0.0118
3882.00,0.0117
3881.00,0.0118
3880.00,0.0118
3879.00,0.0119
3878.00,0.0118
3877.00,0.0118
3876.00,0.0117
3875.00,0.0118
3874.00,0.0119
3873.00,0.0119
3872.00,0.0118
3871.00,0.0116
3870.00,0.0116
3869.00,0.0116
3868.00,0.0116
3867.00,0.0116
3866.00,0.0115
3865.00,0.0115
3864.00,0.0116
3863.00,0.0117
3862.00,0.0116
3861.00,0.0116
3860.00,0.0116
3859.00,0.0117
3858.00,0.0119
3857.00,0.0121
3856.00,0.0122
3855.00,0.0121
3854.00,0.0120
3853.00,0.0118
3852.00,0.0117
3851.00,0.0115
3850.00,0.0115
3849.00,0.0115
3848.00,0.0115
3847.00,0.0115
3846.00,0.0116
3845.00,0.0116
3844.00,0.0115
3843.00,0.0115
3842.00,0.0115
3841.00,0.0115
3840.00,0.0115
3839.00,0.0115
3838.00,0.0115
3837.00,0.0115
3836.00,0.0115
3835.00,0.0115
3834.00,0.0115
3833.00,0.0115
3832.00,0.0115
3831.00,0.0116
3830.00,0.0116
3829.00,0.0116
3828.00,0.0116
3827.00,0.0116
3826.00,0.0117
3825.00,0.0117
3824.00,0.0116
3823.00,0.0114
3822.00,0.0114
3821.00,0.0115
3820.00,0.0116
3819.00,0.0116
3818.00,0.0114
3817.00,0.0114
3816.00,0.0115
3815.00,0.0116
3814.00,0.0118
3813.00,0.0118
3812.00,0.0118
3811.00,0.0118
3810.00,0.0119
3809.00,0.0119
3808.00,0.0118
3807.00,0.0118
3806.00,0.0117
3805.00,0.0117
3804.00,0.0116
3803.00,0.0115
3802.00,0.0115
3801.00,0.0115
3800.00,0.0116
3799.00,0.0115
3798.00,0.0115
3797.00,0.0115
3796.00,0.0116
3795.00,0.0117
3794.00,0.0118
3793.00,0.0118
3792.00,0.0119
3791.00,0.0119
3790.00,0.0120
3789.00,0.0120
3788.00,0.0120
3787.00,0.0120
3786.00,0.0119
3785.00,0.0119
3784.00,0.0119
3783.00,0.0118
3782.00,0.0117
3781.00,0.0117
3780.00,0.0117
3779.00,0.0117
3778.00,0.0117
3777.00,0.0117
3776.00,0.0117
3775.00,0.0117
3774.00,0.0118
3773.00,0.0118
3772.00,0.0117
3771.00,0.0116
3770.00,0.0116
3769.00,0.0116
3768.00,0.0115
3767.00,0.0115
3766.00,0.0115
3765.00,0.0115
3764.00,0.0115
3763.00,0.0115
3762.00,0.0115
3761.00,0.0114
3760.00,0.0114
3759.00,0.0114
3758.00,0.0113
3757.00,0.0113
3756.00,0.0113
3755.00,0.0112
3754.00,0.0111
3753.00,0.0110
3752.00,0.0109
3751.00,0.0109
3750.00,0.0107
3749.00,0.0106
3748.00,0.0107
3747.00,0.0107
3746.00,0.0106
3745.00,0.0105
3744.00,0.0106
3743.00,0.0107
3742.00,0.0107
3741.00,0.0106
3740.00,0.0105
3739.00,0.0104
3738.00,0.0103
3737.00,0.0103
3736.00,0.0103
3735.00,0.0105
3734.00,0.0105
3733.00,0.0106
3732.00,0.0106
3731.00,0.0107
3730.00,0.0109
3729.00,0.0109
3728.00,0.0109
3727.00,0.0109
3726.00,0.0110
3725.00,0.0110
3724.00,0.0111
3723.00,0.0111
3722.00,0.0111
3721.00,0.0112
3720.00,0.0112
3719.00,0.0113
3718.00,0.0113
3717.00,0.0113
3716.00,0.0113
3715.00,0.0112
3714.00,0.0111
3713.00,0.0110
3712.00,0.0110
3711.00,0.0109
3710.00,0.0109
3709.00,0.0109
3708.00,0.0109
3707.00,0.0110
3706.00,0.0110
3705.00,0.0111
3704.00,0.0112
3703.00,0.0112
3702.00,0.0112
3701.00,0.0113
3700.00,0.0113
3699.00,0.0112
3698.00,0.0112
3697.00,0.0112
3696.00,0.0112
3695.00,0.0112
3694.00,0.0112
3693.00,0.0111
3692.00,0.0111
3691.00,0.0111
3690.00,0.0111
3689.00,0.0109
3688.00,0.0108
3687.00,0.0108
3686.00,0.0109
3685.00,0.0109
3684.00,0.0109
3683.00,0.0109
3682.00,0.0109
3681.00,0.0109
3680.00,0.0109
3679.00,0.0109
3678.00,0.0108
3677.00,0.0107
3676.00,0.0106
3675.00,0.0106
3674.00,0.0106
3673.00,0.0106
3672.00,0.0105
3671.00,0.0104
3670.00,0.0105
3669.00,0.0107
3668.00,0.0107
3667.00,0.0108
3666.00,0.0108
3665.00,0.0109
3664.00,0.0110
3663.00,0.0110
3662.00,0.0111
3661.00,0.0111
3660.00,0.0110
3659.00,0.0110
3658.00,0.0109
3657.00,0.0109
3656.00,0.0108
3655.00,0.0108
3654.00,0.0107
3653.00,0.0105
3652.00,0.0103
3651.00,0.0101
3650.00,0.0101
3649.00,0.0100
3648.00,0.0099
3647.00,0.0100
3646.00,0.0101
3645.00,0.0103
3644.00,0.0104
3643.00,0.0106
3642.00,0.0107
3641.00,0.0108
3640.00,0.0108
3639.00,0.0108
3638.00,0.0108
3637.00,0.0108
3636.00,0.0107
3635.00,0.0106
3634.00,0.0106
3633.00,0.0106
3632.00,0.0106
3631.00,0.0105
3630.00,0.0104
3629.00,0.0104
3628.00,0.0103
3627.00,0.0103
3626.00,0.0102
3625.00,0.0102
3624.00,0.0103
3623.00,0.0103
3622.00,0.0104
3621.00,0.0105
3620.00,0.0105
3619.00,0.0104
3618.00,0.0103
3617.00,0.0102
3616.00,0.0100
3615.00,0.0100
3614.00,0.0100
3613.00,0.0100
3612.00,0.0100
3611.00,0.0100
3610.00,0.0099
3609.00,0.0099
3608.00,0.0100
3607.00,0.0101
3606.00,0.0102
3605.00,0.0103
3604.00,0.0104
3603.00,0.0104
3602.00,0.0104
3601.00,0.0104
3600.00,0.0104
3599.00,0.0104
3598.00,0.0104
3597.00,0.0103
3596.00,0.0103
3595.00,0.0103
3594.00,0.0103
3593.00,0.0103
3592.00,0.0102
3591.00,0.0101
3590.00,0.0100
3589.00,0.0100
3588.00,0.0101
3587.00,0.0102
3586.00,0.0102
3585.00,0.0102
3584.00,0.0102
3583.00,0.0103
3582.00,0.0103
3581.00,0.0104
3580.00,0.0105
3579.00,0.0106
3578.00,0.0106
3577.00,0.0106
3576.00,0.0106
3575.00,0.0106
3574.00,0.0106
3573.00,0.0105
3572.00,0.0104
3571.00,0.0103
3570.00,0.0101
3569.00,0.0100
3568.00,0.0099
3567.00,0.0099
3566.00,0.0100
3565.00,0.0100
3564.00,0.0101
3563.00,0.0101
3562.00,0.0102
3561.00,0.0103
3560.00,0.0104
3559.00,0.0105
3558.00,0.0105
3557.00,0.0106
3556.00,0.0105
3555.00,0.0105
3554.00,0.0105
3553.00,0.0105
3552.00,0.0105
3551.00,0.0105
3550.00,0.0104
3549.00,0.0103
3548.00,0.0102
3547.00,0.0101
3546.00,0.0102
3545.00,0.0102
3544.00,0.0103
3543.00,0.0103
3542.00,0.0104
3541.00,0.0104
3540.00,0.0105
3539.00,0.0105
3538.00,0.0105
3537.00,0.0105
3536.00,0.0105
3535.00,0.0105
3534.00,0.0105
3533.00,0.0105
3532.00,0.0104
3531.00,0.0104
3530.00,0.0104
3529.00,0.0104
3528.00,0.0103
3527.00,0.0103
3526.00,0.0103
3525.00,0.0103
3524.00,0.0103
3523.00,0.0103
3522.00,0.0104
3521.00,0.0104
3520.00,0.0104
3519.00,0.0105
3518.00,0.0105
3517.00,0.0105
3516.00,0.0104
3515.00,0.0104
3514.00,0.0104
3513.00,0.0104
3512.00,0.0104
3511.00,0.0104
3510.00,0.0104
3509.00,0.0104
3508.00,0.0104
3507.00,0.0103
3506.00,0.0103
3505.00,0.0103
3504.00,0.0103
3503.00,0.0103
3502.00,0.0103
3501.00,0.0103
3500.00,0.0103
3499.00,0.0103
3498.00,0.0103
3497.00,0.0103
3496.00,0.0104
3495.00,0.0104
3494.00,0.0104
3493.00,0.0104
3492.00,0.0104
3491.00,0.0104
3490.00,0.0103
3489.00,0.0103
3488.00,0.0103
3487.00,0.0103
3486.00,0.0103
3485.00,0.0102
3484.00,0.0102
3483.00,0.0102
3482.00,0.0102
3481.00,0.0102
3480.00,0.0103
3479.00,0.0103
3478.00,0.0103
3477.00,0.0103
3476.00,0.0104
3475.00,0.0104
3474.00,0.0104
3473.00,0.0103
3472.00,0.0103
3471.00,0.0103
3470.00,0.0103
3469.00,0.0103
3468.00,0.0103
3467.00,0.0103
3466.00,0.0103
3465.00,0.0103
3464.00,0.0103
3463.00,0.0103
3462.00,0.0102
3461.00,0.0102
3460.00,0.0102
3459.00,0.0102
3458.00,0.0102
3457.00,0.0102
3456.00,0.0103
3455.00,0.0103
3454.00,0.0103
3453.00,0.0103
3452.00,0.0103
3451.00,0.0103
3450.00,0.0102
3449.00,0.0102
3448.00,0.0102
3447.00,0.0102
3446.00,0.0102
3445.00,0.0102
3444.00,0.0103
3443.00,0.0103
3442.00,0.0103
3441.00,0.0103
3440.00,0.0103
3439.00,0.0103
3438.00,0.0103
3437.00,0.0103
3436.00,0.0103
3435.00,0.0104
3434.00,0.0104
3433.00,0.0104
3432.00,0.0104
3431.00,0.0105
3430.00,0.0105
3429.00,0.0106
3428.00,0.0107
3427.00,0.0107
3426.00,0.0108
3425.00,0.0108
3424.00,0.0108
3423.00,0.0108
3422.00,0.0109
3421.00,0.0110
3420.00,0.0110
3419.00,0.0111
3418.00,0.0112
3417.00,0.0113
3416.00,0.0114
3415.00,0.0114
3414.00,0.0115
3413.00,0.0116
3412.00,0.0118
3411.00,0.0120
3410.00,0.0121
3409.00,0.0124
3408.00,0.0126
3407.00,0.0128
3406.00,0.0131
3405.00,0.0133
3404.00,0.0135
3403.00,0.0137
3402.00,0.0139
3401.00,0.0142
3400.00,0.0146
3399.00,0.0151
3398.00,0.0157
3397.00,0.0163
3396.00,0.0168
3395.00,0.0174
3394.00,0.0180
3393.00,0.0187
3392.00,0.0195
3391.00,0.0205
3390.00,0.0217
3389.00,0.0229
3388.00,0.0243
3387.00,0.0259
3386.00,0.0276
3385.00,0.0295
3384.00,0.0315
3383.00,0.0338
3382.00,0.0362
3381.00,0.0389
3380.00,0.0417
3379.00,0.0446
3378.00,0.0475
3377.00,0.0503
3376.00,0.0531
3375.00,0.0555
3374.00,0.0576
3373.00,0.0592
3372.00,0.0604
3371.00,0.0610
3370.00,0.0613
3369.00,0.0611
3368.00,0.0607
3367.00,0.0600
3366.00,0.0591
3365.00,0.0579
3364.00,0.0566
3363.00,0.0551
3362.00,0.0534
3361.00,0.0518
3360.00,0.0501
3359.00,0.0485
3358.00,0.0468
3357.00,0.0451
3356.00,0.0435
3355.00,0.0419
3354.00,0.0403
3353.00,0.0389
3352.00,0.0375
3351.00,0.0361
3350.00,0.0350
3349.00,0.0338
3348.00,0.0328
3347.00,0.0318
3346.00,0.0308
3345.00,0.0299
3344.00,0.0291
3343.00,0.0283
3342.00,0.0275
3341.00,0.0268
3340.00,0.0262
3339.00,0.0256
3338.00,0.0251
3337.00,0.0246
3336.00,0.0242
3335.00,0.0238
3334.00,0.0234
3333.00,0.0230
3332.00,0.0226
3331.00,0.0223
3330.00,0.0220
3329.00,0.0217
3328.00,0.0214
3327.00,0.0211
3326.00,0.0208
3325.00,0.0206
3324.00,0.0204
3323.00,0.0202
3322.00,0.0201
3321.00,0.0199
3320.00,0.0198
3319.00,0.0196
3318.00,0.0195
3317.00,0.0193
3316.00,0.0192
3315.00,0.0191
3314.00,0.0189
3313.00,0.0188
3312.00,0.0187
3311.00,0.0185
3310.00,0.0184
3309.00,0.0182
3308.00,0.0181
3307.00,0.0180
3306.00,0.0179
3305.00,0.0179
3304.00,0.0178
3303.00,0.0177
3302.00,0.0176
3301.00,0.0175
3300.00,0.0174
3299.00,0.0173
3298.00,0.0171
3297.00,0.0170
3296.00,0.0168
3295.00,0.0167
3294.00,0.0165
3293.00,0.0164
3292.00,0.0163
3291.00,0.0162
3290.00,0.0162
3289.00,0.0161
3288.00,0.0160
3287.00,0.0159
3286.00,0.0158
3285.00,0.0157
3284.00,0.0156
3283.00,0.0154
3282.00,0.0153
3281.00,0.0151
3280.00,0.0150
3279.00,0.0149
3278.00,0.0148
3277.00,0.0146
3276.00,0.0145
3275.00,0.0144
3274.00,0.0143
3273.00,0.0142
3272.00,0.0142
3271.00,0.0141
3270.00,0.0141
3269.00,0.0141
3268.00,0.0141
3267.00,0.0141
3266.00,0.0141
3265.00,0.0141
3264.00,0.0141
3263.00,0.0140
3262.00,0.0140
3261.00,0.0140
3260.00,0.0140
3259.00,0.0139
3258.00,0.0139
3257.00,0.0139
3256.00,0.0139
3255.00,0.0139
3254.00,0.0140
3253.00,0.0140
3252.00,0.0140
3251.00,0.0140
3250.00,0.0140
3249.00,0.0140
3248.00,0.0139
3247.00,0.0139
3246.00,0.0140
3245.00,0.0141
3244.00,0.0142
3243.00,0.0142
3242.00,0.0142
3241.00,0.0143
3240.00,0.0143
3239.00,0.0143
3238.00,0.0142
3237.00,0.0142
3236.00,0.0141
3235.00,0.0140
3234.00,0.0140
3233.00,0.0140
3232.00,0.0140
3231.00,0.0141
3230.00,0.0141
3229.00,0.0141
3228.00,0.0141
3227.00,0.0140
3226.00,0.0139
3225.00,0.0138
3224.00,0.0138
3223.00,0.0137
3222.00,0.0136
3221.00,0.0135
3220.00,0.0134
3219.00,0.0134
3218.00,0.0133
3217.00,0.0132
3216.00,0.0131
3215.00,0.0131
3214.00,0.0130
3213.00,0.0130
3212.00,0.0129
3211.00,0.0129
3210.00,0.0128
3209.00,0.0128
3208.00,0.0127
3207.00,0.0126
3206.00,0.0126
3205.00,0.0125
3204.00,0.0125
3203.00,0.0125
3202.00,0.0125
3201.00,0.0124
3200.00,0.0124
3199.00,0.0124
3198.00,0.0123
3197.00,0.0123
3196.00,0.0123
3195.00,0.0123
3194.00,0.0122
3193.00,0.0122
3192.00,0.0122
3191.00,0.0122
3190.00,0.0121
3189.00,0.0121
3188.00,0.0121
3187.00,0.0121
3186.00,0.0121
3185.00,0.0121
3184.00,0.0120
3183.00,0.0120
3182.00,0.0120
3181.00,0.0120
3180.00,0.0120
3179.00,0.0120
3178.00,0.0119
3177.00,0.0119
3176.00,0.0119
3175.00,0.0119
3174.00,0.0119
3173.00,0.0119
3172.00,0.0119
3171.00,0.0119
3170.00,0.0119
3169.00,0.0119
3168.00,0.0119
3167.00,0.0119
3166.00,0.0119
3165.00,0.0118
3164.00,0.0118
3163.00,0.0118
3162.00,0.0118
3161.00,0.0118
3160.00,0.0118
3159.00,0.0118
3158.00,0.0118
3157.00,0.0118
3156.00,0.0118
3155.00,0.0117
3154.00,0.0117
3153.00,0.0117
3152.00,0.0118
3151.00,0.0118
3150.00,0.0118
3149.00,0.0118
3148.00,0.0119
3147.00,0.0119
3146.00,0.0119
3145.00,0.0119
3144.00,0.0119
3143.00,0.0119
3142.00,0.0119
3141.00,0.0119
3140.00,0.0119
3139.00,0.0119
3138.00,0.0119
3137.00,0.0119
3136.00,0.0120
3135.00,0.0120
3134.00,0.0120
3133.00,0.0120
3132.00,0.0120
3131.00,0.0120
3130.00,0.0121
3129.00,0.0121
3128.00,0.0122
3127.00,0.0123
3126.00,0.0123
3125.00,0.0123
3124.00,0.0123
3123.00,0.0123
3122.00,0.0124
3121.00,0.0124
3120.00,0.0124
3119.00,0.0125
3118.00,0.0125
3117.00,0.0125
3116.00,0.0126
3115.00,0.0127
3114.00,0.0128
3113.00,0.0129
3112.00,0.0130
3111.00,0.0130
3110.00,0.0131
3109.00,0.0132
3108.00,0.0133
3107.00,0.0134
3106.00,0.0135
3105.00,0.0135
3104.00,0.0136
3103.00,0.0136
3102.00,0.0137
3101.00,0.0138
3100.00,0.0138
3099.00,0.0138
3098.00,0.0139
3097.00,0.0139
3096.00,0.0139
3095.00,0.0139
3094.00,0.0138
3093.00,0.0138
3092.00,0.0137
3091.00,0.0136
3090.00,0.0136
3089.00,0.0135
3088.00,0.0135
3087.00,0.0134
3086.00,0.0134
3085.00,0.0134
3084.00,0.0134
3083.00,0.0133
3082.00,0.0133
3081.00,0.0133
3080.00,0.0133
3079.00,0.0134
3078.00,0.0134
3077.00,0.0135
3076.00,0.0136
3075.00,0.0138
3074.00,0.0139
3073.00,0.0141
3072.00,0.0142
3071.00,0.0143
3070.00,0.0144
3069.00,0.0143
3068.00,0.0142
3067.00,0.0141
3066.00,0.0139
3065.00,0.0136
3064.00,0.0134
3063.00,0.0132
3062.00,0.0130
3061.00,0.0129
3060.00,0.0128
3059.00,0.0127
3058.00,0.0127
3057.00,0.0127
3056.00,0.0127
3055.00,0.0127
3054.00,0.0128
3053.00,0.0128
3052.00,0.0128
3051.00,0.0127
3050.00,0.0127
3049.00,0.0126
3048.00,0.0125
3047.00,0.0124
3046.00,0.0124
3045.00,0.0123
3044.00,0.0123
3043.00,0.0122
3042.00,0.0122
3041.00,0.0122
3040.00,0.0122
3039.00,0.0122
3038.00,0.0122
3037.00,0.0122
3036.00,0.0122
3035.00,0.0122
3034.00,0.0122
3033.00,0.0123
3032.00,0.0123
3031.00,0.0124
3030.00,0.0125
3029.00,0.0126
3028.00,0.0127
3027.00,0.0128
3026.00,0.0129
3025.00,0.0130
3024.00,0.0132
3023.00,0.0133
3022.00,0.0135
3021.00,0.0136
3020.00,0.0137
3019.00,0.0138
3018.00,0.0139
3017.00,0.0140
3016.00,0.0141
3015.00,0.0142
3014.00,0.0143
3013.00,0.0144
3012.00,0.0146
3011.00,0.0148
3010.00,0.0150
3009.00,0.0153
3008.00,0.0156
3007.00,0.0159
3006.00,0.0162
3005.00,0.0164
3004.00,0.0168
3003.00,0.0171
3002.00,0.0174
3001.00,0.0178
3000.00,0.0181
2999.00,0.0185
2998.00,0.0190
2997.00,0.0195
2996.00,0.0200
2995.00,0.0205
2994.00,0.0210
2993.00,0.0215
2992.00,0.0219
2991.00,0.0223
2990.00,0.0226
2989.00,0.0229
2988.00,0.0230
2987.00,0.0231
2986.00,0.0233
2985.00,0.0234
2984.00,0.0235
2983.00,0.0236
2982.00,0.0237
2981.00,0.0237
2980.00,0.0236
2979.00,0.0233
2978.00,0.0229
2977.00,0.0223
2976.00,0.0217
2975.00,0.0210
2974.00,0.0205
2973.00,0.0200
2972.00,0.0196
2971.00,0.0193
2970.00,0.0190
2969.00,0.0189
2968.00,0.0188
2967.00,0.0188
2966.00,0.0189
2965.00,0.0190
2964.00,0.0192
2963.00,0.0195
2962.00,0.0198
2961.00,0.0202
2960.00,0.0206
2959.00,0.0210
2958.00,0.0214
2957.00,0.0218
2956.00,0.0223
2955.00,0.0227
2954.00,0.0231
2953.00,0.0236
2952.00,0.0242
2951.00,0.0247
2950.00,0.0252
2949.00,0.0255
2948.00,0.0256
2947.00,0.0256
2946.00,0.0254
2945.00,0.0252
2944.00,0.0249
2943.00,0.0246
2942.00,0.0242
2941.00,0.0239
2940.00,0.0235
2939.00,0.0232
2938.00,0.0228
2937.00,0.0225
2936.00,0.0222
2935.00,0.0219
2934.00,0.0215
2933.00,0.0211
2932.00,0.0206
2931.00,0.0202
2930.00,0.0198
2929.00,0.0194
2928.00,0.0191
2927.00,0.0188
2926.00,0.0185
2925.00,0.0182
2924.00,0.0179
2923.00,0.0177
2922.00,0.0175
2921.00,0.0172
2920.00,0.0170
2919.00,0.0168
2918.00,0.0166
2917.00,0.0165
2916.00,0.0164
2915.00,0.0163
2914.00,0.0163
2913.00,0.0162
2912.00,0.0163
2911.00,0.0163
2910.00,0.0164
2909.00,0.0164
2908.00,0.0165
2907.00,0.0165
2906.00,0.0166
2905.00,0.0166
2904.00,0.0167
2903.00,0.0167
2902.00,0.0167
2901.00,0.0167
2900.00,0.0166
2899.00,0.0166
2898.00,0.0165
2897.00,0.0164
2896.00,0.0163
2895.00,0.0162
2894.00,0.0161
2893.00,0.0160
2892.00,0.0159
2891.00,0.0158
2890.00,0.0157
2889.00,0.0157
2888.00,0.0156
2887.00,0.0156
2886.00,0.0155
2885.00,0.0154
2884.00,0.0153
2883.00,0.0153
2882.00,0.0152
2881.00,0.0151
2880.00,0.0150
2879.00,0.0150
2878.00,0.0149
2877.00,0.0148
2876.00,0.0147
2875.00,0.0146
2874.00,0.0145
2873.00,0.0145
2872.00,0.0144
2871.00,0.0143
2870.00,0.0142
2869.00,0.0140
2868.00,0.0139
2867.00,0.0138
2866.00,0.0137
2865.00,0.0137
2864.00,0.0136
2863.00,0.0135
2862.00,0.0135
2861.00,0.0134
2860.00,0.0134
2859.00,0.0134
2858.00,0.0134
2857.00,0.0135
2856.00,0.0135
2855.00,0.0136
2854.00,0.0136
2853.00,0.0136
2852.00,0.0136
2851.00,0.0136
2850.00,0.0136
2849.00,0.0136
2848.00,0.0135
2847.00,0.0135
2846.00,0.0136
2845.00,0.0136
2844.00,0.0137
2843.00,0.0137
2842.00,0.0138
2841.00,0.0138
2840.00,0.0138
2839.00,0.0138
2838.00,0.0139
2837.00,0.0139
2836.00,0.0138
2835.00,0.0138
2834.00,0.0137
2833.00,0.0136
2832.00,0.0135
2831.00,0.0135
2830.00,0.0134
2829.00,0.0133
2828.00,0.0132
2827.00,0.0131
2826.00,0.0130
2825.00,0.0129
2824.00,0.0128
2823.00,0.0127
2822.00,0.0127
2821.00,0.0126
2820.00,0.0126
2819.00,0.0127
2818.00,0.0127
2817.00,0.0127
2816.00,0.0127
2815.00,0.0127
2814.00,0.0127
2813.00,0.0128
2812.00,0.0128
2811.00,0.0128
2810.00,0.0129
2809.00,0.0129
2808.00,0.0129
2807.00,0.0129
2806.00,0.0129
2805.00,0.0129
2804.00,0.0129
2803.00,0.0129
2802.00,0.0129
2801.00,0.0129
2800.00,0.0128
2799.00,0.0128
2798.00,0.0127
2797.00,0.0127
2796.00,0.0126
2795.00,0.0125
2794.00,0.0124
2793.00,0.0123
2792.00,0.0122
2791.00,0.0122
2790.00,0.0121
2789.00,0.0120
2788.00,0.0119
2787.00,0.0119
2786.00,0.0118
2785.00,0.0117
2784.00,0.0117
2783.00,0.0116
2782.00,0.0116
2781.00,0.0115
2780.00,0.0115
2779.00,0.0114
2778.00,0.0114
2777.00,0.0113
2776.00,0.0113
2775.00,0.0113
2774.00,0.0112
2773.00,0.0112
2772.00,0.0112
2771.00,0.0112
2770.00,0.0112
2769.00,0.0113
2768.00,0.0113
2767.00,0.0113
2766.00,0.0113
2765.00,0.0113
2764.00,0.0113
2763.00,0.0113
2762.00,0.0113
2761.00,0.0113
2760.00,0.0112
2759.00,0.0112
2758.00,0.0112
2757.00,0.0112
2756.00,0.0111
2755.00,0.0111
2754.00,0.0111
2753.00,0.0111
2752.00,0.0111
2751.00,0.0110
2750.00,0.0110
2749.00,0.0110
2748.00,0.0109
2747.00,0.0109
2746.00,0.0109
2745.00,0.0109
2744.00,0.0109
2743.00,0.0109
2742.00,0.0109
2741.00,0.0109
2740.00,0.0109
2739.00,0.0108
2738.00,0.0108
2737.00,0.0108
2736.00,0.0108
2735.00,0.0108
2734.00,0.0108
2733.00,0.0108
2732.00,0.0108
2731.00,0.0108
2730.00,0.0107
2729.00,0.0107
2728.00,0.0106
2727.00,0.0106
2726.00,0.0106
2725.00,0.0105
2724.00,0.0105
2723.00,0.0105
2722.00,0.0105
2721.00,0.0105
2720.00,0.0105
2719.00,0.0105
2718.00,0.0105
2717.00,0.0105
2716.00,0.0105
2715.00,0.0104
2714.00,0.0104
2713.00,0.0104
2712.00,0.0104
2711.00,0.0104
2710.00,0.0104
2709.00,0.0104
2708.00,0.0104
2707.00,0.0104
2706.00,0.0105
2705.00,0.0105
2704.00,0.0105
2703.00,0.0105
2702.00,0.0105
2701.00,0.0105
2700.00,0.0105
2699.00,0.0105
2698.00,0.0105
2697.00,0.0105
2696.00,0.0105
2695.00,0.0105
2694.00,0.0105
2693.00,0.0105
2692.00,0.0105
2691.00,0.0104
2690.00,0.0104
2689.00,0.0104
2688.00,0.0104
2687.00,0.0104
2686.00,0.0104
2685.00,0.0103
2684.00,0.0103
2683.00,0.0103
2682.00,0.0103
2681.00,0.0103
2680.00,0.0103
2679.00,0.0103
2678.00,0.0103
2677.00,0.0103
2676.00,0.0103
2675.00,0.0103
2674.00,0.0103
2673.00,0.0103
2672.00,0.0103
2671.00,0.0103
2670.00,0.0103
2669.00,0.0103
2668.00,0.0103
2667.00,0.0103
2666.00,0.0104
2665.00,0.0104
2664.00,0.0105
2663.00,0.0105
2662.00,0.0106
2661.00,0.0106
2660.00,0.0107
2659.00,0.0107
2658.00,0.0107
2657.00,0.0107
2656.00,0.0108
2655.00,0.0107
2654.00,0.0107
2653.00,0.0107
2652.00,0.0107
2651.00,0.0107
2650.00,0.0107
2649.00,0.0107
2648.00,0.0107
2647.00,0.0107
2646.00,0.0107
2645.00,0.0107
2644.00,0.0107
2643.00,0.0107
2642.00,0.0107
2641.00,0.0107
2640.00,0.0107
2639.00,0.0107
2638.00,0.0107
2637.00,0.0107
2636.00,0.0107
2635.00,0.0107
2634.00,0.0107
2633.00,0.0107
2632.00,0.0107
2631.00,0.0107
2630.00,0.0107
2629.00,0.0107
2628.00,0.0107
2627.00,0.0108
2626.00,0.0108
2625.00,0.0108
2624.00,0.0108
2623.00,0.0108
2622.00,0.0108
2621.00,0.0108
2620.00,0.0108
2619.00,0.0108
2618.00,0.0108
2617.00,0.0108
2616.00,0.0108
2615.00,0.0108
2614.00,0.0109
2613.00,0.0109
2612.00,0.0109
2611.00,0.0109
2610.00,0.0109
2609.00,0.0108
2608.00,0.0108
2607.00,0.0108
2606.00,0.0107
2605.00,0.0107
2604.00,0.0107
2603.00,0.0107
2602.00,0.0107
2601.00,0.0107
2600.00,0.0107
2599.00,0.0106
2598.00,0.0106
2597.00,0.0106
2596.00,0.0106
2595.00,0.0106
2594.00,0.0106
2593.00,0.0105
2592.00,0.0105
2591.00,0.0105
2590.00,0.0105
2589.00,0.0104
2588.00,0.0104
2587.00,0.0104
2586.00,0.0104
2585.00,0.0103
2584.00,0.0102
2583.00,0.0102
2582.00,0.0102
2581.00,0.0101
2580.00,0.0101
2579.00,0.0101
2578.00,0.0101
2577.00,0.0101
2576.00,0.0101
2575.00,0.0101
2574.00,0.0101
2573.00,0.0100
2572.00,0.0101
2571.00,0.0101
2570.00,0.0101
2569.00,0.0101
2568.00,0.0101
2567.00,0.0100
2566.00,0.0100
2565.00,0.0100
2564.00,0.0100
2563.00,0.0100
2562.00,0.0101
2561.00,0.0101
2560.00,0.0101
2559.00,0.0101
2558.00,0.0101
2557.00,0.0101
2556.00,0.0101
2555.00,0.0101
2554.00,0.0101
2553.00,0.0101
2552.00,0.0101
2551.00,0.0101
2550.00,0.0101
2549.00,0.0101
2548.00,0.0100
2547.00,0.0099
2546.00,0.0099
2545.00,0.0098
2544.00,0.0097
2543.00,0.0097
2542.00,0.0096
2541.00,0.0096
2540.00,0.0096
2539.00,0.0095
2538.00,0.0095
2537.00,0.0095
2536.00,0.0095
2535.00,0.0095
2534.00,0.0095
2533.00,0.0095
2532.00,0.0095
2531.00,0.0095
2530.00,0.0095
2529.00,0.0095
2528.00,0.0095
2527.00,0.0095
2526.00,0.0095
2525.00,0.0095
2524.00,0.0096
2523.00,0.0096
2522.00,0.0096
2521.00,0.0097
2520.00,0.0097
2519.00,0.0097
2518.00,0.0097
2517.00,0.0097
2516.00,0.0097
2515.00,0.0097
2514.00,0.0097
2513.00,0.0097
2512.00,0.0097
2511.00,0.0097
2510.00,0.0097
2509.00,0.0097
2508.00,0.0097
2507.00,0.0097
2506.00,0.0097
2505.00,0.0097
2504.00,0.0097
2503.00,0.0097
2502.00,0.0096
2501.00,0.0096
2500.00,0.0096
2499.00,0.0096
2498.00,0.0096
2497.00,0.0095
2496.00,0.0096
2495.00,0.0096
2494.00,0.0095
2493.00,0.0095
2492.00,0.0095
2491.00,0.0095
2490.00,0.0094
2489.00,0.0094
2488.00,0.0095
2487.00,0.0095
2486.00,0.0096
2485.00,0.0096
2484.00,0.0096
2483.00,0.0097
2482.00,0.0096
2481.00,0.0096
2480.00,0.0096
2479.00,0.0096
2478.00,0.0096
2477.00,0.0096
2476.00,0.0096
2475.00,0.0095
2474.00,0.0095
2473.00,0.0095
2472.00,0.0095
2471.00,0.0095
2470.00,0.0095
2469.00,0.0095
2468.00,0.0094
2467.00,0.0094
2466.00,0.0094
2465.00,0.0094
2464.00,0.0095
2463.00,0.0095
2462.00,0.0095
2461.00,0.0096
2460.00,0.0096
2459.00,0.0096
2458.00,0.0095
2457.00,0.0095
2456.00,0.0095
2455.00,0.0095
2454.00,0.0094
2453.00,0.0094
2452.00,0.0094
2451.00,0.0093
2450.00,0.0093
2449.00,0.0092
2448.00,0.0092
2447.00,0.0092
2446.00,0.0092
2445.00,0.0092
2444.00,0.0092
2443.00,0.0092
2442.00,0.0091
2441.00,0.0092
2440.00,0.0092
2439.00,0.0091
2438.00,0.0091
2437.00,0.0090
2436.00,0.0090
2435.00,0.0090
2434.00,0.0090
2433.00,0.0090
2432.00,0.0091
2431.00,0.0091
2430.00,0.0090
2429.00,0.0090
2428.00,0.0090
2427.00,0.0090
2426.00,0.0090
2425.00,0.0090
2424.00,0.0090
2423.00,0.0090
2422.00,0.0090
2421.00,0.0090
2420.00,0.0090
2419.00,0.0090
2418.00,0.0090
2417.00,0.0090
2416.00,0.0090
2415.00,0.0090
2414.00,0.0090
2413.00,0.0090
2412.00,0.0090
2411.00,0.0090
2410.00,0.0089
2409.00,0.0089
2408.00,0.0088
2407.00,0.0087
2406.00,0.0087
2405.00,0.0086
2404.00,0.0086
2403.00,0.0086
2402.00,0.0086
2401.00,0.0086
2400.00,0.0086
2399.00,0.0085
2398.00,0.0085
2397.00,0.0085
2396.00,0.0085
2395.00,0.0085
2394.00,0.0084
2393.00,0.0084
2392.00,0.0084
2391.00,0.0084
2390.00,0.0084
2389.00,0.0084
2388.00,0.0084
2387.00,0.0083
2386.00,0.0083
2385.00,0.0082
2384.00,0.0081
2383.00,0.0081
2382.00,0.0080
2381.00,0.0080
2380.00,0.0080
2379.00,0.0080
2378.00,0.0079
2377.00,0.0079
2376.00,0.0080
2375.00,0.0080
2374.00,0.0080
2373.00,0.0080
2372.00,0.0079
2371.00,0.0079
2370.00,0.0078
2369.00,0.0077
2368.00,0.0077
2367.00,0.0078
2366.00,0.0078
2365.00,0.0079
2364.00,0.0079
2363.00,0.0079
2362.00,0.0079
2361.00,0.0079
2360.00,0.0079
2359.00,0.0079
2358.00,0.0080
2357.00,0.0080
2356.00,0.0080
2355.00,0.0080
2354.00,0.0080
2353.00,0.0080
2352.00,0.0080
2351.00,0.0080
2350.00,0.0081
2349.00,0.0081
2348.00,0.0081
2347.00,0.0081
2346.00,0.0081
2345.00,0.0081
2344.00,0.0082
2343.00,0.0083
2342.00,0.0083
2341.00,0.0084
2340.00,0.0084
2339.00,0.0084
2338.00,0.0084
2337.00,0.0084
2336.00,0.0084
2335.00,0.0085
2334.00,0.0085
2333.00,0.0085
2332.00,0.0084
2331.00,0.0084
2330.00,0.0085
2329.00,0.0086
2328.00,0.0090
2327.00,0.0094
2326.00,0.0097
2325.00,0.0098
2324.00,0.0097
2323.00,0.0095
2322.00,0.0092
2321.00,0.0090
2320.00,0.0089
2319.00,0.0088
2318.00,0.0087
2317.00,0.0086
2316.00,0.0086
2315.00,0.0085
2314.00,0.0085
2313.00,0.0084
2312.00,0.0083
2311.00,0.0082
2310.00,0.0082
2309.00,0.0082
2308.00,0.0082
2307.00,0.0083
2306.00,0.0083
2305.00,0.0084
2304.00,0.0084
2303.00,0.0085
2302.00,0.0085
2301.00,0.0085
2300.00,0.0085
2299.00,0.0086
2298.00,0.0086
2297.00,0.0087
2296.00,0.0088
2295.00,0.0089
2294.00,0.0090
2293.00,0.0091
2292.00,0.0092
2291.00,0.0093
2290.00,0.0093
2289.00,0.0093
2288.00,0.0093
2287.00,0.0093
2286.00,0.0092
2285.00,0.0091
2284.00,0.0090
2283.00,0.0089
2282.00,0.0088
2281.00,0.0088
2280.00,0.0087
2279.00,0.0087
2278.00,0.0086
2277.00,0.0086
2276.00,0.0086
2275.00,0.0085
2274.00,0.0085
2273.00,0.0085
2272.00,0.0085
2271.00,0.0084
2270.00,0.0083
2269.00,0.0082
2268.00,0.0082
2267.00,0.0081
2266.00,0.0081
2265.00,0.0081
2264.00,0.0082
2263.00,0.0082
2262.00,0.0082
2261.00,0.0083
2260.00,0.0083
2259.00,0.0083
2258.00,0.0082
2257.00,0.0081
2256.00,0.0080
2255.00,0.0079
2254.00,0.0078
2253.00,0.0078
2252.00,0.0078
2251.00,0.0079
2250.00,0.0079
2249.00,0.0079
2248.00,0.0079
2247.00,0.0079
2246.00,0.0079
2245.00,0.0079
2244.00,0.0079
2243.00,0.0079
2242.00,0.0079
2241.00,0.0079
2240.00,0.0079
2239.00,0.0078
2238.00,0.0077
2237.00,0.0076
2236.00,0.0076
2235.00,0.0074
2234.00,0.0073
2233.00,0.0072
2232.00,0.0073
2231.00,0.0074
2230.00,0.0074
2229.00,0.0075
2228.00,0.0075
2227.00,0.0074
2226.00,0.0074
2225.00,0.0074
2224.00,0.0074
2223.00,0.0074
2222.00,0.0072
2221.00,0.0071
2220.00,0.0071
2219.00,0.0070
2218.00,0.0070
2217.00,0.0070
2216.00,0.0070
2215.00,0.0069
2214.00,0.0068
2213.00,0.0068
2212.00,0.0069
2211.00,0.0069
2210.00,0.0068
2209.00,0.0068
2208.00,0.0068
2207.00,0.0068
2206.00,0.0068
2205.00,0.0068
2204.00,0.0068
2203.00,0.0067
2202.00,0.0065
2201.00,0.0064
2200.00,0.0063
2199.00,0.0062
2198.00,0.0061
2197.00,0.0060
2196.00,0.0060
2195.00,0.0061
2194.00,0.0061
2193.00,0.0062
2192.00,0.0063
2191.00,0.0063
2190.00,0.0063
2189.00,0.0064
2188.00,0.0066
2187.00,0.0066
2186.00,0.0066
2185.00,0.0065
2184.00,0.0064
2183.00,0.0063
2182.00,0.0061
2181.00,0.0061
2180.00,0.0062
2179.00,0.0062
2178.00,0.0061
2177.00,0.0060
2176.00,0.0061
2175.00,0.0062
2174.00,0.0064
2173.00,0.0067
2172.00,0.0072
2171.00,0.0075
2170.00,0.0078
2169.00,0.0080
2168.00,0.0083
2167.00,0.0083
2166.00,0.0083
2165.00,0.0084
2164.00,0.0086
2163.00,0.0086
2162.00,0.0080
2161.00,0.0069
2160.00,0.0055
2159.00,0.0043
2158.00,0.0037
2157.00,0.0038
2156.00,0.0042
2155.00,0.0045
2154.00,0.0047
2153.00,0.0049
2152.00,0.0052
2151.00,0.0054
2150.00,0.0054
2149.00,0.0054
2148.00,0.0054
2147.00,0.0053
2146.00,0.0052
2145.00,0.0052
2144.00,0.0054
2143.00,0.0054
2142.00,0.0054
2141.00,0.0053
2140.00,0.0054
2139.00,0.0054
2138.00,0.0052
2137.00,0.0051
2136.00,0.0049
2135.00,0.0047
2134.00,0.0045
2133.00,0.0046
2132.00,0.0048
2131.00,0.0051
2130.00,0.0052
2129.00,0.0053
2128.00,0.0054
2127.00,0.0055
2126.00,0.0056
2125.00,0.0056
2124.00,0.0057
2123.00,0.0058
2122.00,0.0058
2121.00,0.0059
2120.00,0.0060
2119.00,0.0061
2118.00,0.0062
2117.00,0.0063
2116.00,0.0065
2115.00,0.0066
2114.00,0.0066
2113.00,0.0066
2112.00,0.0067
2111.00,0.0068
2110.00,0.0068
2109.00,0.0068
2108.00,0.0068
2107.00,0.0068
2106.00,0.0068
2105.00,0.0069
2104.00,0.0070
2103.00,0.0071
2102.00,0.0071
2101.00,0.0071
2100.00,0.0072
2099.00,0.0071
2098.00,0.0069
2097.00,0.0066
2096.00,0.0064
2095.00,0.0063
2094.00,0.0063
2093.00,0.0064
2092.00,0.0066
2091.00,0.0067
2090.00,0.0067
2089.00,0.0067
2088.00,0.0068
2087.00,0.0068
2086.00,0.0068
2085.00,0.0068
2084.00,0.0068
2083.00,0.0068
2082.00,0.0067
2081.00,0.0067
2080.00,0.0068
2079.00,0.0068
2078.00,0.0067
2077.00,0.0067
2076.00,0.0068
2075.00,0.0068
2074.00,0.0067
2073.00,0.0067
2072.00,0.0068
2071.00,0.0068
2070.00,0.0068
2069.00,0.0067
2068.00,0.0067
2067.00,0.0066
2066.00,0.0065
2065.00,0.0064
2064.00,0.0065
2063.00,0.0065
2062.00,0.0065
2061.00,0.0065
2060.00,0.0065
2059.00,0.0064
2058.00,0.0063
2057.00,0.0062
2056.00,0.0061
2055.00,0.0061
2054.00,0.0062
2053.00,0.0066
2052.00,0.0070
2051.00,0.0070
2050.00,0.0066
2049.00,0.0062
2048.00,0.0059
2047.00,0.0058
2046.00,0.0056
2045.00,0.0056
2044.00,0.0056
2043.00,0.0056
2042.00,0.0054
2041.00,0.0053
2040.00,0.0053
2039.00,0.0053
2038.00,0.0053
2037.00,0.0054
2036.00,0.0055
2035.00,0.0055
2034.00,0.0052
2033.00,0.0050
2032.00,0.0050
2031.00,0.0050
2030.00,0.0048
2029.00,0.0049
2028.00,0.0050
2027.00,0.0049
2026.00,0.0048
2025.00,0.0048
2024.00,0.0049
2023.00,0.0050
2022.00,0.0050
2021.00,0.0051
2020.00,0.0053
2019.00,0.0052
2018.00,0.0050
2017.00,0.0050
2016.00,0.0051
2015.00,0.0051
2014.00,0.0050
2013.00,0.0050
2012.00,0.0052
2011.00,0.0053
2010.00,0.0052
2009.00,0.0051
2008.00,0.0050
2007.00,0.0047
2006.00,0.0045
2005.00,0.0045
2004.00,0.0048
2003.00,0.0051
2002.00,0.0052
2001.00,0.0053
2000.00,0.0054
1999.00,0.0055
1998.00,0.0055
1997.00,0.0056
1996.00,0.0058
1995.00,0.0059
1994.00,0.0058
1993.00,0.0058
1992.00,0.0060
1991.00,0.0061
1990.00,0.0060
1989.00,0.0061
1988.00,0.0063
1987.00,0.0065
1986.00,0.0066
1985.00,0.0068
1984.00,0.0071
1983.00,0.0074
1982.00,0.0076
1981.00,0.0076
1980.00,0.0074
1979.00,0.0067
1978.00,0.0058
1977.00,0.0053
1976.00,0.0051
1975.00,0.0050
1974.00,0.0048
1973.00,0.0049
1972.00,0.0051
1971.00,0.0052
1970.00,0.0051
1969.00,0.0051
1968.00,0.0053
1967.00,0.0053
1966.00,0.0052
1965.00,0.0051
1964.00,0.0051
1963.00,0.0050
1962.00,0.0047
1961.00,0.0045
1960.00,0.0045
1959.00,0.0045
1958.00,0.0045
1957.00,0.0046
1956.00,0.0048
1955.00,0.0049
1954.00,0.0048
1953.00,0.0048
1952.00,0.0049
1951.00,0.0049
1950.00,0.0048
1949.00,0.0048
1948.00,0.0049
1947.00,0.0050
1946.00,0.0050
1945.00,0.0052
1944.00,0.0055
1943.00,0.0057
1942.00,0.0057
1941.00,0.0056
1940.00,0.0055
1939.00,0.0054
1938.00,0.0053
1937.00,0.0054
1936.00,0.0055
1935.00,0.0055
1934.00,0.0055
1933.00,0.0056
1932.00,0.0057
1931.00,0.0057
1930.00,0.0056
1929.00,0.0056
1928.00,0.0056
1927.00,0.0056
1926.00,0.0056
1925.00,0.0057
1924.00,0.0060
1923.00,0.0062
1922.00,0.0064
1921.00,0.0065
1920.00,0.0066
1919.00,0.0067
1918.00,0.0068
1917.00,0.0069
1916.00,0.0070
1915.00,0.0070
1914.00,0.0069
1913.00,0.0068
1912.00,0.0068
1911.00,0.0067
1910.00,0.0065
1909.00,0.0065
1908.00,0.0065
1907.00,0.0065
1906.00,0.0063
1905.00,0.0062
1904.00,0.0062
1903.00,0.0062
1902.00,0.0060
1901.00,0.0060
1900.00,0.0061
1899.00,0.0061
1898.00,0.0060
1897.00,0.0059
1896.00,0.0060
1895.00,0.0060
1894.00,0.0058
1893.00,0.0058
1892.00,0.0059
1891.00,0.0060
1890.00,0.0060
1889.00,0.0061
1888.00,0.0061
1887.00,0.0061
1886.00,0.0059
1885.00,0.0059
1884.00,0.0060
1883.00,0.0060
1882.00,0.0059
1881.00,0.0059
1880.00,0.0060
1879.00,0.0060
1878.00,0.0059
1877.00,0.0059
1876.00,0.0060
1875.00,0.0060
1874.00,0.0059
1873.00,0.0058
1872.00,0.0058
1871.00,0.0059
1870.00,0.0059
1869.00,0.0060
1868.00,0.0062
1867.00,0.0061
1866.00,0.0059
1865.00,0.0058
1864.00,0.0058
1863.00,0.0059
1862.00,0.0059
1861.00,0.0060
1860.00,0.0062
1859.00,0.0063
1858.00,0.0063
1857.00,0.0064
1856.00,0.0065
1855.00,0.0066
1854.00,0.0065
1853.00,0.0065
1852.00,0.0065
1851.00,0.0064
1850.00,0.0062
1849.00,0.0061
1848.00,0.0060
1847.00,0.0059
1846.00,0.0058
1845.00,0.0058
1844.00,0.0060
1843.00,0.0060
1842.00,0.0058
1841.00,0.0057
1840.00,0.0056
1839.00,0.0056
1838.00,0.0055
1837.00,0.0056
1836.00,0.0056
1835.00,0.0055
1834.00,0.0054
1833.00,0.0054
1832.00,0.0055
1831.00,0.0057
1830.00,0.0058
1829.00,0.0058
1828.00,0.0058
1827.00,0.0057
1826.00,0.0056
1825.00,0.0056
1824.00,0.0057
1823.00,0.0056
1822.00,0.0054
1821.00,0.0053
1820.00,0.0053
1819.00,0.0052
1818.00,0.0051
1817.00,0.0051
1816.00,0.0053
1815.00,0.0054
1814.00,0.0054
1813.00,0.0055
1812.00,0.0056
1811.00,0.0057
1810.00,0.0057
1809.00,0.0057
1808.00,0.0058
1807.00,0.0058
1806.00,0.0057
1805.00,0.0057
1804.00,0.0058
1803.00,0.0060
1802.00,0.0060
1801.00,0.0061
1800.00,0.0062
1799.00,0.0062
1798.00,0.0062
1797.00,0.0061
1796.00,0.0062
1795.00,0.0062
1794.00,0.0062
1793.00,0.0064
1792.00,0.0066
1791.00,0.0066
1790.00,0.0064
1789.00,0.0063
1788.00,0.0062
1787.00,0.0062
1786.00,0.0061
1785.00,0.0062
1784.00,0.0063
1783.00,0.0063
1782.00,0.0062
1781.00,0.0062
1780.00,0.0063
1779.00,0.0062
1778.00,0.0061
1777.00,0.0061
1776.00,0.0061
1775.00,0.0061
1774.00,0.0062
1773.00,0.0064
1772.00,0.0067
1771.00,0.0068
1770.00,0.0067
1769.00,0.0065
1768.00,0.0066
1767.00,0.0066
1766.00,0.0066
1765.00,0.0066
1764.00,0.0068
1763.00,0.0070
1762.00,0.0073
1761.00,0.0074
1760.00,0.0074
1759.00,0.0074
1758.00,0.0074
1757.00,0.0075
1756.00,0.0076
1755.00,0.0076
1754.00,0.0074
1753.00,0.0072
1752.00,0.0073
1751.00,0.0076
1750.00,0.0078
1749.00,0.0079
1748.00,0.0081
1747.00,0.0081
1746.00,0.0081
1745.00,0.0081
1744.00,0.0083
1743.00,0.0084
1742.00,0.0085
1741.00,0.0086
1740.00,0.0089
1739.00,0.0091
1738.00,0.0090
1737.00,0.0088
1736.00,0.0087
1735.00,0.0089
1734.00,0.0092
1733.00,0.0095
1732.00,0.0099
1731.00,0.0100
1730.00,0.0101
1729.00,0.0102
1728.00,0.0105
1727.00,0.0107
1726.00,0.0108
1725.00,0.0111
1724.00,0.0116
1723.00,0.0120
1722.00,0.0123
1721.00,0.0127
1720.00,0.0134
1719.00,0.0143
1718.00,0.0154
1717.00,0.0170
1716.00,0.0191
1715.00,0.0211
1714.00,0.0232
1713.00,0.0258
1712.00,0.0292
1711.00,0.0333
1710.00,0.0381
1709.00,0.0441
1708.00,0.0517
1707.00,0.0610
1706.00,0.0720
1705.00,0.0840
1704.00,0.0948
1703.00,0.1040
1702.00,0.1137
1701.00,0.1267
1700.00,0.1414
1699.00,0.1520
1698.00,0.1573
1697.00,0.1601
1696.00,0.1626
1695.00,0.1645
1694.00,0.1655
1693.00,0.1665
1692.00,0.1686
1691.00,0.1722
1690.00,0.1768
1689.00,0.1808
1688.00,0.1827
1687.00,0.1823
1686.00,0.1798
1685.00,0.1745
1684.00,0.1658
1683.00,0.1551
1682.00,0.1438
1681.00,0.1322
1680.00,0.1203
1679.00,0.1092
1678.00,0.0992
1677.00,0.0902
1676.00,0.0815
1675.00,0.0738
1674.00,0.0677
1673.00,0.0627
1672.00,0.0587
1671.00,0.0553
1670.00,0.0526
1669.00,0.0500
1668.00,0.0476
1667.00,0.0455
1666.00,0.0438
1665.00,0.0423
1664.00,0.0410
1663.00,0.0400
1662.00,0.0392
1661.00,0.0384
1660.00,0.0376
1659.00,0.0371
1658.00,0.0371
1657.00,0.0372
1656.00,0.0372
1655.00,0.0379
1654.00,0.0403
1653.00,0.0443
1652.00,0.0480
1651.00,0.0509
1650.00,0.0536
1649.00,0.0570
1648.00,0.0618
1647.00,0.0682
1646.00,0.0744
1645.00,0.0786
1644.00,0.0804
1643.00,0.0802
1642.00,0.0784
1641.00,0.0754
1640.00,0.0715
1639.00,0.0674
1638.00,0.0634
1637.00,0.0600
1636.00,0.0573
1635.00,0.0558
1634.00,0.0553
1633.00,0.0555
1632.00,0.0565
1631.00,0.0583
1630.00,0.0613
1629.00,0.0656
1628.00,0.0707
1627.00,0.0762
1626.00,0.0816
1625.00,0.0870
1624.00,0.0927
1623.00,0.0980
1622.00,0.1020
1621.00,0.1040
1620.00,0.1043
1619.00,0.1034
1618.00,0.1016
1617.00,0.0987
1616.00,0.0948
1615.00,0.0905
1614.00,0.0859
1613.00,0.0812
1612.00,0.0764
1611.00,0.0717
1610.00,0.0674
1609.00,0.0634
1608.00,0.0596
1607.00,0.0562
1606.00,0.0532
1605.00,0.0504
1604.00,0.0478
1603.00,0.0454
1602.00,0.0433
1601.00,0.0413
1600.00,0.0394
1599.00,0.0376
1598.00,0.0361
1597.00,0.0346
1596.00,0.0333
1595.00,0.0321
1594.00,0.0312
1593.00,0.0303
1592.00,0.0295
1591.00,0.0287
1590.00,0.0280
1589.00,0.0273
1588.00,0.0266
1587.00,0.0260
1586.00,0.0256
1585.00,0.0255
1584.00,0.0256
1583.00,0.0258
1582.00,0.0261
1581.00,0.0261
1580.00,0.0256
1579.00,0.0246
1578.00,0.0235
1577.00,0.0223
1576.00,0.0212
1575.00,0.0204
1574.00,0.0198
1573.00,0.0192
1572.00,0.0186
1571.00,0.0181
1570.00,0.0179
1569.00,0.0176
1568.00,0.0172
1567.00,0.0170
1566.00,0.0171
1565.00,0.0176
1564.00,0.0182
1563.00,0.0187
1562.00,0.0189
1561.00,0.0189
1560.00,0.0188
1559.00,0.0182
1558.00,0.0173
1557.00,0.0165
1556.00,0.0158
1555.00,0.0152
1554.00,0.0147
1553.00,0.0145
1552.00,0.0142
1551.00,0.0140
1550.00,0.0140
1549.00,0.0138
1548.00,0.0136
1547.00,0.0135
1546.00,0.0135
1545.00,0.0136
1544.00,0.0136
1543.00,0.0136
1542.00,0.0136
1541.00,0.0136
1540.00,0.0136
1539.00,0.0136
1538.00,0.0136
1537.00,0.0136
1536.00,0.0136
1535.00,0.0138
1534.00,0.0142
1533.00,0.0146
1532.00,0.0148
1531.00,0.0149
1530.00,0.0150
1529.00,0.0152
1528.00,0.0157
1527.00,0.0162
1526.00,0.0167
1525.00,0.0172
1524.00,0.0177
1523.00,0.0184
1522.00,0.0194
1521.00,0.0208
1520.00,0.0220
1519.00,0.0231
1518.00,0.0244
1517.00,0.0259
1516.00,0.0277
1515.00,0.0295
1514.00,0.0315
1513.00,0.0338
1512.00,0.0367
1511.00,0.0399
1510.00,0.0432
1509.00,0.0470
1508.00,0.0527
1507.00,0.0616
1506.00,0.0724
1505.00,0.0826
1504.00,0.0918
1503.00,0.1012
1502.00,0.1119
1501.00,0.1242
1500.00,0.1376
1499.00,0.1515
1498.00,0.1654
1497.00,0.1783
1496.00,0.1885
1495.00,0.1948
1494.00,0.1970
1493.00,0.1958
1492.00,0.1918
1491.00,0.1856
1490.00,0.1776
1489.00,0.1682
1488.00,0.1581
1487.00,0.1481
1486.00,0.1387
1485.00,0.1300
1484.00,0.1219
1483.00,0.1144
1482.00,0.1076
1481.00,0.1015
1480.00,0.0961
1479.00,0.0915
1478.00,0.0876
1477.00,0.0841
1476.00,0.0809
1475.00,0.0778
1474.00,0.0750
1473.00,0.0724
1472.00,0.0701
1471.00,0.0680
1470.00,0.0663
1469.00,0.0649
1468.00,0.0638
1467.00,0.0632
1466.00,0.0631
1465.00,0.0634
1464.00,0.0638
1463.00,0.0641
1462.00,0.0641
1461.00,0.0638
1460.00,0.0632
1459.00,0.0624
1458.00,0.0613
1457.00,0.0601
1456.00,0.0589
1455.00,0.0581
1454.00,0.0576
1453.00,0.0575
1452.00,0.0581
1451.00,0.0597
1450.00,0.0627
1449.00,0.0678
1448.00,0.0745
1447.00,0.0809
1446.00,0.0844
1445.00,0.0838
1444.00,0.0800
1443.00,0.0747
1442.00,0.0698
1441.00,0.0661
1440.00,0.0638
1439.00,0.0627
1438.00,0.0632
1437.00,0.0654
1436.00,0.0693
1435.00,0.0740
1434.00,0.0787
1433.00,0.0829
1432.00,0.0862
1431.00,0.0876
1430.00,0.0873
1429.00,0.0858
1428.00,0.0837
1427.00,0.0812
1426.00,0.0782
1425.00,0.0754
1424.00,0.0743
1423.00,0.0767
1422.00,0.0833
1421.00,0.0945
1420.00,0.1087
1419.00,0.1206
1418.00,0.1239
1417.00,0.1181
1416.00,0.1074
1415.00,0.0955
1414.00,0.0847
1413.00,0.0755
1412.00,0.0679
1411.00,0.0615
1410.00,0.0564
1409.00,0.0523
1408.00,0.0490
1407.00,0.0462
1406.00,0.0440
1405.00,0.0420
1404.00,0.0401
1403.00,0.0386
1402.00,0.0375
1401.00,0.0366
1400.00,0.0360
1399.00,0.0355
1398.00,0.0353
1397.00,0.0353
1396.00,0.0354
1395.00,0.0359
1394.00,0.0366
1393.00,0.0373
1392.00,0.0382
1391.00,0.0395
1390.00,0.0415
1389.00,0.0445
1388.00,0.0487
1387.00,0.0541
1386.00,0.0603
1385.00,0.0667
1384.00,0.0730
1383.00,0.0788
1382.00,0.0831
1381.00,0.0849
1380.00,0.0837
1379.00,0.0797
1378.00,0.0736
1377.00,0.0665
1376.00,0.0595
1375.00,0.0534
1374.00,0.0485
1373.00,0.0452
1372.00,0.0434
1371.00,0.0428
1370.00,0.0434
1369.00,0.0448
1368.00,0.0468
1367.00,0.0492
1366.00,0.0517
1365.00,0.0533
1364.00,0.0529
1363.00,0.0501
1362.00,0.0451
1361.00,0.0394
1360.00,0.0341
1359.00,0.0299
1358.00,0.0266
1357.00,0.0241
1356.00,0.0222
1355.00,0.0207
1354.00,0.0196
1353.00,0.0188
1352.00,0.0181
1351.00,0.0175
1350.00,0.0172
1349.00,0.0169
1348.00,0.0166
1347.00,0.0164
1346.00,0.0163
1345.00,0.0162
1344.00,0.0161
1343.00,0.0161
1342.00,0.0161
1341.00,0.0162
1340.00,0.0162
1339.00,0.0163
1338.00,0.0164
1337.00,0.0165
1336.00,0.0166
1335.00,0.0167
1334.00,0.0168
1333.00,0.0170
1332.00,0.0172
1331.00,0.0174
1330.00,0.0177
1329.00,0.0180
1328.00,0.0183
1327.00,0.0187
1326.00,0.0193
1325.00,0.0199
1324.00,0.0207
1323.00,0.0218
1322.00,0.0232
1321.00,0.0249
1320.00,0.0270
1319.00,0.0294
1318.00,0.0321
1317.00,0.0348
1316.00,0.0378
1315.00,0.0413
1314.00,0.0458
1313.00,0.0519
1312.00,0.0599
1311.00,0.0696
1310.00,0.0803
1309.00,0.0905
1308.00,0.0981
1307.00,0.1017
1306.00,0.1009
1305.00,0.0964
1304.00,0.0894
1303.00,0.0815
1302.00,0.0737
1301.00,0.0667
1300.00,0.0609
1299.00,0.0565
1298.00,0.0535
1297.00,0.0519
1296.00,0.0514
1295.00,0.0521
1294.00,0.0536
1293.00,0.0559
1292.00,0.0588
1291.00,0.0623
1290.00,0.0665
1289.00,0.0715
1288.00,0.0774
1287.00,0.0846
1286.00,0.0931
1285.00,0.1031
1284.00,0.1147
1283.00,0.1276
1282.00,0.1416
1281.00,0.1563
1280.00,0.1707
1279.00,0.1837
1278.00,0.1941
1277.00,0.2007
1276.00,0.2026
1275.00,0.1995
1274.00,0.1921
1273.00,0.1815
1272.00,0.1689
1271.00,0.1554
1270.00,0.1420
1269.00,0.1293
1268.00,0.1174
1267.00,0.1065
1266.00,0.0967
1265.00,0.0880
1264.00,0.0801
1263.00,0.0732
1262.00,0.0670
1261.00,0.0614
1260.00,0.0565
1259.00,0.0522
1258.00,0.0485
1257.00,0.0454
1256.00,0.0429
1255.00,0.0410
1254.00,0.0398
1253.00,0.0394
1252.00,0.0396
1251.00,0.0402
1250.00,0.0405
1249.00,0.0401
1248.00,0.0389
1247.00,0.0370
1246.00,0.0349
1245.00,0.0329
1244.00,0.0311
1243.00,0.0297
1242.00,0.0286
1241.00,0.0277
1240.00,0.0270
1239.00,0.0265
1238.00,0.0261
1237.00,0.0259
1236.00,0.0258
1235.00,0.0258
1234.00,0.0260
1233.00,0.0264
1232.00,0.0269
1231.00,0.0275
1230.00,0.0284
1229.00,0.0294
1228.00,0.0305
1227.00,0.0316
1226.00,0.0329
1225.00,0.0344
1224.00,0.0360
1223.00,0.0379
1222.00,0.0401
1221.00,0.0428
1220.00,0.0458
1219.00,0.0491
1218.00,0.0528
1217.00,0.0567
1216.00,0.0612
1215.00,0.0666
1214.00,0.0735
1213.00,0.0821
1212.00,0.0929
1211.00,0.1058
1210.00,0.1204
1209.00,0.1360
1208.00,0.1517
1207.00,0.1665
1206.00,0.1794
1205.00,0.1895
1204.00,0.1964
1203.00,0.1997
1202.00,0.1995
1201.00,0.1959
1200.00,0.1893
1199.00,0.1805
1198.00,0.1704
1197.00,0.1600
1196.00,0.1502
1195.00,0.1417
1194.00,0.1350
1193.00,0.1302
1192.00,0.1272
1191.00,0.1256
1190.00,0.1247
1189.00,0.1241
1188.00,0.1231
1187.00,0.1213
1186.00,0.1187
1185.00,0.1149
1184.00,0.1101
1183.00,0.1046
1182.00,0.0987
1181.00,0.0930
1180.00,0.0880
1179.00,0.0841
1178.00,0.0816
1177.00,0.0806
1176.00,0.0812
1175.00,0.0829
1174.00,0.0851
1173.00,0.0865
1172.00,0.0860
1171.00,0.0830
1170.00,0.0776
1169.00,0.0709
1168.00,0.0640
1167.00,0.0575
1166.00,0.0521
1165.00,0.0477
1164.00,0.0442
1163.00,0.0416
1162.00,0.0398
1161.00,0.0385
1160.00,0.0379
1159.00,0.0381
1158.00,0.0392
1157.00,0.0412
1156.00,0.0439
1155.00,0.0467
1154.00,0.0487
1153.00,0.0495
1152.00,0.0493
1151.00,0.0492
1150.00,0.0503
1149.00,0.0532
1148.00,0.0584
1147.00,0.0656
1146.00,0.0746
1145.00,0.0845
1144.00,0.0946
1143.00,0.1040
1142.00,0.1123
1141.00,0.1191
1140.00,0.1242
1139.00,0.1277
1138.00,0.1295
1137.00,0.1294
1136.00,0.1273
1135.00,0.1232
1134.00,0.1176
1133.00,0.1110
1132.00,0.1039
1131.00,0.0970
1130.00,0.0909
1129.00,0.0857
1128.00,0.0816
1127.00,0.0789
1126.00,0.0777
1125.00,0.0782
1124.00,0.0804
1123.00,0.0846
1122.00,0.0910
1121.00,0.0999
1120.00,0.1112
1119.00,0.1244
1118.00,0.1383
1117.00,0.1513
1116.00,0.1615
1115.00,0.1674
1114.00,0.1684
1113.00,0.1652
1112.00,0.1592
1111.00,0.1519
1110.00,0.1453
1109.00,0.1409
1108.00,0.1397
1107.00,0.1420
1106.00,0.1471
1105.00,0.1542
1104.00,0.1626
1103.00,0.1724
1102.00,0.1842
1101.00,0.1981
1100.00,0.2128
1099.00,0.2261
1098.00,0.2358
1097.00,0.2408
1096.00,0.2405
1095.00,0.2355
1094.00,0.2268
1093.00,0.2155
1092.00,0.2027
1091.00,0.1893
1090.00,0.1758
1089.00,0.1629
1088.00,0.1507
1087.00,0.1395
1086.00,0.1292
1085.00,0.1201
1084.00,0.1119
1083.00,0.1046
1082.00,0.0981
1081.00,0.0923
1080.00,0.0871
1079.00,0.0825
1078.00,0.0783
1077.00,0.0746
1076.00,0.0712
1075.00,0.0681
1074.00,0.0656
1073.00,0.0637
1072.00,0.0624
1071.00,0.0617
1070.00,0.0620
1069.00,0.0632
1068.00,0.0657
1067.00,0.0696
1066.00,0.0750
1065.00,0.0820
1064.00,0.0901
1063.00,0.0986
1062.00,0.1064
1061.00,0.1124
1060.00,0.1157
1059.00,0.1161
1058.00,0.1137
1057.00,0.1093
1056.00,0.1036
1055.00,0.0974
1054.00,0.0914
1053.00,0.0860
1052.00,0.0814
1051.00,0.0778
1050.00,0.0754
1049.00,0.0744
1048.00,0.0752
1047.00,0.0779
1046.00,0.0828
1045.00,0.0893
1044.00,0.0962
1043.00,0.1019
1042.00,0.1049
1041.00,0.1049
1040.00,0.1024
1039.00,0.0987
1038.00,0.0950
1037.00,0.0920
1036.00,0.0901
1035.00,0.0893
1034.00,0.0896
1033.00,0.0909
1032.00,0.0932
1031.00,0.0965
1030.00,0.1008
1029.00,0.1057
1028.00,0.1111
1027.00,0.1163
1026.00,0.1209
1025.00,0.1244
1024.00,0.1264
1023.00,0.1265
1022.00,0.1250
1021.00,0.1218
1020.00,0.1172
1019.00,0.1117
1018.00,0.1056
1017.00,0.0994
1016.00,0.0933
1015.00,0.0876
1014.00,0.0824
1013.00,0.0778
1012.00,0.0738
1011.00,0.0704
1010.00,0.0675
1009.00,0.0652
1008.00,0.0633
1007.00,0.0616
1006.00,0.0600
1005.00,0.0582
1004.00,0.0561
1003.00,0.0539
1002.00,0.0515
1001.00,0.0493
1000.00,0.0472
999.00,0.0455
998.00,0.0440
997.00,0.0427
996.00,0.0417
995.00,0.0407
994.00,0.0400
993.00,0.0393
992.00,0.0388
991.00,0.0384
990.00,0.0381
989.00,0.0380
988.00,0.0380
987.00,0.0382
986.00,0.0385
985.00,0.0389
984.00,0.0395
983.00,0.0403
982.00,0.0412
981.00,0.0422
980.00,0.0433
979.00,0.0442
978.00,0.0451
977.00,0.0456
976.00,0.0457
975.00,0.0454
974.00,0.0446
973.00,0.0434
972.00,0.0419
971.00,0.0402
970.00,0.0384
969.00,0.0367
968.00,0.0350
967.00,0.0336
966.00,0.0323
965.00,0.0314
964.00,0.0309
963.00,0.0307
962.00,0.0309
961.00,0.0313
960.00,0.0320
959.00,0.0326
958.00,0.0331
957.00,0.0333
956.00,0.0330
955.00,0.0323
954.00,0.0312
953.00,0.0298
952.00,0.0284
951.00,0.0271
950.00,0.0260
949.00,0.0250
948.00,0.0242
947.00,0.0234
946.00,0.0228
945.00,0.0222
944.00,0.0217
943.00,0.0213
942.00,0.0209
941.00,0.0205
940.00,0.0202
939.00,0.0198
938.00,0.0195
937.00,0.0193
936.00,0.0190
935.00,0.0187
934.00,0.0184
933.00,0.0182
932.00,0.0179
931.00,0.0177
930.00,0.0175
929.00,0.0173
928.00,0.0171
927.00,0.0169
926.00,0.0167
925.00,0.0165
924.00,0.0163
923.00,0.0162
922.00,0.0161
921.00,0.0159
920.00,0.0158
919.00,0.0158
918.00,0.0157
917.00,0.0156
916.00,0.0155
915.00,0.0154
914.00,0.0153
913.00,0.0153
912.00,0.0152
911.00,0.0152
910.00,0.0151
909.00,0.0150
908.00,0.0149
907.00,0.0148
906.00,0.0148
905.00,0.0148
904.00,0.0149
903.00,0.0151
902.00,0.0153
901.00,0.0155
900.00,0.0156
899.00,0.0156
898.00,0.0155
897.00,0.0153
896.00,0.0151
895.00,0.0149
894.00,0.0147
893.00,0.0145
892.00,0.0143
891.00,0.0142
890.00,0.0141
889.00,0.0141
888.00,0.0141
887.00,0.0140
886.00,0.0140
885.00,0.0141
884.00,0.0143
883.00,0.0145
882.00,0.0150
881.00,0.0154
880.00,0.0159
879.00,0.0162
878.00,0.0165
877.00,0.0166
876.00,0.0166
875.00,0.0167
874.00,0.0170
873.00,0.0176
872.00,0.0185
871.00,0.0201
870.00,0.0227
869.00,0.0267
868.00,0.0325
867.00,0.0403
866.00,0.0492
865.00,0.0578
864.00,0.0637
863.00,0.0653
862.00,0.0627
861.00,0.0577
860.00,0.0528
859.00,0.0496
858.00,0.0483
857.00,0.0480
856.00,0.0471
855.00,0.0448
854.00,0.0410
853.00,0.0365
852.00,0.0321
851.00,0.0282
850.00,0.0252
849.00,0.0229
848.00,0.0212
847.00,0.0199
846.00,0.0190
845.00,0.0182
844.00,0.0176
843.00,0.0172
842.00,0.0168
841.00,0.0164
840.00,0.0161
839.00,0.0158
838.00,0.0155
837.00,0.0152
836.00,0.0150
835.00,0.0148
834.00,0.0147
833.00,0.0146
832.00,0.0147
831.00,0.0149
830.00,0.0153
829.00,0.0161
828.00,0.0172
827.00,0.0188
826.00,0.0207
825.00,0.0225
824.00,0.0238
823.00,0.0241
822.00,0.0236
821.00,0.0225
820.00,0.0213
819.00,0.0203
818.00,0.0197
817.00,0.0193
816.00,0.0190
815.00,0.0189
814.00,0.0189
813.00,0.0192
812.00,0.0198
811.00,0.0209
810.00,0.0227
809.00,0.0255
808.00,0.0298
807.00,0.0366
806.00,0.0469
805.00,0.0616
804.00,0.0801
803.00,0.0996
802.00,0.1147
801.00,0.1198
800.00,0.1131
799.00,0.0979
798.00,0.0800
797.00,0.0641
796.00,0.0518
795.00,0.0432
794.00,0.0374
793.00,0.0338
792.00,0.0318
791.00,0.0308
790.00,0.0301
789.00,0.0290
788.00,0.0273
787.00,0.0252
786.00,0.0233
785.00,0.0219
784.00,0.0211
783.00,0.0209
782.00,0.0213
781.00,0.0223
780.00,0.0239
779.00,0.0259
778.00,0.0288
777.00,0.0327
776.00,0.0381
775.00,0.0457
774.00,0.0554
773.00,0.0663
772.00,0.0761
771.00,0.0823
770.00,0.0828
769.00,0.0779
768.00,0.0692
767.00,0.0593
766.00,0.0500
765.00,0.0423
764.00,0.0364
763.00,0.0321
762.00,0.0291
761.00,0.0270
760.00,0.0256
759.00,0.0246
758.00,0.0240
757.00,0.0237
756.00,0.0236
755.00,0.0237
754.00,0.0241
753.00,0.0247
752.00,0.0257
751.00,0.0270
750.00,0.0289
749.00,0.0315
748.00,0.0350
747.00,0.0398
746.00,0.0459
745.00,0.0531
744.00,0.0605
743.00,0.0661
742.00,0.0683
741.00,0.0665
740.00,0.0631
739.00,0.0623
738.00,0.0686
737.00,0.0838
736.00,0.1050
735.00,0.1247
734.00,0.1354
733.00,0.1350
732.00,0.1292
731.00,0.1258
730.00,0.1296
729.00,0.1406
728.00,0.1541
727.00,0.1633
726.00,0.1625
725.00,0.1505
724.00,0.1308
723.00,0.1091
722.00,0.0895
721.00,0.0735
720.00,0.0613
719.00,0.0523
718.00,0.0455
717.00,0.0404
716.00,0.0365
715.00,0.0334
714.00,0.0310
713.00,0.0290
712.00,0.0273
711.00,0.0258
710.00,0.0246
709.00,0.0234
708.00,0.0224
707.00,0.0215
706.00,0.0207
705.00,0.0200
704.00,0.0194
703.00,0.0188
702.00,0.0183
701.00,0.0179
700.00,0.0175
699.00,0.0172
698.00,0.0170
697.00,0.0168
696.00,0.0166
695.00,0.0166
694.00,0.0166
693.00,0.0167
692.00,0.0170
691.00,0.0176
690.00,0.0186
689.00,0.0200
688.00,0.0214
687.00,0.0225
686.00,0.0230
685.00,0.0229
684.00,0.0225
683.00,0.0221
682.00,0.0220
681.00,0.0221
680.00,0.0227
679.00,0.0237
678.00,0.0252
677.00,0.0275
676.00,0.0308
675.00,0.0356
674.00,0.0420
673.00,0.0500
672.00,0.0586
671.00,0.0663
670.00,0.0714
669.00,0.0717
668.00,0.0657
667.00,0.0561
666.00,0.0472
665.00,0.0402
664.00,0.0346
663.00,0.0300
662.00,0.0267
661.00,0.0244
660.00,0.0227
659.00,0.0215
658.00,0.0208
657.00,0.0203
656.00,0.0198
655.00,0.0195
654.00,0.0194
653.00,0.0193
652.00,0.0193
651.00,0.0194
650.00,0.0197
649.00,0.0199
648.00,0.0201
647.00,0.0204
646.00,0.0208
645.00,0.0212
644.00,0.0216
643.00,0.0220
642.00,0.0224
641.00,0.0230
640.00,0.0236
639.00,0.0243
638.00,0.0251
637.00,0.0259
636.00,0.0267
635.00,0.0275
634.00,0.0286
633.00,0.0298
632.00,0.0311
631.00,0.0325
630.00,0.0340
629.00,0.0356
628.00,0.0373
627.00,0.0392
626.00,0.0414
625.00,0.0437
624.00,0.0462
623.00,0.0489
622.00,0.0518
621.00,0.0548
620.00,0.0579
619.00,0.0609
618.00,0.0639
617.00,0.0667
616.00,0.0690
615.00,0.0708
614.00,0.0716
613.00,0.0712
612.00,0.0694
611.00,0.0663
610.00,0.0620
609.00,0.0569
608.00,0.0515
607.00,0.0461
606.00,0.0413
605.00,0.0373
604.00,0.0343
603.00,0.0323
602.00,0.0313
601.00,0.0312
600.00,0.0317
599.00,0.0328
598.00,0.0345
597.00,0.0367
596.00,0.0393
595.00,0.0419
594.00,0.0441
593.00,0.0450
592.00,0.0444
591.00,0.0426
590.00,0.0404
589.00,0.0383
588.00,0.0369
587.00,0.0362
586.00,0.0364
585.00,0.0372
584.00,0.0384
583.00,0.0401
582.00,0.0422
581.00,0.0446
580.00,0.0472
579.00,0.0499
578.00,0.0529
577.00,0.0560
576.00,0.0593
575.00,0.0628
574.00,0.0664
573.00,0.0700
572.00,0.0735
571.00,0.0770
570.00,0.0805
569.00,0.0839
568.00,0.0869
567.00,0.0895
566.00,0.0917
565.00,0.0935
564.00,0.0949
563.00,0.0957
562.00,0.0959
561.00,0.0954
560.00,0.0941
559.00,0.0922
558.00,0.0899
557.00,0.0874
556.00,0.0846
555.00,0.0815
554.00,0.0783
553.00,0.0751
552.00,0.0718
551.00,0.0687
550.00,0.0658
549.00,0.0631
548.00,0.0608
547.00,0.0587
546.00,0.0571
545.00,0.0562
544.00,0.0563
543.00,0.0578
542.00,0.0606
541.00,0.0639
540.00,0.0661
539.00,0.0661
538.00,0.0634
537.00,0.0588
536.00,0.0536
535.00,0.0489
534.00,0.0451
533.00,0.0421
532.00,0.0397
531.00,0.0377
530.00,0.0358
529.00,0.0341
528.00,0.0325
527.00,0.0311
526.00,0.0299
525.00,0.0289
524.00,0.0280
523.00,0.0272
522.00,0.0263
521.00,0.0254
520.00,0.0246
519.00,0.0239
518.00,0.0233
517.00,0.0228
516.00,0.0223
515.00,0.0218
514.00,0.0215
513.00,0.0213
512.00,0.0209
511.00,0.0204
510.00,0.0199
509.00,0.0194
508.00,0.0190
507.00,0.0187
506.00,0.0184
505.00,0.0182
504.00,0.0180
503.00,0.0179
502.00,0.0179
501.00,0.0177
500.00,0.0173
499.00,0.0169
498.00,0.0167
497.00,0.0166
496.00,0.0166
495.00,0.0166
494.00,0.0166
493.00,0.0164
492.00,0.0160
491.00,0.0155
490.00,0.0152
489.00,0.0151
488.00,0.0152
487.00,0.0153
486.00,0.0155
485.00,0.0157
484.00,0.0160
483.00,0.0162
482.00,0.0163
481.00,0.0164
480.00,0.0164
479.00,0.0163
478.00,0.0165
477.00,0.0167
476.00,0.0170
475.00,0.0175
474.00,0.0185
473.00,0.0202
472.00,0.0227
471.00,0.0261
470.00,0.0297
469.00,0.0327
468.00,0.0347
467.00,0.0355
466.00,0.0358
465.00,0.0363
464.00,0.0378
463.00,0.0405
462.00,0.0440
461.00,0.0474
460.00,0.0493
459.00,0.0490
458.00,0.0463
457.00,0.0418
456.00,0.0366
455.00,0.0319
454.00,0.0281
453.00,0.0249
452.00,0.0224
451.00,0.0206
450.00,0.0193
449.00,0.0183
448.00,0.0173
447.00,0.0168
446.00,0.0165
445.00,0.0161
444.00,0.0155
443.00,0.0149
442.00,0.0145
441.00,0.0142
440.00,0.0137
439.00,0.0134
438.00,0.0133
437.00,0.0136
436.00,0.0140
435.00,0.0145
434.00,0.0148
433.00,0.0149
432.00,0.0150
431.00,0.0155
430.00,0.0164
429.00,0.0172
428.00,0.0178
427.00,0.0184
426.00,0.0195
425.00,0.0209
424.00,0.0223
423.00,0.0235
422.00,0.0245
421.00,0.0255
420.00,0.0268
419.00,0.0283
418.00,0.0295
417.00,0.0300
416.00,0.0299
415.00,0.0297
414.00,0.0297
413.00,0.0295
412.00,0.0288
411.00,0.0274
410.00,0.0256
409.00,0.0238
408.00,0.0224
407.00,0.0217
406.00,0.0218
405.00,0.0225
404.00,0.0234
403.00,0.0245
402.00,0.0261
401.00,0.0236
400.00,0.0229
