Created as New Dataset,Sample 1074 By YargerLab Date Tuesday, August 05 2025
cm-1,A
4000.00,0.0007
3999.00,0.0007
3998.00,0.0007
3997.00,0.0007
3996.00,0.0007
3995.00,0.0006
3994.00,0.0006
3993.00,0.0006
3992.00,0.0007
3991.00,0.0007
3990.00,0.0007
3989.00,0.0007
3988.00,0.0007
3987.00,0.0007
3986.00,0.0007
3985.00,0.0007
3984.00,0.0007
3983.00,0.0007
3982.00,0.0007
3981.00,0.0007
3980.00,0.0007
3979.00,0.0007
3978.00,0.0007
3977.00,0.0007
3976.00,0.0006
3975.00,0.0006
3974.00,0.0006
3973.00,0.0006
3972.00,0.0006
3971.00,0.0006
3970.00,0.0007
3969.00,0.0007
3968.00,0.0007
3967.00,0.0007
3966.00,0.0007
3965.00,0.0007
3964.00,0.0006
3963.00,0.0006
3962.00,0.0006
3961.00,0.0006
3960.00,0.0006
3959.00,0.0007
3958.00,0.0007
3957.00,0.0007
3956.00,0.0007
3955.00,0.0007
3954.00,0.0007
3953.00,0.0006
3952.00,0.0006
3951.00,0.0006
3950.00,0.0006
3949.00,0.0006
3948.00,0.0006
3947.00,0.0006
3946.00,0.0006
3945.00,0.0006
3944.00,0.0006
3943.00,0.0006
3942.00,0.0006
3941.00,0.0006
3940.00,0.0006
3939.00,0.0006
3938.00,0.0006
3937.00,0.0006
3936.00,0.0006
3935.00,0.0006
3934.00,0.0006
3933.00,0.0006
3932.00,0.0006
3931.00,0.0006
3930.00,0.0006
3929.00,0.0006
3928.00,0.0006
3927.00,0.0006
3926.00,0.0006
3925.00,0.0006
3924.00,0.0006
3923.00,0.0006
3922.00,0.0006
3921.00,0.0006
3920.00,0.0006
3919.00,0.0006
3918.00,0.0006
3917.00,0.0006
3916.00,0.0006
3915.00,0.0006
3914.00,0.0006
3913.00,0.0006
3912.00,0.0006
3911.00,0.0006
3910.00,0.0006
3909.00,0.0006
3908.00,0.0006
3907.00,0.0006
3906.00,0.0006
3905.00,0.0006
3904.00,0.0006
3903.00,0.0006
3902.00,0.0006
3901.00,0.0006
3900.00,0.0006
3899.00,0.0006
3898.00,0.0006
3897.00,0.0006
3896.00,0.0006
3895.00,0.0006
3894.00,0.0006
3893.00,0.0006
3892.00,0.0006
3891.00,0.0006
3890.00,0.0006
3889.00,0.0006
3888.00,0.0006
3887.00,0.0006
3886.00,0.0006
3885.00,0.0006
3884.00,0.0006
3883.00,0.0006
3882.00,0.0006
3881.00,0.0005
3880.00,0.0005
3879.00,0.0006
3878.00,0.0006
3877.00,0.0006
3876.00,0.0006
3875.00,0.0006
3874.00,0.0006
3873.00,0.0006
3872.00,0.0006
3871.00,0.0006
3870.00,0.0006
3869.00,0.0006
3868.00,0.0006
3867.00,0.0006
3866.00,0.0006
3865.00,0.0006
3864.00,0.0006
3863.00,0.0006
3862.00,0.0006
3861.00,0.0006
3860.00,0.0007
3859.00,0.0007
3858.00,0.0007
3857.00,0.0007
3856.00,0.0007
3855.00,0.0007
3854.00,0.0006
3853.00,0.0006
3852.00,0.0006
3851.00,0.0006
3850.00,0.0006
3849.00,0.0006
3848.00,0.0007
3847.00,0.0007
3846.00,0.0007
3845.00,0.0007
3844.00,0.0007
3843.00,0.0007
3842.00,0.0007
3841.00,0.0007
3840.00,0.0007
3839.00,0.0007
3838.00,0.0007
3837.00,0.0007
3836.00,0.0007
3835.00,0.0007
3834.00,0.0007
3833.00,0.0007
3832.00,0.0007
3831.00,0.0007
3830.00,0.0007
3829.00,0.0007
3828.00,0.0007
3827.00,0.0008
3826.00,0.0008
3825.00,0.0008
3824.00,0.0008
3823.00,0.0008
3822.00,0.0008
3821.00,0.0007
3820.00,0.0008
3819.00,0.0008
3818.00,0.0008
3817.00,0.0007
3816.00,0.0007
3815.00,0.0007
3814.00,0.0007
3813.00,0.0007
3812.00,0.0007
3811.00,0.0007
3810.00,0.0007
3809.00,0.0008
3808.00,0.0008
3807.00,0.0008
3806.00,0.0008
3805.00,0.0009
3804.00,0.0009
3803.00,0.0009
3802.00,0.0008
3801.00,0.0008
3800.00,0.0008
3799.00,0.0008
3798.00,0.0008
3797.00,0.0008
3796.00,0.0008
3795.00,0.0008
3794.00,0.0009
3793.00,0.0009
3792.00,0.0009
3791.00,0.0010
3790.00,0.0010
3789.00,0.0010
3788.00,0.0010
3787.00,0.0011
3786.00,0.0011
3785.00,0.0011
3784.00,0.0011
3783.00,0.0011
3782.00,0.0011
3781.00,0.0011
3780.00,0.0011
3779.00,0.0011
3778.00,0.0012
3777.00,0.0012
3776.00,0.0012
3775.00,0.0012
3774.00,0.0012
3773.00,0.0012
3772.00,0.0012
3771.00,0.0013
3770.00,0.0013
3769.00,0.0013
3768.00,0.0013
3767.00,0.0013
3766.00,0.0013
3765.00,0.0012
3764.00,0.0012
3763.00,0.0012
3762.00,0.0012
3761.00,0.0012
3760.00,0.0013
3759.00,0.0013
3758.00,0.0013
3757.00,0.0013
3756.00,0.0013
3755.00,0.0013
3754.00,0.0013
3753.00,0.0012
3752.00,0.0012
3751.00,0.0012
3750.00,0.0012
3749.00,0.0011
3748.00,0.0011
3747.00,0.0011
3746.00,0.0010
3745.00,0.0010
3744.00,0.0010
3743.00,0.0011
3742.00,0.0011
3741.00,0.0011
3740.00,0.0011
3739.00,0.0011
3738.00,0.0011
3737.00,0.0011
3736.00,0.0011
3735.00,0.0012
3734.00,0.0012
3733.00,0.0012
3732.00,0.0013
3731.00,0.0013
3730.00,0.0013
3729.00,0.0013
3728.00,0.0013
3727.00,0.0013
3726.00,0.0014
3725.00,0.0014
3724.00,0.0014
3723.00,0.0015
3722.00,0.0015
3721.00,0.0015
3720.00,0.0016
3719.00,0.0016
3718.00,0.0016
3717.00,0.0016
3716.00,0.0016
3715.00,0.0017
3714.00,0.0017
3713.00,0.0018
3712.00,0.0018
3711.00,0.0018
3710.00,0.0019
3709.00,0.0019
3708.00,0.0020
3707.00,0.0021
3706.00,0.0021
3705.00,0.0022
3704.00,0.0022
3703.00,0.0022
3702.00,0.0023
3701.00,0.0024
3700.00,0.0025
3699.00,0.0025
3698.00,0.0026
3697.00,0.0026
3696.00,0.0026
3695.00,0.0027
3694.00,0.0027
3693.00,0.0027
3692.00,0.0028
3691.00,0.0028
3690.00,0.0028
3689.00,0.0029
3688.00,0.0030
3687.00,0.0030
3686.00,0.0031
3685.00,0.0032
3684.00,0.0033
3683.00,0.0033
3682.00,0.0034
3681.00,0.0035
3680.00,0.0036
3679.00,0.0036
3678.00,0.0037
3677.00,0.0038
3676.00,0.0038
3675.00,0.0039
3674.00,0.0040
3673.00,0.0041
3672.00,0.0041
3671.00,0.0042
3670.00,0.0043
3669.00,0.0044
3668.00,0.0045
3667.00,0.0046
3666.00,0.0047
3665.00,0.0048
3664.00,0.0049
3663.00,0.0050
3662.00,0.0050
3661.00,0.0051
3660.00,0.0051
3659.00,0.0052
3658.00,0.0052
3657.00,0.0053
3656.00,0.0054
3655.00,0.0054
3654.00,0.0055
3653.00,0.0055
3652.00,0.0056
3651.00,0.0057
3650.00,0.0057
3649.00,0.0058
3648.00,0.0058
3647.00,0.0058
3646.00,0.0058
3645.00,0.0058
3644.00,0.0059
3643.00,0.0059
3642.00,0.0059
3641.00,0.0060
3640.00,0.0060
3639.00,0.0060
3638.00,0.0060
3637.00,0.0061
3636.00,0.0061
3635.00,0.0061
3634.00,0.0061
3633.00,0.0060
3632.00,0.0060
3631.00,0.0060
3630.00,0.0061
3629.00,0.0061
3628.00,0.0061
3627.00,0.0062
3626.00,0.0062
3625.00,0.0062
3624.00,0.0062
3623.00,0.0062
3622.00,0.0062
3621.00,0.0062
3620.00,0.0062
3619.00,0.0062
3618.00,0.0062
3617.00,0.0062
3616.00,0.0062
3615.00,0.0062
3614.00,0.0062
3613.00,0.0062
3612.00,0.0062
3611.00,0.0062
3610.00,0.0063
3609.00,0.0063
3608.00,0.0064
3607.00,0.0064
3606.00,0.0065
3605.00,0.0065
3604.00,0.0065
3603.00,0.0066
3602.00,0.0066
3601.00,0.0066
3600.00,0.0066
3599.00,0.0066
3598.00,0.0067
3597.00,0.0067
3596.00,0.0067
3595.00,0.0068
3594.00,0.0068
3593.00,0.0068
3592.00,0.0068
3591.00,0.0069
3590.00,0.0069
3589.00,0.0069
3588.00,0.0069
3587.00,0.0069
3586.00,0.0069
3585.00,0.0070
3584.00,0.0070
3583.00,0.0070
3582.00,0.0071
3581.00,0.0071
3580.00,0.0071
3579.00,0.0072
3578.00,0.0072
3577.00,0.0072
3576.00,0.0072
3575.00,0.0072
3574.00,0.0072
3573.00,0.0072
3572.00,0.0072
3571.00,0.0072
3570.00,0.0073
3569.00,0.0073
3568.00,0.0074
3567.00,0.0074
3566.00,0.0075
3565.00,0.0075
3564.00,0.0076
3563.00,0.0076
3562.00,0.0076
3561.00,0.0077
3560.00,0.0077
3559.00,0.0077
3558.00,0.0077
3557.00,0.0078
3556.00,0.0078
3555.00,0.0078
3554.00,0.0079
3553.00,0.0079
3552.00,0.0080
3551.00,0.0080
3550.00,0.0081
3549.00,0.0081
3548.00,0.0082
3547.00,0.0082
3546.00,0.0082
3545.00,0.0083
3544.00,0.0083
3543.00,0.0083
3542.00,0.0084
3541.00,0.0084
3540.00,0.0085
3539.00,0.0085
3538.00,0.0085
3537.00,0.0086
3536.00,0.0087
3535.00,0.0087
3534.00,0.0088
3533.00,0.0088
3532.00,0.0089
3531.00,0.0089
3530.00,0.0089
3529.00,0.0090
3528.00,0.0090
3527.00,0.0091
3526.00,0.0091
3525.00,0.0092
3524.00,0.0092
3523.00,0.0093
3522.00,0.0093
3521.00,0.0093
3520.00,0.0094
3519.00,0.0094
3518.00,0.0095
3517.00,0.0095
3516.00,0.0095
3515.00,0.0096
3514.00,0.0096
3513.00,0.0097
3512.00,0.0097
3511.00,0.0097
3510.00,0.0098
3509.00,0.0098
3508.00,0.0099
3507.00,0.0099
3506.00,0.0100
3505.00,0.0100
3504.00,0.0101
3503.00,0.0101
3502.00,0.0101
3501.00,0.0102
3500.00,0.0102
3499.00,0.0103
3498.00,0.0103
3497.00,0.0104
3496.00,0.0104
3495.00,0.0105
3494.00,0.0105
3493.00,0.0105
3492.00,0.0106
3491.00,0.0106
3490.00,0.0106
3489.00,0.0107
3488.00,0.0107
3487.00,0.0108
3486.00,0.0108
3485.00,0.0108
3484.00,0.0108
3483.00,0.0109
3482.00,0.0109
3481.00,0.0110
3480.00,0.0110
3479.00,0.0111
3478.00,0.0111
3477.00,0.0111
3476.00,0.0112
3475.00,0.0112
3474.00,0.0112
3473.00,0.0113
3472.00,0.0113
3471.00,0.0113
3470.00,0.0114
3469.00,0.0114
3468.00,0.0114
3467.00,0.0115
3466.00,0.0115
3465.00,0.0115
3464.00,0.0115
3463.00,0.0116
3462.00,0.0116
3461.00,0.0116
3460.00,0.0116
3459.00,0.0116
3458.00,0.0117
3457.00,0.0117
3456.00,0.0117
3455.00,0.0118
3454.00,0.0118
3453.00,0.0118
3452.00,0.0118
3451.00,0.0118
3450.00,0.0119
3449.00,0.0119
3448.00,0.0119
3447.00,0.0119
3446.00,0.0120
3445.00,0.0120
3444.00,0.0120
3443.00,0.0120
3442.00,0.0120
3441.00,0.0121
3440.00,0.0121
3439.00,0.0121
3438.00,0.0122
3437.00,0.0122
3436.00,0.0122
3435.00,0.0122
3434.00,0.0122
3433.00,0.0122
3432.00,0.0123
3431.00,0.0123
3430.00,0.0123
3429.00,0.0123
3428.00,0.0123
3427.00,0.0123
3426.00,0.0124
3425.00,0.0124
3424.00,0.0124
3423.00,0.0124
3422.00,0.0124
3421.00,0.0124
3420.00,0.0124
3419.00,0.0124
3418.00,0.0124
3417.00,0.0125
3416.00,0.0125
3415.00,0.0125
3414.00,0.0125
3413.00,0.0125
3412.00,0.0125
3411.00,0.0125
3410.00,0.0125
3409.00,0.0126
3408.00,0.0126
3407.00,0.0126
3406.00,0.0126
3405.00,0.0126
3404.00,0.0126
3403.00,0.0126
3402.00,0.0126
3401.00,0.0126
3400.00,0.0126
3399.00,0.0126
3398.00,0.0126
3397.00,0.0126
3396.00,0.0126
3395.00,0.0126
3394.00,0.0126
3393.00,0.0127
3392.00,0.0127
3391.00,0.0127
3390.00,0.0127
3389.00,0.0127
3388.00,0.0127
3387.00,0.0126
3386.00,0.0126
3385.00,0.0126
3384.00,0.0126
3383.00,0.0126
3382.00,0.0126
3381.00,0.0126
3380.00,0.0126
3379.00,0.0126
3378.00,0.0126
3377.00,0.0126
3376.00,0.0126
3375.00,0.0126
3374.00,0.0126
3373.00,0.0126
3372.00,0.0126
3371.00,0.0126
3370.00,0.0126
3369.00,0.0126
3368.00,0.0127
3367.00,0.0126
3366.00,0.0126
3365.00,0.0126
3364.00,0.0126
3363.00,0.0126
3362.00,0.0126
3361.00,0.0126
3360.00,0.0126
3359.00,0.0126
3358.00,0.0126
3357.00,0.0126
3356.00,0.0125
3355.00,0.0125
3354.00,0.0125
3353.00,0.0125
3352.00,0.0125
3351.00,0.0125
3350.00,0.0125
3349.00,0.0125
3348.00,0.0125
3347.00,0.0125
3346.00,0.0125
3345.00,0.0125
3344.00,0.0124
3343.00,0.0124
3342.00,0.0124
3341.00,0.0124
3340.00,0.0124
3339.00,0.0124
3338.00,0.0124
3337.00,0.0124
3336.00,0.0124
3335.00,0.0124
3334.00,0.0124
3333.00,0.0124
3332.00,0.0124
3331.00,0.0124
3330.00,0.0124
3329.00,0.0123
3328.00,0.0123
3327.00,0.0123
3326.00,0.0123
3325.00,0.0122
3324.00,0.0122
3323.00,0.0122
3322.00,0.0122
3321.00,0.0122
3320.00,0.0122
3319.00,0.0121
3318.00,0.0121
3317.00,0.0121
3316.00,0.0121
3315.00,0.0121
3314.00,0.0121
3313.00,0.0121
3312.00,0.0121
3311.00,0.0121
3310.00,0.0121
3309.00,0.0121
3308.00,0.0120
3307.00,0.0120
3306.00,0.0120
3305.00,0.0120
3304.00,0.0120
3303.00,0.0120
3302.00,0.0120
3301.00,0.0120
3300.00,0.0120
3299.00,0.0120
3298.00,0.0120
3297.00,0.0120
3296.00,0.0120
3295.00,0.0120
3294.00,0.0120
3293.00,0.0120
3292.00,0.0120
3291.00,0.0120
3290.00,0.0119
3289.00,0.0119
3288.00,0.0119
3287.00,0.0119
3286.00,0.0119
3285.00,0.0119
3284.00,0.0119
3283.00,0.0119
3282.00,0.0119
3281.00,0.0119
3280.00,0.0118
3279.00,0.0118
3278.00,0.0118
3277.00,0.0118
3276.00,0.0118
3275.00,0.0118
3274.00,0.0117
3273.00,0.0117
3272.00,0.0117
3271.00,0.0117
3270.00,0.0117
3269.00,0.0117
3268.00,0.0117
3267.00,0.0117
3266.00,0.0117
3265.00,0.0117
3264.00,0.0116
3263.00,0.0116
3262.00,0.0116
3261.00,0.0116
3260.00,0.0116
3259.00,0.0116
3258.00,0.0115
3257.00,0.0115
3256.00,0.0115
3255.00,0.0115
3254.00,0.0115
3253.00,0.0115
3252.00,0.0115
3251.00,0.0115
3250.00,0.0114
3249.00,0.0114
3248.00,0.0114
3247.00,0.0114
3246.00,0.0113
3245.00,0.0113
3244.00,0.0113
3243.00,0.0113
3242.00,0.0113
3241.00,0.0113
3240.00,0.0113
3239.00,0.0113
3238.00,0.0113
3237.00,0.0113
3236.00,0.0112
3235.00,0.0112
3234.00,0.0111
3233.00,0.0111
3232.00,0.0111
3231.00,0.0111
3230.00,0.0111
3229.00,0.0111
3228.00,0.0111
3227.00,0.0111
3226.00,0.0111
3225.00,0.0110
3224.00,0.0110
3223.00,0.0110
3222.00,0.0110
3221.00,0.0109
3220.00,0.0109
3219.00,0.0109
3218.00,0.0109
3217.00,0.0108
3216.00,0.0108
3215.00,0.0108
3214.00,0.0108
3213.00,0.0108
3212.00,0.0107
3211.00,0.0107
3210.00,0.0107
3209.00,0.0107
3208.00,0.0106
3207.00,0.0106
3206.00,0.0106
3205.00,0.0105
3204.00,0.0105
3203.00,0.0105
3202.00,0.0105
3201.00,0.0104
3200.00,0.0104
3199.00,0.0104
3198.00,0.0104
3197.00,0.0103
3196.00,0.0103
3195.00,0.0103
3194.00,0.0103
3193.00,0.0103
3192.00,0.0103
3191.00,0.0102
3190.00,0.0102
3189.00,0.0102
3188.00,0.0102
3187.00,0.0102
3186.00,0.0101
3185.00,0.0101
3184.00,0.0101
3183.00,0.0101
3182.00,0.0101
3181.00,0.0100
3180.00,0.0100
3179.00,0.0100
3178.00,0.0099
3177.00,0.0099
3176.00,0.0099
3175.00,0.0098
3174.00,0.0098
3173.00,0.0098
3172.00,0.0098
3171.00,0.0098
3170.00,0.0097
3169.00,0.0097
3168.00,0.0097
3167.00,0.0097
3166.00,0.0097
3165.00,0.0097
3164.00,0.0097
3163.00,0.0096
3162.00,0.0096
3161.00,0.0096
3160.00,0.0096
3159.00,0.0096
3158.00,0.0095
3157.00,0.0095
3156.00,0.0095
3155.00,0.0095
3154.00,0.0094
3153.00,0.0094
3152.00,0.0094
3151.00,0.0094
3150.00,0.0093
3149.00,0.0093
3148.00,0.0094
3147.00,0.0093
3146.00,0.0093
3145.00,0.0093
3144.00,0.0093
3143.00,0.0092
3142.00,0.0092
3141.00,0.0092
3140.00,0.0092
3139.00,0.0092
3138.00,0.0092
3137.00,0.0092
3136.00,0.0092
3135.00,0.0092
3134.00,0.0091
3133.00,0.0091
3132.00,0.0091
3131.00,0.0090
3130.00,0.0090
3129.00,0.0090
3128.00,0.0090
3127.00,0.0090
3126.00,0.0090
3125.00,0.0090
3124.00,0.0090
3123.00,0.0090
3122.00,0.0090
3121.00,0.0090
3120.00,0.0090
3119.00,0.0090
3118.00,0.0090
3117.00,0.0090
3116.00,0.0090
3115.00,0.0089
3114.00,0.0089
3113.00,0.0089
3112.00,0.0089
3111.00,0.0089
3110.00,0.0089
3109.00,0.0088
3108.00,0.0088
3107.00,0.0088
3106.00,0.0088
3105.00,0.0088
3104.00,0.0088
3103.00,0.0087
3102.00,0.0087
3101.00,0.0087
3100.00,0.0086
3099.00,0.0086
3098.00,0.0086
3097.00,0.0086
3096.00,0.0086
3095.00,0.0085
3094.00,0.0085
3093.00,0.0085
3092.00,0.0085
3091.00,0.0085
3090.00,0.0085
3089.00,0.0084
3088.00,0.0084
3087.00,0.0084
3086.00,0.0083
3085.00,0.0083
3084.00,0.0083
3083.00,0.0083
3082.00,0.0083
3081.00,0.0082
3080.00,0.0082
3079.00,0.0082
3078.00,0.0082
3077.00,0.0082
3076.00,0.0082
3075.00,0.0081
3074.00,0.0081
3073.00,0.0081
3072.00,0.0081
3071.00,0.0081
3070.00,0.0081
3069.00,0.0081
3068.00,0.0081
3067.00,0.0080
3066.00,0.0080
3065.00,0.0080
3064.00,0.0080
3063.00,0.0080
3062.00,0.0079
3061.00,0.0079
3060.00,0.0079
3059.00,0.0079
3058.00,0.0079
3057.00,0.0079
3056.00,0.0079
3055.00,0.0079
3054.00,0.0078
3053.00,0.0078
3052.00,0.0078
3051.00,0.0077
3050.00,0.0077
3049.00,0.0077
3048.00,0.0077
3047.00,0.0077
3046.00,0.0077
3045.00,0.0076
3044.00,0.0076
3043.00,0.0076
3042.00,0.0076
3041.00,0.0075
3040.00,0.0075
3039.00,0.0075
3038.00,0.0075
3037.00,0.0075
3036.00,0.0074
3035.00,0.0074
3034.00,0.0074
3033.00,0.0074
3032.00,0.0074
3031.00,0.0074
3030.00,0.0073
3029.00,0.0073
3028.00,0.0073
3027.00,0.0073
3026.00,0.0073
3025.00,0.0073
3024.00,0.0073
3023.00,0.0073
3022.00,0.0073
3021.00,0.0073
3020.00,0.0073
3019.00,0.0073
3018.00,0.0073
3017.00,0.0073
3016.00,0.0073
3015.00,0.0073
3014.00,0.0073
3013.00,0.0073
3012.00,0.0073
3011.00,0.0073
3010.00,0.0073
3009.00,0.0073
3008.00,0.0074
3007.00,0.0074
3006.00,0.0074
3005.00,0.0075
3004.00,0.0075
3003.00,0.0076
3002.00,0.0076
3001.00,0.0077
3000.00,0.0078
2999.00,0.0079
2998.00,0.0080
2997.00,0.0081
2996.00,0.0082
2995.00,0.0084
2994.00,0.0086
2993.00,0.0087
2992.00,0.0090
2991.00,0.0092
2990.00,0.0096
2989.00,0.0099
2988.00,0.0103
2987.00,0.0107
2986.00,0.0112
2985.00,0.0117
2984.00,0.0123
2983.00,0.0130
2982.00,0.0139
2981.00,0.0149
2980.00,0.0162
2979.00,0.0176
2978.00,0.0193
2977.00,0.0212
2976.00,0.0235
2975.00,0.0261
2974.00,0.0290
2973.00,0.0323
2972.00,0.0361
2971.00,0.0402
2970.00,0.0448
2969.00,0.0495
2968.00,0.0544
2967.00,0.0591
2966.00,0.0634
2965.00,0.0668
2964.00,0.0690
2963.00,0.0698
2962.00,0.0689
2961.00,0.0664
2960.00,0.0625
2959.00,0.0578
2958.00,0.0526
2957.00,0.0473
2956.00,0.0422
2955.00,0.0375
2954.00,0.0334
2953.00,0.0298
2952.00,0.0268
2951.00,0.0242
2950.00,0.0220
2949.00,0.0201
2948.00,0.0185
2947.00,0.0171
2946.00,0.0159
2945.00,0.0149
2944.00,0.0140
2943.00,0.0132
2942.00,0.0125
2941.00,0.0119
2940.00,0.0113
2939.00,0.0108
2938.00,0.0103
2937.00,0.0099
2936.00,0.0095
2935.00,0.0091
2934.00,0.0088
2933.00,0.0085
2932.00,0.0082
2931.00,0.0080
2930.00,0.0077
2929.00,0.0075
2928.00,0.0073
2927.00,0.0071
2926.00,0.0069
2925.00,0.0068
2924.00,0.0067
2923.00,0.0066
2922.00,0.0066
2921.00,0.0067
2920.00,0.0067
2919.00,0.0068
2918.00,0.0069
2917.00,0.0072
2916.00,0.0075
2915.00,0.0079
2914.00,0.0084
2913.00,0.0089
2912.00,0.0095
2911.00,0.0100
2910.00,0.0106
2909.00,0.0111
2908.00,0.0115
2907.00,0.0117
2906.00,0.0119
2905.00,0.0118
2904.00,0.0117
2903.00,0.0114
2902.00,0.0111
2901.00,0.0106
2900.00,0.0102
2899.00,0.0098
2898.00,0.0093
2897.00,0.0089
2896.00,0.0086
2895.00,0.0082
2894.00,0.0079
2893.00,0.0077
2892.00,0.0074
2891.00,0.0072
2890.00,0.0070
2889.00,0.0068
2888.00,0.0067
2887.00,0.0066
2886.00,0.0065
2885.00,0.0064
2884.00,0.0063
2883.00,0.0061
2882.00,0.0060
2881.00,0.0060
2880.00,0.0059
2879.00,0.0058
2878.00,0.0058
2877.00,0.0057
2876.00,0.0056
2875.00,0.0055
2874.00,0.0054
2873.00,0.0053
2872.00,0.0052
2871.00,0.0051
2870.00,0.0051
2869.00,0.0050
2868.00,0.0049
2867.00,0.0049
2866.00,0.0048
2865.00,0.0047
2864.00,0.0046
2863.00,0.0045
2862.00,0.0044
2861.00,0.0043
2860.00,0.0042
2859.00,0.0041
2858.00,0.0040
2857.00,0.0039
2856.00,0.0038
2855.00,0.0037
2854.00,0.0036
2853.00,0.0035
2852.00,0.0035
2851.00,0.0034
2850.00,0.0033
2849.00,0.0033
2848.00,0.0034
2847.00,0.0035
2846.00,0.0037
2845.00,0.0038
2844.00,0.0040
2843.00,0.0041
2842.00,0.0041
2841.00,0.0042
2840.00,0.0042
2839.00,0.0042
2838.00,0.0042
2837.00,0.0042
2836.00,0.0042
2835.00,0.0042
2834.00,0.0042
2833.00,0.0043
2832.00,0.0043
2831.00,0.0042
2830.00,0.0042
2829.00,0.0042
2828.00,0.0042
2827.00,0.0042
2826.00,0.0042
2825.00,0.0041
2824.00,0.0041
2823.00,0.0041
2822.00,0.0041
2821.00,0.0042
2820.00,0.0042
2819.00,0.0042
2818.00,0.0042
2817.00,0.0042
2816.00,0.0042
2815.00,0.0042
2814.00,0.0042
2813.00,0.0042
2812.00,0.0042
2811.00,0.0041
2810.00,0.0041
2809.00,0.0041
2808.00,0.0041
2807.00,0.0041
2806.00,0.0041
2805.00,0.0041
2804.00,0.0041
2803.00,0.0041
2802.00,0.0041
2801.00,0.0041
2800.00,0.0041
2799.00,0.0040
2798.00,0.0040
2797.00,0.0040
2796.00,0.0040
2795.00,0.0040
2794.00,0.0039
2793.00,0.0039
2792.00,0.0039
2791.00,0.0038
2790.00,0.0037
2789.00,0.0037
2788.00,0.0036
2787.00,0.0036
2786.00,0.0035
2785.00,0.0034
2784.00,0.0034
2783.00,0.0033
2782.00,0.0033
2781.00,0.0032
2780.00,0.0032
2779.00,0.0031
2778.00,0.0030
2777.00,0.0030
2776.00,0.0030
2775.00,0.0029
2774.00,0.0029
2773.00,0.0029
2772.00,0.0028
2771.00,0.0028
2770.00,0.0028
2769.00,0.0028
2768.00,0.0027
2767.00,0.0027
2766.00,0.0027
2765.00,0.0026
2764.00,0.0026
2763.00,0.0026
2762.00,0.0026
2761.00,0.0025
2760.00,0.0025
2759.00,0.0025
2758.00,0.0025
2757.00,0.0025
2756.00,0.0024
2755.00,0.0024
2754.00,0.0024
2753.00,0.0024
2752.00,0.0024
2751.00,0.0024
2750.00,0.0024
2749.00,0.0023
2748.00,0.0023
2747.00,0.0023
2746.00,0.0023
2745.00,0.0023
2744.00,0.0023
2743.00,0.0023
2742.00,0.0023
2741.00,0.0023
2740.00,0.0023
2739.00,0.0022
2738.00,0.0022
2737.00,0.0022
2736.00,0.0022
2735.00,0.0022
2734.00,0.0022
2733.00,0.0022
2732.00,0.0022
2731.00,0.0022
2730.00,0.0022
2729.00,0.0022
2728.00,0.0022
2727.00,0.0021
2726.00,0.0021
2725.00,0.0021
2724.00,0.0021
2723.00,0.0021
2722.00,0.0021
2721.00,0.0021
2720.00,0.0021
2719.00,0.0021
2718.00,0.0021
2717.00,0.0021
2716.00,0.0021
2715.00,0.0021
2714.00,0.0021
2713.00,0.0021
2712.00,0.0021
2711.00,0.0021
2710.00,0.0021
2709.00,0.0021
2708.00,0.0021
2707.00,0.0021
2706.00,0.0020
2705.00,0.0020
2704.00,0.0020
2703.00,0.0020
2702.00,0.0020
2701.00,0.0020
2700.00,0.0020
2699.00,0.0020
2698.00,0.0020
2697.00,0.0020
2696.00,0.0020
2695.00,0.0020
2694.00,0.0020
2693.00,0.0019
2692.00,0.0019
2691.00,0.0019
2690.00,0.0019
2689.00,0.0020
2688.00,0.0020
2687.00,0.0020
2686.00,0.0019
2685.00,0.0019
2684.00,0.0019
2683.00,0.0019
2682.00,0.0019
2681.00,0.0020
2680.00,0.0020
2679.00,0.0020
2678.00,0.0020
2677.00,0.0020
2676.00,0.0020
2675.00,0.0020
2674.00,0.0020
2673.00,0.0020
2672.00,0.0020
2671.00,0.0020
2670.00,0.0020
2669.00,0.0020
2668.00,0.0021
2667.00,0.0021
2666.00,0.0021
2665.00,0.0021
2664.00,0.0021
2663.00,0.0021
2662.00,0.0021
2661.00,0.0021
2660.00,0.0021
2659.00,0.0021
2658.00,0.0021
2657.00,0.0020
2656.00,0.0020
2655.00,0.0020
2654.00,0.0020
2653.00,0.0019
2652.00,0.0019
2651.00,0.0019
2650.00,0.0019
2649.00,0.0018
2648.00,0.0018
2647.00,0.0018
2646.00,0.0018
2645.00,0.0018
2644.00,0.0017
2643.00,0.0017
2642.00,0.0017
2641.00,0.0017
2640.00,0.0017
2639.00,0.0016
2638.00,0.0016
2637.00,0.0016
2636.00,0.0016
2635.00,0.0015
2634.00,0.0015
2633.00,0.0015
2632.00,0.0015
2631.00,0.0015
2630.00,0.0015
2629.00,0.0015
2628.00,0.0015
2627.00,0.0015
2626.00,0.0014
2625.00,0.0014
2624.00,0.0014
2623.00,0.0014
2622.00,0.0014
2621.00,0.0014
2620.00,0.0014
2619.00,0.0014
2618.00,0.0014
2617.00,0.0014
2616.00,0.0014
2615.00,0.0014
2614.00,0.0014
2613.00,0.0014
2612.00,0.0013
2611.00,0.0013
2610.00,0.0013
2609.00,0.0013
2608.00,0.0013
2607.00,0.0013
2606.00,0.0013
2605.00,0.0013
2604.00,0.0012
2603.00,0.0012
2602.00,0.0012
2601.00,0.0012
2600.00,0.0012
2599.00,0.0012
2598.00,0.0012
2597.00,0.0012
2596.00,0.0012
2595.00,0.0012
2594.00,0.0012
2593.00,0.0012
2592.00,0.0012
2591.00,0.0012
2590.00,0.0012
2589.00,0.0012
2588.00,0.0012
2587.00,0.0012
2586.00,0.0012
2585.00,0.0012
2584.00,0.0012
2583.00,0.0012
2582.00,0.0012
2581.00,0.0012
2580.00,0.0012
2579.00,0.0012
2578.00,0.0011
2577.00,0.0011
2576.00,0.0011
2575.00,0.0011
2574.00,0.0011
2573.00,0.0011
2572.00,0.0011
2571.00,0.0011
2570.00,0.0011
2569.00,0.0011
2568.00,0.0011
2567.00,0.0012
2566.00,0.0012
2565.00,0.0012
2564.00,0.0012
2563.00,0.0012
2562.00,0.0011
2561.00,0.0011
2560.00,0.0011
2559.00,0.0011
2558.00,0.0011
2557.00,0.0011
2556.00,0.0011
2555.00,0.0011
2554.00,0.0012
2553.00,0.0012
2552.00,0.0012
2551.00,0.0011
2550.00,0.0011
2549.00,0.0011
2548.00,0.0011
2547.00,0.0011
2546.00,0.0011
2545.00,0.0011
2544.00,0.0011
2543.00,0.0011
2542.00,0.0011
2541.00,0.0011
2540.00,0.0011
2539.00,0.0012
2538.00,0.0012
2537.00,0.0012
2536.00,0.0012
2535.00,0.0012
2534.00,0.0013
2533.00,0.0013
2532.00,0.0013
2531.00,0.0012
2530.00,0.0012
2529.00,0.0012
2528.00,0.0013
2527.00,0.0013
2526.00,0.0014
2525.00,0.0014
2524.00,0.0014
2523.00,0.0014
2522.00,0.0014
2521.00,0.0014
2520.00,0.0014
2519.00,0.0014
2518.00,0.0014
2517.00,0.0014
2516.00,0.0014
2515.00,0.0014
2514.00,0.0014
2513.00,0.0014
2512.00,0.0015
2511.00,0.0015
2510.00,0.0015
2509.00,0.0015
2508.00,0.0015
2507.00,0.0015
2506.00,0.0015
2505.00,0.0015
2504.00,0.0015
2503.00,0.0015
2502.00,0.0016
2501.00,0.0015
2500.00,0.0015
2499.00,0.0015
2498.00,0.0015
2497.00,0.0014
2496.00,0.0014
2495.00,0.0014
2494.00,0.0014
2493.00,0.0014
2492.00,0.0014
2491.00,0.0013
2490.00,0.0013
2489.00,0.0012
2488.00,0.0012
2487.00,0.0012
2486.00,0.0012
2485.00,0.0012
2484.00,0.0012
2483.00,0.0012
2482.00,0.0012
2481.00,0.0011
2480.00,0.0011
2479.00,0.0011
2478.00,0.0011
2477.00,0.0011
2476.00,0.0011
2475.00,0.0011
2474.00,0.0011
2473.00,0.0011
2472.00,0.0011
2471.00,0.0011
2470.00,0.0011
2469.00,0.0011
2468.00,0.0010
2467.00,0.0010
2466.00,0.0010
2465.00,0.0010
2464.00,0.0010
2463.00,0.0010
2462.00,0.0010
2461.00,0.0010
2460.00,0.0010
2459.00,0.0010
2458.00,0.0010
2457.00,0.0010
2456.00,0.0010
2455.00,0.0010
2454.00,0.0010
2453.00,0.0010
2452.00,0.0010
2451.00,0.0010
2450.00,0.0011
2449.00,0.0011
2448.00,0.0011
2447.00,0.0011
2446.00,0.0011
2445.00,0.0011
2444.00,0.0010
2443.00,0.0010
2442.00,0.0010
2441.00,0.0010
2440.00,0.0010
2439.00,0.0010
2438.00,0.0010
2437.00,0.0010
2436.00,0.0010
2435.00,0.0010
2434.00,0.0010
2433.00,0.0010
2432.00,0.0010
2431.00,0.0010
2430.00,0.0010
2429.00,0.0010
2428.00,0.0010
2427.00,0.0011
2426.00,0.0010
2425.00,0.0010
2424.00,0.0010
2423.00,0.0010
2422.00,0.0010
2421.00,0.0010
2420.00,0.0010
2419.00,0.0010
2418.00,0.0010
2417.00,0.0010
2416.00,0.0010
2415.00,0.0010
2414.00,0.0010
2413.00,0.0010
2412.00,0.0010
2411.00,0.0010
2410.00,0.0010
2409.00,0.0010
2408.00,0.0010
2407.00,0.0010
2406.00,0.0010
2405.00,0.0010
2404.00,0.0009
2403.00,0.0009
2402.00,0.0009
2401.00,0.0009
2400.00,0.0009
2399.00,0.0010
2398.00,0.0010
2397.00,0.0010
2396.00,0.0010
2395.00,0.0010
2394.00,0.0010
2393.00,0.0010
2392.00,0.0010
2391.00,0.0010
2390.00,0.0010
2389.00,0.0010
2388.00,0.0009
2387.00,0.0010
2386.00,0.0010
2385.00,0.0010
2384.00,0.0010
2383.00,0.0010
2382.00,0.0009
2381.00,0.0009
2380.00,0.0009
2379.00,0.0009
2378.00,0.0009
2377.00,0.0009
2376.00,0.0009
2375.00,0.0009
2374.00,0.0010
2373.00,0.0010
2372.00,0.0010
2371.00,0.0010
2370.00,0.0010
2369.00,0.0010
2368.00,0.0010
2367.00,0.0010
2366.00,0.0010
2365.00,0.0010
2364.00,0.0010
2363.00,0.0010
2362.00,0.0010
2361.00,0.0010
2360.00,0.0010
2359.00,0.0011
2358.00,0.0011
2357.00,0.0010
2356.00,0.0010
2355.00,0.0010
2354.00,0.0010
2353.00,0.0010
2352.00,0.0010
2351.00,0.0011
2350.00,0.0011
2349.00,0.0011
2348.00,0.0011
2347.00,0.0011
2346.00,0.0011
2345.00,0.0012
2344.00,0.0012
2343.00,0.0011
2342.00,0.0011
2341.00,0.0011
2340.00,0.0011
2339.00,0.0011
2338.00,0.0011
2337.00,0.0011
2336.00,0.0011
2335.00,0.0012
2334.00,0.0012
2333.00,0.0012
2332.00,0.0011
2331.00,0.0011
2330.00,0.0011
2329.00,0.0012
2328.00,0.0012
2327.00,0.0013
2326.00,0.0013
2325.00,0.0014
2324.00,0.0013
2323.00,0.0013
2322.00,0.0013
2321.00,0.0013
2320.00,0.0013
2319.00,0.0013
2318.00,0.0012
2317.00,0.0012
2316.00,0.0012
2315.00,0.0012
2314.00,0.0012
2313.00,0.0011
2312.00,0.0011
2311.00,0.0011
2310.00,0.0011
2309.00,0.0011
2308.00,0.0011
2307.00,0.0011
2306.00,0.0011
2305.00,0.0011
2304.00,0.0011
2303.00,0.0011
2302.00,0.0011
2301.00,0.0011
2300.00,0.0011
2299.00,0.0011
2298.00,0.0011
2297.00,0.0011
2296.00,0.0012
2295.00,0.0012
2294.00,0.0012
2293.00,0.0012
2292.00,0.0012
2291.00,0.0012
2290.00,0.0011
2289.00,0.0011
2288.00,0.0011
2287.00,0.0010
2286.00,0.0010
2285.00,0.0010
2284.00,0.0010
2283.00,0.0009
2282.00,0.0009
2281.00,0.0009
2280.00,0.0009
2279.00,0.0008
2278.00,0.0008
2277.00,0.0008
2276.00,0.0008
2275.00,0.0008
2274.00,0.0008
2273.00,0.0008
2272.00,0.0008
2271.00,0.0007
2270.00,0.0007
2269.00,0.0007
2268.00,0.0007
2267.00,0.0007
2266.00,0.0007
2265.00,0.0007
2264.00,0.0007
2263.00,0.0007
2262.00,0.0007
2261.00,0.0007
2260.00,0.0007
2259.00,0.0007
2258.00,0.0006
2257.00,0.0006
2256.00,0.0006
2255.00,0.0005
2254.00,0.0005
2253.00,0.0004
2252.00,0.0004
2251.00,0.0004
2250.00,0.0004
2249.00,0.0004
2248.00,0.0005
2247.00,0.0006
2246.00,0.0006
2245.00,0.0005
2244.00,0.0004
2243.00,0.0003
2242.00,0.0003
2241.00,0.0003
2240.00,0.0003
2239.00,0.0003
2238.00,0.0004
2237.00,0.0004
2236.00,0.0004
2235.00,0.0004
2234.00,0.0003
2233.00,0.0003
2232.00,0.0002
2231.00,0.0002
2230.00,0.0001
2229.00,0.0001
2228.00,0.0001
2227.00,0.0001
2226.00,0.0001
2225.00,0.0001
2224.00,0.0000
2223.00,0.0000
2222.00,0.0000
2221.00,0.0001
2220.00,0.0001
2219.00,0.0000
2218.00,-0.0000
2217.00,-0.0001
2216.00,-0.0001
2215.00,-0.0001
2214.00,-0.0001
2213.00,-0.0002
2212.00,-0.0002
2211.00,-0.0003
2210.00,-0.0003
2209.00,-0.0003
2208.00,-0.0003
2207.00,-0.0003
2206.00,-0.0003
2205.00,-0.0003
2204.00,-0.0003
2203.00,-0.0004
2202.00,-0.0004
2201.00,-0.0005
2200.00,-0.0006
2199.00,-0.0006
2198.00,-0.0006
2197.00,-0.0007
2196.00,-0.0007
2195.00,-0.0008
2194.00,-0.0009
2193.00,-0.0008
2192.00,-0.0008
2191.00,-0.0009
2190.00,-0.0010
2189.00,-0.0012
2188.00,-0.0012
2187.00,-0.0012
2186.00,-0.0012
2185.00,-0.0012
2184.00,-0.0013
2183.00,-0.0013
2182.00,-0.0013
2181.00,-0.0013
2180.00,-0.0011
2179.00,-0.0011
2178.00,-0.0011
2177.00,-0.0013
2176.00,-0.0014
2175.00,-0.0014
2174.00,-0.0014
2173.00,-0.0014
2172.00,-0.0013
2171.00,-0.0013
2170.00,-0.0013
2169.00,-0.0014
2168.00,-0.0015
2167.00,-0.0016
2166.00,-0.0018
2165.00,-0.0019
2164.00,-0.0021
2163.00,-0.0023
2162.00,-0.0026
2161.00,-0.0029
2160.00,-0.0032
2159.00,-0.0034
2158.00,-0.0034
2157.00,-0.0032
2156.00,-0.0029
2155.00,-0.0026
2154.00,-0.0023
2153.00,-0.0021
2152.00,-0.0019
2151.00,-0.0018
2150.00,-0.0017
2149.00,-0.0016
2148.00,-0.0015
2147.00,-0.0015
2146.00,-0.0015
2145.00,-0.0016
2144.00,-0.0016
2143.00,-0.0017
2142.00,-0.0017
2141.00,-0.0017
2140.00,-0.0016
2139.00,-0.0015
2138.00,-0.0014
2137.00,-0.0013
2136.00,-0.0012
2135.00,-0.0012
2134.00,-0.0011
2133.00,-0.0010
2132.00,-0.0009
2131.00,-0.0008
2130.00,-0.0008
2129.00,-0.0009
2128.00,-0.0008
2127.00,-0.0007
2126.00,-0.0006
2125.00,-0.0005
2124.00,-0.0004
2123.00,-0.0004
2122.00,-0.0003
2121.00,-0.0003
2120.00,-0.0004
2119.00,-0.0004
2118.00,-0.0004
2117.00,-0.0004
2116.00,-0.0004
2115.00,-0.0004
2114.00,-0.0004
2113.00,-0.0004
2112.00,-0.0004
2111.00,-0.0004
2110.00,-0.0004
2109.00,-0.0004
2108.00,-0.0004
2107.00,-0.0005
2106.00,-0.0005
2105.00,-0.0006
2104.00,-0.0006
2103.00,-0.0006
2102.00,-0.0006
2101.00,-0.0006
2100.00,-0.0006
2099.00,-0.0006
2098.00,-0.0006
2097.00,-0.0006
2096.00,-0.0005
2095.00,-0.0005
2094.00,-0.0005
2093.00,-0.0005
2092.00,-0.0005
2091.00,-0.0006
2090.00,-0.0005
2089.00,-0.0005
2088.00,-0.0006
2087.00,-0.0006
2086.00,-0.0006
2085.00,-0.0006
2084.00,-0.0006
2083.00,-0.0006
2082.00,-0.0006
2081.00,-0.0006
2080.00,-0.0006
2079.00,-0.0007
2078.00,-0.0007
2077.00,-0.0008
2076.00,-0.0008
2075.00,-0.0008
2074.00,-0.0008
2073.00,-0.0009
2072.00,-0.0009
2071.00,-0.0009
2070.00,-0.0009
2069.00,-0.0009
2068.00,-0.0010
2067.00,-0.0010
2066.00,-0.0011
2065.00,-0.0011
2064.00,-0.0012
2063.00,-0.0012
2062.00,-0.0013
2061.00,-0.0013
2060.00,-0.0013
2059.00,-0.0013
2058.00,-0.0013
2057.00,-0.0013
2056.00,-0.0013
2055.00,-0.0013
2054.00,-0.0013
2053.00,-0.0014
2052.00,-0.0014
2051.00,-0.0016
2050.00,-0.0018
2049.00,-0.0021
2048.00,-0.0023
2047.00,-0.0025
2046.00,-0.0026
2045.00,-0.0027
2044.00,-0.0029
2043.00,-0.0031
2042.00,-0.0033
2041.00,-0.0035
2040.00,-0.0036
2039.00,-0.0037
2038.00,-0.0038
2037.00,-0.0040
2036.00,-0.0042
2035.00,-0.0044
2034.00,-0.0045
2033.00,-0.0046
2032.00,-0.0046
2031.00,-0.0047
2030.00,-0.0048
2029.00,-0.0048
2028.00,-0.0049
2027.00,-0.0051
2026.00,-0.0053
2025.00,-0.0054
2024.00,-0.0055
2023.00,-0.0054
2022.00,-0.0054
2021.00,-0.0053
2020.00,-0.0053
2019.00,-0.0053
2018.00,-0.0054
2017.00,-0.0054
2016.00,-0.0053
2015.00,-0.0052
2014.00,-0.0051
2013.00,-0.0050
2012.00,-0.0050
2011.00,-0.0050
2010.00,-0.0050
2009.00,-0.0050
2008.00,-0.0049
2007.00,-0.0048
2006.00,-0.0045
2005.00,-0.0042
2004.00,-0.0039
2003.00,-0.0036
2002.00,-0.0035
2001.00,-0.0035
2000.00,-0.0035
1999.00,-0.0035
1998.00,-0.0034
1997.00,-0.0033
1996.00,-0.0032
1995.00,-0.0032
1994.00,-0.0033
1993.00,-0.0035
1992.00,-0.0035
1991.00,-0.0034
1990.00,-0.0033
1989.00,-0.0031
1988.00,-0.0029
1987.00,-0.0028
1986.00,-0.0027
1985.00,-0.0026
1984.00,-0.0026
1983.00,-0.0027
1982.00,-0.0028
1981.00,-0.0030
1980.00,-0.0032
1979.00,-0.0034
1978.00,-0.0035
1977.00,-0.0034
1976.00,-0.0032
1975.00,-0.0031
1974.00,-0.0029
1973.00,-0.0026
1972.00,-0.0024
1971.00,-0.0022
1970.00,-0.0021
1969.00,-0.0020
1968.00,-0.0018
1967.00,-0.0018
1966.00,-0.0017
1965.00,-0.0015
1964.00,-0.0013
1963.00,-0.0011
1962.00,-0.0008
1961.00,-0.0006
1960.00,-0.0004
1959.00,-0.0002
1958.00,-0.0001
1957.00,-0.0001
1956.00,0.0000
1955.00,0.0002
1954.00,0.0003
1953.00,0.0005
1952.00,0.0007
1951.00,0.0008
1950.00,0.0009
1949.00,0.0010
1948.00,0.0010
1947.00,0.0011
1946.00,0.0011
1945.00,0.0012
1944.00,0.0013
1943.00,0.0014
1942.00,0.0015
1941.00,0.0016
1940.00,0.0017
1939.00,0.0017
1938.00,0.0017
1937.00,0.0016
1936.00,0.0016
1935.00,0.0015
1934.00,0.0015
1933.00,0.0015
1932.00,0.0015
1931.00,0.0015
1930.00,0.0015
1929.00,0.0015
1928.00,0.0015
1927.00,0.0016
1926.00,0.0016
1925.00,0.0016
1924.00,0.0017
1923.00,0.0017
1922.00,0.0017
1921.00,0.0018
1920.00,0.0018
1919.00,0.0018
1918.00,0.0019
1917.00,0.0019
1916.00,0.0019
1915.00,0.0019
1914.00,0.0019
1913.00,0.0018
1912.00,0.0018
1911.00,0.0018
1910.00,0.0018
1909.00,0.0019
1908.00,0.0019
1907.00,0.0019
1906.00,0.0020
1905.00,0.0021
1904.00,0.0021
1903.00,0.0022
1902.00,0.0022
1901.00,0.0022
1900.00,0.0022
1899.00,0.0023
1898.00,0.0023
1897.00,0.0023
1896.00,0.0024
1895.00,0.0024
1894.00,0.0025
1893.00,0.0026
1892.00,0.0026
1891.00,0.0026
1890.00,0.0026
1889.00,0.0027
1888.00,0.0027
1887.00,0.0027
1886.00,0.0028
1885.00,0.0028
1884.00,0.0029
1883.00,0.0029
1882.00,0.0029
1881.00,0.0029
1880.00,0.0030
1879.00,0.0030
1878.00,0.0030
1877.00,0.0030
1876.00,0.0030
1875.00,0.0030
1874.00,0.0030
1873.00,0.0030
1872.00,0.0030
1871.00,0.0030
1870.00,0.0030
1869.00,0.0030
1868.00,0.0030
1867.00,0.0030
1866.00,0.0030
1865.00,0.0031
1864.00,0.0031
1863.00,0.0030
1862.00,0.0030
1861.00,0.0030
1860.00,0.0030
1859.00,0.0030
1858.00,0.0029
1857.00,0.0029
1856.00,0.0029
1855.00,0.0030
1854.00,0.0030
1853.00,0.0029
1852.00,0.0029
1851.00,0.0029
1850.00,0.0029
1849.00,0.0028
1848.00,0.0028
1847.00,0.0028
1846.00,0.0028
1845.00,0.0028
1844.00,0.0028
1843.00,0.0027
1842.00,0.0027
1841.00,0.0027
1840.00,0.0027
1839.00,0.0027
1838.00,0.0027
1837.00,0.0027
1836.00,0.0027
1835.00,0.0027
1834.00,0.0026
1833.00,0.0026
1832.00,0.0027
1831.00,0.0027
1830.00,0.0028
1829.00,0.0027
1828.00,0.0027
1827.00,0.0027
1826.00,0.0026
1825.00,0.0026
1824.00,0.0026
1823.00,0.0026
1822.00,0.0027
1821.00,0.0027
1820.00,0.0027
1819.00,0.0027
1818.00,0.0027
1817.00,0.0027
1816.00,0.0028
1815.00,0.0028
1814.00,0.0028
1813.00,0.0029
1812.00,0.0029
1811.00,0.0030
1810.00,0.0030
1809.00,0.0030
1808.00,0.0031
1807.00,0.0031
1806.00,0.0031
1805.00,0.0031
1804.00,0.0032
1803.00,0.0032
1802.00,0.0032
1801.00,0.0033
1800.00,0.0033
1799.00,0.0033
1798.00,0.0034
1797.00,0.0034
1796.00,0.0034
1795.00,0.0035
1794.00,0.0035
1793.00,0.0035
1792.00,0.0035
1791.00,0.0035
1790.00,0.0035
1789.00,0.0035
1788.00,0.0035
1787.00,0.0035
1786.00,0.0036
1785.00,0.0036
1784.00,0.0037
1783.00,0.0037
1782.00,0.0037
1781.00,0.0037
1780.00,0.0038
1779.00,0.0038
1778.00,0.0038
1777.00,0.0038
1776.00,0.0038
1775.00,0.0038
1774.00,0.0038
1773.00,0.0038
1772.00,0.0038
1771.00,0.0038
1770.00,0.0037
1769.00,0.0038
1768.00,0.0038
1767.00,0.0038
1766.00,0.0038
1765.00,0.0038
1764.00,0.0039
1763.00,0.0039
1762.00,0.0039
1761.00,0.0039
1760.00,0.0038
1759.00,0.0038
1758.00,0.0038
1757.00,0.0038
1756.00,0.0038
1755.00,0.0038
1754.00,0.0037
1753.00,0.0038
1752.00,0.0038
1751.00,0.0038
1750.00,0.0038
1749.00,0.0038
1748.00,0.0038
1747.00,0.0038
1746.00,0.0039
1745.00,0.0039
1744.00,0.0039
1743.00,0.0039
1742.00,0.0040
1741.00,0.0040
1740.00,0.0041
1739.00,0.0041
1738.00,0.0041
1737.00,0.0041
1736.00,0.0042
1735.00,0.0042
1734.00,0.0043
1733.00,0.0043
1732.00,0.0043
1731.00,0.0043
1730.00,0.0044
1729.00,0.0044
1728.00,0.0045
1727.00,0.0045
1726.00,0.0046
1725.00,0.0046
1724.00,0.0047
1723.00,0.0047
1722.00,0.0047
1721.00,0.0048
1720.00,0.0048
1719.00,0.0049
1718.00,0.0049
1717.00,0.0049
1716.00,0.0049
1715.00,0.0049
1714.00,0.0050
1713.00,0.0050
1712.00,0.0051
1711.00,0.0051
1710.00,0.0052
1709.00,0.0052
1708.00,0.0053
1707.00,0.0054
1706.00,0.0054
1705.00,0.0055
1704.00,0.0055
1703.00,0.0055
1702.00,0.0056
1701.00,0.0057
1700.00,0.0058
1699.00,0.0060
1698.00,0.0061
1697.00,0.0062
1696.00,0.0063
1695.00,0.0064
1694.00,0.0065
1693.00,0.0066
1692.00,0.0067
1691.00,0.0068
1690.00,0.0070
1689.00,0.0071
1688.00,0.0072
1687.00,0.0073
1686.00,0.0075
1685.00,0.0076
1684.00,0.0077
1683.00,0.0078
1682.00,0.0079
1681.00,0.0079
1680.00,0.0080
1679.00,0.0081
1678.00,0.0082
1677.00,0.0083
1676.00,0.0084
1675.00,0.0084
1674.00,0.0085
1673.00,0.0086
1672.00,0.0087
1671.00,0.0088
1670.00,0.0088
1669.00,0.0089
1668.00,0.0090
1667.00,0.0091
1666.00,0.0091
1665.00,0.0092
1664.00,0.0093
1663.00,0.0094
1662.00,0.0094
1661.00,0.0095
1660.00,0.0096
1659.00,0.0096
1658.00,0.0097
1657.00,0.0097
1656.00,0.0098
1655.00,0.0099
1654.00,0.0101
1653.00,0.0103
1652.00,0.0104
1651.00,0.0104
1650.00,0.0104
1649.00,0.0105
1648.00,0.0105
1647.00,0.0106
1646.00,0.0106
1645.00,0.0106
1644.00,0.0107
1643.00,0.0107
1642.00,0.0108
1641.00,0.0108
1640.00,0.0109
1639.00,0.0109
1638.00,0.0110
1637.00,0.0111
1636.00,0.0111
1635.00,0.0112
1634.00,0.0112
1633.00,0.0112
1632.00,0.0112
1631.00,0.0112
1630.00,0.0112
1629.00,0.0113
1628.00,0.0112
1627.00,0.0112
1626.00,0.0112
1625.00,0.0111
1624.00,0.0111
1623.00,0.0110
1622.00,0.0110
1621.00,0.0109
1620.00,0.0108
1619.00,0.0108
1618.00,0.0107
1617.00,0.0106
1616.00,0.0105
1615.00,0.0104
1614.00,0.0103
1613.00,0.0102
1612.00,0.0101
1611.00,0.0100
1610.00,0.0099
1609.00,0.0097
1608.00,0.0095
1607.00,0.0094
1606.00,0.0093
1605.00,0.0092
1604.00,0.0090
1603.00,0.0089
1602.00,0.0088
1601.00,0.0087
1600.00,0.0086
1599.00,0.0085
1598.00,0.0085
1597.00,0.0084
1596.00,0.0083
1595.00,0.0082
1594.00,0.0081
1593.00,0.0080
1592.00,0.0080
1591.00,0.0079
1590.00,0.0078
1589.00,0.0077
1588.00,0.0077
1587.00,0.0076
1586.00,0.0076
1585.00,0.0075
1584.00,0.0074
1583.00,0.0074
1582.00,0.0074
1581.00,0.0074
1580.00,0.0073
1579.00,0.0073
1578.00,0.0073
1577.00,0.0072
1576.00,0.0071
1575.00,0.0071
1574.00,0.0070
1573.00,0.0070
1572.00,0.0069
1571.00,0.0068
1570.00,0.0068
1569.00,0.0067
1568.00,0.0066
1567.00,0.0066
1566.00,0.0065
1565.00,0.0065
1564.00,0.0064
1563.00,0.0064
1562.00,0.0063
1561.00,0.0063
1560.00,0.0061
1559.00,0.0059
1558.00,0.0060
1557.00,0.0061
1556.00,0.0062
1555.00,0.0063
1554.00,0.0063
1553.00,0.0063
1552.00,0.0063
1551.00,0.0064
1550.00,0.0064
1549.00,0.0065
1548.00,0.0065
1547.00,0.0066
1546.00,0.0067
1545.00,0.0067
1544.00,0.0067
1543.00,0.0067
1542.00,0.0067
1541.00,0.0067
1540.00,0.0067
1539.00,0.0067
1538.00,0.0068
1537.00,0.0068
1536.00,0.0068
1535.00,0.0068
1534.00,0.0068
1533.00,0.0068
1532.00,0.0068
1531.00,0.0068
1530.00,0.0068
1529.00,0.0068
1528.00,0.0068
1527.00,0.0068
1526.00,0.0068
1525.00,0.0068
1524.00,0.0068
1523.00,0.0068
1522.00,0.0068
1521.00,0.0068
1520.00,0.0068
1519.00,0.0068
1518.00,0.0068
1517.00,0.0068
1516.00,0.0069
1515.00,0.0069
1514.00,0.0069
1513.00,0.0070
1512.00,0.0070
1511.00,0.0071
1510.00,0.0071
1509.00,0.0071
1508.00,0.0072
1507.00,0.0072
1506.00,0.0072
1505.00,0.0073
1504.00,0.0073
1503.00,0.0073
1502.00,0.0073
1501.00,0.0074
1500.00,0.0074
1499.00,0.0075
1498.00,0.0075
1497.00,0.0076
1496.00,0.0076
1495.00,0.0076
1494.00,0.0077
1493.00,0.0078
1492.00,0.0079
1491.00,0.0080
1490.00,0.0081
1489.00,0.0082
1488.00,0.0083
1487.00,0.0084
1486.00,0.0085
1485.00,0.0086
1484.00,0.0086
1483.00,0.0087
1482.00,0.0088
1481.00,0.0088
1480.00,0.0089
1479.00,0.0089
1478.00,0.0090
1477.00,0.0090
1476.00,0.0090
1475.00,0.0090
1474.00,0.0090
1473.00,0.0090
1472.00,0.0090
1471.00,0.0090
1470.00,0.0091
1469.00,0.0091
1468.00,0.0091
1467.00,0.0092
1466.00,0.0093
1465.00,0.0093
1464.00,0.0093
1463.00,0.0094
1462.00,0.0096
1461.00,0.0097
1460.00,0.0099
1459.00,0.0102
1458.00,0.0104
1457.00,0.0107
1456.00,0.0111
1455.00,0.0114
1454.00,0.0117
1453.00,0.0121
1452.00,0.0124
1451.00,0.0128
1450.00,0.0132
1449.00,0.0136
1448.00,0.0139
1447.00,0.0141
1446.00,0.0143
1445.00,0.0143
1444.00,0.0143
1443.00,0.0142
1442.00,0.0140
1441.00,0.0138
1440.00,0.0137
1439.00,0.0135
1438.00,0.0134
1437.00,0.0133
1436.00,0.0132
1435.00,0.0131
1434.00,0.0131
1433.00,0.0132
1432.00,0.0133
1431.00,0.0134
1430.00,0.0136
1429.00,0.0138
1428.00,0.0141
1427.00,0.0145
1426.00,0.0149
1425.00,0.0154
1424.00,0.0160
1423.00,0.0167
1422.00,0.0174
1421.00,0.0182
1420.00,0.0192
1419.00,0.0204
1418.00,0.0216
1417.00,0.0226
1416.00,0.0235
1415.00,0.0241
1414.00,0.0245
1413.00,0.0247
1412.00,0.0246
1411.00,0.0244
1410.00,0.0240
1409.00,0.0235
1408.00,0.0231
1407.00,0.0226
1406.00,0.0222
1405.00,0.0219
1404.00,0.0216
1403.00,0.0214
1402.00,0.0213
1401.00,0.0211
1400.00,0.0209
1399.00,0.0204
1398.00,0.0199
1397.00,0.0192
1396.00,0.0185
1395.00,0.0175
1394.00,0.0166
1393.00,0.0158
1392.00,0.0151
1391.00,0.0144
1390.00,0.0139
1389.00,0.0134
1388.00,0.0130
1387.00,0.0126
1386.00,0.0122
1385.00,0.0120
1384.00,0.0117
1383.00,0.0115
1382.00,0.0113
1381.00,0.0111
1380.00,0.0110
1379.00,0.0109
1378.00,0.0108
1377.00,0.0107
1376.00,0.0106
1375.00,0.0106
1374.00,0.0105
1373.00,0.0104
1372.00,0.0104
1371.00,0.0103
1370.00,0.0103
1369.00,0.0103
1368.00,0.0102
1367.00,0.0101
1366.00,0.0101
1365.00,0.0101
1364.00,0.0100
1363.00,0.0100
1362.00,0.0100
1361.00,0.0099
1360.00,0.0099
1359.00,0.0099
1358.00,0.0099
1357.00,0.0099
1356.00,0.0099
1355.00,0.0099
1354.00,0.0099
1353.00,0.0099
1352.00,0.0099
1351.00,0.0099
1350.00,0.0100
1349.00,0.0100
1348.00,0.0100
1347.00,0.0100
1346.00,0.0100
1345.00,0.0100
1344.00,0.0100
1343.00,0.0101
1342.00,0.0101
1341.00,0.0101
1340.00,0.0101
1339.00,0.0102
1338.00,0.0102
1337.00,0.0103
1336.00,0.0103
1335.00,0.0102
1334.00,0.0102
1333.00,0.0102
1332.00,0.0102
1331.00,0.0102
1330.00,0.0103
1329.00,0.0104
1328.00,0.0104
1327.00,0.0105
1326.00,0.0106
1325.00,0.0107
1324.00,0.0108
1323.00,0.0109
1322.00,0.0110
1321.00,0.0111
1320.00,0.0112
1319.00,0.0113
1318.00,0.0114
1317.00,0.0115
1316.00,0.0117
1315.00,0.0118
1314.00,0.0120
1313.00,0.0121
1312.00,0.0123
1311.00,0.0124
1310.00,0.0126
1309.00,0.0128
1308.00,0.0130
1307.00,0.0132
1306.00,0.0134
1305.00,0.0136
1304.00,0.0138
1303.00,0.0140
1302.00,0.0142
1301.00,0.0145
1300.00,0.0147
1299.00,0.0150
1298.00,0.0153
1297.00,0.0156
1296.00,0.0159
1295.00,0.0162
1294.00,0.0166
1293.00,0.0169
1292.00,0.0173
1291.00,0.0178
1290.00,0.0183
1289.00,0.0188
1288.00,0.0194
1287.00,0.0200
1286.00,0.0206
1285.00,0.0213
1284.00,0.0221
1283.00,0.0230
1282.00,0.0240
1281.00,0.0251
1280.00,0.0264
1279.00,0.0278
1278.00,0.0296
1277.00,0.0316
1276.00,0.0340
1275.00,0.0368
1274.00,0.0402
1273.00,0.0445
1272.00,0.0499
1271.00,0.0569
1270.00,0.0658
1269.00,0.0772
1268.00,0.0917
1267.00,0.1097
1266.00,0.1313
1265.00,0.1563
1264.00,0.1839
1263.00,0.2126
1262.00,0.2402
1261.00,0.2642
1260.00,0.2816
1259.00,0.2896
1258.00,0.2865
1257.00,0.2727
1256.00,0.2506
1255.00,0.2236
1254.00,0.1959
1253.00,0.1708
1252.00,0.1499
1251.00,0.1337
1250.00,0.1217
1249.00,0.1130
1248.00,0.1068
1247.00,0.1022
1246.00,0.0989
1245.00,0.0966
1244.00,0.0951
1243.00,0.0942
1242.00,0.0939
1241.00,0.0939
1240.00,0.0942
1239.00,0.0947
1238.00,0.0953
1237.00,0.0961
1236.00,0.0970
1235.00,0.0979
1234.00,0.0989
1233.00,0.1000
1232.00,0.1010
1231.00,0.1021
1230.00,0.1032
1229.00,0.1043
1228.00,0.1054
1227.00,0.1066
1226.00,0.1077
1225.00,0.1088
1224.00,0.1100
1223.00,0.1111
1222.00,0.1122
1221.00,0.1133
1220.00,0.1143
1219.00,0.1154
1218.00,0.1164
1217.00,0.1174
1216.00,0.1184
1215.00,0.1194
1214.00,0.1203
1213.00,0.1213
1212.00,0.1222
1211.00,0.1232
1210.00,0.1241
1209.00,0.1251
1208.00,0.1260
1207.00,0.1269
1206.00,0.1277
1205.00,0.1286
1204.00,0.1295
1203.00,0.1304
1202.00,0.1312
1201.00,0.1320
1200.00,0.1329
1199.00,0.1337
1198.00,0.1346
1197.00,0.1354
1196.00,0.1363
1195.00,0.1372
1194.00,0.1380
1193.00,0.1389
1192.00,0.1397
1191.00,0.1406
1190.00,0.1415
1189.00,0.1424
1188.00,0.1433
1187.00,0.1441
1186.00,0.1450
1185.00,0.1459
1184.00,0.1468
1183.00,0.1477
1182.00,0.1485
1181.00,0.1494
1180.00,0.1503
1179.00,0.1512
1178.00,0.1521
1177.00,0.1530
1176.00,0.1540
1175.00,0.1549
1174.00,0.1558
1173.00,0.1568
1172.00,0.1577
1171.00,0.1586
1170.00,0.1595
1169.00,0.1604
1168.00,0.1612
1167.00,0.1621
1166.00,0.1629
1165.00,0.1637
1164.00,0.1646
1163.00,0.1655
1162.00,0.1664
1161.00,0.1672
1160.00,0.1681
1159.00,0.1690
1158.00,0.1698
1157.00,0.1706
1156.00,0.1715
1155.00,0.1724
1154.00,0.1733
1153.00,0.1742
1152.00,0.1751
1151.00,0.1761
1150.00,0.1771
1149.00,0.1780
1148.00,0.1791
1147.00,0.1801
1146.00,0.1812
1145.00,0.1823
1144.00,0.1835
1143.00,0.1847
1142.00,0.1859
1141.00,0.1871
1140.00,0.1885
1139.00,0.1898
1138.00,0.1912
1137.00,0.1927
1136.00,0.1943
1135.00,0.1959
1134.00,0.1975
1133.00,0.1993
1132.00,0.2012
1131.00,0.2031
1130.00,0.2051
1129.00,0.2073
1128.00,0.2096
1127.00,0.2120
1126.00,0.2146
1125.00,0.2173
1124.00,0.2202
1123.00,0.2232
1122.00,0.2264
1121.00,0.2300
1120.00,0.2339
1119.00,0.2381
1118.00,0.2426
1117.00,0.2475
1116.00,0.2528
1115.00,0.2586
1114.00,0.2649
1113.00,0.2716
1112.00,0.2789
1111.00,0.2866
1110.00,0.2947
1109.00,0.3035
1108.00,0.3128
1107.00,0.3226
1106.00,0.3329
1105.00,0.3437
1104.00,0.3550
1103.00,0.3665
1102.00,0.3784
1101.00,0.3906
1100.00,0.4033
1099.00,0.4162
1098.00,0.4291
1097.00,0.4421
1096.00,0.4552
1095.00,0.4682
1094.00,0.4810
1093.00,0.4938
1092.00,0.5065
1091.00,0.5188
1090.00,0.5306
1089.00,0.5421
1088.00,0.5534
1087.00,0.5641
1086.00,0.5742
1085.00,0.5838
1084.00,0.5932
1083.00,0.6020
1082.00,0.6102
1081.00,0.6181
1080.00,0.6258
1079.00,0.6329
1078.00,0.6391
1077.00,0.6449
1076.00,0.6507
1075.00,0.6559
1074.00,0.6605
1073.00,0.6649
1072.00,0.6692
1071.00,0.6729
1070.00,0.6761
1069.00,0.6793
1068.00,0.6823
1067.00,0.6849
1066.00,0.6871
1065.00,0.6891
1064.00,0.6912
1063.00,0.6927
1062.00,0.6938
1061.00,0.6950
1060.00,0.6963
1059.00,0.6973
1058.00,0.6978
1057.00,0.6983
1056.00,0.6987
1055.00,0.6988
1054.00,0.6985
1053.00,0.6982
1052.00,0.6981
1051.00,0.6978
1050.00,0.6972
1049.00,0.6970
1048.00,0.6970
1047.00,0.6968
1046.00,0.6963
1045.00,0.6960
1044.00,0.6960
1043.00,0.6961
1042.00,0.6961
1041.00,0.6966
1040.00,0.6977
1039.00,0.6988
1038.00,0.7000
1037.00,0.7017
1036.00,0.7041
1035.00,0.7068
1034.00,0.7097
1033.00,0.7134
1032.00,0.7178
1031.00,0.7226
1030.00,0.7278
1029.00,0.7341
1028.00,0.7415
1027.00,0.7496
1026.00,0.7585
1025.00,0.7688
1024.00,0.7806
1023.00,0.7937
1022.00,0.8079
1021.00,0.8239
1020.00,0.8420
1019.00,0.8617
1018.00,0.8828
1017.00,0.9058
1016.00,0.9304
1015.00,0.9556
1014.00,0.9805
1013.00,1.0048
1012.00,1.0275
1011.00,1.0464
1010.00,1.0597
1009.00,1.0673
1008.00,1.0685
1007.00,1.0621
1006.00,1.0482
1005.00,1.0283
1004.00,1.0032
1003.00,0.9730
1002.00,0.9387
1001.00,0.9022
1000.00,0.8645
999.00,0.8257
998.00,0.7867
997.00,0.7483
996.00,0.7111
995.00,0.6750
994.00,0.6404
993.00,0.6074
992.00,0.5762
991.00,0.5465
990.00,0.5184
989.00,0.4922
988.00,0.4677
987.00,0.4447
986.00,0.4232
985.00,0.4031
984.00,0.3845
983.00,0.3671
982.00,0.3510
981.00,0.3361
980.00,0.3224
979.00,0.3096
978.00,0.2977
977.00,0.2868
976.00,0.2768
975.00,0.2675
974.00,0.2588
973.00,0.2508
972.00,0.2434
971.00,0.2365
970.00,0.2301
969.00,0.2241
968.00,0.2185
967.00,0.2131
966.00,0.2080
965.00,0.2032
964.00,0.1985
963.00,0.1941
962.00,0.1899
961.00,0.1859
960.00,0.1820
959.00,0.1782
958.00,0.1745
957.00,0.1709
956.00,0.1675
955.00,0.1641
954.00,0.1608
953.00,0.1576
952.00,0.1545
951.00,0.1515
950.00,0.1486
949.00,0.1457
948.00,0.1429
947.00,0.1401
946.00,0.1374
945.00,0.1348
944.00,0.1322
943.00,0.1296
942.00,0.1271
941.00,0.1247
940.00,0.1223
939.00,0.1200
938.00,0.1178
937.00,0.1157
936.00,0.1136
935.00,0.1115
934.00,0.1095
933.00,0.1075
932.00,0.1055
931.00,0.1036
930.00,0.1018
929.00,0.1001
928.00,0.0984
927.00,0.0968
926.00,0.0952
925.00,0.0938
924.00,0.0924
923.00,0.0910
922.00,0.0897
921.00,0.0885
920.00,0.0874
919.00,0.0863
918.00,0.0855
917.00,0.0847
916.00,0.0839
915.00,0.0831
914.00,0.0825
913.00,0.0819
912.00,0.0814
911.00,0.0809
910.00,0.0805
909.00,0.0801
908.00,0.0798
907.00,0.0794
906.00,0.0792
905.00,0.0790
904.00,0.0788
903.00,0.0788
902.00,0.0788
901.00,0.0788
900.00,0.0790
899.00,0.0792
898.00,0.0796
897.00,0.0800
896.00,0.0805
895.00,0.0812
894.00,0.0820
893.00,0.0829
892.00,0.0839
891.00,0.0851
890.00,0.0865
889.00,0.0881
888.00,0.0900
887.00,0.0922
886.00,0.0948
885.00,0.0977
884.00,0.1009
883.00,0.1043
882.00,0.1080
881.00,0.1120
880.00,0.1160
879.00,0.1200
878.00,0.1240
877.00,0.1277
876.00,0.1311
875.00,0.1342
874.00,0.1369
873.00,0.1394
872.00,0.1414
871.00,0.1431
870.00,0.1447
869.00,0.1461
868.00,0.1474
867.00,0.1485
866.00,0.1494
865.00,0.1500
864.00,0.1500
863.00,0.1495
862.00,0.1483
861.00,0.1465
860.00,0.1440
859.00,0.1410
858.00,0.1376
857.00,0.1340
856.00,0.1304
855.00,0.1269
854.00,0.1237
853.00,0.1209
852.00,0.1184
851.00,0.1164
850.00,0.1147
849.00,0.1134
848.00,0.1124
847.00,0.1118
846.00,0.1114
845.00,0.1114
844.00,0.1116
843.00,0.1122
842.00,0.1131
841.00,0.1143
840.00,0.1159
839.00,0.1177
838.00,0.1199
837.00,0.1225
836.00,0.1256
835.00,0.1290
834.00,0.1331
833.00,0.1377
832.00,0.1430
831.00,0.1492
830.00,0.1565
829.00,0.1650
828.00,0.1750
827.00,0.1864
826.00,0.1995
825.00,0.2141
824.00,0.2299
823.00,0.2464
822.00,0.2631
821.00,0.2794
820.00,0.2950
819.00,0.3094
818.00,0.3228
817.00,0.3353
816.00,0.3470
815.00,0.3585
814.00,0.3702
813.00,0.3826
812.00,0.3958
811.00,0.4103
810.00,0.4265
809.00,0.4446
808.00,0.4646
807.00,0.4867
806.00,0.5109
805.00,0.5372
804.00,0.5657
803.00,0.5963
802.00,0.6288
801.00,0.6630
800.00,0.6986
799.00,0.7353
798.00,0.7727
797.00,0.8108
796.00,0.8488
795.00,0.8866
794.00,0.9239
793.00,0.9608
792.00,0.9960
791.00,1.0282
790.00,1.0557
789.00,1.0770
788.00,1.0900
787.00,1.0932
786.00,1.0859
785.00,1.0684
784.00,1.0417
783.00,1.0074
782.00,0.9678
781.00,0.9247
780.00,0.8791
779.00,0.8322
778.00,0.7852
777.00,0.7388
776.00,0.6936
775.00,0.6503
774.00,0.6095
773.00,0.5716
772.00,0.5364
771.00,0.5040
770.00,0.4744
769.00,0.4474
768.00,0.4228
767.00,0.4005
766.00,0.3804
765.00,0.3621
764.00,0.3455
763.00,0.3304
762.00,0.3166
761.00,0.3041
760.00,0.2924
759.00,0.2817
758.00,0.2719
757.00,0.2629
756.00,0.2545
755.00,0.2467
754.00,0.2395
753.00,0.2327
752.00,0.2264
751.00,0.2205
750.00,0.2151
749.00,0.2101
748.00,0.2054
747.00,0.2010
746.00,0.1970
745.00,0.1932
744.00,0.1896
743.00,0.1860
742.00,0.1826
741.00,0.1792
740.00,0.1758
739.00,0.1723
738.00,0.1690
737.00,0.1656
736.00,0.1623
735.00,0.1591
734.00,0.1561
733.00,0.1532
732.00,0.1505
731.00,0.1479
730.00,0.1456
729.00,0.1434
728.00,0.1414
727.00,0.1395
726.00,0.1378
725.00,0.1362
724.00,0.1347
723.00,0.1334
722.00,0.1324
721.00,0.1316
720.00,0.1310
719.00,0.1307
718.00,0.1309
717.00,0.1316
716.00,0.1329
715.00,0.1348
714.00,0.1377
713.00,0.1414
712.00,0.1459
711.00,0.1511
710.00,0.1568
709.00,0.1627
708.00,0.1684
707.00,0.1735
706.00,0.1780
705.00,0.1815
704.00,0.1841
703.00,0.1857
702.00,0.1866
701.00,0.1868
700.00,0.1865
699.00,0.1858
698.00,0.1849
697.00,0.1838
696.00,0.1826
695.00,0.1816
694.00,0.1808
693.00,0.1803
692.00,0.1799
691.00,0.1799
690.00,0.1802
689.00,0.1808
688.00,0.1815
687.00,0.1820
686.00,0.1822
685.00,0.1817
684.00,0.1804
683.00,0.1787
682.00,0.1766
681.00,0.1744
680.00,0.1720
679.00,0.1697
678.00,0.1676
677.00,0.1657
676.00,0.1641
675.00,0.1627
674.00,0.1615
673.00,0.1606
672.00,0.1597
671.00,0.1589
670.00,0.1584
669.00,0.1585
668.00,0.1594
667.00,0.1609
666.00,0.1624
665.00,0.1640
664.00,0.1660
663.00,0.1686
662.00,0.1713
661.00,0.1727
660.00,0.1712
659.00,0.1658
658.00,0.1571
657.00,0.1465
656.00,0.1359
655.00,0.1270
654.00,0.1201
653.00,0.1150
652.00,0.1110
651.00,0.1080
650.00,0.1059
649.00,0.1042
648.00,0.1027
647.00,0.1015
646.00,0.1006
645.00,0.0999
644.00,0.0991
643.00,0.0986
642.00,0.0984
641.00,0.0982
640.00,0.0979
639.00,0.0978
638.00,0.0978
637.00,0.0980
636.00,0.0979
635.00,0.0980
634.00,0.0982
633.00,0.0983
632.00,0.0984
631.00,0.0986
630.00,0.0989
629.00,0.0990
628.00,0.0989
627.00,0.0989
626.00,0.0991
625.00,0.0993
624.00,0.0994
623.00,0.0995
622.00,0.0997
621.00,0.0998
620.00,0.0998
619.00,0.0998
618.00,0.1000
617.00,0.1002
616.00,0.1003
615.00,0.1005
614.00,0.1007
613.00,0.1009
612.00,0.1010
611.00,0.1013
610.00,0.1017
609.00,0.1021
608.00,0.1022
607.00,0.1024
606.00,0.1028
605.00,0.1032
604.00,0.1035
603.00,0.1038
602.00,0.1042
601.00,0.1047
600.00,0.1051
599.00,0.1056
598.00,0.1061
597.00,0.1067
596.00,0.1072
595.00,0.1077
594.00,0.1084
593.00,0.1091
592.00,0.1097
591.00,0.1103
590.00,0.1111
589.00,0.1119
588.00,0.1125
587.00,0.1132
586.00,0.1140
585.00,0.1149
584.00,0.1155
583.00,0.1161
582.00,0.1169
581.00,0.1176
580.00,0.1183
579.00,0.1190
578.00,0.1200
577.00,0.1209
576.00,0.1217
575.00,0.1224
574.00,0.1232
573.00,0.1240
572.00,0.1246
571.00,0.1252
570.00,0.1259
569.00,0.1267
568.00,0.1273
567.00,0.1279
566.00,0.1289
565.00,0.1298
564.00,0.1305
563.00,0.1312
562.00,0.1319
561.00,0.1327
560.00,0.1333
559.00,0.1339
558.00,0.1346
557.00,0.1353
556.00,0.1357
555.00,0.1362
554.00,0.1368
553.00,0.1373
552.00,0.1375
551.00,0.1378
550.00,0.1381
549.00,0.1384
548.00,0.1385
547.00,0.1386
546.00,0.1390
545.00,0.1394
544.00,0.1395
543.00,0.1396
542.00,0.1399
541.00,0.1402
540.00,0.1402
539.00,0.1403
538.00,0.1406
537.00,0.1409
536.00,0.1408
535.00,0.1408
534.00,0.1408
533.00,0.1408
532.00,0.1405
531.00,0.1404
530.00,0.1405
529.00,0.1408
528.00,0.1410
527.00,0.1412
526.00,0.1417
525.00,0.1422
524.00,0.1424
523.00,0.1425
522.00,0.1429
521.00,0.1434
520.00,0.1439
519.00,0.1445
518.00,0.1455
517.00,0.1467
516.00,0.1478
515.00,0.1490
514.00,0.1506
513.00,0.1522
512.00,0.1538
511.00,0.1556
510.00,0.1578
509.00,0.1601
508.00,0.1623
507.00,0.1646
506.00,0.1673
505.00,0.1703
504.00,0.1734
503.00,0.1769
502.00,0.1811
501.00,0.1855
500.00,0.1898
499.00,0.1943
498.00,0.1994
497.00,0.2053
496.00,0.2114
495.00,0.2180
494.00,0.2253
493.00,0.2332
492.00,0.2414
491.00,0.2503
490.00,0.2598
489.00,0.2699
488.00,0.2802
487.00,0.2909
486.00,0.3021
485.00,0.3138
484.00,0.3259
483.00,0.3384
482.00,0.3515
481.00,0.3647
480.00,0.3778
479.00,0.3908
478.00,0.4040
477.00,0.4173
476.00,0.4303
475.00,0.4427
474.00,0.4551
473.00,0.4681
472.00,0.4815
471.00,0.4942
470.00,0.5057
469.00,0.5163
468.00,0.5264
467.00,0.5358
466.00,0.5441
465.00,0.5517
464.00,0.5587
463.00,0.5647
462.00,0.5694
461.00,0.5728
460.00,0.5753
459.00,0.5770
458.00,0.5784
457.00,0.5796
456.00,0.5801
455.00,0.5791
454.00,0.5769
453.00,0.5742
452.00,0.5711
451.00,0.5673
450.00,0.5626
449.00,0.5576
448.00,0.5519
447.00,0.5449
446.00,0.5370
445.00,0.5289
444.00,0.5211
443.00,0.5132
442.00,0.5051
441.00,0.4969
440.00,0.4885
439.00,0.4798
438.00,0.4708
437.00,0.4615
436.00,0.4517
435.00,0.4415
434.00,0.4316
433.00,0.4221
432.00,0.4123
431.00,0.4023
430.00,0.3927
429.00,0.3840
428.00,0.3757
427.00,0.3674
426.00,0.3592
425.00,0.3511
424.00,0.3432
423.00,0.3363
422.00,0.3308
421.00,0.3256
420.00,0.3202
419.00,0.3160
418.00,0.3148
417.00,0.3162
416.00,0.3190
415.00,0.3233
414.00,0.3297
413.00,0.3375
412.00,0.3459
411.00,0.3555
410.00,0.3668
409.00,0.3792
408.00,0.3920
407.00,0.4050
406.00,0.4177
405.00,0.4292
404.00,0.4400
403.00,0.4512
402.00,0.4626
401.00,0.4730
400.00,0.4826
