Created as New Dataset,Sample 067 By YargerLab Date Wednesday, August 13 2025
cm-1,A
4000.00,0.0017
3999.00,0.0017
3998.00,0.0017
3997.00,0.0017
3996.00,0.0017
3995.00,0.0017
3994.00,0.0018
3993.00,0.0018
3992.00,0.0018
3991.00,0.0018
3990.00,0.0018
3989.00,0.0018
3988.00,0.0017
3987.00,0.0017
3986.00,0.0017
3985.00,0.0017
3984.00,0.0017
3983.00,0.0018
3982.00,0.0018
3981.00,0.0018
3980.00,0.0018
3979.00,0.0018
3978.00,0.0018
3977.00,0.0017
3976.00,0.0017
3975.00,0.0018
3974.00,0.0018
3973.00,0.0018
3972.00,0.0018
3971.00,0.0018
3970.00,0.0018
3969.00,0.0018
3968.00,0.0018
3967.00,0.0018
3966.00,0.0018
3965.00,0.0018
3964.00,0.0018
3963.00,0.0018
3962.00,0.0018
3961.00,0.0018
3960.00,0.0017
3959.00,0.0017
3958.00,0.0017
3957.00,0.0017
3956.00,0.0017
3955.00,0.0017
3954.00,0.0017
3953.00,0.0018
3952.00,0.0018
3951.00,0.0018
3950.00,0.0018
3949.00,0.0018
3948.00,0.0018
3947.00,0.0018
3946.00,0.0018
3945.00,0.0018
3944.00,0.0018
3943.00,0.0018
3942.00,0.0018
3941.00,0.0018
3940.00,0.0018
3939.00,0.0018
3938.00,0.0018
3937.00,0.0018
3936.00,0.0018
3935.00,0.0018
3934.00,0.0018
3933.00,0.0018
3932.00,0.0018
3931.00,0.0018
3930.00,0.0018
3929.00,0.0018
3928.00,0.0018
3927.00,0.0018
3926.00,0.0018
3925.00,0.0018
3924.00,0.0018
3923.00,0.0018
3922.00,0.0018
3921.00,0.0018
3920.00,0.0018
3919.00,0.0018
3918.00,0.0018
3917.00,0.0018
3916.00,0.0018
3915.00,0.0018
3914.00,0.0018
3913.00,0.0018
3912.00,0.0018
3911.00,0.0018
3910.00,0.0018
3909.00,0.0018
3908.00,0.0019
3907.00,0.0019
3906.00,0.0019
3905.00,0.0020
3904.00,0.0020
3903.00,0.0020
3902.00,0.0019
3901.00,0.0019
3900.00,0.0019
3899.00,0.0018
3898.00,0.0018
3897.00,0.0018
3896.00,0.0018
3895.00,0.0018
3894.00,0.0019
3893.00,0.0019
3892.00,0.0019
3891.00,0.0019
3890.00,0.0019
3889.00,0.0019
3888.00,0.0019
3887.00,0.0019
3886.00,0.0019
3885.00,0.0019
3884.00,0.0019
3883.00,0.0019
3882.00,0.0019
3881.00,0.0019
3880.00,0.0019
3879.00,0.0019
3878.00,0.0019
3877.00,0.0019
3876.00,0.0019
3875.00,0.0019
3874.00,0.0019
3873.00,0.0019
3872.00,0.0019
3871.00,0.0020
3870.00,0.0019
3869.00,0.0019
3868.00,0.0019
3867.00,0.0019
3866.00,0.0019
3865.00,0.0019
3864.00,0.0019
3863.00,0.0019
3862.00,0.0019
3861.00,0.0019
3860.00,0.0019
3859.00,0.0019
3858.00,0.0019
3857.00,0.0020
3856.00,0.0021
3855.00,0.0021
3854.00,0.0021
3853.00,0.0021
3852.00,0.0021
3851.00,0.0021
3850.00,0.0021
3849.00,0.0020
3848.00,0.0020
3847.00,0.0019
3846.00,0.0019
3845.00,0.0019
3844.00,0.0019
3843.00,0.0019
3842.00,0.0019
3841.00,0.0019
3840.00,0.0020
3839.00,0.0020
3838.00,0.0020
3837.00,0.0020
3836.00,0.0020
3835.00,0.0021
3834.00,0.0020
3833.00,0.0020
3832.00,0.0019
3831.00,0.0019
3830.00,0.0019
3829.00,0.0019
3828.00,0.0019
3827.00,0.0019
3826.00,0.0019
3825.00,0.0019
3824.00,0.0019
3823.00,0.0020
3822.00,0.0020
3821.00,0.0020
3820.00,0.0020
3819.00,0.0020
3818.00,0.0020
3817.00,0.0020
3816.00,0.0020
3815.00,0.0019
3814.00,0.0019
3813.00,0.0019
3812.00,0.0019
3811.00,0.0019
3810.00,0.0019
3809.00,0.0019
3808.00,0.0019
3807.00,0.0019
3806.00,0.0019
3805.00,0.0020
3804.00,0.0020
3803.00,0.0021
3802.00,0.0021
3801.00,0.0020
3800.00,0.0020
3799.00,0.0020
3798.00,0.0020
3797.00,0.0020
3796.00,0.0019
3795.00,0.0019
3794.00,0.0019
3793.00,0.0019
3792.00,0.0019
3791.00,0.0018
3790.00,0.0018
3789.00,0.0018
3788.00,0.0018
3787.00,0.0018
3786.00,0.0018
3785.00,0.0018
3784.00,0.0018
3783.00,0.0018
3782.00,0.0019
3781.00,0.0019
3780.00,0.0019
3779.00,0.0019
3778.00,0.0019
3777.00,0.0019
3776.00,0.0019
3775.00,0.0018
3774.00,0.0018
3773.00,0.0018
3772.00,0.0019
3771.00,0.0019
3770.00,0.0019
3769.00,0.0019
3768.00,0.0019
3767.00,0.0019
3766.00,0.0020
3765.00,0.0019
3764.00,0.0019
3763.00,0.0019
3762.00,0.0019
3761.00,0.0020
3760.00,0.0020
3759.00,0.0020
3758.00,0.0020
3757.00,0.0020
3756.00,0.0020
3755.00,0.0021
3754.00,0.0021
3753.00,0.0022
3752.00,0.0022
3751.00,0.0022
3750.00,0.0022
3749.00,0.0023
3748.00,0.0023
3747.00,0.0023
3746.00,0.0023
3745.00,0.0022
3744.00,0.0021
3743.00,0.0021
3742.00,0.0020
3741.00,0.0020
3740.00,0.0020
3739.00,0.0020
3738.00,0.0020
3737.00,0.0020
3736.00,0.0020
3735.00,0.0020
3734.00,0.0020
3733.00,0.0020
3732.00,0.0020
3731.00,0.0019
3730.00,0.0019
3729.00,0.0019
3728.00,0.0019
3727.00,0.0019
3726.00,0.0018
3725.00,0.0018
3724.00,0.0018
3723.00,0.0018
3722.00,0.0018
3721.00,0.0018
3720.00,0.0018
3719.00,0.0018
3718.00,0.0018
3717.00,0.0018
3716.00,0.0018
3715.00,0.0019
3714.00,0.0019
3713.00,0.0020
3712.00,0.0020
3711.00,0.0020
3710.00,0.0019
3709.00,0.0019
3708.00,0.0018
3707.00,0.0018
3706.00,0.0018
3705.00,0.0018
3704.00,0.0018
3703.00,0.0018
3702.00,0.0018
3701.00,0.0018
3700.00,0.0018
3699.00,0.0018
3698.00,0.0018
3697.00,0.0018
3696.00,0.0018
3695.00,0.0018
3694.00,0.0019
3693.00,0.0019
3692.00,0.0020
3691.00,0.0020
3690.00,0.0020
3689.00,0.0020
3688.00,0.0021
3687.00,0.0021
3686.00,0.0021
3685.00,0.0021
3684.00,0.0021
3683.00,0.0021
3682.00,0.0021
3681.00,0.0021
3680.00,0.0021
3679.00,0.0022
3678.00,0.0022
3677.00,0.0023
3676.00,0.0023
3675.00,0.0023
3674.00,0.0023
3673.00,0.0024
3672.00,0.0024
3671.00,0.0024
3670.00,0.0024
3669.00,0.0024
3668.00,0.0024
3667.00,0.0024
3666.00,0.0024
3665.00,0.0023
3664.00,0.0023
3663.00,0.0023
3662.00,0.0023
3661.00,0.0023
3660.00,0.0023
3659.00,0.0024
3658.00,0.0024
3657.00,0.0025
3656.00,0.0025
3655.00,0.0025
3654.00,0.0025
3653.00,0.0026
3652.00,0.0026
3651.00,0.0027
3650.00,0.0028
3649.00,0.0028
3648.00,0.0028
3647.00,0.0028
3646.00,0.0028
3645.00,0.0028
3644.00,0.0028
3643.00,0.0028
3642.00,0.0028
3641.00,0.0028
3640.00,0.0028
3639.00,0.0028
3638.00,0.0028
3637.00,0.0028
3636.00,0.0028
3635.00,0.0029
3634.00,0.0029
3633.00,0.0030
3632.00,0.0030
3631.00,0.0031
3630.00,0.0031
3629.00,0.0032
3628.00,0.0033
3627.00,0.0033
3626.00,0.0033
3625.00,0.0033
3624.00,0.0033
3623.00,0.0033
3622.00,0.0033
3621.00,0.0033
3620.00,0.0034
3619.00,0.0035
3618.00,0.0036
3617.00,0.0036
3616.00,0.0037
3615.00,0.0037
3614.00,0.0037
3613.00,0.0038
3612.00,0.0038
3611.00,0.0038
3610.00,0.0038
3609.00,0.0039
3608.00,0.0039
3607.00,0.0039
3606.00,0.0039
3605.00,0.0040
3604.00,0.0040
3603.00,0.0040
3602.00,0.0040
3601.00,0.0041
3600.00,0.0041
3599.00,0.0041
3598.00,0.0041
3597.00,0.0042
3596.00,0.0042
3595.00,0.0043
3594.00,0.0043
3593.00,0.0044
3592.00,0.0044
3591.00,0.0044
3590.00,0.0045
3589.00,0.0046
3588.00,0.0047
3587.00,0.0048
3586.00,0.0048
3585.00,0.0048
3584.00,0.0048
3583.00,0.0048
3582.00,0.0049
3581.00,0.0049
3580.00,0.0050
3579.00,0.0050
3578.00,0.0051
3577.00,0.0051
3576.00,0.0052
3575.00,0.0052
3574.00,0.0053
3573.00,0.0053
3572.00,0.0053
3571.00,0.0054
3570.00,0.0054
3569.00,0.0055
3568.00,0.0057
3567.00,0.0058
3566.00,0.0059
3565.00,0.0060
3564.00,0.0060
3563.00,0.0060
3562.00,0.0060
3561.00,0.0061
3560.00,0.0061
3559.00,0.0062
3558.00,0.0062
3557.00,0.0062
3556.00,0.0063
3555.00,0.0063
3554.00,0.0064
3553.00,0.0064
3552.00,0.0065
3551.00,0.0065
3550.00,0.0065
3549.00,0.0066
3548.00,0.0067
3547.00,0.0067
3546.00,0.0068
3545.00,0.0069
3544.00,0.0069
3543.00,0.0070
3542.00,0.0070
3541.00,0.0070
3540.00,0.0070
3539.00,0.0070
3538.00,0.0070
3537.00,0.0070
3536.00,0.0071
3535.00,0.0072
3534.00,0.0072
3533.00,0.0072
3532.00,0.0073
3531.00,0.0073
3530.00,0.0073
3529.00,0.0074
3528.00,0.0075
3527.00,0.0075
3526.00,0.0076
3525.00,0.0077
3524.00,0.0077
3523.00,0.0077
3522.00,0.0078
3521.00,0.0078
3520.00,0.0078
3519.00,0.0078
3518.00,0.0078
3517.00,0.0078
3516.00,0.0078
3515.00,0.0078
3514.00,0.0078
3513.00,0.0079
3512.00,0.0079
3511.00,0.0080
3510.00,0.0080
3509.00,0.0081
3508.00,0.0081
3507.00,0.0081
3506.00,0.0081
3505.00,0.0082
3504.00,0.0082
3503.00,0.0083
3502.00,0.0083
3501.00,0.0084
3500.00,0.0084
3499.00,0.0084
3498.00,0.0084
3497.00,0.0084
3496.00,0.0085
3495.00,0.0085
3494.00,0.0085
3493.00,0.0086
3492.00,0.0086
3491.00,0.0085
3490.00,0.0085
3489.00,0.0085
3488.00,0.0086
3487.00,0.0086
3486.00,0.0087
3485.00,0.0087
3484.00,0.0087
3483.00,0.0088
3482.00,0.0088
3481.00,0.0088
3480.00,0.0088
3479.00,0.0089
3478.00,0.0089
3477.00,0.0089
3476.00,0.0089
3475.00,0.0090
3474.00,0.0090
3473.00,0.0090
3472.00,0.0091
3471.00,0.0091
3470.00,0.0091
3469.00,0.0091
3468.00,0.0091
3467.00,0.0091
3466.00,0.0091
3465.00,0.0092
3464.00,0.0092
3463.00,0.0092
3462.00,0.0092
3461.00,0.0092
3460.00,0.0092
3459.00,0.0092
3458.00,0.0092
3457.00,0.0092
3456.00,0.0093
3455.00,0.0093
3454.00,0.0093
3453.00,0.0093
3452.00,0.0094
3451.00,0.0094
3450.00,0.0094
3449.00,0.0094
3448.00,0.0094
3447.00,0.0095
3446.00,0.0095
3445.00,0.0095
3444.00,0.0095
3443.00,0.0095
3442.00,0.0095
3441.00,0.0096
3440.00,0.0096
3439.00,0.0096
3438.00,0.0096
3437.00,0.0096
3436.00,0.0096
3435.00,0.0096
3434.00,0.0096
3433.00,0.0096
3432.00,0.0096
3431.00,0.0096
3430.00,0.0096
3429.00,0.0097
3428.00,0.0097
3427.00,0.0097
3426.00,0.0097
3425.00,0.0097
3424.00,0.0097
3423.00,0.0097
3422.00,0.0097
3421.00,0.0097
3420.00,0.0097
3419.00,0.0097
3418.00,0.0097
3417.00,0.0097
3416.00,0.0097
3415.00,0.0097
3414.00,0.0097
3413.00,0.0097
3412.00,0.0097
3411.00,0.0097
3410.00,0.0097
3409.00,0.0097
3408.00,0.0097
3407.00,0.0097
3406.00,0.0097
3405.00,0.0097
3404.00,0.0098
3403.00,0.0098
3402.00,0.0098
3401.00,0.0098
3400.00,0.0098
3399.00,0.0098
3398.00,0.0098
3397.00,0.0098
3396.00,0.0098
3395.00,0.0098
3394.00,0.0098
3393.00,0.0098
3392.00,0.0098
3391.00,0.0098
3390.00,0.0098
3389.00,0.0098
3388.00,0.0098
3387.00,0.0098
3386.00,0.0098
3385.00,0.0098
3384.00,0.0098
3383.00,0.0098
3382.00,0.0098
3381.00,0.0098
3380.00,0.0098
3379.00,0.0098
3378.00,0.0098
3377.00,0.0099
3376.00,0.0099
3375.00,0.0099
3374.00,0.0099
3373.00,0.0098
3372.00,0.0098
3371.00,0.0098
3370.00,0.0097
3369.00,0.0097
3368.00,0.0097
3367.00,0.0098
3366.00,0.0098
3365.00,0.0098
3364.00,0.0098
3363.00,0.0098
3362.00,0.0098
3361.00,0.0099
3360.00,0.0099
3359.00,0.0099
3358.00,0.0099
3357.00,0.0099
3356.00,0.0099
3355.00,0.0099
3354.00,0.0099
3353.00,0.0098
3352.00,0.0098
3351.00,0.0097
3350.00,0.0098
3349.00,0.0098
3348.00,0.0099
3347.00,0.0099
3346.00,0.0099
3345.00,0.0099
3344.00,0.0098
3343.00,0.0098
3342.00,0.0098
3341.00,0.0098
3340.00,0.0098
3339.00,0.0098
3338.00,0.0098
3337.00,0.0098
3336.00,0.0099
3335.00,0.0099
3334.00,0.0100
3333.00,0.0100
3332.00,0.0100
3331.00,0.0100
3330.00,0.0100
3329.00,0.0100
3328.00,0.0099
3327.00,0.0099
3326.00,0.0099
3325.00,0.0100
3324.00,0.0101
3323.00,0.0101
3322.00,0.0101
3321.00,0.0102
3320.00,0.0102
3319.00,0.0102
3318.00,0.0102
3317.00,0.0102
3316.00,0.0102
3315.00,0.0102
3314.00,0.0102
3313.00,0.0101
3312.00,0.0101
3311.00,0.0101
3310.00,0.0100
3309.00,0.0099
3308.00,0.0099
3307.00,0.0099
3306.00,0.0099
3305.00,0.0100
3304.00,0.0101
3303.00,0.0102
3302.00,0.0103
3301.00,0.0103
3300.00,0.0103
3299.00,0.0103
3298.00,0.0103
3297.00,0.0102
3296.00,0.0102
3295.00,0.0102
3294.00,0.0102
3293.00,0.0102
3292.00,0.0102
3291.00,0.0103
3290.00,0.0104
3289.00,0.0104
3288.00,0.0105
3287.00,0.0105
3286.00,0.0105
3285.00,0.0105
3284.00,0.0105
3283.00,0.0105
3282.00,0.0105
3281.00,0.0105
3280.00,0.0105
3279.00,0.0105
3278.00,0.0105
3277.00,0.0105
3276.00,0.0105
3275.00,0.0104
3274.00,0.0104
3273.00,0.0104
3272.00,0.0104
3271.00,0.0104
3270.00,0.0104
3269.00,0.0104
3268.00,0.0104
3267.00,0.0105
3266.00,0.0105
3265.00,0.0105
3264.00,0.0105
3263.00,0.0105
3262.00,0.0105
3261.00,0.0105
3260.00,0.0105
3259.00,0.0105
3258.00,0.0105
3257.00,0.0104
3256.00,0.0104
3255.00,0.0105
3254.00,0.0105
3253.00,0.0105
3252.00,0.0105
3251.00,0.0105
3250.00,0.0105
3249.00,0.0104
3248.00,0.0104
3247.00,0.0105
3246.00,0.0105
3245.00,0.0105
3244.00,0.0105
3243.00,0.0105
3242.00,0.0105
3241.00,0.0105
3240.00,0.0105
3239.00,0.0105
3238.00,0.0105
3237.00,0.0104
3236.00,0.0104
3235.00,0.0103
3234.00,0.0103
3233.00,0.0104
3232.00,0.0104
3231.00,0.0104
3230.00,0.0104
3229.00,0.0104
3228.00,0.0104
3227.00,0.0104
3226.00,0.0104
3225.00,0.0104
3224.00,0.0104
3223.00,0.0104
3222.00,0.0103
3221.00,0.0103
3220.00,0.0103
3219.00,0.0103
3218.00,0.0103
3217.00,0.0103
3216.00,0.0103
3215.00,0.0102
3214.00,0.0102
3213.00,0.0102
3212.00,0.0102
3211.00,0.0102
3210.00,0.0102
3209.00,0.0102
3208.00,0.0102
3207.00,0.0102
3206.00,0.0101
3205.00,0.0101
3204.00,0.0101
3203.00,0.0101
3202.00,0.0100
3201.00,0.0100
3200.00,0.0100
3199.00,0.0100
3198.00,0.0100
3197.00,0.0100
3196.00,0.0100
3195.00,0.0100
3194.00,0.0100
3193.00,0.0100
3192.00,0.0099
3191.00,0.0099
3190.00,0.0099
3189.00,0.0099
3188.00,0.0099
3187.00,0.0099
3186.00,0.0099
3185.00,0.0099
3184.00,0.0099
3183.00,0.0099
3182.00,0.0099
3181.00,0.0099
3180.00,0.0098
3179.00,0.0098
3178.00,0.0098
3177.00,0.0098
3176.00,0.0098
3175.00,0.0098
3174.00,0.0098
3173.00,0.0098
3172.00,0.0098
3171.00,0.0098
3170.00,0.0098
3169.00,0.0097
3168.00,0.0097
3167.00,0.0097
3166.00,0.0097
3165.00,0.0096
3164.00,0.0096
3163.00,0.0096
3162.00,0.0096
3161.00,0.0095
3160.00,0.0095
3159.00,0.0095
3158.00,0.0095
3157.00,0.0095
3156.00,0.0095
3155.00,0.0095
3154.00,0.0095
3153.00,0.0094
3152.00,0.0094
3151.00,0.0094
3150.00,0.0094
3149.00,0.0094
3148.00,0.0093
3147.00,0.0093
3146.00,0.0093
3145.00,0.0093
3144.00,0.0093
3143.00,0.0093
3142.00,0.0093
3141.00,0.0092
3140.00,0.0092
3139.00,0.0092
3138.00,0.0092
3137.00,0.0092
3136.00,0.0091
3135.00,0.0091
3134.00,0.0091
3133.00,0.0091
3132.00,0.0091
3131.00,0.0091
3130.00,0.0091
3129.00,0.0091
3128.00,0.0091
3127.00,0.0091
3126.00,0.0091
3125.00,0.0091
3124.00,0.0091
3123.00,0.0091
3122.00,0.0090
3121.00,0.0090
3120.00,0.0090
3119.00,0.0090
3118.00,0.0090
3117.00,0.0090
3116.00,0.0090
3115.00,0.0089
3114.00,0.0089
3113.00,0.0089
3112.00,0.0088
3111.00,0.0088
3110.00,0.0088
3109.00,0.0088
3108.00,0.0088
3107.00,0.0088
3106.00,0.0087
3105.00,0.0087
3104.00,0.0087
3103.00,0.0086
3102.00,0.0086
3101.00,0.0086
3100.00,0.0086
3099.00,0.0086
3098.00,0.0086
3097.00,0.0086
3096.00,0.0086
3095.00,0.0086
3094.00,0.0086
3093.00,0.0086
3092.00,0.0086
3091.00,0.0086
3090.00,0.0086
3089.00,0.0086
3088.00,0.0086
3087.00,0.0086
3086.00,0.0086
3085.00,0.0086
3084.00,0.0086
3083.00,0.0086
3082.00,0.0086
3081.00,0.0086
3080.00,0.0086
3079.00,0.0086
3078.00,0.0086
3077.00,0.0086
3076.00,0.0086
3075.00,0.0085
3074.00,0.0085
3073.00,0.0085
3072.00,0.0084
3071.00,0.0084
3070.00,0.0084
3069.00,0.0084
3068.00,0.0084
3067.00,0.0084
3066.00,0.0084
3065.00,0.0084
3064.00,0.0083
3063.00,0.0083
3062.00,0.0083
3061.00,0.0082
3060.00,0.0082
3059.00,0.0082
3058.00,0.0081
3057.00,0.0081
3056.00,0.0081
3055.00,0.0080
3054.00,0.0080
3053.00,0.0080
3052.00,0.0080
3051.00,0.0080
3050.00,0.0080
3049.00,0.0079
3048.00,0.0079
3047.00,0.0079
3046.00,0.0079
3045.00,0.0079
3044.00,0.0079
3043.00,0.0079
3042.00,0.0079
3041.00,0.0078
3040.00,0.0078
3039.00,0.0078
3038.00,0.0078
3037.00,0.0078
3036.00,0.0078
3035.00,0.0078
3034.00,0.0077
3033.00,0.0077
3032.00,0.0077
3031.00,0.0077
3030.00,0.0077
3029.00,0.0077
3028.00,0.0076
3027.00,0.0076
3026.00,0.0076
3025.00,0.0076
3024.00,0.0076
3023.00,0.0076
3022.00,0.0076
3021.00,0.0075
3020.00,0.0075
3019.00,0.0075
3018.00,0.0075
3017.00,0.0075
3016.00,0.0075
3015.00,0.0076
3014.00,0.0076
3013.00,0.0077
3012.00,0.0077
3011.00,0.0078
3010.00,0.0078
3009.00,0.0079
3008.00,0.0080
3007.00,0.0081
3006.00,0.0082
3005.00,0.0083
3004.00,0.0085
3003.00,0.0086
3002.00,0.0089
3001.00,0.0091
3000.00,0.0093
2999.00,0.0095
2998.00,0.0097
2997.00,0.0100
2996.00,0.0103
2995.00,0.0106
2994.00,0.0109
2993.00,0.0112
2992.00,0.0115
2991.00,0.0118
2990.00,0.0121
2989.00,0.0125
2988.00,0.0128
2987.00,0.0130
2986.00,0.0133
2985.00,0.0136
2984.00,0.0138
2983.00,0.0140
2982.00,0.0142
2981.00,0.0144
2980.00,0.0146
2979.00,0.0147
2978.00,0.0149
2977.00,0.0150
2976.00,0.0151
2975.00,0.0152
2974.00,0.0154
2973.00,0.0155
2972.00,0.0157
2971.00,0.0159
2970.00,0.0161
2969.00,0.0163
2968.00,0.0165
2967.00,0.0167
2966.00,0.0170
2965.00,0.0172
2964.00,0.0175
2963.00,0.0178
2962.00,0.0180
2961.00,0.0183
2960.00,0.0185
2959.00,0.0187
2958.00,0.0189
2957.00,0.0191
2956.00,0.0193
2955.00,0.0194
2954.00,0.0195
2953.00,0.0196
2952.00,0.0197
2951.00,0.0197
2950.00,0.0196
2949.00,0.0196
2948.00,0.0196
2947.00,0.0195
2946.00,0.0195
2945.00,0.0195
2944.00,0.0195
2943.00,0.0196
2942.00,0.0197
2941.00,0.0198
2940.00,0.0199
2939.00,0.0200
2938.00,0.0202
2937.00,0.0203
2936.00,0.0205
2935.00,0.0207
2934.00,0.0208
2933.00,0.0209
2932.00,0.0211
2931.00,0.0212
2930.00,0.0213
2929.00,0.0214
2928.00,0.0215
2927.00,0.0215
2926.00,0.0215
2925.00,0.0215
2924.00,0.0214
2923.00,0.0213
2922.00,0.0211
2921.00,0.0210
2920.00,0.0208
2919.00,0.0205
2918.00,0.0203
2917.00,0.0200
2916.00,0.0197
2915.00,0.0194
2914.00,0.0191
2913.00,0.0187
2912.00,0.0184
2911.00,0.0181
2910.00,0.0177
2909.00,0.0174
2908.00,0.0172
2907.00,0.0169
2906.00,0.0167
2905.00,0.0165
2904.00,0.0163
2903.00,0.0161
2902.00,0.0160
2901.00,0.0159
2900.00,0.0158
2899.00,0.0158
2898.00,0.0157
2897.00,0.0156
2896.00,0.0156
2895.00,0.0155
2894.00,0.0155
2893.00,0.0155
2892.00,0.0155
2891.00,0.0155
2890.00,0.0154
2889.00,0.0154
2888.00,0.0154
2887.00,0.0154
2886.00,0.0153
2885.00,0.0153
2884.00,0.0153
2883.00,0.0153
2882.00,0.0153
2881.00,0.0153
2880.00,0.0154
2879.00,0.0155
2878.00,0.0156
2877.00,0.0157
2876.00,0.0158
2875.00,0.0159
2874.00,0.0160
2873.00,0.0161
2872.00,0.0161
2871.00,0.0162
2870.00,0.0162
2869.00,0.0162
2868.00,0.0162
2867.00,0.0161
2866.00,0.0161
2865.00,0.0161
2864.00,0.0161
2863.00,0.0161
2862.00,0.0162
2861.00,0.0162
2860.00,0.0162
2859.00,0.0161
2858.00,0.0160
2857.00,0.0159
2856.00,0.0157
2855.00,0.0154
2854.00,0.0151
2853.00,0.0148
2852.00,0.0145
2851.00,0.0141
2850.00,0.0137
2849.00,0.0133
2848.00,0.0130
2847.00,0.0126
2846.00,0.0123
2845.00,0.0119
2844.00,0.0116
2843.00,0.0112
2842.00,0.0109
2841.00,0.0105
2840.00,0.0102
2839.00,0.0099
2838.00,0.0097
2837.00,0.0095
2836.00,0.0093
2835.00,0.0092
2834.00,0.0090
2833.00,0.0089
2832.00,0.0087
2831.00,0.0086
2830.00,0.0084
2829.00,0.0082
2828.00,0.0081
2827.00,0.0080
2826.00,0.0079
2825.00,0.0077
2824.00,0.0076
2823.00,0.0075
2822.00,0.0074
2821.00,0.0073
2820.00,0.0072
2819.00,0.0071
2818.00,0.0070
2817.00,0.0069
2816.00,0.0068
2815.00,0.0068
2814.00,0.0067
2813.00,0.0066
2812.00,0.0066
2811.00,0.0065
2810.00,0.0065
2809.00,0.0064
2808.00,0.0064
2807.00,0.0063
2806.00,0.0063
2805.00,0.0062
2804.00,0.0062
2803.00,0.0061
2802.00,0.0061
2801.00,0.0061
2800.00,0.0060
2799.00,0.0060
2798.00,0.0059
2797.00,0.0059
2796.00,0.0059
2795.00,0.0059
2794.00,0.0058
2793.00,0.0058
2792.00,0.0057
2791.00,0.0057
2790.00,0.0057
2789.00,0.0056
2788.00,0.0056
2787.00,0.0056
2786.00,0.0056
2785.00,0.0056
2784.00,0.0055
2783.00,0.0055
2782.00,0.0055
2781.00,0.0055
2780.00,0.0055
2779.00,0.0055
2778.00,0.0054
2777.00,0.0054
2776.00,0.0054
2775.00,0.0053
2774.00,0.0053
2773.00,0.0053
2772.00,0.0053
2771.00,0.0053
2770.00,0.0053
2769.00,0.0053
2768.00,0.0053
2767.00,0.0053
2766.00,0.0053
2765.00,0.0052
2764.00,0.0052
2763.00,0.0052
2762.00,0.0052
2761.00,0.0052
2760.00,0.0052
2759.00,0.0052
2758.00,0.0052
2757.00,0.0052
2756.00,0.0052
2755.00,0.0052
2754.00,0.0052
2753.00,0.0052
2752.00,0.0052
2751.00,0.0052
2750.00,0.0053
2749.00,0.0053
2748.00,0.0053
2747.00,0.0053
2746.00,0.0053
2745.00,0.0053
2744.00,0.0053
2743.00,0.0053
2742.00,0.0053
2741.00,0.0053
2740.00,0.0053
2739.00,0.0053
2738.00,0.0053
2737.00,0.0053
2736.00,0.0053
2735.00,0.0053
2734.00,0.0053
2733.00,0.0053
2732.00,0.0053
2731.00,0.0053
2730.00,0.0053
2729.00,0.0053
2728.00,0.0052
2727.00,0.0052
2726.00,0.0052
2725.00,0.0052
2724.00,0.0052
2723.00,0.0052
2722.00,0.0052
2721.00,0.0052
2720.00,0.0052
2719.00,0.0052
2718.00,0.0051
2717.00,0.0051
2716.00,0.0051
2715.00,0.0051
2714.00,0.0051
2713.00,0.0051
2712.00,0.0050
2711.00,0.0050
2710.00,0.0050
2709.00,0.0050
2708.00,0.0050
2707.00,0.0050
2706.00,0.0049
2705.00,0.0049
2704.00,0.0049
2703.00,0.0049
2702.00,0.0049
2701.00,0.0049
2700.00,0.0049
2699.00,0.0048
2698.00,0.0048
2697.00,0.0048
2696.00,0.0048
2695.00,0.0048
2694.00,0.0048
2693.00,0.0047
2692.00,0.0047
2691.00,0.0047
2690.00,0.0047
2689.00,0.0047
2688.00,0.0047
2687.00,0.0047
2686.00,0.0047
2685.00,0.0046
2684.00,0.0046
2683.00,0.0046
2682.00,0.0046
2681.00,0.0046
2680.00,0.0046
2679.00,0.0046
2678.00,0.0046
2677.00,0.0045
2676.00,0.0045
2675.00,0.0045
2674.00,0.0046
2673.00,0.0046
2672.00,0.0046
2671.00,0.0046
2670.00,0.0045
2669.00,0.0045
2668.00,0.0046
2667.00,0.0046
2666.00,0.0046
2665.00,0.0046
2664.00,0.0047
2663.00,0.0047
2662.00,0.0047
2661.00,0.0048
2660.00,0.0048
2659.00,0.0048
2658.00,0.0048
2657.00,0.0048
2656.00,0.0048
2655.00,0.0048
2654.00,0.0048
2653.00,0.0048
2652.00,0.0048
2651.00,0.0048
2650.00,0.0048
2649.00,0.0048
2648.00,0.0048
2647.00,0.0048
2646.00,0.0048
2645.00,0.0048
2644.00,0.0047
2643.00,0.0047
2642.00,0.0047
2641.00,0.0047
2640.00,0.0047
2639.00,0.0047
2638.00,0.0047
2637.00,0.0047
2636.00,0.0047
2635.00,0.0047
2634.00,0.0046
2633.00,0.0046
2632.00,0.0046
2631.00,0.0046
2630.00,0.0046
2629.00,0.0046
2628.00,0.0045
2627.00,0.0045
2626.00,0.0045
2625.00,0.0045
2624.00,0.0045
2623.00,0.0045
2622.00,0.0045
2621.00,0.0045
2620.00,0.0045
2619.00,0.0045
2618.00,0.0044
2617.00,0.0044
2616.00,0.0044
2615.00,0.0044
2614.00,0.0044
2613.00,0.0044
2612.00,0.0044
2611.00,0.0043
2610.00,0.0043
2609.00,0.0043
2608.00,0.0043
2607.00,0.0043
2606.00,0.0043
2605.00,0.0043
2604.00,0.0043
2603.00,0.0042
2602.00,0.0042
2601.00,0.0042
2600.00,0.0042
2599.00,0.0042
2598.00,0.0041
2597.00,0.0041
2596.00,0.0041
2595.00,0.0041
2594.00,0.0041
2593.00,0.0040
2592.00,0.0040
2591.00,0.0040
2590.00,0.0040
2589.00,0.0040
2588.00,0.0041
2587.00,0.0041
2586.00,0.0041
2585.00,0.0041
2584.00,0.0041
2583.00,0.0040
2582.00,0.0040
2581.00,0.0040
2580.00,0.0039
2579.00,0.0039
2578.00,0.0039
2577.00,0.0039
2576.00,0.0039
2575.00,0.0039
2574.00,0.0039
2573.00,0.0040
2572.00,0.0039
2571.00,0.0039
2570.00,0.0039
2569.00,0.0038
2568.00,0.0038
2567.00,0.0038
2566.00,0.0038
2565.00,0.0038
2564.00,0.0038
2563.00,0.0038
2562.00,0.0038
2561.00,0.0037
2560.00,0.0037
2559.00,0.0036
2558.00,0.0036
2557.00,0.0035
2556.00,0.0036
2555.00,0.0036
2554.00,0.0036
2553.00,0.0036
2552.00,0.0036
2551.00,0.0036
2550.00,0.0036
2549.00,0.0036
2548.00,0.0035
2547.00,0.0035
2546.00,0.0035
2545.00,0.0035
2544.00,0.0035
2543.00,0.0035
2542.00,0.0034
2541.00,0.0034
2540.00,0.0034
2539.00,0.0034
2538.00,0.0034
2537.00,0.0034
2536.00,0.0033
2535.00,0.0033
2534.00,0.0032
2533.00,0.0032
2532.00,0.0032
2531.00,0.0032
2530.00,0.0032
2529.00,0.0032
2528.00,0.0031
2527.00,0.0031
2526.00,0.0030
2525.00,0.0030
2524.00,0.0030
2523.00,0.0030
2522.00,0.0030
2521.00,0.0030
2520.00,0.0030
2519.00,0.0030
2518.00,0.0030
2517.00,0.0030
2516.00,0.0030
2515.00,0.0030
2514.00,0.0030
2513.00,0.0030
2512.00,0.0030
2511.00,0.0030
2510.00,0.0029
2509.00,0.0029
2508.00,0.0029
2507.00,0.0029
2506.00,0.0029
2505.00,0.0029
2504.00,0.0029
2503.00,0.0029
2502.00,0.0029
2501.00,0.0029
2500.00,0.0029
2499.00,0.0029
2498.00,0.0029
2497.00,0.0029
2496.00,0.0028
2495.00,0.0028
2494.00,0.0028
2493.00,0.0028
2492.00,0.0028
2491.00,0.0028
2490.00,0.0028
2489.00,0.0028
2488.00,0.0028
2487.00,0.0028
2486.00,0.0028
2485.00,0.0028
2484.00,0.0028
2483.00,0.0028
2482.00,0.0028
2481.00,0.0028
2480.00,0.0028
2479.00,0.0028
2478.00,0.0028
2477.00,0.0028
2476.00,0.0028
2475.00,0.0027
2474.00,0.0027
2473.00,0.0026
2472.00,0.0027
2471.00,0.0027
2470.00,0.0027
2469.00,0.0027
2468.00,0.0027
2467.00,0.0027
2466.00,0.0027
2465.00,0.0028
2464.00,0.0028
2463.00,0.0028
2462.00,0.0028
2461.00,0.0028
2460.00,0.0028
2459.00,0.0029
2458.00,0.0029
2457.00,0.0029
2456.00,0.0029
2455.00,0.0029
2454.00,0.0029
2453.00,0.0028
2452.00,0.0028
2451.00,0.0028
2450.00,0.0028
2449.00,0.0028
2448.00,0.0028
2447.00,0.0028
2446.00,0.0027
2445.00,0.0027
2444.00,0.0027
2443.00,0.0027
2442.00,0.0026
2441.00,0.0026
2440.00,0.0026
2439.00,0.0027
2438.00,0.0027
2437.00,0.0027
2436.00,0.0028
2435.00,0.0027
2434.00,0.0027
2433.00,0.0026
2432.00,0.0026
2431.00,0.0026
2430.00,0.0026
2429.00,0.0026
2428.00,0.0026
2427.00,0.0026
2426.00,0.0026
2425.00,0.0026
2424.00,0.0026
2423.00,0.0025
2422.00,0.0025
2421.00,0.0025
2420.00,0.0025
2419.00,0.0025
2418.00,0.0024
2417.00,0.0024
2416.00,0.0024
2415.00,0.0024
2414.00,0.0024
2413.00,0.0024
2412.00,0.0025
2411.00,0.0024
2410.00,0.0024
2409.00,0.0024
2408.00,0.0024
2407.00,0.0023
2406.00,0.0023
2405.00,0.0023
2404.00,0.0023
2403.00,0.0023
2402.00,0.0023
2401.00,0.0023
2400.00,0.0023
2399.00,0.0023
2398.00,0.0023
2397.00,0.0022
2396.00,0.0022
2395.00,0.0022
2394.00,0.0022
2393.00,0.0022
2392.00,0.0022
2391.00,0.0022
2390.00,0.0022
2389.00,0.0022
2388.00,0.0022
2387.00,0.0021
2386.00,0.0020
2385.00,0.0019
2384.00,0.0018
2383.00,0.0018
2382.00,0.0017
2381.00,0.0016
2380.00,0.0016
2379.00,0.0016
2378.00,0.0017
2377.00,0.0017
2376.00,0.0017
2375.00,0.0017
2374.00,0.0016
2373.00,0.0016
2372.00,0.0016
2371.00,0.0016
2370.00,0.0015
2369.00,0.0015
2368.00,0.0014
2367.00,0.0014
2366.00,0.0014
2365.00,0.0014
2364.00,0.0014
2363.00,0.0015
2362.00,0.0015
2361.00,0.0015
2360.00,0.0015
2359.00,0.0015
2358.00,0.0015
2357.00,0.0016
2356.00,0.0016
2355.00,0.0015
2354.00,0.0015
2353.00,0.0015
2352.00,0.0015
2351.00,0.0015
2350.00,0.0016
2349.00,0.0017
2348.00,0.0018
2347.00,0.0018
2346.00,0.0018
2345.00,0.0018
2344.00,0.0018
2343.00,0.0018
2342.00,0.0018
2341.00,0.0019
2340.00,0.0020
2339.00,0.0021
2338.00,0.0020
2337.00,0.0020
2336.00,0.0020
2335.00,0.0021
2334.00,0.0021
2333.00,0.0021
2332.00,0.0021
2331.00,0.0021
2330.00,0.0021
2329.00,0.0023
2328.00,0.0027
2327.00,0.0031
2326.00,0.0035
2325.00,0.0035
2324.00,0.0034
2323.00,0.0032
2322.00,0.0030
2321.00,0.0029
2320.00,0.0028
2319.00,0.0028
2318.00,0.0027
2317.00,0.0026
2316.00,0.0026
2315.00,0.0025
2314.00,0.0025
2313.00,0.0024
2312.00,0.0024
2311.00,0.0024
2310.00,0.0024
2309.00,0.0024
2308.00,0.0025
2307.00,0.0025
2306.00,0.0025
2305.00,0.0026
2304.00,0.0026
2303.00,0.0026
2302.00,0.0026
2301.00,0.0027
2300.00,0.0027
2299.00,0.0028
2298.00,0.0029
2297.00,0.0030
2296.00,0.0031
2295.00,0.0032
2294.00,0.0033
2293.00,0.0034
2292.00,0.0035
2291.00,0.0035
2290.00,0.0036
2289.00,0.0037
2288.00,0.0038
2287.00,0.0038
2286.00,0.0038
2285.00,0.0037
2284.00,0.0035
2283.00,0.0034
2282.00,0.0034
2281.00,0.0033
2280.00,0.0033
2279.00,0.0032
2278.00,0.0032
2277.00,0.0032
2276.00,0.0031
2275.00,0.0031
2274.00,0.0031
2273.00,0.0031
2272.00,0.0031
2271.00,0.0031
2270.00,0.0030
2269.00,0.0029
2268.00,0.0029
2267.00,0.0029
2266.00,0.0028
2265.00,0.0028
2264.00,0.0029
2263.00,0.0029
2262.00,0.0029
2261.00,0.0029
2260.00,0.0029
2259.00,0.0029
2258.00,0.0028
2257.00,0.0027
2256.00,0.0026
2255.00,0.0025
2254.00,0.0025
2253.00,0.0025
2252.00,0.0025
2251.00,0.0026
2250.00,0.0027
2249.00,0.0027
2248.00,0.0027
2247.00,0.0027
2246.00,0.0027
2245.00,0.0027
2244.00,0.0027
2243.00,0.0028
2242.00,0.0028
2241.00,0.0029
2240.00,0.0029
2239.00,0.0029
2238.00,0.0028
2237.00,0.0028
2236.00,0.0028
2235.00,0.0027
2234.00,0.0027
2233.00,0.0027
2232.00,0.0027
2231.00,0.0027
2230.00,0.0027
2229.00,0.0028
2228.00,0.0029
2227.00,0.0029
2226.00,0.0029
2225.00,0.0029
2224.00,0.0029
2223.00,0.0029
2222.00,0.0029
2221.00,0.0029
2220.00,0.0029
2219.00,0.0029
2218.00,0.0028
2217.00,0.0027
2216.00,0.0027
2215.00,0.0027
2214.00,0.0027
2213.00,0.0028
2212.00,0.0029
2211.00,0.0029
2210.00,0.0029
2209.00,0.0028
2208.00,0.0027
2207.00,0.0026
2206.00,0.0025
2205.00,0.0025
2204.00,0.0026
2203.00,0.0027
2202.00,0.0027
2201.00,0.0028
2200.00,0.0028
2199.00,0.0027
2198.00,0.0027
2197.00,0.0027
2196.00,0.0028
2195.00,0.0028
2194.00,0.0028
2193.00,0.0028
2192.00,0.0028
2191.00,0.0028
2190.00,0.0029
2189.00,0.0029
2188.00,0.0030
2187.00,0.0031
2186.00,0.0030
2185.00,0.0028
2184.00,0.0026
2183.00,0.0023
2182.00,0.0021
2181.00,0.0020
2180.00,0.0022
2179.00,0.0023
2178.00,0.0023
2177.00,0.0023
2176.00,0.0022
2175.00,0.0023
2174.00,0.0024
2173.00,0.0027
2172.00,0.0030
2171.00,0.0033
2170.00,0.0035
2169.00,0.0037
2168.00,0.0038
2167.00,0.0038
2166.00,0.0039
2165.00,0.0041
2164.00,0.0042
2163.00,0.0042
2162.00,0.0035
2161.00,0.0020
2160.00,0.0002
2159.00,-0.0012
2158.00,-0.0017
2157.00,-0.0014
2156.00,-0.0009
2155.00,-0.0004
2154.00,-0.0001
2153.00,0.0001
2152.00,0.0003
2151.00,0.0004
2150.00,0.0004
2149.00,0.0004
2148.00,0.0005
2147.00,0.0006
2146.00,0.0006
2145.00,0.0006
2144.00,0.0006
2143.00,0.0006
2142.00,0.0007
2141.00,0.0007
2140.00,0.0008
2139.00,0.0007
2138.00,0.0005
2137.00,0.0003
2136.00,0.0000
2135.00,-0.0001
2134.00,-0.0001
2133.00,0.0000
2132.00,0.0002
2131.00,0.0004
2130.00,0.0006
2129.00,0.0008
2128.00,0.0010
2127.00,0.0011
2126.00,0.0012
2125.00,0.0013
2124.00,0.0015
2123.00,0.0016
2122.00,0.0017
2121.00,0.0018
2120.00,0.0019
2119.00,0.0020
2118.00,0.0020
2117.00,0.0022
2116.00,0.0023
2115.00,0.0023
2114.00,0.0023
2113.00,0.0022
2112.00,0.0022
2111.00,0.0023
2110.00,0.0023
2109.00,0.0023
2108.00,0.0023
2107.00,0.0023
2106.00,0.0023
2105.00,0.0023
2104.00,0.0024
2103.00,0.0024
2102.00,0.0024
2101.00,0.0024
2100.00,0.0023
2099.00,0.0023
2098.00,0.0021
2097.00,0.0020
2096.00,0.0018
2095.00,0.0018
2094.00,0.0018
2093.00,0.0019
2092.00,0.0021
2091.00,0.0022
2090.00,0.0022
2089.00,0.0023
2088.00,0.0024
2087.00,0.0024
2086.00,0.0024
2085.00,0.0025
2084.00,0.0025
2083.00,0.0026
2082.00,0.0026
2081.00,0.0027
2080.00,0.0028
2079.00,0.0027
2078.00,0.0026
2077.00,0.0026
2076.00,0.0025
2075.00,0.0025
2074.00,0.0024
2073.00,0.0024
2072.00,0.0024
2071.00,0.0023
2070.00,0.0023
2069.00,0.0023
2068.00,0.0023
2067.00,0.0023
2066.00,0.0022
2065.00,0.0023
2064.00,0.0023
2063.00,0.0023
2062.00,0.0023
2061.00,0.0022
2060.00,0.0023
2059.00,0.0023
2058.00,0.0024
2057.00,0.0024
2056.00,0.0023
2055.00,0.0023
2054.00,0.0025
2053.00,0.0030
2052.00,0.0035
2051.00,0.0036
2050.00,0.0033
2049.00,0.0030
2048.00,0.0028
2047.00,0.0026
2046.00,0.0025
2045.00,0.0024
2044.00,0.0023
2043.00,0.0022
2042.00,0.0021
2041.00,0.0022
2040.00,0.0023
2039.00,0.0025
2038.00,0.0025
2037.00,0.0025
2036.00,0.0024
2035.00,0.0021
2034.00,0.0019
2033.00,0.0017
2032.00,0.0016
2031.00,0.0016
2030.00,0.0016
2029.00,0.0017
2028.00,0.0018
2027.00,0.0017
2026.00,0.0016
2025.00,0.0014
2024.00,0.0014
2023.00,0.0014
2022.00,0.0014
2021.00,0.0014
2020.00,0.0015
2019.00,0.0016
2018.00,0.0017
2017.00,0.0016
2016.00,0.0015
2015.00,0.0015
2014.00,0.0014
2013.00,0.0014
2012.00,0.0015
2011.00,0.0016
2010.00,0.0017
2009.00,0.0016
2008.00,0.0014
2007.00,0.0011
2006.00,0.0009
2005.00,0.0009
2004.00,0.0011
2003.00,0.0013
2002.00,0.0014
2001.00,0.0015
2000.00,0.0017
1999.00,0.0017
1998.00,0.0018
1997.00,0.0018
1996.00,0.0018
1995.00,0.0018
1994.00,0.0017
1993.00,0.0017
1992.00,0.0019
1991.00,0.0021
1990.00,0.0022
1989.00,0.0023
1988.00,0.0024
1987.00,0.0025
1986.00,0.0025
1985.00,0.0026
1984.00,0.0027
1983.00,0.0029
1982.00,0.0031
1981.00,0.0032
1980.00,0.0029
1979.00,0.0024
1978.00,0.0018
1977.00,0.0013
1976.00,0.0010
1975.00,0.0009
1974.00,0.0009
1973.00,0.0009
1972.00,0.0010
1971.00,0.0011
1970.00,0.0011
1969.00,0.0012
1968.00,0.0012
1967.00,0.0012
1966.00,0.0012
1965.00,0.0012
1964.00,0.0012
1963.00,0.0011
1962.00,0.0008
1961.00,0.0006
1960.00,0.0005
1959.00,0.0005
1958.00,0.0006
1957.00,0.0008
1956.00,0.0010
1955.00,0.0011
1954.00,0.0011
1953.00,0.0012
1952.00,0.0013
1951.00,0.0013
1950.00,0.0012
1949.00,0.0011
1948.00,0.0010
1947.00,0.0010
1946.00,0.0011
1945.00,0.0012
1944.00,0.0013
1943.00,0.0013
1942.00,0.0012
1941.00,0.0012
1940.00,0.0013
1939.00,0.0013
1938.00,0.0013
1937.00,0.0013
1936.00,0.0013
1935.00,0.0012
1934.00,0.0012
1933.00,0.0012
1932.00,0.0012
1931.00,0.0013
1930.00,0.0013
1929.00,0.0014
1928.00,0.0014
1927.00,0.0014
1926.00,0.0014
1925.00,0.0014
1924.00,0.0015
1923.00,0.0016
1922.00,0.0016
1921.00,0.0016
1920.00,0.0017
1919.00,0.0018
1918.00,0.0018
1917.00,0.0017
1916.00,0.0017
1915.00,0.0016
1914.00,0.0016
1913.00,0.0016
1912.00,0.0016
1911.00,0.0017
1910.00,0.0017
1909.00,0.0017
1908.00,0.0017
1907.00,0.0017
1906.00,0.0016
1905.00,0.0016
1904.00,0.0016
1903.00,0.0017
1902.00,0.0017
1901.00,0.0017
1900.00,0.0018
1899.00,0.0018
1898.00,0.0018
1897.00,0.0019
1896.00,0.0019
1895.00,0.0019
1894.00,0.0018
1893.00,0.0018
1892.00,0.0017
1891.00,0.0018
1890.00,0.0018
1889.00,0.0017
1888.00,0.0017
1887.00,0.0017
1886.00,0.0017
1885.00,0.0018
1884.00,0.0018
1883.00,0.0018
1882.00,0.0019
1881.00,0.0019
1880.00,0.0019
1879.00,0.0019
1878.00,0.0018
1877.00,0.0018
1876.00,0.0017
1875.00,0.0017
1874.00,0.0017
1873.00,0.0018
1872.00,0.0019
1871.00,0.0019
1870.00,0.0019
1869.00,0.0019
1868.00,0.0019
1867.00,0.0018
1866.00,0.0018
1865.00,0.0017
1864.00,0.0018
1863.00,0.0018
1862.00,0.0017
1861.00,0.0017
1860.00,0.0017
1859.00,0.0017
1858.00,0.0018
1857.00,0.0018
1856.00,0.0018
1855.00,0.0019
1854.00,0.0019
1853.00,0.0019
1852.00,0.0019
1851.00,0.0019
1850.00,0.0019
1849.00,0.0019
1848.00,0.0019
1847.00,0.0019
1846.00,0.0019
1845.00,0.0019
1844.00,0.0019
1843.00,0.0019
1842.00,0.0018
1841.00,0.0018
1840.00,0.0018
1839.00,0.0019
1838.00,0.0019
1837.00,0.0019
1836.00,0.0019
1835.00,0.0020
1834.00,0.0020
1833.00,0.0020
1832.00,0.0020
1831.00,0.0020
1830.00,0.0019
1829.00,0.0019
1828.00,0.0019
1827.00,0.0019
1826.00,0.0019
1825.00,0.0019
1824.00,0.0020
1823.00,0.0020
1822.00,0.0019
1821.00,0.0019
1820.00,0.0018
1819.00,0.0017
1818.00,0.0016
1817.00,0.0016
1816.00,0.0016
1815.00,0.0017
1814.00,0.0018
1813.00,0.0018
1812.00,0.0019
1811.00,0.0019
1810.00,0.0020
1809.00,0.0020
1808.00,0.0020
1807.00,0.0020
1806.00,0.0020
1805.00,0.0020
1804.00,0.0020
1803.00,0.0020
1802.00,0.0020
1801.00,0.0020
1800.00,0.0020
1799.00,0.0020
1798.00,0.0020
1797.00,0.0020
1796.00,0.0021
1795.00,0.0021
1794.00,0.0021
1793.00,0.0021
1792.00,0.0021
1791.00,0.0022
1790.00,0.0021
1789.00,0.0021
1788.00,0.0022
1787.00,0.0022
1786.00,0.0022
1785.00,0.0022
1784.00,0.0023
1783.00,0.0023
1782.00,0.0023
1781.00,0.0023
1780.00,0.0023
1779.00,0.0023
1778.00,0.0022
1777.00,0.0022
1776.00,0.0023
1775.00,0.0023
1774.00,0.0023
1773.00,0.0023
1772.00,0.0023
1771.00,0.0023
1770.00,0.0023
1769.00,0.0024
1768.00,0.0024
1767.00,0.0025
1766.00,0.0025
1765.00,0.0025
1764.00,0.0025
1763.00,0.0026
1762.00,0.0025
1761.00,0.0025
1760.00,0.0026
1759.00,0.0026
1758.00,0.0026
1757.00,0.0026
1756.00,0.0026
1755.00,0.0027
1754.00,0.0026
1753.00,0.0027
1752.00,0.0027
1751.00,0.0028
1750.00,0.0028
1749.00,0.0027
1748.00,0.0028
1747.00,0.0028
1746.00,0.0028
1745.00,0.0029
1744.00,0.0030
1743.00,0.0030
1742.00,0.0031
1741.00,0.0031
1740.00,0.0032
1739.00,0.0032
1738.00,0.0032
1737.00,0.0033
1736.00,0.0034
1735.00,0.0035
1734.00,0.0035
1733.00,0.0036
1732.00,0.0037
1731.00,0.0038
1730.00,0.0039
1729.00,0.0040
1728.00,0.0042
1727.00,0.0043
1726.00,0.0044
1725.00,0.0045
1724.00,0.0047
1723.00,0.0048
1722.00,0.0049
1721.00,0.0050
1720.00,0.0051
1719.00,0.0053
1718.00,0.0055
1717.00,0.0057
1716.00,0.0060
1715.00,0.0063
1714.00,0.0066
1713.00,0.0069
1712.00,0.0073
1711.00,0.0077
1710.00,0.0081
1709.00,0.0085
1708.00,0.0091
1707.00,0.0098
1706.00,0.0107
1705.00,0.0116
1704.00,0.0124
1703.00,0.0131
1702.00,0.0140
1701.00,0.0157
1700.00,0.0182
1699.00,0.0202
1698.00,0.0216
1697.00,0.0235
1696.00,0.0265
1695.00,0.0297
1694.00,0.0323
1693.00,0.0343
1692.00,0.0364
1691.00,0.0391
1690.00,0.0421
1689.00,0.0451
1688.00,0.0475
1687.00,0.0493
1686.00,0.0513
1685.00,0.0551
1684.00,0.0606
1683.00,0.0649
1682.00,0.0669
1681.00,0.0681
1680.00,0.0694
1679.00,0.0705
1678.00,0.0713
1677.00,0.0722
1676.00,0.0738
1675.00,0.0760
1674.00,0.0775
1673.00,0.0780
1672.00,0.0781
1671.00,0.0789
1670.00,0.0809
1669.00,0.0833
1668.00,0.0851
1667.00,0.0859
1666.00,0.0861
1665.00,0.0864
1664.00,0.0876
1663.00,0.0898
1662.00,0.0923
1661.00,0.0938
1660.00,0.0946
1659.00,0.0950
1658.00,0.0949
1657.00,0.0943
1656.00,0.0932
1655.00,0.0925
1654.00,0.0942
1653.00,0.0983
1652.00,0.1002
1651.00,0.0985
1650.00,0.0954
1649.00,0.0925
1648.00,0.0905
1647.00,0.0896
1646.00,0.0885
1645.00,0.0865
1644.00,0.0836
1643.00,0.0804
1642.00,0.0771
1641.00,0.0740
1640.00,0.0708
1639.00,0.0677
1638.00,0.0646
1637.00,0.0617
1636.00,0.0594
1635.00,0.0573
1634.00,0.0550
1633.00,0.0526
1632.00,0.0501
1631.00,0.0479
1630.00,0.0461
1629.00,0.0447
1628.00,0.0438
1627.00,0.0433
1626.00,0.0429
1625.00,0.0430
1624.00,0.0438
1623.00,0.0451
1622.00,0.0463
1621.00,0.0468
1620.00,0.0467
1619.00,0.0463
1618.00,0.0460
1617.00,0.0457
1616.00,0.0453
1615.00,0.0444
1614.00,0.0433
1613.00,0.0421
1612.00,0.0411
1611.00,0.0403
1610.00,0.0394
1609.00,0.0384
1608.00,0.0370
1607.00,0.0354
1606.00,0.0336
1605.00,0.0316
1604.00,0.0296
1603.00,0.0278
1602.00,0.0261
1601.00,0.0246
1600.00,0.0233
1599.00,0.0224
1598.00,0.0216
1597.00,0.0211
1596.00,0.0209
1595.00,0.0211
1594.00,0.0216
1593.00,0.0224
1592.00,0.0236
1591.00,0.0250
1590.00,0.0267
1589.00,0.0283
1588.00,0.0297
1587.00,0.0308
1586.00,0.0314
1585.00,0.0313
1584.00,0.0307
1583.00,0.0298
1582.00,0.0285
1581.00,0.0270
1580.00,0.0255
1579.00,0.0241
1578.00,0.0228
1577.00,0.0217
1576.00,0.0208
1575.00,0.0200
1574.00,0.0193
1573.00,0.0186
1572.00,0.0180
1571.00,0.0174
1570.00,0.0170
1569.00,0.0165
1568.00,0.0161
1567.00,0.0156
1566.00,0.0152
1565.00,0.0148
1564.00,0.0143
1563.00,0.0139
1562.00,0.0135
1561.00,0.0130
1560.00,0.0127
1559.00,0.0126
1558.00,0.0125
1557.00,0.0123
1556.00,0.0120
1555.00,0.0118
1554.00,0.0116
1553.00,0.0115
1552.00,0.0113
1551.00,0.0112
1550.00,0.0111
1549.00,0.0109
1548.00,0.0108
1547.00,0.0106
1546.00,0.0105
1545.00,0.0104
1544.00,0.0103
1543.00,0.0101
1542.00,0.0099
1541.00,0.0098
1540.00,0.0098
1539.00,0.0098
1538.00,0.0098
1537.00,0.0097
1536.00,0.0096
1535.00,0.0096
1534.00,0.0097
1533.00,0.0098
1532.00,0.0098
1531.00,0.0098
1530.00,0.0098
1529.00,0.0098
1528.00,0.0098
1527.00,0.0099
1526.00,0.0101
1525.00,0.0102
1524.00,0.0103
1523.00,0.0104
1522.00,0.0107
1521.00,0.0112
1520.00,0.0115
1519.00,0.0116
1518.00,0.0118
1517.00,0.0120
1516.00,0.0122
1515.00,0.0124
1514.00,0.0124
1513.00,0.0124
1512.00,0.0125
1511.00,0.0125
1510.00,0.0125
1509.00,0.0125
1508.00,0.0127
1507.00,0.0133
1506.00,0.0141
1505.00,0.0148
1504.00,0.0153
1503.00,0.0159
1502.00,0.0168
1501.00,0.0180
1500.00,0.0193
1499.00,0.0208
1498.00,0.0225
1497.00,0.0240
1496.00,0.0252
1495.00,0.0258
1494.00,0.0258
1493.00,0.0253
1492.00,0.0246
1491.00,0.0237
1490.00,0.0226
1489.00,0.0214
1488.00,0.0200
1487.00,0.0187
1486.00,0.0174
1485.00,0.0164
1484.00,0.0154
1483.00,0.0146
1482.00,0.0139
1481.00,0.0135
1480.00,0.0132
1479.00,0.0130
1478.00,0.0130
1477.00,0.0133
1476.00,0.0136
1475.00,0.0142
1474.00,0.0151
1473.00,0.0167
1472.00,0.0187
1471.00,0.0208
1470.00,0.0226
1469.00,0.0245
1468.00,0.0266
1467.00,0.0289
1466.00,0.0318
1465.00,0.0352
1464.00,0.0382
1463.00,0.0403
1462.00,0.0413
1461.00,0.0418
1460.00,0.0417
1459.00,0.0413
1458.00,0.0405
1457.00,0.0395
1456.00,0.0380
1455.00,0.0363
1454.00,0.0348
1453.00,0.0336
1452.00,0.0327
1451.00,0.0324
1450.00,0.0325
1449.00,0.0332
1448.00,0.0346
1447.00,0.0363
1446.00,0.0380
1445.00,0.0397
1444.00,0.0414
1443.00,0.0432
1442.00,0.0449
1441.00,0.0465
1440.00,0.0477
1439.00,0.0487
1438.00,0.0500
1437.00,0.0519
1436.00,0.0539
1435.00,0.0550
1434.00,0.0553
1433.00,0.0554
1432.00,0.0556
1431.00,0.0561
1430.00,0.0569
1429.00,0.0579
1428.00,0.0590
1427.00,0.0601
1426.00,0.0613
1425.00,0.0629
1424.00,0.0646
1423.00,0.0656
1422.00,0.0656
1421.00,0.0648
1420.00,0.0633
1419.00,0.0611
1418.00,0.0582
1417.00,0.0549
1416.00,0.0514
1415.00,0.0481
1414.00,0.0452
1413.00,0.0427
1412.00,0.0408
1411.00,0.0394
1410.00,0.0385
1409.00,0.0379
1408.00,0.0376
1407.00,0.0375
1406.00,0.0378
1405.00,0.0383
1404.00,0.0387
1403.00,0.0388
1402.00,0.0386
1401.00,0.0379
1400.00,0.0370
1399.00,0.0356
1398.00,0.0341
1397.00,0.0323
1396.00,0.0304
1395.00,0.0286
1394.00,0.0270
1393.00,0.0256
1392.00,0.0245
1391.00,0.0236
1390.00,0.0231
1389.00,0.0228
1388.00,0.0228
1387.00,0.0231
1386.00,0.0237
1385.00,0.0242
1384.00,0.0249
1383.00,0.0256
1382.00,0.0264
1381.00,0.0272
1380.00,0.0278
1379.00,0.0282
1378.00,0.0284
1377.00,0.0284
1376.00,0.0282
1375.00,0.0280
1374.00,0.0277
1373.00,0.0274
1372.00,0.0269
1371.00,0.0265
1370.00,0.0261
1369.00,0.0257
1368.00,0.0254
1367.00,0.0252
1366.00,0.0252
1365.00,0.0254
1364.00,0.0257
1363.00,0.0263
1362.00,0.0268
1361.00,0.0269
1360.00,0.0266
1359.00,0.0258
1358.00,0.0248
1357.00,0.0235
1356.00,0.0222
1355.00,0.0210
1354.00,0.0201
1353.00,0.0193
1352.00,0.0187
1351.00,0.0183
1350.00,0.0180
1349.00,0.0179
1348.00,0.0177
1347.00,0.0175
1346.00,0.0174
1345.00,0.0173
1344.00,0.0173
1343.00,0.0172
1342.00,0.0173
1341.00,0.0174
1340.00,0.0175
1339.00,0.0177
1338.00,0.0179
1337.00,0.0181
1336.00,0.0183
1335.00,0.0185
1334.00,0.0188
1333.00,0.0191
1332.00,0.0194
1331.00,0.0198
1330.00,0.0202
1329.00,0.0206
1328.00,0.0211
1327.00,0.0216
1326.00,0.0223
1325.00,0.0230
1324.00,0.0237
1323.00,0.0244
1322.00,0.0251
1321.00,0.0257
1320.00,0.0262
1319.00,0.0266
1318.00,0.0268
1317.00,0.0268
1316.00,0.0266
1315.00,0.0262
1314.00,0.0258
1313.00,0.0254
1312.00,0.0250
1311.00,0.0247
1310.00,0.0245
1309.00,0.0244
1308.00,0.0245
1307.00,0.0247
1306.00,0.0251
1305.00,0.0256
1304.00,0.0263
1303.00,0.0273
1302.00,0.0284
1301.00,0.0299
1300.00,0.0319
1299.00,0.0343
1298.00,0.0373
1297.00,0.0408
1296.00,0.0447
1295.00,0.0488
1294.00,0.0531
1293.00,0.0574
1292.00,0.0613
1291.00,0.0649
1290.00,0.0680
1289.00,0.0705
1288.00,0.0725
1287.00,0.0737
1286.00,0.0741
1285.00,0.0738
1284.00,0.0729
1283.00,0.0714
1282.00,0.0697
1281.00,0.0679
1280.00,0.0663
1279.00,0.0650
1278.00,0.0640
1277.00,0.0635
1276.00,0.0632
1275.00,0.0631
1274.00,0.0630
1273.00,0.0628
1272.00,0.0623
1271.00,0.0614
1270.00,0.0601
1269.00,0.0584
1268.00,0.0563
1267.00,0.0540
1266.00,0.0515
1265.00,0.0490
1264.00,0.0465
1263.00,0.0441
1262.00,0.0419
1261.00,0.0398
1260.00,0.0378
1259.00,0.0360
1258.00,0.0344
1257.00,0.0330
1256.00,0.0316
1255.00,0.0305
1254.00,0.0295
1253.00,0.0286
1252.00,0.0280
1251.00,0.0275
1250.00,0.0273
1249.00,0.0274
1248.00,0.0276
1247.00,0.0280
1246.00,0.0287
1245.00,0.0294
1244.00,0.0302
1243.00,0.0310
1242.00,0.0318
1241.00,0.0324
1240.00,0.0329
1239.00,0.0333
1238.00,0.0336
1237.00,0.0339
1236.00,0.0342
1235.00,0.0344
1234.00,0.0346
1233.00,0.0347
1232.00,0.0348
1231.00,0.0347
1230.00,0.0346
1229.00,0.0345
1228.00,0.0343
1227.00,0.0341
1226.00,0.0340
1225.00,0.0340
1224.00,0.0340
1223.00,0.0341
1222.00,0.0342
1221.00,0.0344
1220.00,0.0345
1219.00,0.0344
1218.00,0.0342
1217.00,0.0338
1216.00,0.0331
1215.00,0.0322
1214.00,0.0312
1213.00,0.0300
1212.00,0.0288
1211.00,0.0277
1210.00,0.0267
1209.00,0.0258
1208.00,0.0251
1207.00,0.0245
1206.00,0.0241
1205.00,0.0239
1204.00,0.0239
1203.00,0.0241
1202.00,0.0245
1201.00,0.0251
1200.00,0.0258
1199.00,0.0267
1198.00,0.0277
1197.00,0.0285
1196.00,0.0293
1195.00,0.0297
1194.00,0.0298
1193.00,0.0296
1192.00,0.0289
1191.00,0.0280
1190.00,0.0268
1189.00,0.0257
1188.00,0.0245
1187.00,0.0234
1186.00,0.0224
1185.00,0.0216
1184.00,0.0209
1183.00,0.0203
1182.00,0.0199
1181.00,0.0197
1180.00,0.0195
1179.00,0.0194
1178.00,0.0194
1177.00,0.0195
1176.00,0.0196
1175.00,0.0198
1174.00,0.0200
1173.00,0.0203
1172.00,0.0205
1171.00,0.0206
1170.00,0.0208
1169.00,0.0208
1168.00,0.0208
1167.00,0.0209
1166.00,0.0210
1165.00,0.0213
1164.00,0.0217
1163.00,0.0224
1162.00,0.0232
1161.00,0.0241
1160.00,0.0251
1159.00,0.0260
1158.00,0.0268
1157.00,0.0272
1156.00,0.0273
1155.00,0.0270
1154.00,0.0264
1153.00,0.0255
1152.00,0.0244
1151.00,0.0231
1150.00,0.0218
1149.00,0.0205
1148.00,0.0193
1147.00,0.0182
1146.00,0.0172
1145.00,0.0164
1144.00,0.0158
1143.00,0.0153
1142.00,0.0149
1141.00,0.0147
1140.00,0.0146
1139.00,0.0147
1138.00,0.0151
1137.00,0.0158
1136.00,0.0169
1135.00,0.0183
1134.00,0.0200
1133.00,0.0219
1132.00,0.0237
1131.00,0.0252
1130.00,0.0261
1129.00,0.0262
1128.00,0.0255
1127.00,0.0242
1126.00,0.0226
1125.00,0.0209
1124.00,0.0193
1123.00,0.0180
1122.00,0.0170
1121.00,0.0162
1120.00,0.0156
1119.00,0.0153
1118.00,0.0150
1117.00,0.0149
1116.00,0.0148
1115.00,0.0148
1114.00,0.0149
1113.00,0.0149
1112.00,0.0150
1111.00,0.0151
1110.00,0.0153
1109.00,0.0155
1108.00,0.0157
1107.00,0.0161
1106.00,0.0165
1105.00,0.0171
1104.00,0.0176
1103.00,0.0182
1102.00,0.0188
1101.00,0.0192
1100.00,0.0193
1099.00,0.0192
1098.00,0.0189
1097.00,0.0183
1096.00,0.0177
1095.00,0.0171
1094.00,0.0165
1093.00,0.0160
1092.00,0.0155
1091.00,0.0151
1090.00,0.0148
1089.00,0.0146
1088.00,0.0145
1087.00,0.0144
1086.00,0.0144
1085.00,0.0144
1084.00,0.0145
1083.00,0.0146
1082.00,0.0148
1081.00,0.0151
1080.00,0.0153
1079.00,0.0157
1078.00,0.0162
1077.00,0.0168
1076.00,0.0173
1075.00,0.0178
1074.00,0.0184
1073.00,0.0190
1072.00,0.0197
1071.00,0.0206
1070.00,0.0216
1069.00,0.0229
1068.00,0.0243
1067.00,0.0260
1066.00,0.0280
1065.00,0.0303
1064.00,0.0326
1063.00,0.0351
1062.00,0.0376
1061.00,0.0399
1060.00,0.0418
1059.00,0.0433
1058.00,0.0440
1057.00,0.0439
1056.00,0.0429
1055.00,0.0411
1054.00,0.0387
1053.00,0.0359
1052.00,0.0330
1051.00,0.0303
1050.00,0.0279
1049.00,0.0260
1048.00,0.0243
1047.00,0.0231
1046.00,0.0222
1045.00,0.0214
1044.00,0.0209
1043.00,0.0205
1042.00,0.0203
1041.00,0.0201
1040.00,0.0201
1039.00,0.0200
1038.00,0.0201
1037.00,0.0202
1036.00,0.0203
1035.00,0.0206
1034.00,0.0211
1033.00,0.0216
1032.00,0.0221
1031.00,0.0223
1030.00,0.0224
1029.00,0.0222
1028.00,0.0217
1027.00,0.0210
1026.00,0.0204
1025.00,0.0199
1024.00,0.0194
1023.00,0.0191
1022.00,0.0189
1021.00,0.0189
1020.00,0.0189
1019.00,0.0189
1018.00,0.0188
1017.00,0.0186
1016.00,0.0182
1015.00,0.0178
1014.00,0.0173
1013.00,0.0168
1012.00,0.0164
1011.00,0.0162
1010.00,0.0162
1009.00,0.0164
1008.00,0.0167
1007.00,0.0173
1006.00,0.0179
1005.00,0.0185
1004.00,0.0189
1003.00,0.0192
1002.00,0.0193
1001.00,0.0191
1000.00,0.0188
999.00,0.0184
998.00,0.0180
997.00,0.0176
996.00,0.0172
995.00,0.0168
994.00,0.0165
993.00,0.0163
992.00,0.0159
991.00,0.0155
990.00,0.0152
989.00,0.0148
988.00,0.0143
987.00,0.0139
986.00,0.0136
985.00,0.0134
984.00,0.0131
983.00,0.0129
982.00,0.0128
981.00,0.0127
980.00,0.0126
979.00,0.0126
978.00,0.0127
977.00,0.0126
976.00,0.0125
975.00,0.0124
974.00,0.0123
973.00,0.0122
972.00,0.0120
971.00,0.0118
970.00,0.0117
969.00,0.0115
968.00,0.0113
967.00,0.0111
966.00,0.0110
965.00,0.0109
964.00,0.0107
963.00,0.0106
962.00,0.0105
961.00,0.0103
960.00,0.0100
959.00,0.0099
958.00,0.0097
957.00,0.0096
956.00,0.0094
955.00,0.0093
954.00,0.0092
953.00,0.0092
952.00,0.0091
951.00,0.0091
950.00,0.0092
949.00,0.0092
948.00,0.0093
947.00,0.0094
946.00,0.0096
945.00,0.0098
944.00,0.0100
943.00,0.0103
942.00,0.0106
941.00,0.0111
940.00,0.0115
939.00,0.0121
938.00,0.0127
937.00,0.0133
936.00,0.0139
935.00,0.0144
934.00,0.0147
933.00,0.0149
932.00,0.0149
931.00,0.0148
930.00,0.0147
929.00,0.0147
928.00,0.0146
927.00,0.0145
926.00,0.0145
925.00,0.0144
924.00,0.0143
923.00,0.0141
922.00,0.0140
921.00,0.0138
920.00,0.0135
919.00,0.0133
918.00,0.0131
917.00,0.0129
916.00,0.0126
915.00,0.0124
914.00,0.0123
913.00,0.0122
912.00,0.0120
911.00,0.0119
910.00,0.0120
909.00,0.0121
908.00,0.0123
907.00,0.0125
906.00,0.0128
905.00,0.0132
904.00,0.0137
903.00,0.0142
902.00,0.0147
901.00,0.0153
900.00,0.0157
899.00,0.0161
898.00,0.0164
897.00,0.0166
896.00,0.0166
895.00,0.0164
894.00,0.0162
893.00,0.0158
892.00,0.0154
891.00,0.0150
890.00,0.0147
889.00,0.0146
888.00,0.0144
887.00,0.0143
886.00,0.0143
885.00,0.0144
884.00,0.0145
883.00,0.0148
882.00,0.0151
881.00,0.0155
880.00,0.0160
879.00,0.0165
878.00,0.0172
877.00,0.0180
876.00,0.0186
875.00,0.0192
874.00,0.0199
873.00,0.0205
872.00,0.0210
871.00,0.0214
870.00,0.0217
869.00,0.0218
868.00,0.0218
867.00,0.0217
866.00,0.0218
865.00,0.0218
864.00,0.0218
863.00,0.0219
862.00,0.0220
861.00,0.0221
860.00,0.0222
859.00,0.0224
858.00,0.0226
857.00,0.0229
856.00,0.0232
855.00,0.0235
854.00,0.0240
853.00,0.0245
852.00,0.0249
851.00,0.0252
850.00,0.0256
849.00,0.0260
848.00,0.0262
847.00,0.0265
846.00,0.0268
845.00,0.0270
844.00,0.0271
843.00,0.0271
842.00,0.0272
841.00,0.0271
840.00,0.0270
839.00,0.0270
838.00,0.0270
837.00,0.0271
836.00,0.0271
835.00,0.0272
834.00,0.0273
833.00,0.0275
832.00,0.0275
831.00,0.0275
830.00,0.0276
829.00,0.0277
828.00,0.0276
827.00,0.0276
826.00,0.0277
825.00,0.0277
824.00,0.0278
823.00,0.0278
822.00,0.0279
821.00,0.0281
820.00,0.0282
819.00,0.0283
818.00,0.0285
817.00,0.0286
816.00,0.0286
815.00,0.0286
814.00,0.0284
813.00,0.0281
812.00,0.0274
811.00,0.0265
810.00,0.0255
809.00,0.0243
808.00,0.0229
807.00,0.0217
806.00,0.0206
805.00,0.0196
804.00,0.0188
803.00,0.0182
802.00,0.0178
801.00,0.0175
800.00,0.0172
799.00,0.0170
798.00,0.0170
797.00,0.0170
796.00,0.0170
795.00,0.0170
794.00,0.0171
793.00,0.0172
792.00,0.0172
791.00,0.0173
790.00,0.0174
789.00,0.0175
788.00,0.0174
787.00,0.0174
786.00,0.0175
785.00,0.0176
784.00,0.0176
783.00,0.0177
782.00,0.0178
781.00,0.0180
780.00,0.0182
779.00,0.0185
778.00,0.0188
777.00,0.0190
776.00,0.0190
775.00,0.0189
774.00,0.0188
773.00,0.0186
772.00,0.0185
771.00,0.0184
770.00,0.0185
769.00,0.0187
768.00,0.0189
767.00,0.0191
766.00,0.0194
765.00,0.0197
764.00,0.0199
763.00,0.0202
762.00,0.0206
761.00,0.0209
760.00,0.0212
759.00,0.0215
758.00,0.0220
757.00,0.0224
756.00,0.0228
755.00,0.0232
754.00,0.0236
753.00,0.0240
752.00,0.0244
751.00,0.0248
750.00,0.0253
749.00,0.0257
748.00,0.0260
747.00,0.0264
746.00,0.0269
745.00,0.0274
744.00,0.0279
743.00,0.0285
742.00,0.0293
741.00,0.0302
740.00,0.0311
739.00,0.0320
738.00,0.0328
737.00,0.0334
736.00,0.0335
735.00,0.0333
734.00,0.0329
733.00,0.0323
732.00,0.0315
731.00,0.0307
730.00,0.0300
729.00,0.0293
728.00,0.0286
727.00,0.0279
726.00,0.0274
725.00,0.0268
724.00,0.0263
723.00,0.0258
722.00,0.0254
721.00,0.0251
720.00,0.0247
719.00,0.0245
718.00,0.0245
717.00,0.0245
716.00,0.0244
715.00,0.0244
714.00,0.0244
713.00,0.0244
712.00,0.0243
711.00,0.0242
710.00,0.0241
709.00,0.0240
708.00,0.0238
707.00,0.0236
706.00,0.0236
705.00,0.0236
704.00,0.0236
703.00,0.0237
702.00,0.0239
701.00,0.0239
700.00,0.0240
699.00,0.0242
698.00,0.0246
697.00,0.0252
696.00,0.0258
695.00,0.0265
694.00,0.0271
693.00,0.0277
692.00,0.0281
691.00,0.0285
690.00,0.0288
689.00,0.0290
688.00,0.0291
687.00,0.0291
686.00,0.0291
685.00,0.0291
684.00,0.0290
683.00,0.0288
682.00,0.0288
681.00,0.0288
680.00,0.0288
679.00,0.0289
678.00,0.0291
677.00,0.0294
676.00,0.0297
675.00,0.0300
674.00,0.0304
673.00,0.0308
672.00,0.0312
671.00,0.0316
670.00,0.0323
669.00,0.0332
668.00,0.0344
667.00,0.0352
666.00,0.0355
665.00,0.0357
664.00,0.0359
663.00,0.0363
662.00,0.0370
661.00,0.0378
660.00,0.0384
659.00,0.0392
658.00,0.0400
657.00,0.0408
656.00,0.0414
655.00,0.0421
654.00,0.0429
653.00,0.0436
652.00,0.0441
651.00,0.0446
650.00,0.0450
649.00,0.0453
648.00,0.0454
647.00,0.0453
646.00,0.0451
645.00,0.0447
644.00,0.0441
643.00,0.0435
642.00,0.0429
641.00,0.0423
640.00,0.0417
639.00,0.0411
638.00,0.0406
637.00,0.0400
636.00,0.0393
635.00,0.0387
634.00,0.0383
633.00,0.0380
632.00,0.0376
631.00,0.0373
630.00,0.0371
629.00,0.0370
628.00,0.0368
627.00,0.0366
626.00,0.0366
625.00,0.0366
624.00,0.0364
623.00,0.0363
622.00,0.0363
621.00,0.0362
620.00,0.0359
619.00,0.0356
618.00,0.0354
617.00,0.0352
616.00,0.0350
615.00,0.0350
614.00,0.0352
613.00,0.0355
612.00,0.0358
611.00,0.0362
610.00,0.0366
609.00,0.0366
608.00,0.0363
607.00,0.0361
606.00,0.0362
605.00,0.0364
604.00,0.0366
603.00,0.0368
602.00,0.0371
601.00,0.0375
600.00,0.0376
599.00,0.0376
598.00,0.0377
597.00,0.0377
596.00,0.0375
595.00,0.0374
594.00,0.0375
593.00,0.0377
592.00,0.0379
591.00,0.0382
590.00,0.0388
589.00,0.0396
588.00,0.0405
587.00,0.0417
586.00,0.0433
585.00,0.0449
584.00,0.0462
583.00,0.0472
582.00,0.0480
581.00,0.0485
580.00,0.0487
579.00,0.0487
578.00,0.0489
577.00,0.0489
576.00,0.0488
575.00,0.0486
574.00,0.0486
573.00,0.0486
572.00,0.0483
571.00,0.0482
570.00,0.0482
569.00,0.0481
568.00,0.0480
567.00,0.0479
566.00,0.0479
565.00,0.0476
564.00,0.0470
563.00,0.0463
562.00,0.0458
561.00,0.0455
560.00,0.0450
559.00,0.0446
558.00,0.0444
557.00,0.0442
556.00,0.0438
555.00,0.0435
554.00,0.0432
553.00,0.0429
552.00,0.0423
551.00,0.0419
550.00,0.0417
549.00,0.0415
548.00,0.0411
547.00,0.0406
546.00,0.0403
545.00,0.0401
544.00,0.0396
543.00,0.0392
542.00,0.0391
541.00,0.0390
540.00,0.0386
539.00,0.0385
538.00,0.0388
537.00,0.0393
536.00,0.0398
535.00,0.0404
534.00,0.0412
533.00,0.0418
532.00,0.0419
531.00,0.0419
530.00,0.0419
529.00,0.0417
528.00,0.0412
527.00,0.0406
526.00,0.0403
525.00,0.0398
524.00,0.0392
523.00,0.0386
522.00,0.0384
521.00,0.0381
520.00,0.0376
519.00,0.0372
518.00,0.0371
517.00,0.0371
516.00,0.0369
515.00,0.0370
514.00,0.0374
513.00,0.0377
512.00,0.0377
511.00,0.0376
510.00,0.0378
509.00,0.0380
508.00,0.0379
507.00,0.0379
506.00,0.0380
505.00,0.0379
504.00,0.0375
503.00,0.0371
502.00,0.0371
501.00,0.0372
500.00,0.0368
499.00,0.0365
498.00,0.0365
497.00,0.0366
496.00,0.0364
495.00,0.0363
494.00,0.0367
493.00,0.0371
492.00,0.0371
491.00,0.0371
490.00,0.0373
489.00,0.0375
488.00,0.0373
487.00,0.0372
486.00,0.0374
485.00,0.0377
484.00,0.0375
483.00,0.0374
482.00,0.0375
481.00,0.0375
480.00,0.0371
479.00,0.0369
478.00,0.0371
477.00,0.0374
476.00,0.0373
475.00,0.0372
474.00,0.0376
473.00,0.0379
472.00,0.0377
471.00,0.0375
470.00,0.0377
469.00,0.0376
468.00,0.0371
467.00,0.0367
466.00,0.0367
465.00,0.0367
464.00,0.0362
463.00,0.0360
462.00,0.0362
461.00,0.0364
460.00,0.0362
459.00,0.0362
458.00,0.0369
457.00,0.0373
456.00,0.0368
455.00,0.0362
454.00,0.0361
453.00,0.0361
452.00,0.0359
451.00,0.0358
450.00,0.0360
449.00,0.0357
448.00,0.0348
447.00,0.0343
446.00,0.0346
445.00,0.0349
444.00,0.0343
443.00,0.0337
442.00,0.0339
441.00,0.0341
440.00,0.0339
439.00,0.0338
438.00,0.0345
437.00,0.0352
436.00,0.0351
435.00,0.0345
434.00,0.0344
433.00,0.0342
432.00,0.0336
431.00,0.0334
430.00,0.0337
429.00,0.0336
428.00,0.0328
427.00,0.0325
426.00,0.0335
425.00,0.0347
424.00,0.0347
423.00,0.0341
422.00,0.0342
421.00,0.0345
420.00,0.0344
419.00,0.0346
418.00,0.0358
417.00,0.0360
416.00,0.0349
415.00,0.0340
414.00,0.0345
413.00,0.0350
412.00,0.0345
411.00,0.0342
410.00,0.0353
409.00,0.0364
408.00,0.0362
407.00,0.0358
406.00,0.0367
405.00,0.0373
404.00,0.0364
403.00,0.0351
402.00,0.0345
401.00,0.0332
400.00,0.0303
