Created as New Dataset,Sample 679 By YargerLab Date Thursday, June 12 2025
cm-1,A
4000.00,0.0069
3999.00,0.0069
3998.00,0.0070
3997.00,0.0070
3996.00,0.0070
3995.00,0.0070
3994.00,0.0070
3993.00,0.0070
3992.00,0.0070
3991.00,0.0070
3990.00,0.0070
3989.00,0.0070
3988.00,0.0070
3987.00,0.0070
3986.00,0.0070
3985.00,0.0070
3984.00,0.0070
3983.00,0.0070
3982.00,0.0070
3981.00,0.0070
3980.00,0.0070
3979.00,0.0070
3978.00,0.0069
3977.00,0.0069
3976.00,0.0069
3975.00,0.0069
3974.00,0.0069
3973.00,0.0070
3972.00,0.0070
3971.00,0.0070
3970.00,0.0070
3969.00,0.0070
3968.00,0.0070
3967.00,0.0070
3966.00,0.0070
3965.00,0.0070
3964.00,0.0070
3963.00,0.0070
3962.00,0.0070
3961.00,0.0070
3960.00,0.0070
3959.00,0.0070
3958.00,0.0070
3957.00,0.0070
3956.00,0.0070
3955.00,0.0070
3954.00,0.0070
3953.00,0.0070
3952.00,0.0070
3951.00,0.0070
3950.00,0.0070
3949.00,0.0070
3948.00,0.0070
3947.00,0.0070
3946.00,0.0070
3945.00,0.0070
3944.00,0.0070
3943.00,0.0070
3942.00,0.0070
3941.00,0.0070
3940.00,0.0070
3939.00,0.0070
3938.00,0.0070
3937.00,0.0070
3936.00,0.0070
3935.00,0.0070
3934.00,0.0070
3933.00,0.0070
3932.00,0.0070
3931.00,0.0069
3930.00,0.0069
3929.00,0.0069
3928.00,0.0070
3927.00,0.0070
3926.00,0.0070
3925.00,0.0070
3924.00,0.0070
3923.00,0.0070
3922.00,0.0070
3921.00,0.0070
3920.00,0.0070
3919.00,0.0070
3918.00,0.0070
3917.00,0.0069
3916.00,0.0069
3915.00,0.0069
3914.00,0.0069
3913.00,0.0069
3912.00,0.0069
3911.00,0.0069
3910.00,0.0069
3909.00,0.0069
3908.00,0.0069
3907.00,0.0069
3906.00,0.0069
3905.00,0.0070
3904.00,0.0070
3903.00,0.0070
3902.00,0.0070
3901.00,0.0070
3900.00,0.0070
3899.00,0.0070
3898.00,0.0069
3897.00,0.0069
3896.00,0.0069
3895.00,0.0069
3894.00,0.0069
3893.00,0.0069
3892.00,0.0069
3891.00,0.0069
3890.00,0.0069
3889.00,0.0069
3888.00,0.0069
3887.00,0.0069
3886.00,0.0069
3885.00,0.0069
3884.00,0.0069
3883.00,0.0068
3882.00,0.0068
3881.00,0.0068
3880.00,0.0068
3879.00,0.0069
3878.00,0.0069
3877.00,0.0069
3876.00,0.0068
3875.00,0.0068
3874.00,0.0069
3873.00,0.0069
3872.00,0.0069
3871.00,0.0069
3870.00,0.0069
3869.00,0.0069
3868.00,0.0069
3867.00,0.0069
3866.00,0.0069
3865.00,0.0068
3864.00,0.0069
3863.00,0.0069
3862.00,0.0069
3861.00,0.0069
3860.00,0.0069
3859.00,0.0068
3858.00,0.0068
3857.00,0.0068
3856.00,0.0068
3855.00,0.0067
3854.00,0.0067
3853.00,0.0068
3852.00,0.0068
3851.00,0.0068
3850.00,0.0068
3849.00,0.0068
3848.00,0.0068
3847.00,0.0068
3846.00,0.0068
3845.00,0.0068
3844.00,0.0068
3843.00,0.0068
3842.00,0.0069
3841.00,0.0069
3840.00,0.0068
3839.00,0.0068
3838.00,0.0068
3837.00,0.0068
3836.00,0.0068
3835.00,0.0068
3834.00,0.0068
3833.00,0.0069
3832.00,0.0069
3831.00,0.0069
3830.00,0.0068
3829.00,0.0068
3828.00,0.0068
3827.00,0.0068
3826.00,0.0068
3825.00,0.0068
3824.00,0.0068
3823.00,0.0068
3822.00,0.0068
3821.00,0.0069
3820.00,0.0069
3819.00,0.0068
3818.00,0.0068
3817.00,0.0068
3816.00,0.0068
3815.00,0.0068
3814.00,0.0068
3813.00,0.0068
3812.00,0.0068
3811.00,0.0068
3810.00,0.0068
3809.00,0.0068
3808.00,0.0068
3807.00,0.0068
3806.00,0.0069
3805.00,0.0069
3804.00,0.0069
3803.00,0.0069
3802.00,0.0069
3801.00,0.0069
3800.00,0.0069
3799.00,0.0069
3798.00,0.0069
3797.00,0.0069
3796.00,0.0069
3795.00,0.0069
3794.00,0.0069
3793.00,0.0069
3792.00,0.0069
3791.00,0.0069
3790.00,0.0069
3789.00,0.0068
3788.00,0.0068
3787.00,0.0068
3786.00,0.0068
3785.00,0.0068
3784.00,0.0069
3783.00,0.0069
3782.00,0.0069
3781.00,0.0069
3780.00,0.0069
3779.00,0.0069
3778.00,0.0069
3777.00,0.0069
3776.00,0.0068
3775.00,0.0068
3774.00,0.0068
3773.00,0.0068
3772.00,0.0069
3771.00,0.0069
3770.00,0.0069
3769.00,0.0069
3768.00,0.0069
3767.00,0.0069
3766.00,0.0069
3765.00,0.0069
3764.00,0.0069
3763.00,0.0069
3762.00,0.0069
3761.00,0.0069
3760.00,0.0069
3759.00,0.0069
3758.00,0.0069
3757.00,0.0069
3756.00,0.0069
3755.00,0.0069
3754.00,0.0069
3753.00,0.0069
3752.00,0.0069
3751.00,0.0068
3750.00,0.0068
3749.00,0.0068
3748.00,0.0068
3747.00,0.0068
3746.00,0.0068
3745.00,0.0068
3744.00,0.0068
3743.00,0.0068
3742.00,0.0068
3741.00,0.0068
3740.00,0.0068
3739.00,0.0068
3738.00,0.0068
3737.00,0.0067
3736.00,0.0067
3735.00,0.0067
3734.00,0.0067
3733.00,0.0067
3732.00,0.0067
3731.00,0.0067
3730.00,0.0067
3729.00,0.0067
3728.00,0.0067
3727.00,0.0067
3726.00,0.0067
3725.00,0.0066
3724.00,0.0066
3723.00,0.0066
3722.00,0.0066
3721.00,0.0066
3720.00,0.0066
3719.00,0.0066
3718.00,0.0067
3717.00,0.0067
3716.00,0.0067
3715.00,0.0067
3714.00,0.0067
3713.00,0.0067
3712.00,0.0067
3711.00,0.0067
3710.00,0.0067
3709.00,0.0067
3708.00,0.0067
3707.00,0.0066
3706.00,0.0066
3705.00,0.0066
3704.00,0.0066
3703.00,0.0065
3702.00,0.0065
3701.00,0.0066
3700.00,0.0066
3699.00,0.0066
3698.00,0.0066
3697.00,0.0066
3696.00,0.0066
3695.00,0.0066
3694.00,0.0066
3693.00,0.0066
3692.00,0.0066
3691.00,0.0066
3690.00,0.0066
3689.00,0.0066
3688.00,0.0066
3687.00,0.0065
3686.00,0.0065
3685.00,0.0065
3684.00,0.0065
3683.00,0.0065
3682.00,0.0065
3681.00,0.0065
3680.00,0.0065
3679.00,0.0064
3678.00,0.0064
3677.00,0.0064
3676.00,0.0063
3675.00,0.0063
3674.00,0.0063
3673.00,0.0063
3672.00,0.0062
3671.00,0.0062
3670.00,0.0062
3669.00,0.0062
3668.00,0.0062
3667.00,0.0062
3666.00,0.0062
3665.00,0.0062
3664.00,0.0062
3663.00,0.0062
3662.00,0.0062
3661.00,0.0062
3660.00,0.0062
3659.00,0.0063
3658.00,0.0063
3657.00,0.0063
3656.00,0.0063
3655.00,0.0063
3654.00,0.0063
3653.00,0.0064
3652.00,0.0064
3651.00,0.0065
3650.00,0.0065
3649.00,0.0065
3648.00,0.0065
3647.00,0.0065
3646.00,0.0065
3645.00,0.0065
3644.00,0.0065
3643.00,0.0066
3642.00,0.0066
3641.00,0.0066
3640.00,0.0066
3639.00,0.0066
3638.00,0.0066
3637.00,0.0066
3636.00,0.0066
3635.00,0.0067
3634.00,0.0067
3633.00,0.0068
3632.00,0.0069
3631.00,0.0069
3630.00,0.0069
3629.00,0.0069
3628.00,0.0069
3627.00,0.0069
3626.00,0.0069
3625.00,0.0069
3624.00,0.0070
3623.00,0.0070
3622.00,0.0070
3621.00,0.0070
3620.00,0.0070
3619.00,0.0070
3618.00,0.0071
3617.00,0.0071
3616.00,0.0072
3615.00,0.0072
3614.00,0.0072
3613.00,0.0072
3612.00,0.0072
3611.00,0.0072
3610.00,0.0072
3609.00,0.0072
3608.00,0.0072
3607.00,0.0072
3606.00,0.0072
3605.00,0.0072
3604.00,0.0072
3603.00,0.0072
3602.00,0.0072
3601.00,0.0072
3600.00,0.0072
3599.00,0.0073
3598.00,0.0073
3597.00,0.0074
3596.00,0.0074
3595.00,0.0074
3594.00,0.0074
3593.00,0.0074
3592.00,0.0074
3591.00,0.0074
3590.00,0.0074
3589.00,0.0074
3588.00,0.0074
3587.00,0.0075
3586.00,0.0075
3585.00,0.0076
3584.00,0.0076
3583.00,0.0077
3582.00,0.0077
3581.00,0.0076
3580.00,0.0076
3579.00,0.0076
3578.00,0.0077
3577.00,0.0077
3576.00,0.0078
3575.00,0.0079
3574.00,0.0079
3573.00,0.0079
3572.00,0.0080
3571.00,0.0080
3570.00,0.0080
3569.00,0.0080
3568.00,0.0080
3567.00,0.0081
3566.00,0.0081
3565.00,0.0081
3564.00,0.0081
3563.00,0.0081
3562.00,0.0082
3561.00,0.0082
3560.00,0.0082
3559.00,0.0082
3558.00,0.0082
3557.00,0.0083
3556.00,0.0083
3555.00,0.0083
3554.00,0.0083
3553.00,0.0083
3552.00,0.0083
3551.00,0.0083
3550.00,0.0084
3549.00,0.0084
3548.00,0.0084
3547.00,0.0084
3546.00,0.0084
3545.00,0.0084
3544.00,0.0084
3543.00,0.0084
3542.00,0.0084
3541.00,0.0084
3540.00,0.0084
3539.00,0.0084
3538.00,0.0084
3537.00,0.0084
3536.00,0.0084
3535.00,0.0084
3534.00,0.0084
3533.00,0.0084
3532.00,0.0084
3531.00,0.0084
3530.00,0.0084
3529.00,0.0085
3528.00,0.0085
3527.00,0.0084
3526.00,0.0084
3525.00,0.0084
3524.00,0.0084
3523.00,0.0085
3522.00,0.0085
3521.00,0.0085
3520.00,0.0085
3519.00,0.0085
3518.00,0.0085
3517.00,0.0085
3516.00,0.0085
3515.00,0.0085
3514.00,0.0085
3513.00,0.0085
3512.00,0.0085
3511.00,0.0085
3510.00,0.0085
3509.00,0.0085
3508.00,0.0085
3507.00,0.0085
3506.00,0.0085
3505.00,0.0085
3504.00,0.0085
3503.00,0.0085
3502.00,0.0085
3501.00,0.0085
3500.00,0.0085
3499.00,0.0085
3498.00,0.0085
3497.00,0.0085
3496.00,0.0085
3495.00,0.0085
3494.00,0.0085
3493.00,0.0085
3492.00,0.0085
3491.00,0.0085
3490.00,0.0085
3489.00,0.0086
3488.00,0.0085
3487.00,0.0085
3486.00,0.0085
3485.00,0.0085
3484.00,0.0085
3483.00,0.0085
3482.00,0.0085
3481.00,0.0085
3480.00,0.0085
3479.00,0.0085
3478.00,0.0085
3477.00,0.0085
3476.00,0.0085
3475.00,0.0085
3474.00,0.0085
3473.00,0.0085
3472.00,0.0085
3471.00,0.0085
3470.00,0.0085
3469.00,0.0085
3468.00,0.0084
3467.00,0.0084
3466.00,0.0084
3465.00,0.0084
3464.00,0.0084
3463.00,0.0084
3462.00,0.0085
3461.00,0.0085
3460.00,0.0085
3459.00,0.0085
3458.00,0.0085
3457.00,0.0086
3456.00,0.0086
3455.00,0.0086
3454.00,0.0087
3453.00,0.0087
3452.00,0.0088
3451.00,0.0088
3450.00,0.0089
3449.00,0.0090
3448.00,0.0090
3447.00,0.0091
3446.00,0.0091
3445.00,0.0092
3444.00,0.0093
3443.00,0.0093
3442.00,0.0094
3441.00,0.0095
3440.00,0.0095
3439.00,0.0096
3438.00,0.0097
3437.00,0.0098
3436.00,0.0099
3435.00,0.0101
3434.00,0.0102
3433.00,0.0103
3432.00,0.0104
3431.00,0.0105
3430.00,0.0107
3429.00,0.0108
3428.00,0.0109
3427.00,0.0111
3426.00,0.0112
3425.00,0.0113
3424.00,0.0114
3423.00,0.0115
3422.00,0.0116
3421.00,0.0117
3420.00,0.0118
3419.00,0.0118
3418.00,0.0119
3417.00,0.0120
3416.00,0.0120
3415.00,0.0121
3414.00,0.0121
3413.00,0.0121
3412.00,0.0121
3411.00,0.0122
3410.00,0.0123
3409.00,0.0124
3408.00,0.0124
3407.00,0.0125
3406.00,0.0126
3405.00,0.0126
3404.00,0.0126
3403.00,0.0127
3402.00,0.0127
3401.00,0.0128
3400.00,0.0129
3399.00,0.0130
3398.00,0.0132
3397.00,0.0134
3396.00,0.0135
3395.00,0.0137
3394.00,0.0139
3393.00,0.0140
3392.00,0.0142
3391.00,0.0145
3390.00,0.0148
3389.00,0.0151
3388.00,0.0153
3387.00,0.0156
3386.00,0.0159
3385.00,0.0162
3384.00,0.0165
3383.00,0.0168
3382.00,0.0171
3381.00,0.0174
3380.00,0.0177
3379.00,0.0181
3378.00,0.0185
3377.00,0.0190
3376.00,0.0194
3375.00,0.0199
3374.00,0.0203
3373.00,0.0208
3372.00,0.0212
3371.00,0.0217
3370.00,0.0222
3369.00,0.0227
3368.00,0.0233
3367.00,0.0239
3366.00,0.0246
3365.00,0.0252
3364.00,0.0259
3363.00,0.0265
3362.00,0.0271
3361.00,0.0278
3360.00,0.0284
3359.00,0.0290
3358.00,0.0297
3357.00,0.0303
3356.00,0.0309
3355.00,0.0315
3354.00,0.0321
3353.00,0.0327
3352.00,0.0332
3351.00,0.0338
3350.00,0.0343
3349.00,0.0348
3348.00,0.0353
3347.00,0.0358
3346.00,0.0362
3345.00,0.0366
3344.00,0.0370
3343.00,0.0373
3342.00,0.0376
3341.00,0.0378
3340.00,0.0380
3339.00,0.0382
3338.00,0.0384
3337.00,0.0385
3336.00,0.0386
3335.00,0.0386
3334.00,0.0386
3333.00,0.0386
3332.00,0.0386
3331.00,0.0385
3330.00,0.0384
3329.00,0.0382
3328.00,0.0381
3327.00,0.0379
3326.00,0.0377
3325.00,0.0375
3324.00,0.0372
3323.00,0.0370
3322.00,0.0368
3321.00,0.0365
3320.00,0.0362
3319.00,0.0359
3318.00,0.0356
3317.00,0.0353
3316.00,0.0349
3315.00,0.0346
3314.00,0.0342
3313.00,0.0338
3312.00,0.0334
3311.00,0.0330
3310.00,0.0326
3309.00,0.0321
3308.00,0.0316
3307.00,0.0311
3306.00,0.0306
3305.00,0.0302
3304.00,0.0297
3303.00,0.0293
3302.00,0.0289
3301.00,0.0284
3300.00,0.0280
3299.00,0.0275
3298.00,0.0270
3297.00,0.0266
3296.00,0.0261
3295.00,0.0257
3294.00,0.0253
3293.00,0.0249
3292.00,0.0245
3291.00,0.0241
3290.00,0.0238
3289.00,0.0234
3288.00,0.0230
3287.00,0.0227
3286.00,0.0224
3285.00,0.0221
3284.00,0.0218
3283.00,0.0215
3282.00,0.0212
3281.00,0.0209
3280.00,0.0207
3279.00,0.0204
3278.00,0.0202
3277.00,0.0199
3276.00,0.0197
3275.00,0.0195
3274.00,0.0193
3273.00,0.0191
3272.00,0.0189
3271.00,0.0187
3270.00,0.0186
3269.00,0.0184
3268.00,0.0183
3267.00,0.0183
3266.00,0.0182
3265.00,0.0181
3264.00,0.0180
3263.00,0.0180
3262.00,0.0179
3261.00,0.0179
3260.00,0.0178
3259.00,0.0178
3258.00,0.0177
3257.00,0.0177
3256.00,0.0176
3255.00,0.0175
3254.00,0.0175
3253.00,0.0175
3252.00,0.0175
3251.00,0.0174
3250.00,0.0174
3249.00,0.0174
3248.00,0.0174
3247.00,0.0173
3246.00,0.0173
3245.00,0.0173
3244.00,0.0173
3243.00,0.0172
3242.00,0.0171
3241.00,0.0171
3240.00,0.0170
3239.00,0.0170
3238.00,0.0169
3237.00,0.0168
3236.00,0.0167
3235.00,0.0165
3234.00,0.0164
3233.00,0.0163
3232.00,0.0162
3231.00,0.0161
3230.00,0.0160
3229.00,0.0159
3228.00,0.0158
3227.00,0.0156
3226.00,0.0155
3225.00,0.0153
3224.00,0.0152
3223.00,0.0150
3222.00,0.0149
3221.00,0.0148
3220.00,0.0146
3219.00,0.0145
3218.00,0.0143
3217.00,0.0142
3216.00,0.0140
3215.00,0.0139
3214.00,0.0137
3213.00,0.0136
3212.00,0.0134
3211.00,0.0133
3210.00,0.0132
3209.00,0.0131
3208.00,0.0129
3207.00,0.0128
3206.00,0.0127
3205.00,0.0126
3204.00,0.0125
3203.00,0.0124
3202.00,0.0123
3201.00,0.0122
3200.00,0.0120
3199.00,0.0119
3198.00,0.0119
3197.00,0.0118
3196.00,0.0117
3195.00,0.0117
3194.00,0.0116
3193.00,0.0115
3192.00,0.0114
3191.00,0.0114
3190.00,0.0113
3189.00,0.0113
3188.00,0.0112
3187.00,0.0111
3186.00,0.0111
3185.00,0.0110
3184.00,0.0110
3183.00,0.0110
3182.00,0.0109
3181.00,0.0109
3180.00,0.0108
3179.00,0.0108
3178.00,0.0107
3177.00,0.0107
3176.00,0.0107
3175.00,0.0106
3174.00,0.0106
3173.00,0.0106
3172.00,0.0106
3171.00,0.0106
3170.00,0.0105
3169.00,0.0105
3168.00,0.0105
3167.00,0.0104
3166.00,0.0104
3165.00,0.0104
3164.00,0.0104
3163.00,0.0104
3162.00,0.0104
3161.00,0.0104
3160.00,0.0104
3159.00,0.0104
3158.00,0.0104
3157.00,0.0104
3156.00,0.0104
3155.00,0.0104
3154.00,0.0104
3153.00,0.0103
3152.00,0.0103
3151.00,0.0103
3150.00,0.0104
3149.00,0.0104
3148.00,0.0104
3147.00,0.0105
3146.00,0.0105
3145.00,0.0105
3144.00,0.0105
3143.00,0.0105
3142.00,0.0105
3141.00,0.0105
3140.00,0.0105
3139.00,0.0106
3138.00,0.0106
3137.00,0.0107
3136.00,0.0107
3135.00,0.0108
3134.00,0.0108
3133.00,0.0109
3132.00,0.0110
3131.00,0.0110
3130.00,0.0111
3129.00,0.0112
3128.00,0.0114
3127.00,0.0115
3126.00,0.0116
3125.00,0.0117
3124.00,0.0118
3123.00,0.0119
3122.00,0.0120
3121.00,0.0121
3120.00,0.0122
3119.00,0.0124
3118.00,0.0125
3117.00,0.0126
3116.00,0.0128
3115.00,0.0129
3114.00,0.0131
3113.00,0.0132
3112.00,0.0134
3111.00,0.0136
3110.00,0.0137
3109.00,0.0138
3108.00,0.0139
3107.00,0.0140
3106.00,0.0141
3105.00,0.0141
3104.00,0.0141
3103.00,0.0142
3102.00,0.0142
3101.00,0.0142
3100.00,0.0142
3099.00,0.0142
3098.00,0.0141
3097.00,0.0140
3096.00,0.0140
3095.00,0.0139
3094.00,0.0138
3093.00,0.0137
3092.00,0.0136
3091.00,0.0135
3090.00,0.0134
3089.00,0.0133
3088.00,0.0132
3087.00,0.0130
3086.00,0.0129
3085.00,0.0128
3084.00,0.0127
3083.00,0.0126
3082.00,0.0125
3081.00,0.0124
3080.00,0.0124
3079.00,0.0123
3078.00,0.0122
3077.00,0.0121
3076.00,0.0121
3075.00,0.0120
3074.00,0.0120
3073.00,0.0120
3072.00,0.0119
3071.00,0.0119
3070.00,0.0119
3069.00,0.0119
3068.00,0.0119
3067.00,0.0119
3066.00,0.0119
3065.00,0.0119
3064.00,0.0119
3063.00,0.0119
3062.00,0.0119
3061.00,0.0119
3060.00,0.0118
3059.00,0.0117
3058.00,0.0116
3057.00,0.0115
3056.00,0.0114
3055.00,0.0112
3054.00,0.0111
3053.00,0.0110
3052.00,0.0109
3051.00,0.0108
3050.00,0.0107
3049.00,0.0106
3048.00,0.0106
3047.00,0.0105
3046.00,0.0104
3045.00,0.0104
3044.00,0.0104
3043.00,0.0104
3042.00,0.0104
3041.00,0.0104
3040.00,0.0104
3039.00,0.0104
3038.00,0.0104
3037.00,0.0104
3036.00,0.0105
3035.00,0.0105
3034.00,0.0106
3033.00,0.0107
3032.00,0.0108
3031.00,0.0109
3030.00,0.0110
3029.00,0.0111
3028.00,0.0112
3027.00,0.0112
3026.00,0.0113
3025.00,0.0114
3024.00,0.0115
3023.00,0.0116
3022.00,0.0117
3021.00,0.0118
3020.00,0.0119
3019.00,0.0120
3018.00,0.0121
3017.00,0.0122
3016.00,0.0123
3015.00,0.0124
3014.00,0.0124
3013.00,0.0125
3012.00,0.0126
3011.00,0.0127
3010.00,0.0128
3009.00,0.0130
3008.00,0.0132
3007.00,0.0134
3006.00,0.0136
3005.00,0.0138
3004.00,0.0140
3003.00,0.0142
3002.00,0.0144
3001.00,0.0147
3000.00,0.0150
2999.00,0.0153
2998.00,0.0157
2997.00,0.0160
2996.00,0.0164
2995.00,0.0167
2994.00,0.0171
2993.00,0.0174
2992.00,0.0177
2991.00,0.0180
2990.00,0.0183
2989.00,0.0185
2988.00,0.0187
2987.00,0.0187
2986.00,0.0186
2985.00,0.0184
2984.00,0.0179
2983.00,0.0174
2982.00,0.0171
2981.00,0.0169
2980.00,0.0170
2979.00,0.0172
2978.00,0.0174
2977.00,0.0174
2976.00,0.0173
2975.00,0.0170
2974.00,0.0166
2973.00,0.0161
2972.00,0.0155
2971.00,0.0151
2970.00,0.0149
2969.00,0.0148
2968.00,0.0147
2967.00,0.0148
2966.00,0.0148
2965.00,0.0149
2964.00,0.0150
2963.00,0.0153
2962.00,0.0155
2961.00,0.0159
2960.00,0.0162
2959.00,0.0167
2958.00,0.0172
2957.00,0.0177
2956.00,0.0183
2955.00,0.0188
2954.00,0.0194
2953.00,0.0199
2952.00,0.0204
2951.00,0.0209
2950.00,0.0213
2949.00,0.0215
2948.00,0.0217
2947.00,0.0217
2946.00,0.0215
2945.00,0.0213
2944.00,0.0210
2943.00,0.0207
2942.00,0.0203
2941.00,0.0199
2940.00,0.0196
2939.00,0.0192
2938.00,0.0189
2937.00,0.0187
2936.00,0.0185
2935.00,0.0184
2934.00,0.0182
2933.00,0.0180
2932.00,0.0178
2931.00,0.0176
2930.00,0.0174
2929.00,0.0172
2928.00,0.0170
2927.00,0.0167
2926.00,0.0165
2925.00,0.0162
2924.00,0.0160
2923.00,0.0157
2922.00,0.0155
2921.00,0.0152
2920.00,0.0150
2919.00,0.0148
2918.00,0.0146
2917.00,0.0144
2916.00,0.0142
2915.00,0.0141
2914.00,0.0140
2913.00,0.0140
2912.00,0.0140
2911.00,0.0140
2910.00,0.0140
2909.00,0.0141
2908.00,0.0142
2907.00,0.0142
2906.00,0.0143
2905.00,0.0143
2904.00,0.0144
2903.00,0.0143
2902.00,0.0143
2901.00,0.0142
2900.00,0.0140
2899.00,0.0139
2898.00,0.0136
2897.00,0.0134
2896.00,0.0131
2895.00,0.0129
2894.00,0.0126
2893.00,0.0124
2892.00,0.0121
2891.00,0.0119
2890.00,0.0117
2889.00,0.0115
2888.00,0.0114
2887.00,0.0112
2886.00,0.0111
2885.00,0.0110
2884.00,0.0109
2883.00,0.0109
2882.00,0.0109
2881.00,0.0109
2880.00,0.0110
2879.00,0.0110
2878.00,0.0111
2877.00,0.0111
2876.00,0.0111
2875.00,0.0111
2874.00,0.0111
2873.00,0.0111
2872.00,0.0112
2871.00,0.0112
2870.00,0.0112
2869.00,0.0112
2868.00,0.0112
2867.00,0.0111
2866.00,0.0111
2865.00,0.0110
2864.00,0.0110
2863.00,0.0110
2862.00,0.0109
2861.00,0.0109
2860.00,0.0108
2859.00,0.0108
2858.00,0.0108
2857.00,0.0109
2856.00,0.0109
2855.00,0.0110
2854.00,0.0111
2853.00,0.0112
2852.00,0.0113
2851.00,0.0114
2850.00,0.0114
2849.00,0.0115
2848.00,0.0116
2847.00,0.0116
2846.00,0.0117
2845.00,0.0118
2844.00,0.0118
2843.00,0.0119
2842.00,0.0119
2841.00,0.0118
2840.00,0.0118
2839.00,0.0118
2838.00,0.0117
2837.00,0.0116
2836.00,0.0115
2835.00,0.0114
2834.00,0.0113
2833.00,0.0112
2832.00,0.0111
2831.00,0.0109
2830.00,0.0108
2829.00,0.0107
2828.00,0.0107
2827.00,0.0106
2826.00,0.0106
2825.00,0.0105
2824.00,0.0105
2823.00,0.0105
2822.00,0.0105
2821.00,0.0105
2820.00,0.0105
2819.00,0.0105
2818.00,0.0105
2817.00,0.0105
2816.00,0.0105
2815.00,0.0105
2814.00,0.0105
2813.00,0.0105
2812.00,0.0105
2811.00,0.0104
2810.00,0.0104
2809.00,0.0104
2808.00,0.0104
2807.00,0.0104
2806.00,0.0104
2805.00,0.0104
2804.00,0.0104
2803.00,0.0103
2802.00,0.0103
2801.00,0.0102
2800.00,0.0102
2799.00,0.0101
2798.00,0.0101
2797.00,0.0100
2796.00,0.0100
2795.00,0.0100
2794.00,0.0099
2793.00,0.0099
2792.00,0.0098
2791.00,0.0098
2790.00,0.0098
2789.00,0.0097
2788.00,0.0097
2787.00,0.0096
2786.00,0.0096
2785.00,0.0095
2784.00,0.0095
2783.00,0.0094
2782.00,0.0094
2781.00,0.0093
2780.00,0.0093
2779.00,0.0093
2778.00,0.0093
2777.00,0.0092
2776.00,0.0092
2775.00,0.0092
2774.00,0.0092
2773.00,0.0091
2772.00,0.0091
2771.00,0.0091
2770.00,0.0091
2769.00,0.0091
2768.00,0.0091
2767.00,0.0090
2766.00,0.0090
2765.00,0.0090
2764.00,0.0090
2763.00,0.0089
2762.00,0.0089
2761.00,0.0089
2760.00,0.0089
2759.00,0.0089
2758.00,0.0089
2757.00,0.0089
2756.00,0.0089
2755.00,0.0089
2754.00,0.0089
2753.00,0.0089
2752.00,0.0089
2751.00,0.0090
2750.00,0.0090
2749.00,0.0090
2748.00,0.0090
2747.00,0.0090
2746.00,0.0090
2745.00,0.0090
2744.00,0.0089
2743.00,0.0089
2742.00,0.0089
2741.00,0.0089
2740.00,0.0088
2739.00,0.0088
2738.00,0.0088
2737.00,0.0087
2736.00,0.0087
2735.00,0.0087
2734.00,0.0087
2733.00,0.0087
2732.00,0.0086
2731.00,0.0086
2730.00,0.0086
2729.00,0.0086
2728.00,0.0086
2727.00,0.0085
2726.00,0.0085
2725.00,0.0085
2724.00,0.0085
2723.00,0.0085
2722.00,0.0085
2721.00,0.0085
2720.00,0.0085
2719.00,0.0085
2718.00,0.0085
2717.00,0.0085
2716.00,0.0085
2715.00,0.0085
2714.00,0.0085
2713.00,0.0085
2712.00,0.0085
2711.00,0.0085
2710.00,0.0085
2709.00,0.0085
2708.00,0.0086
2707.00,0.0086
2706.00,0.0086
2705.00,0.0086
2704.00,0.0085
2703.00,0.0085
2702.00,0.0085
2701.00,0.0085
2700.00,0.0085
2699.00,0.0085
2698.00,0.0085
2697.00,0.0085
2696.00,0.0085
2695.00,0.0085
2694.00,0.0085
2693.00,0.0084
2692.00,0.0084
2691.00,0.0084
2690.00,0.0084
2689.00,0.0084
2688.00,0.0084
2687.00,0.0084
2686.00,0.0084
2685.00,0.0083
2684.00,0.0083
2683.00,0.0083
2682.00,0.0083
2681.00,0.0083
2680.00,0.0083
2679.00,0.0083
2678.00,0.0083
2677.00,0.0083
2676.00,0.0083
2675.00,0.0083
2674.00,0.0083
2673.00,0.0083
2672.00,0.0083
2671.00,0.0083
2670.00,0.0083
2669.00,0.0083
2668.00,0.0083
2667.00,0.0083
2666.00,0.0084
2665.00,0.0084
2664.00,0.0085
2663.00,0.0085
2662.00,0.0085
2661.00,0.0086
2660.00,0.0086
2659.00,0.0086
2658.00,0.0087
2657.00,0.0087
2656.00,0.0087
2655.00,0.0087
2654.00,0.0087
2653.00,0.0087
2652.00,0.0087
2651.00,0.0087
2650.00,0.0087
2649.00,0.0087
2648.00,0.0087
2647.00,0.0087
2646.00,0.0087
2645.00,0.0087
2644.00,0.0087
2643.00,0.0087
2642.00,0.0087
2641.00,0.0087
2640.00,0.0088
2639.00,0.0088
2638.00,0.0088
2637.00,0.0088
2636.00,0.0088
2635.00,0.0087
2634.00,0.0087
2633.00,0.0087
2632.00,0.0088
2631.00,0.0088
2630.00,0.0088
2629.00,0.0088
2628.00,0.0088
2627.00,0.0088
2626.00,0.0088
2625.00,0.0088
2624.00,0.0089
2623.00,0.0089
2622.00,0.0089
2621.00,0.0089
2620.00,0.0089
2619.00,0.0089
2618.00,0.0088
2617.00,0.0088
2616.00,0.0088
2615.00,0.0088
2614.00,0.0088
2613.00,0.0088
2612.00,0.0088
2611.00,0.0088
2610.00,0.0087
2609.00,0.0088
2608.00,0.0088
2607.00,0.0088
2606.00,0.0088
2605.00,0.0088
2604.00,0.0088
2603.00,0.0088
2602.00,0.0088
2601.00,0.0088
2600.00,0.0087
2599.00,0.0087
2598.00,0.0086
2597.00,0.0086
2596.00,0.0086
2595.00,0.0086
2594.00,0.0086
2593.00,0.0086
2592.00,0.0085
2591.00,0.0085
2590.00,0.0085
2589.00,0.0085
2588.00,0.0084
2587.00,0.0084
2586.00,0.0084
2585.00,0.0083
2584.00,0.0083
2583.00,0.0083
2582.00,0.0083
2581.00,0.0082
2580.00,0.0082
2579.00,0.0082
2578.00,0.0082
2577.00,0.0081
2576.00,0.0081
2575.00,0.0081
2574.00,0.0081
2573.00,0.0081
2572.00,0.0081
2571.00,0.0081
2570.00,0.0081
2569.00,0.0081
2568.00,0.0081
2567.00,0.0081
2566.00,0.0081
2565.00,0.0081
2564.00,0.0081
2563.00,0.0081
2562.00,0.0081
2561.00,0.0080
2560.00,0.0080
2559.00,0.0080
2558.00,0.0080
2557.00,0.0081
2556.00,0.0081
2555.00,0.0081
2554.00,0.0081
2553.00,0.0081
2552.00,0.0081
2551.00,0.0081
2550.00,0.0081
2549.00,0.0080
2548.00,0.0080
2547.00,0.0080
2546.00,0.0080
2545.00,0.0080
2544.00,0.0080
2543.00,0.0080
2542.00,0.0080
2541.00,0.0079
2540.00,0.0079
2539.00,0.0079
2538.00,0.0078
2537.00,0.0078
2536.00,0.0078
2535.00,0.0079
2534.00,0.0079
2533.00,0.0079
2532.00,0.0080
2531.00,0.0080
2530.00,0.0080
2529.00,0.0080
2528.00,0.0080
2527.00,0.0080
2526.00,0.0080
2525.00,0.0080
2524.00,0.0080
2523.00,0.0080
2522.00,0.0080
2521.00,0.0081
2520.00,0.0081
2519.00,0.0081
2518.00,0.0081
2517.00,0.0081
2516.00,0.0081
2515.00,0.0081
2514.00,0.0081
2513.00,0.0081
2512.00,0.0081
2511.00,0.0081
2510.00,0.0080
2509.00,0.0080
2508.00,0.0080
2507.00,0.0080
2506.00,0.0081
2505.00,0.0081
2504.00,0.0081
2503.00,0.0081
2502.00,0.0081
2501.00,0.0081
2500.00,0.0081
2499.00,0.0081
2498.00,0.0081
2497.00,0.0080
2496.00,0.0080
2495.00,0.0079
2494.00,0.0079
2493.00,0.0079
2492.00,0.0079
2491.00,0.0079
2490.00,0.0079
2489.00,0.0079
2488.00,0.0079
2487.00,0.0079
2486.00,0.0080
2485.00,0.0079
2484.00,0.0079
2483.00,0.0079
2482.00,0.0079
2481.00,0.0079
2480.00,0.0079
2479.00,0.0079
2478.00,0.0079
2477.00,0.0079
2476.00,0.0079
2475.00,0.0078
2474.00,0.0078
2473.00,0.0078
2472.00,0.0079
2471.00,0.0079
2470.00,0.0079
2469.00,0.0079
2468.00,0.0078
2467.00,0.0078
2466.00,0.0078
2465.00,0.0078
2464.00,0.0078
2463.00,0.0078
2462.00,0.0078
2461.00,0.0078
2460.00,0.0079
2459.00,0.0079
2458.00,0.0079
2457.00,0.0080
2456.00,0.0080
2455.00,0.0080
2454.00,0.0080
2453.00,0.0079
2452.00,0.0079
2451.00,0.0079
2450.00,0.0079
2449.00,0.0079
2448.00,0.0079
2447.00,0.0078
2446.00,0.0078
2445.00,0.0078
2444.00,0.0078
2443.00,0.0078
2442.00,0.0079
2441.00,0.0079
2440.00,0.0079
2439.00,0.0078
2438.00,0.0078
2437.00,0.0078
2436.00,0.0078
2435.00,0.0078
2434.00,0.0078
2433.00,0.0078
2432.00,0.0078
2431.00,0.0078
2430.00,0.0078
2429.00,0.0078
2428.00,0.0077
2427.00,0.0077
2426.00,0.0077
2425.00,0.0077
2424.00,0.0077
2423.00,0.0077
2422.00,0.0077
2421.00,0.0077
2420.00,0.0077
2419.00,0.0077
2418.00,0.0077
2417.00,0.0077
2416.00,0.0077
2415.00,0.0077
2414.00,0.0077
2413.00,0.0078
2412.00,0.0078
2411.00,0.0078
2410.00,0.0077
2409.00,0.0077
2408.00,0.0076
2407.00,0.0076
2406.00,0.0076
2405.00,0.0075
2404.00,0.0075
2403.00,0.0075
2402.00,0.0075
2401.00,0.0075
2400.00,0.0075
2399.00,0.0075
2398.00,0.0075
2397.00,0.0075
2396.00,0.0075
2395.00,0.0075
2394.00,0.0075
2393.00,0.0075
2392.00,0.0075
2391.00,0.0074
2390.00,0.0074
2389.00,0.0073
2388.00,0.0073
2387.00,0.0072
2386.00,0.0072
2385.00,0.0071
2384.00,0.0071
2383.00,0.0070
2382.00,0.0069
2381.00,0.0069
2380.00,0.0069
2379.00,0.0069
2378.00,0.0069
2377.00,0.0069
2376.00,0.0070
2375.00,0.0070
2374.00,0.0070
2373.00,0.0069
2372.00,0.0069
2371.00,0.0069
2370.00,0.0069
2369.00,0.0068
2368.00,0.0068
2367.00,0.0068
2366.00,0.0068
2365.00,0.0068
2364.00,0.0068
2363.00,0.0068
2362.00,0.0068
2361.00,0.0069
2360.00,0.0069
2359.00,0.0069
2358.00,0.0069
2357.00,0.0069
2356.00,0.0070
2355.00,0.0070
2354.00,0.0070
2353.00,0.0070
2352.00,0.0070
2351.00,0.0069
2350.00,0.0070
2349.00,0.0070
2348.00,0.0070
2347.00,0.0070
2346.00,0.0070
2345.00,0.0070
2344.00,0.0070
2343.00,0.0070
2342.00,0.0071
2341.00,0.0071
2340.00,0.0072
2339.00,0.0073
2338.00,0.0073
2337.00,0.0073
2336.00,0.0073
2335.00,0.0074
2334.00,0.0073
2333.00,0.0073
2332.00,0.0073
2331.00,0.0073
2330.00,0.0073
2329.00,0.0075
2328.00,0.0078
2327.00,0.0082
2326.00,0.0084
2325.00,0.0086
2324.00,0.0085
2323.00,0.0083
2322.00,0.0081
2321.00,0.0079
2320.00,0.0078
2319.00,0.0077
2318.00,0.0077
2317.00,0.0076
2316.00,0.0076
2315.00,0.0075
2314.00,0.0075
2313.00,0.0074
2312.00,0.0074
2311.00,0.0073
2310.00,0.0072
2309.00,0.0072
2308.00,0.0072
2307.00,0.0073
2306.00,0.0073
2305.00,0.0074
2304.00,0.0075
2303.00,0.0075
2302.00,0.0075
2301.00,0.0075
2300.00,0.0076
2299.00,0.0076
2298.00,0.0077
2297.00,0.0077
2296.00,0.0078
2295.00,0.0079
2294.00,0.0080
2293.00,0.0080
2292.00,0.0081
2291.00,0.0082
2290.00,0.0083
2289.00,0.0084
2288.00,0.0085
2287.00,0.0085
2286.00,0.0085
2285.00,0.0085
2284.00,0.0084
2283.00,0.0084
2282.00,0.0083
2281.00,0.0082
2280.00,0.0080
2279.00,0.0079
2278.00,0.0078
2277.00,0.0077
2276.00,0.0077
2275.00,0.0078
2274.00,0.0077
2273.00,0.0077
2272.00,0.0077
2271.00,0.0078
2270.00,0.0078
2269.00,0.0078
2268.00,0.0077
2267.00,0.0076
2266.00,0.0076
2265.00,0.0075
2264.00,0.0075
2263.00,0.0075
2262.00,0.0075
2261.00,0.0076
2260.00,0.0077
2259.00,0.0078
2258.00,0.0078
2257.00,0.0077
2256.00,0.0076
2255.00,0.0074
2254.00,0.0073
2253.00,0.0073
2252.00,0.0073
2251.00,0.0073
2250.00,0.0073
2249.00,0.0073
2248.00,0.0073
2247.00,0.0073
2246.00,0.0073
2245.00,0.0072
2244.00,0.0072
2243.00,0.0072
2242.00,0.0072
2241.00,0.0072
2240.00,0.0073
2239.00,0.0073
2238.00,0.0072
2237.00,0.0071
2236.00,0.0070
2235.00,0.0070
2234.00,0.0070
2233.00,0.0071
2232.00,0.0071
2231.00,0.0071
2230.00,0.0071
2229.00,0.0071
2228.00,0.0072
2227.00,0.0072
2226.00,0.0072
2225.00,0.0072
2224.00,0.0073
2223.00,0.0072
2222.00,0.0071
2221.00,0.0070
2220.00,0.0069
2219.00,0.0068
2218.00,0.0067
2217.00,0.0067
2216.00,0.0068
2215.00,0.0069
2214.00,0.0069
2213.00,0.0069
2212.00,0.0070
2211.00,0.0069
2210.00,0.0069
2209.00,0.0068
2208.00,0.0068
2207.00,0.0067
2206.00,0.0066
2205.00,0.0066
2204.00,0.0066
2203.00,0.0065
2202.00,0.0064
2201.00,0.0064
2200.00,0.0065
2199.00,0.0065
2198.00,0.0065
2197.00,0.0064
2196.00,0.0064
2195.00,0.0064
2194.00,0.0063
2193.00,0.0063
2192.00,0.0065
2191.00,0.0067
2190.00,0.0068
2189.00,0.0069
2188.00,0.0069
2187.00,0.0069
2186.00,0.0068
2185.00,0.0067
2184.00,0.0066
2183.00,0.0063
2182.00,0.0060
2181.00,0.0059
2180.00,0.0059
2179.00,0.0061
2178.00,0.0061
2177.00,0.0062
2176.00,0.0062
2175.00,0.0063
2174.00,0.0063
2173.00,0.0065
2172.00,0.0069
2171.00,0.0072
2170.00,0.0075
2169.00,0.0077
2168.00,0.0078
2167.00,0.0078
2166.00,0.0078
2165.00,0.0079
2164.00,0.0082
2163.00,0.0082
2162.00,0.0077
2161.00,0.0066
2160.00,0.0053
2159.00,0.0041
2158.00,0.0035
2157.00,0.0035
2156.00,0.0039
2155.00,0.0043
2154.00,0.0046
2153.00,0.0049
2152.00,0.0052
2151.00,0.0054
2150.00,0.0055
2149.00,0.0055
2148.00,0.0055
2147.00,0.0055
2146.00,0.0055
2145.00,0.0054
2144.00,0.0055
2143.00,0.0055
2142.00,0.0055
2141.00,0.0055
2140.00,0.0056
2139.00,0.0056
2138.00,0.0054
2137.00,0.0051
2136.00,0.0048
2135.00,0.0046
2134.00,0.0046
2133.00,0.0047
2132.00,0.0051
2131.00,0.0053
2130.00,0.0054
2129.00,0.0056
2128.00,0.0057
2127.00,0.0059
2126.00,0.0060
2125.00,0.0061
2124.00,0.0062
2123.00,0.0063
2122.00,0.0063
2121.00,0.0063
2120.00,0.0064
2119.00,0.0065
2118.00,0.0066
2117.00,0.0067
2116.00,0.0069
2115.00,0.0069
2114.00,0.0069
2113.00,0.0069
2112.00,0.0069
2111.00,0.0069
2110.00,0.0068
2109.00,0.0068
2108.00,0.0068
2107.00,0.0068
2106.00,0.0067
2105.00,0.0067
2104.00,0.0067
2103.00,0.0068
2102.00,0.0067
2101.00,0.0067
2100.00,0.0067
2099.00,0.0067
2098.00,0.0065
2097.00,0.0064
2096.00,0.0063
2095.00,0.0063
2094.00,0.0063
2093.00,0.0065
2092.00,0.0066
2091.00,0.0066
2090.00,0.0066
2089.00,0.0066
2088.00,0.0066
2087.00,0.0067
2086.00,0.0067
2085.00,0.0068
2084.00,0.0068
2083.00,0.0068
2082.00,0.0068
2081.00,0.0069
2080.00,0.0070
2079.00,0.0070
2078.00,0.0070
2077.00,0.0070
2076.00,0.0070
2075.00,0.0070
2074.00,0.0070
2073.00,0.0070
2072.00,0.0070
2071.00,0.0070
2070.00,0.0069
2069.00,0.0069
2068.00,0.0069
2067.00,0.0069
2066.00,0.0068
2065.00,0.0068
2064.00,0.0068
2063.00,0.0068
2062.00,0.0068
2061.00,0.0068
2060.00,0.0068
2059.00,0.0068
2058.00,0.0067
2057.00,0.0066
2056.00,0.0066
2055.00,0.0067
2054.00,0.0069
2053.00,0.0073
2052.00,0.0077
2051.00,0.0077
2050.00,0.0074
2049.00,0.0070
2048.00,0.0067
2047.00,0.0066
2046.00,0.0066
2045.00,0.0065
2044.00,0.0064
2043.00,0.0063
2042.00,0.0060
2041.00,0.0060
2040.00,0.0061
2039.00,0.0062
2038.00,0.0060
2037.00,0.0059
2036.00,0.0057
2035.00,0.0055
2034.00,0.0050
2033.00,0.0047
2032.00,0.0047
2031.00,0.0048
2030.00,0.0049
2029.00,0.0051
2028.00,0.0053
2027.00,0.0053
2026.00,0.0051
2025.00,0.0051
2024.00,0.0052
2023.00,0.0052
2022.00,0.0052
2021.00,0.0052
2020.00,0.0053
2019.00,0.0053
2018.00,0.0053
2017.00,0.0054
2016.00,0.0056
2015.00,0.0057
2014.00,0.0057
2013.00,0.0057
2012.00,0.0060
2011.00,0.0061
2010.00,0.0060
2009.00,0.0057
2008.00,0.0054
2007.00,0.0051
2006.00,0.0049
2005.00,0.0050
2004.00,0.0053
2003.00,0.0056
2002.00,0.0058
2001.00,0.0059
2000.00,0.0061
1999.00,0.0062
1998.00,0.0062
1997.00,0.0062
1996.00,0.0063
1995.00,0.0064
1994.00,0.0064
1993.00,0.0065
1992.00,0.0066
1991.00,0.0066
1990.00,0.0065
1989.00,0.0065
1988.00,0.0066
1987.00,0.0067
1986.00,0.0067
1985.00,0.0068
1984.00,0.0071
1983.00,0.0074
1982.00,0.0076
1981.00,0.0077
1980.00,0.0077
1979.00,0.0074
1978.00,0.0068
1977.00,0.0063
1976.00,0.0061
1975.00,0.0058
1974.00,0.0055
1973.00,0.0053
1972.00,0.0054
1971.00,0.0055
1970.00,0.0054
1969.00,0.0054
1968.00,0.0054
1967.00,0.0055
1966.00,0.0054
1965.00,0.0055
1964.00,0.0056
1963.00,0.0055
1962.00,0.0053
1961.00,0.0051
1960.00,0.0051
1959.00,0.0052
1958.00,0.0052
1957.00,0.0053
1956.00,0.0055
1955.00,0.0056
1954.00,0.0056
1953.00,0.0056
1952.00,0.0058
1951.00,0.0059
1950.00,0.0059
1949.00,0.0059
1948.00,0.0060
1947.00,0.0061
1946.00,0.0062
1945.00,0.0062
1944.00,0.0063
1943.00,0.0063
1942.00,0.0062
1941.00,0.0063
1940.00,0.0063
1939.00,0.0064
1938.00,0.0064
1937.00,0.0064
1936.00,0.0064
1935.00,0.0065
1934.00,0.0064
1933.00,0.0065
1932.00,0.0065
1931.00,0.0065
1930.00,0.0065
1929.00,0.0064
1928.00,0.0065
1927.00,0.0065
1926.00,0.0065
1925.00,0.0065
1924.00,0.0066
1923.00,0.0067
1922.00,0.0068
1921.00,0.0068
1920.00,0.0068
1919.00,0.0068
1918.00,0.0068
1917.00,0.0068
1916.00,0.0068
1915.00,0.0068
1914.00,0.0066
1913.00,0.0065
1912.00,0.0065
1911.00,0.0065
1910.00,0.0065
1909.00,0.0066
1908.00,0.0067
1907.00,0.0067
1906.00,0.0066
1905.00,0.0065
1904.00,0.0065
1903.00,0.0065
1902.00,0.0065
1901.00,0.0064
1900.00,0.0064
1899.00,0.0064
1898.00,0.0064
1897.00,0.0064
1896.00,0.0064
1895.00,0.0065
1894.00,0.0065
1893.00,0.0064
1892.00,0.0064
1891.00,0.0064
1890.00,0.0064
1889.00,0.0065
1888.00,0.0065
1887.00,0.0065
1886.00,0.0064
1885.00,0.0064
1884.00,0.0064
1883.00,0.0064
1882.00,0.0064
1881.00,0.0063
1880.00,0.0064
1879.00,0.0064
1878.00,0.0064
1877.00,0.0065
1876.00,0.0065
1875.00,0.0066
1874.00,0.0065
1873.00,0.0065
1872.00,0.0064
1871.00,0.0064
1870.00,0.0065
1869.00,0.0067
1868.00,0.0069
1867.00,0.0069
1866.00,0.0068
1865.00,0.0067
1864.00,0.0066
1863.00,0.0066
1862.00,0.0065
1861.00,0.0064
1860.00,0.0064
1859.00,0.0064
1858.00,0.0064
1857.00,0.0063
1856.00,0.0063
1855.00,0.0063
1854.00,0.0062
1853.00,0.0062
1852.00,0.0062
1851.00,0.0062
1850.00,0.0061
1849.00,0.0061
1848.00,0.0061
1847.00,0.0060
1846.00,0.0059
1845.00,0.0059
1844.00,0.0062
1843.00,0.0063
1842.00,0.0062
1841.00,0.0061
1840.00,0.0060
1839.00,0.0060
1838.00,0.0060
1837.00,0.0060
1836.00,0.0060
1835.00,0.0060
1834.00,0.0059
1833.00,0.0058
1832.00,0.0058
1831.00,0.0060
1830.00,0.0061
1829.00,0.0062
1828.00,0.0062
1827.00,0.0061
1826.00,0.0060
1825.00,0.0061
1824.00,0.0062
1823.00,0.0062
1822.00,0.0061
1821.00,0.0060
1820.00,0.0059
1819.00,0.0058
1818.00,0.0057
1817.00,0.0057
1816.00,0.0058
1815.00,0.0059
1814.00,0.0059
1813.00,0.0059
1812.00,0.0060
1811.00,0.0062
1810.00,0.0062
1809.00,0.0063
1808.00,0.0063
1807.00,0.0064
1806.00,0.0063
1805.00,0.0063
1804.00,0.0063
1803.00,0.0064
1802.00,0.0064
1801.00,0.0065
1800.00,0.0066
1799.00,0.0067
1798.00,0.0067
1797.00,0.0066
1796.00,0.0065
1795.00,0.0064
1794.00,0.0064
1793.00,0.0065
1792.00,0.0068
1791.00,0.0069
1790.00,0.0069
1789.00,0.0067
1788.00,0.0066
1787.00,0.0066
1786.00,0.0066
1785.00,0.0066
1784.00,0.0067
1783.00,0.0067
1782.00,0.0067
1781.00,0.0068
1780.00,0.0069
1779.00,0.0069
1778.00,0.0068
1777.00,0.0067
1776.00,0.0067
1775.00,0.0066
1774.00,0.0066
1773.00,0.0068
1772.00,0.0072
1771.00,0.0074
1770.00,0.0073
1769.00,0.0072
1768.00,0.0073
1767.00,0.0074
1766.00,0.0073
1765.00,0.0072
1764.00,0.0072
1763.00,0.0073
1762.00,0.0075
1761.00,0.0077
1760.00,0.0078
1759.00,0.0078
1758.00,0.0078
1757.00,0.0079
1756.00,0.0081
1755.00,0.0082
1754.00,0.0081
1753.00,0.0080
1752.00,0.0083
1751.00,0.0086
1750.00,0.0089
1749.00,0.0091
1748.00,0.0093
1747.00,0.0095
1746.00,0.0095
1745.00,0.0096
1744.00,0.0098
1743.00,0.0100
1742.00,0.0101
1741.00,0.0103
1740.00,0.0108
1739.00,0.0112
1738.00,0.0113
1737.00,0.0112
1736.00,0.0113
1735.00,0.0117
1734.00,0.0124
1733.00,0.0129
1732.00,0.0132
1731.00,0.0134
1730.00,0.0134
1729.00,0.0136
1728.00,0.0139
1727.00,0.0142
1726.00,0.0145
1725.00,0.0149
1724.00,0.0155
1723.00,0.0163
1722.00,0.0169
1721.00,0.0176
1720.00,0.0187
1719.00,0.0204
1718.00,0.0228
1717.00,0.0257
1716.00,0.0290
1715.00,0.0326
1714.00,0.0363
1713.00,0.0404
1712.00,0.0450
1711.00,0.0499
1710.00,0.0551
1709.00,0.0603
1708.00,0.0657
1707.00,0.0712
1706.00,0.0768
1705.00,0.0822
1704.00,0.0869
1703.00,0.0909
1702.00,0.0944
1701.00,0.0976
1700.00,0.1003
1699.00,0.1023
1698.00,0.1035
1697.00,0.1039
1696.00,0.1035
1695.00,0.1026
1694.00,0.1020
1693.00,0.1018
1692.00,0.1020
1691.00,0.1023
1690.00,0.1029
1689.00,0.1038
1688.00,0.1051
1687.00,0.1068
1686.00,0.1087
1685.00,0.1108
1684.00,0.1127
1683.00,0.1144
1682.00,0.1161
1681.00,0.1177
1680.00,0.1191
1679.00,0.1200
1678.00,0.1206
1677.00,0.1204
1676.00,0.1192
1675.00,0.1172
1674.00,0.1150
1673.00,0.1132
1672.00,0.1116
1671.00,0.1096
1670.00,0.1071
1669.00,0.1045
1668.00,0.1024
1667.00,0.1010
1666.00,0.1002
1665.00,0.0997
1664.00,0.0990
1663.00,0.0981
1662.00,0.0973
1661.00,0.0967
1660.00,0.0964
1659.00,0.0962
1658.00,0.0962
1657.00,0.0964
1656.00,0.0966
1655.00,0.0968
1654.00,0.0966
1653.00,0.0957
1652.00,0.0950
1651.00,0.0950
1650.00,0.0953
1649.00,0.0953
1648.00,0.0945
1647.00,0.0926
1646.00,0.0901
1645.00,0.0875
1644.00,0.0851
1643.00,0.0826
1642.00,0.0800
1641.00,0.0772
1640.00,0.0745
1639.00,0.0721
1638.00,0.0700
1637.00,0.0681
1636.00,0.0663
1635.00,0.0650
1634.00,0.0645
1633.00,0.0646
1632.00,0.0652
1631.00,0.0661
1630.00,0.0672
1629.00,0.0687
1628.00,0.0703
1627.00,0.0721
1626.00,0.0737
1625.00,0.0753
1624.00,0.0768
1623.00,0.0783
1622.00,0.0794
1621.00,0.0802
1620.00,0.0808
1619.00,0.0811
1618.00,0.0809
1617.00,0.0799
1616.00,0.0785
1615.00,0.0769
1614.00,0.0752
1613.00,0.0733
1612.00,0.0711
1611.00,0.0686
1610.00,0.0659
1609.00,0.0630
1608.00,0.0601
1607.00,0.0572
1606.00,0.0545
1605.00,0.0519
1604.00,0.0494
1603.00,0.0471
1602.00,0.0449
1601.00,0.0428
1600.00,0.0409
1599.00,0.0391
1598.00,0.0374
1597.00,0.0358
1596.00,0.0344
1595.00,0.0331
1594.00,0.0319
1593.00,0.0308
1592.00,0.0297
1591.00,0.0288
1590.00,0.0280
1589.00,0.0273
1588.00,0.0266
1587.00,0.0261
1586.00,0.0257
1585.00,0.0255
1584.00,0.0254
1583.00,0.0255
1582.00,0.0256
1581.00,0.0256
1580.00,0.0255
1579.00,0.0252
1578.00,0.0246
1577.00,0.0241
1576.00,0.0235
1575.00,0.0228
1574.00,0.0222
1573.00,0.0216
1572.00,0.0210
1571.00,0.0207
1570.00,0.0206
1569.00,0.0207
1568.00,0.0208
1567.00,0.0210
1566.00,0.0214
1565.00,0.0221
1564.00,0.0229
1563.00,0.0236
1562.00,0.0239
1561.00,0.0240
1560.00,0.0240
1559.00,0.0238
1558.00,0.0230
1557.00,0.0220
1556.00,0.0210
1555.00,0.0202
1554.00,0.0196
1553.00,0.0191
1552.00,0.0186
1551.00,0.0183
1550.00,0.0180
1549.00,0.0178
1548.00,0.0176
1547.00,0.0173
1546.00,0.0172
1545.00,0.0172
1544.00,0.0172
1543.00,0.0171
1542.00,0.0171
1541.00,0.0173
1540.00,0.0177
1539.00,0.0180
1538.00,0.0181
1537.00,0.0181
1536.00,0.0180
1535.00,0.0180
1534.00,0.0184
1533.00,0.0188
1532.00,0.0190
1531.00,0.0191
1530.00,0.0192
1529.00,0.0193
1528.00,0.0195
1527.00,0.0198
1526.00,0.0201
1525.00,0.0204
1524.00,0.0206
1523.00,0.0209
1522.00,0.0216
1521.00,0.0225
1520.00,0.0234
1519.00,0.0241
1518.00,0.0251
1517.00,0.0263
1516.00,0.0278
1515.00,0.0293
1514.00,0.0309
1513.00,0.0328
1512.00,0.0351
1511.00,0.0376
1510.00,0.0402
1509.00,0.0430
1508.00,0.0466
1507.00,0.0515
1506.00,0.0570
1505.00,0.0620
1504.00,0.0664
1503.00,0.0708
1502.00,0.0756
1501.00,0.0808
1500.00,0.0862
1499.00,0.0918
1498.00,0.0974
1497.00,0.1030
1496.00,0.1081
1495.00,0.1127
1494.00,0.1168
1493.00,0.1203
1492.00,0.1232
1491.00,0.1254
1490.00,0.1269
1489.00,0.1274
1488.00,0.1270
1487.00,0.1261
1486.00,0.1248
1485.00,0.1231
1484.00,0.1210
1483.00,0.1186
1482.00,0.1158
1481.00,0.1128
1480.00,0.1098
1479.00,0.1069
1478.00,0.1041
1477.00,0.1010
1476.00,0.0976
1475.00,0.0940
1474.00,0.0903
1473.00,0.0861
1472.00,0.0817
1471.00,0.0781
1470.00,0.0754
1469.00,0.0733
1468.00,0.0715
1467.00,0.0700
1466.00,0.0686
1465.00,0.0674
1464.00,0.0663
1463.00,0.0654
1462.00,0.0647
1461.00,0.0641
1460.00,0.0635
1459.00,0.0627
1458.00,0.0619
1457.00,0.0610
1456.00,0.0604
1455.00,0.0602
1454.00,0.0606
1453.00,0.0617
1452.00,0.0635
1451.00,0.0662
1450.00,0.0700
1449.00,0.0746
1448.00,0.0792
1447.00,0.0827
1446.00,0.0842
1445.00,0.0838
1444.00,0.0820
1443.00,0.0798
1442.00,0.0779
1441.00,0.0770
1440.00,0.0769
1439.00,0.0778
1438.00,0.0797
1437.00,0.0829
1436.00,0.0867
1435.00,0.0903
1434.00,0.0932
1433.00,0.0955
1432.00,0.0969
1431.00,0.0971
1430.00,0.0962
1429.00,0.0946
1428.00,0.0923
1427.00,0.0898
1426.00,0.0874
1425.00,0.0858
1424.00,0.0856
1423.00,0.0873
1422.00,0.0910
1421.00,0.0962
1420.00,0.1018
1419.00,0.1058
1418.00,0.1062
1417.00,0.1027
1416.00,0.0965
1415.00,0.0888
1414.00,0.0807
1413.00,0.0731
1412.00,0.0665
1411.00,0.0608
1410.00,0.0563
1409.00,0.0527
1408.00,0.0497
1407.00,0.0471
1406.00,0.0449
1405.00,0.0430
1404.00,0.0413
1403.00,0.0398
1402.00,0.0387
1401.00,0.0379
1400.00,0.0374
1399.00,0.0371
1398.00,0.0370
1397.00,0.0373
1396.00,0.0378
1395.00,0.0387
1394.00,0.0401
1393.00,0.0417
1392.00,0.0435
1391.00,0.0454
1390.00,0.0477
1389.00,0.0503
1388.00,0.0532
1387.00,0.0565
1386.00,0.0599
1385.00,0.0632
1384.00,0.0661
1383.00,0.0686
1382.00,0.0704
1381.00,0.0710
1380.00,0.0702
1379.00,0.0680
1378.00,0.0650
1377.00,0.0616
1376.00,0.0584
1375.00,0.0560
1374.00,0.0546
1373.00,0.0544
1372.00,0.0552
1371.00,0.0567
1370.00,0.0585
1369.00,0.0602
1368.00,0.0613
1367.00,0.0613
1366.00,0.0599
1365.00,0.0572
1364.00,0.0532
1363.00,0.0482
1362.00,0.0432
1361.00,0.0387
1360.00,0.0352
1359.00,0.0325
1358.00,0.0306
1357.00,0.0292
1356.00,0.0283
1355.00,0.0277
1354.00,0.0274
1353.00,0.0275
1352.00,0.0277
1351.00,0.0282
1350.00,0.0288
1349.00,0.0297
1348.00,0.0308
1347.00,0.0319
1346.00,0.0333
1345.00,0.0347
1344.00,0.0362
1343.00,0.0377
1342.00,0.0393
1341.00,0.0409
1340.00,0.0424
1339.00,0.0439
1338.00,0.0453
1337.00,0.0467
1336.00,0.0480
1335.00,0.0493
1334.00,0.0506
1333.00,0.0518
1332.00,0.0528
1331.00,0.0536
1330.00,0.0541
1329.00,0.0544
1328.00,0.0545
1327.00,0.0544
1326.00,0.0543
1325.00,0.0544
1324.00,0.0547
1323.00,0.0554
1322.00,0.0565
1321.00,0.0580
1320.00,0.0600
1319.00,0.0624
1318.00,0.0650
1317.00,0.0678
1316.00,0.0706
1315.00,0.0734
1314.00,0.0761
1313.00,0.0788
1312.00,0.0815
1311.00,0.0841
1310.00,0.0868
1309.00,0.0895
1308.00,0.0923
1307.00,0.0953
1306.00,0.0982
1305.00,0.1012
1304.00,0.1038
1303.00,0.1059
1302.00,0.1070
1301.00,0.1071
1300.00,0.1060
1299.00,0.1039
1298.00,0.1008
1297.00,0.0973
1296.00,0.0937
1295.00,0.0902
1294.00,0.0871
1293.00,0.0847
1292.00,0.0830
1291.00,0.0822
1290.00,0.0821
1289.00,0.0829
1288.00,0.0846
1287.00,0.0869
1286.00,0.0899
1285.00,0.0935
1284.00,0.0974
1283.00,0.1014
1282.00,0.1054
1281.00,0.1092
1280.00,0.1124
1279.00,0.1150
1278.00,0.1166
1277.00,0.1171
1276.00,0.1165
1275.00,0.1147
1274.00,0.1118
1273.00,0.1079
1272.00,0.1035
1271.00,0.0985
1270.00,0.0935
1269.00,0.0885
1268.00,0.0837
1267.00,0.0793
1266.00,0.0751
1265.00,0.0713
1264.00,0.0678
1263.00,0.0645
1262.00,0.0613
1261.00,0.0584
1260.00,0.0558
1259.00,0.0534
1258.00,0.0514
1257.00,0.0500
1256.00,0.0493
1255.00,0.0491
1254.00,0.0496
1253.00,0.0504
1252.00,0.0511
1251.00,0.0513
1250.00,0.0507
1249.00,0.0494
1248.00,0.0476
1247.00,0.0455
1246.00,0.0435
1245.00,0.0418
1244.00,0.0405
1243.00,0.0397
1242.00,0.0394
1241.00,0.0394
1240.00,0.0399
1239.00,0.0408
1238.00,0.0421
1237.00,0.0440
1236.00,0.0463
1235.00,0.0493
1234.00,0.0530
1233.00,0.0573
1232.00,0.0623
1231.00,0.0679
1230.00,0.0741
1229.00,0.0807
1228.00,0.0877
1227.00,0.0947
1226.00,0.1019
1225.00,0.1090
1224.00,0.1160
1223.00,0.1230
1222.00,0.1298
1221.00,0.1365
1220.00,0.1432
1219.00,0.1497
1218.00,0.1561
1217.00,0.1624
1216.00,0.1684
1215.00,0.1742
1214.00,0.1795
1213.00,0.1844
1212.00,0.1886
1211.00,0.1921
1210.00,0.1948
1209.00,0.1968
1208.00,0.1980
1207.00,0.1983
1206.00,0.1976
1205.00,0.1960
1204.00,0.1931
1203.00,0.1890
1202.00,0.1836
1201.00,0.1771
1200.00,0.1696
1199.00,0.1616
1198.00,0.1536
1197.00,0.1460
1196.00,0.1394
1195.00,0.1340
1194.00,0.1299
1193.00,0.1272
1192.00,0.1255
1191.00,0.1245
1190.00,0.1237
1189.00,0.1227
1188.00,0.1212
1187.00,0.1189
1186.00,0.1157
1185.00,0.1119
1184.00,0.1077
1183.00,0.1034
1182.00,0.0994
1181.00,0.0959
1180.00,0.0930
1179.00,0.0909
1178.00,0.0892
1177.00,0.0879
1176.00,0.0869
1175.00,0.0859
1174.00,0.0851
1173.00,0.0842
1172.00,0.0831
1171.00,0.0816
1170.00,0.0793
1169.00,0.0763
1168.00,0.0726
1167.00,0.0686
1166.00,0.0645
1165.00,0.0608
1164.00,0.0577
1163.00,0.0553
1162.00,0.0537
1161.00,0.0528
1160.00,0.0524
1159.00,0.0523
1158.00,0.0524
1157.00,0.0524
1156.00,0.0523
1155.00,0.0521
1154.00,0.0519
1153.00,0.0520
1152.00,0.0527
1151.00,0.0543
1150.00,0.0570
1149.00,0.0606
1148.00,0.0650
1147.00,0.0700
1146.00,0.0755
1145.00,0.0815
1144.00,0.0880
1143.00,0.0949
1142.00,0.1017
1141.00,0.1081
1140.00,0.1134
1139.00,0.1167
1138.00,0.1177
1137.00,0.1163
1136.00,0.1130
1135.00,0.1083
1134.00,0.1033
1133.00,0.0988
1132.00,0.0954
1131.00,0.0935
1130.00,0.0932
1129.00,0.0945
1128.00,0.0974
1127.00,0.1015
1126.00,0.1067
1125.00,0.1128
1124.00,0.1195
1123.00,0.1264
1122.00,0.1332
1121.00,0.1398
1120.00,0.1459
1119.00,0.1511
1118.00,0.1553
1117.00,0.1583
1116.00,0.1601
1115.00,0.1606
1114.00,0.1597
1113.00,0.1579
1112.00,0.1553
1111.00,0.1524
1110.00,0.1499
1109.00,0.1485
1108.00,0.1486
1107.00,0.1504
1106.00,0.1540
1105.00,0.1591
1104.00,0.1653
1103.00,0.1720
1102.00,0.1785
1101.00,0.1843
1100.00,0.1890
1099.00,0.1922
1098.00,0.1936
1097.00,0.1934
1096.00,0.1920
1095.00,0.1897
1094.00,0.1866
1093.00,0.1831
1092.00,0.1791
1091.00,0.1742
1090.00,0.1684
1089.00,0.1618
1088.00,0.1545
1087.00,0.1466
1086.00,0.1385
1085.00,0.1304
1084.00,0.1227
1083.00,0.1155
1082.00,0.1087
1081.00,0.1025
1080.00,0.0970
1079.00,0.0919
1078.00,0.0873
1077.00,0.0832
1076.00,0.0794
1075.00,0.0761
1074.00,0.0730
1073.00,0.0703
1072.00,0.0680
1071.00,0.0660
1070.00,0.0643
1069.00,0.0631
1068.00,0.0623
1067.00,0.0619
1066.00,0.0621
1065.00,0.0630
1064.00,0.0647
1063.00,0.0671
1062.00,0.0704
1061.00,0.0744
1060.00,0.0791
1059.00,0.0841
1058.00,0.0891
1057.00,0.0941
1056.00,0.0987
1055.00,0.1026
1054.00,0.1058
1053.00,0.1082
1052.00,0.1100
1051.00,0.1110
1050.00,0.1116
1049.00,0.1122
1048.00,0.1131
1047.00,0.1147
1046.00,0.1170
1045.00,0.1196
1044.00,0.1216
1043.00,0.1220
1042.00,0.1202
1041.00,0.1164
1040.00,0.1116
1039.00,0.1067
1038.00,0.1024
1037.00,0.0994
1036.00,0.0974
1035.00,0.0965
1034.00,0.0963
1033.00,0.0968
1032.00,0.0979
1031.00,0.0997
1030.00,0.1022
1029.00,0.1053
1028.00,0.1092
1027.00,0.1137
1026.00,0.1187
1025.00,0.1240
1024.00,0.1295
1023.00,0.1346
1022.00,0.1390
1021.00,0.1425
1020.00,0.1447
1019.00,0.1455
1018.00,0.1449
1017.00,0.1430
1016.00,0.1402
1015.00,0.1365
1014.00,0.1322
1013.00,0.1275
1012.00,0.1225
1011.00,0.1174
1010.00,0.1122
1009.00,0.1072
1008.00,0.1024
1007.00,0.0979
1006.00,0.0938
1005.00,0.0899
1004.00,0.0864
1003.00,0.0831
1002.00,0.0800
1001.00,0.0771
1000.00,0.0743
999.00,0.0717
998.00,0.0691
997.00,0.0668
996.00,0.0646
995.00,0.0626
994.00,0.0608
993.00,0.0592
992.00,0.0578
991.00,0.0566
990.00,0.0555
989.00,0.0545
988.00,0.0537
987.00,0.0530
986.00,0.0524
985.00,0.0520
984.00,0.0518
983.00,0.0516
982.00,0.0515
981.00,0.0515
980.00,0.0515
979.00,0.0514
978.00,0.0514
977.00,0.0512
976.00,0.0510
975.00,0.0507
974.00,0.0503
973.00,0.0499
972.00,0.0494
971.00,0.0489
970.00,0.0484
969.00,0.0478
968.00,0.0473
967.00,0.0468
966.00,0.0463
965.00,0.0460
964.00,0.0458
963.00,0.0457
962.00,0.0457
961.00,0.0459
960.00,0.0461
959.00,0.0464
958.00,0.0467
957.00,0.0469
956.00,0.0471
955.00,0.0470
954.00,0.0467
953.00,0.0461
952.00,0.0454
951.00,0.0446
950.00,0.0436
949.00,0.0425
948.00,0.0414
947.00,0.0403
946.00,0.0392
945.00,0.0382
944.00,0.0373
943.00,0.0365
942.00,0.0356
941.00,0.0349
940.00,0.0343
939.00,0.0337
938.00,0.0332
937.00,0.0328
936.00,0.0325
935.00,0.0321
934.00,0.0318
933.00,0.0315
932.00,0.0312
931.00,0.0309
930.00,0.0306
929.00,0.0304
928.00,0.0301
927.00,0.0299
926.00,0.0297
925.00,0.0294
924.00,0.0293
923.00,0.0291
922.00,0.0288
921.00,0.0286
920.00,0.0285
919.00,0.0283
918.00,0.0282
917.00,0.0281
916.00,0.0280
915.00,0.0279
914.00,0.0278
913.00,0.0277
912.00,0.0277
911.00,0.0276
910.00,0.0276
909.00,0.0276
908.00,0.0276
907.00,0.0277
906.00,0.0278
905.00,0.0279
904.00,0.0280
903.00,0.0281
902.00,0.0282
901.00,0.0282
900.00,0.0282
899.00,0.0281
898.00,0.0280
897.00,0.0280
896.00,0.0280
895.00,0.0279
894.00,0.0279
893.00,0.0279
892.00,0.0279
891.00,0.0277
890.00,0.0275
889.00,0.0273
888.00,0.0271
887.00,0.0270
886.00,0.0269
885.00,0.0269
884.00,0.0270
883.00,0.0271
882.00,0.0273
881.00,0.0276
880.00,0.0279
879.00,0.0283
878.00,0.0286
877.00,0.0291
876.00,0.0296
875.00,0.0303
874.00,0.0311
873.00,0.0320
872.00,0.0330
871.00,0.0344
870.00,0.0360
869.00,0.0380
868.00,0.0404
867.00,0.0427
866.00,0.0446
865.00,0.0458
864.00,0.0461
863.00,0.0453
862.00,0.0438
861.00,0.0421
860.00,0.0406
859.00,0.0395
858.00,0.0388
857.00,0.0386
856.00,0.0386
855.00,0.0386
854.00,0.0383
853.00,0.0377
852.00,0.0369
851.00,0.0358
850.00,0.0346
849.00,0.0335
848.00,0.0324
847.00,0.0314
846.00,0.0304
845.00,0.0294
844.00,0.0285
843.00,0.0277
842.00,0.0268
841.00,0.0261
840.00,0.0254
839.00,0.0249
838.00,0.0243
837.00,0.0239
836.00,0.0236
835.00,0.0233
834.00,0.0231
833.00,0.0229
832.00,0.0229
831.00,0.0229
830.00,0.0229
829.00,0.0231
828.00,0.0235
827.00,0.0240
826.00,0.0247
825.00,0.0254
824.00,0.0262
823.00,0.0269
822.00,0.0275
821.00,0.0282
820.00,0.0290
819.00,0.0297
818.00,0.0303
817.00,0.0309
816.00,0.0314
815.00,0.0318
814.00,0.0322
813.00,0.0327
812.00,0.0336
811.00,0.0348
810.00,0.0364
809.00,0.0387
808.00,0.0416
807.00,0.0453
806.00,0.0495
805.00,0.0541
804.00,0.0590
803.00,0.0637
802.00,0.0678
801.00,0.0710
800.00,0.0732
799.00,0.0743
798.00,0.0745
797.00,0.0739
796.00,0.0730
795.00,0.0720
794.00,0.0708
793.00,0.0696
792.00,0.0684
791.00,0.0668
790.00,0.0648
789.00,0.0625
788.00,0.0601
787.00,0.0579
786.00,0.0564
785.00,0.0563
784.00,0.0581
783.00,0.0618
782.00,0.0673
781.00,0.0741
780.00,0.0815
779.00,0.0884
778.00,0.0940
777.00,0.0975
776.00,0.0985
775.00,0.0967
774.00,0.0923
773.00,0.0859
772.00,0.0785
771.00,0.0710
770.00,0.0639
769.00,0.0577
768.00,0.0528
767.00,0.0491
766.00,0.0463
765.00,0.0446
764.00,0.0436
763.00,0.0434
762.00,0.0437
761.00,0.0445
760.00,0.0458
759.00,0.0475
758.00,0.0495
757.00,0.0519
756.00,0.0546
755.00,0.0574
754.00,0.0600
753.00,0.0626
752.00,0.0651
751.00,0.0673
750.00,0.0692
749.00,0.0707
748.00,0.0715
747.00,0.0711
746.00,0.0692
745.00,0.0660
744.00,0.0622
743.00,0.0587
742.00,0.0570
741.00,0.0581
740.00,0.0628
739.00,0.0712
738.00,0.0822
737.00,0.0938
736.00,0.1035
735.00,0.1096
734.00,0.1117
733.00,0.1111
732.00,0.1098
731.00,0.1092
730.00,0.1096
729.00,0.1107
728.00,0.1115
727.00,0.1110
726.00,0.1086
725.00,0.1040
724.00,0.0975
723.00,0.0899
722.00,0.0819
721.00,0.0742
720.00,0.0673
719.00,0.0616
718.00,0.0568
717.00,0.0531
716.00,0.0501
715.00,0.0478
714.00,0.0458
713.00,0.0442
712.00,0.0430
711.00,0.0420
710.00,0.0412
709.00,0.0405
708.00,0.0400
707.00,0.0396
706.00,0.0393
705.00,0.0391
704.00,0.0390
703.00,0.0390
702.00,0.0391
701.00,0.0393
700.00,0.0395
699.00,0.0397
698.00,0.0400
697.00,0.0404
696.00,0.0409
695.00,0.0415
694.00,0.0420
693.00,0.0427
692.00,0.0435
691.00,0.0443
690.00,0.0451
689.00,0.0460
688.00,0.0469
687.00,0.0477
686.00,0.0483
685.00,0.0489
684.00,0.0494
683.00,0.0498
682.00,0.0500
681.00,0.0502
680.00,0.0504
679.00,0.0506
678.00,0.0507
677.00,0.0507
676.00,0.0508
675.00,0.0507
674.00,0.0504
673.00,0.0500
672.00,0.0495
671.00,0.0490
670.00,0.0484
669.00,0.0477
668.00,0.0469
667.00,0.0459
666.00,0.0451
665.00,0.0448
664.00,0.0448
663.00,0.0451
662.00,0.0455
661.00,0.0460
660.00,0.0466
659.00,0.0472
658.00,0.0477
657.00,0.0482
656.00,0.0488
655.00,0.0492
654.00,0.0496
653.00,0.0500
652.00,0.0503
651.00,0.0505
650.00,0.0505
649.00,0.0505
648.00,0.0506
647.00,0.0507
646.00,0.0506
645.00,0.0505
644.00,0.0504
643.00,0.0502
642.00,0.0499
641.00,0.0496
640.00,0.0494
639.00,0.0492
638.00,0.0490
637.00,0.0487
636.00,0.0485
635.00,0.0482
634.00,0.0477
633.00,0.0473
632.00,0.0469
631.00,0.0465
630.00,0.0461
629.00,0.0457
628.00,0.0455
627.00,0.0452
626.00,0.0449
625.00,0.0446
624.00,0.0443
623.00,0.0439
622.00,0.0435
621.00,0.0432
620.00,0.0430
619.00,0.0428
618.00,0.0425
617.00,0.0422
616.00,0.0422
615.00,0.0421
614.00,0.0420
613.00,0.0419
612.00,0.0418
611.00,0.0416
610.00,0.0412
609.00,0.0410
608.00,0.0409
607.00,0.0408
606.00,0.0408
605.00,0.0409
604.00,0.0413
603.00,0.0419
602.00,0.0428
601.00,0.0440
600.00,0.0456
599.00,0.0474
598.00,0.0491
597.00,0.0507
596.00,0.0523
595.00,0.0536
594.00,0.0546
593.00,0.0556
592.00,0.0565
591.00,0.0574
590.00,0.0582
589.00,0.0588
588.00,0.0595
587.00,0.0598
586.00,0.0598
585.00,0.0595
584.00,0.0591
583.00,0.0585
582.00,0.0577
581.00,0.0568
580.00,0.0562
579.00,0.0556
578.00,0.0550
577.00,0.0544
576.00,0.0539
575.00,0.0534
574.00,0.0527
573.00,0.0522
572.00,0.0518
571.00,0.0514
570.00,0.0509
569.00,0.0505
568.00,0.0501
567.00,0.0495
566.00,0.0487
565.00,0.0479
564.00,0.0474
563.00,0.0470
562.00,0.0465
561.00,0.0461
560.00,0.0457
559.00,0.0452
558.00,0.0446
557.00,0.0440
556.00,0.0436
555.00,0.0431
554.00,0.0425
553.00,0.0419
552.00,0.0415
551.00,0.0412
550.00,0.0407
549.00,0.0404
548.00,0.0403
547.00,0.0403
546.00,0.0403
545.00,0.0405
544.00,0.0412
543.00,0.0421
542.00,0.0431
541.00,0.0443
540.00,0.0456
539.00,0.0464
538.00,0.0466
537.00,0.0464
536.00,0.0459
535.00,0.0452
534.00,0.0444
533.00,0.0435
532.00,0.0429
531.00,0.0422
530.00,0.0415
529.00,0.0410
528.00,0.0408
527.00,0.0406
526.00,0.0401
525.00,0.0397
524.00,0.0394
523.00,0.0391
522.00,0.0388
521.00,0.0385
520.00,0.0386
519.00,0.0386
518.00,0.0384
517.00,0.0382
516.00,0.0380
515.00,0.0378
514.00,0.0376
513.00,0.0376
512.00,0.0379
511.00,0.0382
510.00,0.0383
509.00,0.0385
508.00,0.0388
507.00,0.0390
506.00,0.0390
505.00,0.0388
504.00,0.0387
503.00,0.0386
502.00,0.0382
501.00,0.0380
500.00,0.0380
499.00,0.0383
498.00,0.0384
497.00,0.0386
496.00,0.0391
495.00,0.0395
494.00,0.0397
493.00,0.0399
492.00,0.0402
491.00,0.0403
490.00,0.0401
489.00,0.0400
488.00,0.0403
487.00,0.0405
486.00,0.0405
485.00,0.0404
484.00,0.0404
483.00,0.0402
482.00,0.0397
481.00,0.0391
480.00,0.0389
479.00,0.0388
478.00,0.0386
477.00,0.0389
476.00,0.0397
475.00,0.0409
474.00,0.0423
473.00,0.0442
472.00,0.0469
471.00,0.0497
470.00,0.0520
469.00,0.0541
468.00,0.0559
467.00,0.0568
466.00,0.0564
465.00,0.0554
464.00,0.0547
463.00,0.0541
462.00,0.0533
461.00,0.0523
460.00,0.0512
459.00,0.0495
458.00,0.0469
457.00,0.0444
456.00,0.0428
455.00,0.0414
454.00,0.0398
453.00,0.0382
452.00,0.0372
451.00,0.0363
450.00,0.0353
449.00,0.0345
448.00,0.0342
447.00,0.0338
446.00,0.0330
445.00,0.0323
444.00,0.0323
443.00,0.0324
442.00,0.0323
441.00,0.0324
440.00,0.0328
439.00,0.0330
438.00,0.0327
437.00,0.0325
436.00,0.0328
435.00,0.0331
434.00,0.0329
433.00,0.0329
432.00,0.0334
431.00,0.0339
430.00,0.0337
429.00,0.0336
428.00,0.0339
427.00,0.0345
426.00,0.0351
425.00,0.0358
424.00,0.0368
423.00,0.0371
422.00,0.0367
421.00,0.0364
420.00,0.0373
419.00,0.0385
418.00,0.0387
417.00,0.0387
416.00,0.0392
415.00,0.0394
414.00,0.0391
413.00,0.0387
412.00,0.0388
411.00,0.0382
410.00,0.0368
409.00,0.0358
408.00,0.0361
407.00,0.0367
406.00,0.0369
405.00,0.0374
404.00,0.0385
403.00,0.0389
402.00,0.0378
401.00,0.0370
400.00,0.0379
