Created as New Dataset,Sample 1079 By YargerLab Date Tuesday, August 05 2025
cm-1,A
4000.00,0.0007
3999.00,0.0007
3998.00,0.0007
3997.00,0.0007
3996.00,0.0007
3995.00,0.0006
3994.00,0.0006
3993.00,0.0007
3992.00,0.0007
3991.00,0.0007
3990.00,0.0006
3989.00,0.0006
3988.00,0.0006
3987.00,0.0006
3986.00,0.0006
3985.00,0.0006
3984.00,0.0006
3983.00,0.0006
3982.00,0.0006
3981.00,0.0006
3980.00,0.0007
3979.00,0.0007
3978.00,0.0007
3977.00,0.0007
3976.00,0.0006
3975.00,0.0006
3974.00,0.0006
3973.00,0.0006
3972.00,0.0006
3971.00,0.0006
3970.00,0.0006
3969.00,0.0006
3968.00,0.0007
3967.00,0.0006
3966.00,0.0006
3965.00,0.0006
3964.00,0.0006
3963.00,0.0006
3962.00,0.0006
3961.00,0.0006
3960.00,0.0006
3959.00,0.0006
3958.00,0.0006
3957.00,0.0006
3956.00,0.0006
3955.00,0.0006
3954.00,0.0006
3953.00,0.0005
3952.00,0.0005
3951.00,0.0005
3950.00,0.0005
3949.00,0.0005
3948.00,0.0005
3947.00,0.0005
3946.00,0.0005
3945.00,0.0005
3944.00,0.0005
3943.00,0.0005
3942.00,0.0006
3941.00,0.0006
3940.00,0.0006
3939.00,0.0006
3938.00,0.0006
3937.00,0.0006
3936.00,0.0006
3935.00,0.0005
3934.00,0.0005
3933.00,0.0005
3932.00,0.0005
3931.00,0.0005
3930.00,0.0005
3929.00,0.0005
3928.00,0.0005
3927.00,0.0005
3926.00,0.0005
3925.00,0.0006
3924.00,0.0006
3923.00,0.0006
3922.00,0.0006
3921.00,0.0005
3920.00,0.0005
3919.00,0.0004
3918.00,0.0005
3917.00,0.0005
3916.00,0.0005
3915.00,0.0006
3914.00,0.0006
3913.00,0.0006
3912.00,0.0006
3911.00,0.0006
3910.00,0.0006
3909.00,0.0006
3908.00,0.0005
3907.00,0.0005
3906.00,0.0004
3905.00,0.0004
3904.00,0.0004
3903.00,0.0004
3902.00,0.0003
3901.00,0.0003
3900.00,0.0003
3899.00,0.0004
3898.00,0.0004
3897.00,0.0005
3896.00,0.0005
3895.00,0.0005
3894.00,0.0005
3893.00,0.0005
3892.00,0.0005
3891.00,0.0006
3890.00,0.0005
3889.00,0.0005
3888.00,0.0004
3887.00,0.0004
3886.00,0.0004
3885.00,0.0004
3884.00,0.0005
3883.00,0.0004
3882.00,0.0004
3881.00,0.0004
3880.00,0.0005
3879.00,0.0005
3878.00,0.0005
3877.00,0.0005
3876.00,0.0005
3875.00,0.0005
3874.00,0.0005
3873.00,0.0005
3872.00,0.0005
3871.00,0.0005
3870.00,0.0005
3869.00,0.0005
3868.00,0.0005
3867.00,0.0005
3866.00,0.0005
3865.00,0.0005
3864.00,0.0005
3863.00,0.0005
3862.00,0.0005
3861.00,0.0005
3860.00,0.0005
3859.00,0.0005
3858.00,0.0005
3857.00,0.0004
3856.00,0.0004
3855.00,0.0004
3854.00,0.0005
3853.00,0.0005
3852.00,0.0005
3851.00,0.0004
3850.00,0.0004
3849.00,0.0004
3848.00,0.0005
3847.00,0.0005
3846.00,0.0005
3845.00,0.0005
3844.00,0.0005
3843.00,0.0005
3842.00,0.0005
3841.00,0.0005
3840.00,0.0006
3839.00,0.0006
3838.00,0.0006
3837.00,0.0006
3836.00,0.0006
3835.00,0.0005
3834.00,0.0005
3833.00,0.0005
3832.00,0.0005
3831.00,0.0006
3830.00,0.0006
3829.00,0.0006
3828.00,0.0006
3827.00,0.0006
3826.00,0.0006
3825.00,0.0007
3824.00,0.0006
3823.00,0.0006
3822.00,0.0006
3821.00,0.0006
3820.00,0.0006
3819.00,0.0005
3818.00,0.0005
3817.00,0.0005
3816.00,0.0005
3815.00,0.0006
3814.00,0.0006
3813.00,0.0006
3812.00,0.0006
3811.00,0.0006
3810.00,0.0006
3809.00,0.0006
3808.00,0.0006
3807.00,0.0006
3806.00,0.0007
3805.00,0.0007
3804.00,0.0006
3803.00,0.0006
3802.00,0.0006
3801.00,0.0006
3800.00,0.0006
3799.00,0.0006
3798.00,0.0005
3797.00,0.0005
3796.00,0.0005
3795.00,0.0005
3794.00,0.0005
3793.00,0.0005
3792.00,0.0005
3791.00,0.0006
3790.00,0.0006
3789.00,0.0006
3788.00,0.0006
3787.00,0.0006
3786.00,0.0006
3785.00,0.0006
3784.00,0.0006
3783.00,0.0006
3782.00,0.0006
3781.00,0.0006
3780.00,0.0006
3779.00,0.0006
3778.00,0.0006
3777.00,0.0006
3776.00,0.0006
3775.00,0.0006
3774.00,0.0006
3773.00,0.0006
3772.00,0.0006
3771.00,0.0006
3770.00,0.0006
3769.00,0.0006
3768.00,0.0006
3767.00,0.0006
3766.00,0.0006
3765.00,0.0006
3764.00,0.0007
3763.00,0.0007
3762.00,0.0006
3761.00,0.0006
3760.00,0.0006
3759.00,0.0006
3758.00,0.0007
3757.00,0.0007
3756.00,0.0007
3755.00,0.0007
3754.00,0.0007
3753.00,0.0007
3752.00,0.0006
3751.00,0.0006
3750.00,0.0006
3749.00,0.0006
3748.00,0.0006
3747.00,0.0005
3746.00,0.0004
3745.00,0.0004
3744.00,0.0005
3743.00,0.0005
3742.00,0.0005
3741.00,0.0005
3740.00,0.0005
3739.00,0.0005
3738.00,0.0005
3737.00,0.0005
3736.00,0.0005
3735.00,0.0004
3734.00,0.0004
3733.00,0.0003
3732.00,0.0003
3731.00,0.0004
3730.00,0.0004
3729.00,0.0004
3728.00,0.0004
3727.00,0.0004
3726.00,0.0005
3725.00,0.0005
3724.00,0.0005
3723.00,0.0005
3722.00,0.0005
3721.00,0.0005
3720.00,0.0005
3719.00,0.0005
3718.00,0.0006
3717.00,0.0006
3716.00,0.0006
3715.00,0.0005
3714.00,0.0005
3713.00,0.0005
3712.00,0.0006
3711.00,0.0006
3710.00,0.0005
3709.00,0.0005
3708.00,0.0005
3707.00,0.0005
3706.00,0.0005
3705.00,0.0004
3704.00,0.0004
3703.00,0.0004
3702.00,0.0005
3701.00,0.0005
3700.00,0.0005
3699.00,0.0005
3698.00,0.0006
3697.00,0.0006
3696.00,0.0006
3695.00,0.0006
3694.00,0.0007
3693.00,0.0007
3692.00,0.0007
3691.00,0.0008
3690.00,0.0008
3689.00,0.0007
3688.00,0.0007
3687.00,0.0008
3686.00,0.0008
3685.00,0.0009
3684.00,0.0009
3683.00,0.0010
3682.00,0.0010
3681.00,0.0010
3680.00,0.0011
3679.00,0.0011
3678.00,0.0011
3677.00,0.0010
3676.00,0.0010
3675.00,0.0010
3674.00,0.0010
3673.00,0.0010
3672.00,0.0010
3671.00,0.0010
3670.00,0.0010
3669.00,0.0011
3668.00,0.0011
3667.00,0.0011
3666.00,0.0012
3665.00,0.0012
3664.00,0.0013
3663.00,0.0013
3662.00,0.0014
3661.00,0.0014
3660.00,0.0014
3659.00,0.0014
3658.00,0.0014
3657.00,0.0014
3656.00,0.0014
3655.00,0.0015
3654.00,0.0015
3653.00,0.0015
3652.00,0.0015
3651.00,0.0015
3650.00,0.0016
3649.00,0.0016
3648.00,0.0016
3647.00,0.0016
3646.00,0.0017
3645.00,0.0017
3644.00,0.0018
3643.00,0.0019
3642.00,0.0020
3641.00,0.0021
3640.00,0.0021
3639.00,0.0022
3638.00,0.0022
3637.00,0.0022
3636.00,0.0022
3635.00,0.0023
3634.00,0.0023
3633.00,0.0024
3632.00,0.0024
3631.00,0.0025
3630.00,0.0024
3629.00,0.0024
3628.00,0.0024
3627.00,0.0024
3626.00,0.0025
3625.00,0.0025
3624.00,0.0027
3623.00,0.0028
3622.00,0.0028
3621.00,0.0029
3620.00,0.0029
3619.00,0.0029
3618.00,0.0030
3617.00,0.0030
3616.00,0.0031
3615.00,0.0032
3614.00,0.0032
3613.00,0.0033
3612.00,0.0034
3611.00,0.0034
3610.00,0.0034
3609.00,0.0035
3608.00,0.0036
3607.00,0.0036
3606.00,0.0038
3605.00,0.0039
3604.00,0.0040
3603.00,0.0041
3602.00,0.0042
3601.00,0.0043
3600.00,0.0044
3599.00,0.0044
3598.00,0.0044
3597.00,0.0044
3596.00,0.0045
3595.00,0.0045
3594.00,0.0046
3593.00,0.0047
3592.00,0.0048
3591.00,0.0048
3590.00,0.0049
3589.00,0.0050
3588.00,0.0050
3587.00,0.0050
3586.00,0.0051
3585.00,0.0052
3584.00,0.0054
3583.00,0.0055
3582.00,0.0056
3581.00,0.0058
3580.00,0.0059
3579.00,0.0059
3578.00,0.0060
3577.00,0.0061
3576.00,0.0062
3575.00,0.0063
3574.00,0.0064
3573.00,0.0065
3572.00,0.0066
3571.00,0.0067
3570.00,0.0067
3569.00,0.0068
3568.00,0.0068
3567.00,0.0068
3566.00,0.0068
3565.00,0.0069
3564.00,0.0070
3563.00,0.0072
3562.00,0.0073
3561.00,0.0074
3560.00,0.0075
3559.00,0.0076
3558.00,0.0077
3557.00,0.0078
3556.00,0.0079
3555.00,0.0079
3554.00,0.0080
3553.00,0.0081
3552.00,0.0081
3551.00,0.0082
3550.00,0.0083
3549.00,0.0083
3548.00,0.0084
3547.00,0.0084
3546.00,0.0085
3545.00,0.0085
3544.00,0.0086
3543.00,0.0087
3542.00,0.0087
3541.00,0.0088
3540.00,0.0089
3539.00,0.0090
3538.00,0.0090
3537.00,0.0091
3536.00,0.0091
3535.00,0.0092
3534.00,0.0093
3533.00,0.0093
3532.00,0.0094
3531.00,0.0095
3530.00,0.0095
3529.00,0.0095
3528.00,0.0096
3527.00,0.0096
3526.00,0.0097
3525.00,0.0097
3524.00,0.0097
3523.00,0.0098
3522.00,0.0098
3521.00,0.0098
3520.00,0.0099
3519.00,0.0099
3518.00,0.0100
3517.00,0.0101
3516.00,0.0101
3515.00,0.0102
3514.00,0.0103
3513.00,0.0103
3512.00,0.0104
3511.00,0.0104
3510.00,0.0104
3509.00,0.0105
3508.00,0.0105
3507.00,0.0105
3506.00,0.0106
3505.00,0.0106
3504.00,0.0107
3503.00,0.0107
3502.00,0.0107
3501.00,0.0107
3500.00,0.0108
3499.00,0.0108
3498.00,0.0109
3497.00,0.0109
3496.00,0.0110
3495.00,0.0110
3494.00,0.0110
3493.00,0.0110
3492.00,0.0111
3491.00,0.0111
3490.00,0.0112
3489.00,0.0112
3488.00,0.0113
3487.00,0.0113
3486.00,0.0113
3485.00,0.0114
3484.00,0.0114
3483.00,0.0114
3482.00,0.0115
3481.00,0.0115
3480.00,0.0115
3479.00,0.0116
3478.00,0.0116
3477.00,0.0116
3476.00,0.0117
3475.00,0.0117
3474.00,0.0117
3473.00,0.0117
3472.00,0.0117
3471.00,0.0118
3470.00,0.0118
3469.00,0.0118
3468.00,0.0119
3467.00,0.0119
3466.00,0.0120
3465.00,0.0120
3464.00,0.0120
3463.00,0.0120
3462.00,0.0120
3461.00,0.0120
3460.00,0.0120
3459.00,0.0120
3458.00,0.0120
3457.00,0.0120
3456.00,0.0121
3455.00,0.0121
3454.00,0.0121
3453.00,0.0122
3452.00,0.0122
3451.00,0.0122
3450.00,0.0122
3449.00,0.0123
3448.00,0.0122
3447.00,0.0122
3446.00,0.0122
3445.00,0.0122
3444.00,0.0122
3443.00,0.0122
3442.00,0.0122
3441.00,0.0122
3440.00,0.0122
3439.00,0.0122
3438.00,0.0122
3437.00,0.0123
3436.00,0.0123
3435.00,0.0123
3434.00,0.0123
3433.00,0.0123
3432.00,0.0123
3431.00,0.0123
3430.00,0.0123
3429.00,0.0123
3428.00,0.0123
3427.00,0.0123
3426.00,0.0122
3425.00,0.0122
3424.00,0.0122
3423.00,0.0122
3422.00,0.0122
3421.00,0.0122
3420.00,0.0122
3419.00,0.0122
3418.00,0.0122
3417.00,0.0122
3416.00,0.0122
3415.00,0.0122
3414.00,0.0122
3413.00,0.0122
3412.00,0.0122
3411.00,0.0122
3410.00,0.0122
3409.00,0.0121
3408.00,0.0121
3407.00,0.0121
3406.00,0.0121
3405.00,0.0121
3404.00,0.0121
3403.00,0.0121
3402.00,0.0121
3401.00,0.0121
3400.00,0.0120
3399.00,0.0120
3398.00,0.0119
3397.00,0.0119
3396.00,0.0119
3395.00,0.0119
3394.00,0.0119
3393.00,0.0119
3392.00,0.0119
3391.00,0.0119
3390.00,0.0119
3389.00,0.0119
3388.00,0.0118
3387.00,0.0118
3386.00,0.0118
3385.00,0.0118
3384.00,0.0118
3383.00,0.0118
3382.00,0.0118
3381.00,0.0118
3380.00,0.0118
3379.00,0.0117
3378.00,0.0117
3377.00,0.0117
3376.00,0.0116
3375.00,0.0116
3374.00,0.0116
3373.00,0.0116
3372.00,0.0115
3371.00,0.0114
3370.00,0.0114
3369.00,0.0114
3368.00,0.0114
3367.00,0.0114
3366.00,0.0114
3365.00,0.0115
3364.00,0.0115
3363.00,0.0115
3362.00,0.0114
3361.00,0.0114
3360.00,0.0114
3359.00,0.0114
3358.00,0.0114
3357.00,0.0114
3356.00,0.0114
3355.00,0.0114
3354.00,0.0113
3353.00,0.0113
3352.00,0.0112
3351.00,0.0112
3350.00,0.0112
3349.00,0.0113
3348.00,0.0113
3347.00,0.0113
3346.00,0.0113
3345.00,0.0112
3344.00,0.0112
3343.00,0.0112
3342.00,0.0111
3341.00,0.0111
3340.00,0.0111
3339.00,0.0110
3338.00,0.0111
3337.00,0.0111
3336.00,0.0112
3335.00,0.0112
3334.00,0.0112
3333.00,0.0112
3332.00,0.0112
3331.00,0.0112
3330.00,0.0111
3329.00,0.0111
3328.00,0.0111
3327.00,0.0110
3326.00,0.0110
3325.00,0.0110
3324.00,0.0110
3323.00,0.0110
3322.00,0.0111
3321.00,0.0111
3320.00,0.0111
3319.00,0.0111
3318.00,0.0111
3317.00,0.0111
3316.00,0.0111
3315.00,0.0111
3314.00,0.0111
3313.00,0.0111
3312.00,0.0110
3311.00,0.0109
3310.00,0.0109
3309.00,0.0108
3308.00,0.0107
3307.00,0.0107
3306.00,0.0107
3305.00,0.0108
3304.00,0.0108
3303.00,0.0109
3302.00,0.0110
3301.00,0.0110
3300.00,0.0110
3299.00,0.0110
3298.00,0.0109
3297.00,0.0109
3296.00,0.0109
3295.00,0.0109
3294.00,0.0109
3293.00,0.0109
3292.00,0.0109
3291.00,0.0109
3290.00,0.0109
3289.00,0.0110
3288.00,0.0110
3287.00,0.0110
3286.00,0.0110
3285.00,0.0110
3284.00,0.0110
3283.00,0.0110
3282.00,0.0110
3281.00,0.0110
3280.00,0.0110
3279.00,0.0110
3278.00,0.0110
3277.00,0.0109
3276.00,0.0109
3275.00,0.0108
3274.00,0.0108
3273.00,0.0108
3272.00,0.0107
3271.00,0.0107
3270.00,0.0107
3269.00,0.0107
3268.00,0.0108
3267.00,0.0108
3266.00,0.0108
3265.00,0.0108
3264.00,0.0108
3263.00,0.0107
3262.00,0.0107
3261.00,0.0107
3260.00,0.0107
3259.00,0.0107
3258.00,0.0106
3257.00,0.0106
3256.00,0.0106
3255.00,0.0105
3254.00,0.0105
3253.00,0.0105
3252.00,0.0105
3251.00,0.0105
3250.00,0.0105
3249.00,0.0105
3248.00,0.0104
3247.00,0.0104
3246.00,0.0104
3245.00,0.0104
3244.00,0.0104
3243.00,0.0104
3242.00,0.0103
3241.00,0.0103
3240.00,0.0103
3239.00,0.0104
3238.00,0.0103
3237.00,0.0103
3236.00,0.0102
3235.00,0.0102
3234.00,0.0101
3233.00,0.0101
3232.00,0.0101
3231.00,0.0101
3230.00,0.0101
3229.00,0.0101
3228.00,0.0101
3227.00,0.0101
3226.00,0.0100
3225.00,0.0100
3224.00,0.0100
3223.00,0.0100
3222.00,0.0100
3221.00,0.0099
3220.00,0.0099
3219.00,0.0099
3218.00,0.0099
3217.00,0.0098
3216.00,0.0098
3215.00,0.0098
3214.00,0.0097
3213.00,0.0097
3212.00,0.0097
3211.00,0.0096
3210.00,0.0096
3209.00,0.0096
3208.00,0.0096
3207.00,0.0095
3206.00,0.0095
3205.00,0.0095
3204.00,0.0094
3203.00,0.0094
3202.00,0.0094
3201.00,0.0094
3200.00,0.0093
3199.00,0.0093
3198.00,0.0093
3197.00,0.0092
3196.00,0.0092
3195.00,0.0092
3194.00,0.0092
3193.00,0.0092
3192.00,0.0092
3191.00,0.0091
3190.00,0.0091
3189.00,0.0091
3188.00,0.0090
3187.00,0.0090
3186.00,0.0090
3185.00,0.0090
3184.00,0.0090
3183.00,0.0089
3182.00,0.0089
3181.00,0.0089
3180.00,0.0088
3179.00,0.0088
3178.00,0.0088
3177.00,0.0088
3176.00,0.0088
3175.00,0.0088
3174.00,0.0088
3173.00,0.0088
3172.00,0.0087
3171.00,0.0087
3170.00,0.0087
3169.00,0.0086
3168.00,0.0086
3167.00,0.0086
3166.00,0.0086
3165.00,0.0085
3164.00,0.0085
3163.00,0.0085
3162.00,0.0085
3161.00,0.0085
3160.00,0.0085
3159.00,0.0084
3158.00,0.0084
3157.00,0.0084
3156.00,0.0084
3155.00,0.0083
3154.00,0.0083
3153.00,0.0083
3152.00,0.0082
3151.00,0.0082
3150.00,0.0082
3149.00,0.0082
3148.00,0.0082
3147.00,0.0081
3146.00,0.0081
3145.00,0.0081
3144.00,0.0080
3143.00,0.0080
3142.00,0.0080
3141.00,0.0080
3140.00,0.0080
3139.00,0.0079
3138.00,0.0079
3137.00,0.0079
3136.00,0.0079
3135.00,0.0078
3134.00,0.0078
3133.00,0.0078
3132.00,0.0078
3131.00,0.0078
3130.00,0.0078
3129.00,0.0078
3128.00,0.0078
3127.00,0.0078
3126.00,0.0078
3125.00,0.0078
3124.00,0.0078
3123.00,0.0077
3122.00,0.0077
3121.00,0.0077
3120.00,0.0077
3119.00,0.0077
3118.00,0.0077
3117.00,0.0077
3116.00,0.0077
3115.00,0.0077
3114.00,0.0076
3113.00,0.0076
3112.00,0.0075
3111.00,0.0075
3110.00,0.0075
3109.00,0.0074
3108.00,0.0074
3107.00,0.0074
3106.00,0.0074
3105.00,0.0074
3104.00,0.0073
3103.00,0.0073
3102.00,0.0072
3101.00,0.0072
3100.00,0.0072
3099.00,0.0072
3098.00,0.0072
3097.00,0.0072
3096.00,0.0072
3095.00,0.0072
3094.00,0.0071
3093.00,0.0071
3092.00,0.0071
3091.00,0.0071
3090.00,0.0071
3089.00,0.0071
3088.00,0.0072
3087.00,0.0072
3086.00,0.0072
3085.00,0.0072
3084.00,0.0072
3083.00,0.0072
3082.00,0.0072
3081.00,0.0072
3080.00,0.0071
3079.00,0.0071
3078.00,0.0071
3077.00,0.0071
3076.00,0.0071
3075.00,0.0071
3074.00,0.0071
3073.00,0.0071
3072.00,0.0071
3071.00,0.0071
3070.00,0.0071
3069.00,0.0070
3068.00,0.0070
3067.00,0.0069
3066.00,0.0069
3065.00,0.0068
3064.00,0.0068
3063.00,0.0068
3062.00,0.0068
3061.00,0.0068
3060.00,0.0068
3059.00,0.0068
3058.00,0.0068
3057.00,0.0068
3056.00,0.0067
3055.00,0.0067
3054.00,0.0067
3053.00,0.0067
3052.00,0.0067
3051.00,0.0066
3050.00,0.0066
3049.00,0.0066
3048.00,0.0066
3047.00,0.0066
3046.00,0.0066
3045.00,0.0066
3044.00,0.0066
3043.00,0.0066
3042.00,0.0065
3041.00,0.0065
3040.00,0.0065
3039.00,0.0065
3038.00,0.0065
3037.00,0.0065
3036.00,0.0065
3035.00,0.0065
3034.00,0.0065
3033.00,0.0065
3032.00,0.0065
3031.00,0.0065
3030.00,0.0065
3029.00,0.0064
3028.00,0.0064
3027.00,0.0064
3026.00,0.0064
3025.00,0.0064
3024.00,0.0064
3023.00,0.0064
3022.00,0.0064
3021.00,0.0064
3020.00,0.0064
3019.00,0.0064
3018.00,0.0064
3017.00,0.0065
3016.00,0.0065
3015.00,0.0065
3014.00,0.0066
3013.00,0.0066
3012.00,0.0067
3011.00,0.0068
3010.00,0.0069
3009.00,0.0070
3008.00,0.0071
3007.00,0.0073
3006.00,0.0074
3005.00,0.0076
3004.00,0.0078
3003.00,0.0080
3002.00,0.0082
3001.00,0.0084
3000.00,0.0086
2999.00,0.0089
2998.00,0.0092
2997.00,0.0096
2996.00,0.0099
2995.00,0.0103
2994.00,0.0106
2993.00,0.0110
2992.00,0.0114
2991.00,0.0118
2990.00,0.0122
2989.00,0.0127
2988.00,0.0131
2987.00,0.0136
2986.00,0.0140
2985.00,0.0143
2984.00,0.0147
2983.00,0.0150
2982.00,0.0153
2981.00,0.0156
2980.00,0.0159
2979.00,0.0161
2978.00,0.0164
2977.00,0.0166
2976.00,0.0168
2975.00,0.0169
2974.00,0.0171
2973.00,0.0173
2972.00,0.0174
2971.00,0.0176
2970.00,0.0178
2969.00,0.0180
2968.00,0.0182
2967.00,0.0185
2966.00,0.0187
2965.00,0.0190
2964.00,0.0193
2963.00,0.0196
2962.00,0.0199
2961.00,0.0202
2960.00,0.0204
2959.00,0.0207
2958.00,0.0210
2957.00,0.0212
2956.00,0.0214
2955.00,0.0215
2954.00,0.0217
2953.00,0.0217
2952.00,0.0217
2951.00,0.0217
2950.00,0.0216
2949.00,0.0215
2948.00,0.0214
2947.00,0.0213
2946.00,0.0212
2945.00,0.0211
2944.00,0.0210
2943.00,0.0210
2942.00,0.0209
2941.00,0.0209
2940.00,0.0210
2939.00,0.0210
2938.00,0.0211
2937.00,0.0213
2936.00,0.0214
2935.00,0.0216
2934.00,0.0218
2933.00,0.0221
2932.00,0.0223
2931.00,0.0225
2930.00,0.0226
2929.00,0.0228
2928.00,0.0230
2927.00,0.0231
2926.00,0.0232
2925.00,0.0232
2924.00,0.0232
2923.00,0.0231
2922.00,0.0230
2921.00,0.0228
2920.00,0.0226
2919.00,0.0224
2918.00,0.0221
2917.00,0.0217
2916.00,0.0213
2915.00,0.0209
2914.00,0.0205
2913.00,0.0201
2912.00,0.0197
2911.00,0.0193
2910.00,0.0189
2909.00,0.0185
2908.00,0.0182
2907.00,0.0178
2906.00,0.0175
2905.00,0.0173
2904.00,0.0170
2903.00,0.0169
2902.00,0.0167
2901.00,0.0166
2900.00,0.0165
2899.00,0.0165
2898.00,0.0164
2897.00,0.0164
2896.00,0.0164
2895.00,0.0164
2894.00,0.0164
2893.00,0.0164
2892.00,0.0164
2891.00,0.0164
2890.00,0.0163
2889.00,0.0163
2888.00,0.0163
2887.00,0.0162
2886.00,0.0162
2885.00,0.0162
2884.00,0.0162
2883.00,0.0162
2882.00,0.0162
2881.00,0.0163
2880.00,0.0163
2879.00,0.0164
2878.00,0.0164
2877.00,0.0165
2876.00,0.0166
2875.00,0.0166
2874.00,0.0167
2873.00,0.0168
2872.00,0.0168
2871.00,0.0168
2870.00,0.0168
2869.00,0.0168
2868.00,0.0167
2867.00,0.0166
2866.00,0.0166
2865.00,0.0165
2864.00,0.0165
2863.00,0.0165
2862.00,0.0165
2861.00,0.0166
2860.00,0.0166
2859.00,0.0165
2858.00,0.0165
2857.00,0.0164
2856.00,0.0162
2855.00,0.0159
2854.00,0.0156
2853.00,0.0152
2852.00,0.0147
2851.00,0.0142
2850.00,0.0137
2849.00,0.0132
2848.00,0.0127
2847.00,0.0123
2846.00,0.0118
2845.00,0.0114
2844.00,0.0110
2843.00,0.0106
2842.00,0.0102
2841.00,0.0098
2840.00,0.0095
2839.00,0.0092
2838.00,0.0089
2837.00,0.0087
2836.00,0.0084
2835.00,0.0082
2834.00,0.0080
2833.00,0.0078
2832.00,0.0076
2831.00,0.0074
2830.00,0.0072
2829.00,0.0070
2828.00,0.0069
2827.00,0.0067
2826.00,0.0065
2825.00,0.0063
2824.00,0.0061
2823.00,0.0060
2822.00,0.0058
2821.00,0.0057
2820.00,0.0056
2819.00,0.0055
2818.00,0.0054
2817.00,0.0053
2816.00,0.0052
2815.00,0.0051
2814.00,0.0050
2813.00,0.0049
2812.00,0.0049
2811.00,0.0048
2810.00,0.0048
2809.00,0.0047
2808.00,0.0047
2807.00,0.0046
2806.00,0.0046
2805.00,0.0046
2804.00,0.0045
2803.00,0.0045
2802.00,0.0044
2801.00,0.0044
2800.00,0.0043
2799.00,0.0043
2798.00,0.0042
2797.00,0.0042
2796.00,0.0042
2795.00,0.0042
2794.00,0.0041
2793.00,0.0041
2792.00,0.0041
2791.00,0.0041
2790.00,0.0040
2789.00,0.0040
2788.00,0.0040
2787.00,0.0040
2786.00,0.0040
2785.00,0.0039
2784.00,0.0039
2783.00,0.0038
2782.00,0.0038
2781.00,0.0038
2780.00,0.0038
2779.00,0.0038
2778.00,0.0038
2777.00,0.0038
2776.00,0.0038
2775.00,0.0038
2774.00,0.0038
2773.00,0.0037
2772.00,0.0037
2771.00,0.0037
2770.00,0.0036
2769.00,0.0036
2768.00,0.0036
2767.00,0.0036
2766.00,0.0036
2765.00,0.0036
2764.00,0.0036
2763.00,0.0036
2762.00,0.0035
2761.00,0.0035
2760.00,0.0036
2759.00,0.0036
2758.00,0.0036
2757.00,0.0035
2756.00,0.0035
2755.00,0.0036
2754.00,0.0036
2753.00,0.0036
2752.00,0.0036
2751.00,0.0036
2750.00,0.0036
2749.00,0.0036
2748.00,0.0037
2747.00,0.0037
2746.00,0.0037
2745.00,0.0037
2744.00,0.0037
2743.00,0.0037
2742.00,0.0037
2741.00,0.0037
2740.00,0.0037
2739.00,0.0037
2738.00,0.0037
2737.00,0.0037
2736.00,0.0037
2735.00,0.0037
2734.00,0.0037
2733.00,0.0037
2732.00,0.0037
2731.00,0.0037
2730.00,0.0037
2729.00,0.0036
2728.00,0.0036
2727.00,0.0036
2726.00,0.0036
2725.00,0.0036
2724.00,0.0036
2723.00,0.0035
2722.00,0.0036
2721.00,0.0036
2720.00,0.0036
2719.00,0.0036
2718.00,0.0035
2717.00,0.0035
2716.00,0.0035
2715.00,0.0035
2714.00,0.0034
2713.00,0.0034
2712.00,0.0034
2711.00,0.0034
2710.00,0.0034
2709.00,0.0034
2708.00,0.0034
2707.00,0.0034
2706.00,0.0034
2705.00,0.0033
2704.00,0.0033
2703.00,0.0033
2702.00,0.0033
2701.00,0.0033
2700.00,0.0033
2699.00,0.0032
2698.00,0.0032
2697.00,0.0032
2696.00,0.0032
2695.00,0.0032
2694.00,0.0031
2693.00,0.0031
2692.00,0.0031
2691.00,0.0031
2690.00,0.0031
2689.00,0.0031
2688.00,0.0031
2687.00,0.0031
2686.00,0.0031
2685.00,0.0031
2684.00,0.0030
2683.00,0.0030
2682.00,0.0030
2681.00,0.0030
2680.00,0.0030
2679.00,0.0030
2678.00,0.0030
2677.00,0.0030
2676.00,0.0029
2675.00,0.0029
2674.00,0.0029
2673.00,0.0029
2672.00,0.0029
2671.00,0.0029
2670.00,0.0029
2669.00,0.0029
2668.00,0.0029
2667.00,0.0029
2666.00,0.0029
2665.00,0.0030
2664.00,0.0030
2663.00,0.0031
2662.00,0.0031
2661.00,0.0031
2660.00,0.0032
2659.00,0.0032
2658.00,0.0032
2657.00,0.0032
2656.00,0.0032
2655.00,0.0032
2654.00,0.0032
2653.00,0.0032
2652.00,0.0032
2651.00,0.0032
2650.00,0.0031
2649.00,0.0031
2648.00,0.0031
2647.00,0.0031
2646.00,0.0031
2645.00,0.0031
2644.00,0.0031
2643.00,0.0031
2642.00,0.0031
2641.00,0.0031
2640.00,0.0030
2639.00,0.0030
2638.00,0.0030
2637.00,0.0029
2636.00,0.0029
2635.00,0.0029
2634.00,0.0029
2633.00,0.0029
2632.00,0.0028
2631.00,0.0028
2630.00,0.0028
2629.00,0.0028
2628.00,0.0028
2627.00,0.0028
2626.00,0.0028
2625.00,0.0028
2624.00,0.0028
2623.00,0.0028
2622.00,0.0027
2621.00,0.0027
2620.00,0.0027
2619.00,0.0027
2618.00,0.0027
2617.00,0.0027
2616.00,0.0027
2615.00,0.0027
2614.00,0.0027
2613.00,0.0026
2612.00,0.0026
2611.00,0.0026
2610.00,0.0026
2609.00,0.0026
2608.00,0.0025
2607.00,0.0025
2606.00,0.0025
2605.00,0.0025
2604.00,0.0025
2603.00,0.0025
2602.00,0.0025
2601.00,0.0025
2600.00,0.0025
2599.00,0.0025
2598.00,0.0025
2597.00,0.0025
2596.00,0.0025
2595.00,0.0024
2594.00,0.0024
2593.00,0.0024
2592.00,0.0024
2591.00,0.0024
2590.00,0.0024
2589.00,0.0024
2588.00,0.0024
2587.00,0.0023
2586.00,0.0023
2585.00,0.0023
2584.00,0.0023
2583.00,0.0023
2582.00,0.0023
2581.00,0.0023
2580.00,0.0023
2579.00,0.0023
2578.00,0.0023
2577.00,0.0023
2576.00,0.0023
2575.00,0.0023
2574.00,0.0023
2573.00,0.0023
2572.00,0.0023
2571.00,0.0023
2570.00,0.0023
2569.00,0.0022
2568.00,0.0022
2567.00,0.0022
2566.00,0.0022
2565.00,0.0021
2564.00,0.0021
2563.00,0.0021
2562.00,0.0021
2561.00,0.0021
2560.00,0.0021
2559.00,0.0021
2558.00,0.0021
2557.00,0.0020
2556.00,0.0020
2555.00,0.0020
2554.00,0.0020
2553.00,0.0020
2552.00,0.0020
2551.00,0.0020
2550.00,0.0020
2549.00,0.0020
2548.00,0.0020
2547.00,0.0020
2546.00,0.0019
2545.00,0.0019
2544.00,0.0019
2543.00,0.0019
2542.00,0.0019
2541.00,0.0019
2540.00,0.0019
2539.00,0.0019
2538.00,0.0019
2537.00,0.0018
2536.00,0.0018
2535.00,0.0018
2534.00,0.0017
2533.00,0.0017
2532.00,0.0017
2531.00,0.0017
2530.00,0.0016
2529.00,0.0016
2528.00,0.0016
2527.00,0.0015
2526.00,0.0015
2525.00,0.0015
2524.00,0.0015
2523.00,0.0015
2522.00,0.0015
2521.00,0.0015
2520.00,0.0015
2519.00,0.0015
2518.00,0.0014
2517.00,0.0014
2516.00,0.0013
2515.00,0.0013
2514.00,0.0013
2513.00,0.0013
2512.00,0.0013
2511.00,0.0013
2510.00,0.0013
2509.00,0.0013
2508.00,0.0013
2507.00,0.0014
2506.00,0.0014
2505.00,0.0013
2504.00,0.0013
2503.00,0.0013
2502.00,0.0013
2501.00,0.0013
2500.00,0.0013
2499.00,0.0013
2498.00,0.0013
2497.00,0.0013
2496.00,0.0013
2495.00,0.0013
2494.00,0.0013
2493.00,0.0012
2492.00,0.0012
2491.00,0.0012
2490.00,0.0012
2489.00,0.0012
2488.00,0.0012
2487.00,0.0012
2486.00,0.0012
2485.00,0.0012
2484.00,0.0012
2483.00,0.0011
2482.00,0.0011
2481.00,0.0011
2480.00,0.0011
2479.00,0.0011
2478.00,0.0011
2477.00,0.0012
2476.00,0.0012
2475.00,0.0012
2474.00,0.0011
2473.00,0.0011
2472.00,0.0011
2471.00,0.0011
2470.00,0.0011
2469.00,0.0011
2468.00,0.0011
2467.00,0.0011
2466.00,0.0012
2465.00,0.0012
2464.00,0.0012
2463.00,0.0012
2462.00,0.0012
2461.00,0.0013
2460.00,0.0013
2459.00,0.0013
2458.00,0.0013
2457.00,0.0013
2456.00,0.0013
2455.00,0.0013
2454.00,0.0012
2453.00,0.0012
2452.00,0.0012
2451.00,0.0012
2450.00,0.0012
2449.00,0.0012
2448.00,0.0011
2447.00,0.0011
2446.00,0.0011
2445.00,0.0011
2444.00,0.0011
2443.00,0.0011
2442.00,0.0011
2441.00,0.0011
2440.00,0.0011
2439.00,0.0011
2438.00,0.0011
2437.00,0.0010
2436.00,0.0010
2435.00,0.0010
2434.00,0.0010
2433.00,0.0010
2432.00,0.0010
2431.00,0.0011
2430.00,0.0011
2429.00,0.0011
2428.00,0.0011
2427.00,0.0010
2426.00,0.0010
2425.00,0.0010
2424.00,0.0011
2423.00,0.0011
2422.00,0.0011
2421.00,0.0011
2420.00,0.0011
2419.00,0.0010
2418.00,0.0010
2417.00,0.0010
2416.00,0.0010
2415.00,0.0010
2414.00,0.0010
2413.00,0.0010
2412.00,0.0010
2411.00,0.0010
2410.00,0.0010
2409.00,0.0010
2408.00,0.0009
2407.00,0.0009
2406.00,0.0009
2405.00,0.0009
2404.00,0.0009
2403.00,0.0009
2402.00,0.0009
2401.00,0.0009
2400.00,0.0009
2399.00,0.0009
2398.00,0.0008
2397.00,0.0008
2396.00,0.0008
2395.00,0.0008
2394.00,0.0008
2393.00,0.0009
2392.00,0.0009
2391.00,0.0008
2390.00,0.0008
2389.00,0.0007
2388.00,0.0007
2387.00,0.0007
2386.00,0.0006
2385.00,0.0006
2384.00,0.0005
2383.00,0.0005
2382.00,0.0004
2381.00,0.0004
2380.00,0.0004
2379.00,0.0004
2378.00,0.0004
2377.00,0.0004
2376.00,0.0004
2375.00,0.0004
2374.00,0.0004
2373.00,0.0004
2372.00,0.0003
2371.00,0.0003
2370.00,0.0002
2369.00,0.0002
2368.00,0.0002
2367.00,0.0002
2366.00,0.0002
2365.00,0.0002
2364.00,0.0003
2363.00,0.0003
2362.00,0.0003
2361.00,0.0003
2360.00,0.0004
2359.00,0.0003
2358.00,0.0003
2357.00,0.0003
2356.00,0.0003
2355.00,0.0004
2354.00,0.0004
2353.00,0.0003
2352.00,0.0003
2351.00,0.0003
2350.00,0.0004
2349.00,0.0004
2348.00,0.0006
2347.00,0.0006
2346.00,0.0006
2345.00,0.0006
2344.00,0.0006
2343.00,0.0006
2342.00,0.0007
2341.00,0.0007
2340.00,0.0007
2339.00,0.0007
2338.00,0.0007
2337.00,0.0007
2336.00,0.0007
2335.00,0.0007
2334.00,0.0007
2333.00,0.0006
2332.00,0.0006
2331.00,0.0007
2330.00,0.0007
2329.00,0.0009
2328.00,0.0012
2327.00,0.0016
2326.00,0.0020
2325.00,0.0021
2324.00,0.0021
2323.00,0.0019
2322.00,0.0017
2321.00,0.0015
2320.00,0.0014
2319.00,0.0014
2318.00,0.0014
2317.00,0.0014
2316.00,0.0014
2315.00,0.0013
2314.00,0.0013
2313.00,0.0013
2312.00,0.0013
2311.00,0.0013
2310.00,0.0013
2309.00,0.0013
2308.00,0.0013
2307.00,0.0013
2306.00,0.0013
2305.00,0.0013
2304.00,0.0013
2303.00,0.0013
2302.00,0.0014
2301.00,0.0014
2300.00,0.0014
2299.00,0.0014
2298.00,0.0014
2297.00,0.0015
2296.00,0.0016
2295.00,0.0016
2294.00,0.0017
2293.00,0.0018
2292.00,0.0019
2291.00,0.0019
2290.00,0.0020
2289.00,0.0020
2288.00,0.0020
2287.00,0.0020
2286.00,0.0020
2285.00,0.0019
2284.00,0.0019
2283.00,0.0019
2282.00,0.0018
2281.00,0.0018
2280.00,0.0018
2279.00,0.0018
2278.00,0.0017
2277.00,0.0017
2276.00,0.0017
2275.00,0.0017
2274.00,0.0016
2273.00,0.0015
2272.00,0.0015
2271.00,0.0015
2270.00,0.0014
2269.00,0.0013
2268.00,0.0013
2267.00,0.0012
2266.00,0.0012
2265.00,0.0012
2264.00,0.0013
2263.00,0.0014
2262.00,0.0014
2261.00,0.0015
2260.00,0.0015
2259.00,0.0015
2258.00,0.0014
2257.00,0.0012
2256.00,0.0011
2255.00,0.0011
2254.00,0.0011
2253.00,0.0012
2252.00,0.0012
2251.00,0.0013
2250.00,0.0013
2249.00,0.0012
2248.00,0.0013
2247.00,0.0013
2246.00,0.0013
2245.00,0.0013
2244.00,0.0013
2243.00,0.0013
2242.00,0.0013
2241.00,0.0013
2240.00,0.0013
2239.00,0.0014
2238.00,0.0014
2237.00,0.0014
2236.00,0.0014
2235.00,0.0014
2234.00,0.0014
2233.00,0.0014
2232.00,0.0013
2231.00,0.0012
2230.00,0.0011
2229.00,0.0011
2228.00,0.0012
2227.00,0.0012
2226.00,0.0012
2225.00,0.0012
2224.00,0.0012
2223.00,0.0012
2222.00,0.0012
2221.00,0.0012
2220.00,0.0013
2219.00,0.0013
2218.00,0.0013
2217.00,0.0013
2216.00,0.0013
2215.00,0.0013
2214.00,0.0012
2213.00,0.0012
2212.00,0.0013
2211.00,0.0013
2210.00,0.0012
2209.00,0.0013
2208.00,0.0013
2207.00,0.0014
2206.00,0.0015
2205.00,0.0015
2204.00,0.0015
2203.00,0.0015
2202.00,0.0014
2201.00,0.0013
2200.00,0.0013
2199.00,0.0013
2198.00,0.0013
2197.00,0.0013
2196.00,0.0014
2195.00,0.0014
2194.00,0.0014
2193.00,0.0014
2192.00,0.0015
2191.00,0.0015
2190.00,0.0015
2189.00,0.0016
2188.00,0.0017
2187.00,0.0017
2186.00,0.0017
2185.00,0.0016
2184.00,0.0015
2183.00,0.0013
2182.00,0.0012
2181.00,0.0012
2180.00,0.0013
2179.00,0.0013
2178.00,0.0013
2177.00,0.0011
2176.00,0.0009
2175.00,0.0008
2174.00,0.0009
2173.00,0.0010
2172.00,0.0013
2171.00,0.0015
2170.00,0.0017
2169.00,0.0018
2168.00,0.0018
2167.00,0.0019
2166.00,0.0019
2165.00,0.0020
2164.00,0.0023
2163.00,0.0024
2162.00,0.0020
2161.00,0.0012
2160.00,0.0000
2159.00,-0.0010
2158.00,-0.0015
2157.00,-0.0016
2156.00,-0.0014
2155.00,-0.0012
2154.00,-0.0009
2153.00,-0.0008
2152.00,-0.0006
2151.00,-0.0006
2150.00,-0.0007
2149.00,-0.0008
2148.00,-0.0008
2147.00,-0.0008
2146.00,-0.0008
2145.00,-0.0007
2144.00,-0.0005
2143.00,-0.0004
2142.00,-0.0002
2141.00,-0.0002
2140.00,-0.0001
2139.00,-0.0002
2138.00,-0.0003
2137.00,-0.0005
2136.00,-0.0007
2135.00,-0.0008
2134.00,-0.0008
2133.00,-0.0008
2132.00,-0.0006
2131.00,-0.0005
2130.00,-0.0004
2129.00,-0.0002
2128.00,-0.0001
2127.00,0.0001
2126.00,0.0002
2125.00,0.0003
2124.00,0.0003
2123.00,0.0004
2122.00,0.0004
2121.00,0.0004
2120.00,0.0005
2119.00,0.0006
2118.00,0.0007
2117.00,0.0008
2116.00,0.0009
2115.00,0.0010
2114.00,0.0010
2113.00,0.0010
2112.00,0.0010
2111.00,0.0010
2110.00,0.0009
2109.00,0.0009
2108.00,0.0008
2107.00,0.0008
2106.00,0.0008
2105.00,0.0008
2104.00,0.0008
2103.00,0.0009
2102.00,0.0010
2101.00,0.0011
2100.00,0.0011
2099.00,0.0010
2098.00,0.0008
2097.00,0.0006
2096.00,0.0005
2095.00,0.0004
2094.00,0.0004
2093.00,0.0004
2092.00,0.0006
2091.00,0.0006
2090.00,0.0007
2089.00,0.0008
2088.00,0.0009
2087.00,0.0010
2086.00,0.0010
2085.00,0.0010
2084.00,0.0010
2083.00,0.0011
2082.00,0.0011
2081.00,0.0011
2080.00,0.0011
2079.00,0.0011
2078.00,0.0011
2077.00,0.0011
2076.00,0.0011
2075.00,0.0010
2074.00,0.0010
2073.00,0.0009
2072.00,0.0009
2071.00,0.0009
2070.00,0.0009
2069.00,0.0009
2068.00,0.0009
2067.00,0.0009
2066.00,0.0009
2065.00,0.0008
2064.00,0.0008
2063.00,0.0007
2062.00,0.0007
2061.00,0.0007
2060.00,0.0008
2059.00,0.0009
2058.00,0.0009
2057.00,0.0010
2056.00,0.0010
2055.00,0.0011
2054.00,0.0013
2053.00,0.0015
2052.00,0.0018
2051.00,0.0019
2050.00,0.0017
2049.00,0.0014
2048.00,0.0012
2047.00,0.0011
2046.00,0.0011
2045.00,0.0011
2044.00,0.0012
2043.00,0.0012
2042.00,0.0011
2041.00,0.0011
2040.00,0.0011
2039.00,0.0012
2038.00,0.0011
2037.00,0.0010
2036.00,0.0008
2035.00,0.0007
2034.00,0.0004
2033.00,0.0002
2032.00,0.0001
2031.00,0.0001
2030.00,0.0001
2029.00,0.0002
2028.00,0.0003
2027.00,0.0004
2026.00,0.0004
2025.00,0.0003
2024.00,0.0002
2023.00,0.0002
2022.00,0.0001
2021.00,0.0000
2020.00,0.0000
2019.00,0.0000
2018.00,-0.0000
2017.00,-0.0000
2016.00,0.0000
2015.00,0.0001
2014.00,0.0000
2013.00,-0.0000
2012.00,-0.0000
2011.00,0.0000
2010.00,-0.0000
2009.00,-0.0001
2008.00,-0.0002
2007.00,-0.0003
2006.00,-0.0004
2005.00,-0.0005
2004.00,-0.0005
2003.00,-0.0004
2002.00,-0.0003
2001.00,-0.0002
2000.00,-0.0000
1999.00,0.0001
1998.00,0.0001
1997.00,0.0001
1996.00,0.0001
1995.00,0.0002
1994.00,0.0002
1993.00,0.0002
1992.00,0.0003
1991.00,0.0004
1990.00,0.0005
1989.00,0.0006
1988.00,0.0008
1987.00,0.0009
1986.00,0.0009
1985.00,0.0010
1984.00,0.0011
1983.00,0.0013
1982.00,0.0015
1981.00,0.0016
1980.00,0.0014
1979.00,0.0010
1978.00,0.0003
1977.00,-0.0001
1976.00,-0.0003
1975.00,-0.0004
1974.00,-0.0005
1973.00,-0.0005
1972.00,-0.0004
1971.00,-0.0004
1970.00,-0.0005
1969.00,-0.0005
1968.00,-0.0004
1967.00,-0.0004
1966.00,-0.0004
1965.00,-0.0004
1964.00,-0.0003
1963.00,-0.0003
1962.00,-0.0004
1961.00,-0.0006
1960.00,-0.0008
1959.00,-0.0008
1958.00,-0.0009
1957.00,-0.0007
1956.00,-0.0005
1955.00,-0.0004
1954.00,-0.0003
1953.00,-0.0004
1952.00,-0.0003
1951.00,-0.0003
1950.00,-0.0003
1949.00,-0.0003
1948.00,-0.0002
1947.00,-0.0002
1946.00,-0.0002
1945.00,-0.0002
1944.00,-0.0002
1943.00,-0.0001
1942.00,-0.0002
1941.00,-0.0003
1940.00,-0.0002
1939.00,-0.0002
1938.00,-0.0002
1937.00,-0.0001
1936.00,0.0000
1935.00,0.0001
1934.00,0.0001
1933.00,0.0000
1932.00,0.0000
1931.00,0.0000
1930.00,0.0000
1929.00,0.0001
1928.00,0.0001
1927.00,0.0002
1926.00,0.0002
1925.00,0.0001
1924.00,0.0001
1923.00,0.0001
1922.00,0.0001
1921.00,0.0002
1920.00,0.0002
1919.00,0.0002
1918.00,0.0002
1917.00,0.0002
1916.00,0.0003
1915.00,0.0004
1914.00,0.0004
1913.00,0.0004
1912.00,0.0004
1911.00,0.0004
1910.00,0.0003
1909.00,0.0003
1908.00,0.0003
1907.00,0.0003
1906.00,0.0002
1905.00,0.0002
1904.00,0.0002
1903.00,0.0003
1902.00,0.0003
1901.00,0.0003
1900.00,0.0004
1899.00,0.0004
1898.00,0.0004
1897.00,0.0005
1896.00,0.0005
1895.00,0.0005
1894.00,0.0004
1893.00,0.0004
1892.00,0.0004
1891.00,0.0004
1890.00,0.0003
1889.00,0.0003
1888.00,0.0003
1887.00,0.0003
1886.00,0.0004
1885.00,0.0004
1884.00,0.0004
1883.00,0.0004
1882.00,0.0004
1881.00,0.0004
1880.00,0.0004
1879.00,0.0004
1878.00,0.0003
1877.00,0.0003
1876.00,0.0004
1875.00,0.0004
1874.00,0.0005
1873.00,0.0005
1872.00,0.0005
1871.00,0.0004
1870.00,0.0004
1869.00,0.0003
1868.00,0.0004
1867.00,0.0004
1866.00,0.0005
1865.00,0.0005
1864.00,0.0006
1863.00,0.0006
1862.00,0.0006
1861.00,0.0006
1860.00,0.0006
1859.00,0.0006
1858.00,0.0006
1857.00,0.0006
1856.00,0.0006
1855.00,0.0007
1854.00,0.0007
1853.00,0.0007
1852.00,0.0007
1851.00,0.0007
1850.00,0.0006
1849.00,0.0006
1848.00,0.0006
1847.00,0.0006
1846.00,0.0006
1845.00,0.0006
1844.00,0.0007
1843.00,0.0008
1842.00,0.0007
1841.00,0.0007
1840.00,0.0007
1839.00,0.0007
1838.00,0.0006
1837.00,0.0006
1836.00,0.0007
1835.00,0.0007
1834.00,0.0007
1833.00,0.0007
1832.00,0.0006
1831.00,0.0006
1830.00,0.0006
1829.00,0.0006
1828.00,0.0006
1827.00,0.0007
1826.00,0.0007
1825.00,0.0007
1824.00,0.0008
1823.00,0.0008
1822.00,0.0008
1821.00,0.0008
1820.00,0.0008
1819.00,0.0007
1818.00,0.0006
1817.00,0.0005
1816.00,0.0005
1815.00,0.0006
1814.00,0.0007
1813.00,0.0007
1812.00,0.0007
1811.00,0.0008
1810.00,0.0008
1809.00,0.0009
1808.00,0.0009
1807.00,0.0010
1806.00,0.0010
1805.00,0.0009
1804.00,0.0010
1803.00,0.0010
1802.00,0.0010
1801.00,0.0010
1800.00,0.0010
1799.00,0.0011
1798.00,0.0011
1797.00,0.0011
1796.00,0.0011
1795.00,0.0011
1794.00,0.0011
1793.00,0.0011
1792.00,0.0012
1791.00,0.0013
1790.00,0.0013
1789.00,0.0013
1788.00,0.0013
1787.00,0.0014
1786.00,0.0014
1785.00,0.0014
1784.00,0.0014
1783.00,0.0014
1782.00,0.0014
1781.00,0.0014
1780.00,0.0015
1779.00,0.0015
1778.00,0.0015
1777.00,0.0015
1776.00,0.0016
1775.00,0.0015
1774.00,0.0015
1773.00,0.0015
1772.00,0.0016
1771.00,0.0017
1770.00,0.0017
1769.00,0.0018
1768.00,0.0020
1767.00,0.0021
1766.00,0.0021
1765.00,0.0021
1764.00,0.0021
1763.00,0.0022
1762.00,0.0022
1761.00,0.0022
1760.00,0.0022
1759.00,0.0023
1758.00,0.0023
1757.00,0.0024
1756.00,0.0024
1755.00,0.0025
1754.00,0.0024
1753.00,0.0025
1752.00,0.0025
1751.00,0.0026
1750.00,0.0026
1749.00,0.0026
1748.00,0.0028
1747.00,0.0029
1746.00,0.0029
1745.00,0.0029
1744.00,0.0030
1743.00,0.0031
1742.00,0.0032
1741.00,0.0033
1740.00,0.0034
1739.00,0.0035
1738.00,0.0035
1737.00,0.0035
1736.00,0.0036
1735.00,0.0038
1734.00,0.0039
1733.00,0.0040
1732.00,0.0042
1731.00,0.0044
1730.00,0.0046
1729.00,0.0048
1728.00,0.0051
1727.00,0.0053
1726.00,0.0055
1725.00,0.0057
1724.00,0.0059
1723.00,0.0062
1722.00,0.0064
1721.00,0.0065
1720.00,0.0067
1719.00,0.0069
1718.00,0.0071
1717.00,0.0073
1716.00,0.0078
1715.00,0.0083
1714.00,0.0089
1713.00,0.0094
1712.00,0.0101
1711.00,0.0107
1710.00,0.0114
1709.00,0.0121
1708.00,0.0129
1707.00,0.0139
1706.00,0.0149
1705.00,0.0161
1704.00,0.0174
1703.00,0.0189
1702.00,0.0206
1701.00,0.0227
1700.00,0.0252
1699.00,0.0276
1698.00,0.0298
1697.00,0.0326
1696.00,0.0361
1695.00,0.0399
1694.00,0.0435
1693.00,0.0469
1692.00,0.0507
1691.00,0.0546
1690.00,0.0586
1689.00,0.0625
1688.00,0.0664
1687.00,0.0702
1686.00,0.0741
1685.00,0.0777
1684.00,0.0807
1683.00,0.0834
1682.00,0.0863
1681.00,0.0894
1680.00,0.0926
1679.00,0.0956
1678.00,0.0983
1677.00,0.1009
1676.00,0.1029
1675.00,0.1040
1674.00,0.1050
1673.00,0.1067
1672.00,0.1090
1671.00,0.1109
1670.00,0.1118
1669.00,0.1120
1668.00,0.1127
1667.00,0.1143
1666.00,0.1165
1665.00,0.1189
1664.00,0.1207
1663.00,0.1216
1662.00,0.1218
1661.00,0.1224
1660.00,0.1235
1659.00,0.1250
1658.00,0.1264
1657.00,0.1281
1656.00,0.1303
1655.00,0.1321
1654.00,0.1306
1653.00,0.1245
1652.00,0.1193
1651.00,0.1183
1650.00,0.1195
1649.00,0.1205
1648.00,0.1194
1647.00,0.1153
1646.00,0.1099
1645.00,0.1055
1644.00,0.1027
1643.00,0.1004
1642.00,0.0978
1641.00,0.0947
1640.00,0.0915
1639.00,0.0885
1638.00,0.0856
1637.00,0.0818
1636.00,0.0763
1635.00,0.0704
1634.00,0.0660
1633.00,0.0632
1632.00,0.0613
1631.00,0.0595
1630.00,0.0574
1629.00,0.0552
1628.00,0.0531
1627.00,0.0514
1626.00,0.0505
1625.00,0.0501
1624.00,0.0501
1623.00,0.0502
1622.00,0.0505
1621.00,0.0511
1620.00,0.0519
1619.00,0.0525
1618.00,0.0523
1617.00,0.0511
1616.00,0.0491
1615.00,0.0474
1614.00,0.0462
1613.00,0.0454
1612.00,0.0445
1611.00,0.0435
1610.00,0.0424
1609.00,0.0411
1608.00,0.0396
1607.00,0.0379
1606.00,0.0360
1605.00,0.0339
1604.00,0.0318
1603.00,0.0296
1602.00,0.0276
1601.00,0.0258
1600.00,0.0243
1599.00,0.0230
1598.00,0.0220
1597.00,0.0212
1596.00,0.0207
1595.00,0.0205
1594.00,0.0207
1593.00,0.0212
1592.00,0.0221
1591.00,0.0234
1590.00,0.0249
1589.00,0.0266
1588.00,0.0282
1587.00,0.0296
1586.00,0.0305
1585.00,0.0308
1584.00,0.0306
1583.00,0.0297
1582.00,0.0285
1581.00,0.0270
1580.00,0.0255
1579.00,0.0241
1578.00,0.0227
1577.00,0.0212
1576.00,0.0196
1575.00,0.0184
1574.00,0.0176
1573.00,0.0172
1572.00,0.0168
1571.00,0.0164
1570.00,0.0157
1569.00,0.0150
1568.00,0.0144
1567.00,0.0140
1566.00,0.0136
1565.00,0.0133
1564.00,0.0128
1563.00,0.0125
1562.00,0.0122
1561.00,0.0120
1560.00,0.0117
1559.00,0.0109
1558.00,0.0103
1557.00,0.0101
1556.00,0.0101
1555.00,0.0101
1554.00,0.0100
1553.00,0.0099
1552.00,0.0098
1551.00,0.0097
1550.00,0.0096
1549.00,0.0095
1548.00,0.0094
1547.00,0.0093
1546.00,0.0092
1545.00,0.0090
1544.00,0.0088
1543.00,0.0086
1542.00,0.0085
1541.00,0.0083
1540.00,0.0082
1539.00,0.0081
1538.00,0.0082
1537.00,0.0083
1536.00,0.0084
1535.00,0.0086
1534.00,0.0086
1533.00,0.0086
1532.00,0.0086
1531.00,0.0086
1530.00,0.0087
1529.00,0.0088
1528.00,0.0089
1527.00,0.0090
1526.00,0.0090
1525.00,0.0091
1524.00,0.0092
1523.00,0.0094
1522.00,0.0096
1521.00,0.0099
1520.00,0.0102
1519.00,0.0105
1518.00,0.0109
1517.00,0.0112
1516.00,0.0115
1515.00,0.0117
1514.00,0.0119
1513.00,0.0121
1512.00,0.0123
1511.00,0.0124
1510.00,0.0125
1509.00,0.0126
1508.00,0.0128
1507.00,0.0132
1506.00,0.0139
1505.00,0.0148
1504.00,0.0158
1503.00,0.0170
1502.00,0.0185
1501.00,0.0201
1500.00,0.0219
1499.00,0.0238
1498.00,0.0258
1497.00,0.0276
1496.00,0.0290
1495.00,0.0300
1494.00,0.0305
1493.00,0.0307
1492.00,0.0304
1491.00,0.0294
1490.00,0.0277
1489.00,0.0257
1488.00,0.0239
1487.00,0.0222
1486.00,0.0206
1485.00,0.0193
1484.00,0.0182
1483.00,0.0172
1482.00,0.0163
1481.00,0.0157
1480.00,0.0153
1479.00,0.0152
1478.00,0.0153
1477.00,0.0155
1476.00,0.0160
1475.00,0.0166
1474.00,0.0177
1473.00,0.0193
1472.00,0.0214
1471.00,0.0239
1470.00,0.0265
1469.00,0.0294
1468.00,0.0326
1467.00,0.0361
1466.00,0.0399
1465.00,0.0439
1464.00,0.0477
1463.00,0.0508
1462.00,0.0533
1461.00,0.0552
1460.00,0.0563
1459.00,0.0563
1458.00,0.0545
1457.00,0.0509
1456.00,0.0469
1455.00,0.0441
1454.00,0.0424
1453.00,0.0412
1452.00,0.0403
1451.00,0.0397
1450.00,0.0398
1449.00,0.0405
1448.00,0.0418
1447.00,0.0436
1446.00,0.0458
1445.00,0.0484
1444.00,0.0511
1443.00,0.0539
1442.00,0.0566
1441.00,0.0593
1440.00,0.0618
1439.00,0.0640
1438.00,0.0660
1437.00,0.0674
1436.00,0.0684
1435.00,0.0691
1434.00,0.0700
1433.00,0.0711
1432.00,0.0719
1431.00,0.0725
1430.00,0.0731
1429.00,0.0740
1428.00,0.0754
1427.00,0.0774
1426.00,0.0798
1425.00,0.0823
1424.00,0.0846
1423.00,0.0863
1422.00,0.0874
1421.00,0.0876
1420.00,0.0857
1419.00,0.0813
1418.00,0.0757
1417.00,0.0706
1416.00,0.0661
1415.00,0.0618
1414.00,0.0576
1413.00,0.0538
1412.00,0.0505
1411.00,0.0477
1410.00,0.0455
1409.00,0.0441
1408.00,0.0431
1407.00,0.0425
1406.00,0.0422
1405.00,0.0420
1404.00,0.0419
1403.00,0.0418
1402.00,0.0416
1401.00,0.0412
1400.00,0.0403
1399.00,0.0386
1398.00,0.0368
1397.00,0.0349
1396.00,0.0329
1395.00,0.0308
1394.00,0.0289
1393.00,0.0273
1392.00,0.0263
1391.00,0.0255
1390.00,0.0251
1389.00,0.0249
1388.00,0.0248
1387.00,0.0250
1386.00,0.0256
1385.00,0.0264
1384.00,0.0274
1383.00,0.0284
1382.00,0.0296
1381.00,0.0307
1380.00,0.0316
1379.00,0.0324
1378.00,0.0329
1377.00,0.0333
1376.00,0.0334
1375.00,0.0333
1374.00,0.0330
1373.00,0.0326
1372.00,0.0323
1371.00,0.0319
1370.00,0.0314
1369.00,0.0308
1368.00,0.0303
1367.00,0.0298
1366.00,0.0295
1365.00,0.0294
1364.00,0.0294
1363.00,0.0294
1362.00,0.0294
1361.00,0.0294
1360.00,0.0290
1359.00,0.0282
1358.00,0.0272
1357.00,0.0259
1356.00,0.0244
1355.00,0.0230
1354.00,0.0218
1353.00,0.0209
1352.00,0.0203
1351.00,0.0198
1350.00,0.0195
1349.00,0.0193
1348.00,0.0192
1347.00,0.0191
1346.00,0.0190
1345.00,0.0190
1344.00,0.0190
1343.00,0.0190
1342.00,0.0191
1341.00,0.0191
1340.00,0.0193
1339.00,0.0195
1338.00,0.0198
1337.00,0.0202
1336.00,0.0207
1335.00,0.0212
1334.00,0.0218
1333.00,0.0224
1332.00,0.0229
1331.00,0.0236
1330.00,0.0242
1329.00,0.0250
1328.00,0.0258
1327.00,0.0266
1326.00,0.0276
1325.00,0.0286
1324.00,0.0297
1323.00,0.0308
1322.00,0.0318
1321.00,0.0327
1320.00,0.0335
1319.00,0.0340
1318.00,0.0343
1317.00,0.0344
1316.00,0.0342
1315.00,0.0337
1314.00,0.0331
1313.00,0.0324
1312.00,0.0317
1311.00,0.0311
1310.00,0.0306
1309.00,0.0304
1308.00,0.0303
1307.00,0.0305
1306.00,0.0310
1305.00,0.0317
1304.00,0.0326
1303.00,0.0339
1302.00,0.0356
1301.00,0.0377
1300.00,0.0403
1299.00,0.0435
1298.00,0.0474
1297.00,0.0521
1296.00,0.0574
1295.00,0.0631
1294.00,0.0691
1293.00,0.0752
1292.00,0.0809
1291.00,0.0862
1290.00,0.0908
1289.00,0.0946
1288.00,0.0974
1287.00,0.0993
1286.00,0.1002
1285.00,0.1001
1284.00,0.0992
1283.00,0.0975
1282.00,0.0953
1281.00,0.0930
1280.00,0.0909
1279.00,0.0892
1278.00,0.0880
1277.00,0.0874
1276.00,0.0872
1275.00,0.0874
1274.00,0.0877
1273.00,0.0878
1272.00,0.0875
1271.00,0.0867
1270.00,0.0852
1269.00,0.0832
1268.00,0.0806
1267.00,0.0776
1266.00,0.0742
1265.00,0.0706
1264.00,0.0670
1263.00,0.0635
1262.00,0.0600
1261.00,0.0567
1260.00,0.0536
1259.00,0.0508
1258.00,0.0482
1257.00,0.0458
1256.00,0.0437
1255.00,0.0418
1254.00,0.0402
1253.00,0.0388
1252.00,0.0376
1251.00,0.0366
1250.00,0.0359
1249.00,0.0356
1248.00,0.0354
1247.00,0.0356
1246.00,0.0360
1245.00,0.0366
1244.00,0.0374
1243.00,0.0383
1242.00,0.0392
1241.00,0.0400
1240.00,0.0408
1239.00,0.0415
1238.00,0.0421
1237.00,0.0426
1236.00,0.0431
1235.00,0.0435
1234.00,0.0439
1233.00,0.0443
1232.00,0.0445
1231.00,0.0446
1230.00,0.0446
1229.00,0.0445
1228.00,0.0443
1227.00,0.0440
1226.00,0.0438
1225.00,0.0437
1224.00,0.0436
1223.00,0.0435
1222.00,0.0436
1221.00,0.0437
1220.00,0.0437
1219.00,0.0436
1218.00,0.0433
1217.00,0.0427
1216.00,0.0419
1215.00,0.0409
1214.00,0.0396
1213.00,0.0382
1212.00,0.0367
1211.00,0.0352
1210.00,0.0337
1209.00,0.0324
1208.00,0.0313
1207.00,0.0303
1206.00,0.0296
1205.00,0.0291
1204.00,0.0289
1203.00,0.0289
1202.00,0.0291
1201.00,0.0296
1200.00,0.0303
1199.00,0.0311
1198.00,0.0320
1197.00,0.0330
1196.00,0.0339
1195.00,0.0346
1194.00,0.0350
1193.00,0.0350
1192.00,0.0345
1191.00,0.0335
1190.00,0.0323
1189.00,0.0309
1188.00,0.0295
1187.00,0.0282
1186.00,0.0270
1185.00,0.0260
1184.00,0.0252
1183.00,0.0245
1182.00,0.0241
1181.00,0.0239
1180.00,0.0237
1179.00,0.0237
1178.00,0.0238
1177.00,0.0240
1176.00,0.0243
1175.00,0.0247
1174.00,0.0251
1173.00,0.0256
1172.00,0.0260
1171.00,0.0263
1170.00,0.0266
1169.00,0.0267
1168.00,0.0268
1167.00,0.0269
1166.00,0.0269
1165.00,0.0270
1164.00,0.0272
1163.00,0.0276
1162.00,0.0282
1161.00,0.0290
1160.00,0.0300
1159.00,0.0310
1158.00,0.0318
1157.00,0.0323
1156.00,0.0324
1155.00,0.0321
1154.00,0.0313
1153.00,0.0301
1152.00,0.0288
1151.00,0.0272
1150.00,0.0257
1149.00,0.0241
1148.00,0.0226
1147.00,0.0212
1146.00,0.0200
1145.00,0.0189
1144.00,0.0181
1143.00,0.0174
1142.00,0.0168
1141.00,0.0165
1140.00,0.0164
1139.00,0.0164
1138.00,0.0168
1137.00,0.0174
1136.00,0.0184
1135.00,0.0199
1134.00,0.0217
1133.00,0.0238
1132.00,0.0259
1131.00,0.0277
1130.00,0.0290
1129.00,0.0294
1128.00,0.0288
1127.00,0.0275
1126.00,0.0258
1125.00,0.0238
1124.00,0.0220
1123.00,0.0204
1122.00,0.0193
1121.00,0.0184
1120.00,0.0178
1119.00,0.0174
1118.00,0.0171
1117.00,0.0169
1116.00,0.0168
1115.00,0.0168
1114.00,0.0169
1113.00,0.0170
1112.00,0.0172
1111.00,0.0174
1110.00,0.0176
1109.00,0.0178
1108.00,0.0182
1107.00,0.0186
1106.00,0.0191
1105.00,0.0197
1104.00,0.0204
1103.00,0.0211
1102.00,0.0218
1101.00,0.0224
1100.00,0.0227
1099.00,0.0227
1098.00,0.0224
1097.00,0.0219
1096.00,0.0213
1095.00,0.0207
1094.00,0.0200
1093.00,0.0194
1092.00,0.0189
1091.00,0.0185
1090.00,0.0182
1089.00,0.0179
1088.00,0.0178
1087.00,0.0177
1086.00,0.0177
1085.00,0.0178
1084.00,0.0179
1083.00,0.0181
1082.00,0.0184
1081.00,0.0188
1080.00,0.0193
1079.00,0.0198
1078.00,0.0204
1077.00,0.0210
1076.00,0.0216
1075.00,0.0223
1074.00,0.0230
1073.00,0.0237
1072.00,0.0245
1071.00,0.0254
1070.00,0.0265
1069.00,0.0278
1068.00,0.0293
1067.00,0.0311
1066.00,0.0333
1065.00,0.0357
1064.00,0.0383
1063.00,0.0411
1062.00,0.0438
1061.00,0.0464
1060.00,0.0487
1059.00,0.0503
1058.00,0.0511
1057.00,0.0510
1056.00,0.0499
1055.00,0.0479
1054.00,0.0451
1053.00,0.0418
1052.00,0.0384
1051.00,0.0350
1050.00,0.0320
1049.00,0.0294
1048.00,0.0273
1047.00,0.0256
1046.00,0.0243
1045.00,0.0234
1044.00,0.0226
1043.00,0.0221
1042.00,0.0217
1041.00,0.0214
1040.00,0.0213
1039.00,0.0212
1038.00,0.0212
1037.00,0.0212
1036.00,0.0214
1035.00,0.0217
1034.00,0.0221
1033.00,0.0226
1032.00,0.0232
1031.00,0.0236
1030.00,0.0239
1029.00,0.0238
1028.00,0.0235
1027.00,0.0230
1026.00,0.0225
1025.00,0.0220
1024.00,0.0217
1023.00,0.0216
1022.00,0.0217
1021.00,0.0219
1020.00,0.0222
1019.00,0.0225
1018.00,0.0228
1017.00,0.0228
1016.00,0.0226
1015.00,0.0221
1014.00,0.0214
1013.00,0.0206
1012.00,0.0198
1011.00,0.0192
1010.00,0.0189
1009.00,0.0189
1008.00,0.0193
1007.00,0.0199
1006.00,0.0208
1005.00,0.0217
1004.00,0.0225
1003.00,0.0232
1002.00,0.0234
1001.00,0.0234
1000.00,0.0230
999.00,0.0224
998.00,0.0218
997.00,0.0211
996.00,0.0205
995.00,0.0198
994.00,0.0193
993.00,0.0187
992.00,0.0182
991.00,0.0177
990.00,0.0172
989.00,0.0168
988.00,0.0163
987.00,0.0158
986.00,0.0154
985.00,0.0149
984.00,0.0145
983.00,0.0142
982.00,0.0140
981.00,0.0139
980.00,0.0138
979.00,0.0138
978.00,0.0138
977.00,0.0137
976.00,0.0137
975.00,0.0136
974.00,0.0134
973.00,0.0132
972.00,0.0130
971.00,0.0127
970.00,0.0125
969.00,0.0123
968.00,0.0121
967.00,0.0119
966.00,0.0117
965.00,0.0116
964.00,0.0115
963.00,0.0114
962.00,0.0112
961.00,0.0111
960.00,0.0110
959.00,0.0108
958.00,0.0106
957.00,0.0105
956.00,0.0104
955.00,0.0103
954.00,0.0103
953.00,0.0102
952.00,0.0101
951.00,0.0101
950.00,0.0101
949.00,0.0101
948.00,0.0102
947.00,0.0103
946.00,0.0104
945.00,0.0106
944.00,0.0109
943.00,0.0112
942.00,0.0116
941.00,0.0122
940.00,0.0128
939.00,0.0136
938.00,0.0144
937.00,0.0154
936.00,0.0164
935.00,0.0172
934.00,0.0179
933.00,0.0183
932.00,0.0183
931.00,0.0181
930.00,0.0177
929.00,0.0174
928.00,0.0171
927.00,0.0170
926.00,0.0169
925.00,0.0168
924.00,0.0166
923.00,0.0163
922.00,0.0161
921.00,0.0158
920.00,0.0155
919.00,0.0152
918.00,0.0149
917.00,0.0146
916.00,0.0143
915.00,0.0140
914.00,0.0138
913.00,0.0136
912.00,0.0135
911.00,0.0135
910.00,0.0136
909.00,0.0138
908.00,0.0140
907.00,0.0143
906.00,0.0147
905.00,0.0152
904.00,0.0158
903.00,0.0165
902.00,0.0172
901.00,0.0180
900.00,0.0187
899.00,0.0193
898.00,0.0197
897.00,0.0200
896.00,0.0200
895.00,0.0198
894.00,0.0195
893.00,0.0190
892.00,0.0185
891.00,0.0180
890.00,0.0175
889.00,0.0171
888.00,0.0168
887.00,0.0166
886.00,0.0166
885.00,0.0167
884.00,0.0168
883.00,0.0170
882.00,0.0174
881.00,0.0178
880.00,0.0184
879.00,0.0190
878.00,0.0198
877.00,0.0206
876.00,0.0214
875.00,0.0222
874.00,0.0230
873.00,0.0237
872.00,0.0244
871.00,0.0248
870.00,0.0251
869.00,0.0253
868.00,0.0254
867.00,0.0254
866.00,0.0255
865.00,0.0255
864.00,0.0256
863.00,0.0257
862.00,0.0259
861.00,0.0261
860.00,0.0264
859.00,0.0268
858.00,0.0273
857.00,0.0278
856.00,0.0284
855.00,0.0291
854.00,0.0298
853.00,0.0306
852.00,0.0313
851.00,0.0321
850.00,0.0327
849.00,0.0333
848.00,0.0339
847.00,0.0343
846.00,0.0347
845.00,0.0350
844.00,0.0351
843.00,0.0351
842.00,0.0351
841.00,0.0350
840.00,0.0349
839.00,0.0348
838.00,0.0347
837.00,0.0346
836.00,0.0345
835.00,0.0344
834.00,0.0343
833.00,0.0342
832.00,0.0341
831.00,0.0340
830.00,0.0339
829.00,0.0337
828.00,0.0335
827.00,0.0333
826.00,0.0330
825.00,0.0327
824.00,0.0325
823.00,0.0323
822.00,0.0323
821.00,0.0323
820.00,0.0324
819.00,0.0324
818.00,0.0325
817.00,0.0325
816.00,0.0324
815.00,0.0323
814.00,0.0320
813.00,0.0315
812.00,0.0309
811.00,0.0299
810.00,0.0287
809.00,0.0273
808.00,0.0258
807.00,0.0243
806.00,0.0229
805.00,0.0217
804.00,0.0208
803.00,0.0201
802.00,0.0195
801.00,0.0192
800.00,0.0190
799.00,0.0188
798.00,0.0188
797.00,0.0189
796.00,0.0189
795.00,0.0190
794.00,0.0190
793.00,0.0191
792.00,0.0192
791.00,0.0193
790.00,0.0194
789.00,0.0195
788.00,0.0197
787.00,0.0198
786.00,0.0200
785.00,0.0201
784.00,0.0201
783.00,0.0202
782.00,0.0204
781.00,0.0207
780.00,0.0210
779.00,0.0213
778.00,0.0215
777.00,0.0217
776.00,0.0217
775.00,0.0216
774.00,0.0214
773.00,0.0213
772.00,0.0214
771.00,0.0215
770.00,0.0217
769.00,0.0220
768.00,0.0222
767.00,0.0226
766.00,0.0229
765.00,0.0233
764.00,0.0238
763.00,0.0243
762.00,0.0249
761.00,0.0255
760.00,0.0261
759.00,0.0267
758.00,0.0273
757.00,0.0279
756.00,0.0285
755.00,0.0291
754.00,0.0297
753.00,0.0303
752.00,0.0309
751.00,0.0315
750.00,0.0321
749.00,0.0328
748.00,0.0335
747.00,0.0342
746.00,0.0350
745.00,0.0357
744.00,0.0364
743.00,0.0373
742.00,0.0382
741.00,0.0393
740.00,0.0405
739.00,0.0417
738.00,0.0427
737.00,0.0435
736.00,0.0439
735.00,0.0438
734.00,0.0433
733.00,0.0426
732.00,0.0417
731.00,0.0407
730.00,0.0397
729.00,0.0386
728.00,0.0375
727.00,0.0365
726.00,0.0355
725.00,0.0346
724.00,0.0338
723.00,0.0331
722.00,0.0325
721.00,0.0320
720.00,0.0316
719.00,0.0313
718.00,0.0311
717.00,0.0310
716.00,0.0310
715.00,0.0310
714.00,0.0309
713.00,0.0308
712.00,0.0307
711.00,0.0306
710.00,0.0304
709.00,0.0303
708.00,0.0301
707.00,0.0301
706.00,0.0301
705.00,0.0302
704.00,0.0304
703.00,0.0306
702.00,0.0308
701.00,0.0309
700.00,0.0311
699.00,0.0314
698.00,0.0319
697.00,0.0325
696.00,0.0332
695.00,0.0340
694.00,0.0348
693.00,0.0356
692.00,0.0363
691.00,0.0370
690.00,0.0376
689.00,0.0380
688.00,0.0383
687.00,0.0384
686.00,0.0385
685.00,0.0386
684.00,0.0386
683.00,0.0387
682.00,0.0388
681.00,0.0389
680.00,0.0392
679.00,0.0396
678.00,0.0400
677.00,0.0404
676.00,0.0409
675.00,0.0414
674.00,0.0419
673.00,0.0425
672.00,0.0432
671.00,0.0439
670.00,0.0446
669.00,0.0454
668.00,0.0464
667.00,0.0475
666.00,0.0485
665.00,0.0494
664.00,0.0503
663.00,0.0513
662.00,0.0523
661.00,0.0535
660.00,0.0547
659.00,0.0559
658.00,0.0572
657.00,0.0584
656.00,0.0596
655.00,0.0608
654.00,0.0621
653.00,0.0633
652.00,0.0643
651.00,0.0652
650.00,0.0658
649.00,0.0662
648.00,0.0665
647.00,0.0665
646.00,0.0663
645.00,0.0658
644.00,0.0652
643.00,0.0643
642.00,0.0632
641.00,0.0621
640.00,0.0610
639.00,0.0599
638.00,0.0588
637.00,0.0578
636.00,0.0568
635.00,0.0560
634.00,0.0552
633.00,0.0546
632.00,0.0540
631.00,0.0535
630.00,0.0532
629.00,0.0529
628.00,0.0527
627.00,0.0525
626.00,0.0523
625.00,0.0521
624.00,0.0520
623.00,0.0518
622.00,0.0515
621.00,0.0512
620.00,0.0510
619.00,0.0508
618.00,0.0507
617.00,0.0506
616.00,0.0504
615.00,0.0503
614.00,0.0502
613.00,0.0502
612.00,0.0503
611.00,0.0504
610.00,0.0506
609.00,0.0509
608.00,0.0513
607.00,0.0517
606.00,0.0521
605.00,0.0524
604.00,0.0526
603.00,0.0528
602.00,0.0530
601.00,0.0533
600.00,0.0535
599.00,0.0538
598.00,0.0539
597.00,0.0541
596.00,0.0542
595.00,0.0543
594.00,0.0545
593.00,0.0549
592.00,0.0553
591.00,0.0560
590.00,0.0568
589.00,0.0579
588.00,0.0593
587.00,0.0610
586.00,0.0631
585.00,0.0652
584.00,0.0673
583.00,0.0691
582.00,0.0705
581.00,0.0716
580.00,0.0724
579.00,0.0729
578.00,0.0733
577.00,0.0737
576.00,0.0740
575.00,0.0742
574.00,0.0743
573.00,0.0743
572.00,0.0743
571.00,0.0743
570.00,0.0742
569.00,0.0741
568.00,0.0739
567.00,0.0736
566.00,0.0732
565.00,0.0727
564.00,0.0721
563.00,0.0713
562.00,0.0703
561.00,0.0693
560.00,0.0684
559.00,0.0677
558.00,0.0671
557.00,0.0666
556.00,0.0660
555.00,0.0654
554.00,0.0647
553.00,0.0641
552.00,0.0636
551.00,0.0633
550.00,0.0630
549.00,0.0627
548.00,0.0622
547.00,0.0617
546.00,0.0611
545.00,0.0606
544.00,0.0602
543.00,0.0597
542.00,0.0594
541.00,0.0591
540.00,0.0591
539.00,0.0591
538.00,0.0592
537.00,0.0594
536.00,0.0599
535.00,0.0605
534.00,0.0611
533.00,0.0618
532.00,0.0625
531.00,0.0628
530.00,0.0629
529.00,0.0627
528.00,0.0623
527.00,0.0617
526.00,0.0610
525.00,0.0604
524.00,0.0599
523.00,0.0595
522.00,0.0591
521.00,0.0587
520.00,0.0583
519.00,0.0579
518.00,0.0576
517.00,0.0575
516.00,0.0576
515.00,0.0577
514.00,0.0578
513.00,0.0579
512.00,0.0580
511.00,0.0581
510.00,0.0582
509.00,0.0585
508.00,0.0587
507.00,0.0587
506.00,0.0586
505.00,0.0584
504.00,0.0583
503.00,0.0582
502.00,0.0582
501.00,0.0582
500.00,0.0583
499.00,0.0584
498.00,0.0583
497.00,0.0582
496.00,0.0582
495.00,0.0582
494.00,0.0584
493.00,0.0587
492.00,0.0589
491.00,0.0590
490.00,0.0591
489.00,0.0593
488.00,0.0595
487.00,0.0597
486.00,0.0598
485.00,0.0600
484.00,0.0604
483.00,0.0607
482.00,0.0610
481.00,0.0611
480.00,0.0612
479.00,0.0613
478.00,0.0614
477.00,0.0615
476.00,0.0615
475.00,0.0616
474.00,0.0616
473.00,0.0615
472.00,0.0614
471.00,0.0613
470.00,0.0612
469.00,0.0613
468.00,0.0612
467.00,0.0610
466.00,0.0609
465.00,0.0607
464.00,0.0606
463.00,0.0604
462.00,0.0601
461.00,0.0598
460.00,0.0595
459.00,0.0592
458.00,0.0589
457.00,0.0586
456.00,0.0583
455.00,0.0579
454.00,0.0576
453.00,0.0575
452.00,0.0576
451.00,0.0576
450.00,0.0574
449.00,0.0572
448.00,0.0569
447.00,0.0565
446.00,0.0561
445.00,0.0558
444.00,0.0555
443.00,0.0553
442.00,0.0553
441.00,0.0553
440.00,0.0553
439.00,0.0552
438.00,0.0550
437.00,0.0547
436.00,0.0545
435.00,0.0542
434.00,0.0539
433.00,0.0537
432.00,0.0536
431.00,0.0538
430.00,0.0539
429.00,0.0538
428.00,0.0534
427.00,0.0528
426.00,0.0523
425.00,0.0520
424.00,0.0519
423.00,0.0520
422.00,0.0521
421.00,0.0523
420.00,0.0523
419.00,0.0521
418.00,0.0522
417.00,0.0527
416.00,0.0534
415.00,0.0539
414.00,0.0540
413.00,0.0539
412.00,0.0537
411.00,0.0536
410.00,0.0535
409.00,0.0536
408.00,0.0539
407.00,0.0541
406.00,0.0541
405.00,0.0538
404.00,0.0534
403.00,0.0533
402.00,0.0536
401.00,0.0540
400.00,0.0543
