Created as New Dataset,Sample 561 By YargerLab Date Thursday, June 05 2025
cm-1,A
4000.00,0.0009
3999.00,0.0009
3998.00,0.0009
3997.00,0.0009
3996.00,0.0009
3995.00,0.0009
3994.00,0.0009
3993.00,0.0009
3992.00,0.0009
3991.00,0.0009
3990.00,0.0009
3989.00,0.0009
3988.00,0.0009
3987.00,0.0009
3986.00,0.0009
3985.00,0.0009
3984.00,0.0009
3983.00,0.0009
3982.00,0.0009
3981.00,0.0009
3980.00,0.0009
3979.00,0.0009
3978.00,0.0009
3977.00,0.0009
3976.00,0.0009
3975.00,0.0009
3974.00,0.0009
3973.00,0.0009
3972.00,0.0009
3971.00,0.0009
3970.00,0.0009
3969.00,0.0009
3968.00,0.0009
3967.00,0.0009
3966.00,0.0009
3965.00,0.0009
3964.00,0.0009
3963.00,0.0009
3962.00,0.0009
3961.00,0.0009
3960.00,0.0009
3959.00,0.0009
3958.00,0.0009
3957.00,0.0009
3956.00,0.0009
3955.00,0.0009
3954.00,0.0009
3953.00,0.0009
3952.00,0.0009
3951.00,0.0009
3950.00,0.0009
3949.00,0.0009
3948.00,0.0008
3947.00,0.0008
3946.00,0.0009
3945.00,0.0009
3944.00,0.0008
3943.00,0.0008
3942.00,0.0009
3941.00,0.0009
3940.00,0.0009
3939.00,0.0009
3938.00,0.0009
3937.00,0.0009
3936.00,0.0009
3935.00,0.0009
3934.00,0.0009
3933.00,0.0008
3932.00,0.0009
3931.00,0.0009
3930.00,0.0009
3929.00,0.0009
3928.00,0.0009
3927.00,0.0009
3926.00,0.0008
3925.00,0.0008
3924.00,0.0008
3923.00,0.0008
3922.00,0.0009
3921.00,0.0009
3920.00,0.0009
3919.00,0.0009
3918.00,0.0009
3917.00,0.0009
3916.00,0.0009
3915.00,0.0009
3914.00,0.0009
3913.00,0.0008
3912.00,0.0008
3911.00,0.0008
3910.00,0.0008
3909.00,0.0008
3908.00,0.0008
3907.00,0.0008
3906.00,0.0008
3905.00,0.0008
3904.00,0.0009
3903.00,0.0009
3902.00,0.0009
3901.00,0.0009
3900.00,0.0008
3899.00,0.0008
3898.00,0.0008
3897.00,0.0008
3896.00,0.0008
3895.00,0.0008
3894.00,0.0008
3893.00,0.0008
3892.00,0.0008
3891.00,0.0008
3890.00,0.0009
3889.00,0.0009
3888.00,0.0008
3887.00,0.0008
3886.00,0.0007
3885.00,0.0007
3884.00,0.0008
3883.00,0.0008
3882.00,0.0008
3881.00,0.0008
3880.00,0.0008
3879.00,0.0009
3878.00,0.0009
3877.00,0.0009
3876.00,0.0008
3875.00,0.0008
3874.00,0.0008
3873.00,0.0009
3872.00,0.0009
3871.00,0.0008
3870.00,0.0008
3869.00,0.0008
3868.00,0.0009
3867.00,0.0008
3866.00,0.0008
3865.00,0.0007
3864.00,0.0008
3863.00,0.0008
3862.00,0.0008
3861.00,0.0008
3860.00,0.0008
3859.00,0.0008
3858.00,0.0008
3857.00,0.0009
3856.00,0.0009
3855.00,0.0009
3854.00,0.0009
3853.00,0.0008
3852.00,0.0008
3851.00,0.0007
3850.00,0.0007
3849.00,0.0006
3848.00,0.0007
3847.00,0.0007
3846.00,0.0007
3845.00,0.0007
3844.00,0.0008
3843.00,0.0008
3842.00,0.0008
3841.00,0.0008
3840.00,0.0008
3839.00,0.0008
3838.00,0.0008
3837.00,0.0008
3836.00,0.0008
3835.00,0.0008
3834.00,0.0007
3833.00,0.0007
3832.00,0.0008
3831.00,0.0008
3830.00,0.0008
3829.00,0.0008
3828.00,0.0007
3827.00,0.0007
3826.00,0.0007
3825.00,0.0007
3824.00,0.0007
3823.00,0.0007
3822.00,0.0007
3821.00,0.0007
3820.00,0.0008
3819.00,0.0008
3818.00,0.0008
3817.00,0.0007
3816.00,0.0007
3815.00,0.0007
3814.00,0.0007
3813.00,0.0007
3812.00,0.0007
3811.00,0.0007
3810.00,0.0008
3809.00,0.0008
3808.00,0.0008
3807.00,0.0008
3806.00,0.0008
3805.00,0.0008
3804.00,0.0008
3803.00,0.0007
3802.00,0.0007
3801.00,0.0007
3800.00,0.0008
3799.00,0.0008
3798.00,0.0008
3797.00,0.0007
3796.00,0.0008
3795.00,0.0008
3794.00,0.0008
3793.00,0.0008
3792.00,0.0008
3791.00,0.0008
3790.00,0.0008
3789.00,0.0008
3788.00,0.0008
3787.00,0.0008
3786.00,0.0007
3785.00,0.0008
3784.00,0.0008
3783.00,0.0008
3782.00,0.0008
3781.00,0.0008
3780.00,0.0008
3779.00,0.0008
3778.00,0.0009
3777.00,0.0009
3776.00,0.0009
3775.00,0.0009
3774.00,0.0009
3773.00,0.0009
3772.00,0.0008
3771.00,0.0008
3770.00,0.0008
3769.00,0.0008
3768.00,0.0009
3767.00,0.0009
3766.00,0.0008
3765.00,0.0008
3764.00,0.0008
3763.00,0.0008
3762.00,0.0008
3761.00,0.0008
3760.00,0.0008
3759.00,0.0008
3758.00,0.0008
3757.00,0.0009
3756.00,0.0009
3755.00,0.0009
3754.00,0.0009
3753.00,0.0009
3752.00,0.0008
3751.00,0.0008
3750.00,0.0008
3749.00,0.0008
3748.00,0.0008
3747.00,0.0008
3746.00,0.0008
3745.00,0.0008
3744.00,0.0008
3743.00,0.0008
3742.00,0.0008
3741.00,0.0007
3740.00,0.0007
3739.00,0.0008
3738.00,0.0008
3737.00,0.0008
3736.00,0.0008
3735.00,0.0008
3734.00,0.0008
3733.00,0.0008
3732.00,0.0008
3731.00,0.0008
3730.00,0.0008
3729.00,0.0008
3728.00,0.0008
3727.00,0.0008
3726.00,0.0008
3725.00,0.0008
3724.00,0.0008
3723.00,0.0009
3722.00,0.0009
3721.00,0.0009
3720.00,0.0009
3719.00,0.0009
3718.00,0.0009
3717.00,0.0009
3716.00,0.0009
3715.00,0.0009
3714.00,0.0010
3713.00,0.0009
3712.00,0.0009
3711.00,0.0009
3710.00,0.0010
3709.00,0.0010
3708.00,0.0010
3707.00,0.0010
3706.00,0.0010
3705.00,0.0010
3704.00,0.0009
3703.00,0.0009
3702.00,0.0009
3701.00,0.0009
3700.00,0.0010
3699.00,0.0010
3698.00,0.0010
3697.00,0.0010
3696.00,0.0010
3695.00,0.0010
3694.00,0.0010
3693.00,0.0010
3692.00,0.0011
3691.00,0.0011
3690.00,0.0011
3689.00,0.0011
3688.00,0.0012
3687.00,0.0013
3686.00,0.0013
3685.00,0.0013
3684.00,0.0013
3683.00,0.0013
3682.00,0.0014
3681.00,0.0014
3680.00,0.0014
3679.00,0.0015
3678.00,0.0016
3677.00,0.0015
3676.00,0.0015
3675.00,0.0015
3674.00,0.0016
3673.00,0.0017
3672.00,0.0017
3671.00,0.0017
3670.00,0.0017
3669.00,0.0018
3668.00,0.0019
3667.00,0.0020
3666.00,0.0020
3665.00,0.0020
3664.00,0.0021
3663.00,0.0022
3662.00,0.0022
3661.00,0.0023
3660.00,0.0024
3659.00,0.0024
3658.00,0.0025
3657.00,0.0025
3656.00,0.0025
3655.00,0.0026
3654.00,0.0027
3653.00,0.0028
3652.00,0.0029
3651.00,0.0029
3650.00,0.0030
3649.00,0.0030
3648.00,0.0031
3647.00,0.0032
3646.00,0.0033
3645.00,0.0034
3644.00,0.0035
3643.00,0.0035
3642.00,0.0036
3641.00,0.0037
3640.00,0.0037
3639.00,0.0038
3638.00,0.0039
3637.00,0.0040
3636.00,0.0041
3635.00,0.0042
3634.00,0.0043
3633.00,0.0044
3632.00,0.0045
3631.00,0.0046
3630.00,0.0046
3629.00,0.0046
3628.00,0.0047
3627.00,0.0048
3626.00,0.0049
3625.00,0.0049
3624.00,0.0050
3623.00,0.0051
3622.00,0.0052
3621.00,0.0053
3620.00,0.0053
3619.00,0.0054
3618.00,0.0056
3617.00,0.0057
3616.00,0.0058
3615.00,0.0059
3614.00,0.0060
3613.00,0.0061
3612.00,0.0062
3611.00,0.0063
3610.00,0.0064
3609.00,0.0065
3608.00,0.0065
3607.00,0.0066
3606.00,0.0067
3605.00,0.0068
3604.00,0.0069
3603.00,0.0070
3602.00,0.0071
3601.00,0.0072
3600.00,0.0073
3599.00,0.0074
3598.00,0.0076
3597.00,0.0077
3596.00,0.0077
3595.00,0.0078
3594.00,0.0078
3593.00,0.0080
3592.00,0.0081
3591.00,0.0082
3590.00,0.0084
3589.00,0.0084
3588.00,0.0085
3587.00,0.0085
3586.00,0.0086
3585.00,0.0088
3584.00,0.0089
3583.00,0.0091
3582.00,0.0092
3581.00,0.0093
3580.00,0.0094
3579.00,0.0095
3578.00,0.0096
3577.00,0.0097
3576.00,0.0098
3575.00,0.0099
3574.00,0.0100
3573.00,0.0101
3572.00,0.0103
3571.00,0.0104
3570.00,0.0105
3569.00,0.0106
3568.00,0.0106
3567.00,0.0106
3566.00,0.0107
3565.00,0.0108
3564.00,0.0110
3563.00,0.0111
3562.00,0.0112
3561.00,0.0113
3560.00,0.0115
3559.00,0.0116
3558.00,0.0117
3557.00,0.0118
3556.00,0.0120
3555.00,0.0121
3554.00,0.0122
3553.00,0.0123
3552.00,0.0124
3551.00,0.0126
3550.00,0.0127
3549.00,0.0128
3548.00,0.0129
3547.00,0.0130
3546.00,0.0131
3545.00,0.0131
3544.00,0.0132
3543.00,0.0133
3542.00,0.0134
3541.00,0.0135
3540.00,0.0136
3539.00,0.0138
3538.00,0.0139
3537.00,0.0140
3536.00,0.0141
3535.00,0.0142
3534.00,0.0143
3533.00,0.0144
3532.00,0.0145
3531.00,0.0146
3530.00,0.0147
3529.00,0.0148
3528.00,0.0149
3527.00,0.0150
3526.00,0.0151
3525.00,0.0152
3524.00,0.0153
3523.00,0.0153
3522.00,0.0154
3521.00,0.0155
3520.00,0.0156
3519.00,0.0157
3518.00,0.0158
3517.00,0.0159
3516.00,0.0160
3515.00,0.0161
3514.00,0.0163
3513.00,0.0164
3512.00,0.0165
3511.00,0.0166
3510.00,0.0167
3509.00,0.0168
3508.00,0.0169
3507.00,0.0170
3506.00,0.0171
3505.00,0.0172
3504.00,0.0173
3503.00,0.0174
3502.00,0.0175
3501.00,0.0176
3500.00,0.0177
3499.00,0.0179
3498.00,0.0179
3497.00,0.0180
3496.00,0.0181
3495.00,0.0182
3494.00,0.0184
3493.00,0.0185
3492.00,0.0186
3491.00,0.0187
3490.00,0.0188
3489.00,0.0189
3488.00,0.0190
3487.00,0.0190
3486.00,0.0191
3485.00,0.0192
3484.00,0.0193
3483.00,0.0194
3482.00,0.0195
3481.00,0.0197
3480.00,0.0198
3479.00,0.0199
3478.00,0.0200
3477.00,0.0201
3476.00,0.0202
3475.00,0.0204
3474.00,0.0205
3473.00,0.0206
3472.00,0.0207
3471.00,0.0208
3470.00,0.0209
3469.00,0.0210
3468.00,0.0211
3467.00,0.0213
3466.00,0.0214
3465.00,0.0215
3464.00,0.0216
3463.00,0.0217
3462.00,0.0218
3461.00,0.0219
3460.00,0.0220
3459.00,0.0221
3458.00,0.0222
3457.00,0.0223
3456.00,0.0224
3455.00,0.0225
3454.00,0.0225
3453.00,0.0226
3452.00,0.0228
3451.00,0.0229
3450.00,0.0231
3449.00,0.0232
3448.00,0.0233
3447.00,0.0234
3446.00,0.0235
3445.00,0.0236
3444.00,0.0237
3443.00,0.0237
3442.00,0.0238
3441.00,0.0240
3440.00,0.0241
3439.00,0.0242
3438.00,0.0244
3437.00,0.0245
3436.00,0.0246
3435.00,0.0247
3434.00,0.0248
3433.00,0.0249
3432.00,0.0250
3431.00,0.0251
3430.00,0.0252
3429.00,0.0253
3428.00,0.0255
3427.00,0.0256
3426.00,0.0257
3425.00,0.0258
3424.00,0.0260
3423.00,0.0261
3422.00,0.0262
3421.00,0.0263
3420.00,0.0264
3419.00,0.0265
3418.00,0.0266
3417.00,0.0267
3416.00,0.0269
3415.00,0.0270
3414.00,0.0271
3413.00,0.0272
3412.00,0.0273
3411.00,0.0275
3410.00,0.0276
3409.00,0.0277
3408.00,0.0278
3407.00,0.0279
3406.00,0.0280
3405.00,0.0281
3404.00,0.0282
3403.00,0.0283
3402.00,0.0284
3401.00,0.0285
3400.00,0.0287
3399.00,0.0288
3398.00,0.0289
3397.00,0.0290
3396.00,0.0291
3395.00,0.0292
3394.00,0.0293
3393.00,0.0294
3392.00,0.0295
3391.00,0.0296
3390.00,0.0298
3389.00,0.0299
3388.00,0.0301
3387.00,0.0302
3386.00,0.0303
3385.00,0.0304
3384.00,0.0305
3383.00,0.0307
3382.00,0.0308
3381.00,0.0309
3380.00,0.0310
3379.00,0.0311
3378.00,0.0313
3377.00,0.0314
3376.00,0.0316
3375.00,0.0317
3374.00,0.0319
3373.00,0.0320
3372.00,0.0322
3371.00,0.0323
3370.00,0.0325
3369.00,0.0326
3368.00,0.0328
3367.00,0.0329
3366.00,0.0331
3365.00,0.0333
3364.00,0.0335
3363.00,0.0336
3362.00,0.0338
3361.00,0.0340
3360.00,0.0341
3359.00,0.0343
3358.00,0.0345
3357.00,0.0347
3356.00,0.0349
3355.00,0.0350
3354.00,0.0352
3353.00,0.0354
3352.00,0.0355
3351.00,0.0357
3350.00,0.0359
3349.00,0.0361
3348.00,0.0363
3347.00,0.0365
3346.00,0.0367
3345.00,0.0369
3344.00,0.0371
3343.00,0.0373
3342.00,0.0375
3341.00,0.0378
3340.00,0.0380
3339.00,0.0382
3338.00,0.0384
3337.00,0.0387
3336.00,0.0389
3335.00,0.0392
3334.00,0.0394
3333.00,0.0397
3332.00,0.0400
3331.00,0.0403
3330.00,0.0406
3329.00,0.0408
3328.00,0.0411
3327.00,0.0413
3326.00,0.0416
3325.00,0.0419
3324.00,0.0422
3323.00,0.0425
3322.00,0.0429
3321.00,0.0432
3320.00,0.0436
3319.00,0.0439
3318.00,0.0442
3317.00,0.0446
3316.00,0.0449
3315.00,0.0452
3314.00,0.0455
3313.00,0.0459
3312.00,0.0462
3311.00,0.0466
3310.00,0.0469
3309.00,0.0472
3308.00,0.0476
3307.00,0.0479
3306.00,0.0483
3305.00,0.0487
3304.00,0.0492
3303.00,0.0496
3302.00,0.0501
3301.00,0.0505
3300.00,0.0509
3299.00,0.0513
3298.00,0.0516
3297.00,0.0519
3296.00,0.0523
3295.00,0.0527
3294.00,0.0531
3293.00,0.0534
3292.00,0.0538
3291.00,0.0542
3290.00,0.0546
3289.00,0.0550
3288.00,0.0554
3287.00,0.0557
3286.00,0.0560
3285.00,0.0563
3284.00,0.0565
3283.00,0.0568
3282.00,0.0571
3281.00,0.0573
3280.00,0.0575
3279.00,0.0577
3278.00,0.0578
3277.00,0.0579
3276.00,0.0580
3275.00,0.0580
3274.00,0.0580
3273.00,0.0580
3272.00,0.0580
3271.00,0.0579
3270.00,0.0579
3269.00,0.0578
3268.00,0.0577
3267.00,0.0576
3266.00,0.0574
3265.00,0.0571
3264.00,0.0569
3263.00,0.0566
3262.00,0.0563
3261.00,0.0560
3260.00,0.0556
3259.00,0.0553
3258.00,0.0549
3257.00,0.0545
3256.00,0.0541
3255.00,0.0537
3254.00,0.0533
3253.00,0.0530
3252.00,0.0526
3251.00,0.0522
3250.00,0.0519
3249.00,0.0515
3248.00,0.0511
3247.00,0.0507
3246.00,0.0503
3245.00,0.0500
3244.00,0.0496
3243.00,0.0493
3242.00,0.0490
3241.00,0.0487
3240.00,0.0484
3239.00,0.0480
3238.00,0.0477
3237.00,0.0473
3236.00,0.0469
3235.00,0.0466
3234.00,0.0462
3233.00,0.0459
3232.00,0.0457
3231.00,0.0455
3230.00,0.0453
3229.00,0.0451
3228.00,0.0448
3227.00,0.0446
3226.00,0.0443
3225.00,0.0441
3224.00,0.0438
3223.00,0.0436
3222.00,0.0433
3221.00,0.0431
3220.00,0.0428
3219.00,0.0425
3218.00,0.0423
3217.00,0.0421
3216.00,0.0419
3215.00,0.0416
3214.00,0.0414
3213.00,0.0412
3212.00,0.0410
3211.00,0.0408
3210.00,0.0406
3209.00,0.0404
3208.00,0.0402
3207.00,0.0399
3206.00,0.0397
3205.00,0.0395
3204.00,0.0393
3203.00,0.0391
3202.00,0.0389
3201.00,0.0387
3200.00,0.0385
3199.00,0.0383
3198.00,0.0381
3197.00,0.0379
3196.00,0.0377
3195.00,0.0375
3194.00,0.0373
3193.00,0.0371
3192.00,0.0369
3191.00,0.0367
3190.00,0.0366
3189.00,0.0364
3188.00,0.0362
3187.00,0.0360
3186.00,0.0358
3185.00,0.0356
3184.00,0.0353
3183.00,0.0351
3182.00,0.0350
3181.00,0.0348
3180.00,0.0346
3179.00,0.0344
3178.00,0.0342
3177.00,0.0341
3176.00,0.0339
3175.00,0.0337
3174.00,0.0336
3173.00,0.0334
3172.00,0.0332
3171.00,0.0330
3170.00,0.0328
3169.00,0.0326
3168.00,0.0324
3167.00,0.0323
3166.00,0.0321
3165.00,0.0320
3164.00,0.0319
3163.00,0.0317
3162.00,0.0315
3161.00,0.0314
3160.00,0.0312
3159.00,0.0310
3158.00,0.0309
3157.00,0.0307
3156.00,0.0306
3155.00,0.0304
3154.00,0.0302
3153.00,0.0300
3152.00,0.0299
3151.00,0.0298
3150.00,0.0297
3149.00,0.0296
3148.00,0.0295
3147.00,0.0294
3146.00,0.0293
3145.00,0.0292
3144.00,0.0290
3143.00,0.0289
3142.00,0.0288
3141.00,0.0286
3140.00,0.0285
3139.00,0.0283
3138.00,0.0282
3137.00,0.0282
3136.00,0.0281
3135.00,0.0281
3134.00,0.0280
3133.00,0.0279
3132.00,0.0278
3131.00,0.0277
3130.00,0.0276
3129.00,0.0276
3128.00,0.0275
3127.00,0.0275
3126.00,0.0274
3125.00,0.0274
3124.00,0.0273
3123.00,0.0272
3122.00,0.0271
3121.00,0.0270
3120.00,0.0269
3119.00,0.0269
3118.00,0.0269
3117.00,0.0269
3116.00,0.0269
3115.00,0.0269
3114.00,0.0269
3113.00,0.0270
3112.00,0.0271
3111.00,0.0271
3110.00,0.0271
3109.00,0.0271
3108.00,0.0271
3107.00,0.0271
3106.00,0.0272
3105.00,0.0273
3104.00,0.0273
3103.00,0.0274
3102.00,0.0274
3101.00,0.0274
3100.00,0.0275
3099.00,0.0275
3098.00,0.0276
3097.00,0.0277
3096.00,0.0278
3095.00,0.0278
3094.00,0.0279
3093.00,0.0279
3092.00,0.0279
3091.00,0.0279
3090.00,0.0280
3089.00,0.0280
3088.00,0.0281
3087.00,0.0281
3086.00,0.0281
3085.00,0.0281
3084.00,0.0281
3083.00,0.0282
3082.00,0.0282
3081.00,0.0281
3080.00,0.0281
3079.00,0.0281
3078.00,0.0282
3077.00,0.0282
3076.00,0.0282
3075.00,0.0282
3074.00,0.0282
3073.00,0.0282
3072.00,0.0282
3071.00,0.0281
3070.00,0.0280
3069.00,0.0279
3068.00,0.0278
3067.00,0.0277
3066.00,0.0276
3065.00,0.0276
3064.00,0.0275
3063.00,0.0275
3062.00,0.0274
3061.00,0.0273
3060.00,0.0272
3059.00,0.0270
3058.00,0.0269
3057.00,0.0267
3056.00,0.0265
3055.00,0.0264
3054.00,0.0262
3053.00,0.0260
3052.00,0.0259
3051.00,0.0257
3050.00,0.0256
3049.00,0.0255
3048.00,0.0253
3047.00,0.0251
3046.00,0.0249
3045.00,0.0247
3044.00,0.0246
3043.00,0.0244
3042.00,0.0243
3041.00,0.0242
3040.00,0.0241
3039.00,0.0241
3038.00,0.0240
3037.00,0.0239
3036.00,0.0237
3035.00,0.0235
3034.00,0.0234
3033.00,0.0233
3032.00,0.0232
3031.00,0.0231
3030.00,0.0230
3029.00,0.0229
3028.00,0.0228
3027.00,0.0227
3026.00,0.0225
3025.00,0.0224
3024.00,0.0223
3023.00,0.0221
3022.00,0.0220
3021.00,0.0219
3020.00,0.0217
3019.00,0.0216
3018.00,0.0214
3017.00,0.0213
3016.00,0.0211
3015.00,0.0210
3014.00,0.0209
3013.00,0.0208
3012.00,0.0208
3011.00,0.0207
3010.00,0.0207
3009.00,0.0207
3008.00,0.0206
3007.00,0.0206
3006.00,0.0206
3005.00,0.0205
3004.00,0.0205
3003.00,0.0204
3002.00,0.0204
3001.00,0.0204
3000.00,0.0204
2999.00,0.0204
2998.00,0.0205
2997.00,0.0205
2996.00,0.0206
2995.00,0.0207
2994.00,0.0208
2993.00,0.0209
2992.00,0.0211
2991.00,0.0213
2990.00,0.0215
2989.00,0.0217
2988.00,0.0220
2987.00,0.0222
2986.00,0.0224
2985.00,0.0227
2984.00,0.0229
2983.00,0.0231
2982.00,0.0234
2981.00,0.0237
2980.00,0.0241
2979.00,0.0245
2978.00,0.0250
2977.00,0.0254
2976.00,0.0258
2975.00,0.0262
2974.00,0.0266
2973.00,0.0270
2972.00,0.0274
2971.00,0.0278
2970.00,0.0281
2969.00,0.0285
2968.00,0.0289
2967.00,0.0292
2966.00,0.0295
2965.00,0.0298
2964.00,0.0300
2963.00,0.0302
2962.00,0.0302
2961.00,0.0303
2960.00,0.0303
2959.00,0.0302
2958.00,0.0301
2957.00,0.0299
2956.00,0.0297
2955.00,0.0294
2954.00,0.0292
2953.00,0.0289
2952.00,0.0287
2951.00,0.0285
2950.00,0.0283
2949.00,0.0281
2948.00,0.0280
2947.00,0.0280
2946.00,0.0280
2945.00,0.0282
2944.00,0.0284
2943.00,0.0286
2942.00,0.0289
2941.00,0.0292
2940.00,0.0295
2939.00,0.0298
2938.00,0.0302
2937.00,0.0305
2936.00,0.0308
2935.00,0.0311
2934.00,0.0313
2933.00,0.0315
2932.00,0.0317
2931.00,0.0319
2930.00,0.0320
2929.00,0.0321
2928.00,0.0321
2927.00,0.0321
2926.00,0.0321
2925.00,0.0320
2924.00,0.0319
2923.00,0.0317
2922.00,0.0314
2921.00,0.0311
2920.00,0.0308
2919.00,0.0304
2918.00,0.0300
2917.00,0.0295
2916.00,0.0290
2915.00,0.0285
2914.00,0.0280
2913.00,0.0276
2912.00,0.0271
2911.00,0.0267
2910.00,0.0263
2909.00,0.0259
2908.00,0.0255
2907.00,0.0252
2906.00,0.0249
2905.00,0.0246
2904.00,0.0243
2903.00,0.0241
2902.00,0.0239
2901.00,0.0236
2900.00,0.0234
2899.00,0.0232
2898.00,0.0230
2897.00,0.0229
2896.00,0.0227
2895.00,0.0225
2894.00,0.0224
2893.00,0.0222
2892.00,0.0221
2891.00,0.0220
2890.00,0.0219
2889.00,0.0218
2888.00,0.0218
2887.00,0.0217
2886.00,0.0218
2885.00,0.0218
2884.00,0.0219
2883.00,0.0220
2882.00,0.0221
2881.00,0.0222
2880.00,0.0224
2879.00,0.0225
2878.00,0.0227
2877.00,0.0228
2876.00,0.0229
2875.00,0.0229
2874.00,0.0229
2873.00,0.0228
2872.00,0.0227
2871.00,0.0225
2870.00,0.0223
2869.00,0.0221
2868.00,0.0218
2867.00,0.0216
2866.00,0.0213
2865.00,0.0211
2864.00,0.0210
2863.00,0.0208
2862.00,0.0207
2861.00,0.0207
2860.00,0.0206
2859.00,0.0206
2858.00,0.0207
2857.00,0.0207
2856.00,0.0207
2855.00,0.0207
2854.00,0.0207
2853.00,0.0206
2852.00,0.0204
2851.00,0.0201
2850.00,0.0198
2849.00,0.0193
2848.00,0.0189
2847.00,0.0185
2846.00,0.0180
2845.00,0.0176
2844.00,0.0172
2843.00,0.0169
2842.00,0.0166
2841.00,0.0163
2840.00,0.0161
2839.00,0.0159
2838.00,0.0157
2837.00,0.0156
2836.00,0.0154
2835.00,0.0153
2834.00,0.0152
2833.00,0.0151
2832.00,0.0150
2831.00,0.0149
2830.00,0.0148
2829.00,0.0148
2828.00,0.0147
2827.00,0.0146
2826.00,0.0146
2825.00,0.0145
2824.00,0.0145
2823.00,0.0144
2822.00,0.0144
2821.00,0.0143
2820.00,0.0143
2819.00,0.0142
2818.00,0.0141
2817.00,0.0141
2816.00,0.0140
2815.00,0.0140
2814.00,0.0140
2813.00,0.0139
2812.00,0.0139
2811.00,0.0138
2810.00,0.0138
2809.00,0.0137
2808.00,0.0137
2807.00,0.0136
2806.00,0.0136
2805.00,0.0135
2804.00,0.0135
2803.00,0.0135
2802.00,0.0134
2801.00,0.0134
2800.00,0.0133
2799.00,0.0132
2798.00,0.0132
2797.00,0.0131
2796.00,0.0131
2795.00,0.0130
2794.00,0.0130
2793.00,0.0130
2792.00,0.0129
2791.00,0.0129
2790.00,0.0128
2789.00,0.0128
2788.00,0.0127
2787.00,0.0127
2786.00,0.0126
2785.00,0.0126
2784.00,0.0126
2783.00,0.0125
2782.00,0.0125
2781.00,0.0124
2780.00,0.0124
2779.00,0.0123
2778.00,0.0123
2777.00,0.0122
2776.00,0.0122
2775.00,0.0121
2774.00,0.0121
2773.00,0.0120
2772.00,0.0120
2771.00,0.0120
2770.00,0.0119
2769.00,0.0119
2768.00,0.0118
2767.00,0.0118
2766.00,0.0117
2765.00,0.0116
2764.00,0.0116
2763.00,0.0115
2762.00,0.0115
2761.00,0.0115
2760.00,0.0114
2759.00,0.0114
2758.00,0.0113
2757.00,0.0113
2756.00,0.0112
2755.00,0.0112
2754.00,0.0112
2753.00,0.0111
2752.00,0.0111
2751.00,0.0111
2750.00,0.0110
2749.00,0.0110
2748.00,0.0109
2747.00,0.0109
2746.00,0.0108
2745.00,0.0108
2744.00,0.0107
2743.00,0.0107
2742.00,0.0106
2741.00,0.0106
2740.00,0.0106
2739.00,0.0105
2738.00,0.0105
2737.00,0.0105
2736.00,0.0104
2735.00,0.0104
2734.00,0.0104
2733.00,0.0104
2732.00,0.0103
2731.00,0.0103
2730.00,0.0102
2729.00,0.0101
2728.00,0.0101
2727.00,0.0100
2726.00,0.0100
2725.00,0.0099
2724.00,0.0099
2723.00,0.0099
2722.00,0.0099
2721.00,0.0098
2720.00,0.0098
2719.00,0.0097
2718.00,0.0097
2717.00,0.0096
2716.00,0.0096
2715.00,0.0095
2714.00,0.0095
2713.00,0.0095
2712.00,0.0094
2711.00,0.0094
2710.00,0.0094
2709.00,0.0093
2708.00,0.0093
2707.00,0.0093
2706.00,0.0092
2705.00,0.0092
2704.00,0.0092
2703.00,0.0091
2702.00,0.0091
2701.00,0.0091
2700.00,0.0091
2699.00,0.0091
2698.00,0.0090
2697.00,0.0090
2696.00,0.0090
2695.00,0.0090
2694.00,0.0090
2693.00,0.0090
2692.00,0.0090
2691.00,0.0089
2690.00,0.0089
2689.00,0.0089
2688.00,0.0089
2687.00,0.0089
2686.00,0.0089
2685.00,0.0089
2684.00,0.0089
2683.00,0.0088
2682.00,0.0088
2681.00,0.0088
2680.00,0.0088
2679.00,0.0087
2678.00,0.0087
2677.00,0.0087
2676.00,0.0087
2675.00,0.0087
2674.00,0.0087
2673.00,0.0087
2672.00,0.0087
2671.00,0.0086
2670.00,0.0086
2669.00,0.0086
2668.00,0.0086
2667.00,0.0086
2666.00,0.0086
2665.00,0.0087
2664.00,0.0087
2663.00,0.0087
2662.00,0.0087
2661.00,0.0087
2660.00,0.0088
2659.00,0.0088
2658.00,0.0088
2657.00,0.0088
2656.00,0.0088
2655.00,0.0088
2654.00,0.0088
2653.00,0.0088
2652.00,0.0088
2651.00,0.0087
2650.00,0.0087
2649.00,0.0087
2648.00,0.0087
2647.00,0.0087
2646.00,0.0087
2645.00,0.0086
2644.00,0.0086
2643.00,0.0086
2642.00,0.0085
2641.00,0.0085
2640.00,0.0085
2639.00,0.0085
2638.00,0.0084
2637.00,0.0084
2636.00,0.0084
2635.00,0.0084
2634.00,0.0084
2633.00,0.0083
2632.00,0.0083
2631.00,0.0083
2630.00,0.0083
2629.00,0.0083
2628.00,0.0083
2627.00,0.0082
2626.00,0.0082
2625.00,0.0082
2624.00,0.0081
2623.00,0.0081
2622.00,0.0080
2621.00,0.0080
2620.00,0.0080
2619.00,0.0080
2618.00,0.0080
2617.00,0.0080
2616.00,0.0080
2615.00,0.0079
2614.00,0.0079
2613.00,0.0078
2612.00,0.0078
2611.00,0.0078
2610.00,0.0077
2609.00,0.0077
2608.00,0.0077
2607.00,0.0077
2606.00,0.0077
2605.00,0.0076
2604.00,0.0076
2603.00,0.0076
2602.00,0.0076
2601.00,0.0075
2600.00,0.0075
2599.00,0.0074
2598.00,0.0074
2597.00,0.0074
2596.00,0.0073
2595.00,0.0073
2594.00,0.0073
2593.00,0.0073
2592.00,0.0073
2591.00,0.0072
2590.00,0.0072
2589.00,0.0072
2588.00,0.0072
2587.00,0.0071
2586.00,0.0071
2585.00,0.0071
2584.00,0.0071
2583.00,0.0070
2582.00,0.0070
2581.00,0.0070
2580.00,0.0070
2579.00,0.0069
2578.00,0.0069
2577.00,0.0069
2576.00,0.0068
2575.00,0.0068
2574.00,0.0067
2573.00,0.0067
2572.00,0.0067
2571.00,0.0066
2570.00,0.0066
2569.00,0.0066
2568.00,0.0066
2567.00,0.0066
2566.00,0.0066
2565.00,0.0066
2564.00,0.0066
2563.00,0.0066
2562.00,0.0065
2561.00,0.0065
2560.00,0.0065
2559.00,0.0065
2558.00,0.0065
2557.00,0.0065
2556.00,0.0064
2555.00,0.0064
2554.00,0.0064
2553.00,0.0063
2552.00,0.0063
2551.00,0.0063
2550.00,0.0063
2549.00,0.0063
2548.00,0.0063
2547.00,0.0063
2546.00,0.0062
2545.00,0.0062
2544.00,0.0062
2543.00,0.0062
2542.00,0.0061
2541.00,0.0061
2540.00,0.0061
2539.00,0.0061
2538.00,0.0061
2537.00,0.0061
2536.00,0.0061
2535.00,0.0061
2534.00,0.0060
2533.00,0.0060
2532.00,0.0060
2531.00,0.0060
2530.00,0.0059
2529.00,0.0059
2528.00,0.0059
2527.00,0.0059
2526.00,0.0058
2525.00,0.0059
2524.00,0.0059
2523.00,0.0059
2522.00,0.0059
2521.00,0.0059
2520.00,0.0059
2519.00,0.0058
2518.00,0.0058
2517.00,0.0058
2516.00,0.0058
2515.00,0.0058
2514.00,0.0057
2513.00,0.0057
2512.00,0.0057
2511.00,0.0057
2510.00,0.0057
2509.00,0.0057
2508.00,0.0058
2507.00,0.0057
2506.00,0.0057
2505.00,0.0056
2504.00,0.0056
2503.00,0.0056
2502.00,0.0056
2501.00,0.0056
2500.00,0.0056
2499.00,0.0055
2498.00,0.0055
2497.00,0.0054
2496.00,0.0054
2495.00,0.0054
2494.00,0.0054
2493.00,0.0054
2492.00,0.0054
2491.00,0.0054
2490.00,0.0053
2489.00,0.0053
2488.00,0.0053
2487.00,0.0053
2486.00,0.0053
2485.00,0.0053
2484.00,0.0053
2483.00,0.0053
2482.00,0.0052
2481.00,0.0052
2480.00,0.0051
2479.00,0.0051
2478.00,0.0051
2477.00,0.0051
2476.00,0.0051
2475.00,0.0051
2474.00,0.0051
2473.00,0.0051
2472.00,0.0050
2471.00,0.0050
2470.00,0.0050
2469.00,0.0050
2468.00,0.0050
2467.00,0.0050
2466.00,0.0050
2465.00,0.0050
2464.00,0.0050
2463.00,0.0049
2462.00,0.0049
2461.00,0.0049
2460.00,0.0050
2459.00,0.0050
2458.00,0.0050
2457.00,0.0050
2456.00,0.0050
2455.00,0.0050
2454.00,0.0049
2453.00,0.0049
2452.00,0.0049
2451.00,0.0049
2450.00,0.0049
2449.00,0.0048
2448.00,0.0048
2447.00,0.0048
2446.00,0.0047
2445.00,0.0047
2444.00,0.0046
2443.00,0.0045
2442.00,0.0045
2441.00,0.0045
2440.00,0.0045
2439.00,0.0045
2438.00,0.0046
2437.00,0.0045
2436.00,0.0045
2435.00,0.0044
2434.00,0.0044
2433.00,0.0044
2432.00,0.0044
2431.00,0.0044
2430.00,0.0044
2429.00,0.0044
2428.00,0.0043
2427.00,0.0043
2426.00,0.0043
2425.00,0.0043
2424.00,0.0042
2423.00,0.0042
2422.00,0.0042
2421.00,0.0041
2420.00,0.0041
2419.00,0.0041
2418.00,0.0041
2417.00,0.0041
2416.00,0.0041
2415.00,0.0041
2414.00,0.0041
2413.00,0.0041
2412.00,0.0041
2411.00,0.0040
2410.00,0.0040
2409.00,0.0039
2408.00,0.0039
2407.00,0.0038
2406.00,0.0038
2405.00,0.0038
2404.00,0.0038
2403.00,0.0038
2402.00,0.0038
2401.00,0.0037
2400.00,0.0037
2399.00,0.0037
2398.00,0.0037
2397.00,0.0036
2396.00,0.0036
2395.00,0.0036
2394.00,0.0036
2393.00,0.0037
2392.00,0.0037
2391.00,0.0036
2390.00,0.0036
2389.00,0.0036
2388.00,0.0036
2387.00,0.0036
2386.00,0.0036
2385.00,0.0036
2384.00,0.0036
2383.00,0.0035
2382.00,0.0035
2381.00,0.0035
2380.00,0.0035
2379.00,0.0035
2378.00,0.0035
2377.00,0.0035
2376.00,0.0035
2375.00,0.0035
2374.00,0.0035
2373.00,0.0035
2372.00,0.0034
2371.00,0.0034
2370.00,0.0034
2369.00,0.0034
2368.00,0.0034
2367.00,0.0034
2366.00,0.0034
2365.00,0.0034
2364.00,0.0035
2363.00,0.0035
2362.00,0.0035
2361.00,0.0036
2360.00,0.0036
2359.00,0.0036
2358.00,0.0035
2357.00,0.0034
2356.00,0.0034
2355.00,0.0033
2354.00,0.0032
2353.00,0.0030
2352.00,0.0029
2351.00,0.0030
2350.00,0.0031
2349.00,0.0034
2348.00,0.0037
2347.00,0.0039
2346.00,0.0039
2345.00,0.0038
2344.00,0.0037
2343.00,0.0037
2342.00,0.0038
2341.00,0.0038
2340.00,0.0038
2339.00,0.0038
2338.00,0.0037
2337.00,0.0037
2336.00,0.0037
2335.00,0.0037
2334.00,0.0037
2333.00,0.0037
2332.00,0.0036
2331.00,0.0036
2330.00,0.0036
2329.00,0.0038
2328.00,0.0042
2327.00,0.0046
2326.00,0.0050
2325.00,0.0051
2324.00,0.0049
2323.00,0.0047
2322.00,0.0044
2321.00,0.0042
2320.00,0.0041
2319.00,0.0040
2318.00,0.0040
2317.00,0.0040
2316.00,0.0040
2315.00,0.0040
2314.00,0.0040
2313.00,0.0039
2312.00,0.0038
2311.00,0.0038
2310.00,0.0037
2309.00,0.0037
2308.00,0.0037
2307.00,0.0037
2306.00,0.0037
2305.00,0.0037
2304.00,0.0037
2303.00,0.0038
2302.00,0.0038
2301.00,0.0038
2300.00,0.0039
2299.00,0.0039
2298.00,0.0039
2297.00,0.0040
2296.00,0.0040
2295.00,0.0041
2294.00,0.0041
2293.00,0.0042
2292.00,0.0042
2291.00,0.0043
2290.00,0.0043
2289.00,0.0043
2288.00,0.0043
2287.00,0.0044
2286.00,0.0043
2285.00,0.0043
2284.00,0.0043
2283.00,0.0043
2282.00,0.0042
2281.00,0.0041
2280.00,0.0041
2279.00,0.0040
2278.00,0.0040
2277.00,0.0040
2276.00,0.0039
2275.00,0.0039
2274.00,0.0039
2273.00,0.0038
2272.00,0.0038
2271.00,0.0037
2270.00,0.0037
2269.00,0.0036
2268.00,0.0035
2267.00,0.0034
2266.00,0.0033
2265.00,0.0033
2264.00,0.0033
2263.00,0.0034
2262.00,0.0034
2261.00,0.0035
2260.00,0.0035
2259.00,0.0035
2258.00,0.0034
2257.00,0.0033
2256.00,0.0032
2255.00,0.0031
2254.00,0.0031
2253.00,0.0031
2252.00,0.0031
2251.00,0.0031
2250.00,0.0031
2249.00,0.0031
2248.00,0.0032
2247.00,0.0033
2246.00,0.0033
2245.00,0.0033
2244.00,0.0033
2243.00,0.0032
2242.00,0.0032
2241.00,0.0032
2240.00,0.0032
2239.00,0.0032
2238.00,0.0031
2237.00,0.0031
2236.00,0.0031
2235.00,0.0032
2234.00,0.0032
2233.00,0.0033
2232.00,0.0034
2231.00,0.0034
2230.00,0.0033
2229.00,0.0033
2228.00,0.0033
2227.00,0.0032
2226.00,0.0031
2225.00,0.0032
2224.00,0.0032
2223.00,0.0033
2222.00,0.0033
2221.00,0.0033
2220.00,0.0032
2219.00,0.0031
2218.00,0.0031
2217.00,0.0031
2216.00,0.0032
2215.00,0.0034
2214.00,0.0034
2213.00,0.0033
2212.00,0.0033
2211.00,0.0031
2210.00,0.0030
2209.00,0.0029
2208.00,0.0028
2207.00,0.0028
2206.00,0.0028
2205.00,0.0029
2204.00,0.0030
2203.00,0.0030
2202.00,0.0031
2201.00,0.0032
2200.00,0.0033
2199.00,0.0033
2198.00,0.0033
2197.00,0.0033
2196.00,0.0033
2195.00,0.0033
2194.00,0.0034
2193.00,0.0034
2192.00,0.0035
2191.00,0.0036
2190.00,0.0035
2189.00,0.0035
2188.00,0.0035
2187.00,0.0034
2186.00,0.0033
2185.00,0.0032
2184.00,0.0030
2183.00,0.0028
2182.00,0.0027
2181.00,0.0028
2180.00,0.0030
2179.00,0.0031
2178.00,0.0031
2177.00,0.0030
2176.00,0.0028
2175.00,0.0027
2174.00,0.0028
2173.00,0.0030
2172.00,0.0034
2171.00,0.0037
2170.00,0.0038
2169.00,0.0038
2168.00,0.0038
2167.00,0.0038
2166.00,0.0039
2165.00,0.0040
2164.00,0.0042
2163.00,0.0041
2162.00,0.0035
2161.00,0.0023
2160.00,0.0009
2159.00,-0.0003
2158.00,-0.0009
2157.00,-0.0008
2156.00,-0.0003
2155.00,0.0001
2154.00,0.0004
2153.00,0.0008
2152.00,0.0010
2151.00,0.0011
2150.00,0.0011
2149.00,0.0011
2148.00,0.0011
2147.00,0.0012
2146.00,0.0013
2145.00,0.0014
2144.00,0.0015
2143.00,0.0015
2142.00,0.0014
2141.00,0.0015
2140.00,0.0015
2139.00,0.0015
2138.00,0.0014
2137.00,0.0012
2136.00,0.0010
2135.00,0.0008
2134.00,0.0008
2133.00,0.0009
2132.00,0.0010
2131.00,0.0011
2130.00,0.0013
2129.00,0.0015
2128.00,0.0016
2127.00,0.0018
2126.00,0.0019
2125.00,0.0020
2124.00,0.0022
2123.00,0.0023
2122.00,0.0024
2121.00,0.0025
2120.00,0.0026
2119.00,0.0027
2118.00,0.0028
2117.00,0.0029
2116.00,0.0029
2115.00,0.0030
2114.00,0.0030
2113.00,0.0031
2112.00,0.0032
2111.00,0.0032
2110.00,0.0031
2109.00,0.0030
2108.00,0.0029
2107.00,0.0029
2106.00,0.0028
2105.00,0.0029
2104.00,0.0029
2103.00,0.0030
2102.00,0.0030
2101.00,0.0030
2100.00,0.0030
2099.00,0.0029
2098.00,0.0027
2097.00,0.0026
2096.00,0.0025
2095.00,0.0025
2094.00,0.0025
2093.00,0.0026
2092.00,0.0027
2091.00,0.0029
2090.00,0.0029
2089.00,0.0030
2088.00,0.0030
2087.00,0.0030
2086.00,0.0030
2085.00,0.0031
2084.00,0.0032
2083.00,0.0032
2082.00,0.0032
2081.00,0.0033
2080.00,0.0034
2079.00,0.0034
2078.00,0.0033
2077.00,0.0031
2076.00,0.0030
2075.00,0.0029
2074.00,0.0029
2073.00,0.0028
2072.00,0.0028
2071.00,0.0028
2070.00,0.0027
2069.00,0.0028
2068.00,0.0029
2067.00,0.0029
2066.00,0.0029
2065.00,0.0029
2064.00,0.0030
2063.00,0.0030
2062.00,0.0030
2061.00,0.0030
2060.00,0.0030
2059.00,0.0030
2058.00,0.0030
2057.00,0.0029
2056.00,0.0030
2055.00,0.0031
2054.00,0.0035
2053.00,0.0039
2052.00,0.0042
2051.00,0.0041
2050.00,0.0037
2049.00,0.0033
2048.00,0.0030
2047.00,0.0029
2046.00,0.0027
2045.00,0.0026
2044.00,0.0027
2043.00,0.0028
2042.00,0.0029
2041.00,0.0030
2040.00,0.0031
2039.00,0.0030
2038.00,0.0029
2037.00,0.0028
2036.00,0.0028
2035.00,0.0027
2034.00,0.0025
2033.00,0.0024
2032.00,0.0023
2031.00,0.0021
2030.00,0.0019
2029.00,0.0019
2028.00,0.0020
2027.00,0.0021
2026.00,0.0020
2025.00,0.0019
2024.00,0.0018
2023.00,0.0018
2022.00,0.0018
2021.00,0.0018
2020.00,0.0020
2019.00,0.0020
2018.00,0.0019
2017.00,0.0019
2016.00,0.0019
2015.00,0.0019
2014.00,0.0018
2013.00,0.0019
2012.00,0.0019
2011.00,0.0019
2010.00,0.0018
2009.00,0.0017
2008.00,0.0015
2007.00,0.0013
2006.00,0.0011
2005.00,0.0011
2004.00,0.0013
2003.00,0.0014
2002.00,0.0015
2001.00,0.0017
2000.00,0.0019
1999.00,0.0020
1998.00,0.0021
1997.00,0.0023
1996.00,0.0024
1995.00,0.0025
1994.00,0.0024
1993.00,0.0023
1992.00,0.0024
1991.00,0.0026
1990.00,0.0026
1989.00,0.0026
1988.00,0.0027
1987.00,0.0027
1986.00,0.0028
1985.00,0.0029
1984.00,0.0032
1983.00,0.0036
1982.00,0.0038
1981.00,0.0039
1980.00,0.0037
1979.00,0.0031
1978.00,0.0025
1977.00,0.0020
1976.00,0.0017
1975.00,0.0015
1974.00,0.0012
1973.00,0.0011
1972.00,0.0012
1971.00,0.0014
1970.00,0.0015
1969.00,0.0016
1968.00,0.0017
1967.00,0.0018
1966.00,0.0018
1965.00,0.0017
1964.00,0.0017
1963.00,0.0015
1962.00,0.0014
1961.00,0.0013
1960.00,0.0012
1959.00,0.0011
1958.00,0.0009
1957.00,0.0009
1956.00,0.0010
1955.00,0.0012
1954.00,0.0013
1953.00,0.0015
1952.00,0.0016
1951.00,0.0016
1950.00,0.0016
1949.00,0.0016
1948.00,0.0017
1947.00,0.0018
1946.00,0.0017
1945.00,0.0017
1944.00,0.0017
1943.00,0.0018
1942.00,0.0018
1941.00,0.0019
1940.00,0.0019
1939.00,0.0019
1938.00,0.0019
1937.00,0.0020
1936.00,0.0020
1935.00,0.0020
1934.00,0.0019
1933.00,0.0019
1932.00,0.0019
1931.00,0.0020
1930.00,0.0019
1929.00,0.0019
1928.00,0.0020
1927.00,0.0020
1926.00,0.0020
1925.00,0.0020
1924.00,0.0020
1923.00,0.0021
1922.00,0.0022
1921.00,0.0022
1920.00,0.0021
1919.00,0.0021
1918.00,0.0021
1917.00,0.0023
1916.00,0.0024
1915.00,0.0023
1914.00,0.0023
1913.00,0.0022
1912.00,0.0022
1911.00,0.0022
1910.00,0.0021
1909.00,0.0022
1908.00,0.0023
1907.00,0.0024
1906.00,0.0024
1905.00,0.0024
1904.00,0.0024
1903.00,0.0024
1902.00,0.0024
1901.00,0.0023
1900.00,0.0024
1899.00,0.0024
1898.00,0.0024
1897.00,0.0024
1896.00,0.0024
1895.00,0.0025
1894.00,0.0025
1893.00,0.0025
1892.00,0.0024
1891.00,0.0024
1890.00,0.0024
1889.00,0.0024
1888.00,0.0024
1887.00,0.0024
1886.00,0.0024
1885.00,0.0024
1884.00,0.0025
1883.00,0.0026
1882.00,0.0025
1881.00,0.0025
1880.00,0.0025
1879.00,0.0025
1878.00,0.0025
1877.00,0.0025
1876.00,0.0025
1875.00,0.0026
1874.00,0.0026
1873.00,0.0026
1872.00,0.0026
1871.00,0.0025
1870.00,0.0024
1869.00,0.0024
1868.00,0.0025
1867.00,0.0026
1866.00,0.0025
1865.00,0.0025
1864.00,0.0026
1863.00,0.0027
1862.00,0.0027
1861.00,0.0027
1860.00,0.0027
1859.00,0.0027
1858.00,0.0027
1857.00,0.0027
1856.00,0.0027
1855.00,0.0027
1854.00,0.0027
1853.00,0.0027
1852.00,0.0027
1851.00,0.0027
1850.00,0.0027
1849.00,0.0027
1848.00,0.0027
1847.00,0.0027
1846.00,0.0025
1845.00,0.0025
1844.00,0.0027
1843.00,0.0028
1842.00,0.0028
1841.00,0.0027
1840.00,0.0027
1839.00,0.0028
1838.00,0.0028
1837.00,0.0029
1836.00,0.0029
1835.00,0.0030
1834.00,0.0029
1833.00,0.0028
1832.00,0.0028
1831.00,0.0027
1830.00,0.0028
1829.00,0.0029
1828.00,0.0030
1827.00,0.0029
1826.00,0.0028
1825.00,0.0029
1824.00,0.0030
1823.00,0.0031
1822.00,0.0031
1821.00,0.0031
1820.00,0.0032
1819.00,0.0031
1818.00,0.0031
1817.00,0.0030
1816.00,0.0031
1815.00,0.0032
1814.00,0.0032
1813.00,0.0032
1812.00,0.0033
1811.00,0.0035
1810.00,0.0035
1809.00,0.0036
1808.00,0.0036
1807.00,0.0037
1806.00,0.0037
1805.00,0.0037
1804.00,0.0036
1803.00,0.0036
1802.00,0.0036
1801.00,0.0037
1800.00,0.0038
1799.00,0.0038
1798.00,0.0039
1797.00,0.0039
1796.00,0.0039
1795.00,0.0039
1794.00,0.0039
1793.00,0.0039
1792.00,0.0041
1791.00,0.0042
1790.00,0.0042
1789.00,0.0042
1788.00,0.0042
1787.00,0.0043
1786.00,0.0043
1785.00,0.0044
1784.00,0.0044
1783.00,0.0045
1782.00,0.0045
1781.00,0.0046
1780.00,0.0047
1779.00,0.0048
1778.00,0.0047
1777.00,0.0047
1776.00,0.0047
1775.00,0.0048
1774.00,0.0049
1773.00,0.0051
1772.00,0.0053
1771.00,0.0054
1770.00,0.0052
1769.00,0.0051
1768.00,0.0053
1767.00,0.0055
1766.00,0.0057
1765.00,0.0057
1764.00,0.0058
1763.00,0.0059
1762.00,0.0061
1761.00,0.0064
1760.00,0.0066
1759.00,0.0067
1758.00,0.0068
1757.00,0.0071
1756.00,0.0074
1755.00,0.0077
1754.00,0.0078
1753.00,0.0080
1752.00,0.0085
1751.00,0.0089
1750.00,0.0093
1749.00,0.0096
1748.00,0.0099
1747.00,0.0103
1746.00,0.0106
1745.00,0.0109
1744.00,0.0114
1743.00,0.0118
1742.00,0.0120
1741.00,0.0124
1740.00,0.0128
1739.00,0.0134
1738.00,0.0137
1737.00,0.0139
1736.00,0.0143
1735.00,0.0149
1734.00,0.0157
1733.00,0.0164
1732.00,0.0167
1731.00,0.0168
1730.00,0.0169
1729.00,0.0171
1728.00,0.0175
1727.00,0.0178
1726.00,0.0181
1725.00,0.0184
1724.00,0.0188
1723.00,0.0192
1722.00,0.0194
1721.00,0.0195
1720.00,0.0198
1719.00,0.0202
1718.00,0.0207
1717.00,0.0214
1716.00,0.0219
1715.00,0.0221
1714.00,0.0222
1713.00,0.0225
1712.00,0.0230
1711.00,0.0237
1710.00,0.0243
1709.00,0.0251
1708.00,0.0259
1707.00,0.0268
1706.00,0.0280
1705.00,0.0296
1704.00,0.0312
1703.00,0.0327
1702.00,0.0344
1701.00,0.0370
1700.00,0.0408
1699.00,0.0443
1698.00,0.0470
1697.00,0.0494
1696.00,0.0520
1695.00,0.0542
1694.00,0.0554
1693.00,0.0562
1692.00,0.0570
1691.00,0.0581
1690.00,0.0593
1689.00,0.0606
1688.00,0.0620
1687.00,0.0636
1686.00,0.0652
1685.00,0.0670
1684.00,0.0687
1683.00,0.0702
1682.00,0.0714
1681.00,0.0729
1680.00,0.0748
1679.00,0.0768
1678.00,0.0785
1677.00,0.0802
1676.00,0.0818
1675.00,0.0835
1674.00,0.0853
1673.00,0.0872
1672.00,0.0891
1671.00,0.0910
1670.00,0.0927
1669.00,0.0945
1668.00,0.0964
1667.00,0.0984
1666.00,0.1005
1665.00,0.1026
1664.00,0.1047
1663.00,0.1067
1662.00,0.1085
1661.00,0.1104
1660.00,0.1125
1659.00,0.1147
1658.00,0.1169
1657.00,0.1191
1656.00,0.1215
1655.00,0.1237
1654.00,0.1248
1653.00,0.1249
1652.00,0.1255
1651.00,0.1268
1650.00,0.1282
1649.00,0.1295
1648.00,0.1305
1647.00,0.1308
1646.00,0.1308
1645.00,0.1312
1644.00,0.1322
1643.00,0.1334
1642.00,0.1346
1641.00,0.1358
1640.00,0.1372
1639.00,0.1388
1638.00,0.1403
1637.00,0.1415
1636.00,0.1423
1635.00,0.1432
1634.00,0.1447
1633.00,0.1470
1632.00,0.1498
1631.00,0.1529
1630.00,0.1557
1629.00,0.1584
1628.00,0.1611
1627.00,0.1639
1626.00,0.1666
1625.00,0.1692
1624.00,0.1712
1623.00,0.1725
1622.00,0.1735
1621.00,0.1746
1620.00,0.1759
1619.00,0.1767
1618.00,0.1758
1617.00,0.1727
1616.00,0.1683
1615.00,0.1642
1614.00,0.1607
1613.00,0.1572
1612.00,0.1533
1611.00,0.1486
1610.00,0.1433
1609.00,0.1378
1608.00,0.1323
1607.00,0.1270
1606.00,0.1221
1605.00,0.1174
1604.00,0.1130
1603.00,0.1087
1602.00,0.1048
1601.00,0.1011
1600.00,0.0978
1599.00,0.0948
1598.00,0.0922
1597.00,0.0897
1596.00,0.0874
1595.00,0.0852
1594.00,0.0832
1593.00,0.0814
1592.00,0.0797
1591.00,0.0782
1590.00,0.0769
1589.00,0.0758
1588.00,0.0748
1587.00,0.0739
1586.00,0.0733
1585.00,0.0729
1584.00,0.0725
1583.00,0.0723
1582.00,0.0722
1581.00,0.0724
1580.00,0.0728
1579.00,0.0732
1578.00,0.0740
1577.00,0.0749
1576.00,0.0757
1575.00,0.0764
1574.00,0.0771
1573.00,0.0780
1572.00,0.0789
1571.00,0.0801
1570.00,0.0814
1569.00,0.0828
1568.00,0.0843
1567.00,0.0857
1566.00,0.0874
1565.00,0.0892
1564.00,0.0911
1563.00,0.0930
1562.00,0.0950
1561.00,0.0971
1560.00,0.0987
1559.00,0.0999
1558.00,0.1015
1557.00,0.1032
1556.00,0.1050
1555.00,0.1071
1554.00,0.1094
1553.00,0.1116
1552.00,0.1136
1551.00,0.1155
1550.00,0.1174
1549.00,0.1194
1548.00,0.1214
1547.00,0.1233
1546.00,0.1252
1545.00,0.1270
1544.00,0.1288
1543.00,0.1305
1542.00,0.1321
1541.00,0.1334
1540.00,0.1342
1539.00,0.1351
1538.00,0.1364
1537.00,0.1380
1536.00,0.1396
1535.00,0.1410
1534.00,0.1419
1533.00,0.1424
1532.00,0.1432
1531.00,0.1443
1530.00,0.1457
1529.00,0.1469
1528.00,0.1476
1527.00,0.1480
1526.00,0.1482
1525.00,0.1486
1524.00,0.1490
1523.00,0.1494
1522.00,0.1492
1521.00,0.1485
1520.00,0.1481
1519.00,0.1481
1518.00,0.1482
1517.00,0.1478
1516.00,0.1470
1515.00,0.1461
1514.00,0.1451
1513.00,0.1437
1512.00,0.1418
1511.00,0.1398
1510.00,0.1379
1509.00,0.1359
1508.00,0.1327
1507.00,0.1278
1506.00,0.1225
1505.00,0.1187
1504.00,0.1164
1503.00,0.1146
1502.00,0.1127
1501.00,0.1104
1500.00,0.1078
1499.00,0.1051
1498.00,0.1022
1497.00,0.0990
1496.00,0.0959
1495.00,0.0931
1494.00,0.0907
1493.00,0.0884
1492.00,0.0860
1491.00,0.0834
1490.00,0.0805
1489.00,0.0777
1488.00,0.0753
1487.00,0.0734
1486.00,0.0717
1485.00,0.0702
1484.00,0.0689
1483.00,0.0677
1482.00,0.0666
1481.00,0.0656
1480.00,0.0648
1479.00,0.0643
1478.00,0.0639
1477.00,0.0637
1476.00,0.0638
1475.00,0.0641
1474.00,0.0647
1473.00,0.0655
1472.00,0.0665
1471.00,0.0675
1470.00,0.0683
1469.00,0.0691
1468.00,0.0697
1467.00,0.0701
1466.00,0.0703
1465.00,0.0703
1464.00,0.0703
1463.00,0.0706
1462.00,0.0711
1461.00,0.0716
1460.00,0.0722
1459.00,0.0728
1458.00,0.0736
1457.00,0.0744
1456.00,0.0752
1455.00,0.0758
1454.00,0.0763
1453.00,0.0766
1452.00,0.0768
1451.00,0.0770
1450.00,0.0770
1449.00,0.0768
1448.00,0.0766
1447.00,0.0763
1446.00,0.0761
1445.00,0.0760
1444.00,0.0758
1443.00,0.0755
1442.00,0.0752
1441.00,0.0749
1440.00,0.0745
1439.00,0.0741
1438.00,0.0733
1437.00,0.0721
1436.00,0.0709
1435.00,0.0699
1434.00,0.0692
1433.00,0.0685
1432.00,0.0678
1431.00,0.0669
1430.00,0.0661
1429.00,0.0653
1428.00,0.0648
1427.00,0.0646
1426.00,0.0645
1425.00,0.0644
1424.00,0.0645
1423.00,0.0647
1422.00,0.0651
1421.00,0.0655
1420.00,0.0659
1419.00,0.0664
1418.00,0.0670
1417.00,0.0677
1416.00,0.0684
1415.00,0.0693
1414.00,0.0702
1413.00,0.0709
1412.00,0.0716
1411.00,0.0723
1410.00,0.0729
1409.00,0.0735
1408.00,0.0740
1407.00,0.0744
1406.00,0.0747
1405.00,0.0751
1404.00,0.0754
1403.00,0.0757
1402.00,0.0760
1401.00,0.0762
1400.00,0.0763
1399.00,0.0764
1398.00,0.0766
1397.00,0.0767
1396.00,0.0769
1395.00,0.0770
1394.00,0.0771
1393.00,0.0772
1392.00,0.0775
1391.00,0.0777
1390.00,0.0779
1389.00,0.0778
1388.00,0.0776
1387.00,0.0771
1386.00,0.0765
1385.00,0.0759
1384.00,0.0752
1383.00,0.0745
1382.00,0.0737
1381.00,0.0729
1380.00,0.0721
1379.00,0.0713
1378.00,0.0706
1377.00,0.0699
1376.00,0.0692
1375.00,0.0686
1374.00,0.0680
1373.00,0.0676
1372.00,0.0673
1371.00,0.0671
1370.00,0.0669
1369.00,0.0665
1368.00,0.0659
1367.00,0.0652
1366.00,0.0645
1365.00,0.0637
1364.00,0.0629
1363.00,0.0620
1362.00,0.0613
1361.00,0.0608
1360.00,0.0604
1359.00,0.0601
1358.00,0.0599
1357.00,0.0597
1356.00,0.0595
1355.00,0.0594
1354.00,0.0592
1353.00,0.0591
1352.00,0.0591
1351.00,0.0591
1350.00,0.0591
1349.00,0.0591
1348.00,0.0591
1347.00,0.0591
1346.00,0.0592
1345.00,0.0592
1344.00,0.0592
1343.00,0.0592
1342.00,0.0591
1341.00,0.0591
1340.00,0.0590
1339.00,0.0589
1338.00,0.0587
1337.00,0.0586
1336.00,0.0584
1335.00,0.0582
1334.00,0.0581
1333.00,0.0579
1332.00,0.0577
1331.00,0.0576
1330.00,0.0575
1329.00,0.0574
1328.00,0.0574
1327.00,0.0574
1326.00,0.0574
1325.00,0.0575
1324.00,0.0576
1323.00,0.0577
1322.00,0.0579
1321.00,0.0580
1320.00,0.0582
1319.00,0.0583
1318.00,0.0584
1317.00,0.0586
1316.00,0.0587
1315.00,0.0588
1314.00,0.0589
1313.00,0.0589
1312.00,0.0589
1311.00,0.0589
1310.00,0.0588
1309.00,0.0588
1308.00,0.0588
1307.00,0.0587
1306.00,0.0586
1305.00,0.0586
1304.00,0.0585
1303.00,0.0585
1302.00,0.0585
1301.00,0.0585
1300.00,0.0586
1299.00,0.0587
1298.00,0.0588
1297.00,0.0589
1296.00,0.0591
1295.00,0.0594
1294.00,0.0596
1293.00,0.0599
1292.00,0.0602
1291.00,0.0605
1290.00,0.0607
1289.00,0.0610
1288.00,0.0613
1287.00,0.0616
1286.00,0.0618
1285.00,0.0621
1284.00,0.0624
1283.00,0.0626
1282.00,0.0628
1281.00,0.0630
1280.00,0.0632
1279.00,0.0634
1278.00,0.0635
1277.00,0.0636
1276.00,0.0637
1275.00,0.0638
1274.00,0.0639
1273.00,0.0641
1272.00,0.0642
1271.00,0.0644
1270.00,0.0647
1269.00,0.0650
1268.00,0.0654
1267.00,0.0658
1266.00,0.0662
1265.00,0.0667
1264.00,0.0672
1263.00,0.0678
1262.00,0.0684
1261.00,0.0690
1260.00,0.0696
1259.00,0.0703
1258.00,0.0709
1257.00,0.0715
1256.00,0.0722
1255.00,0.0729
1254.00,0.0735
1253.00,0.0742
1252.00,0.0749
1251.00,0.0756
1250.00,0.0763
1249.00,0.0770
1248.00,0.0777
1247.00,0.0785
1246.00,0.0791
1245.00,0.0798
1244.00,0.0805
1243.00,0.0812
1242.00,0.0818
1241.00,0.0825
1240.00,0.0830
1239.00,0.0836
1238.00,0.0841
1237.00,0.0846
1236.00,0.0851
1235.00,0.0854
1234.00,0.0857
1233.00,0.0860
1232.00,0.0862
1231.00,0.0863
1230.00,0.0864
1229.00,0.0864
1228.00,0.0863
1227.00,0.0862
1226.00,0.0860
1225.00,0.0857
1224.00,0.0854
1223.00,0.0851
1222.00,0.0847
1221.00,0.0842
1220.00,0.0836
1219.00,0.0830
1218.00,0.0823
1217.00,0.0816
1216.00,0.0808
1215.00,0.0799
1214.00,0.0790
1213.00,0.0781
1212.00,0.0772
1211.00,0.0762
1210.00,0.0753
1209.00,0.0744
1208.00,0.0735
1207.00,0.0726
1206.00,0.0718
1205.00,0.0710
1204.00,0.0702
1203.00,0.0695
1202.00,0.0689
1201.00,0.0682
1200.00,0.0677
1199.00,0.0671
1198.00,0.0666
1197.00,0.0662
1196.00,0.0658
1195.00,0.0654
1194.00,0.0651
1193.00,0.0647
1192.00,0.0644
1191.00,0.0641
1190.00,0.0639
1189.00,0.0637
1188.00,0.0635
1187.00,0.0633
1186.00,0.0632
1185.00,0.0630
1184.00,0.0629
1183.00,0.0629
1182.00,0.0629
1181.00,0.0630
1180.00,0.0632
1179.00,0.0634
1178.00,0.0637
1177.00,0.0641
1176.00,0.0646
1175.00,0.0651
1174.00,0.0656
1173.00,0.0660
1172.00,0.0664
1171.00,0.0667
1170.00,0.0668
1169.00,0.0669
1168.00,0.0669
1167.00,0.0670
1166.00,0.0671
1165.00,0.0671
1164.00,0.0672
1163.00,0.0673
1162.00,0.0674
1161.00,0.0674
1160.00,0.0675
1159.00,0.0675
1158.00,0.0675
1157.00,0.0674
1156.00,0.0673
1155.00,0.0671
1154.00,0.0668
1153.00,0.0664
1152.00,0.0660
1151.00,0.0655
1150.00,0.0649
1149.00,0.0643
1148.00,0.0637
1147.00,0.0631
1146.00,0.0625
1145.00,0.0619
1144.00,0.0613
1143.00,0.0607
1142.00,0.0602
1141.00,0.0598
1140.00,0.0594
1139.00,0.0591
1138.00,0.0589
1137.00,0.0587
1136.00,0.0586
1135.00,0.0586
1134.00,0.0586
1133.00,0.0588
1132.00,0.0589
1131.00,0.0591
1130.00,0.0594
1129.00,0.0597
1128.00,0.0600
1127.00,0.0603
1126.00,0.0606
1125.00,0.0609
1124.00,0.0612
1123.00,0.0615
1122.00,0.0617
1121.00,0.0619
1120.00,0.0621
1119.00,0.0623
1118.00,0.0626
1117.00,0.0628
1116.00,0.0630
1115.00,0.0632
1114.00,0.0634
1113.00,0.0635
1112.00,0.0636
1111.00,0.0637
1110.00,0.0638
1109.00,0.0639
1108.00,0.0641
1107.00,0.0642
1106.00,0.0644
1105.00,0.0647
1104.00,0.0649
1103.00,0.0652
1102.00,0.0654
1101.00,0.0656
1100.00,0.0659
1099.00,0.0662
1098.00,0.0665
1097.00,0.0669
1096.00,0.0674
1095.00,0.0680
1094.00,0.0686
1093.00,0.0692
1092.00,0.0699
1091.00,0.0707
1090.00,0.0715
1089.00,0.0724
1088.00,0.0733
1087.00,0.0742
1086.00,0.0752
1085.00,0.0761
1084.00,0.0771
1083.00,0.0780
1082.00,0.0789
1081.00,0.0797
1080.00,0.0805
1079.00,0.0810
1078.00,0.0815
1077.00,0.0819
1076.00,0.0822
1075.00,0.0824
1074.00,0.0825
1073.00,0.0825
1072.00,0.0825
1071.00,0.0825
1070.00,0.0825
1069.00,0.0824
1068.00,0.0825
1067.00,0.0825
1066.00,0.0826
1065.00,0.0828
1064.00,0.0829
1063.00,0.0831
1062.00,0.0832
1061.00,0.0833
1060.00,0.0833
1059.00,0.0834
1058.00,0.0834
1057.00,0.0835
1056.00,0.0835
1055.00,0.0834
1054.00,0.0833
1053.00,0.0831
1052.00,0.0829
1051.00,0.0826
1050.00,0.0823
1049.00,0.0819
1048.00,0.0816
1047.00,0.0813
1046.00,0.0810
1045.00,0.0807
1044.00,0.0803
1043.00,0.0799
1042.00,0.0795
1041.00,0.0790
1040.00,0.0786
1039.00,0.0781
1038.00,0.0777
1037.00,0.0773
1036.00,0.0770
1035.00,0.0767
1034.00,0.0764
1033.00,0.0762
1032.00,0.0760
1031.00,0.0758
1030.00,0.0756
1029.00,0.0753
1028.00,0.0749
1027.00,0.0745
1026.00,0.0740
1025.00,0.0735
1024.00,0.0730
1023.00,0.0724
1022.00,0.0717
1021.00,0.0710
1020.00,0.0703
1019.00,0.0696
1018.00,0.0689
1017.00,0.0682
1016.00,0.0675
1015.00,0.0668
1014.00,0.0660
1013.00,0.0653
1012.00,0.0646
1011.00,0.0638
1010.00,0.0631
1009.00,0.0623
1008.00,0.0615
1007.00,0.0608
1006.00,0.0601
1005.00,0.0594
1004.00,0.0588
1003.00,0.0582
1002.00,0.0575
1001.00,0.0569
1000.00,0.0563
999.00,0.0557
998.00,0.0551
997.00,0.0546
996.00,0.0540
995.00,0.0534
994.00,0.0529
993.00,0.0523
992.00,0.0517
991.00,0.0512
990.00,0.0507
989.00,0.0502
988.00,0.0497
987.00,0.0493
986.00,0.0489
985.00,0.0485
984.00,0.0481
983.00,0.0479
982.00,0.0477
981.00,0.0476
980.00,0.0474
979.00,0.0474
978.00,0.0474
977.00,0.0475
976.00,0.0476
975.00,0.0478
974.00,0.0479
973.00,0.0480
972.00,0.0481
971.00,0.0481
970.00,0.0482
969.00,0.0482
968.00,0.0482
967.00,0.0482
966.00,0.0482
965.00,0.0482
964.00,0.0482
963.00,0.0482
962.00,0.0481
961.00,0.0481
960.00,0.0480
959.00,0.0479
958.00,0.0478
957.00,0.0477
956.00,0.0476
955.00,0.0476
954.00,0.0475
953.00,0.0475
952.00,0.0474
951.00,0.0474
950.00,0.0473
949.00,0.0473
948.00,0.0474
947.00,0.0474
946.00,0.0475
945.00,0.0476
944.00,0.0477
943.00,0.0479
942.00,0.0481
941.00,0.0483
940.00,0.0486
939.00,0.0489
938.00,0.0491
937.00,0.0494
936.00,0.0496
935.00,0.0497
934.00,0.0499
933.00,0.0500
932.00,0.0501
931.00,0.0502
930.00,0.0502
929.00,0.0502
928.00,0.0501
927.00,0.0500
926.00,0.0499
925.00,0.0497
924.00,0.0495
923.00,0.0493
922.00,0.0491
921.00,0.0488
920.00,0.0486
919.00,0.0484
918.00,0.0482
917.00,0.0480
916.00,0.0478
915.00,0.0476
914.00,0.0474
913.00,0.0472
912.00,0.0470
911.00,0.0469
910.00,0.0468
909.00,0.0467
908.00,0.0466
907.00,0.0465
906.00,0.0464
905.00,0.0463
904.00,0.0462
903.00,0.0461
902.00,0.0460
901.00,0.0459
900.00,0.0458
899.00,0.0458
898.00,0.0457
897.00,0.0456
896.00,0.0455
895.00,0.0454
894.00,0.0453
893.00,0.0453
892.00,0.0453
891.00,0.0453
890.00,0.0453
889.00,0.0453
888.00,0.0453
887.00,0.0454
886.00,0.0454
885.00,0.0454
884.00,0.0454
883.00,0.0454
882.00,0.0454
881.00,0.0453
880.00,0.0453
879.00,0.0452
878.00,0.0452
877.00,0.0452
876.00,0.0451
875.00,0.0451
874.00,0.0450
873.00,0.0449
872.00,0.0447
871.00,0.0446
870.00,0.0446
869.00,0.0446
868.00,0.0446
867.00,0.0447
866.00,0.0448
865.00,0.0449
864.00,0.0451
863.00,0.0453
862.00,0.0455
861.00,0.0457
860.00,0.0460
859.00,0.0463
858.00,0.0467
857.00,0.0470
856.00,0.0474
855.00,0.0477
854.00,0.0481
853.00,0.0485
852.00,0.0487
851.00,0.0489
850.00,0.0491
849.00,0.0492
848.00,0.0492
847.00,0.0493
846.00,0.0493
845.00,0.0495
844.00,0.0496
843.00,0.0499
842.00,0.0502
841.00,0.0505
840.00,0.0509
839.00,0.0513
838.00,0.0517
837.00,0.0521
836.00,0.0525
835.00,0.0530
834.00,0.0534
833.00,0.0539
832.00,0.0543
831.00,0.0547
830.00,0.0551
829.00,0.0555
828.00,0.0557
827.00,0.0560
826.00,0.0561
825.00,0.0562
824.00,0.0563
823.00,0.0563
822.00,0.0564
821.00,0.0565
820.00,0.0566
819.00,0.0568
818.00,0.0570
817.00,0.0572
816.00,0.0574
815.00,0.0577
814.00,0.0580
813.00,0.0583
812.00,0.0587
811.00,0.0590
810.00,0.0593
809.00,0.0597
808.00,0.0600
807.00,0.0604
806.00,0.0607
805.00,0.0610
804.00,0.0613
803.00,0.0617
802.00,0.0620
801.00,0.0624
800.00,0.0628
799.00,0.0633
798.00,0.0638
797.00,0.0643
796.00,0.0648
795.00,0.0654
794.00,0.0660
793.00,0.0666
792.00,0.0673
791.00,0.0680
790.00,0.0688
789.00,0.0695
788.00,0.0703
787.00,0.0710
786.00,0.0717
785.00,0.0723
784.00,0.0729
783.00,0.0734
782.00,0.0739
781.00,0.0743
780.00,0.0746
779.00,0.0750
778.00,0.0753
777.00,0.0756
776.00,0.0759
775.00,0.0762
774.00,0.0764
773.00,0.0766
772.00,0.0768
771.00,0.0771
770.00,0.0773
769.00,0.0776
768.00,0.0778
767.00,0.0780
766.00,0.0783
765.00,0.0785
764.00,0.0788
763.00,0.0790
762.00,0.0793
761.00,0.0796
760.00,0.0800
759.00,0.0805
758.00,0.0809
757.00,0.0813
756.00,0.0818
755.00,0.0823
754.00,0.0828
753.00,0.0833
752.00,0.0839
751.00,0.0846
750.00,0.0852
749.00,0.0859
748.00,0.0865
747.00,0.0871
746.00,0.0876
745.00,0.0881
744.00,0.0885
743.00,0.0890
742.00,0.0894
741.00,0.0898
740.00,0.0901
739.00,0.0905
738.00,0.0908
737.00,0.0912
736.00,0.0918
735.00,0.0924
734.00,0.0931
733.00,0.0937
732.00,0.0944
731.00,0.0952
730.00,0.0960
729.00,0.0970
728.00,0.0982
727.00,0.0994
726.00,0.1006
725.00,0.1019
724.00,0.1032
723.00,0.1044
722.00,0.1056
721.00,0.1068
720.00,0.1080
719.00,0.1092
718.00,0.1103
717.00,0.1113
716.00,0.1123
715.00,0.1133
714.00,0.1142
713.00,0.1152
712.00,0.1162
711.00,0.1172
710.00,0.1182
709.00,0.1192
708.00,0.1203
707.00,0.1215
706.00,0.1227
705.00,0.1240
704.00,0.1252
703.00,0.1264
702.00,0.1276
701.00,0.1286
700.00,0.1294
699.00,0.1301
698.00,0.1305
697.00,0.1307
696.00,0.1307
695.00,0.1306
694.00,0.1304
693.00,0.1302
692.00,0.1300
691.00,0.1299
690.00,0.1298
689.00,0.1298
688.00,0.1298
687.00,0.1300
686.00,0.1301
685.00,0.1302
684.00,0.1304
683.00,0.1306
682.00,0.1307
681.00,0.1309
680.00,0.1311
679.00,0.1314
678.00,0.1315
677.00,0.1317
676.00,0.1318
675.00,0.1320
674.00,0.1321
673.00,0.1324
672.00,0.1328
671.00,0.1332
670.00,0.1336
669.00,0.1336
668.00,0.1336
667.00,0.1337
666.00,0.1341
665.00,0.1346
664.00,0.1351
663.00,0.1355
662.00,0.1358
661.00,0.1361
660.00,0.1364
659.00,0.1367
658.00,0.1369
657.00,0.1371
656.00,0.1373
655.00,0.1375
654.00,0.1376
653.00,0.1378
652.00,0.1380
651.00,0.1382
650.00,0.1385
649.00,0.1388
648.00,0.1390
647.00,0.1393
646.00,0.1395
645.00,0.1398
644.00,0.1401
643.00,0.1405
642.00,0.1408
641.00,0.1411
640.00,0.1415
639.00,0.1419
638.00,0.1421
637.00,0.1424
636.00,0.1428
635.00,0.1433
634.00,0.1438
633.00,0.1443
632.00,0.1448
631.00,0.1451
630.00,0.1454
629.00,0.1457
628.00,0.1461
627.00,0.1465
626.00,0.1469
625.00,0.1472
624.00,0.1475
623.00,0.1477
622.00,0.1477
621.00,0.1478
620.00,0.1479
619.00,0.1480
618.00,0.1481
617.00,0.1482
616.00,0.1485
615.00,0.1487
614.00,0.1488
613.00,0.1487
612.00,0.1486
611.00,0.1486
610.00,0.1485
609.00,0.1487
608.00,0.1489
607.00,0.1491
606.00,0.1492
605.00,0.1493
604.00,0.1495
603.00,0.1497
602.00,0.1498
601.00,0.1500
600.00,0.1501
599.00,0.1503
598.00,0.1504
597.00,0.1506
596.00,0.1508
595.00,0.1510
594.00,0.1512
593.00,0.1515
592.00,0.1518
591.00,0.1521
590.00,0.1522
589.00,0.1523
588.00,0.1525
587.00,0.1527
586.00,0.1529
585.00,0.1532
584.00,0.1535
583.00,0.1539
582.00,0.1542
581.00,0.1545
580.00,0.1549
579.00,0.1553
578.00,0.1556
577.00,0.1560
576.00,0.1564
575.00,0.1568
574.00,0.1571
573.00,0.1574
572.00,0.1578
571.00,0.1582
570.00,0.1586
569.00,0.1590
568.00,0.1594
567.00,0.1598
566.00,0.1600
565.00,0.1603
564.00,0.1608
563.00,0.1614
562.00,0.1618
561.00,0.1621
560.00,0.1625
559.00,0.1628
558.00,0.1631
557.00,0.1636
556.00,0.1642
555.00,0.1647
554.00,0.1651
553.00,0.1654
552.00,0.1658
551.00,0.1662
550.00,0.1666
549.00,0.1671
548.00,0.1675
547.00,0.1679
546.00,0.1682
545.00,0.1684
544.00,0.1689
543.00,0.1694
542.00,0.1698
541.00,0.1703
540.00,0.1708
539.00,0.1711
538.00,0.1714
537.00,0.1716
536.00,0.1718
535.00,0.1720
534.00,0.1720
533.00,0.1721
532.00,0.1723
531.00,0.1727
530.00,0.1732
529.00,0.1737
528.00,0.1741
527.00,0.1741
526.00,0.1740
525.00,0.1739
524.00,0.1743
523.00,0.1748
522.00,0.1754
521.00,0.1760
520.00,0.1766
519.00,0.1771
518.00,0.1773
517.00,0.1775
516.00,0.1779
515.00,0.1782
514.00,0.1783
513.00,0.1784
512.00,0.1785
511.00,0.1787
510.00,0.1787
509.00,0.1788
508.00,0.1789
507.00,0.1791
506.00,0.1792
505.00,0.1794
504.00,0.1797
503.00,0.1798
502.00,0.1796
501.00,0.1795
500.00,0.1796
499.00,0.1799
498.00,0.1800
497.00,0.1801
496.00,0.1804
495.00,0.1806
494.00,0.1805
493.00,0.1803
492.00,0.1802
491.00,0.1803
490.00,0.1804
489.00,0.1807
488.00,0.1810
487.00,0.1812
486.00,0.1811
485.00,0.1810
484.00,0.1810
483.00,0.1809
482.00,0.1807
481.00,0.1806
480.00,0.1808
479.00,0.1812
478.00,0.1814
477.00,0.1814
476.00,0.1813
475.00,0.1812
474.00,0.1810
473.00,0.1809
472.00,0.1811
471.00,0.1813
470.00,0.1813
469.00,0.1814
468.00,0.1815
467.00,0.1812
466.00,0.1809
465.00,0.1808
464.00,0.1812
463.00,0.1816
462.00,0.1816
461.00,0.1814
460.00,0.1812
459.00,0.1810
458.00,0.1805
457.00,0.1802
456.00,0.1802
455.00,0.1802
454.00,0.1800
453.00,0.1800
452.00,0.1801
451.00,0.1800
450.00,0.1794
449.00,0.1787
448.00,0.1784
447.00,0.1785
446.00,0.1784
445.00,0.1780
444.00,0.1775
443.00,0.1768
442.00,0.1762
441.00,0.1759
440.00,0.1759
439.00,0.1758
438.00,0.1751
437.00,0.1743
436.00,0.1737
435.00,0.1732
434.00,0.1726
433.00,0.1723
432.00,0.1723
431.00,0.1725
430.00,0.1725
429.00,0.1727
428.00,0.1729
427.00,0.1729
426.00,0.1722
425.00,0.1713
424.00,0.1706
423.00,0.1702
422.00,0.1695
421.00,0.1687
420.00,0.1683
419.00,0.1686
418.00,0.1692
417.00,0.1701
416.00,0.1710
415.00,0.1712
414.00,0.1704
413.00,0.1694
412.00,0.1689
411.00,0.1690
410.00,0.1695
409.00,0.1706
408.00,0.1717
407.00,0.1720
406.00,0.1710
405.00,0.1699
404.00,0.1694
403.00,0.1690
402.00,0.1678
401.00,0.1660
400.00,0.1641
