Created as New Dataset,Sample 677 By YargerLab Date Thursday, June 12 2025
cm-1,A
4000.00,0.0064
3999.00,0.0064
3998.00,0.0064
3997.00,0.0064
3996.00,0.0065
3995.00,0.0065
3994.00,0.0065
3993.00,0.0065
3992.00,0.0065
3991.00,0.0065
3990.00,0.0065
3989.00,0.0065
3988.00,0.0065
3987.00,0.0065
3986.00,0.0065
3985.00,0.0065
3984.00,0.0064
3983.00,0.0064
3982.00,0.0064
3981.00,0.0064
3980.00,0.0064
3979.00,0.0064
3978.00,0.0064
3977.00,0.0064
3976.00,0.0064
3975.00,0.0064
3974.00,0.0064
3973.00,0.0064
3972.00,0.0064
3971.00,0.0064
3970.00,0.0064
3969.00,0.0064
3968.00,0.0064
3967.00,0.0064
3966.00,0.0065
3965.00,0.0065
3964.00,0.0065
3963.00,0.0065
3962.00,0.0065
3961.00,0.0065
3960.00,0.0065
3959.00,0.0065
3958.00,0.0065
3957.00,0.0065
3956.00,0.0065
3955.00,0.0065
3954.00,0.0065
3953.00,0.0065
3952.00,0.0064
3951.00,0.0064
3950.00,0.0064
3949.00,0.0064
3948.00,0.0065
3947.00,0.0065
3946.00,0.0065
3945.00,0.0065
3944.00,0.0065
3943.00,0.0065
3942.00,0.0065
3941.00,0.0065
3940.00,0.0065
3939.00,0.0065
3938.00,0.0065
3937.00,0.0065
3936.00,0.0065
3935.00,0.0065
3934.00,0.0065
3933.00,0.0065
3932.00,0.0064
3931.00,0.0064
3930.00,0.0064
3929.00,0.0064
3928.00,0.0064
3927.00,0.0065
3926.00,0.0065
3925.00,0.0065
3924.00,0.0065
3923.00,0.0065
3922.00,0.0065
3921.00,0.0064
3920.00,0.0064
3919.00,0.0064
3918.00,0.0064
3917.00,0.0064
3916.00,0.0064
3915.00,0.0064
3914.00,0.0064
3913.00,0.0064
3912.00,0.0064
3911.00,0.0064
3910.00,0.0064
3909.00,0.0064
3908.00,0.0064
3907.00,0.0064
3906.00,0.0064
3905.00,0.0065
3904.00,0.0065
3903.00,0.0064
3902.00,0.0064
3901.00,0.0064
3900.00,0.0064
3899.00,0.0064
3898.00,0.0064
3897.00,0.0064
3896.00,0.0064
3895.00,0.0064
3894.00,0.0064
3893.00,0.0064
3892.00,0.0064
3891.00,0.0064
3890.00,0.0064
3889.00,0.0064
3888.00,0.0064
3887.00,0.0064
3886.00,0.0064
3885.00,0.0064
3884.00,0.0064
3883.00,0.0064
3882.00,0.0064
3881.00,0.0064
3880.00,0.0064
3879.00,0.0064
3878.00,0.0063
3877.00,0.0063
3876.00,0.0063
3875.00,0.0063
3874.00,0.0063
3873.00,0.0064
3872.00,0.0064
3871.00,0.0064
3870.00,0.0064
3869.00,0.0064
3868.00,0.0063
3867.00,0.0063
3866.00,0.0063
3865.00,0.0063
3864.00,0.0063
3863.00,0.0063
3862.00,0.0063
3861.00,0.0063
3860.00,0.0064
3859.00,0.0064
3858.00,0.0064
3857.00,0.0063
3856.00,0.0063
3855.00,0.0063
3854.00,0.0063
3853.00,0.0063
3852.00,0.0062
3851.00,0.0062
3850.00,0.0062
3849.00,0.0062
3848.00,0.0062
3847.00,0.0063
3846.00,0.0063
3845.00,0.0063
3844.00,0.0063
3843.00,0.0063
3842.00,0.0063
3841.00,0.0063
3840.00,0.0063
3839.00,0.0063
3838.00,0.0063
3837.00,0.0063
3836.00,0.0063
3835.00,0.0063
3834.00,0.0063
3833.00,0.0063
3832.00,0.0063
3831.00,0.0063
3830.00,0.0063
3829.00,0.0063
3828.00,0.0063
3827.00,0.0063
3826.00,0.0063
3825.00,0.0063
3824.00,0.0063
3823.00,0.0063
3822.00,0.0064
3821.00,0.0064
3820.00,0.0064
3819.00,0.0064
3818.00,0.0064
3817.00,0.0064
3816.00,0.0064
3815.00,0.0064
3814.00,0.0063
3813.00,0.0063
3812.00,0.0063
3811.00,0.0064
3810.00,0.0064
3809.00,0.0063
3808.00,0.0064
3807.00,0.0064
3806.00,0.0064
3805.00,0.0064
3804.00,0.0064
3803.00,0.0064
3802.00,0.0064
3801.00,0.0064
3800.00,0.0064
3799.00,0.0064
3798.00,0.0064
3797.00,0.0064
3796.00,0.0064
3795.00,0.0064
3794.00,0.0064
3793.00,0.0064
3792.00,0.0064
3791.00,0.0064
3790.00,0.0064
3789.00,0.0064
3788.00,0.0064
3787.00,0.0064
3786.00,0.0063
3785.00,0.0064
3784.00,0.0064
3783.00,0.0064
3782.00,0.0064
3781.00,0.0064
3780.00,0.0064
3779.00,0.0064
3778.00,0.0064
3777.00,0.0064
3776.00,0.0064
3775.00,0.0064
3774.00,0.0063
3773.00,0.0063
3772.00,0.0063
3771.00,0.0064
3770.00,0.0064
3769.00,0.0064
3768.00,0.0064
3767.00,0.0064
3766.00,0.0064
3765.00,0.0063
3764.00,0.0063
3763.00,0.0063
3762.00,0.0063
3761.00,0.0063
3760.00,0.0063
3759.00,0.0063
3758.00,0.0064
3757.00,0.0064
3756.00,0.0064
3755.00,0.0064
3754.00,0.0064
3753.00,0.0064
3752.00,0.0064
3751.00,0.0063
3750.00,0.0063
3749.00,0.0063
3748.00,0.0063
3747.00,0.0063
3746.00,0.0062
3745.00,0.0062
3744.00,0.0062
3743.00,0.0062
3742.00,0.0062
3741.00,0.0062
3740.00,0.0062
3739.00,0.0062
3738.00,0.0062
3737.00,0.0062
3736.00,0.0062
3735.00,0.0062
3734.00,0.0062
3733.00,0.0062
3732.00,0.0062
3731.00,0.0062
3730.00,0.0062
3729.00,0.0062
3728.00,0.0062
3727.00,0.0062
3726.00,0.0062
3725.00,0.0062
3724.00,0.0062
3723.00,0.0062
3722.00,0.0062
3721.00,0.0062
3720.00,0.0062
3719.00,0.0062
3718.00,0.0062
3717.00,0.0062
3716.00,0.0062
3715.00,0.0062
3714.00,0.0062
3713.00,0.0062
3712.00,0.0062
3711.00,0.0062
3710.00,0.0061
3709.00,0.0061
3708.00,0.0061
3707.00,0.0061
3706.00,0.0060
3705.00,0.0060
3704.00,0.0061
3703.00,0.0061
3702.00,0.0061
3701.00,0.0061
3700.00,0.0061
3699.00,0.0061
3698.00,0.0061
3697.00,0.0061
3696.00,0.0061
3695.00,0.0061
3694.00,0.0061
3693.00,0.0061
3692.00,0.0061
3691.00,0.0061
3690.00,0.0061
3689.00,0.0060
3688.00,0.0060
3687.00,0.0059
3686.00,0.0059
3685.00,0.0060
3684.00,0.0060
3683.00,0.0061
3682.00,0.0061
3681.00,0.0062
3680.00,0.0062
3679.00,0.0062
3678.00,0.0061
3677.00,0.0061
3676.00,0.0061
3675.00,0.0060
3674.00,0.0060
3673.00,0.0060
3672.00,0.0059
3671.00,0.0059
3670.00,0.0059
3669.00,0.0059
3668.00,0.0059
3667.00,0.0059
3666.00,0.0059
3665.00,0.0059
3664.00,0.0059
3663.00,0.0059
3662.00,0.0059
3661.00,0.0059
3660.00,0.0059
3659.00,0.0059
3658.00,0.0059
3657.00,0.0059
3656.00,0.0059
3655.00,0.0060
3654.00,0.0060
3653.00,0.0060
3652.00,0.0061
3651.00,0.0061
3650.00,0.0062
3649.00,0.0062
3648.00,0.0061
3647.00,0.0061
3646.00,0.0061
3645.00,0.0061
3644.00,0.0062
3643.00,0.0062
3642.00,0.0062
3641.00,0.0062
3640.00,0.0062
3639.00,0.0062
3638.00,0.0061
3637.00,0.0061
3636.00,0.0062
3635.00,0.0063
3634.00,0.0063
3633.00,0.0064
3632.00,0.0064
3631.00,0.0064
3630.00,0.0064
3629.00,0.0064
3628.00,0.0064
3627.00,0.0064
3626.00,0.0064
3625.00,0.0064
3624.00,0.0065
3623.00,0.0065
3622.00,0.0065
3621.00,0.0065
3620.00,0.0065
3619.00,0.0065
3618.00,0.0065
3617.00,0.0065
3616.00,0.0065
3615.00,0.0065
3614.00,0.0066
3613.00,0.0066
3612.00,0.0066
3611.00,0.0067
3610.00,0.0067
3609.00,0.0066
3608.00,0.0066
3607.00,0.0066
3606.00,0.0066
3605.00,0.0066
3604.00,0.0066
3603.00,0.0067
3602.00,0.0067
3601.00,0.0066
3600.00,0.0066
3599.00,0.0067
3598.00,0.0067
3597.00,0.0068
3596.00,0.0068
3595.00,0.0068
3594.00,0.0068
3593.00,0.0068
3592.00,0.0068
3591.00,0.0068
3590.00,0.0069
3589.00,0.0069
3588.00,0.0069
3587.00,0.0069
3586.00,0.0069
3585.00,0.0070
3584.00,0.0070
3583.00,0.0071
3582.00,0.0071
3581.00,0.0071
3580.00,0.0071
3579.00,0.0071
3578.00,0.0071
3577.00,0.0071
3576.00,0.0072
3575.00,0.0072
3574.00,0.0073
3573.00,0.0073
3572.00,0.0073
3571.00,0.0073
3570.00,0.0074
3569.00,0.0074
3568.00,0.0074
3567.00,0.0074
3566.00,0.0074
3565.00,0.0074
3564.00,0.0074
3563.00,0.0074
3562.00,0.0074
3561.00,0.0075
3560.00,0.0075
3559.00,0.0075
3558.00,0.0076
3557.00,0.0076
3556.00,0.0076
3555.00,0.0076
3554.00,0.0076
3553.00,0.0076
3552.00,0.0076
3551.00,0.0077
3550.00,0.0077
3549.00,0.0077
3548.00,0.0077
3547.00,0.0077
3546.00,0.0077
3545.00,0.0077
3544.00,0.0077
3543.00,0.0077
3542.00,0.0077
3541.00,0.0077
3540.00,0.0077
3539.00,0.0077
3538.00,0.0078
3537.00,0.0078
3536.00,0.0078
3535.00,0.0078
3534.00,0.0078
3533.00,0.0078
3532.00,0.0078
3531.00,0.0078
3530.00,0.0078
3529.00,0.0078
3528.00,0.0078
3527.00,0.0078
3526.00,0.0078
3525.00,0.0078
3524.00,0.0078
3523.00,0.0078
3522.00,0.0078
3521.00,0.0078
3520.00,0.0078
3519.00,0.0078
3518.00,0.0078
3517.00,0.0078
3516.00,0.0078
3515.00,0.0078
3514.00,0.0078
3513.00,0.0078
3512.00,0.0078
3511.00,0.0078
3510.00,0.0078
3509.00,0.0078
3508.00,0.0078
3507.00,0.0078
3506.00,0.0078
3505.00,0.0078
3504.00,0.0079
3503.00,0.0079
3502.00,0.0079
3501.00,0.0079
3500.00,0.0079
3499.00,0.0079
3498.00,0.0079
3497.00,0.0079
3496.00,0.0079
3495.00,0.0079
3494.00,0.0079
3493.00,0.0078
3492.00,0.0078
3491.00,0.0078
3490.00,0.0078
3489.00,0.0078
3488.00,0.0078
3487.00,0.0078
3486.00,0.0078
3485.00,0.0078
3484.00,0.0078
3483.00,0.0078
3482.00,0.0078
3481.00,0.0078
3480.00,0.0078
3479.00,0.0078
3478.00,0.0078
3477.00,0.0078
3476.00,0.0078
3475.00,0.0078
3474.00,0.0078
3473.00,0.0078
3472.00,0.0078
3471.00,0.0078
3470.00,0.0078
3469.00,0.0078
3468.00,0.0078
3467.00,0.0078
3466.00,0.0078
3465.00,0.0078
3464.00,0.0078
3463.00,0.0078
3462.00,0.0079
3461.00,0.0079
3460.00,0.0079
3459.00,0.0079
3458.00,0.0079
3457.00,0.0079
3456.00,0.0080
3455.00,0.0080
3454.00,0.0080
3453.00,0.0081
3452.00,0.0082
3451.00,0.0082
3450.00,0.0083
3449.00,0.0083
3448.00,0.0084
3447.00,0.0084
3446.00,0.0085
3445.00,0.0085
3444.00,0.0086
3443.00,0.0086
3442.00,0.0087
3441.00,0.0088
3440.00,0.0088
3439.00,0.0089
3438.00,0.0090
3437.00,0.0091
3436.00,0.0092
3435.00,0.0093
3434.00,0.0094
3433.00,0.0095
3432.00,0.0096
3431.00,0.0097
3430.00,0.0099
3429.00,0.0100
3428.00,0.0101
3427.00,0.0102
3426.00,0.0103
3425.00,0.0104
3424.00,0.0105
3423.00,0.0106
3422.00,0.0107
3421.00,0.0108
3420.00,0.0109
3419.00,0.0109
3418.00,0.0110
3417.00,0.0111
3416.00,0.0111
3415.00,0.0111
3414.00,0.0111
3413.00,0.0112
3412.00,0.0112
3411.00,0.0112
3410.00,0.0113
3409.00,0.0113
3408.00,0.0114
3407.00,0.0114
3406.00,0.0115
3405.00,0.0116
3404.00,0.0116
3403.00,0.0116
3402.00,0.0117
3401.00,0.0117
3400.00,0.0118
3399.00,0.0120
3398.00,0.0121
3397.00,0.0123
3396.00,0.0124
3395.00,0.0126
3394.00,0.0127
3393.00,0.0128
3392.00,0.0130
3391.00,0.0131
3390.00,0.0134
3389.00,0.0136
3388.00,0.0139
3387.00,0.0142
3386.00,0.0144
3385.00,0.0147
3384.00,0.0150
3383.00,0.0152
3382.00,0.0155
3381.00,0.0158
3380.00,0.0161
3379.00,0.0165
3378.00,0.0168
3377.00,0.0171
3376.00,0.0175
3375.00,0.0179
3374.00,0.0183
3373.00,0.0187
3372.00,0.0192
3371.00,0.0196
3370.00,0.0200
3369.00,0.0205
3368.00,0.0210
3367.00,0.0215
3366.00,0.0220
3365.00,0.0226
3364.00,0.0232
3363.00,0.0238
3362.00,0.0243
3361.00,0.0249
3360.00,0.0254
3359.00,0.0260
3358.00,0.0265
3357.00,0.0271
3356.00,0.0277
3355.00,0.0282
3354.00,0.0287
3353.00,0.0292
3352.00,0.0296
3351.00,0.0301
3350.00,0.0305
3349.00,0.0309
3348.00,0.0314
3347.00,0.0318
3346.00,0.0322
3345.00,0.0325
3344.00,0.0329
3343.00,0.0331
3342.00,0.0334
3341.00,0.0336
3340.00,0.0338
3339.00,0.0339
3338.00,0.0341
3337.00,0.0342
3336.00,0.0343
3335.00,0.0343
3334.00,0.0343
3333.00,0.0343
3332.00,0.0342
3331.00,0.0342
3330.00,0.0341
3329.00,0.0339
3328.00,0.0338
3327.00,0.0336
3326.00,0.0335
3325.00,0.0333
3324.00,0.0331
3323.00,0.0329
3322.00,0.0327
3321.00,0.0324
3320.00,0.0322
3319.00,0.0319
3318.00,0.0317
3317.00,0.0314
3316.00,0.0311
3315.00,0.0308
3314.00,0.0305
3313.00,0.0301
3312.00,0.0298
3311.00,0.0294
3310.00,0.0290
3309.00,0.0287
3308.00,0.0283
3307.00,0.0278
3306.00,0.0274
3305.00,0.0270
3304.00,0.0266
3303.00,0.0262
3302.00,0.0259
3301.00,0.0255
3300.00,0.0251
3299.00,0.0246
3298.00,0.0242
3297.00,0.0238
3296.00,0.0234
3295.00,0.0231
3294.00,0.0227
3293.00,0.0224
3292.00,0.0220
3291.00,0.0217
3290.00,0.0214
3289.00,0.0211
3288.00,0.0208
3287.00,0.0205
3286.00,0.0202
3285.00,0.0199
3284.00,0.0197
3283.00,0.0194
3282.00,0.0191
3281.00,0.0189
3280.00,0.0186
3279.00,0.0184
3278.00,0.0182
3277.00,0.0180
3276.00,0.0178
3275.00,0.0176
3274.00,0.0174
3273.00,0.0173
3272.00,0.0171
3271.00,0.0170
3270.00,0.0169
3269.00,0.0167
3268.00,0.0166
3267.00,0.0165
3266.00,0.0164
3265.00,0.0164
3264.00,0.0163
3263.00,0.0163
3262.00,0.0162
3261.00,0.0162
3260.00,0.0162
3259.00,0.0161
3258.00,0.0161
3257.00,0.0160
3256.00,0.0159
3255.00,0.0159
3254.00,0.0158
3253.00,0.0158
3252.00,0.0158
3251.00,0.0158
3250.00,0.0158
3249.00,0.0158
3248.00,0.0157
3247.00,0.0157
3246.00,0.0157
3245.00,0.0156
3244.00,0.0156
3243.00,0.0156
3242.00,0.0155
3241.00,0.0155
3240.00,0.0154
3239.00,0.0154
3238.00,0.0153
3237.00,0.0152
3236.00,0.0152
3235.00,0.0151
3234.00,0.0150
3233.00,0.0149
3232.00,0.0148
3231.00,0.0147
3230.00,0.0146
3229.00,0.0145
3228.00,0.0143
3227.00,0.0142
3226.00,0.0141
3225.00,0.0139
3224.00,0.0138
3223.00,0.0137
3222.00,0.0136
3221.00,0.0134
3220.00,0.0133
3219.00,0.0132
3218.00,0.0130
3217.00,0.0129
3216.00,0.0128
3215.00,0.0126
3214.00,0.0125
3213.00,0.0124
3212.00,0.0123
3211.00,0.0121
3210.00,0.0120
3209.00,0.0119
3208.00,0.0118
3207.00,0.0117
3206.00,0.0116
3205.00,0.0115
3204.00,0.0114
3203.00,0.0113
3202.00,0.0113
3201.00,0.0112
3200.00,0.0111
3199.00,0.0110
3198.00,0.0109
3197.00,0.0108
3196.00,0.0108
3195.00,0.0107
3194.00,0.0106
3193.00,0.0106
3192.00,0.0105
3191.00,0.0105
3190.00,0.0104
3189.00,0.0104
3188.00,0.0103
3187.00,0.0103
3186.00,0.0102
3185.00,0.0102
3184.00,0.0102
3183.00,0.0101
3182.00,0.0101
3181.00,0.0100
3180.00,0.0100
3179.00,0.0099
3178.00,0.0099
3177.00,0.0099
3176.00,0.0099
3175.00,0.0099
3174.00,0.0098
3173.00,0.0098
3172.00,0.0097
3171.00,0.0097
3170.00,0.0097
3169.00,0.0097
3168.00,0.0097
3167.00,0.0097
3166.00,0.0097
3165.00,0.0096
3164.00,0.0096
3163.00,0.0096
3162.00,0.0096
3161.00,0.0096
3160.00,0.0096
3159.00,0.0096
3158.00,0.0096
3157.00,0.0096
3156.00,0.0096
3155.00,0.0096
3154.00,0.0096
3153.00,0.0095
3152.00,0.0095
3151.00,0.0095
3150.00,0.0095
3149.00,0.0095
3148.00,0.0096
3147.00,0.0096
3146.00,0.0096
3145.00,0.0097
3144.00,0.0097
3143.00,0.0097
3142.00,0.0097
3141.00,0.0097
3140.00,0.0097
3139.00,0.0098
3138.00,0.0098
3137.00,0.0099
3136.00,0.0099
3135.00,0.0099
3134.00,0.0100
3133.00,0.0100
3132.00,0.0101
3131.00,0.0101
3130.00,0.0102
3129.00,0.0103
3128.00,0.0104
3127.00,0.0105
3126.00,0.0106
3125.00,0.0107
3124.00,0.0108
3123.00,0.0109
3122.00,0.0110
3121.00,0.0111
3120.00,0.0112
3119.00,0.0113
3118.00,0.0115
3117.00,0.0116
3116.00,0.0117
3115.00,0.0119
3114.00,0.0120
3113.00,0.0121
3112.00,0.0123
3111.00,0.0124
3110.00,0.0125
3109.00,0.0126
3108.00,0.0127
3107.00,0.0127
3106.00,0.0128
3105.00,0.0128
3104.00,0.0129
3103.00,0.0129
3102.00,0.0129
3101.00,0.0129
3100.00,0.0129
3099.00,0.0129
3098.00,0.0129
3097.00,0.0128
3096.00,0.0128
3095.00,0.0127
3094.00,0.0126
3093.00,0.0125
3092.00,0.0124
3091.00,0.0123
3090.00,0.0122
3089.00,0.0121
3088.00,0.0120
3087.00,0.0119
3086.00,0.0118
3085.00,0.0117
3084.00,0.0116
3083.00,0.0116
3082.00,0.0115
3081.00,0.0114
3080.00,0.0113
3079.00,0.0112
3078.00,0.0112
3077.00,0.0111
3076.00,0.0110
3075.00,0.0110
3074.00,0.0110
3073.00,0.0109
3072.00,0.0109
3071.00,0.0109
3070.00,0.0109
3069.00,0.0109
3068.00,0.0109
3067.00,0.0109
3066.00,0.0109
3065.00,0.0109
3064.00,0.0109
3063.00,0.0109
3062.00,0.0109
3061.00,0.0109
3060.00,0.0108
3059.00,0.0108
3058.00,0.0107
3057.00,0.0106
3056.00,0.0105
3055.00,0.0104
3054.00,0.0103
3053.00,0.0102
3052.00,0.0101
3051.00,0.0100
3050.00,0.0099
3049.00,0.0098
3048.00,0.0098
3047.00,0.0097
3046.00,0.0096
3045.00,0.0096
3044.00,0.0096
3043.00,0.0096
3042.00,0.0096
3041.00,0.0096
3040.00,0.0096
3039.00,0.0096
3038.00,0.0096
3037.00,0.0097
3036.00,0.0097
3035.00,0.0097
3034.00,0.0098
3033.00,0.0098
3032.00,0.0099
3031.00,0.0100
3030.00,0.0101
3029.00,0.0102
3028.00,0.0102
3027.00,0.0103
3026.00,0.0104
3025.00,0.0105
3024.00,0.0106
3023.00,0.0107
3022.00,0.0108
3021.00,0.0109
3020.00,0.0109
3019.00,0.0110
3018.00,0.0111
3017.00,0.0112
3016.00,0.0113
3015.00,0.0114
3014.00,0.0115
3013.00,0.0116
3012.00,0.0117
3011.00,0.0118
3010.00,0.0120
3009.00,0.0122
3008.00,0.0124
3007.00,0.0126
3006.00,0.0128
3005.00,0.0130
3004.00,0.0132
3003.00,0.0134
3002.00,0.0137
3001.00,0.0140
3000.00,0.0143
2999.00,0.0146
2998.00,0.0149
2997.00,0.0152
2996.00,0.0156
2995.00,0.0159
2994.00,0.0163
2993.00,0.0166
2992.00,0.0169
2991.00,0.0172
2990.00,0.0175
2989.00,0.0177
2988.00,0.0179
2987.00,0.0180
2986.00,0.0179
2985.00,0.0178
2984.00,0.0175
2983.00,0.0172
2982.00,0.0170
2981.00,0.0168
2980.00,0.0169
2979.00,0.0170
2978.00,0.0171
2977.00,0.0171
2976.00,0.0170
2975.00,0.0167
2974.00,0.0163
2973.00,0.0158
2972.00,0.0154
2971.00,0.0151
2970.00,0.0148
2969.00,0.0147
2968.00,0.0146
2967.00,0.0145
2966.00,0.0145
2965.00,0.0145
2964.00,0.0146
2963.00,0.0148
2962.00,0.0150
2961.00,0.0153
2960.00,0.0156
2959.00,0.0160
2958.00,0.0164
2957.00,0.0168
2956.00,0.0173
2955.00,0.0178
2954.00,0.0183
2953.00,0.0187
2952.00,0.0192
2951.00,0.0196
2950.00,0.0199
2949.00,0.0201
2948.00,0.0202
2947.00,0.0201
2946.00,0.0200
2945.00,0.0197
2944.00,0.0195
2943.00,0.0192
2942.00,0.0188
2941.00,0.0185
2940.00,0.0182
2939.00,0.0179
2938.00,0.0177
2937.00,0.0175
2936.00,0.0174
2935.00,0.0172
2934.00,0.0171
2933.00,0.0169
2932.00,0.0167
2931.00,0.0166
2930.00,0.0164
2929.00,0.0162
2928.00,0.0160
2927.00,0.0158
2926.00,0.0156
2925.00,0.0154
2924.00,0.0151
2923.00,0.0149
2922.00,0.0146
2921.00,0.0144
2920.00,0.0142
2919.00,0.0140
2918.00,0.0138
2917.00,0.0137
2916.00,0.0136
2915.00,0.0135
2914.00,0.0134
2913.00,0.0134
2912.00,0.0133
2911.00,0.0134
2910.00,0.0134
2909.00,0.0134
2908.00,0.0135
2907.00,0.0136
2906.00,0.0136
2905.00,0.0136
2904.00,0.0137
2903.00,0.0136
2902.00,0.0135
2901.00,0.0135
2900.00,0.0133
2899.00,0.0132
2898.00,0.0130
2897.00,0.0128
2896.00,0.0126
2895.00,0.0123
2894.00,0.0121
2893.00,0.0119
2892.00,0.0117
2891.00,0.0115
2890.00,0.0113
2889.00,0.0112
2888.00,0.0110
2887.00,0.0109
2886.00,0.0108
2885.00,0.0107
2884.00,0.0106
2883.00,0.0106
2882.00,0.0106
2881.00,0.0106
2880.00,0.0106
2879.00,0.0106
2878.00,0.0106
2877.00,0.0107
2876.00,0.0107
2875.00,0.0107
2874.00,0.0107
2873.00,0.0107
2872.00,0.0107
2871.00,0.0107
2870.00,0.0107
2869.00,0.0107
2868.00,0.0106
2867.00,0.0106
2866.00,0.0105
2865.00,0.0105
2864.00,0.0104
2863.00,0.0104
2862.00,0.0103
2861.00,0.0103
2860.00,0.0103
2859.00,0.0103
2858.00,0.0103
2857.00,0.0103
2856.00,0.0104
2855.00,0.0104
2854.00,0.0105
2853.00,0.0106
2852.00,0.0107
2851.00,0.0107
2850.00,0.0108
2849.00,0.0108
2848.00,0.0109
2847.00,0.0109
2846.00,0.0110
2845.00,0.0110
2844.00,0.0110
2843.00,0.0110
2842.00,0.0110
2841.00,0.0110
2840.00,0.0110
2839.00,0.0110
2838.00,0.0109
2837.00,0.0109
2836.00,0.0108
2835.00,0.0106
2834.00,0.0105
2833.00,0.0104
2832.00,0.0103
2831.00,0.0102
2830.00,0.0101
2829.00,0.0100
2828.00,0.0099
2827.00,0.0099
2826.00,0.0099
2825.00,0.0099
2824.00,0.0098
2823.00,0.0098
2822.00,0.0098
2821.00,0.0098
2820.00,0.0098
2819.00,0.0098
2818.00,0.0098
2817.00,0.0098
2816.00,0.0098
2815.00,0.0098
2814.00,0.0098
2813.00,0.0098
2812.00,0.0098
2811.00,0.0098
2810.00,0.0097
2809.00,0.0097
2808.00,0.0097
2807.00,0.0097
2806.00,0.0097
2805.00,0.0097
2804.00,0.0097
2803.00,0.0096
2802.00,0.0096
2801.00,0.0095
2800.00,0.0095
2799.00,0.0095
2798.00,0.0094
2797.00,0.0094
2796.00,0.0094
2795.00,0.0093
2794.00,0.0093
2793.00,0.0093
2792.00,0.0092
2791.00,0.0092
2790.00,0.0091
2789.00,0.0091
2788.00,0.0090
2787.00,0.0090
2786.00,0.0090
2785.00,0.0089
2784.00,0.0089
2783.00,0.0089
2782.00,0.0088
2781.00,0.0088
2780.00,0.0087
2779.00,0.0087
2778.00,0.0087
2777.00,0.0087
2776.00,0.0087
2775.00,0.0086
2774.00,0.0086
2773.00,0.0086
2772.00,0.0086
2771.00,0.0085
2770.00,0.0085
2769.00,0.0085
2768.00,0.0085
2767.00,0.0085
2766.00,0.0084
2765.00,0.0084
2764.00,0.0084
2763.00,0.0084
2762.00,0.0084
2761.00,0.0084
2760.00,0.0084
2759.00,0.0084
2758.00,0.0084
2757.00,0.0084
2756.00,0.0083
2755.00,0.0083
2754.00,0.0084
2753.00,0.0084
2752.00,0.0084
2751.00,0.0084
2750.00,0.0084
2749.00,0.0084
2748.00,0.0084
2747.00,0.0084
2746.00,0.0084
2745.00,0.0084
2744.00,0.0084
2743.00,0.0084
2742.00,0.0084
2741.00,0.0084
2740.00,0.0084
2739.00,0.0083
2738.00,0.0083
2737.00,0.0083
2736.00,0.0082
2735.00,0.0082
2734.00,0.0082
2733.00,0.0082
2732.00,0.0081
2731.00,0.0081
2730.00,0.0081
2729.00,0.0081
2728.00,0.0081
2727.00,0.0081
2726.00,0.0080
2725.00,0.0080
2724.00,0.0080
2723.00,0.0080
2722.00,0.0080
2721.00,0.0080
2720.00,0.0080
2719.00,0.0080
2718.00,0.0080
2717.00,0.0080
2716.00,0.0080
2715.00,0.0080
2714.00,0.0080
2713.00,0.0080
2712.00,0.0080
2711.00,0.0080
2710.00,0.0080
2709.00,0.0080
2708.00,0.0080
2707.00,0.0080
2706.00,0.0080
2705.00,0.0080
2704.00,0.0080
2703.00,0.0080
2702.00,0.0080
2701.00,0.0080
2700.00,0.0080
2699.00,0.0080
2698.00,0.0080
2697.00,0.0080
2696.00,0.0080
2695.00,0.0080
2694.00,0.0080
2693.00,0.0080
2692.00,0.0079
2691.00,0.0079
2690.00,0.0079
2689.00,0.0079
2688.00,0.0079
2687.00,0.0079
2686.00,0.0079
2685.00,0.0079
2684.00,0.0078
2683.00,0.0078
2682.00,0.0078
2681.00,0.0078
2680.00,0.0078
2679.00,0.0078
2678.00,0.0078
2677.00,0.0078
2676.00,0.0078
2675.00,0.0078
2674.00,0.0078
2673.00,0.0078
2672.00,0.0078
2671.00,0.0078
2670.00,0.0078
2669.00,0.0078
2668.00,0.0078
2667.00,0.0079
2666.00,0.0079
2665.00,0.0080
2664.00,0.0080
2663.00,0.0081
2662.00,0.0081
2661.00,0.0081
2660.00,0.0082
2659.00,0.0082
2658.00,0.0082
2657.00,0.0082
2656.00,0.0082
2655.00,0.0082
2654.00,0.0083
2653.00,0.0083
2652.00,0.0083
2651.00,0.0083
2650.00,0.0083
2649.00,0.0083
2648.00,0.0083
2647.00,0.0083
2646.00,0.0083
2645.00,0.0083
2644.00,0.0083
2643.00,0.0083
2642.00,0.0083
2641.00,0.0083
2640.00,0.0083
2639.00,0.0083
2638.00,0.0083
2637.00,0.0083
2636.00,0.0083
2635.00,0.0083
2634.00,0.0083
2633.00,0.0083
2632.00,0.0083
2631.00,0.0083
2630.00,0.0083
2629.00,0.0083
2628.00,0.0083
2627.00,0.0083
2626.00,0.0083
2625.00,0.0084
2624.00,0.0084
2623.00,0.0084
2622.00,0.0084
2621.00,0.0083
2620.00,0.0083
2619.00,0.0083
2618.00,0.0083
2617.00,0.0083
2616.00,0.0083
2615.00,0.0083
2614.00,0.0083
2613.00,0.0083
2612.00,0.0083
2611.00,0.0083
2610.00,0.0083
2609.00,0.0083
2608.00,0.0083
2607.00,0.0083
2606.00,0.0083
2605.00,0.0083
2604.00,0.0083
2603.00,0.0083
2602.00,0.0083
2601.00,0.0083
2600.00,0.0082
2599.00,0.0082
2598.00,0.0082
2597.00,0.0081
2596.00,0.0081
2595.00,0.0081
2594.00,0.0081
2593.00,0.0081
2592.00,0.0080
2591.00,0.0080
2590.00,0.0080
2589.00,0.0079
2588.00,0.0079
2587.00,0.0079
2586.00,0.0079
2585.00,0.0078
2584.00,0.0078
2583.00,0.0078
2582.00,0.0078
2581.00,0.0078
2580.00,0.0078
2579.00,0.0078
2578.00,0.0077
2577.00,0.0077
2576.00,0.0077
2575.00,0.0077
2574.00,0.0077
2573.00,0.0077
2572.00,0.0078
2571.00,0.0078
2570.00,0.0077
2569.00,0.0077
2568.00,0.0077
2567.00,0.0077
2566.00,0.0077
2565.00,0.0077
2564.00,0.0077
2563.00,0.0077
2562.00,0.0076
2561.00,0.0076
2560.00,0.0076
2559.00,0.0076
2558.00,0.0076
2557.00,0.0075
2556.00,0.0076
2555.00,0.0076
2554.00,0.0076
2553.00,0.0076
2552.00,0.0076
2551.00,0.0076
2550.00,0.0076
2549.00,0.0076
2548.00,0.0076
2547.00,0.0076
2546.00,0.0076
2545.00,0.0075
2544.00,0.0075
2543.00,0.0075
2542.00,0.0075
2541.00,0.0075
2540.00,0.0075
2539.00,0.0075
2538.00,0.0075
2537.00,0.0074
2536.00,0.0074
2535.00,0.0074
2534.00,0.0074
2533.00,0.0075
2532.00,0.0075
2531.00,0.0075
2530.00,0.0075
2529.00,0.0075
2528.00,0.0076
2527.00,0.0076
2526.00,0.0076
2525.00,0.0076
2524.00,0.0076
2523.00,0.0076
2522.00,0.0076
2521.00,0.0076
2520.00,0.0076
2519.00,0.0076
2518.00,0.0076
2517.00,0.0076
2516.00,0.0077
2515.00,0.0077
2514.00,0.0077
2513.00,0.0077
2512.00,0.0076
2511.00,0.0076
2510.00,0.0076
2509.00,0.0076
2508.00,0.0076
2507.00,0.0076
2506.00,0.0076
2505.00,0.0076
2504.00,0.0076
2503.00,0.0076
2502.00,0.0076
2501.00,0.0076
2500.00,0.0076
2499.00,0.0077
2498.00,0.0077
2497.00,0.0076
2496.00,0.0076
2495.00,0.0076
2494.00,0.0076
2493.00,0.0075
2492.00,0.0075
2491.00,0.0075
2490.00,0.0075
2489.00,0.0075
2488.00,0.0075
2487.00,0.0075
2486.00,0.0075
2485.00,0.0074
2484.00,0.0075
2483.00,0.0075
2482.00,0.0075
2481.00,0.0075
2480.00,0.0075
2479.00,0.0074
2478.00,0.0074
2477.00,0.0074
2476.00,0.0074
2475.00,0.0074
2474.00,0.0074
2473.00,0.0074
2472.00,0.0074
2471.00,0.0074
2470.00,0.0075
2469.00,0.0075
2468.00,0.0075
2467.00,0.0074
2466.00,0.0074
2465.00,0.0074
2464.00,0.0074
2463.00,0.0074
2462.00,0.0074
2461.00,0.0075
2460.00,0.0075
2459.00,0.0075
2458.00,0.0075
2457.00,0.0075
2456.00,0.0075
2455.00,0.0075
2454.00,0.0075
2453.00,0.0075
2452.00,0.0075
2451.00,0.0075
2450.00,0.0075
2449.00,0.0075
2448.00,0.0074
2447.00,0.0074
2446.00,0.0074
2445.00,0.0074
2444.00,0.0074
2443.00,0.0075
2442.00,0.0074
2441.00,0.0074
2440.00,0.0074
2439.00,0.0074
2438.00,0.0073
2437.00,0.0073
2436.00,0.0073
2435.00,0.0073
2434.00,0.0073
2433.00,0.0073
2432.00,0.0074
2431.00,0.0074
2430.00,0.0074
2429.00,0.0074
2428.00,0.0074
2427.00,0.0074
2426.00,0.0073
2425.00,0.0073
2424.00,0.0073
2423.00,0.0073
2422.00,0.0073
2421.00,0.0073
2420.00,0.0073
2419.00,0.0073
2418.00,0.0073
2417.00,0.0073
2416.00,0.0073
2415.00,0.0074
2414.00,0.0074
2413.00,0.0074
2412.00,0.0073
2411.00,0.0073
2410.00,0.0073
2409.00,0.0072
2408.00,0.0072
2407.00,0.0072
2406.00,0.0072
2405.00,0.0072
2404.00,0.0072
2403.00,0.0072
2402.00,0.0071
2401.00,0.0071
2400.00,0.0071
2399.00,0.0071
2398.00,0.0071
2397.00,0.0071
2396.00,0.0070
2395.00,0.0070
2394.00,0.0070
2393.00,0.0070
2392.00,0.0070
2391.00,0.0070
2390.00,0.0070
2389.00,0.0069
2388.00,0.0069
2387.00,0.0068
2386.00,0.0068
2385.00,0.0067
2384.00,0.0067
2383.00,0.0066
2382.00,0.0066
2381.00,0.0065
2380.00,0.0065
2379.00,0.0064
2378.00,0.0064
2377.00,0.0065
2376.00,0.0065
2375.00,0.0065
2374.00,0.0065
2373.00,0.0065
2372.00,0.0065
2371.00,0.0065
2370.00,0.0065
2369.00,0.0064
2368.00,0.0064
2367.00,0.0064
2366.00,0.0064
2365.00,0.0064
2364.00,0.0064
2363.00,0.0064
2362.00,0.0064
2361.00,0.0065
2360.00,0.0065
2359.00,0.0065
2358.00,0.0065
2357.00,0.0065
2356.00,0.0065
2355.00,0.0065
2354.00,0.0065
2353.00,0.0065
2352.00,0.0065
2351.00,0.0065
2350.00,0.0065
2349.00,0.0066
2348.00,0.0066
2347.00,0.0066
2346.00,0.0066
2345.00,0.0066
2344.00,0.0066
2343.00,0.0067
2342.00,0.0067
2341.00,0.0068
2340.00,0.0068
2339.00,0.0069
2338.00,0.0068
2337.00,0.0068
2336.00,0.0068
2335.00,0.0068
2334.00,0.0068
2333.00,0.0068
2332.00,0.0068
2331.00,0.0068
2330.00,0.0068
2329.00,0.0070
2328.00,0.0073
2327.00,0.0077
2326.00,0.0080
2325.00,0.0081
2324.00,0.0080
2323.00,0.0079
2322.00,0.0077
2321.00,0.0075
2320.00,0.0074
2319.00,0.0073
2318.00,0.0073
2317.00,0.0073
2316.00,0.0072
2315.00,0.0072
2314.00,0.0071
2313.00,0.0071
2312.00,0.0070
2311.00,0.0070
2310.00,0.0069
2309.00,0.0070
2308.00,0.0071
2307.00,0.0071
2306.00,0.0072
2305.00,0.0072
2304.00,0.0072
2303.00,0.0073
2302.00,0.0073
2301.00,0.0073
2300.00,0.0073
2299.00,0.0073
2298.00,0.0074
2297.00,0.0075
2296.00,0.0076
2295.00,0.0077
2294.00,0.0078
2293.00,0.0079
2292.00,0.0079
2291.00,0.0080
2290.00,0.0081
2289.00,0.0082
2288.00,0.0082
2287.00,0.0083
2286.00,0.0082
2285.00,0.0081
2284.00,0.0081
2283.00,0.0080
2282.00,0.0080
2281.00,0.0079
2280.00,0.0078
2279.00,0.0077
2278.00,0.0076
2277.00,0.0075
2276.00,0.0075
2275.00,0.0075
2274.00,0.0074
2273.00,0.0074
2272.00,0.0074
2271.00,0.0075
2270.00,0.0075
2269.00,0.0074
2268.00,0.0074
2267.00,0.0073
2266.00,0.0073
2265.00,0.0073
2264.00,0.0073
2263.00,0.0073
2262.00,0.0073
2261.00,0.0073
2260.00,0.0074
2259.00,0.0074
2258.00,0.0074
2257.00,0.0073
2256.00,0.0072
2255.00,0.0071
2254.00,0.0070
2253.00,0.0069
2252.00,0.0070
2251.00,0.0070
2250.00,0.0071
2249.00,0.0071
2248.00,0.0071
2247.00,0.0071
2246.00,0.0070
2245.00,0.0070
2244.00,0.0070
2243.00,0.0070
2242.00,0.0070
2241.00,0.0071
2240.00,0.0071
2239.00,0.0070
2238.00,0.0069
2237.00,0.0068
2236.00,0.0068
2235.00,0.0068
2234.00,0.0068
2233.00,0.0068
2232.00,0.0069
2231.00,0.0069
2230.00,0.0069
2229.00,0.0070
2228.00,0.0070
2227.00,0.0070
2226.00,0.0069
2225.00,0.0069
2224.00,0.0069
2223.00,0.0069
2222.00,0.0068
2221.00,0.0067
2220.00,0.0066
2219.00,0.0066
2218.00,0.0066
2217.00,0.0065
2216.00,0.0066
2215.00,0.0066
2214.00,0.0066
2213.00,0.0066
2212.00,0.0067
2211.00,0.0067
2210.00,0.0067
2209.00,0.0067
2208.00,0.0066
2207.00,0.0064
2206.00,0.0064
2205.00,0.0064
2204.00,0.0065
2203.00,0.0065
2202.00,0.0064
2201.00,0.0064
2200.00,0.0064
2199.00,0.0063
2198.00,0.0062
2197.00,0.0062
2196.00,0.0062
2195.00,0.0061
2194.00,0.0061
2193.00,0.0062
2192.00,0.0063
2191.00,0.0064
2190.00,0.0065
2189.00,0.0065
2188.00,0.0065
2187.00,0.0065
2186.00,0.0065
2185.00,0.0065
2184.00,0.0064
2183.00,0.0062
2182.00,0.0060
2181.00,0.0060
2180.00,0.0060
2179.00,0.0062
2178.00,0.0062
2177.00,0.0062
2176.00,0.0062
2175.00,0.0062
2174.00,0.0063
2173.00,0.0064
2172.00,0.0066
2171.00,0.0068
2170.00,0.0070
2169.00,0.0073
2168.00,0.0075
2167.00,0.0077
2166.00,0.0077
2165.00,0.0077
2164.00,0.0078
2163.00,0.0078
2162.00,0.0073
2161.00,0.0062
2160.00,0.0049
2159.00,0.0037
2158.00,0.0031
2157.00,0.0031
2156.00,0.0035
2155.00,0.0040
2154.00,0.0043
2153.00,0.0045
2152.00,0.0048
2151.00,0.0049
2150.00,0.0049
2149.00,0.0049
2148.00,0.0049
2147.00,0.0049
2146.00,0.0049
2145.00,0.0049
2144.00,0.0051
2143.00,0.0052
2142.00,0.0052
2141.00,0.0052
2140.00,0.0052
2139.00,0.0051
2138.00,0.0049
2137.00,0.0047
2136.00,0.0045
2135.00,0.0044
2134.00,0.0044
2133.00,0.0045
2132.00,0.0048
2131.00,0.0049
2130.00,0.0050
2129.00,0.0051
2128.00,0.0053
2127.00,0.0054
2126.00,0.0056
2125.00,0.0058
2124.00,0.0059
2123.00,0.0061
2122.00,0.0061
2121.00,0.0062
2120.00,0.0062
2119.00,0.0063
2118.00,0.0063
2117.00,0.0064
2116.00,0.0065
2115.00,0.0066
2114.00,0.0066
2113.00,0.0066
2112.00,0.0066
2111.00,0.0065
2110.00,0.0065
2109.00,0.0064
2108.00,0.0064
2107.00,0.0064
2106.00,0.0064
2105.00,0.0064
2104.00,0.0065
2103.00,0.0065
2102.00,0.0064
2101.00,0.0064
2100.00,0.0064
2099.00,0.0063
2098.00,0.0062
2097.00,0.0061
2096.00,0.0059
2095.00,0.0059
2094.00,0.0059
2093.00,0.0061
2092.00,0.0062
2091.00,0.0063
2090.00,0.0063
2089.00,0.0063
2088.00,0.0064
2087.00,0.0065
2086.00,0.0065
2085.00,0.0065
2084.00,0.0066
2083.00,0.0066
2082.00,0.0066
2081.00,0.0067
2080.00,0.0068
2079.00,0.0068
2078.00,0.0067
2077.00,0.0067
2076.00,0.0067
2075.00,0.0067
2074.00,0.0066
2073.00,0.0067
2072.00,0.0067
2071.00,0.0067
2070.00,0.0066
2069.00,0.0066
2068.00,0.0066
2067.00,0.0066
2066.00,0.0066
2065.00,0.0065
2064.00,0.0065
2063.00,0.0064
2062.00,0.0063
2061.00,0.0063
2060.00,0.0063
2059.00,0.0064
2058.00,0.0064
2057.00,0.0063
2056.00,0.0063
2055.00,0.0064
2054.00,0.0066
2053.00,0.0070
2052.00,0.0074
2051.00,0.0075
2050.00,0.0072
2049.00,0.0068
2048.00,0.0065
2047.00,0.0064
2046.00,0.0062
2045.00,0.0061
2044.00,0.0061
2043.00,0.0061
2042.00,0.0060
2041.00,0.0060
2040.00,0.0061
2039.00,0.0062
2038.00,0.0061
2037.00,0.0060
2036.00,0.0058
2035.00,0.0055
2034.00,0.0050
2033.00,0.0047
2032.00,0.0047
2031.00,0.0048
2030.00,0.0049
2029.00,0.0050
2028.00,0.0051
2027.00,0.0051
2026.00,0.0050
2025.00,0.0051
2024.00,0.0052
2023.00,0.0053
2022.00,0.0051
2021.00,0.0050
2020.00,0.0051
2019.00,0.0051
2018.00,0.0052
2017.00,0.0053
2016.00,0.0054
2015.00,0.0053
2014.00,0.0052
2013.00,0.0052
2012.00,0.0054
2011.00,0.0056
2010.00,0.0055
2009.00,0.0054
2008.00,0.0053
2007.00,0.0051
2006.00,0.0049
2005.00,0.0048
2004.00,0.0050
2003.00,0.0051
2002.00,0.0051
2001.00,0.0051
2000.00,0.0054
1999.00,0.0056
1998.00,0.0058
1997.00,0.0059
1996.00,0.0060
1995.00,0.0060
1994.00,0.0060
1993.00,0.0060
1992.00,0.0062
1991.00,0.0063
1990.00,0.0063
1989.00,0.0063
1988.00,0.0064
1987.00,0.0065
1986.00,0.0065
1985.00,0.0066
1984.00,0.0069
1983.00,0.0072
1982.00,0.0074
1981.00,0.0075
1980.00,0.0073
1979.00,0.0068
1978.00,0.0060
1977.00,0.0055
1976.00,0.0053
1975.00,0.0053
1974.00,0.0052
1973.00,0.0052
1972.00,0.0053
1971.00,0.0053
1970.00,0.0052
1969.00,0.0051
1968.00,0.0052
1967.00,0.0052
1966.00,0.0051
1965.00,0.0051
1964.00,0.0052
1963.00,0.0052
1962.00,0.0051
1961.00,0.0050
1960.00,0.0050
1959.00,0.0051
1958.00,0.0051
1957.00,0.0052
1956.00,0.0053
1955.00,0.0054
1954.00,0.0053
1953.00,0.0053
1952.00,0.0054
1951.00,0.0055
1950.00,0.0055
1949.00,0.0056
1948.00,0.0058
1947.00,0.0059
1946.00,0.0058
1945.00,0.0057
1944.00,0.0057
1943.00,0.0056
1942.00,0.0056
1941.00,0.0056
1940.00,0.0058
1939.00,0.0059
1938.00,0.0060
1937.00,0.0061
1936.00,0.0061
1935.00,0.0062
1934.00,0.0062
1933.00,0.0062
1932.00,0.0062
1931.00,0.0062
1930.00,0.0061
1929.00,0.0061
1928.00,0.0061
1927.00,0.0061
1926.00,0.0062
1925.00,0.0062
1924.00,0.0063
1923.00,0.0064
1922.00,0.0063
1921.00,0.0063
1920.00,0.0063
1919.00,0.0063
1918.00,0.0063
1917.00,0.0064
1916.00,0.0064
1915.00,0.0064
1914.00,0.0063
1913.00,0.0062
1912.00,0.0062
1911.00,0.0062
1910.00,0.0062
1909.00,0.0063
1908.00,0.0064
1907.00,0.0064
1906.00,0.0063
1905.00,0.0063
1904.00,0.0063
1903.00,0.0063
1902.00,0.0062
1901.00,0.0061
1900.00,0.0061
1899.00,0.0061
1898.00,0.0061
1897.00,0.0061
1896.00,0.0061
1895.00,0.0061
1894.00,0.0061
1893.00,0.0060
1892.00,0.0060
1891.00,0.0060
1890.00,0.0060
1889.00,0.0061
1888.00,0.0061
1887.00,0.0061
1886.00,0.0060
1885.00,0.0060
1884.00,0.0060
1883.00,0.0061
1882.00,0.0061
1881.00,0.0060
1880.00,0.0060
1879.00,0.0060
1878.00,0.0060
1877.00,0.0061
1876.00,0.0061
1875.00,0.0062
1874.00,0.0062
1873.00,0.0061
1872.00,0.0061
1871.00,0.0061
1870.00,0.0061
1869.00,0.0063
1868.00,0.0064
1867.00,0.0064
1866.00,0.0063
1865.00,0.0062
1864.00,0.0062
1863.00,0.0062
1862.00,0.0061
1861.00,0.0061
1860.00,0.0061
1859.00,0.0061
1858.00,0.0060
1857.00,0.0059
1856.00,0.0059
1855.00,0.0059
1854.00,0.0058
1853.00,0.0058
1852.00,0.0058
1851.00,0.0058
1850.00,0.0058
1849.00,0.0058
1848.00,0.0057
1847.00,0.0056
1846.00,0.0055
1845.00,0.0056
1844.00,0.0058
1843.00,0.0059
1842.00,0.0058
1841.00,0.0056
1840.00,0.0056
1839.00,0.0056
1838.00,0.0056
1837.00,0.0056
1836.00,0.0056
1835.00,0.0056
1834.00,0.0056
1833.00,0.0055
1832.00,0.0055
1831.00,0.0056
1830.00,0.0057
1829.00,0.0058
1828.00,0.0057
1827.00,0.0056
1826.00,0.0056
1825.00,0.0057
1824.00,0.0058
1823.00,0.0058
1822.00,0.0057
1821.00,0.0056
1820.00,0.0056
1819.00,0.0055
1818.00,0.0054
1817.00,0.0054
1816.00,0.0054
1815.00,0.0055
1814.00,0.0055
1813.00,0.0056
1812.00,0.0057
1811.00,0.0058
1810.00,0.0058
1809.00,0.0059
1808.00,0.0059
1807.00,0.0060
1806.00,0.0059
1805.00,0.0059
1804.00,0.0059
1803.00,0.0059
1802.00,0.0060
1801.00,0.0060
1800.00,0.0061
1799.00,0.0062
1798.00,0.0062
1797.00,0.0061
1796.00,0.0061
1795.00,0.0060
1794.00,0.0059
1793.00,0.0060
1792.00,0.0063
1791.00,0.0064
1790.00,0.0063
1789.00,0.0062
1788.00,0.0061
1787.00,0.0061
1786.00,0.0061
1785.00,0.0062
1784.00,0.0062
1783.00,0.0063
1782.00,0.0062
1781.00,0.0063
1780.00,0.0063
1779.00,0.0063
1778.00,0.0063
1777.00,0.0062
1776.00,0.0061
1775.00,0.0060
1774.00,0.0060
1773.00,0.0062
1772.00,0.0066
1771.00,0.0067
1770.00,0.0066
1769.00,0.0066
1768.00,0.0067
1767.00,0.0068
1766.00,0.0067
1765.00,0.0066
1764.00,0.0066
1763.00,0.0068
1762.00,0.0069
1761.00,0.0071
1760.00,0.0071
1759.00,0.0071
1758.00,0.0071
1757.00,0.0073
1756.00,0.0075
1755.00,0.0075
1754.00,0.0074
1753.00,0.0074
1752.00,0.0076
1751.00,0.0079
1750.00,0.0081
1749.00,0.0082
1748.00,0.0085
1747.00,0.0086
1746.00,0.0087
1745.00,0.0088
1744.00,0.0089
1743.00,0.0091
1742.00,0.0092
1741.00,0.0094
1740.00,0.0098
1739.00,0.0101
1738.00,0.0101
1737.00,0.0100
1736.00,0.0100
1735.00,0.0105
1734.00,0.0111
1733.00,0.0115
1732.00,0.0118
1731.00,0.0120
1730.00,0.0121
1729.00,0.0123
1728.00,0.0126
1727.00,0.0129
1726.00,0.0131
1725.00,0.0134
1724.00,0.0140
1723.00,0.0146
1722.00,0.0151
1721.00,0.0157
1720.00,0.0167
1719.00,0.0182
1718.00,0.0203
1717.00,0.0228
1716.00,0.0258
1715.00,0.0289
1714.00,0.0322
1713.00,0.0359
1712.00,0.0399
1711.00,0.0442
1710.00,0.0487
1709.00,0.0533
1708.00,0.0579
1707.00,0.0627
1706.00,0.0676
1705.00,0.0722
1704.00,0.0762
1703.00,0.0796
1702.00,0.0827
1701.00,0.0856
1700.00,0.0878
1699.00,0.0894
1698.00,0.0905
1697.00,0.0910
1696.00,0.0907
1695.00,0.0901
1694.00,0.0896
1693.00,0.0895
1692.00,0.0897
1691.00,0.0901
1690.00,0.0906
1689.00,0.0913
1688.00,0.0924
1687.00,0.0938
1686.00,0.0954
1685.00,0.0972
1684.00,0.0986
1683.00,0.0999
1682.00,0.1014
1681.00,0.1029
1680.00,0.1042
1679.00,0.1051
1678.00,0.1056
1677.00,0.1055
1676.00,0.1046
1675.00,0.1029
1674.00,0.1010
1673.00,0.0995
1672.00,0.0982
1671.00,0.0966
1670.00,0.0944
1669.00,0.0921
1668.00,0.0903
1667.00,0.0891
1666.00,0.0885
1665.00,0.0880
1664.00,0.0875
1663.00,0.0867
1662.00,0.0859
1661.00,0.0854
1660.00,0.0851
1659.00,0.0851
1658.00,0.0851
1657.00,0.0852
1656.00,0.0853
1655.00,0.0855
1654.00,0.0854
1653.00,0.0845
1652.00,0.0837
1651.00,0.0837
1650.00,0.0841
1649.00,0.0842
1648.00,0.0836
1647.00,0.0820
1646.00,0.0798
1645.00,0.0775
1644.00,0.0755
1643.00,0.0734
1642.00,0.0712
1641.00,0.0688
1640.00,0.0664
1639.00,0.0643
1638.00,0.0624
1637.00,0.0607
1636.00,0.0591
1635.00,0.0579
1634.00,0.0574
1633.00,0.0575
1632.00,0.0581
1631.00,0.0589
1630.00,0.0600
1629.00,0.0612
1628.00,0.0627
1627.00,0.0641
1626.00,0.0655
1625.00,0.0669
1624.00,0.0683
1623.00,0.0695
1622.00,0.0705
1621.00,0.0712
1620.00,0.0718
1619.00,0.0721
1618.00,0.0719
1617.00,0.0712
1616.00,0.0699
1615.00,0.0685
1614.00,0.0670
1613.00,0.0655
1612.00,0.0636
1611.00,0.0615
1610.00,0.0591
1609.00,0.0566
1608.00,0.0540
1607.00,0.0515
1606.00,0.0491
1605.00,0.0468
1604.00,0.0447
1603.00,0.0426
1602.00,0.0406
1601.00,0.0388
1600.00,0.0371
1599.00,0.0355
1598.00,0.0340
1597.00,0.0326
1596.00,0.0313
1595.00,0.0301
1594.00,0.0291
1593.00,0.0281
1592.00,0.0272
1591.00,0.0264
1590.00,0.0256
1589.00,0.0250
1588.00,0.0244
1587.00,0.0239
1586.00,0.0236
1585.00,0.0233
1584.00,0.0233
1583.00,0.0233
1582.00,0.0234
1581.00,0.0235
1580.00,0.0233
1579.00,0.0230
1578.00,0.0225
1577.00,0.0220
1576.00,0.0214
1575.00,0.0209
1574.00,0.0203
1573.00,0.0197
1572.00,0.0193
1571.00,0.0190
1570.00,0.0189
1569.00,0.0190
1568.00,0.0191
1567.00,0.0192
1566.00,0.0196
1565.00,0.0202
1564.00,0.0209
1563.00,0.0214
1562.00,0.0215
1561.00,0.0216
1560.00,0.0217
1559.00,0.0215
1558.00,0.0207
1557.00,0.0198
1556.00,0.0190
1555.00,0.0184
1554.00,0.0179
1553.00,0.0174
1552.00,0.0170
1551.00,0.0167
1550.00,0.0165
1549.00,0.0163
1548.00,0.0161
1547.00,0.0158
1546.00,0.0157
1545.00,0.0157
1544.00,0.0156
1543.00,0.0155
1542.00,0.0154
1541.00,0.0156
1540.00,0.0159
1539.00,0.0162
1538.00,0.0164
1537.00,0.0164
1536.00,0.0164
1535.00,0.0164
1534.00,0.0168
1533.00,0.0171
1532.00,0.0173
1531.00,0.0174
1530.00,0.0175
1529.00,0.0176
1528.00,0.0177
1527.00,0.0179
1526.00,0.0181
1525.00,0.0183
1524.00,0.0185
1523.00,0.0188
1522.00,0.0194
1521.00,0.0202
1520.00,0.0209
1519.00,0.0215
1518.00,0.0224
1517.00,0.0235
1516.00,0.0248
1515.00,0.0261
1514.00,0.0275
1513.00,0.0292
1512.00,0.0312
1511.00,0.0333
1510.00,0.0355
1509.00,0.0380
1508.00,0.0411
1507.00,0.0453
1506.00,0.0500
1505.00,0.0544
1504.00,0.0583
1503.00,0.0621
1502.00,0.0663
1501.00,0.0708
1500.00,0.0755
1499.00,0.0803
1498.00,0.0851
1497.00,0.0899
1496.00,0.0943
1495.00,0.0982
1494.00,0.1017
1493.00,0.1048
1492.00,0.1074
1491.00,0.1094
1490.00,0.1107
1489.00,0.1112
1488.00,0.1110
1487.00,0.1103
1486.00,0.1093
1485.00,0.1081
1484.00,0.1065
1483.00,0.1045
1482.00,0.1023
1481.00,0.0998
1480.00,0.0973
1479.00,0.0949
1478.00,0.0926
1477.00,0.0899
1476.00,0.0870
1475.00,0.0839
1474.00,0.0807
1473.00,0.0771
1472.00,0.0733
1471.00,0.0700
1470.00,0.0677
1469.00,0.0659
1468.00,0.0643
1467.00,0.0629
1466.00,0.0617
1465.00,0.0606
1464.00,0.0596
1463.00,0.0588
1462.00,0.0582
1461.00,0.0577
1460.00,0.0570
1459.00,0.0563
1458.00,0.0554
1457.00,0.0546
1456.00,0.0539
1455.00,0.0538
1454.00,0.0543
1453.00,0.0552
1452.00,0.0568
1451.00,0.0592
1450.00,0.0624
1449.00,0.0664
1448.00,0.0705
1447.00,0.0735
1446.00,0.0749
1445.00,0.0746
1444.00,0.0731
1443.00,0.0712
1442.00,0.0695
1441.00,0.0686
1440.00,0.0685
1439.00,0.0692
1438.00,0.0709
1437.00,0.0736
1436.00,0.0769
1435.00,0.0799
1434.00,0.0825
1433.00,0.0846
1432.00,0.0859
1431.00,0.0862
1430.00,0.0855
1429.00,0.0842
1428.00,0.0823
1427.00,0.0801
1426.00,0.0781
1425.00,0.0766
1424.00,0.0763
1423.00,0.0778
1422.00,0.0810
1421.00,0.0854
1420.00,0.0903
1419.00,0.0938
1418.00,0.0942
1417.00,0.0914
1416.00,0.0861
1415.00,0.0795
1414.00,0.0725
1413.00,0.0659
1412.00,0.0601
1411.00,0.0551
1410.00,0.0511
1409.00,0.0479
1408.00,0.0453
1407.00,0.0430
1406.00,0.0410
1405.00,0.0393
1404.00,0.0377
1403.00,0.0364
1402.00,0.0355
1401.00,0.0348
1400.00,0.0343
1399.00,0.0340
1398.00,0.0340
1397.00,0.0342
1396.00,0.0346
1395.00,0.0355
1394.00,0.0366
1393.00,0.0381
1392.00,0.0397
1391.00,0.0414
1390.00,0.0434
1389.00,0.0456
1388.00,0.0483
1387.00,0.0511
1386.00,0.0541
1385.00,0.0569
1384.00,0.0596
1383.00,0.0618
1382.00,0.0634
1381.00,0.0639
1380.00,0.0633
1379.00,0.0614
1378.00,0.0588
1377.00,0.0558
1376.00,0.0530
1375.00,0.0508
1374.00,0.0496
1373.00,0.0493
1372.00,0.0500
1371.00,0.0513
1370.00,0.0529
1369.00,0.0544
1368.00,0.0554
1367.00,0.0554
1366.00,0.0543
1365.00,0.0519
1364.00,0.0484
1363.00,0.0440
1362.00,0.0395
1361.00,0.0355
1360.00,0.0324
1359.00,0.0300
1358.00,0.0282
1357.00,0.0270
1356.00,0.0262
1355.00,0.0256
1354.00,0.0253
1353.00,0.0253
1352.00,0.0255
1351.00,0.0258
1350.00,0.0264
1349.00,0.0272
1348.00,0.0281
1347.00,0.0291
1346.00,0.0303
1345.00,0.0315
1344.00,0.0328
1343.00,0.0342
1342.00,0.0355
1341.00,0.0369
1340.00,0.0383
1339.00,0.0396
1338.00,0.0409
1337.00,0.0421
1336.00,0.0433
1335.00,0.0444
1334.00,0.0455
1333.00,0.0465
1332.00,0.0474
1331.00,0.0482
1330.00,0.0487
1329.00,0.0489
1328.00,0.0490
1327.00,0.0489
1326.00,0.0488
1325.00,0.0488
1324.00,0.0491
1323.00,0.0497
1322.00,0.0506
1321.00,0.0519
1320.00,0.0536
1319.00,0.0557
1318.00,0.0579
1317.00,0.0603
1316.00,0.0627
1315.00,0.0652
1314.00,0.0675
1313.00,0.0699
1312.00,0.0722
1311.00,0.0745
1310.00,0.0768
1309.00,0.0792
1308.00,0.0816
1307.00,0.0842
1306.00,0.0868
1305.00,0.0893
1304.00,0.0916
1303.00,0.0934
1302.00,0.0945
1301.00,0.0946
1300.00,0.0938
1299.00,0.0920
1298.00,0.0894
1297.00,0.0864
1296.00,0.0832
1295.00,0.0802
1294.00,0.0775
1293.00,0.0754
1292.00,0.0739
1291.00,0.0731
1290.00,0.0730
1289.00,0.0737
1288.00,0.0750
1287.00,0.0770
1286.00,0.0796
1285.00,0.0826
1284.00,0.0860
1283.00,0.0895
1282.00,0.0930
1281.00,0.0963
1280.00,0.0991
1279.00,0.1014
1278.00,0.1028
1277.00,0.1034
1276.00,0.1030
1275.00,0.1015
1274.00,0.0991
1273.00,0.0959
1272.00,0.0921
1271.00,0.0879
1270.00,0.0836
1269.00,0.0793
1268.00,0.0751
1267.00,0.0713
1266.00,0.0676
1265.00,0.0643
1264.00,0.0612
1263.00,0.0582
1262.00,0.0555
1261.00,0.0530
1260.00,0.0506
1259.00,0.0485
1258.00,0.0468
1257.00,0.0455
1256.00,0.0448
1255.00,0.0446
1254.00,0.0450
1253.00,0.0457
1252.00,0.0463
1251.00,0.0465
1250.00,0.0460
1249.00,0.0448
1248.00,0.0432
1247.00,0.0413
1246.00,0.0395
1245.00,0.0380
1244.00,0.0369
1243.00,0.0361
1242.00,0.0357
1241.00,0.0358
1240.00,0.0361
1239.00,0.0369
1238.00,0.0380
1237.00,0.0396
1236.00,0.0417
1235.00,0.0443
1234.00,0.0474
1233.00,0.0511
1232.00,0.0554
1231.00,0.0602
1230.00,0.0655
1229.00,0.0712
1228.00,0.0772
1227.00,0.0833
1226.00,0.0894
1225.00,0.0954
1224.00,0.1014
1223.00,0.1073
1222.00,0.1131
1221.00,0.1188
1220.00,0.1245
1219.00,0.1300
1218.00,0.1354
1217.00,0.1407
1216.00,0.1458
1215.00,0.1507
1214.00,0.1552
1213.00,0.1593
1212.00,0.1630
1211.00,0.1661
1210.00,0.1685
1209.00,0.1704
1208.00,0.1716
1207.00,0.1721
1206.00,0.1718
1205.00,0.1707
1204.00,0.1686
1203.00,0.1654
1202.00,0.1611
1201.00,0.1558
1200.00,0.1497
1199.00,0.1431
1198.00,0.1362
1197.00,0.1297
1196.00,0.1240
1195.00,0.1193
1194.00,0.1158
1193.00,0.1134
1192.00,0.1119
1191.00,0.1110
1190.00,0.1103
1189.00,0.1095
1188.00,0.1083
1187.00,0.1063
1186.00,0.1036
1185.00,0.1004
1184.00,0.0968
1183.00,0.0931
1182.00,0.0895
1181.00,0.0865
1180.00,0.0840
1179.00,0.0820
1178.00,0.0806
1177.00,0.0794
1176.00,0.0785
1175.00,0.0777
1174.00,0.0770
1173.00,0.0762
1172.00,0.0753
1171.00,0.0739
1170.00,0.0720
1169.00,0.0693
1168.00,0.0661
1167.00,0.0625
1166.00,0.0589
1165.00,0.0556
1164.00,0.0529
1163.00,0.0508
1162.00,0.0494
1161.00,0.0485
1160.00,0.0481
1159.00,0.0481
1158.00,0.0481
1157.00,0.0481
1156.00,0.0480
1155.00,0.0477
1154.00,0.0475
1153.00,0.0475
1152.00,0.0482
1151.00,0.0495
1150.00,0.0518
1149.00,0.0549
1148.00,0.0587
1147.00,0.0631
1146.00,0.0679
1145.00,0.0731
1144.00,0.0788
1143.00,0.0846
1142.00,0.0905
1141.00,0.0960
1140.00,0.1005
1139.00,0.1034
1138.00,0.1043
1137.00,0.1033
1136.00,0.1005
1135.00,0.0966
1134.00,0.0923
1133.00,0.0883
1132.00,0.0853
1131.00,0.0835
1130.00,0.0832
1129.00,0.0843
1128.00,0.0867
1127.00,0.0903
1126.00,0.0948
1125.00,0.0999
1124.00,0.1056
1123.00,0.1115
1122.00,0.1174
1121.00,0.1231
1120.00,0.1283
1119.00,0.1328
1118.00,0.1364
1117.00,0.1390
1116.00,0.1407
1115.00,0.1411
1114.00,0.1405
1113.00,0.1390
1112.00,0.1369
1111.00,0.1345
1110.00,0.1324
1109.00,0.1311
1108.00,0.1311
1107.00,0.1326
1106.00,0.1356
1105.00,0.1399
1104.00,0.1451
1103.00,0.1507
1102.00,0.1562
1101.00,0.1613
1100.00,0.1654
1099.00,0.1682
1098.00,0.1696
1097.00,0.1697
1096.00,0.1688
1095.00,0.1671
1094.00,0.1648
1093.00,0.1621
1092.00,0.1589
1091.00,0.1550
1090.00,0.1502
1089.00,0.1447
1088.00,0.1386
1087.00,0.1319
1086.00,0.1249
1085.00,0.1180
1084.00,0.1114
1083.00,0.1051
1082.00,0.0992
1081.00,0.0938
1080.00,0.0889
1079.00,0.0844
1078.00,0.0802
1077.00,0.0765
1076.00,0.0732
1075.00,0.0701
1074.00,0.0674
1073.00,0.0650
1072.00,0.0629
1071.00,0.0611
1070.00,0.0595
1069.00,0.0583
1068.00,0.0574
1067.00,0.0570
1066.00,0.0572
1065.00,0.0579
1064.00,0.0593
1063.00,0.0614
1062.00,0.0642
1061.00,0.0677
1060.00,0.0717
1059.00,0.0760
1058.00,0.0804
1057.00,0.0848
1056.00,0.0887
1055.00,0.0922
1054.00,0.0949
1053.00,0.0970
1052.00,0.0985
1051.00,0.0995
1050.00,0.1001
1049.00,0.1007
1048.00,0.1015
1047.00,0.1029
1046.00,0.1049
1045.00,0.1072
1044.00,0.1090
1043.00,0.1094
1042.00,0.1079
1041.00,0.1047
1040.00,0.1005
1039.00,0.0962
1038.00,0.0925
1037.00,0.0898
1036.00,0.0881
1035.00,0.0872
1034.00,0.0870
1033.00,0.0874
1032.00,0.0883
1031.00,0.0899
1030.00,0.0920
1029.00,0.0947
1028.00,0.0980
1027.00,0.1018
1026.00,0.1061
1025.00,0.1108
1024.00,0.1155
1023.00,0.1200
1022.00,0.1238
1021.00,0.1269
1020.00,0.1289
1019.00,0.1297
1018.00,0.1293
1017.00,0.1279
1016.00,0.1256
1015.00,0.1226
1014.00,0.1189
1013.00,0.1150
1012.00,0.1107
1011.00,0.1062
1010.00,0.1017
1009.00,0.0973
1008.00,0.0932
1007.00,0.0893
1006.00,0.0856
1005.00,0.0822
1004.00,0.0791
1003.00,0.0762
1002.00,0.0734
1001.00,0.0708
1000.00,0.0684
999.00,0.0660
998.00,0.0638
997.00,0.0617
996.00,0.0598
995.00,0.0580
994.00,0.0563
993.00,0.0549
992.00,0.0537
991.00,0.0525
990.00,0.0515
989.00,0.0506
988.00,0.0499
987.00,0.0493
986.00,0.0488
985.00,0.0485
984.00,0.0482
983.00,0.0480
982.00,0.0479
981.00,0.0479
980.00,0.0479
979.00,0.0479
978.00,0.0479
977.00,0.0478
976.00,0.0476
975.00,0.0474
974.00,0.0471
973.00,0.0467
972.00,0.0463
971.00,0.0458
970.00,0.0453
969.00,0.0448
968.00,0.0444
967.00,0.0440
966.00,0.0436
965.00,0.0434
964.00,0.0432
963.00,0.0431
962.00,0.0431
961.00,0.0432
960.00,0.0434
959.00,0.0436
958.00,0.0438
957.00,0.0441
956.00,0.0443
955.00,0.0442
954.00,0.0440
953.00,0.0435
952.00,0.0428
951.00,0.0420
950.00,0.0411
949.00,0.0401
948.00,0.0392
947.00,0.0382
946.00,0.0373
945.00,0.0364
944.00,0.0355
943.00,0.0347
942.00,0.0340
941.00,0.0334
940.00,0.0328
939.00,0.0323
938.00,0.0318
937.00,0.0314
936.00,0.0310
935.00,0.0306
934.00,0.0303
933.00,0.0300
932.00,0.0298
931.00,0.0295
930.00,0.0293
929.00,0.0290
928.00,0.0288
927.00,0.0285
926.00,0.0283
925.00,0.0281
924.00,0.0279
923.00,0.0277
922.00,0.0275
921.00,0.0273
920.00,0.0271
919.00,0.0269
918.00,0.0268
917.00,0.0267
916.00,0.0266
915.00,0.0265
914.00,0.0264
913.00,0.0264
912.00,0.0263
911.00,0.0263
910.00,0.0262
909.00,0.0262
908.00,0.0263
907.00,0.0263
906.00,0.0264
905.00,0.0265
904.00,0.0266
903.00,0.0267
902.00,0.0267
901.00,0.0268
900.00,0.0267
899.00,0.0266
898.00,0.0265
897.00,0.0264
896.00,0.0265
895.00,0.0265
894.00,0.0264
893.00,0.0264
892.00,0.0263
891.00,0.0262
890.00,0.0260
889.00,0.0258
888.00,0.0256
887.00,0.0254
886.00,0.0254
885.00,0.0254
884.00,0.0255
883.00,0.0256
882.00,0.0258
881.00,0.0260
880.00,0.0263
879.00,0.0266
878.00,0.0269
877.00,0.0273
876.00,0.0278
875.00,0.0284
874.00,0.0290
873.00,0.0298
872.00,0.0308
871.00,0.0320
870.00,0.0334
869.00,0.0352
868.00,0.0372
867.00,0.0393
866.00,0.0410
865.00,0.0421
864.00,0.0424
863.00,0.0417
862.00,0.0404
861.00,0.0389
860.00,0.0375
859.00,0.0366
858.00,0.0360
857.00,0.0358
856.00,0.0359
855.00,0.0358
854.00,0.0356
853.00,0.0351
852.00,0.0343
851.00,0.0334
850.00,0.0323
849.00,0.0313
848.00,0.0304
847.00,0.0294
846.00,0.0285
845.00,0.0277
844.00,0.0269
843.00,0.0262
842.00,0.0255
841.00,0.0248
840.00,0.0242
839.00,0.0237
838.00,0.0232
837.00,0.0228
836.00,0.0225
835.00,0.0223
834.00,0.0221
833.00,0.0219
832.00,0.0218
831.00,0.0218
830.00,0.0218
829.00,0.0220
828.00,0.0223
827.00,0.0228
826.00,0.0234
825.00,0.0241
824.00,0.0247
823.00,0.0254
822.00,0.0259
821.00,0.0265
820.00,0.0272
819.00,0.0278
818.00,0.0283
817.00,0.0288
816.00,0.0293
815.00,0.0297
814.00,0.0300
813.00,0.0305
812.00,0.0312
811.00,0.0322
810.00,0.0336
809.00,0.0356
808.00,0.0382
807.00,0.0413
806.00,0.0450
805.00,0.0491
804.00,0.0535
803.00,0.0576
802.00,0.0613
801.00,0.0642
800.00,0.0662
799.00,0.0672
798.00,0.0673
797.00,0.0669
796.00,0.0661
795.00,0.0653
794.00,0.0643
793.00,0.0633
792.00,0.0622
791.00,0.0608
790.00,0.0590
789.00,0.0570
788.00,0.0548
787.00,0.0528
786.00,0.0515
785.00,0.0514
784.00,0.0528
783.00,0.0560
782.00,0.0608
781.00,0.0668
780.00,0.0733
779.00,0.0795
778.00,0.0845
777.00,0.0877
776.00,0.0887
775.00,0.0873
774.00,0.0835
773.00,0.0780
772.00,0.0715
771.00,0.0648
770.00,0.0585
769.00,0.0531
768.00,0.0487
767.00,0.0453
766.00,0.0428
765.00,0.0412
764.00,0.0404
763.00,0.0401
762.00,0.0403
761.00,0.0410
760.00,0.0422
759.00,0.0437
758.00,0.0455
757.00,0.0475
756.00,0.0499
755.00,0.0523
754.00,0.0546
753.00,0.0569
752.00,0.0591
751.00,0.0610
750.00,0.0627
749.00,0.0641
748.00,0.0648
747.00,0.0645
746.00,0.0629
745.00,0.0601
744.00,0.0567
743.00,0.0536
742.00,0.0520
741.00,0.0529
740.00,0.0571
739.00,0.0644
738.00,0.0740
737.00,0.0841
736.00,0.0927
735.00,0.0982
734.00,0.1002
733.00,0.0998
732.00,0.0988
731.00,0.0984
730.00,0.0988
729.00,0.0997
728.00,0.1005
727.00,0.1003
726.00,0.0982
725.00,0.0943
724.00,0.0887
723.00,0.0821
722.00,0.0750
721.00,0.0682
720.00,0.0621
719.00,0.0570
718.00,0.0528
717.00,0.0494
716.00,0.0468
715.00,0.0446
714.00,0.0428
713.00,0.0413
712.00,0.0402
711.00,0.0393
710.00,0.0385
709.00,0.0379
708.00,0.0374
707.00,0.0371
706.00,0.0367
705.00,0.0365
704.00,0.0365
703.00,0.0365
702.00,0.0366
701.00,0.0367
700.00,0.0369
699.00,0.0371
698.00,0.0373
697.00,0.0376
696.00,0.0380
695.00,0.0385
694.00,0.0390
693.00,0.0396
692.00,0.0403
691.00,0.0410
690.00,0.0418
689.00,0.0425
688.00,0.0432
687.00,0.0439
686.00,0.0444
685.00,0.0449
684.00,0.0453
683.00,0.0458
682.00,0.0461
681.00,0.0463
680.00,0.0466
679.00,0.0467
678.00,0.0468
677.00,0.0469
676.00,0.0469
675.00,0.0468
674.00,0.0466
673.00,0.0462
672.00,0.0458
671.00,0.0453
670.00,0.0448
669.00,0.0441
668.00,0.0433
667.00,0.0425
666.00,0.0418
665.00,0.0416
664.00,0.0417
663.00,0.0420
662.00,0.0423
661.00,0.0428
660.00,0.0434
659.00,0.0439
658.00,0.0442
657.00,0.0446
656.00,0.0450
655.00,0.0454
654.00,0.0458
653.00,0.0462
652.00,0.0465
651.00,0.0466
650.00,0.0466
649.00,0.0466
648.00,0.0467
647.00,0.0468
646.00,0.0467
645.00,0.0467
644.00,0.0466
643.00,0.0464
642.00,0.0461
641.00,0.0458
640.00,0.0456
639.00,0.0454
638.00,0.0452
637.00,0.0450
636.00,0.0449
635.00,0.0446
634.00,0.0442
633.00,0.0438
632.00,0.0435
631.00,0.0431
630.00,0.0427
629.00,0.0425
628.00,0.0423
627.00,0.0422
626.00,0.0419
625.00,0.0416
624.00,0.0413
623.00,0.0409
622.00,0.0405
621.00,0.0402
620.00,0.0400
619.00,0.0398
618.00,0.0396
617.00,0.0395
616.00,0.0395
615.00,0.0394
614.00,0.0393
613.00,0.0391
612.00,0.0390
611.00,0.0388
610.00,0.0385
609.00,0.0382
608.00,0.0381
607.00,0.0380
606.00,0.0379
605.00,0.0380
604.00,0.0385
603.00,0.0391
602.00,0.0399
601.00,0.0410
600.00,0.0424
599.00,0.0439
598.00,0.0453
597.00,0.0467
596.00,0.0482
595.00,0.0494
594.00,0.0503
593.00,0.0511
592.00,0.0520
591.00,0.0528
590.00,0.0535
589.00,0.0542
588.00,0.0548
587.00,0.0552
586.00,0.0552
585.00,0.0549
584.00,0.0545
583.00,0.0539
582.00,0.0531
581.00,0.0523
580.00,0.0518
579.00,0.0513
578.00,0.0508
577.00,0.0502
576.00,0.0498
575.00,0.0494
574.00,0.0489
573.00,0.0485
572.00,0.0481
571.00,0.0478
570.00,0.0473
569.00,0.0468
568.00,0.0465
567.00,0.0461
566.00,0.0455
565.00,0.0449
564.00,0.0445
563.00,0.0440
562.00,0.0435
561.00,0.0430
560.00,0.0426
559.00,0.0421
558.00,0.0415
557.00,0.0408
556.00,0.0405
555.00,0.0402
554.00,0.0397
553.00,0.0393
552.00,0.0390
551.00,0.0386
550.00,0.0382
549.00,0.0380
548.00,0.0380
547.00,0.0382
546.00,0.0382
545.00,0.0384
544.00,0.0389
543.00,0.0396
542.00,0.0404
541.00,0.0414
540.00,0.0425
539.00,0.0432
538.00,0.0434
537.00,0.0432
536.00,0.0428
535.00,0.0422
534.00,0.0414
533.00,0.0407
532.00,0.0402
531.00,0.0397
530.00,0.0391
529.00,0.0387
528.00,0.0385
527.00,0.0382
526.00,0.0378
525.00,0.0374
524.00,0.0372
523.00,0.0370
522.00,0.0367
521.00,0.0365
520.00,0.0366
519.00,0.0367
518.00,0.0364
517.00,0.0361
516.00,0.0360
515.00,0.0358
514.00,0.0356
513.00,0.0355
512.00,0.0358
511.00,0.0361
510.00,0.0363
509.00,0.0364
508.00,0.0367
507.00,0.0369
506.00,0.0369
505.00,0.0367
504.00,0.0367
503.00,0.0366
502.00,0.0363
501.00,0.0360
500.00,0.0361
499.00,0.0362
498.00,0.0362
497.00,0.0364
496.00,0.0369
495.00,0.0374
494.00,0.0378
493.00,0.0380
492.00,0.0384
491.00,0.0384
490.00,0.0381
489.00,0.0378
488.00,0.0379
487.00,0.0380
486.00,0.0378
485.00,0.0377
484.00,0.0378
483.00,0.0379
482.00,0.0376
481.00,0.0374
480.00,0.0374
479.00,0.0374
478.00,0.0372
477.00,0.0372
476.00,0.0377
475.00,0.0386
474.00,0.0398
473.00,0.0417
472.00,0.0444
471.00,0.0470
470.00,0.0489
469.00,0.0504
468.00,0.0517
467.00,0.0522
466.00,0.0516
465.00,0.0508
464.00,0.0504
463.00,0.0501
462.00,0.0495
461.00,0.0487
460.00,0.0478
459.00,0.0464
458.00,0.0442
457.00,0.0419
456.00,0.0404
455.00,0.0391
454.00,0.0377
453.00,0.0365
452.00,0.0357
451.00,0.0351
450.00,0.0341
449.00,0.0332
448.00,0.0326
447.00,0.0320
446.00,0.0311
445.00,0.0307
444.00,0.0310
443.00,0.0314
442.00,0.0314
441.00,0.0313
440.00,0.0315
439.00,0.0316
438.00,0.0314
437.00,0.0313
436.00,0.0317
435.00,0.0319
434.00,0.0315
433.00,0.0314
432.00,0.0318
431.00,0.0323
430.00,0.0323
429.00,0.0323
428.00,0.0327
427.00,0.0332
426.00,0.0333
425.00,0.0334
424.00,0.0337
423.00,0.0337
422.00,0.0332
421.00,0.0332
420.00,0.0345
419.00,0.0356
418.00,0.0354
417.00,0.0352
416.00,0.0359
415.00,0.0366
414.00,0.0362
413.00,0.0356
412.00,0.0356
411.00,0.0354
410.00,0.0345
409.00,0.0339
408.00,0.0346
407.00,0.0352
406.00,0.0349
405.00,0.0347
404.00,0.0354
403.00,0.0358
402.00,0.0349
401.00,0.0344
400.00,0.0352
