Created as New Dataset,Sample 1073 By YargerLab Date Tuesday, August 05 2025
cm-1,A
4000.00,0.0007
3999.00,0.0007
3998.00,0.0007
3997.00,0.0007
3996.00,0.0007
3995.00,0.0007
3994.00,0.0007
3993.00,0.0007
3992.00,0.0007
3991.00,0.0007
3990.00,0.0007
3989.00,0.0007
3988.00,0.0007
3987.00,0.0007
3986.00,0.0007
3985.00,0.0007
3984.00,0.0006
3983.00,0.0006
3982.00,0.0006
3981.00,0.0006
3980.00,0.0006
3979.00,0.0006
3978.00,0.0006
3977.00,0.0006
3976.00,0.0006
3975.00,0.0006
3974.00,0.0006
3973.00,0.0006
3972.00,0.0006
3971.00,0.0006
3970.00,0.0006
3969.00,0.0006
3968.00,0.0006
3967.00,0.0006
3966.00,0.0006
3965.00,0.0006
3964.00,0.0006
3963.00,0.0006
3962.00,0.0006
3961.00,0.0007
3960.00,0.0007
3959.00,0.0007
3958.00,0.0007
3957.00,0.0007
3956.00,0.0006
3955.00,0.0006
3954.00,0.0006
3953.00,0.0006
3952.00,0.0006
3951.00,0.0006
3950.00,0.0006
3949.00,0.0006
3948.00,0.0006
3947.00,0.0006
3946.00,0.0006
3945.00,0.0006
3944.00,0.0006
3943.00,0.0006
3942.00,0.0006
3941.00,0.0006
3940.00,0.0006
3939.00,0.0006
3938.00,0.0006
3937.00,0.0006
3936.00,0.0006
3935.00,0.0006
3934.00,0.0006
3933.00,0.0006
3932.00,0.0006
3931.00,0.0006
3930.00,0.0006
3929.00,0.0006
3928.00,0.0006
3927.00,0.0006
3926.00,0.0006
3925.00,0.0006
3924.00,0.0006
3923.00,0.0006
3922.00,0.0006
3921.00,0.0006
3920.00,0.0006
3919.00,0.0006
3918.00,0.0006
3917.00,0.0006
3916.00,0.0006
3915.00,0.0006
3914.00,0.0006
3913.00,0.0006
3912.00,0.0006
3911.00,0.0006
3910.00,0.0006
3909.00,0.0006
3908.00,0.0006
3907.00,0.0006
3906.00,0.0006
3905.00,0.0006
3904.00,0.0006
3903.00,0.0006
3902.00,0.0006
3901.00,0.0006
3900.00,0.0006
3899.00,0.0006
3898.00,0.0006
3897.00,0.0006
3896.00,0.0006
3895.00,0.0006
3894.00,0.0006
3893.00,0.0006
3892.00,0.0006
3891.00,0.0006
3890.00,0.0006
3889.00,0.0006
3888.00,0.0006
3887.00,0.0006
3886.00,0.0006
3885.00,0.0006
3884.00,0.0006
3883.00,0.0006
3882.00,0.0006
3881.00,0.0006
3880.00,0.0006
3879.00,0.0006
3878.00,0.0005
3877.00,0.0005
3876.00,0.0006
3875.00,0.0006
3874.00,0.0006
3873.00,0.0006
3872.00,0.0006
3871.00,0.0006
3870.00,0.0006
3869.00,0.0006
3868.00,0.0005
3867.00,0.0005
3866.00,0.0006
3865.00,0.0006
3864.00,0.0006
3863.00,0.0006
3862.00,0.0006
3861.00,0.0006
3860.00,0.0006
3859.00,0.0006
3858.00,0.0006
3857.00,0.0006
3856.00,0.0006
3855.00,0.0006
3854.00,0.0006
3853.00,0.0006
3852.00,0.0006
3851.00,0.0006
3850.00,0.0006
3849.00,0.0006
3848.00,0.0006
3847.00,0.0006
3846.00,0.0007
3845.00,0.0007
3844.00,0.0007
3843.00,0.0007
3842.00,0.0006
3841.00,0.0006
3840.00,0.0006
3839.00,0.0006
3838.00,0.0006
3837.00,0.0007
3836.00,0.0007
3835.00,0.0007
3834.00,0.0007
3833.00,0.0007
3832.00,0.0007
3831.00,0.0006
3830.00,0.0006
3829.00,0.0007
3828.00,0.0007
3827.00,0.0007
3826.00,0.0008
3825.00,0.0007
3824.00,0.0007
3823.00,0.0007
3822.00,0.0007
3821.00,0.0007
3820.00,0.0007
3819.00,0.0007
3818.00,0.0006
3817.00,0.0006
3816.00,0.0006
3815.00,0.0006
3814.00,0.0006
3813.00,0.0006
3812.00,0.0007
3811.00,0.0007
3810.00,0.0007
3809.00,0.0007
3808.00,0.0007
3807.00,0.0007
3806.00,0.0007
3805.00,0.0007
3804.00,0.0008
3803.00,0.0008
3802.00,0.0008
3801.00,0.0008
3800.00,0.0007
3799.00,0.0007
3798.00,0.0007
3797.00,0.0008
3796.00,0.0008
3795.00,0.0008
3794.00,0.0008
3793.00,0.0009
3792.00,0.0009
3791.00,0.0009
3790.00,0.0010
3789.00,0.0010
3788.00,0.0010
3787.00,0.0010
3786.00,0.0010
3785.00,0.0010
3784.00,0.0011
3783.00,0.0011
3782.00,0.0011
3781.00,0.0011
3780.00,0.0011
3779.00,0.0011
3778.00,0.0011
3777.00,0.0012
3776.00,0.0012
3775.00,0.0012
3774.00,0.0012
3773.00,0.0012
3772.00,0.0013
3771.00,0.0013
3770.00,0.0013
3769.00,0.0013
3768.00,0.0012
3767.00,0.0012
3766.00,0.0012
3765.00,0.0012
3764.00,0.0012
3763.00,0.0012
3762.00,0.0012
3761.00,0.0012
3760.00,0.0012
3759.00,0.0012
3758.00,0.0012
3757.00,0.0012
3756.00,0.0012
3755.00,0.0012
3754.00,0.0012
3753.00,0.0012
3752.00,0.0012
3751.00,0.0012
3750.00,0.0012
3749.00,0.0012
3748.00,0.0011
3747.00,0.0011
3746.00,0.0010
3745.00,0.0010
3744.00,0.0010
3743.00,0.0010
3742.00,0.0010
3741.00,0.0011
3740.00,0.0011
3739.00,0.0011
3738.00,0.0011
3737.00,0.0011
3736.00,0.0011
3735.00,0.0011
3734.00,0.0011
3733.00,0.0011
3732.00,0.0012
3731.00,0.0012
3730.00,0.0012
3729.00,0.0012
3728.00,0.0013
3727.00,0.0013
3726.00,0.0014
3725.00,0.0014
3724.00,0.0014
3723.00,0.0015
3722.00,0.0015
3721.00,0.0015
3720.00,0.0016
3719.00,0.0016
3718.00,0.0016
3717.00,0.0016
3716.00,0.0017
3715.00,0.0017
3714.00,0.0017
3713.00,0.0017
3712.00,0.0018
3711.00,0.0018
3710.00,0.0018
3709.00,0.0019
3708.00,0.0019
3707.00,0.0020
3706.00,0.0020
3705.00,0.0021
3704.00,0.0022
3703.00,0.0023
3702.00,0.0023
3701.00,0.0024
3700.00,0.0025
3699.00,0.0025
3698.00,0.0025
3697.00,0.0026
3696.00,0.0026
3695.00,0.0027
3694.00,0.0027
3693.00,0.0027
3692.00,0.0027
3691.00,0.0028
3690.00,0.0028
3689.00,0.0029
3688.00,0.0029
3687.00,0.0030
3686.00,0.0031
3685.00,0.0032
3684.00,0.0032
3683.00,0.0033
3682.00,0.0034
3681.00,0.0035
3680.00,0.0036
3679.00,0.0036
3678.00,0.0037
3677.00,0.0038
3676.00,0.0038
3675.00,0.0039
3674.00,0.0040
3673.00,0.0041
3672.00,0.0042
3671.00,0.0043
3670.00,0.0044
3669.00,0.0045
3668.00,0.0046
3667.00,0.0047
3666.00,0.0048
3665.00,0.0049
3664.00,0.0050
3663.00,0.0050
3662.00,0.0051
3661.00,0.0052
3660.00,0.0052
3659.00,0.0053
3658.00,0.0053
3657.00,0.0054
3656.00,0.0055
3655.00,0.0055
3654.00,0.0055
3653.00,0.0056
3652.00,0.0056
3651.00,0.0056
3650.00,0.0057
3649.00,0.0057
3648.00,0.0057
3647.00,0.0057
3646.00,0.0058
3645.00,0.0058
3644.00,0.0059
3643.00,0.0060
3642.00,0.0060
3641.00,0.0061
3640.00,0.0061
3639.00,0.0061
3638.00,0.0061
3637.00,0.0061
3636.00,0.0061
3635.00,0.0061
3634.00,0.0061
3633.00,0.0061
3632.00,0.0061
3631.00,0.0061
3630.00,0.0061
3629.00,0.0061
3628.00,0.0062
3627.00,0.0062
3626.00,0.0062
3625.00,0.0062
3624.00,0.0062
3623.00,0.0062
3622.00,0.0062
3621.00,0.0063
3620.00,0.0063
3619.00,0.0063
3618.00,0.0063
3617.00,0.0063
3616.00,0.0063
3615.00,0.0063
3614.00,0.0063
3613.00,0.0063
3612.00,0.0063
3611.00,0.0063
3610.00,0.0064
3609.00,0.0064
3608.00,0.0065
3607.00,0.0065
3606.00,0.0065
3605.00,0.0066
3604.00,0.0066
3603.00,0.0066
3602.00,0.0066
3601.00,0.0066
3600.00,0.0067
3599.00,0.0067
3598.00,0.0067
3597.00,0.0068
3596.00,0.0068
3595.00,0.0069
3594.00,0.0069
3593.00,0.0069
3592.00,0.0069
3591.00,0.0069
3590.00,0.0069
3589.00,0.0070
3588.00,0.0070
3587.00,0.0070
3586.00,0.0070
3585.00,0.0070
3584.00,0.0070
3583.00,0.0071
3582.00,0.0071
3581.00,0.0072
3580.00,0.0072
3579.00,0.0072
3578.00,0.0072
3577.00,0.0072
3576.00,0.0072
3575.00,0.0072
3574.00,0.0073
3573.00,0.0073
3572.00,0.0073
3571.00,0.0073
3570.00,0.0074
3569.00,0.0074
3568.00,0.0074
3567.00,0.0075
3566.00,0.0075
3565.00,0.0076
3564.00,0.0076
3563.00,0.0076
3562.00,0.0077
3561.00,0.0077
3560.00,0.0077
3559.00,0.0078
3558.00,0.0078
3557.00,0.0078
3556.00,0.0079
3555.00,0.0079
3554.00,0.0079
3553.00,0.0079
3552.00,0.0080
3551.00,0.0080
3550.00,0.0080
3549.00,0.0081
3548.00,0.0081
3547.00,0.0082
3546.00,0.0083
3545.00,0.0083
3544.00,0.0084
3543.00,0.0084
3542.00,0.0085
3541.00,0.0085
3540.00,0.0086
3539.00,0.0086
3538.00,0.0087
3537.00,0.0087
3536.00,0.0088
3535.00,0.0088
3534.00,0.0088
3533.00,0.0089
3532.00,0.0089
3531.00,0.0090
3530.00,0.0090
3529.00,0.0090
3528.00,0.0091
3527.00,0.0091
3526.00,0.0092
3525.00,0.0092
3524.00,0.0092
3523.00,0.0093
3522.00,0.0093
3521.00,0.0094
3520.00,0.0094
3519.00,0.0095
3518.00,0.0095
3517.00,0.0096
3516.00,0.0096
3515.00,0.0096
3514.00,0.0097
3513.00,0.0097
3512.00,0.0097
3511.00,0.0098
3510.00,0.0098
3509.00,0.0099
3508.00,0.0099
3507.00,0.0100
3506.00,0.0100
3505.00,0.0100
3504.00,0.0101
3503.00,0.0101
3502.00,0.0101
3501.00,0.0102
3500.00,0.0102
3499.00,0.0103
3498.00,0.0103
3497.00,0.0104
3496.00,0.0104
3495.00,0.0105
3494.00,0.0105
3493.00,0.0106
3492.00,0.0106
3491.00,0.0106
3490.00,0.0107
3489.00,0.0107
3488.00,0.0107
3487.00,0.0108
3486.00,0.0108
3485.00,0.0108
3484.00,0.0108
3483.00,0.0109
3482.00,0.0109
3481.00,0.0109
3480.00,0.0110
3479.00,0.0110
3478.00,0.0111
3477.00,0.0111
3476.00,0.0112
3475.00,0.0112
3474.00,0.0112
3473.00,0.0113
3472.00,0.0113
3471.00,0.0113
3470.00,0.0114
3469.00,0.0114
3468.00,0.0114
3467.00,0.0114
3466.00,0.0115
3465.00,0.0115
3464.00,0.0115
3463.00,0.0115
3462.00,0.0115
3461.00,0.0116
3460.00,0.0116
3459.00,0.0116
3458.00,0.0117
3457.00,0.0117
3456.00,0.0118
3455.00,0.0118
3454.00,0.0118
3453.00,0.0118
3452.00,0.0118
3451.00,0.0118
3450.00,0.0118
3449.00,0.0118
3448.00,0.0118
3447.00,0.0119
3446.00,0.0119
3445.00,0.0120
3444.00,0.0120
3443.00,0.0120
3442.00,0.0120
3441.00,0.0120
3440.00,0.0121
3439.00,0.0121
3438.00,0.0121
3437.00,0.0122
3436.00,0.0122
3435.00,0.0122
3434.00,0.0122
3433.00,0.0122
3432.00,0.0123
3431.00,0.0123
3430.00,0.0123
3429.00,0.0123
3428.00,0.0123
3427.00,0.0123
3426.00,0.0123
3425.00,0.0123
3424.00,0.0123
3423.00,0.0123
3422.00,0.0123
3421.00,0.0123
3420.00,0.0124
3419.00,0.0124
3418.00,0.0124
3417.00,0.0124
3416.00,0.0124
3415.00,0.0125
3414.00,0.0125
3413.00,0.0125
3412.00,0.0125
3411.00,0.0125
3410.00,0.0125
3409.00,0.0124
3408.00,0.0124
3407.00,0.0125
3406.00,0.0125
3405.00,0.0125
3404.00,0.0126
3403.00,0.0126
3402.00,0.0126
3401.00,0.0126
3400.00,0.0126
3399.00,0.0125
3398.00,0.0125
3397.00,0.0126
3396.00,0.0126
3395.00,0.0126
3394.00,0.0126
3393.00,0.0126
3392.00,0.0126
3391.00,0.0126
3390.00,0.0126
3389.00,0.0126
3388.00,0.0126
3387.00,0.0126
3386.00,0.0125
3385.00,0.0125
3384.00,0.0125
3383.00,0.0125
3382.00,0.0126
3381.00,0.0126
3380.00,0.0126
3379.00,0.0126
3378.00,0.0125
3377.00,0.0125
3376.00,0.0125
3375.00,0.0125
3374.00,0.0125
3373.00,0.0125
3372.00,0.0125
3371.00,0.0126
3370.00,0.0126
3369.00,0.0126
3368.00,0.0126
3367.00,0.0125
3366.00,0.0125
3365.00,0.0125
3364.00,0.0125
3363.00,0.0125
3362.00,0.0125
3361.00,0.0124
3360.00,0.0124
3359.00,0.0124
3358.00,0.0124
3357.00,0.0124
3356.00,0.0124
3355.00,0.0124
3354.00,0.0124
3353.00,0.0124
3352.00,0.0124
3351.00,0.0124
3350.00,0.0124
3349.00,0.0124
3348.00,0.0124
3347.00,0.0124
3346.00,0.0124
3345.00,0.0123
3344.00,0.0123
3343.00,0.0123
3342.00,0.0123
3341.00,0.0123
3340.00,0.0123
3339.00,0.0123
3338.00,0.0123
3337.00,0.0123
3336.00,0.0123
3335.00,0.0123
3334.00,0.0123
3333.00,0.0123
3332.00,0.0123
3331.00,0.0123
3330.00,0.0122
3329.00,0.0122
3328.00,0.0122
3327.00,0.0121
3326.00,0.0121
3325.00,0.0121
3324.00,0.0121
3323.00,0.0120
3322.00,0.0120
3321.00,0.0120
3320.00,0.0120
3319.00,0.0120
3318.00,0.0120
3317.00,0.0120
3316.00,0.0120
3315.00,0.0120
3314.00,0.0120
3313.00,0.0120
3312.00,0.0120
3311.00,0.0120
3310.00,0.0119
3309.00,0.0119
3308.00,0.0119
3307.00,0.0119
3306.00,0.0119
3305.00,0.0119
3304.00,0.0119
3303.00,0.0119
3302.00,0.0119
3301.00,0.0119
3300.00,0.0119
3299.00,0.0119
3298.00,0.0119
3297.00,0.0119
3296.00,0.0118
3295.00,0.0118
3294.00,0.0118
3293.00,0.0118
3292.00,0.0118
3291.00,0.0118
3290.00,0.0118
3289.00,0.0118
3288.00,0.0118
3287.00,0.0118
3286.00,0.0118
3285.00,0.0118
3284.00,0.0118
3283.00,0.0118
3282.00,0.0118
3281.00,0.0118
3280.00,0.0117
3279.00,0.0117
3278.00,0.0117
3277.00,0.0117
3276.00,0.0117
3275.00,0.0116
3274.00,0.0116
3273.00,0.0116
3272.00,0.0116
3271.00,0.0116
3270.00,0.0116
3269.00,0.0116
3268.00,0.0116
3267.00,0.0115
3266.00,0.0115
3265.00,0.0115
3264.00,0.0115
3263.00,0.0115
3262.00,0.0115
3261.00,0.0115
3260.00,0.0115
3259.00,0.0115
3258.00,0.0114
3257.00,0.0114
3256.00,0.0114
3255.00,0.0114
3254.00,0.0114
3253.00,0.0114
3252.00,0.0114
3251.00,0.0114
3250.00,0.0113
3249.00,0.0113
3248.00,0.0113
3247.00,0.0113
3246.00,0.0113
3245.00,0.0112
3244.00,0.0112
3243.00,0.0112
3242.00,0.0112
3241.00,0.0112
3240.00,0.0112
3239.00,0.0112
3238.00,0.0112
3237.00,0.0112
3236.00,0.0112
3235.00,0.0111
3234.00,0.0111
3233.00,0.0111
3232.00,0.0111
3231.00,0.0112
3230.00,0.0112
3229.00,0.0111
3228.00,0.0111
3227.00,0.0111
3226.00,0.0110
3225.00,0.0110
3224.00,0.0109
3223.00,0.0109
3222.00,0.0109
3221.00,0.0109
3220.00,0.0108
3219.00,0.0108
3218.00,0.0108
3217.00,0.0108
3216.00,0.0108
3215.00,0.0107
3214.00,0.0107
3213.00,0.0107
3212.00,0.0107
3211.00,0.0107
3210.00,0.0107
3209.00,0.0107
3208.00,0.0106
3207.00,0.0106
3206.00,0.0106
3205.00,0.0105
3204.00,0.0105
3203.00,0.0105
3202.00,0.0105
3201.00,0.0105
3200.00,0.0105
3199.00,0.0104
3198.00,0.0104
3197.00,0.0104
3196.00,0.0104
3195.00,0.0103
3194.00,0.0103
3193.00,0.0103
3192.00,0.0103
3191.00,0.0102
3190.00,0.0102
3189.00,0.0102
3188.00,0.0101
3187.00,0.0101
3186.00,0.0101
3185.00,0.0101
3184.00,0.0100
3183.00,0.0100
3182.00,0.0100
3181.00,0.0100
3180.00,0.0100
3179.00,0.0100
3178.00,0.0100
3177.00,0.0099
3176.00,0.0099
3175.00,0.0098
3174.00,0.0098
3173.00,0.0098
3172.00,0.0098
3171.00,0.0098
3170.00,0.0098
3169.00,0.0098
3168.00,0.0097
3167.00,0.0097
3166.00,0.0097
3165.00,0.0097
3164.00,0.0097
3163.00,0.0096
3162.00,0.0096
3161.00,0.0096
3160.00,0.0096
3159.00,0.0096
3158.00,0.0095
3157.00,0.0095
3156.00,0.0095
3155.00,0.0095
3154.00,0.0094
3153.00,0.0094
3152.00,0.0094
3151.00,0.0094
3150.00,0.0093
3149.00,0.0093
3148.00,0.0093
3147.00,0.0093
3146.00,0.0093
3145.00,0.0093
3144.00,0.0093
3143.00,0.0093
3142.00,0.0093
3141.00,0.0093
3140.00,0.0093
3139.00,0.0093
3138.00,0.0093
3137.00,0.0092
3136.00,0.0092
3135.00,0.0092
3134.00,0.0092
3133.00,0.0092
3132.00,0.0091
3131.00,0.0091
3130.00,0.0091
3129.00,0.0091
3128.00,0.0091
3127.00,0.0091
3126.00,0.0091
3125.00,0.0091
3124.00,0.0091
3123.00,0.0091
3122.00,0.0091
3121.00,0.0090
3120.00,0.0090
3119.00,0.0090
3118.00,0.0090
3117.00,0.0090
3116.00,0.0090
3115.00,0.0090
3114.00,0.0090
3113.00,0.0090
3112.00,0.0089
3111.00,0.0089
3110.00,0.0089
3109.00,0.0089
3108.00,0.0088
3107.00,0.0088
3106.00,0.0088
3105.00,0.0088
3104.00,0.0088
3103.00,0.0088
3102.00,0.0087
3101.00,0.0087
3100.00,0.0087
3099.00,0.0086
3098.00,0.0086
3097.00,0.0086
3096.00,0.0086
3095.00,0.0086
3094.00,0.0086
3093.00,0.0086
3092.00,0.0085
3091.00,0.0085
3090.00,0.0085
3089.00,0.0084
3088.00,0.0084
3087.00,0.0084
3086.00,0.0083
3085.00,0.0083
3084.00,0.0083
3083.00,0.0083
3082.00,0.0083
3081.00,0.0083
3080.00,0.0083
3079.00,0.0082
3078.00,0.0082
3077.00,0.0082
3076.00,0.0082
3075.00,0.0082
3074.00,0.0082
3073.00,0.0081
3072.00,0.0081
3071.00,0.0081
3070.00,0.0081
3069.00,0.0081
3068.00,0.0081
3067.00,0.0081
3066.00,0.0081
3065.00,0.0081
3064.00,0.0080
3063.00,0.0080
3062.00,0.0080
3061.00,0.0080
3060.00,0.0080
3059.00,0.0079
3058.00,0.0079
3057.00,0.0079
3056.00,0.0079
3055.00,0.0079
3054.00,0.0079
3053.00,0.0079
3052.00,0.0078
3051.00,0.0078
3050.00,0.0078
3049.00,0.0078
3048.00,0.0077
3047.00,0.0077
3046.00,0.0077
3045.00,0.0076
3044.00,0.0076
3043.00,0.0076
3042.00,0.0076
3041.00,0.0076
3040.00,0.0076
3039.00,0.0075
3038.00,0.0075
3037.00,0.0075
3036.00,0.0075
3035.00,0.0074
3034.00,0.0074
3033.00,0.0074
3032.00,0.0074
3031.00,0.0074
3030.00,0.0074
3029.00,0.0074
3028.00,0.0074
3027.00,0.0074
3026.00,0.0074
3025.00,0.0074
3024.00,0.0074
3023.00,0.0074
3022.00,0.0074
3021.00,0.0074
3020.00,0.0073
3019.00,0.0073
3018.00,0.0073
3017.00,0.0074
3016.00,0.0074
3015.00,0.0074
3014.00,0.0074
3013.00,0.0074
3012.00,0.0074
3011.00,0.0074
3010.00,0.0074
3009.00,0.0074
3008.00,0.0074
3007.00,0.0075
3006.00,0.0075
3005.00,0.0076
3004.00,0.0076
3003.00,0.0077
3002.00,0.0077
3001.00,0.0078
3000.00,0.0079
2999.00,0.0080
2998.00,0.0081
2997.00,0.0082
2996.00,0.0084
2995.00,0.0085
2994.00,0.0087
2993.00,0.0089
2992.00,0.0092
2991.00,0.0094
2990.00,0.0097
2989.00,0.0101
2988.00,0.0105
2987.00,0.0109
2986.00,0.0114
2985.00,0.0120
2984.00,0.0126
2983.00,0.0133
2982.00,0.0141
2981.00,0.0152
2980.00,0.0164
2979.00,0.0179
2978.00,0.0196
2977.00,0.0216
2976.00,0.0238
2975.00,0.0264
2974.00,0.0294
2973.00,0.0328
2972.00,0.0366
2971.00,0.0408
2970.00,0.0453
2969.00,0.0502
2968.00,0.0551
2967.00,0.0599
2966.00,0.0643
2965.00,0.0678
2964.00,0.0701
2963.00,0.0709
2962.00,0.0700
2961.00,0.0675
2960.00,0.0636
2959.00,0.0588
2958.00,0.0534
2957.00,0.0480
2956.00,0.0429
2955.00,0.0382
2954.00,0.0340
2953.00,0.0303
2952.00,0.0272
2951.00,0.0246
2950.00,0.0223
2949.00,0.0204
2948.00,0.0187
2947.00,0.0173
2946.00,0.0162
2945.00,0.0151
2944.00,0.0142
2943.00,0.0134
2942.00,0.0127
2941.00,0.0121
2940.00,0.0115
2939.00,0.0109
2938.00,0.0104
2937.00,0.0100
2936.00,0.0096
2935.00,0.0093
2934.00,0.0090
2933.00,0.0086
2932.00,0.0084
2931.00,0.0081
2930.00,0.0078
2929.00,0.0076
2928.00,0.0074
2927.00,0.0073
2926.00,0.0071
2925.00,0.0070
2924.00,0.0069
2923.00,0.0068
2922.00,0.0068
2921.00,0.0068
2920.00,0.0068
2919.00,0.0069
2918.00,0.0070
2917.00,0.0072
2916.00,0.0075
2915.00,0.0079
2914.00,0.0084
2913.00,0.0089
2912.00,0.0095
2911.00,0.0101
2910.00,0.0106
2909.00,0.0111
2908.00,0.0115
2907.00,0.0118
2906.00,0.0119
2905.00,0.0119
2904.00,0.0118
2903.00,0.0115
2902.00,0.0111
2901.00,0.0107
2900.00,0.0102
2899.00,0.0098
2898.00,0.0094
2897.00,0.0090
2896.00,0.0086
2895.00,0.0083
2894.00,0.0080
2893.00,0.0077
2892.00,0.0075
2891.00,0.0072
2890.00,0.0070
2889.00,0.0069
2888.00,0.0067
2887.00,0.0066
2886.00,0.0065
2885.00,0.0064
2884.00,0.0063
2883.00,0.0062
2882.00,0.0061
2881.00,0.0060
2880.00,0.0059
2879.00,0.0058
2878.00,0.0058
2877.00,0.0057
2876.00,0.0056
2875.00,0.0055
2874.00,0.0054
2873.00,0.0053
2872.00,0.0052
2871.00,0.0051
2870.00,0.0050
2869.00,0.0050
2868.00,0.0049
2867.00,0.0048
2866.00,0.0047
2865.00,0.0047
2864.00,0.0046
2863.00,0.0045
2862.00,0.0044
2861.00,0.0043
2860.00,0.0042
2859.00,0.0041
2858.00,0.0040
2857.00,0.0040
2856.00,0.0039
2855.00,0.0038
2854.00,0.0037
2853.00,0.0036
2852.00,0.0034
2851.00,0.0033
2850.00,0.0032
2849.00,0.0032
2848.00,0.0033
2847.00,0.0034
2846.00,0.0036
2845.00,0.0037
2844.00,0.0039
2843.00,0.0040
2842.00,0.0041
2841.00,0.0041
2840.00,0.0041
2839.00,0.0041
2838.00,0.0042
2837.00,0.0041
2836.00,0.0041
2835.00,0.0041
2834.00,0.0042
2833.00,0.0042
2832.00,0.0042
2831.00,0.0042
2830.00,0.0042
2829.00,0.0042
2828.00,0.0042
2827.00,0.0041
2826.00,0.0041
2825.00,0.0041
2824.00,0.0041
2823.00,0.0041
2822.00,0.0041
2821.00,0.0042
2820.00,0.0042
2819.00,0.0042
2818.00,0.0042
2817.00,0.0042
2816.00,0.0042
2815.00,0.0042
2814.00,0.0042
2813.00,0.0041
2812.00,0.0041
2811.00,0.0041
2810.00,0.0041
2809.00,0.0041
2808.00,0.0041
2807.00,0.0041
2806.00,0.0041
2805.00,0.0041
2804.00,0.0041
2803.00,0.0041
2802.00,0.0041
2801.00,0.0041
2800.00,0.0040
2799.00,0.0040
2798.00,0.0040
2797.00,0.0040
2796.00,0.0040
2795.00,0.0040
2794.00,0.0039
2793.00,0.0039
2792.00,0.0039
2791.00,0.0038
2790.00,0.0037
2789.00,0.0037
2788.00,0.0036
2787.00,0.0036
2786.00,0.0035
2785.00,0.0034
2784.00,0.0034
2783.00,0.0033
2782.00,0.0033
2781.00,0.0032
2780.00,0.0032
2779.00,0.0031
2778.00,0.0030
2777.00,0.0030
2776.00,0.0029
2775.00,0.0029
2774.00,0.0028
2773.00,0.0028
2772.00,0.0028
2771.00,0.0028
2770.00,0.0028
2769.00,0.0027
2768.00,0.0027
2767.00,0.0027
2766.00,0.0026
2765.00,0.0026
2764.00,0.0026
2763.00,0.0025
2762.00,0.0025
2761.00,0.0025
2760.00,0.0025
2759.00,0.0025
2758.00,0.0024
2757.00,0.0024
2756.00,0.0024
2755.00,0.0024
2754.00,0.0024
2753.00,0.0024
2752.00,0.0024
2751.00,0.0024
2750.00,0.0024
2749.00,0.0024
2748.00,0.0023
2747.00,0.0023
2746.00,0.0023
2745.00,0.0023
2744.00,0.0023
2743.00,0.0023
2742.00,0.0023
2741.00,0.0023
2740.00,0.0022
2739.00,0.0022
2738.00,0.0022
2737.00,0.0022
2736.00,0.0021
2735.00,0.0021
2734.00,0.0021
2733.00,0.0021
2732.00,0.0021
2731.00,0.0022
2730.00,0.0022
2729.00,0.0021
2728.00,0.0021
2727.00,0.0021
2726.00,0.0021
2725.00,0.0021
2724.00,0.0021
2723.00,0.0020
2722.00,0.0020
2721.00,0.0020
2720.00,0.0020
2719.00,0.0020
2718.00,0.0020
2717.00,0.0020
2716.00,0.0021
2715.00,0.0020
2714.00,0.0020
2713.00,0.0020
2712.00,0.0020
2711.00,0.0020
2710.00,0.0020
2709.00,0.0020
2708.00,0.0020
2707.00,0.0020
2706.00,0.0020
2705.00,0.0020
2704.00,0.0020
2703.00,0.0020
2702.00,0.0020
2701.00,0.0020
2700.00,0.0020
2699.00,0.0020
2698.00,0.0020
2697.00,0.0020
2696.00,0.0020
2695.00,0.0020
2694.00,0.0020
2693.00,0.0019
2692.00,0.0019
2691.00,0.0019
2690.00,0.0019
2689.00,0.0019
2688.00,0.0019
2687.00,0.0019
2686.00,0.0019
2685.00,0.0019
2684.00,0.0019
2683.00,0.0019
2682.00,0.0019
2681.00,0.0019
2680.00,0.0019
2679.00,0.0019
2678.00,0.0019
2677.00,0.0019
2676.00,0.0019
2675.00,0.0019
2674.00,0.0020
2673.00,0.0020
2672.00,0.0020
2671.00,0.0020
2670.00,0.0020
2669.00,0.0020
2668.00,0.0020
2667.00,0.0020
2666.00,0.0020
2665.00,0.0020
2664.00,0.0020
2663.00,0.0020
2662.00,0.0020
2661.00,0.0020
2660.00,0.0020
2659.00,0.0020
2658.00,0.0020
2657.00,0.0019
2656.00,0.0019
2655.00,0.0019
2654.00,0.0019
2653.00,0.0018
2652.00,0.0018
2651.00,0.0018
2650.00,0.0018
2649.00,0.0017
2648.00,0.0017
2647.00,0.0017
2646.00,0.0017
2645.00,0.0016
2644.00,0.0016
2643.00,0.0016
2642.00,0.0016
2641.00,0.0016
2640.00,0.0016
2639.00,0.0015
2638.00,0.0015
2637.00,0.0015
2636.00,0.0015
2635.00,0.0014
2634.00,0.0014
2633.00,0.0014
2632.00,0.0014
2631.00,0.0014
2630.00,0.0014
2629.00,0.0014
2628.00,0.0014
2627.00,0.0014
2626.00,0.0014
2625.00,0.0013
2624.00,0.0013
2623.00,0.0013
2622.00,0.0013
2621.00,0.0013
2620.00,0.0013
2619.00,0.0013
2618.00,0.0013
2617.00,0.0013
2616.00,0.0012
2615.00,0.0012
2614.00,0.0012
2613.00,0.0012
2612.00,0.0012
2611.00,0.0012
2610.00,0.0012
2609.00,0.0012
2608.00,0.0012
2607.00,0.0012
2606.00,0.0012
2605.00,0.0012
2604.00,0.0012
2603.00,0.0011
2602.00,0.0011
2601.00,0.0011
2600.00,0.0011
2599.00,0.0011
2598.00,0.0011
2597.00,0.0011
2596.00,0.0011
2595.00,0.0011
2594.00,0.0011
2593.00,0.0011
2592.00,0.0011
2591.00,0.0011
2590.00,0.0011
2589.00,0.0012
2588.00,0.0012
2587.00,0.0011
2586.00,0.0011
2585.00,0.0011
2584.00,0.0011
2583.00,0.0011
2582.00,0.0011
2581.00,0.0011
2580.00,0.0011
2579.00,0.0011
2578.00,0.0010
2577.00,0.0010
2576.00,0.0010
2575.00,0.0010
2574.00,0.0011
2573.00,0.0011
2572.00,0.0011
2571.00,0.0011
2570.00,0.0011
2569.00,0.0011
2568.00,0.0011
2567.00,0.0011
2566.00,0.0011
2565.00,0.0011
2564.00,0.0011
2563.00,0.0011
2562.00,0.0010
2561.00,0.0010
2560.00,0.0011
2559.00,0.0011
2558.00,0.0011
2557.00,0.0011
2556.00,0.0011
2555.00,0.0011
2554.00,0.0011
2553.00,0.0011
2552.00,0.0011
2551.00,0.0011
2550.00,0.0011
2549.00,0.0011
2548.00,0.0011
2547.00,0.0011
2546.00,0.0011
2545.00,0.0011
2544.00,0.0011
2543.00,0.0011
2542.00,0.0011
2541.00,0.0011
2540.00,0.0011
2539.00,0.0011
2538.00,0.0011
2537.00,0.0011
2536.00,0.0011
2535.00,0.0012
2534.00,0.0012
2533.00,0.0012
2532.00,0.0012
2531.00,0.0012
2530.00,0.0012
2529.00,0.0012
2528.00,0.0013
2527.00,0.0013
2526.00,0.0014
2525.00,0.0014
2524.00,0.0014
2523.00,0.0013
2522.00,0.0013
2521.00,0.0013
2520.00,0.0013
2519.00,0.0013
2518.00,0.0013
2517.00,0.0013
2516.00,0.0013
2515.00,0.0014
2514.00,0.0014
2513.00,0.0014
2512.00,0.0014
2511.00,0.0014
2510.00,0.0014
2509.00,0.0014
2508.00,0.0014
2507.00,0.0014
2506.00,0.0014
2505.00,0.0015
2504.00,0.0015
2503.00,0.0015
2502.00,0.0015
2501.00,0.0015
2500.00,0.0015
2499.00,0.0015
2498.00,0.0014
2497.00,0.0014
2496.00,0.0014
2495.00,0.0014
2494.00,0.0013
2493.00,0.0013
2492.00,0.0013
2491.00,0.0012
2490.00,0.0012
2489.00,0.0012
2488.00,0.0012
2487.00,0.0011
2486.00,0.0011
2485.00,0.0011
2484.00,0.0011
2483.00,0.0011
2482.00,0.0012
2481.00,0.0012
2480.00,0.0011
2479.00,0.0011
2478.00,0.0011
2477.00,0.0011
2476.00,0.0011
2475.00,0.0011
2474.00,0.0011
2473.00,0.0011
2472.00,0.0011
2471.00,0.0011
2470.00,0.0011
2469.00,0.0011
2468.00,0.0011
2467.00,0.0010
2466.00,0.0010
2465.00,0.0010
2464.00,0.0010
2463.00,0.0010
2462.00,0.0011
2461.00,0.0011
2460.00,0.0010
2459.00,0.0010
2458.00,0.0010
2457.00,0.0010
2456.00,0.0010
2455.00,0.0010
2454.00,0.0010
2453.00,0.0011
2452.00,0.0011
2451.00,0.0011
2450.00,0.0010
2449.00,0.0010
2448.00,0.0010
2447.00,0.0010
2446.00,0.0010
2445.00,0.0010
2444.00,0.0010
2443.00,0.0010
2442.00,0.0010
2441.00,0.0010
2440.00,0.0009
2439.00,0.0009
2438.00,0.0009
2437.00,0.0009
2436.00,0.0009
2435.00,0.0010
2434.00,0.0010
2433.00,0.0010
2432.00,0.0010
2431.00,0.0010
2430.00,0.0010
2429.00,0.0010
2428.00,0.0010
2427.00,0.0010
2426.00,0.0010
2425.00,0.0010
2424.00,0.0010
2423.00,0.0010
2422.00,0.0010
2421.00,0.0010
2420.00,0.0010
2419.00,0.0010
2418.00,0.0010
2417.00,0.0010
2416.00,0.0010
2415.00,0.0010
2414.00,0.0010
2413.00,0.0009
2412.00,0.0009
2411.00,0.0009
2410.00,0.0009
2409.00,0.0010
2408.00,0.0010
2407.00,0.0010
2406.00,0.0010
2405.00,0.0010
2404.00,0.0010
2403.00,0.0010
2402.00,0.0010
2401.00,0.0010
2400.00,0.0010
2399.00,0.0010
2398.00,0.0010
2397.00,0.0010
2396.00,0.0010
2395.00,0.0010
2394.00,0.0010
2393.00,0.0010
2392.00,0.0010
2391.00,0.0010
2390.00,0.0010
2389.00,0.0010
2388.00,0.0010
2387.00,0.0010
2386.00,0.0010
2385.00,0.0010
2384.00,0.0010
2383.00,0.0010
2382.00,0.0010
2381.00,0.0011
2380.00,0.0011
2379.00,0.0010
2378.00,0.0010
2377.00,0.0010
2376.00,0.0010
2375.00,0.0010
2374.00,0.0010
2373.00,0.0010
2372.00,0.0010
2371.00,0.0010
2370.00,0.0010
2369.00,0.0011
2368.00,0.0011
2367.00,0.0011
2366.00,0.0011
2365.00,0.0011
2364.00,0.0011
2363.00,0.0011
2362.00,0.0011
2361.00,0.0011
2360.00,0.0011
2359.00,0.0011
2358.00,0.0011
2357.00,0.0011
2356.00,0.0011
2355.00,0.0011
2354.00,0.0011
2353.00,0.0012
2352.00,0.0012
2351.00,0.0012
2350.00,0.0012
2349.00,0.0012
2348.00,0.0011
2347.00,0.0012
2346.00,0.0012
2345.00,0.0012
2344.00,0.0012
2343.00,0.0011
2342.00,0.0011
2341.00,0.0011
2340.00,0.0011
2339.00,0.0011
2338.00,0.0012
2337.00,0.0012
2336.00,0.0012
2335.00,0.0012
2334.00,0.0012
2333.00,0.0012
2332.00,0.0012
2331.00,0.0012
2330.00,0.0012
2329.00,0.0012
2328.00,0.0013
2327.00,0.0013
2326.00,0.0013
2325.00,0.0013
2324.00,0.0013
2323.00,0.0013
2322.00,0.0012
2321.00,0.0012
2320.00,0.0012
2319.00,0.0012
2318.00,0.0012
2317.00,0.0012
2316.00,0.0012
2315.00,0.0012
2314.00,0.0012
2313.00,0.0011
2312.00,0.0011
2311.00,0.0011
2310.00,0.0011
2309.00,0.0011
2308.00,0.0011
2307.00,0.0011
2306.00,0.0011
2305.00,0.0011
2304.00,0.0011
2303.00,0.0011
2302.00,0.0011
2301.00,0.0010
2300.00,0.0010
2299.00,0.0010
2298.00,0.0010
2297.00,0.0010
2296.00,0.0010
2295.00,0.0010
2294.00,0.0010
2293.00,0.0010
2292.00,0.0010
2291.00,0.0010
2290.00,0.0010
2289.00,0.0010
2288.00,0.0010
2287.00,0.0009
2286.00,0.0009
2285.00,0.0009
2284.00,0.0009
2283.00,0.0009
2282.00,0.0009
2281.00,0.0009
2280.00,0.0009
2279.00,0.0008
2278.00,0.0008
2277.00,0.0007
2276.00,0.0007
2275.00,0.0007
2274.00,0.0007
2273.00,0.0007
2272.00,0.0007
2271.00,0.0006
2270.00,0.0006
2269.00,0.0006
2268.00,0.0006
2267.00,0.0006
2266.00,0.0006
2265.00,0.0006
2264.00,0.0005
2263.00,0.0005
2262.00,0.0005
2261.00,0.0005
2260.00,0.0006
2259.00,0.0006
2258.00,0.0006
2257.00,0.0005
2256.00,0.0005
2255.00,0.0004
2254.00,0.0004
2253.00,0.0004
2252.00,0.0004
2251.00,0.0004
2250.00,0.0003
2249.00,0.0004
2248.00,0.0004
2247.00,0.0004
2246.00,0.0004
2245.00,0.0004
2244.00,0.0004
2243.00,0.0003
2242.00,0.0003
2241.00,0.0003
2240.00,0.0002
2239.00,0.0002
2238.00,0.0002
2237.00,0.0002
2236.00,0.0002
2235.00,0.0002
2234.00,0.0002
2233.00,0.0002
2232.00,0.0001
2231.00,0.0001
2230.00,0.0000
2229.00,-0.0000
2228.00,0.0000
2227.00,0.0001
2226.00,0.0001
2225.00,0.0001
2224.00,0.0002
2223.00,0.0002
2222.00,0.0001
2221.00,0.0000
2220.00,-0.0001
2219.00,-0.0003
2218.00,-0.0005
2217.00,-0.0006
2216.00,-0.0005
2215.00,-0.0004
2214.00,-0.0004
2213.00,-0.0004
2212.00,-0.0004
2211.00,-0.0004
2210.00,-0.0004
2209.00,-0.0004
2208.00,-0.0005
2207.00,-0.0005
2206.00,-0.0005
2205.00,-0.0004
2204.00,-0.0005
2203.00,-0.0005
2202.00,-0.0005
2201.00,-0.0006
2200.00,-0.0007
2199.00,-0.0008
2198.00,-0.0008
2197.00,-0.0008
2196.00,-0.0008
2195.00,-0.0008
2194.00,-0.0008
2193.00,-0.0009
2192.00,-0.0009
2191.00,-0.0010
2190.00,-0.0011
2189.00,-0.0012
2188.00,-0.0013
2187.00,-0.0014
2186.00,-0.0015
2185.00,-0.0015
2184.00,-0.0015
2183.00,-0.0015
2182.00,-0.0014
2181.00,-0.0014
2180.00,-0.0014
2179.00,-0.0014
2178.00,-0.0015
2177.00,-0.0017
2176.00,-0.0018
2175.00,-0.0018
2174.00,-0.0017
2173.00,-0.0015
2172.00,-0.0013
2171.00,-0.0012
2170.00,-0.0012
2169.00,-0.0013
2168.00,-0.0014
2167.00,-0.0017
2166.00,-0.0019
2165.00,-0.0022
2164.00,-0.0023
2163.00,-0.0024
2162.00,-0.0025
2161.00,-0.0027
2160.00,-0.0028
2159.00,-0.0029
2158.00,-0.0029
2157.00,-0.0029
2156.00,-0.0027
2155.00,-0.0025
2154.00,-0.0023
2153.00,-0.0021
2152.00,-0.0020
2151.00,-0.0020
2150.00,-0.0019
2149.00,-0.0017
2148.00,-0.0016
2147.00,-0.0015
2146.00,-0.0015
2145.00,-0.0015
2144.00,-0.0014
2143.00,-0.0014
2142.00,-0.0013
2141.00,-0.0013
2140.00,-0.0014
2139.00,-0.0013
2138.00,-0.0013
2137.00,-0.0012
2136.00,-0.0011
2135.00,-0.0010
2134.00,-0.0009
2133.00,-0.0008
2132.00,-0.0007
2131.00,-0.0007
2130.00,-0.0007
2129.00,-0.0007
2128.00,-0.0007
2127.00,-0.0007
2126.00,-0.0006
2125.00,-0.0005
2124.00,-0.0004
2123.00,-0.0004
2122.00,-0.0003
2121.00,-0.0003
2120.00,-0.0002
2119.00,-0.0002
2118.00,-0.0002
2117.00,-0.0003
2116.00,-0.0003
2115.00,-0.0003
2114.00,-0.0004
2113.00,-0.0004
2112.00,-0.0004
2111.00,-0.0005
2110.00,-0.0005
2109.00,-0.0005
2108.00,-0.0005
2107.00,-0.0004
2106.00,-0.0004
2105.00,-0.0004
2104.00,-0.0004
2103.00,-0.0004
2102.00,-0.0003
2101.00,-0.0003
2100.00,-0.0003
2099.00,-0.0003
2098.00,-0.0003
2097.00,-0.0004
2096.00,-0.0004
2095.00,-0.0004
2094.00,-0.0004
2093.00,-0.0004
2092.00,-0.0004
2091.00,-0.0004
2090.00,-0.0005
2089.00,-0.0005
2088.00,-0.0006
2087.00,-0.0006
2086.00,-0.0006
2085.00,-0.0005
2084.00,-0.0005
2083.00,-0.0005
2082.00,-0.0005
2081.00,-0.0006
2080.00,-0.0007
2079.00,-0.0008
2078.00,-0.0008
2077.00,-0.0009
2076.00,-0.0009
2075.00,-0.0010
2074.00,-0.0010
2073.00,-0.0009
2072.00,-0.0009
2071.00,-0.0009
2070.00,-0.0010
2069.00,-0.0009
2068.00,-0.0010
2067.00,-0.0010
2066.00,-0.0011
2065.00,-0.0011
2064.00,-0.0012
2063.00,-0.0013
2062.00,-0.0013
2061.00,-0.0012
2060.00,-0.0012
2059.00,-0.0012
2058.00,-0.0013
2057.00,-0.0014
2056.00,-0.0015
2055.00,-0.0015
2054.00,-0.0015
2053.00,-0.0015
2052.00,-0.0016
2051.00,-0.0017
2050.00,-0.0018
2049.00,-0.0020
2048.00,-0.0022
2047.00,-0.0023
2046.00,-0.0026
2045.00,-0.0028
2044.00,-0.0030
2043.00,-0.0033
2042.00,-0.0035
2041.00,-0.0036
2040.00,-0.0037
2039.00,-0.0039
2038.00,-0.0041
2037.00,-0.0043
2036.00,-0.0045
2035.00,-0.0047
2034.00,-0.0048
2033.00,-0.0049
2032.00,-0.0049
2031.00,-0.0050
2030.00,-0.0050
2029.00,-0.0050
2028.00,-0.0050
2027.00,-0.0051
2026.00,-0.0052
2025.00,-0.0053
2024.00,-0.0053
2023.00,-0.0053
2022.00,-0.0052
2021.00,-0.0051
2020.00,-0.0050
2019.00,-0.0050
2018.00,-0.0051
2017.00,-0.0051
2016.00,-0.0050
2015.00,-0.0050
2014.00,-0.0050
2013.00,-0.0050
2012.00,-0.0050
2011.00,-0.0049
2010.00,-0.0048
2009.00,-0.0047
2008.00,-0.0047
2007.00,-0.0046
2006.00,-0.0045
2005.00,-0.0043
2004.00,-0.0041
2003.00,-0.0039
2002.00,-0.0037
2001.00,-0.0036
2000.00,-0.0035
1999.00,-0.0035
1998.00,-0.0035
1997.00,-0.0033
1996.00,-0.0032
1995.00,-0.0032
1994.00,-0.0033
1993.00,-0.0034
1992.00,-0.0035
1991.00,-0.0035
1990.00,-0.0034
1989.00,-0.0033
1988.00,-0.0031
1987.00,-0.0029
1986.00,-0.0027
1985.00,-0.0027
1984.00,-0.0026
1983.00,-0.0027
1982.00,-0.0029
1981.00,-0.0032
1980.00,-0.0035
1979.00,-0.0037
1978.00,-0.0037
1977.00,-0.0036
1976.00,-0.0034
1975.00,-0.0031
1974.00,-0.0029
1973.00,-0.0026
1972.00,-0.0024
1971.00,-0.0022
1970.00,-0.0022
1969.00,-0.0021
1968.00,-0.0019
1967.00,-0.0018
1966.00,-0.0015
1965.00,-0.0013
1964.00,-0.0011
1963.00,-0.0010
1962.00,-0.0009
1961.00,-0.0008
1960.00,-0.0006
1959.00,-0.0003
1958.00,-0.0001
1957.00,0.0000
1956.00,0.0002
1955.00,0.0003
1954.00,0.0005
1953.00,0.0006
1952.00,0.0007
1951.00,0.0008
1950.00,0.0009
1949.00,0.0010
1948.00,0.0011
1947.00,0.0011
1946.00,0.0012
1945.00,0.0013
1944.00,0.0015
1943.00,0.0016
1942.00,0.0016
1941.00,0.0016
1940.00,0.0017
1939.00,0.0017
1938.00,0.0017
1937.00,0.0016
1936.00,0.0016
1935.00,0.0016
1934.00,0.0016
1933.00,0.0016
1932.00,0.0017
1931.00,0.0017
1930.00,0.0017
1929.00,0.0017
1928.00,0.0017
1927.00,0.0017
1926.00,0.0017
1925.00,0.0017
1924.00,0.0017
1923.00,0.0017
1922.00,0.0018
1921.00,0.0018
1920.00,0.0018
1919.00,0.0019
1918.00,0.0019
1917.00,0.0020
1916.00,0.0020
1915.00,0.0021
1914.00,0.0021
1913.00,0.0021
1912.00,0.0021
1911.00,0.0022
1910.00,0.0022
1909.00,0.0022
1908.00,0.0021
1907.00,0.0021
1906.00,0.0021
1905.00,0.0021
1904.00,0.0022
1903.00,0.0023
1902.00,0.0023
1901.00,0.0024
1900.00,0.0024
1899.00,0.0024
1898.00,0.0024
1897.00,0.0024
1896.00,0.0025
1895.00,0.0026
1894.00,0.0026
1893.00,0.0027
1892.00,0.0027
1891.00,0.0027
1890.00,0.0027
1889.00,0.0028
1888.00,0.0028
1887.00,0.0028
1886.00,0.0029
1885.00,0.0029
1884.00,0.0029
1883.00,0.0030
1882.00,0.0030
1881.00,0.0031
1880.00,0.0031
1879.00,0.0031
1878.00,0.0031
1877.00,0.0031
1876.00,0.0031
1875.00,0.0031
1874.00,0.0031
1873.00,0.0031
1872.00,0.0031
1871.00,0.0031
1870.00,0.0031
1869.00,0.0031
1868.00,0.0032
1867.00,0.0032
1866.00,0.0032
1865.00,0.0032
1864.00,0.0032
1863.00,0.0031
1862.00,0.0031
1861.00,0.0031
1860.00,0.0031
1859.00,0.0031
1858.00,0.0030
1857.00,0.0030
1856.00,0.0030
1855.00,0.0030
1854.00,0.0030
1853.00,0.0030
1852.00,0.0030
1851.00,0.0029
1850.00,0.0029
1849.00,0.0029
1848.00,0.0029
1847.00,0.0029
1846.00,0.0029
1845.00,0.0028
1844.00,0.0028
1843.00,0.0028
1842.00,0.0028
1841.00,0.0028
1840.00,0.0028
1839.00,0.0028
1838.00,0.0028
1837.00,0.0028
1836.00,0.0028
1835.00,0.0028
1834.00,0.0028
1833.00,0.0028
1832.00,0.0028
1831.00,0.0028
1830.00,0.0028
1829.00,0.0028
1828.00,0.0028
1827.00,0.0028
1826.00,0.0027
1825.00,0.0027
1824.00,0.0027
1823.00,0.0027
1822.00,0.0027
1821.00,0.0028
1820.00,0.0028
1819.00,0.0029
1818.00,0.0029
1817.00,0.0029
1816.00,0.0029
1815.00,0.0029
1814.00,0.0029
1813.00,0.0029
1812.00,0.0030
1811.00,0.0030
1810.00,0.0030
1809.00,0.0031
1808.00,0.0031
1807.00,0.0032
1806.00,0.0032
1805.00,0.0032
1804.00,0.0032
1803.00,0.0032
1802.00,0.0032
1801.00,0.0033
1800.00,0.0033
1799.00,0.0033
1798.00,0.0033
1797.00,0.0034
1796.00,0.0034
1795.00,0.0035
1794.00,0.0035
1793.00,0.0035
1792.00,0.0035
1791.00,0.0035
1790.00,0.0035
1789.00,0.0035
1788.00,0.0036
1787.00,0.0036
1786.00,0.0036
1785.00,0.0037
1784.00,0.0037
1783.00,0.0038
1782.00,0.0038
1781.00,0.0038
1780.00,0.0038
1779.00,0.0038
1778.00,0.0038
1777.00,0.0039
1776.00,0.0039
1775.00,0.0039
1774.00,0.0039
1773.00,0.0039
1772.00,0.0039
1771.00,0.0039
1770.00,0.0039
1769.00,0.0039
1768.00,0.0039
1767.00,0.0039
1766.00,0.0039
1765.00,0.0039
1764.00,0.0039
1763.00,0.0039
1762.00,0.0039
1761.00,0.0039
1760.00,0.0039
1759.00,0.0039
1758.00,0.0039
1757.00,0.0039
1756.00,0.0039
1755.00,0.0038
1754.00,0.0038
1753.00,0.0038
1752.00,0.0039
1751.00,0.0039
1750.00,0.0039
1749.00,0.0039
1748.00,0.0039
1747.00,0.0040
1746.00,0.0040
1745.00,0.0040
1744.00,0.0040
1743.00,0.0040
1742.00,0.0040
1741.00,0.0041
1740.00,0.0041
1739.00,0.0041
1738.00,0.0041
1737.00,0.0042
1736.00,0.0042
1735.00,0.0042
1734.00,0.0043
1733.00,0.0043
1732.00,0.0044
1731.00,0.0044
1730.00,0.0044
1729.00,0.0045
1728.00,0.0046
1727.00,0.0046
1726.00,0.0047
1725.00,0.0047
1724.00,0.0047
1723.00,0.0048
1722.00,0.0048
1721.00,0.0049
1720.00,0.0049
1719.00,0.0050
1718.00,0.0050
1717.00,0.0050
1716.00,0.0051
1715.00,0.0051
1714.00,0.0051
1713.00,0.0051
1712.00,0.0051
1711.00,0.0052
1710.00,0.0052
1709.00,0.0053
1708.00,0.0053
1707.00,0.0054
1706.00,0.0055
1705.00,0.0055
1704.00,0.0056
1703.00,0.0056
1702.00,0.0057
1701.00,0.0057
1700.00,0.0059
1699.00,0.0060
1698.00,0.0062
1697.00,0.0063
1696.00,0.0064
1695.00,0.0065
1694.00,0.0066
1693.00,0.0067
1692.00,0.0068
1691.00,0.0069
1690.00,0.0070
1689.00,0.0072
1688.00,0.0073
1687.00,0.0074
1686.00,0.0075
1685.00,0.0076
1684.00,0.0078
1683.00,0.0078
1682.00,0.0079
1681.00,0.0079
1680.00,0.0081
1679.00,0.0082
1678.00,0.0082
1677.00,0.0083
1676.00,0.0084
1675.00,0.0084
1674.00,0.0085
1673.00,0.0086
1672.00,0.0087
1671.00,0.0087
1670.00,0.0088
1669.00,0.0089
1668.00,0.0090
1667.00,0.0090
1666.00,0.0091
1665.00,0.0092
1664.00,0.0093
1663.00,0.0094
1662.00,0.0094
1661.00,0.0095
1660.00,0.0096
1659.00,0.0096
1658.00,0.0097
1657.00,0.0097
1656.00,0.0097
1655.00,0.0098
1654.00,0.0099
1653.00,0.0101
1652.00,0.0102
1651.00,0.0103
1650.00,0.0103
1649.00,0.0104
1648.00,0.0104
1647.00,0.0105
1646.00,0.0105
1645.00,0.0106
1644.00,0.0106
1643.00,0.0106
1642.00,0.0107
1641.00,0.0107
1640.00,0.0108
1639.00,0.0108
1638.00,0.0109
1637.00,0.0109
1636.00,0.0110
1635.00,0.0110
1634.00,0.0111
1633.00,0.0111
1632.00,0.0111
1631.00,0.0112
1630.00,0.0112
1629.00,0.0112
1628.00,0.0112
1627.00,0.0111
1626.00,0.0111
1625.00,0.0111
1624.00,0.0110
1623.00,0.0110
1622.00,0.0110
1621.00,0.0109
1620.00,0.0108
1619.00,0.0107
1618.00,0.0106
1617.00,0.0106
1616.00,0.0105
1615.00,0.0104
1614.00,0.0103
1613.00,0.0102
1612.00,0.0101
1611.00,0.0100
1610.00,0.0098
1609.00,0.0097
1608.00,0.0095
1607.00,0.0094
1606.00,0.0092
1605.00,0.0091
1604.00,0.0090
1603.00,0.0089
1602.00,0.0088
1601.00,0.0086
1600.00,0.0085
1599.00,0.0084
1598.00,0.0084
1597.00,0.0083
1596.00,0.0082
1595.00,0.0081
1594.00,0.0080
1593.00,0.0079
1592.00,0.0079
1591.00,0.0078
1590.00,0.0077
1589.00,0.0076
1588.00,0.0076
1587.00,0.0075
1586.00,0.0075
1585.00,0.0074
1584.00,0.0073
1583.00,0.0073
1582.00,0.0073
1581.00,0.0072
1580.00,0.0072
1579.00,0.0072
1578.00,0.0071
1577.00,0.0071
1576.00,0.0070
1575.00,0.0069
1574.00,0.0069
1573.00,0.0068
1572.00,0.0067
1571.00,0.0067
1570.00,0.0066
1569.00,0.0065
1568.00,0.0064
1567.00,0.0064
1566.00,0.0064
1565.00,0.0063
1564.00,0.0063
1563.00,0.0063
1562.00,0.0062
1561.00,0.0061
1560.00,0.0058
1559.00,0.0057
1558.00,0.0058
1557.00,0.0059
1556.00,0.0060
1555.00,0.0060
1554.00,0.0061
1553.00,0.0061
1552.00,0.0061
1551.00,0.0062
1550.00,0.0062
1549.00,0.0062
1548.00,0.0062
1547.00,0.0063
1546.00,0.0063
1545.00,0.0063
1544.00,0.0063
1543.00,0.0064
1542.00,0.0063
1541.00,0.0064
1540.00,0.0064
1539.00,0.0064
1538.00,0.0064
1537.00,0.0064
1536.00,0.0064
1535.00,0.0064
1534.00,0.0064
1533.00,0.0064
1532.00,0.0063
1531.00,0.0063
1530.00,0.0063
1529.00,0.0063
1528.00,0.0063
1527.00,0.0063
1526.00,0.0063
1525.00,0.0063
1524.00,0.0064
1523.00,0.0064
1522.00,0.0064
1521.00,0.0063
1520.00,0.0063
1519.00,0.0063
1518.00,0.0063
1517.00,0.0063
1516.00,0.0063
1515.00,0.0063
1514.00,0.0063
1513.00,0.0063
1512.00,0.0063
1511.00,0.0063
1510.00,0.0063
1509.00,0.0064
1508.00,0.0064
1507.00,0.0064
1506.00,0.0064
1505.00,0.0064
1504.00,0.0065
1503.00,0.0065
1502.00,0.0065
1501.00,0.0065
1500.00,0.0065
1499.00,0.0066
1498.00,0.0066
1497.00,0.0066
1496.00,0.0066
1495.00,0.0067
1494.00,0.0067
1493.00,0.0067
1492.00,0.0068
1491.00,0.0069
1490.00,0.0069
1489.00,0.0070
1488.00,0.0071
1487.00,0.0072
1486.00,0.0072
1485.00,0.0073
1484.00,0.0073
1483.00,0.0073
1482.00,0.0074
1481.00,0.0074
1480.00,0.0074
1479.00,0.0075
1478.00,0.0075
1477.00,0.0074
1476.00,0.0074
1475.00,0.0074
1474.00,0.0074
1473.00,0.0074
1472.00,0.0074
1471.00,0.0074
1470.00,0.0074
1469.00,0.0074
1468.00,0.0074
1467.00,0.0074
1466.00,0.0074
1465.00,0.0075
1464.00,0.0075
1463.00,0.0076
1462.00,0.0077
1461.00,0.0079
1460.00,0.0080
1459.00,0.0082
1458.00,0.0084
1457.00,0.0088
1456.00,0.0091
1455.00,0.0094
1454.00,0.0097
1453.00,0.0100
1452.00,0.0104
1451.00,0.0107
1450.00,0.0111
1449.00,0.0114
1448.00,0.0117
1447.00,0.0119
1446.00,0.0121
1445.00,0.0121
1444.00,0.0120
1443.00,0.0119
1442.00,0.0117
1441.00,0.0115
1440.00,0.0114
1439.00,0.0112
1438.00,0.0111
1437.00,0.0109
1436.00,0.0108
1435.00,0.0107
1434.00,0.0107
1433.00,0.0107
1432.00,0.0108
1431.00,0.0109
1430.00,0.0111
1429.00,0.0113
1428.00,0.0116
1427.00,0.0119
1426.00,0.0123
1425.00,0.0128
1424.00,0.0135
1423.00,0.0141
1422.00,0.0148
1421.00,0.0155
1420.00,0.0165
1419.00,0.0178
1418.00,0.0190
1417.00,0.0201
1416.00,0.0209
1415.00,0.0215
1414.00,0.0219
1413.00,0.0221
1412.00,0.0221
1411.00,0.0219
1410.00,0.0215
1409.00,0.0211
1408.00,0.0206
1407.00,0.0202
1406.00,0.0198
1405.00,0.0195
1404.00,0.0193
1403.00,0.0192
1402.00,0.0192
1401.00,0.0190
1400.00,0.0188
1399.00,0.0184
1398.00,0.0179
1397.00,0.0173
1396.00,0.0165
1395.00,0.0156
1394.00,0.0147
1393.00,0.0139
1392.00,0.0132
1391.00,0.0127
1390.00,0.0122
1389.00,0.0118
1388.00,0.0113
1387.00,0.0110
1386.00,0.0106
1385.00,0.0104
1384.00,0.0102
1383.00,0.0100
1382.00,0.0099
1381.00,0.0097
1380.00,0.0096
1379.00,0.0095
1378.00,0.0094
1377.00,0.0093
1376.00,0.0093
1375.00,0.0092
1374.00,0.0092
1373.00,0.0092
1372.00,0.0092
1371.00,0.0091
1370.00,0.0091
1369.00,0.0091
1368.00,0.0091
1367.00,0.0090
1366.00,0.0090
1365.00,0.0090
1364.00,0.0090
1363.00,0.0090
1362.00,0.0089
1361.00,0.0089
1360.00,0.0089
1359.00,0.0089
1358.00,0.0089
1357.00,0.0089
1356.00,0.0090
1355.00,0.0090
1354.00,0.0090
1353.00,0.0090
1352.00,0.0090
1351.00,0.0091
1350.00,0.0091
1349.00,0.0091
1348.00,0.0092
1347.00,0.0092
1346.00,0.0092
1345.00,0.0092
1344.00,0.0093
1343.00,0.0093
1342.00,0.0093
1341.00,0.0093
1340.00,0.0093
1339.00,0.0094
1338.00,0.0095
1337.00,0.0095
1336.00,0.0095
1335.00,0.0095
1334.00,0.0095
1333.00,0.0095
1332.00,0.0095
1331.00,0.0095
1330.00,0.0096
1329.00,0.0097
1328.00,0.0097
1327.00,0.0098
1326.00,0.0099
1325.00,0.0100
1324.00,0.0101
1323.00,0.0102
1322.00,0.0103
1321.00,0.0104
1320.00,0.0106
1319.00,0.0107
1318.00,0.0108
1317.00,0.0109
1316.00,0.0111
1315.00,0.0112
1314.00,0.0114
1313.00,0.0115
1312.00,0.0117
1311.00,0.0119
1310.00,0.0120
1309.00,0.0122
1308.00,0.0124
1307.00,0.0126
1306.00,0.0128
1305.00,0.0130
1304.00,0.0133
1303.00,0.0135
1302.00,0.0138
1301.00,0.0140
1300.00,0.0143
1299.00,0.0146
1298.00,0.0149
1297.00,0.0152
1296.00,0.0155
1295.00,0.0159
1294.00,0.0163
1293.00,0.0167
1292.00,0.0171
1291.00,0.0176
1290.00,0.0181
1289.00,0.0186
1288.00,0.0192
1287.00,0.0198
1286.00,0.0204
1285.00,0.0211
1284.00,0.0219
1283.00,0.0227
1282.00,0.0237
1281.00,0.0249
1280.00,0.0262
1279.00,0.0277
1278.00,0.0294
1277.00,0.0314
1276.00,0.0338
1275.00,0.0367
1274.00,0.0402
1273.00,0.0445
1272.00,0.0500
1271.00,0.0570
1270.00,0.0660
1269.00,0.0775
1268.00,0.0922
1267.00,0.1104
1266.00,0.1323
1265.00,0.1577
1264.00,0.1857
1263.00,0.2149
1262.00,0.2430
1261.00,0.2674
1260.00,0.2852
1259.00,0.2933
1258.00,0.2901
1257.00,0.2759
1256.00,0.2532
1255.00,0.2257
1254.00,0.1975
1253.00,0.1719
1252.00,0.1508
1251.00,0.1344
1250.00,0.1222
1249.00,0.1134
1248.00,0.1071
1247.00,0.1025
1246.00,0.0991
1245.00,0.0968
1244.00,0.0953
1243.00,0.0944
1242.00,0.0941
1241.00,0.0941
1240.00,0.0944
1239.00,0.0949
1238.00,0.0955
1237.00,0.0963
1236.00,0.0972
1235.00,0.0982
1234.00,0.0992
1233.00,0.1002
1232.00,0.1013
1231.00,0.1024
1230.00,0.1035
1229.00,0.1047
1228.00,0.1059
1227.00,0.1071
1226.00,0.1082
1225.00,0.1093
1224.00,0.1105
1223.00,0.1116
1222.00,0.1127
1221.00,0.1138
1220.00,0.1149
1219.00,0.1160
1218.00,0.1170
1217.00,0.1180
1216.00,0.1190
1215.00,0.1200
1214.00,0.1210
1213.00,0.1220
1212.00,0.1230
1211.00,0.1240
1210.00,0.1249
1209.00,0.1258
1208.00,0.1267
1207.00,0.1277
1206.00,0.1285
1205.00,0.1294
1204.00,0.1303
1203.00,0.1312
1202.00,0.1320
1201.00,0.1329
1200.00,0.1338
1199.00,0.1346
1198.00,0.1355
1197.00,0.1363
1196.00,0.1372
1195.00,0.1381
1194.00,0.1389
1193.00,0.1398
1192.00,0.1407
1191.00,0.1416
1190.00,0.1425
1189.00,0.1434
1188.00,0.1443
1187.00,0.1452
1186.00,0.1461
1185.00,0.1470
1184.00,0.1479
1183.00,0.1488
1182.00,0.1497
1181.00,0.1507
1180.00,0.1516
1179.00,0.1526
1178.00,0.1534
1177.00,0.1544
1176.00,0.1553
1175.00,0.1562
1174.00,0.1571
1173.00,0.1581
1172.00,0.1590
1171.00,0.1599
1170.00,0.1607
1169.00,0.1616
1168.00,0.1625
1167.00,0.1634
1166.00,0.1642
1165.00,0.1650
1164.00,0.1659
1163.00,0.1668
1162.00,0.1677
1161.00,0.1686
1160.00,0.1695
1159.00,0.1703
1158.00,0.1711
1157.00,0.1720
1156.00,0.1729
1155.00,0.1738
1154.00,0.1747
1153.00,0.1756
1152.00,0.1766
1151.00,0.1776
1150.00,0.1786
1149.00,0.1796
1148.00,0.1807
1147.00,0.1817
1146.00,0.1828
1145.00,0.1839
1144.00,0.1851
1143.00,0.1863
1142.00,0.1875
1141.00,0.1888
1140.00,0.1902
1139.00,0.1917
1138.00,0.1931
1137.00,0.1946
1136.00,0.1962
1135.00,0.1979
1134.00,0.1995
1133.00,0.2012
1132.00,0.2031
1131.00,0.2051
1130.00,0.2071
1129.00,0.2093
1128.00,0.2117
1127.00,0.2141
1126.00,0.2166
1125.00,0.2194
1124.00,0.2223
1123.00,0.2254
1122.00,0.2287
1121.00,0.2323
1120.00,0.2363
1119.00,0.2405
1118.00,0.2450
1117.00,0.2499
1116.00,0.2554
1115.00,0.2613
1114.00,0.2676
1113.00,0.2743
1112.00,0.2817
1111.00,0.2895
1110.00,0.2977
1109.00,0.3065
1108.00,0.3161
1107.00,0.3261
1106.00,0.3365
1105.00,0.3474
1104.00,0.3589
1103.00,0.3707
1102.00,0.3827
1101.00,0.3951
1100.00,0.4081
1099.00,0.4212
1098.00,0.4343
1097.00,0.4476
1096.00,0.4610
1095.00,0.4743
1094.00,0.4873
1093.00,0.5003
1092.00,0.5133
1091.00,0.5258
1090.00,0.5378
1089.00,0.5495
1088.00,0.5612
1087.00,0.5721
1086.00,0.5822
1085.00,0.5921
1084.00,0.6019
1083.00,0.6109
1082.00,0.6192
1081.00,0.6271
1080.00,0.6349
1079.00,0.6420
1078.00,0.6483
1077.00,0.6544
1076.00,0.6605
1075.00,0.6658
1074.00,0.6703
1073.00,0.6746
1072.00,0.6789
1071.00,0.6827
1070.00,0.6857
1069.00,0.6888
1068.00,0.6922
1067.00,0.6949
1066.00,0.6968
1065.00,0.6988
1064.00,0.7008
1063.00,0.7023
1062.00,0.7032
1061.00,0.7041
1060.00,0.7054
1059.00,0.7062
1058.00,0.7063
1057.00,0.7066
1056.00,0.7071
1055.00,0.7073
1054.00,0.7068
1053.00,0.7066
1052.00,0.7069
1051.00,0.7069
1050.00,0.7063
1049.00,0.7061
1048.00,0.7063
1047.00,0.7062
1046.00,0.7058
1045.00,0.7058
1044.00,0.7063
1043.00,0.7068
1042.00,0.7071
1041.00,0.7078
1040.00,0.7091
1039.00,0.7105
1038.00,0.7117
1037.00,0.7137
1036.00,0.7165
1035.00,0.7195
1034.00,0.7225
1033.00,0.7265
1032.00,0.7315
1031.00,0.7370
1030.00,0.7428
1029.00,0.7497
1028.00,0.7578
1027.00,0.7666
1026.00,0.7759
1025.00,0.7866
1024.00,0.7993
1023.00,0.8131
1022.00,0.8279
1021.00,0.8448
1020.00,0.8641
1019.00,0.8849
1018.00,0.9068
1017.00,0.9308
1016.00,0.9567
1015.00,0.9831
1014.00,1.0087
1013.00,1.0342
1012.00,1.0585
1011.00,1.0787
1010.00,1.0929
1009.00,1.1014
1008.00,1.1038
1007.00,1.0977
1006.00,1.0828
1005.00,1.0617
1004.00,1.0355
1003.00,1.0037
1002.00,0.9674
1001.00,0.9290
1000.00,0.8896
999.00,0.8491
998.00,0.8083
997.00,0.7685
996.00,0.7301
995.00,0.6928
994.00,0.6567
993.00,0.6224
992.00,0.5901
991.00,0.5594
990.00,0.5303
989.00,0.5032
988.00,0.4780
987.00,0.4544
986.00,0.4321
985.00,0.4115
984.00,0.3925
983.00,0.3747
982.00,0.3582
981.00,0.3429
980.00,0.3289
979.00,0.3158
978.00,0.3037
977.00,0.2926
976.00,0.2823
975.00,0.2728
974.00,0.2639
973.00,0.2557
972.00,0.2482
971.00,0.2412
970.00,0.2346
969.00,0.2284
968.00,0.2227
967.00,0.2172
966.00,0.2119
965.00,0.2070
964.00,0.2023
963.00,0.1978
962.00,0.1935
961.00,0.1894
960.00,0.1854
959.00,0.1816
958.00,0.1777
957.00,0.1741
956.00,0.1705
955.00,0.1670
954.00,0.1636
953.00,0.1604
952.00,0.1573
951.00,0.1543
950.00,0.1512
949.00,0.1483
948.00,0.1455
947.00,0.1427
946.00,0.1398
945.00,0.1371
944.00,0.1344
943.00,0.1318
942.00,0.1293
941.00,0.1268
940.00,0.1244
939.00,0.1220
938.00,0.1197
937.00,0.1175
936.00,0.1154
935.00,0.1133
934.00,0.1112
933.00,0.1091
932.00,0.1071
931.00,0.1052
930.00,0.1034
929.00,0.1017
928.00,0.1001
927.00,0.0984
926.00,0.0968
925.00,0.0952
924.00,0.0937
923.00,0.0923
922.00,0.0910
921.00,0.0898
920.00,0.0887
919.00,0.0876
918.00,0.0867
917.00,0.0858
916.00,0.0850
915.00,0.0843
914.00,0.0836
913.00,0.0831
912.00,0.0826
911.00,0.0821
910.00,0.0816
909.00,0.0812
908.00,0.0809
907.00,0.0806
906.00,0.0803
905.00,0.0801
904.00,0.0800
903.00,0.0799
902.00,0.0799
901.00,0.0799
900.00,0.0801
899.00,0.0803
898.00,0.0807
897.00,0.0812
896.00,0.0818
895.00,0.0825
894.00,0.0832
893.00,0.0841
892.00,0.0852
891.00,0.0863
890.00,0.0877
889.00,0.0893
888.00,0.0912
887.00,0.0934
886.00,0.0959
885.00,0.0987
884.00,0.1019
883.00,0.1053
882.00,0.1089
881.00,0.1128
880.00,0.1167
879.00,0.1207
878.00,0.1244
877.00,0.1280
876.00,0.1314
875.00,0.1344
874.00,0.1372
873.00,0.1397
872.00,0.1419
871.00,0.1439
870.00,0.1457
869.00,0.1473
868.00,0.1488
867.00,0.1502
866.00,0.1512
865.00,0.1519
864.00,0.1521
863.00,0.1516
862.00,0.1504
861.00,0.1486
860.00,0.1461
859.00,0.1430
858.00,0.1396
857.00,0.1359
856.00,0.1323
855.00,0.1287
854.00,0.1254
853.00,0.1225
852.00,0.1200
851.00,0.1180
850.00,0.1162
849.00,0.1149
848.00,0.1140
847.00,0.1133
846.00,0.1129
845.00,0.1129
844.00,0.1132
843.00,0.1137
842.00,0.1146
841.00,0.1158
840.00,0.1174
839.00,0.1192
838.00,0.1214
837.00,0.1240
836.00,0.1271
835.00,0.1306
834.00,0.1346
833.00,0.1392
832.00,0.1446
831.00,0.1508
830.00,0.1581
829.00,0.1667
828.00,0.1768
827.00,0.1884
826.00,0.2016
825.00,0.2163
824.00,0.2324
823.00,0.2491
822.00,0.2660
821.00,0.2825
820.00,0.2984
819.00,0.3131
818.00,0.3266
817.00,0.3392
816.00,0.3513
815.00,0.3630
814.00,0.3748
813.00,0.3873
812.00,0.4008
811.00,0.4157
810.00,0.4320
809.00,0.4503
808.00,0.4708
807.00,0.4934
806.00,0.5182
805.00,0.5453
804.00,0.5749
803.00,0.6067
802.00,0.6403
801.00,0.6759
800.00,0.7135
799.00,0.7522
798.00,0.7916
797.00,0.8317
796.00,0.8725
795.00,0.9130
794.00,0.9526
793.00,0.9916
792.00,1.0295
791.00,1.0640
790.00,1.0932
789.00,1.1161
788.00,1.1311
787.00,1.1354
786.00,1.1279
785.00,1.1098
784.00,1.0824
783.00,1.0460
782.00,1.0028
781.00,0.9561
780.00,0.9076
779.00,0.8578
778.00,0.8077
777.00,0.7587
776.00,0.7115
775.00,0.6664
774.00,0.6239
773.00,0.5844
772.00,0.5481
771.00,0.5147
770.00,0.4841
769.00,0.4563
768.00,0.4311
767.00,0.4081
766.00,0.3872
765.00,0.3684
764.00,0.3515
763.00,0.3360
762.00,0.3218
761.00,0.3088
760.00,0.2970
759.00,0.2861
758.00,0.2760
757.00,0.2668
756.00,0.2583
755.00,0.2504
754.00,0.2430
753.00,0.2360
752.00,0.2296
751.00,0.2236
750.00,0.2180
749.00,0.2128
748.00,0.2081
747.00,0.2037
746.00,0.1996
745.00,0.1957
744.00,0.1921
743.00,0.1886
742.00,0.1851
741.00,0.1816
740.00,0.1782
739.00,0.1746
738.00,0.1711
737.00,0.1676
736.00,0.1642
735.00,0.1609
734.00,0.1578
733.00,0.1549
732.00,0.1522
731.00,0.1497
730.00,0.1472
729.00,0.1449
728.00,0.1429
727.00,0.1410
726.00,0.1392
725.00,0.1376
724.00,0.1362
723.00,0.1349
722.00,0.1337
721.00,0.1327
720.00,0.1321
719.00,0.1319
718.00,0.1320
717.00,0.1327
716.00,0.1340
715.00,0.1359
714.00,0.1387
713.00,0.1424
712.00,0.1471
711.00,0.1526
710.00,0.1585
709.00,0.1647
708.00,0.1707
707.00,0.1760
706.00,0.1805
705.00,0.1840
704.00,0.1865
703.00,0.1881
702.00,0.1889
701.00,0.1889
700.00,0.1886
699.00,0.1878
698.00,0.1868
697.00,0.1857
696.00,0.1847
695.00,0.1837
694.00,0.1828
693.00,0.1822
692.00,0.1820
691.00,0.1820
690.00,0.1824
689.00,0.1829
688.00,0.1836
687.00,0.1841
686.00,0.1842
685.00,0.1837
684.00,0.1826
683.00,0.1808
682.00,0.1786
681.00,0.1762
680.00,0.1738
679.00,0.1715
678.00,0.1693
677.00,0.1674
676.00,0.1657
675.00,0.1643
674.00,0.1629
673.00,0.1618
672.00,0.1609
671.00,0.1602
670.00,0.1596
669.00,0.1596
668.00,0.1605
667.00,0.1620
666.00,0.1634
665.00,0.1649
664.00,0.1670
663.00,0.1696
662.00,0.1723
661.00,0.1737
660.00,0.1723
659.00,0.1670
658.00,0.1580
657.00,0.1472
656.00,0.1366
655.00,0.1276
654.00,0.1206
653.00,0.1154
652.00,0.1115
651.00,0.1086
650.00,0.1063
649.00,0.1046
648.00,0.1032
647.00,0.1020
646.00,0.1010
645.00,0.1003
644.00,0.0997
643.00,0.0992
642.00,0.0989
641.00,0.0986
640.00,0.0984
639.00,0.0983
638.00,0.0983
637.00,0.0984
636.00,0.0985
635.00,0.0986
634.00,0.0987
633.00,0.0989
632.00,0.0990
631.00,0.0992
630.00,0.0994
629.00,0.0995
628.00,0.0996
627.00,0.0996
626.00,0.0996
625.00,0.0996
624.00,0.0998
623.00,0.0999
622.00,0.1000
621.00,0.1001
620.00,0.1002
619.00,0.1002
618.00,0.1003
617.00,0.1006
616.00,0.1009
615.00,0.1012
614.00,0.1014
613.00,0.1016
612.00,0.1018
611.00,0.1020
610.00,0.1021
609.00,0.1023
608.00,0.1025
607.00,0.1027
606.00,0.1030
605.00,0.1034
604.00,0.1038
603.00,0.1043
602.00,0.1047
601.00,0.1052
600.00,0.1057
599.00,0.1062
598.00,0.1068
597.00,0.1073
596.00,0.1079
595.00,0.1085
594.00,0.1090
593.00,0.1096
592.00,0.1103
591.00,0.1110
590.00,0.1116
589.00,0.1123
588.00,0.1131
587.00,0.1138
586.00,0.1145
585.00,0.1153
584.00,0.1161
583.00,0.1169
582.00,0.1175
581.00,0.1182
580.00,0.1191
579.00,0.1200
578.00,0.1208
577.00,0.1216
576.00,0.1225
575.00,0.1234
574.00,0.1242
573.00,0.1250
572.00,0.1258
571.00,0.1264
570.00,0.1270
569.00,0.1277
568.00,0.1285
567.00,0.1293
566.00,0.1301
565.00,0.1309
564.00,0.1317
563.00,0.1324
562.00,0.1329
561.00,0.1335
560.00,0.1342
559.00,0.1348
558.00,0.1354
557.00,0.1361
556.00,0.1368
555.00,0.1374
554.00,0.1378
553.00,0.1382
552.00,0.1387
551.00,0.1392
550.00,0.1395
549.00,0.1398
548.00,0.1402
547.00,0.1405
546.00,0.1407
545.00,0.1409
544.00,0.1411
543.00,0.1414
542.00,0.1416
541.00,0.1418
540.00,0.1421
539.00,0.1422
538.00,0.1422
537.00,0.1421
536.00,0.1421
535.00,0.1420
534.00,0.1418
533.00,0.1418
532.00,0.1419
531.00,0.1421
530.00,0.1423
529.00,0.1425
528.00,0.1427
527.00,0.1428
526.00,0.1429
525.00,0.1432
524.00,0.1439
523.00,0.1444
522.00,0.1447
521.00,0.1449
520.00,0.1453
519.00,0.1460
518.00,0.1468
517.00,0.1479
516.00,0.1492
515.00,0.1505
514.00,0.1518
513.00,0.1534
512.00,0.1552
511.00,0.1572
510.00,0.1593
509.00,0.1615
508.00,0.1641
507.00,0.1668
506.00,0.1694
505.00,0.1722
504.00,0.1753
503.00,0.1789
502.00,0.1828
501.00,0.1872
500.00,0.1919
499.00,0.1967
498.00,0.2016
497.00,0.2072
496.00,0.2136
495.00,0.2204
494.00,0.2275
493.00,0.2352
492.00,0.2439
491.00,0.2531
490.00,0.2625
489.00,0.2726
488.00,0.2835
487.00,0.2947
486.00,0.3058
485.00,0.3176
484.00,0.3303
483.00,0.3430
482.00,0.3553
481.00,0.3680
480.00,0.3814
479.00,0.3948
478.00,0.4080
477.00,0.4217
476.00,0.4364
475.00,0.4504
474.00,0.4627
473.00,0.4757
472.00,0.4904
471.00,0.5045
470.00,0.5156
469.00,0.5256
468.00,0.5364
467.00,0.5466
466.00,0.5544
465.00,0.5615
464.00,0.5694
463.00,0.5761
462.00,0.5802
461.00,0.5837
460.00,0.5881
459.00,0.5913
458.00,0.5918
457.00,0.5921
456.00,0.5932
455.00,0.5921
454.00,0.5878
453.00,0.5835
452.00,0.5811
451.00,0.5779
450.00,0.5723
449.00,0.5663
448.00,0.5612
447.00,0.5545
446.00,0.5454
445.00,0.5367
444.00,0.5296
443.00,0.5215
442.00,0.5111
441.00,0.5013
440.00,0.4936
439.00,0.4858
438.00,0.4766
437.00,0.4673
436.00,0.4590
435.00,0.4496
434.00,0.4383
433.00,0.4275
432.00,0.4182
431.00,0.4088
430.00,0.3985
429.00,0.3890
428.00,0.3812
427.00,0.3729
426.00,0.3631
425.00,0.3536
424.00,0.3462
423.00,0.3400
422.00,0.3337
421.00,0.3284
420.00,0.3251
419.00,0.3221
418.00,0.3189
417.00,0.3183
416.00,0.3215
415.00,0.3265
414.00,0.3321
413.00,0.3397
412.00,0.3501
411.00,0.3610
410.00,0.3705
409.00,0.3805
408.00,0.3934
407.00,0.4071
406.00,0.4188
405.00,0.4303
404.00,0.4438
403.00,0.4558
402.00,0.4623
401.00,0.4687
400.00,0.4815
