Created as New Dataset,Sample 948 By YargerLab Date Monday, July 28 2025
cm-1,A
4000.00,0.0041
3999.00,0.0041
3998.00,0.0041
3997.00,0.0041
3996.00,0.0041
3995.00,0.0041
3994.00,0.0041
3993.00,0.0041
3992.00,0.0041
3991.00,0.0041
3990.00,0.0041
3989.00,0.0041
3988.00,0.0041
3987.00,0.0041
3986.00,0.0041
3985.00,0.0041
3984.00,0.0041
3983.00,0.0041
3982.00,0.0041
3981.00,0.0041
3980.00,0.0042
3979.00,0.0042
3978.00,0.0042
3977.00,0.0042
3976.00,0.0042
3975.00,0.0041
3974.00,0.0041
3973.00,0.0041
3972.00,0.0042
3971.00,0.0042
3970.00,0.0042
3969.00,0.0042
3968.00,0.0042
3967.00,0.0042
3966.00,0.0042
3965.00,0.0042
3964.00,0.0042
3963.00,0.0041
3962.00,0.0041
3961.00,0.0041
3960.00,0.0041
3959.00,0.0041
3958.00,0.0041
3957.00,0.0041
3956.00,0.0041
3955.00,0.0041
3954.00,0.0041
3953.00,0.0041
3952.00,0.0041
3951.00,0.0041
3950.00,0.0041
3949.00,0.0041
3948.00,0.0041
3947.00,0.0041
3946.00,0.0041
3945.00,0.0041
3944.00,0.0041
3943.00,0.0041
3942.00,0.0041
3941.00,0.0041
3940.00,0.0041
3939.00,0.0041
3938.00,0.0041
3937.00,0.0041
3936.00,0.0041
3935.00,0.0041
3934.00,0.0041
3933.00,0.0041
3932.00,0.0041
3931.00,0.0041
3930.00,0.0041
3929.00,0.0041
3928.00,0.0041
3927.00,0.0040
3926.00,0.0040
3925.00,0.0040
3924.00,0.0040
3923.00,0.0041
3922.00,0.0041
3921.00,0.0041
3920.00,0.0041
3919.00,0.0041
3918.00,0.0041
3917.00,0.0041
3916.00,0.0041
3915.00,0.0041
3914.00,0.0041
3913.00,0.0041
3912.00,0.0041
3911.00,0.0041
3910.00,0.0041
3909.00,0.0041
3908.00,0.0041
3907.00,0.0041
3906.00,0.0041
3905.00,0.0041
3904.00,0.0040
3903.00,0.0040
3902.00,0.0040
3901.00,0.0040
3900.00,0.0040
3899.00,0.0040
3898.00,0.0040
3897.00,0.0040
3896.00,0.0040
3895.00,0.0040
3894.00,0.0040
3893.00,0.0040
3892.00,0.0040
3891.00,0.0041
3890.00,0.0041
3889.00,0.0041
3888.00,0.0041
3887.00,0.0040
3886.00,0.0040
3885.00,0.0040
3884.00,0.0040
3883.00,0.0040
3882.00,0.0040
3881.00,0.0040
3880.00,0.0040
3879.00,0.0040
3878.00,0.0040
3877.00,0.0040
3876.00,0.0040
3875.00,0.0040
3874.00,0.0040
3873.00,0.0040
3872.00,0.0040
3871.00,0.0039
3870.00,0.0039
3869.00,0.0039
3868.00,0.0039
3867.00,0.0039
3866.00,0.0039
3865.00,0.0039
3864.00,0.0040
3863.00,0.0040
3862.00,0.0040
3861.00,0.0040
3860.00,0.0040
3859.00,0.0040
3858.00,0.0040
3857.00,0.0040
3856.00,0.0040
3855.00,0.0039
3854.00,0.0039
3853.00,0.0040
3852.00,0.0040
3851.00,0.0040
3850.00,0.0040
3849.00,0.0040
3848.00,0.0040
3847.00,0.0040
3846.00,0.0040
3845.00,0.0040
3844.00,0.0040
3843.00,0.0040
3842.00,0.0040
3841.00,0.0040
3840.00,0.0040
3839.00,0.0041
3838.00,0.0041
3837.00,0.0040
3836.00,0.0040
3835.00,0.0040
3834.00,0.0040
3833.00,0.0040
3832.00,0.0040
3831.00,0.0040
3830.00,0.0040
3829.00,0.0040
3828.00,0.0040
3827.00,0.0040
3826.00,0.0040
3825.00,0.0040
3824.00,0.0040
3823.00,0.0040
3822.00,0.0040
3821.00,0.0040
3820.00,0.0040
3819.00,0.0040
3818.00,0.0040
3817.00,0.0040
3816.00,0.0040
3815.00,0.0040
3814.00,0.0041
3813.00,0.0041
3812.00,0.0041
3811.00,0.0040
3810.00,0.0040
3809.00,0.0040
3808.00,0.0040
3807.00,0.0041
3806.00,0.0041
3805.00,0.0041
3804.00,0.0040
3803.00,0.0040
3802.00,0.0040
3801.00,0.0040
3800.00,0.0040
3799.00,0.0039
3798.00,0.0039
3797.00,0.0040
3796.00,0.0040
3795.00,0.0040
3794.00,0.0041
3793.00,0.0041
3792.00,0.0041
3791.00,0.0041
3790.00,0.0041
3789.00,0.0041
3788.00,0.0041
3787.00,0.0041
3786.00,0.0040
3785.00,0.0041
3784.00,0.0041
3783.00,0.0041
3782.00,0.0041
3781.00,0.0041
3780.00,0.0041
3779.00,0.0041
3778.00,0.0041
3777.00,0.0041
3776.00,0.0041
3775.00,0.0041
3774.00,0.0041
3773.00,0.0041
3772.00,0.0041
3771.00,0.0041
3770.00,0.0040
3769.00,0.0040
3768.00,0.0040
3767.00,0.0040
3766.00,0.0040
3765.00,0.0041
3764.00,0.0041
3763.00,0.0041
3762.00,0.0041
3761.00,0.0041
3760.00,0.0041
3759.00,0.0041
3758.00,0.0041
3757.00,0.0041
3756.00,0.0041
3755.00,0.0041
3754.00,0.0040
3753.00,0.0040
3752.00,0.0040
3751.00,0.0040
3750.00,0.0040
3749.00,0.0040
3748.00,0.0040
3747.00,0.0039
3746.00,0.0039
3745.00,0.0039
3744.00,0.0039
3743.00,0.0039
3742.00,0.0039
3741.00,0.0039
3740.00,0.0039
3739.00,0.0039
3738.00,0.0039
3737.00,0.0039
3736.00,0.0039
3735.00,0.0039
3734.00,0.0039
3733.00,0.0039
3732.00,0.0039
3731.00,0.0039
3730.00,0.0039
3729.00,0.0039
3728.00,0.0039
3727.00,0.0039
3726.00,0.0040
3725.00,0.0039
3724.00,0.0039
3723.00,0.0039
3722.00,0.0039
3721.00,0.0039
3720.00,0.0039
3719.00,0.0040
3718.00,0.0040
3717.00,0.0040
3716.00,0.0040
3715.00,0.0040
3714.00,0.0039
3713.00,0.0039
3712.00,0.0039
3711.00,0.0039
3710.00,0.0039
3709.00,0.0039
3708.00,0.0039
3707.00,0.0039
3706.00,0.0039
3705.00,0.0039
3704.00,0.0039
3703.00,0.0039
3702.00,0.0039
3701.00,0.0039
3700.00,0.0039
3699.00,0.0039
3698.00,0.0039
3697.00,0.0039
3696.00,0.0039
3695.00,0.0039
3694.00,0.0039
3693.00,0.0039
3692.00,0.0039
3691.00,0.0039
3690.00,0.0039
3689.00,0.0039
3688.00,0.0039
3687.00,0.0040
3686.00,0.0040
3685.00,0.0040
3684.00,0.0040
3683.00,0.0041
3682.00,0.0041
3681.00,0.0041
3680.00,0.0041
3679.00,0.0041
3678.00,0.0041
3677.00,0.0041
3676.00,0.0041
3675.00,0.0041
3674.00,0.0041
3673.00,0.0040
3672.00,0.0040
3671.00,0.0040
3670.00,0.0041
3669.00,0.0041
3668.00,0.0041
3667.00,0.0041
3666.00,0.0042
3665.00,0.0042
3664.00,0.0043
3663.00,0.0043
3662.00,0.0043
3661.00,0.0043
3660.00,0.0043
3659.00,0.0043
3658.00,0.0043
3657.00,0.0043
3656.00,0.0043
3655.00,0.0043
3654.00,0.0043
3653.00,0.0043
3652.00,0.0043
3651.00,0.0043
3650.00,0.0043
3649.00,0.0043
3648.00,0.0043
3647.00,0.0044
3646.00,0.0044
3645.00,0.0044
3644.00,0.0045
3643.00,0.0045
3642.00,0.0045
3641.00,0.0046
3640.00,0.0046
3639.00,0.0047
3638.00,0.0047
3637.00,0.0047
3636.00,0.0047
3635.00,0.0047
3634.00,0.0047
3633.00,0.0047
3632.00,0.0047
3631.00,0.0047
3630.00,0.0048
3629.00,0.0048
3628.00,0.0048
3627.00,0.0048
3626.00,0.0048
3625.00,0.0049
3624.00,0.0049
3623.00,0.0050
3622.00,0.0050
3621.00,0.0050
3620.00,0.0051
3619.00,0.0051
3618.00,0.0051
3617.00,0.0052
3616.00,0.0052
3615.00,0.0052
3614.00,0.0052
3613.00,0.0053
3612.00,0.0054
3611.00,0.0054
3610.00,0.0055
3609.00,0.0055
3608.00,0.0056
3607.00,0.0056
3606.00,0.0057
3605.00,0.0057
3604.00,0.0058
3603.00,0.0058
3602.00,0.0059
3601.00,0.0059
3600.00,0.0060
3599.00,0.0060
3598.00,0.0061
3597.00,0.0061
3596.00,0.0061
3595.00,0.0062
3594.00,0.0063
3593.00,0.0063
3592.00,0.0064
3591.00,0.0064
3590.00,0.0064
3589.00,0.0064
3588.00,0.0065
3587.00,0.0065
3586.00,0.0066
3585.00,0.0067
3584.00,0.0068
3583.00,0.0069
3582.00,0.0069
3581.00,0.0070
3580.00,0.0071
3579.00,0.0072
3578.00,0.0073
3577.00,0.0073
3576.00,0.0074
3575.00,0.0074
3574.00,0.0075
3573.00,0.0075
3572.00,0.0076
3571.00,0.0076
3570.00,0.0077
3569.00,0.0077
3568.00,0.0078
3567.00,0.0078
3566.00,0.0079
3565.00,0.0080
3564.00,0.0081
3563.00,0.0081
3562.00,0.0082
3561.00,0.0083
3560.00,0.0084
3559.00,0.0085
3558.00,0.0086
3557.00,0.0086
3556.00,0.0087
3555.00,0.0087
3554.00,0.0088
3553.00,0.0089
3552.00,0.0090
3551.00,0.0090
3550.00,0.0091
3549.00,0.0092
3548.00,0.0093
3547.00,0.0093
3546.00,0.0094
3545.00,0.0095
3544.00,0.0096
3543.00,0.0096
3542.00,0.0097
3541.00,0.0097
3540.00,0.0097
3539.00,0.0098
3538.00,0.0099
3537.00,0.0100
3536.00,0.0100
3535.00,0.0101
3534.00,0.0102
3533.00,0.0102
3532.00,0.0103
3531.00,0.0103
3530.00,0.0104
3529.00,0.0104
3528.00,0.0105
3527.00,0.0106
3526.00,0.0106
3525.00,0.0107
3524.00,0.0108
3523.00,0.0108
3522.00,0.0109
3521.00,0.0109
3520.00,0.0109
3519.00,0.0109
3518.00,0.0110
3517.00,0.0110
3516.00,0.0110
3515.00,0.0111
3514.00,0.0111
3513.00,0.0111
3512.00,0.0111
3511.00,0.0112
3510.00,0.0112
3509.00,0.0112
3508.00,0.0113
3507.00,0.0113
3506.00,0.0114
3505.00,0.0114
3504.00,0.0115
3503.00,0.0115
3502.00,0.0115
3501.00,0.0116
3500.00,0.0116
3499.00,0.0117
3498.00,0.0117
3497.00,0.0118
3496.00,0.0118
3495.00,0.0119
3494.00,0.0119
3493.00,0.0120
3492.00,0.0120
3491.00,0.0120
3490.00,0.0121
3489.00,0.0121
3488.00,0.0121
3487.00,0.0122
3486.00,0.0122
3485.00,0.0123
3484.00,0.0124
3483.00,0.0124
3482.00,0.0125
3481.00,0.0126
3480.00,0.0126
3479.00,0.0127
3478.00,0.0127
3477.00,0.0128
3476.00,0.0129
3475.00,0.0129
3474.00,0.0130
3473.00,0.0130
3472.00,0.0131
3471.00,0.0132
3470.00,0.0133
3469.00,0.0134
3468.00,0.0135
3467.00,0.0135
3466.00,0.0136
3465.00,0.0136
3464.00,0.0137
3463.00,0.0138
3462.00,0.0139
3461.00,0.0139
3460.00,0.0140
3459.00,0.0141
3458.00,0.0141
3457.00,0.0142
3456.00,0.0143
3455.00,0.0144
3454.00,0.0145
3453.00,0.0145
3452.00,0.0146
3451.00,0.0147
3450.00,0.0148
3449.00,0.0148
3448.00,0.0149
3447.00,0.0150
3446.00,0.0151
3445.00,0.0152
3444.00,0.0153
3443.00,0.0154
3442.00,0.0155
3441.00,0.0155
3440.00,0.0156
3439.00,0.0157
3438.00,0.0158
3437.00,0.0159
3436.00,0.0160
3435.00,0.0161
3434.00,0.0162
3433.00,0.0163
3432.00,0.0164
3431.00,0.0165
3430.00,0.0166
3429.00,0.0168
3428.00,0.0169
3427.00,0.0170
3426.00,0.0171
3425.00,0.0172
3424.00,0.0173
3423.00,0.0174
3422.00,0.0176
3421.00,0.0177
3420.00,0.0178
3419.00,0.0179
3418.00,0.0181
3417.00,0.0182
3416.00,0.0183
3415.00,0.0184
3414.00,0.0185
3413.00,0.0186
3412.00,0.0187
3411.00,0.0188
3410.00,0.0189
3409.00,0.0190
3408.00,0.0191
3407.00,0.0191
3406.00,0.0192
3405.00,0.0193
3404.00,0.0193
3403.00,0.0193
3402.00,0.0193
3401.00,0.0193
3400.00,0.0193
3399.00,0.0193
3398.00,0.0193
3397.00,0.0193
3396.00,0.0193
3395.00,0.0193
3394.00,0.0192
3393.00,0.0192
3392.00,0.0191
3391.00,0.0191
3390.00,0.0190
3389.00,0.0189
3388.00,0.0189
3387.00,0.0188
3386.00,0.0187
3385.00,0.0186
3384.00,0.0185
3383.00,0.0184
3382.00,0.0183
3381.00,0.0182
3380.00,0.0181
3379.00,0.0180
3378.00,0.0179
3377.00,0.0178
3376.00,0.0178
3375.00,0.0177
3374.00,0.0176
3373.00,0.0175
3372.00,0.0174
3371.00,0.0172
3370.00,0.0171
3369.00,0.0170
3368.00,0.0169
3367.00,0.0168
3366.00,0.0168
3365.00,0.0168
3364.00,0.0167
3363.00,0.0167
3362.00,0.0166
3361.00,0.0165
3360.00,0.0164
3359.00,0.0164
3358.00,0.0163
3357.00,0.0163
3356.00,0.0162
3355.00,0.0162
3354.00,0.0161
3353.00,0.0160
3352.00,0.0158
3351.00,0.0158
3350.00,0.0157
3349.00,0.0157
3348.00,0.0157
3347.00,0.0157
3346.00,0.0157
3345.00,0.0156
3344.00,0.0155
3343.00,0.0155
3342.00,0.0155
3341.00,0.0155
3340.00,0.0154
3339.00,0.0154
3338.00,0.0153
3337.00,0.0153
3336.00,0.0154
3335.00,0.0154
3334.00,0.0154
3333.00,0.0154
3332.00,0.0154
3331.00,0.0154
3330.00,0.0154
3329.00,0.0153
3328.00,0.0152
3327.00,0.0152
3326.00,0.0151
3325.00,0.0152
3324.00,0.0152
3323.00,0.0153
3322.00,0.0153
3321.00,0.0153
3320.00,0.0153
3319.00,0.0153
3318.00,0.0153
3317.00,0.0153
3316.00,0.0153
3315.00,0.0153
3314.00,0.0153
3313.00,0.0153
3312.00,0.0153
3311.00,0.0152
3310.00,0.0151
3309.00,0.0151
3308.00,0.0150
3307.00,0.0150
3306.00,0.0150
3305.00,0.0151
3304.00,0.0152
3303.00,0.0153
3302.00,0.0154
3301.00,0.0155
3300.00,0.0155
3299.00,0.0155
3298.00,0.0155
3297.00,0.0154
3296.00,0.0154
3295.00,0.0154
3294.00,0.0154
3293.00,0.0155
3292.00,0.0155
3291.00,0.0156
3290.00,0.0157
3289.00,0.0158
3288.00,0.0158
3287.00,0.0158
3286.00,0.0159
3285.00,0.0159
3284.00,0.0159
3283.00,0.0160
3282.00,0.0160
3281.00,0.0160
3280.00,0.0160
3279.00,0.0160
3278.00,0.0160
3277.00,0.0161
3276.00,0.0161
3275.00,0.0161
3274.00,0.0161
3273.00,0.0161
3272.00,0.0161
3271.00,0.0161
3270.00,0.0162
3269.00,0.0163
3268.00,0.0163
3267.00,0.0164
3266.00,0.0164
3265.00,0.0164
3264.00,0.0164
3263.00,0.0165
3262.00,0.0165
3261.00,0.0165
3260.00,0.0165
3259.00,0.0165
3258.00,0.0166
3257.00,0.0166
3256.00,0.0166
3255.00,0.0167
3254.00,0.0168
3253.00,0.0168
3252.00,0.0168
3251.00,0.0168
3250.00,0.0168
3249.00,0.0168
3248.00,0.0168
3247.00,0.0169
3246.00,0.0169
3245.00,0.0170
3244.00,0.0170
3243.00,0.0170
3242.00,0.0170
3241.00,0.0170
3240.00,0.0170
3239.00,0.0170
3238.00,0.0169
3237.00,0.0169
3236.00,0.0168
3235.00,0.0168
3234.00,0.0167
3233.00,0.0167
3232.00,0.0167
3231.00,0.0167
3230.00,0.0167
3229.00,0.0167
3228.00,0.0167
3227.00,0.0167
3226.00,0.0167
3225.00,0.0166
3224.00,0.0166
3223.00,0.0166
3222.00,0.0165
3221.00,0.0165
3220.00,0.0164
3219.00,0.0164
3218.00,0.0163
3217.00,0.0162
3216.00,0.0161
3215.00,0.0161
3214.00,0.0160
3213.00,0.0160
3212.00,0.0159
3211.00,0.0158
3210.00,0.0157
3209.00,0.0156
3208.00,0.0156
3207.00,0.0155
3206.00,0.0154
3205.00,0.0153
3204.00,0.0152
3203.00,0.0151
3202.00,0.0150
3201.00,0.0149
3200.00,0.0148
3199.00,0.0147
3198.00,0.0147
3197.00,0.0146
3196.00,0.0145
3195.00,0.0144
3194.00,0.0143
3193.00,0.0142
3192.00,0.0141
3191.00,0.0141
3190.00,0.0140
3189.00,0.0139
3188.00,0.0138
3187.00,0.0137
3186.00,0.0136
3185.00,0.0135
3184.00,0.0134
3183.00,0.0133
3182.00,0.0133
3181.00,0.0132
3180.00,0.0131
3179.00,0.0130
3178.00,0.0129
3177.00,0.0128
3176.00,0.0127
3175.00,0.0126
3174.00,0.0125
3173.00,0.0124
3172.00,0.0123
3171.00,0.0122
3170.00,0.0121
3169.00,0.0120
3168.00,0.0120
3167.00,0.0119
3166.00,0.0118
3165.00,0.0117
3164.00,0.0116
3163.00,0.0115
3162.00,0.0114
3161.00,0.0113
3160.00,0.0113
3159.00,0.0112
3158.00,0.0111
3157.00,0.0110
3156.00,0.0108
3155.00,0.0107
3154.00,0.0106
3153.00,0.0105
3152.00,0.0104
3151.00,0.0104
3150.00,0.0103
3149.00,0.0102
3148.00,0.0101
3147.00,0.0101
3146.00,0.0100
3145.00,0.0099
3144.00,0.0099
3143.00,0.0098
3142.00,0.0098
3141.00,0.0097
3140.00,0.0095
3139.00,0.0095
3138.00,0.0094
3137.00,0.0093
3136.00,0.0093
3135.00,0.0092
3134.00,0.0092
3133.00,0.0091
3132.00,0.0091
3131.00,0.0090
3130.00,0.0090
3129.00,0.0089
3128.00,0.0089
3127.00,0.0088
3126.00,0.0088
3125.00,0.0087
3124.00,0.0087
3123.00,0.0086
3122.00,0.0086
3121.00,0.0086
3120.00,0.0086
3119.00,0.0085
3118.00,0.0084
3117.00,0.0084
3116.00,0.0083
3115.00,0.0083
3114.00,0.0082
3113.00,0.0082
3112.00,0.0082
3111.00,0.0081
3110.00,0.0081
3109.00,0.0080
3108.00,0.0079
3107.00,0.0079
3106.00,0.0078
3105.00,0.0078
3104.00,0.0078
3103.00,0.0077
3102.00,0.0077
3101.00,0.0077
3100.00,0.0077
3099.00,0.0076
3098.00,0.0076
3097.00,0.0076
3096.00,0.0075
3095.00,0.0075
3094.00,0.0075
3093.00,0.0075
3092.00,0.0076
3091.00,0.0076
3090.00,0.0076
3089.00,0.0076
3088.00,0.0076
3087.00,0.0076
3086.00,0.0076
3085.00,0.0076
3084.00,0.0076
3083.00,0.0076
3082.00,0.0076
3081.00,0.0076
3080.00,0.0076
3079.00,0.0075
3078.00,0.0075
3077.00,0.0075
3076.00,0.0075
3075.00,0.0074
3074.00,0.0074
3073.00,0.0074
3072.00,0.0074
3071.00,0.0074
3070.00,0.0073
3069.00,0.0073
3068.00,0.0073
3067.00,0.0073
3066.00,0.0073
3065.00,0.0073
3064.00,0.0073
3063.00,0.0073
3062.00,0.0073
3061.00,0.0073
3060.00,0.0073
3059.00,0.0073
3058.00,0.0073
3057.00,0.0074
3056.00,0.0074
3055.00,0.0074
3054.00,0.0074
3053.00,0.0074
3052.00,0.0074
3051.00,0.0074
3050.00,0.0074
3049.00,0.0073
3048.00,0.0073
3047.00,0.0073
3046.00,0.0073
3045.00,0.0073
3044.00,0.0073
3043.00,0.0073
3042.00,0.0073
3041.00,0.0074
3040.00,0.0074
3039.00,0.0074
3038.00,0.0075
3037.00,0.0076
3036.00,0.0077
3035.00,0.0077
3034.00,0.0078
3033.00,0.0078
3032.00,0.0078
3031.00,0.0078
3030.00,0.0077
3029.00,0.0077
3028.00,0.0076
3027.00,0.0076
3026.00,0.0075
3025.00,0.0075
3024.00,0.0075
3023.00,0.0075
3022.00,0.0074
3021.00,0.0074
3020.00,0.0074
3019.00,0.0074
3018.00,0.0074
3017.00,0.0074
3016.00,0.0074
3015.00,0.0074
3014.00,0.0075
3013.00,0.0075
3012.00,0.0076
3011.00,0.0077
3010.00,0.0078
3009.00,0.0080
3008.00,0.0081
3007.00,0.0083
3006.00,0.0085
3005.00,0.0087
3004.00,0.0090
3003.00,0.0093
3002.00,0.0096
3001.00,0.0099
3000.00,0.0102
2999.00,0.0106
2998.00,0.0109
2997.00,0.0113
2996.00,0.0117
2995.00,0.0122
2994.00,0.0126
2993.00,0.0130
2992.00,0.0134
2991.00,0.0137
2990.00,0.0141
2989.00,0.0144
2988.00,0.0148
2987.00,0.0152
2986.00,0.0156
2985.00,0.0161
2984.00,0.0166
2983.00,0.0172
2982.00,0.0178
2981.00,0.0185
2980.00,0.0190
2979.00,0.0194
2978.00,0.0196
2977.00,0.0198
2976.00,0.0200
2975.00,0.0203
2974.00,0.0208
2973.00,0.0214
2972.00,0.0221
2971.00,0.0227
2970.00,0.0232
2969.00,0.0236
2968.00,0.0239
2967.00,0.0241
2966.00,0.0244
2965.00,0.0247
2964.00,0.0251
2963.00,0.0255
2962.00,0.0258
2961.00,0.0261
2960.00,0.0263
2959.00,0.0263
2958.00,0.0261
2957.00,0.0257
2956.00,0.0253
2955.00,0.0248
2954.00,0.0243
2953.00,0.0239
2952.00,0.0234
2951.00,0.0231
2950.00,0.0228
2949.00,0.0226
2948.00,0.0225
2947.00,0.0225
2946.00,0.0226
2945.00,0.0228
2944.00,0.0230
2943.00,0.0234
2942.00,0.0238
2941.00,0.0243
2940.00,0.0248
2939.00,0.0254
2938.00,0.0261
2937.00,0.0270
2936.00,0.0280
2935.00,0.0290
2934.00,0.0301
2933.00,0.0313
2932.00,0.0323
2931.00,0.0333
2930.00,0.0342
2929.00,0.0349
2928.00,0.0353
2927.00,0.0354
2926.00,0.0352
2925.00,0.0348
2924.00,0.0341
2923.00,0.0333
2922.00,0.0324
2921.00,0.0315
2920.00,0.0304
2919.00,0.0294
2918.00,0.0284
2917.00,0.0275
2916.00,0.0267
2915.00,0.0260
2914.00,0.0254
2913.00,0.0249
2912.00,0.0244
2911.00,0.0239
2910.00,0.0234
2909.00,0.0230
2908.00,0.0225
2907.00,0.0221
2906.00,0.0217
2905.00,0.0213
2904.00,0.0209
2903.00,0.0205
2902.00,0.0202
2901.00,0.0200
2900.00,0.0197
2899.00,0.0195
2898.00,0.0192
2897.00,0.0190
2896.00,0.0188
2895.00,0.0187
2894.00,0.0185
2893.00,0.0183
2892.00,0.0182
2891.00,0.0181
2890.00,0.0180
2889.00,0.0179
2888.00,0.0178
2887.00,0.0177
2886.00,0.0176
2885.00,0.0175
2884.00,0.0175
2883.00,0.0175
2882.00,0.0175
2881.00,0.0176
2880.00,0.0178
2879.00,0.0181
2878.00,0.0184
2877.00,0.0187
2876.00,0.0191
2875.00,0.0194
2874.00,0.0197
2873.00,0.0200
2872.00,0.0201
2871.00,0.0201
2870.00,0.0201
2869.00,0.0199
2868.00,0.0198
2867.00,0.0197
2866.00,0.0198
2865.00,0.0200
2864.00,0.0203
2863.00,0.0209
2862.00,0.0215
2861.00,0.0223
2860.00,0.0231
2859.00,0.0238
2858.00,0.0243
2857.00,0.0245
2856.00,0.0245
2855.00,0.0243
2854.00,0.0239
2853.00,0.0233
2852.00,0.0225
2851.00,0.0216
2850.00,0.0206
2849.00,0.0196
2848.00,0.0186
2847.00,0.0177
2846.00,0.0168
2845.00,0.0160
2844.00,0.0153
2843.00,0.0146
2842.00,0.0140
2841.00,0.0135
2840.00,0.0129
2839.00,0.0125
2838.00,0.0121
2837.00,0.0118
2836.00,0.0115
2835.00,0.0112
2834.00,0.0109
2833.00,0.0107
2832.00,0.0105
2831.00,0.0102
2830.00,0.0100
2829.00,0.0098
2828.00,0.0096
2827.00,0.0094
2826.00,0.0092
2825.00,0.0091
2824.00,0.0089
2823.00,0.0087
2822.00,0.0085
2821.00,0.0084
2820.00,0.0083
2819.00,0.0082
2818.00,0.0081
2817.00,0.0080
2816.00,0.0079
2815.00,0.0078
2814.00,0.0077
2813.00,0.0076
2812.00,0.0076
2811.00,0.0075
2810.00,0.0075
2809.00,0.0074
2808.00,0.0074
2807.00,0.0073
2806.00,0.0073
2805.00,0.0072
2804.00,0.0072
2803.00,0.0072
2802.00,0.0071
2801.00,0.0071
2800.00,0.0070
2799.00,0.0070
2798.00,0.0070
2797.00,0.0069
2796.00,0.0069
2795.00,0.0068
2794.00,0.0068
2793.00,0.0067
2792.00,0.0066
2791.00,0.0066
2790.00,0.0066
2789.00,0.0065
2788.00,0.0065
2787.00,0.0065
2786.00,0.0065
2785.00,0.0064
2784.00,0.0064
2783.00,0.0064
2782.00,0.0064
2781.00,0.0064
2780.00,0.0063
2779.00,0.0063
2778.00,0.0063
2777.00,0.0062
2776.00,0.0062
2775.00,0.0062
2774.00,0.0061
2773.00,0.0061
2772.00,0.0061
2771.00,0.0061
2770.00,0.0061
2769.00,0.0061
2768.00,0.0061
2767.00,0.0060
2766.00,0.0060
2765.00,0.0060
2764.00,0.0060
2763.00,0.0060
2762.00,0.0060
2761.00,0.0060
2760.00,0.0060
2759.00,0.0060
2758.00,0.0060
2757.00,0.0060
2756.00,0.0060
2755.00,0.0060
2754.00,0.0060
2753.00,0.0060
2752.00,0.0060
2751.00,0.0061
2750.00,0.0061
2749.00,0.0061
2748.00,0.0061
2747.00,0.0061
2746.00,0.0061
2745.00,0.0061
2744.00,0.0061
2743.00,0.0061
2742.00,0.0061
2741.00,0.0062
2740.00,0.0062
2739.00,0.0062
2738.00,0.0062
2737.00,0.0062
2736.00,0.0062
2735.00,0.0063
2734.00,0.0063
2733.00,0.0064
2732.00,0.0064
2731.00,0.0064
2730.00,0.0064
2729.00,0.0064
2728.00,0.0064
2727.00,0.0063
2726.00,0.0063
2725.00,0.0063
2724.00,0.0063
2723.00,0.0062
2722.00,0.0062
2721.00,0.0062
2720.00,0.0062
2719.00,0.0062
2718.00,0.0062
2717.00,0.0061
2716.00,0.0061
2715.00,0.0061
2714.00,0.0061
2713.00,0.0061
2712.00,0.0061
2711.00,0.0061
2710.00,0.0061
2709.00,0.0060
2708.00,0.0060
2707.00,0.0060
2706.00,0.0060
2705.00,0.0060
2704.00,0.0060
2703.00,0.0060
2702.00,0.0059
2701.00,0.0059
2700.00,0.0059
2699.00,0.0059
2698.00,0.0059
2697.00,0.0059
2696.00,0.0058
2695.00,0.0058
2694.00,0.0058
2693.00,0.0058
2692.00,0.0058
2691.00,0.0058
2690.00,0.0057
2689.00,0.0057
2688.00,0.0057
2687.00,0.0057
2686.00,0.0057
2685.00,0.0057
2684.00,0.0057
2683.00,0.0056
2682.00,0.0056
2681.00,0.0056
2680.00,0.0056
2679.00,0.0056
2678.00,0.0056
2677.00,0.0056
2676.00,0.0056
2675.00,0.0056
2674.00,0.0056
2673.00,0.0056
2672.00,0.0057
2671.00,0.0057
2670.00,0.0057
2669.00,0.0057
2668.00,0.0058
2667.00,0.0058
2666.00,0.0058
2665.00,0.0059
2664.00,0.0059
2663.00,0.0060
2662.00,0.0061
2661.00,0.0061
2660.00,0.0061
2659.00,0.0062
2658.00,0.0062
2657.00,0.0062
2656.00,0.0062
2655.00,0.0062
2654.00,0.0062
2653.00,0.0062
2652.00,0.0062
2651.00,0.0062
2650.00,0.0062
2649.00,0.0062
2648.00,0.0062
2647.00,0.0062
2646.00,0.0062
2645.00,0.0062
2644.00,0.0062
2643.00,0.0062
2642.00,0.0062
2641.00,0.0062
2640.00,0.0062
2639.00,0.0062
2638.00,0.0061
2637.00,0.0061
2636.00,0.0061
2635.00,0.0061
2634.00,0.0060
2633.00,0.0060
2632.00,0.0060
2631.00,0.0060
2630.00,0.0059
2629.00,0.0059
2628.00,0.0059
2627.00,0.0059
2626.00,0.0059
2625.00,0.0059
2624.00,0.0059
2623.00,0.0058
2622.00,0.0058
2621.00,0.0058
2620.00,0.0058
2619.00,0.0058
2618.00,0.0057
2617.00,0.0057
2616.00,0.0057
2615.00,0.0057
2614.00,0.0058
2613.00,0.0058
2612.00,0.0057
2611.00,0.0057
2610.00,0.0057
2609.00,0.0057
2608.00,0.0057
2607.00,0.0057
2606.00,0.0057
2605.00,0.0057
2604.00,0.0057
2603.00,0.0057
2602.00,0.0057
2601.00,0.0058
2600.00,0.0058
2599.00,0.0058
2598.00,0.0058
2597.00,0.0057
2596.00,0.0057
2595.00,0.0058
2594.00,0.0058
2593.00,0.0058
2592.00,0.0058
2591.00,0.0058
2590.00,0.0058
2589.00,0.0058
2588.00,0.0058
2587.00,0.0058
2586.00,0.0058
2585.00,0.0058
2584.00,0.0058
2583.00,0.0058
2582.00,0.0058
2581.00,0.0058
2580.00,0.0057
2579.00,0.0057
2578.00,0.0057
2577.00,0.0057
2576.00,0.0057
2575.00,0.0057
2574.00,0.0057
2573.00,0.0057
2572.00,0.0057
2571.00,0.0057
2570.00,0.0057
2569.00,0.0057
2568.00,0.0057
2567.00,0.0056
2566.00,0.0056
2565.00,0.0055
2564.00,0.0055
2563.00,0.0056
2562.00,0.0056
2561.00,0.0055
2560.00,0.0055
2559.00,0.0055
2558.00,0.0055
2557.00,0.0054
2556.00,0.0054
2555.00,0.0054
2554.00,0.0054
2553.00,0.0054
2552.00,0.0054
2551.00,0.0054
2550.00,0.0054
2549.00,0.0054
2548.00,0.0054
2547.00,0.0054
2546.00,0.0054
2545.00,0.0053
2544.00,0.0053
2543.00,0.0053
2542.00,0.0053
2541.00,0.0053
2540.00,0.0053
2539.00,0.0053
2538.00,0.0053
2537.00,0.0053
2536.00,0.0053
2535.00,0.0053
2534.00,0.0053
2533.00,0.0053
2532.00,0.0053
2531.00,0.0053
2530.00,0.0053
2529.00,0.0052
2528.00,0.0052
2527.00,0.0051
2526.00,0.0051
2525.00,0.0051
2524.00,0.0051
2523.00,0.0051
2522.00,0.0051
2521.00,0.0050
2520.00,0.0050
2519.00,0.0050
2518.00,0.0050
2517.00,0.0050
2516.00,0.0050
2515.00,0.0050
2514.00,0.0050
2513.00,0.0050
2512.00,0.0050
2511.00,0.0050
2510.00,0.0050
2509.00,0.0050
2508.00,0.0050
2507.00,0.0049
2506.00,0.0049
2505.00,0.0048
2504.00,0.0048
2503.00,0.0048
2502.00,0.0048
2501.00,0.0048
2500.00,0.0048
2499.00,0.0048
2498.00,0.0048
2497.00,0.0048
2496.00,0.0048
2495.00,0.0048
2494.00,0.0048
2493.00,0.0048
2492.00,0.0049
2491.00,0.0049
2490.00,0.0049
2489.00,0.0048
2488.00,0.0048
2487.00,0.0048
2486.00,0.0048
2485.00,0.0048
2484.00,0.0048
2483.00,0.0047
2482.00,0.0047
2481.00,0.0047
2480.00,0.0047
2479.00,0.0047
2478.00,0.0047
2477.00,0.0047
2476.00,0.0047
2475.00,0.0047
2474.00,0.0047
2473.00,0.0046
2472.00,0.0046
2471.00,0.0047
2470.00,0.0047
2469.00,0.0047
2468.00,0.0047
2467.00,0.0047
2466.00,0.0047
2465.00,0.0047
2464.00,0.0046
2463.00,0.0047
2462.00,0.0047
2461.00,0.0047
2460.00,0.0047
2459.00,0.0047
2458.00,0.0047
2457.00,0.0047
2456.00,0.0048
2455.00,0.0048
2454.00,0.0048
2453.00,0.0048
2452.00,0.0048
2451.00,0.0048
2450.00,0.0048
2449.00,0.0048
2448.00,0.0048
2447.00,0.0048
2446.00,0.0047
2445.00,0.0047
2444.00,0.0047
2443.00,0.0047
2442.00,0.0047
2441.00,0.0047
2440.00,0.0046
2439.00,0.0046
2438.00,0.0045
2437.00,0.0045
2436.00,0.0045
2435.00,0.0045
2434.00,0.0045
2433.00,0.0045
2432.00,0.0045
2431.00,0.0045
2430.00,0.0045
2429.00,0.0045
2428.00,0.0044
2427.00,0.0044
2426.00,0.0044
2425.00,0.0044
2424.00,0.0045
2423.00,0.0045
2422.00,0.0045
2421.00,0.0046
2420.00,0.0046
2419.00,0.0046
2418.00,0.0045
2417.00,0.0045
2416.00,0.0045
2415.00,0.0045
2414.00,0.0045
2413.00,0.0045
2412.00,0.0045
2411.00,0.0045
2410.00,0.0045
2409.00,0.0045
2408.00,0.0044
2407.00,0.0044
2406.00,0.0044
2405.00,0.0044
2404.00,0.0044
2403.00,0.0044
2402.00,0.0044
2401.00,0.0044
2400.00,0.0044
2399.00,0.0044
2398.00,0.0044
2397.00,0.0043
2396.00,0.0043
2395.00,0.0043
2394.00,0.0043
2393.00,0.0043
2392.00,0.0043
2391.00,0.0043
2390.00,0.0043
2389.00,0.0043
2388.00,0.0043
2387.00,0.0043
2386.00,0.0042
2385.00,0.0042
2384.00,0.0041
2383.00,0.0040
2382.00,0.0040
2381.00,0.0039
2380.00,0.0039
2379.00,0.0039
2378.00,0.0039
2377.00,0.0039
2376.00,0.0039
2375.00,0.0039
2374.00,0.0039
2373.00,0.0039
2372.00,0.0039
2371.00,0.0039
2370.00,0.0040
2369.00,0.0040
2368.00,0.0040
2367.00,0.0040
2366.00,0.0040
2365.00,0.0040
2364.00,0.0040
2363.00,0.0040
2362.00,0.0040
2361.00,0.0041
2360.00,0.0041
2359.00,0.0042
2358.00,0.0042
2357.00,0.0042
2356.00,0.0042
2355.00,0.0042
2354.00,0.0041
2353.00,0.0041
2352.00,0.0041
2351.00,0.0041
2350.00,0.0042
2349.00,0.0042
2348.00,0.0042
2347.00,0.0042
2346.00,0.0042
2345.00,0.0043
2344.00,0.0043
2343.00,0.0044
2342.00,0.0044
2341.00,0.0044
2340.00,0.0044
2339.00,0.0044
2338.00,0.0044
2337.00,0.0044
2336.00,0.0044
2335.00,0.0044
2334.00,0.0043
2333.00,0.0043
2332.00,0.0042
2331.00,0.0043
2330.00,0.0044
2329.00,0.0046
2328.00,0.0049
2327.00,0.0053
2326.00,0.0055
2325.00,0.0056
2324.00,0.0055
2323.00,0.0053
2322.00,0.0052
2321.00,0.0051
2320.00,0.0050
2319.00,0.0050
2318.00,0.0050
2317.00,0.0049
2316.00,0.0049
2315.00,0.0048
2314.00,0.0048
2313.00,0.0048
2312.00,0.0048
2311.00,0.0048
2310.00,0.0048
2309.00,0.0048
2308.00,0.0048
2307.00,0.0048
2306.00,0.0048
2305.00,0.0048
2304.00,0.0048
2303.00,0.0048
2302.00,0.0048
2301.00,0.0048
2300.00,0.0049
2299.00,0.0049
2298.00,0.0050
2297.00,0.0050
2296.00,0.0051
2295.00,0.0052
2294.00,0.0052
2293.00,0.0053
2292.00,0.0054
2291.00,0.0054
2290.00,0.0054
2289.00,0.0054
2288.00,0.0055
2287.00,0.0055
2286.00,0.0054
2285.00,0.0054
2284.00,0.0053
2283.00,0.0052
2282.00,0.0052
2281.00,0.0051
2280.00,0.0051
2279.00,0.0051
2278.00,0.0050
2277.00,0.0049
2276.00,0.0049
2275.00,0.0048
2274.00,0.0048
2273.00,0.0048
2272.00,0.0048
2271.00,0.0048
2270.00,0.0049
2269.00,0.0048
2268.00,0.0047
2267.00,0.0046
2266.00,0.0045
2265.00,0.0045
2264.00,0.0044
2263.00,0.0044
2262.00,0.0045
2261.00,0.0045
2260.00,0.0046
2259.00,0.0047
2258.00,0.0047
2257.00,0.0046
2256.00,0.0044
2255.00,0.0043
2254.00,0.0043
2253.00,0.0043
2252.00,0.0044
2251.00,0.0044
2250.00,0.0045
2249.00,0.0045
2248.00,0.0045
2247.00,0.0045
2246.00,0.0044
2245.00,0.0044
2244.00,0.0044
2243.00,0.0044
2242.00,0.0044
2241.00,0.0044
2240.00,0.0044
2239.00,0.0044
2238.00,0.0045
2237.00,0.0045
2236.00,0.0045
2235.00,0.0045
2234.00,0.0045
2233.00,0.0044
2232.00,0.0044
2231.00,0.0044
2230.00,0.0044
2229.00,0.0045
2228.00,0.0045
2227.00,0.0045
2226.00,0.0045
2225.00,0.0044
2224.00,0.0043
2223.00,0.0043
2222.00,0.0044
2221.00,0.0044
2220.00,0.0044
2219.00,0.0044
2218.00,0.0044
2217.00,0.0043
2216.00,0.0042
2215.00,0.0042
2214.00,0.0043
2213.00,0.0043
2212.00,0.0043
2211.00,0.0043
2210.00,0.0043
2209.00,0.0044
2208.00,0.0044
2207.00,0.0045
2206.00,0.0044
2205.00,0.0044
2204.00,0.0042
2203.00,0.0041
2202.00,0.0041
2201.00,0.0041
2200.00,0.0041
2199.00,0.0042
2198.00,0.0043
2197.00,0.0043
2196.00,0.0044
2195.00,0.0046
2194.00,0.0047
2193.00,0.0047
2192.00,0.0047
2191.00,0.0046
2190.00,0.0046
2189.00,0.0045
2188.00,0.0045
2187.00,0.0045
2186.00,0.0044
2185.00,0.0044
2184.00,0.0043
2183.00,0.0043
2182.00,0.0042
2181.00,0.0042
2180.00,0.0043
2179.00,0.0042
2178.00,0.0040
2177.00,0.0038
2176.00,0.0037
2175.00,0.0038
2174.00,0.0040
2173.00,0.0043
2172.00,0.0045
2171.00,0.0048
2170.00,0.0050
2169.00,0.0051
2168.00,0.0052
2167.00,0.0052
2166.00,0.0052
2165.00,0.0052
2164.00,0.0052
2163.00,0.0052
2162.00,0.0047
2161.00,0.0038
2160.00,0.0026
2159.00,0.0016
2158.00,0.0011
2157.00,0.0009
2156.00,0.0012
2155.00,0.0015
2154.00,0.0019
2153.00,0.0022
2152.00,0.0025
2151.00,0.0027
2150.00,0.0028
2149.00,0.0028
2148.00,0.0028
2147.00,0.0027
2146.00,0.0025
2145.00,0.0025
2144.00,0.0025
2143.00,0.0025
2142.00,0.0025
2141.00,0.0026
2140.00,0.0027
2139.00,0.0027
2138.00,0.0027
2137.00,0.0026
2136.00,0.0023
2135.00,0.0021
2134.00,0.0020
2133.00,0.0021
2132.00,0.0023
2131.00,0.0026
2130.00,0.0028
2129.00,0.0030
2128.00,0.0032
2127.00,0.0032
2126.00,0.0032
2125.00,0.0033
2124.00,0.0034
2123.00,0.0035
2122.00,0.0035
2121.00,0.0036
2120.00,0.0037
2119.00,0.0037
2118.00,0.0038
2117.00,0.0039
2116.00,0.0040
2115.00,0.0040
2114.00,0.0040
2113.00,0.0039
2112.00,0.0039
2111.00,0.0039
2110.00,0.0039
2109.00,0.0039
2108.00,0.0039
2107.00,0.0038
2106.00,0.0038
2105.00,0.0039
2104.00,0.0040
2103.00,0.0040
2102.00,0.0040
2101.00,0.0039
2100.00,0.0039
2099.00,0.0038
2098.00,0.0037
2097.00,0.0036
2096.00,0.0035
2095.00,0.0035
2094.00,0.0035
2093.00,0.0036
2092.00,0.0037
2091.00,0.0038
2090.00,0.0038
2089.00,0.0038
2088.00,0.0039
2087.00,0.0039
2086.00,0.0039
2085.00,0.0040
2084.00,0.0040
2083.00,0.0041
2082.00,0.0040
2081.00,0.0040
2080.00,0.0040
2079.00,0.0040
2078.00,0.0041
2077.00,0.0041
2076.00,0.0042
2075.00,0.0042
2074.00,0.0042
2073.00,0.0041
2072.00,0.0040
2071.00,0.0040
2070.00,0.0039
2069.00,0.0039
2068.00,0.0038
2067.00,0.0038
2066.00,0.0037
2065.00,0.0036
2064.00,0.0035
2063.00,0.0035
2062.00,0.0036
2061.00,0.0036
2060.00,0.0036
2059.00,0.0037
2058.00,0.0037
2057.00,0.0036
2056.00,0.0035
2055.00,0.0034
2054.00,0.0036
2053.00,0.0041
2052.00,0.0045
2051.00,0.0046
2050.00,0.0043
2049.00,0.0040
2048.00,0.0038
2047.00,0.0038
2046.00,0.0038
2045.00,0.0037
2044.00,0.0036
2043.00,0.0036
2042.00,0.0037
2041.00,0.0038
2040.00,0.0040
2039.00,0.0041
2038.00,0.0041
2037.00,0.0040
2036.00,0.0038
2035.00,0.0036
2034.00,0.0034
2033.00,0.0033
2032.00,0.0033
2031.00,0.0033
2030.00,0.0032
2029.00,0.0032
2028.00,0.0032
2027.00,0.0032
2026.00,0.0031
2025.00,0.0031
2024.00,0.0031
2023.00,0.0030
2022.00,0.0030
2021.00,0.0030
2020.00,0.0031
2019.00,0.0032
2018.00,0.0032
2017.00,0.0032
2016.00,0.0032
2015.00,0.0032
2014.00,0.0031
2013.00,0.0030
2012.00,0.0030
2011.00,0.0030
2010.00,0.0029
2009.00,0.0028
2008.00,0.0025
2007.00,0.0023
2006.00,0.0022
2005.00,0.0022
2004.00,0.0024
2003.00,0.0024
2002.00,0.0025
2001.00,0.0027
2000.00,0.0029
1999.00,0.0030
1998.00,0.0031
1997.00,0.0031
1996.00,0.0032
1995.00,0.0034
1994.00,0.0036
1993.00,0.0037
1992.00,0.0037
1991.00,0.0037
1990.00,0.0038
1989.00,0.0038
1988.00,0.0040
1987.00,0.0040
1986.00,0.0041
1985.00,0.0041
1984.00,0.0043
1983.00,0.0046
1982.00,0.0048
1981.00,0.0048
1980.00,0.0046
1979.00,0.0040
1978.00,0.0033
1977.00,0.0027
1976.00,0.0023
1975.00,0.0021
1974.00,0.0021
1973.00,0.0023
1972.00,0.0025
1971.00,0.0026
1970.00,0.0027
1969.00,0.0027
1968.00,0.0027
1967.00,0.0027
1966.00,0.0025
1965.00,0.0025
1964.00,0.0025
1963.00,0.0026
1962.00,0.0026
1961.00,0.0026
1960.00,0.0026
1959.00,0.0026
1958.00,0.0026
1957.00,0.0025
1956.00,0.0025
1955.00,0.0025
1954.00,0.0026
1953.00,0.0026
1952.00,0.0028
1951.00,0.0029
1950.00,0.0029
1949.00,0.0029
1948.00,0.0028
1947.00,0.0027
1946.00,0.0027
1945.00,0.0028
1944.00,0.0029
1943.00,0.0031
1942.00,0.0031
1941.00,0.0031
1940.00,0.0030
1939.00,0.0030
1938.00,0.0029
1937.00,0.0028
1936.00,0.0028
1935.00,0.0029
1934.00,0.0030
1933.00,0.0030
1932.00,0.0031
1931.00,0.0031
1930.00,0.0030
1929.00,0.0029
1928.00,0.0029
1927.00,0.0028
1926.00,0.0029
1925.00,0.0031
1924.00,0.0033
1923.00,0.0034
1922.00,0.0034
1921.00,0.0033
1920.00,0.0033
1919.00,0.0033
1918.00,0.0033
1917.00,0.0033
1916.00,0.0034
1915.00,0.0034
1914.00,0.0035
1913.00,0.0035
1912.00,0.0037
1911.00,0.0039
1910.00,0.0041
1909.00,0.0042
1908.00,0.0042
1907.00,0.0041
1906.00,0.0039
1905.00,0.0038
1904.00,0.0037
1903.00,0.0036
1902.00,0.0036
1901.00,0.0035
1900.00,0.0035
1899.00,0.0035
1898.00,0.0036
1897.00,0.0037
1896.00,0.0038
1895.00,0.0038
1894.00,0.0038
1893.00,0.0037
1892.00,0.0037
1891.00,0.0037
1890.00,0.0037
1889.00,0.0036
1888.00,0.0036
1887.00,0.0036
1886.00,0.0036
1885.00,0.0036
1884.00,0.0035
1883.00,0.0035
1882.00,0.0035
1881.00,0.0035
1880.00,0.0035
1879.00,0.0035
1878.00,0.0036
1877.00,0.0036
1876.00,0.0036
1875.00,0.0036
1874.00,0.0036
1873.00,0.0035
1872.00,0.0035
1871.00,0.0036
1870.00,0.0036
1869.00,0.0037
1868.00,0.0036
1867.00,0.0036
1866.00,0.0035
1865.00,0.0035
1864.00,0.0036
1863.00,0.0036
1862.00,0.0036
1861.00,0.0036
1860.00,0.0037
1859.00,0.0037
1858.00,0.0036
1857.00,0.0036
1856.00,0.0036
1855.00,0.0036
1854.00,0.0036
1853.00,0.0037
1852.00,0.0037
1851.00,0.0038
1850.00,0.0039
1849.00,0.0040
1848.00,0.0040
1847.00,0.0039
1846.00,0.0038
1845.00,0.0038
1844.00,0.0037
1843.00,0.0036
1842.00,0.0036
1841.00,0.0037
1840.00,0.0038
1839.00,0.0038
1838.00,0.0038
1837.00,0.0038
1836.00,0.0038
1835.00,0.0038
1834.00,0.0037
1833.00,0.0037
1832.00,0.0037
1831.00,0.0037
1830.00,0.0037
1829.00,0.0036
1828.00,0.0036
1827.00,0.0036
1826.00,0.0037
1825.00,0.0037
1824.00,0.0037
1823.00,0.0037
1822.00,0.0037
1821.00,0.0037
1820.00,0.0036
1819.00,0.0036
1818.00,0.0035
1817.00,0.0034
1816.00,0.0035
1815.00,0.0036
1814.00,0.0037
1813.00,0.0038
1812.00,0.0039
1811.00,0.0039
1810.00,0.0038
1809.00,0.0038
1808.00,0.0038
1807.00,0.0038
1806.00,0.0038
1805.00,0.0038
1804.00,0.0039
1803.00,0.0040
1802.00,0.0040
1801.00,0.0040
1800.00,0.0040
1799.00,0.0040
1798.00,0.0041
1797.00,0.0041
1796.00,0.0041
1795.00,0.0041
1794.00,0.0041
1793.00,0.0040
1792.00,0.0040
1791.00,0.0040
1790.00,0.0040
1789.00,0.0041
1788.00,0.0041
1787.00,0.0042
1786.00,0.0042
1785.00,0.0042
1784.00,0.0042
1783.00,0.0042
1782.00,0.0042
1781.00,0.0043
1780.00,0.0043
1779.00,0.0042
1778.00,0.0043
1777.00,0.0043
1776.00,0.0044
1775.00,0.0045
1774.00,0.0045
1773.00,0.0044
1772.00,0.0043
1771.00,0.0043
1770.00,0.0042
1769.00,0.0043
1768.00,0.0044
1767.00,0.0044
1766.00,0.0044
1765.00,0.0044
1764.00,0.0044
1763.00,0.0045
1762.00,0.0045
1761.00,0.0045
1760.00,0.0046
1759.00,0.0047
1758.00,0.0047
1757.00,0.0047
1756.00,0.0047
1755.00,0.0047
1754.00,0.0047
1753.00,0.0048
1752.00,0.0049
1751.00,0.0049
1750.00,0.0050
1749.00,0.0050
1748.00,0.0050
1747.00,0.0051
1746.00,0.0051
1745.00,0.0052
1744.00,0.0052
1743.00,0.0051
1742.00,0.0050
1741.00,0.0049
1740.00,0.0050
1739.00,0.0050
1738.00,0.0050
1737.00,0.0051
1736.00,0.0052
1735.00,0.0053
1734.00,0.0054
1733.00,0.0055
1732.00,0.0057
1731.00,0.0059
1730.00,0.0060
1729.00,0.0060
1728.00,0.0061
1727.00,0.0062
1726.00,0.0064
1725.00,0.0065
1724.00,0.0067
1723.00,0.0069
1722.00,0.0069
1721.00,0.0069
1720.00,0.0071
1719.00,0.0074
1718.00,0.0078
1717.00,0.0080
1716.00,0.0081
1715.00,0.0083
1714.00,0.0085
1713.00,0.0089
1712.00,0.0093
1711.00,0.0098
1710.00,0.0102
1709.00,0.0106
1708.00,0.0111
1707.00,0.0117
1706.00,0.0124
1705.00,0.0131
1704.00,0.0138
1703.00,0.0144
1702.00,0.0150
1701.00,0.0161
1700.00,0.0180
1699.00,0.0200
1698.00,0.0218
1697.00,0.0236
1696.00,0.0256
1695.00,0.0277
1694.00,0.0297
1693.00,0.0316
1692.00,0.0336
1691.00,0.0358
1690.00,0.0382
1689.00,0.0404
1688.00,0.0426
1687.00,0.0445
1686.00,0.0466
1685.00,0.0492
1684.00,0.0522
1683.00,0.0548
1682.00,0.0570
1681.00,0.0591
1680.00,0.0611
1679.00,0.0628
1678.00,0.0643
1677.00,0.0658
1676.00,0.0677
1675.00,0.0698
1674.00,0.0716
1673.00,0.0732
1672.00,0.0746
1671.00,0.0760
1670.00,0.0775
1669.00,0.0790
1668.00,0.0803
1667.00,0.0814
1666.00,0.0823
1665.00,0.0830
1664.00,0.0839
1663.00,0.0848
1662.00,0.0857
1661.00,0.0863
1660.00,0.0869
1659.00,0.0873
1658.00,0.0875
1657.00,0.0875
1656.00,0.0874
1655.00,0.0872
1654.00,0.0869
1653.00,0.0861
1652.00,0.0852
1651.00,0.0843
1650.00,0.0834
1649.00,0.0822
1648.00,0.0807
1647.00,0.0786
1646.00,0.0761
1645.00,0.0738
1644.00,0.0718
1643.00,0.0699
1642.00,0.0678
1641.00,0.0656
1640.00,0.0634
1639.00,0.0612
1638.00,0.0591
1637.00,0.0568
1636.00,0.0544
1635.00,0.0522
1634.00,0.0507
1633.00,0.0500
1632.00,0.0497
1631.00,0.0497
1630.00,0.0502
1629.00,0.0514
1628.00,0.0531
1627.00,0.0550
1626.00,0.0569
1625.00,0.0584
1624.00,0.0597
1623.00,0.0606
1622.00,0.0608
1621.00,0.0602
1620.00,0.0591
1619.00,0.0575
1618.00,0.0550
1617.00,0.0520
1616.00,0.0489
1615.00,0.0469
1614.00,0.0457
1613.00,0.0452
1612.00,0.0449
1611.00,0.0445
1610.00,0.0436
1609.00,0.0422
1608.00,0.0402
1607.00,0.0379
1606.00,0.0355
1605.00,0.0332
1604.00,0.0310
1603.00,0.0290
1602.00,0.0272
1601.00,0.0256
1600.00,0.0243
1599.00,0.0233
1598.00,0.0226
1597.00,0.0221
1596.00,0.0219
1595.00,0.0219
1594.00,0.0223
1593.00,0.0231
1592.00,0.0243
1591.00,0.0259
1590.00,0.0279
1589.00,0.0300
1588.00,0.0321
1587.00,0.0339
1586.00,0.0353
1585.00,0.0361
1584.00,0.0363
1583.00,0.0361
1582.00,0.0353
1581.00,0.0343
1580.00,0.0331
1579.00,0.0319
1578.00,0.0306
1577.00,0.0290
1576.00,0.0272
1575.00,0.0254
1574.00,0.0241
1573.00,0.0232
1572.00,0.0224
1571.00,0.0218
1570.00,0.0212
1569.00,0.0206
1568.00,0.0200
1567.00,0.0194
1566.00,0.0187
1565.00,0.0179
1564.00,0.0169
1563.00,0.0159
1562.00,0.0150
1561.00,0.0140
1560.00,0.0132
1559.00,0.0124
1558.00,0.0115
1557.00,0.0112
1556.00,0.0112
1555.00,0.0112
1554.00,0.0111
1553.00,0.0109
1552.00,0.0109
1551.00,0.0108
1550.00,0.0106
1549.00,0.0104
1548.00,0.0102
1547.00,0.0100
1546.00,0.0099
1545.00,0.0098
1544.00,0.0096
1543.00,0.0094
1542.00,0.0093
1541.00,0.0094
1540.00,0.0092
1539.00,0.0091
1538.00,0.0090
1537.00,0.0091
1536.00,0.0090
1535.00,0.0091
1534.00,0.0091
1533.00,0.0090
1532.00,0.0090
1531.00,0.0091
1530.00,0.0092
1529.00,0.0093
1528.00,0.0094
1527.00,0.0094
1526.00,0.0094
1525.00,0.0095
1524.00,0.0096
1523.00,0.0098
1522.00,0.0100
1521.00,0.0102
1520.00,0.0102
1519.00,0.0105
1518.00,0.0109
1517.00,0.0114
1516.00,0.0117
1515.00,0.0121
1514.00,0.0124
1513.00,0.0128
1512.00,0.0133
1511.00,0.0137
1510.00,0.0142
1509.00,0.0147
1508.00,0.0152
1507.00,0.0154
1506.00,0.0156
1505.00,0.0162
1504.00,0.0170
1503.00,0.0181
1502.00,0.0192
1501.00,0.0206
1500.00,0.0224
1499.00,0.0246
1498.00,0.0271
1497.00,0.0294
1496.00,0.0309
1495.00,0.0312
1494.00,0.0307
1493.00,0.0297
1492.00,0.0284
1491.00,0.0268
1490.00,0.0252
1489.00,0.0235
1488.00,0.0218
1487.00,0.0203
1486.00,0.0191
1485.00,0.0181
1484.00,0.0172
1483.00,0.0165
1482.00,0.0160
1481.00,0.0155
1480.00,0.0152
1479.00,0.0151
1478.00,0.0152
1477.00,0.0155
1476.00,0.0159
1475.00,0.0165
1474.00,0.0174
1473.00,0.0188
1472.00,0.0207
1471.00,0.0230
1470.00,0.0256
1469.00,0.0285
1468.00,0.0314
1467.00,0.0342
1466.00,0.0369
1465.00,0.0392
1464.00,0.0411
1463.00,0.0423
1462.00,0.0432
1461.00,0.0437
1460.00,0.0439
1459.00,0.0438
1458.00,0.0429
1457.00,0.0412
1456.00,0.0392
1455.00,0.0376
1454.00,0.0364
1453.00,0.0355
1452.00,0.0349
1451.00,0.0345
1450.00,0.0346
1449.00,0.0350
1448.00,0.0359
1447.00,0.0371
1446.00,0.0385
1445.00,0.0403
1444.00,0.0423
1443.00,0.0444
1442.00,0.0465
1441.00,0.0485
1440.00,0.0503
1439.00,0.0519
1438.00,0.0534
1437.00,0.0551
1436.00,0.0569
1435.00,0.0584
1434.00,0.0597
1433.00,0.0609
1432.00,0.0619
1431.00,0.0629
1430.00,0.0638
1429.00,0.0648
1428.00,0.0659
1427.00,0.0669
1426.00,0.0680
1425.00,0.0691
1424.00,0.0700
1423.00,0.0704
1422.00,0.0703
1421.00,0.0696
1420.00,0.0682
1419.00,0.0659
1418.00,0.0630
1417.00,0.0600
1416.00,0.0568
1415.00,0.0537
1414.00,0.0506
1413.00,0.0479
1412.00,0.0456
1411.00,0.0438
1410.00,0.0425
1409.00,0.0417
1408.00,0.0415
1407.00,0.0418
1406.00,0.0425
1405.00,0.0435
1404.00,0.0445
1403.00,0.0454
1402.00,0.0459
1401.00,0.0461
1400.00,0.0458
1399.00,0.0449
1398.00,0.0435
1397.00,0.0417
1396.00,0.0396
1395.00,0.0372
1394.00,0.0349
1393.00,0.0330
1392.00,0.0315
1391.00,0.0306
1390.00,0.0302
1389.00,0.0306
1388.00,0.0315
1387.00,0.0324
1386.00,0.0330
1385.00,0.0330
1384.00,0.0327
1383.00,0.0326
1382.00,0.0328
1381.00,0.0334
1380.00,0.0339
1379.00,0.0344
1378.00,0.0346
1377.00,0.0345
1376.00,0.0340
1375.00,0.0333
1374.00,0.0323
1373.00,0.0314
1372.00,0.0307
1371.00,0.0305
1370.00,0.0308
1369.00,0.0315
1368.00,0.0325
1367.00,0.0337
1366.00,0.0348
1365.00,0.0356
1364.00,0.0361
1363.00,0.0365
1362.00,0.0372
1361.00,0.0380
1360.00,0.0381
1359.00,0.0373
1358.00,0.0357
1357.00,0.0336
1356.00,0.0316
1355.00,0.0301
1354.00,0.0289
1353.00,0.0281
1352.00,0.0275
1351.00,0.0271
1350.00,0.0270
1349.00,0.0269
1348.00,0.0267
1347.00,0.0266
1346.00,0.0263
1345.00,0.0258
1344.00,0.0253
1343.00,0.0247
1342.00,0.0241
1341.00,0.0236
1340.00,0.0230
1339.00,0.0224
1338.00,0.0219
1337.00,0.0216
1336.00,0.0216
1335.00,0.0218
1334.00,0.0222
1333.00,0.0228
1332.00,0.0233
1331.00,0.0238
1330.00,0.0243
1329.00,0.0248
1328.00,0.0252
1327.00,0.0256
1326.00,0.0260
1325.00,0.0265
1324.00,0.0270
1323.00,0.0276
1322.00,0.0283
1321.00,0.0290
1320.00,0.0296
1319.00,0.0300
1318.00,0.0303
1317.00,0.0303
1316.00,0.0301
1315.00,0.0298
1314.00,0.0295
1313.00,0.0291
1312.00,0.0287
1311.00,0.0284
1310.00,0.0284
1309.00,0.0286
1308.00,0.0290
1307.00,0.0297
1306.00,0.0308
1305.00,0.0323
1304.00,0.0341
1303.00,0.0360
1302.00,0.0380
1301.00,0.0397
1300.00,0.0411
1299.00,0.0424
1298.00,0.0439
1297.00,0.0458
1296.00,0.0482
1295.00,0.0510
1294.00,0.0541
1293.00,0.0572
1292.00,0.0603
1291.00,0.0632
1290.00,0.0659
1289.00,0.0685
1288.00,0.0708
1287.00,0.0727
1286.00,0.0743
1285.00,0.0752
1284.00,0.0755
1283.00,0.0751
1282.00,0.0740
1281.00,0.0725
1280.00,0.0706
1279.00,0.0687
1278.00,0.0672
1277.00,0.0660
1276.00,0.0654
1275.00,0.0651
1274.00,0.0650
1273.00,0.0650
1272.00,0.0649
1271.00,0.0645
1270.00,0.0639
1269.00,0.0629
1268.00,0.0616
1267.00,0.0600
1266.00,0.0582
1265.00,0.0561
1264.00,0.0539
1263.00,0.0516
1262.00,0.0493
1261.00,0.0471
1260.00,0.0449
1259.00,0.0428
1258.00,0.0410
1257.00,0.0393
1256.00,0.0378
1255.00,0.0365
1254.00,0.0355
1253.00,0.0346
1252.00,0.0340
1251.00,0.0336
1250.00,0.0335
1249.00,0.0337
1248.00,0.0341
1247.00,0.0348
1246.00,0.0357
1245.00,0.0366
1244.00,0.0374
1243.00,0.0381
1242.00,0.0387
1241.00,0.0393
1240.00,0.0400
1239.00,0.0409
1238.00,0.0421
1237.00,0.0435
1236.00,0.0450
1235.00,0.0462
1234.00,0.0472
1233.00,0.0476
1232.00,0.0475
1231.00,0.0469
1230.00,0.0461
1229.00,0.0451
1228.00,0.0440
1227.00,0.0430
1226.00,0.0420
1225.00,0.0411
1224.00,0.0404
1223.00,0.0398
1222.00,0.0393
1221.00,0.0391
1220.00,0.0390
1219.00,0.0391
1218.00,0.0394
1217.00,0.0397
1216.00,0.0399
1215.00,0.0400
1214.00,0.0398
1213.00,0.0392
1212.00,0.0382
1211.00,0.0369
1210.00,0.0354
1209.00,0.0340
1208.00,0.0328
1207.00,0.0318
1206.00,0.0311
1205.00,0.0309
1204.00,0.0310
1203.00,0.0315
1202.00,0.0324
1201.00,0.0335
1200.00,0.0349
1199.00,0.0365
1198.00,0.0383
1197.00,0.0400
1196.00,0.0414
1195.00,0.0423
1194.00,0.0424
1193.00,0.0418
1192.00,0.0405
1191.00,0.0388
1190.00,0.0369
1189.00,0.0349
1188.00,0.0329
1187.00,0.0310
1186.00,0.0294
1185.00,0.0280
1184.00,0.0269
1183.00,0.0259
1182.00,0.0253
1181.00,0.0248
1180.00,0.0244
1179.00,0.0242
1178.00,0.0241
1177.00,0.0240
1176.00,0.0241
1175.00,0.0242
1174.00,0.0244
1173.00,0.0246
1172.00,0.0248
1171.00,0.0249
1170.00,0.0251
1169.00,0.0252
1168.00,0.0253
1167.00,0.0255
1166.00,0.0256
1165.00,0.0258
1164.00,0.0261
1163.00,0.0266
1162.00,0.0273
1161.00,0.0285
1160.00,0.0301
1159.00,0.0323
1158.00,0.0350
1157.00,0.0378
1156.00,0.0403
1155.00,0.0416
1154.00,0.0415
1153.00,0.0397
1152.00,0.0367
1151.00,0.0331
1150.00,0.0297
1149.00,0.0268
1148.00,0.0246
1147.00,0.0230
1146.00,0.0218
1145.00,0.0210
1144.00,0.0204
1143.00,0.0200
1142.00,0.0197
1141.00,0.0195
1140.00,0.0195
1139.00,0.0196
1138.00,0.0201
1137.00,0.0208
1136.00,0.0219
1135.00,0.0236
1134.00,0.0260
1133.00,0.0291
1132.00,0.0328
1131.00,0.0366
1130.00,0.0398
1129.00,0.0418
1128.00,0.0423
1127.00,0.0416
1126.00,0.0399
1125.00,0.0376
1124.00,0.0348
1123.00,0.0319
1122.00,0.0292
1121.00,0.0268
1120.00,0.0249
1119.00,0.0235
1118.00,0.0226
1117.00,0.0220
1116.00,0.0217
1115.00,0.0216
1114.00,0.0215
1113.00,0.0213
1112.00,0.0210
1111.00,0.0205
1110.00,0.0201
1109.00,0.0199
1108.00,0.0197
1107.00,0.0198
1106.00,0.0202
1105.00,0.0210
1104.00,0.0223
1103.00,0.0240
1102.00,0.0260
1101.00,0.0278
1100.00,0.0290
1099.00,0.0293
1098.00,0.0286
1097.00,0.0271
1096.00,0.0251
1095.00,0.0231
1094.00,0.0214
1093.00,0.0199
1092.00,0.0188
1091.00,0.0179
1090.00,0.0173
1089.00,0.0169
1088.00,0.0166
1087.00,0.0164
1086.00,0.0163
1085.00,0.0162
1084.00,0.0161
1083.00,0.0161
1082.00,0.0161
1081.00,0.0162
1080.00,0.0164
1079.00,0.0166
1078.00,0.0168
1077.00,0.0171
1076.00,0.0173
1075.00,0.0175
1074.00,0.0177
1073.00,0.0180
1072.00,0.0182
1071.00,0.0184
1070.00,0.0188
1069.00,0.0192
1068.00,0.0197
1067.00,0.0202
1066.00,0.0210
1065.00,0.0219
1064.00,0.0231
1063.00,0.0246
1062.00,0.0265
1061.00,0.0289
1060.00,0.0319
1059.00,0.0354
1058.00,0.0395
1057.00,0.0437
1056.00,0.0476
1055.00,0.0507
1054.00,0.0529
1053.00,0.0542
1052.00,0.0548
1051.00,0.0551
1050.00,0.0550
1049.00,0.0542
1048.00,0.0526
1047.00,0.0502
1046.00,0.0472
1045.00,0.0439
1044.00,0.0404
1043.00,0.0371
1042.00,0.0342
1041.00,0.0317
1040.00,0.0298
1039.00,0.0284
1038.00,0.0278
1037.00,0.0276
1036.00,0.0278
1035.00,0.0283
1034.00,0.0290
1033.00,0.0301
1032.00,0.0319
1031.00,0.0344
1030.00,0.0378
1029.00,0.0415
1028.00,0.0448
1027.00,0.0469
1026.00,0.0471
1025.00,0.0455
1024.00,0.0424
1023.00,0.0389
1022.00,0.0355
1021.00,0.0326
1020.00,0.0303
1019.00,0.0283
1018.00,0.0268
1017.00,0.0254
1016.00,0.0242
1015.00,0.0231
1014.00,0.0221
1013.00,0.0213
1012.00,0.0206
1011.00,0.0203
1010.00,0.0204
1009.00,0.0208
1008.00,0.0216
1007.00,0.0227
1006.00,0.0241
1005.00,0.0253
1004.00,0.0262
1003.00,0.0267
1002.00,0.0267
1001.00,0.0263
1000.00,0.0256
999.00,0.0247
998.00,0.0240
997.00,0.0232
996.00,0.0225
995.00,0.0219
994.00,0.0214
993.00,0.0208
992.00,0.0200
991.00,0.0192
990.00,0.0184
989.00,0.0177
988.00,0.0169
987.00,0.0163
986.00,0.0158
985.00,0.0154
984.00,0.0150
983.00,0.0148
982.00,0.0146
981.00,0.0145
980.00,0.0144
979.00,0.0143
978.00,0.0143
977.00,0.0143
976.00,0.0143
975.00,0.0142
974.00,0.0142
973.00,0.0141
972.00,0.0140
971.00,0.0139
970.00,0.0139
969.00,0.0138
968.00,0.0137
967.00,0.0137
966.00,0.0138
965.00,0.0139
964.00,0.0141
963.00,0.0142
962.00,0.0142
961.00,0.0141
960.00,0.0137
959.00,0.0133
958.00,0.0128
957.00,0.0125
956.00,0.0121
955.00,0.0119
954.00,0.0117
953.00,0.0115
952.00,0.0114
951.00,0.0115
950.00,0.0116
949.00,0.0118
948.00,0.0120
947.00,0.0120
946.00,0.0121
945.00,0.0122
944.00,0.0123
943.00,0.0127
942.00,0.0132
941.00,0.0138
940.00,0.0144
939.00,0.0151
938.00,0.0157
937.00,0.0163
936.00,0.0168
935.00,0.0174
934.00,0.0178
933.00,0.0181
932.00,0.0181
931.00,0.0178
930.00,0.0174
929.00,0.0169
928.00,0.0166
927.00,0.0164
926.00,0.0165
925.00,0.0168
924.00,0.0171
923.00,0.0174
922.00,0.0176
921.00,0.0175
920.00,0.0170
919.00,0.0162
918.00,0.0154
917.00,0.0146
916.00,0.0139
915.00,0.0133
914.00,0.0130
913.00,0.0128
912.00,0.0126
911.00,0.0125
910.00,0.0125
909.00,0.0125
908.00,0.0126
907.00,0.0128
906.00,0.0132
905.00,0.0137
904.00,0.0143
903.00,0.0153
902.00,0.0164
901.00,0.0176
900.00,0.0186
899.00,0.0191
898.00,0.0191
897.00,0.0187
896.00,0.0180
895.00,0.0174
894.00,0.0171
893.00,0.0172
892.00,0.0177
891.00,0.0183
890.00,0.0187
889.00,0.0183
888.00,0.0171
887.00,0.0158
886.00,0.0147
885.00,0.0140
884.00,0.0136
883.00,0.0136
882.00,0.0137
881.00,0.0140
880.00,0.0145
879.00,0.0152
878.00,0.0164
877.00,0.0180
876.00,0.0200
875.00,0.0224
874.00,0.0251
873.00,0.0280
872.00,0.0306
871.00,0.0327
870.00,0.0339
869.00,0.0338
868.00,0.0326
867.00,0.0309
866.00,0.0291
865.00,0.0274
864.00,0.0259
863.00,0.0246
862.00,0.0235
861.00,0.0225
860.00,0.0218
859.00,0.0215
858.00,0.0219
857.00,0.0228
856.00,0.0242
855.00,0.0258
854.00,0.0275
853.00,0.0292
852.00,0.0307
851.00,0.0323
850.00,0.0337
849.00,0.0346
848.00,0.0346
847.00,0.0338
846.00,0.0327
845.00,0.0315
844.00,0.0303
843.00,0.0293
842.00,0.0287
841.00,0.0283
840.00,0.0283
839.00,0.0287
838.00,0.0297
837.00,0.0310
836.00,0.0324
835.00,0.0334
834.00,0.0341
833.00,0.0340
832.00,0.0333
831.00,0.0319
830.00,0.0300
829.00,0.0279
828.00,0.0256
827.00,0.0237
826.00,0.0224
825.00,0.0220
824.00,0.0228
823.00,0.0253
822.00,0.0292
821.00,0.0331
820.00,0.0358
819.00,0.0372
818.00,0.0384
817.00,0.0398
816.00,0.0407
815.00,0.0396
814.00,0.0360
813.00,0.0310
812.00,0.0262
811.00,0.0226
810.00,0.0200
809.00,0.0182
808.00,0.0168
807.00,0.0157
806.00,0.0149
805.00,0.0142
804.00,0.0137
803.00,0.0133
802.00,0.0131
801.00,0.0129
800.00,0.0127
799.00,0.0125
798.00,0.0124
797.00,0.0123
796.00,0.0123
795.00,0.0123
794.00,0.0124
793.00,0.0125
792.00,0.0124
791.00,0.0124
790.00,0.0125
789.00,0.0125
788.00,0.0125
787.00,0.0125
786.00,0.0126
785.00,0.0127
784.00,0.0128
783.00,0.0129
782.00,0.0131
781.00,0.0133
780.00,0.0134
779.00,0.0137
778.00,0.0143
777.00,0.0151
776.00,0.0159
775.00,0.0166
774.00,0.0171
773.00,0.0170
772.00,0.0165
771.00,0.0160
770.00,0.0156
769.00,0.0155
768.00,0.0154
767.00,0.0155
766.00,0.0157
765.00,0.0159
764.00,0.0163
763.00,0.0168
762.00,0.0174
761.00,0.0180
760.00,0.0185
759.00,0.0188
758.00,0.0191
757.00,0.0193
756.00,0.0193
755.00,0.0194
754.00,0.0196
753.00,0.0199
752.00,0.0201
751.00,0.0204
750.00,0.0208
749.00,0.0212
748.00,0.0215
747.00,0.0219
746.00,0.0224
745.00,0.0228
744.00,0.0233
743.00,0.0239
742.00,0.0247
741.00,0.0256
740.00,0.0267
739.00,0.0282
738.00,0.0301
737.00,0.0323
736.00,0.0343
735.00,0.0357
734.00,0.0361
733.00,0.0356
732.00,0.0347
731.00,0.0339
730.00,0.0335
729.00,0.0331
728.00,0.0324
727.00,0.0313
726.00,0.0297
725.00,0.0280
724.00,0.0264
723.00,0.0252
722.00,0.0243
721.00,0.0238
720.00,0.0236
719.00,0.0237
718.00,0.0242
717.00,0.0248
716.00,0.0253
715.00,0.0256
714.00,0.0257
713.00,0.0255
712.00,0.0250
711.00,0.0245
710.00,0.0242
709.00,0.0239
708.00,0.0237
707.00,0.0237
706.00,0.0238
705.00,0.0240
704.00,0.0243
703.00,0.0246
702.00,0.0252
701.00,0.0257
700.00,0.0262
699.00,0.0267
698.00,0.0271
697.00,0.0273
696.00,0.0273
695.00,0.0272
694.00,0.0272
693.00,0.0274
692.00,0.0277
691.00,0.0284
690.00,0.0293
689.00,0.0302
688.00,0.0307
687.00,0.0308
686.00,0.0307
685.00,0.0304
684.00,0.0301
683.00,0.0299
682.00,0.0301
681.00,0.0303
680.00,0.0307
679.00,0.0313
678.00,0.0320
677.00,0.0329
676.00,0.0338
675.00,0.0348
674.00,0.0359
673.00,0.0369
672.00,0.0377
671.00,0.0383
670.00,0.0387
669.00,0.0389
668.00,0.0390
667.00,0.0394
666.00,0.0400
665.00,0.0406
664.00,0.0413
663.00,0.0420
662.00,0.0429
661.00,0.0436
660.00,0.0440
659.00,0.0442
658.00,0.0444
657.00,0.0446
656.00,0.0448
655.00,0.0450
654.00,0.0454
653.00,0.0459
652.00,0.0463
651.00,0.0466
650.00,0.0470
649.00,0.0472
648.00,0.0472
647.00,0.0470
646.00,0.0469
645.00,0.0466
644.00,0.0461
643.00,0.0457
642.00,0.0453
641.00,0.0449
640.00,0.0443
639.00,0.0436
638.00,0.0431
637.00,0.0426
636.00,0.0421
635.00,0.0418
634.00,0.0415
633.00,0.0412
632.00,0.0408
631.00,0.0405
630.00,0.0403
629.00,0.0400
628.00,0.0398
627.00,0.0397
626.00,0.0400
625.00,0.0403
624.00,0.0406
623.00,0.0411
622.00,0.0416
621.00,0.0420
620.00,0.0422
619.00,0.0421
618.00,0.0419
617.00,0.0415
616.00,0.0409
615.00,0.0402
614.00,0.0397
613.00,0.0393
612.00,0.0390
611.00,0.0390
610.00,0.0395
609.00,0.0402
608.00,0.0411
607.00,0.0422
606.00,0.0436
605.00,0.0449
604.00,0.0460
603.00,0.0469
602.00,0.0475
601.00,0.0479
600.00,0.0480
599.00,0.0479
598.00,0.0480
597.00,0.0481
596.00,0.0482
595.00,0.0483
594.00,0.0486
593.00,0.0489
592.00,0.0489
591.00,0.0490
590.00,0.0492
589.00,0.0494
588.00,0.0496
587.00,0.0499
586.00,0.0505
585.00,0.0512
584.00,0.0520
583.00,0.0528
582.00,0.0538
581.00,0.0548
580.00,0.0558
579.00,0.0569
578.00,0.0583
577.00,0.0595
576.00,0.0601
575.00,0.0600
574.00,0.0595
573.00,0.0586
572.00,0.0576
571.00,0.0567
570.00,0.0561
569.00,0.0555
568.00,0.0549
567.00,0.0545
566.00,0.0545
565.00,0.0547
564.00,0.0550
563.00,0.0554
562.00,0.0561
561.00,0.0566
560.00,0.0565
559.00,0.0561
558.00,0.0555
557.00,0.0547
556.00,0.0537
555.00,0.0527
554.00,0.0520
553.00,0.0515
552.00,0.0511
551.00,0.0511
550.00,0.0515
549.00,0.0522
548.00,0.0528
547.00,0.0535
546.00,0.0540
545.00,0.0539
544.00,0.0532
543.00,0.0522
542.00,0.0513
541.00,0.0505
540.00,0.0496
539.00,0.0489
538.00,0.0487
537.00,0.0487
536.00,0.0488
535.00,0.0492
534.00,0.0500
533.00,0.0509
532.00,0.0513
531.00,0.0515
530.00,0.0514
529.00,0.0511
528.00,0.0504
527.00,0.0495
526.00,0.0487
525.00,0.0479
524.00,0.0469
523.00,0.0463
522.00,0.0460
521.00,0.0458
520.00,0.0455
519.00,0.0452
518.00,0.0451
517.00,0.0450
516.00,0.0446
515.00,0.0443
514.00,0.0443
513.00,0.0444
512.00,0.0442
511.00,0.0441
510.00,0.0442
509.00,0.0442
508.00,0.0441
507.00,0.0443
506.00,0.0447
505.00,0.0451
504.00,0.0451
503.00,0.0449
502.00,0.0449
501.00,0.0448
500.00,0.0445
499.00,0.0442
498.00,0.0443
497.00,0.0444
496.00,0.0443
495.00,0.0445
494.00,0.0450
493.00,0.0455
492.00,0.0454
491.00,0.0451
490.00,0.0450
489.00,0.0451
488.00,0.0450
487.00,0.0450
486.00,0.0451
485.00,0.0450
484.00,0.0444
483.00,0.0440
482.00,0.0442
481.00,0.0444
480.00,0.0443
479.00,0.0442
478.00,0.0442
477.00,0.0442
476.00,0.0439
475.00,0.0439
474.00,0.0443
473.00,0.0446
472.00,0.0443
471.00,0.0440
470.00,0.0441
469.00,0.0442
468.00,0.0440
467.00,0.0438
466.00,0.0440
465.00,0.0442
464.00,0.0439
463.00,0.0437
462.00,0.0440
461.00,0.0442
460.00,0.0437
459.00,0.0432
458.00,0.0431
457.00,0.0431
456.00,0.0428
455.00,0.0426
454.00,0.0430
453.00,0.0433
452.00,0.0431
451.00,0.0428
450.00,0.0429
449.00,0.0426
448.00,0.0419
447.00,0.0415
446.00,0.0417
445.00,0.0419
444.00,0.0415
443.00,0.0410
442.00,0.0411
441.00,0.0413
440.00,0.0410
439.00,0.0407
438.00,0.0409
437.00,0.0410
436.00,0.0405
435.00,0.0402
434.00,0.0405
433.00,0.0407
432.00,0.0401
431.00,0.0395
430.00,0.0396
429.00,0.0399
428.00,0.0397
427.00,0.0395
426.00,0.0396
425.00,0.0394
424.00,0.0385
423.00,0.0380
422.00,0.0387
421.00,0.0395
420.00,0.0394
419.00,0.0388
418.00,0.0387
417.00,0.0384
416.00,0.0376
415.00,0.0372
414.00,0.0382
413.00,0.0393
412.00,0.0395
411.00,0.0394
410.00,0.0398
409.00,0.0400
408.00,0.0391
407.00,0.0383
406.00,0.0382
405.00,0.0379
404.00,0.0366
403.00,0.0359
402.00,0.0369
401.00,0.0373
400.00,0.0356
