Created as New Dataset,Sample 1035 By YargerLab Date Monday, August 04 2025
cm-1,A
4000.00,-0.0002
3999.00,-0.0001
3998.00,-0.0001
3997.00,-0.0001
3996.00,-0.0001
3995.00,-0.0001
3994.00,-0.0001
3993.00,-0.0002
3992.00,-0.0001
3991.00,-0.0001
3990.00,-0.0001
3989.00,-0.0001
3988.00,-0.0001
3987.00,-0.0001
3986.00,-0.0002
3985.00,-0.0002
3984.00,-0.0002
3983.00,-0.0002
3982.00,-0.0002
3981.00,-0.0002
3980.00,-0.0002
3979.00,-0.0002
3978.00,-0.0002
3977.00,-0.0002
3976.00,-0.0002
3975.00,-0.0002
3974.00,-0.0001
3973.00,-0.0001
3972.00,-0.0001
3971.00,-0.0002
3970.00,-0.0002
3969.00,-0.0002
3968.00,-0.0002
3967.00,-0.0002
3966.00,-0.0002
3965.00,-0.0002
3964.00,-0.0002
3963.00,-0.0002
3962.00,-0.0002
3961.00,-0.0002
3960.00,-0.0002
3959.00,-0.0002
3958.00,-0.0002
3957.00,-0.0002
3956.00,-0.0002
3955.00,-0.0002
3954.00,-0.0002
3953.00,-0.0002
3952.00,-0.0002
3951.00,-0.0002
3950.00,-0.0002
3949.00,-0.0002
3948.00,-0.0002
3947.00,-0.0002
3946.00,-0.0002
3945.00,-0.0002
3944.00,-0.0002
3943.00,-0.0002
3942.00,-0.0002
3941.00,-0.0002
3940.00,-0.0002
3939.00,-0.0002
3938.00,-0.0002
3937.00,-0.0001
3936.00,-0.0001
3935.00,-0.0002
3934.00,-0.0002
3933.00,-0.0002
3932.00,-0.0002
3931.00,-0.0002
3930.00,-0.0002
3929.00,-0.0002
3928.00,-0.0002
3927.00,-0.0002
3926.00,-0.0002
3925.00,-0.0002
3924.00,-0.0002
3923.00,-0.0002
3922.00,-0.0002
3921.00,-0.0002
3920.00,-0.0002
3919.00,-0.0002
3918.00,-0.0002
3917.00,-0.0002
3916.00,-0.0002
3915.00,-0.0002
3914.00,-0.0002
3913.00,-0.0002
3912.00,-0.0002
3911.00,-0.0002
3910.00,-0.0002
3909.00,-0.0002
3908.00,-0.0002
3907.00,-0.0002
3906.00,-0.0002
3905.00,-0.0003
3904.00,-0.0003
3903.00,-0.0003
3902.00,-0.0004
3901.00,-0.0004
3900.00,-0.0004
3899.00,-0.0003
3898.00,-0.0003
3897.00,-0.0003
3896.00,-0.0003
3895.00,-0.0003
3894.00,-0.0003
3893.00,-0.0003
3892.00,-0.0003
3891.00,-0.0003
3890.00,-0.0003
3889.00,-0.0003
3888.00,-0.0003
3887.00,-0.0003
3886.00,-0.0003
3885.00,-0.0003
3884.00,-0.0003
3883.00,-0.0003
3882.00,-0.0003
3881.00,-0.0003
3880.00,-0.0002
3879.00,-0.0002
3878.00,-0.0002
3877.00,-0.0002
3876.00,-0.0003
3875.00,-0.0003
3874.00,-0.0003
3873.00,-0.0003
3872.00,-0.0003
3871.00,-0.0003
3870.00,-0.0003
3869.00,-0.0003
3868.00,-0.0003
3867.00,-0.0004
3866.00,-0.0004
3865.00,-0.0003
3864.00,-0.0003
3863.00,-0.0003
3862.00,-0.0002
3861.00,-0.0002
3860.00,-0.0002
3859.00,-0.0002
3858.00,-0.0003
3857.00,-0.0003
3856.00,-0.0004
3855.00,-0.0004
3854.00,-0.0004
3853.00,-0.0004
3852.00,-0.0005
3851.00,-0.0005
3850.00,-0.0004
3849.00,-0.0003
3848.00,-0.0003
3847.00,-0.0002
3846.00,-0.0002
3845.00,-0.0002
3844.00,-0.0002
3843.00,-0.0002
3842.00,-0.0003
3841.00,-0.0003
3840.00,-0.0004
3839.00,-0.0004
3838.00,-0.0004
3837.00,-0.0003
3836.00,-0.0003
3835.00,-0.0003
3834.00,-0.0003
3833.00,-0.0002
3832.00,-0.0002
3831.00,-0.0002
3830.00,-0.0002
3829.00,-0.0002
3828.00,-0.0002
3827.00,-0.0002
3826.00,-0.0002
3825.00,-0.0002
3824.00,-0.0003
3823.00,-0.0003
3822.00,-0.0003
3821.00,-0.0003
3820.00,-0.0003
3819.00,-0.0004
3818.00,-0.0004
3817.00,-0.0004
3816.00,-0.0003
3815.00,-0.0003
3814.00,-0.0003
3813.00,-0.0002
3812.00,-0.0002
3811.00,-0.0002
3810.00,-0.0002
3809.00,-0.0002
3808.00,-0.0002
3807.00,-0.0002
3806.00,-0.0002
3805.00,-0.0003
3804.00,-0.0003
3803.00,-0.0003
3802.00,-0.0003
3801.00,-0.0002
3800.00,-0.0003
3799.00,-0.0003
3798.00,-0.0003
3797.00,-0.0003
3796.00,-0.0002
3795.00,-0.0002
3794.00,-0.0002
3793.00,-0.0001
3792.00,-0.0001
3791.00,-0.0001
3790.00,-0.0001
3789.00,-0.0001
3788.00,-0.0001
3787.00,-0.0001
3786.00,-0.0001
3785.00,-0.0001
3784.00,-0.0001
3783.00,-0.0001
3782.00,-0.0001
3781.00,-0.0000
3780.00,-0.0000
3779.00,-0.0000
3778.00,-0.0000
3777.00,-0.0000
3776.00,-0.0001
3775.00,-0.0001
3774.00,-0.0001
3773.00,-0.0001
3772.00,-0.0001
3771.00,-0.0001
3770.00,-0.0001
3769.00,-0.0001
3768.00,-0.0001
3767.00,-0.0002
3766.00,-0.0001
3765.00,-0.0001
3764.00,-0.0001
3763.00,-0.0001
3762.00,-0.0001
3761.00,-0.0001
3760.00,-0.0001
3759.00,-0.0001
3758.00,-0.0001
3757.00,-0.0001
3756.00,-0.0001
3755.00,-0.0002
3754.00,-0.0002
3753.00,-0.0002
3752.00,-0.0002
3751.00,-0.0003
3750.00,-0.0003
3749.00,-0.0003
3748.00,-0.0003
3747.00,-0.0004
3746.00,-0.0004
3745.00,-0.0003
3744.00,-0.0003
3743.00,-0.0003
3742.00,-0.0003
3741.00,-0.0003
3740.00,-0.0003
3739.00,-0.0003
3738.00,-0.0003
3737.00,-0.0003
3736.00,-0.0003
3735.00,-0.0004
3734.00,-0.0004
3733.00,-0.0004
3732.00,-0.0004
3731.00,-0.0003
3730.00,-0.0003
3729.00,-0.0002
3728.00,-0.0002
3727.00,-0.0002
3726.00,-0.0001
3725.00,-0.0001
3724.00,-0.0001
3723.00,-0.0001
3722.00,-0.0001
3721.00,-0.0002
3720.00,-0.0002
3719.00,-0.0002
3718.00,-0.0002
3717.00,-0.0001
3716.00,-0.0001
3715.00,-0.0001
3714.00,-0.0002
3713.00,-0.0002
3712.00,-0.0002
3711.00,-0.0002
3710.00,-0.0002
3709.00,-0.0002
3708.00,-0.0002
3707.00,-0.0001
3706.00,-0.0001
3705.00,-0.0001
3704.00,-0.0002
3703.00,-0.0002
3702.00,-0.0001
3701.00,-0.0001
3700.00,-0.0001
3699.00,-0.0001
3698.00,-0.0001
3697.00,-0.0001
3696.00,-0.0001
3695.00,-0.0001
3694.00,-0.0001
3693.00,-0.0001
3692.00,-0.0001
3691.00,-0.0001
3690.00,-0.0000
3689.00,-0.0000
3688.00,-0.0000
3687.00,-0.0000
3686.00,0.0000
3685.00,0.0000
3684.00,0.0001
3683.00,0.0001
3682.00,0.0002
3681.00,0.0002
3680.00,0.0003
3679.00,0.0003
3678.00,0.0002
3677.00,0.0002
3676.00,0.0002
3675.00,0.0001
3674.00,0.0001
3673.00,0.0001
3672.00,0.0001
3671.00,0.0001
3670.00,0.0002
3669.00,0.0002
3668.00,0.0003
3667.00,0.0004
3666.00,0.0004
3665.00,0.0005
3664.00,0.0005
3663.00,0.0006
3662.00,0.0006
3661.00,0.0007
3660.00,0.0007
3659.00,0.0007
3658.00,0.0007
3657.00,0.0007
3656.00,0.0007
3655.00,0.0007
3654.00,0.0007
3653.00,0.0006
3652.00,0.0007
3651.00,0.0007
3650.00,0.0007
3649.00,0.0007
3648.00,0.0007
3647.00,0.0007
3646.00,0.0008
3645.00,0.0008
3644.00,0.0009
3643.00,0.0010
3642.00,0.0010
3641.00,0.0011
3640.00,0.0011
3639.00,0.0012
3638.00,0.0012
3637.00,0.0012
3636.00,0.0013
3635.00,0.0013
3634.00,0.0013
3633.00,0.0013
3632.00,0.0013
3631.00,0.0013
3630.00,0.0014
3629.00,0.0014
3628.00,0.0014
3627.00,0.0014
3626.00,0.0015
3625.00,0.0016
3624.00,0.0016
3623.00,0.0017
3622.00,0.0017
3621.00,0.0018
3620.00,0.0018
3619.00,0.0018
3618.00,0.0019
3617.00,0.0019
3616.00,0.0019
3615.00,0.0020
3614.00,0.0020
3613.00,0.0021
3612.00,0.0021
3611.00,0.0022
3610.00,0.0022
3609.00,0.0023
3608.00,0.0024
3607.00,0.0025
3606.00,0.0025
3605.00,0.0026
3604.00,0.0026
3603.00,0.0027
3602.00,0.0028
3601.00,0.0028
3600.00,0.0029
3599.00,0.0030
3598.00,0.0030
3597.00,0.0031
3596.00,0.0032
3595.00,0.0032
3594.00,0.0033
3593.00,0.0033
3592.00,0.0034
3591.00,0.0034
3590.00,0.0034
3589.00,0.0035
3588.00,0.0035
3587.00,0.0036
3586.00,0.0036
3585.00,0.0037
3584.00,0.0038
3583.00,0.0039
3582.00,0.0041
3581.00,0.0042
3580.00,0.0042
3579.00,0.0043
3578.00,0.0043
3577.00,0.0044
3576.00,0.0045
3575.00,0.0045
3574.00,0.0046
3573.00,0.0047
3572.00,0.0048
3571.00,0.0048
3570.00,0.0049
3569.00,0.0049
3568.00,0.0049
3567.00,0.0050
3566.00,0.0050
3565.00,0.0051
3564.00,0.0052
3563.00,0.0053
3562.00,0.0054
3561.00,0.0055
3560.00,0.0056
3559.00,0.0057
3558.00,0.0058
3557.00,0.0059
3556.00,0.0059
3555.00,0.0060
3554.00,0.0060
3553.00,0.0061
3552.00,0.0061
3551.00,0.0062
3550.00,0.0062
3549.00,0.0063
3548.00,0.0063
3547.00,0.0064
3546.00,0.0065
3545.00,0.0065
3544.00,0.0066
3543.00,0.0067
3542.00,0.0068
3541.00,0.0068
3540.00,0.0069
3539.00,0.0069
3538.00,0.0070
3537.00,0.0070
3536.00,0.0071
3535.00,0.0071
3534.00,0.0072
3533.00,0.0072
3532.00,0.0073
3531.00,0.0073
3530.00,0.0074
3529.00,0.0074
3528.00,0.0074
3527.00,0.0075
3526.00,0.0075
3525.00,0.0076
3524.00,0.0076
3523.00,0.0077
3522.00,0.0077
3521.00,0.0078
3520.00,0.0078
3519.00,0.0078
3518.00,0.0079
3517.00,0.0079
3516.00,0.0080
3515.00,0.0080
3514.00,0.0080
3513.00,0.0081
3512.00,0.0081
3511.00,0.0081
3510.00,0.0082
3509.00,0.0082
3508.00,0.0082
3507.00,0.0083
3506.00,0.0083
3505.00,0.0083
3504.00,0.0084
3503.00,0.0084
3502.00,0.0084
3501.00,0.0084
3500.00,0.0085
3499.00,0.0085
3498.00,0.0085
3497.00,0.0086
3496.00,0.0086
3495.00,0.0087
3494.00,0.0087
3493.00,0.0088
3492.00,0.0088
3491.00,0.0088
3490.00,0.0088
3489.00,0.0088
3488.00,0.0088
3487.00,0.0089
3486.00,0.0089
3485.00,0.0089
3484.00,0.0089
3483.00,0.0090
3482.00,0.0090
3481.00,0.0090
3480.00,0.0091
3479.00,0.0091
3478.00,0.0091
3477.00,0.0092
3476.00,0.0092
3475.00,0.0092
3474.00,0.0092
3473.00,0.0092
3472.00,0.0093
3471.00,0.0093
3470.00,0.0093
3469.00,0.0093
3468.00,0.0094
3467.00,0.0094
3466.00,0.0094
3465.00,0.0094
3464.00,0.0094
3463.00,0.0094
3462.00,0.0094
3461.00,0.0094
3460.00,0.0095
3459.00,0.0095
3458.00,0.0096
3457.00,0.0096
3456.00,0.0096
3455.00,0.0096
3454.00,0.0096
3453.00,0.0096
3452.00,0.0096
3451.00,0.0096
3450.00,0.0096
3449.00,0.0096
3448.00,0.0096
3447.00,0.0096
3446.00,0.0096
3445.00,0.0096
3444.00,0.0096
3443.00,0.0096
3442.00,0.0096
3441.00,0.0096
3440.00,0.0097
3439.00,0.0097
3438.00,0.0097
3437.00,0.0097
3436.00,0.0097
3435.00,0.0097
3434.00,0.0097
3433.00,0.0097
3432.00,0.0097
3431.00,0.0097
3430.00,0.0097
3429.00,0.0097
3428.00,0.0097
3427.00,0.0097
3426.00,0.0097
3425.00,0.0097
3424.00,0.0097
3423.00,0.0097
3422.00,0.0097
3421.00,0.0097
3420.00,0.0098
3419.00,0.0098
3418.00,0.0098
3417.00,0.0097
3416.00,0.0097
3415.00,0.0097
3414.00,0.0097
3413.00,0.0097
3412.00,0.0097
3411.00,0.0097
3410.00,0.0097
3409.00,0.0097
3408.00,0.0097
3407.00,0.0097
3406.00,0.0097
3405.00,0.0097
3404.00,0.0097
3403.00,0.0096
3402.00,0.0096
3401.00,0.0096
3400.00,0.0096
3399.00,0.0096
3398.00,0.0096
3397.00,0.0095
3396.00,0.0095
3395.00,0.0095
3394.00,0.0094
3393.00,0.0094
3392.00,0.0094
3391.00,0.0094
3390.00,0.0094
3389.00,0.0094
3388.00,0.0093
3387.00,0.0093
3386.00,0.0093
3385.00,0.0093
3384.00,0.0093
3383.00,0.0092
3382.00,0.0092
3381.00,0.0092
3380.00,0.0091
3379.00,0.0091
3378.00,0.0091
3377.00,0.0091
3376.00,0.0091
3375.00,0.0091
3374.00,0.0090
3373.00,0.0090
3372.00,0.0089
3371.00,0.0089
3370.00,0.0088
3369.00,0.0088
3368.00,0.0088
3367.00,0.0088
3366.00,0.0088
3365.00,0.0088
3364.00,0.0087
3363.00,0.0087
3362.00,0.0087
3361.00,0.0086
3360.00,0.0086
3359.00,0.0086
3358.00,0.0086
3357.00,0.0086
3356.00,0.0086
3355.00,0.0085
3354.00,0.0085
3353.00,0.0084
3352.00,0.0083
3351.00,0.0083
3350.00,0.0083
3349.00,0.0083
3348.00,0.0083
3347.00,0.0083
3346.00,0.0083
3345.00,0.0082
3344.00,0.0082
3343.00,0.0082
3342.00,0.0082
3341.00,0.0081
3340.00,0.0081
3339.00,0.0081
3338.00,0.0080
3337.00,0.0080
3336.00,0.0080
3335.00,0.0080
3334.00,0.0080
3333.00,0.0080
3332.00,0.0080
3331.00,0.0080
3330.00,0.0080
3329.00,0.0079
3328.00,0.0079
3327.00,0.0078
3326.00,0.0078
3325.00,0.0078
3324.00,0.0078
3323.00,0.0078
3322.00,0.0078
3321.00,0.0078
3320.00,0.0078
3319.00,0.0078
3318.00,0.0078
3317.00,0.0078
3316.00,0.0078
3315.00,0.0078
3314.00,0.0078
3313.00,0.0077
3312.00,0.0077
3311.00,0.0076
3310.00,0.0075
3309.00,0.0074
3308.00,0.0074
3307.00,0.0073
3306.00,0.0073
3305.00,0.0073
3304.00,0.0074
3303.00,0.0075
3302.00,0.0075
3301.00,0.0076
3300.00,0.0076
3299.00,0.0076
3298.00,0.0075
3297.00,0.0075
3296.00,0.0074
3295.00,0.0074
3294.00,0.0074
3293.00,0.0073
3292.00,0.0073
3291.00,0.0073
3290.00,0.0074
3289.00,0.0074
3288.00,0.0075
3287.00,0.0075
3286.00,0.0075
3285.00,0.0074
3284.00,0.0074
3283.00,0.0074
3282.00,0.0074
3281.00,0.0073
3280.00,0.0073
3279.00,0.0073
3278.00,0.0073
3277.00,0.0072
3276.00,0.0072
3275.00,0.0071
3274.00,0.0070
3273.00,0.0069
3272.00,0.0069
3271.00,0.0069
3270.00,0.0069
3269.00,0.0069
3268.00,0.0069
3267.00,0.0069
3266.00,0.0069
3265.00,0.0069
3264.00,0.0069
3263.00,0.0069
3262.00,0.0069
3261.00,0.0069
3260.00,0.0068
3259.00,0.0068
3258.00,0.0067
3257.00,0.0067
3256.00,0.0067
3255.00,0.0067
3254.00,0.0066
3253.00,0.0066
3252.00,0.0066
3251.00,0.0066
3250.00,0.0065
3249.00,0.0065
3248.00,0.0065
3247.00,0.0064
3246.00,0.0064
3245.00,0.0064
3244.00,0.0064
3243.00,0.0064
3242.00,0.0064
3241.00,0.0064
3240.00,0.0064
3239.00,0.0063
3238.00,0.0063
3237.00,0.0062
3236.00,0.0061
3235.00,0.0061
3234.00,0.0060
3233.00,0.0060
3232.00,0.0060
3231.00,0.0060
3230.00,0.0060
3229.00,0.0060
3228.00,0.0060
3227.00,0.0060
3226.00,0.0059
3225.00,0.0059
3224.00,0.0059
3223.00,0.0059
3222.00,0.0058
3221.00,0.0058
3220.00,0.0058
3219.00,0.0057
3218.00,0.0057
3217.00,0.0057
3216.00,0.0057
3215.00,0.0056
3214.00,0.0056
3213.00,0.0055
3212.00,0.0054
3211.00,0.0054
3210.00,0.0053
3209.00,0.0053
3208.00,0.0053
3207.00,0.0053
3206.00,0.0053
3205.00,0.0053
3204.00,0.0052
3203.00,0.0052
3202.00,0.0052
3201.00,0.0052
3200.00,0.0052
3199.00,0.0051
3198.00,0.0051
3197.00,0.0051
3196.00,0.0050
3195.00,0.0050
3194.00,0.0049
3193.00,0.0049
3192.00,0.0049
3191.00,0.0048
3190.00,0.0048
3189.00,0.0048
3188.00,0.0048
3187.00,0.0048
3186.00,0.0047
3185.00,0.0047
3184.00,0.0047
3183.00,0.0046
3182.00,0.0046
3181.00,0.0046
3180.00,0.0046
3179.00,0.0046
3178.00,0.0046
3177.00,0.0046
3176.00,0.0045
3175.00,0.0045
3174.00,0.0045
3173.00,0.0044
3172.00,0.0044
3171.00,0.0044
3170.00,0.0044
3169.00,0.0044
3168.00,0.0044
3167.00,0.0044
3166.00,0.0043
3165.00,0.0043
3164.00,0.0043
3163.00,0.0043
3162.00,0.0043
3161.00,0.0042
3160.00,0.0042
3159.00,0.0042
3158.00,0.0041
3157.00,0.0041
3156.00,0.0041
3155.00,0.0041
3154.00,0.0040
3153.00,0.0040
3152.00,0.0040
3151.00,0.0040
3150.00,0.0040
3149.00,0.0040
3148.00,0.0040
3147.00,0.0039
3146.00,0.0039
3145.00,0.0039
3144.00,0.0039
3143.00,0.0038
3142.00,0.0038
3141.00,0.0038
3140.00,0.0037
3139.00,0.0037
3138.00,0.0037
3137.00,0.0037
3136.00,0.0037
3135.00,0.0037
3134.00,0.0037
3133.00,0.0037
3132.00,0.0036
3131.00,0.0036
3130.00,0.0036
3129.00,0.0036
3128.00,0.0036
3127.00,0.0036
3126.00,0.0035
3125.00,0.0035
3124.00,0.0035
3123.00,0.0035
3122.00,0.0034
3121.00,0.0034
3120.00,0.0034
3119.00,0.0034
3118.00,0.0034
3117.00,0.0034
3116.00,0.0034
3115.00,0.0034
3114.00,0.0034
3113.00,0.0034
3112.00,0.0034
3111.00,0.0033
3110.00,0.0033
3109.00,0.0033
3108.00,0.0033
3107.00,0.0033
3106.00,0.0032
3105.00,0.0032
3104.00,0.0032
3103.00,0.0032
3102.00,0.0032
3101.00,0.0032
3100.00,0.0032
3099.00,0.0032
3098.00,0.0032
3097.00,0.0031
3096.00,0.0031
3095.00,0.0031
3094.00,0.0031
3093.00,0.0031
3092.00,0.0031
3091.00,0.0031
3090.00,0.0031
3089.00,0.0031
3088.00,0.0031
3087.00,0.0031
3086.00,0.0031
3085.00,0.0031
3084.00,0.0031
3083.00,0.0031
3082.00,0.0031
3081.00,0.0031
3080.00,0.0031
3079.00,0.0031
3078.00,0.0031
3077.00,0.0030
3076.00,0.0030
3075.00,0.0030
3074.00,0.0030
3073.00,0.0030
3072.00,0.0030
3071.00,0.0030
3070.00,0.0030
3069.00,0.0029
3068.00,0.0029
3067.00,0.0029
3066.00,0.0029
3065.00,0.0029
3064.00,0.0029
3063.00,0.0029
3062.00,0.0029
3061.00,0.0028
3060.00,0.0028
3059.00,0.0028
3058.00,0.0028
3057.00,0.0028
3056.00,0.0028
3055.00,0.0028
3054.00,0.0027
3053.00,0.0027
3052.00,0.0027
3051.00,0.0027
3050.00,0.0027
3049.00,0.0027
3048.00,0.0027
3047.00,0.0027
3046.00,0.0027
3045.00,0.0027
3044.00,0.0027
3043.00,0.0027
3042.00,0.0027
3041.00,0.0027
3040.00,0.0027
3039.00,0.0026
3038.00,0.0026
3037.00,0.0026
3036.00,0.0026
3035.00,0.0026
3034.00,0.0026
3033.00,0.0026
3032.00,0.0026
3031.00,0.0027
3030.00,0.0027
3029.00,0.0027
3028.00,0.0027
3027.00,0.0027
3026.00,0.0027
3025.00,0.0027
3024.00,0.0027
3023.00,0.0027
3022.00,0.0027
3021.00,0.0027
3020.00,0.0027
3019.00,0.0027
3018.00,0.0028
3017.00,0.0028
3016.00,0.0028
3015.00,0.0029
3014.00,0.0029
3013.00,0.0029
3012.00,0.0029
3011.00,0.0030
3010.00,0.0031
3009.00,0.0032
3008.00,0.0033
3007.00,0.0034
3006.00,0.0035
3005.00,0.0036
3004.00,0.0038
3003.00,0.0039
3002.00,0.0040
3001.00,0.0041
3000.00,0.0043
2999.00,0.0044
2998.00,0.0046
2997.00,0.0048
2996.00,0.0050
2995.00,0.0052
2994.00,0.0054
2993.00,0.0056
2992.00,0.0058
2991.00,0.0060
2990.00,0.0062
2989.00,0.0064
2988.00,0.0066
2987.00,0.0069
2986.00,0.0071
2985.00,0.0073
2984.00,0.0074
2983.00,0.0076
2982.00,0.0077
2981.00,0.0078
2980.00,0.0079
2979.00,0.0081
2978.00,0.0082
2977.00,0.0083
2976.00,0.0084
2975.00,0.0085
2974.00,0.0086
2973.00,0.0087
2972.00,0.0088
2971.00,0.0089
2970.00,0.0090
2969.00,0.0091
2968.00,0.0093
2967.00,0.0094
2966.00,0.0096
2965.00,0.0097
2964.00,0.0099
2963.00,0.0100
2962.00,0.0102
2961.00,0.0103
2960.00,0.0105
2959.00,0.0106
2958.00,0.0107
2957.00,0.0107
2956.00,0.0108
2955.00,0.0109
2954.00,0.0109
2953.00,0.0109
2952.00,0.0110
2951.00,0.0109
2950.00,0.0109
2949.00,0.0108
2948.00,0.0108
2947.00,0.0107
2946.00,0.0107
2945.00,0.0106
2944.00,0.0105
2943.00,0.0105
2942.00,0.0104
2941.00,0.0104
2940.00,0.0104
2939.00,0.0105
2938.00,0.0105
2937.00,0.0105
2936.00,0.0106
2935.00,0.0106
2934.00,0.0107
2933.00,0.0108
2932.00,0.0109
2931.00,0.0109
2930.00,0.0110
2929.00,0.0111
2928.00,0.0112
2927.00,0.0112
2926.00,0.0113
2925.00,0.0113
2924.00,0.0113
2923.00,0.0112
2922.00,0.0112
2921.00,0.0111
2920.00,0.0110
2919.00,0.0108
2918.00,0.0107
2917.00,0.0105
2916.00,0.0103
2915.00,0.0101
2914.00,0.0099
2913.00,0.0097
2912.00,0.0095
2911.00,0.0093
2910.00,0.0091
2909.00,0.0090
2908.00,0.0088
2907.00,0.0086
2906.00,0.0085
2905.00,0.0084
2904.00,0.0083
2903.00,0.0083
2902.00,0.0082
2901.00,0.0082
2900.00,0.0082
2899.00,0.0081
2898.00,0.0081
2897.00,0.0081
2896.00,0.0081
2895.00,0.0081
2894.00,0.0081
2893.00,0.0082
2892.00,0.0082
2891.00,0.0082
2890.00,0.0082
2889.00,0.0081
2888.00,0.0081
2887.00,0.0081
2886.00,0.0081
2885.00,0.0081
2884.00,0.0081
2883.00,0.0081
2882.00,0.0081
2881.00,0.0081
2880.00,0.0081
2879.00,0.0081
2878.00,0.0081
2877.00,0.0081
2876.00,0.0081
2875.00,0.0081
2874.00,0.0080
2873.00,0.0081
2872.00,0.0081
2871.00,0.0081
2870.00,0.0081
2869.00,0.0080
2868.00,0.0080
2867.00,0.0080
2866.00,0.0079
2865.00,0.0079
2864.00,0.0079
2863.00,0.0078
2862.00,0.0078
2861.00,0.0077
2860.00,0.0077
2859.00,0.0077
2858.00,0.0076
2857.00,0.0076
2856.00,0.0075
2855.00,0.0073
2854.00,0.0072
2853.00,0.0070
2852.00,0.0068
2851.00,0.0065
2850.00,0.0062
2849.00,0.0060
2848.00,0.0057
2847.00,0.0055
2846.00,0.0053
2845.00,0.0051
2844.00,0.0049
2843.00,0.0047
2842.00,0.0045
2841.00,0.0043
2840.00,0.0041
2839.00,0.0039
2838.00,0.0038
2837.00,0.0037
2836.00,0.0036
2835.00,0.0035
2834.00,0.0034
2833.00,0.0033
2832.00,0.0032
2831.00,0.0031
2830.00,0.0030
2829.00,0.0029
2828.00,0.0028
2827.00,0.0027
2826.00,0.0027
2825.00,0.0026
2824.00,0.0025
2823.00,0.0024
2822.00,0.0024
2821.00,0.0023
2820.00,0.0022
2819.00,0.0022
2818.00,0.0021
2817.00,0.0021
2816.00,0.0020
2815.00,0.0020
2814.00,0.0019
2813.00,0.0019
2812.00,0.0018
2811.00,0.0018
2810.00,0.0018
2809.00,0.0017
2808.00,0.0017
2807.00,0.0017
2806.00,0.0017
2805.00,0.0017
2804.00,0.0017
2803.00,0.0016
2802.00,0.0016
2801.00,0.0016
2800.00,0.0016
2799.00,0.0016
2798.00,0.0015
2797.00,0.0015
2796.00,0.0015
2795.00,0.0015
2794.00,0.0015
2793.00,0.0015
2792.00,0.0014
2791.00,0.0014
2790.00,0.0014
2789.00,0.0014
2788.00,0.0014
2787.00,0.0014
2786.00,0.0014
2785.00,0.0014
2784.00,0.0014
2783.00,0.0013
2782.00,0.0013
2781.00,0.0013
2780.00,0.0013
2779.00,0.0013
2778.00,0.0013
2777.00,0.0013
2776.00,0.0013
2775.00,0.0013
2774.00,0.0013
2773.00,0.0012
2772.00,0.0012
2771.00,0.0012
2770.00,0.0012
2769.00,0.0012
2768.00,0.0012
2767.00,0.0012
2766.00,0.0012
2765.00,0.0012
2764.00,0.0012
2763.00,0.0012
2762.00,0.0012
2761.00,0.0011
2760.00,0.0011
2759.00,0.0011
2758.00,0.0012
2757.00,0.0012
2756.00,0.0012
2755.00,0.0012
2754.00,0.0011
2753.00,0.0011
2752.00,0.0011
2751.00,0.0011
2750.00,0.0011
2749.00,0.0012
2748.00,0.0012
2747.00,0.0012
2746.00,0.0012
2745.00,0.0012
2744.00,0.0012
2743.00,0.0012
2742.00,0.0012
2741.00,0.0012
2740.00,0.0012
2739.00,0.0012
2738.00,0.0011
2737.00,0.0012
2736.00,0.0012
2735.00,0.0012
2734.00,0.0012
2733.00,0.0012
2732.00,0.0012
2731.00,0.0012
2730.00,0.0012
2729.00,0.0012
2728.00,0.0012
2727.00,0.0012
2726.00,0.0011
2725.00,0.0011
2724.00,0.0011
2723.00,0.0011
2722.00,0.0011
2721.00,0.0011
2720.00,0.0011
2719.00,0.0011
2718.00,0.0011
2717.00,0.0011
2716.00,0.0011
2715.00,0.0011
2714.00,0.0011
2713.00,0.0011
2712.00,0.0011
2711.00,0.0011
2710.00,0.0010
2709.00,0.0010
2708.00,0.0010
2707.00,0.0010
2706.00,0.0010
2705.00,0.0010
2704.00,0.0010
2703.00,0.0010
2702.00,0.0010
2701.00,0.0010
2700.00,0.0010
2699.00,0.0010
2698.00,0.0010
2697.00,0.0010
2696.00,0.0010
2695.00,0.0010
2694.00,0.0009
2693.00,0.0009
2692.00,0.0009
2691.00,0.0009
2690.00,0.0009
2689.00,0.0009
2688.00,0.0009
2687.00,0.0008
2686.00,0.0008
2685.00,0.0008
2684.00,0.0008
2683.00,0.0008
2682.00,0.0008
2681.00,0.0008
2680.00,0.0008
2679.00,0.0008
2678.00,0.0008
2677.00,0.0008
2676.00,0.0008
2675.00,0.0008
2674.00,0.0008
2673.00,0.0008
2672.00,0.0008
2671.00,0.0008
2670.00,0.0008
2669.00,0.0009
2668.00,0.0009
2667.00,0.0009
2666.00,0.0009
2665.00,0.0010
2664.00,0.0010
2663.00,0.0010
2662.00,0.0010
2661.00,0.0011
2660.00,0.0011
2659.00,0.0011
2658.00,0.0012
2657.00,0.0012
2656.00,0.0012
2655.00,0.0012
2654.00,0.0012
2653.00,0.0012
2652.00,0.0012
2651.00,0.0012
2650.00,0.0012
2649.00,0.0012
2648.00,0.0012
2647.00,0.0012
2646.00,0.0012
2645.00,0.0012
2644.00,0.0012
2643.00,0.0012
2642.00,0.0012
2641.00,0.0012
2640.00,0.0012
2639.00,0.0012
2638.00,0.0012
2637.00,0.0012
2636.00,0.0012
2635.00,0.0012
2634.00,0.0012
2633.00,0.0012
2632.00,0.0012
2631.00,0.0011
2630.00,0.0011
2629.00,0.0011
2628.00,0.0011
2627.00,0.0011
2626.00,0.0011
2625.00,0.0011
2624.00,0.0011
2623.00,0.0010
2622.00,0.0010
2621.00,0.0010
2620.00,0.0010
2619.00,0.0010
2618.00,0.0010
2617.00,0.0010
2616.00,0.0011
2615.00,0.0011
2614.00,0.0010
2613.00,0.0010
2612.00,0.0010
2611.00,0.0010
2610.00,0.0010
2609.00,0.0010
2608.00,0.0010
2607.00,0.0009
2606.00,0.0009
2605.00,0.0009
2604.00,0.0009
2603.00,0.0009
2602.00,0.0009
2601.00,0.0009
2600.00,0.0009
2599.00,0.0009
2598.00,0.0009
2597.00,0.0009
2596.00,0.0009
2595.00,0.0009
2594.00,0.0009
2593.00,0.0009
2592.00,0.0009
2591.00,0.0008
2590.00,0.0008
2589.00,0.0008
2588.00,0.0008
2587.00,0.0009
2586.00,0.0009
2585.00,0.0009
2584.00,0.0009
2583.00,0.0009
2582.00,0.0008
2581.00,0.0008
2580.00,0.0008
2579.00,0.0008
2578.00,0.0008
2577.00,0.0008
2576.00,0.0008
2575.00,0.0008
2574.00,0.0008
2573.00,0.0008
2572.00,0.0008
2571.00,0.0008
2570.00,0.0008
2569.00,0.0008
2568.00,0.0008
2567.00,0.0008
2566.00,0.0008
2565.00,0.0008
2564.00,0.0008
2563.00,0.0008
2562.00,0.0007
2561.00,0.0007
2560.00,0.0007
2559.00,0.0007
2558.00,0.0007
2557.00,0.0006
2556.00,0.0006
2555.00,0.0006
2554.00,0.0006
2553.00,0.0006
2552.00,0.0006
2551.00,0.0006
2550.00,0.0006
2549.00,0.0006
2548.00,0.0006
2547.00,0.0006
2546.00,0.0006
2545.00,0.0006
2544.00,0.0006
2543.00,0.0006
2542.00,0.0006
2541.00,0.0006
2540.00,0.0005
2539.00,0.0004
2538.00,0.0004
2537.00,0.0004
2536.00,0.0004
2535.00,0.0004
2534.00,0.0004
2533.00,0.0004
2532.00,0.0004
2531.00,0.0004
2530.00,0.0004
2529.00,0.0004
2528.00,0.0004
2527.00,0.0003
2526.00,0.0003
2525.00,0.0003
2524.00,0.0003
2523.00,0.0003
2522.00,0.0003
2521.00,0.0003
2520.00,0.0003
2519.00,0.0003
2518.00,0.0003
2517.00,0.0003
2516.00,0.0003
2515.00,0.0003
2514.00,0.0003
2513.00,0.0002
2512.00,0.0002
2511.00,0.0002
2510.00,0.0001
2509.00,0.0001
2508.00,0.0001
2507.00,0.0001
2506.00,0.0001
2505.00,0.0001
2504.00,0.0002
2503.00,0.0002
2502.00,0.0002
2501.00,0.0002
2500.00,0.0002
2499.00,0.0002
2498.00,0.0002
2497.00,0.0002
2496.00,0.0002
2495.00,0.0002
2494.00,0.0001
2493.00,0.0002
2492.00,0.0002
2491.00,0.0002
2490.00,0.0002
2489.00,0.0002
2488.00,0.0001
2487.00,0.0001
2486.00,0.0001
2485.00,0.0001
2484.00,0.0001
2483.00,0.0001
2482.00,0.0001
2481.00,0.0001
2480.00,0.0001
2479.00,0.0001
2478.00,0.0002
2477.00,0.0002
2476.00,0.0001
2475.00,0.0001
2474.00,0.0001
2473.00,0.0002
2472.00,0.0002
2471.00,0.0002
2470.00,0.0002
2469.00,0.0002
2468.00,0.0001
2467.00,0.0001
2466.00,0.0001
2465.00,0.0002
2464.00,0.0002
2463.00,0.0002
2462.00,0.0002
2461.00,0.0002
2460.00,0.0002
2459.00,0.0002
2458.00,0.0003
2457.00,0.0003
2456.00,0.0003
2455.00,0.0003
2454.00,0.0002
2453.00,0.0002
2452.00,0.0002
2451.00,0.0001
2450.00,0.0002
2449.00,0.0002
2448.00,0.0002
2447.00,0.0002
2446.00,0.0002
2445.00,0.0002
2444.00,0.0001
2443.00,0.0001
2442.00,0.0001
2441.00,0.0001
2440.00,0.0001
2439.00,0.0001
2438.00,0.0001
2437.00,0.0001
2436.00,0.0001
2435.00,0.0001
2434.00,0.0001
2433.00,0.0001
2432.00,0.0001
2431.00,0.0000
2430.00,-0.0000
2429.00,-0.0000
2428.00,-0.0001
2427.00,-0.0001
2426.00,-0.0000
2425.00,-0.0000
2424.00,0.0000
2423.00,0.0000
2422.00,0.0000
2421.00,0.0000
2420.00,0.0000
2419.00,0.0000
2418.00,0.0000
2417.00,-0.0000
2416.00,-0.0000
2415.00,-0.0000
2414.00,-0.0000
2413.00,-0.0000
2412.00,-0.0000
2411.00,-0.0000
2410.00,-0.0000
2409.00,-0.0000
2408.00,-0.0000
2407.00,-0.0001
2406.00,-0.0001
2405.00,-0.0001
2404.00,-0.0001
2403.00,-0.0001
2402.00,-0.0001
2401.00,-0.0001
2400.00,-0.0001
2399.00,-0.0001
2398.00,-0.0000
2397.00,-0.0000
2396.00,-0.0001
2395.00,-0.0001
2394.00,-0.0001
2393.00,-0.0002
2392.00,-0.0001
2391.00,-0.0001
2390.00,-0.0001
2389.00,-0.0001
2388.00,-0.0002
2387.00,-0.0002
2386.00,-0.0003
2385.00,-0.0003
2384.00,-0.0004
2383.00,-0.0005
2382.00,-0.0005
2381.00,-0.0006
2380.00,-0.0006
2379.00,-0.0006
2378.00,-0.0005
2377.00,-0.0005
2376.00,-0.0005
2375.00,-0.0005
2374.00,-0.0005
2373.00,-0.0005
2372.00,-0.0006
2371.00,-0.0006
2370.00,-0.0007
2369.00,-0.0008
2368.00,-0.0008
2367.00,-0.0008
2366.00,-0.0007
2365.00,-0.0007
2364.00,-0.0006
2363.00,-0.0006
2362.00,-0.0005
2361.00,-0.0005
2360.00,-0.0005
2359.00,-0.0005
2358.00,-0.0005
2357.00,-0.0005
2356.00,-0.0005
2355.00,-0.0005
2354.00,-0.0005
2353.00,-0.0005
2352.00,-0.0005
2351.00,-0.0005
2350.00,-0.0005
2349.00,-0.0004
2348.00,-0.0003
2347.00,-0.0003
2346.00,-0.0003
2345.00,-0.0003
2344.00,-0.0002
2343.00,-0.0002
2342.00,-0.0002
2341.00,-0.0001
2340.00,-0.0001
2339.00,-0.0001
2338.00,-0.0001
2337.00,-0.0001
2336.00,-0.0001
2335.00,-0.0001
2334.00,-0.0001
2333.00,-0.0001
2332.00,-0.0001
2331.00,-0.0001
2330.00,-0.0000
2329.00,0.0001
2328.00,0.0004
2327.00,0.0007
2326.00,0.0010
2325.00,0.0011
2324.00,0.0010
2323.00,0.0009
2322.00,0.0007
2321.00,0.0005
2320.00,0.0004
2319.00,0.0004
2318.00,0.0004
2317.00,0.0004
2316.00,0.0003
2315.00,0.0003
2314.00,0.0002
2313.00,0.0002
2312.00,0.0002
2311.00,0.0002
2310.00,0.0002
2309.00,0.0003
2308.00,0.0003
2307.00,0.0003
2306.00,0.0003
2305.00,0.0003
2304.00,0.0004
2303.00,0.0004
2302.00,0.0005
2301.00,0.0005
2300.00,0.0005
2299.00,0.0005
2298.00,0.0005
2297.00,0.0006
2296.00,0.0007
2295.00,0.0008
2294.00,0.0008
2293.00,0.0009
2292.00,0.0010
2291.00,0.0010
2290.00,0.0011
2289.00,0.0011
2288.00,0.0012
2287.00,0.0012
2286.00,0.0012
2285.00,0.0012
2284.00,0.0011
2283.00,0.0010
2282.00,0.0009
2281.00,0.0008
2280.00,0.0008
2279.00,0.0008
2278.00,0.0008
2277.00,0.0008
2276.00,0.0008
2275.00,0.0008
2274.00,0.0007
2273.00,0.0006
2272.00,0.0006
2271.00,0.0006
2270.00,0.0006
2269.00,0.0006
2268.00,0.0006
2267.00,0.0005
2266.00,0.0005
2265.00,0.0005
2264.00,0.0005
2263.00,0.0005
2262.00,0.0006
2261.00,0.0006
2260.00,0.0006
2259.00,0.0006
2258.00,0.0006
2257.00,0.0005
2256.00,0.0004
2255.00,0.0003
2254.00,0.0002
2253.00,0.0002
2252.00,0.0002
2251.00,0.0002
2250.00,0.0002
2249.00,0.0003
2248.00,0.0004
2247.00,0.0005
2246.00,0.0005
2245.00,0.0006
2244.00,0.0006
2243.00,0.0006
2242.00,0.0006
2241.00,0.0006
2240.00,0.0005
2239.00,0.0005
2238.00,0.0005
2237.00,0.0005
2236.00,0.0006
2235.00,0.0007
2234.00,0.0007
2233.00,0.0006
2232.00,0.0005
2231.00,0.0004
2230.00,0.0004
2229.00,0.0005
2228.00,0.0006
2227.00,0.0006
2226.00,0.0005
2225.00,0.0004
2224.00,0.0004
2223.00,0.0004
2222.00,0.0005
2221.00,0.0005
2220.00,0.0005
2219.00,0.0005
2218.00,0.0005
2217.00,0.0005
2216.00,0.0005
2215.00,0.0005
2214.00,0.0006
2213.00,0.0006
2212.00,0.0007
2211.00,0.0007
2210.00,0.0007
2209.00,0.0007
2208.00,0.0006
2207.00,0.0006
2206.00,0.0006
2205.00,0.0005
2204.00,0.0005
2203.00,0.0005
2202.00,0.0005
2201.00,0.0005
2200.00,0.0006
2199.00,0.0006
2198.00,0.0005
2197.00,0.0005
2196.00,0.0005
2195.00,0.0005
2194.00,0.0005
2193.00,0.0006
2192.00,0.0005
2191.00,0.0005
2190.00,0.0005
2189.00,0.0005
2188.00,0.0007
2187.00,0.0008
2186.00,0.0008
2185.00,0.0008
2184.00,0.0007
2183.00,0.0006
2182.00,0.0004
2181.00,0.0004
2180.00,0.0004
2179.00,0.0004
2178.00,0.0004
2177.00,0.0003
2176.00,0.0002
2175.00,0.0002
2174.00,0.0003
2173.00,0.0005
2172.00,0.0007
2171.00,0.0008
2170.00,0.0009
2169.00,0.0009
2168.00,0.0009
2167.00,0.0009
2166.00,0.0011
2165.00,0.0014
2164.00,0.0017
2163.00,0.0019
2162.00,0.0017
2161.00,0.0010
2160.00,-0.0000
2159.00,-0.0011
2158.00,-0.0019
2157.00,-0.0022
2156.00,-0.0021
2155.00,-0.0018
2154.00,-0.0015
2153.00,-0.0013
2152.00,-0.0012
2151.00,-0.0012
2150.00,-0.0012
2149.00,-0.0012
2148.00,-0.0012
2147.00,-0.0012
2146.00,-0.0011
2145.00,-0.0011
2144.00,-0.0010
2143.00,-0.0009
2142.00,-0.0009
2141.00,-0.0009
2140.00,-0.0009
2139.00,-0.0009
2138.00,-0.0009
2137.00,-0.0010
2136.00,-0.0011
2135.00,-0.0012
2134.00,-0.0013
2133.00,-0.0013
2132.00,-0.0012
2131.00,-0.0011
2130.00,-0.0010
2129.00,-0.0008
2128.00,-0.0006
2127.00,-0.0005
2126.00,-0.0005
2125.00,-0.0004
2124.00,-0.0004
2123.00,-0.0004
2122.00,-0.0003
2121.00,-0.0003
2120.00,-0.0001
2119.00,0.0000
2118.00,0.0002
2117.00,0.0003
2116.00,0.0004
2115.00,0.0005
2114.00,0.0005
2113.00,0.0004
2112.00,0.0004
2111.00,0.0004
2110.00,0.0004
2109.00,0.0003
2108.00,0.0003
2107.00,0.0003
2106.00,0.0003
2105.00,0.0003
2104.00,0.0003
2103.00,0.0004
2102.00,0.0003
2101.00,0.0003
2100.00,0.0003
2099.00,0.0003
2098.00,0.0002
2097.00,0.0001
2096.00,0.0000
2095.00,-0.0001
2094.00,-0.0001
2093.00,-0.0001
2092.00,0.0000
2091.00,0.0002
2090.00,0.0003
2089.00,0.0004
2088.00,0.0005
2087.00,0.0005
2086.00,0.0005
2085.00,0.0004
2084.00,0.0004
2083.00,0.0005
2082.00,0.0005
2081.00,0.0004
2080.00,0.0004
2079.00,0.0004
2078.00,0.0004
2077.00,0.0004
2076.00,0.0004
2075.00,0.0004
2074.00,0.0004
2073.00,0.0004
2072.00,0.0004
2071.00,0.0004
2070.00,0.0003
2069.00,0.0003
2068.00,0.0003
2067.00,0.0003
2066.00,0.0003
2065.00,0.0003
2064.00,0.0003
2063.00,0.0002
2062.00,0.0002
2061.00,0.0001
2060.00,0.0001
2059.00,0.0001
2058.00,0.0001
2057.00,0.0001
2056.00,0.0001
2055.00,0.0001
2054.00,0.0002
2053.00,0.0005
2052.00,0.0008
2051.00,0.0010
2050.00,0.0009
2049.00,0.0007
2048.00,0.0004
2047.00,0.0003
2046.00,0.0002
2045.00,0.0003
2044.00,0.0003
2043.00,0.0004
2042.00,0.0004
2041.00,0.0004
2040.00,0.0004
2039.00,0.0004
2038.00,0.0005
2037.00,0.0006
2036.00,0.0006
2035.00,0.0005
2034.00,0.0003
2033.00,0.0000
2032.00,-0.0002
2031.00,-0.0003
2030.00,-0.0004
2029.00,-0.0005
2028.00,-0.0004
2027.00,-0.0003
2026.00,-0.0003
2025.00,-0.0003
2024.00,-0.0004
2023.00,-0.0004
2022.00,-0.0005
2021.00,-0.0004
2020.00,-0.0003
2019.00,-0.0003
2018.00,-0.0003
2017.00,-0.0003
2016.00,-0.0003
2015.00,-0.0003
2014.00,-0.0004
2013.00,-0.0005
2012.00,-0.0006
2011.00,-0.0007
2010.00,-0.0007
2009.00,-0.0007
2008.00,-0.0008
2007.00,-0.0009
2006.00,-0.0010
2005.00,-0.0010
2004.00,-0.0009
2003.00,-0.0008
2002.00,-0.0008
2001.00,-0.0007
2000.00,-0.0006
1999.00,-0.0005
1998.00,-0.0004
1997.00,-0.0003
1996.00,-0.0001
1995.00,-0.0000
1994.00,0.0000
1993.00,-0.0000
1992.00,-0.0001
1991.00,-0.0001
1990.00,-0.0001
1989.00,0.0001
1988.00,0.0003
1987.00,0.0006
1986.00,0.0007
1985.00,0.0008
1984.00,0.0009
1983.00,0.0011
1982.00,0.0012
1981.00,0.0012
1980.00,0.0009
1979.00,0.0002
1978.00,-0.0005
1977.00,-0.0009
1976.00,-0.0009
1975.00,-0.0008
1974.00,-0.0007
1973.00,-0.0007
1972.00,-0.0007
1971.00,-0.0006
1970.00,-0.0007
1969.00,-0.0008
1968.00,-0.0008
1967.00,-0.0009
1966.00,-0.0009
1965.00,-0.0009
1964.00,-0.0009
1963.00,-0.0008
1962.00,-0.0008
1961.00,-0.0009
1960.00,-0.0009
1959.00,-0.0010
1958.00,-0.0010
1957.00,-0.0009
1956.00,-0.0008
1955.00,-0.0008
1954.00,-0.0009
1953.00,-0.0009
1952.00,-0.0008
1951.00,-0.0007
1950.00,-0.0007
1949.00,-0.0007
1948.00,-0.0007
1947.00,-0.0008
1946.00,-0.0009
1945.00,-0.0010
1944.00,-0.0009
1943.00,-0.0009
1942.00,-0.0008
1941.00,-0.0008
1940.00,-0.0008
1939.00,-0.0007
1938.00,-0.0007
1937.00,-0.0007
1936.00,-0.0007
1935.00,-0.0007
1934.00,-0.0007
1933.00,-0.0006
1932.00,-0.0005
1931.00,-0.0005
1930.00,-0.0005
1929.00,-0.0005
1928.00,-0.0005
1927.00,-0.0005
1926.00,-0.0006
1925.00,-0.0006
1924.00,-0.0005
1923.00,-0.0005
1922.00,-0.0004
1921.00,-0.0004
1920.00,-0.0004
1919.00,-0.0004
1918.00,-0.0004
1917.00,-0.0004
1916.00,-0.0004
1915.00,-0.0004
1914.00,-0.0004
1913.00,-0.0004
1912.00,-0.0004
1911.00,-0.0004
1910.00,-0.0004
1909.00,-0.0004
1908.00,-0.0003
1907.00,-0.0003
1906.00,-0.0002
1905.00,-0.0003
1904.00,-0.0002
1903.00,-0.0002
1902.00,-0.0002
1901.00,-0.0003
1900.00,-0.0003
1899.00,-0.0004
1898.00,-0.0004
1897.00,-0.0004
1896.00,-0.0003
1895.00,-0.0003
1894.00,-0.0003
1893.00,-0.0003
1892.00,-0.0003
1891.00,-0.0004
1890.00,-0.0004
1889.00,-0.0004
1888.00,-0.0003
1887.00,-0.0003
1886.00,-0.0003
1885.00,-0.0003
1884.00,-0.0003
1883.00,-0.0002
1882.00,-0.0002
1881.00,-0.0002
1880.00,-0.0002
1879.00,-0.0003
1878.00,-0.0003
1877.00,-0.0003
1876.00,-0.0002
1875.00,-0.0002
1874.00,-0.0003
1873.00,-0.0003
1872.00,-0.0004
1871.00,-0.0004
1870.00,-0.0004
1869.00,-0.0004
1868.00,-0.0003
1867.00,-0.0002
1866.00,-0.0002
1865.00,-0.0002
1864.00,-0.0002
1863.00,-0.0002
1862.00,-0.0002
1861.00,-0.0002
1860.00,-0.0002
1859.00,-0.0002
1858.00,-0.0002
1857.00,-0.0001
1856.00,-0.0001
1855.00,-0.0001
1854.00,-0.0001
1853.00,-0.0001
1852.00,-0.0002
1851.00,-0.0002
1850.00,-0.0002
1849.00,-0.0002
1848.00,-0.0002
1847.00,-0.0002
1846.00,-0.0002
1845.00,-0.0002
1844.00,-0.0002
1843.00,-0.0002
1842.00,-0.0002
1841.00,-0.0002
1840.00,-0.0001
1839.00,-0.0001
1838.00,-0.0001
1837.00,-0.0001
1836.00,-0.0001
1835.00,-0.0001
1834.00,-0.0001
1833.00,-0.0002
1832.00,-0.0002
1831.00,-0.0002
1830.00,-0.0002
1829.00,-0.0001
1828.00,-0.0001
1827.00,-0.0001
1826.00,-0.0000
1825.00,-0.0000
1824.00,-0.0000
1823.00,-0.0000
1822.00,-0.0001
1821.00,-0.0001
1820.00,-0.0001
1819.00,-0.0002
1818.00,-0.0002
1817.00,-0.0002
1816.00,-0.0002
1815.00,-0.0002
1814.00,-0.0002
1813.00,-0.0001
1812.00,-0.0001
1811.00,-0.0001
1810.00,-0.0000
1809.00,-0.0000
1808.00,0.0000
1807.00,0.0000
1806.00,0.0000
1805.00,0.0001
1804.00,0.0001
1803.00,0.0001
1802.00,0.0000
1801.00,0.0001
1800.00,0.0001
1799.00,0.0001
1798.00,0.0001
1797.00,0.0000
1796.00,-0.0000
1795.00,-0.0000
1794.00,-0.0000
1793.00,-0.0000
1792.00,0.0000
1791.00,0.0001
1790.00,0.0001
1789.00,0.0001
1788.00,0.0002
1787.00,0.0002
1786.00,0.0002
1785.00,0.0002
1784.00,0.0003
1783.00,0.0003
1782.00,0.0003
1781.00,0.0003
1780.00,0.0003
1779.00,0.0002
1778.00,0.0002
1777.00,0.0002
1776.00,0.0002
1775.00,0.0002
1774.00,0.0002
1773.00,0.0003
1772.00,0.0003
1771.00,0.0003
1770.00,0.0003
1769.00,0.0004
1768.00,0.0004
1767.00,0.0005
1766.00,0.0005
1765.00,0.0005
1764.00,0.0005
1763.00,0.0005
1762.00,0.0005
1761.00,0.0006
1760.00,0.0006
1759.00,0.0006
1758.00,0.0007
1757.00,0.0007
1756.00,0.0007
1755.00,0.0007
1754.00,0.0007
1753.00,0.0007
1752.00,0.0007
1751.00,0.0007
1750.00,0.0007
1749.00,0.0008
1748.00,0.0009
1747.00,0.0009
1746.00,0.0009
1745.00,0.0010
1744.00,0.0010
1743.00,0.0011
1742.00,0.0011
1741.00,0.0011
1740.00,0.0012
1739.00,0.0012
1738.00,0.0012
1737.00,0.0012
1736.00,0.0012
1735.00,0.0013
1734.00,0.0014
1733.00,0.0014
1732.00,0.0015
1731.00,0.0016
1730.00,0.0017
1729.00,0.0018
1728.00,0.0019
1727.00,0.0020
1726.00,0.0020
1725.00,0.0021
1724.00,0.0022
1723.00,0.0023
1722.00,0.0024
1721.00,0.0024
1720.00,0.0025
1719.00,0.0025
1718.00,0.0026
1717.00,0.0027
1716.00,0.0029
1715.00,0.0032
1714.00,0.0034
1713.00,0.0036
1712.00,0.0039
1711.00,0.0041
1710.00,0.0044
1709.00,0.0046
1708.00,0.0049
1707.00,0.0053
1706.00,0.0057
1705.00,0.0062
1704.00,0.0067
1703.00,0.0071
1702.00,0.0077
1701.00,0.0086
1700.00,0.0096
1699.00,0.0107
1698.00,0.0116
1697.00,0.0128
1696.00,0.0143
1695.00,0.0159
1694.00,0.0174
1693.00,0.0188
1692.00,0.0202
1691.00,0.0218
1690.00,0.0235
1689.00,0.0251
1688.00,0.0266
1687.00,0.0281
1686.00,0.0295
1685.00,0.0313
1684.00,0.0333
1683.00,0.0352
1682.00,0.0367
1681.00,0.0382
1680.00,0.0396
1679.00,0.0410
1678.00,0.0422
1677.00,0.0434
1676.00,0.0447
1675.00,0.0459
1674.00,0.0470
1673.00,0.0480
1672.00,0.0491
1671.00,0.0502
1670.00,0.0512
1669.00,0.0522
1668.00,0.0532
1667.00,0.0542
1666.00,0.0551
1665.00,0.0561
1664.00,0.0571
1663.00,0.0579
1662.00,0.0586
1661.00,0.0593
1660.00,0.0600
1659.00,0.0607
1658.00,0.0612
1657.00,0.0618
1656.00,0.0623
1655.00,0.0627
1654.00,0.0628
1653.00,0.0620
1652.00,0.0614
1651.00,0.0613
1650.00,0.0614
1649.00,0.0614
1648.00,0.0610
1647.00,0.0599
1646.00,0.0585
1645.00,0.0573
1644.00,0.0564
1643.00,0.0554
1642.00,0.0543
1641.00,0.0530
1640.00,0.0515
1639.00,0.0501
1638.00,0.0487
1637.00,0.0469
1636.00,0.0447
1635.00,0.0424
1634.00,0.0405
1633.00,0.0390
1632.00,0.0377
1631.00,0.0365
1630.00,0.0351
1629.00,0.0337
1628.00,0.0324
1627.00,0.0313
1626.00,0.0303
1625.00,0.0296
1624.00,0.0290
1623.00,0.0285
1622.00,0.0281
1621.00,0.0278
1620.00,0.0276
1619.00,0.0273
1618.00,0.0269
1617.00,0.0261
1616.00,0.0252
1615.00,0.0244
1614.00,0.0238
1613.00,0.0232
1612.00,0.0226
1611.00,0.0219
1610.00,0.0213
1609.00,0.0206
1608.00,0.0198
1607.00,0.0190
1606.00,0.0181
1605.00,0.0172
1604.00,0.0162
1603.00,0.0153
1602.00,0.0144
1601.00,0.0136
1600.00,0.0129
1599.00,0.0123
1598.00,0.0118
1597.00,0.0113
1596.00,0.0110
1595.00,0.0108
1594.00,0.0107
1593.00,0.0108
1592.00,0.0110
1591.00,0.0113
1590.00,0.0117
1589.00,0.0122
1588.00,0.0126
1587.00,0.0129
1586.00,0.0131
1585.00,0.0131
1584.00,0.0129
1583.00,0.0125
1582.00,0.0119
1581.00,0.0113
1580.00,0.0107
1579.00,0.0101
1578.00,0.0095
1577.00,0.0090
1576.00,0.0084
1575.00,0.0080
1574.00,0.0077
1573.00,0.0075
1572.00,0.0073
1571.00,0.0070
1570.00,0.0068
1569.00,0.0065
1568.00,0.0063
1567.00,0.0062
1566.00,0.0060
1565.00,0.0059
1564.00,0.0057
1563.00,0.0054
1562.00,0.0052
1561.00,0.0049
1560.00,0.0047
1559.00,0.0045
1558.00,0.0044
1557.00,0.0044
1556.00,0.0044
1555.00,0.0044
1554.00,0.0044
1553.00,0.0044
1552.00,0.0043
1551.00,0.0043
1550.00,0.0043
1549.00,0.0042
1548.00,0.0042
1547.00,0.0041
1546.00,0.0040
1545.00,0.0039
1544.00,0.0037
1543.00,0.0036
1542.00,0.0036
1541.00,0.0035
1540.00,0.0036
1539.00,0.0036
1538.00,0.0036
1537.00,0.0036
1536.00,0.0037
1535.00,0.0037
1534.00,0.0037
1533.00,0.0037
1532.00,0.0037
1531.00,0.0037
1530.00,0.0038
1529.00,0.0038
1528.00,0.0038
1527.00,0.0038
1526.00,0.0038
1525.00,0.0038
1524.00,0.0038
1523.00,0.0038
1522.00,0.0039
1521.00,0.0040
1520.00,0.0042
1519.00,0.0043
1518.00,0.0045
1517.00,0.0046
1516.00,0.0047
1515.00,0.0048
1514.00,0.0049
1513.00,0.0050
1512.00,0.0051
1511.00,0.0051
1510.00,0.0051
1509.00,0.0052
1508.00,0.0055
1507.00,0.0059
1506.00,0.0065
1505.00,0.0071
1504.00,0.0078
1503.00,0.0085
1502.00,0.0092
1501.00,0.0100
1500.00,0.0109
1499.00,0.0118
1498.00,0.0128
1497.00,0.0137
1496.00,0.0144
1495.00,0.0149
1494.00,0.0150
1493.00,0.0150
1492.00,0.0147
1491.00,0.0141
1490.00,0.0133
1489.00,0.0124
1488.00,0.0116
1487.00,0.0108
1486.00,0.0100
1485.00,0.0093
1484.00,0.0087
1483.00,0.0082
1482.00,0.0078
1481.00,0.0075
1480.00,0.0073
1479.00,0.0072
1478.00,0.0072
1477.00,0.0073
1476.00,0.0076
1475.00,0.0080
1474.00,0.0086
1473.00,0.0096
1472.00,0.0109
1471.00,0.0123
1470.00,0.0137
1469.00,0.0152
1468.00,0.0169
1467.00,0.0187
1466.00,0.0207
1465.00,0.0228
1464.00,0.0247
1463.00,0.0262
1462.00,0.0272
1461.00,0.0277
1460.00,0.0278
1459.00,0.0275
1458.00,0.0264
1457.00,0.0248
1456.00,0.0231
1455.00,0.0218
1454.00,0.0209
1453.00,0.0202
1452.00,0.0197
1451.00,0.0195
1450.00,0.0196
1449.00,0.0201
1448.00,0.0210
1447.00,0.0222
1446.00,0.0234
1445.00,0.0248
1444.00,0.0263
1443.00,0.0277
1442.00,0.0291
1441.00,0.0303
1440.00,0.0313
1439.00,0.0321
1438.00,0.0328
1437.00,0.0333
1436.00,0.0337
1435.00,0.0338
1434.00,0.0339
1433.00,0.0340
1432.00,0.0340
1431.00,0.0340
1430.00,0.0343
1429.00,0.0348
1428.00,0.0355
1427.00,0.0365
1426.00,0.0376
1425.00,0.0388
1424.00,0.0398
1423.00,0.0405
1422.00,0.0407
1421.00,0.0404
1420.00,0.0393
1419.00,0.0373
1418.00,0.0349
1417.00,0.0326
1416.00,0.0303
1415.00,0.0281
1414.00,0.0260
1413.00,0.0240
1412.00,0.0223
1411.00,0.0209
1410.00,0.0197
1409.00,0.0189
1408.00,0.0182
1407.00,0.0177
1406.00,0.0173
1405.00,0.0171
1404.00,0.0168
1403.00,0.0165
1402.00,0.0163
1401.00,0.0159
1400.00,0.0154
1399.00,0.0147
1398.00,0.0140
1397.00,0.0133
1396.00,0.0127
1395.00,0.0120
1394.00,0.0115
1393.00,0.0111
1392.00,0.0108
1391.00,0.0106
1390.00,0.0105
1389.00,0.0105
1388.00,0.0106
1387.00,0.0109
1386.00,0.0112
1385.00,0.0116
1384.00,0.0121
1383.00,0.0126
1382.00,0.0131
1381.00,0.0136
1380.00,0.0140
1379.00,0.0144
1378.00,0.0147
1377.00,0.0148
1376.00,0.0150
1375.00,0.0150
1374.00,0.0150
1373.00,0.0149
1372.00,0.0147
1371.00,0.0145
1370.00,0.0143
1369.00,0.0140
1368.00,0.0136
1367.00,0.0133
1366.00,0.0130
1365.00,0.0127
1364.00,0.0125
1363.00,0.0123
1362.00,0.0121
1361.00,0.0119
1360.00,0.0116
1359.00,0.0113
1358.00,0.0108
1357.00,0.0103
1356.00,0.0098
1355.00,0.0094
1354.00,0.0090
1353.00,0.0087
1352.00,0.0085
1351.00,0.0083
1350.00,0.0082
1349.00,0.0082
1348.00,0.0081
1347.00,0.0080
1346.00,0.0080
1345.00,0.0080
1344.00,0.0080
1343.00,0.0080
1342.00,0.0080
1341.00,0.0081
1340.00,0.0082
1339.00,0.0084
1338.00,0.0086
1337.00,0.0089
1336.00,0.0091
1335.00,0.0094
1334.00,0.0097
1333.00,0.0100
1332.00,0.0103
1331.00,0.0107
1330.00,0.0111
1329.00,0.0116
1328.00,0.0120
1327.00,0.0126
1326.00,0.0131
1325.00,0.0137
1324.00,0.0143
1323.00,0.0148
1322.00,0.0154
1321.00,0.0159
1320.00,0.0163
1319.00,0.0165
1318.00,0.0166
1317.00,0.0166
1316.00,0.0165
1315.00,0.0162
1314.00,0.0159
1313.00,0.0155
1312.00,0.0150
1311.00,0.0147
1310.00,0.0144
1309.00,0.0142
1308.00,0.0141
1307.00,0.0142
1306.00,0.0144
1305.00,0.0147
1304.00,0.0152
1303.00,0.0159
1302.00,0.0168
1301.00,0.0180
1300.00,0.0194
1299.00,0.0212
1298.00,0.0233
1297.00,0.0257
1296.00,0.0284
1295.00,0.0312
1294.00,0.0341
1293.00,0.0368
1292.00,0.0394
1291.00,0.0416
1290.00,0.0434
1289.00,0.0448
1288.00,0.0458
1287.00,0.0463
1286.00,0.0464
1285.00,0.0460
1284.00,0.0453
1283.00,0.0444
1282.00,0.0434
1281.00,0.0424
1280.00,0.0416
1279.00,0.0411
1278.00,0.0408
1277.00,0.0407
1276.00,0.0408
1275.00,0.0409
1274.00,0.0410
1273.00,0.0409
1272.00,0.0406
1271.00,0.0400
1270.00,0.0392
1269.00,0.0380
1268.00,0.0367
1267.00,0.0352
1266.00,0.0337
1265.00,0.0320
1264.00,0.0304
1263.00,0.0289
1262.00,0.0274
1261.00,0.0259
1260.00,0.0245
1259.00,0.0233
1258.00,0.0222
1257.00,0.0211
1256.00,0.0202
1255.00,0.0194
1254.00,0.0186
1253.00,0.0180
1252.00,0.0175
1251.00,0.0171
1250.00,0.0167
1249.00,0.0165
1248.00,0.0165
1247.00,0.0165
1246.00,0.0166
1245.00,0.0167
1244.00,0.0169
1243.00,0.0172
1242.00,0.0175
1241.00,0.0178
1240.00,0.0180
1239.00,0.0183
1238.00,0.0186
1237.00,0.0188
1236.00,0.0191
1235.00,0.0194
1234.00,0.0196
1233.00,0.0198
1232.00,0.0200
1231.00,0.0201
1230.00,0.0201
1229.00,0.0200
1228.00,0.0199
1227.00,0.0198
1226.00,0.0198
1225.00,0.0197
1224.00,0.0197
1223.00,0.0197
1222.00,0.0197
1221.00,0.0197
1220.00,0.0197
1219.00,0.0196
1218.00,0.0194
1217.00,0.0192
1216.00,0.0188
1215.00,0.0184
1214.00,0.0179
1213.00,0.0173
1212.00,0.0167
1211.00,0.0161
1210.00,0.0155
1209.00,0.0150
1208.00,0.0145
1207.00,0.0141
1206.00,0.0137
1205.00,0.0134
1204.00,0.0133
1203.00,0.0132
1202.00,0.0132
1201.00,0.0133
1200.00,0.0134
1199.00,0.0135
1198.00,0.0137
1197.00,0.0139
1196.00,0.0141
1195.00,0.0141
1194.00,0.0141
1193.00,0.0140
1192.00,0.0138
1191.00,0.0134
1190.00,0.0131
1189.00,0.0127
1188.00,0.0123
1187.00,0.0119
1186.00,0.0116
1185.00,0.0114
1184.00,0.0112
1183.00,0.0110
1182.00,0.0109
1181.00,0.0109
1180.00,0.0109
1179.00,0.0110
1178.00,0.0111
1177.00,0.0113
1176.00,0.0115
1175.00,0.0117
1174.00,0.0120
1173.00,0.0122
1172.00,0.0123
1171.00,0.0124
1170.00,0.0125
1169.00,0.0125
1168.00,0.0125
1167.00,0.0125
1166.00,0.0124
1165.00,0.0123
1164.00,0.0122
1163.00,0.0122
1162.00,0.0123
1161.00,0.0124
1160.00,0.0126
1159.00,0.0127
1158.00,0.0129
1157.00,0.0129
1156.00,0.0129
1155.00,0.0127
1154.00,0.0124
1153.00,0.0120
1152.00,0.0115
1151.00,0.0110
1150.00,0.0105
1149.00,0.0100
1148.00,0.0095
1147.00,0.0091
1146.00,0.0087
1145.00,0.0084
1144.00,0.0081
1143.00,0.0078
1142.00,0.0076
1141.00,0.0075
1140.00,0.0074
1139.00,0.0073
1138.00,0.0074
1137.00,0.0076
1136.00,0.0080
1135.00,0.0085
1134.00,0.0090
1133.00,0.0097
1132.00,0.0103
1131.00,0.0109
1130.00,0.0112
1129.00,0.0113
1128.00,0.0111
1127.00,0.0107
1126.00,0.0102
1125.00,0.0096
1124.00,0.0091
1123.00,0.0087
1122.00,0.0084
1121.00,0.0081
1120.00,0.0080
1119.00,0.0078
1118.00,0.0078
1117.00,0.0077
1116.00,0.0077
1115.00,0.0077
1114.00,0.0078
1113.00,0.0078
1112.00,0.0078
1111.00,0.0078
1110.00,0.0079
1109.00,0.0080
1108.00,0.0081
1107.00,0.0082
1106.00,0.0084
1105.00,0.0086
1104.00,0.0088
1103.00,0.0091
1102.00,0.0093
1101.00,0.0094
1100.00,0.0095
1099.00,0.0095
1098.00,0.0094
1097.00,0.0093
1096.00,0.0091
1095.00,0.0088
1094.00,0.0087
1093.00,0.0085
1092.00,0.0084
1091.00,0.0082
1090.00,0.0081
1089.00,0.0080
1088.00,0.0079
1087.00,0.0079
1086.00,0.0079
1085.00,0.0079
1084.00,0.0079
1083.00,0.0080
1082.00,0.0081
1081.00,0.0082
1080.00,0.0083
1079.00,0.0085
1078.00,0.0087
1077.00,0.0089
1076.00,0.0091
1075.00,0.0093
1074.00,0.0095
1073.00,0.0097
1072.00,0.0099
1071.00,0.0101
1070.00,0.0103
1069.00,0.0107
1068.00,0.0111
1067.00,0.0116
1066.00,0.0122
1065.00,0.0130
1064.00,0.0138
1063.00,0.0146
1062.00,0.0154
1061.00,0.0161
1060.00,0.0167
1059.00,0.0171
1058.00,0.0172
1057.00,0.0170
1056.00,0.0165
1055.00,0.0158
1054.00,0.0149
1053.00,0.0140
1052.00,0.0130
1051.00,0.0120
1050.00,0.0112
1049.00,0.0105
1048.00,0.0099
1047.00,0.0095
1046.00,0.0092
1045.00,0.0089
1044.00,0.0087
1043.00,0.0086
1042.00,0.0086
1041.00,0.0086
1040.00,0.0086
1039.00,0.0086
1038.00,0.0087
1037.00,0.0087
1036.00,0.0088
1035.00,0.0088
1034.00,0.0090
1033.00,0.0091
1032.00,0.0093
1031.00,0.0095
1030.00,0.0096
1029.00,0.0096
1028.00,0.0095
1027.00,0.0094
1026.00,0.0094
1025.00,0.0093
1024.00,0.0093
1023.00,0.0094
1022.00,0.0096
1021.00,0.0098
1020.00,0.0100
1019.00,0.0102
1018.00,0.0103
1017.00,0.0103
1016.00,0.0101
1015.00,0.0098
1014.00,0.0095
1013.00,0.0091
1012.00,0.0088
1011.00,0.0085
1010.00,0.0083
1009.00,0.0082
1008.00,0.0083
1007.00,0.0086
1006.00,0.0090
1005.00,0.0094
1004.00,0.0098
1003.00,0.0100
1002.00,0.0101
1001.00,0.0099
1000.00,0.0097
999.00,0.0093
998.00,0.0089
997.00,0.0085
996.00,0.0082
995.00,0.0079
994.00,0.0077
993.00,0.0074
992.00,0.0072
991.00,0.0070
990.00,0.0068
989.00,0.0066
988.00,0.0065
987.00,0.0064
986.00,0.0062
985.00,0.0061
984.00,0.0060
983.00,0.0059
982.00,0.0058
981.00,0.0058
980.00,0.0058
979.00,0.0058
978.00,0.0057
977.00,0.0057
976.00,0.0057
975.00,0.0056
974.00,0.0056
973.00,0.0056
972.00,0.0055
971.00,0.0055
970.00,0.0054
969.00,0.0053
968.00,0.0052
967.00,0.0052
966.00,0.0051
965.00,0.0051
964.00,0.0051
963.00,0.0050
962.00,0.0050
961.00,0.0049
960.00,0.0049
959.00,0.0048
958.00,0.0047
957.00,0.0047
956.00,0.0046
955.00,0.0046
954.00,0.0046
953.00,0.0045
952.00,0.0045
951.00,0.0045
950.00,0.0045
949.00,0.0045
948.00,0.0046
947.00,0.0046
946.00,0.0047
945.00,0.0048
944.00,0.0049
943.00,0.0050
942.00,0.0052
941.00,0.0055
940.00,0.0058
939.00,0.0062
938.00,0.0065
937.00,0.0070
936.00,0.0073
935.00,0.0077
934.00,0.0079
933.00,0.0080
932.00,0.0079
931.00,0.0078
930.00,0.0075
929.00,0.0074
928.00,0.0073
927.00,0.0072
926.00,0.0071
925.00,0.0070
924.00,0.0069
923.00,0.0068
922.00,0.0067
921.00,0.0065
920.00,0.0064
919.00,0.0062
918.00,0.0061
917.00,0.0060
916.00,0.0059
915.00,0.0058
914.00,0.0057
913.00,0.0057
912.00,0.0057
911.00,0.0057
910.00,0.0058
909.00,0.0059
908.00,0.0059
907.00,0.0061
906.00,0.0062
905.00,0.0064
904.00,0.0067
903.00,0.0070
902.00,0.0072
901.00,0.0075
900.00,0.0078
899.00,0.0080
898.00,0.0082
897.00,0.0083
896.00,0.0083
895.00,0.0083
894.00,0.0081
893.00,0.0080
892.00,0.0078
891.00,0.0077
890.00,0.0075
889.00,0.0074
888.00,0.0073
887.00,0.0072
886.00,0.0072
885.00,0.0072
884.00,0.0072
883.00,0.0073
882.00,0.0074
881.00,0.0075
880.00,0.0077
879.00,0.0079
878.00,0.0081
877.00,0.0083
876.00,0.0085
875.00,0.0088
874.00,0.0090
873.00,0.0092
872.00,0.0094
871.00,0.0096
870.00,0.0097
869.00,0.0098
868.00,0.0099
867.00,0.0100
866.00,0.0100
865.00,0.0101
864.00,0.0102
863.00,0.0104
862.00,0.0105
861.00,0.0107
860.00,0.0109
859.00,0.0111
858.00,0.0114
857.00,0.0117
856.00,0.0120
855.00,0.0123
854.00,0.0127
853.00,0.0130
852.00,0.0134
851.00,0.0137
850.00,0.0141
849.00,0.0144
848.00,0.0147
847.00,0.0149
846.00,0.0151
845.00,0.0152
844.00,0.0152
843.00,0.0152
842.00,0.0152
841.00,0.0151
840.00,0.0150
839.00,0.0149
838.00,0.0149
837.00,0.0148
836.00,0.0147
835.00,0.0147
834.00,0.0146
833.00,0.0145
832.00,0.0144
831.00,0.0142
830.00,0.0141
829.00,0.0139
828.00,0.0138
827.00,0.0137
826.00,0.0135
825.00,0.0134
824.00,0.0133
823.00,0.0131
822.00,0.0130
821.00,0.0128
820.00,0.0127
819.00,0.0127
818.00,0.0126
817.00,0.0126
816.00,0.0125
815.00,0.0123
814.00,0.0122
813.00,0.0120
812.00,0.0117
811.00,0.0114
810.00,0.0111
809.00,0.0108
808.00,0.0104
807.00,0.0100
806.00,0.0096
805.00,0.0093
804.00,0.0091
803.00,0.0090
802.00,0.0089
801.00,0.0089
800.00,0.0088
799.00,0.0088
798.00,0.0088
797.00,0.0088
796.00,0.0089
795.00,0.0089
794.00,0.0090
793.00,0.0090
792.00,0.0091
791.00,0.0092
790.00,0.0092
789.00,0.0092
788.00,0.0093
787.00,0.0094
786.00,0.0095
785.00,0.0096
784.00,0.0096
783.00,0.0097
782.00,0.0097
781.00,0.0098
780.00,0.0099
779.00,0.0100
778.00,0.0102
777.00,0.0103
776.00,0.0103
775.00,0.0104
774.00,0.0104
773.00,0.0105
772.00,0.0106
771.00,0.0107
770.00,0.0108
769.00,0.0110
768.00,0.0112
767.00,0.0114
766.00,0.0116
765.00,0.0119
764.00,0.0121
763.00,0.0124
762.00,0.0126
761.00,0.0128
760.00,0.0131
759.00,0.0134
758.00,0.0137
757.00,0.0140
756.00,0.0143
755.00,0.0146
754.00,0.0149
753.00,0.0152
752.00,0.0155
751.00,0.0157
750.00,0.0160
749.00,0.0163
748.00,0.0166
747.00,0.0169
746.00,0.0173
745.00,0.0176
744.00,0.0179
743.00,0.0182
742.00,0.0186
741.00,0.0191
740.00,0.0195
739.00,0.0199
738.00,0.0203
737.00,0.0206
736.00,0.0208
735.00,0.0208
734.00,0.0208
733.00,0.0206
732.00,0.0203
731.00,0.0200
730.00,0.0197
729.00,0.0193
728.00,0.0189
727.00,0.0185
726.00,0.0181
725.00,0.0178
724.00,0.0175
723.00,0.0173
722.00,0.0171
721.00,0.0169
720.00,0.0168
719.00,0.0167
718.00,0.0166
717.00,0.0166
716.00,0.0165
715.00,0.0165
714.00,0.0165
713.00,0.0165
712.00,0.0165
711.00,0.0166
710.00,0.0166
709.00,0.0166
708.00,0.0166
707.00,0.0166
706.00,0.0166
705.00,0.0166
704.00,0.0167
703.00,0.0168
702.00,0.0168
701.00,0.0169
700.00,0.0170
699.00,0.0171
698.00,0.0173
697.00,0.0175
696.00,0.0177
695.00,0.0180
694.00,0.0184
693.00,0.0187
692.00,0.0190
691.00,0.0192
690.00,0.0193
689.00,0.0195
688.00,0.0197
687.00,0.0199
686.00,0.0201
685.00,0.0202
684.00,0.0203
683.00,0.0204
682.00,0.0205
681.00,0.0206
680.00,0.0208
679.00,0.0210
678.00,0.0212
677.00,0.0214
676.00,0.0215
675.00,0.0217
674.00,0.0219
673.00,0.0222
672.00,0.0225
671.00,0.0228
670.00,0.0231
669.00,0.0235
668.00,0.0240
667.00,0.0246
666.00,0.0250
665.00,0.0253
664.00,0.0257
663.00,0.0261
662.00,0.0265
661.00,0.0271
660.00,0.0277
659.00,0.0283
658.00,0.0289
657.00,0.0294
656.00,0.0300
655.00,0.0306
654.00,0.0312
653.00,0.0317
652.00,0.0321
651.00,0.0324
650.00,0.0327
649.00,0.0329
648.00,0.0332
647.00,0.0333
646.00,0.0333
645.00,0.0331
644.00,0.0329
643.00,0.0326
642.00,0.0323
641.00,0.0319
640.00,0.0315
639.00,0.0312
638.00,0.0308
637.00,0.0305
636.00,0.0301
635.00,0.0297
634.00,0.0294
633.00,0.0292
632.00,0.0290
631.00,0.0288
630.00,0.0287
629.00,0.0286
628.00,0.0285
627.00,0.0284
626.00,0.0284
625.00,0.0284
624.00,0.0283
623.00,0.0283
622.00,0.0282
621.00,0.0280
620.00,0.0279
619.00,0.0277
618.00,0.0276
617.00,0.0275
616.00,0.0275
615.00,0.0276
614.00,0.0276
613.00,0.0277
612.00,0.0279
611.00,0.0280
610.00,0.0281
609.00,0.0282
608.00,0.0284
607.00,0.0285
606.00,0.0286
605.00,0.0287
604.00,0.0289
603.00,0.0290
602.00,0.0290
601.00,0.0291
600.00,0.0292
599.00,0.0294
598.00,0.0295
597.00,0.0296
596.00,0.0296
595.00,0.0297
594.00,0.0298
593.00,0.0299
592.00,0.0300
591.00,0.0303
590.00,0.0306
589.00,0.0310
588.00,0.0316
587.00,0.0323
586.00,0.0330
585.00,0.0338
584.00,0.0345
583.00,0.0350
582.00,0.0355
581.00,0.0359
580.00,0.0363
579.00,0.0368
578.00,0.0371
577.00,0.0375
576.00,0.0377
575.00,0.0379
574.00,0.0379
573.00,0.0379
572.00,0.0378
571.00,0.0378
570.00,0.0378
569.00,0.0377
568.00,0.0376
567.00,0.0374
566.00,0.0373
565.00,0.0372
564.00,0.0370
563.00,0.0368
562.00,0.0365
561.00,0.0362
560.00,0.0360
559.00,0.0358
558.00,0.0356
557.00,0.0355
556.00,0.0353
555.00,0.0351
554.00,0.0347
553.00,0.0344
552.00,0.0341
551.00,0.0339
550.00,0.0338
549.00,0.0337
548.00,0.0335
547.00,0.0333
546.00,0.0332
545.00,0.0330
544.00,0.0329
543.00,0.0327
542.00,0.0325
541.00,0.0323
540.00,0.0321
539.00,0.0321
538.00,0.0322
537.00,0.0323
536.00,0.0325
535.00,0.0326
534.00,0.0327
533.00,0.0329
532.00,0.0332
531.00,0.0334
530.00,0.0334
529.00,0.0332
528.00,0.0329
527.00,0.0325
526.00,0.0322
525.00,0.0320
524.00,0.0319
523.00,0.0317
522.00,0.0316
521.00,0.0315
520.00,0.0315
519.00,0.0316
518.00,0.0316
517.00,0.0316
516.00,0.0316
515.00,0.0316
514.00,0.0316
513.00,0.0316
512.00,0.0316
511.00,0.0316
510.00,0.0317
509.00,0.0318
508.00,0.0317
507.00,0.0316
506.00,0.0314
505.00,0.0312
504.00,0.0311
503.00,0.0312
502.00,0.0313
501.00,0.0314
500.00,0.0314
499.00,0.0313
498.00,0.0312
497.00,0.0311
496.00,0.0311
495.00,0.0310
494.00,0.0310
493.00,0.0311
492.00,0.0312
491.00,0.0311
490.00,0.0311
489.00,0.0311
488.00,0.0311
487.00,0.0311
486.00,0.0310
485.00,0.0312
484.00,0.0315
483.00,0.0317
482.00,0.0317
481.00,0.0315
480.00,0.0313
479.00,0.0311
478.00,0.0312
477.00,0.0313
476.00,0.0315
475.00,0.0317
474.00,0.0318
473.00,0.0318
472.00,0.0316
471.00,0.0314
470.00,0.0312
469.00,0.0311
468.00,0.0311
467.00,0.0311
466.00,0.0311
465.00,0.0311
464.00,0.0311
463.00,0.0311
462.00,0.0311
461.00,0.0311
460.00,0.0312
459.00,0.0311
458.00,0.0310
457.00,0.0308
456.00,0.0307
455.00,0.0305
454.00,0.0303
453.00,0.0301
452.00,0.0302
451.00,0.0305
450.00,0.0307
449.00,0.0307
448.00,0.0306
447.00,0.0304
446.00,0.0302
445.00,0.0301
444.00,0.0301
443.00,0.0301
442.00,0.0300
441.00,0.0298
440.00,0.0296
439.00,0.0294
438.00,0.0294
437.00,0.0295
436.00,0.0296
435.00,0.0294
434.00,0.0288
433.00,0.0282
432.00,0.0278
431.00,0.0276
430.00,0.0277
429.00,0.0277
428.00,0.0277
427.00,0.0275
426.00,0.0273
425.00,0.0272
424.00,0.0272
423.00,0.0277
422.00,0.0282
421.00,0.0285
420.00,0.0283
419.00,0.0276
418.00,0.0271
417.00,0.0273
416.00,0.0279
415.00,0.0285
414.00,0.0288
413.00,0.0290
412.00,0.0291
411.00,0.0290
410.00,0.0288
409.00,0.0285
408.00,0.0282
407.00,0.0281
406.00,0.0280
405.00,0.0281
404.00,0.0284
403.00,0.0288
402.00,0.0288
401.00,0.0283
400.00,0.0274
