Created as New Dataset,Sample 1036 By YargerLab Date Monday, August 04 2025
cm-1,A
4000.00,0.0008
3999.00,0.0008
3998.00,0.0008
3997.00,0.0008
3996.00,0.0008
3995.00,0.0008
3994.00,0.0007
3993.00,0.0007
3992.00,0.0007
3991.00,0.0007
3990.00,0.0007
3989.00,0.0007
3988.00,0.0007
3987.00,0.0007
3986.00,0.0007
3985.00,0.0007
3984.00,0.0007
3983.00,0.0007
3982.00,0.0007
3981.00,0.0007
3980.00,0.0007
3979.00,0.0007
3978.00,0.0007
3977.00,0.0007
3976.00,0.0007
3975.00,0.0007
3974.00,0.0007
3973.00,0.0007
3972.00,0.0007
3971.00,0.0007
3970.00,0.0007
3969.00,0.0007
3968.00,0.0007
3967.00,0.0008
3966.00,0.0008
3965.00,0.0008
3964.00,0.0007
3963.00,0.0007
3962.00,0.0007
3961.00,0.0007
3960.00,0.0007
3959.00,0.0007
3958.00,0.0007
3957.00,0.0007
3956.00,0.0007
3955.00,0.0007
3954.00,0.0007
3953.00,0.0007
3952.00,0.0007
3951.00,0.0008
3950.00,0.0008
3949.00,0.0008
3948.00,0.0008
3947.00,0.0008
3946.00,0.0008
3945.00,0.0008
3944.00,0.0008
3943.00,0.0008
3942.00,0.0007
3941.00,0.0007
3940.00,0.0007
3939.00,0.0007
3938.00,0.0007
3937.00,0.0007
3936.00,0.0008
3935.00,0.0008
3934.00,0.0008
3933.00,0.0008
3932.00,0.0008
3931.00,0.0008
3930.00,0.0008
3929.00,0.0008
3928.00,0.0008
3927.00,0.0008
3926.00,0.0008
3925.00,0.0008
3924.00,0.0008
3923.00,0.0008
3922.00,0.0008
3921.00,0.0008
3920.00,0.0008
3919.00,0.0008
3918.00,0.0008
3917.00,0.0008
3916.00,0.0008
3915.00,0.0008
3914.00,0.0008
3913.00,0.0007
3912.00,0.0007
3911.00,0.0007
3910.00,0.0007
3909.00,0.0007
3908.00,0.0008
3907.00,0.0008
3906.00,0.0008
3905.00,0.0008
3904.00,0.0008
3903.00,0.0008
3902.00,0.0008
3901.00,0.0008
3900.00,0.0009
3899.00,0.0008
3898.00,0.0008
3897.00,0.0008
3896.00,0.0007
3895.00,0.0007
3894.00,0.0007
3893.00,0.0007
3892.00,0.0007
3891.00,0.0007
3890.00,0.0007
3889.00,0.0008
3888.00,0.0008
3887.00,0.0008
3886.00,0.0008
3885.00,0.0008
3884.00,0.0008
3883.00,0.0008
3882.00,0.0008
3881.00,0.0008
3880.00,0.0008
3879.00,0.0008
3878.00,0.0008
3877.00,0.0008
3876.00,0.0008
3875.00,0.0007
3874.00,0.0007
3873.00,0.0007
3872.00,0.0008
3871.00,0.0008
3870.00,0.0008
3869.00,0.0009
3868.00,0.0008
3867.00,0.0008
3866.00,0.0008
3865.00,0.0008
3864.00,0.0008
3863.00,0.0008
3862.00,0.0008
3861.00,0.0007
3860.00,0.0007
3859.00,0.0007
3858.00,0.0008
3857.00,0.0009
3856.00,0.0010
3855.00,0.0010
3854.00,0.0010
3853.00,0.0010
3852.00,0.0009
3851.00,0.0009
3850.00,0.0009
3849.00,0.0008
3848.00,0.0007
3847.00,0.0007
3846.00,0.0007
3845.00,0.0007
3844.00,0.0007
3843.00,0.0007
3842.00,0.0007
3841.00,0.0007
3840.00,0.0007
3839.00,0.0007
3838.00,0.0008
3837.00,0.0008
3836.00,0.0008
3835.00,0.0008
3834.00,0.0008
3833.00,0.0008
3832.00,0.0008
3831.00,0.0007
3830.00,0.0007
3829.00,0.0007
3828.00,0.0007
3827.00,0.0007
3826.00,0.0007
3825.00,0.0007
3824.00,0.0008
3823.00,0.0008
3822.00,0.0007
3821.00,0.0007
3820.00,0.0007
3819.00,0.0008
3818.00,0.0008
3817.00,0.0008
3816.00,0.0008
3815.00,0.0007
3814.00,0.0007
3813.00,0.0007
3812.00,0.0007
3811.00,0.0008
3810.00,0.0008
3809.00,0.0008
3808.00,0.0008
3807.00,0.0008
3806.00,0.0008
3805.00,0.0008
3804.00,0.0008
3803.00,0.0008
3802.00,0.0008
3801.00,0.0008
3800.00,0.0008
3799.00,0.0008
3798.00,0.0008
3797.00,0.0008
3796.00,0.0007
3795.00,0.0007
3794.00,0.0007
3793.00,0.0007
3792.00,0.0008
3791.00,0.0008
3790.00,0.0008
3789.00,0.0008
3788.00,0.0008
3787.00,0.0008
3786.00,0.0008
3785.00,0.0008
3784.00,0.0008
3783.00,0.0008
3782.00,0.0008
3781.00,0.0008
3780.00,0.0008
3779.00,0.0008
3778.00,0.0008
3777.00,0.0008
3776.00,0.0008
3775.00,0.0008
3774.00,0.0008
3773.00,0.0008
3772.00,0.0008
3771.00,0.0008
3770.00,0.0008
3769.00,0.0008
3768.00,0.0008
3767.00,0.0008
3766.00,0.0008
3765.00,0.0008
3764.00,0.0008
3763.00,0.0007
3762.00,0.0007
3761.00,0.0007
3760.00,0.0007
3759.00,0.0007
3758.00,0.0007
3757.00,0.0007
3756.00,0.0008
3755.00,0.0008
3754.00,0.0009
3753.00,0.0009
3752.00,0.0010
3751.00,0.0010
3750.00,0.0009
3749.00,0.0009
3748.00,0.0009
3747.00,0.0009
3746.00,0.0009
3745.00,0.0009
3744.00,0.0009
3743.00,0.0009
3742.00,0.0008
3741.00,0.0008
3740.00,0.0008
3739.00,0.0008
3738.00,0.0007
3737.00,0.0007
3736.00,0.0007
3735.00,0.0007
3734.00,0.0007
3733.00,0.0007
3732.00,0.0007
3731.00,0.0007
3730.00,0.0007
3729.00,0.0007
3728.00,0.0007
3727.00,0.0007
3726.00,0.0007
3725.00,0.0008
3724.00,0.0008
3723.00,0.0008
3722.00,0.0007
3721.00,0.0007
3720.00,0.0007
3719.00,0.0007
3718.00,0.0007
3717.00,0.0007
3716.00,0.0007
3715.00,0.0007
3714.00,0.0007
3713.00,0.0007
3712.00,0.0007
3711.00,0.0007
3710.00,0.0007
3709.00,0.0007
3708.00,0.0007
3707.00,0.0006
3706.00,0.0006
3705.00,0.0006
3704.00,0.0006
3703.00,0.0005
3702.00,0.0005
3701.00,0.0005
3700.00,0.0006
3699.00,0.0006
3698.00,0.0006
3697.00,0.0006
3696.00,0.0006
3695.00,0.0006
3694.00,0.0006
3693.00,0.0007
3692.00,0.0007
3691.00,0.0007
3690.00,0.0008
3689.00,0.0008
3688.00,0.0008
3687.00,0.0008
3686.00,0.0008
3685.00,0.0008
3684.00,0.0008
3683.00,0.0008
3682.00,0.0008
3681.00,0.0008
3680.00,0.0008
3679.00,0.0008
3678.00,0.0009
3677.00,0.0009
3676.00,0.0009
3675.00,0.0009
3674.00,0.0010
3673.00,0.0010
3672.00,0.0010
3671.00,0.0010
3670.00,0.0010
3669.00,0.0009
3668.00,0.0010
3667.00,0.0010
3666.00,0.0010
3665.00,0.0009
3664.00,0.0009
3663.00,0.0009
3662.00,0.0009
3661.00,0.0009
3660.00,0.0010
3659.00,0.0010
3658.00,0.0010
3657.00,0.0010
3656.00,0.0010
3655.00,0.0010
3654.00,0.0011
3653.00,0.0011
3652.00,0.0011
3651.00,0.0011
3650.00,0.0011
3649.00,0.0011
3648.00,0.0012
3647.00,0.0012
3646.00,0.0012
3645.00,0.0011
3644.00,0.0011
3643.00,0.0011
3642.00,0.0011
3641.00,0.0011
3640.00,0.0011
3639.00,0.0011
3638.00,0.0011
3637.00,0.0011
3636.00,0.0011
3635.00,0.0012
3634.00,0.0012
3633.00,0.0013
3632.00,0.0013
3631.00,0.0014
3630.00,0.0014
3629.00,0.0014
3628.00,0.0014
3627.00,0.0014
3626.00,0.0014
3625.00,0.0014
3624.00,0.0013
3623.00,0.0013
3622.00,0.0013
3621.00,0.0013
3620.00,0.0013
3619.00,0.0013
3618.00,0.0013
3617.00,0.0013
3616.00,0.0013
3615.00,0.0013
3614.00,0.0013
3613.00,0.0013
3612.00,0.0014
3611.00,0.0014
3610.00,0.0014
3609.00,0.0014
3608.00,0.0014
3607.00,0.0014
3606.00,0.0014
3605.00,0.0015
3604.00,0.0015
3603.00,0.0015
3602.00,0.0015
3601.00,0.0015
3600.00,0.0015
3599.00,0.0015
3598.00,0.0015
3597.00,0.0016
3596.00,0.0016
3595.00,0.0016
3594.00,0.0016
3593.00,0.0016
3592.00,0.0016
3591.00,0.0016
3590.00,0.0017
3589.00,0.0017
3588.00,0.0017
3587.00,0.0017
3586.00,0.0017
3585.00,0.0017
3584.00,0.0017
3583.00,0.0017
3582.00,0.0017
3581.00,0.0018
3580.00,0.0018
3579.00,0.0018
3578.00,0.0018
3577.00,0.0018
3576.00,0.0018
3575.00,0.0018
3574.00,0.0018
3573.00,0.0019
3572.00,0.0019
3571.00,0.0019
3570.00,0.0020
3569.00,0.0020
3568.00,0.0020
3567.00,0.0020
3566.00,0.0020
3565.00,0.0020
3564.00,0.0020
3563.00,0.0021
3562.00,0.0021
3561.00,0.0021
3560.00,0.0021
3559.00,0.0021
3558.00,0.0022
3557.00,0.0022
3556.00,0.0022
3555.00,0.0022
3554.00,0.0022
3553.00,0.0022
3552.00,0.0022
3551.00,0.0023
3550.00,0.0023
3549.00,0.0023
3548.00,0.0023
3547.00,0.0023
3546.00,0.0024
3545.00,0.0024
3544.00,0.0024
3543.00,0.0024
3542.00,0.0024
3541.00,0.0024
3540.00,0.0024
3539.00,0.0024
3538.00,0.0024
3537.00,0.0024
3536.00,0.0024
3535.00,0.0025
3534.00,0.0025
3533.00,0.0025
3532.00,0.0025
3531.00,0.0025
3530.00,0.0026
3529.00,0.0026
3528.00,0.0026
3527.00,0.0026
3526.00,0.0026
3525.00,0.0026
3524.00,0.0026
3523.00,0.0026
3522.00,0.0027
3521.00,0.0027
3520.00,0.0027
3519.00,0.0027
3518.00,0.0027
3517.00,0.0027
3516.00,0.0027
3515.00,0.0027
3514.00,0.0027
3513.00,0.0027
3512.00,0.0028
3511.00,0.0028
3510.00,0.0028
3509.00,0.0028
3508.00,0.0028
3507.00,0.0029
3506.00,0.0029
3505.00,0.0029
3504.00,0.0029
3503.00,0.0029
3502.00,0.0029
3501.00,0.0029
3500.00,0.0029
3499.00,0.0029
3498.00,0.0029
3497.00,0.0029
3496.00,0.0029
3495.00,0.0029
3494.00,0.0030
3493.00,0.0030
3492.00,0.0030
3491.00,0.0030
3490.00,0.0030
3489.00,0.0030
3488.00,0.0030
3487.00,0.0031
3486.00,0.0031
3485.00,0.0031
3484.00,0.0031
3483.00,0.0032
3482.00,0.0032
3481.00,0.0032
3480.00,0.0032
3479.00,0.0032
3478.00,0.0032
3477.00,0.0032
3476.00,0.0033
3475.00,0.0033
3474.00,0.0033
3473.00,0.0033
3472.00,0.0032
3471.00,0.0032
3470.00,0.0032
3469.00,0.0032
3468.00,0.0033
3467.00,0.0033
3466.00,0.0033
3465.00,0.0033
3464.00,0.0033
3463.00,0.0033
3462.00,0.0033
3461.00,0.0033
3460.00,0.0033
3459.00,0.0033
3458.00,0.0033
3457.00,0.0033
3456.00,0.0034
3455.00,0.0034
3454.00,0.0034
3453.00,0.0034
3452.00,0.0034
3451.00,0.0034
3450.00,0.0034
3449.00,0.0034
3448.00,0.0034
3447.00,0.0034
3446.00,0.0034
3445.00,0.0035
3444.00,0.0035
3443.00,0.0035
3442.00,0.0035
3441.00,0.0035
3440.00,0.0035
3439.00,0.0035
3438.00,0.0035
3437.00,0.0035
3436.00,0.0035
3435.00,0.0035
3434.00,0.0035
3433.00,0.0035
3432.00,0.0035
3431.00,0.0035
3430.00,0.0035
3429.00,0.0035
3428.00,0.0036
3427.00,0.0036
3426.00,0.0036
3425.00,0.0036
3424.00,0.0036
3423.00,0.0036
3422.00,0.0037
3421.00,0.0037
3420.00,0.0037
3419.00,0.0037
3418.00,0.0037
3417.00,0.0037
3416.00,0.0037
3415.00,0.0037
3414.00,0.0037
3413.00,0.0037
3412.00,0.0037
3411.00,0.0037
3410.00,0.0037
3409.00,0.0037
3408.00,0.0037
3407.00,0.0037
3406.00,0.0037
3405.00,0.0037
3404.00,0.0037
3403.00,0.0037
3402.00,0.0038
3401.00,0.0038
3400.00,0.0038
3399.00,0.0038
3398.00,0.0038
3397.00,0.0038
3396.00,0.0038
3395.00,0.0038
3394.00,0.0038
3393.00,0.0038
3392.00,0.0038
3391.00,0.0038
3390.00,0.0038
3389.00,0.0038
3388.00,0.0039
3387.00,0.0039
3386.00,0.0039
3385.00,0.0039
3384.00,0.0040
3383.00,0.0040
3382.00,0.0040
3381.00,0.0040
3380.00,0.0040
3379.00,0.0040
3378.00,0.0041
3377.00,0.0041
3376.00,0.0041
3375.00,0.0041
3374.00,0.0041
3373.00,0.0041
3372.00,0.0042
3371.00,0.0042
3370.00,0.0042
3369.00,0.0042
3368.00,0.0042
3367.00,0.0042
3366.00,0.0042
3365.00,0.0043
3364.00,0.0043
3363.00,0.0043
3362.00,0.0043
3361.00,0.0043
3360.00,0.0043
3359.00,0.0043
3358.00,0.0044
3357.00,0.0044
3356.00,0.0044
3355.00,0.0045
3354.00,0.0045
3353.00,0.0045
3352.00,0.0045
3351.00,0.0045
3350.00,0.0045
3349.00,0.0045
3348.00,0.0045
3347.00,0.0045
3346.00,0.0045
3345.00,0.0046
3344.00,0.0046
3343.00,0.0046
3342.00,0.0046
3341.00,0.0047
3340.00,0.0047
3339.00,0.0047
3338.00,0.0047
3337.00,0.0047
3336.00,0.0047
3335.00,0.0047
3334.00,0.0048
3333.00,0.0048
3332.00,0.0048
3331.00,0.0048
3330.00,0.0048
3329.00,0.0048
3328.00,0.0048
3327.00,0.0048
3326.00,0.0049
3325.00,0.0049
3324.00,0.0049
3323.00,0.0049
3322.00,0.0049
3321.00,0.0049
3320.00,0.0050
3319.00,0.0050
3318.00,0.0050
3317.00,0.0050
3316.00,0.0050
3315.00,0.0050
3314.00,0.0051
3313.00,0.0051
3312.00,0.0051
3311.00,0.0051
3310.00,0.0051
3309.00,0.0050
3308.00,0.0050
3307.00,0.0050
3306.00,0.0050
3305.00,0.0051
3304.00,0.0051
3303.00,0.0052
3302.00,0.0052
3301.00,0.0053
3300.00,0.0053
3299.00,0.0053
3298.00,0.0053
3297.00,0.0053
3296.00,0.0053
3295.00,0.0054
3294.00,0.0054
3293.00,0.0053
3292.00,0.0053
3291.00,0.0053
3290.00,0.0054
3289.00,0.0054
3288.00,0.0055
3287.00,0.0055
3286.00,0.0055
3285.00,0.0056
3284.00,0.0056
3283.00,0.0056
3282.00,0.0056
3281.00,0.0056
3280.00,0.0056
3279.00,0.0057
3278.00,0.0057
3277.00,0.0056
3276.00,0.0056
3275.00,0.0056
3274.00,0.0056
3273.00,0.0056
3272.00,0.0057
3271.00,0.0057
3270.00,0.0057
3269.00,0.0057
3268.00,0.0057
3267.00,0.0057
3266.00,0.0057
3265.00,0.0058
3264.00,0.0058
3263.00,0.0058
3262.00,0.0059
3261.00,0.0059
3260.00,0.0059
3259.00,0.0059
3258.00,0.0059
3257.00,0.0059
3256.00,0.0059
3255.00,0.0059
3254.00,0.0059
3253.00,0.0059
3252.00,0.0059
3251.00,0.0059
3250.00,0.0059
3249.00,0.0060
3248.00,0.0060
3247.00,0.0060
3246.00,0.0060
3245.00,0.0061
3244.00,0.0061
3243.00,0.0061
3242.00,0.0061
3241.00,0.0061
3240.00,0.0061
3239.00,0.0061
3238.00,0.0061
3237.00,0.0061
3236.00,0.0061
3235.00,0.0061
3234.00,0.0061
3233.00,0.0061
3232.00,0.0061
3231.00,0.0061
3230.00,0.0061
3229.00,0.0062
3228.00,0.0062
3227.00,0.0062
3226.00,0.0062
3225.00,0.0062
3224.00,0.0062
3223.00,0.0062
3222.00,0.0062
3221.00,0.0062
3220.00,0.0062
3219.00,0.0062
3218.00,0.0062
3217.00,0.0062
3216.00,0.0063
3215.00,0.0062
3214.00,0.0062
3213.00,0.0062
3212.00,0.0062
3211.00,0.0062
3210.00,0.0062
3209.00,0.0062
3208.00,0.0062
3207.00,0.0062
3206.00,0.0062
3205.00,0.0062
3204.00,0.0062
3203.00,0.0063
3202.00,0.0063
3201.00,0.0063
3200.00,0.0063
3199.00,0.0063
3198.00,0.0063
3197.00,0.0063
3196.00,0.0063
3195.00,0.0063
3194.00,0.0063
3193.00,0.0063
3192.00,0.0063
3191.00,0.0063
3190.00,0.0063
3189.00,0.0063
3188.00,0.0063
3187.00,0.0063
3186.00,0.0063
3185.00,0.0063
3184.00,0.0063
3183.00,0.0063
3182.00,0.0063
3181.00,0.0063
3180.00,0.0063
3179.00,0.0063
3178.00,0.0063
3177.00,0.0063
3176.00,0.0063
3175.00,0.0063
3174.00,0.0063
3173.00,0.0063
3172.00,0.0063
3171.00,0.0064
3170.00,0.0064
3169.00,0.0064
3168.00,0.0064
3167.00,0.0063
3166.00,0.0063
3165.00,0.0063
3164.00,0.0063
3163.00,0.0063
3162.00,0.0063
3161.00,0.0063
3160.00,0.0062
3159.00,0.0062
3158.00,0.0062
3157.00,0.0062
3156.00,0.0062
3155.00,0.0062
3154.00,0.0062
3153.00,0.0061
3152.00,0.0062
3151.00,0.0062
3150.00,0.0062
3149.00,0.0062
3148.00,0.0062
3147.00,0.0062
3146.00,0.0061
3145.00,0.0061
3144.00,0.0061
3143.00,0.0061
3142.00,0.0061
3141.00,0.0061
3140.00,0.0061
3139.00,0.0061
3138.00,0.0061
3137.00,0.0061
3136.00,0.0061
3135.00,0.0061
3134.00,0.0061
3133.00,0.0061
3132.00,0.0060
3131.00,0.0060
3130.00,0.0060
3129.00,0.0060
3128.00,0.0061
3127.00,0.0061
3126.00,0.0061
3125.00,0.0061
3124.00,0.0061
3123.00,0.0061
3122.00,0.0060
3121.00,0.0060
3120.00,0.0060
3119.00,0.0060
3118.00,0.0060
3117.00,0.0060
3116.00,0.0060
3115.00,0.0060
3114.00,0.0060
3113.00,0.0060
3112.00,0.0060
3111.00,0.0059
3110.00,0.0059
3109.00,0.0059
3108.00,0.0058
3107.00,0.0058
3106.00,0.0058
3105.00,0.0058
3104.00,0.0058
3103.00,0.0058
3102.00,0.0058
3101.00,0.0058
3100.00,0.0058
3099.00,0.0058
3098.00,0.0058
3097.00,0.0057
3096.00,0.0057
3095.00,0.0057
3094.00,0.0057
3093.00,0.0058
3092.00,0.0058
3091.00,0.0058
3090.00,0.0058
3089.00,0.0058
3088.00,0.0058
3087.00,0.0058
3086.00,0.0058
3085.00,0.0058
3084.00,0.0058
3083.00,0.0058
3082.00,0.0058
3081.00,0.0059
3080.00,0.0059
3079.00,0.0059
3078.00,0.0058
3077.00,0.0058
3076.00,0.0058
3075.00,0.0058
3074.00,0.0058
3073.00,0.0058
3072.00,0.0058
3071.00,0.0057
3070.00,0.0057
3069.00,0.0057
3068.00,0.0057
3067.00,0.0056
3066.00,0.0056
3065.00,0.0056
3064.00,0.0056
3063.00,0.0056
3062.00,0.0056
3061.00,0.0056
3060.00,0.0055
3059.00,0.0055
3058.00,0.0055
3057.00,0.0055
3056.00,0.0055
3055.00,0.0055
3054.00,0.0054
3053.00,0.0054
3052.00,0.0054
3051.00,0.0054
3050.00,0.0054
3049.00,0.0054
3048.00,0.0054
3047.00,0.0054
3046.00,0.0053
3045.00,0.0053
3044.00,0.0053
3043.00,0.0053
3042.00,0.0053
3041.00,0.0053
3040.00,0.0053
3039.00,0.0053
3038.00,0.0053
3037.00,0.0053
3036.00,0.0053
3035.00,0.0053
3034.00,0.0052
3033.00,0.0052
3032.00,0.0052
3031.00,0.0052
3030.00,0.0052
3029.00,0.0052
3028.00,0.0052
3027.00,0.0052
3026.00,0.0051
3025.00,0.0051
3024.00,0.0051
3023.00,0.0051
3022.00,0.0051
3021.00,0.0051
3020.00,0.0051
3019.00,0.0051
3018.00,0.0051
3017.00,0.0051
3016.00,0.0051
3015.00,0.0051
3014.00,0.0052
3013.00,0.0051
3012.00,0.0052
3011.00,0.0052
3010.00,0.0052
3009.00,0.0053
3008.00,0.0054
3007.00,0.0055
3006.00,0.0056
3005.00,0.0057
3004.00,0.0058
3003.00,0.0059
3002.00,0.0060
3001.00,0.0061
3000.00,0.0063
2999.00,0.0065
2998.00,0.0067
2997.00,0.0069
2996.00,0.0071
2995.00,0.0073
2994.00,0.0076
2993.00,0.0078
2992.00,0.0080
2991.00,0.0083
2990.00,0.0086
2989.00,0.0089
2988.00,0.0092
2987.00,0.0094
2986.00,0.0097
2985.00,0.0099
2984.00,0.0101
2983.00,0.0103
2982.00,0.0105
2981.00,0.0107
2980.00,0.0108
2979.00,0.0110
2978.00,0.0111
2977.00,0.0112
2976.00,0.0113
2975.00,0.0114
2974.00,0.0114
2973.00,0.0115
2972.00,0.0116
2971.00,0.0117
2970.00,0.0118
2969.00,0.0119
2968.00,0.0121
2967.00,0.0123
2966.00,0.0124
2965.00,0.0126
2964.00,0.0128
2963.00,0.0130
2962.00,0.0132
2961.00,0.0134
2960.00,0.0135
2959.00,0.0137
2958.00,0.0138
2957.00,0.0139
2956.00,0.0140
2955.00,0.0141
2954.00,0.0141
2953.00,0.0142
2952.00,0.0141
2951.00,0.0141
2950.00,0.0140
2949.00,0.0140
2948.00,0.0139
2947.00,0.0139
2946.00,0.0139
2945.00,0.0139
2944.00,0.0140
2943.00,0.0140
2942.00,0.0141
2941.00,0.0142
2940.00,0.0143
2939.00,0.0145
2938.00,0.0146
2937.00,0.0148
2936.00,0.0150
2935.00,0.0152
2934.00,0.0154
2933.00,0.0156
2932.00,0.0158
2931.00,0.0159
2930.00,0.0160
2929.00,0.0161
2928.00,0.0162
2927.00,0.0163
2926.00,0.0163
2925.00,0.0163
2924.00,0.0162
2923.00,0.0161
2922.00,0.0159
2921.00,0.0157
2920.00,0.0155
2919.00,0.0153
2918.00,0.0151
2917.00,0.0148
2916.00,0.0146
2915.00,0.0143
2914.00,0.0140
2913.00,0.0137
2912.00,0.0135
2911.00,0.0132
2910.00,0.0130
2909.00,0.0127
2908.00,0.0125
2907.00,0.0122
2906.00,0.0120
2905.00,0.0118
2904.00,0.0116
2903.00,0.0115
2902.00,0.0113
2901.00,0.0112
2900.00,0.0111
2899.00,0.0110
2898.00,0.0109
2897.00,0.0109
2896.00,0.0108
2895.00,0.0108
2894.00,0.0108
2893.00,0.0108
2892.00,0.0107
2891.00,0.0107
2890.00,0.0106
2889.00,0.0106
2888.00,0.0106
2887.00,0.0105
2886.00,0.0105
2885.00,0.0105
2884.00,0.0105
2883.00,0.0105
2882.00,0.0106
2881.00,0.0106
2880.00,0.0107
2879.00,0.0107
2878.00,0.0108
2877.00,0.0109
2876.00,0.0110
2875.00,0.0111
2874.00,0.0113
2873.00,0.0114
2872.00,0.0115
2871.00,0.0116
2870.00,0.0116
2869.00,0.0116
2868.00,0.0116
2867.00,0.0116
2866.00,0.0116
2865.00,0.0116
2864.00,0.0116
2863.00,0.0117
2862.00,0.0117
2861.00,0.0118
2860.00,0.0118
2859.00,0.0119
2858.00,0.0119
2857.00,0.0118
2856.00,0.0117
2855.00,0.0115
2854.00,0.0113
2853.00,0.0110
2852.00,0.0107
2851.00,0.0103
2850.00,0.0100
2849.00,0.0096
2848.00,0.0093
2847.00,0.0090
2846.00,0.0087
2845.00,0.0084
2844.00,0.0081
2843.00,0.0078
2842.00,0.0075
2841.00,0.0072
2840.00,0.0069
2839.00,0.0067
2838.00,0.0065
2837.00,0.0063
2836.00,0.0062
2835.00,0.0060
2834.00,0.0059
2833.00,0.0057
2832.00,0.0056
2831.00,0.0055
2830.00,0.0053
2829.00,0.0052
2828.00,0.0051
2827.00,0.0050
2826.00,0.0049
2825.00,0.0048
2824.00,0.0047
2823.00,0.0046
2822.00,0.0045
2821.00,0.0044
2820.00,0.0044
2819.00,0.0043
2818.00,0.0042
2817.00,0.0041
2816.00,0.0041
2815.00,0.0040
2814.00,0.0039
2813.00,0.0039
2812.00,0.0038
2811.00,0.0037
2810.00,0.0037
2809.00,0.0037
2808.00,0.0037
2807.00,0.0037
2806.00,0.0036
2805.00,0.0036
2804.00,0.0036
2803.00,0.0036
2802.00,0.0035
2801.00,0.0035
2800.00,0.0035
2799.00,0.0034
2798.00,0.0034
2797.00,0.0034
2796.00,0.0034
2795.00,0.0034
2794.00,0.0033
2793.00,0.0033
2792.00,0.0033
2791.00,0.0033
2790.00,0.0032
2789.00,0.0032
2788.00,0.0032
2787.00,0.0032
2786.00,0.0032
2785.00,0.0032
2784.00,0.0032
2783.00,0.0031
2782.00,0.0031
2781.00,0.0031
2780.00,0.0031
2779.00,0.0031
2778.00,0.0031
2777.00,0.0031
2776.00,0.0031
2775.00,0.0031
2774.00,0.0030
2773.00,0.0030
2772.00,0.0030
2771.00,0.0029
2770.00,0.0029
2769.00,0.0029
2768.00,0.0029
2767.00,0.0029
2766.00,0.0029
2765.00,0.0029
2764.00,0.0029
2763.00,0.0029
2762.00,0.0029
2761.00,0.0029
2760.00,0.0029
2759.00,0.0029
2758.00,0.0029
2757.00,0.0029
2756.00,0.0029
2755.00,0.0029
2754.00,0.0029
2753.00,0.0029
2752.00,0.0029
2751.00,0.0029
2750.00,0.0030
2749.00,0.0030
2748.00,0.0030
2747.00,0.0030
2746.00,0.0030
2745.00,0.0030
2744.00,0.0030
2743.00,0.0030
2742.00,0.0030
2741.00,0.0030
2740.00,0.0030
2739.00,0.0030
2738.00,0.0030
2737.00,0.0031
2736.00,0.0031
2735.00,0.0031
2734.00,0.0031
2733.00,0.0031
2732.00,0.0031
2731.00,0.0031
2730.00,0.0031
2729.00,0.0031
2728.00,0.0030
2727.00,0.0030
2726.00,0.0030
2725.00,0.0030
2724.00,0.0030
2723.00,0.0029
2722.00,0.0029
2721.00,0.0029
2720.00,0.0029
2719.00,0.0029
2718.00,0.0029
2717.00,0.0029
2716.00,0.0029
2715.00,0.0029
2714.00,0.0029
2713.00,0.0029
2712.00,0.0029
2711.00,0.0029
2710.00,0.0028
2709.00,0.0028
2708.00,0.0028
2707.00,0.0028
2706.00,0.0028
2705.00,0.0028
2704.00,0.0028
2703.00,0.0028
2702.00,0.0028
2701.00,0.0027
2700.00,0.0027
2699.00,0.0027
2698.00,0.0027
2697.00,0.0027
2696.00,0.0027
2695.00,0.0027
2694.00,0.0026
2693.00,0.0026
2692.00,0.0026
2691.00,0.0026
2690.00,0.0026
2689.00,0.0026
2688.00,0.0026
2687.00,0.0025
2686.00,0.0025
2685.00,0.0025
2684.00,0.0025
2683.00,0.0025
2682.00,0.0025
2681.00,0.0025
2680.00,0.0025
2679.00,0.0025
2678.00,0.0025
2677.00,0.0025
2676.00,0.0025
2675.00,0.0025
2674.00,0.0025
2673.00,0.0025
2672.00,0.0025
2671.00,0.0025
2670.00,0.0025
2669.00,0.0025
2668.00,0.0025
2667.00,0.0025
2666.00,0.0026
2665.00,0.0026
2664.00,0.0026
2663.00,0.0027
2662.00,0.0027
2661.00,0.0027
2660.00,0.0027
2659.00,0.0027
2658.00,0.0027
2657.00,0.0027
2656.00,0.0027
2655.00,0.0027
2654.00,0.0027
2653.00,0.0027
2652.00,0.0027
2651.00,0.0027
2650.00,0.0027
2649.00,0.0027
2648.00,0.0027
2647.00,0.0027
2646.00,0.0027
2645.00,0.0027
2644.00,0.0027
2643.00,0.0027
2642.00,0.0027
2641.00,0.0026
2640.00,0.0026
2639.00,0.0026
2638.00,0.0026
2637.00,0.0026
2636.00,0.0025
2635.00,0.0025
2634.00,0.0025
2633.00,0.0025
2632.00,0.0025
2631.00,0.0025
2630.00,0.0024
2629.00,0.0024
2628.00,0.0024
2627.00,0.0024
2626.00,0.0024
2625.00,0.0024
2624.00,0.0024
2623.00,0.0023
2622.00,0.0023
2621.00,0.0023
2620.00,0.0024
2619.00,0.0024
2618.00,0.0024
2617.00,0.0024
2616.00,0.0024
2615.00,0.0023
2614.00,0.0023
2613.00,0.0023
2612.00,0.0022
2611.00,0.0022
2610.00,0.0022
2609.00,0.0022
2608.00,0.0022
2607.00,0.0022
2606.00,0.0022
2605.00,0.0022
2604.00,0.0022
2603.00,0.0022
2602.00,0.0022
2601.00,0.0021
2600.00,0.0021
2599.00,0.0021
2598.00,0.0021
2597.00,0.0021
2596.00,0.0021
2595.00,0.0021
2594.00,0.0021
2593.00,0.0020
2592.00,0.0020
2591.00,0.0020
2590.00,0.0020
2589.00,0.0020
2588.00,0.0020
2587.00,0.0020
2586.00,0.0020
2585.00,0.0020
2584.00,0.0020
2583.00,0.0020
2582.00,0.0020
2581.00,0.0019
2580.00,0.0019
2579.00,0.0019
2578.00,0.0019
2577.00,0.0019
2576.00,0.0019
2575.00,0.0019
2574.00,0.0018
2573.00,0.0018
2572.00,0.0019
2571.00,0.0019
2570.00,0.0019
2569.00,0.0018
2568.00,0.0018
2567.00,0.0018
2566.00,0.0018
2565.00,0.0018
2564.00,0.0018
2563.00,0.0018
2562.00,0.0018
2561.00,0.0017
2560.00,0.0017
2559.00,0.0017
2558.00,0.0017
2557.00,0.0016
2556.00,0.0016
2555.00,0.0016
2554.00,0.0016
2553.00,0.0016
2552.00,0.0016
2551.00,0.0016
2550.00,0.0016
2549.00,0.0015
2548.00,0.0015
2547.00,0.0015
2546.00,0.0015
2545.00,0.0015
2544.00,0.0015
2543.00,0.0016
2542.00,0.0016
2541.00,0.0016
2540.00,0.0015
2539.00,0.0015
2538.00,0.0014
2537.00,0.0014
2536.00,0.0014
2535.00,0.0013
2534.00,0.0013
2533.00,0.0013
2532.00,0.0013
2531.00,0.0013
2530.00,0.0013
2529.00,0.0013
2528.00,0.0013
2527.00,0.0013
2526.00,0.0013
2525.00,0.0013
2524.00,0.0013
2523.00,0.0013
2522.00,0.0013
2521.00,0.0012
2520.00,0.0012
2519.00,0.0012
2518.00,0.0012
2517.00,0.0012
2516.00,0.0011
2515.00,0.0011
2514.00,0.0011
2513.00,0.0011
2512.00,0.0010
2511.00,0.0010
2510.00,0.0010
2509.00,0.0010
2508.00,0.0010
2507.00,0.0010
2506.00,0.0010
2505.00,0.0010
2504.00,0.0010
2503.00,0.0010
2502.00,0.0010
2501.00,0.0010
2500.00,0.0011
2499.00,0.0011
2498.00,0.0011
2497.00,0.0010
2496.00,0.0010
2495.00,0.0010
2494.00,0.0010
2493.00,0.0010
2492.00,0.0010
2491.00,0.0011
2490.00,0.0011
2489.00,0.0010
2488.00,0.0010
2487.00,0.0010
2486.00,0.0010
2485.00,0.0010
2484.00,0.0010
2483.00,0.0009
2482.00,0.0009
2481.00,0.0009
2480.00,0.0009
2479.00,0.0010
2478.00,0.0009
2477.00,0.0009
2476.00,0.0009
2475.00,0.0009
2474.00,0.0009
2473.00,0.0009
2472.00,0.0009
2471.00,0.0009
2470.00,0.0009
2469.00,0.0009
2468.00,0.0009
2467.00,0.0009
2466.00,0.0009
2465.00,0.0009
2464.00,0.0010
2463.00,0.0010
2462.00,0.0010
2461.00,0.0010
2460.00,0.0010
2459.00,0.0010
2458.00,0.0011
2457.00,0.0011
2456.00,0.0011
2455.00,0.0011
2454.00,0.0011
2453.00,0.0010
2452.00,0.0010
2451.00,0.0010
2450.00,0.0009
2449.00,0.0009
2448.00,0.0009
2447.00,0.0009
2446.00,0.0008
2445.00,0.0008
2444.00,0.0009
2443.00,0.0008
2442.00,0.0008
2441.00,0.0008
2440.00,0.0008
2439.00,0.0009
2438.00,0.0009
2437.00,0.0009
2436.00,0.0009
2435.00,0.0008
2434.00,0.0008
2433.00,0.0008
2432.00,0.0008
2431.00,0.0008
2430.00,0.0008
2429.00,0.0008
2428.00,0.0008
2427.00,0.0007
2426.00,0.0007
2425.00,0.0007
2424.00,0.0007
2423.00,0.0007
2422.00,0.0007
2421.00,0.0008
2420.00,0.0008
2419.00,0.0008
2418.00,0.0008
2417.00,0.0007
2416.00,0.0007
2415.00,0.0007
2414.00,0.0007
2413.00,0.0007
2412.00,0.0007
2411.00,0.0007
2410.00,0.0007
2409.00,0.0006
2408.00,0.0006
2407.00,0.0006
2406.00,0.0006
2405.00,0.0005
2404.00,0.0005
2403.00,0.0005
2402.00,0.0005
2401.00,0.0005
2400.00,0.0005
2399.00,0.0005
2398.00,0.0005
2397.00,0.0005
2396.00,0.0005
2395.00,0.0005
2394.00,0.0005
2393.00,0.0004
2392.00,0.0005
2391.00,0.0005
2390.00,0.0005
2389.00,0.0005
2388.00,0.0004
2387.00,0.0004
2386.00,0.0004
2385.00,0.0003
2384.00,0.0003
2383.00,0.0002
2382.00,0.0001
2381.00,0.0001
2380.00,0.0000
2379.00,0.0000
2378.00,0.0001
2377.00,0.0001
2376.00,0.0001
2375.00,0.0001
2374.00,0.0001
2373.00,0.0000
2372.00,-0.0000
2371.00,-0.0001
2370.00,-0.0002
2369.00,-0.0002
2368.00,-0.0002
2367.00,-0.0002
2366.00,-0.0002
2365.00,-0.0001
2364.00,0.0000
2363.00,0.0001
2362.00,0.0001
2361.00,0.0001
2360.00,0.0001
2359.00,0.0001
2358.00,0.0001
2357.00,0.0000
2356.00,0.0000
2355.00,0.0001
2354.00,0.0001
2353.00,0.0001
2352.00,0.0001
2351.00,0.0001
2350.00,0.0001
2349.00,0.0001
2348.00,0.0002
2347.00,0.0003
2346.00,0.0004
2345.00,0.0005
2344.00,0.0005
2343.00,0.0004
2342.00,0.0004
2341.00,0.0004
2340.00,0.0004
2339.00,0.0005
2338.00,0.0005
2337.00,0.0005
2336.00,0.0006
2335.00,0.0006
2334.00,0.0006
2333.00,0.0005
2332.00,0.0005
2331.00,0.0005
2330.00,0.0005
2329.00,0.0007
2328.00,0.0010
2327.00,0.0014
2326.00,0.0017
2325.00,0.0018
2324.00,0.0017
2323.00,0.0015
2322.00,0.0013
2321.00,0.0011
2320.00,0.0010
2319.00,0.0009
2318.00,0.0009
2317.00,0.0009
2316.00,0.0009
2315.00,0.0009
2314.00,0.0008
2313.00,0.0007
2312.00,0.0007
2311.00,0.0007
2310.00,0.0007
2309.00,0.0007
2308.00,0.0007
2307.00,0.0007
2306.00,0.0007
2305.00,0.0007
2304.00,0.0008
2303.00,0.0008
2302.00,0.0009
2301.00,0.0009
2300.00,0.0010
2299.00,0.0010
2298.00,0.0010
2297.00,0.0011
2296.00,0.0011
2295.00,0.0012
2294.00,0.0013
2293.00,0.0014
2292.00,0.0015
2291.00,0.0016
2290.00,0.0017
2289.00,0.0017
2288.00,0.0017
2287.00,0.0017
2286.00,0.0017
2285.00,0.0016
2284.00,0.0016
2283.00,0.0015
2282.00,0.0015
2281.00,0.0014
2280.00,0.0014
2279.00,0.0013
2278.00,0.0012
2277.00,0.0012
2276.00,0.0012
2275.00,0.0012
2274.00,0.0012
2273.00,0.0012
2272.00,0.0012
2271.00,0.0011
2270.00,0.0011
2269.00,0.0011
2268.00,0.0011
2267.00,0.0010
2266.00,0.0010
2265.00,0.0010
2264.00,0.0010
2263.00,0.0010
2262.00,0.0010
2261.00,0.0011
2260.00,0.0011
2259.00,0.0011
2258.00,0.0011
2257.00,0.0010
2256.00,0.0009
2255.00,0.0007
2254.00,0.0006
2253.00,0.0006
2252.00,0.0006
2251.00,0.0007
2250.00,0.0008
2249.00,0.0008
2248.00,0.0009
2247.00,0.0009
2246.00,0.0009
2245.00,0.0009
2244.00,0.0009
2243.00,0.0010
2242.00,0.0010
2241.00,0.0010
2240.00,0.0011
2239.00,0.0011
2238.00,0.0011
2237.00,0.0011
2236.00,0.0011
2235.00,0.0011
2234.00,0.0011
2233.00,0.0010
2232.00,0.0010
2231.00,0.0010
2230.00,0.0009
2229.00,0.0009
2228.00,0.0009
2227.00,0.0008
2226.00,0.0008
2225.00,0.0007
2224.00,0.0007
2223.00,0.0008
2222.00,0.0008
2221.00,0.0008
2220.00,0.0008
2219.00,0.0008
2218.00,0.0008
2217.00,0.0008
2216.00,0.0009
2215.00,0.0009
2214.00,0.0009
2213.00,0.0009
2212.00,0.0009
2211.00,0.0009
2210.00,0.0008
2209.00,0.0007
2208.00,0.0006
2207.00,0.0007
2206.00,0.0007
2205.00,0.0008
2204.00,0.0008
2203.00,0.0007
2202.00,0.0007
2201.00,0.0008
2200.00,0.0008
2199.00,0.0009
2198.00,0.0008
2197.00,0.0008
2196.00,0.0008
2195.00,0.0009
2194.00,0.0008
2193.00,0.0008
2192.00,0.0008
2191.00,0.0008
2190.00,0.0009
2189.00,0.0010
2188.00,0.0011
2187.00,0.0012
2186.00,0.0012
2185.00,0.0011
2184.00,0.0010
2183.00,0.0008
2182.00,0.0007
2181.00,0.0007
2180.00,0.0008
2179.00,0.0008
2178.00,0.0006
2177.00,0.0004
2176.00,0.0003
2175.00,0.0003
2174.00,0.0005
2173.00,0.0008
2172.00,0.0011
2171.00,0.0013
2170.00,0.0015
2169.00,0.0015
2168.00,0.0015
2167.00,0.0015
2166.00,0.0016
2165.00,0.0018
2164.00,0.0021
2163.00,0.0022
2162.00,0.0018
2161.00,0.0008
2160.00,-0.0004
2159.00,-0.0015
2158.00,-0.0021
2157.00,-0.0023
2156.00,-0.0021
2155.00,-0.0018
2154.00,-0.0015
2153.00,-0.0014
2152.00,-0.0013
2151.00,-0.0012
2150.00,-0.0011
2149.00,-0.0011
2148.00,-0.0011
2147.00,-0.0010
2146.00,-0.0010
2145.00,-0.0010
2144.00,-0.0009
2143.00,-0.0010
2142.00,-0.0010
2141.00,-0.0010
2140.00,-0.0010
2139.00,-0.0010
2138.00,-0.0012
2137.00,-0.0014
2136.00,-0.0015
2135.00,-0.0016
2134.00,-0.0016
2133.00,-0.0015
2132.00,-0.0013
2131.00,-0.0012
2130.00,-0.0010
2129.00,-0.0009
2128.00,-0.0007
2127.00,-0.0006
2126.00,-0.0005
2125.00,-0.0005
2124.00,-0.0004
2123.00,-0.0003
2122.00,-0.0003
2121.00,-0.0002
2120.00,-0.0002
2119.00,-0.0001
2118.00,0.0001
2117.00,0.0002
2116.00,0.0003
2115.00,0.0004
2114.00,0.0005
2113.00,0.0005
2112.00,0.0005
2111.00,0.0006
2110.00,0.0006
2109.00,0.0006
2108.00,0.0006
2107.00,0.0005
2106.00,0.0004
2105.00,0.0003
2104.00,0.0004
2103.00,0.0004
2102.00,0.0004
2101.00,0.0005
2100.00,0.0005
2099.00,0.0005
2098.00,0.0004
2097.00,0.0003
2096.00,0.0002
2095.00,0.0001
2094.00,0.0001
2093.00,0.0001
2092.00,0.0002
2091.00,0.0003
2090.00,0.0004
2089.00,0.0005
2088.00,0.0005
2087.00,0.0006
2086.00,0.0006
2085.00,0.0006
2084.00,0.0006
2083.00,0.0007
2082.00,0.0007
2081.00,0.0006
2080.00,0.0006
2079.00,0.0007
2078.00,0.0007
2077.00,0.0007
2076.00,0.0007
2075.00,0.0007
2074.00,0.0007
2073.00,0.0007
2072.00,0.0007
2071.00,0.0007
2070.00,0.0007
2069.00,0.0007
2068.00,0.0007
2067.00,0.0007
2066.00,0.0007
2065.00,0.0006
2064.00,0.0006
2063.00,0.0005
2062.00,0.0004
2061.00,0.0004
2060.00,0.0004
2059.00,0.0005
2058.00,0.0006
2057.00,0.0007
2056.00,0.0007
2055.00,0.0007
2054.00,0.0009
2053.00,0.0012
2052.00,0.0015
2051.00,0.0016
2050.00,0.0014
2049.00,0.0010
2048.00,0.0008
2047.00,0.0007
2046.00,0.0007
2045.00,0.0008
2044.00,0.0009
2043.00,0.0009
2042.00,0.0008
2041.00,0.0008
2040.00,0.0009
2039.00,0.0010
2038.00,0.0011
2037.00,0.0010
2036.00,0.0009
2035.00,0.0008
2034.00,0.0006
2033.00,0.0004
2032.00,0.0003
2031.00,0.0001
2030.00,-0.0001
2029.00,-0.0001
2028.00,-0.0001
2027.00,0.0001
2026.00,0.0002
2025.00,0.0002
2024.00,0.0001
2023.00,0.0000
2022.00,-0.0001
2021.00,-0.0001
2020.00,-0.0000
2019.00,0.0001
2018.00,0.0001
2017.00,0.0001
2016.00,0.0000
2015.00,-0.0001
2014.00,-0.0001
2013.00,-0.0000
2012.00,0.0001
2011.00,0.0001
2010.00,-0.0000
2009.00,-0.0002
2008.00,-0.0005
2007.00,-0.0007
2006.00,-0.0008
2005.00,-0.0007
2004.00,-0.0005
2003.00,-0.0003
2002.00,-0.0001
2001.00,0.0000
2000.00,0.0002
1999.00,0.0002
1998.00,0.0002
1997.00,0.0002
1996.00,0.0002
1995.00,0.0003
1994.00,0.0004
1993.00,0.0003
1992.00,0.0003
1991.00,0.0002
1990.00,0.0003
1989.00,0.0005
1988.00,0.0007
1987.00,0.0009
1986.00,0.0010
1985.00,0.0010
1984.00,0.0011
1983.00,0.0013
1982.00,0.0016
1981.00,0.0016
1980.00,0.0013
1979.00,0.0006
1978.00,-0.0002
1977.00,-0.0007
1976.00,-0.0007
1975.00,-0.0006
1974.00,-0.0004
1973.00,-0.0004
1972.00,-0.0004
1971.00,-0.0005
1970.00,-0.0005
1969.00,-0.0005
1968.00,-0.0005
1967.00,-0.0005
1966.00,-0.0006
1965.00,-0.0006
1964.00,-0.0005
1963.00,-0.0004
1962.00,-0.0005
1961.00,-0.0006
1960.00,-0.0007
1959.00,-0.0007
1958.00,-0.0007
1957.00,-0.0006
1956.00,-0.0004
1955.00,-0.0003
1954.00,-0.0003
1953.00,-0.0002
1952.00,-0.0002
1951.00,-0.0002
1950.00,-0.0003
1949.00,-0.0003
1948.00,-0.0004
1947.00,-0.0004
1946.00,-0.0005
1945.00,-0.0005
1944.00,-0.0004
1943.00,-0.0003
1942.00,-0.0002
1941.00,-0.0002
1940.00,-0.0002
1939.00,-0.0002
1938.00,-0.0003
1937.00,-0.0004
1936.00,-0.0004
1935.00,-0.0003
1934.00,-0.0002
1933.00,-0.0001
1932.00,-0.0001
1931.00,-0.0001
1930.00,-0.0001
1929.00,-0.0001
1928.00,-0.0001
1927.00,-0.0001
1926.00,-0.0001
1925.00,-0.0001
1924.00,-0.0001
1923.00,-0.0000
1922.00,0.0001
1921.00,0.0001
1920.00,0.0001
1919.00,0.0001
1918.00,0.0001
1917.00,0.0001
1916.00,0.0001
1915.00,0.0002
1914.00,0.0002
1913.00,0.0002
1912.00,0.0002
1911.00,0.0002
1910.00,0.0002
1909.00,0.0002
1908.00,0.0003
1907.00,0.0003
1906.00,0.0003
1905.00,0.0003
1904.00,0.0003
1903.00,0.0003
1902.00,0.0003
1901.00,0.0002
1900.00,0.0002
1899.00,0.0002
1898.00,0.0002
1897.00,0.0002
1896.00,0.0003
1895.00,0.0004
1894.00,0.0003
1893.00,0.0003
1892.00,0.0003
1891.00,0.0003
1890.00,0.0003
1889.00,0.0003
1888.00,0.0004
1887.00,0.0004
1886.00,0.0004
1885.00,0.0004
1884.00,0.0004
1883.00,0.0004
1882.00,0.0004
1881.00,0.0004
1880.00,0.0004
1879.00,0.0004
1878.00,0.0003
1877.00,0.0003
1876.00,0.0004
1875.00,0.0003
1874.00,0.0003
1873.00,0.0003
1872.00,0.0003
1871.00,0.0003
1870.00,0.0004
1869.00,0.0004
1868.00,0.0005
1867.00,0.0005
1866.00,0.0005
1865.00,0.0005
1864.00,0.0005
1863.00,0.0005
1862.00,0.0005
1861.00,0.0004
1860.00,0.0004
1859.00,0.0004
1858.00,0.0004
1857.00,0.0004
1856.00,0.0004
1855.00,0.0005
1854.00,0.0005
1853.00,0.0004
1852.00,0.0004
1851.00,0.0004
1850.00,0.0004
1849.00,0.0004
1848.00,0.0005
1847.00,0.0005
1846.00,0.0005
1845.00,0.0005
1844.00,0.0005
1843.00,0.0005
1842.00,0.0004
1841.00,0.0004
1840.00,0.0004
1839.00,0.0004
1838.00,0.0004
1837.00,0.0005
1836.00,0.0005
1835.00,0.0005
1834.00,0.0005
1833.00,0.0004
1832.00,0.0005
1831.00,0.0005
1830.00,0.0005
1829.00,0.0006
1828.00,0.0006
1827.00,0.0006
1826.00,0.0007
1825.00,0.0007
1824.00,0.0007
1823.00,0.0006
1822.00,0.0006
1821.00,0.0005
1820.00,0.0005
1819.00,0.0004
1818.00,0.0003
1817.00,0.0002
1816.00,0.0003
1815.00,0.0003
1814.00,0.0004
1813.00,0.0005
1812.00,0.0005
1811.00,0.0005
1810.00,0.0006
1809.00,0.0006
1808.00,0.0007
1807.00,0.0007
1806.00,0.0007
1805.00,0.0007
1804.00,0.0007
1803.00,0.0007
1802.00,0.0007
1801.00,0.0007
1800.00,0.0008
1799.00,0.0008
1798.00,0.0008
1797.00,0.0008
1796.00,0.0008
1795.00,0.0008
1794.00,0.0008
1793.00,0.0009
1792.00,0.0009
1791.00,0.0010
1790.00,0.0010
1789.00,0.0010
1788.00,0.0009
1787.00,0.0009
1786.00,0.0009
1785.00,0.0010
1784.00,0.0010
1783.00,0.0010
1782.00,0.0010
1781.00,0.0010
1780.00,0.0010
1779.00,0.0010
1778.00,0.0010
1777.00,0.0009
1776.00,0.0010
1775.00,0.0010
1774.00,0.0010
1773.00,0.0011
1772.00,0.0011
1771.00,0.0012
1770.00,0.0012
1769.00,0.0012
1768.00,0.0013
1767.00,0.0013
1766.00,0.0013
1765.00,0.0013
1764.00,0.0013
1763.00,0.0014
1762.00,0.0014
1761.00,0.0014
1760.00,0.0014
1759.00,0.0014
1758.00,0.0014
1757.00,0.0015
1756.00,0.0015
1755.00,0.0015
1754.00,0.0015
1753.00,0.0015
1752.00,0.0015
1751.00,0.0016
1750.00,0.0016
1749.00,0.0017
1748.00,0.0017
1747.00,0.0018
1746.00,0.0018
1745.00,0.0018
1744.00,0.0018
1743.00,0.0018
1742.00,0.0019
1741.00,0.0019
1740.00,0.0020
1739.00,0.0020
1738.00,0.0021
1737.00,0.0021
1736.00,0.0021
1735.00,0.0022
1734.00,0.0022
1733.00,0.0022
1732.00,0.0023
1731.00,0.0023
1730.00,0.0024
1729.00,0.0025
1728.00,0.0026
1727.00,0.0027
1726.00,0.0028
1725.00,0.0028
1724.00,0.0030
1723.00,0.0031
1722.00,0.0032
1721.00,0.0034
1720.00,0.0035
1719.00,0.0037
1718.00,0.0037
1717.00,0.0038
1716.00,0.0040
1715.00,0.0042
1714.00,0.0044
1713.00,0.0047
1712.00,0.0049
1711.00,0.0052
1710.00,0.0056
1709.00,0.0059
1708.00,0.0064
1707.00,0.0071
1706.00,0.0077
1705.00,0.0085
1704.00,0.0094
1703.00,0.0102
1702.00,0.0112
1701.00,0.0125
1700.00,0.0143
1699.00,0.0160
1698.00,0.0175
1697.00,0.0190
1696.00,0.0211
1695.00,0.0235
1694.00,0.0258
1693.00,0.0279
1692.00,0.0300
1691.00,0.0322
1690.00,0.0344
1689.00,0.0366
1688.00,0.0387
1687.00,0.0406
1686.00,0.0421
1685.00,0.0436
1684.00,0.0450
1683.00,0.0465
1682.00,0.0477
1681.00,0.0487
1680.00,0.0496
1679.00,0.0503
1678.00,0.0509
1677.00,0.0513
1676.00,0.0513
1675.00,0.0512
1674.00,0.0512
1673.00,0.0514
1672.00,0.0516
1671.00,0.0517
1670.00,0.0516
1669.00,0.0515
1668.00,0.0518
1667.00,0.0523
1666.00,0.0529
1665.00,0.0535
1664.00,0.0540
1663.00,0.0544
1662.00,0.0548
1661.00,0.0553
1660.00,0.0558
1659.00,0.0563
1658.00,0.0568
1657.00,0.0574
1656.00,0.0580
1655.00,0.0581
1654.00,0.0573
1653.00,0.0557
1652.00,0.0547
1651.00,0.0545
1650.00,0.0546
1649.00,0.0544
1648.00,0.0533
1647.00,0.0515
1646.00,0.0494
1645.00,0.0477
1644.00,0.0462
1643.00,0.0449
1642.00,0.0434
1641.00,0.0418
1640.00,0.0402
1639.00,0.0387
1638.00,0.0373
1637.00,0.0356
1636.00,0.0335
1635.00,0.0315
1634.00,0.0300
1633.00,0.0289
1632.00,0.0281
1631.00,0.0273
1630.00,0.0267
1629.00,0.0262
1628.00,0.0259
1627.00,0.0260
1626.00,0.0263
1625.00,0.0269
1624.00,0.0278
1623.00,0.0289
1622.00,0.0301
1621.00,0.0312
1620.00,0.0320
1619.00,0.0326
1618.00,0.0326
1617.00,0.0321
1616.00,0.0313
1615.00,0.0306
1614.00,0.0301
1613.00,0.0297
1612.00,0.0293
1611.00,0.0288
1610.00,0.0283
1609.00,0.0275
1608.00,0.0265
1607.00,0.0253
1606.00,0.0240
1605.00,0.0225
1604.00,0.0209
1603.00,0.0194
1602.00,0.0180
1601.00,0.0168
1600.00,0.0158
1599.00,0.0150
1598.00,0.0144
1597.00,0.0141
1596.00,0.0140
1595.00,0.0141
1594.00,0.0146
1593.00,0.0155
1592.00,0.0166
1591.00,0.0180
1590.00,0.0196
1589.00,0.0212
1588.00,0.0226
1587.00,0.0238
1586.00,0.0245
1585.00,0.0248
1584.00,0.0245
1583.00,0.0238
1582.00,0.0227
1581.00,0.0214
1580.00,0.0202
1579.00,0.0191
1578.00,0.0179
1577.00,0.0166
1576.00,0.0154
1575.00,0.0144
1574.00,0.0139
1573.00,0.0135
1572.00,0.0132
1571.00,0.0128
1570.00,0.0123
1569.00,0.0118
1568.00,0.0113
1567.00,0.0109
1566.00,0.0106
1565.00,0.0103
1564.00,0.0100
1563.00,0.0097
1562.00,0.0095
1561.00,0.0093
1560.00,0.0090
1559.00,0.0086
1558.00,0.0083
1557.00,0.0081
1556.00,0.0079
1555.00,0.0077
1554.00,0.0075
1553.00,0.0074
1552.00,0.0073
1551.00,0.0073
1550.00,0.0072
1549.00,0.0071
1548.00,0.0070
1547.00,0.0070
1546.00,0.0069
1545.00,0.0068
1544.00,0.0068
1543.00,0.0067
1542.00,0.0067
1541.00,0.0066
1540.00,0.0064
1539.00,0.0063
1538.00,0.0063
1537.00,0.0063
1536.00,0.0064
1535.00,0.0064
1534.00,0.0065
1533.00,0.0066
1532.00,0.0066
1531.00,0.0066
1530.00,0.0066
1529.00,0.0067
1528.00,0.0068
1527.00,0.0069
1526.00,0.0070
1525.00,0.0072
1524.00,0.0074
1523.00,0.0075
1522.00,0.0078
1521.00,0.0080
1520.00,0.0083
1519.00,0.0085
1518.00,0.0088
1517.00,0.0090
1516.00,0.0092
1515.00,0.0094
1514.00,0.0095
1513.00,0.0095
1512.00,0.0096
1511.00,0.0097
1510.00,0.0098
1509.00,0.0099
1508.00,0.0100
1507.00,0.0100
1506.00,0.0102
1505.00,0.0106
1504.00,0.0110
1503.00,0.0116
1502.00,0.0124
1501.00,0.0133
1500.00,0.0144
1499.00,0.0156
1498.00,0.0168
1497.00,0.0179
1496.00,0.0186
1495.00,0.0191
1494.00,0.0192
1493.00,0.0192
1492.00,0.0188
1491.00,0.0182
1490.00,0.0172
1489.00,0.0161
1488.00,0.0151
1487.00,0.0140
1486.00,0.0130
1485.00,0.0122
1484.00,0.0114
1483.00,0.0108
1482.00,0.0103
1481.00,0.0099
1480.00,0.0097
1479.00,0.0096
1478.00,0.0096
1477.00,0.0098
1476.00,0.0101
1475.00,0.0105
1474.00,0.0111
1473.00,0.0120
1472.00,0.0131
1471.00,0.0145
1470.00,0.0159
1469.00,0.0174
1468.00,0.0190
1467.00,0.0209
1466.00,0.0228
1465.00,0.0249
1464.00,0.0269
1463.00,0.0285
1462.00,0.0298
1461.00,0.0307
1460.00,0.0313
1459.00,0.0314
1458.00,0.0307
1457.00,0.0293
1456.00,0.0277
1455.00,0.0264
1454.00,0.0254
1453.00,0.0247
1452.00,0.0241
1451.00,0.0237
1450.00,0.0237
1449.00,0.0240
1448.00,0.0246
1447.00,0.0255
1446.00,0.0266
1445.00,0.0277
1444.00,0.0289
1443.00,0.0300
1442.00,0.0312
1441.00,0.0323
1440.00,0.0333
1439.00,0.0343
1438.00,0.0353
1437.00,0.0364
1436.00,0.0374
1435.00,0.0383
1434.00,0.0391
1433.00,0.0399
1432.00,0.0406
1431.00,0.0411
1430.00,0.0416
1429.00,0.0421
1428.00,0.0427
1427.00,0.0435
1426.00,0.0444
1425.00,0.0454
1424.00,0.0464
1423.00,0.0473
1422.00,0.0479
1421.00,0.0480
1420.00,0.0473
1419.00,0.0456
1418.00,0.0434
1417.00,0.0413
1416.00,0.0391
1415.00,0.0371
1414.00,0.0351
1413.00,0.0335
1412.00,0.0321
1411.00,0.0310
1410.00,0.0304
1409.00,0.0301
1408.00,0.0301
1407.00,0.0303
1406.00,0.0307
1405.00,0.0312
1404.00,0.0317
1403.00,0.0320
1402.00,0.0322
1401.00,0.0321
1400.00,0.0314
1399.00,0.0303
1398.00,0.0289
1397.00,0.0274
1396.00,0.0257
1395.00,0.0239
1394.00,0.0221
1393.00,0.0207
1392.00,0.0196
1391.00,0.0187
1390.00,0.0181
1389.00,0.0178
1388.00,0.0175
1387.00,0.0176
1386.00,0.0178
1385.00,0.0183
1384.00,0.0190
1383.00,0.0197
1382.00,0.0205
1381.00,0.0212
1380.00,0.0218
1379.00,0.0222
1378.00,0.0223
1377.00,0.0223
1376.00,0.0221
1375.00,0.0218
1374.00,0.0214
1373.00,0.0210
1372.00,0.0206
1371.00,0.0203
1370.00,0.0200
1369.00,0.0197
1368.00,0.0195
1367.00,0.0194
1366.00,0.0195
1365.00,0.0199
1364.00,0.0204
1363.00,0.0210
1362.00,0.0215
1361.00,0.0218
1360.00,0.0217
1359.00,0.0211
1358.00,0.0202
1357.00,0.0191
1356.00,0.0178
1355.00,0.0167
1354.00,0.0157
1353.00,0.0150
1352.00,0.0144
1351.00,0.0141
1350.00,0.0138
1349.00,0.0136
1348.00,0.0135
1347.00,0.0134
1346.00,0.0133
1345.00,0.0133
1344.00,0.0133
1343.00,0.0133
1342.00,0.0133
1341.00,0.0134
1340.00,0.0135
1339.00,0.0135
1338.00,0.0137
1337.00,0.0139
1336.00,0.0141
1335.00,0.0143
1334.00,0.0146
1333.00,0.0149
1332.00,0.0151
1331.00,0.0154
1330.00,0.0157
1329.00,0.0161
1328.00,0.0164
1327.00,0.0168
1326.00,0.0172
1325.00,0.0176
1324.00,0.0181
1323.00,0.0186
1322.00,0.0190
1321.00,0.0194
1320.00,0.0198
1319.00,0.0200
1318.00,0.0200
1317.00,0.0200
1316.00,0.0198
1315.00,0.0196
1314.00,0.0192
1313.00,0.0189
1312.00,0.0186
1311.00,0.0183
1310.00,0.0182
1309.00,0.0183
1308.00,0.0184
1307.00,0.0186
1306.00,0.0190
1305.00,0.0194
1304.00,0.0200
1303.00,0.0207
1302.00,0.0215
1301.00,0.0225
1300.00,0.0238
1299.00,0.0254
1298.00,0.0274
1297.00,0.0297
1296.00,0.0323
1295.00,0.0351
1294.00,0.0380
1293.00,0.0409
1292.00,0.0437
1291.00,0.0462
1290.00,0.0484
1289.00,0.0504
1288.00,0.0519
1287.00,0.0531
1286.00,0.0538
1285.00,0.0540
1284.00,0.0537
1283.00,0.0529
1282.00,0.0518
1281.00,0.0506
1280.00,0.0493
1279.00,0.0481
1278.00,0.0473
1277.00,0.0467
1276.00,0.0464
1275.00,0.0463
1274.00,0.0464
1273.00,0.0464
1272.00,0.0463
1271.00,0.0459
1270.00,0.0452
1269.00,0.0442
1268.00,0.0429
1267.00,0.0413
1266.00,0.0397
1265.00,0.0379
1264.00,0.0361
1263.00,0.0343
1262.00,0.0325
1261.00,0.0308
1260.00,0.0291
1259.00,0.0276
1258.00,0.0263
1257.00,0.0251
1256.00,0.0239
1255.00,0.0229
1254.00,0.0221
1253.00,0.0214
1252.00,0.0208
1251.00,0.0205
1250.00,0.0203
1249.00,0.0203
1248.00,0.0205
1247.00,0.0209
1246.00,0.0215
1245.00,0.0223
1244.00,0.0231
1243.00,0.0240
1242.00,0.0248
1241.00,0.0256
1240.00,0.0262
1239.00,0.0267
1238.00,0.0272
1237.00,0.0276
1236.00,0.0279
1235.00,0.0281
1234.00,0.0283
1233.00,0.0284
1232.00,0.0283
1231.00,0.0282
1230.00,0.0280
1229.00,0.0278
1228.00,0.0276
1227.00,0.0274
1226.00,0.0272
1225.00,0.0271
1224.00,0.0270
1223.00,0.0270
1222.00,0.0271
1221.00,0.0272
1220.00,0.0272
1219.00,0.0272
1218.00,0.0271
1217.00,0.0268
1216.00,0.0263
1215.00,0.0256
1214.00,0.0247
1213.00,0.0237
1212.00,0.0226
1211.00,0.0215
1210.00,0.0205
1209.00,0.0197
1208.00,0.0189
1207.00,0.0183
1206.00,0.0180
1205.00,0.0178
1204.00,0.0178
1203.00,0.0181
1202.00,0.0186
1201.00,0.0193
1200.00,0.0201
1199.00,0.0211
1198.00,0.0221
1197.00,0.0231
1196.00,0.0241
1195.00,0.0248
1194.00,0.0252
1193.00,0.0253
1192.00,0.0248
1191.00,0.0240
1190.00,0.0229
1189.00,0.0217
1188.00,0.0204
1187.00,0.0192
1186.00,0.0181
1185.00,0.0172
1184.00,0.0163
1183.00,0.0157
1182.00,0.0152
1181.00,0.0149
1180.00,0.0146
1179.00,0.0144
1178.00,0.0144
1177.00,0.0144
1176.00,0.0145
1175.00,0.0147
1174.00,0.0149
1173.00,0.0151
1172.00,0.0153
1171.00,0.0155
1170.00,0.0157
1169.00,0.0159
1168.00,0.0160
1167.00,0.0162
1166.00,0.0164
1165.00,0.0168
1164.00,0.0173
1163.00,0.0180
1162.00,0.0189
1161.00,0.0200
1160.00,0.0212
1159.00,0.0223
1158.00,0.0233
1157.00,0.0240
1156.00,0.0242
1155.00,0.0240
1154.00,0.0234
1153.00,0.0224
1152.00,0.0212
1151.00,0.0199
1150.00,0.0185
1149.00,0.0171
1148.00,0.0158
1147.00,0.0147
1146.00,0.0137
1145.00,0.0129
1144.00,0.0122
1143.00,0.0117
1142.00,0.0114
1141.00,0.0112
1140.00,0.0111
1139.00,0.0113
1138.00,0.0118
1137.00,0.0125
1136.00,0.0135
1135.00,0.0149
1134.00,0.0167
1133.00,0.0187
1132.00,0.0206
1131.00,0.0222
1130.00,0.0233
1129.00,0.0236
1128.00,0.0230
1127.00,0.0217
1126.00,0.0200
1125.00,0.0181
1124.00,0.0163
1123.00,0.0147
1122.00,0.0135
1121.00,0.0126
1120.00,0.0120
1119.00,0.0115
1118.00,0.0112
1117.00,0.0110
1116.00,0.0109
1115.00,0.0108
1114.00,0.0109
1113.00,0.0110
1112.00,0.0111
1111.00,0.0112
1110.00,0.0114
1109.00,0.0117
1108.00,0.0119
1107.00,0.0122
1106.00,0.0127
1105.00,0.0133
1104.00,0.0139
1103.00,0.0146
1102.00,0.0152
1101.00,0.0158
1100.00,0.0160
1099.00,0.0159
1098.00,0.0156
1097.00,0.0150
1096.00,0.0143
1095.00,0.0136
1094.00,0.0130
1093.00,0.0124
1092.00,0.0118
1091.00,0.0113
1090.00,0.0110
1089.00,0.0107
1088.00,0.0104
1087.00,0.0103
1086.00,0.0103
1085.00,0.0102
1084.00,0.0102
1083.00,0.0103
1082.00,0.0105
1081.00,0.0108
1080.00,0.0111
1079.00,0.0114
1078.00,0.0119
1077.00,0.0124
1076.00,0.0129
1075.00,0.0135
1074.00,0.0141
1073.00,0.0148
1072.00,0.0155
1071.00,0.0164
1070.00,0.0174
1069.00,0.0187
1068.00,0.0201
1067.00,0.0218
1066.00,0.0238
1065.00,0.0260
1064.00,0.0283
1063.00,0.0308
1062.00,0.0332
1061.00,0.0355
1060.00,0.0375
1059.00,0.0391
1058.00,0.0401
1057.00,0.0402
1056.00,0.0395
1055.00,0.0380
1054.00,0.0357
1053.00,0.0330
1052.00,0.0301
1051.00,0.0271
1050.00,0.0243
1049.00,0.0220
1048.00,0.0200
1047.00,0.0184
1046.00,0.0172
1045.00,0.0163
1044.00,0.0156
1043.00,0.0151
1042.00,0.0149
1041.00,0.0147
1040.00,0.0146
1039.00,0.0145
1038.00,0.0145
1037.00,0.0146
1036.00,0.0147
1035.00,0.0150
1034.00,0.0155
1033.00,0.0161
1032.00,0.0166
1031.00,0.0171
1030.00,0.0172
1029.00,0.0171
1028.00,0.0166
1027.00,0.0159
1026.00,0.0152
1025.00,0.0145
1024.00,0.0140
1023.00,0.0136
1022.00,0.0135
1021.00,0.0135
1020.00,0.0136
1019.00,0.0137
1018.00,0.0138
1017.00,0.0137
1016.00,0.0135
1015.00,0.0132
1014.00,0.0128
1013.00,0.0125
1012.00,0.0121
1011.00,0.0118
1010.00,0.0118
1009.00,0.0119
1008.00,0.0122
1007.00,0.0127
1006.00,0.0134
1005.00,0.0141
1004.00,0.0147
1003.00,0.0151
1002.00,0.0152
1001.00,0.0151
1000.00,0.0148
999.00,0.0143
998.00,0.0138
997.00,0.0134
996.00,0.0129
995.00,0.0125
994.00,0.0122
993.00,0.0119
992.00,0.0115
991.00,0.0112
990.00,0.0109
989.00,0.0105
988.00,0.0102
987.00,0.0098
986.00,0.0095
985.00,0.0092
984.00,0.0090
983.00,0.0088
982.00,0.0088
981.00,0.0088
980.00,0.0088
979.00,0.0089
978.00,0.0090
977.00,0.0091
976.00,0.0091
975.00,0.0090
974.00,0.0089
973.00,0.0088
972.00,0.0087
971.00,0.0085
970.00,0.0083
969.00,0.0081
968.00,0.0079
967.00,0.0078
966.00,0.0077
965.00,0.0077
964.00,0.0076
963.00,0.0074
962.00,0.0073
961.00,0.0073
960.00,0.0071
959.00,0.0070
958.00,0.0070
957.00,0.0069
956.00,0.0067
955.00,0.0066
954.00,0.0065
953.00,0.0065
952.00,0.0064
951.00,0.0064
950.00,0.0064
949.00,0.0065
948.00,0.0065
947.00,0.0066
946.00,0.0067
945.00,0.0069
944.00,0.0071
943.00,0.0073
942.00,0.0077
941.00,0.0081
940.00,0.0085
939.00,0.0090
938.00,0.0097
937.00,0.0103
936.00,0.0109
935.00,0.0114
934.00,0.0118
933.00,0.0121
932.00,0.0121
931.00,0.0120
930.00,0.0118
929.00,0.0117
928.00,0.0116
927.00,0.0115
926.00,0.0115
925.00,0.0115
924.00,0.0114
923.00,0.0112
922.00,0.0111
921.00,0.0109
920.00,0.0106
919.00,0.0103
918.00,0.0100
917.00,0.0098
916.00,0.0095
915.00,0.0093
914.00,0.0091
913.00,0.0089
912.00,0.0087
911.00,0.0087
910.00,0.0088
909.00,0.0089
908.00,0.0090
907.00,0.0092
906.00,0.0095
905.00,0.0099
904.00,0.0103
903.00,0.0108
902.00,0.0115
901.00,0.0121
900.00,0.0126
899.00,0.0131
898.00,0.0135
897.00,0.0137
896.00,0.0136
895.00,0.0135
894.00,0.0132
893.00,0.0128
892.00,0.0124
891.00,0.0120
890.00,0.0116
889.00,0.0114
888.00,0.0112
887.00,0.0111
886.00,0.0111
885.00,0.0112
884.00,0.0114
883.00,0.0116
882.00,0.0120
881.00,0.0125
880.00,0.0130
879.00,0.0136
878.00,0.0143
877.00,0.0150
876.00,0.0157
875.00,0.0164
874.00,0.0170
873.00,0.0176
872.00,0.0181
871.00,0.0184
870.00,0.0187
869.00,0.0188
868.00,0.0187
867.00,0.0186
866.00,0.0185
865.00,0.0185
864.00,0.0184
863.00,0.0184
862.00,0.0185
861.00,0.0185
860.00,0.0185
859.00,0.0186
858.00,0.0189
857.00,0.0191
856.00,0.0194
855.00,0.0197
854.00,0.0201
853.00,0.0205
852.00,0.0209
851.00,0.0213
850.00,0.0217
849.00,0.0221
848.00,0.0224
847.00,0.0227
846.00,0.0229
845.00,0.0231
844.00,0.0232
843.00,0.0233
842.00,0.0234
841.00,0.0234
840.00,0.0233
839.00,0.0232
838.00,0.0231
837.00,0.0231
836.00,0.0231
835.00,0.0232
834.00,0.0233
833.00,0.0234
832.00,0.0235
831.00,0.0235
830.00,0.0235
829.00,0.0235
828.00,0.0234
827.00,0.0233
826.00,0.0233
825.00,0.0233
824.00,0.0233
823.00,0.0234
822.00,0.0236
821.00,0.0239
820.00,0.0241
819.00,0.0244
818.00,0.0247
817.00,0.0249
816.00,0.0250
815.00,0.0250
814.00,0.0249
813.00,0.0247
812.00,0.0241
811.00,0.0233
810.00,0.0222
809.00,0.0209
808.00,0.0194
807.00,0.0179
806.00,0.0165
805.00,0.0153
804.00,0.0142
803.00,0.0133
802.00,0.0128
801.00,0.0125
800.00,0.0122
799.00,0.0120
798.00,0.0119
797.00,0.0118
796.00,0.0118
795.00,0.0118
794.00,0.0119
793.00,0.0120
792.00,0.0120
791.00,0.0120
790.00,0.0121
789.00,0.0121
788.00,0.0121
787.00,0.0121
786.00,0.0122
785.00,0.0123
784.00,0.0123
783.00,0.0124
782.00,0.0125
781.00,0.0127
780.00,0.0129
779.00,0.0132
778.00,0.0136
777.00,0.0137
776.00,0.0136
775.00,0.0134
774.00,0.0131
773.00,0.0129
772.00,0.0128
771.00,0.0128
770.00,0.0129
769.00,0.0131
768.00,0.0132
767.00,0.0133
766.00,0.0135
765.00,0.0138
764.00,0.0140
763.00,0.0142
762.00,0.0146
761.00,0.0149
760.00,0.0152
759.00,0.0155
758.00,0.0159
757.00,0.0162
756.00,0.0165
755.00,0.0168
754.00,0.0172
753.00,0.0175
752.00,0.0178
751.00,0.0181
750.00,0.0184
749.00,0.0188
748.00,0.0191
747.00,0.0195
746.00,0.0200
745.00,0.0204
744.00,0.0208
743.00,0.0214
742.00,0.0221
741.00,0.0230
740.00,0.0239
739.00,0.0248
738.00,0.0256
737.00,0.0261
736.00,0.0262
735.00,0.0259
734.00,0.0254
733.00,0.0247
732.00,0.0238
731.00,0.0230
730.00,0.0223
729.00,0.0216
728.00,0.0208
727.00,0.0201
726.00,0.0195
725.00,0.0190
724.00,0.0184
723.00,0.0179
722.00,0.0176
721.00,0.0173
720.00,0.0170
719.00,0.0168
718.00,0.0168
717.00,0.0168
716.00,0.0167
715.00,0.0167
714.00,0.0166
713.00,0.0166
712.00,0.0164
711.00,0.0162
710.00,0.0161
709.00,0.0160
708.00,0.0158
707.00,0.0156
706.00,0.0156
705.00,0.0156
704.00,0.0156
703.00,0.0157
702.00,0.0158
701.00,0.0159
700.00,0.0159
699.00,0.0161
698.00,0.0165
697.00,0.0170
696.00,0.0175
695.00,0.0181
694.00,0.0188
693.00,0.0194
692.00,0.0199
691.00,0.0202
690.00,0.0204
689.00,0.0205
688.00,0.0205
687.00,0.0204
686.00,0.0204
685.00,0.0202
684.00,0.0200
683.00,0.0198
682.00,0.0197
681.00,0.0197
680.00,0.0196
679.00,0.0197
678.00,0.0199
677.00,0.0201
676.00,0.0203
675.00,0.0205
674.00,0.0208
673.00,0.0212
672.00,0.0215
671.00,0.0219
670.00,0.0223
669.00,0.0228
668.00,0.0234
667.00,0.0241
666.00,0.0246
665.00,0.0250
664.00,0.0254
663.00,0.0258
662.00,0.0265
661.00,0.0271
660.00,0.0277
659.00,0.0283
658.00,0.0290
657.00,0.0297
656.00,0.0304
655.00,0.0310
654.00,0.0317
653.00,0.0323
652.00,0.0327
651.00,0.0330
650.00,0.0333
649.00,0.0335
648.00,0.0335
647.00,0.0334
646.00,0.0333
645.00,0.0330
644.00,0.0324
643.00,0.0318
642.00,0.0312
641.00,0.0307
640.00,0.0300
639.00,0.0294
638.00,0.0288
637.00,0.0282
636.00,0.0274
635.00,0.0268
634.00,0.0262
633.00,0.0258
632.00,0.0254
631.00,0.0252
630.00,0.0252
629.00,0.0251
628.00,0.0251
627.00,0.0251
626.00,0.0251
625.00,0.0251
624.00,0.0249
623.00,0.0247
622.00,0.0246
621.00,0.0245
620.00,0.0242
619.00,0.0240
618.00,0.0238
617.00,0.0237
616.00,0.0235
615.00,0.0234
614.00,0.0235
613.00,0.0236
612.00,0.0236
611.00,0.0237
610.00,0.0239
609.00,0.0241
608.00,0.0243
607.00,0.0245
606.00,0.0248
605.00,0.0250
604.00,0.0250
603.00,0.0251
602.00,0.0254
601.00,0.0256
600.00,0.0257
599.00,0.0257
598.00,0.0258
597.00,0.0258
596.00,0.0256
595.00,0.0254
594.00,0.0254
593.00,0.0255
592.00,0.0256
591.00,0.0259
590.00,0.0264
589.00,0.0272
588.00,0.0281
587.00,0.0293
586.00,0.0307
585.00,0.0320
584.00,0.0332
583.00,0.0342
582.00,0.0351
581.00,0.0358
580.00,0.0360
579.00,0.0362
578.00,0.0364
577.00,0.0365
576.00,0.0364
575.00,0.0362
574.00,0.0362
573.00,0.0361
572.00,0.0359
571.00,0.0358
570.00,0.0358
569.00,0.0359
568.00,0.0358
567.00,0.0357
566.00,0.0356
565.00,0.0354
564.00,0.0349
563.00,0.0344
562.00,0.0340
561.00,0.0336
560.00,0.0331
559.00,0.0328
558.00,0.0326
557.00,0.0325
556.00,0.0321
555.00,0.0317
554.00,0.0314
553.00,0.0310
552.00,0.0306
551.00,0.0303
550.00,0.0302
549.00,0.0301
548.00,0.0297
547.00,0.0292
546.00,0.0289
545.00,0.0285
544.00,0.0280
543.00,0.0276
542.00,0.0274
541.00,0.0274
540.00,0.0273
539.00,0.0274
538.00,0.0278
537.00,0.0283
536.00,0.0286
535.00,0.0289
534.00,0.0295
533.00,0.0300
532.00,0.0303
531.00,0.0304
530.00,0.0306
529.00,0.0305
528.00,0.0300
527.00,0.0294
526.00,0.0290
525.00,0.0285
524.00,0.0280
523.00,0.0275
522.00,0.0274
521.00,0.0273
520.00,0.0271
519.00,0.0269
518.00,0.0269
517.00,0.0270
516.00,0.0268
515.00,0.0267
514.00,0.0268
513.00,0.0270
512.00,0.0268
511.00,0.0269
510.00,0.0273
509.00,0.0277
508.00,0.0278
507.00,0.0278
506.00,0.0278
505.00,0.0276
504.00,0.0273
503.00,0.0270
502.00,0.0272
501.00,0.0272
500.00,0.0270
499.00,0.0267
498.00,0.0267
497.00,0.0267
496.00,0.0266
495.00,0.0266
494.00,0.0269
493.00,0.0273
492.00,0.0273
491.00,0.0273
490.00,0.0276
489.00,0.0278
488.00,0.0279
487.00,0.0279
486.00,0.0282
485.00,0.0284
484.00,0.0284
483.00,0.0282
482.00,0.0282
481.00,0.0279
480.00,0.0275
479.00,0.0274
478.00,0.0278
477.00,0.0282
476.00,0.0281
475.00,0.0278
474.00,0.0278
473.00,0.0277
472.00,0.0274
471.00,0.0272
470.00,0.0276
469.00,0.0279
468.00,0.0278
467.00,0.0277
466.00,0.0280
465.00,0.0282
464.00,0.0281
463.00,0.0279
462.00,0.0282
461.00,0.0284
460.00,0.0282
459.00,0.0281
458.00,0.0282
457.00,0.0284
456.00,0.0281
455.00,0.0279
454.00,0.0279
453.00,0.0279
452.00,0.0276
451.00,0.0277
450.00,0.0282
449.00,0.0286
448.00,0.0284
447.00,0.0281
446.00,0.0282
445.00,0.0281
444.00,0.0275
443.00,0.0271
442.00,0.0272
441.00,0.0272
440.00,0.0268
439.00,0.0265
438.00,0.0268
437.00,0.0271
436.00,0.0267
435.00,0.0263
434.00,0.0264
433.00,0.0263
432.00,0.0256
431.00,0.0249
430.00,0.0249
429.00,0.0249
428.00,0.0246
427.00,0.0246
426.00,0.0255
425.00,0.0262
424.00,0.0260
423.00,0.0258
422.00,0.0263
421.00,0.0267
420.00,0.0259
419.00,0.0250
418.00,0.0255
417.00,0.0265
416.00,0.0267
415.00,0.0269
414.00,0.0276
413.00,0.0280
412.00,0.0274
411.00,0.0269
410.00,0.0272
409.00,0.0272
408.00,0.0260
407.00,0.0248
406.00,0.0249
405.00,0.0249
404.00,0.0241
403.00,0.0235
402.00,0.0243
401.00,0.0246
400.00,0.0231
