Created as New Dataset,Sample 1029 By YargerLab Date Friday, August 01 2025
cm-1,A
4000.00,0.0003
3999.00,0.0002
3998.00,0.0002
3997.00,0.0002
3996.00,0.0002
3995.00,0.0002
3994.00,0.0002
3993.00,0.0002
3992.00,0.0002
3991.00,0.0002
3990.00,0.0002
3989.00,0.0003
3988.00,0.0003
3987.00,0.0002
3986.00,0.0002
3985.00,0.0002
3984.00,0.0002
3983.00,0.0002
3982.00,0.0002
3981.00,0.0002
3980.00,0.0002
3979.00,0.0002
3978.00,0.0002
3977.00,0.0002
3976.00,0.0002
3975.00,0.0002
3974.00,0.0002
3973.00,0.0002
3972.00,0.0002
3971.00,0.0002
3970.00,0.0002
3969.00,0.0002
3968.00,0.0002
3967.00,0.0002
3966.00,0.0002
3965.00,0.0002
3964.00,0.0002
3963.00,0.0002
3962.00,0.0002
3961.00,0.0002
3960.00,0.0002
3959.00,0.0002
3958.00,0.0002
3957.00,0.0002
3956.00,0.0002
3955.00,0.0002
3954.00,0.0002
3953.00,0.0002
3952.00,0.0002
3951.00,0.0002
3950.00,0.0001
3949.00,0.0001
3948.00,0.0001
3947.00,0.0001
3946.00,0.0002
3945.00,0.0002
3944.00,0.0002
3943.00,0.0002
3942.00,0.0002
3941.00,0.0002
3940.00,0.0002
3939.00,0.0002
3938.00,0.0003
3937.00,0.0003
3936.00,0.0002
3935.00,0.0002
3934.00,0.0002
3933.00,0.0002
3932.00,0.0002
3931.00,0.0002
3930.00,0.0002
3929.00,0.0002
3928.00,0.0002
3927.00,0.0002
3926.00,0.0003
3925.00,0.0003
3924.00,0.0003
3923.00,0.0003
3922.00,0.0003
3921.00,0.0003
3920.00,0.0003
3919.00,0.0002
3918.00,0.0002
3917.00,0.0002
3916.00,0.0002
3915.00,0.0003
3914.00,0.0003
3913.00,0.0003
3912.00,0.0003
3911.00,0.0002
3910.00,0.0002
3909.00,0.0002
3908.00,0.0002
3907.00,0.0002
3906.00,0.0002
3905.00,0.0002
3904.00,0.0002
3903.00,0.0003
3902.00,0.0002
3901.00,0.0002
3900.00,0.0002
3899.00,0.0002
3898.00,0.0002
3897.00,0.0002
3896.00,0.0002
3895.00,0.0002
3894.00,0.0002
3893.00,0.0002
3892.00,0.0002
3891.00,0.0002
3890.00,0.0002
3889.00,0.0002
3888.00,0.0002
3887.00,0.0002
3886.00,0.0002
3885.00,0.0003
3884.00,0.0003
3883.00,0.0003
3882.00,0.0002
3881.00,0.0002
3880.00,0.0002
3879.00,0.0002
3878.00,0.0002
3877.00,0.0003
3876.00,0.0002
3875.00,0.0002
3874.00,0.0002
3873.00,0.0003
3872.00,0.0003
3871.00,0.0003
3870.00,0.0003
3869.00,0.0003
3868.00,0.0002
3867.00,0.0002
3866.00,0.0002
3865.00,0.0002
3864.00,0.0002
3863.00,0.0002
3862.00,0.0002
3861.00,0.0002
3860.00,0.0002
3859.00,0.0002
3858.00,0.0003
3857.00,0.0003
3856.00,0.0004
3855.00,0.0005
3854.00,0.0004
3853.00,0.0004
3852.00,0.0004
3851.00,0.0003
3850.00,0.0003
3849.00,0.0002
3848.00,0.0002
3847.00,0.0002
3846.00,0.0002
3845.00,0.0002
3844.00,0.0003
3843.00,0.0003
3842.00,0.0003
3841.00,0.0003
3840.00,0.0003
3839.00,0.0003
3838.00,0.0003
3837.00,0.0003
3836.00,0.0003
3835.00,0.0003
3834.00,0.0003
3833.00,0.0003
3832.00,0.0003
3831.00,0.0003
3830.00,0.0003
3829.00,0.0003
3828.00,0.0003
3827.00,0.0003
3826.00,0.0003
3825.00,0.0003
3824.00,0.0003
3823.00,0.0003
3822.00,0.0003
3821.00,0.0003
3820.00,0.0003
3819.00,0.0003
3818.00,0.0003
3817.00,0.0003
3816.00,0.0003
3815.00,0.0003
3814.00,0.0003
3813.00,0.0002
3812.00,0.0002
3811.00,0.0002
3810.00,0.0002
3809.00,0.0003
3808.00,0.0003
3807.00,0.0003
3806.00,0.0004
3805.00,0.0004
3804.00,0.0004
3803.00,0.0004
3802.00,0.0004
3801.00,0.0003
3800.00,0.0003
3799.00,0.0002
3798.00,0.0002
3797.00,0.0002
3796.00,0.0002
3795.00,0.0002
3794.00,0.0003
3793.00,0.0003
3792.00,0.0003
3791.00,0.0003
3790.00,0.0003
3789.00,0.0003
3788.00,0.0002
3787.00,0.0002
3786.00,0.0002
3785.00,0.0002
3784.00,0.0002
3783.00,0.0002
3782.00,0.0002
3781.00,0.0002
3780.00,0.0002
3779.00,0.0002
3778.00,0.0002
3777.00,0.0002
3776.00,0.0002
3775.00,0.0002
3774.00,0.0002
3773.00,0.0002
3772.00,0.0002
3771.00,0.0003
3770.00,0.0003
3769.00,0.0003
3768.00,0.0003
3767.00,0.0002
3766.00,0.0002
3765.00,0.0002
3764.00,0.0003
3763.00,0.0003
3762.00,0.0003
3761.00,0.0003
3760.00,0.0003
3759.00,0.0003
3758.00,0.0003
3757.00,0.0003
3756.00,0.0004
3755.00,0.0004
3754.00,0.0004
3753.00,0.0004
3752.00,0.0004
3751.00,0.0004
3750.00,0.0004
3749.00,0.0003
3748.00,0.0003
3747.00,0.0003
3746.00,0.0003
3745.00,0.0002
3744.00,0.0002
3743.00,0.0002
3742.00,0.0002
3741.00,0.0002
3740.00,0.0002
3739.00,0.0002
3738.00,0.0002
3737.00,0.0002
3736.00,0.0002
3735.00,0.0002
3734.00,0.0002
3733.00,0.0002
3732.00,0.0002
3731.00,0.0002
3730.00,0.0002
3729.00,0.0002
3728.00,0.0001
3727.00,0.0001
3726.00,0.0001
3725.00,0.0001
3724.00,0.0001
3723.00,0.0001
3722.00,0.0001
3721.00,0.0001
3720.00,0.0001
3719.00,0.0001
3718.00,0.0001
3717.00,0.0001
3716.00,0.0001
3715.00,0.0001
3714.00,0.0002
3713.00,0.0002
3712.00,0.0003
3711.00,0.0003
3710.00,0.0003
3709.00,0.0003
3708.00,0.0002
3707.00,0.0002
3706.00,0.0001
3705.00,0.0001
3704.00,0.0001
3703.00,0.0001
3702.00,0.0001
3701.00,0.0001
3700.00,0.0001
3699.00,0.0002
3698.00,0.0002
3697.00,0.0002
3696.00,0.0002
3695.00,0.0002
3694.00,0.0002
3693.00,0.0002
3692.00,0.0002
3691.00,0.0002
3690.00,0.0002
3689.00,0.0002
3688.00,0.0002
3687.00,0.0002
3686.00,0.0002
3685.00,0.0002
3684.00,0.0002
3683.00,0.0002
3682.00,0.0002
3681.00,0.0002
3680.00,0.0002
3679.00,0.0003
3678.00,0.0003
3677.00,0.0003
3676.00,0.0003
3675.00,0.0003
3674.00,0.0003
3673.00,0.0003
3672.00,0.0003
3671.00,0.0002
3670.00,0.0002
3669.00,0.0002
3668.00,0.0002
3667.00,0.0002
3666.00,0.0002
3665.00,0.0002
3664.00,0.0003
3663.00,0.0003
3662.00,0.0003
3661.00,0.0003
3660.00,0.0003
3659.00,0.0003
3658.00,0.0003
3657.00,0.0003
3656.00,0.0003
3655.00,0.0003
3654.00,0.0003
3653.00,0.0003
3652.00,0.0003
3651.00,0.0003
3650.00,0.0003
3649.00,0.0002
3648.00,0.0002
3647.00,0.0002
3646.00,0.0002
3645.00,0.0002
3644.00,0.0002
3643.00,0.0002
3642.00,0.0002
3641.00,0.0002
3640.00,0.0002
3639.00,0.0002
3638.00,0.0002
3637.00,0.0002
3636.00,0.0002
3635.00,0.0002
3634.00,0.0002
3633.00,0.0002
3632.00,0.0003
3631.00,0.0003
3630.00,0.0002
3629.00,0.0002
3628.00,0.0002
3627.00,0.0002
3626.00,0.0002
3625.00,0.0002
3624.00,0.0002
3623.00,0.0002
3622.00,0.0001
3621.00,0.0001
3620.00,0.0001
3619.00,0.0001
3618.00,0.0002
3617.00,0.0002
3616.00,0.0002
3615.00,0.0001
3614.00,0.0001
3613.00,0.0001
3612.00,0.0002
3611.00,0.0002
3610.00,0.0002
3609.00,0.0002
3608.00,0.0002
3607.00,0.0002
3606.00,0.0003
3605.00,0.0003
3604.00,0.0003
3603.00,0.0002
3602.00,0.0002
3601.00,0.0002
3600.00,0.0002
3599.00,0.0002
3598.00,0.0002
3597.00,0.0002
3596.00,0.0002
3595.00,0.0002
3594.00,0.0002
3593.00,0.0002
3592.00,0.0002
3591.00,0.0002
3590.00,0.0002
3589.00,0.0002
3588.00,0.0002
3587.00,0.0001
3586.00,0.0002
3585.00,0.0002
3584.00,0.0002
3583.00,0.0002
3582.00,0.0002
3581.00,0.0002
3580.00,0.0002
3579.00,0.0002
3578.00,0.0003
3577.00,0.0003
3576.00,0.0003
3575.00,0.0003
3574.00,0.0003
3573.00,0.0003
3572.00,0.0003
3571.00,0.0002
3570.00,0.0002
3569.00,0.0002
3568.00,0.0002
3567.00,0.0002
3566.00,0.0003
3565.00,0.0003
3564.00,0.0003
3563.00,0.0003
3562.00,0.0004
3561.00,0.0004
3560.00,0.0004
3559.00,0.0004
3558.00,0.0004
3557.00,0.0004
3556.00,0.0004
3555.00,0.0004
3554.00,0.0004
3553.00,0.0004
3552.00,0.0004
3551.00,0.0004
3550.00,0.0004
3549.00,0.0004
3548.00,0.0004
3547.00,0.0004
3546.00,0.0004
3545.00,0.0004
3544.00,0.0004
3543.00,0.0005
3542.00,0.0005
3541.00,0.0005
3540.00,0.0005
3539.00,0.0005
3538.00,0.0005
3537.00,0.0005
3536.00,0.0005
3535.00,0.0005
3534.00,0.0005
3533.00,0.0005
3532.00,0.0005
3531.00,0.0005
3530.00,0.0005
3529.00,0.0005
3528.00,0.0005
3527.00,0.0005
3526.00,0.0005
3525.00,0.0005
3524.00,0.0005
3523.00,0.0005
3522.00,0.0005
3521.00,0.0006
3520.00,0.0006
3519.00,0.0006
3518.00,0.0006
3517.00,0.0006
3516.00,0.0006
3515.00,0.0006
3514.00,0.0006
3513.00,0.0006
3512.00,0.0006
3511.00,0.0006
3510.00,0.0006
3509.00,0.0007
3508.00,0.0007
3507.00,0.0007
3506.00,0.0007
3505.00,0.0007
3504.00,0.0007
3503.00,0.0007
3502.00,0.0007
3501.00,0.0007
3500.00,0.0007
3499.00,0.0007
3498.00,0.0007
3497.00,0.0007
3496.00,0.0007
3495.00,0.0007
3494.00,0.0007
3493.00,0.0007
3492.00,0.0007
3491.00,0.0007
3490.00,0.0007
3489.00,0.0007
3488.00,0.0008
3487.00,0.0008
3486.00,0.0008
3485.00,0.0008
3484.00,0.0008
3483.00,0.0008
3482.00,0.0008
3481.00,0.0008
3480.00,0.0008
3479.00,0.0008
3478.00,0.0008
3477.00,0.0008
3476.00,0.0008
3475.00,0.0008
3474.00,0.0008
3473.00,0.0008
3472.00,0.0008
3471.00,0.0008
3470.00,0.0008
3469.00,0.0008
3468.00,0.0008
3467.00,0.0008
3466.00,0.0008
3465.00,0.0008
3464.00,0.0008
3463.00,0.0008
3462.00,0.0008
3461.00,0.0008
3460.00,0.0008
3459.00,0.0009
3458.00,0.0009
3457.00,0.0008
3456.00,0.0008
3455.00,0.0008
3454.00,0.0008
3453.00,0.0008
3452.00,0.0008
3451.00,0.0008
3450.00,0.0008
3449.00,0.0008
3448.00,0.0008
3447.00,0.0008
3446.00,0.0008
3445.00,0.0009
3444.00,0.0009
3443.00,0.0009
3442.00,0.0009
3441.00,0.0009
3440.00,0.0009
3439.00,0.0010
3438.00,0.0010
3437.00,0.0010
3436.00,0.0009
3435.00,0.0009
3434.00,0.0009
3433.00,0.0009
3432.00,0.0009
3431.00,0.0009
3430.00,0.0009
3429.00,0.0009
3428.00,0.0009
3427.00,0.0009
3426.00,0.0009
3425.00,0.0009
3424.00,0.0009
3423.00,0.0010
3422.00,0.0010
3421.00,0.0010
3420.00,0.0009
3419.00,0.0009
3418.00,0.0009
3417.00,0.0009
3416.00,0.0009
3415.00,0.0009
3414.00,0.0010
3413.00,0.0010
3412.00,0.0010
3411.00,0.0010
3410.00,0.0009
3409.00,0.0010
3408.00,0.0010
3407.00,0.0010
3406.00,0.0010
3405.00,0.0010
3404.00,0.0010
3403.00,0.0010
3402.00,0.0010
3401.00,0.0010
3400.00,0.0010
3399.00,0.0010
3398.00,0.0010
3397.00,0.0010
3396.00,0.0010
3395.00,0.0010
3394.00,0.0010
3393.00,0.0009
3392.00,0.0009
3391.00,0.0009
3390.00,0.0009
3389.00,0.0009
3388.00,0.0009
3387.00,0.0009
3386.00,0.0009
3385.00,0.0009
3384.00,0.0009
3383.00,0.0009
3382.00,0.0009
3381.00,0.0009
3380.00,0.0009
3379.00,0.0009
3378.00,0.0009
3377.00,0.0009
3376.00,0.0009
3375.00,0.0009
3374.00,0.0009
3373.00,0.0009
3372.00,0.0009
3371.00,0.0009
3370.00,0.0009
3369.00,0.0009
3368.00,0.0009
3367.00,0.0009
3366.00,0.0009
3365.00,0.0009
3364.00,0.0009
3363.00,0.0009
3362.00,0.0009
3361.00,0.0009
3360.00,0.0009
3359.00,0.0009
3358.00,0.0009
3357.00,0.0009
3356.00,0.0010
3355.00,0.0010
3354.00,0.0010
3353.00,0.0010
3352.00,0.0010
3351.00,0.0010
3350.00,0.0010
3349.00,0.0010
3348.00,0.0010
3347.00,0.0009
3346.00,0.0009
3345.00,0.0009
3344.00,0.0009
3343.00,0.0009
3342.00,0.0009
3341.00,0.0009
3340.00,0.0009
3339.00,0.0009
3338.00,0.0009
3337.00,0.0009
3336.00,0.0009
3335.00,0.0009
3334.00,0.0009
3333.00,0.0009
3332.00,0.0009
3331.00,0.0009
3330.00,0.0009
3329.00,0.0009
3328.00,0.0009
3327.00,0.0009
3326.00,0.0009
3325.00,0.0009
3324.00,0.0009
3323.00,0.0009
3322.00,0.0009
3321.00,0.0009
3320.00,0.0009
3319.00,0.0009
3318.00,0.0009
3317.00,0.0009
3316.00,0.0009
3315.00,0.0009
3314.00,0.0009
3313.00,0.0009
3312.00,0.0009
3311.00,0.0009
3310.00,0.0009
3309.00,0.0009
3308.00,0.0009
3307.00,0.0009
3306.00,0.0009
3305.00,0.0009
3304.00,0.0009
3303.00,0.0009
3302.00,0.0009
3301.00,0.0009
3300.00,0.0009
3299.00,0.0009
3298.00,0.0009
3297.00,0.0009
3296.00,0.0009
3295.00,0.0009
3294.00,0.0009
3293.00,0.0009
3292.00,0.0009
3291.00,0.0009
3290.00,0.0008
3289.00,0.0008
3288.00,0.0008
3287.00,0.0008
3286.00,0.0008
3285.00,0.0008
3284.00,0.0008
3283.00,0.0009
3282.00,0.0009
3281.00,0.0009
3280.00,0.0009
3279.00,0.0008
3278.00,0.0008
3277.00,0.0008
3276.00,0.0008
3275.00,0.0008
3274.00,0.0008
3273.00,0.0008
3272.00,0.0008
3271.00,0.0008
3270.00,0.0008
3269.00,0.0008
3268.00,0.0008
3267.00,0.0008
3266.00,0.0008
3265.00,0.0008
3264.00,0.0008
3263.00,0.0008
3262.00,0.0008
3261.00,0.0008
3260.00,0.0008
3259.00,0.0008
3258.00,0.0008
3257.00,0.0008
3256.00,0.0008
3255.00,0.0008
3254.00,0.0008
3253.00,0.0008
3252.00,0.0008
3251.00,0.0008
3250.00,0.0008
3249.00,0.0008
3248.00,0.0007
3247.00,0.0007
3246.00,0.0007
3245.00,0.0007
3244.00,0.0007
3243.00,0.0007
3242.00,0.0007
3241.00,0.0007
3240.00,0.0007
3239.00,0.0007
3238.00,0.0007
3237.00,0.0007
3236.00,0.0007
3235.00,0.0007
3234.00,0.0007
3233.00,0.0007
3232.00,0.0007
3231.00,0.0006
3230.00,0.0006
3229.00,0.0007
3228.00,0.0007
3227.00,0.0006
3226.00,0.0006
3225.00,0.0006
3224.00,0.0006
3223.00,0.0006
3222.00,0.0006
3221.00,0.0007
3220.00,0.0007
3219.00,0.0007
3218.00,0.0007
3217.00,0.0007
3216.00,0.0007
3215.00,0.0007
3214.00,0.0007
3213.00,0.0006
3212.00,0.0006
3211.00,0.0006
3210.00,0.0006
3209.00,0.0006
3208.00,0.0006
3207.00,0.0006
3206.00,0.0006
3205.00,0.0006
3204.00,0.0006
3203.00,0.0006
3202.00,0.0006
3201.00,0.0006
3200.00,0.0006
3199.00,0.0006
3198.00,0.0006
3197.00,0.0006
3196.00,0.0006
3195.00,0.0006
3194.00,0.0006
3193.00,0.0006
3192.00,0.0006
3191.00,0.0006
3190.00,0.0006
3189.00,0.0006
3188.00,0.0006
3187.00,0.0006
3186.00,0.0005
3185.00,0.0005
3184.00,0.0005
3183.00,0.0005
3182.00,0.0005
3181.00,0.0006
3180.00,0.0006
3179.00,0.0005
3178.00,0.0005
3177.00,0.0005
3176.00,0.0005
3175.00,0.0005
3174.00,0.0005
3173.00,0.0005
3172.00,0.0005
3171.00,0.0005
3170.00,0.0005
3169.00,0.0005
3168.00,0.0006
3167.00,0.0006
3166.00,0.0005
3165.00,0.0005
3164.00,0.0005
3163.00,0.0005
3162.00,0.0005
3161.00,0.0005
3160.00,0.0005
3159.00,0.0005
3158.00,0.0005
3157.00,0.0005
3156.00,0.0006
3155.00,0.0006
3154.00,0.0006
3153.00,0.0006
3152.00,0.0005
3151.00,0.0005
3150.00,0.0005
3149.00,0.0005
3148.00,0.0005
3147.00,0.0004
3146.00,0.0004
3145.00,0.0004
3144.00,0.0004
3143.00,0.0004
3142.00,0.0004
3141.00,0.0004
3140.00,0.0005
3139.00,0.0004
3138.00,0.0004
3137.00,0.0004
3136.00,0.0004
3135.00,0.0004
3134.00,0.0004
3133.00,0.0004
3132.00,0.0004
3131.00,0.0004
3130.00,0.0004
3129.00,0.0004
3128.00,0.0004
3127.00,0.0004
3126.00,0.0005
3125.00,0.0005
3124.00,0.0005
3123.00,0.0005
3122.00,0.0005
3121.00,0.0005
3120.00,0.0005
3119.00,0.0005
3118.00,0.0005
3117.00,0.0005
3116.00,0.0005
3115.00,0.0006
3114.00,0.0006
3113.00,0.0006
3112.00,0.0006
3111.00,0.0007
3110.00,0.0007
3109.00,0.0008
3108.00,0.0009
3107.00,0.0009
3106.00,0.0010
3105.00,0.0010
3104.00,0.0011
3103.00,0.0011
3102.00,0.0011
3101.00,0.0011
3100.00,0.0010
3099.00,0.0010
3098.00,0.0010
3097.00,0.0010
3096.00,0.0010
3095.00,0.0010
3094.00,0.0010
3093.00,0.0011
3092.00,0.0011
3091.00,0.0012
3090.00,0.0014
3089.00,0.0015
3088.00,0.0017
3087.00,0.0018
3086.00,0.0020
3085.00,0.0022
3084.00,0.0023
3083.00,0.0024
3082.00,0.0025
3081.00,0.0025
3080.00,0.0025
3079.00,0.0024
3078.00,0.0023
3077.00,0.0021
3076.00,0.0020
3075.00,0.0020
3074.00,0.0019
3073.00,0.0019
3072.00,0.0019
3071.00,0.0019
3070.00,0.0019
3069.00,0.0020
3068.00,0.0021
3067.00,0.0022
3066.00,0.0024
3065.00,0.0026
3064.00,0.0028
3063.00,0.0030
3062.00,0.0032
3061.00,0.0033
3060.00,0.0034
3059.00,0.0035
3058.00,0.0034
3057.00,0.0033
3056.00,0.0031
3055.00,0.0029
3054.00,0.0028
3053.00,0.0026
3052.00,0.0024
3051.00,0.0023
3050.00,0.0021
3049.00,0.0020
3048.00,0.0019
3047.00,0.0018
3046.00,0.0018
3045.00,0.0018
3044.00,0.0018
3043.00,0.0018
3042.00,0.0019
3041.00,0.0019
3040.00,0.0020
3039.00,0.0021
3038.00,0.0023
3037.00,0.0025
3036.00,0.0027
3035.00,0.0029
3034.00,0.0032
3033.00,0.0036
3032.00,0.0040
3031.00,0.0044
3030.00,0.0048
3029.00,0.0053
3028.00,0.0058
3027.00,0.0061
3026.00,0.0064
3025.00,0.0066
3024.00,0.0065
3023.00,0.0063
3022.00,0.0060
3021.00,0.0055
3020.00,0.0050
3019.00,0.0044
3018.00,0.0039
3017.00,0.0034
3016.00,0.0030
3015.00,0.0026
3014.00,0.0023
3013.00,0.0021
3012.00,0.0019
3011.00,0.0018
3010.00,0.0017
3009.00,0.0017
3008.00,0.0017
3007.00,0.0017
3006.00,0.0017
3005.00,0.0018
3004.00,0.0018
3003.00,0.0019
3002.00,0.0020
3001.00,0.0020
3000.00,0.0020
2999.00,0.0019
2998.00,0.0018
2997.00,0.0017
2996.00,0.0016
2995.00,0.0015
2994.00,0.0014
2993.00,0.0014
2992.00,0.0013
2991.00,0.0013
2990.00,0.0013
2989.00,0.0012
2988.00,0.0012
2987.00,0.0012
2986.00,0.0013
2985.00,0.0013
2984.00,0.0013
2983.00,0.0014
2982.00,0.0014
2981.00,0.0014
2980.00,0.0015
2979.00,0.0015
2978.00,0.0016
2977.00,0.0017
2976.00,0.0017
2975.00,0.0018
2974.00,0.0019
2973.00,0.0020
2972.00,0.0021
2971.00,0.0022
2970.00,0.0023
2969.00,0.0024
2968.00,0.0026
2967.00,0.0027
2966.00,0.0028
2965.00,0.0029
2964.00,0.0030
2963.00,0.0031
2962.00,0.0032
2961.00,0.0033
2960.00,0.0034
2959.00,0.0035
2958.00,0.0036
2957.00,0.0037
2956.00,0.0037
2955.00,0.0038
2954.00,0.0038
2953.00,0.0039
2952.00,0.0039
2951.00,0.0040
2950.00,0.0041
2949.00,0.0042
2948.00,0.0043
2947.00,0.0044
2946.00,0.0045
2945.00,0.0047
2944.00,0.0049
2943.00,0.0052
2942.00,0.0055
2941.00,0.0058
2940.00,0.0061
2939.00,0.0065
2938.00,0.0069
2937.00,0.0073
2936.00,0.0077
2935.00,0.0081
2934.00,0.0086
2933.00,0.0091
2932.00,0.0095
2931.00,0.0100
2930.00,0.0105
2929.00,0.0109
2928.00,0.0114
2927.00,0.0118
2926.00,0.0121
2925.00,0.0125
2924.00,0.0128
2923.00,0.0131
2922.00,0.0133
2921.00,0.0135
2920.00,0.0136
2919.00,0.0136
2918.00,0.0136
2917.00,0.0134
2916.00,0.0131
2915.00,0.0127
2914.00,0.0121
2913.00,0.0115
2912.00,0.0109
2911.00,0.0103
2910.00,0.0098
2909.00,0.0094
2908.00,0.0090
2907.00,0.0086
2906.00,0.0083
2905.00,0.0079
2904.00,0.0076
2903.00,0.0074
2902.00,0.0071
2901.00,0.0068
2900.00,0.0065
2899.00,0.0063
2898.00,0.0060
2897.00,0.0058
2896.00,0.0056
2895.00,0.0054
2894.00,0.0052
2893.00,0.0050
2892.00,0.0049
2891.00,0.0047
2890.00,0.0045
2889.00,0.0044
2888.00,0.0042
2887.00,0.0041
2886.00,0.0040
2885.00,0.0039
2884.00,0.0038
2883.00,0.0037
2882.00,0.0036
2881.00,0.0036
2880.00,0.0035
2879.00,0.0034
2878.00,0.0034
2877.00,0.0034
2876.00,0.0034
2875.00,0.0034
2874.00,0.0034
2873.00,0.0034
2872.00,0.0034
2871.00,0.0033
2870.00,0.0033
2869.00,0.0033
2868.00,0.0033
2867.00,0.0033
2866.00,0.0034
2865.00,0.0035
2864.00,0.0036
2863.00,0.0037
2862.00,0.0039
2861.00,0.0040
2860.00,0.0043
2859.00,0.0045
2858.00,0.0048
2857.00,0.0051
2856.00,0.0054
2855.00,0.0057
2854.00,0.0060
2853.00,0.0063
2852.00,0.0066
2851.00,0.0069
2850.00,0.0071
2849.00,0.0070
2848.00,0.0068
2847.00,0.0064
2846.00,0.0059
2845.00,0.0053
2844.00,0.0048
2843.00,0.0043
2842.00,0.0039
2841.00,0.0035
2840.00,0.0032
2839.00,0.0028
2838.00,0.0025
2837.00,0.0023
2836.00,0.0020
2835.00,0.0018
2834.00,0.0017
2833.00,0.0015
2832.00,0.0014
2831.00,0.0013
2830.00,0.0012
2829.00,0.0012
2828.00,0.0011
2827.00,0.0011
2826.00,0.0010
2825.00,0.0010
2824.00,0.0009
2823.00,0.0009
2822.00,0.0009
2821.00,0.0009
2820.00,0.0008
2819.00,0.0008
2818.00,0.0008
2817.00,0.0008
2816.00,0.0008
2815.00,0.0007
2814.00,0.0007
2813.00,0.0008
2812.00,0.0008
2811.00,0.0008
2810.00,0.0008
2809.00,0.0008
2808.00,0.0007
2807.00,0.0007
2806.00,0.0007
2805.00,0.0007
2804.00,0.0007
2803.00,0.0007
2802.00,0.0007
2801.00,0.0007
2800.00,0.0007
2799.00,0.0006
2798.00,0.0006
2797.00,0.0006
2796.00,0.0006
2795.00,0.0006
2794.00,0.0005
2793.00,0.0005
2792.00,0.0005
2791.00,0.0005
2790.00,0.0005
2789.00,0.0005
2788.00,0.0005
2787.00,0.0005
2786.00,0.0005
2785.00,0.0005
2784.00,0.0005
2783.00,0.0005
2782.00,0.0005
2781.00,0.0005
2780.00,0.0005
2779.00,0.0005
2778.00,0.0005
2777.00,0.0005
2776.00,0.0005
2775.00,0.0005
2774.00,0.0005
2773.00,0.0005
2772.00,0.0005
2771.00,0.0004
2770.00,0.0004
2769.00,0.0004
2768.00,0.0004
2767.00,0.0004
2766.00,0.0004
2765.00,0.0004
2764.00,0.0004
2763.00,0.0004
2762.00,0.0004
2761.00,0.0004
2760.00,0.0004
2759.00,0.0004
2758.00,0.0004
2757.00,0.0004
2756.00,0.0004
2755.00,0.0004
2754.00,0.0004
2753.00,0.0004
2752.00,0.0004
2751.00,0.0004
2750.00,0.0004
2749.00,0.0004
2748.00,0.0004
2747.00,0.0004
2746.00,0.0003
2745.00,0.0003
2744.00,0.0003
2743.00,0.0004
2742.00,0.0004
2741.00,0.0004
2740.00,0.0004
2739.00,0.0004
2738.00,0.0004
2737.00,0.0004
2736.00,0.0004
2735.00,0.0004
2734.00,0.0004
2733.00,0.0004
2732.00,0.0004
2731.00,0.0004
2730.00,0.0004
2729.00,0.0004
2728.00,0.0004
2727.00,0.0004
2726.00,0.0004
2725.00,0.0004
2724.00,0.0004
2723.00,0.0004
2722.00,0.0004
2721.00,0.0004
2720.00,0.0004
2719.00,0.0004
2718.00,0.0004
2717.00,0.0004
2716.00,0.0004
2715.00,0.0004
2714.00,0.0004
2713.00,0.0004
2712.00,0.0004
2711.00,0.0004
2710.00,0.0004
2709.00,0.0004
2708.00,0.0004
2707.00,0.0004
2706.00,0.0004
2705.00,0.0003
2704.00,0.0003
2703.00,0.0003
2702.00,0.0003
2701.00,0.0003
2700.00,0.0003
2699.00,0.0004
2698.00,0.0004
2697.00,0.0004
2696.00,0.0004
2695.00,0.0004
2694.00,0.0004
2693.00,0.0004
2692.00,0.0004
2691.00,0.0004
2690.00,0.0004
2689.00,0.0004
2688.00,0.0004
2687.00,0.0004
2686.00,0.0004
2685.00,0.0004
2684.00,0.0004
2683.00,0.0003
2682.00,0.0003
2681.00,0.0003
2680.00,0.0003
2679.00,0.0003
2678.00,0.0003
2677.00,0.0003
2676.00,0.0004
2675.00,0.0004
2674.00,0.0004
2673.00,0.0004
2672.00,0.0004
2671.00,0.0004
2670.00,0.0004
2669.00,0.0004
2668.00,0.0004
2667.00,0.0005
2666.00,0.0005
2665.00,0.0005
2664.00,0.0006
2663.00,0.0006
2662.00,0.0007
2661.00,0.0007
2660.00,0.0007
2659.00,0.0007
2658.00,0.0007
2657.00,0.0008
2656.00,0.0008
2655.00,0.0008
2654.00,0.0008
2653.00,0.0008
2652.00,0.0008
2651.00,0.0008
2650.00,0.0009
2649.00,0.0009
2648.00,0.0009
2647.00,0.0009
2646.00,0.0008
2645.00,0.0008
2644.00,0.0008
2643.00,0.0008
2642.00,0.0008
2641.00,0.0008
2640.00,0.0008
2639.00,0.0008
2638.00,0.0008
2637.00,0.0008
2636.00,0.0008
2635.00,0.0008
2634.00,0.0008
2633.00,0.0009
2632.00,0.0009
2631.00,0.0009
2630.00,0.0009
2629.00,0.0008
2628.00,0.0008
2627.00,0.0008
2626.00,0.0007
2625.00,0.0007
2624.00,0.0007
2623.00,0.0007
2622.00,0.0007
2621.00,0.0007
2620.00,0.0007
2619.00,0.0007
2618.00,0.0006
2617.00,0.0006
2616.00,0.0006
2615.00,0.0006
2614.00,0.0006
2613.00,0.0006
2612.00,0.0006
2611.00,0.0006
2610.00,0.0006
2609.00,0.0006
2608.00,0.0006
2607.00,0.0006
2606.00,0.0006
2605.00,0.0006
2604.00,0.0006
2603.00,0.0007
2602.00,0.0006
2601.00,0.0006
2600.00,0.0006
2599.00,0.0006
2598.00,0.0006
2597.00,0.0006
2596.00,0.0006
2595.00,0.0006
2594.00,0.0006
2593.00,0.0005
2592.00,0.0005
2591.00,0.0005
2590.00,0.0005
2589.00,0.0005
2588.00,0.0005
2587.00,0.0005
2586.00,0.0005
2585.00,0.0005
2584.00,0.0005
2583.00,0.0005
2582.00,0.0005
2581.00,0.0005
2580.00,0.0005
2579.00,0.0005
2578.00,0.0005
2577.00,0.0004
2576.00,0.0004
2575.00,0.0004
2574.00,0.0004
2573.00,0.0004
2572.00,0.0004
2571.00,0.0003
2570.00,0.0003
2569.00,0.0003
2568.00,0.0003
2567.00,0.0004
2566.00,0.0004
2565.00,0.0003
2564.00,0.0003
2563.00,0.0003
2562.00,0.0003
2561.00,0.0003
2560.00,0.0003
2559.00,0.0003
2558.00,0.0003
2557.00,0.0003
2556.00,0.0003
2555.00,0.0003
2554.00,0.0003
2553.00,0.0003
2552.00,0.0003
2551.00,0.0003
2550.00,0.0003
2549.00,0.0003
2548.00,0.0003
2547.00,0.0003
2546.00,0.0003
2545.00,0.0003
2544.00,0.0003
2543.00,0.0002
2542.00,0.0002
2541.00,0.0002
2540.00,0.0002
2539.00,0.0002
2538.00,0.0002
2537.00,0.0002
2536.00,0.0003
2535.00,0.0003
2534.00,0.0002
2533.00,0.0002
2532.00,0.0002
2531.00,0.0002
2530.00,0.0002
2529.00,0.0002
2528.00,0.0002
2527.00,0.0002
2526.00,0.0002
2525.00,0.0002
2524.00,0.0002
2523.00,0.0002
2522.00,0.0002
2521.00,0.0002
2520.00,0.0002
2519.00,0.0002
2518.00,0.0002
2517.00,0.0002
2516.00,0.0002
2515.00,0.0001
2514.00,0.0001
2513.00,0.0001
2512.00,0.0001
2511.00,0.0001
2510.00,0.0001
2509.00,0.0001
2508.00,0.0002
2507.00,0.0002
2506.00,0.0001
2505.00,0.0001
2504.00,0.0001
2503.00,0.0000
2502.00,0.0000
2501.00,0.0000
2500.00,0.0001
2499.00,0.0001
2498.00,0.0001
2497.00,0.0001
2496.00,0.0002
2495.00,0.0001
2494.00,0.0001
2493.00,0.0001
2492.00,0.0002
2491.00,0.0001
2490.00,0.0001
2489.00,0.0001
2488.00,0.0001
2487.00,0.0001
2486.00,0.0001
2485.00,0.0001
2484.00,0.0001
2483.00,0.0001
2482.00,0.0000
2481.00,0.0000
2480.00,0.0000
2479.00,0.0000
2478.00,0.0000
2477.00,0.0001
2476.00,0.0001
2475.00,0.0001
2474.00,0.0001
2473.00,0.0001
2472.00,0.0001
2471.00,0.0001
2470.00,0.0001
2469.00,0.0001
2468.00,0.0001
2467.00,0.0001
2466.00,0.0001
2465.00,0.0000
2464.00,0.0000
2463.00,0.0000
2462.00,0.0001
2461.00,0.0001
2460.00,0.0002
2459.00,0.0002
2458.00,0.0003
2457.00,0.0002
2456.00,0.0002
2455.00,0.0002
2454.00,0.0002
2453.00,0.0002
2452.00,0.0002
2451.00,0.0002
2450.00,0.0002
2449.00,0.0001
2448.00,0.0001
2447.00,0.0001
2446.00,0.0001
2445.00,0.0001
2444.00,0.0001
2443.00,0.0001
2442.00,0.0001
2441.00,0.0001
2440.00,0.0001
2439.00,0.0001
2438.00,0.0001
2437.00,0.0001
2436.00,0.0001
2435.00,0.0001
2434.00,0.0001
2433.00,0.0000
2432.00,0.0000
2431.00,-0.0000
2430.00,-0.0000
2429.00,-0.0001
2428.00,-0.0001
2427.00,-0.0000
2426.00,-0.0000
2425.00,-0.0001
2424.00,-0.0001
2423.00,-0.0001
2422.00,-0.0001
2421.00,-0.0001
2420.00,-0.0002
2419.00,-0.0002
2418.00,-0.0002
2417.00,-0.0001
2416.00,-0.0001
2415.00,-0.0001
2414.00,-0.0001
2413.00,-0.0001
2412.00,-0.0001
2411.00,-0.0001
2410.00,-0.0001
2409.00,-0.0001
2408.00,-0.0001
2407.00,-0.0002
2406.00,-0.0002
2405.00,-0.0002
2404.00,-0.0002
2403.00,-0.0002
2402.00,-0.0002
2401.00,-0.0002
2400.00,-0.0002
2399.00,-0.0002
2398.00,-0.0002
2397.00,-0.0002
2396.00,-0.0002
2395.00,-0.0002
2394.00,-0.0002
2393.00,-0.0002
2392.00,-0.0002
2391.00,-0.0002
2390.00,-0.0002
2389.00,-0.0002
2388.00,-0.0003
2387.00,-0.0003
2386.00,-0.0003
2385.00,-0.0003
2384.00,-0.0004
2383.00,-0.0004
2382.00,-0.0004
2381.00,-0.0004
2380.00,-0.0005
2379.00,-0.0005
2378.00,-0.0006
2377.00,-0.0005
2376.00,-0.0005
2375.00,-0.0004
2374.00,-0.0004
2373.00,-0.0004
2372.00,-0.0004
2371.00,-0.0004
2370.00,-0.0004
2369.00,-0.0004
2368.00,-0.0004
2367.00,-0.0004
2366.00,-0.0004
2365.00,-0.0004
2364.00,-0.0004
2363.00,-0.0004
2362.00,-0.0004
2361.00,-0.0004
2360.00,-0.0004
2359.00,-0.0003
2358.00,-0.0003
2357.00,-0.0003
2356.00,-0.0003
2355.00,-0.0004
2354.00,-0.0005
2353.00,-0.0006
2352.00,-0.0007
2351.00,-0.0007
2350.00,-0.0006
2349.00,-0.0004
2348.00,-0.0002
2347.00,-0.0001
2346.00,0.0000
2345.00,0.0000
2344.00,-0.0000
2343.00,-0.0000
2342.00,-0.0000
2341.00,0.0000
2340.00,0.0001
2339.00,0.0001
2338.00,0.0001
2337.00,0.0001
2336.00,0.0001
2335.00,0.0001
2334.00,0.0001
2333.00,0.0001
2332.00,0.0001
2331.00,0.0001
2330.00,0.0001
2329.00,0.0002
2328.00,0.0004
2327.00,0.0007
2326.00,0.0010
2325.00,0.0012
2324.00,0.0011
2323.00,0.0009
2322.00,0.0007
2321.00,0.0005
2320.00,0.0004
2319.00,0.0004
2318.00,0.0004
2317.00,0.0004
2316.00,0.0004
2315.00,0.0004
2314.00,0.0003
2313.00,0.0002
2312.00,0.0002
2311.00,0.0001
2310.00,0.0001
2309.00,0.0002
2308.00,0.0002
2307.00,0.0002
2306.00,0.0002
2305.00,0.0002
2304.00,0.0002
2303.00,0.0002
2302.00,0.0003
2301.00,0.0003
2300.00,0.0003
2299.00,0.0004
2298.00,0.0004
2297.00,0.0005
2296.00,0.0005
2295.00,0.0006
2294.00,0.0006
2293.00,0.0007
2292.00,0.0007
2291.00,0.0008
2290.00,0.0009
2289.00,0.0010
2288.00,0.0011
2287.00,0.0011
2286.00,0.0011
2285.00,0.0010
2284.00,0.0009
2283.00,0.0008
2282.00,0.0008
2281.00,0.0008
2280.00,0.0008
2279.00,0.0007
2278.00,0.0007
2277.00,0.0006
2276.00,0.0005
2275.00,0.0005
2274.00,0.0005
2273.00,0.0005
2272.00,0.0005
2271.00,0.0005
2270.00,0.0004
2269.00,0.0004
2268.00,0.0003
2267.00,0.0003
2266.00,0.0003
2265.00,0.0003
2264.00,0.0003
2263.00,0.0003
2262.00,0.0004
2261.00,0.0004
2260.00,0.0004
2259.00,0.0004
2258.00,0.0003
2257.00,0.0003
2256.00,0.0002
2255.00,0.0001
2254.00,0.0001
2253.00,0.0001
2252.00,0.0001
2251.00,0.0001
2250.00,0.0002
2249.00,0.0002
2248.00,0.0003
2247.00,0.0004
2246.00,0.0003
2245.00,0.0002
2244.00,0.0002
2243.00,0.0002
2242.00,0.0002
2241.00,0.0003
2240.00,0.0004
2239.00,0.0004
2238.00,0.0004
2237.00,0.0004
2236.00,0.0004
2235.00,0.0004
2234.00,0.0004
2233.00,0.0004
2232.00,0.0004
2231.00,0.0004
2230.00,0.0003
2229.00,0.0003
2228.00,0.0002
2227.00,0.0001
2226.00,0.0000
2225.00,0.0000
2224.00,-0.0000
2223.00,-0.0000
2222.00,0.0000
2221.00,0.0001
2220.00,0.0001
2219.00,0.0002
2218.00,0.0002
2217.00,0.0002
2216.00,0.0001
2215.00,0.0001
2214.00,0.0001
2213.00,0.0002
2212.00,0.0003
2211.00,0.0003
2210.00,0.0002
2209.00,0.0001
2208.00,0.0000
2207.00,-0.0000
2206.00,-0.0001
2205.00,-0.0002
2204.00,-0.0002
2203.00,-0.0001
2202.00,0.0000
2201.00,0.0001
2200.00,0.0002
2199.00,0.0001
2198.00,0.0001
2197.00,-0.0000
2196.00,-0.0001
2195.00,-0.0001
2194.00,-0.0000
2193.00,0.0001
2192.00,0.0003
2191.00,0.0004
2190.00,0.0004
2189.00,0.0004
2188.00,0.0004
2187.00,0.0004
2186.00,0.0003
2185.00,0.0002
2184.00,0.0001
2183.00,-0.0000
2182.00,-0.0001
2181.00,-0.0001
2180.00,0.0000
2179.00,0.0001
2178.00,-0.0000
2177.00,-0.0002
2176.00,-0.0005
2175.00,-0.0005
2174.00,-0.0004
2173.00,-0.0001
2172.00,0.0002
2171.00,0.0005
2170.00,0.0007
2169.00,0.0008
2168.00,0.0007
2167.00,0.0006
2166.00,0.0006
2165.00,0.0005
2164.00,0.0005
2163.00,0.0005
2162.00,0.0002
2161.00,-0.0005
2160.00,-0.0016
2159.00,-0.0025
2158.00,-0.0030
2157.00,-0.0030
2156.00,-0.0028
2155.00,-0.0025
2154.00,-0.0023
2153.00,-0.0020
2152.00,-0.0018
2151.00,-0.0017
2150.00,-0.0016
2149.00,-0.0016
2148.00,-0.0016
2147.00,-0.0016
2146.00,-0.0015
2145.00,-0.0014
2144.00,-0.0014
2143.00,-0.0014
2142.00,-0.0014
2141.00,-0.0014
2140.00,-0.0015
2139.00,-0.0015
2138.00,-0.0016
2137.00,-0.0016
2136.00,-0.0017
2135.00,-0.0018
2134.00,-0.0019
2133.00,-0.0019
2132.00,-0.0018
2131.00,-0.0017
2130.00,-0.0016
2129.00,-0.0014
2128.00,-0.0012
2127.00,-0.0011
2126.00,-0.0009
2125.00,-0.0008
2124.00,-0.0008
2123.00,-0.0008
2122.00,-0.0007
2121.00,-0.0007
2120.00,-0.0007
2119.00,-0.0006
2118.00,-0.0004
2117.00,-0.0003
2116.00,-0.0002
2115.00,-0.0001
2114.00,-0.0001
2113.00,-0.0001
2112.00,-0.0001
2111.00,-0.0000
2110.00,-0.0001
2109.00,-0.0001
2108.00,-0.0002
2107.00,-0.0003
2106.00,-0.0002
2105.00,-0.0002
2104.00,-0.0002
2103.00,-0.0001
2102.00,-0.0001
2101.00,-0.0002
2100.00,-0.0003
2099.00,-0.0003
2098.00,-0.0003
2097.00,-0.0004
2096.00,-0.0005
2095.00,-0.0006
2094.00,-0.0006
2093.00,-0.0006
2092.00,-0.0005
2091.00,-0.0004
2090.00,-0.0003
2089.00,-0.0003
2088.00,-0.0003
2087.00,-0.0003
2086.00,-0.0002
2085.00,-0.0002
2084.00,-0.0001
2083.00,-0.0001
2082.00,-0.0000
2081.00,0.0000
2080.00,0.0000
2079.00,0.0001
2078.00,0.0001
2077.00,0.0000
2076.00,0.0000
2075.00,-0.0000
2074.00,-0.0001
2073.00,-0.0002
2072.00,-0.0003
2071.00,-0.0004
2070.00,-0.0004
2069.00,-0.0004
2068.00,-0.0003
2067.00,-0.0003
2066.00,-0.0002
2065.00,-0.0002
2064.00,-0.0002
2063.00,-0.0002
2062.00,-0.0002
2061.00,-0.0002
2060.00,-0.0002
2059.00,-0.0002
2058.00,-0.0002
2057.00,-0.0002
2056.00,-0.0002
2055.00,-0.0001
2054.00,0.0001
2053.00,0.0004
2052.00,0.0008
2051.00,0.0008
2050.00,0.0007
2049.00,0.0004
2048.00,0.0001
2047.00,-0.0001
2046.00,-0.0002
2045.00,-0.0002
2044.00,-0.0001
2043.00,-0.0001
2042.00,-0.0000
2041.00,0.0001
2040.00,0.0002
2039.00,0.0002
2038.00,0.0003
2037.00,0.0002
2036.00,0.0000
2035.00,-0.0002
2034.00,-0.0004
2033.00,-0.0005
2032.00,-0.0007
2031.00,-0.0007
2030.00,-0.0008
2029.00,-0.0008
2028.00,-0.0009
2027.00,-0.0009
2026.00,-0.0008
2025.00,-0.0006
2024.00,-0.0004
2023.00,-0.0004
2022.00,-0.0005
2021.00,-0.0007
2020.00,-0.0009
2019.00,-0.0009
2018.00,-0.0008
2017.00,-0.0008
2016.00,-0.0008
2015.00,-0.0009
2014.00,-0.0009
2013.00,-0.0009
2012.00,-0.0009
2011.00,-0.0008
2010.00,-0.0008
2009.00,-0.0008
2008.00,-0.0011
2007.00,-0.0013
2006.00,-0.0015
2005.00,-0.0015
2004.00,-0.0014
2003.00,-0.0013
2002.00,-0.0012
2001.00,-0.0011
2000.00,-0.0009
1999.00,-0.0007
1998.00,-0.0004
1997.00,-0.0003
1996.00,-0.0003
1995.00,-0.0003
1994.00,-0.0004
1993.00,-0.0004
1992.00,-0.0003
1991.00,-0.0002
1990.00,-0.0001
1989.00,0.0000
1988.00,0.0002
1987.00,0.0003
1986.00,0.0004
1985.00,0.0005
1984.00,0.0005
1983.00,0.0005
1982.00,0.0006
1981.00,0.0007
1980.00,0.0006
1979.00,0.0002
1978.00,-0.0002
1977.00,-0.0005
1976.00,-0.0008
1975.00,-0.0008
1974.00,-0.0008
1973.00,-0.0008
1972.00,-0.0007
1971.00,-0.0006
1970.00,-0.0005
1969.00,-0.0005
1968.00,-0.0005
1967.00,-0.0004
1966.00,-0.0004
1965.00,-0.0005
1964.00,-0.0005
1963.00,-0.0007
1962.00,-0.0008
1961.00,-0.0009
1960.00,-0.0010
1959.00,-0.0009
1958.00,-0.0008
1957.00,-0.0007
1956.00,-0.0006
1955.00,-0.0005
1954.00,-0.0005
1953.00,-0.0006
1952.00,-0.0006
1951.00,-0.0006
1950.00,-0.0005
1949.00,-0.0004
1948.00,-0.0003
1947.00,-0.0002
1946.00,-0.0001
1945.00,-0.0001
1944.00,-0.0001
1943.00,-0.0001
1942.00,-0.0001
1941.00,-0.0002
1940.00,-0.0002
1939.00,-0.0003
1938.00,-0.0002
1937.00,-0.0002
1936.00,-0.0002
1935.00,-0.0002
1934.00,-0.0003
1933.00,-0.0004
1932.00,-0.0005
1931.00,-0.0005
1930.00,-0.0005
1929.00,-0.0006
1928.00,-0.0006
1927.00,-0.0006
1926.00,-0.0006
1925.00,-0.0006
1924.00,-0.0006
1923.00,-0.0006
1922.00,-0.0006
1921.00,-0.0006
1920.00,-0.0006
1919.00,-0.0006
1918.00,-0.0006
1917.00,-0.0006
1916.00,-0.0006
1915.00,-0.0006
1914.00,-0.0006
1913.00,-0.0006
1912.00,-0.0005
1911.00,-0.0005
1910.00,-0.0005
1909.00,-0.0006
1908.00,-0.0006
1907.00,-0.0006
1906.00,-0.0006
1905.00,-0.0006
1904.00,-0.0006
1903.00,-0.0005
1902.00,-0.0005
1901.00,-0.0005
1900.00,-0.0004
1899.00,-0.0004
1898.00,-0.0004
1897.00,-0.0004
1896.00,-0.0004
1895.00,-0.0004
1894.00,-0.0003
1893.00,-0.0003
1892.00,-0.0003
1891.00,-0.0002
1890.00,-0.0002
1889.00,-0.0002
1888.00,-0.0002
1887.00,-0.0002
1886.00,-0.0001
1885.00,-0.0001
1884.00,-0.0001
1883.00,-0.0000
1882.00,0.0000
1881.00,0.0001
1880.00,0.0001
1879.00,0.0002
1878.00,0.0002
1877.00,0.0002
1876.00,0.0002
1875.00,0.0002
1874.00,0.0002
1873.00,0.0003
1872.00,0.0002
1871.00,0.0002
1870.00,0.0002
1869.00,0.0002
1868.00,0.0002
1867.00,0.0002
1866.00,0.0002
1865.00,0.0002
1864.00,0.0001
1863.00,0.0001
1862.00,0.0001
1861.00,0.0001
1860.00,0.0000
1859.00,-0.0000
1858.00,-0.0001
1857.00,-0.0001
1856.00,-0.0002
1855.00,-0.0002
1854.00,-0.0003
1853.00,-0.0003
1852.00,-0.0003
1851.00,-0.0004
1850.00,-0.0004
1849.00,-0.0004
1848.00,-0.0004
1847.00,-0.0004
1846.00,-0.0004
1845.00,-0.0005
1844.00,-0.0004
1843.00,-0.0004
1842.00,-0.0004
1841.00,-0.0004
1840.00,-0.0004
1839.00,-0.0004
1838.00,-0.0003
1837.00,-0.0003
1836.00,-0.0003
1835.00,-0.0003
1834.00,-0.0003
1833.00,-0.0003
1832.00,-0.0003
1831.00,-0.0003
1830.00,-0.0002
1829.00,-0.0002
1828.00,-0.0001
1827.00,-0.0001
1826.00,-0.0000
1825.00,-0.0000
1824.00,-0.0000
1823.00,-0.0000
1822.00,0.0000
1821.00,-0.0000
1820.00,-0.0001
1819.00,-0.0001
1818.00,-0.0001
1817.00,-0.0001
1816.00,-0.0000
1815.00,0.0000
1814.00,0.0001
1813.00,0.0002
1812.00,0.0003
1811.00,0.0003
1810.00,0.0004
1809.00,0.0005
1808.00,0.0005
1807.00,0.0006
1806.00,0.0006
1805.00,0.0006
1804.00,0.0006
1803.00,0.0007
1802.00,0.0007
1801.00,0.0007
1800.00,0.0007
1799.00,0.0006
1798.00,0.0006
1797.00,0.0006
1796.00,0.0006
1795.00,0.0005
1794.00,0.0005
1793.00,0.0004
1792.00,0.0004
1791.00,0.0003
1790.00,0.0003
1789.00,0.0003
1788.00,0.0002
1787.00,0.0002
1786.00,0.0002
1785.00,0.0002
1784.00,0.0002
1783.00,0.0002
1782.00,0.0002
1781.00,0.0002
1780.00,0.0002
1779.00,0.0002
1778.00,0.0002
1777.00,0.0002
1776.00,0.0002
1775.00,0.0002
1774.00,0.0002
1773.00,0.0002
1772.00,0.0002
1771.00,0.0003
1770.00,0.0003
1769.00,0.0003
1768.00,0.0003
1767.00,0.0004
1766.00,0.0004
1765.00,0.0004
1764.00,0.0004
1763.00,0.0004
1762.00,0.0005
1761.00,0.0005
1760.00,0.0005
1759.00,0.0006
1758.00,0.0006
1757.00,0.0006
1756.00,0.0007
1755.00,0.0008
1754.00,0.0008
1753.00,0.0009
1752.00,0.0009
1751.00,0.0009
1750.00,0.0010
1749.00,0.0010
1748.00,0.0010
1747.00,0.0011
1746.00,0.0011
1745.00,0.0012
1744.00,0.0012
1743.00,0.0013
1742.00,0.0013
1741.00,0.0013
1740.00,0.0013
1739.00,0.0013
1738.00,0.0013
1737.00,0.0013
1736.00,0.0013
1735.00,0.0013
1734.00,0.0012
1733.00,0.0012
1732.00,0.0012
1731.00,0.0012
1730.00,0.0012
1729.00,0.0012
1728.00,0.0011
1727.00,0.0011
1726.00,0.0011
1725.00,0.0010
1724.00,0.0010
1723.00,0.0010
1722.00,0.0009
1721.00,0.0009
1720.00,0.0009
1719.00,0.0009
1718.00,0.0009
1717.00,0.0009
1716.00,0.0009
1715.00,0.0008
1714.00,0.0008
1713.00,0.0008
1712.00,0.0008
1711.00,0.0008
1710.00,0.0008
1709.00,0.0008
1708.00,0.0008
1707.00,0.0007
1706.00,0.0007
1705.00,0.0007
1704.00,0.0007
1703.00,0.0007
1702.00,0.0008
1701.00,0.0007
1700.00,0.0007
1699.00,0.0007
1698.00,0.0006
1697.00,0.0006
1696.00,0.0006
1695.00,0.0006
1694.00,0.0006
1693.00,0.0006
1692.00,0.0006
1691.00,0.0006
1690.00,0.0007
1689.00,0.0007
1688.00,0.0008
1687.00,0.0009
1686.00,0.0010
1685.00,0.0011
1684.00,0.0011
1683.00,0.0012
1682.00,0.0012
1681.00,0.0013
1680.00,0.0014
1679.00,0.0016
1678.00,0.0018
1677.00,0.0019
1676.00,0.0020
1675.00,0.0021
1674.00,0.0022
1673.00,0.0023
1672.00,0.0025
1671.00,0.0026
1670.00,0.0027
1669.00,0.0028
1668.00,0.0029
1667.00,0.0030
1666.00,0.0030
1665.00,0.0031
1664.00,0.0032
1663.00,0.0032
1662.00,0.0032
1661.00,0.0032
1660.00,0.0031
1659.00,0.0031
1658.00,0.0031
1657.00,0.0031
1656.00,0.0032
1655.00,0.0032
1654.00,0.0031
1653.00,0.0029
1652.00,0.0028
1651.00,0.0026
1650.00,0.0026
1649.00,0.0025
1648.00,0.0024
1647.00,0.0023
1646.00,0.0022
1645.00,0.0021
1644.00,0.0021
1643.00,0.0020
1642.00,0.0019
1641.00,0.0019
1640.00,0.0018
1639.00,0.0018
1638.00,0.0017
1637.00,0.0017
1636.00,0.0016
1635.00,0.0015
1634.00,0.0015
1633.00,0.0014
1632.00,0.0014
1631.00,0.0013
1630.00,0.0013
1629.00,0.0013
1628.00,0.0013
1627.00,0.0013
1626.00,0.0013
1625.00,0.0013
1624.00,0.0013
1623.00,0.0013
1622.00,0.0013
1621.00,0.0013
1620.00,0.0013
1619.00,0.0013
1618.00,0.0013
1617.00,0.0013
1616.00,0.0014
1615.00,0.0014
1614.00,0.0015
1613.00,0.0015
1612.00,0.0017
1611.00,0.0018
1610.00,0.0021
1609.00,0.0025
1608.00,0.0029
1607.00,0.0036
1606.00,0.0043
1605.00,0.0051
1604.00,0.0060
1603.00,0.0068
1602.00,0.0074
1601.00,0.0076
1600.00,0.0075
1599.00,0.0070
1598.00,0.0063
1597.00,0.0055
1596.00,0.0047
1595.00,0.0041
1594.00,0.0036
1593.00,0.0032
1592.00,0.0028
1591.00,0.0026
1590.00,0.0024
1589.00,0.0023
1588.00,0.0024
1587.00,0.0025
1586.00,0.0027
1585.00,0.0030
1584.00,0.0033
1583.00,0.0034
1582.00,0.0034
1581.00,0.0032
1580.00,0.0028
1579.00,0.0025
1578.00,0.0022
1577.00,0.0020
1576.00,0.0018
1575.00,0.0016
1574.00,0.0014
1573.00,0.0013
1572.00,0.0012
1571.00,0.0011
1570.00,0.0011
1569.00,0.0010
1568.00,0.0009
1567.00,0.0009
1566.00,0.0009
1565.00,0.0009
1564.00,0.0008
1563.00,0.0008
1562.00,0.0008
1561.00,0.0008
1560.00,0.0008
1559.00,0.0008
1558.00,0.0008
1557.00,0.0009
1556.00,0.0009
1555.00,0.0009
1554.00,0.0009
1553.00,0.0010
1552.00,0.0010
1551.00,0.0011
1550.00,0.0012
1549.00,0.0012
1548.00,0.0013
1547.00,0.0014
1546.00,0.0014
1545.00,0.0015
1544.00,0.0016
1543.00,0.0016
1542.00,0.0017
1541.00,0.0017
1540.00,0.0016
1539.00,0.0016
1538.00,0.0016
1537.00,0.0015
1536.00,0.0014
1535.00,0.0013
1534.00,0.0012
1533.00,0.0011
1532.00,0.0010
1531.00,0.0010
1530.00,0.0010
1529.00,0.0009
1528.00,0.0009
1527.00,0.0009
1526.00,0.0009
1525.00,0.0008
1524.00,0.0008
1523.00,0.0008
1522.00,0.0008
1521.00,0.0008
1520.00,0.0008
1519.00,0.0008
1518.00,0.0008
1517.00,0.0008
1516.00,0.0009
1515.00,0.0009
1514.00,0.0010
1513.00,0.0010
1512.00,0.0010
1511.00,0.0010
1510.00,0.0011
1509.00,0.0011
1508.00,0.0012
1507.00,0.0013
1506.00,0.0015
1505.00,0.0017
1504.00,0.0018
1503.00,0.0020
1502.00,0.0023
1501.00,0.0028
1500.00,0.0034
1499.00,0.0044
1498.00,0.0059
1497.00,0.0081
1496.00,0.0110
1495.00,0.0142
1494.00,0.0171
1493.00,0.0192
1492.00,0.0199
1491.00,0.0188
1490.00,0.0160
1489.00,0.0127
1488.00,0.0099
1487.00,0.0079
1486.00,0.0065
1485.00,0.0055
1484.00,0.0048
1483.00,0.0042
1482.00,0.0037
1481.00,0.0034
1480.00,0.0031
1479.00,0.0029
1478.00,0.0028
1477.00,0.0028
1476.00,0.0028
1475.00,0.0029
1474.00,0.0030
1473.00,0.0031
1472.00,0.0032
1471.00,0.0032
1470.00,0.0033
1469.00,0.0034
1468.00,0.0036
1467.00,0.0037
1466.00,0.0039
1465.00,0.0040
1464.00,0.0041
1463.00,0.0042
1462.00,0.0044
1461.00,0.0046
1460.00,0.0049
1459.00,0.0055
1458.00,0.0066
1457.00,0.0085
1456.00,0.0112
1455.00,0.0140
1454.00,0.0167
1453.00,0.0190
1452.00,0.0203
1451.00,0.0206
1450.00,0.0198
1449.00,0.0184
1448.00,0.0168
1447.00,0.0152
1446.00,0.0140
1445.00,0.0130
1444.00,0.0121
1443.00,0.0112
1442.00,0.0104
1441.00,0.0096
1440.00,0.0090
1439.00,0.0084
1438.00,0.0078
1437.00,0.0069
1436.00,0.0060
1435.00,0.0053
1434.00,0.0049
1433.00,0.0045
1432.00,0.0042
1431.00,0.0039
1430.00,0.0036
1429.00,0.0033
1428.00,0.0031
1427.00,0.0029
1426.00,0.0028
1425.00,0.0027
1424.00,0.0026
1423.00,0.0025
1422.00,0.0024
1421.00,0.0024
1420.00,0.0023
1419.00,0.0022
1418.00,0.0022
1417.00,0.0021
1416.00,0.0021
1415.00,0.0021
1414.00,0.0021
1413.00,0.0021
1412.00,0.0021
1411.00,0.0020
1410.00,0.0020
1409.00,0.0020
1408.00,0.0020
1407.00,0.0020
1406.00,0.0020
1405.00,0.0020
1404.00,0.0020
1403.00,0.0019
1402.00,0.0019
1401.00,0.0020
1400.00,0.0020
1399.00,0.0020
1398.00,0.0020
1397.00,0.0020
1396.00,0.0021
1395.00,0.0022
1394.00,0.0023
1393.00,0.0023
1392.00,0.0024
1391.00,0.0026
1390.00,0.0027
1389.00,0.0029
1388.00,0.0031
1387.00,0.0032
1386.00,0.0034
1385.00,0.0036
1384.00,0.0037
1383.00,0.0039
1382.00,0.0041
1381.00,0.0043
1380.00,0.0044
1379.00,0.0046
1378.00,0.0047
1377.00,0.0049
1376.00,0.0050
1375.00,0.0050
1374.00,0.0051
1373.00,0.0051
1372.00,0.0051
1371.00,0.0050
1370.00,0.0050
1369.00,0.0050
1368.00,0.0049
1367.00,0.0049
1366.00,0.0049
1365.00,0.0049
1364.00,0.0048
1363.00,0.0048
1362.00,0.0047
1361.00,0.0046
1360.00,0.0045
1359.00,0.0044
1358.00,0.0044
1357.00,0.0043
1356.00,0.0042
1355.00,0.0042
1354.00,0.0041
1353.00,0.0041
1352.00,0.0041
1351.00,0.0042
1350.00,0.0042
1349.00,0.0042
1348.00,0.0041
1347.00,0.0041
1346.00,0.0040
1345.00,0.0040
1344.00,0.0039
1343.00,0.0038
1342.00,0.0038
1341.00,0.0037
1340.00,0.0037
1339.00,0.0036
1338.00,0.0036
1337.00,0.0037
1336.00,0.0037
1335.00,0.0038
1334.00,0.0039
1333.00,0.0040
1332.00,0.0041
1331.00,0.0042
1330.00,0.0043
1329.00,0.0044
1328.00,0.0044
1327.00,0.0044
1326.00,0.0044
1325.00,0.0043
1324.00,0.0043
1323.00,0.0043
1322.00,0.0042
1321.00,0.0042
1320.00,0.0042
1319.00,0.0042
1318.00,0.0042
1317.00,0.0042
1316.00,0.0043
1315.00,0.0043
1314.00,0.0043
1313.00,0.0044
1312.00,0.0044
1311.00,0.0043
1310.00,0.0043
1309.00,0.0042
1308.00,0.0042
1307.00,0.0041
1306.00,0.0041
1305.00,0.0040
1304.00,0.0040
1303.00,0.0039
1302.00,0.0039
1301.00,0.0039
1300.00,0.0038
1299.00,0.0038
1298.00,0.0039
1297.00,0.0039
1296.00,0.0039
1295.00,0.0039
1294.00,0.0039
1293.00,0.0039
1292.00,0.0039
1291.00,0.0038
1290.00,0.0037
1289.00,0.0036
1288.00,0.0035
1287.00,0.0034
1286.00,0.0033
1285.00,0.0033
1284.00,0.0032
1283.00,0.0032
1282.00,0.0032
1281.00,0.0032
1280.00,0.0032
1279.00,0.0032
1278.00,0.0032
1277.00,0.0031
1276.00,0.0030
1275.00,0.0029
1274.00,0.0029
1273.00,0.0028
1272.00,0.0028
1271.00,0.0027
1270.00,0.0026
1269.00,0.0026
1268.00,0.0025
1267.00,0.0025
1266.00,0.0025
1265.00,0.0025
1264.00,0.0025
1263.00,0.0025
1262.00,0.0025
1261.00,0.0024
1260.00,0.0024
1259.00,0.0024
1258.00,0.0024
1257.00,0.0024
1256.00,0.0024
1255.00,0.0024
1254.00,0.0025
1253.00,0.0025
1252.00,0.0025
1251.00,0.0025
1250.00,0.0025
1249.00,0.0025
1248.00,0.0025
1247.00,0.0026
1246.00,0.0026
1245.00,0.0026
1244.00,0.0026
1243.00,0.0026
1242.00,0.0026
1241.00,0.0026
1240.00,0.0026
1239.00,0.0026
1238.00,0.0026
1237.00,0.0026
1236.00,0.0026
1235.00,0.0025
1234.00,0.0026
1233.00,0.0026
1232.00,0.0026
1231.00,0.0026
1230.00,0.0026
1229.00,0.0026
1228.00,0.0027
1227.00,0.0027
1226.00,0.0027
1225.00,0.0027
1224.00,0.0027
1223.00,0.0027
1222.00,0.0027
1221.00,0.0027
1220.00,0.0028
1219.00,0.0028
1218.00,0.0028
1217.00,0.0028
1216.00,0.0028
1215.00,0.0028
1214.00,0.0028
1213.00,0.0028
1212.00,0.0029
1211.00,0.0029
1210.00,0.0030
1209.00,0.0030
1208.00,0.0030
1207.00,0.0031
1206.00,0.0032
1205.00,0.0034
1204.00,0.0035
1203.00,0.0035
1202.00,0.0036
1201.00,0.0037
1200.00,0.0038
1199.00,0.0038
1198.00,0.0039
1197.00,0.0040
1196.00,0.0040
1195.00,0.0041
1194.00,0.0041
1193.00,0.0041
1192.00,0.0041
1191.00,0.0041
1190.00,0.0042
1189.00,0.0042
1188.00,0.0043
1187.00,0.0044
1186.00,0.0047
1185.00,0.0049
1184.00,0.0051
1183.00,0.0053
1182.00,0.0054
1181.00,0.0055
1180.00,0.0054
1179.00,0.0052
1178.00,0.0050
1177.00,0.0047
1176.00,0.0043
1175.00,0.0041
1174.00,0.0039
1173.00,0.0038
1172.00,0.0037
1171.00,0.0036
1170.00,0.0036
1169.00,0.0036
1168.00,0.0035
1167.00,0.0035
1166.00,0.0036
1165.00,0.0036
1164.00,0.0037
1163.00,0.0038
1162.00,0.0039
1161.00,0.0041
1160.00,0.0043
1159.00,0.0045
1158.00,0.0049
1157.00,0.0052
1156.00,0.0055
1155.00,0.0056
1154.00,0.0056
1153.00,0.0054
1152.00,0.0051
1151.00,0.0047
1150.00,0.0043
1149.00,0.0040
1148.00,0.0037
1147.00,0.0034
1146.00,0.0032
1145.00,0.0031
1144.00,0.0030
1143.00,0.0029
1142.00,0.0028
1141.00,0.0028
1140.00,0.0027
1139.00,0.0026
1138.00,0.0026
1137.00,0.0025
1136.00,0.0025
1135.00,0.0025
1134.00,0.0026
1133.00,0.0026
1132.00,0.0027
1131.00,0.0027
1130.00,0.0027
1129.00,0.0028
1128.00,0.0028
1127.00,0.0028
1126.00,0.0028
1125.00,0.0028
1124.00,0.0028
1123.00,0.0028
1122.00,0.0028
1121.00,0.0028
1120.00,0.0029
1119.00,0.0029
1118.00,0.0031
1117.00,0.0032
1116.00,0.0033
1115.00,0.0033
1114.00,0.0034
1113.00,0.0035
1112.00,0.0035
1111.00,0.0035
1110.00,0.0035
1109.00,0.0035
1108.00,0.0034
1107.00,0.0034
1106.00,0.0034
1105.00,0.0034
1104.00,0.0034
1103.00,0.0034
1102.00,0.0035
1101.00,0.0035
1100.00,0.0035
1099.00,0.0036
1098.00,0.0037
1097.00,0.0037
1096.00,0.0037
1095.00,0.0037
1094.00,0.0038
1093.00,0.0038
1092.00,0.0038
1091.00,0.0039
1090.00,0.0040
1089.00,0.0040
1088.00,0.0041
1087.00,0.0041
1086.00,0.0043
1085.00,0.0044
1084.00,0.0045
1083.00,0.0047
1082.00,0.0049
1081.00,0.0051
1080.00,0.0053
1079.00,0.0054
1078.00,0.0056
1077.00,0.0058
1076.00,0.0060
1075.00,0.0062
1074.00,0.0065
1073.00,0.0068
1072.00,0.0071
1071.00,0.0073
1070.00,0.0076
1069.00,0.0077
1068.00,0.0076
1067.00,0.0075
1066.00,0.0073
1065.00,0.0071
1064.00,0.0068
1063.00,0.0065
1062.00,0.0063
1061.00,0.0061
1060.00,0.0058
1059.00,0.0056
1058.00,0.0054
1057.00,0.0053
1056.00,0.0051
1055.00,0.0050
1054.00,0.0049
1053.00,0.0048
1052.00,0.0046
1051.00,0.0044
1050.00,0.0043
1049.00,0.0042
1048.00,0.0042
1047.00,0.0041
1046.00,0.0041
1045.00,0.0041
1044.00,0.0040
1043.00,0.0040
1042.00,0.0041
1041.00,0.0042
1040.00,0.0044
1039.00,0.0046
1038.00,0.0048
1037.00,0.0052
1036.00,0.0058
1035.00,0.0066
1034.00,0.0076
1033.00,0.0087
1032.00,0.0099
1031.00,0.0109
1030.00,0.0119
1029.00,0.0125
1028.00,0.0128
1027.00,0.0126
1026.00,0.0122
1025.00,0.0114
1024.00,0.0105
1023.00,0.0096
1022.00,0.0089
1021.00,0.0083
1020.00,0.0077
1019.00,0.0073
1018.00,0.0070
1017.00,0.0067
1016.00,0.0063
1015.00,0.0061
1014.00,0.0059
1013.00,0.0057
1012.00,0.0056
1011.00,0.0055
1010.00,0.0054
1009.00,0.0053
1008.00,0.0053
1007.00,0.0053
1006.00,0.0055
1005.00,0.0056
1004.00,0.0058
1003.00,0.0058
1002.00,0.0057
1001.00,0.0054
1000.00,0.0051
999.00,0.0047
998.00,0.0045
997.00,0.0043
996.00,0.0042
995.00,0.0041
994.00,0.0041
993.00,0.0041
992.00,0.0041
991.00,0.0041
990.00,0.0041
989.00,0.0042
988.00,0.0043
987.00,0.0044
986.00,0.0045
985.00,0.0046
984.00,0.0047
983.00,0.0049
982.00,0.0050
981.00,0.0052
980.00,0.0052
979.00,0.0052
978.00,0.0051
977.00,0.0050
976.00,0.0049
975.00,0.0048
974.00,0.0047
973.00,0.0047
972.00,0.0046
971.00,0.0047
970.00,0.0049
969.00,0.0051
968.00,0.0053
967.00,0.0055
966.00,0.0057
965.00,0.0058
964.00,0.0058
963.00,0.0057
962.00,0.0056
961.00,0.0054
960.00,0.0052
959.00,0.0050
958.00,0.0048
957.00,0.0047
956.00,0.0045
955.00,0.0044
954.00,0.0044
953.00,0.0043
952.00,0.0043
951.00,0.0043
950.00,0.0044
949.00,0.0044
948.00,0.0044
947.00,0.0045
946.00,0.0046
945.00,0.0047
944.00,0.0047
943.00,0.0047
942.00,0.0047
941.00,0.0046
940.00,0.0045
939.00,0.0043
938.00,0.0042
937.00,0.0041
936.00,0.0039
935.00,0.0037
934.00,0.0036
933.00,0.0035
932.00,0.0034
931.00,0.0033
930.00,0.0033
929.00,0.0033
928.00,0.0032
927.00,0.0032
926.00,0.0032
925.00,0.0033
924.00,0.0033
923.00,0.0034
922.00,0.0035
921.00,0.0036
920.00,0.0037
919.00,0.0038
918.00,0.0040
917.00,0.0043
916.00,0.0046
915.00,0.0051
914.00,0.0056
913.00,0.0061
912.00,0.0067
911.00,0.0072
910.00,0.0078
909.00,0.0083
908.00,0.0087
907.00,0.0089
906.00,0.0090
905.00,0.0089
904.00,0.0085
903.00,0.0080
902.00,0.0074
901.00,0.0068
900.00,0.0061
899.00,0.0055
898.00,0.0050
897.00,0.0045
896.00,0.0041
895.00,0.0038
894.00,0.0036
893.00,0.0034
892.00,0.0032
891.00,0.0031
890.00,0.0030
889.00,0.0029
888.00,0.0028
887.00,0.0027
886.00,0.0027
885.00,0.0027
884.00,0.0026
883.00,0.0025
882.00,0.0025
881.00,0.0025
880.00,0.0025
879.00,0.0024
878.00,0.0025
877.00,0.0025
876.00,0.0024
875.00,0.0023
874.00,0.0023
873.00,0.0023
872.00,0.0022
871.00,0.0021
870.00,0.0021
869.00,0.0021
868.00,0.0021
867.00,0.0021
866.00,0.0021
865.00,0.0022
864.00,0.0021
863.00,0.0020
862.00,0.0020
861.00,0.0021
860.00,0.0021
859.00,0.0021
858.00,0.0022
857.00,0.0023
856.00,0.0023
855.00,0.0023
854.00,0.0024
853.00,0.0025
852.00,0.0026
851.00,0.0028
850.00,0.0031
849.00,0.0033
848.00,0.0036
847.00,0.0038
846.00,0.0041
845.00,0.0044
844.00,0.0045
843.00,0.0047
842.00,0.0048
841.00,0.0048
840.00,0.0047
839.00,0.0046
838.00,0.0043
837.00,0.0040
836.00,0.0037
835.00,0.0034
834.00,0.0031
833.00,0.0029
832.00,0.0027
831.00,0.0026
830.00,0.0025
829.00,0.0024
828.00,0.0023
827.00,0.0022
826.00,0.0023
825.00,0.0023
824.00,0.0022
823.00,0.0021
822.00,0.0021
821.00,0.0021
820.00,0.0021
819.00,0.0021
818.00,0.0022
817.00,0.0023
816.00,0.0023
815.00,0.0023
814.00,0.0023
813.00,0.0023
812.00,0.0023
811.00,0.0023
810.00,0.0024
809.00,0.0024
808.00,0.0023
807.00,0.0023
806.00,0.0023
805.00,0.0023
804.00,0.0024
803.00,0.0025
802.00,0.0026
801.00,0.0027
800.00,0.0028
799.00,0.0028
798.00,0.0029
797.00,0.0031
796.00,0.0032
795.00,0.0033
794.00,0.0035
793.00,0.0038
792.00,0.0040
791.00,0.0042
790.00,0.0045
789.00,0.0047
788.00,0.0050
787.00,0.0053
786.00,0.0057
785.00,0.0061
784.00,0.0064
783.00,0.0068
782.00,0.0073
781.00,0.0079
780.00,0.0085
779.00,0.0092
778.00,0.0100
777.00,0.0109
776.00,0.0118
775.00,0.0128
774.00,0.0140
773.00,0.0153
772.00,0.0167
771.00,0.0181
770.00,0.0197
769.00,0.0213
768.00,0.0227
767.00,0.0243
766.00,0.0258
765.00,0.0273
764.00,0.0288
763.00,0.0303
762.00,0.0318
761.00,0.0334
760.00,0.0348
759.00,0.0362
758.00,0.0374
757.00,0.0384
756.00,0.0389
755.00,0.0392
754.00,0.0393
753.00,0.0393
752.00,0.0392
751.00,0.0391
750.00,0.0391
749.00,0.0392
748.00,0.0390
747.00,0.0385
746.00,0.0376
745.00,0.0361
744.00,0.0340
743.00,0.0315
742.00,0.0289
741.00,0.0263
740.00,0.0237
739.00,0.0214
738.00,0.0193
737.00,0.0174
736.00,0.0154
735.00,0.0136
734.00,0.0119
733.00,0.0103
732.00,0.0089
731.00,0.0078
730.00,0.0071
729.00,0.0065
728.00,0.0060
727.00,0.0056
726.00,0.0054
725.00,0.0052
724.00,0.0051
723.00,0.0050
722.00,0.0051
721.00,0.0051
720.00,0.0052
719.00,0.0052
718.00,0.0054
717.00,0.0057
716.00,0.0060
715.00,0.0064
714.00,0.0070
713.00,0.0079
712.00,0.0092
711.00,0.0110
710.00,0.0135
709.00,0.0167
708.00,0.0208
707.00,0.0258
706.00,0.0320
705.00,0.0393
704.00,0.0475
703.00,0.0566
702.00,0.0665
701.00,0.0768
700.00,0.0871
699.00,0.0974
698.00,0.1072
697.00,0.1159
696.00,0.1223
695.00,0.1252
694.00,0.1235
693.00,0.1168
692.00,0.1062
691.00,0.0938
690.00,0.0817
689.00,0.0709
688.00,0.0616
687.00,0.0541
686.00,0.0482
685.00,0.0434
684.00,0.0394
683.00,0.0360
682.00,0.0332
681.00,0.0308
680.00,0.0286
679.00,0.0267
678.00,0.0251
677.00,0.0238
676.00,0.0225
675.00,0.0215
674.00,0.0207
673.00,0.0200
672.00,0.0192
671.00,0.0186
670.00,0.0182
669.00,0.0177
668.00,0.0169
667.00,0.0162
666.00,0.0156
665.00,0.0151
664.00,0.0144
663.00,0.0137
662.00,0.0131
661.00,0.0126
660.00,0.0121
659.00,0.0116
658.00,0.0113
657.00,0.0110
656.00,0.0105
655.00,0.0099
654.00,0.0095
653.00,0.0092
652.00,0.0087
651.00,0.0084
650.00,0.0081
649.00,0.0078
648.00,0.0075
647.00,0.0072
646.00,0.0071
645.00,0.0070
644.00,0.0069
643.00,0.0067
642.00,0.0067
641.00,0.0067
640.00,0.0067
639.00,0.0067
638.00,0.0069
637.00,0.0071
636.00,0.0072
635.00,0.0074
634.00,0.0076
633.00,0.0078
632.00,0.0079
631.00,0.0081
630.00,0.0083
629.00,0.0085
628.00,0.0086
627.00,0.0087
626.00,0.0089
625.00,0.0090
624.00,0.0090
623.00,0.0091
622.00,0.0093
621.00,0.0094
620.00,0.0093
619.00,0.0090
618.00,0.0088
617.00,0.0086
616.00,0.0083
615.00,0.0081
614.00,0.0079
613.00,0.0077
612.00,0.0075
611.00,0.0074
610.00,0.0075
609.00,0.0076
608.00,0.0075
607.00,0.0074
606.00,0.0074
605.00,0.0074
604.00,0.0074
603.00,0.0073
602.00,0.0075
601.00,0.0076
600.00,0.0076
599.00,0.0076
598.00,0.0077
597.00,0.0079
596.00,0.0079
595.00,0.0079
594.00,0.0082
593.00,0.0085
592.00,0.0086
591.00,0.0088
590.00,0.0091
589.00,0.0093
588.00,0.0093
587.00,0.0094
586.00,0.0096
585.00,0.0098
584.00,0.0099
583.00,0.0100
582.00,0.0103
581.00,0.0106
580.00,0.0108
579.00,0.0112
578.00,0.0118
577.00,0.0123
576.00,0.0127
575.00,0.0133
574.00,0.0141
573.00,0.0149
572.00,0.0155
571.00,0.0161
570.00,0.0167
569.00,0.0173
568.00,0.0177
567.00,0.0182
566.00,0.0189
565.00,0.0197
564.00,0.0202
563.00,0.0208
562.00,0.0215
561.00,0.0221
560.00,0.0226
559.00,0.0231
558.00,0.0238
557.00,0.0245
556.00,0.0250
555.00,0.0256
554.00,0.0263
553.00,0.0272
552.00,0.0279
551.00,0.0288
550.00,0.0298
549.00,0.0308
548.00,0.0318
547.00,0.0329
546.00,0.0343
545.00,0.0359
544.00,0.0374
543.00,0.0391
542.00,0.0408
541.00,0.0422
540.00,0.0431
539.00,0.0437
538.00,0.0441
537.00,0.0440
536.00,0.0432
535.00,0.0419
534.00,0.0403
533.00,0.0385
532.00,0.0364
531.00,0.0343
530.00,0.0325
529.00,0.0306
528.00,0.0285
527.00,0.0265
526.00,0.0248
525.00,0.0232
524.00,0.0215
523.00,0.0201
522.00,0.0192
521.00,0.0185
520.00,0.0177
519.00,0.0170
518.00,0.0165
517.00,0.0160
516.00,0.0153
515.00,0.0147
514.00,0.0146
513.00,0.0143
512.00,0.0137
511.00,0.0131
510.00,0.0129
509.00,0.0127
508.00,0.0122
507.00,0.0117
506.00,0.0114
505.00,0.0110
504.00,0.0104
503.00,0.0101
502.00,0.0101
501.00,0.0102
500.00,0.0099
499.00,0.0096
498.00,0.0096
497.00,0.0094
496.00,0.0090
495.00,0.0086
494.00,0.0085
493.00,0.0086
492.00,0.0085
491.00,0.0084
490.00,0.0086
489.00,0.0088
488.00,0.0087
487.00,0.0085
486.00,0.0086
485.00,0.0084
484.00,0.0079
483.00,0.0075
482.00,0.0076
481.00,0.0076
480.00,0.0073
479.00,0.0070
478.00,0.0070
477.00,0.0069
476.00,0.0065
475.00,0.0061
474.00,0.0063
473.00,0.0065
472.00,0.0064
471.00,0.0064
470.00,0.0069
469.00,0.0073
468.00,0.0071
467.00,0.0071
466.00,0.0073
465.00,0.0075
464.00,0.0070
463.00,0.0065
462.00,0.0066
461.00,0.0066
460.00,0.0063
459.00,0.0059
458.00,0.0061
457.00,0.0064
456.00,0.0064
455.00,0.0065
454.00,0.0071
453.00,0.0074
452.00,0.0069
451.00,0.0066
450.00,0.0067
449.00,0.0067
448.00,0.0062
447.00,0.0058
446.00,0.0060
445.00,0.0064
444.00,0.0064
443.00,0.0063
442.00,0.0065
441.00,0.0066
440.00,0.0061
439.00,0.0059
438.00,0.0061
437.00,0.0062
436.00,0.0056
435.00,0.0052
434.00,0.0053
433.00,0.0054
432.00,0.0049
431.00,0.0046
430.00,0.0050
429.00,0.0053
428.00,0.0051
427.00,0.0050
426.00,0.0055
425.00,0.0058
424.00,0.0051
423.00,0.0045
422.00,0.0048
421.00,0.0053
420.00,0.0050
419.00,0.0048
418.00,0.0056
417.00,0.0059
416.00,0.0051
415.00,0.0047
414.00,0.0053
413.00,0.0057
412.00,0.0049
411.00,0.0044
410.00,0.0053
409.00,0.0062
408.00,0.0058
407.00,0.0055
406.00,0.0065
405.00,0.0074
404.00,0.0066
403.00,0.0051
402.00,0.0045
401.00,0.0039
400.00,0.0025
