Created as New Dataset,Sample 955 By YargerLab Date Tuesday, July 29 2025
cm-1,A
4000.00,0.0075
3999.00,0.0075
3998.00,0.0075
3997.00,0.0075
3996.00,0.0075
3995.00,0.0075
3994.00,0.0075
3993.00,0.0075
3992.00,0.0074
3991.00,0.0074
3990.00,0.0074
3989.00,0.0075
3988.00,0.0075
3987.00,0.0075
3986.00,0.0075
3985.00,0.0075
3984.00,0.0075
3983.00,0.0075
3982.00,0.0075
3981.00,0.0074
3980.00,0.0074
3979.00,0.0074
3978.00,0.0075
3977.00,0.0075
3976.00,0.0075
3975.00,0.0076
3974.00,0.0076
3973.00,0.0076
3972.00,0.0076
3971.00,0.0077
3970.00,0.0077
3969.00,0.0077
3968.00,0.0076
3967.00,0.0076
3966.00,0.0076
3965.00,0.0076
3964.00,0.0076
3963.00,0.0076
3962.00,0.0076
3961.00,0.0075
3960.00,0.0075
3959.00,0.0075
3958.00,0.0075
3957.00,0.0075
3956.00,0.0075
3955.00,0.0075
3954.00,0.0075
3953.00,0.0075
3952.00,0.0075
3951.00,0.0075
3950.00,0.0075
3949.00,0.0075
3948.00,0.0076
3947.00,0.0076
3946.00,0.0075
3945.00,0.0075
3944.00,0.0075
3943.00,0.0075
3942.00,0.0075
3941.00,0.0075
3940.00,0.0075
3939.00,0.0075
3938.00,0.0075
3937.00,0.0075
3936.00,0.0074
3935.00,0.0074
3934.00,0.0074
3933.00,0.0074
3932.00,0.0074
3931.00,0.0075
3930.00,0.0075
3929.00,0.0075
3928.00,0.0074
3927.00,0.0074
3926.00,0.0075
3925.00,0.0075
3924.00,0.0075
3923.00,0.0075
3922.00,0.0075
3921.00,0.0075
3920.00,0.0075
3919.00,0.0075
3918.00,0.0075
3917.00,0.0075
3916.00,0.0075
3915.00,0.0075
3914.00,0.0075
3913.00,0.0075
3912.00,0.0075
3911.00,0.0075
3910.00,0.0075
3909.00,0.0075
3908.00,0.0075
3907.00,0.0074
3906.00,0.0074
3905.00,0.0074
3904.00,0.0074
3903.00,0.0075
3902.00,0.0075
3901.00,0.0075
3900.00,0.0075
3899.00,0.0075
3898.00,0.0075
3897.00,0.0075
3896.00,0.0074
3895.00,0.0074
3894.00,0.0074
3893.00,0.0074
3892.00,0.0074
3891.00,0.0074
3890.00,0.0074
3889.00,0.0074
3888.00,0.0074
3887.00,0.0074
3886.00,0.0074
3885.00,0.0074
3884.00,0.0074
3883.00,0.0074
3882.00,0.0074
3881.00,0.0074
3880.00,0.0074
3879.00,0.0074
3878.00,0.0074
3877.00,0.0074
3876.00,0.0073
3875.00,0.0073
3874.00,0.0073
3873.00,0.0073
3872.00,0.0073
3871.00,0.0073
3870.00,0.0073
3869.00,0.0072
3868.00,0.0073
3867.00,0.0073
3866.00,0.0073
3865.00,0.0073
3864.00,0.0073
3863.00,0.0073
3862.00,0.0073
3861.00,0.0073
3860.00,0.0073
3859.00,0.0073
3858.00,0.0073
3857.00,0.0074
3856.00,0.0074
3855.00,0.0074
3854.00,0.0074
3853.00,0.0074
3852.00,0.0073
3851.00,0.0073
3850.00,0.0073
3849.00,0.0073
3848.00,0.0073
3847.00,0.0073
3846.00,0.0073
3845.00,0.0073
3844.00,0.0072
3843.00,0.0072
3842.00,0.0072
3841.00,0.0072
3840.00,0.0072
3839.00,0.0072
3838.00,0.0072
3837.00,0.0072
3836.00,0.0072
3835.00,0.0072
3834.00,0.0072
3833.00,0.0072
3832.00,0.0072
3831.00,0.0072
3830.00,0.0072
3829.00,0.0073
3828.00,0.0073
3827.00,0.0072
3826.00,0.0072
3825.00,0.0072
3824.00,0.0072
3823.00,0.0072
3822.00,0.0072
3821.00,0.0072
3820.00,0.0071
3819.00,0.0071
3818.00,0.0072
3817.00,0.0072
3816.00,0.0072
3815.00,0.0072
3814.00,0.0072
3813.00,0.0073
3812.00,0.0073
3811.00,0.0073
3810.00,0.0072
3809.00,0.0072
3808.00,0.0072
3807.00,0.0072
3806.00,0.0071
3805.00,0.0071
3804.00,0.0071
3803.00,0.0071
3802.00,0.0071
3801.00,0.0071
3800.00,0.0071
3799.00,0.0071
3798.00,0.0071
3797.00,0.0072
3796.00,0.0072
3795.00,0.0072
3794.00,0.0072
3793.00,0.0072
3792.00,0.0073
3791.00,0.0073
3790.00,0.0072
3789.00,0.0072
3788.00,0.0072
3787.00,0.0073
3786.00,0.0073
3785.00,0.0073
3784.00,0.0072
3783.00,0.0072
3782.00,0.0072
3781.00,0.0072
3780.00,0.0072
3779.00,0.0072
3778.00,0.0072
3777.00,0.0072
3776.00,0.0072
3775.00,0.0072
3774.00,0.0072
3773.00,0.0072
3772.00,0.0072
3771.00,0.0072
3770.00,0.0072
3769.00,0.0072
3768.00,0.0073
3767.00,0.0073
3766.00,0.0073
3765.00,0.0073
3764.00,0.0073
3763.00,0.0073
3762.00,0.0073
3761.00,0.0073
3760.00,0.0073
3759.00,0.0072
3758.00,0.0072
3757.00,0.0072
3756.00,0.0071
3755.00,0.0071
3754.00,0.0071
3753.00,0.0071
3752.00,0.0070
3751.00,0.0070
3750.00,0.0070
3749.00,0.0070
3748.00,0.0070
3747.00,0.0071
3746.00,0.0072
3745.00,0.0072
3744.00,0.0071
3743.00,0.0071
3742.00,0.0071
3741.00,0.0071
3740.00,0.0071
3739.00,0.0071
3738.00,0.0071
3737.00,0.0071
3736.00,0.0070
3735.00,0.0070
3734.00,0.0070
3733.00,0.0071
3732.00,0.0071
3731.00,0.0070
3730.00,0.0071
3729.00,0.0071
3728.00,0.0071
3727.00,0.0071
3726.00,0.0071
3725.00,0.0071
3724.00,0.0071
3723.00,0.0071
3722.00,0.0071
3721.00,0.0071
3720.00,0.0071
3719.00,0.0071
3718.00,0.0071
3717.00,0.0070
3716.00,0.0070
3715.00,0.0070
3714.00,0.0070
3713.00,0.0070
3712.00,0.0069
3711.00,0.0069
3710.00,0.0069
3709.00,0.0069
3708.00,0.0069
3707.00,0.0069
3706.00,0.0069
3705.00,0.0069
3704.00,0.0069
3703.00,0.0069
3702.00,0.0069
3701.00,0.0069
3700.00,0.0069
3699.00,0.0069
3698.00,0.0069
3697.00,0.0069
3696.00,0.0069
3695.00,0.0069
3694.00,0.0069
3693.00,0.0069
3692.00,0.0069
3691.00,0.0069
3690.00,0.0069
3689.00,0.0069
3688.00,0.0069
3687.00,0.0069
3686.00,0.0069
3685.00,0.0069
3684.00,0.0069
3683.00,0.0069
3682.00,0.0069
3681.00,0.0069
3680.00,0.0069
3679.00,0.0068
3678.00,0.0068
3677.00,0.0068
3676.00,0.0068
3675.00,0.0067
3674.00,0.0068
3673.00,0.0068
3672.00,0.0069
3671.00,0.0069
3670.00,0.0068
3669.00,0.0069
3668.00,0.0069
3667.00,0.0070
3666.00,0.0070
3665.00,0.0070
3664.00,0.0069
3663.00,0.0069
3662.00,0.0069
3661.00,0.0069
3660.00,0.0069
3659.00,0.0069
3658.00,0.0069
3657.00,0.0069
3656.00,0.0069
3655.00,0.0068
3654.00,0.0069
3653.00,0.0069
3652.00,0.0069
3651.00,0.0068
3650.00,0.0068
3649.00,0.0067
3648.00,0.0067
3647.00,0.0068
3646.00,0.0068
3645.00,0.0068
3644.00,0.0068
3643.00,0.0068
3642.00,0.0068
3641.00,0.0068
3640.00,0.0068
3639.00,0.0069
3638.00,0.0069
3637.00,0.0069
3636.00,0.0069
3635.00,0.0069
3634.00,0.0069
3633.00,0.0069
3632.00,0.0069
3631.00,0.0069
3630.00,0.0070
3629.00,0.0070
3628.00,0.0070
3627.00,0.0070
3626.00,0.0069
3625.00,0.0069
3624.00,0.0069
3623.00,0.0069
3622.00,0.0069
3621.00,0.0070
3620.00,0.0070
3619.00,0.0069
3618.00,0.0069
3617.00,0.0069
3616.00,0.0069
3615.00,0.0069
3614.00,0.0069
3613.00,0.0070
3612.00,0.0070
3611.00,0.0071
3610.00,0.0071
3609.00,0.0071
3608.00,0.0072
3607.00,0.0072
3606.00,0.0072
3605.00,0.0072
3604.00,0.0072
3603.00,0.0071
3602.00,0.0071
3601.00,0.0071
3600.00,0.0070
3599.00,0.0070
3598.00,0.0070
3597.00,0.0071
3596.00,0.0071
3595.00,0.0071
3594.00,0.0071
3593.00,0.0071
3592.00,0.0071
3591.00,0.0071
3590.00,0.0071
3589.00,0.0071
3588.00,0.0071
3587.00,0.0072
3586.00,0.0072
3585.00,0.0073
3584.00,0.0073
3583.00,0.0073
3582.00,0.0073
3581.00,0.0073
3580.00,0.0073
3579.00,0.0073
3578.00,0.0073
3577.00,0.0073
3576.00,0.0073
3575.00,0.0074
3574.00,0.0074
3573.00,0.0074
3572.00,0.0074
3571.00,0.0074
3570.00,0.0074
3569.00,0.0075
3568.00,0.0075
3567.00,0.0075
3566.00,0.0075
3565.00,0.0076
3564.00,0.0076
3563.00,0.0076
3562.00,0.0076
3561.00,0.0077
3560.00,0.0077
3559.00,0.0077
3558.00,0.0077
3557.00,0.0078
3556.00,0.0078
3555.00,0.0078
3554.00,0.0079
3553.00,0.0079
3552.00,0.0079
3551.00,0.0079
3550.00,0.0080
3549.00,0.0080
3548.00,0.0081
3547.00,0.0081
3546.00,0.0082
3545.00,0.0082
3544.00,0.0083
3543.00,0.0083
3542.00,0.0084
3541.00,0.0084
3540.00,0.0084
3539.00,0.0084
3538.00,0.0084
3537.00,0.0085
3536.00,0.0085
3535.00,0.0086
3534.00,0.0086
3533.00,0.0087
3532.00,0.0087
3531.00,0.0087
3530.00,0.0087
3529.00,0.0088
3528.00,0.0089
3527.00,0.0089
3526.00,0.0090
3525.00,0.0091
3524.00,0.0092
3523.00,0.0092
3522.00,0.0092
3521.00,0.0093
3520.00,0.0093
3519.00,0.0093
3518.00,0.0094
3517.00,0.0095
3516.00,0.0095
3515.00,0.0095
3514.00,0.0095
3513.00,0.0096
3512.00,0.0096
3511.00,0.0097
3510.00,0.0098
3509.00,0.0098
3508.00,0.0099
3507.00,0.0099
3506.00,0.0100
3505.00,0.0100
3504.00,0.0101
3503.00,0.0102
3502.00,0.0103
3501.00,0.0103
3500.00,0.0104
3499.00,0.0104
3498.00,0.0105
3497.00,0.0106
3496.00,0.0107
3495.00,0.0108
3494.00,0.0109
3493.00,0.0109
3492.00,0.0110
3491.00,0.0111
3490.00,0.0112
3489.00,0.0113
3488.00,0.0114
3487.00,0.0115
3486.00,0.0117
3485.00,0.0118
3484.00,0.0119
3483.00,0.0120
3482.00,0.0122
3481.00,0.0123
3480.00,0.0124
3479.00,0.0125
3478.00,0.0127
3477.00,0.0128
3476.00,0.0129
3475.00,0.0131
3474.00,0.0132
3473.00,0.0134
3472.00,0.0135
3471.00,0.0136
3470.00,0.0138
3469.00,0.0139
3468.00,0.0141
3467.00,0.0143
3466.00,0.0144
3465.00,0.0146
3464.00,0.0148
3463.00,0.0149
3462.00,0.0151
3461.00,0.0153
3460.00,0.0155
3459.00,0.0156
3458.00,0.0158
3457.00,0.0160
3456.00,0.0162
3455.00,0.0164
3454.00,0.0166
3453.00,0.0168
3452.00,0.0170
3451.00,0.0172
3450.00,0.0173
3449.00,0.0175
3448.00,0.0177
3447.00,0.0180
3446.00,0.0182
3445.00,0.0184
3444.00,0.0186
3443.00,0.0189
3442.00,0.0191
3441.00,0.0193
3440.00,0.0196
3439.00,0.0198
3438.00,0.0201
3437.00,0.0203
3436.00,0.0206
3435.00,0.0209
3434.00,0.0211
3433.00,0.0214
3432.00,0.0217
3431.00,0.0220
3430.00,0.0223
3429.00,0.0226
3428.00,0.0230
3427.00,0.0233
3426.00,0.0236
3425.00,0.0239
3424.00,0.0243
3423.00,0.0246
3422.00,0.0249
3421.00,0.0252
3420.00,0.0256
3419.00,0.0260
3418.00,0.0263
3417.00,0.0266
3416.00,0.0270
3415.00,0.0273
3414.00,0.0276
3413.00,0.0278
3412.00,0.0281
3411.00,0.0284
3410.00,0.0286
3409.00,0.0289
3408.00,0.0291
3407.00,0.0293
3406.00,0.0295
3405.00,0.0297
3404.00,0.0298
3403.00,0.0300
3402.00,0.0301
3401.00,0.0302
3400.00,0.0303
3399.00,0.0303
3398.00,0.0303
3397.00,0.0303
3396.00,0.0302
3395.00,0.0302
3394.00,0.0302
3393.00,0.0301
3392.00,0.0300
3391.00,0.0299
3390.00,0.0298
3389.00,0.0296
3388.00,0.0295
3387.00,0.0293
3386.00,0.0291
3385.00,0.0290
3384.00,0.0288
3383.00,0.0286
3382.00,0.0284
3381.00,0.0282
3380.00,0.0280
3379.00,0.0278
3378.00,0.0276
3377.00,0.0274
3376.00,0.0272
3375.00,0.0270
3374.00,0.0268
3373.00,0.0266
3372.00,0.0264
3371.00,0.0262
3370.00,0.0261
3369.00,0.0259
3368.00,0.0257
3367.00,0.0256
3366.00,0.0254
3365.00,0.0252
3364.00,0.0251
3363.00,0.0249
3362.00,0.0247
3361.00,0.0246
3360.00,0.0245
3359.00,0.0243
3358.00,0.0242
3357.00,0.0241
3356.00,0.0240
3355.00,0.0239
3354.00,0.0238
3353.00,0.0236
3352.00,0.0235
3351.00,0.0234
3350.00,0.0233
3349.00,0.0232
3348.00,0.0231
3347.00,0.0231
3346.00,0.0230
3345.00,0.0230
3344.00,0.0229
3343.00,0.0229
3342.00,0.0228
3341.00,0.0228
3340.00,0.0227
3339.00,0.0227
3338.00,0.0227
3337.00,0.0226
3336.00,0.0226
3335.00,0.0226
3334.00,0.0226
3333.00,0.0226
3332.00,0.0226
3331.00,0.0226
3330.00,0.0226
3329.00,0.0226
3328.00,0.0226
3327.00,0.0226
3326.00,0.0226
3325.00,0.0227
3324.00,0.0227
3323.00,0.0227
3322.00,0.0228
3321.00,0.0228
3320.00,0.0228
3319.00,0.0229
3318.00,0.0229
3317.00,0.0230
3316.00,0.0231
3315.00,0.0231
3314.00,0.0232
3313.00,0.0233
3312.00,0.0234
3311.00,0.0234
3310.00,0.0235
3309.00,0.0236
3308.00,0.0237
3307.00,0.0238
3306.00,0.0239
3305.00,0.0240
3304.00,0.0241
3303.00,0.0242
3302.00,0.0243
3301.00,0.0244
3300.00,0.0245
3299.00,0.0247
3298.00,0.0248
3297.00,0.0249
3296.00,0.0250
3295.00,0.0251
3294.00,0.0252
3293.00,0.0253
3292.00,0.0254
3291.00,0.0256
3290.00,0.0257
3289.00,0.0258
3288.00,0.0259
3287.00,0.0261
3286.00,0.0262
3285.00,0.0264
3284.00,0.0265
3283.00,0.0267
3282.00,0.0268
3281.00,0.0269
3280.00,0.0271
3279.00,0.0272
3278.00,0.0273
3277.00,0.0275
3276.00,0.0276
3275.00,0.0277
3274.00,0.0279
3273.00,0.0280
3272.00,0.0282
3271.00,0.0283
3270.00,0.0285
3269.00,0.0286
3268.00,0.0287
3267.00,0.0288
3266.00,0.0289
3265.00,0.0291
3264.00,0.0292
3263.00,0.0294
3262.00,0.0295
3261.00,0.0297
3260.00,0.0299
3259.00,0.0300
3258.00,0.0301
3257.00,0.0303
3256.00,0.0304
3255.00,0.0305
3254.00,0.0307
3253.00,0.0309
3252.00,0.0311
3251.00,0.0312
3250.00,0.0313
3249.00,0.0314
3248.00,0.0315
3247.00,0.0316
3246.00,0.0317
3245.00,0.0318
3244.00,0.0319
3243.00,0.0321
3242.00,0.0322
3241.00,0.0323
3240.00,0.0323
3239.00,0.0324
3238.00,0.0325
3237.00,0.0325
3236.00,0.0324
3235.00,0.0324
3234.00,0.0324
3233.00,0.0324
3232.00,0.0325
3231.00,0.0325
3230.00,0.0326
3229.00,0.0326
3228.00,0.0326
3227.00,0.0327
3226.00,0.0327
3225.00,0.0327
3224.00,0.0327
3223.00,0.0327
3222.00,0.0326
3221.00,0.0326
3220.00,0.0325
3219.00,0.0324
3218.00,0.0323
3217.00,0.0323
3216.00,0.0322
3215.00,0.0321
3214.00,0.0320
3213.00,0.0319
3212.00,0.0318
3211.00,0.0317
3210.00,0.0316
3209.00,0.0315
3208.00,0.0314
3207.00,0.0312
3206.00,0.0311
3205.00,0.0309
3204.00,0.0307
3203.00,0.0306
3202.00,0.0304
3201.00,0.0302
3200.00,0.0301
3199.00,0.0299
3198.00,0.0297
3197.00,0.0296
3196.00,0.0294
3195.00,0.0292
3194.00,0.0291
3193.00,0.0289
3192.00,0.0287
3191.00,0.0285
3190.00,0.0283
3189.00,0.0281
3188.00,0.0280
3187.00,0.0278
3186.00,0.0277
3185.00,0.0275
3184.00,0.0273
3183.00,0.0271
3182.00,0.0269
3181.00,0.0267
3180.00,0.0265
3179.00,0.0263
3178.00,0.0261
3177.00,0.0260
3176.00,0.0258
3175.00,0.0256
3174.00,0.0254
3173.00,0.0252
3172.00,0.0250
3171.00,0.0248
3170.00,0.0246
3169.00,0.0244
3168.00,0.0243
3167.00,0.0241
3166.00,0.0239
3165.00,0.0237
3164.00,0.0234
3163.00,0.0232
3162.00,0.0230
3161.00,0.0228
3160.00,0.0226
3159.00,0.0224
3158.00,0.0222
3157.00,0.0220
3156.00,0.0218
3155.00,0.0215
3154.00,0.0213
3153.00,0.0211
3152.00,0.0209
3151.00,0.0208
3150.00,0.0206
3149.00,0.0204
3148.00,0.0203
3147.00,0.0201
3146.00,0.0199
3145.00,0.0198
3144.00,0.0196
3143.00,0.0194
3142.00,0.0192
3141.00,0.0191
3140.00,0.0189
3139.00,0.0187
3138.00,0.0186
3137.00,0.0185
3136.00,0.0184
3135.00,0.0182
3134.00,0.0181
3133.00,0.0180
3132.00,0.0179
3131.00,0.0177
3130.00,0.0176
3129.00,0.0175
3128.00,0.0175
3127.00,0.0174
3126.00,0.0172
3125.00,0.0171
3124.00,0.0170
3123.00,0.0169
3122.00,0.0168
3121.00,0.0167
3120.00,0.0166
3119.00,0.0165
3118.00,0.0164
3117.00,0.0163
3116.00,0.0161
3115.00,0.0160
3114.00,0.0159
3113.00,0.0157
3112.00,0.0156
3111.00,0.0155
3110.00,0.0153
3109.00,0.0152
3108.00,0.0151
3107.00,0.0150
3106.00,0.0149
3105.00,0.0147
3104.00,0.0146
3103.00,0.0145
3102.00,0.0145
3101.00,0.0144
3100.00,0.0143
3099.00,0.0143
3098.00,0.0142
3097.00,0.0142
3096.00,0.0141
3095.00,0.0141
3094.00,0.0141
3093.00,0.0142
3092.00,0.0142
3091.00,0.0143
3090.00,0.0143
3089.00,0.0144
3088.00,0.0144
3087.00,0.0144
3086.00,0.0144
3085.00,0.0144
3084.00,0.0144
3083.00,0.0144
3082.00,0.0144
3081.00,0.0143
3080.00,0.0143
3079.00,0.0142
3078.00,0.0142
3077.00,0.0141
3076.00,0.0140
3075.00,0.0140
3074.00,0.0140
3073.00,0.0139
3072.00,0.0139
3071.00,0.0138
3070.00,0.0138
3069.00,0.0137
3068.00,0.0137
3067.00,0.0136
3066.00,0.0136
3065.00,0.0136
3064.00,0.0137
3063.00,0.0137
3062.00,0.0137
3061.00,0.0137
3060.00,0.0138
3059.00,0.0138
3058.00,0.0138
3057.00,0.0139
3056.00,0.0139
3055.00,0.0139
3054.00,0.0139
3053.00,0.0139
3052.00,0.0139
3051.00,0.0138
3050.00,0.0138
3049.00,0.0138
3048.00,0.0137
3047.00,0.0137
3046.00,0.0136
3045.00,0.0136
3044.00,0.0136
3043.00,0.0136
3042.00,0.0137
3041.00,0.0138
3040.00,0.0138
3039.00,0.0140
3038.00,0.0141
3037.00,0.0142
3036.00,0.0143
3035.00,0.0145
3034.00,0.0146
3033.00,0.0147
3032.00,0.0147
3031.00,0.0147
3030.00,0.0146
3029.00,0.0144
3028.00,0.0143
3027.00,0.0141
3026.00,0.0139
3025.00,0.0137
3024.00,0.0136
3023.00,0.0134
3022.00,0.0132
3021.00,0.0130
3020.00,0.0129
3019.00,0.0128
3018.00,0.0127
3017.00,0.0126
3016.00,0.0126
3015.00,0.0125
3014.00,0.0125
3013.00,0.0125
3012.00,0.0125
3011.00,0.0126
3010.00,0.0127
3009.00,0.0128
3008.00,0.0129
3007.00,0.0131
3006.00,0.0133
3005.00,0.0136
3004.00,0.0138
3003.00,0.0142
3002.00,0.0145
3001.00,0.0149
3000.00,0.0154
2999.00,0.0159
2998.00,0.0164
2997.00,0.0171
2996.00,0.0177
2995.00,0.0183
2994.00,0.0188
2993.00,0.0193
2992.00,0.0197
2991.00,0.0200
2990.00,0.0203
2989.00,0.0206
2988.00,0.0210
2987.00,0.0214
2986.00,0.0220
2985.00,0.0228
2984.00,0.0237
2983.00,0.0248
2982.00,0.0260
2981.00,0.0273
2980.00,0.0284
2979.00,0.0292
2978.00,0.0298
2977.00,0.0301
2976.00,0.0304
2975.00,0.0310
2974.00,0.0321
2973.00,0.0334
2972.00,0.0349
2971.00,0.0364
2970.00,0.0376
2969.00,0.0384
2968.00,0.0390
2967.00,0.0395
2966.00,0.0400
2965.00,0.0407
2964.00,0.0414
2963.00,0.0423
2962.00,0.0430
2961.00,0.0436
2960.00,0.0438
2959.00,0.0435
2958.00,0.0429
2957.00,0.0418
2956.00,0.0405
2955.00,0.0390
2954.00,0.0375
2953.00,0.0362
2952.00,0.0350
2951.00,0.0340
2950.00,0.0333
2949.00,0.0329
2948.00,0.0327
2947.00,0.0329
2946.00,0.0333
2945.00,0.0339
2944.00,0.0348
2943.00,0.0358
2942.00,0.0369
2941.00,0.0382
2940.00,0.0397
2939.00,0.0413
2938.00,0.0433
2937.00,0.0456
2936.00,0.0481
2935.00,0.0509
2934.00,0.0539
2933.00,0.0569
2932.00,0.0600
2931.00,0.0629
2930.00,0.0655
2929.00,0.0677
2928.00,0.0693
2927.00,0.0702
2926.00,0.0705
2925.00,0.0700
2924.00,0.0690
2923.00,0.0676
2922.00,0.0660
2921.00,0.0641
2920.00,0.0622
2919.00,0.0601
2918.00,0.0580
2917.00,0.0559
2916.00,0.0538
2915.00,0.0519
2914.00,0.0501
2913.00,0.0485
2912.00,0.0469
2911.00,0.0455
2910.00,0.0442
2909.00,0.0430
2908.00,0.0419
2907.00,0.0408
2906.00,0.0397
2905.00,0.0387
2904.00,0.0378
2903.00,0.0369
2902.00,0.0360
2901.00,0.0352
2900.00,0.0344
2899.00,0.0336
2898.00,0.0329
2897.00,0.0322
2896.00,0.0316
2895.00,0.0310
2894.00,0.0305
2893.00,0.0300
2892.00,0.0295
2891.00,0.0290
2890.00,0.0286
2889.00,0.0282
2888.00,0.0278
2887.00,0.0274
2886.00,0.0271
2885.00,0.0269
2884.00,0.0267
2883.00,0.0267
2882.00,0.0267
2881.00,0.0270
2880.00,0.0274
2879.00,0.0280
2878.00,0.0289
2877.00,0.0299
2876.00,0.0309
2875.00,0.0319
2874.00,0.0328
2873.00,0.0334
2872.00,0.0337
2871.00,0.0338
2870.00,0.0337
2869.00,0.0335
2868.00,0.0333
2867.00,0.0334
2866.00,0.0337
2865.00,0.0344
2864.00,0.0356
2863.00,0.0373
2862.00,0.0393
2861.00,0.0417
2860.00,0.0442
2859.00,0.0466
2858.00,0.0486
2857.00,0.0501
2856.00,0.0511
2855.00,0.0516
2854.00,0.0516
2853.00,0.0511
2852.00,0.0503
2851.00,0.0490
2850.00,0.0471
2849.00,0.0448
2848.00,0.0423
2847.00,0.0397
2846.00,0.0371
2845.00,0.0348
2844.00,0.0327
2843.00,0.0308
2842.00,0.0291
2841.00,0.0276
2840.00,0.0263
2839.00,0.0251
2838.00,0.0241
2837.00,0.0233
2836.00,0.0226
2835.00,0.0220
2834.00,0.0214
2833.00,0.0209
2832.00,0.0204
2831.00,0.0200
2830.00,0.0196
2829.00,0.0192
2828.00,0.0188
2827.00,0.0185
2826.00,0.0182
2825.00,0.0179
2824.00,0.0176
2823.00,0.0174
2822.00,0.0171
2821.00,0.0169
2820.00,0.0167
2819.00,0.0165
2818.00,0.0164
2817.00,0.0162
2816.00,0.0161
2815.00,0.0159
2814.00,0.0158
2813.00,0.0156
2812.00,0.0155
2811.00,0.0153
2810.00,0.0152
2809.00,0.0151
2808.00,0.0150
2807.00,0.0150
2806.00,0.0149
2805.00,0.0148
2804.00,0.0147
2803.00,0.0146
2802.00,0.0146
2801.00,0.0145
2800.00,0.0144
2799.00,0.0143
2798.00,0.0142
2797.00,0.0141
2796.00,0.0140
2795.00,0.0139
2794.00,0.0138
2793.00,0.0137
2792.00,0.0137
2791.00,0.0136
2790.00,0.0135
2789.00,0.0134
2788.00,0.0133
2787.00,0.0133
2786.00,0.0132
2785.00,0.0131
2784.00,0.0131
2783.00,0.0130
2782.00,0.0129
2781.00,0.0129
2780.00,0.0128
2779.00,0.0128
2778.00,0.0127
2777.00,0.0127
2776.00,0.0126
2775.00,0.0126
2774.00,0.0126
2773.00,0.0126
2772.00,0.0126
2771.00,0.0125
2770.00,0.0125
2769.00,0.0124
2768.00,0.0124
2767.00,0.0124
2766.00,0.0123
2765.00,0.0123
2764.00,0.0123
2763.00,0.0123
2762.00,0.0123
2761.00,0.0123
2760.00,0.0123
2759.00,0.0123
2758.00,0.0123
2757.00,0.0123
2756.00,0.0123
2755.00,0.0123
2754.00,0.0123
2753.00,0.0123
2752.00,0.0124
2751.00,0.0124
2750.00,0.0123
2749.00,0.0123
2748.00,0.0123
2747.00,0.0123
2746.00,0.0124
2745.00,0.0124
2744.00,0.0125
2743.00,0.0125
2742.00,0.0125
2741.00,0.0126
2740.00,0.0126
2739.00,0.0127
2738.00,0.0128
2737.00,0.0129
2736.00,0.0129
2735.00,0.0130
2734.00,0.0131
2733.00,0.0132
2732.00,0.0133
2731.00,0.0134
2730.00,0.0134
2729.00,0.0134
2728.00,0.0134
2727.00,0.0133
2726.00,0.0133
2725.00,0.0132
2724.00,0.0131
2723.00,0.0131
2722.00,0.0130
2721.00,0.0130
2720.00,0.0129
2719.00,0.0129
2718.00,0.0128
2717.00,0.0127
2716.00,0.0127
2715.00,0.0126
2714.00,0.0126
2713.00,0.0126
2712.00,0.0125
2711.00,0.0125
2710.00,0.0125
2709.00,0.0125
2708.00,0.0125
2707.00,0.0125
2706.00,0.0125
2705.00,0.0125
2704.00,0.0125
2703.00,0.0125
2702.00,0.0124
2701.00,0.0124
2700.00,0.0123
2699.00,0.0123
2698.00,0.0123
2697.00,0.0122
2696.00,0.0122
2695.00,0.0122
2694.00,0.0122
2693.00,0.0121
2692.00,0.0121
2691.00,0.0121
2690.00,0.0120
2689.00,0.0120
2688.00,0.0120
2687.00,0.0119
2686.00,0.0119
2685.00,0.0118
2684.00,0.0118
2683.00,0.0118
2682.00,0.0118
2681.00,0.0117
2680.00,0.0117
2679.00,0.0117
2678.00,0.0117
2677.00,0.0117
2676.00,0.0117
2675.00,0.0118
2674.00,0.0118
2673.00,0.0118
2672.00,0.0118
2671.00,0.0118
2670.00,0.0119
2669.00,0.0119
2668.00,0.0120
2667.00,0.0120
2666.00,0.0121
2665.00,0.0122
2664.00,0.0122
2663.00,0.0123
2662.00,0.0123
2661.00,0.0124
2660.00,0.0124
2659.00,0.0124
2658.00,0.0124
2657.00,0.0124
2656.00,0.0125
2655.00,0.0125
2654.00,0.0125
2653.00,0.0125
2652.00,0.0125
2651.00,0.0125
2650.00,0.0125
2649.00,0.0125
2648.00,0.0125
2647.00,0.0125
2646.00,0.0125
2645.00,0.0125
2644.00,0.0124
2643.00,0.0124
2642.00,0.0124
2641.00,0.0124
2640.00,0.0123
2639.00,0.0123
2638.00,0.0122
2637.00,0.0122
2636.00,0.0121
2635.00,0.0121
2634.00,0.0120
2633.00,0.0120
2632.00,0.0119
2631.00,0.0119
2630.00,0.0118
2629.00,0.0117
2628.00,0.0117
2627.00,0.0116
2626.00,0.0116
2625.00,0.0116
2624.00,0.0116
2623.00,0.0115
2622.00,0.0115
2621.00,0.0115
2620.00,0.0114
2619.00,0.0114
2618.00,0.0114
2617.00,0.0114
2616.00,0.0114
2615.00,0.0114
2614.00,0.0114
2613.00,0.0113
2612.00,0.0113
2611.00,0.0113
2610.00,0.0114
2609.00,0.0114
2608.00,0.0114
2607.00,0.0114
2606.00,0.0115
2605.00,0.0115
2604.00,0.0115
2603.00,0.0115
2602.00,0.0115
2601.00,0.0115
2600.00,0.0116
2599.00,0.0116
2598.00,0.0116
2597.00,0.0116
2596.00,0.0116
2595.00,0.0116
2594.00,0.0116
2593.00,0.0116
2592.00,0.0116
2591.00,0.0117
2590.00,0.0117
2589.00,0.0117
2588.00,0.0117
2587.00,0.0117
2586.00,0.0117
2585.00,0.0117
2584.00,0.0117
2583.00,0.0117
2582.00,0.0116
2581.00,0.0116
2580.00,0.0116
2579.00,0.0115
2578.00,0.0115
2577.00,0.0115
2576.00,0.0115
2575.00,0.0114
2574.00,0.0114
2573.00,0.0113
2572.00,0.0113
2571.00,0.0114
2570.00,0.0114
2569.00,0.0114
2568.00,0.0114
2567.00,0.0114
2566.00,0.0114
2565.00,0.0114
2564.00,0.0114
2563.00,0.0113
2562.00,0.0113
2561.00,0.0112
2560.00,0.0112
2559.00,0.0111
2558.00,0.0110
2557.00,0.0110
2556.00,0.0109
2555.00,0.0109
2554.00,0.0108
2553.00,0.0108
2552.00,0.0108
2551.00,0.0108
2550.00,0.0108
2549.00,0.0107
2548.00,0.0107
2547.00,0.0107
2546.00,0.0107
2545.00,0.0108
2544.00,0.0108
2543.00,0.0108
2542.00,0.0108
2541.00,0.0108
2540.00,0.0108
2539.00,0.0108
2538.00,0.0108
2537.00,0.0108
2536.00,0.0109
2535.00,0.0109
2534.00,0.0109
2533.00,0.0109
2532.00,0.0109
2531.00,0.0108
2530.00,0.0108
2529.00,0.0108
2528.00,0.0108
2527.00,0.0107
2526.00,0.0107
2525.00,0.0106
2524.00,0.0106
2523.00,0.0105
2522.00,0.0105
2521.00,0.0105
2520.00,0.0105
2519.00,0.0105
2518.00,0.0105
2517.00,0.0104
2516.00,0.0104
2515.00,0.0104
2514.00,0.0103
2513.00,0.0103
2512.00,0.0103
2511.00,0.0102
2510.00,0.0102
2509.00,0.0102
2508.00,0.0101
2507.00,0.0101
2506.00,0.0100
2505.00,0.0100
2504.00,0.0100
2503.00,0.0100
2502.00,0.0100
2501.00,0.0100
2500.00,0.0100
2499.00,0.0100
2498.00,0.0100
2497.00,0.0100
2496.00,0.0099
2495.00,0.0099
2494.00,0.0099
2493.00,0.0098
2492.00,0.0098
2491.00,0.0098
2490.00,0.0098
2489.00,0.0098
2488.00,0.0098
2487.00,0.0098
2486.00,0.0098
2485.00,0.0098
2484.00,0.0098
2483.00,0.0098
2482.00,0.0098
2481.00,0.0098
2480.00,0.0098
2479.00,0.0097
2478.00,0.0097
2477.00,0.0097
2476.00,0.0097
2475.00,0.0097
2474.00,0.0096
2473.00,0.0096
2472.00,0.0096
2471.00,0.0096
2470.00,0.0096
2469.00,0.0095
2468.00,0.0095
2467.00,0.0095
2466.00,0.0095
2465.00,0.0095
2464.00,0.0095
2463.00,0.0095
2462.00,0.0095
2461.00,0.0096
2460.00,0.0096
2459.00,0.0096
2458.00,0.0096
2457.00,0.0096
2456.00,0.0097
2455.00,0.0097
2454.00,0.0096
2453.00,0.0096
2452.00,0.0097
2451.00,0.0097
2450.00,0.0097
2449.00,0.0097
2448.00,0.0097
2447.00,0.0097
2446.00,0.0096
2445.00,0.0096
2444.00,0.0095
2443.00,0.0095
2442.00,0.0094
2441.00,0.0094
2440.00,0.0094
2439.00,0.0094
2438.00,0.0093
2437.00,0.0093
2436.00,0.0093
2435.00,0.0092
2434.00,0.0092
2433.00,0.0092
2432.00,0.0092
2431.00,0.0092
2430.00,0.0092
2429.00,0.0092
2428.00,0.0092
2427.00,0.0092
2426.00,0.0092
2425.00,0.0092
2424.00,0.0091
2423.00,0.0091
2422.00,0.0091
2421.00,0.0091
2420.00,0.0090
2419.00,0.0090
2418.00,0.0090
2417.00,0.0090
2416.00,0.0090
2415.00,0.0091
2414.00,0.0091
2413.00,0.0091
2412.00,0.0091
2411.00,0.0091
2410.00,0.0091
2409.00,0.0091
2408.00,0.0091
2407.00,0.0090
2406.00,0.0090
2405.00,0.0090
2404.00,0.0090
2403.00,0.0090
2402.00,0.0090
2401.00,0.0090
2400.00,0.0090
2399.00,0.0089
2398.00,0.0089
2397.00,0.0089
2396.00,0.0089
2395.00,0.0089
2394.00,0.0089
2393.00,0.0089
2392.00,0.0089
2391.00,0.0089
2390.00,0.0089
2389.00,0.0089
2388.00,0.0089
2387.00,0.0089
2386.00,0.0088
2385.00,0.0088
2384.00,0.0087
2383.00,0.0087
2382.00,0.0086
2381.00,0.0086
2380.00,0.0085
2379.00,0.0085
2378.00,0.0084
2377.00,0.0083
2376.00,0.0083
2375.00,0.0083
2374.00,0.0084
2373.00,0.0084
2372.00,0.0084
2371.00,0.0085
2370.00,0.0085
2369.00,0.0085
2368.00,0.0085
2367.00,0.0085
2366.00,0.0085
2365.00,0.0085
2364.00,0.0085
2363.00,0.0085
2362.00,0.0085
2361.00,0.0085
2360.00,0.0085
2359.00,0.0085
2358.00,0.0086
2357.00,0.0086
2356.00,0.0086
2355.00,0.0085
2354.00,0.0085
2353.00,0.0085
2352.00,0.0086
2351.00,0.0085
2350.00,0.0085
2349.00,0.0085
2348.00,0.0086
2347.00,0.0087
2346.00,0.0087
2345.00,0.0087
2344.00,0.0087
2343.00,0.0087
2342.00,0.0087
2341.00,0.0087
2340.00,0.0088
2339.00,0.0088
2338.00,0.0088
2337.00,0.0088
2336.00,0.0088
2335.00,0.0087
2334.00,0.0087
2333.00,0.0087
2332.00,0.0086
2331.00,0.0086
2330.00,0.0086
2329.00,0.0088
2328.00,0.0091
2327.00,0.0095
2326.00,0.0097
2325.00,0.0098
2324.00,0.0097
2323.00,0.0095
2322.00,0.0093
2321.00,0.0091
2320.00,0.0090
2319.00,0.0089
2318.00,0.0089
2317.00,0.0089
2316.00,0.0089
2315.00,0.0088
2314.00,0.0088
2313.00,0.0087
2312.00,0.0086
2311.00,0.0086
2310.00,0.0086
2309.00,0.0086
2308.00,0.0086
2307.00,0.0086
2306.00,0.0087
2305.00,0.0087
2304.00,0.0088
2303.00,0.0088
2302.00,0.0088
2301.00,0.0089
2300.00,0.0089
2299.00,0.0090
2298.00,0.0091
2297.00,0.0091
2296.00,0.0092
2295.00,0.0093
2294.00,0.0093
2293.00,0.0094
2292.00,0.0095
2291.00,0.0096
2290.00,0.0097
2289.00,0.0097
2288.00,0.0097
2287.00,0.0097
2286.00,0.0097
2285.00,0.0097
2284.00,0.0096
2283.00,0.0096
2282.00,0.0095
2281.00,0.0094
2280.00,0.0093
2279.00,0.0093
2278.00,0.0092
2277.00,0.0091
2276.00,0.0091
2275.00,0.0090
2274.00,0.0090
2273.00,0.0089
2272.00,0.0089
2271.00,0.0089
2270.00,0.0088
2269.00,0.0088
2268.00,0.0087
2267.00,0.0087
2266.00,0.0086
2265.00,0.0085
2264.00,0.0084
2263.00,0.0084
2262.00,0.0084
2261.00,0.0084
2260.00,0.0084
2259.00,0.0084
2258.00,0.0083
2257.00,0.0082
2256.00,0.0081
2255.00,0.0081
2254.00,0.0081
2253.00,0.0081
2252.00,0.0082
2251.00,0.0082
2250.00,0.0082
2249.00,0.0082
2248.00,0.0081
2247.00,0.0081
2246.00,0.0081
2245.00,0.0082
2244.00,0.0082
2243.00,0.0083
2242.00,0.0083
2241.00,0.0083
2240.00,0.0082
2239.00,0.0082
2238.00,0.0083
2237.00,0.0084
2236.00,0.0085
2235.00,0.0086
2234.00,0.0086
2233.00,0.0085
2232.00,0.0085
2231.00,0.0085
2230.00,0.0084
2229.00,0.0083
2228.00,0.0082
2227.00,0.0082
2226.00,0.0082
2225.00,0.0082
2224.00,0.0082
2223.00,0.0083
2222.00,0.0083
2221.00,0.0084
2220.00,0.0084
2219.00,0.0083
2218.00,0.0082
2217.00,0.0082
2216.00,0.0082
2215.00,0.0082
2214.00,0.0082
2213.00,0.0082
2212.00,0.0081
2211.00,0.0081
2210.00,0.0081
2209.00,0.0082
2208.00,0.0082
2207.00,0.0082
2206.00,0.0082
2205.00,0.0082
2204.00,0.0082
2203.00,0.0082
2202.00,0.0081
2201.00,0.0080
2200.00,0.0080
2199.00,0.0080
2198.00,0.0080
2197.00,0.0080
2196.00,0.0081
2195.00,0.0082
2194.00,0.0082
2193.00,0.0082
2192.00,0.0082
2191.00,0.0082
2190.00,0.0083
2189.00,0.0083
2188.00,0.0083
2187.00,0.0083
2186.00,0.0082
2185.00,0.0081
2184.00,0.0080
2183.00,0.0079
2182.00,0.0077
2181.00,0.0077
2180.00,0.0078
2179.00,0.0079
2178.00,0.0078
2177.00,0.0077
2176.00,0.0077
2175.00,0.0077
2174.00,0.0078
2173.00,0.0080
2172.00,0.0082
2171.00,0.0083
2170.00,0.0085
2169.00,0.0087
2168.00,0.0088
2167.00,0.0090
2166.00,0.0091
2165.00,0.0092
2164.00,0.0094
2163.00,0.0092
2162.00,0.0085
2161.00,0.0074
2160.00,0.0060
2159.00,0.0049
2158.00,0.0044
2157.00,0.0045
2156.00,0.0048
2155.00,0.0052
2154.00,0.0055
2153.00,0.0059
2152.00,0.0063
2151.00,0.0064
2150.00,0.0063
2149.00,0.0061
2148.00,0.0059
2147.00,0.0059
2146.00,0.0059
2145.00,0.0060
2144.00,0.0062
2143.00,0.0063
2142.00,0.0064
2141.00,0.0064
2140.00,0.0064
2139.00,0.0064
2138.00,0.0062
2137.00,0.0060
2136.00,0.0058
2135.00,0.0056
2134.00,0.0055
2133.00,0.0057
2132.00,0.0059
2131.00,0.0061
2130.00,0.0063
2129.00,0.0064
2128.00,0.0065
2127.00,0.0065
2126.00,0.0066
2125.00,0.0066
2124.00,0.0066
2123.00,0.0067
2122.00,0.0067
2121.00,0.0068
2120.00,0.0069
2119.00,0.0070
2118.00,0.0071
2117.00,0.0072
2116.00,0.0072
2115.00,0.0072
2114.00,0.0072
2113.00,0.0071
2112.00,0.0071
2111.00,0.0071
2110.00,0.0071
2109.00,0.0071
2108.00,0.0071
2107.00,0.0071
2106.00,0.0071
2105.00,0.0071
2104.00,0.0071
2103.00,0.0071
2102.00,0.0072
2101.00,0.0071
2100.00,0.0071
2099.00,0.0070
2098.00,0.0068
2097.00,0.0066
2096.00,0.0064
2095.00,0.0064
2094.00,0.0065
2093.00,0.0067
2092.00,0.0068
2091.00,0.0069
2090.00,0.0069
2089.00,0.0069
2088.00,0.0069
2087.00,0.0070
2086.00,0.0070
2085.00,0.0071
2084.00,0.0072
2083.00,0.0074
2082.00,0.0075
2081.00,0.0075
2080.00,0.0075
2079.00,0.0075
2078.00,0.0075
2077.00,0.0075
2076.00,0.0074
2075.00,0.0073
2074.00,0.0072
2073.00,0.0072
2072.00,0.0072
2071.00,0.0072
2070.00,0.0072
2069.00,0.0072
2068.00,0.0071
2067.00,0.0071
2066.00,0.0071
2065.00,0.0071
2064.00,0.0071
2063.00,0.0071
2062.00,0.0071
2061.00,0.0070
2060.00,0.0070
2059.00,0.0068
2058.00,0.0067
2057.00,0.0066
2056.00,0.0066
2055.00,0.0067
2054.00,0.0069
2053.00,0.0071
2052.00,0.0073
2051.00,0.0073
2050.00,0.0071
2049.00,0.0068
2048.00,0.0067
2047.00,0.0067
2046.00,0.0067
2045.00,0.0067
2044.00,0.0068
2043.00,0.0069
2042.00,0.0069
2041.00,0.0070
2040.00,0.0071
2039.00,0.0070
2038.00,0.0069
2037.00,0.0068
2036.00,0.0067
2035.00,0.0065
2034.00,0.0063
2033.00,0.0062
2032.00,0.0062
2031.00,0.0061
2030.00,0.0061
2029.00,0.0062
2028.00,0.0063
2027.00,0.0063
2026.00,0.0064
2025.00,0.0064
2024.00,0.0065
2023.00,0.0065
2022.00,0.0064
2021.00,0.0063
2020.00,0.0062
2019.00,0.0062
2018.00,0.0061
2017.00,0.0061
2016.00,0.0060
2015.00,0.0060
2014.00,0.0060
2013.00,0.0061
2012.00,0.0062
2011.00,0.0062
2010.00,0.0061
2009.00,0.0060
2008.00,0.0058
2007.00,0.0057
2006.00,0.0055
2005.00,0.0054
2004.00,0.0054
2003.00,0.0054
2002.00,0.0055
2001.00,0.0057
2000.00,0.0059
1999.00,0.0062
1998.00,0.0064
1997.00,0.0067
1996.00,0.0068
1995.00,0.0068
1994.00,0.0066
1993.00,0.0065
1992.00,0.0066
1991.00,0.0067
1990.00,0.0069
1989.00,0.0069
1988.00,0.0070
1987.00,0.0070
1986.00,0.0070
1985.00,0.0072
1984.00,0.0075
1983.00,0.0078
1982.00,0.0080
1981.00,0.0081
1980.00,0.0080
1979.00,0.0076
1978.00,0.0070
1977.00,0.0065
1976.00,0.0062
1975.00,0.0060
1974.00,0.0060
1973.00,0.0061
1972.00,0.0062
1971.00,0.0062
1970.00,0.0062
1969.00,0.0061
1968.00,0.0061
1967.00,0.0061
1966.00,0.0061
1965.00,0.0061
1964.00,0.0061
1963.00,0.0061
1962.00,0.0060
1961.00,0.0059
1960.00,0.0058
1959.00,0.0058
1958.00,0.0058
1957.00,0.0060
1956.00,0.0061
1955.00,0.0062
1954.00,0.0062
1953.00,0.0062
1952.00,0.0062
1951.00,0.0062
1950.00,0.0062
1949.00,0.0063
1948.00,0.0063
1947.00,0.0064
1946.00,0.0063
1945.00,0.0063
1944.00,0.0062
1943.00,0.0063
1942.00,0.0063
1941.00,0.0063
1940.00,0.0064
1939.00,0.0063
1938.00,0.0063
1937.00,0.0064
1936.00,0.0065
1935.00,0.0065
1934.00,0.0065
1933.00,0.0066
1932.00,0.0067
1931.00,0.0067
1930.00,0.0067
1929.00,0.0067
1928.00,0.0067
1927.00,0.0067
1926.00,0.0067
1925.00,0.0067
1924.00,0.0068
1923.00,0.0069
1922.00,0.0070
1921.00,0.0070
1920.00,0.0070
1919.00,0.0070
1918.00,0.0070
1917.00,0.0070
1916.00,0.0071
1915.00,0.0072
1914.00,0.0073
1913.00,0.0075
1912.00,0.0078
1911.00,0.0082
1910.00,0.0087
1909.00,0.0091
1908.00,0.0093
1907.00,0.0092
1906.00,0.0088
1905.00,0.0085
1904.00,0.0081
1903.00,0.0079
1902.00,0.0077
1901.00,0.0077
1900.00,0.0077
1899.00,0.0076
1898.00,0.0077
1897.00,0.0077
1896.00,0.0079
1895.00,0.0081
1894.00,0.0082
1893.00,0.0082
1892.00,0.0081
1891.00,0.0080
1890.00,0.0078
1889.00,0.0076
1888.00,0.0075
1887.00,0.0074
1886.00,0.0073
1885.00,0.0072
1884.00,0.0072
1883.00,0.0072
1882.00,0.0072
1881.00,0.0072
1880.00,0.0071
1879.00,0.0071
1878.00,0.0072
1877.00,0.0072
1876.00,0.0072
1875.00,0.0072
1874.00,0.0072
1873.00,0.0071
1872.00,0.0071
1871.00,0.0071
1870.00,0.0071
1869.00,0.0072
1868.00,0.0072
1867.00,0.0072
1866.00,0.0072
1865.00,0.0072
1864.00,0.0072
1863.00,0.0072
1862.00,0.0072
1861.00,0.0072
1860.00,0.0073
1859.00,0.0073
1858.00,0.0073
1857.00,0.0073
1856.00,0.0074
1855.00,0.0074
1854.00,0.0074
1853.00,0.0074
1852.00,0.0075
1851.00,0.0076
1850.00,0.0077
1849.00,0.0078
1848.00,0.0080
1847.00,0.0081
1846.00,0.0081
1845.00,0.0080
1844.00,0.0080
1843.00,0.0078
1842.00,0.0077
1841.00,0.0076
1840.00,0.0075
1839.00,0.0074
1838.00,0.0074
1837.00,0.0073
1836.00,0.0073
1835.00,0.0073
1834.00,0.0072
1833.00,0.0072
1832.00,0.0071
1831.00,0.0071
1830.00,0.0071
1829.00,0.0071
1828.00,0.0071
1827.00,0.0071
1826.00,0.0072
1825.00,0.0072
1824.00,0.0072
1823.00,0.0072
1822.00,0.0071
1821.00,0.0071
1820.00,0.0070
1819.00,0.0070
1818.00,0.0069
1817.00,0.0069
1816.00,0.0070
1815.00,0.0070
1814.00,0.0071
1813.00,0.0071
1812.00,0.0072
1811.00,0.0072
1810.00,0.0072
1809.00,0.0072
1808.00,0.0072
1807.00,0.0072
1806.00,0.0073
1805.00,0.0073
1804.00,0.0073
1803.00,0.0073
1802.00,0.0074
1801.00,0.0075
1800.00,0.0075
1799.00,0.0075
1798.00,0.0075
1797.00,0.0076
1796.00,0.0077
1795.00,0.0078
1794.00,0.0077
1793.00,0.0077
1792.00,0.0077
1791.00,0.0076
1790.00,0.0076
1789.00,0.0075
1788.00,0.0075
1787.00,0.0075
1786.00,0.0076
1785.00,0.0076
1784.00,0.0075
1783.00,0.0075
1782.00,0.0075
1781.00,0.0075
1780.00,0.0076
1779.00,0.0076
1778.00,0.0077
1777.00,0.0078
1776.00,0.0080
1775.00,0.0081
1774.00,0.0081
1773.00,0.0081
1772.00,0.0081
1771.00,0.0080
1770.00,0.0079
1769.00,0.0079
1768.00,0.0080
1767.00,0.0079
1766.00,0.0079
1765.00,0.0078
1764.00,0.0078
1763.00,0.0078
1762.00,0.0080
1761.00,0.0081
1760.00,0.0082
1759.00,0.0082
1758.00,0.0082
1757.00,0.0081
1756.00,0.0080
1755.00,0.0078
1754.00,0.0077
1753.00,0.0077
1752.00,0.0077
1751.00,0.0076
1750.00,0.0076
1749.00,0.0075
1748.00,0.0076
1747.00,0.0076
1746.00,0.0076
1745.00,0.0077
1744.00,0.0078
1743.00,0.0078
1742.00,0.0078
1741.00,0.0077
1740.00,0.0077
1739.00,0.0077
1738.00,0.0076
1737.00,0.0076
1736.00,0.0076
1735.00,0.0077
1734.00,0.0078
1733.00,0.0078
1732.00,0.0079
1731.00,0.0080
1730.00,0.0082
1729.00,0.0083
1728.00,0.0085
1727.00,0.0086
1726.00,0.0086
1725.00,0.0087
1724.00,0.0088
1723.00,0.0089
1722.00,0.0089
1721.00,0.0089
1720.00,0.0089
1719.00,0.0090
1718.00,0.0090
1717.00,0.0091
1716.00,0.0092
1715.00,0.0093
1714.00,0.0094
1713.00,0.0095
1712.00,0.0097
1711.00,0.0099
1710.00,0.0100
1709.00,0.0100
1708.00,0.0100
1707.00,0.0100
1706.00,0.0100
1705.00,0.0101
1704.00,0.0102
1703.00,0.0102
1702.00,0.0103
1701.00,0.0104
1700.00,0.0105
1699.00,0.0107
1698.00,0.0108
1697.00,0.0112
1696.00,0.0117
1695.00,0.0121
1694.00,0.0124
1693.00,0.0126
1692.00,0.0129
1691.00,0.0132
1690.00,0.0136
1689.00,0.0138
1688.00,0.0140
1687.00,0.0141
1686.00,0.0142
1685.00,0.0144
1684.00,0.0147
1683.00,0.0149
1682.00,0.0150
1681.00,0.0153
1680.00,0.0156
1679.00,0.0159
1678.00,0.0160
1677.00,0.0161
1676.00,0.0163
1675.00,0.0165
1674.00,0.0166
1673.00,0.0168
1672.00,0.0170
1671.00,0.0172
1670.00,0.0175
1669.00,0.0178
1668.00,0.0181
1667.00,0.0183
1666.00,0.0185
1665.00,0.0186
1664.00,0.0188
1663.00,0.0190
1662.00,0.0191
1661.00,0.0192
1660.00,0.0193
1659.00,0.0194
1658.00,0.0194
1657.00,0.0193
1656.00,0.0192
1655.00,0.0190
1654.00,0.0189
1653.00,0.0188
1652.00,0.0188
1651.00,0.0187
1650.00,0.0185
1649.00,0.0185
1648.00,0.0186
1647.00,0.0187
1646.00,0.0188
1645.00,0.0189
1644.00,0.0191
1643.00,0.0193
1642.00,0.0196
1641.00,0.0198
1640.00,0.0200
1639.00,0.0201
1638.00,0.0201
1637.00,0.0203
1636.00,0.0210
1635.00,0.0222
1634.00,0.0237
1633.00,0.0257
1632.00,0.0284
1631.00,0.0320
1630.00,0.0366
1629.00,0.0426
1628.00,0.0498
1627.00,0.0571
1626.00,0.0637
1625.00,0.0696
1624.00,0.0751
1623.00,0.0800
1622.00,0.0832
1621.00,0.0844
1620.00,0.0841
1619.00,0.0823
1618.00,0.0789
1617.00,0.0740
1616.00,0.0692
1615.00,0.0663
1614.00,0.0652
1613.00,0.0654
1612.00,0.0664
1611.00,0.0674
1610.00,0.0674
1609.00,0.0663
1608.00,0.0639
1607.00,0.0606
1606.00,0.0567
1605.00,0.0526
1604.00,0.0486
1603.00,0.0449
1602.00,0.0414
1601.00,0.0385
1600.00,0.0361
1599.00,0.0342
1598.00,0.0328
1597.00,0.0319
1596.00,0.0317
1595.00,0.0322
1594.00,0.0334
1593.00,0.0354
1592.00,0.0383
1591.00,0.0422
1590.00,0.0467
1589.00,0.0518
1588.00,0.0569
1587.00,0.0617
1586.00,0.0657
1585.00,0.0687
1584.00,0.0707
1583.00,0.0715
1582.00,0.0712
1581.00,0.0700
1580.00,0.0683
1579.00,0.0663
1578.00,0.0638
1577.00,0.0606
1576.00,0.0569
1575.00,0.0536
1574.00,0.0509
1573.00,0.0490
1572.00,0.0474
1571.00,0.0461
1570.00,0.0449
1569.00,0.0437
1568.00,0.0424
1567.00,0.0410
1566.00,0.0391
1565.00,0.0369
1564.00,0.0345
1563.00,0.0323
1562.00,0.0303
1561.00,0.0285
1560.00,0.0263
1559.00,0.0241
1558.00,0.0223
1557.00,0.0212
1556.00,0.0207
1555.00,0.0203
1554.00,0.0200
1553.00,0.0196
1552.00,0.0192
1551.00,0.0189
1550.00,0.0187
1549.00,0.0184
1548.00,0.0181
1547.00,0.0178
1546.00,0.0176
1545.00,0.0174
1544.00,0.0171
1543.00,0.0168
1542.00,0.0164
1541.00,0.0160
1540.00,0.0157
1539.00,0.0155
1538.00,0.0154
1537.00,0.0154
1536.00,0.0153
1535.00,0.0152
1534.00,0.0151
1533.00,0.0150
1532.00,0.0148
1531.00,0.0148
1530.00,0.0148
1529.00,0.0148
1528.00,0.0149
1527.00,0.0151
1526.00,0.0152
1525.00,0.0154
1524.00,0.0155
1523.00,0.0157
1522.00,0.0161
1521.00,0.0166
1520.00,0.0172
1519.00,0.0177
1518.00,0.0183
1517.00,0.0191
1516.00,0.0201
1515.00,0.0210
1514.00,0.0217
1513.00,0.0224
1512.00,0.0230
1511.00,0.0235
1510.00,0.0238
1509.00,0.0240
1508.00,0.0241
1507.00,0.0242
1506.00,0.0243
1505.00,0.0244
1504.00,0.0248
1503.00,0.0255
1502.00,0.0268
1501.00,0.0288
1500.00,0.0318
1499.00,0.0360
1498.00,0.0411
1497.00,0.0458
1496.00,0.0487
1495.00,0.0489
1494.00,0.0470
1493.00,0.0439
1492.00,0.0403
1491.00,0.0364
1490.00,0.0328
1489.00,0.0298
1488.00,0.0273
1487.00,0.0254
1486.00,0.0239
1485.00,0.0227
1484.00,0.0218
1483.00,0.0210
1482.00,0.0204
1481.00,0.0200
1480.00,0.0197
1479.00,0.0196
1478.00,0.0196
1477.00,0.0198
1476.00,0.0202
1475.00,0.0207
1474.00,0.0215
1473.00,0.0232
1472.00,0.0257
1471.00,0.0291
1470.00,0.0329
1469.00,0.0372
1468.00,0.0416
1467.00,0.0454
1466.00,0.0479
1465.00,0.0488
1464.00,0.0485
1463.00,0.0476
1462.00,0.0469
1461.00,0.0467
1460.00,0.0468
1459.00,0.0469
1458.00,0.0469
1457.00,0.0463
1456.00,0.0452
1455.00,0.0440
1454.00,0.0431
1453.00,0.0426
1452.00,0.0425
1451.00,0.0428
1450.00,0.0433
1449.00,0.0440
1448.00,0.0449
1447.00,0.0459
1446.00,0.0472
1445.00,0.0488
1444.00,0.0507
1443.00,0.0527
1442.00,0.0546
1441.00,0.0563
1440.00,0.0577
1439.00,0.0588
1438.00,0.0600
1437.00,0.0615
1436.00,0.0633
1435.00,0.0653
1434.00,0.0672
1433.00,0.0692
1432.00,0.0712
1431.00,0.0728
1430.00,0.0739
1429.00,0.0744
1428.00,0.0742
1427.00,0.0732
1426.00,0.0718
1425.00,0.0702
1424.00,0.0684
1423.00,0.0666
1422.00,0.0649
1421.00,0.0632
1420.00,0.0614
1419.00,0.0594
1418.00,0.0573
1417.00,0.0555
1416.00,0.0539
1415.00,0.0526
1414.00,0.0517
1413.00,0.0513
1412.00,0.0515
1411.00,0.0524
1410.00,0.0539
1409.00,0.0561
1408.00,0.0590
1407.00,0.0626
1406.00,0.0669
1405.00,0.0718
1404.00,0.0767
1403.00,0.0809
1402.00,0.0842
1401.00,0.0865
1400.00,0.0878
1399.00,0.0875
1398.00,0.0858
1397.00,0.0829
1396.00,0.0790
1395.00,0.0743
1394.00,0.0693
1393.00,0.0648
1392.00,0.0611
1391.00,0.0584
1390.00,0.0570
1389.00,0.0572
1388.00,0.0587
1387.00,0.0604
1386.00,0.0607
1385.00,0.0593
1384.00,0.0570
1383.00,0.0550
1382.00,0.0539
1381.00,0.0539
1380.00,0.0542
1379.00,0.0543
1378.00,0.0540
1377.00,0.0531
1376.00,0.0513
1375.00,0.0485
1374.00,0.0453
1373.00,0.0425
1372.00,0.0407
1371.00,0.0402
1370.00,0.0413
1369.00,0.0438
1368.00,0.0477
1367.00,0.0520
1366.00,0.0558
1365.00,0.0585
1364.00,0.0603
1363.00,0.0623
1362.00,0.0657
1361.00,0.0698
1360.00,0.0728
1359.00,0.0731
1358.00,0.0705
1357.00,0.0665
1356.00,0.0623
1355.00,0.0591
1354.00,0.0568
1353.00,0.0554
1352.00,0.0546
1351.00,0.0544
1350.00,0.0545
1349.00,0.0550
1348.00,0.0555
1347.00,0.0557
1346.00,0.0554
1345.00,0.0546
1344.00,0.0532
1343.00,0.0515
1342.00,0.0495
1341.00,0.0474
1340.00,0.0452
1339.00,0.0431
1338.00,0.0414
1337.00,0.0403
1336.00,0.0398
1335.00,0.0400
1334.00,0.0407
1333.00,0.0416
1332.00,0.0426
1331.00,0.0434
1330.00,0.0440
1329.00,0.0441
1328.00,0.0439
1327.00,0.0433
1326.00,0.0424
1325.00,0.0415
1324.00,0.0405
1323.00,0.0397
1322.00,0.0391
1321.00,0.0386
1320.00,0.0382
1319.00,0.0375
1318.00,0.0367
1317.00,0.0358
1316.00,0.0348
1315.00,0.0339
1314.00,0.0332
1313.00,0.0329
1312.00,0.0330
1311.00,0.0336
1310.00,0.0347
1309.00,0.0364
1308.00,0.0387
1307.00,0.0415
1306.00,0.0450
1305.00,0.0492
1304.00,0.0540
1303.00,0.0590
1302.00,0.0633
1301.00,0.0661
1300.00,0.0668
1299.00,0.0657
1298.00,0.0638
1297.00,0.0618
1296.00,0.0604
1295.00,0.0595
1294.00,0.0588
1293.00,0.0579
1292.00,0.0568
1291.00,0.0556
1290.00,0.0549
1289.00,0.0551
1288.00,0.0563
1287.00,0.0585
1286.00,0.0612
1285.00,0.0639
1284.00,0.0660
1283.00,0.0670
1282.00,0.0665
1281.00,0.0646
1280.00,0.0614
1279.00,0.0574
1278.00,0.0533
1277.00,0.0495
1276.00,0.0463
1275.00,0.0436
1274.00,0.0414
1273.00,0.0396
1272.00,0.0380
1271.00,0.0366
1270.00,0.0354
1269.00,0.0344
1268.00,0.0335
1267.00,0.0328
1266.00,0.0323
1265.00,0.0317
1264.00,0.0310
1263.00,0.0303
1262.00,0.0295
1261.00,0.0288
1260.00,0.0280
1259.00,0.0274
1258.00,0.0269
1257.00,0.0266
1256.00,0.0264
1255.00,0.0264
1254.00,0.0266
1253.00,0.0270
1252.00,0.0277
1251.00,0.0288
1250.00,0.0303
1249.00,0.0324
1248.00,0.0349
1247.00,0.0377
1246.00,0.0407
1245.00,0.0436
1244.00,0.0461
1243.00,0.0482
1242.00,0.0498
1241.00,0.0512
1240.00,0.0529
1239.00,0.0551
1238.00,0.0579
1237.00,0.0612
1236.00,0.0647
1235.00,0.0677
1234.00,0.0696
1233.00,0.0700
1232.00,0.0690
1231.00,0.0666
1230.00,0.0633
1229.00,0.0597
1228.00,0.0562
1227.00,0.0530
1226.00,0.0503
1225.00,0.0480
1224.00,0.0462
1223.00,0.0449
1222.00,0.0441
1221.00,0.0439
1220.00,0.0444
1219.00,0.0453
1218.00,0.0468
1217.00,0.0485
1216.00,0.0503
1215.00,0.0516
1214.00,0.0522
1213.00,0.0518
1212.00,0.0502
1211.00,0.0477
1210.00,0.0449
1209.00,0.0421
1208.00,0.0397
1207.00,0.0380
1206.00,0.0371
1205.00,0.0372
1204.00,0.0384
1203.00,0.0405
1202.00,0.0435
1201.00,0.0472
1200.00,0.0515
1199.00,0.0562
1198.00,0.0614
1197.00,0.0667
1196.00,0.0716
1195.00,0.0751
1194.00,0.0768
1193.00,0.0764
1192.00,0.0743
1191.00,0.0707
1190.00,0.0663
1189.00,0.0613
1188.00,0.0562
1187.00,0.0512
1186.00,0.0466
1185.00,0.0426
1184.00,0.0393
1183.00,0.0365
1182.00,0.0342
1181.00,0.0324
1180.00,0.0310
1179.00,0.0298
1178.00,0.0289
1177.00,0.0281
1176.00,0.0274
1175.00,0.0269
1174.00,0.0264
1173.00,0.0261
1172.00,0.0258
1171.00,0.0256
1170.00,0.0255
1169.00,0.0254
1168.00,0.0254
1167.00,0.0256
1166.00,0.0260
1165.00,0.0267
1164.00,0.0278
1163.00,0.0294
1162.00,0.0317
1161.00,0.0350
1160.00,0.0396
1159.00,0.0457
1158.00,0.0532
1157.00,0.0613
1156.00,0.0689
1155.00,0.0741
1154.00,0.0756
1153.00,0.0728
1152.00,0.0666
1151.00,0.0584
1150.00,0.0500
1149.00,0.0429
1148.00,0.0375
1147.00,0.0336
1146.00,0.0311
1145.00,0.0295
1144.00,0.0284
1143.00,0.0279
1142.00,0.0276
1141.00,0.0277
1140.00,0.0281
1139.00,0.0289
1138.00,0.0303
1137.00,0.0325
1136.00,0.0356
1135.00,0.0400
1134.00,0.0461
1133.00,0.0541
1132.00,0.0635
1131.00,0.0733
1130.00,0.0822
1129.00,0.0885
1128.00,0.0917
1127.00,0.0917
1126.00,0.0892
1125.00,0.0847
1124.00,0.0788
1123.00,0.0720
1122.00,0.0649
1121.00,0.0584
1120.00,0.0528
1119.00,0.0485
1118.00,0.0455
1117.00,0.0437
1116.00,0.0426
1115.00,0.0420
1114.00,0.0414
1113.00,0.0406
1112.00,0.0395
1111.00,0.0381
1110.00,0.0367
1109.00,0.0355
1108.00,0.0347
1107.00,0.0347
1106.00,0.0355
1105.00,0.0376
1104.00,0.0411
1103.00,0.0460
1102.00,0.0518
1101.00,0.0573
1100.00,0.0613
1099.00,0.0627
1098.00,0.0612
1097.00,0.0572
1096.00,0.0517
1095.00,0.0459
1094.00,0.0405
1093.00,0.0361
1092.00,0.0326
1091.00,0.0299
1090.00,0.0280
1089.00,0.0266
1088.00,0.0256
1087.00,0.0247
1086.00,0.0241
1085.00,0.0236
1084.00,0.0232
1083.00,0.0230
1082.00,0.0228
1081.00,0.0227
1080.00,0.0227
1079.00,0.0228
1078.00,0.0229
1077.00,0.0231
1076.00,0.0234
1075.00,0.0237
1074.00,0.0242
1073.00,0.0247
1072.00,0.0254
1071.00,0.0263
1070.00,0.0272
1069.00,0.0284
1068.00,0.0297
1067.00,0.0311
1066.00,0.0326
1065.00,0.0346
1064.00,0.0370
1063.00,0.0403
1062.00,0.0445
1061.00,0.0500
1060.00,0.0570
1059.00,0.0655
1058.00,0.0755
1057.00,0.0863
1056.00,0.0970
1055.00,0.1062
1054.00,0.1132
1053.00,0.1179
1052.00,0.1209
1051.00,0.1227
1050.00,0.1236
1049.00,0.1233
1048.00,0.1213
1047.00,0.1174
1046.00,0.1116
1045.00,0.1045
1044.00,0.0966
1043.00,0.0884
1042.00,0.0805
1041.00,0.0737
1040.00,0.0683
1039.00,0.0645
1038.00,0.0623
1037.00,0.0615
1036.00,0.0617
1035.00,0.0624
1034.00,0.0636
1033.00,0.0657
1032.00,0.0695
1031.00,0.0755
1030.00,0.0838
1029.00,0.0937
1028.00,0.1031
1027.00,0.1099
1026.00,0.1123
1025.00,0.1097
1024.00,0.1029
1023.00,0.0938
1022.00,0.0842
1021.00,0.0751
1020.00,0.0672
1019.00,0.0606
1018.00,0.0551
1017.00,0.0506
1016.00,0.0469
1015.00,0.0439
1014.00,0.0415
1013.00,0.0398
1012.00,0.0388
1011.00,0.0385
1010.00,0.0393
1009.00,0.0411
1008.00,0.0438
1007.00,0.0473
1006.00,0.0510
1005.00,0.0544
1004.00,0.0570
1003.00,0.0582
1002.00,0.0580
1001.00,0.0567
1000.00,0.0549
999.00,0.0530
998.00,0.0513
997.00,0.0498
996.00,0.0485
995.00,0.0474
994.00,0.0463
993.00,0.0450
992.00,0.0432
991.00,0.0410
990.00,0.0387
989.00,0.0365
988.00,0.0344
987.00,0.0327
986.00,0.0313
985.00,0.0301
984.00,0.0291
983.00,0.0283
982.00,0.0278
981.00,0.0274
980.00,0.0272
979.00,0.0271
978.00,0.0271
977.00,0.0272
976.00,0.0272
975.00,0.0272
974.00,0.0272
973.00,0.0270
972.00,0.0268
971.00,0.0266
970.00,0.0265
969.00,0.0265
968.00,0.0265
967.00,0.0266
966.00,0.0269
965.00,0.0274
964.00,0.0280
963.00,0.0287
962.00,0.0290
961.00,0.0287
960.00,0.0277
959.00,0.0262
958.00,0.0247
957.00,0.0234
956.00,0.0223
955.00,0.0214
954.00,0.0207
953.00,0.0202
952.00,0.0200
951.00,0.0200
950.00,0.0206
949.00,0.0213
948.00,0.0218
947.00,0.0219
946.00,0.0217
945.00,0.0214
944.00,0.0215
943.00,0.0220
942.00,0.0228
941.00,0.0238
940.00,0.0248
939.00,0.0256
938.00,0.0263
937.00,0.0269
936.00,0.0274
935.00,0.0281
934.00,0.0289
933.00,0.0296
932.00,0.0299
931.00,0.0297
930.00,0.0290
929.00,0.0283
928.00,0.0277
927.00,0.0276
926.00,0.0281
925.00,0.0293
924.00,0.0309
923.00,0.0327
922.00,0.0340
921.00,0.0343
920.00,0.0333
919.00,0.0313
918.00,0.0287
917.00,0.0262
916.00,0.0241
915.00,0.0224
914.00,0.0212
913.00,0.0202
912.00,0.0196
911.00,0.0191
910.00,0.0189
909.00,0.0188
908.00,0.0190
907.00,0.0193
906.00,0.0200
905.00,0.0212
904.00,0.0230
903.00,0.0254
902.00,0.0285
901.00,0.0318
900.00,0.0346
899.00,0.0360
898.00,0.0357
897.00,0.0340
896.00,0.0316
895.00,0.0295
894.00,0.0285
893.00,0.0292
892.00,0.0316
891.00,0.0345
890.00,0.0365
889.00,0.0359
888.00,0.0331
887.00,0.0291
886.00,0.0256
885.00,0.0234
884.00,0.0224
883.00,0.0222
882.00,0.0226
881.00,0.0234
880.00,0.0247
879.00,0.0268
878.00,0.0299
877.00,0.0344
876.00,0.0401
875.00,0.0469
874.00,0.0547
873.00,0.0629
872.00,0.0710
871.00,0.0777
870.00,0.0818
869.00,0.0826
868.00,0.0801
867.00,0.0755
866.00,0.0702
865.00,0.0648
864.00,0.0596
863.00,0.0545
862.00,0.0496
861.00,0.0452
860.00,0.0417
859.00,0.0395
858.00,0.0390
857.00,0.0405
856.00,0.0435
855.00,0.0473
854.00,0.0513
853.00,0.0551
852.00,0.0590
851.00,0.0633
850.00,0.0674
849.00,0.0700
848.00,0.0699
847.00,0.0670
846.00,0.0626
845.00,0.0577
844.00,0.0533
843.00,0.0497
842.00,0.0472
841.00,0.0460
840.00,0.0462
839.00,0.0480
838.00,0.0516
837.00,0.0568
836.00,0.0626
835.00,0.0677
834.00,0.0714
833.00,0.0730
832.00,0.0724
831.00,0.0695
830.00,0.0647
829.00,0.0585
828.00,0.0518
827.00,0.0458
826.00,0.0416
825.00,0.0402
824.00,0.0429
823.00,0.0506
822.00,0.0625
821.00,0.0753
820.00,0.0849
819.00,0.0901
818.00,0.0938
817.00,0.0989
816.00,0.1039
815.00,0.1037
814.00,0.0953
813.00,0.0810
812.00,0.0661
811.00,0.0540
810.00,0.0454
809.00,0.0394
808.00,0.0353
807.00,0.0323
806.00,0.0300
805.00,0.0281
804.00,0.0268
803.00,0.0257
802.00,0.0249
801.00,0.0242
800.00,0.0236
799.00,0.0232
798.00,0.0228
797.00,0.0224
796.00,0.0221
795.00,0.0218
794.00,0.0215
793.00,0.0212
792.00,0.0210
791.00,0.0209
790.00,0.0207
789.00,0.0204
788.00,0.0203
787.00,0.0202
786.00,0.0201
785.00,0.0201
784.00,0.0200
783.00,0.0201
782.00,0.0201
781.00,0.0203
780.00,0.0206
779.00,0.0213
778.00,0.0227
777.00,0.0250
776.00,0.0279
775.00,0.0306
774.00,0.0318
773.00,0.0311
772.00,0.0290
771.00,0.0266
770.00,0.0247
769.00,0.0236
768.00,0.0229
767.00,0.0226
766.00,0.0224
765.00,0.0226
764.00,0.0231
763.00,0.0240
762.00,0.0251
761.00,0.0263
760.00,0.0273
759.00,0.0277
758.00,0.0275
757.00,0.0267
756.00,0.0258
755.00,0.0249
754.00,0.0242
753.00,0.0237
752.00,0.0235
751.00,0.0234
750.00,0.0234
749.00,0.0235
748.00,0.0237
747.00,0.0240
746.00,0.0244
745.00,0.0249
744.00,0.0255
743.00,0.0264
742.00,0.0276
741.00,0.0293
740.00,0.0320
739.00,0.0358
738.00,0.0410
737.00,0.0473
736.00,0.0535
735.00,0.0577
734.00,0.0589
733.00,0.0576
732.00,0.0555
731.00,0.0544
730.00,0.0549
729.00,0.0559
728.00,0.0561
727.00,0.0543
726.00,0.0506
725.00,0.0459
724.00,0.0415
723.00,0.0380
722.00,0.0358
721.00,0.0347
720.00,0.0347
719.00,0.0358
718.00,0.0379
717.00,0.0407
716.00,0.0434
715.00,0.0453
714.00,0.0458
713.00,0.0450
712.00,0.0435
711.00,0.0416
710.00,0.0397
709.00,0.0381
708.00,0.0371
707.00,0.0366
706.00,0.0367
705.00,0.0371
704.00,0.0379
703.00,0.0389
702.00,0.0403
701.00,0.0418
700.00,0.0432
699.00,0.0445
698.00,0.0451
697.00,0.0450
696.00,0.0440
695.00,0.0427
694.00,0.0413
693.00,0.0407
692.00,0.0412
691.00,0.0429
690.00,0.0456
689.00,0.0482
688.00,0.0498
687.00,0.0496
686.00,0.0481
685.00,0.0459
684.00,0.0440
683.00,0.0427
682.00,0.0421
681.00,0.0420
680.00,0.0425
679.00,0.0433
678.00,0.0446
677.00,0.0462
676.00,0.0484
675.00,0.0508
674.00,0.0534
673.00,0.0558
672.00,0.0576
671.00,0.0587
670.00,0.0588
669.00,0.0578
668.00,0.0561
667.00,0.0547
666.00,0.0540
665.00,0.0542
664.00,0.0549
663.00,0.0560
662.00,0.0569
661.00,0.0570
660.00,0.0562
659.00,0.0545
658.00,0.0521
657.00,0.0496
656.00,0.0474
655.00,0.0456
654.00,0.0444
653.00,0.0434
652.00,0.0427
651.00,0.0421
650.00,0.0416
649.00,0.0412
648.00,0.0409
647.00,0.0406
646.00,0.0404
645.00,0.0401
644.00,0.0398
643.00,0.0395
642.00,0.0392
641.00,0.0389
640.00,0.0386
639.00,0.0384
638.00,0.0383
637.00,0.0382
636.00,0.0381
635.00,0.0380
634.00,0.0380
633.00,0.0380
632.00,0.0380
631.00,0.0382
630.00,0.0384
629.00,0.0388
628.00,0.0393
627.00,0.0402
626.00,0.0414
625.00,0.0429
624.00,0.0447
623.00,0.0467
622.00,0.0488
621.00,0.0507
620.00,0.0519
619.00,0.0522
618.00,0.0513
617.00,0.0493
616.00,0.0466
615.00,0.0438
614.00,0.0413
613.00,0.0394
612.00,0.0383
611.00,0.0382
610.00,0.0393
609.00,0.0417
608.00,0.0453
607.00,0.0499
606.00,0.0550
605.00,0.0599
604.00,0.0640
603.00,0.0670
602.00,0.0689
601.00,0.0698
600.00,0.0702
599.00,0.0702
598.00,0.0700
597.00,0.0696
596.00,0.0691
595.00,0.0685
594.00,0.0678
593.00,0.0671
592.00,0.0662
591.00,0.0651
590.00,0.0639
589.00,0.0626
588.00,0.0613
587.00,0.0601
586.00,0.0592
585.00,0.0587
584.00,0.0585
583.00,0.0587
582.00,0.0591
581.00,0.0601
580.00,0.0621
579.00,0.0653
578.00,0.0693
577.00,0.0729
576.00,0.0746
575.00,0.0735
574.00,0.0702
573.00,0.0658
572.00,0.0615
571.00,0.0579
570.00,0.0550
569.00,0.0528
568.00,0.0515
567.00,0.0512
566.00,0.0520
565.00,0.0538
564.00,0.0563
563.00,0.0594
562.00,0.0630
561.00,0.0664
560.00,0.0688
559.00,0.0695
558.00,0.0684
557.00,0.0662
556.00,0.0636
555.00,0.0612
554.00,0.0594
553.00,0.0586
552.00,0.0589
551.00,0.0605
550.00,0.0632
549.00,0.0667
548.00,0.0705
547.00,0.0738
546.00,0.0757
545.00,0.0758
544.00,0.0743
543.00,0.0717
542.00,0.0686
541.00,0.0657
540.00,0.0631
539.00,0.0612
538.00,0.0599
537.00,0.0595
536.00,0.0601
535.00,0.0617
534.00,0.0643
533.00,0.0674
532.00,0.0702
531.00,0.0719
530.00,0.0716
529.00,0.0696
528.00,0.0662
527.00,0.0624
526.00,0.0585
525.00,0.0551
524.00,0.0522
523.00,0.0498
522.00,0.0479
521.00,0.0464
520.00,0.0452
519.00,0.0442
518.00,0.0433
517.00,0.0425
516.00,0.0417
515.00,0.0411
514.00,0.0407
513.00,0.0406
512.00,0.0407
511.00,0.0409
510.00,0.0414
509.00,0.0422
508.00,0.0433
507.00,0.0442
506.00,0.0448
505.00,0.0447
504.00,0.0440
503.00,0.0428
502.00,0.0412
501.00,0.0396
500.00,0.0385
499.00,0.0378
498.00,0.0375
497.00,0.0378
496.00,0.0385
495.00,0.0396
494.00,0.0409
493.00,0.0420
492.00,0.0427
491.00,0.0428
490.00,0.0422
489.00,0.0412
488.00,0.0399
487.00,0.0387
486.00,0.0377
485.00,0.0368
484.00,0.0361
483.00,0.0353
482.00,0.0346
481.00,0.0340
480.00,0.0337
479.00,0.0335
478.00,0.0333
477.00,0.0330
476.00,0.0324
475.00,0.0319
474.00,0.0314
473.00,0.0311
472.00,0.0309
471.00,0.0309
470.00,0.0309
469.00,0.0308
468.00,0.0309
467.00,0.0310
466.00,0.0312
465.00,0.0311
464.00,0.0309
463.00,0.0305
462.00,0.0303
461.00,0.0303
460.00,0.0304
459.00,0.0307
458.00,0.0309
457.00,0.0308
456.00,0.0306
455.00,0.0303
454.00,0.0301
453.00,0.0297
452.00,0.0293
451.00,0.0290
450.00,0.0287
449.00,0.0285
448.00,0.0284
447.00,0.0285
446.00,0.0286
445.00,0.0287
444.00,0.0286
443.00,0.0286
442.00,0.0289
441.00,0.0293
440.00,0.0298
439.00,0.0301
438.00,0.0300
437.00,0.0295
436.00,0.0288
435.00,0.0281
434.00,0.0277
433.00,0.0274
432.00,0.0272
431.00,0.0270
430.00,0.0267
429.00,0.0264
428.00,0.0261
427.00,0.0259
426.00,0.0258
425.00,0.0257
424.00,0.0255
423.00,0.0254
422.00,0.0252
421.00,0.0249
420.00,0.0245
419.00,0.0243
418.00,0.0247
417.00,0.0252
416.00,0.0257
415.00,0.0266
414.00,0.0279
413.00,0.0295
412.00,0.0313
411.00,0.0332
410.00,0.0350
409.00,0.0361
408.00,0.0359
407.00,0.0347
406.00,0.0329
405.00,0.0309
404.00,0.0289
403.00,0.0274
402.00,0.0265
401.00,0.0260
400.00,0.0258
