Created as New Dataset,Sample 941 By YargerLab Date Monday, July 28 2025
cm-1,A
4000.00,0.0054
3999.00,0.0054
3998.00,0.0054
3997.00,0.0054
3996.00,0.0054
3995.00,0.0054
3994.00,0.0054
3993.00,0.0054
3992.00,0.0054
3991.00,0.0054
3990.00,0.0054
3989.00,0.0054
3988.00,0.0054
3987.00,0.0054
3986.00,0.0054
3985.00,0.0054
3984.00,0.0054
3983.00,0.0054
3982.00,0.0054
3981.00,0.0054
3980.00,0.0054
3979.00,0.0054
3978.00,0.0054
3977.00,0.0054
3976.00,0.0054
3975.00,0.0054
3974.00,0.0054
3973.00,0.0054
3972.00,0.0054
3971.00,0.0054
3970.00,0.0054
3969.00,0.0054
3968.00,0.0054
3967.00,0.0054
3966.00,0.0054
3965.00,0.0054
3964.00,0.0054
3963.00,0.0054
3962.00,0.0054
3961.00,0.0054
3960.00,0.0054
3959.00,0.0053
3958.00,0.0053
3957.00,0.0053
3956.00,0.0053
3955.00,0.0053
3954.00,0.0053
3953.00,0.0053
3952.00,0.0053
3951.00,0.0053
3950.00,0.0053
3949.00,0.0053
3948.00,0.0053
3947.00,0.0053
3946.00,0.0053
3945.00,0.0053
3944.00,0.0053
3943.00,0.0053
3942.00,0.0054
3941.00,0.0054
3940.00,0.0054
3939.00,0.0053
3938.00,0.0053
3937.00,0.0053
3936.00,0.0053
3935.00,0.0053
3934.00,0.0053
3933.00,0.0052
3932.00,0.0053
3931.00,0.0053
3930.00,0.0053
3929.00,0.0053
3928.00,0.0053
3927.00,0.0053
3926.00,0.0053
3925.00,0.0053
3924.00,0.0053
3923.00,0.0053
3922.00,0.0053
3921.00,0.0053
3920.00,0.0053
3919.00,0.0053
3918.00,0.0053
3917.00,0.0053
3916.00,0.0053
3915.00,0.0053
3914.00,0.0053
3913.00,0.0053
3912.00,0.0053
3911.00,0.0053
3910.00,0.0053
3909.00,0.0053
3908.00,0.0053
3907.00,0.0053
3906.00,0.0053
3905.00,0.0052
3904.00,0.0052
3903.00,0.0052
3902.00,0.0052
3901.00,0.0052
3900.00,0.0052
3899.00,0.0052
3898.00,0.0052
3897.00,0.0052
3896.00,0.0052
3895.00,0.0053
3894.00,0.0053
3893.00,0.0053
3892.00,0.0053
3891.00,0.0052
3890.00,0.0052
3889.00,0.0052
3888.00,0.0052
3887.00,0.0052
3886.00,0.0052
3885.00,0.0052
3884.00,0.0052
3883.00,0.0052
3882.00,0.0052
3881.00,0.0052
3880.00,0.0052
3879.00,0.0052
3878.00,0.0052
3877.00,0.0052
3876.00,0.0052
3875.00,0.0052
3874.00,0.0052
3873.00,0.0052
3872.00,0.0051
3871.00,0.0051
3870.00,0.0051
3869.00,0.0051
3868.00,0.0051
3867.00,0.0051
3866.00,0.0051
3865.00,0.0051
3864.00,0.0052
3863.00,0.0052
3862.00,0.0052
3861.00,0.0052
3860.00,0.0051
3859.00,0.0052
3858.00,0.0052
3857.00,0.0052
3856.00,0.0052
3855.00,0.0052
3854.00,0.0052
3853.00,0.0051
3852.00,0.0051
3851.00,0.0051
3850.00,0.0051
3849.00,0.0051
3848.00,0.0052
3847.00,0.0052
3846.00,0.0052
3845.00,0.0052
3844.00,0.0052
3843.00,0.0051
3842.00,0.0051
3841.00,0.0051
3840.00,0.0051
3839.00,0.0051
3838.00,0.0051
3837.00,0.0051
3836.00,0.0051
3835.00,0.0051
3834.00,0.0051
3833.00,0.0051
3832.00,0.0051
3831.00,0.0051
3830.00,0.0052
3829.00,0.0052
3828.00,0.0052
3827.00,0.0052
3826.00,0.0052
3825.00,0.0051
3824.00,0.0051
3823.00,0.0051
3822.00,0.0050
3821.00,0.0050
3820.00,0.0051
3819.00,0.0051
3818.00,0.0051
3817.00,0.0051
3816.00,0.0051
3815.00,0.0051
3814.00,0.0051
3813.00,0.0051
3812.00,0.0052
3811.00,0.0052
3810.00,0.0052
3809.00,0.0052
3808.00,0.0052
3807.00,0.0051
3806.00,0.0051
3805.00,0.0050
3804.00,0.0050
3803.00,0.0050
3802.00,0.0050
3801.00,0.0051
3800.00,0.0051
3799.00,0.0051
3798.00,0.0051
3797.00,0.0051
3796.00,0.0051
3795.00,0.0051
3794.00,0.0052
3793.00,0.0052
3792.00,0.0052
3791.00,0.0052
3790.00,0.0052
3789.00,0.0052
3788.00,0.0052
3787.00,0.0052
3786.00,0.0052
3785.00,0.0052
3784.00,0.0052
3783.00,0.0052
3782.00,0.0052
3781.00,0.0052
3780.00,0.0052
3779.00,0.0052
3778.00,0.0052
3777.00,0.0052
3776.00,0.0052
3775.00,0.0051
3774.00,0.0051
3773.00,0.0051
3772.00,0.0052
3771.00,0.0052
3770.00,0.0052
3769.00,0.0052
3768.00,0.0052
3767.00,0.0052
3766.00,0.0052
3765.00,0.0051
3764.00,0.0051
3763.00,0.0051
3762.00,0.0051
3761.00,0.0051
3760.00,0.0051
3759.00,0.0051
3758.00,0.0051
3757.00,0.0051
3756.00,0.0051
3755.00,0.0051
3754.00,0.0051
3753.00,0.0050
3752.00,0.0050
3751.00,0.0050
3750.00,0.0050
3749.00,0.0050
3748.00,0.0050
3747.00,0.0050
3746.00,0.0050
3745.00,0.0049
3744.00,0.0050
3743.00,0.0050
3742.00,0.0049
3741.00,0.0049
3740.00,0.0049
3739.00,0.0049
3738.00,0.0049
3737.00,0.0049
3736.00,0.0049
3735.00,0.0049
3734.00,0.0049
3733.00,0.0049
3732.00,0.0049
3731.00,0.0049
3730.00,0.0049
3729.00,0.0049
3728.00,0.0049
3727.00,0.0050
3726.00,0.0050
3725.00,0.0050
3724.00,0.0050
3723.00,0.0050
3722.00,0.0050
3721.00,0.0050
3720.00,0.0050
3719.00,0.0050
3718.00,0.0050
3717.00,0.0050
3716.00,0.0050
3715.00,0.0050
3714.00,0.0050
3713.00,0.0049
3712.00,0.0049
3711.00,0.0050
3710.00,0.0050
3709.00,0.0050
3708.00,0.0050
3707.00,0.0049
3706.00,0.0049
3705.00,0.0049
3704.00,0.0050
3703.00,0.0050
3702.00,0.0050
3701.00,0.0050
3700.00,0.0050
3699.00,0.0050
3698.00,0.0050
3697.00,0.0049
3696.00,0.0049
3695.00,0.0050
3694.00,0.0050
3693.00,0.0050
3692.00,0.0050
3691.00,0.0050
3690.00,0.0050
3689.00,0.0051
3688.00,0.0051
3687.00,0.0051
3686.00,0.0051
3685.00,0.0051
3684.00,0.0052
3683.00,0.0052
3682.00,0.0052
3681.00,0.0052
3680.00,0.0052
3679.00,0.0052
3678.00,0.0052
3677.00,0.0052
3676.00,0.0052
3675.00,0.0053
3674.00,0.0053
3673.00,0.0054
3672.00,0.0054
3671.00,0.0054
3670.00,0.0054
3669.00,0.0054
3668.00,0.0055
3667.00,0.0055
3666.00,0.0055
3665.00,0.0055
3664.00,0.0055
3663.00,0.0056
3662.00,0.0056
3661.00,0.0056
3660.00,0.0057
3659.00,0.0057
3658.00,0.0057
3657.00,0.0057
3656.00,0.0057
3655.00,0.0057
3654.00,0.0057
3653.00,0.0057
3652.00,0.0057
3651.00,0.0057
3650.00,0.0057
3649.00,0.0058
3648.00,0.0058
3647.00,0.0059
3646.00,0.0059
3645.00,0.0060
3644.00,0.0060
3643.00,0.0060
3642.00,0.0060
3641.00,0.0061
3640.00,0.0061
3639.00,0.0062
3638.00,0.0062
3637.00,0.0062
3636.00,0.0063
3635.00,0.0063
3634.00,0.0063
3633.00,0.0063
3632.00,0.0063
3631.00,0.0063
3630.00,0.0064
3629.00,0.0065
3628.00,0.0065
3627.00,0.0066
3626.00,0.0066
3625.00,0.0066
3624.00,0.0067
3623.00,0.0067
3622.00,0.0068
3621.00,0.0068
3620.00,0.0069
3619.00,0.0070
3618.00,0.0070
3617.00,0.0071
3616.00,0.0071
3615.00,0.0072
3614.00,0.0072
3613.00,0.0073
3612.00,0.0073
3611.00,0.0074
3610.00,0.0074
3609.00,0.0075
3608.00,0.0076
3607.00,0.0076
3606.00,0.0077
3605.00,0.0078
3604.00,0.0079
3603.00,0.0079
3602.00,0.0080
3601.00,0.0080
3600.00,0.0081
3599.00,0.0081
3598.00,0.0081
3597.00,0.0082
3596.00,0.0083
3595.00,0.0083
3594.00,0.0085
3593.00,0.0085
3592.00,0.0086
3591.00,0.0087
3590.00,0.0087
3589.00,0.0088
3588.00,0.0089
3587.00,0.0090
3586.00,0.0091
3585.00,0.0092
3584.00,0.0093
3583.00,0.0094
3582.00,0.0094
3581.00,0.0095
3580.00,0.0096
3579.00,0.0096
3578.00,0.0097
3577.00,0.0098
3576.00,0.0099
3575.00,0.0100
3574.00,0.0101
3573.00,0.0102
3572.00,0.0102
3571.00,0.0103
3570.00,0.0103
3569.00,0.0103
3568.00,0.0104
3567.00,0.0105
3566.00,0.0106
3565.00,0.0107
3564.00,0.0108
3563.00,0.0109
3562.00,0.0110
3561.00,0.0111
3560.00,0.0112
3559.00,0.0113
3558.00,0.0114
3557.00,0.0115
3556.00,0.0116
3555.00,0.0117
3554.00,0.0117
3553.00,0.0118
3552.00,0.0119
3551.00,0.0120
3550.00,0.0121
3549.00,0.0121
3548.00,0.0122
3547.00,0.0123
3546.00,0.0124
3545.00,0.0125
3544.00,0.0126
3543.00,0.0127
3542.00,0.0128
3541.00,0.0128
3540.00,0.0130
3539.00,0.0131
3538.00,0.0132
3537.00,0.0133
3536.00,0.0133
3535.00,0.0134
3534.00,0.0135
3533.00,0.0135
3532.00,0.0136
3531.00,0.0137
3530.00,0.0138
3529.00,0.0138
3528.00,0.0139
3527.00,0.0140
3526.00,0.0141
3525.00,0.0142
3524.00,0.0143
3523.00,0.0144
3522.00,0.0145
3521.00,0.0146
3520.00,0.0146
3519.00,0.0148
3518.00,0.0149
3517.00,0.0150
3516.00,0.0151
3515.00,0.0152
3514.00,0.0152
3513.00,0.0153
3512.00,0.0154
3511.00,0.0154
3510.00,0.0155
3509.00,0.0156
3508.00,0.0157
3507.00,0.0158
3506.00,0.0159
3505.00,0.0160
3504.00,0.0161
3503.00,0.0162
3502.00,0.0164
3501.00,0.0165
3500.00,0.0165
3499.00,0.0166
3498.00,0.0167
3497.00,0.0168
3496.00,0.0169
3495.00,0.0170
3494.00,0.0171
3493.00,0.0172
3492.00,0.0173
3491.00,0.0174
3490.00,0.0175
3489.00,0.0177
3488.00,0.0178
3487.00,0.0179
3486.00,0.0180
3485.00,0.0181
3484.00,0.0182
3483.00,0.0183
3482.00,0.0184
3481.00,0.0185
3480.00,0.0186
3479.00,0.0187
3478.00,0.0188
3477.00,0.0190
3476.00,0.0191
3475.00,0.0192
3474.00,0.0193
3473.00,0.0194
3472.00,0.0195
3471.00,0.0197
3470.00,0.0198
3469.00,0.0199
3468.00,0.0201
3467.00,0.0202
3466.00,0.0203
3465.00,0.0204
3464.00,0.0204
3463.00,0.0205
3462.00,0.0206
3461.00,0.0207
3460.00,0.0208
3459.00,0.0209
3458.00,0.0210
3457.00,0.0211
3456.00,0.0213
3455.00,0.0214
3454.00,0.0214
3453.00,0.0215
3452.00,0.0216
3451.00,0.0217
3450.00,0.0218
3449.00,0.0219
3448.00,0.0220
3447.00,0.0221
3446.00,0.0222
3445.00,0.0224
3444.00,0.0225
3443.00,0.0226
3442.00,0.0226
3441.00,0.0227
3440.00,0.0228
3439.00,0.0229
3438.00,0.0230
3437.00,0.0231
3436.00,0.0232
3435.00,0.0234
3434.00,0.0235
3433.00,0.0236
3432.00,0.0237
3431.00,0.0239
3430.00,0.0240
3429.00,0.0241
3428.00,0.0242
3427.00,0.0243
3426.00,0.0244
3425.00,0.0245
3424.00,0.0246
3423.00,0.0247
3422.00,0.0249
3421.00,0.0250
3420.00,0.0251
3419.00,0.0253
3418.00,0.0254
3417.00,0.0256
3416.00,0.0257
3415.00,0.0258
3414.00,0.0259
3413.00,0.0260
3412.00,0.0261
3411.00,0.0262
3410.00,0.0263
3409.00,0.0264
3408.00,0.0265
3407.00,0.0266
3406.00,0.0267
3405.00,0.0268
3404.00,0.0269
3403.00,0.0269
3402.00,0.0270
3401.00,0.0270
3400.00,0.0270
3399.00,0.0271
3398.00,0.0272
3397.00,0.0272
3396.00,0.0273
3395.00,0.0273
3394.00,0.0273
3393.00,0.0273
3392.00,0.0273
3391.00,0.0273
3390.00,0.0273
3389.00,0.0273
3388.00,0.0274
3387.00,0.0274
3386.00,0.0274
3385.00,0.0274
3384.00,0.0274
3383.00,0.0274
3382.00,0.0274
3381.00,0.0274
3380.00,0.0274
3379.00,0.0274
3378.00,0.0274
3377.00,0.0274
3376.00,0.0274
3375.00,0.0274
3374.00,0.0274
3373.00,0.0274
3372.00,0.0274
3371.00,0.0273
3370.00,0.0273
3369.00,0.0273
3368.00,0.0273
3367.00,0.0274
3366.00,0.0274
3365.00,0.0275
3364.00,0.0275
3363.00,0.0276
3362.00,0.0276
3361.00,0.0276
3360.00,0.0277
3359.00,0.0277
3358.00,0.0278
3357.00,0.0278
3356.00,0.0278
3355.00,0.0278
3354.00,0.0278
3353.00,0.0278
3352.00,0.0278
3351.00,0.0278
3350.00,0.0278
3349.00,0.0279
3348.00,0.0280
3347.00,0.0281
3346.00,0.0281
3345.00,0.0281
3344.00,0.0281
3343.00,0.0282
3342.00,0.0282
3341.00,0.0282
3340.00,0.0282
3339.00,0.0282
3338.00,0.0282
3337.00,0.0283
3336.00,0.0284
3335.00,0.0285
3334.00,0.0286
3333.00,0.0286
3332.00,0.0287
3331.00,0.0287
3330.00,0.0287
3329.00,0.0288
3328.00,0.0288
3327.00,0.0288
3326.00,0.0288
3325.00,0.0288
3324.00,0.0289
3323.00,0.0290
3322.00,0.0291
3321.00,0.0292
3320.00,0.0293
3319.00,0.0294
3318.00,0.0294
3317.00,0.0295
3316.00,0.0296
3315.00,0.0296
3314.00,0.0297
3313.00,0.0297
3312.00,0.0297
3311.00,0.0297
3310.00,0.0296
3309.00,0.0296
3308.00,0.0296
3307.00,0.0297
3306.00,0.0298
3305.00,0.0299
3304.00,0.0301
3303.00,0.0303
3302.00,0.0304
3301.00,0.0305
3300.00,0.0306
3299.00,0.0306
3298.00,0.0307
3297.00,0.0307
3296.00,0.0307
3295.00,0.0308
3294.00,0.0308
3293.00,0.0309
3292.00,0.0310
3291.00,0.0311
3290.00,0.0312
3289.00,0.0313
3288.00,0.0314
3287.00,0.0314
3286.00,0.0315
3285.00,0.0315
3284.00,0.0316
3283.00,0.0316
3282.00,0.0317
3281.00,0.0317
3280.00,0.0317
3279.00,0.0317
3278.00,0.0317
3277.00,0.0317
3276.00,0.0317
3275.00,0.0316
3274.00,0.0316
3273.00,0.0316
3272.00,0.0315
3271.00,0.0315
3270.00,0.0316
3269.00,0.0316
3268.00,0.0317
3267.00,0.0317
3266.00,0.0317
3265.00,0.0317
3264.00,0.0316
3263.00,0.0316
3262.00,0.0316
3261.00,0.0315
3260.00,0.0315
3259.00,0.0314
3258.00,0.0314
3257.00,0.0313
3256.00,0.0312
3255.00,0.0312
3254.00,0.0311
3253.00,0.0311
3252.00,0.0311
3251.00,0.0311
3250.00,0.0310
3249.00,0.0308
3248.00,0.0308
3247.00,0.0307
3246.00,0.0307
3245.00,0.0307
3244.00,0.0307
3243.00,0.0307
3242.00,0.0307
3241.00,0.0306
3240.00,0.0306
3239.00,0.0305
3238.00,0.0304
3237.00,0.0303
3236.00,0.0302
3235.00,0.0301
3234.00,0.0300
3233.00,0.0300
3232.00,0.0300
3231.00,0.0300
3230.00,0.0300
3229.00,0.0299
3228.00,0.0299
3227.00,0.0299
3226.00,0.0298
3225.00,0.0298
3224.00,0.0297
3223.00,0.0297
3222.00,0.0296
3221.00,0.0295
3220.00,0.0294
3219.00,0.0293
3218.00,0.0293
3217.00,0.0292
3216.00,0.0291
3215.00,0.0291
3214.00,0.0290
3213.00,0.0289
3212.00,0.0289
3211.00,0.0288
3210.00,0.0287
3209.00,0.0286
3208.00,0.0286
3207.00,0.0285
3206.00,0.0283
3205.00,0.0282
3204.00,0.0281
3203.00,0.0280
3202.00,0.0279
3201.00,0.0278
3200.00,0.0277
3199.00,0.0277
3198.00,0.0276
3197.00,0.0275
3196.00,0.0274
3195.00,0.0273
3194.00,0.0271
3193.00,0.0270
3192.00,0.0269
3191.00,0.0267
3190.00,0.0266
3189.00,0.0265
3188.00,0.0264
3187.00,0.0263
3186.00,0.0262
3185.00,0.0260
3184.00,0.0259
3183.00,0.0258
3182.00,0.0257
3181.00,0.0255
3180.00,0.0254
3179.00,0.0252
3178.00,0.0251
3177.00,0.0249
3176.00,0.0248
3175.00,0.0247
3174.00,0.0246
3173.00,0.0244
3172.00,0.0243
3171.00,0.0242
3170.00,0.0240
3169.00,0.0239
3168.00,0.0238
3167.00,0.0237
3166.00,0.0236
3165.00,0.0234
3164.00,0.0233
3163.00,0.0231
3162.00,0.0230
3161.00,0.0228
3160.00,0.0227
3159.00,0.0226
3158.00,0.0225
3157.00,0.0223
3156.00,0.0221
3155.00,0.0219
3154.00,0.0218
3153.00,0.0216
3152.00,0.0215
3151.00,0.0215
3150.00,0.0214
3149.00,0.0213
3148.00,0.0212
3147.00,0.0211
3146.00,0.0210
3145.00,0.0209
3144.00,0.0208
3143.00,0.0207
3142.00,0.0205
3141.00,0.0204
3140.00,0.0203
3139.00,0.0202
3138.00,0.0201
3137.00,0.0201
3136.00,0.0200
3135.00,0.0200
3134.00,0.0199
3133.00,0.0198
3132.00,0.0196
3131.00,0.0195
3130.00,0.0194
3129.00,0.0194
3128.00,0.0193
3127.00,0.0193
3126.00,0.0192
3125.00,0.0192
3124.00,0.0191
3123.00,0.0190
3122.00,0.0189
3121.00,0.0188
3120.00,0.0187
3119.00,0.0186
3118.00,0.0185
3117.00,0.0185
3116.00,0.0185
3115.00,0.0185
3114.00,0.0184
3113.00,0.0184
3112.00,0.0184
3111.00,0.0183
3110.00,0.0182
3109.00,0.0181
3108.00,0.0181
3107.00,0.0181
3106.00,0.0181
3105.00,0.0180
3104.00,0.0180
3103.00,0.0180
3102.00,0.0179
3101.00,0.0179
3100.00,0.0179
3099.00,0.0178
3098.00,0.0178
3097.00,0.0178
3096.00,0.0178
3095.00,0.0178
3094.00,0.0178
3093.00,0.0178
3092.00,0.0178
3091.00,0.0178
3090.00,0.0178
3089.00,0.0178
3088.00,0.0178
3087.00,0.0179
3086.00,0.0178
3085.00,0.0178
3084.00,0.0178
3083.00,0.0178
3082.00,0.0178
3081.00,0.0178
3080.00,0.0178
3079.00,0.0178
3078.00,0.0178
3077.00,0.0178
3076.00,0.0178
3075.00,0.0179
3074.00,0.0179
3073.00,0.0178
3072.00,0.0178
3071.00,0.0178
3070.00,0.0177
3069.00,0.0176
3068.00,0.0176
3067.00,0.0176
3066.00,0.0176
3065.00,0.0176
3064.00,0.0176
3063.00,0.0176
3062.00,0.0176
3061.00,0.0176
3060.00,0.0176
3059.00,0.0175
3058.00,0.0175
3057.00,0.0174
3056.00,0.0174
3055.00,0.0174
3054.00,0.0173
3053.00,0.0173
3052.00,0.0172
3051.00,0.0172
3050.00,0.0171
3049.00,0.0171
3048.00,0.0170
3047.00,0.0169
3046.00,0.0169
3045.00,0.0168
3044.00,0.0167
3043.00,0.0167
3042.00,0.0167
3041.00,0.0167
3040.00,0.0168
3039.00,0.0168
3038.00,0.0168
3037.00,0.0167
3036.00,0.0167
3035.00,0.0167
3034.00,0.0167
3033.00,0.0166
3032.00,0.0166
3031.00,0.0166
3030.00,0.0165
3029.00,0.0165
3028.00,0.0164
3027.00,0.0163
3026.00,0.0163
3025.00,0.0162
3024.00,0.0161
3023.00,0.0160
3022.00,0.0159
3021.00,0.0159
3020.00,0.0158
3019.00,0.0157
3018.00,0.0156
3017.00,0.0156
3016.00,0.0155
3015.00,0.0155
3014.00,0.0155
3013.00,0.0156
3012.00,0.0156
3011.00,0.0157
3010.00,0.0158
3009.00,0.0159
3008.00,0.0160
3007.00,0.0162
3006.00,0.0163
3005.00,0.0165
3004.00,0.0166
3003.00,0.0168
3002.00,0.0170
3001.00,0.0173
3000.00,0.0175
2999.00,0.0178
2998.00,0.0181
2997.00,0.0184
2996.00,0.0188
2995.00,0.0191
2994.00,0.0194
2993.00,0.0198
2992.00,0.0201
2991.00,0.0205
2990.00,0.0209
2989.00,0.0212
2988.00,0.0216
2987.00,0.0220
2986.00,0.0224
2985.00,0.0229
2984.00,0.0234
2983.00,0.0239
2982.00,0.0245
2981.00,0.0250
2980.00,0.0256
2979.00,0.0260
2978.00,0.0264
2977.00,0.0267
2976.00,0.0270
2975.00,0.0273
2974.00,0.0278
2973.00,0.0284
2972.00,0.0291
2971.00,0.0297
2970.00,0.0303
2969.00,0.0307
2968.00,0.0310
2967.00,0.0314
2966.00,0.0317
2965.00,0.0320
2964.00,0.0324
2963.00,0.0328
2962.00,0.0331
2961.00,0.0334
2960.00,0.0335
2959.00,0.0335
2958.00,0.0334
2957.00,0.0331
2956.00,0.0328
2955.00,0.0323
2954.00,0.0319
2953.00,0.0314
2952.00,0.0310
2951.00,0.0306
2950.00,0.0303
2949.00,0.0301
2948.00,0.0300
2947.00,0.0300
2946.00,0.0301
2945.00,0.0303
2944.00,0.0305
2943.00,0.0309
2942.00,0.0313
2941.00,0.0317
2940.00,0.0323
2939.00,0.0329
2938.00,0.0336
2937.00,0.0344
2936.00,0.0353
2935.00,0.0362
2934.00,0.0372
2933.00,0.0382
2932.00,0.0392
2931.00,0.0401
2930.00,0.0409
2929.00,0.0415
2928.00,0.0419
2927.00,0.0422
2926.00,0.0421
2925.00,0.0419
2924.00,0.0414
2923.00,0.0408
2922.00,0.0401
2921.00,0.0394
2920.00,0.0386
2919.00,0.0378
2918.00,0.0369
2917.00,0.0360
2916.00,0.0351
2915.00,0.0343
2914.00,0.0335
2913.00,0.0327
2912.00,0.0320
2911.00,0.0313
2910.00,0.0307
2909.00,0.0301
2908.00,0.0296
2907.00,0.0291
2906.00,0.0286
2905.00,0.0282
2904.00,0.0278
2903.00,0.0274
2902.00,0.0271
2901.00,0.0268
2900.00,0.0265
2899.00,0.0262
2898.00,0.0259
2897.00,0.0257
2896.00,0.0255
2895.00,0.0253
2894.00,0.0251
2893.00,0.0250
2892.00,0.0248
2891.00,0.0246
2890.00,0.0245
2889.00,0.0243
2888.00,0.0242
2887.00,0.0241
2886.00,0.0240
2885.00,0.0240
2884.00,0.0239
2883.00,0.0240
2882.00,0.0240
2881.00,0.0241
2880.00,0.0243
2879.00,0.0245
2878.00,0.0247
2877.00,0.0250
2876.00,0.0253
2875.00,0.0255
2874.00,0.0257
2873.00,0.0259
2872.00,0.0260
2871.00,0.0260
2870.00,0.0259
2869.00,0.0257
2868.00,0.0255
2867.00,0.0254
2866.00,0.0254
2865.00,0.0255
2864.00,0.0257
2863.00,0.0261
2862.00,0.0266
2861.00,0.0271
2860.00,0.0277
2859.00,0.0283
2858.00,0.0287
2857.00,0.0290
2856.00,0.0291
2855.00,0.0290
2854.00,0.0287
2853.00,0.0283
2852.00,0.0278
2851.00,0.0271
2850.00,0.0263
2849.00,0.0253
2848.00,0.0243
2847.00,0.0233
2846.00,0.0224
2845.00,0.0215
2844.00,0.0207
2843.00,0.0200
2842.00,0.0194
2841.00,0.0188
2840.00,0.0183
2839.00,0.0178
2838.00,0.0174
2837.00,0.0171
2836.00,0.0168
2835.00,0.0165
2834.00,0.0163
2833.00,0.0160
2832.00,0.0158
2831.00,0.0156
2830.00,0.0154
2829.00,0.0152
2828.00,0.0151
2827.00,0.0149
2826.00,0.0147
2825.00,0.0146
2824.00,0.0144
2823.00,0.0142
2822.00,0.0141
2821.00,0.0140
2820.00,0.0138
2819.00,0.0137
2818.00,0.0137
2817.00,0.0136
2816.00,0.0135
2815.00,0.0134
2814.00,0.0133
2813.00,0.0132
2812.00,0.0131
2811.00,0.0130
2810.00,0.0130
2809.00,0.0129
2808.00,0.0129
2807.00,0.0128
2806.00,0.0128
2805.00,0.0127
2804.00,0.0127
2803.00,0.0126
2802.00,0.0126
2801.00,0.0125
2800.00,0.0124
2799.00,0.0123
2798.00,0.0123
2797.00,0.0123
2796.00,0.0123
2795.00,0.0122
2794.00,0.0122
2793.00,0.0121
2792.00,0.0120
2791.00,0.0119
2790.00,0.0119
2789.00,0.0118
2788.00,0.0118
2787.00,0.0118
2786.00,0.0118
2785.00,0.0117
2784.00,0.0117
2783.00,0.0116
2782.00,0.0116
2781.00,0.0115
2780.00,0.0115
2779.00,0.0115
2778.00,0.0114
2777.00,0.0114
2776.00,0.0113
2775.00,0.0113
2774.00,0.0113
2773.00,0.0113
2772.00,0.0112
2771.00,0.0112
2770.00,0.0112
2769.00,0.0112
2768.00,0.0111
2767.00,0.0111
2766.00,0.0111
2765.00,0.0111
2764.00,0.0111
2763.00,0.0110
2762.00,0.0110
2761.00,0.0110
2760.00,0.0110
2759.00,0.0109
2758.00,0.0109
2757.00,0.0108
2756.00,0.0108
2755.00,0.0108
2754.00,0.0108
2753.00,0.0108
2752.00,0.0108
2751.00,0.0108
2750.00,0.0108
2749.00,0.0108
2748.00,0.0107
2747.00,0.0107
2746.00,0.0107
2745.00,0.0107
2744.00,0.0107
2743.00,0.0107
2742.00,0.0107
2741.00,0.0107
2740.00,0.0107
2739.00,0.0107
2738.00,0.0107
2737.00,0.0107
2736.00,0.0107
2735.00,0.0107
2734.00,0.0107
2733.00,0.0107
2732.00,0.0107
2731.00,0.0107
2730.00,0.0107
2729.00,0.0107
2728.00,0.0106
2727.00,0.0106
2726.00,0.0106
2725.00,0.0106
2724.00,0.0105
2723.00,0.0105
2722.00,0.0105
2721.00,0.0104
2720.00,0.0104
2719.00,0.0104
2718.00,0.0103
2717.00,0.0103
2716.00,0.0103
2715.00,0.0102
2714.00,0.0102
2713.00,0.0101
2712.00,0.0101
2711.00,0.0101
2710.00,0.0100
2709.00,0.0100
2708.00,0.0100
2707.00,0.0100
2706.00,0.0100
2705.00,0.0100
2704.00,0.0100
2703.00,0.0099
2702.00,0.0099
2701.00,0.0099
2700.00,0.0099
2699.00,0.0099
2698.00,0.0098
2697.00,0.0098
2696.00,0.0098
2695.00,0.0098
2694.00,0.0098
2693.00,0.0097
2692.00,0.0097
2691.00,0.0097
2690.00,0.0097
2689.00,0.0096
2688.00,0.0096
2687.00,0.0096
2686.00,0.0096
2685.00,0.0096
2684.00,0.0095
2683.00,0.0095
2682.00,0.0095
2681.00,0.0094
2680.00,0.0094
2679.00,0.0094
2678.00,0.0094
2677.00,0.0094
2676.00,0.0094
2675.00,0.0095
2674.00,0.0095
2673.00,0.0094
2672.00,0.0094
2671.00,0.0094
2670.00,0.0094
2669.00,0.0094
2668.00,0.0095
2667.00,0.0095
2666.00,0.0095
2665.00,0.0096
2664.00,0.0096
2663.00,0.0097
2662.00,0.0097
2661.00,0.0097
2660.00,0.0098
2659.00,0.0098
2658.00,0.0098
2657.00,0.0098
2656.00,0.0098
2655.00,0.0098
2654.00,0.0098
2653.00,0.0098
2652.00,0.0098
2651.00,0.0098
2650.00,0.0098
2649.00,0.0097
2648.00,0.0097
2647.00,0.0097
2646.00,0.0097
2645.00,0.0097
2644.00,0.0097
2643.00,0.0097
2642.00,0.0096
2641.00,0.0096
2640.00,0.0096
2639.00,0.0096
2638.00,0.0096
2637.00,0.0095
2636.00,0.0095
2635.00,0.0095
2634.00,0.0094
2633.00,0.0094
2632.00,0.0094
2631.00,0.0094
2630.00,0.0094
2629.00,0.0093
2628.00,0.0093
2627.00,0.0093
2626.00,0.0092
2625.00,0.0092
2624.00,0.0092
2623.00,0.0092
2622.00,0.0092
2621.00,0.0091
2620.00,0.0091
2619.00,0.0091
2618.00,0.0091
2617.00,0.0091
2616.00,0.0091
2615.00,0.0091
2614.00,0.0090
2613.00,0.0090
2612.00,0.0090
2611.00,0.0090
2610.00,0.0090
2609.00,0.0089
2608.00,0.0089
2607.00,0.0089
2606.00,0.0089
2605.00,0.0089
2604.00,0.0089
2603.00,0.0089
2602.00,0.0088
2601.00,0.0088
2600.00,0.0088
2599.00,0.0088
2598.00,0.0088
2597.00,0.0088
2596.00,0.0088
2595.00,0.0088
2594.00,0.0088
2593.00,0.0088
2592.00,0.0088
2591.00,0.0088
2590.00,0.0088
2589.00,0.0088
2588.00,0.0088
2587.00,0.0088
2586.00,0.0088
2585.00,0.0088
2584.00,0.0088
2583.00,0.0087
2582.00,0.0087
2581.00,0.0086
2580.00,0.0086
2579.00,0.0086
2578.00,0.0086
2577.00,0.0086
2576.00,0.0086
2575.00,0.0085
2574.00,0.0085
2573.00,0.0084
2572.00,0.0084
2571.00,0.0084
2570.00,0.0084
2569.00,0.0084
2568.00,0.0084
2567.00,0.0084
2566.00,0.0084
2565.00,0.0084
2564.00,0.0083
2563.00,0.0083
2562.00,0.0083
2561.00,0.0082
2560.00,0.0082
2559.00,0.0082
2558.00,0.0081
2557.00,0.0081
2556.00,0.0081
2555.00,0.0081
2554.00,0.0081
2553.00,0.0081
2552.00,0.0081
2551.00,0.0081
2550.00,0.0081
2549.00,0.0080
2548.00,0.0080
2547.00,0.0080
2546.00,0.0079
2545.00,0.0079
2544.00,0.0079
2543.00,0.0079
2542.00,0.0079
2541.00,0.0079
2540.00,0.0079
2539.00,0.0079
2538.00,0.0079
2537.00,0.0079
2536.00,0.0079
2535.00,0.0078
2534.00,0.0078
2533.00,0.0078
2532.00,0.0078
2531.00,0.0078
2530.00,0.0078
2529.00,0.0078
2528.00,0.0077
2527.00,0.0077
2526.00,0.0077
2525.00,0.0077
2524.00,0.0077
2523.00,0.0076
2522.00,0.0076
2521.00,0.0075
2520.00,0.0075
2519.00,0.0076
2518.00,0.0076
2517.00,0.0075
2516.00,0.0075
2515.00,0.0075
2514.00,0.0074
2513.00,0.0074
2512.00,0.0074
2511.00,0.0074
2510.00,0.0074
2509.00,0.0074
2508.00,0.0074
2507.00,0.0074
2506.00,0.0074
2505.00,0.0074
2504.00,0.0074
2503.00,0.0073
2502.00,0.0073
2501.00,0.0072
2500.00,0.0072
2499.00,0.0072
2498.00,0.0072
2497.00,0.0072
2496.00,0.0072
2495.00,0.0072
2494.00,0.0072
2493.00,0.0072
2492.00,0.0072
2491.00,0.0072
2490.00,0.0072
2489.00,0.0072
2488.00,0.0072
2487.00,0.0072
2486.00,0.0071
2485.00,0.0071
2484.00,0.0070
2483.00,0.0070
2482.00,0.0070
2481.00,0.0070
2480.00,0.0070
2479.00,0.0070
2478.00,0.0070
2477.00,0.0070
2476.00,0.0070
2475.00,0.0070
2474.00,0.0070
2473.00,0.0070
2472.00,0.0070
2471.00,0.0070
2470.00,0.0069
2469.00,0.0069
2468.00,0.0068
2467.00,0.0068
2466.00,0.0069
2465.00,0.0069
2464.00,0.0069
2463.00,0.0069
2462.00,0.0069
2461.00,0.0070
2460.00,0.0070
2459.00,0.0070
2458.00,0.0070
2457.00,0.0070
2456.00,0.0070
2455.00,0.0070
2454.00,0.0070
2453.00,0.0070
2452.00,0.0069
2451.00,0.0069
2450.00,0.0069
2449.00,0.0069
2448.00,0.0068
2447.00,0.0068
2446.00,0.0068
2445.00,0.0067
2444.00,0.0067
2443.00,0.0067
2442.00,0.0067
2441.00,0.0067
2440.00,0.0067
2439.00,0.0066
2438.00,0.0066
2437.00,0.0066
2436.00,0.0066
2435.00,0.0066
2434.00,0.0066
2433.00,0.0066
2432.00,0.0066
2431.00,0.0066
2430.00,0.0066
2429.00,0.0066
2428.00,0.0066
2427.00,0.0066
2426.00,0.0066
2425.00,0.0065
2424.00,0.0065
2423.00,0.0065
2422.00,0.0065
2421.00,0.0065
2420.00,0.0065
2419.00,0.0065
2418.00,0.0064
2417.00,0.0064
2416.00,0.0064
2415.00,0.0064
2414.00,0.0064
2413.00,0.0064
2412.00,0.0064
2411.00,0.0064
2410.00,0.0064
2409.00,0.0064
2408.00,0.0064
2407.00,0.0063
2406.00,0.0063
2405.00,0.0063
2404.00,0.0063
2403.00,0.0063
2402.00,0.0063
2401.00,0.0063
2400.00,0.0062
2399.00,0.0062
2398.00,0.0062
2397.00,0.0062
2396.00,0.0062
2395.00,0.0062
2394.00,0.0061
2393.00,0.0061
2392.00,0.0061
2391.00,0.0060
2390.00,0.0060
2389.00,0.0060
2388.00,0.0060
2387.00,0.0060
2386.00,0.0059
2385.00,0.0059
2384.00,0.0058
2383.00,0.0057
2382.00,0.0057
2381.00,0.0056
2380.00,0.0056
2379.00,0.0056
2378.00,0.0056
2377.00,0.0056
2376.00,0.0056
2375.00,0.0056
2374.00,0.0056
2373.00,0.0056
2372.00,0.0056
2371.00,0.0056
2370.00,0.0055
2369.00,0.0054
2368.00,0.0054
2367.00,0.0054
2366.00,0.0054
2365.00,0.0055
2364.00,0.0055
2363.00,0.0056
2362.00,0.0056
2361.00,0.0056
2360.00,0.0056
2359.00,0.0056
2358.00,0.0056
2357.00,0.0056
2356.00,0.0056
2355.00,0.0056
2354.00,0.0056
2353.00,0.0056
2352.00,0.0056
2351.00,0.0056
2350.00,0.0057
2349.00,0.0057
2348.00,0.0058
2347.00,0.0059
2346.00,0.0059
2345.00,0.0058
2344.00,0.0058
2343.00,0.0058
2342.00,0.0059
2341.00,0.0059
2340.00,0.0059
2339.00,0.0060
2338.00,0.0060
2337.00,0.0060
2336.00,0.0060
2335.00,0.0060
2334.00,0.0060
2333.00,0.0059
2332.00,0.0059
2331.00,0.0059
2330.00,0.0059
2329.00,0.0061
2328.00,0.0065
2327.00,0.0069
2326.00,0.0072
2325.00,0.0073
2324.00,0.0072
2323.00,0.0070
2322.00,0.0067
2321.00,0.0066
2320.00,0.0065
2319.00,0.0064
2318.00,0.0064
2317.00,0.0063
2316.00,0.0063
2315.00,0.0063
2314.00,0.0062
2313.00,0.0062
2312.00,0.0061
2311.00,0.0061
2310.00,0.0061
2309.00,0.0061
2308.00,0.0061
2307.00,0.0061
2306.00,0.0061
2305.00,0.0061
2304.00,0.0061
2303.00,0.0061
2302.00,0.0062
2301.00,0.0062
2300.00,0.0063
2299.00,0.0064
2298.00,0.0065
2297.00,0.0065
2296.00,0.0066
2295.00,0.0067
2294.00,0.0067
2293.00,0.0068
2292.00,0.0069
2291.00,0.0070
2290.00,0.0070
2289.00,0.0071
2288.00,0.0071
2287.00,0.0072
2286.00,0.0072
2285.00,0.0071
2284.00,0.0071
2283.00,0.0070
2282.00,0.0069
2281.00,0.0068
2280.00,0.0068
2279.00,0.0067
2278.00,0.0066
2277.00,0.0065
2276.00,0.0065
2275.00,0.0064
2274.00,0.0064
2273.00,0.0064
2272.00,0.0064
2271.00,0.0064
2270.00,0.0063
2269.00,0.0062
2268.00,0.0061
2267.00,0.0060
2266.00,0.0060
2265.00,0.0060
2264.00,0.0060
2263.00,0.0061
2262.00,0.0061
2261.00,0.0062
2260.00,0.0062
2259.00,0.0062
2258.00,0.0062
2257.00,0.0061
2256.00,0.0060
2255.00,0.0059
2254.00,0.0059
2253.00,0.0059
2252.00,0.0059
2251.00,0.0059
2250.00,0.0060
2249.00,0.0060
2248.00,0.0060
2247.00,0.0060
2246.00,0.0060
2245.00,0.0060
2244.00,0.0061
2243.00,0.0061
2242.00,0.0060
2241.00,0.0060
2240.00,0.0059
2239.00,0.0059
2238.00,0.0060
2237.00,0.0060
2236.00,0.0061
2235.00,0.0061
2234.00,0.0061
2233.00,0.0060
2232.00,0.0059
2231.00,0.0059
2230.00,0.0059
2229.00,0.0059
2228.00,0.0059
2227.00,0.0059
2226.00,0.0059
2225.00,0.0059
2224.00,0.0059
2223.00,0.0059
2222.00,0.0059
2221.00,0.0059
2220.00,0.0059
2219.00,0.0060
2218.00,0.0060
2217.00,0.0060
2216.00,0.0060
2215.00,0.0060
2214.00,0.0060
2213.00,0.0060
2212.00,0.0060
2211.00,0.0060
2210.00,0.0060
2209.00,0.0061
2208.00,0.0061
2207.00,0.0061
2206.00,0.0059
2205.00,0.0058
2204.00,0.0057
2203.00,0.0057
2202.00,0.0057
2201.00,0.0057
2200.00,0.0058
2199.00,0.0059
2198.00,0.0058
2197.00,0.0058
2196.00,0.0058
2195.00,0.0059
2194.00,0.0060
2193.00,0.0061
2192.00,0.0062
2191.00,0.0062
2190.00,0.0062
2189.00,0.0061
2188.00,0.0061
2187.00,0.0061
2186.00,0.0060
2185.00,0.0059
2184.00,0.0057
2183.00,0.0055
2182.00,0.0054
2181.00,0.0054
2180.00,0.0056
2179.00,0.0056
2178.00,0.0054
2177.00,0.0052
2176.00,0.0050
2175.00,0.0049
2174.00,0.0049
2173.00,0.0052
2172.00,0.0055
2171.00,0.0058
2170.00,0.0061
2169.00,0.0064
2168.00,0.0067
2167.00,0.0068
2166.00,0.0069
2165.00,0.0069
2164.00,0.0069
2163.00,0.0068
2162.00,0.0061
2161.00,0.0051
2160.00,0.0037
2159.00,0.0026
2158.00,0.0020
2157.00,0.0020
2156.00,0.0023
2155.00,0.0027
2154.00,0.0031
2153.00,0.0033
2152.00,0.0035
2151.00,0.0035
2150.00,0.0036
2149.00,0.0037
2148.00,0.0038
2147.00,0.0039
2146.00,0.0039
2145.00,0.0039
2144.00,0.0039
2143.00,0.0040
2142.00,0.0040
2141.00,0.0041
2140.00,0.0041
2139.00,0.0040
2138.00,0.0038
2137.00,0.0037
2136.00,0.0035
2135.00,0.0034
2134.00,0.0033
2133.00,0.0034
2132.00,0.0036
2131.00,0.0038
2130.00,0.0040
2129.00,0.0043
2128.00,0.0044
2127.00,0.0045
2126.00,0.0046
2125.00,0.0047
2124.00,0.0048
2123.00,0.0048
2122.00,0.0049
2121.00,0.0049
2120.00,0.0049
2119.00,0.0050
2118.00,0.0051
2117.00,0.0052
2116.00,0.0053
2115.00,0.0053
2114.00,0.0054
2113.00,0.0054
2112.00,0.0054
2111.00,0.0054
2110.00,0.0053
2109.00,0.0053
2108.00,0.0053
2107.00,0.0053
2106.00,0.0053
2105.00,0.0052
2104.00,0.0052
2103.00,0.0052
2102.00,0.0052
2101.00,0.0053
2100.00,0.0053
2099.00,0.0052
2098.00,0.0051
2097.00,0.0049
2096.00,0.0047
2095.00,0.0046
2094.00,0.0046
2093.00,0.0047
2092.00,0.0048
2091.00,0.0049
2090.00,0.0049
2089.00,0.0049
2088.00,0.0050
2087.00,0.0051
2086.00,0.0051
2085.00,0.0052
2084.00,0.0054
2083.00,0.0054
2082.00,0.0054
2081.00,0.0054
2080.00,0.0054
2079.00,0.0054
2078.00,0.0054
2077.00,0.0054
2076.00,0.0053
2075.00,0.0053
2074.00,0.0053
2073.00,0.0054
2072.00,0.0054
2071.00,0.0054
2070.00,0.0054
2069.00,0.0053
2068.00,0.0052
2067.00,0.0051
2066.00,0.0050
2065.00,0.0050
2064.00,0.0049
2063.00,0.0049
2062.00,0.0048
2061.00,0.0048
2060.00,0.0049
2059.00,0.0049
2058.00,0.0049
2057.00,0.0049
2056.00,0.0049
2055.00,0.0050
2054.00,0.0052
2053.00,0.0055
2052.00,0.0058
2051.00,0.0057
2050.00,0.0054
2049.00,0.0051
2048.00,0.0048
2047.00,0.0047
2046.00,0.0046
2045.00,0.0046
2044.00,0.0046
2043.00,0.0046
2042.00,0.0047
2041.00,0.0048
2040.00,0.0049
2039.00,0.0050
2038.00,0.0049
2037.00,0.0047
2036.00,0.0044
2035.00,0.0041
2034.00,0.0039
2033.00,0.0039
2032.00,0.0041
2031.00,0.0042
2030.00,0.0043
2029.00,0.0043
2028.00,0.0043
2027.00,0.0042
2026.00,0.0041
2025.00,0.0041
2024.00,0.0042
2023.00,0.0043
2022.00,0.0043
2021.00,0.0042
2020.00,0.0041
2019.00,0.0040
2018.00,0.0039
2017.00,0.0040
2016.00,0.0041
2015.00,0.0041
2014.00,0.0040
2013.00,0.0040
2012.00,0.0041
2011.00,0.0040
2010.00,0.0039
2009.00,0.0037
2008.00,0.0036
2007.00,0.0034
2006.00,0.0033
2005.00,0.0035
2004.00,0.0037
2003.00,0.0038
2002.00,0.0039
2001.00,0.0040
2000.00,0.0041
1999.00,0.0042
1998.00,0.0043
1997.00,0.0044
1996.00,0.0044
1995.00,0.0044
1994.00,0.0044
1993.00,0.0044
1992.00,0.0044
1991.00,0.0044
1990.00,0.0045
1989.00,0.0046
1988.00,0.0047
1987.00,0.0048
1986.00,0.0048
1985.00,0.0050
1984.00,0.0053
1983.00,0.0056
1982.00,0.0058
1981.00,0.0059
1980.00,0.0056
1979.00,0.0049
1978.00,0.0042
1977.00,0.0037
1976.00,0.0036
1975.00,0.0036
1974.00,0.0036
1973.00,0.0036
1972.00,0.0035
1971.00,0.0034
1970.00,0.0033
1969.00,0.0033
1968.00,0.0035
1967.00,0.0037
1966.00,0.0038
1965.00,0.0038
1964.00,0.0038
1963.00,0.0037
1962.00,0.0035
1961.00,0.0034
1960.00,0.0033
1959.00,0.0033
1958.00,0.0033
1957.00,0.0034
1956.00,0.0035
1955.00,0.0036
1954.00,0.0037
1953.00,0.0038
1952.00,0.0039
1951.00,0.0039
1950.00,0.0038
1949.00,0.0039
1948.00,0.0039
1947.00,0.0040
1946.00,0.0040
1945.00,0.0041
1944.00,0.0042
1943.00,0.0042
1942.00,0.0042
1941.00,0.0042
1940.00,0.0042
1939.00,0.0042
1938.00,0.0041
1937.00,0.0040
1936.00,0.0040
1935.00,0.0040
1934.00,0.0041
1933.00,0.0041
1932.00,0.0041
1931.00,0.0041
1930.00,0.0040
1929.00,0.0040
1928.00,0.0040
1927.00,0.0040
1926.00,0.0041
1925.00,0.0042
1924.00,0.0043
1923.00,0.0043
1922.00,0.0044
1921.00,0.0044
1920.00,0.0044
1919.00,0.0045
1918.00,0.0044
1917.00,0.0044
1916.00,0.0044
1915.00,0.0044
1914.00,0.0044
1913.00,0.0045
1912.00,0.0046
1911.00,0.0047
1910.00,0.0048
1909.00,0.0048
1908.00,0.0048
1907.00,0.0048
1906.00,0.0047
1905.00,0.0046
1904.00,0.0046
1903.00,0.0045
1902.00,0.0045
1901.00,0.0045
1900.00,0.0046
1899.00,0.0046
1898.00,0.0047
1897.00,0.0047
1896.00,0.0047
1895.00,0.0048
1894.00,0.0048
1893.00,0.0048
1892.00,0.0048
1891.00,0.0047
1890.00,0.0046
1889.00,0.0045
1888.00,0.0045
1887.00,0.0045
1886.00,0.0045
1885.00,0.0045
1884.00,0.0045
1883.00,0.0044
1882.00,0.0044
1881.00,0.0044
1880.00,0.0044
1879.00,0.0044
1878.00,0.0044
1877.00,0.0044
1876.00,0.0045
1875.00,0.0045
1874.00,0.0045
1873.00,0.0046
1872.00,0.0047
1871.00,0.0047
1870.00,0.0046
1869.00,0.0046
1868.00,0.0045
1867.00,0.0045
1866.00,0.0045
1865.00,0.0045
1864.00,0.0046
1863.00,0.0046
1862.00,0.0047
1861.00,0.0047
1860.00,0.0047
1859.00,0.0046
1858.00,0.0046
1857.00,0.0046
1856.00,0.0046
1855.00,0.0046
1854.00,0.0046
1853.00,0.0047
1852.00,0.0047
1851.00,0.0047
1850.00,0.0048
1849.00,0.0048
1848.00,0.0049
1847.00,0.0050
1846.00,0.0050
1845.00,0.0050
1844.00,0.0049
1843.00,0.0048
1842.00,0.0047
1841.00,0.0047
1840.00,0.0048
1839.00,0.0048
1838.00,0.0048
1837.00,0.0048
1836.00,0.0048
1835.00,0.0048
1834.00,0.0048
1833.00,0.0048
1832.00,0.0049
1831.00,0.0049
1830.00,0.0048
1829.00,0.0048
1828.00,0.0048
1827.00,0.0049
1826.00,0.0049
1825.00,0.0049
1824.00,0.0049
1823.00,0.0049
1822.00,0.0048
1821.00,0.0048
1820.00,0.0048
1819.00,0.0047
1818.00,0.0046
1817.00,0.0046
1816.00,0.0046
1815.00,0.0047
1814.00,0.0048
1813.00,0.0049
1812.00,0.0049
1811.00,0.0049
1810.00,0.0049
1809.00,0.0050
1808.00,0.0050
1807.00,0.0050
1806.00,0.0050
1805.00,0.0050
1804.00,0.0051
1803.00,0.0051
1802.00,0.0051
1801.00,0.0051
1800.00,0.0052
1799.00,0.0052
1798.00,0.0052
1797.00,0.0053
1796.00,0.0054
1795.00,0.0054
1794.00,0.0054
1793.00,0.0054
1792.00,0.0054
1791.00,0.0054
1790.00,0.0054
1789.00,0.0054
1788.00,0.0054
1787.00,0.0054
1786.00,0.0054
1785.00,0.0054
1784.00,0.0055
1783.00,0.0055
1782.00,0.0056
1781.00,0.0056
1780.00,0.0056
1779.00,0.0056
1778.00,0.0056
1777.00,0.0057
1776.00,0.0058
1775.00,0.0059
1774.00,0.0060
1773.00,0.0060
1772.00,0.0060
1771.00,0.0060
1770.00,0.0060
1769.00,0.0060
1768.00,0.0060
1767.00,0.0060
1766.00,0.0060
1765.00,0.0061
1764.00,0.0062
1763.00,0.0062
1762.00,0.0062
1761.00,0.0062
1760.00,0.0063
1759.00,0.0064
1758.00,0.0064
1757.00,0.0064
1756.00,0.0065
1755.00,0.0065
1754.00,0.0066
1753.00,0.0067
1752.00,0.0067
1751.00,0.0067
1750.00,0.0067
1749.00,0.0068
1748.00,0.0069
1747.00,0.0070
1746.00,0.0070
1745.00,0.0071
1744.00,0.0073
1743.00,0.0074
1742.00,0.0075
1741.00,0.0075
1740.00,0.0076
1739.00,0.0077
1738.00,0.0079
1737.00,0.0081
1736.00,0.0083
1735.00,0.0085
1734.00,0.0085
1733.00,0.0086
1732.00,0.0087
1731.00,0.0088
1730.00,0.0089
1729.00,0.0091
1728.00,0.0093
1727.00,0.0096
1726.00,0.0098
1725.00,0.0100
1724.00,0.0103
1723.00,0.0106
1722.00,0.0109
1721.00,0.0112
1720.00,0.0116
1719.00,0.0121
1718.00,0.0124
1717.00,0.0128
1716.00,0.0132
1715.00,0.0136
1714.00,0.0140
1713.00,0.0144
1712.00,0.0150
1711.00,0.0156
1710.00,0.0162
1709.00,0.0169
1708.00,0.0177
1707.00,0.0186
1706.00,0.0196
1705.00,0.0208
1704.00,0.0220
1703.00,0.0232
1702.00,0.0245
1701.00,0.0263
1700.00,0.0287
1699.00,0.0309
1698.00,0.0327
1697.00,0.0346
1696.00,0.0370
1695.00,0.0396
1694.00,0.0418
1693.00,0.0437
1692.00,0.0457
1691.00,0.0479
1690.00,0.0502
1689.00,0.0525
1688.00,0.0547
1687.00,0.0567
1686.00,0.0587
1685.00,0.0611
1684.00,0.0641
1683.00,0.0666
1682.00,0.0685
1681.00,0.0701
1680.00,0.0717
1679.00,0.0733
1678.00,0.0747
1677.00,0.0761
1676.00,0.0778
1675.00,0.0796
1674.00,0.0812
1673.00,0.0824
1672.00,0.0835
1671.00,0.0847
1670.00,0.0860
1669.00,0.0874
1668.00,0.0887
1667.00,0.0898
1666.00,0.0905
1665.00,0.0913
1664.00,0.0922
1663.00,0.0932
1662.00,0.0942
1661.00,0.0950
1660.00,0.0956
1659.00,0.0961
1658.00,0.0964
1657.00,0.0967
1656.00,0.0968
1655.00,0.0969
1654.00,0.0971
1653.00,0.0975
1652.00,0.0976
1651.00,0.0971
1650.00,0.0962
1649.00,0.0953
1648.00,0.0944
1647.00,0.0936
1646.00,0.0927
1645.00,0.0917
1644.00,0.0906
1643.00,0.0895
1642.00,0.0883
1641.00,0.0872
1640.00,0.0862
1639.00,0.0852
1638.00,0.0842
1637.00,0.0832
1636.00,0.0823
1635.00,0.0816
1634.00,0.0810
1633.00,0.0805
1632.00,0.0801
1631.00,0.0801
1630.00,0.0803
1629.00,0.0809
1628.00,0.0820
1627.00,0.0832
1626.00,0.0843
1625.00,0.0853
1624.00,0.0861
1623.00,0.0866
1622.00,0.0867
1621.00,0.0863
1620.00,0.0854
1619.00,0.0842
1618.00,0.0824
1617.00,0.0801
1616.00,0.0778
1615.00,0.0758
1614.00,0.0744
1613.00,0.0733
1612.00,0.0723
1611.00,0.0713
1610.00,0.0701
1609.00,0.0686
1608.00,0.0668
1607.00,0.0648
1606.00,0.0628
1605.00,0.0609
1604.00,0.0590
1603.00,0.0572
1602.00,0.0556
1601.00,0.0542
1600.00,0.0528
1599.00,0.0517
1598.00,0.0507
1597.00,0.0499
1596.00,0.0492
1595.00,0.0488
1594.00,0.0485
1593.00,0.0485
1592.00,0.0488
1591.00,0.0493
1590.00,0.0502
1589.00,0.0512
1588.00,0.0523
1587.00,0.0534
1586.00,0.0543
1585.00,0.0549
1584.00,0.0552
1583.00,0.0551
1582.00,0.0549
1581.00,0.0544
1580.00,0.0538
1579.00,0.0532
1578.00,0.0526
1577.00,0.0517
1576.00,0.0507
1575.00,0.0499
1574.00,0.0492
1573.00,0.0488
1572.00,0.0485
1571.00,0.0483
1570.00,0.0482
1569.00,0.0481
1568.00,0.0481
1567.00,0.0480
1566.00,0.0479
1565.00,0.0477
1564.00,0.0476
1563.00,0.0475
1562.00,0.0475
1561.00,0.0476
1560.00,0.0476
1559.00,0.0477
1558.00,0.0479
1557.00,0.0482
1556.00,0.0484
1555.00,0.0487
1554.00,0.0491
1553.00,0.0495
1552.00,0.0499
1551.00,0.0502
1550.00,0.0507
1549.00,0.0511
1548.00,0.0516
1547.00,0.0520
1546.00,0.0524
1545.00,0.0529
1544.00,0.0533
1543.00,0.0537
1542.00,0.0541
1541.00,0.0544
1540.00,0.0547
1539.00,0.0550
1538.00,0.0551
1537.00,0.0552
1536.00,0.0553
1535.00,0.0553
1534.00,0.0554
1533.00,0.0554
1532.00,0.0555
1531.00,0.0556
1530.00,0.0556
1529.00,0.0557
1528.00,0.0557
1527.00,0.0557
1526.00,0.0557
1525.00,0.0557
1524.00,0.0557
1523.00,0.0557
1522.00,0.0558
1521.00,0.0558
1520.00,0.0559
1519.00,0.0560
1518.00,0.0561
1517.00,0.0562
1516.00,0.0563
1515.00,0.0563
1514.00,0.0562
1513.00,0.0560
1512.00,0.0558
1511.00,0.0555
1510.00,0.0552
1509.00,0.0548
1508.00,0.0544
1507.00,0.0538
1506.00,0.0532
1505.00,0.0528
1504.00,0.0525
1503.00,0.0523
1502.00,0.0523
1501.00,0.0525
1500.00,0.0531
1499.00,0.0540
1498.00,0.0551
1497.00,0.0560
1496.00,0.0564
1495.00,0.0560
1494.00,0.0550
1493.00,0.0536
1492.00,0.0519
1491.00,0.0500
1490.00,0.0481
1489.00,0.0462
1488.00,0.0445
1487.00,0.0430
1486.00,0.0416
1485.00,0.0404
1484.00,0.0394
1483.00,0.0386
1482.00,0.0378
1481.00,0.0372
1480.00,0.0368
1479.00,0.0365
1478.00,0.0365
1477.00,0.0366
1476.00,0.0370
1475.00,0.0375
1474.00,0.0382
1473.00,0.0394
1472.00,0.0410
1471.00,0.0428
1470.00,0.0447
1469.00,0.0468
1468.00,0.0490
1467.00,0.0510
1466.00,0.0529
1465.00,0.0544
1464.00,0.0556
1463.00,0.0563
1462.00,0.0568
1461.00,0.0571
1460.00,0.0574
1459.00,0.0576
1458.00,0.0574
1457.00,0.0569
1456.00,0.0562
1455.00,0.0554
1454.00,0.0546
1453.00,0.0541
1452.00,0.0537
1451.00,0.0536
1450.00,0.0538
1449.00,0.0541
1448.00,0.0546
1447.00,0.0554
1446.00,0.0562
1445.00,0.0572
1444.00,0.0584
1443.00,0.0596
1442.00,0.0608
1441.00,0.0619
1440.00,0.0629
1439.00,0.0638
1438.00,0.0646
1437.00,0.0654
1436.00,0.0662
1435.00,0.0668
1434.00,0.0673
1433.00,0.0676
1432.00,0.0679
1431.00,0.0682
1430.00,0.0684
1429.00,0.0685
1428.00,0.0686
1427.00,0.0687
1426.00,0.0687
1425.00,0.0688
1424.00,0.0688
1423.00,0.0685
1422.00,0.0681
1421.00,0.0674
1420.00,0.0663
1419.00,0.0647
1418.00,0.0630
1417.00,0.0612
1416.00,0.0595
1415.00,0.0578
1414.00,0.0563
1413.00,0.0550
1412.00,0.0540
1411.00,0.0533
1410.00,0.0530
1409.00,0.0531
1408.00,0.0534
1407.00,0.0540
1406.00,0.0550
1405.00,0.0561
1404.00,0.0573
1403.00,0.0584
1402.00,0.0593
1401.00,0.0599
1400.00,0.0601
1399.00,0.0600
1398.00,0.0594
1397.00,0.0585
1396.00,0.0573
1395.00,0.0559
1394.00,0.0545
1393.00,0.0533
1392.00,0.0523
1391.00,0.0516
1390.00,0.0513
1389.00,0.0514
1388.00,0.0520
1387.00,0.0526
1386.00,0.0528
1385.00,0.0525
1384.00,0.0519
1383.00,0.0514
1382.00,0.0512
1381.00,0.0512
1380.00,0.0513
1379.00,0.0512
1378.00,0.0510
1377.00,0.0505
1376.00,0.0498
1375.00,0.0489
1374.00,0.0479
1373.00,0.0469
1372.00,0.0462
1371.00,0.0458
1370.00,0.0457
1369.00,0.0459
1368.00,0.0465
1367.00,0.0473
1366.00,0.0479
1365.00,0.0482
1364.00,0.0483
1363.00,0.0484
1362.00,0.0488
1361.00,0.0493
1360.00,0.0494
1359.00,0.0488
1358.00,0.0476
1357.00,0.0460
1356.00,0.0445
1355.00,0.0433
1354.00,0.0425
1353.00,0.0419
1352.00,0.0414
1351.00,0.0412
1350.00,0.0410
1349.00,0.0410
1348.00,0.0409
1347.00,0.0409
1346.00,0.0407
1345.00,0.0405
1344.00,0.0401
1343.00,0.0397
1342.00,0.0393
1341.00,0.0388
1340.00,0.0384
1339.00,0.0380
1338.00,0.0377
1337.00,0.0375
1336.00,0.0374
1335.00,0.0375
1334.00,0.0377
1333.00,0.0380
1332.00,0.0384
1331.00,0.0387
1330.00,0.0390
1329.00,0.0392
1328.00,0.0394
1327.00,0.0395
1326.00,0.0397
1325.00,0.0399
1324.00,0.0401
1323.00,0.0404
1322.00,0.0407
1321.00,0.0411
1320.00,0.0414
1319.00,0.0416
1318.00,0.0416
1317.00,0.0416
1316.00,0.0415
1315.00,0.0412
1314.00,0.0410
1313.00,0.0408
1312.00,0.0407
1311.00,0.0406
1310.00,0.0407
1309.00,0.0409
1308.00,0.0414
1307.00,0.0420
1306.00,0.0430
1305.00,0.0442
1304.00,0.0456
1303.00,0.0471
1302.00,0.0485
1301.00,0.0497
1300.00,0.0504
1299.00,0.0510
1298.00,0.0516
1297.00,0.0523
1296.00,0.0534
1295.00,0.0547
1294.00,0.0561
1293.00,0.0575
1292.00,0.0588
1291.00,0.0600
1290.00,0.0611
1289.00,0.0623
1288.00,0.0635
1287.00,0.0645
1286.00,0.0654
1285.00,0.0659
1284.00,0.0660
1283.00,0.0656
1282.00,0.0647
1281.00,0.0635
1280.00,0.0621
1279.00,0.0607
1278.00,0.0594
1277.00,0.0584
1276.00,0.0577
1275.00,0.0572
1274.00,0.0569
1273.00,0.0566
1272.00,0.0564
1271.00,0.0560
1270.00,0.0555
1269.00,0.0550
1268.00,0.0544
1267.00,0.0536
1266.00,0.0529
1265.00,0.0521
1264.00,0.0512
1263.00,0.0503
1262.00,0.0494
1261.00,0.0486
1260.00,0.0479
1259.00,0.0472
1258.00,0.0467
1257.00,0.0462
1256.00,0.0458
1255.00,0.0456
1254.00,0.0454
1253.00,0.0453
1252.00,0.0454
1251.00,0.0456
1250.00,0.0459
1249.00,0.0465
1248.00,0.0472
1247.00,0.0480
1246.00,0.0489
1245.00,0.0497
1244.00,0.0505
1243.00,0.0512
1242.00,0.0518
1241.00,0.0523
1240.00,0.0529
1239.00,0.0536
1238.00,0.0545
1237.00,0.0556
1236.00,0.0567
1235.00,0.0576
1234.00,0.0583
1233.00,0.0586
1232.00,0.0585
1231.00,0.0580
1230.00,0.0573
1229.00,0.0565
1228.00,0.0555
1227.00,0.0546
1226.00,0.0537
1225.00,0.0529
1224.00,0.0521
1223.00,0.0514
1222.00,0.0508
1221.00,0.0504
1220.00,0.0500
1219.00,0.0498
1218.00,0.0497
1217.00,0.0497
1216.00,0.0496
1215.00,0.0495
1214.00,0.0491
1213.00,0.0484
1212.00,0.0474
1211.00,0.0462
1210.00,0.0450
1209.00,0.0437
1208.00,0.0426
1207.00,0.0417
1206.00,0.0410
1205.00,0.0405
1204.00,0.0404
1203.00,0.0405
1202.00,0.0410
1201.00,0.0416
1200.00,0.0425
1199.00,0.0436
1198.00,0.0448
1197.00,0.0460
1196.00,0.0470
1195.00,0.0476
1194.00,0.0476
1193.00,0.0470
1192.00,0.0460
1191.00,0.0447
1190.00,0.0432
1189.00,0.0417
1188.00,0.0402
1187.00,0.0389
1186.00,0.0377
1185.00,0.0366
1184.00,0.0358
1183.00,0.0351
1182.00,0.0346
1181.00,0.0343
1180.00,0.0341
1179.00,0.0339
1178.00,0.0339
1177.00,0.0340
1176.00,0.0342
1175.00,0.0344
1174.00,0.0347
1173.00,0.0349
1172.00,0.0352
1171.00,0.0354
1170.00,0.0356
1169.00,0.0358
1168.00,0.0361
1167.00,0.0363
1166.00,0.0366
1165.00,0.0370
1164.00,0.0375
1163.00,0.0381
1162.00,0.0388
1161.00,0.0399
1160.00,0.0414
1159.00,0.0433
1158.00,0.0455
1157.00,0.0479
1156.00,0.0499
1155.00,0.0512
1154.00,0.0512
1153.00,0.0500
1152.00,0.0478
1151.00,0.0452
1150.00,0.0426
1149.00,0.0404
1148.00,0.0386
1147.00,0.0373
1146.00,0.0363
1145.00,0.0355
1144.00,0.0348
1143.00,0.0343
1142.00,0.0340
1141.00,0.0337
1140.00,0.0335
1139.00,0.0335
1138.00,0.0337
1137.00,0.0341
1136.00,0.0349
1135.00,0.0361
1134.00,0.0378
1133.00,0.0401
1132.00,0.0429
1131.00,0.0458
1130.00,0.0484
1129.00,0.0501
1128.00,0.0508
1127.00,0.0505
1126.00,0.0494
1125.00,0.0479
1124.00,0.0462
1123.00,0.0444
1122.00,0.0427
1121.00,0.0412
1120.00,0.0401
1119.00,0.0393
1118.00,0.0388
1117.00,0.0386
1116.00,0.0385
1115.00,0.0386
1114.00,0.0387
1113.00,0.0387
1112.00,0.0387
1111.00,0.0386
1110.00,0.0386
1109.00,0.0386
1108.00,0.0386
1107.00,0.0388
1106.00,0.0392
1105.00,0.0399
1104.00,0.0408
1103.00,0.0421
1102.00,0.0435
1101.00,0.0450
1100.00,0.0460
1099.00,0.0465
1098.00,0.0463
1097.00,0.0456
1096.00,0.0445
1095.00,0.0434
1094.00,0.0425
1093.00,0.0417
1092.00,0.0412
1091.00,0.0409
1090.00,0.0408
1089.00,0.0407
1088.00,0.0408
1087.00,0.0409
1086.00,0.0410
1085.00,0.0412
1084.00,0.0414
1083.00,0.0415
1082.00,0.0417
1081.00,0.0419
1080.00,0.0419
1079.00,0.0420
1078.00,0.0420
1077.00,0.0420
1076.00,0.0420
1075.00,0.0419
1074.00,0.0418
1073.00,0.0418
1072.00,0.0417
1071.00,0.0417
1070.00,0.0417
1069.00,0.0418
1068.00,0.0420
1067.00,0.0423
1066.00,0.0428
1065.00,0.0434
1064.00,0.0442
1063.00,0.0452
1062.00,0.0465
1061.00,0.0482
1060.00,0.0503
1059.00,0.0529
1058.00,0.0560
1057.00,0.0593
1056.00,0.0624
1055.00,0.0649
1054.00,0.0668
1053.00,0.0680
1052.00,0.0688
1051.00,0.0693
1050.00,0.0697
1049.00,0.0696
1048.00,0.0689
1047.00,0.0675
1046.00,0.0656
1045.00,0.0633
1044.00,0.0609
1043.00,0.0586
1042.00,0.0564
1041.00,0.0545
1040.00,0.0531
1039.00,0.0520
1038.00,0.0514
1037.00,0.0511
1036.00,0.0511
1035.00,0.0512
1034.00,0.0516
1033.00,0.0523
1032.00,0.0536
1031.00,0.0554
1030.00,0.0579
1029.00,0.0608
1028.00,0.0634
1027.00,0.0652
1026.00,0.0655
1025.00,0.0643
1024.00,0.0620
1023.00,0.0593
1022.00,0.0565
1021.00,0.0540
1020.00,0.0519
1019.00,0.0501
1018.00,0.0485
1017.00,0.0471
1016.00,0.0459
1015.00,0.0447
1014.00,0.0437
1013.00,0.0428
1012.00,0.0420
1011.00,0.0415
1010.00,0.0411
1009.00,0.0411
1008.00,0.0413
1007.00,0.0417
1006.00,0.0423
1005.00,0.0430
1004.00,0.0434
1003.00,0.0435
1002.00,0.0432
1001.00,0.0427
1000.00,0.0420
999.00,0.0412
998.00,0.0404
997.00,0.0396
996.00,0.0388
995.00,0.0382
994.00,0.0375
993.00,0.0368
992.00,0.0360
991.00,0.0351
990.00,0.0342
989.00,0.0333
988.00,0.0324
987.00,0.0316
986.00,0.0309
985.00,0.0303
984.00,0.0298
983.00,0.0294
982.00,0.0290
981.00,0.0288
980.00,0.0286
979.00,0.0284
978.00,0.0284
977.00,0.0284
976.00,0.0284
975.00,0.0284
974.00,0.0284
973.00,0.0284
972.00,0.0284
971.00,0.0285
970.00,0.0285
969.00,0.0286
968.00,0.0287
967.00,0.0288
966.00,0.0289
965.00,0.0290
964.00,0.0292
963.00,0.0294
962.00,0.0294
961.00,0.0294
960.00,0.0291
959.00,0.0288
958.00,0.0284
957.00,0.0280
956.00,0.0277
955.00,0.0273
954.00,0.0270
953.00,0.0266
952.00,0.0263
951.00,0.0261
950.00,0.0260
949.00,0.0259
948.00,0.0258
947.00,0.0256
946.00,0.0255
945.00,0.0255
944.00,0.0255
943.00,0.0257
942.00,0.0261
941.00,0.0265
940.00,0.0269
939.00,0.0274
938.00,0.0278
937.00,0.0282
936.00,0.0285
935.00,0.0288
934.00,0.0291
933.00,0.0293
932.00,0.0293
931.00,0.0292
930.00,0.0289
929.00,0.0287
928.00,0.0285
927.00,0.0284
926.00,0.0285
925.00,0.0286
924.00,0.0288
923.00,0.0291
922.00,0.0292
921.00,0.0290
920.00,0.0286
919.00,0.0280
918.00,0.0273
917.00,0.0267
916.00,0.0261
915.00,0.0256
914.00,0.0252
913.00,0.0248
912.00,0.0246
911.00,0.0244
910.00,0.0242
909.00,0.0241
908.00,0.0241
907.00,0.0241
906.00,0.0243
905.00,0.0246
904.00,0.0251
903.00,0.0257
902.00,0.0266
901.00,0.0275
900.00,0.0282
899.00,0.0287
898.00,0.0287
897.00,0.0284
896.00,0.0280
895.00,0.0276
894.00,0.0274
893.00,0.0275
892.00,0.0280
891.00,0.0285
890.00,0.0287
889.00,0.0284
888.00,0.0277
887.00,0.0268
886.00,0.0260
885.00,0.0256
884.00,0.0253
883.00,0.0252
882.00,0.0253
881.00,0.0255
880.00,0.0257
879.00,0.0262
878.00,0.0270
877.00,0.0282
876.00,0.0296
875.00,0.0314
874.00,0.0334
873.00,0.0356
872.00,0.0378
871.00,0.0396
870.00,0.0406
869.00,0.0406
868.00,0.0398
867.00,0.0385
866.00,0.0371
865.00,0.0359
864.00,0.0348
863.00,0.0338
862.00,0.0328
861.00,0.0320
860.00,0.0315
859.00,0.0312
858.00,0.0315
857.00,0.0321
856.00,0.0331
855.00,0.0343
854.00,0.0355
853.00,0.0366
852.00,0.0375
851.00,0.0385
850.00,0.0393
849.00,0.0397
848.00,0.0396
847.00,0.0390
846.00,0.0382
845.00,0.0374
844.00,0.0367
843.00,0.0361
842.00,0.0357
841.00,0.0356
840.00,0.0358
839.00,0.0363
838.00,0.0372
837.00,0.0384
836.00,0.0396
835.00,0.0407
834.00,0.0414
833.00,0.0416
832.00,0.0414
831.00,0.0406
830.00,0.0396
829.00,0.0382
828.00,0.0368
827.00,0.0355
826.00,0.0346
825.00,0.0343
824.00,0.0350
823.00,0.0369
822.00,0.0398
821.00,0.0428
820.00,0.0449
819.00,0.0460
818.00,0.0469
817.00,0.0480
816.00,0.0490
815.00,0.0485
814.00,0.0462
813.00,0.0428
812.00,0.0396
811.00,0.0371
810.00,0.0355
809.00,0.0343
808.00,0.0334
807.00,0.0327
806.00,0.0322
805.00,0.0319
804.00,0.0316
803.00,0.0315
802.00,0.0315
801.00,0.0315
800.00,0.0316
799.00,0.0317
798.00,0.0318
797.00,0.0319
796.00,0.0321
795.00,0.0322
794.00,0.0322
793.00,0.0323
792.00,0.0325
791.00,0.0327
790.00,0.0329
789.00,0.0331
788.00,0.0334
787.00,0.0336
786.00,0.0339
785.00,0.0341
784.00,0.0344
783.00,0.0347
782.00,0.0350
781.00,0.0352
780.00,0.0354
779.00,0.0356
778.00,0.0359
777.00,0.0363
776.00,0.0368
775.00,0.0372
774.00,0.0373
773.00,0.0372
772.00,0.0368
771.00,0.0364
770.00,0.0363
769.00,0.0362
768.00,0.0363
767.00,0.0364
766.00,0.0366
765.00,0.0368
764.00,0.0371
763.00,0.0374
762.00,0.0378
761.00,0.0382
760.00,0.0385
759.00,0.0388
758.00,0.0390
757.00,0.0391
756.00,0.0392
755.00,0.0393
754.00,0.0395
753.00,0.0398
752.00,0.0401
751.00,0.0404
750.00,0.0407
749.00,0.0410
748.00,0.0413
747.00,0.0416
746.00,0.0418
745.00,0.0422
744.00,0.0425
743.00,0.0429
742.00,0.0434
741.00,0.0439
740.00,0.0446
739.00,0.0456
738.00,0.0469
737.00,0.0485
736.00,0.0502
735.00,0.0513
734.00,0.0518
733.00,0.0515
732.00,0.0510
731.00,0.0506
730.00,0.0506
729.00,0.0507
728.00,0.0507
727.00,0.0504
726.00,0.0498
725.00,0.0490
724.00,0.0483
723.00,0.0478
722.00,0.0475
721.00,0.0474
720.00,0.0475
719.00,0.0478
718.00,0.0483
717.00,0.0490
716.00,0.0496
715.00,0.0501
714.00,0.0504
713.00,0.0506
712.00,0.0506
711.00,0.0507
710.00,0.0508
709.00,0.0509
708.00,0.0511
707.00,0.0514
706.00,0.0517
705.00,0.0522
704.00,0.0527
703.00,0.0533
702.00,0.0539
701.00,0.0545
700.00,0.0550
699.00,0.0555
698.00,0.0559
697.00,0.0560
696.00,0.0560
695.00,0.0559
694.00,0.0557
693.00,0.0557
692.00,0.0559
691.00,0.0564
690.00,0.0570
689.00,0.0576
688.00,0.0580
687.00,0.0582
686.00,0.0582
685.00,0.0580
684.00,0.0579
683.00,0.0579
682.00,0.0580
681.00,0.0582
680.00,0.0586
679.00,0.0590
678.00,0.0595
677.00,0.0601
676.00,0.0608
675.00,0.0616
674.00,0.0623
673.00,0.0630
672.00,0.0636
671.00,0.0641
670.00,0.0647
669.00,0.0651
668.00,0.0656
667.00,0.0659
666.00,0.0660
665.00,0.0662
664.00,0.0666
663.00,0.0672
662.00,0.0677
661.00,0.0682
660.00,0.0684
659.00,0.0685
658.00,0.0684
657.00,0.0683
656.00,0.0683
655.00,0.0683
654.00,0.0683
653.00,0.0684
652.00,0.0684
651.00,0.0686
650.00,0.0687
649.00,0.0689
648.00,0.0690
647.00,0.0692
646.00,0.0692
645.00,0.0692
644.00,0.0692
643.00,0.0691
642.00,0.0690
641.00,0.0688
640.00,0.0687
639.00,0.0685
638.00,0.0684
637.00,0.0682
636.00,0.0681
635.00,0.0680
634.00,0.0680
633.00,0.0680
632.00,0.0680
631.00,0.0681
630.00,0.0682
629.00,0.0684
628.00,0.0686
627.00,0.0689
626.00,0.0692
625.00,0.0696
624.00,0.0700
623.00,0.0704
622.00,0.0709
621.00,0.0714
620.00,0.0718
619.00,0.0720
618.00,0.0720
617.00,0.0718
616.00,0.0714
615.00,0.0711
614.00,0.0709
613.00,0.0708
612.00,0.0707
611.00,0.0708
610.00,0.0711
609.00,0.0717
608.00,0.0726
607.00,0.0736
606.00,0.0746
605.00,0.0757
604.00,0.0767
603.00,0.0775
602.00,0.0782
601.00,0.0787
600.00,0.0790
599.00,0.0791
598.00,0.0793
597.00,0.0795
596.00,0.0797
595.00,0.0800
594.00,0.0802
593.00,0.0804
592.00,0.0806
591.00,0.0808
590.00,0.0809
589.00,0.0811
588.00,0.0814
587.00,0.0816
586.00,0.0820
585.00,0.0824
584.00,0.0830
583.00,0.0835
582.00,0.0840
581.00,0.0844
580.00,0.0850
579.00,0.0857
578.00,0.0866
577.00,0.0874
576.00,0.0878
575.00,0.0877
574.00,0.0872
573.00,0.0866
572.00,0.0860
571.00,0.0854
570.00,0.0849
569.00,0.0844
568.00,0.0841
567.00,0.0841
566.00,0.0842
565.00,0.0843
564.00,0.0846
563.00,0.0850
562.00,0.0855
561.00,0.0859
560.00,0.0862
559.00,0.0862
558.00,0.0860
557.00,0.0855
556.00,0.0849
555.00,0.0844
554.00,0.0840
553.00,0.0839
552.00,0.0840
551.00,0.0842
550.00,0.0847
549.00,0.0853
548.00,0.0861
547.00,0.0868
546.00,0.0874
545.00,0.0876
544.00,0.0875
543.00,0.0874
542.00,0.0872
541.00,0.0870
540.00,0.0868
539.00,0.0866
538.00,0.0864
537.00,0.0863
536.00,0.0865
535.00,0.0868
534.00,0.0875
533.00,0.0882
532.00,0.0890
531.00,0.0896
530.00,0.0898
529.00,0.0896
528.00,0.0892
527.00,0.0887
526.00,0.0883
525.00,0.0879
524.00,0.0876
523.00,0.0872
522.00,0.0867
521.00,0.0863
520.00,0.0859
519.00,0.0856
518.00,0.0855
517.00,0.0854
516.00,0.0852
515.00,0.0850
514.00,0.0848
513.00,0.0845
512.00,0.0843
511.00,0.0842
510.00,0.0841
509.00,0.0843
508.00,0.0844
507.00,0.0846
506.00,0.0846
505.00,0.0844
504.00,0.0841
503.00,0.0839
502.00,0.0837
501.00,0.0835
500.00,0.0833
499.00,0.0831
498.00,0.0830
497.00,0.0829
496.00,0.0830
495.00,0.0830
494.00,0.0831
493.00,0.0832
492.00,0.0834
491.00,0.0834
490.00,0.0833
489.00,0.0830
488.00,0.0826
487.00,0.0821
486.00,0.0816
485.00,0.0811
484.00,0.0808
483.00,0.0807
482.00,0.0808
481.00,0.0809
480.00,0.0811
479.00,0.0811
478.00,0.0809
477.00,0.0805
476.00,0.0801
475.00,0.0798
474.00,0.0798
473.00,0.0799
472.00,0.0801
471.00,0.0802
470.00,0.0801
469.00,0.0799
468.00,0.0797
467.00,0.0795
466.00,0.0792
465.00,0.0790
464.00,0.0789
463.00,0.0789
462.00,0.0789
461.00,0.0789
460.00,0.0788
459.00,0.0788
458.00,0.0788
457.00,0.0788
456.00,0.0787
455.00,0.0785
454.00,0.0782
453.00,0.0779
452.00,0.0775
451.00,0.0773
450.00,0.0772
449.00,0.0772
448.00,0.0771
447.00,0.0770
446.00,0.0768
445.00,0.0768
444.00,0.0770
443.00,0.0773
442.00,0.0775
441.00,0.0776
440.00,0.0776
439.00,0.0776
438.00,0.0777
437.00,0.0778
436.00,0.0781
435.00,0.0782
434.00,0.0783
433.00,0.0783
432.00,0.0782
431.00,0.0782
430.00,0.0782
429.00,0.0781
428.00,0.0781
427.00,0.0782
426.00,0.0785
425.00,0.0787
424.00,0.0784
423.00,0.0778
422.00,0.0772
421.00,0.0771
420.00,0.0773
419.00,0.0774
418.00,0.0770
417.00,0.0764
416.00,0.0760
415.00,0.0760
414.00,0.0766
413.00,0.0773
412.00,0.0779
411.00,0.0782
410.00,0.0783
409.00,0.0780
408.00,0.0771
407.00,0.0756
406.00,0.0743
405.00,0.0735
404.00,0.0734
403.00,0.0737
402.00,0.0741
401.00,0.0740
400.00,0.0736
