Created as New Dataset,Sample 899 By YargerLab Date Wednesday, July 23 2025
cm-1,A
4000.00,0.0018
3999.00,0.0018
3998.00,0.0018
3997.00,0.0018
3996.00,0.0018
3995.00,0.0018
3994.00,0.0018
3993.00,0.0018
3992.00,0.0018
3991.00,0.0018
3990.00,0.0018
3989.00,0.0018
3988.00,0.0018
3987.00,0.0019
3986.00,0.0019
3985.00,0.0019
3984.00,0.0019
3983.00,0.0019
3982.00,0.0018
3981.00,0.0018
3980.00,0.0018
3979.00,0.0018
3978.00,0.0018
3977.00,0.0018
3976.00,0.0018
3975.00,0.0018
3974.00,0.0018
3973.00,0.0018
3972.00,0.0018
3971.00,0.0018
3970.00,0.0018
3969.00,0.0019
3968.00,0.0019
3967.00,0.0019
3966.00,0.0019
3965.00,0.0019
3964.00,0.0019
3963.00,0.0019
3962.00,0.0019
3961.00,0.0019
3960.00,0.0019
3959.00,0.0019
3958.00,0.0019
3957.00,0.0019
3956.00,0.0019
3955.00,0.0019
3954.00,0.0019
3953.00,0.0019
3952.00,0.0018
3951.00,0.0018
3950.00,0.0018
3949.00,0.0018
3948.00,0.0018
3947.00,0.0018
3946.00,0.0018
3945.00,0.0017
3944.00,0.0018
3943.00,0.0018
3942.00,0.0018
3941.00,0.0019
3940.00,0.0019
3939.00,0.0018
3938.00,0.0018
3937.00,0.0018
3936.00,0.0018
3935.00,0.0018
3934.00,0.0017
3933.00,0.0017
3932.00,0.0017
3931.00,0.0017
3930.00,0.0017
3929.00,0.0018
3928.00,0.0018
3927.00,0.0018
3926.00,0.0018
3925.00,0.0018
3924.00,0.0018
3923.00,0.0018
3922.00,0.0017
3921.00,0.0017
3920.00,0.0017
3919.00,0.0017
3918.00,0.0017
3917.00,0.0017
3916.00,0.0017
3915.00,0.0018
3914.00,0.0018
3913.00,0.0018
3912.00,0.0018
3911.00,0.0018
3910.00,0.0018
3909.00,0.0018
3908.00,0.0018
3907.00,0.0018
3906.00,0.0017
3905.00,0.0017
3904.00,0.0016
3903.00,0.0015
3902.00,0.0015
3901.00,0.0014
3900.00,0.0015
3899.00,0.0015
3898.00,0.0016
3897.00,0.0016
3896.00,0.0016
3895.00,0.0017
3894.00,0.0017
3893.00,0.0017
3892.00,0.0017
3891.00,0.0017
3890.00,0.0017
3889.00,0.0016
3888.00,0.0016
3887.00,0.0015
3886.00,0.0015
3885.00,0.0015
3884.00,0.0016
3883.00,0.0016
3882.00,0.0016
3881.00,0.0016
3880.00,0.0016
3879.00,0.0017
3878.00,0.0017
3877.00,0.0016
3876.00,0.0016
3875.00,0.0016
3874.00,0.0016
3873.00,0.0017
3872.00,0.0016
3871.00,0.0015
3870.00,0.0014
3869.00,0.0014
3868.00,0.0015
3867.00,0.0015
3866.00,0.0014
3865.00,0.0014
3864.00,0.0015
3863.00,0.0016
3862.00,0.0015
3861.00,0.0015
3860.00,0.0015
3859.00,0.0015
3858.00,0.0016
3857.00,0.0017
3856.00,0.0017
3855.00,0.0017
3854.00,0.0016
3853.00,0.0016
3852.00,0.0015
3851.00,0.0015
3850.00,0.0015
3849.00,0.0015
3848.00,0.0015
3847.00,0.0015
3846.00,0.0015
3845.00,0.0015
3844.00,0.0015
3843.00,0.0015
3842.00,0.0015
3841.00,0.0015
3840.00,0.0015
3839.00,0.0015
3838.00,0.0015
3837.00,0.0015
3836.00,0.0015
3835.00,0.0015
3834.00,0.0015
3833.00,0.0015
3832.00,0.0015
3831.00,0.0016
3830.00,0.0016
3829.00,0.0016
3828.00,0.0016
3827.00,0.0016
3826.00,0.0016
3825.00,0.0016
3824.00,0.0016
3823.00,0.0015
3822.00,0.0014
3821.00,0.0015
3820.00,0.0016
3819.00,0.0016
3818.00,0.0015
3817.00,0.0015
3816.00,0.0015
3815.00,0.0016
3814.00,0.0016
3813.00,0.0016
3812.00,0.0016
3811.00,0.0017
3810.00,0.0017
3809.00,0.0017
3808.00,0.0016
3807.00,0.0016
3806.00,0.0015
3805.00,0.0015
3804.00,0.0015
3803.00,0.0014
3802.00,0.0014
3801.00,0.0015
3800.00,0.0015
3799.00,0.0015
3798.00,0.0015
3797.00,0.0015
3796.00,0.0015
3795.00,0.0016
3794.00,0.0016
3793.00,0.0017
3792.00,0.0017
3791.00,0.0017
3790.00,0.0018
3789.00,0.0018
3788.00,0.0018
3787.00,0.0018
3786.00,0.0018
3785.00,0.0018
3784.00,0.0018
3783.00,0.0017
3782.00,0.0017
3781.00,0.0017
3780.00,0.0017
3779.00,0.0017
3778.00,0.0018
3777.00,0.0018
3776.00,0.0017
3775.00,0.0017
3774.00,0.0017
3773.00,0.0017
3772.00,0.0017
3771.00,0.0017
3770.00,0.0017
3769.00,0.0017
3768.00,0.0017
3767.00,0.0016
3766.00,0.0016
3765.00,0.0016
3764.00,0.0016
3763.00,0.0016
3762.00,0.0016
3761.00,0.0015
3760.00,0.0015
3759.00,0.0016
3758.00,0.0015
3757.00,0.0015
3756.00,0.0015
3755.00,0.0015
3754.00,0.0014
3753.00,0.0014
3752.00,0.0014
3751.00,0.0013
3750.00,0.0013
3749.00,0.0012
3748.00,0.0013
3747.00,0.0013
3746.00,0.0013
3745.00,0.0012
3744.00,0.0012
3743.00,0.0013
3742.00,0.0013
3741.00,0.0012
3740.00,0.0012
3739.00,0.0011
3738.00,0.0011
3737.00,0.0010
3736.00,0.0011
3735.00,0.0011
3734.00,0.0012
3733.00,0.0012
3732.00,0.0012
3731.00,0.0013
3730.00,0.0013
3729.00,0.0013
3728.00,0.0013
3727.00,0.0014
3726.00,0.0014
3725.00,0.0014
3724.00,0.0015
3723.00,0.0015
3722.00,0.0015
3721.00,0.0015
3720.00,0.0015
3719.00,0.0015
3718.00,0.0015
3717.00,0.0015
3716.00,0.0015
3715.00,0.0015
3714.00,0.0015
3713.00,0.0014
3712.00,0.0014
3711.00,0.0014
3710.00,0.0014
3709.00,0.0014
3708.00,0.0014
3707.00,0.0014
3706.00,0.0015
3705.00,0.0016
3704.00,0.0016
3703.00,0.0016
3702.00,0.0016
3701.00,0.0017
3700.00,0.0016
3699.00,0.0016
3698.00,0.0016
3697.00,0.0016
3696.00,0.0017
3695.00,0.0017
3694.00,0.0017
3693.00,0.0016
3692.00,0.0016
3691.00,0.0016
3690.00,0.0016
3689.00,0.0015
3688.00,0.0015
3687.00,0.0015
3686.00,0.0015
3685.00,0.0015
3684.00,0.0016
3683.00,0.0016
3682.00,0.0016
3681.00,0.0016
3680.00,0.0016
3679.00,0.0016
3678.00,0.0015
3677.00,0.0014
3676.00,0.0013
3675.00,0.0013
3674.00,0.0013
3673.00,0.0013
3672.00,0.0013
3671.00,0.0013
3670.00,0.0014
3669.00,0.0015
3668.00,0.0015
3667.00,0.0016
3666.00,0.0016
3665.00,0.0016
3664.00,0.0017
3663.00,0.0017
3662.00,0.0017
3661.00,0.0017
3660.00,0.0018
3659.00,0.0018
3658.00,0.0018
3657.00,0.0018
3656.00,0.0018
3655.00,0.0018
3654.00,0.0017
3653.00,0.0017
3652.00,0.0016
3651.00,0.0015
3650.00,0.0015
3649.00,0.0015
3648.00,0.0015
3647.00,0.0016
3646.00,0.0016
3645.00,0.0017
3644.00,0.0018
3643.00,0.0019
3642.00,0.0020
3641.00,0.0021
3640.00,0.0021
3639.00,0.0022
3638.00,0.0022
3637.00,0.0022
3636.00,0.0022
3635.00,0.0022
3634.00,0.0023
3633.00,0.0024
3632.00,0.0024
3631.00,0.0023
3630.00,0.0023
3629.00,0.0022
3628.00,0.0022
3627.00,0.0022
3626.00,0.0022
3625.00,0.0022
3624.00,0.0023
3623.00,0.0024
3622.00,0.0025
3621.00,0.0026
3620.00,0.0026
3619.00,0.0026
3618.00,0.0026
3617.00,0.0026
3616.00,0.0025
3615.00,0.0025
3614.00,0.0025
3613.00,0.0026
3612.00,0.0026
3611.00,0.0026
3610.00,0.0026
3609.00,0.0026
3608.00,0.0027
3607.00,0.0027
3606.00,0.0028
3605.00,0.0029
3604.00,0.0030
3603.00,0.0030
3602.00,0.0031
3601.00,0.0031
3600.00,0.0032
3599.00,0.0032
3598.00,0.0032
3597.00,0.0032
3596.00,0.0032
3595.00,0.0033
3594.00,0.0033
3593.00,0.0033
3592.00,0.0033
3591.00,0.0034
3590.00,0.0034
3589.00,0.0034
3588.00,0.0035
3587.00,0.0036
3586.00,0.0036
3585.00,0.0036
3584.00,0.0037
3583.00,0.0037
3582.00,0.0038
3581.00,0.0039
3580.00,0.0039
3579.00,0.0040
3578.00,0.0040
3577.00,0.0040
3576.00,0.0041
3575.00,0.0041
3574.00,0.0041
3573.00,0.0042
3572.00,0.0042
3571.00,0.0042
3570.00,0.0042
3569.00,0.0042
3568.00,0.0042
3567.00,0.0043
3566.00,0.0043
3565.00,0.0043
3564.00,0.0044
3563.00,0.0044
3562.00,0.0045
3561.00,0.0046
3560.00,0.0047
3559.00,0.0048
3558.00,0.0048
3557.00,0.0049
3556.00,0.0049
3555.00,0.0050
3554.00,0.0050
3553.00,0.0050
3552.00,0.0050
3551.00,0.0051
3550.00,0.0051
3549.00,0.0051
3548.00,0.0051
3547.00,0.0052
3546.00,0.0052
3545.00,0.0053
3544.00,0.0053
3543.00,0.0054
3542.00,0.0055
3541.00,0.0055
3540.00,0.0056
3539.00,0.0057
3538.00,0.0057
3537.00,0.0058
3536.00,0.0058
3535.00,0.0058
3534.00,0.0059
3533.00,0.0059
3532.00,0.0059
3531.00,0.0059
3530.00,0.0060
3529.00,0.0060
3528.00,0.0060
3527.00,0.0061
3526.00,0.0061
3525.00,0.0062
3524.00,0.0063
3523.00,0.0063
3522.00,0.0064
3521.00,0.0064
3520.00,0.0065
3519.00,0.0066
3518.00,0.0067
3517.00,0.0067
3516.00,0.0068
3515.00,0.0069
3514.00,0.0069
3513.00,0.0070
3512.00,0.0070
3511.00,0.0071
3510.00,0.0071
3509.00,0.0072
3508.00,0.0073
3507.00,0.0073
3506.00,0.0074
3505.00,0.0075
3504.00,0.0075
3503.00,0.0076
3502.00,0.0076
3501.00,0.0077
3500.00,0.0078
3499.00,0.0078
3498.00,0.0079
3497.00,0.0080
3496.00,0.0081
3495.00,0.0082
3494.00,0.0082
3493.00,0.0083
3492.00,0.0084
3491.00,0.0084
3490.00,0.0085
3489.00,0.0085
3488.00,0.0086
3487.00,0.0087
3486.00,0.0087
3485.00,0.0088
3484.00,0.0089
3483.00,0.0090
3482.00,0.0090
3481.00,0.0091
3480.00,0.0092
3479.00,0.0092
3478.00,0.0093
3477.00,0.0094
3476.00,0.0094
3475.00,0.0095
3474.00,0.0096
3473.00,0.0096
3472.00,0.0097
3471.00,0.0098
3470.00,0.0098
3469.00,0.0099
3468.00,0.0099
3467.00,0.0099
3466.00,0.0100
3465.00,0.0100
3464.00,0.0101
3463.00,0.0101
3462.00,0.0102
3461.00,0.0102
3460.00,0.0103
3459.00,0.0103
3458.00,0.0104
3457.00,0.0105
3456.00,0.0105
3455.00,0.0106
3454.00,0.0106
3453.00,0.0106
3452.00,0.0106
3451.00,0.0107
3450.00,0.0107
3449.00,0.0108
3448.00,0.0108
3447.00,0.0109
3446.00,0.0109
3445.00,0.0110
3444.00,0.0110
3443.00,0.0111
3442.00,0.0111
3441.00,0.0112
3440.00,0.0112
3439.00,0.0113
3438.00,0.0113
3437.00,0.0114
3436.00,0.0114
3435.00,0.0114
3434.00,0.0115
3433.00,0.0115
3432.00,0.0115
3431.00,0.0116
3430.00,0.0116
3429.00,0.0117
3428.00,0.0117
3427.00,0.0117
3426.00,0.0118
3425.00,0.0118
3424.00,0.0119
3423.00,0.0120
3422.00,0.0120
3421.00,0.0120
3420.00,0.0121
3419.00,0.0121
3418.00,0.0122
3417.00,0.0122
3416.00,0.0123
3415.00,0.0123
3414.00,0.0123
3413.00,0.0123
3412.00,0.0124
3411.00,0.0124
3410.00,0.0124
3409.00,0.0125
3408.00,0.0125
3407.00,0.0126
3406.00,0.0126
3405.00,0.0127
3404.00,0.0127
3403.00,0.0127
3402.00,0.0128
3401.00,0.0128
3400.00,0.0129
3399.00,0.0129
3398.00,0.0130
3397.00,0.0130
3396.00,0.0130
3395.00,0.0131
3394.00,0.0131
3393.00,0.0132
3392.00,0.0132
3391.00,0.0133
3390.00,0.0133
3389.00,0.0134
3388.00,0.0135
3387.00,0.0136
3386.00,0.0136
3385.00,0.0137
3384.00,0.0137
3383.00,0.0138
3382.00,0.0139
3381.00,0.0139
3380.00,0.0140
3379.00,0.0141
3378.00,0.0142
3377.00,0.0142
3376.00,0.0143
3375.00,0.0143
3374.00,0.0144
3373.00,0.0145
3372.00,0.0145
3371.00,0.0146
3370.00,0.0146
3369.00,0.0147
3368.00,0.0148
3367.00,0.0148
3366.00,0.0149
3365.00,0.0150
3364.00,0.0151
3363.00,0.0152
3362.00,0.0153
3361.00,0.0154
3360.00,0.0154
3359.00,0.0155
3358.00,0.0156
3357.00,0.0157
3356.00,0.0158
3355.00,0.0158
3354.00,0.0159
3353.00,0.0160
3352.00,0.0160
3351.00,0.0161
3350.00,0.0162
3349.00,0.0163
3348.00,0.0163
3347.00,0.0164
3346.00,0.0164
3345.00,0.0165
3344.00,0.0165
3343.00,0.0166
3342.00,0.0167
3341.00,0.0167
3340.00,0.0168
3339.00,0.0169
3338.00,0.0169
3337.00,0.0170
3336.00,0.0171
3335.00,0.0172
3334.00,0.0172
3333.00,0.0173
3332.00,0.0174
3331.00,0.0174
3330.00,0.0175
3329.00,0.0175
3328.00,0.0175
3327.00,0.0176
3326.00,0.0176
3325.00,0.0177
3324.00,0.0177
3323.00,0.0178
3322.00,0.0179
3321.00,0.0180
3320.00,0.0180
3319.00,0.0181
3318.00,0.0182
3317.00,0.0182
3316.00,0.0183
3315.00,0.0184
3314.00,0.0185
3313.00,0.0185
3312.00,0.0185
3311.00,0.0186
3310.00,0.0186
3309.00,0.0186
3308.00,0.0187
3307.00,0.0188
3306.00,0.0188
3305.00,0.0189
3304.00,0.0190
3303.00,0.0191
3302.00,0.0192
3301.00,0.0193
3300.00,0.0194
3299.00,0.0194
3298.00,0.0195
3297.00,0.0195
3296.00,0.0195
3295.00,0.0195
3294.00,0.0196
3293.00,0.0197
3292.00,0.0197
3291.00,0.0198
3290.00,0.0199
3289.00,0.0200
3288.00,0.0200
3287.00,0.0200
3286.00,0.0201
3285.00,0.0201
3284.00,0.0201
3283.00,0.0201
3282.00,0.0202
3281.00,0.0202
3280.00,0.0202
3279.00,0.0202
3278.00,0.0202
3277.00,0.0203
3276.00,0.0202
3275.00,0.0202
3274.00,0.0201
3273.00,0.0201
3272.00,0.0200
3271.00,0.0200
3270.00,0.0200
3269.00,0.0200
3268.00,0.0200
3267.00,0.0200
3266.00,0.0200
3265.00,0.0200
3264.00,0.0199
3263.00,0.0198
3262.00,0.0198
3261.00,0.0197
3260.00,0.0196
3259.00,0.0196
3258.00,0.0195
3257.00,0.0194
3256.00,0.0193
3255.00,0.0192
3254.00,0.0191
3253.00,0.0191
3252.00,0.0190
3251.00,0.0190
3250.00,0.0189
3249.00,0.0188
3248.00,0.0187
3247.00,0.0186
3246.00,0.0185
3245.00,0.0185
3244.00,0.0184
3243.00,0.0184
3242.00,0.0183
3241.00,0.0183
3240.00,0.0182
3239.00,0.0182
3238.00,0.0181
3237.00,0.0180
3236.00,0.0180
3235.00,0.0179
3234.00,0.0178
3233.00,0.0178
3232.00,0.0178
3231.00,0.0177
3230.00,0.0177
3229.00,0.0177
3228.00,0.0177
3227.00,0.0177
3226.00,0.0176
3225.00,0.0176
3224.00,0.0175
3223.00,0.0175
3222.00,0.0175
3221.00,0.0174
3220.00,0.0174
3219.00,0.0174
3218.00,0.0173
3217.00,0.0173
3216.00,0.0173
3215.00,0.0173
3214.00,0.0172
3213.00,0.0172
3212.00,0.0171
3211.00,0.0171
3210.00,0.0171
3209.00,0.0171
3208.00,0.0170
3207.00,0.0170
3206.00,0.0170
3205.00,0.0170
3204.00,0.0170
3203.00,0.0170
3202.00,0.0169
3201.00,0.0168
3200.00,0.0168
3199.00,0.0167
3198.00,0.0167
3197.00,0.0166
3196.00,0.0166
3195.00,0.0166
3194.00,0.0166
3193.00,0.0165
3192.00,0.0164
3191.00,0.0164
3190.00,0.0163
3189.00,0.0163
3188.00,0.0162
3187.00,0.0162
3186.00,0.0161
3185.00,0.0160
3184.00,0.0159
3183.00,0.0159
3182.00,0.0158
3181.00,0.0158
3180.00,0.0157
3179.00,0.0156
3178.00,0.0156
3177.00,0.0155
3176.00,0.0154
3175.00,0.0154
3174.00,0.0153
3173.00,0.0153
3172.00,0.0152
3171.00,0.0152
3170.00,0.0151
3169.00,0.0151
3168.00,0.0150
3167.00,0.0149
3166.00,0.0149
3165.00,0.0148
3164.00,0.0147
3163.00,0.0147
3162.00,0.0146
3161.00,0.0145
3160.00,0.0145
3159.00,0.0144
3158.00,0.0143
3157.00,0.0143
3156.00,0.0142
3155.00,0.0141
3154.00,0.0140
3153.00,0.0139
3152.00,0.0139
3151.00,0.0138
3150.00,0.0137
3149.00,0.0137
3148.00,0.0137
3147.00,0.0136
3146.00,0.0136
3145.00,0.0135
3144.00,0.0135
3143.00,0.0134
3142.00,0.0134
3141.00,0.0133
3140.00,0.0133
3139.00,0.0132
3138.00,0.0131
3137.00,0.0131
3136.00,0.0131
3135.00,0.0130
3134.00,0.0130
3133.00,0.0129
3132.00,0.0129
3131.00,0.0129
3130.00,0.0128
3129.00,0.0128
3128.00,0.0127
3127.00,0.0127
3126.00,0.0126
3125.00,0.0126
3124.00,0.0126
3123.00,0.0125
3122.00,0.0125
3121.00,0.0125
3120.00,0.0124
3119.00,0.0124
3118.00,0.0123
3117.00,0.0123
3116.00,0.0123
3115.00,0.0123
3114.00,0.0123
3113.00,0.0123
3112.00,0.0123
3111.00,0.0123
3110.00,0.0123
3109.00,0.0123
3108.00,0.0123
3107.00,0.0123
3106.00,0.0123
3105.00,0.0123
3104.00,0.0122
3103.00,0.0122
3102.00,0.0122
3101.00,0.0121
3100.00,0.0122
3099.00,0.0122
3098.00,0.0122
3097.00,0.0122
3096.00,0.0122
3095.00,0.0122
3094.00,0.0122
3093.00,0.0122
3092.00,0.0122
3091.00,0.0122
3090.00,0.0122
3089.00,0.0122
3088.00,0.0122
3087.00,0.0122
3086.00,0.0122
3085.00,0.0122
3084.00,0.0121
3083.00,0.0121
3082.00,0.0121
3081.00,0.0121
3080.00,0.0121
3079.00,0.0121
3078.00,0.0121
3077.00,0.0121
3076.00,0.0122
3075.00,0.0122
3074.00,0.0122
3073.00,0.0122
3072.00,0.0122
3071.00,0.0122
3070.00,0.0121
3069.00,0.0121
3068.00,0.0121
3067.00,0.0121
3066.00,0.0121
3065.00,0.0121
3064.00,0.0121
3063.00,0.0121
3062.00,0.0121
3061.00,0.0121
3060.00,0.0121
3059.00,0.0121
3058.00,0.0120
3057.00,0.0119
3056.00,0.0119
3055.00,0.0118
3054.00,0.0118
3053.00,0.0118
3052.00,0.0117
3051.00,0.0117
3050.00,0.0116
3049.00,0.0116
3048.00,0.0115
3047.00,0.0115
3046.00,0.0114
3045.00,0.0114
3044.00,0.0113
3043.00,0.0113
3042.00,0.0112
3041.00,0.0112
3040.00,0.0111
3039.00,0.0111
3038.00,0.0111
3037.00,0.0111
3036.00,0.0111
3035.00,0.0110
3034.00,0.0109
3033.00,0.0109
3032.00,0.0108
3031.00,0.0108
3030.00,0.0108
3029.00,0.0108
3028.00,0.0108
3027.00,0.0107
3026.00,0.0106
3025.00,0.0106
3024.00,0.0105
3023.00,0.0105
3022.00,0.0105
3021.00,0.0104
3020.00,0.0103
3019.00,0.0103
3018.00,0.0102
3017.00,0.0101
3016.00,0.0101
3015.00,0.0100
3014.00,0.0099
3013.00,0.0099
3012.00,0.0098
3011.00,0.0098
3010.00,0.0098
3009.00,0.0097
3008.00,0.0097
3007.00,0.0097
3006.00,0.0097
3005.00,0.0096
3004.00,0.0096
3003.00,0.0096
3002.00,0.0095
3001.00,0.0095
3000.00,0.0095
2999.00,0.0094
2998.00,0.0094
2997.00,0.0094
2996.00,0.0094
2995.00,0.0094
2994.00,0.0094
2993.00,0.0094
2992.00,0.0095
2991.00,0.0095
2990.00,0.0096
2989.00,0.0097
2988.00,0.0097
2987.00,0.0098
2986.00,0.0098
2985.00,0.0098
2984.00,0.0098
2983.00,0.0098
2982.00,0.0098
2981.00,0.0099
2980.00,0.0100
2979.00,0.0102
2978.00,0.0104
2977.00,0.0106
2976.00,0.0107
2975.00,0.0109
2974.00,0.0110
2973.00,0.0111
2972.00,0.0113
2971.00,0.0114
2970.00,0.0115
2969.00,0.0117
2968.00,0.0118
2967.00,0.0120
2966.00,0.0121
2965.00,0.0122
2964.00,0.0123
2963.00,0.0123
2962.00,0.0124
2961.00,0.0124
2960.00,0.0124
2959.00,0.0124
2958.00,0.0124
2957.00,0.0124
2956.00,0.0124
2955.00,0.0123
2954.00,0.0123
2953.00,0.0123
2952.00,0.0122
2951.00,0.0122
2950.00,0.0122
2949.00,0.0122
2948.00,0.0121
2947.00,0.0121
2946.00,0.0121
2945.00,0.0121
2944.00,0.0121
2943.00,0.0122
2942.00,0.0122
2941.00,0.0123
2940.00,0.0124
2939.00,0.0125
2938.00,0.0125
2937.00,0.0126
2936.00,0.0126
2935.00,0.0126
2934.00,0.0126
2933.00,0.0127
2932.00,0.0127
2931.00,0.0127
2930.00,0.0127
2929.00,0.0128
2928.00,0.0128
2927.00,0.0128
2926.00,0.0128
2925.00,0.0128
2924.00,0.0128
2923.00,0.0128
2922.00,0.0127
2921.00,0.0127
2920.00,0.0127
2919.00,0.0127
2918.00,0.0126
2917.00,0.0125
2916.00,0.0124
2915.00,0.0123
2914.00,0.0121
2913.00,0.0120
2912.00,0.0118
2911.00,0.0117
2910.00,0.0116
2909.00,0.0115
2908.00,0.0114
2907.00,0.0113
2906.00,0.0112
2905.00,0.0111
2904.00,0.0111
2903.00,0.0110
2902.00,0.0109
2901.00,0.0108
2900.00,0.0108
2899.00,0.0107
2898.00,0.0107
2897.00,0.0106
2896.00,0.0106
2895.00,0.0105
2894.00,0.0105
2893.00,0.0104
2892.00,0.0104
2891.00,0.0104
2890.00,0.0103
2889.00,0.0103
2888.00,0.0103
2887.00,0.0103
2886.00,0.0103
2885.00,0.0103
2884.00,0.0103
2883.00,0.0104
2882.00,0.0104
2881.00,0.0104
2880.00,0.0105
2879.00,0.0105
2878.00,0.0106
2877.00,0.0106
2876.00,0.0106
2875.00,0.0106
2874.00,0.0106
2873.00,0.0105
2872.00,0.0105
2871.00,0.0105
2870.00,0.0104
2869.00,0.0104
2868.00,0.0103
2867.00,0.0102
2866.00,0.0102
2865.00,0.0101
2864.00,0.0100
2863.00,0.0099
2862.00,0.0099
2861.00,0.0098
2860.00,0.0098
2859.00,0.0097
2858.00,0.0097
2857.00,0.0097
2856.00,0.0097
2855.00,0.0097
2854.00,0.0097
2853.00,0.0096
2852.00,0.0096
2851.00,0.0096
2850.00,0.0095
2849.00,0.0095
2848.00,0.0094
2847.00,0.0093
2846.00,0.0092
2845.00,0.0091
2844.00,0.0089
2843.00,0.0088
2842.00,0.0087
2841.00,0.0086
2840.00,0.0086
2839.00,0.0085
2838.00,0.0084
2837.00,0.0084
2836.00,0.0083
2835.00,0.0083
2834.00,0.0082
2833.00,0.0082
2832.00,0.0082
2831.00,0.0081
2830.00,0.0081
2829.00,0.0081
2828.00,0.0081
2827.00,0.0080
2826.00,0.0080
2825.00,0.0080
2824.00,0.0079
2823.00,0.0079
2822.00,0.0079
2821.00,0.0079
2820.00,0.0079
2819.00,0.0078
2818.00,0.0078
2817.00,0.0078
2816.00,0.0078
2815.00,0.0078
2814.00,0.0077
2813.00,0.0077
2812.00,0.0077
2811.00,0.0076
2810.00,0.0076
2809.00,0.0076
2808.00,0.0076
2807.00,0.0075
2806.00,0.0075
2805.00,0.0075
2804.00,0.0075
2803.00,0.0075
2802.00,0.0075
2801.00,0.0074
2800.00,0.0074
2799.00,0.0074
2798.00,0.0073
2797.00,0.0073
2796.00,0.0073
2795.00,0.0073
2794.00,0.0073
2793.00,0.0073
2792.00,0.0073
2791.00,0.0073
2790.00,0.0072
2789.00,0.0072
2788.00,0.0072
2787.00,0.0072
2786.00,0.0072
2785.00,0.0072
2784.00,0.0071
2783.00,0.0071
2782.00,0.0071
2781.00,0.0071
2780.00,0.0070
2779.00,0.0070
2778.00,0.0070
2777.00,0.0069
2776.00,0.0069
2775.00,0.0069
2774.00,0.0069
2773.00,0.0069
2772.00,0.0069
2771.00,0.0069
2770.00,0.0069
2769.00,0.0068
2768.00,0.0068
2767.00,0.0068
2766.00,0.0068
2765.00,0.0067
2764.00,0.0067
2763.00,0.0067
2762.00,0.0067
2761.00,0.0067
2760.00,0.0067
2759.00,0.0067
2758.00,0.0066
2757.00,0.0066
2756.00,0.0066
2755.00,0.0066
2754.00,0.0066
2753.00,0.0066
2752.00,0.0065
2751.00,0.0065
2750.00,0.0065
2749.00,0.0065
2748.00,0.0065
2747.00,0.0065
2746.00,0.0064
2745.00,0.0064
2744.00,0.0064
2743.00,0.0064
2742.00,0.0064
2741.00,0.0064
2740.00,0.0064
2739.00,0.0064
2738.00,0.0063
2737.00,0.0063
2736.00,0.0063
2735.00,0.0063
2734.00,0.0063
2733.00,0.0063
2732.00,0.0062
2731.00,0.0062
2730.00,0.0062
2729.00,0.0062
2728.00,0.0062
2727.00,0.0061
2726.00,0.0061
2725.00,0.0061
2724.00,0.0061
2723.00,0.0061
2722.00,0.0061
2721.00,0.0061
2720.00,0.0060
2719.00,0.0060
2718.00,0.0060
2717.00,0.0060
2716.00,0.0060
2715.00,0.0060
2714.00,0.0060
2713.00,0.0060
2712.00,0.0059
2711.00,0.0059
2710.00,0.0059
2709.00,0.0059
2708.00,0.0059
2707.00,0.0058
2706.00,0.0058
2705.00,0.0058
2704.00,0.0058
2703.00,0.0058
2702.00,0.0058
2701.00,0.0058
2700.00,0.0057
2699.00,0.0057
2698.00,0.0057
2697.00,0.0057
2696.00,0.0057
2695.00,0.0057
2694.00,0.0057
2693.00,0.0057
2692.00,0.0057
2691.00,0.0057
2690.00,0.0057
2689.00,0.0057
2688.00,0.0056
2687.00,0.0056
2686.00,0.0056
2685.00,0.0056
2684.00,0.0056
2683.00,0.0056
2682.00,0.0056
2681.00,0.0056
2680.00,0.0056
2679.00,0.0056
2678.00,0.0056
2677.00,0.0056
2676.00,0.0056
2675.00,0.0055
2674.00,0.0055
2673.00,0.0055
2672.00,0.0055
2671.00,0.0055
2670.00,0.0055
2669.00,0.0055
2668.00,0.0055
2667.00,0.0055
2666.00,0.0056
2665.00,0.0056
2664.00,0.0056
2663.00,0.0057
2662.00,0.0057
2661.00,0.0057
2660.00,0.0057
2659.00,0.0058
2658.00,0.0058
2657.00,0.0058
2656.00,0.0058
2655.00,0.0058
2654.00,0.0058
2653.00,0.0058
2652.00,0.0058
2651.00,0.0058
2650.00,0.0058
2649.00,0.0058
2648.00,0.0058
2647.00,0.0058
2646.00,0.0057
2645.00,0.0057
2644.00,0.0057
2643.00,0.0057
2642.00,0.0057
2641.00,0.0057
2640.00,0.0057
2639.00,0.0057
2638.00,0.0057
2637.00,0.0057
2636.00,0.0057
2635.00,0.0057
2634.00,0.0056
2633.00,0.0056
2632.00,0.0056
2631.00,0.0055
2630.00,0.0055
2629.00,0.0055
2628.00,0.0054
2627.00,0.0054
2626.00,0.0054
2625.00,0.0054
2624.00,0.0054
2623.00,0.0054
2622.00,0.0055
2621.00,0.0055
2620.00,0.0055
2619.00,0.0055
2618.00,0.0055
2617.00,0.0054
2616.00,0.0054
2615.00,0.0054
2614.00,0.0053
2613.00,0.0053
2612.00,0.0053
2611.00,0.0053
2610.00,0.0053
2609.00,0.0053
2608.00,0.0053
2607.00,0.0052
2606.00,0.0052
2605.00,0.0052
2604.00,0.0053
2603.00,0.0053
2602.00,0.0052
2601.00,0.0052
2600.00,0.0052
2599.00,0.0051
2598.00,0.0051
2597.00,0.0051
2596.00,0.0051
2595.00,0.0051
2594.00,0.0051
2593.00,0.0050
2592.00,0.0050
2591.00,0.0050
2590.00,0.0050
2589.00,0.0050
2588.00,0.0050
2587.00,0.0049
2586.00,0.0049
2585.00,0.0049
2584.00,0.0049
2583.00,0.0049
2582.00,0.0049
2581.00,0.0048
2580.00,0.0048
2579.00,0.0048
2578.00,0.0048
2577.00,0.0048
2576.00,0.0048
2575.00,0.0047
2574.00,0.0047
2573.00,0.0047
2572.00,0.0047
2571.00,0.0047
2570.00,0.0046
2569.00,0.0046
2568.00,0.0046
2567.00,0.0046
2566.00,0.0046
2565.00,0.0046
2564.00,0.0046
2563.00,0.0046
2562.00,0.0046
2561.00,0.0045
2560.00,0.0045
2559.00,0.0045
2558.00,0.0045
2557.00,0.0045
2556.00,0.0045
2555.00,0.0045
2554.00,0.0045
2553.00,0.0045
2552.00,0.0045
2551.00,0.0045
2550.00,0.0045
2549.00,0.0045
2548.00,0.0045
2547.00,0.0045
2546.00,0.0045
2545.00,0.0044
2544.00,0.0045
2543.00,0.0045
2542.00,0.0045
2541.00,0.0045
2540.00,0.0044
2539.00,0.0044
2538.00,0.0043
2537.00,0.0043
2536.00,0.0043
2535.00,0.0043
2534.00,0.0042
2533.00,0.0042
2532.00,0.0043
2531.00,0.0043
2530.00,0.0042
2529.00,0.0042
2528.00,0.0042
2527.00,0.0041
2526.00,0.0041
2525.00,0.0041
2524.00,0.0041
2523.00,0.0041
2522.00,0.0041
2521.00,0.0041
2520.00,0.0042
2519.00,0.0042
2518.00,0.0042
2517.00,0.0042
2516.00,0.0042
2515.00,0.0042
2514.00,0.0042
2513.00,0.0042
2512.00,0.0042
2511.00,0.0042
2510.00,0.0041
2509.00,0.0041
2508.00,0.0041
2507.00,0.0041
2506.00,0.0041
2505.00,0.0041
2504.00,0.0041
2503.00,0.0041
2502.00,0.0041
2501.00,0.0040
2500.00,0.0040
2499.00,0.0040
2498.00,0.0040
2497.00,0.0040
2496.00,0.0040
2495.00,0.0040
2494.00,0.0040
2493.00,0.0041
2492.00,0.0041
2491.00,0.0040
2490.00,0.0040
2489.00,0.0040
2488.00,0.0040
2487.00,0.0040
2486.00,0.0040
2485.00,0.0040
2484.00,0.0041
2483.00,0.0041
2482.00,0.0040
2481.00,0.0040
2480.00,0.0040
2479.00,0.0040
2478.00,0.0039
2477.00,0.0039
2476.00,0.0039
2475.00,0.0039
2474.00,0.0039
2473.00,0.0039
2472.00,0.0039
2471.00,0.0039
2470.00,0.0039
2469.00,0.0039
2468.00,0.0039
2467.00,0.0039
2466.00,0.0039
2465.00,0.0039
2464.00,0.0039
2463.00,0.0039
2462.00,0.0039
2461.00,0.0040
2460.00,0.0040
2459.00,0.0040
2458.00,0.0040
2457.00,0.0040
2456.00,0.0040
2455.00,0.0040
2454.00,0.0040
2453.00,0.0040
2452.00,0.0039
2451.00,0.0040
2450.00,0.0040
2449.00,0.0040
2448.00,0.0040
2447.00,0.0039
2446.00,0.0039
2445.00,0.0039
2444.00,0.0038
2443.00,0.0038
2442.00,0.0038
2441.00,0.0037
2440.00,0.0037
2439.00,0.0037
2438.00,0.0037
2437.00,0.0037
2436.00,0.0037
2435.00,0.0037
2434.00,0.0037
2433.00,0.0037
2432.00,0.0037
2431.00,0.0037
2430.00,0.0036
2429.00,0.0036
2428.00,0.0036
2427.00,0.0036
2426.00,0.0036
2425.00,0.0036
2424.00,0.0036
2423.00,0.0036
2422.00,0.0036
2421.00,0.0035
2420.00,0.0035
2419.00,0.0035
2418.00,0.0035
2417.00,0.0035
2416.00,0.0035
2415.00,0.0035
2414.00,0.0035
2413.00,0.0035
2412.00,0.0035
2411.00,0.0034
2410.00,0.0034
2409.00,0.0034
2408.00,0.0033
2407.00,0.0033
2406.00,0.0033
2405.00,0.0032
2404.00,0.0032
2403.00,0.0032
2402.00,0.0032
2401.00,0.0033
2400.00,0.0033
2399.00,0.0033
2398.00,0.0033
2397.00,0.0033
2396.00,0.0033
2395.00,0.0033
2394.00,0.0032
2393.00,0.0032
2392.00,0.0032
2391.00,0.0032
2390.00,0.0032
2389.00,0.0032
2388.00,0.0032
2387.00,0.0031
2386.00,0.0031
2385.00,0.0031
2384.00,0.0031
2383.00,0.0030
2382.00,0.0030
2381.00,0.0030
2380.00,0.0030
2379.00,0.0030
2378.00,0.0030
2377.00,0.0030
2376.00,0.0030
2375.00,0.0030
2374.00,0.0029
2373.00,0.0029
2372.00,0.0029
2371.00,0.0029
2370.00,0.0029
2369.00,0.0029
2368.00,0.0029
2367.00,0.0029
2366.00,0.0029
2365.00,0.0029
2364.00,0.0030
2363.00,0.0030
2362.00,0.0030
2361.00,0.0030
2360.00,0.0030
2359.00,0.0030
2358.00,0.0030
2357.00,0.0030
2356.00,0.0030
2355.00,0.0030
2354.00,0.0030
2353.00,0.0029
2352.00,0.0028
2351.00,0.0028
2350.00,0.0029
2349.00,0.0030
2348.00,0.0032
2347.00,0.0034
2346.00,0.0034
2345.00,0.0033
2344.00,0.0032
2343.00,0.0032
2342.00,0.0032
2341.00,0.0032
2340.00,0.0033
2339.00,0.0033
2338.00,0.0034
2337.00,0.0034
2336.00,0.0033
2335.00,0.0033
2334.00,0.0033
2333.00,0.0033
2332.00,0.0033
2331.00,0.0033
2330.00,0.0033
2329.00,0.0034
2328.00,0.0036
2327.00,0.0040
2326.00,0.0043
2325.00,0.0044
2324.00,0.0044
2323.00,0.0042
2322.00,0.0041
2321.00,0.0040
2320.00,0.0039
2319.00,0.0038
2318.00,0.0037
2317.00,0.0037
2316.00,0.0036
2315.00,0.0036
2314.00,0.0036
2313.00,0.0035
2312.00,0.0035
2311.00,0.0035
2310.00,0.0035
2309.00,0.0035
2308.00,0.0035
2307.00,0.0035
2306.00,0.0035
2305.00,0.0035
2304.00,0.0035
2303.00,0.0036
2302.00,0.0036
2301.00,0.0036
2300.00,0.0037
2299.00,0.0037
2298.00,0.0037
2297.00,0.0038
2296.00,0.0038
2295.00,0.0038
2294.00,0.0039
2293.00,0.0040
2292.00,0.0041
2291.00,0.0042
2290.00,0.0043
2289.00,0.0043
2288.00,0.0044
2287.00,0.0044
2286.00,0.0044
2285.00,0.0043
2284.00,0.0042
2283.00,0.0042
2282.00,0.0041
2281.00,0.0040
2280.00,0.0040
2279.00,0.0039
2278.00,0.0039
2277.00,0.0039
2276.00,0.0039
2275.00,0.0039
2274.00,0.0039
2273.00,0.0039
2272.00,0.0039
2271.00,0.0039
2270.00,0.0038
2269.00,0.0037
2268.00,0.0036
2267.00,0.0035
2266.00,0.0034
2265.00,0.0035
2264.00,0.0036
2263.00,0.0036
2262.00,0.0037
2261.00,0.0037
2260.00,0.0037
2259.00,0.0037
2258.00,0.0036
2257.00,0.0035
2256.00,0.0035
2255.00,0.0034
2254.00,0.0033
2253.00,0.0033
2252.00,0.0033
2251.00,0.0033
2250.00,0.0034
2249.00,0.0034
2248.00,0.0034
2247.00,0.0034
2246.00,0.0033
2245.00,0.0033
2244.00,0.0034
2243.00,0.0034
2242.00,0.0034
2241.00,0.0034
2240.00,0.0035
2239.00,0.0035
2238.00,0.0035
2237.00,0.0034
2236.00,0.0034
2235.00,0.0034
2234.00,0.0034
2233.00,0.0035
2232.00,0.0036
2231.00,0.0036
2230.00,0.0036
2229.00,0.0036
2228.00,0.0035
2227.00,0.0035
2226.00,0.0035
2225.00,0.0034
2224.00,0.0035
2223.00,0.0035
2222.00,0.0034
2221.00,0.0034
2220.00,0.0034
2219.00,0.0033
2218.00,0.0033
2217.00,0.0032
2216.00,0.0031
2215.00,0.0031
2214.00,0.0031
2213.00,0.0032
2212.00,0.0032
2211.00,0.0032
2210.00,0.0031
2209.00,0.0031
2208.00,0.0032
2207.00,0.0033
2206.00,0.0034
2205.00,0.0035
2204.00,0.0035
2203.00,0.0034
2202.00,0.0034
2201.00,0.0034
2200.00,0.0034
2199.00,0.0035
2198.00,0.0036
2197.00,0.0036
2196.00,0.0036
2195.00,0.0036
2194.00,0.0036
2193.00,0.0035
2192.00,0.0035
2191.00,0.0036
2190.00,0.0036
2189.00,0.0037
2188.00,0.0036
2187.00,0.0036
2186.00,0.0035
2185.00,0.0034
2184.00,0.0032
2183.00,0.0030
2182.00,0.0029
2181.00,0.0029
2180.00,0.0031
2179.00,0.0032
2178.00,0.0032
2177.00,0.0031
2176.00,0.0030
2175.00,0.0030
2174.00,0.0031
2173.00,0.0033
2172.00,0.0037
2171.00,0.0040
2170.00,0.0041
2169.00,0.0042
2168.00,0.0043
2167.00,0.0044
2166.00,0.0044
2165.00,0.0045
2164.00,0.0046
2163.00,0.0045
2162.00,0.0040
2161.00,0.0030
2160.00,0.0019
2159.00,0.0009
2158.00,0.0004
2157.00,0.0004
2156.00,0.0005
2155.00,0.0008
2154.00,0.0010
2153.00,0.0012
2152.00,0.0014
2151.00,0.0015
2150.00,0.0015
2149.00,0.0015
2148.00,0.0016
2147.00,0.0017
2146.00,0.0017
2145.00,0.0018
2144.00,0.0018
2143.00,0.0017
2142.00,0.0017
2141.00,0.0016
2140.00,0.0017
2139.00,0.0017
2138.00,0.0016
2137.00,0.0015
2136.00,0.0013
2135.00,0.0012
2134.00,0.0011
2133.00,0.0012
2132.00,0.0013
2131.00,0.0014
2130.00,0.0016
2129.00,0.0017
2128.00,0.0019
2127.00,0.0020
2126.00,0.0021
2125.00,0.0022
2124.00,0.0023
2123.00,0.0024
2122.00,0.0024
2121.00,0.0024
2120.00,0.0024
2119.00,0.0025
2118.00,0.0026
2117.00,0.0027
2116.00,0.0029
2115.00,0.0030
2114.00,0.0030
2113.00,0.0030
2112.00,0.0031
2111.00,0.0030
2110.00,0.0030
2109.00,0.0030
2108.00,0.0030
2107.00,0.0030
2106.00,0.0030
2105.00,0.0030
2104.00,0.0029
2103.00,0.0029
2102.00,0.0029
2101.00,0.0030
2100.00,0.0029
2099.00,0.0029
2098.00,0.0027
2097.00,0.0025
2096.00,0.0024
2095.00,0.0024
2094.00,0.0024
2093.00,0.0025
2092.00,0.0026
2091.00,0.0027
2090.00,0.0028
2089.00,0.0028
2088.00,0.0029
2087.00,0.0029
2086.00,0.0030
2085.00,0.0030
2084.00,0.0030
2083.00,0.0030
2082.00,0.0030
2081.00,0.0031
2080.00,0.0031
2079.00,0.0032
2078.00,0.0032
2077.00,0.0031
2076.00,0.0031
2075.00,0.0030
2074.00,0.0029
2073.00,0.0028
2072.00,0.0028
2071.00,0.0027
2070.00,0.0027
2069.00,0.0028
2068.00,0.0028
2067.00,0.0028
2066.00,0.0027
2065.00,0.0027
2064.00,0.0027
2063.00,0.0028
2062.00,0.0028
2061.00,0.0027
2060.00,0.0027
2059.00,0.0027
2058.00,0.0027
2057.00,0.0028
2056.00,0.0028
2055.00,0.0029
2054.00,0.0030
2053.00,0.0033
2052.00,0.0036
2051.00,0.0037
2050.00,0.0035
2049.00,0.0032
2048.00,0.0029
2047.00,0.0028
2046.00,0.0027
2045.00,0.0027
2044.00,0.0027
2043.00,0.0026
2042.00,0.0026
2041.00,0.0026
2040.00,0.0026
2039.00,0.0027
2038.00,0.0026
2037.00,0.0026
2036.00,0.0024
2035.00,0.0023
2034.00,0.0022
2033.00,0.0023
2032.00,0.0023
2031.00,0.0023
2030.00,0.0021
2029.00,0.0020
2028.00,0.0019
2027.00,0.0018
2026.00,0.0017
2025.00,0.0016
2024.00,0.0016
2023.00,0.0017
2022.00,0.0018
2021.00,0.0019
2020.00,0.0020
2019.00,0.0021
2018.00,0.0021
2017.00,0.0020
2016.00,0.0021
2015.00,0.0021
2014.00,0.0021
2013.00,0.0022
2012.00,0.0023
2011.00,0.0022
2010.00,0.0021
2009.00,0.0019
2008.00,0.0017
2007.00,0.0015
2006.00,0.0014
2005.00,0.0014
2004.00,0.0015
2003.00,0.0016
2002.00,0.0017
2001.00,0.0017
2000.00,0.0018
1999.00,0.0019
1998.00,0.0021
1997.00,0.0022
1996.00,0.0023
1995.00,0.0023
1994.00,0.0023
1993.00,0.0023
1992.00,0.0024
1991.00,0.0024
1990.00,0.0025
1989.00,0.0025
1988.00,0.0026
1987.00,0.0027
1986.00,0.0028
1985.00,0.0029
1984.00,0.0031
1983.00,0.0033
1982.00,0.0035
1981.00,0.0036
1980.00,0.0035
1979.00,0.0030
1978.00,0.0024
1977.00,0.0019
1976.00,0.0017
1975.00,0.0016
1974.00,0.0015
1973.00,0.0014
1972.00,0.0014
1971.00,0.0014
1970.00,0.0014
1969.00,0.0015
1968.00,0.0016
1967.00,0.0016
1966.00,0.0015
1965.00,0.0014
1964.00,0.0013
1963.00,0.0013
1962.00,0.0014
1961.00,0.0014
1960.00,0.0014
1959.00,0.0014
1958.00,0.0013
1957.00,0.0014
1956.00,0.0014
1955.00,0.0015
1954.00,0.0015
1953.00,0.0016
1952.00,0.0016
1951.00,0.0016
1950.00,0.0016
1949.00,0.0016
1948.00,0.0017
1947.00,0.0017
1946.00,0.0016
1945.00,0.0015
1944.00,0.0014
1943.00,0.0014
1942.00,0.0015
1941.00,0.0017
1940.00,0.0017
1939.00,0.0017
1938.00,0.0016
1937.00,0.0016
1936.00,0.0016
1935.00,0.0016
1934.00,0.0015
1933.00,0.0015
1932.00,0.0016
1931.00,0.0017
1930.00,0.0018
1929.00,0.0018
1928.00,0.0018
1927.00,0.0017
1926.00,0.0016
1925.00,0.0016
1924.00,0.0017
1923.00,0.0018
1922.00,0.0020
1921.00,0.0020
1920.00,0.0020
1919.00,0.0019
1918.00,0.0019
1917.00,0.0020
1916.00,0.0020
1915.00,0.0020
1914.00,0.0020
1913.00,0.0020
1912.00,0.0019
1911.00,0.0019
1910.00,0.0019
1909.00,0.0019
1908.00,0.0019
1907.00,0.0019
1906.00,0.0018
1905.00,0.0018
1904.00,0.0018
1903.00,0.0019
1902.00,0.0019
1901.00,0.0020
1900.00,0.0020
1899.00,0.0020
1898.00,0.0020
1897.00,0.0020
1896.00,0.0020
1895.00,0.0020
1894.00,0.0020
1893.00,0.0020
1892.00,0.0019
1891.00,0.0018
1890.00,0.0018
1889.00,0.0019
1888.00,0.0021
1887.00,0.0021
1886.00,0.0021
1885.00,0.0020
1884.00,0.0021
1883.00,0.0021
1882.00,0.0021
1881.00,0.0021
1880.00,0.0021
1879.00,0.0021
1878.00,0.0021
1877.00,0.0020
1876.00,0.0020
1875.00,0.0020
1874.00,0.0020
1873.00,0.0019
1872.00,0.0018
1871.00,0.0016
1870.00,0.0015
1869.00,0.0016
1868.00,0.0018
1867.00,0.0020
1866.00,0.0021
1865.00,0.0021
1864.00,0.0021
1863.00,0.0021
1862.00,0.0021
1861.00,0.0021
1860.00,0.0021
1859.00,0.0021
1858.00,0.0020
1857.00,0.0020
1856.00,0.0019
1855.00,0.0019
1854.00,0.0019
1853.00,0.0019
1852.00,0.0019
1851.00,0.0019
1850.00,0.0018
1849.00,0.0018
1848.00,0.0018
1847.00,0.0018
1846.00,0.0018
1845.00,0.0019
1844.00,0.0021
1843.00,0.0023
1842.00,0.0023
1841.00,0.0022
1840.00,0.0020
1839.00,0.0019
1838.00,0.0019
1837.00,0.0019
1836.00,0.0020
1835.00,0.0020
1834.00,0.0020
1833.00,0.0019
1832.00,0.0018
1831.00,0.0017
1830.00,0.0018
1829.00,0.0020
1828.00,0.0021
1827.00,0.0020
1826.00,0.0019
1825.00,0.0020
1824.00,0.0022
1823.00,0.0022
1822.00,0.0022
1821.00,0.0021
1820.00,0.0020
1819.00,0.0019
1818.00,0.0018
1817.00,0.0018
1816.00,0.0019
1815.00,0.0019
1814.00,0.0019
1813.00,0.0018
1812.00,0.0018
1811.00,0.0019
1810.00,0.0020
1809.00,0.0020
1808.00,0.0021
1807.00,0.0021
1806.00,0.0021
1805.00,0.0020
1804.00,0.0020
1803.00,0.0020
1802.00,0.0019
1801.00,0.0020
1800.00,0.0021
1799.00,0.0022
1798.00,0.0022
1797.00,0.0021
1796.00,0.0020
1795.00,0.0019
1794.00,0.0019
1793.00,0.0019
1792.00,0.0021
1791.00,0.0024
1790.00,0.0025
1789.00,0.0024
1788.00,0.0022
1787.00,0.0022
1786.00,0.0021
1785.00,0.0022
1784.00,0.0023
1783.00,0.0023
1782.00,0.0022
1781.00,0.0021
1780.00,0.0022
1779.00,0.0022
1778.00,0.0021
1777.00,0.0020
1776.00,0.0020
1775.00,0.0019
1774.00,0.0018
1773.00,0.0019
1772.00,0.0022
1771.00,0.0025
1770.00,0.0025
1769.00,0.0025
1768.00,0.0025
1767.00,0.0026
1766.00,0.0025
1765.00,0.0024
1764.00,0.0022
1763.00,0.0022
1762.00,0.0024
1761.00,0.0026
1760.00,0.0026
1759.00,0.0026
1758.00,0.0025
1757.00,0.0025
1756.00,0.0026
1755.00,0.0026
1754.00,0.0025
1753.00,0.0023
1752.00,0.0023
1751.00,0.0023
1750.00,0.0024
1749.00,0.0025
1748.00,0.0026
1747.00,0.0026
1746.00,0.0027
1745.00,0.0027
1744.00,0.0027
1743.00,0.0027
1742.00,0.0028
1741.00,0.0028
1740.00,0.0029
1739.00,0.0031
1738.00,0.0031
1737.00,0.0030
1736.00,0.0029
1735.00,0.0030
1734.00,0.0035
1733.00,0.0040
1732.00,0.0041
1731.00,0.0039
1730.00,0.0038
1729.00,0.0038
1728.00,0.0040
1727.00,0.0040
1726.00,0.0041
1725.00,0.0041
1724.00,0.0042
1723.00,0.0044
1722.00,0.0044
1721.00,0.0044
1720.00,0.0044
1719.00,0.0045
1718.00,0.0049
1717.00,0.0054
1716.00,0.0059
1715.00,0.0061
1714.00,0.0062
1713.00,0.0063
1712.00,0.0065
1711.00,0.0067
1710.00,0.0069
1709.00,0.0072
1708.00,0.0074
1707.00,0.0078
1706.00,0.0082
1705.00,0.0089
1704.00,0.0096
1703.00,0.0101
1702.00,0.0107
1701.00,0.0115
1700.00,0.0128
1699.00,0.0141
1698.00,0.0148
1697.00,0.0155
1696.00,0.0166
1695.00,0.0179
1694.00,0.0188
1693.00,0.0193
1692.00,0.0198
1691.00,0.0205
1690.00,0.0213
1689.00,0.0221
1688.00,0.0230
1687.00,0.0239
1686.00,0.0247
1685.00,0.0255
1684.00,0.0266
1683.00,0.0277
1682.00,0.0284
1681.00,0.0291
1680.00,0.0298
1679.00,0.0306
1678.00,0.0315
1677.00,0.0322
1676.00,0.0330
1675.00,0.0337
1674.00,0.0344
1673.00,0.0351
1672.00,0.0358
1671.00,0.0365
1670.00,0.0371
1669.00,0.0378
1668.00,0.0387
1667.00,0.0395
1666.00,0.0403
1665.00,0.0411
1664.00,0.0418
1663.00,0.0424
1662.00,0.0430
1661.00,0.0437
1660.00,0.0445
1659.00,0.0452
1658.00,0.0460
1657.00,0.0468
1656.00,0.0479
1655.00,0.0488
1654.00,0.0491
1653.00,0.0488
1652.00,0.0488
1651.00,0.0490
1650.00,0.0492
1649.00,0.0495
1648.00,0.0497
1647.00,0.0496
1646.00,0.0495
1645.00,0.0496
1644.00,0.0498
1643.00,0.0500
1642.00,0.0501
1641.00,0.0502
1640.00,0.0504
1639.00,0.0505
1638.00,0.0507
1637.00,0.0507
1636.00,0.0503
1635.00,0.0499
1634.00,0.0498
1633.00,0.0500
1632.00,0.0503
1631.00,0.0505
1630.00,0.0506
1629.00,0.0505
1628.00,0.0504
1627.00,0.0504
1626.00,0.0504
1625.00,0.0503
1624.00,0.0500
1623.00,0.0496
1622.00,0.0492
1621.00,0.0490
1620.00,0.0489
1619.00,0.0488
1618.00,0.0483
1617.00,0.0474
1616.00,0.0464
1615.00,0.0455
1614.00,0.0448
1613.00,0.0442
1612.00,0.0435
1611.00,0.0428
1610.00,0.0420
1609.00,0.0412
1608.00,0.0405
1607.00,0.0397
1606.00,0.0391
1605.00,0.0385
1604.00,0.0379
1603.00,0.0373
1602.00,0.0368
1601.00,0.0363
1600.00,0.0358
1599.00,0.0353
1598.00,0.0349
1597.00,0.0344
1596.00,0.0340
1595.00,0.0336
1594.00,0.0332
1593.00,0.0328
1592.00,0.0324
1591.00,0.0320
1590.00,0.0317
1589.00,0.0314
1588.00,0.0311
1587.00,0.0308
1586.00,0.0306
1585.00,0.0304
1584.00,0.0302
1583.00,0.0301
1582.00,0.0300
1581.00,0.0299
1580.00,0.0299
1579.00,0.0299
1578.00,0.0300
1577.00,0.0300
1576.00,0.0301
1575.00,0.0301
1574.00,0.0301
1573.00,0.0302
1572.00,0.0302
1571.00,0.0302
1570.00,0.0303
1569.00,0.0305
1568.00,0.0307
1567.00,0.0309
1566.00,0.0311
1565.00,0.0314
1564.00,0.0317
1563.00,0.0322
1562.00,0.0327
1561.00,0.0332
1560.00,0.0332
1559.00,0.0332
1558.00,0.0337
1557.00,0.0343
1556.00,0.0348
1555.00,0.0352
1554.00,0.0356
1553.00,0.0360
1552.00,0.0364
1551.00,0.0368
1550.00,0.0372
1549.00,0.0377
1548.00,0.0381
1547.00,0.0386
1546.00,0.0390
1545.00,0.0394
1544.00,0.0398
1543.00,0.0401
1542.00,0.0404
1541.00,0.0405
1540.00,0.0406
1539.00,0.0409
1538.00,0.0413
1537.00,0.0416
1536.00,0.0418
1535.00,0.0420
1534.00,0.0421
1533.00,0.0421
1532.00,0.0423
1531.00,0.0425
1530.00,0.0427
1529.00,0.0428
1528.00,0.0429
1527.00,0.0429
1526.00,0.0429
1525.00,0.0429
1524.00,0.0429
1523.00,0.0430
1522.00,0.0429
1521.00,0.0428
1520.00,0.0428
1519.00,0.0429
1518.00,0.0428
1517.00,0.0427
1516.00,0.0427
1515.00,0.0427
1514.00,0.0427
1513.00,0.0425
1512.00,0.0422
1511.00,0.0418
1510.00,0.0415
1509.00,0.0412
1508.00,0.0405
1507.00,0.0397
1506.00,0.0390
1505.00,0.0385
1504.00,0.0382
1503.00,0.0378
1502.00,0.0374
1501.00,0.0370
1500.00,0.0366
1499.00,0.0362
1498.00,0.0357
1497.00,0.0351
1496.00,0.0345
1495.00,0.0340
1494.00,0.0334
1493.00,0.0328
1492.00,0.0321
1491.00,0.0314
1490.00,0.0306
1489.00,0.0300
1488.00,0.0294
1487.00,0.0290
1486.00,0.0285
1485.00,0.0280
1484.00,0.0276
1483.00,0.0271
1482.00,0.0267
1481.00,0.0264
1480.00,0.0261
1479.00,0.0259
1478.00,0.0258
1477.00,0.0256
1476.00,0.0256
1475.00,0.0257
1474.00,0.0258
1473.00,0.0260
1472.00,0.0264
1471.00,0.0268
1470.00,0.0272
1469.00,0.0274
1468.00,0.0276
1467.00,0.0279
1466.00,0.0281
1465.00,0.0284
1464.00,0.0287
1463.00,0.0289
1462.00,0.0291
1461.00,0.0293
1460.00,0.0294
1459.00,0.0296
1458.00,0.0299
1457.00,0.0301
1456.00,0.0302
1455.00,0.0302
1454.00,0.0301
1453.00,0.0300
1452.00,0.0299
1451.00,0.0299
1450.00,0.0299
1449.00,0.0299
1448.00,0.0299
1447.00,0.0300
1446.00,0.0301
1445.00,0.0302
1444.00,0.0303
1443.00,0.0303
1442.00,0.0304
1441.00,0.0304
1440.00,0.0305
1439.00,0.0306
1438.00,0.0306
1437.00,0.0305
1436.00,0.0303
1435.00,0.0300
1434.00,0.0297
1433.00,0.0295
1432.00,0.0292
1431.00,0.0289
1430.00,0.0287
1429.00,0.0286
1428.00,0.0285
1427.00,0.0285
1426.00,0.0285
1425.00,0.0285
1424.00,0.0285
1423.00,0.0286
1422.00,0.0287
1421.00,0.0289
1420.00,0.0289
1419.00,0.0288
1418.00,0.0287
1417.00,0.0285
1416.00,0.0284
1415.00,0.0282
1414.00,0.0281
1413.00,0.0280
1412.00,0.0279
1411.00,0.0279
1410.00,0.0279
1409.00,0.0279
1408.00,0.0279
1407.00,0.0279
1406.00,0.0279
1405.00,0.0280
1404.00,0.0281
1403.00,0.0282
1402.00,0.0283
1401.00,0.0284
1400.00,0.0284
1399.00,0.0284
1398.00,0.0285
1397.00,0.0286
1396.00,0.0287
1395.00,0.0288
1394.00,0.0289
1393.00,0.0290
1392.00,0.0290
1391.00,0.0290
1390.00,0.0290
1389.00,0.0290
1388.00,0.0290
1387.00,0.0289
1386.00,0.0288
1385.00,0.0286
1384.00,0.0284
1383.00,0.0282
1382.00,0.0279
1381.00,0.0277
1380.00,0.0274
1379.00,0.0272
1378.00,0.0269
1377.00,0.0267
1376.00,0.0265
1375.00,0.0263
1374.00,0.0261
1373.00,0.0260
1372.00,0.0259
1371.00,0.0258
1370.00,0.0256
1369.00,0.0255
1368.00,0.0253
1367.00,0.0250
1366.00,0.0248
1365.00,0.0245
1364.00,0.0242
1363.00,0.0239
1362.00,0.0236
1361.00,0.0234
1360.00,0.0232
1359.00,0.0230
1358.00,0.0228
1357.00,0.0226
1356.00,0.0225
1355.00,0.0224
1354.00,0.0223
1353.00,0.0222
1352.00,0.0221
1351.00,0.0220
1350.00,0.0219
1349.00,0.0219
1348.00,0.0219
1347.00,0.0218
1346.00,0.0218
1345.00,0.0218
1344.00,0.0218
1343.00,0.0218
1342.00,0.0218
1341.00,0.0218
1340.00,0.0218
1339.00,0.0218
1338.00,0.0219
1337.00,0.0219
1336.00,0.0220
1335.00,0.0220
1334.00,0.0220
1333.00,0.0219
1332.00,0.0219
1331.00,0.0219
1330.00,0.0220
1329.00,0.0221
1328.00,0.0222
1327.00,0.0222
1326.00,0.0223
1325.00,0.0224
1324.00,0.0225
1323.00,0.0225
1322.00,0.0226
1321.00,0.0227
1320.00,0.0228
1319.00,0.0229
1318.00,0.0230
1317.00,0.0231
1316.00,0.0231
1315.00,0.0232
1314.00,0.0232
1313.00,0.0231
1312.00,0.0231
1311.00,0.0231
1310.00,0.0230
1309.00,0.0230
1308.00,0.0229
1307.00,0.0229
1306.00,0.0229
1305.00,0.0229
1304.00,0.0229
1303.00,0.0229
1302.00,0.0230
1301.00,0.0231
1300.00,0.0232
1299.00,0.0233
1298.00,0.0235
1297.00,0.0237
1296.00,0.0239
1295.00,0.0242
1294.00,0.0245
1293.00,0.0248
1292.00,0.0251
1291.00,0.0254
1290.00,0.0256
1289.00,0.0259
1288.00,0.0260
1287.00,0.0262
1286.00,0.0263
1285.00,0.0263
1284.00,0.0263
1283.00,0.0263
1282.00,0.0263
1281.00,0.0262
1280.00,0.0261
1279.00,0.0260
1278.00,0.0260
1277.00,0.0260
1276.00,0.0260
1275.00,0.0260
1274.00,0.0261
1273.00,0.0262
1272.00,0.0263
1271.00,0.0263
1270.00,0.0264
1269.00,0.0264
1268.00,0.0265
1267.00,0.0265
1266.00,0.0265
1265.00,0.0265
1264.00,0.0265
1263.00,0.0265
1262.00,0.0265
1261.00,0.0265
1260.00,0.0265
1259.00,0.0265
1258.00,0.0266
1257.00,0.0266
1256.00,0.0267
1255.00,0.0267
1254.00,0.0268
1253.00,0.0269
1252.00,0.0270
1251.00,0.0272
1250.00,0.0273
1249.00,0.0275
1248.00,0.0276
1247.00,0.0278
1246.00,0.0280
1245.00,0.0281
1244.00,0.0283
1243.00,0.0284
1242.00,0.0285
1241.00,0.0287
1240.00,0.0288
1239.00,0.0290
1238.00,0.0292
1237.00,0.0293
1236.00,0.0294
1235.00,0.0295
1234.00,0.0296
1233.00,0.0296
1232.00,0.0297
1231.00,0.0297
1230.00,0.0296
1229.00,0.0296
1228.00,0.0295
1227.00,0.0294
1226.00,0.0293
1225.00,0.0292
1224.00,0.0291
1223.00,0.0289
1222.00,0.0287
1221.00,0.0285
1220.00,0.0283
1219.00,0.0281
1218.00,0.0278
1217.00,0.0276
1216.00,0.0273
1215.00,0.0271
1214.00,0.0268
1213.00,0.0265
1212.00,0.0262
1211.00,0.0259
1210.00,0.0256
1209.00,0.0253
1208.00,0.0250
1207.00,0.0247
1206.00,0.0244
1205.00,0.0241
1204.00,0.0238
1203.00,0.0236
1202.00,0.0233
1201.00,0.0231
1200.00,0.0228
1199.00,0.0226
1198.00,0.0224
1197.00,0.0222
1196.00,0.0220
1195.00,0.0218
1194.00,0.0216
1193.00,0.0214
1192.00,0.0213
1191.00,0.0211
1190.00,0.0210
1189.00,0.0209
1188.00,0.0208
1187.00,0.0207
1186.00,0.0206
1185.00,0.0206
1184.00,0.0205
1183.00,0.0205
1182.00,0.0205
1181.00,0.0205
1180.00,0.0206
1179.00,0.0206
1178.00,0.0207
1177.00,0.0209
1176.00,0.0211
1175.00,0.0212
1174.00,0.0214
1173.00,0.0216
1172.00,0.0218
1171.00,0.0220
1170.00,0.0221
1169.00,0.0222
1168.00,0.0223
1167.00,0.0225
1166.00,0.0226
1165.00,0.0228
1164.00,0.0230
1163.00,0.0231
1162.00,0.0232
1161.00,0.0233
1160.00,0.0235
1159.00,0.0236
1158.00,0.0236
1157.00,0.0237
1156.00,0.0238
1155.00,0.0238
1154.00,0.0237
1153.00,0.0237
1152.00,0.0236
1151.00,0.0235
1150.00,0.0234
1149.00,0.0232
1148.00,0.0231
1147.00,0.0229
1146.00,0.0228
1145.00,0.0226
1144.00,0.0225
1143.00,0.0223
1142.00,0.0222
1141.00,0.0220
1140.00,0.0219
1139.00,0.0218
1138.00,0.0217
1137.00,0.0216
1136.00,0.0216
1135.00,0.0216
1134.00,0.0216
1133.00,0.0217
1132.00,0.0217
1131.00,0.0218
1130.00,0.0219
1129.00,0.0221
1128.00,0.0222
1127.00,0.0224
1126.00,0.0225
1125.00,0.0227
1124.00,0.0228
1123.00,0.0230
1122.00,0.0231
1121.00,0.0232
1120.00,0.0233
1119.00,0.0234
1118.00,0.0236
1117.00,0.0237
1116.00,0.0238
1115.00,0.0240
1114.00,0.0241
1113.00,0.0243
1112.00,0.0245
1111.00,0.0246
1110.00,0.0247
1109.00,0.0248
1108.00,0.0249
1107.00,0.0251
1106.00,0.0253
1105.00,0.0254
1104.00,0.0256
1103.00,0.0257
1102.00,0.0258
1101.00,0.0259
1100.00,0.0260
1099.00,0.0262
1098.00,0.0263
1097.00,0.0264
1096.00,0.0266
1095.00,0.0268
1094.00,0.0270
1093.00,0.0272
1092.00,0.0274
1091.00,0.0276
1090.00,0.0278
1089.00,0.0280
1088.00,0.0283
1087.00,0.0286
1086.00,0.0288
1085.00,0.0291
1084.00,0.0293
1083.00,0.0295
1082.00,0.0297
1081.00,0.0298
1080.00,0.0299
1079.00,0.0300
1078.00,0.0300
1077.00,0.0299
1076.00,0.0299
1075.00,0.0298
1074.00,0.0296
1073.00,0.0295
1072.00,0.0294
1071.00,0.0293
1070.00,0.0292
1069.00,0.0291
1068.00,0.0291
1067.00,0.0291
1066.00,0.0290
1065.00,0.0290
1064.00,0.0291
1063.00,0.0291
1062.00,0.0292
1061.00,0.0293
1060.00,0.0294
1059.00,0.0295
1058.00,0.0296
1057.00,0.0298
1056.00,0.0299
1055.00,0.0299
1054.00,0.0300
1053.00,0.0301
1052.00,0.0301
1051.00,0.0301
1050.00,0.0301
1049.00,0.0301
1048.00,0.0301
1047.00,0.0301
1046.00,0.0300
1045.00,0.0300
1044.00,0.0299
1043.00,0.0298
1042.00,0.0297
1041.00,0.0297
1040.00,0.0297
1039.00,0.0296
1038.00,0.0296
1037.00,0.0296
1036.00,0.0296
1035.00,0.0296
1034.00,0.0296
1033.00,0.0296
1032.00,0.0296
1031.00,0.0295
1030.00,0.0295
1029.00,0.0296
1028.00,0.0296
1027.00,0.0297
1026.00,0.0297
1025.00,0.0296
1024.00,0.0295
1023.00,0.0294
1022.00,0.0293
1021.00,0.0291
1020.00,0.0290
1019.00,0.0288
1018.00,0.0286
1017.00,0.0283
1016.00,0.0280
1015.00,0.0277
1014.00,0.0274
1013.00,0.0271
1012.00,0.0268
1011.00,0.0265
1010.00,0.0262
1009.00,0.0260
1008.00,0.0257
1007.00,0.0255
1006.00,0.0253
1005.00,0.0251
1004.00,0.0250
1003.00,0.0248
1002.00,0.0246
1001.00,0.0244
1000.00,0.0242
999.00,0.0239
998.00,0.0237
997.00,0.0234
996.00,0.0231
995.00,0.0229
994.00,0.0226
993.00,0.0224
992.00,0.0221
991.00,0.0218
990.00,0.0216
989.00,0.0213
988.00,0.0210
987.00,0.0207
986.00,0.0204
985.00,0.0202
984.00,0.0200
983.00,0.0198
982.00,0.0196
981.00,0.0194
980.00,0.0193
979.00,0.0192
978.00,0.0191
977.00,0.0191
976.00,0.0191
975.00,0.0192
974.00,0.0192
973.00,0.0192
972.00,0.0192
971.00,0.0193
970.00,0.0193
969.00,0.0193
968.00,0.0193
967.00,0.0194
966.00,0.0194
965.00,0.0194
964.00,0.0194
963.00,0.0194
962.00,0.0193
961.00,0.0193
960.00,0.0192
959.00,0.0191
958.00,0.0190
957.00,0.0189
956.00,0.0188
955.00,0.0187
954.00,0.0186
953.00,0.0186
952.00,0.0185
951.00,0.0184
950.00,0.0183
949.00,0.0182
948.00,0.0181
947.00,0.0180
946.00,0.0180
945.00,0.0179
944.00,0.0180
943.00,0.0180
942.00,0.0181
941.00,0.0181
940.00,0.0182
939.00,0.0183
938.00,0.0184
937.00,0.0185
936.00,0.0186
935.00,0.0187
934.00,0.0188
933.00,0.0188
932.00,0.0188
931.00,0.0188
930.00,0.0188
929.00,0.0187
928.00,0.0187
927.00,0.0187
926.00,0.0187
925.00,0.0186
924.00,0.0186
923.00,0.0185
922.00,0.0184
921.00,0.0184
920.00,0.0183
919.00,0.0182
918.00,0.0181
917.00,0.0180
916.00,0.0179
915.00,0.0178
914.00,0.0177
913.00,0.0176
912.00,0.0175
911.00,0.0174
910.00,0.0173
909.00,0.0173
908.00,0.0172
907.00,0.0172
906.00,0.0171
905.00,0.0170
904.00,0.0170
903.00,0.0170
902.00,0.0170
901.00,0.0171
900.00,0.0171
899.00,0.0172
898.00,0.0172
897.00,0.0172
896.00,0.0173
895.00,0.0173
894.00,0.0173
893.00,0.0172
892.00,0.0172
891.00,0.0172
890.00,0.0171
889.00,0.0171
888.00,0.0171
887.00,0.0171
886.00,0.0172
885.00,0.0172
884.00,0.0172
883.00,0.0173
882.00,0.0172
881.00,0.0172
880.00,0.0172
879.00,0.0171
878.00,0.0170
877.00,0.0169
876.00,0.0169
875.00,0.0169
874.00,0.0168
873.00,0.0168
872.00,0.0168
871.00,0.0169
870.00,0.0169
869.00,0.0170
868.00,0.0170
867.00,0.0171
866.00,0.0171
865.00,0.0172
864.00,0.0173
863.00,0.0174
862.00,0.0174
861.00,0.0175
860.00,0.0176
859.00,0.0177
858.00,0.0178
857.00,0.0178
856.00,0.0179
855.00,0.0180
854.00,0.0181
853.00,0.0182
852.00,0.0184
851.00,0.0185
850.00,0.0185
849.00,0.0186
848.00,0.0186
847.00,0.0187
846.00,0.0187
845.00,0.0187
844.00,0.0188
843.00,0.0188
842.00,0.0188
841.00,0.0190
840.00,0.0191
839.00,0.0192
838.00,0.0194
837.00,0.0194
836.00,0.0195
835.00,0.0196
834.00,0.0196
833.00,0.0197
832.00,0.0197
831.00,0.0198
830.00,0.0199
829.00,0.0199
828.00,0.0199
827.00,0.0200
826.00,0.0200
825.00,0.0200
824.00,0.0200
823.00,0.0201
822.00,0.0201
821.00,0.0201
820.00,0.0201
819.00,0.0201
818.00,0.0202
817.00,0.0202
816.00,0.0203
815.00,0.0203
814.00,0.0204
813.00,0.0204
812.00,0.0205
811.00,0.0206
810.00,0.0206
809.00,0.0207
808.00,0.0208
807.00,0.0208
806.00,0.0209
805.00,0.0210
804.00,0.0211
803.00,0.0213
802.00,0.0214
801.00,0.0214
800.00,0.0215
799.00,0.0216
798.00,0.0217
797.00,0.0219
796.00,0.0220
795.00,0.0221
794.00,0.0223
793.00,0.0224
792.00,0.0226
791.00,0.0228
790.00,0.0230
789.00,0.0232
788.00,0.0233
787.00,0.0235
786.00,0.0237
785.00,0.0239
784.00,0.0241
783.00,0.0242
782.00,0.0244
781.00,0.0245
780.00,0.0246
779.00,0.0247
778.00,0.0247
777.00,0.0246
776.00,0.0245
775.00,0.0245
774.00,0.0244
773.00,0.0243
772.00,0.0243
771.00,0.0243
770.00,0.0244
769.00,0.0246
768.00,0.0248
767.00,0.0249
766.00,0.0250
765.00,0.0251
764.00,0.0251
763.00,0.0252
762.00,0.0253
761.00,0.0254
760.00,0.0254
759.00,0.0256
758.00,0.0257
757.00,0.0259
756.00,0.0260
755.00,0.0262
754.00,0.0262
753.00,0.0263
752.00,0.0264
751.00,0.0265
750.00,0.0267
749.00,0.0269
748.00,0.0271
747.00,0.0272
746.00,0.0274
745.00,0.0275
744.00,0.0277
743.00,0.0278
742.00,0.0280
741.00,0.0281
740.00,0.0282
739.00,0.0282
738.00,0.0283
737.00,0.0284
736.00,0.0285
735.00,0.0286
734.00,0.0287
733.00,0.0288
732.00,0.0289
731.00,0.0291
730.00,0.0292
729.00,0.0293
728.00,0.0295
727.00,0.0296
726.00,0.0297
725.00,0.0298
724.00,0.0300
723.00,0.0301
722.00,0.0303
721.00,0.0305
720.00,0.0307
719.00,0.0308
718.00,0.0310
717.00,0.0312
716.00,0.0314
715.00,0.0316
714.00,0.0318
713.00,0.0319
712.00,0.0321
711.00,0.0323
710.00,0.0325
709.00,0.0327
708.00,0.0330
707.00,0.0333
706.00,0.0336
705.00,0.0339
704.00,0.0342
703.00,0.0344
702.00,0.0345
701.00,0.0347
700.00,0.0349
699.00,0.0350
698.00,0.0352
697.00,0.0354
696.00,0.0355
695.00,0.0356
694.00,0.0356
693.00,0.0356
692.00,0.0356
691.00,0.0356
690.00,0.0356
689.00,0.0358
688.00,0.0359
687.00,0.0360
686.00,0.0361
685.00,0.0362
684.00,0.0363
683.00,0.0364
682.00,0.0365
681.00,0.0366
680.00,0.0367
679.00,0.0368
678.00,0.0369
677.00,0.0371
676.00,0.0373
675.00,0.0374
674.00,0.0376
673.00,0.0378
672.00,0.0380
671.00,0.0383
670.00,0.0386
669.00,0.0388
668.00,0.0388
667.00,0.0388
666.00,0.0388
665.00,0.0390
664.00,0.0393
663.00,0.0395
662.00,0.0397
661.00,0.0399
660.00,0.0401
659.00,0.0402
658.00,0.0403
657.00,0.0404
656.00,0.0405
655.00,0.0406
654.00,0.0408
653.00,0.0409
652.00,0.0410
651.00,0.0411
650.00,0.0412
649.00,0.0413
648.00,0.0414
647.00,0.0414
646.00,0.0414
645.00,0.0415
644.00,0.0416
643.00,0.0417
642.00,0.0417
641.00,0.0418
640.00,0.0418
639.00,0.0418
638.00,0.0418
637.00,0.0418
636.00,0.0419
635.00,0.0419
634.00,0.0420
633.00,0.0421
632.00,0.0422
631.00,0.0422
630.00,0.0423
629.00,0.0423
628.00,0.0425
627.00,0.0426
626.00,0.0428
625.00,0.0429
624.00,0.0431
623.00,0.0432
622.00,0.0433
621.00,0.0435
620.00,0.0437
619.00,0.0439
618.00,0.0440
617.00,0.0441
616.00,0.0441
615.00,0.0441
614.00,0.0441
613.00,0.0442
612.00,0.0443
611.00,0.0444
610.00,0.0445
609.00,0.0446
608.00,0.0448
607.00,0.0449
606.00,0.0450
605.00,0.0451
604.00,0.0452
603.00,0.0454
602.00,0.0457
601.00,0.0459
600.00,0.0461
599.00,0.0462
598.00,0.0463
597.00,0.0465
596.00,0.0467
595.00,0.0469
594.00,0.0470
593.00,0.0473
592.00,0.0475
591.00,0.0478
590.00,0.0479
589.00,0.0481
588.00,0.0482
587.00,0.0484
586.00,0.0485
585.00,0.0486
584.00,0.0488
583.00,0.0489
582.00,0.0490
581.00,0.0491
580.00,0.0493
579.00,0.0494
578.00,0.0495
577.00,0.0496
576.00,0.0498
575.00,0.0500
574.00,0.0501
573.00,0.0502
572.00,0.0503
571.00,0.0502
570.00,0.0502
569.00,0.0500
568.00,0.0499
567.00,0.0499
566.00,0.0500
565.00,0.0501
564.00,0.0503
563.00,0.0503
562.00,0.0502
561.00,0.0501
560.00,0.0501
559.00,0.0501
558.00,0.0501
557.00,0.0503
556.00,0.0505
555.00,0.0507
554.00,0.0509
553.00,0.0510
552.00,0.0510
551.00,0.0511
550.00,0.0512
549.00,0.0512
548.00,0.0513
547.00,0.0514
546.00,0.0514
545.00,0.0515
544.00,0.0517
543.00,0.0519
542.00,0.0521
541.00,0.0524
540.00,0.0526
539.00,0.0528
538.00,0.0528
537.00,0.0529
536.00,0.0529
535.00,0.0530
534.00,0.0530
533.00,0.0531
532.00,0.0532
531.00,0.0534
530.00,0.0536
529.00,0.0538
528.00,0.0538
527.00,0.0538
526.00,0.0538
525.00,0.0539
524.00,0.0541
523.00,0.0543
522.00,0.0545
521.00,0.0546
520.00,0.0547
519.00,0.0547
518.00,0.0546
517.00,0.0545
516.00,0.0544
515.00,0.0543
514.00,0.0542
513.00,0.0540
512.00,0.0539
511.00,0.0540
510.00,0.0540
509.00,0.0541
508.00,0.0541
507.00,0.0540
506.00,0.0538
505.00,0.0537
504.00,0.0536
503.00,0.0537
502.00,0.0538
501.00,0.0539
500.00,0.0539
499.00,0.0539
498.00,0.0537
497.00,0.0535
496.00,0.0534
495.00,0.0533
494.00,0.0534
493.00,0.0536
492.00,0.0540
491.00,0.0542
490.00,0.0542
489.00,0.0540
488.00,0.0537
487.00,0.0535
486.00,0.0533
485.00,0.0533
484.00,0.0534
483.00,0.0536
482.00,0.0537
481.00,0.0536
480.00,0.0534
479.00,0.0531
478.00,0.0530
477.00,0.0531
476.00,0.0532
475.00,0.0533
474.00,0.0532
473.00,0.0532
472.00,0.0533
471.00,0.0535
470.00,0.0537
469.00,0.0538
468.00,0.0537
467.00,0.0536
466.00,0.0535
465.00,0.0536
464.00,0.0537
463.00,0.0536
462.00,0.0533
461.00,0.0529
460.00,0.0527
459.00,0.0526
458.00,0.0525
457.00,0.0525
456.00,0.0525
455.00,0.0525
454.00,0.0524
453.00,0.0525
452.00,0.0525
451.00,0.0525
450.00,0.0524
449.00,0.0522
448.00,0.0519
447.00,0.0515
446.00,0.0512
445.00,0.0511
444.00,0.0511
443.00,0.0511
442.00,0.0511
441.00,0.0509
440.00,0.0507
439.00,0.0506
438.00,0.0507
437.00,0.0509
436.00,0.0513
435.00,0.0514
434.00,0.0514
433.00,0.0515
432.00,0.0516
431.00,0.0517
430.00,0.0514
429.00,0.0508
428.00,0.0505
427.00,0.0504
426.00,0.0505
425.00,0.0510
424.00,0.0514
423.00,0.0516
422.00,0.0515
421.00,0.0512
420.00,0.0508
419.00,0.0503
418.00,0.0499
417.00,0.0498
416.00,0.0499
415.00,0.0499
414.00,0.0499
413.00,0.0502
412.00,0.0507
411.00,0.0512
410.00,0.0514
409.00,0.0514
408.00,0.0512
407.00,0.0509
406.00,0.0506
405.00,0.0506
404.00,0.0505
403.00,0.0500
402.00,0.0492
401.00,0.0488
400.00,0.0492
