Created as New Dataset,Sample 735 By YargerLab Date Thursday, June 26 2025
cm-1,A
4000.00,0.0005
3999.00,0.0005
3998.00,0.0005
3997.00,0.0005
3996.00,0.0005
3995.00,0.0005
3994.00,0.0005
3993.00,0.0005
3992.00,0.0005
3991.00,0.0005
3990.00,0.0005
3989.00,0.0005
3988.00,0.0005
3987.00,0.0005
3986.00,0.0005
3985.00,0.0005
3984.00,0.0005
3983.00,0.0005
3982.00,0.0005
3981.00,0.0005
3980.00,0.0005
3979.00,0.0005
3978.00,0.0005
3977.00,0.0005
3976.00,0.0005
3975.00,0.0005
3974.00,0.0005
3973.00,0.0005
3972.00,0.0005
3971.00,0.0005
3970.00,0.0005
3969.00,0.0005
3968.00,0.0005
3967.00,0.0005
3966.00,0.0005
3965.00,0.0005
3964.00,0.0005
3963.00,0.0005
3962.00,0.0005
3961.00,0.0005
3960.00,0.0004
3959.00,0.0004
3958.00,0.0004
3957.00,0.0004
3956.00,0.0004
3955.00,0.0004
3954.00,0.0004
3953.00,0.0004
3952.00,0.0005
3951.00,0.0005
3950.00,0.0005
3949.00,0.0005
3948.00,0.0005
3947.00,0.0005
3946.00,0.0004
3945.00,0.0004
3944.00,0.0004
3943.00,0.0004
3942.00,0.0005
3941.00,0.0005
3940.00,0.0005
3939.00,0.0005
3938.00,0.0005
3937.00,0.0005
3936.00,0.0005
3935.00,0.0005
3934.00,0.0005
3933.00,0.0004
3932.00,0.0004
3931.00,0.0004
3930.00,0.0005
3929.00,0.0005
3928.00,0.0005
3927.00,0.0005
3926.00,0.0004
3925.00,0.0004
3924.00,0.0004
3923.00,0.0004
3922.00,0.0004
3921.00,0.0004
3920.00,0.0004
3919.00,0.0004
3918.00,0.0004
3917.00,0.0004
3916.00,0.0004
3915.00,0.0004
3914.00,0.0004
3913.00,0.0004
3912.00,0.0004
3911.00,0.0004
3910.00,0.0004
3909.00,0.0004
3908.00,0.0004
3907.00,0.0004
3906.00,0.0004
3905.00,0.0004
3904.00,0.0004
3903.00,0.0003
3902.00,0.0003
3901.00,0.0003
3900.00,0.0003
3899.00,0.0003
3898.00,0.0004
3897.00,0.0004
3896.00,0.0004
3895.00,0.0004
3894.00,0.0004
3893.00,0.0004
3892.00,0.0004
3891.00,0.0004
3890.00,0.0004
3889.00,0.0004
3888.00,0.0003
3887.00,0.0003
3886.00,0.0003
3885.00,0.0003
3884.00,0.0003
3883.00,0.0003
3882.00,0.0003
3881.00,0.0003
3880.00,0.0003
3879.00,0.0004
3878.00,0.0004
3877.00,0.0004
3876.00,0.0004
3875.00,0.0004
3874.00,0.0004
3873.00,0.0004
3872.00,0.0004
3871.00,0.0004
3870.00,0.0004
3869.00,0.0004
3868.00,0.0004
3867.00,0.0003
3866.00,0.0003
3865.00,0.0003
3864.00,0.0004
3863.00,0.0004
3862.00,0.0004
3861.00,0.0003
3860.00,0.0003
3859.00,0.0003
3858.00,0.0003
3857.00,0.0002
3856.00,0.0002
3855.00,0.0002
3854.00,0.0002
3853.00,0.0002
3852.00,0.0002
3851.00,0.0002
3850.00,0.0003
3849.00,0.0003
3848.00,0.0004
3847.00,0.0004
3846.00,0.0004
3845.00,0.0004
3844.00,0.0004
3843.00,0.0004
3842.00,0.0004
3841.00,0.0003
3840.00,0.0003
3839.00,0.0003
3838.00,0.0003
3837.00,0.0004
3836.00,0.0004
3835.00,0.0004
3834.00,0.0004
3833.00,0.0004
3832.00,0.0004
3831.00,0.0004
3830.00,0.0004
3829.00,0.0004
3828.00,0.0004
3827.00,0.0004
3826.00,0.0004
3825.00,0.0004
3824.00,0.0003
3823.00,0.0003
3822.00,0.0003
3821.00,0.0003
3820.00,0.0003
3819.00,0.0003
3818.00,0.0003
3817.00,0.0003
3816.00,0.0003
3815.00,0.0004
3814.00,0.0004
3813.00,0.0004
3812.00,0.0004
3811.00,0.0004
3810.00,0.0004
3809.00,0.0004
3808.00,0.0004
3807.00,0.0004
3806.00,0.0004
3805.00,0.0003
3804.00,0.0003
3803.00,0.0003
3802.00,0.0003
3801.00,0.0004
3800.00,0.0004
3799.00,0.0004
3798.00,0.0004
3797.00,0.0004
3796.00,0.0004
3795.00,0.0004
3794.00,0.0005
3793.00,0.0005
3792.00,0.0005
3791.00,0.0005
3790.00,0.0005
3789.00,0.0005
3788.00,0.0005
3787.00,0.0005
3786.00,0.0005
3785.00,0.0005
3784.00,0.0005
3783.00,0.0005
3782.00,0.0005
3781.00,0.0005
3780.00,0.0005
3779.00,0.0005
3778.00,0.0005
3777.00,0.0005
3776.00,0.0005
3775.00,0.0005
3774.00,0.0005
3773.00,0.0005
3772.00,0.0005
3771.00,0.0005
3770.00,0.0005
3769.00,0.0005
3768.00,0.0005
3767.00,0.0005
3766.00,0.0004
3765.00,0.0004
3764.00,0.0005
3763.00,0.0005
3762.00,0.0005
3761.00,0.0005
3760.00,0.0005
3759.00,0.0005
3758.00,0.0005
3757.00,0.0004
3756.00,0.0004
3755.00,0.0004
3754.00,0.0003
3753.00,0.0003
3752.00,0.0002
3751.00,0.0003
3750.00,0.0003
3749.00,0.0003
3748.00,0.0003
3747.00,0.0003
3746.00,0.0003
3745.00,0.0003
3744.00,0.0003
3743.00,0.0003
3742.00,0.0003
3741.00,0.0003
3740.00,0.0003
3739.00,0.0003
3738.00,0.0003
3737.00,0.0003
3736.00,0.0003
3735.00,0.0003
3734.00,0.0003
3733.00,0.0003
3732.00,0.0003
3731.00,0.0004
3730.00,0.0004
3729.00,0.0004
3728.00,0.0004
3727.00,0.0004
3726.00,0.0004
3725.00,0.0004
3724.00,0.0004
3723.00,0.0004
3722.00,0.0005
3721.00,0.0005
3720.00,0.0005
3719.00,0.0004
3718.00,0.0004
3717.00,0.0004
3716.00,0.0004
3715.00,0.0004
3714.00,0.0004
3713.00,0.0004
3712.00,0.0004
3711.00,0.0005
3710.00,0.0005
3709.00,0.0005
3708.00,0.0005
3707.00,0.0005
3706.00,0.0005
3705.00,0.0005
3704.00,0.0005
3703.00,0.0005
3702.00,0.0005
3701.00,0.0005
3700.00,0.0005
3699.00,0.0005
3698.00,0.0005
3697.00,0.0005
3696.00,0.0005
3695.00,0.0005
3694.00,0.0005
3693.00,0.0004
3692.00,0.0004
3691.00,0.0004
3690.00,0.0004
3689.00,0.0004
3688.00,0.0004
3687.00,0.0005
3686.00,0.0005
3685.00,0.0006
3684.00,0.0006
3683.00,0.0007
3682.00,0.0007
3681.00,0.0007
3680.00,0.0007
3679.00,0.0006
3678.00,0.0006
3677.00,0.0006
3676.00,0.0005
3675.00,0.0006
3674.00,0.0006
3673.00,0.0006
3672.00,0.0006
3671.00,0.0007
3670.00,0.0007
3669.00,0.0008
3668.00,0.0008
3667.00,0.0008
3666.00,0.0009
3665.00,0.0009
3664.00,0.0010
3663.00,0.0010
3662.00,0.0010
3661.00,0.0010
3660.00,0.0010
3659.00,0.0011
3658.00,0.0011
3657.00,0.0011
3656.00,0.0011
3655.00,0.0012
3654.00,0.0012
3653.00,0.0012
3652.00,0.0012
3651.00,0.0012
3650.00,0.0013
3649.00,0.0013
3648.00,0.0013
3647.00,0.0013
3646.00,0.0014
3645.00,0.0014
3644.00,0.0015
3643.00,0.0016
3642.00,0.0016
3641.00,0.0017
3640.00,0.0017
3639.00,0.0017
3638.00,0.0017
3637.00,0.0018
3636.00,0.0018
3635.00,0.0018
3634.00,0.0018
3633.00,0.0019
3632.00,0.0019
3631.00,0.0020
3630.00,0.0020
3629.00,0.0021
3628.00,0.0021
3627.00,0.0021
3626.00,0.0021
3625.00,0.0022
3624.00,0.0022
3623.00,0.0023
3622.00,0.0024
3621.00,0.0024
3620.00,0.0025
3619.00,0.0025
3618.00,0.0025
3617.00,0.0025
3616.00,0.0026
3615.00,0.0026
3614.00,0.0027
3613.00,0.0027
3612.00,0.0028
3611.00,0.0028
3610.00,0.0028
3609.00,0.0029
3608.00,0.0029
3607.00,0.0030
3606.00,0.0030
3605.00,0.0031
3604.00,0.0032
3603.00,0.0032
3602.00,0.0033
3601.00,0.0033
3600.00,0.0034
3599.00,0.0035
3598.00,0.0035
3597.00,0.0036
3596.00,0.0036
3595.00,0.0036
3594.00,0.0037
3593.00,0.0037
3592.00,0.0037
3591.00,0.0038
3590.00,0.0038
3589.00,0.0038
3588.00,0.0038
3587.00,0.0039
3586.00,0.0039
3585.00,0.0040
3584.00,0.0040
3583.00,0.0041
3582.00,0.0042
3581.00,0.0043
3580.00,0.0043
3579.00,0.0044
3578.00,0.0044
3577.00,0.0045
3576.00,0.0045
3575.00,0.0046
3574.00,0.0046
3573.00,0.0047
3572.00,0.0047
3571.00,0.0048
3570.00,0.0049
3569.00,0.0049
3568.00,0.0049
3567.00,0.0049
3566.00,0.0049
3565.00,0.0050
3564.00,0.0050
3563.00,0.0051
3562.00,0.0052
3561.00,0.0053
3560.00,0.0054
3559.00,0.0055
3558.00,0.0055
3557.00,0.0056
3556.00,0.0056
3555.00,0.0057
3554.00,0.0057
3553.00,0.0057
3552.00,0.0058
3551.00,0.0058
3550.00,0.0059
3549.00,0.0060
3548.00,0.0060
3547.00,0.0061
3546.00,0.0061
3545.00,0.0062
3544.00,0.0062
3543.00,0.0062
3542.00,0.0063
3541.00,0.0064
3540.00,0.0064
3539.00,0.0065
3538.00,0.0066
3537.00,0.0066
3536.00,0.0066
3535.00,0.0067
3534.00,0.0067
3533.00,0.0068
3532.00,0.0068
3531.00,0.0069
3530.00,0.0069
3529.00,0.0070
3528.00,0.0070
3527.00,0.0071
3526.00,0.0072
3525.00,0.0072
3524.00,0.0073
3523.00,0.0073
3522.00,0.0074
3521.00,0.0074
3520.00,0.0074
3519.00,0.0075
3518.00,0.0075
3517.00,0.0076
3516.00,0.0076
3515.00,0.0077
3514.00,0.0078
3513.00,0.0078
3512.00,0.0079
3511.00,0.0079
3510.00,0.0079
3509.00,0.0079
3508.00,0.0080
3507.00,0.0080
3506.00,0.0081
3505.00,0.0082
3504.00,0.0082
3503.00,0.0083
3502.00,0.0083
3501.00,0.0083
3500.00,0.0084
3499.00,0.0085
3498.00,0.0085
3497.00,0.0086
3496.00,0.0086
3495.00,0.0087
3494.00,0.0088
3493.00,0.0088
3492.00,0.0089
3491.00,0.0089
3490.00,0.0090
3489.00,0.0090
3488.00,0.0091
3487.00,0.0092
3486.00,0.0092
3485.00,0.0093
3484.00,0.0094
3483.00,0.0094
3482.00,0.0095
3481.00,0.0095
3480.00,0.0096
3479.00,0.0096
3478.00,0.0097
3477.00,0.0097
3476.00,0.0098
3475.00,0.0098
3474.00,0.0099
3473.00,0.0099
3472.00,0.0100
3471.00,0.0100
3470.00,0.0101
3469.00,0.0102
3468.00,0.0102
3467.00,0.0103
3466.00,0.0103
3465.00,0.0104
3464.00,0.0104
3463.00,0.0105
3462.00,0.0105
3461.00,0.0106
3460.00,0.0106
3459.00,0.0107
3458.00,0.0107
3457.00,0.0108
3456.00,0.0108
3455.00,0.0109
3454.00,0.0110
3453.00,0.0110
3452.00,0.0111
3451.00,0.0111
3450.00,0.0112
3449.00,0.0112
3448.00,0.0113
3447.00,0.0113
3446.00,0.0114
3445.00,0.0114
3444.00,0.0115
3443.00,0.0116
3442.00,0.0116
3441.00,0.0117
3440.00,0.0118
3439.00,0.0118
3438.00,0.0119
3437.00,0.0120
3436.00,0.0120
3435.00,0.0121
3434.00,0.0122
3433.00,0.0122
3432.00,0.0123
3431.00,0.0123
3430.00,0.0124
3429.00,0.0125
3428.00,0.0125
3427.00,0.0126
3426.00,0.0126
3425.00,0.0127
3424.00,0.0127
3423.00,0.0128
3422.00,0.0128
3421.00,0.0129
3420.00,0.0129
3419.00,0.0130
3418.00,0.0131
3417.00,0.0132
3416.00,0.0132
3415.00,0.0132
3414.00,0.0133
3413.00,0.0134
3412.00,0.0135
3411.00,0.0136
3410.00,0.0136
3409.00,0.0137
3408.00,0.0137
3407.00,0.0138
3406.00,0.0138
3405.00,0.0139
3404.00,0.0139
3403.00,0.0140
3402.00,0.0140
3401.00,0.0141
3400.00,0.0142
3399.00,0.0142
3398.00,0.0143
3397.00,0.0144
3396.00,0.0144
3395.00,0.0145
3394.00,0.0145
3393.00,0.0146
3392.00,0.0146
3391.00,0.0146
3390.00,0.0147
3389.00,0.0147
3388.00,0.0148
3387.00,0.0149
3386.00,0.0150
3385.00,0.0151
3384.00,0.0151
3383.00,0.0152
3382.00,0.0153
3381.00,0.0154
3380.00,0.0155
3379.00,0.0155
3378.00,0.0156
3377.00,0.0157
3376.00,0.0157
3375.00,0.0158
3374.00,0.0159
3373.00,0.0160
3372.00,0.0160
3371.00,0.0161
3370.00,0.0162
3369.00,0.0163
3368.00,0.0163
3367.00,0.0164
3366.00,0.0165
3365.00,0.0166
3364.00,0.0167
3363.00,0.0168
3362.00,0.0169
3361.00,0.0170
3360.00,0.0170
3359.00,0.0171
3358.00,0.0172
3357.00,0.0174
3356.00,0.0175
3355.00,0.0176
3354.00,0.0177
3353.00,0.0177
3352.00,0.0178
3351.00,0.0179
3350.00,0.0180
3349.00,0.0181
3348.00,0.0182
3347.00,0.0183
3346.00,0.0184
3345.00,0.0185
3344.00,0.0187
3343.00,0.0188
3342.00,0.0189
3341.00,0.0190
3340.00,0.0191
3339.00,0.0192
3338.00,0.0193
3337.00,0.0194
3336.00,0.0195
3335.00,0.0197
3334.00,0.0198
3333.00,0.0200
3332.00,0.0201
3331.00,0.0202
3330.00,0.0204
3329.00,0.0205
3328.00,0.0206
3327.00,0.0207
3326.00,0.0209
3325.00,0.0210
3324.00,0.0212
3323.00,0.0213
3322.00,0.0215
3321.00,0.0216
3320.00,0.0218
3319.00,0.0219
3318.00,0.0221
3317.00,0.0223
3316.00,0.0225
3315.00,0.0227
3314.00,0.0228
3313.00,0.0230
3312.00,0.0232
3311.00,0.0233
3310.00,0.0235
3309.00,0.0236
3308.00,0.0238
3307.00,0.0240
3306.00,0.0242
3305.00,0.0243
3304.00,0.0245
3303.00,0.0247
3302.00,0.0249
3301.00,0.0251
3300.00,0.0253
3299.00,0.0255
3298.00,0.0256
3297.00,0.0258
3296.00,0.0260
3295.00,0.0261
3294.00,0.0263
3293.00,0.0265
3292.00,0.0267
3291.00,0.0269
3290.00,0.0271
3289.00,0.0272
3288.00,0.0274
3287.00,0.0275
3286.00,0.0277
3285.00,0.0278
3284.00,0.0279
3283.00,0.0281
3282.00,0.0282
3281.00,0.0283
3280.00,0.0284
3279.00,0.0284
3278.00,0.0285
3277.00,0.0286
3276.00,0.0286
3275.00,0.0287
3274.00,0.0287
3273.00,0.0286
3272.00,0.0286
3271.00,0.0286
3270.00,0.0285
3269.00,0.0285
3268.00,0.0285
3267.00,0.0284
3266.00,0.0283
3265.00,0.0282
3264.00,0.0281
3263.00,0.0280
3262.00,0.0278
3261.00,0.0277
3260.00,0.0275
3259.00,0.0274
3258.00,0.0272
3257.00,0.0271
3256.00,0.0269
3255.00,0.0267
3254.00,0.0266
3253.00,0.0264
3252.00,0.0262
3251.00,0.0260
3250.00,0.0258
3249.00,0.0257
3248.00,0.0255
3247.00,0.0254
3246.00,0.0252
3245.00,0.0251
3244.00,0.0249
3243.00,0.0248
3242.00,0.0246
3241.00,0.0245
3240.00,0.0243
3239.00,0.0241
3238.00,0.0239
3237.00,0.0237
3236.00,0.0235
3235.00,0.0234
3234.00,0.0232
3233.00,0.0231
3232.00,0.0230
3231.00,0.0229
3230.00,0.0228
3229.00,0.0226
3228.00,0.0225
3227.00,0.0224
3226.00,0.0223
3225.00,0.0222
3224.00,0.0221
3223.00,0.0220
3222.00,0.0218
3221.00,0.0217
3220.00,0.0216
3219.00,0.0214
3218.00,0.0213
3217.00,0.0212
3216.00,0.0211
3215.00,0.0210
3214.00,0.0209
3213.00,0.0208
3212.00,0.0207
3211.00,0.0206
3210.00,0.0205
3209.00,0.0204
3208.00,0.0204
3207.00,0.0203
3206.00,0.0202
3205.00,0.0201
3204.00,0.0200
3203.00,0.0199
3202.00,0.0197
3201.00,0.0197
3200.00,0.0196
3199.00,0.0195
3198.00,0.0194
3197.00,0.0192
3196.00,0.0191
3195.00,0.0191
3194.00,0.0190
3193.00,0.0189
3192.00,0.0188
3191.00,0.0187
3190.00,0.0186
3189.00,0.0185
3188.00,0.0184
3187.00,0.0183
3186.00,0.0182
3185.00,0.0181
3184.00,0.0180
3183.00,0.0179
3182.00,0.0178
3181.00,0.0178
3180.00,0.0177
3179.00,0.0176
3178.00,0.0175
3177.00,0.0174
3176.00,0.0173
3175.00,0.0172
3174.00,0.0171
3173.00,0.0170
3172.00,0.0169
3171.00,0.0168
3170.00,0.0167
3169.00,0.0166
3168.00,0.0166
3167.00,0.0165
3166.00,0.0164
3165.00,0.0163
3164.00,0.0163
3163.00,0.0162
3162.00,0.0161
3161.00,0.0160
3160.00,0.0159
3159.00,0.0158
3158.00,0.0158
3157.00,0.0157
3156.00,0.0156
3155.00,0.0155
3154.00,0.0154
3153.00,0.0154
3152.00,0.0153
3151.00,0.0153
3150.00,0.0152
3149.00,0.0151
3148.00,0.0151
3147.00,0.0151
3146.00,0.0150
3145.00,0.0149
3144.00,0.0148
3143.00,0.0147
3142.00,0.0146
3141.00,0.0146
3140.00,0.0146
3139.00,0.0145
3138.00,0.0145
3137.00,0.0145
3136.00,0.0145
3135.00,0.0144
3134.00,0.0144
3133.00,0.0143
3132.00,0.0143
3131.00,0.0142
3130.00,0.0142
3129.00,0.0142
3128.00,0.0141
3127.00,0.0141
3126.00,0.0141
3125.00,0.0141
3124.00,0.0140
3123.00,0.0140
3122.00,0.0139
3121.00,0.0139
3120.00,0.0139
3119.00,0.0138
3118.00,0.0139
3117.00,0.0139
3116.00,0.0139
3115.00,0.0139
3114.00,0.0139
3113.00,0.0139
3112.00,0.0139
3111.00,0.0140
3110.00,0.0140
3109.00,0.0140
3108.00,0.0140
3107.00,0.0140
3106.00,0.0140
3105.00,0.0140
3104.00,0.0140
3103.00,0.0140
3102.00,0.0141
3101.00,0.0141
3100.00,0.0141
3099.00,0.0141
3098.00,0.0142
3097.00,0.0142
3096.00,0.0143
3095.00,0.0144
3094.00,0.0144
3093.00,0.0144
3092.00,0.0144
3091.00,0.0144
3090.00,0.0144
3089.00,0.0145
3088.00,0.0145
3087.00,0.0145
3086.00,0.0145
3085.00,0.0145
3084.00,0.0145
3083.00,0.0145
3082.00,0.0145
3081.00,0.0145
3080.00,0.0145
3079.00,0.0145
3078.00,0.0145
3077.00,0.0145
3076.00,0.0146
3075.00,0.0146
3074.00,0.0146
3073.00,0.0145
3072.00,0.0145
3071.00,0.0145
3070.00,0.0145
3069.00,0.0144
3068.00,0.0144
3067.00,0.0144
3066.00,0.0143
3065.00,0.0143
3064.00,0.0143
3063.00,0.0142
3062.00,0.0142
3061.00,0.0141
3060.00,0.0141
3059.00,0.0140
3058.00,0.0140
3057.00,0.0139
3056.00,0.0137
3055.00,0.0136
3054.00,0.0136
3053.00,0.0135
3052.00,0.0134
3051.00,0.0134
3050.00,0.0133
3049.00,0.0132
3048.00,0.0132
3047.00,0.0131
3046.00,0.0130
3045.00,0.0130
3044.00,0.0129
3043.00,0.0128
3042.00,0.0127
3041.00,0.0126
3040.00,0.0126
3039.00,0.0126
3038.00,0.0125
3037.00,0.0124
3036.00,0.0124
3035.00,0.0123
3034.00,0.0122
3033.00,0.0122
3032.00,0.0121
3031.00,0.0121
3030.00,0.0120
3029.00,0.0120
3028.00,0.0119
3027.00,0.0119
3026.00,0.0118
3025.00,0.0117
3024.00,0.0116
3023.00,0.0116
3022.00,0.0115
3021.00,0.0115
3020.00,0.0114
3019.00,0.0113
3018.00,0.0113
3017.00,0.0112
3016.00,0.0111
3015.00,0.0111
3014.00,0.0111
3013.00,0.0110
3012.00,0.0109
3011.00,0.0109
3010.00,0.0108
3009.00,0.0108
3008.00,0.0108
3007.00,0.0107
3006.00,0.0107
3005.00,0.0107
3004.00,0.0107
3003.00,0.0106
3002.00,0.0106
3001.00,0.0106
3000.00,0.0106
2999.00,0.0106
2998.00,0.0106
2997.00,0.0106
2996.00,0.0107
2995.00,0.0107
2994.00,0.0108
2993.00,0.0108
2992.00,0.0109
2991.00,0.0109
2990.00,0.0110
2989.00,0.0112
2988.00,0.0113
2987.00,0.0114
2986.00,0.0115
2985.00,0.0116
2984.00,0.0116
2983.00,0.0117
2982.00,0.0118
2981.00,0.0119
2980.00,0.0121
2979.00,0.0123
2978.00,0.0126
2977.00,0.0128
2976.00,0.0130
2975.00,0.0132
2974.00,0.0134
2973.00,0.0136
2972.00,0.0137
2971.00,0.0139
2970.00,0.0141
2969.00,0.0143
2968.00,0.0145
2967.00,0.0146
2966.00,0.0148
2965.00,0.0148
2964.00,0.0149
2963.00,0.0150
2962.00,0.0150
2961.00,0.0151
2960.00,0.0150
2959.00,0.0150
2958.00,0.0149
2957.00,0.0148
2956.00,0.0147
2955.00,0.0146
2954.00,0.0145
2953.00,0.0143
2952.00,0.0142
2951.00,0.0142
2950.00,0.0141
2949.00,0.0140
2948.00,0.0140
2947.00,0.0140
2946.00,0.0141
2945.00,0.0141
2944.00,0.0142
2943.00,0.0143
2942.00,0.0144
2941.00,0.0145
2940.00,0.0146
2939.00,0.0148
2938.00,0.0149
2937.00,0.0150
2936.00,0.0151
2935.00,0.0151
2934.00,0.0152
2933.00,0.0153
2932.00,0.0153
2931.00,0.0153
2930.00,0.0153
2929.00,0.0153
2928.00,0.0152
2927.00,0.0152
2926.00,0.0152
2925.00,0.0151
2924.00,0.0150
2923.00,0.0149
2922.00,0.0148
2921.00,0.0147
2920.00,0.0146
2919.00,0.0144
2918.00,0.0143
2917.00,0.0141
2916.00,0.0140
2915.00,0.0138
2914.00,0.0136
2913.00,0.0134
2912.00,0.0133
2911.00,0.0131
2910.00,0.0129
2909.00,0.0128
2908.00,0.0126
2907.00,0.0125
2906.00,0.0124
2905.00,0.0122
2904.00,0.0121
2903.00,0.0120
2902.00,0.0119
2901.00,0.0118
2900.00,0.0117
2899.00,0.0116
2898.00,0.0115
2897.00,0.0114
2896.00,0.0114
2895.00,0.0113
2894.00,0.0112
2893.00,0.0112
2892.00,0.0111
2891.00,0.0111
2890.00,0.0111
2889.00,0.0110
2888.00,0.0110
2887.00,0.0110
2886.00,0.0110
2885.00,0.0111
2884.00,0.0111
2883.00,0.0112
2882.00,0.0113
2881.00,0.0113
2880.00,0.0114
2879.00,0.0115
2878.00,0.0115
2877.00,0.0116
2876.00,0.0116
2875.00,0.0116
2874.00,0.0116
2873.00,0.0116
2872.00,0.0115
2871.00,0.0114
2870.00,0.0113
2869.00,0.0112
2868.00,0.0110
2867.00,0.0109
2866.00,0.0108
2865.00,0.0107
2864.00,0.0106
2863.00,0.0105
2862.00,0.0104
2861.00,0.0103
2860.00,0.0102
2859.00,0.0102
2858.00,0.0101
2857.00,0.0101
2856.00,0.0100
2855.00,0.0100
2854.00,0.0100
2853.00,0.0099
2852.00,0.0099
2851.00,0.0098
2850.00,0.0097
2849.00,0.0096
2848.00,0.0094
2847.00,0.0092
2846.00,0.0090
2845.00,0.0089
2844.00,0.0088
2843.00,0.0087
2842.00,0.0086
2841.00,0.0085
2840.00,0.0084
2839.00,0.0083
2838.00,0.0082
2837.00,0.0081
2836.00,0.0081
2835.00,0.0080
2834.00,0.0080
2833.00,0.0079
2832.00,0.0079
2831.00,0.0078
2830.00,0.0078
2829.00,0.0078
2828.00,0.0078
2827.00,0.0078
2826.00,0.0077
2825.00,0.0077
2824.00,0.0077
2823.00,0.0076
2822.00,0.0076
2821.00,0.0076
2820.00,0.0075
2819.00,0.0075
2818.00,0.0075
2817.00,0.0075
2816.00,0.0074
2815.00,0.0074
2814.00,0.0074
2813.00,0.0074
2812.00,0.0073
2811.00,0.0073
2810.00,0.0073
2809.00,0.0073
2808.00,0.0072
2807.00,0.0072
2806.00,0.0072
2805.00,0.0072
2804.00,0.0072
2803.00,0.0071
2802.00,0.0071
2801.00,0.0071
2800.00,0.0071
2799.00,0.0070
2798.00,0.0070
2797.00,0.0070
2796.00,0.0070
2795.00,0.0070
2794.00,0.0070
2793.00,0.0070
2792.00,0.0069
2791.00,0.0069
2790.00,0.0068
2789.00,0.0068
2788.00,0.0068
2787.00,0.0067
2786.00,0.0067
2785.00,0.0067
2784.00,0.0067
2783.00,0.0067
2782.00,0.0067
2781.00,0.0067
2780.00,0.0066
2779.00,0.0066
2778.00,0.0066
2777.00,0.0065
2776.00,0.0065
2775.00,0.0065
2774.00,0.0065
2773.00,0.0065
2772.00,0.0064
2771.00,0.0064
2770.00,0.0064
2769.00,0.0063
2768.00,0.0063
2767.00,0.0063
2766.00,0.0063
2765.00,0.0062
2764.00,0.0062
2763.00,0.0062
2762.00,0.0062
2761.00,0.0062
2760.00,0.0061
2759.00,0.0061
2758.00,0.0061
2757.00,0.0060
2756.00,0.0060
2755.00,0.0060
2754.00,0.0060
2753.00,0.0060
2752.00,0.0060
2751.00,0.0059
2750.00,0.0059
2749.00,0.0059
2748.00,0.0059
2747.00,0.0058
2746.00,0.0058
2745.00,0.0058
2744.00,0.0058
2743.00,0.0058
2742.00,0.0058
2741.00,0.0057
2740.00,0.0057
2739.00,0.0057
2738.00,0.0056
2737.00,0.0056
2736.00,0.0056
2735.00,0.0056
2734.00,0.0055
2733.00,0.0055
2732.00,0.0055
2731.00,0.0054
2730.00,0.0054
2729.00,0.0054
2728.00,0.0054
2727.00,0.0054
2726.00,0.0054
2725.00,0.0054
2724.00,0.0053
2723.00,0.0053
2722.00,0.0053
2721.00,0.0052
2720.00,0.0052
2719.00,0.0052
2718.00,0.0052
2717.00,0.0052
2716.00,0.0052
2715.00,0.0051
2714.00,0.0051
2713.00,0.0050
2712.00,0.0050
2711.00,0.0050
2710.00,0.0050
2709.00,0.0050
2708.00,0.0050
2707.00,0.0050
2706.00,0.0050
2705.00,0.0050
2704.00,0.0050
2703.00,0.0050
2702.00,0.0049
2701.00,0.0049
2700.00,0.0049
2699.00,0.0049
2698.00,0.0049
2697.00,0.0049
2696.00,0.0049
2695.00,0.0048
2694.00,0.0048
2693.00,0.0048
2692.00,0.0048
2691.00,0.0048
2690.00,0.0048
2689.00,0.0048
2688.00,0.0048
2687.00,0.0048
2686.00,0.0048
2685.00,0.0048
2684.00,0.0048
2683.00,0.0047
2682.00,0.0047
2681.00,0.0047
2680.00,0.0047
2679.00,0.0047
2678.00,0.0047
2677.00,0.0047
2676.00,0.0047
2675.00,0.0047
2674.00,0.0046
2673.00,0.0046
2672.00,0.0046
2671.00,0.0046
2670.00,0.0047
2669.00,0.0047
2668.00,0.0047
2667.00,0.0047
2666.00,0.0047
2665.00,0.0047
2664.00,0.0048
2663.00,0.0048
2662.00,0.0048
2661.00,0.0048
2660.00,0.0049
2659.00,0.0049
2658.00,0.0049
2657.00,0.0050
2656.00,0.0050
2655.00,0.0050
2654.00,0.0050
2653.00,0.0050
2652.00,0.0050
2651.00,0.0050
2650.00,0.0050
2649.00,0.0049
2648.00,0.0049
2647.00,0.0049
2646.00,0.0049
2645.00,0.0049
2644.00,0.0049
2643.00,0.0049
2642.00,0.0049
2641.00,0.0048
2640.00,0.0048
2639.00,0.0048
2638.00,0.0048
2637.00,0.0048
2636.00,0.0048
2635.00,0.0048
2634.00,0.0048
2633.00,0.0048
2632.00,0.0048
2631.00,0.0047
2630.00,0.0047
2629.00,0.0047
2628.00,0.0047
2627.00,0.0047
2626.00,0.0047
2625.00,0.0046
2624.00,0.0046
2623.00,0.0046
2622.00,0.0046
2621.00,0.0045
2620.00,0.0045
2619.00,0.0045
2618.00,0.0045
2617.00,0.0045
2616.00,0.0044
2615.00,0.0044
2614.00,0.0044
2613.00,0.0044
2612.00,0.0044
2611.00,0.0044
2610.00,0.0044
2609.00,0.0044
2608.00,0.0044
2607.00,0.0044
2606.00,0.0043
2605.00,0.0043
2604.00,0.0043
2603.00,0.0043
2602.00,0.0042
2601.00,0.0042
2600.00,0.0042
2599.00,0.0042
2598.00,0.0041
2597.00,0.0041
2596.00,0.0040
2595.00,0.0040
2594.00,0.0040
2593.00,0.0040
2592.00,0.0040
2591.00,0.0041
2590.00,0.0041
2589.00,0.0041
2588.00,0.0041
2587.00,0.0041
2586.00,0.0040
2585.00,0.0040
2584.00,0.0039
2583.00,0.0039
2582.00,0.0039
2581.00,0.0039
2580.00,0.0038
2579.00,0.0038
2578.00,0.0038
2577.00,0.0038
2576.00,0.0038
2575.00,0.0039
2574.00,0.0039
2573.00,0.0038
2572.00,0.0038
2571.00,0.0038
2570.00,0.0038
2569.00,0.0038
2568.00,0.0037
2567.00,0.0037
2566.00,0.0037
2565.00,0.0037
2564.00,0.0036
2563.00,0.0036
2562.00,0.0036
2561.00,0.0036
2560.00,0.0036
2559.00,0.0036
2558.00,0.0036
2557.00,0.0036
2556.00,0.0036
2555.00,0.0036
2554.00,0.0036
2553.00,0.0036
2552.00,0.0036
2551.00,0.0035
2550.00,0.0035
2549.00,0.0035
2548.00,0.0035
2547.00,0.0035
2546.00,0.0035
2545.00,0.0035
2544.00,0.0034
2543.00,0.0034
2542.00,0.0034
2541.00,0.0034
2540.00,0.0034
2539.00,0.0034
2538.00,0.0034
2537.00,0.0034
2536.00,0.0034
2535.00,0.0034
2534.00,0.0033
2533.00,0.0033
2532.00,0.0033
2531.00,0.0032
2530.00,0.0032
2529.00,0.0032
2528.00,0.0033
2527.00,0.0033
2526.00,0.0033
2525.00,0.0032
2524.00,0.0032
2523.00,0.0032
2522.00,0.0032
2521.00,0.0032
2520.00,0.0032
2519.00,0.0032
2518.00,0.0032
2517.00,0.0032
2516.00,0.0032
2515.00,0.0032
2514.00,0.0032
2513.00,0.0032
2512.00,0.0032
2511.00,0.0032
2510.00,0.0031
2509.00,0.0031
2508.00,0.0031
2507.00,0.0031
2506.00,0.0031
2505.00,0.0030
2504.00,0.0030
2503.00,0.0030
2502.00,0.0030
2501.00,0.0030
2500.00,0.0030
2499.00,0.0030
2498.00,0.0030
2497.00,0.0030
2496.00,0.0030
2495.00,0.0029
2494.00,0.0029
2493.00,0.0029
2492.00,0.0029
2491.00,0.0029
2490.00,0.0029
2489.00,0.0029
2488.00,0.0029
2487.00,0.0028
2486.00,0.0028
2485.00,0.0028
2484.00,0.0028
2483.00,0.0028
2482.00,0.0028
2481.00,0.0028
2480.00,0.0028
2479.00,0.0029
2478.00,0.0029
2477.00,0.0029
2476.00,0.0028
2475.00,0.0028
2474.00,0.0028
2473.00,0.0028
2472.00,0.0028
2471.00,0.0028
2470.00,0.0027
2469.00,0.0027
2468.00,0.0027
2467.00,0.0027
2466.00,0.0027
2465.00,0.0027
2464.00,0.0028
2463.00,0.0028
2462.00,0.0028
2461.00,0.0028
2460.00,0.0028
2459.00,0.0028
2458.00,0.0028
2457.00,0.0028
2456.00,0.0028
2455.00,0.0028
2454.00,0.0027
2453.00,0.0027
2452.00,0.0027
2451.00,0.0027
2450.00,0.0027
2449.00,0.0027
2448.00,0.0026
2447.00,0.0026
2446.00,0.0026
2445.00,0.0026
2444.00,0.0026
2443.00,0.0026
2442.00,0.0026
2441.00,0.0025
2440.00,0.0025
2439.00,0.0025
2438.00,0.0025
2437.00,0.0025
2436.00,0.0025
2435.00,0.0025
2434.00,0.0025
2433.00,0.0024
2432.00,0.0024
2431.00,0.0024
2430.00,0.0024
2429.00,0.0023
2428.00,0.0023
2427.00,0.0023
2426.00,0.0023
2425.00,0.0023
2424.00,0.0023
2423.00,0.0023
2422.00,0.0022
2421.00,0.0022
2420.00,0.0021
2419.00,0.0021
2418.00,0.0021
2417.00,0.0021
2416.00,0.0021
2415.00,0.0021
2414.00,0.0022
2413.00,0.0022
2412.00,0.0022
2411.00,0.0021
2410.00,0.0021
2409.00,0.0020
2408.00,0.0020
2407.00,0.0019
2406.00,0.0019
2405.00,0.0019
2404.00,0.0019
2403.00,0.0019
2402.00,0.0019
2401.00,0.0019
2400.00,0.0019
2399.00,0.0019
2398.00,0.0019
2397.00,0.0019
2396.00,0.0018
2395.00,0.0018
2394.00,0.0018
2393.00,0.0018
2392.00,0.0018
2391.00,0.0017
2390.00,0.0017
2389.00,0.0017
2388.00,0.0017
2387.00,0.0017
2386.00,0.0017
2385.00,0.0016
2384.00,0.0016
2383.00,0.0015
2382.00,0.0015
2381.00,0.0015
2380.00,0.0015
2379.00,0.0015
2378.00,0.0015
2377.00,0.0015
2376.00,0.0015
2375.00,0.0015
2374.00,0.0015
2373.00,0.0015
2372.00,0.0015
2371.00,0.0015
2370.00,0.0015
2369.00,0.0015
2368.00,0.0014
2367.00,0.0014
2366.00,0.0014
2365.00,0.0014
2364.00,0.0015
2363.00,0.0015
2362.00,0.0016
2361.00,0.0016
2360.00,0.0017
2359.00,0.0016
2358.00,0.0016
2357.00,0.0016
2356.00,0.0016
2355.00,0.0016
2354.00,0.0016
2353.00,0.0015
2352.00,0.0015
2351.00,0.0015
2350.00,0.0016
2349.00,0.0017
2348.00,0.0018
2347.00,0.0019
2346.00,0.0019
2345.00,0.0019
2344.00,0.0019
2343.00,0.0018
2342.00,0.0018
2341.00,0.0019
2340.00,0.0019
2339.00,0.0020
2338.00,0.0019
2337.00,0.0019
2336.00,0.0019
2335.00,0.0019
2334.00,0.0019
2333.00,0.0019
2332.00,0.0019
2331.00,0.0019
2330.00,0.0019
2329.00,0.0021
2328.00,0.0023
2327.00,0.0027
2326.00,0.0030
2325.00,0.0031
2324.00,0.0031
2323.00,0.0029
2322.00,0.0028
2321.00,0.0026
2320.00,0.0025
2319.00,0.0023
2318.00,0.0022
2317.00,0.0022
2316.00,0.0021
2315.00,0.0021
2314.00,0.0020
2313.00,0.0019
2312.00,0.0019
2311.00,0.0018
2310.00,0.0018
2309.00,0.0019
2308.00,0.0019
2307.00,0.0019
2306.00,0.0019
2305.00,0.0020
2304.00,0.0020
2303.00,0.0020
2302.00,0.0021
2301.00,0.0021
2300.00,0.0021
2299.00,0.0021
2298.00,0.0021
2297.00,0.0022
2296.00,0.0023
2295.00,0.0024
2294.00,0.0025
2293.00,0.0026
2292.00,0.0027
2291.00,0.0028
2290.00,0.0028
2289.00,0.0028
2288.00,0.0029
2287.00,0.0029
2286.00,0.0029
2285.00,0.0028
2284.00,0.0027
2283.00,0.0026
2282.00,0.0025
2281.00,0.0025
2280.00,0.0025
2279.00,0.0025
2278.00,0.0024
2277.00,0.0024
2276.00,0.0023
2275.00,0.0023
2274.00,0.0023
2273.00,0.0023
2272.00,0.0023
2271.00,0.0023
2270.00,0.0023
2269.00,0.0023
2268.00,0.0022
2267.00,0.0021
2266.00,0.0020
2265.00,0.0020
2264.00,0.0020
2263.00,0.0020
2262.00,0.0020
2261.00,0.0020
2260.00,0.0021
2259.00,0.0022
2258.00,0.0023
2257.00,0.0023
2256.00,0.0022
2255.00,0.0021
2254.00,0.0020
2253.00,0.0020
2252.00,0.0020
2251.00,0.0019
2250.00,0.0019
2249.00,0.0019
2248.00,0.0019
2247.00,0.0018
2246.00,0.0018
2245.00,0.0017
2244.00,0.0017
2243.00,0.0017
2242.00,0.0018
2241.00,0.0018
2240.00,0.0018
2239.00,0.0018
2238.00,0.0019
2237.00,0.0020
2236.00,0.0020
2235.00,0.0020
2234.00,0.0019
2233.00,0.0019
2232.00,0.0019
2231.00,0.0019
2230.00,0.0019
2229.00,0.0018
2228.00,0.0018
2227.00,0.0018
2226.00,0.0018
2225.00,0.0019
2224.00,0.0019
2223.00,0.0020
2222.00,0.0020
2221.00,0.0020
2220.00,0.0019
2219.00,0.0018
2218.00,0.0017
2217.00,0.0016
2216.00,0.0016
2215.00,0.0016
2214.00,0.0017
2213.00,0.0018
2212.00,0.0018
2211.00,0.0018
2210.00,0.0018
2209.00,0.0018
2208.00,0.0018
2207.00,0.0019
2206.00,0.0019
2205.00,0.0018
2204.00,0.0018
2203.00,0.0018
2202.00,0.0018
2201.00,0.0018
2200.00,0.0018
2199.00,0.0018
2198.00,0.0018
2197.00,0.0019
2196.00,0.0020
2195.00,0.0020
2194.00,0.0020
2193.00,0.0020
2192.00,0.0020
2191.00,0.0019
2190.00,0.0020
2189.00,0.0021
2188.00,0.0023
2187.00,0.0024
2186.00,0.0023
2185.00,0.0021
2184.00,0.0019
2183.00,0.0016
2182.00,0.0015
2181.00,0.0015
2180.00,0.0017
2179.00,0.0018
2178.00,0.0017
2177.00,0.0015
2176.00,0.0014
2175.00,0.0014
2174.00,0.0015
2173.00,0.0017
2172.00,0.0020
2171.00,0.0023
2170.00,0.0026
2169.00,0.0028
2168.00,0.0029
2167.00,0.0028
2166.00,0.0028
2165.00,0.0028
2164.00,0.0028
2163.00,0.0028
2162.00,0.0023
2161.00,0.0014
2160.00,0.0001
2159.00,-0.0010
2158.00,-0.0016
2157.00,-0.0016
2156.00,-0.0012
2155.00,-0.0008
2154.00,-0.0006
2153.00,-0.0003
2152.00,-0.0001
2151.00,0.0001
2150.00,0.0002
2149.00,0.0004
2148.00,0.0004
2147.00,0.0003
2146.00,0.0002
2145.00,0.0002
2144.00,0.0002
2143.00,0.0001
2142.00,0.0001
2141.00,0.0001
2140.00,0.0002
2139.00,0.0002
2138.00,0.0001
2137.00,-0.0001
2136.00,-0.0003
2135.00,-0.0005
2134.00,-0.0005
2133.00,-0.0004
2132.00,-0.0002
2131.00,-0.0000
2130.00,0.0002
2129.00,0.0003
2128.00,0.0005
2127.00,0.0006
2126.00,0.0007
2125.00,0.0008
2124.00,0.0009
2123.00,0.0010
2122.00,0.0011
2121.00,0.0011
2120.00,0.0011
2119.00,0.0011
2118.00,0.0012
2117.00,0.0013
2116.00,0.0015
2115.00,0.0015
2114.00,0.0016
2113.00,0.0016
2112.00,0.0016
2111.00,0.0016
2110.00,0.0016
2109.00,0.0016
2108.00,0.0016
2107.00,0.0015
2106.00,0.0015
2105.00,0.0015
2104.00,0.0015
2103.00,0.0015
2102.00,0.0015
2101.00,0.0015
2100.00,0.0015
2099.00,0.0014
2098.00,0.0014
2097.00,0.0012
2096.00,0.0011
2095.00,0.0010
2094.00,0.0011
2093.00,0.0012
2092.00,0.0013
2091.00,0.0014
2090.00,0.0015
2089.00,0.0015
2088.00,0.0015
2087.00,0.0016
2086.00,0.0016
2085.00,0.0017
2084.00,0.0017
2083.00,0.0018
2082.00,0.0018
2081.00,0.0018
2080.00,0.0017
2079.00,0.0017
2078.00,0.0017
2077.00,0.0016
2076.00,0.0016
2075.00,0.0016
2074.00,0.0015
2073.00,0.0016
2072.00,0.0016
2071.00,0.0016
2070.00,0.0015
2069.00,0.0015
2068.00,0.0015
2067.00,0.0015
2066.00,0.0015
2065.00,0.0014
2064.00,0.0014
2063.00,0.0014
2062.00,0.0014
2061.00,0.0014
2060.00,0.0015
2059.00,0.0015
2058.00,0.0016
2057.00,0.0016
2056.00,0.0017
2055.00,0.0018
2054.00,0.0021
2053.00,0.0025
2052.00,0.0029
2051.00,0.0029
2050.00,0.0026
2049.00,0.0022
2048.00,0.0020
2047.00,0.0018
2046.00,0.0017
2045.00,0.0016
2044.00,0.0016
2043.00,0.0016
2042.00,0.0015
2041.00,0.0015
2040.00,0.0016
2039.00,0.0016
2038.00,0.0017
2037.00,0.0018
2036.00,0.0017
2035.00,0.0015
2034.00,0.0012
2033.00,0.0009
2032.00,0.0007
2031.00,0.0006
2030.00,0.0006
2029.00,0.0007
2028.00,0.0007
2027.00,0.0007
2026.00,0.0006
2025.00,0.0006
2024.00,0.0007
2023.00,0.0008
2022.00,0.0007
2021.00,0.0007
2020.00,0.0006
2019.00,0.0006
2018.00,0.0005
2017.00,0.0006
2016.00,0.0007
2015.00,0.0007
2014.00,0.0006
2013.00,0.0007
2012.00,0.0008
2011.00,0.0010
2010.00,0.0010
2009.00,0.0008
2008.00,0.0005
2007.00,0.0002
2006.00,0.0000
2005.00,0.0000
2004.00,0.0002
2003.00,0.0004
2002.00,0.0006
2001.00,0.0007
2000.00,0.0008
1999.00,0.0008
1998.00,0.0008
1997.00,0.0008
1996.00,0.0009
1995.00,0.0009
1994.00,0.0009
1993.00,0.0010
1992.00,0.0011
1991.00,0.0012
1990.00,0.0013
1989.00,0.0014
1988.00,0.0015
1987.00,0.0016
1986.00,0.0018
1985.00,0.0020
1984.00,0.0024
1983.00,0.0027
1982.00,0.0029
1981.00,0.0029
1980.00,0.0027
1979.00,0.0020
1978.00,0.0013
1977.00,0.0008
1976.00,0.0006
1975.00,0.0006
1974.00,0.0006
1973.00,0.0005
1972.00,0.0005
1971.00,0.0004
1970.00,0.0004
1969.00,0.0005
1968.00,0.0006
1967.00,0.0007
1966.00,0.0006
1965.00,0.0005
1964.00,0.0004
1963.00,0.0003
1962.00,0.0001
1961.00,-0.0000
1960.00,-0.0001
1959.00,-0.0001
1958.00,-0.0000
1957.00,0.0001
1956.00,0.0003
1955.00,0.0003
1954.00,0.0003
1953.00,0.0003
1952.00,0.0004
1951.00,0.0004
1950.00,0.0005
1949.00,0.0006
1948.00,0.0007
1947.00,0.0006
1946.00,0.0004
1945.00,0.0004
1944.00,0.0004
1943.00,0.0004
1942.00,0.0004
1941.00,0.0005
1940.00,0.0005
1939.00,0.0005
1938.00,0.0005
1937.00,0.0005
1936.00,0.0007
1935.00,0.0008
1934.00,0.0008
1933.00,0.0008
1932.00,0.0008
1931.00,0.0007
1930.00,0.0006
1929.00,0.0006
1928.00,0.0006
1927.00,0.0007
1926.00,0.0006
1925.00,0.0006
1924.00,0.0006
1923.00,0.0006
1922.00,0.0008
1921.00,0.0009
1920.00,0.0010
1919.00,0.0010
1918.00,0.0011
1917.00,0.0012
1916.00,0.0013
1915.00,0.0013
1914.00,0.0012
1913.00,0.0011
1912.00,0.0011
1911.00,0.0011
1910.00,0.0011
1909.00,0.0011
1908.00,0.0011
1907.00,0.0011
1906.00,0.0011
1905.00,0.0011
1904.00,0.0012
1903.00,0.0012
1902.00,0.0012
1901.00,0.0012
1900.00,0.0011
1899.00,0.0011
1898.00,0.0010
1897.00,0.0010
1896.00,0.0010
1895.00,0.0010
1894.00,0.0010
1893.00,0.0011
1892.00,0.0010
1891.00,0.0010
1890.00,0.0009
1889.00,0.0010
1888.00,0.0011
1887.00,0.0012
1886.00,0.0011
1885.00,0.0011
1884.00,0.0011
1883.00,0.0012
1882.00,0.0012
1881.00,0.0012
1880.00,0.0012
1879.00,0.0012
1878.00,0.0012
1877.00,0.0013
1876.00,0.0013
1875.00,0.0013
1874.00,0.0013
1873.00,0.0012
1872.00,0.0011
1871.00,0.0010
1870.00,0.0010
1869.00,0.0009
1868.00,0.0010
1867.00,0.0011
1866.00,0.0011
1865.00,0.0012
1864.00,0.0012
1863.00,0.0012
1862.00,0.0013
1861.00,0.0013
1860.00,0.0013
1859.00,0.0013
1858.00,0.0012
1857.00,0.0012
1856.00,0.0013
1855.00,0.0013
1854.00,0.0013
1853.00,0.0013
1852.00,0.0013
1851.00,0.0013
1850.00,0.0012
1849.00,0.0011
1848.00,0.0012
1847.00,0.0012
1846.00,0.0012
1845.00,0.0013
1844.00,0.0014
1843.00,0.0016
1842.00,0.0016
1841.00,0.0015
1840.00,0.0014
1839.00,0.0013
1838.00,0.0013
1837.00,0.0013
1836.00,0.0014
1835.00,0.0014
1834.00,0.0014
1833.00,0.0014
1832.00,0.0012
1831.00,0.0011
1830.00,0.0011
1829.00,0.0012
1828.00,0.0014
1827.00,0.0015
1826.00,0.0015
1825.00,0.0016
1824.00,0.0017
1823.00,0.0017
1822.00,0.0016
1821.00,0.0016
1820.00,0.0015
1819.00,0.0014
1818.00,0.0014
1817.00,0.0013
1816.00,0.0014
1815.00,0.0014
1814.00,0.0014
1813.00,0.0014
1812.00,0.0014
1811.00,0.0015
1810.00,0.0016
1809.00,0.0017
1808.00,0.0017
1807.00,0.0018
1806.00,0.0018
1805.00,0.0018
1804.00,0.0019
1803.00,0.0019
1802.00,0.0019
1801.00,0.0019
1800.00,0.0019
1799.00,0.0019
1798.00,0.0019
1797.00,0.0019
1796.00,0.0019
1795.00,0.0019
1794.00,0.0019
1793.00,0.0019
1792.00,0.0021
1791.00,0.0023
1790.00,0.0024
1789.00,0.0023
1788.00,0.0023
1787.00,0.0023
1786.00,0.0024
1785.00,0.0024
1784.00,0.0025
1783.00,0.0024
1782.00,0.0023
1781.00,0.0023
1780.00,0.0023
1779.00,0.0024
1778.00,0.0024
1777.00,0.0023
1776.00,0.0023
1775.00,0.0023
1774.00,0.0022
1773.00,0.0022
1772.00,0.0024
1771.00,0.0027
1770.00,0.0030
1769.00,0.0032
1768.00,0.0034
1767.00,0.0034
1766.00,0.0034
1765.00,0.0034
1764.00,0.0034
1763.00,0.0035
1762.00,0.0037
1761.00,0.0040
1760.00,0.0042
1759.00,0.0043
1758.00,0.0044
1757.00,0.0045
1756.00,0.0048
1755.00,0.0049
1754.00,0.0051
1753.00,0.0052
1752.00,0.0053
1751.00,0.0054
1750.00,0.0054
1749.00,0.0054
1748.00,0.0055
1747.00,0.0057
1746.00,0.0059
1745.00,0.0061
1744.00,0.0063
1743.00,0.0065
1742.00,0.0066
1741.00,0.0067
1740.00,0.0069
1739.00,0.0072
1738.00,0.0074
1737.00,0.0077
1736.00,0.0079
1735.00,0.0082
1734.00,0.0084
1733.00,0.0087
1732.00,0.0087
1731.00,0.0086
1730.00,0.0087
1729.00,0.0088
1728.00,0.0091
1727.00,0.0092
1726.00,0.0094
1725.00,0.0095
1724.00,0.0097
1723.00,0.0099
1722.00,0.0100
1721.00,0.0102
1720.00,0.0103
1719.00,0.0104
1718.00,0.0105
1717.00,0.0107
1716.00,0.0111
1715.00,0.0114
1714.00,0.0117
1713.00,0.0119
1712.00,0.0122
1711.00,0.0125
1710.00,0.0128
1709.00,0.0131
1708.00,0.0135
1707.00,0.0139
1706.00,0.0145
1705.00,0.0154
1704.00,0.0164
1703.00,0.0176
1702.00,0.0189
1701.00,0.0203
1700.00,0.0219
1699.00,0.0233
1698.00,0.0244
1697.00,0.0253
1696.00,0.0265
1695.00,0.0276
1694.00,0.0283
1693.00,0.0287
1692.00,0.0291
1691.00,0.0297
1690.00,0.0302
1689.00,0.0309
1688.00,0.0316
1687.00,0.0325
1686.00,0.0332
1685.00,0.0338
1684.00,0.0345
1683.00,0.0354
1682.00,0.0362
1681.00,0.0371
1680.00,0.0380
1679.00,0.0390
1678.00,0.0399
1677.00,0.0409
1676.00,0.0418
1675.00,0.0425
1674.00,0.0432
1673.00,0.0440
1672.00,0.0448
1671.00,0.0456
1670.00,0.0464
1669.00,0.0473
1668.00,0.0483
1667.00,0.0493
1666.00,0.0502
1665.00,0.0512
1664.00,0.0521
1663.00,0.0530
1662.00,0.0538
1661.00,0.0547
1660.00,0.0557
1659.00,0.0567
1658.00,0.0577
1657.00,0.0588
1656.00,0.0602
1655.00,0.0613
1654.00,0.0615
1653.00,0.0613
1652.00,0.0613
1651.00,0.0617
1650.00,0.0623
1649.00,0.0629
1648.00,0.0634
1647.00,0.0636
1646.00,0.0638
1645.00,0.0642
1644.00,0.0648
1643.00,0.0654
1642.00,0.0660
1641.00,0.0666
1640.00,0.0672
1639.00,0.0679
1638.00,0.0686
1637.00,0.0691
1636.00,0.0695
1635.00,0.0700
1634.00,0.0708
1633.00,0.0719
1632.00,0.0732
1631.00,0.0746
1630.00,0.0759
1629.00,0.0769
1628.00,0.0779
1627.00,0.0790
1626.00,0.0801
1625.00,0.0810
1624.00,0.0816
1623.00,0.0818
1622.00,0.0818
1621.00,0.0820
1620.00,0.0822
1619.00,0.0823
1618.00,0.0815
1617.00,0.0797
1616.00,0.0774
1615.00,0.0754
1614.00,0.0738
1613.00,0.0723
1612.00,0.0706
1611.00,0.0685
1610.00,0.0661
1609.00,0.0637
1608.00,0.0614
1607.00,0.0592
1606.00,0.0571
1605.00,0.0551
1604.00,0.0533
1603.00,0.0514
1602.00,0.0498
1601.00,0.0482
1600.00,0.0469
1599.00,0.0456
1598.00,0.0444
1597.00,0.0433
1596.00,0.0423
1595.00,0.0413
1594.00,0.0405
1593.00,0.0397
1592.00,0.0390
1591.00,0.0384
1590.00,0.0378
1589.00,0.0373
1588.00,0.0369
1587.00,0.0365
1586.00,0.0362
1585.00,0.0360
1584.00,0.0359
1583.00,0.0358
1582.00,0.0357
1581.00,0.0358
1580.00,0.0360
1579.00,0.0362
1578.00,0.0364
1577.00,0.0366
1576.00,0.0369
1575.00,0.0373
1574.00,0.0378
1573.00,0.0383
1572.00,0.0389
1571.00,0.0394
1570.00,0.0399
1569.00,0.0406
1568.00,0.0414
1567.00,0.0421
1566.00,0.0428
1565.00,0.0436
1564.00,0.0445
1563.00,0.0456
1562.00,0.0468
1561.00,0.0480
1560.00,0.0485
1559.00,0.0486
1558.00,0.0494
1557.00,0.0504
1556.00,0.0515
1555.00,0.0525
1554.00,0.0536
1553.00,0.0546
1552.00,0.0555
1551.00,0.0564
1550.00,0.0572
1549.00,0.0581
1548.00,0.0591
1547.00,0.0601
1546.00,0.0610
1545.00,0.0617
1544.00,0.0623
1543.00,0.0629
1542.00,0.0634
1541.00,0.0636
1540.00,0.0639
1539.00,0.0644
1538.00,0.0651
1537.00,0.0660
1536.00,0.0669
1535.00,0.0677
1534.00,0.0681
1533.00,0.0683
1532.00,0.0687
1531.00,0.0692
1530.00,0.0697
1529.00,0.0702
1528.00,0.0706
1527.00,0.0707
1526.00,0.0708
1525.00,0.0709
1524.00,0.0710
1523.00,0.0711
1522.00,0.0710
1521.00,0.0707
1520.00,0.0705
1519.00,0.0705
1518.00,0.0705
1517.00,0.0704
1516.00,0.0701
1515.00,0.0699
1514.00,0.0696
1513.00,0.0691
1512.00,0.0682
1511.00,0.0673
1510.00,0.0665
1509.00,0.0655
1508.00,0.0639
1507.00,0.0617
1506.00,0.0595
1505.00,0.0580
1504.00,0.0569
1503.00,0.0560
1502.00,0.0552
1501.00,0.0542
1500.00,0.0532
1499.00,0.0520
1498.00,0.0508
1497.00,0.0494
1496.00,0.0480
1495.00,0.0467
1494.00,0.0455
1493.00,0.0445
1492.00,0.0434
1491.00,0.0421
1490.00,0.0406
1489.00,0.0392
1488.00,0.0381
1487.00,0.0373
1486.00,0.0365
1485.00,0.0358
1484.00,0.0352
1483.00,0.0346
1482.00,0.0340
1481.00,0.0335
1480.00,0.0331
1479.00,0.0330
1478.00,0.0329
1477.00,0.0328
1476.00,0.0329
1475.00,0.0330
1474.00,0.0332
1473.00,0.0335
1472.00,0.0339
1471.00,0.0344
1470.00,0.0347
1469.00,0.0350
1468.00,0.0352
1467.00,0.0354
1466.00,0.0354
1465.00,0.0353
1464.00,0.0354
1463.00,0.0355
1462.00,0.0357
1461.00,0.0359
1460.00,0.0363
1459.00,0.0367
1458.00,0.0371
1457.00,0.0376
1456.00,0.0380
1455.00,0.0381
1454.00,0.0382
1453.00,0.0382
1452.00,0.0384
1451.00,0.0385
1450.00,0.0386
1449.00,0.0386
1448.00,0.0385
1447.00,0.0383
1446.00,0.0382
1445.00,0.0381
1444.00,0.0380
1443.00,0.0379
1442.00,0.0378
1441.00,0.0377
1440.00,0.0376
1439.00,0.0376
1438.00,0.0376
1437.00,0.0372
1436.00,0.0365
1435.00,0.0358
1434.00,0.0352
1433.00,0.0347
1432.00,0.0343
1431.00,0.0338
1430.00,0.0334
1429.00,0.0331
1428.00,0.0329
1427.00,0.0328
1426.00,0.0328
1425.00,0.0327
1424.00,0.0327
1423.00,0.0328
1422.00,0.0331
1421.00,0.0335
1420.00,0.0338
1419.00,0.0341
1418.00,0.0343
1417.00,0.0345
1416.00,0.0348
1415.00,0.0351
1414.00,0.0354
1413.00,0.0357
1412.00,0.0361
1411.00,0.0363
1410.00,0.0366
1409.00,0.0369
1408.00,0.0371
1407.00,0.0373
1406.00,0.0375
1405.00,0.0376
1404.00,0.0378
1403.00,0.0379
1402.00,0.0381
1401.00,0.0382
1400.00,0.0383
1399.00,0.0384
1398.00,0.0384
1397.00,0.0385
1396.00,0.0386
1395.00,0.0387
1394.00,0.0388
1393.00,0.0389
1392.00,0.0389
1391.00,0.0390
1390.00,0.0392
1389.00,0.0393
1388.00,0.0393
1387.00,0.0391
1386.00,0.0387
1385.00,0.0383
1384.00,0.0380
1383.00,0.0376
1382.00,0.0372
1381.00,0.0368
1380.00,0.0364
1379.00,0.0361
1378.00,0.0357
1377.00,0.0354
1376.00,0.0351
1375.00,0.0347
1374.00,0.0345
1373.00,0.0344
1372.00,0.0343
1371.00,0.0343
1370.00,0.0341
1369.00,0.0339
1368.00,0.0337
1367.00,0.0334
1366.00,0.0331
1365.00,0.0328
1364.00,0.0324
1363.00,0.0320
1362.00,0.0317
1361.00,0.0314
1360.00,0.0312
1359.00,0.0310
1358.00,0.0308
1357.00,0.0306
1356.00,0.0305
1355.00,0.0305
1354.00,0.0304
1353.00,0.0303
1352.00,0.0303
1351.00,0.0302
1350.00,0.0302
1349.00,0.0302
1348.00,0.0302
1347.00,0.0302
1346.00,0.0302
1345.00,0.0302
1344.00,0.0302
1343.00,0.0302
1342.00,0.0302
1341.00,0.0302
1340.00,0.0302
1339.00,0.0302
1338.00,0.0301
1337.00,0.0301
1336.00,0.0300
1335.00,0.0299
1334.00,0.0297
1333.00,0.0296
1332.00,0.0296
1331.00,0.0295
1330.00,0.0295
1329.00,0.0294
1328.00,0.0294
1327.00,0.0295
1326.00,0.0295
1325.00,0.0295
1324.00,0.0296
1323.00,0.0297
1322.00,0.0297
1321.00,0.0298
1320.00,0.0298
1319.00,0.0299
1318.00,0.0300
1317.00,0.0301
1316.00,0.0302
1315.00,0.0303
1314.00,0.0303
1313.00,0.0303
1312.00,0.0304
1311.00,0.0304
1310.00,0.0304
1309.00,0.0304
1308.00,0.0304
1307.00,0.0304
1306.00,0.0304
1305.00,0.0303
1304.00,0.0304
1303.00,0.0304
1302.00,0.0304
1301.00,0.0304
1300.00,0.0305
1299.00,0.0305
1298.00,0.0306
1297.00,0.0307
1296.00,0.0308
1295.00,0.0310
1294.00,0.0311
1293.00,0.0312
1292.00,0.0314
1291.00,0.0315
1290.00,0.0317
1289.00,0.0318
1288.00,0.0320
1287.00,0.0321
1286.00,0.0323
1285.00,0.0324
1284.00,0.0325
1283.00,0.0327
1282.00,0.0328
1281.00,0.0329
1280.00,0.0331
1279.00,0.0331
1278.00,0.0332
1277.00,0.0332
1276.00,0.0333
1275.00,0.0333
1274.00,0.0334
1273.00,0.0335
1272.00,0.0336
1271.00,0.0337
1270.00,0.0339
1269.00,0.0340
1268.00,0.0343
1267.00,0.0345
1266.00,0.0348
1265.00,0.0351
1264.00,0.0354
1263.00,0.0357
1262.00,0.0361
1261.00,0.0364
1260.00,0.0368
1259.00,0.0371
1258.00,0.0374
1257.00,0.0377
1256.00,0.0381
1255.00,0.0384
1254.00,0.0387
1253.00,0.0390
1252.00,0.0394
1251.00,0.0397
1250.00,0.0401
1249.00,0.0405
1248.00,0.0408
1247.00,0.0411
1246.00,0.0414
1245.00,0.0417
1244.00,0.0420
1243.00,0.0423
1242.00,0.0426
1241.00,0.0429
1240.00,0.0432
1239.00,0.0435
1238.00,0.0437
1237.00,0.0439
1236.00,0.0442
1235.00,0.0444
1234.00,0.0445
1233.00,0.0447
1232.00,0.0448
1231.00,0.0449
1230.00,0.0449
1229.00,0.0449
1228.00,0.0449
1227.00,0.0449
1226.00,0.0447
1225.00,0.0446
1224.00,0.0445
1223.00,0.0443
1222.00,0.0441
1221.00,0.0438
1220.00,0.0436
1219.00,0.0433
1218.00,0.0429
1217.00,0.0426
1216.00,0.0422
1215.00,0.0419
1214.00,0.0414
1213.00,0.0410
1212.00,0.0406
1211.00,0.0401
1210.00,0.0396
1209.00,0.0392
1208.00,0.0388
1207.00,0.0384
1206.00,0.0379
1205.00,0.0375
1204.00,0.0372
1203.00,0.0368
1202.00,0.0364
1201.00,0.0361
1200.00,0.0358
1199.00,0.0354
1198.00,0.0351
1197.00,0.0349
1196.00,0.0347
1195.00,0.0345
1194.00,0.0343
1193.00,0.0341
1192.00,0.0339
1191.00,0.0337
1190.00,0.0335
1189.00,0.0334
1188.00,0.0333
1187.00,0.0332
1186.00,0.0331
1185.00,0.0331
1184.00,0.0330
1183.00,0.0330
1182.00,0.0330
1181.00,0.0330
1180.00,0.0331
1179.00,0.0332
1178.00,0.0334
1177.00,0.0336
1176.00,0.0338
1175.00,0.0341
1174.00,0.0343
1173.00,0.0345
1172.00,0.0347
1171.00,0.0348
1170.00,0.0349
1169.00,0.0350
1168.00,0.0350
1167.00,0.0350
1166.00,0.0351
1165.00,0.0351
1164.00,0.0352
1163.00,0.0353
1162.00,0.0353
1161.00,0.0354
1160.00,0.0354
1159.00,0.0354
1158.00,0.0354
1157.00,0.0354
1156.00,0.0353
1155.00,0.0353
1154.00,0.0351
1153.00,0.0350
1152.00,0.0348
1151.00,0.0346
1150.00,0.0343
1149.00,0.0340
1148.00,0.0337
1147.00,0.0334
1146.00,0.0331
1145.00,0.0328
1144.00,0.0325
1143.00,0.0322
1142.00,0.0320
1141.00,0.0318
1140.00,0.0317
1139.00,0.0315
1138.00,0.0314
1137.00,0.0313
1136.00,0.0313
1135.00,0.0313
1134.00,0.0313
1133.00,0.0314
1132.00,0.0316
1131.00,0.0317
1130.00,0.0318
1129.00,0.0320
1128.00,0.0322
1127.00,0.0324
1126.00,0.0325
1125.00,0.0327
1124.00,0.0328
1123.00,0.0330
1122.00,0.0331
1121.00,0.0333
1120.00,0.0334
1119.00,0.0336
1118.00,0.0337
1117.00,0.0338
1116.00,0.0338
1115.00,0.0339
1114.00,0.0340
1113.00,0.0341
1112.00,0.0342
1111.00,0.0343
1110.00,0.0344
1109.00,0.0345
1108.00,0.0346
1107.00,0.0347
1106.00,0.0349
1105.00,0.0350
1104.00,0.0352
1103.00,0.0353
1102.00,0.0354
1101.00,0.0356
1100.00,0.0358
1099.00,0.0360
1098.00,0.0362
1097.00,0.0364
1096.00,0.0367
1095.00,0.0370
1094.00,0.0373
1093.00,0.0376
1092.00,0.0379
1091.00,0.0384
1090.00,0.0388
1089.00,0.0393
1088.00,0.0398
1087.00,0.0404
1086.00,0.0408
1085.00,0.0413
1084.00,0.0419
1083.00,0.0423
1082.00,0.0428
1081.00,0.0432
1080.00,0.0436
1079.00,0.0439
1078.00,0.0441
1077.00,0.0443
1076.00,0.0445
1075.00,0.0446
1074.00,0.0446
1073.00,0.0446
1072.00,0.0447
1071.00,0.0447
1070.00,0.0447
1069.00,0.0447
1068.00,0.0448
1067.00,0.0449
1066.00,0.0449
1065.00,0.0450
1064.00,0.0451
1063.00,0.0452
1062.00,0.0453
1061.00,0.0454
1060.00,0.0456
1059.00,0.0457
1058.00,0.0457
1057.00,0.0457
1056.00,0.0457
1055.00,0.0456
1054.00,0.0455
1053.00,0.0454
1052.00,0.0453
1051.00,0.0452
1050.00,0.0451
1049.00,0.0449
1048.00,0.0447
1047.00,0.0446
1046.00,0.0445
1045.00,0.0444
1044.00,0.0443
1043.00,0.0441
1042.00,0.0439
1041.00,0.0437
1040.00,0.0436
1039.00,0.0434
1038.00,0.0432
1037.00,0.0429
1036.00,0.0427
1035.00,0.0426
1034.00,0.0424
1033.00,0.0423
1032.00,0.0422
1031.00,0.0421
1030.00,0.0420
1029.00,0.0419
1028.00,0.0418
1027.00,0.0417
1026.00,0.0414
1025.00,0.0412
1024.00,0.0409
1023.00,0.0407
1022.00,0.0404
1021.00,0.0400
1020.00,0.0397
1019.00,0.0394
1018.00,0.0389
1017.00,0.0386
1016.00,0.0382
1015.00,0.0379
1014.00,0.0375
1013.00,0.0371
1012.00,0.0367
1011.00,0.0362
1010.00,0.0358
1009.00,0.0353
1008.00,0.0350
1007.00,0.0346
1006.00,0.0341
1005.00,0.0338
1004.00,0.0334
1003.00,0.0331
1002.00,0.0326
1001.00,0.0323
1000.00,0.0319
999.00,0.0316
998.00,0.0313
997.00,0.0309
996.00,0.0306
995.00,0.0302
994.00,0.0298
993.00,0.0294
992.00,0.0291
991.00,0.0288
990.00,0.0284
989.00,0.0281
988.00,0.0279
987.00,0.0276
986.00,0.0273
985.00,0.0271
984.00,0.0269
983.00,0.0267
982.00,0.0266
981.00,0.0265
980.00,0.0264
979.00,0.0264
978.00,0.0263
977.00,0.0264
976.00,0.0264
975.00,0.0265
974.00,0.0265
973.00,0.0265
972.00,0.0266
971.00,0.0266
970.00,0.0267
969.00,0.0267
968.00,0.0267
967.00,0.0268
966.00,0.0267
965.00,0.0267
964.00,0.0267
963.00,0.0267
962.00,0.0267
961.00,0.0267
960.00,0.0267
959.00,0.0267
958.00,0.0266
957.00,0.0265
956.00,0.0265
955.00,0.0264
954.00,0.0263
953.00,0.0262
952.00,0.0262
951.00,0.0262
950.00,0.0262
949.00,0.0262
948.00,0.0263
947.00,0.0263
946.00,0.0264
945.00,0.0264
944.00,0.0265
943.00,0.0266
942.00,0.0267
941.00,0.0268
940.00,0.0269
939.00,0.0270
938.00,0.0271
937.00,0.0272
936.00,0.0273
935.00,0.0274
934.00,0.0275
933.00,0.0275
932.00,0.0276
931.00,0.0277
930.00,0.0277
929.00,0.0277
928.00,0.0277
927.00,0.0277
926.00,0.0276
925.00,0.0275
924.00,0.0274
923.00,0.0274
922.00,0.0273
921.00,0.0272
920.00,0.0271
919.00,0.0270
918.00,0.0269
917.00,0.0268
916.00,0.0267
915.00,0.0265
914.00,0.0264
913.00,0.0263
912.00,0.0263
911.00,0.0262
910.00,0.0261
909.00,0.0260
908.00,0.0259
907.00,0.0259
906.00,0.0258
905.00,0.0257
904.00,0.0257
903.00,0.0257
902.00,0.0256
901.00,0.0256
900.00,0.0255
899.00,0.0255
898.00,0.0253
897.00,0.0252
896.00,0.0252
895.00,0.0252
894.00,0.0252
893.00,0.0252
892.00,0.0252
891.00,0.0252
890.00,0.0251
889.00,0.0251
888.00,0.0251
887.00,0.0251
886.00,0.0251
885.00,0.0251
884.00,0.0252
883.00,0.0252
882.00,0.0251
881.00,0.0251
880.00,0.0251
879.00,0.0251
878.00,0.0250
877.00,0.0250
876.00,0.0250
875.00,0.0249
874.00,0.0249
873.00,0.0248
872.00,0.0248
871.00,0.0248
870.00,0.0247
869.00,0.0247
868.00,0.0248
867.00,0.0249
866.00,0.0249
865.00,0.0249
864.00,0.0251
863.00,0.0252
862.00,0.0253
861.00,0.0254
860.00,0.0256
859.00,0.0258
858.00,0.0260
857.00,0.0261
856.00,0.0263
855.00,0.0265
854.00,0.0267
853.00,0.0268
852.00,0.0270
851.00,0.0270
850.00,0.0270
849.00,0.0270
848.00,0.0271
847.00,0.0271
846.00,0.0271
845.00,0.0272
844.00,0.0273
843.00,0.0274
842.00,0.0275
841.00,0.0276
840.00,0.0278
839.00,0.0280
838.00,0.0282
837.00,0.0284
836.00,0.0287
835.00,0.0290
834.00,0.0292
833.00,0.0294
832.00,0.0297
831.00,0.0299
830.00,0.0300
829.00,0.0302
828.00,0.0303
827.00,0.0305
826.00,0.0305
825.00,0.0306
824.00,0.0307
823.00,0.0308
822.00,0.0308
821.00,0.0308
820.00,0.0309
819.00,0.0310
818.00,0.0311
817.00,0.0312
816.00,0.0314
815.00,0.0316
814.00,0.0317
813.00,0.0318
812.00,0.0321
811.00,0.0323
810.00,0.0325
809.00,0.0326
808.00,0.0329
807.00,0.0331
806.00,0.0333
805.00,0.0334
804.00,0.0336
803.00,0.0337
802.00,0.0338
801.00,0.0341
800.00,0.0344
799.00,0.0347
798.00,0.0349
797.00,0.0352
796.00,0.0355
795.00,0.0358
794.00,0.0360
793.00,0.0363
792.00,0.0367
791.00,0.0371
790.00,0.0374
789.00,0.0378
788.00,0.0382
787.00,0.0386
786.00,0.0389
785.00,0.0391
784.00,0.0395
783.00,0.0398
782.00,0.0400
781.00,0.0402
780.00,0.0404
779.00,0.0405
778.00,0.0406
777.00,0.0407
776.00,0.0409
775.00,0.0411
774.00,0.0411
773.00,0.0412
772.00,0.0413
771.00,0.0414
770.00,0.0415
769.00,0.0416
768.00,0.0418
767.00,0.0419
766.00,0.0420
765.00,0.0421
764.00,0.0422
763.00,0.0424
762.00,0.0425
761.00,0.0427
760.00,0.0429
759.00,0.0431
758.00,0.0432
757.00,0.0434
756.00,0.0437
755.00,0.0439
754.00,0.0442
753.00,0.0445
752.00,0.0449
751.00,0.0452
750.00,0.0455
749.00,0.0457
748.00,0.0461
747.00,0.0465
746.00,0.0467
745.00,0.0470
744.00,0.0473
743.00,0.0476
742.00,0.0478
741.00,0.0480
740.00,0.0482
739.00,0.0485
738.00,0.0486
737.00,0.0488
736.00,0.0491
735.00,0.0494
734.00,0.0496
733.00,0.0500
732.00,0.0505
731.00,0.0510
730.00,0.0514
729.00,0.0520
728.00,0.0526
727.00,0.0532
726.00,0.0538
725.00,0.0544
724.00,0.0552
723.00,0.0560
722.00,0.0566
721.00,0.0572
720.00,0.0579
719.00,0.0585
718.00,0.0590
717.00,0.0595
716.00,0.0600
715.00,0.0605
714.00,0.0609
713.00,0.0614
712.00,0.0620
711.00,0.0626
710.00,0.0630
709.00,0.0635
708.00,0.0640
707.00,0.0647
706.00,0.0652
705.00,0.0658
704.00,0.0665
703.00,0.0671
702.00,0.0677
701.00,0.0682
700.00,0.0688
699.00,0.0692
698.00,0.0694
697.00,0.0694
696.00,0.0695
695.00,0.0695
694.00,0.0694
693.00,0.0693
692.00,0.0693
691.00,0.0692
690.00,0.0691
689.00,0.0691
688.00,0.0692
687.00,0.0694
686.00,0.0694
685.00,0.0694
684.00,0.0695
683.00,0.0697
682.00,0.0697
681.00,0.0697
680.00,0.0699
679.00,0.0701
678.00,0.0702
677.00,0.0703
676.00,0.0704
675.00,0.0705
674.00,0.0706
673.00,0.0707
672.00,0.0710
671.00,0.0713
670.00,0.0717
669.00,0.0719
668.00,0.0720
667.00,0.0720
666.00,0.0719
665.00,0.0720
664.00,0.0724
663.00,0.0726
662.00,0.0727
661.00,0.0728
660.00,0.0730
659.00,0.0732
658.00,0.0733
657.00,0.0734
656.00,0.0736
655.00,0.0737
654.00,0.0737
653.00,0.0737
652.00,0.0739
651.00,0.0741
650.00,0.0742
649.00,0.0744
648.00,0.0746
647.00,0.0749
646.00,0.0750
645.00,0.0750
644.00,0.0752
643.00,0.0755
642.00,0.0756
641.00,0.0758
640.00,0.0760
639.00,0.0761
638.00,0.0762
637.00,0.0763
636.00,0.0766
635.00,0.0770
634.00,0.0772
633.00,0.0774
632.00,0.0777
631.00,0.0780
630.00,0.0782
629.00,0.0785
628.00,0.0788
627.00,0.0790
626.00,0.0790
625.00,0.0791
624.00,0.0793
623.00,0.0795
622.00,0.0796
621.00,0.0797
620.00,0.0799
619.00,0.0801
618.00,0.0800
617.00,0.0799
616.00,0.0800
615.00,0.0800
614.00,0.0800
613.00,0.0801
612.00,0.0804
611.00,0.0805
610.00,0.0805
609.00,0.0805
608.00,0.0805
607.00,0.0806
606.00,0.0806
605.00,0.0807
604.00,0.0809
603.00,0.0811
602.00,0.0811
601.00,0.0811
600.00,0.0813
599.00,0.0814
598.00,0.0814
597.00,0.0815
596.00,0.0818
595.00,0.0821
594.00,0.0822
593.00,0.0823
592.00,0.0825
591.00,0.0827
590.00,0.0826
589.00,0.0825
588.00,0.0827
587.00,0.0829
586.00,0.0830
585.00,0.0833
584.00,0.0838
583.00,0.0842
582.00,0.0843
581.00,0.0844
580.00,0.0846
579.00,0.0848
578.00,0.0849
577.00,0.0852
576.00,0.0856
575.00,0.0859
574.00,0.0859
573.00,0.0859
572.00,0.0862
571.00,0.0865
570.00,0.0866
569.00,0.0868
568.00,0.0872
567.00,0.0875
566.00,0.0877
565.00,0.0878
564.00,0.0880
563.00,0.0882
562.00,0.0882
561.00,0.0884
560.00,0.0887
559.00,0.0891
558.00,0.0893
557.00,0.0895
556.00,0.0900
555.00,0.0904
554.00,0.0906
553.00,0.0908
552.00,0.0912
551.00,0.0915
550.00,0.0916
549.00,0.0917
548.00,0.0920
547.00,0.0922
546.00,0.0921
545.00,0.0922
544.00,0.0926
543.00,0.0929
542.00,0.0931
541.00,0.0934
540.00,0.0940
539.00,0.0945
538.00,0.0947
537.00,0.0948
536.00,0.0951
535.00,0.0953
534.00,0.0952
533.00,0.0951
532.00,0.0954
531.00,0.0958
530.00,0.0958
529.00,0.0960
528.00,0.0965
527.00,0.0968
526.00,0.0968
525.00,0.0968
524.00,0.0970
523.00,0.0974
522.00,0.0976
521.00,0.0979
520.00,0.0984
519.00,0.0987
518.00,0.0988
517.00,0.0988
516.00,0.0990
515.00,0.0990
514.00,0.0988
513.00,0.0988
512.00,0.0991
511.00,0.0994
510.00,0.0994
509.00,0.0995
508.00,0.0999
507.00,0.1003
506.00,0.1004
505.00,0.1006
504.00,0.1009
503.00,0.1009
502.00,0.1004
501.00,0.1000
500.00,0.1001
499.00,0.1004
498.00,0.1006
497.00,0.1008
496.00,0.1013
495.00,0.1015
494.00,0.1013
493.00,0.1012
492.00,0.1015
491.00,0.1017
490.00,0.1014
489.00,0.1013
488.00,0.1016
487.00,0.1018
486.00,0.1017
485.00,0.1015
484.00,0.1018
483.00,0.1021
482.00,0.1018
481.00,0.1015
480.00,0.1015
479.00,0.1016
478.00,0.1015
477.00,0.1016
476.00,0.1022
475.00,0.1026
474.00,0.1022
473.00,0.1018
472.00,0.1019
471.00,0.1022
470.00,0.1022
469.00,0.1022
468.00,0.1026
467.00,0.1030
466.00,0.1028
465.00,0.1029
464.00,0.1035
463.00,0.1039
462.00,0.1036
461.00,0.1032
460.00,0.1033
459.00,0.1034
458.00,0.1029
457.00,0.1023
456.00,0.1023
455.00,0.1023
454.00,0.1019
453.00,0.1018
452.00,0.1024
451.00,0.1028
450.00,0.1025
449.00,0.1020
448.00,0.1019
447.00,0.1015
446.00,0.1008
445.00,0.1004
444.00,0.1006
443.00,0.1007
442.00,0.1001
441.00,0.0996
440.00,0.0999
439.00,0.1003
438.00,0.1000
437.00,0.0996
436.00,0.0997
435.00,0.0995
434.00,0.0986
433.00,0.0981
432.00,0.0986
431.00,0.0992
430.00,0.0992
429.00,0.0989
428.00,0.0992
427.00,0.0992
426.00,0.0986
425.00,0.0982
424.00,0.0990
423.00,0.0996
422.00,0.0992
421.00,0.0986
420.00,0.0990
419.00,0.0996
418.00,0.0992
417.00,0.0991
416.00,0.1000
415.00,0.1004
414.00,0.0997
413.00,0.0993
412.00,0.1004
411.00,0.1014
410.00,0.1006
409.00,0.0996
408.00,0.0995
407.00,0.0992
406.00,0.0976
405.00,0.0963
404.00,0.0967
403.00,0.0973
402.00,0.0966
401.00,0.0965
400.00,0.0987
