Created as New Dataset,Sample 678 By YargerLab Date Thursday, June 12 2025
cm-1,A
4000.00,0.0067
3999.00,0.0067
3998.00,0.0068
3997.00,0.0068
3996.00,0.0068
3995.00,0.0068
3994.00,0.0068
3993.00,0.0068
3992.00,0.0068
3991.00,0.0069
3990.00,0.0069
3989.00,0.0068
3988.00,0.0068
3987.00,0.0068
3986.00,0.0068
3985.00,0.0068
3984.00,0.0068
3983.00,0.0067
3982.00,0.0067
3981.00,0.0068
3980.00,0.0068
3979.00,0.0068
3978.00,0.0068
3977.00,0.0068
3976.00,0.0068
3975.00,0.0068
3974.00,0.0067
3973.00,0.0067
3972.00,0.0067
3971.00,0.0068
3970.00,0.0068
3969.00,0.0068
3968.00,0.0068
3967.00,0.0068
3966.00,0.0068
3965.00,0.0068
3964.00,0.0068
3963.00,0.0068
3962.00,0.0068
3961.00,0.0068
3960.00,0.0068
3959.00,0.0068
3958.00,0.0068
3957.00,0.0068
3956.00,0.0068
3955.00,0.0068
3954.00,0.0068
3953.00,0.0068
3952.00,0.0068
3951.00,0.0068
3950.00,0.0068
3949.00,0.0068
3948.00,0.0068
3947.00,0.0068
3946.00,0.0068
3945.00,0.0068
3944.00,0.0069
3943.00,0.0069
3942.00,0.0069
3941.00,0.0069
3940.00,0.0068
3939.00,0.0068
3938.00,0.0068
3937.00,0.0068
3936.00,0.0068
3935.00,0.0068
3934.00,0.0068
3933.00,0.0068
3932.00,0.0067
3931.00,0.0067
3930.00,0.0067
3929.00,0.0067
3928.00,0.0067
3927.00,0.0068
3926.00,0.0068
3925.00,0.0068
3924.00,0.0068
3923.00,0.0068
3922.00,0.0068
3921.00,0.0068
3920.00,0.0068
3919.00,0.0068
3918.00,0.0068
3917.00,0.0068
3916.00,0.0068
3915.00,0.0067
3914.00,0.0067
3913.00,0.0067
3912.00,0.0067
3911.00,0.0067
3910.00,0.0067
3909.00,0.0067
3908.00,0.0067
3907.00,0.0067
3906.00,0.0067
3905.00,0.0067
3904.00,0.0067
3903.00,0.0067
3902.00,0.0067
3901.00,0.0067
3900.00,0.0068
3899.00,0.0068
3898.00,0.0067
3897.00,0.0067
3896.00,0.0067
3895.00,0.0067
3894.00,0.0067
3893.00,0.0067
3892.00,0.0067
3891.00,0.0067
3890.00,0.0067
3889.00,0.0067
3888.00,0.0067
3887.00,0.0067
3886.00,0.0067
3885.00,0.0067
3884.00,0.0067
3883.00,0.0067
3882.00,0.0067
3881.00,0.0067
3880.00,0.0067
3879.00,0.0066
3878.00,0.0066
3877.00,0.0066
3876.00,0.0066
3875.00,0.0066
3874.00,0.0066
3873.00,0.0066
3872.00,0.0066
3871.00,0.0066
3870.00,0.0066
3869.00,0.0066
3868.00,0.0066
3867.00,0.0066
3866.00,0.0066
3865.00,0.0066
3864.00,0.0066
3863.00,0.0066
3862.00,0.0066
3861.00,0.0066
3860.00,0.0066
3859.00,0.0066
3858.00,0.0066
3857.00,0.0065
3856.00,0.0065
3855.00,0.0065
3854.00,0.0065
3853.00,0.0065
3852.00,0.0065
3851.00,0.0065
3850.00,0.0065
3849.00,0.0065
3848.00,0.0065
3847.00,0.0066
3846.00,0.0066
3845.00,0.0066
3844.00,0.0066
3843.00,0.0066
3842.00,0.0066
3841.00,0.0066
3840.00,0.0066
3839.00,0.0065
3838.00,0.0065
3837.00,0.0065
3836.00,0.0065
3835.00,0.0065
3834.00,0.0065
3833.00,0.0065
3832.00,0.0066
3831.00,0.0066
3830.00,0.0066
3829.00,0.0066
3828.00,0.0066
3827.00,0.0066
3826.00,0.0065
3825.00,0.0065
3824.00,0.0065
3823.00,0.0066
3822.00,0.0066
3821.00,0.0066
3820.00,0.0066
3819.00,0.0066
3818.00,0.0066
3817.00,0.0066
3816.00,0.0066
3815.00,0.0066
3814.00,0.0065
3813.00,0.0065
3812.00,0.0065
3811.00,0.0065
3810.00,0.0066
3809.00,0.0066
3808.00,0.0066
3807.00,0.0066
3806.00,0.0066
3805.00,0.0066
3804.00,0.0066
3803.00,0.0066
3802.00,0.0066
3801.00,0.0066
3800.00,0.0067
3799.00,0.0067
3798.00,0.0067
3797.00,0.0067
3796.00,0.0067
3795.00,0.0067
3794.00,0.0067
3793.00,0.0067
3792.00,0.0067
3791.00,0.0066
3790.00,0.0066
3789.00,0.0066
3788.00,0.0066
3787.00,0.0066
3786.00,0.0066
3785.00,0.0066
3784.00,0.0066
3783.00,0.0066
3782.00,0.0067
3781.00,0.0067
3780.00,0.0067
3779.00,0.0067
3778.00,0.0067
3777.00,0.0066
3776.00,0.0066
3775.00,0.0066
3774.00,0.0066
3773.00,0.0066
3772.00,0.0066
3771.00,0.0066
3770.00,0.0066
3769.00,0.0066
3768.00,0.0066
3767.00,0.0066
3766.00,0.0066
3765.00,0.0066
3764.00,0.0066
3763.00,0.0066
3762.00,0.0066
3761.00,0.0066
3760.00,0.0066
3759.00,0.0066
3758.00,0.0066
3757.00,0.0066
3756.00,0.0066
3755.00,0.0066
3754.00,0.0066
3753.00,0.0066
3752.00,0.0066
3751.00,0.0066
3750.00,0.0066
3749.00,0.0065
3748.00,0.0065
3747.00,0.0065
3746.00,0.0065
3745.00,0.0065
3744.00,0.0065
3743.00,0.0065
3742.00,0.0065
3741.00,0.0065
3740.00,0.0065
3739.00,0.0065
3738.00,0.0065
3737.00,0.0065
3736.00,0.0065
3735.00,0.0065
3734.00,0.0064
3733.00,0.0064
3732.00,0.0064
3731.00,0.0064
3730.00,0.0065
3729.00,0.0065
3728.00,0.0065
3727.00,0.0065
3726.00,0.0065
3725.00,0.0065
3724.00,0.0065
3723.00,0.0065
3722.00,0.0065
3721.00,0.0065
3720.00,0.0065
3719.00,0.0065
3718.00,0.0065
3717.00,0.0065
3716.00,0.0064
3715.00,0.0064
3714.00,0.0064
3713.00,0.0064
3712.00,0.0064
3711.00,0.0064
3710.00,0.0064
3709.00,0.0064
3708.00,0.0064
3707.00,0.0064
3706.00,0.0064
3705.00,0.0063
3704.00,0.0063
3703.00,0.0063
3702.00,0.0063
3701.00,0.0063
3700.00,0.0064
3699.00,0.0064
3698.00,0.0064
3697.00,0.0063
3696.00,0.0063
3695.00,0.0063
3694.00,0.0063
3693.00,0.0063
3692.00,0.0063
3691.00,0.0063
3690.00,0.0063
3689.00,0.0063
3688.00,0.0063
3687.00,0.0063
3686.00,0.0063
3685.00,0.0063
3684.00,0.0063
3683.00,0.0063
3682.00,0.0063
3681.00,0.0063
3680.00,0.0063
3679.00,0.0062
3678.00,0.0062
3677.00,0.0061
3676.00,0.0061
3675.00,0.0061
3674.00,0.0061
3673.00,0.0060
3672.00,0.0060
3671.00,0.0060
3670.00,0.0060
3669.00,0.0060
3668.00,0.0060
3667.00,0.0061
3666.00,0.0061
3665.00,0.0061
3664.00,0.0062
3663.00,0.0062
3662.00,0.0062
3661.00,0.0062
3660.00,0.0062
3659.00,0.0061
3658.00,0.0061
3657.00,0.0061
3656.00,0.0062
3655.00,0.0062
3654.00,0.0062
3653.00,0.0062
3652.00,0.0062
3651.00,0.0062
3650.00,0.0062
3649.00,0.0062
3648.00,0.0062
3647.00,0.0062
3646.00,0.0062
3645.00,0.0063
3644.00,0.0063
3643.00,0.0064
3642.00,0.0064
3641.00,0.0064
3640.00,0.0064
3639.00,0.0064
3638.00,0.0063
3637.00,0.0063
3636.00,0.0064
3635.00,0.0065
3634.00,0.0066
3633.00,0.0066
3632.00,0.0067
3631.00,0.0067
3630.00,0.0067
3629.00,0.0067
3628.00,0.0067
3627.00,0.0067
3626.00,0.0067
3625.00,0.0067
3624.00,0.0067
3623.00,0.0067
3622.00,0.0067
3621.00,0.0067
3620.00,0.0067
3619.00,0.0068
3618.00,0.0068
3617.00,0.0069
3616.00,0.0069
3615.00,0.0069
3614.00,0.0069
3613.00,0.0069
3612.00,0.0069
3611.00,0.0070
3610.00,0.0070
3609.00,0.0070
3608.00,0.0070
3607.00,0.0070
3606.00,0.0070
3605.00,0.0070
3604.00,0.0071
3603.00,0.0071
3602.00,0.0071
3601.00,0.0070
3600.00,0.0070
3599.00,0.0070
3598.00,0.0071
3597.00,0.0071
3596.00,0.0071
3595.00,0.0071
3594.00,0.0071
3593.00,0.0071
3592.00,0.0071
3591.00,0.0072
3590.00,0.0072
3589.00,0.0072
3588.00,0.0072
3587.00,0.0073
3586.00,0.0073
3585.00,0.0074
3584.00,0.0074
3583.00,0.0074
3582.00,0.0074
3581.00,0.0074
3580.00,0.0074
3579.00,0.0074
3578.00,0.0075
3577.00,0.0075
3576.00,0.0075
3575.00,0.0076
3574.00,0.0076
3573.00,0.0077
3572.00,0.0077
3571.00,0.0077
3570.00,0.0077
3569.00,0.0078
3568.00,0.0078
3567.00,0.0078
3566.00,0.0078
3565.00,0.0078
3564.00,0.0078
3563.00,0.0078
3562.00,0.0079
3561.00,0.0079
3560.00,0.0079
3559.00,0.0080
3558.00,0.0080
3557.00,0.0080
3556.00,0.0080
3555.00,0.0080
3554.00,0.0080
3553.00,0.0080
3552.00,0.0080
3551.00,0.0081
3550.00,0.0081
3549.00,0.0082
3548.00,0.0082
3547.00,0.0082
3546.00,0.0082
3545.00,0.0082
3544.00,0.0082
3543.00,0.0082
3542.00,0.0082
3541.00,0.0082
3540.00,0.0081
3539.00,0.0081
3538.00,0.0082
3537.00,0.0082
3536.00,0.0082
3535.00,0.0082
3534.00,0.0082
3533.00,0.0082
3532.00,0.0082
3531.00,0.0082
3530.00,0.0082
3529.00,0.0082
3528.00,0.0082
3527.00,0.0082
3526.00,0.0082
3525.00,0.0082
3524.00,0.0082
3523.00,0.0082
3522.00,0.0082
3521.00,0.0082
3520.00,0.0082
3519.00,0.0082
3518.00,0.0082
3517.00,0.0082
3516.00,0.0082
3515.00,0.0082
3514.00,0.0082
3513.00,0.0082
3512.00,0.0082
3511.00,0.0082
3510.00,0.0082
3509.00,0.0082
3508.00,0.0082
3507.00,0.0082
3506.00,0.0082
3505.00,0.0082
3504.00,0.0083
3503.00,0.0083
3502.00,0.0083
3501.00,0.0083
3500.00,0.0083
3499.00,0.0083
3498.00,0.0083
3497.00,0.0083
3496.00,0.0083
3495.00,0.0083
3494.00,0.0083
3493.00,0.0083
3492.00,0.0083
3491.00,0.0083
3490.00,0.0083
3489.00,0.0083
3488.00,0.0083
3487.00,0.0083
3486.00,0.0083
3485.00,0.0082
3484.00,0.0082
3483.00,0.0083
3482.00,0.0083
3481.00,0.0083
3480.00,0.0083
3479.00,0.0083
3478.00,0.0082
3477.00,0.0082
3476.00,0.0082
3475.00,0.0082
3474.00,0.0082
3473.00,0.0082
3472.00,0.0082
3471.00,0.0082
3470.00,0.0081
3469.00,0.0081
3468.00,0.0081
3467.00,0.0081
3466.00,0.0082
3465.00,0.0082
3464.00,0.0082
3463.00,0.0082
3462.00,0.0082
3461.00,0.0083
3460.00,0.0083
3459.00,0.0083
3458.00,0.0083
3457.00,0.0083
3456.00,0.0084
3455.00,0.0084
3454.00,0.0085
3453.00,0.0085
3452.00,0.0086
3451.00,0.0086
3450.00,0.0087
3449.00,0.0087
3448.00,0.0087
3447.00,0.0088
3446.00,0.0089
3445.00,0.0090
3444.00,0.0090
3443.00,0.0091
3442.00,0.0091
3441.00,0.0092
3440.00,0.0093
3439.00,0.0094
3438.00,0.0095
3437.00,0.0096
3436.00,0.0097
3435.00,0.0098
3434.00,0.0099
3433.00,0.0100
3432.00,0.0101
3431.00,0.0102
3430.00,0.0104
3429.00,0.0105
3428.00,0.0106
3427.00,0.0107
3426.00,0.0108
3425.00,0.0109
3424.00,0.0110
3423.00,0.0111
3422.00,0.0112
3421.00,0.0113
3420.00,0.0114
3419.00,0.0114
3418.00,0.0115
3417.00,0.0116
3416.00,0.0117
3415.00,0.0117
3414.00,0.0118
3413.00,0.0118
3412.00,0.0118
3411.00,0.0119
3410.00,0.0119
3409.00,0.0120
3408.00,0.0120
3407.00,0.0121
3406.00,0.0121
3405.00,0.0122
3404.00,0.0122
3403.00,0.0123
3402.00,0.0123
3401.00,0.0124
3400.00,0.0125
3399.00,0.0126
3398.00,0.0128
3397.00,0.0129
3396.00,0.0131
3395.00,0.0133
3394.00,0.0134
3393.00,0.0136
3392.00,0.0138
3391.00,0.0140
3390.00,0.0142
3389.00,0.0145
3388.00,0.0148
3387.00,0.0151
3386.00,0.0154
3385.00,0.0156
3384.00,0.0159
3383.00,0.0162
3382.00,0.0165
3381.00,0.0168
3380.00,0.0171
3379.00,0.0175
3378.00,0.0179
3377.00,0.0183
3376.00,0.0188
3375.00,0.0192
3374.00,0.0196
3373.00,0.0201
3372.00,0.0205
3371.00,0.0210
3370.00,0.0215
3369.00,0.0220
3368.00,0.0225
3367.00,0.0231
3366.00,0.0237
3365.00,0.0243
3364.00,0.0250
3363.00,0.0256
3362.00,0.0262
3361.00,0.0268
3360.00,0.0274
3359.00,0.0280
3358.00,0.0286
3357.00,0.0292
3356.00,0.0298
3355.00,0.0304
3354.00,0.0309
3353.00,0.0315
3352.00,0.0320
3351.00,0.0325
3350.00,0.0330
3349.00,0.0335
3348.00,0.0340
3347.00,0.0344
3346.00,0.0348
3345.00,0.0352
3344.00,0.0356
3343.00,0.0359
3342.00,0.0362
3341.00,0.0364
3340.00,0.0366
3339.00,0.0368
3338.00,0.0369
3337.00,0.0370
3336.00,0.0371
3335.00,0.0372
3334.00,0.0372
3333.00,0.0372
3332.00,0.0372
3331.00,0.0371
3330.00,0.0369
3329.00,0.0368
3328.00,0.0366
3327.00,0.0364
3326.00,0.0362
3325.00,0.0360
3324.00,0.0358
3323.00,0.0356
3322.00,0.0354
3321.00,0.0351
3320.00,0.0349
3319.00,0.0346
3318.00,0.0343
3317.00,0.0340
3316.00,0.0336
3315.00,0.0333
3314.00,0.0329
3313.00,0.0326
3312.00,0.0322
3311.00,0.0318
3310.00,0.0313
3309.00,0.0309
3308.00,0.0304
3307.00,0.0300
3306.00,0.0295
3305.00,0.0291
3304.00,0.0287
3303.00,0.0282
3302.00,0.0278
3301.00,0.0274
3300.00,0.0270
3299.00,0.0265
3298.00,0.0261
3297.00,0.0256
3296.00,0.0252
3295.00,0.0248
3294.00,0.0244
3293.00,0.0240
3292.00,0.0236
3291.00,0.0233
3290.00,0.0229
3289.00,0.0226
3288.00,0.0223
3287.00,0.0220
3286.00,0.0217
3285.00,0.0214
3284.00,0.0211
3283.00,0.0208
3282.00,0.0205
3281.00,0.0203
3280.00,0.0200
3279.00,0.0198
3278.00,0.0195
3277.00,0.0193
3276.00,0.0191
3275.00,0.0189
3274.00,0.0187
3273.00,0.0185
3272.00,0.0183
3271.00,0.0181
3270.00,0.0180
3269.00,0.0178
3268.00,0.0177
3267.00,0.0176
3266.00,0.0176
3265.00,0.0175
3264.00,0.0174
3263.00,0.0174
3262.00,0.0173
3261.00,0.0173
3260.00,0.0172
3259.00,0.0172
3258.00,0.0171
3257.00,0.0171
3256.00,0.0170
3255.00,0.0170
3254.00,0.0169
3253.00,0.0169
3252.00,0.0169
3251.00,0.0169
3250.00,0.0169
3249.00,0.0168
3248.00,0.0168
3247.00,0.0168
3246.00,0.0167
3245.00,0.0167
3244.00,0.0166
3243.00,0.0166
3242.00,0.0166
3241.00,0.0165
3240.00,0.0165
3239.00,0.0164
3238.00,0.0163
3237.00,0.0163
3236.00,0.0161
3235.00,0.0160
3234.00,0.0159
3233.00,0.0158
3232.00,0.0157
3231.00,0.0156
3230.00,0.0155
3229.00,0.0154
3228.00,0.0152
3227.00,0.0151
3226.00,0.0150
3225.00,0.0148
3224.00,0.0147
3223.00,0.0146
3222.00,0.0144
3221.00,0.0143
3220.00,0.0141
3219.00,0.0140
3218.00,0.0138
3217.00,0.0137
3216.00,0.0135
3215.00,0.0134
3214.00,0.0133
3213.00,0.0132
3212.00,0.0130
3211.00,0.0129
3210.00,0.0128
3209.00,0.0127
3208.00,0.0126
3207.00,0.0125
3206.00,0.0123
3205.00,0.0122
3204.00,0.0121
3203.00,0.0120
3202.00,0.0119
3201.00,0.0118
3200.00,0.0117
3199.00,0.0116
3198.00,0.0115
3197.00,0.0115
3196.00,0.0114
3195.00,0.0113
3194.00,0.0113
3193.00,0.0112
3192.00,0.0111
3191.00,0.0111
3190.00,0.0110
3189.00,0.0109
3188.00,0.0109
3187.00,0.0108
3186.00,0.0108
3185.00,0.0107
3184.00,0.0107
3183.00,0.0107
3182.00,0.0106
3181.00,0.0106
3180.00,0.0105
3179.00,0.0105
3178.00,0.0104
3177.00,0.0104
3176.00,0.0104
3175.00,0.0104
3174.00,0.0103
3173.00,0.0103
3172.00,0.0103
3171.00,0.0103
3170.00,0.0103
3169.00,0.0103
3168.00,0.0102
3167.00,0.0102
3166.00,0.0102
3165.00,0.0102
3164.00,0.0101
3163.00,0.0101
3162.00,0.0101
3161.00,0.0101
3160.00,0.0101
3159.00,0.0101
3158.00,0.0101
3157.00,0.0101
3156.00,0.0101
3155.00,0.0101
3154.00,0.0101
3153.00,0.0101
3152.00,0.0101
3151.00,0.0101
3150.00,0.0101
3149.00,0.0101
3148.00,0.0101
3147.00,0.0101
3146.00,0.0102
3145.00,0.0102
3144.00,0.0102
3143.00,0.0102
3142.00,0.0102
3141.00,0.0103
3140.00,0.0103
3139.00,0.0104
3138.00,0.0104
3137.00,0.0104
3136.00,0.0104
3135.00,0.0105
3134.00,0.0105
3133.00,0.0106
3132.00,0.0107
3131.00,0.0107
3130.00,0.0108
3129.00,0.0109
3128.00,0.0110
3127.00,0.0111
3126.00,0.0112
3125.00,0.0113
3124.00,0.0114
3123.00,0.0115
3122.00,0.0116
3121.00,0.0117
3120.00,0.0118
3119.00,0.0120
3118.00,0.0122
3117.00,0.0123
3116.00,0.0124
3115.00,0.0126
3114.00,0.0127
3113.00,0.0129
3112.00,0.0130
3111.00,0.0131
3110.00,0.0133
3109.00,0.0134
3108.00,0.0135
3107.00,0.0136
3106.00,0.0136
3105.00,0.0137
3104.00,0.0137
3103.00,0.0137
3102.00,0.0138
3101.00,0.0138
3100.00,0.0138
3099.00,0.0137
3098.00,0.0137
3097.00,0.0136
3096.00,0.0135
3095.00,0.0135
3094.00,0.0134
3093.00,0.0133
3092.00,0.0132
3091.00,0.0131
3090.00,0.0130
3089.00,0.0129
3088.00,0.0128
3087.00,0.0127
3086.00,0.0126
3085.00,0.0124
3084.00,0.0123
3083.00,0.0122
3082.00,0.0121
3081.00,0.0120
3080.00,0.0120
3079.00,0.0119
3078.00,0.0118
3077.00,0.0117
3076.00,0.0117
3075.00,0.0116
3074.00,0.0116
3073.00,0.0116
3072.00,0.0116
3071.00,0.0116
3070.00,0.0116
3069.00,0.0116
3068.00,0.0115
3067.00,0.0115
3066.00,0.0115
3065.00,0.0115
3064.00,0.0115
3063.00,0.0116
3062.00,0.0116
3061.00,0.0116
3060.00,0.0115
3059.00,0.0115
3058.00,0.0113
3057.00,0.0112
3056.00,0.0111
3055.00,0.0109
3054.00,0.0108
3053.00,0.0107
3052.00,0.0106
3051.00,0.0105
3050.00,0.0104
3049.00,0.0103
3048.00,0.0103
3047.00,0.0102
3046.00,0.0102
3045.00,0.0101
3044.00,0.0101
3043.00,0.0101
3042.00,0.0101
3041.00,0.0101
3040.00,0.0101
3039.00,0.0101
3038.00,0.0101
3037.00,0.0102
3036.00,0.0102
3035.00,0.0103
3034.00,0.0103
3033.00,0.0104
3032.00,0.0105
3031.00,0.0105
3030.00,0.0106
3029.00,0.0107
3028.00,0.0108
3027.00,0.0109
3026.00,0.0110
3025.00,0.0111
3024.00,0.0112
3023.00,0.0113
3022.00,0.0114
3021.00,0.0115
3020.00,0.0116
3019.00,0.0117
3018.00,0.0118
3017.00,0.0119
3016.00,0.0120
3015.00,0.0120
3014.00,0.0121
3013.00,0.0122
3012.00,0.0123
3011.00,0.0124
3010.00,0.0126
3009.00,0.0127
3008.00,0.0129
3007.00,0.0131
3006.00,0.0133
3005.00,0.0135
3004.00,0.0137
3003.00,0.0140
3002.00,0.0143
3001.00,0.0146
3000.00,0.0149
2999.00,0.0152
2998.00,0.0155
2997.00,0.0158
2996.00,0.0162
2995.00,0.0165
2994.00,0.0169
2993.00,0.0172
2992.00,0.0175
2991.00,0.0178
2990.00,0.0181
2989.00,0.0183
2988.00,0.0185
2987.00,0.0186
2986.00,0.0185
2985.00,0.0183
2984.00,0.0180
2983.00,0.0175
2982.00,0.0172
2981.00,0.0171
2980.00,0.0171
2979.00,0.0173
2978.00,0.0174
2977.00,0.0175
2976.00,0.0174
2975.00,0.0171
2974.00,0.0166
2973.00,0.0161
2972.00,0.0156
2971.00,0.0153
2970.00,0.0150
2969.00,0.0149
2968.00,0.0148
2967.00,0.0148
2966.00,0.0148
2965.00,0.0149
2964.00,0.0150
2963.00,0.0152
2962.00,0.0155
2961.00,0.0158
2960.00,0.0161
2959.00,0.0165
2958.00,0.0169
2957.00,0.0174
2956.00,0.0180
2955.00,0.0185
2954.00,0.0190
2953.00,0.0195
2952.00,0.0200
2951.00,0.0204
2950.00,0.0208
2949.00,0.0210
2948.00,0.0212
2947.00,0.0212
2946.00,0.0210
2945.00,0.0208
2944.00,0.0205
2943.00,0.0202
2942.00,0.0199
2941.00,0.0195
2940.00,0.0191
2939.00,0.0188
2938.00,0.0186
2937.00,0.0184
2936.00,0.0182
2935.00,0.0180
2934.00,0.0178
2933.00,0.0177
2932.00,0.0175
2931.00,0.0173
2930.00,0.0171
2929.00,0.0169
2928.00,0.0167
2927.00,0.0164
2926.00,0.0162
2925.00,0.0159
2924.00,0.0157
2923.00,0.0155
2922.00,0.0152
2921.00,0.0150
2920.00,0.0148
2919.00,0.0146
2918.00,0.0144
2917.00,0.0142
2916.00,0.0140
2915.00,0.0139
2914.00,0.0138
2913.00,0.0138
2912.00,0.0138
2911.00,0.0138
2910.00,0.0138
2909.00,0.0139
2908.00,0.0140
2907.00,0.0140
2906.00,0.0141
2905.00,0.0142
2904.00,0.0142
2903.00,0.0141
2902.00,0.0141
2901.00,0.0140
2900.00,0.0138
2899.00,0.0136
2898.00,0.0134
2897.00,0.0132
2896.00,0.0130
2895.00,0.0127
2894.00,0.0125
2893.00,0.0122
2892.00,0.0120
2891.00,0.0118
2890.00,0.0116
2889.00,0.0115
2888.00,0.0113
2887.00,0.0112
2886.00,0.0111
2885.00,0.0110
2884.00,0.0109
2883.00,0.0108
2882.00,0.0108
2881.00,0.0108
2880.00,0.0109
2879.00,0.0109
2878.00,0.0110
2877.00,0.0110
2876.00,0.0110
2875.00,0.0110
2874.00,0.0110
2873.00,0.0110
2872.00,0.0110
2871.00,0.0110
2870.00,0.0110
2869.00,0.0110
2868.00,0.0110
2867.00,0.0110
2866.00,0.0110
2865.00,0.0109
2864.00,0.0108
2863.00,0.0108
2862.00,0.0107
2861.00,0.0107
2860.00,0.0107
2859.00,0.0107
2858.00,0.0107
2857.00,0.0107
2856.00,0.0108
2855.00,0.0108
2854.00,0.0109
2853.00,0.0110
2852.00,0.0110
2851.00,0.0111
2850.00,0.0112
2849.00,0.0113
2848.00,0.0113
2847.00,0.0114
2846.00,0.0115
2845.00,0.0115
2844.00,0.0115
2843.00,0.0116
2842.00,0.0116
2841.00,0.0116
2840.00,0.0115
2839.00,0.0115
2838.00,0.0114
2837.00,0.0114
2836.00,0.0113
2835.00,0.0112
2834.00,0.0110
2833.00,0.0109
2832.00,0.0108
2831.00,0.0107
2830.00,0.0106
2829.00,0.0105
2828.00,0.0104
2827.00,0.0104
2826.00,0.0103
2825.00,0.0103
2824.00,0.0103
2823.00,0.0103
2822.00,0.0103
2821.00,0.0103
2820.00,0.0103
2819.00,0.0103
2818.00,0.0103
2817.00,0.0103
2816.00,0.0103
2815.00,0.0103
2814.00,0.0103
2813.00,0.0103
2812.00,0.0103
2811.00,0.0102
2810.00,0.0102
2809.00,0.0102
2808.00,0.0102
2807.00,0.0102
2806.00,0.0102
2805.00,0.0102
2804.00,0.0101
2803.00,0.0101
2802.00,0.0101
2801.00,0.0100
2800.00,0.0100
2799.00,0.0099
2798.00,0.0099
2797.00,0.0098
2796.00,0.0098
2795.00,0.0097
2794.00,0.0097
2793.00,0.0097
2792.00,0.0097
2791.00,0.0096
2790.00,0.0096
2789.00,0.0095
2788.00,0.0095
2787.00,0.0094
2786.00,0.0094
2785.00,0.0094
2784.00,0.0093
2783.00,0.0092
2782.00,0.0092
2781.00,0.0092
2780.00,0.0091
2779.00,0.0091
2778.00,0.0091
2777.00,0.0091
2776.00,0.0090
2775.00,0.0090
2774.00,0.0090
2773.00,0.0090
2772.00,0.0089
2771.00,0.0089
2770.00,0.0089
2769.00,0.0089
2768.00,0.0089
2767.00,0.0089
2766.00,0.0088
2765.00,0.0088
2764.00,0.0088
2763.00,0.0088
2762.00,0.0088
2761.00,0.0088
2760.00,0.0088
2759.00,0.0088
2758.00,0.0088
2757.00,0.0087
2756.00,0.0087
2755.00,0.0087
2754.00,0.0087
2753.00,0.0088
2752.00,0.0088
2751.00,0.0088
2750.00,0.0088
2749.00,0.0088
2748.00,0.0088
2747.00,0.0088
2746.00,0.0088
2745.00,0.0087
2744.00,0.0087
2743.00,0.0087
2742.00,0.0087
2741.00,0.0087
2740.00,0.0087
2739.00,0.0087
2738.00,0.0086
2737.00,0.0086
2736.00,0.0086
2735.00,0.0086
2734.00,0.0085
2733.00,0.0085
2732.00,0.0085
2731.00,0.0085
2730.00,0.0084
2729.00,0.0084
2728.00,0.0084
2727.00,0.0084
2726.00,0.0084
2725.00,0.0084
2724.00,0.0084
2723.00,0.0084
2722.00,0.0084
2721.00,0.0083
2720.00,0.0083
2719.00,0.0083
2718.00,0.0083
2717.00,0.0083
2716.00,0.0083
2715.00,0.0083
2714.00,0.0083
2713.00,0.0084
2712.00,0.0084
2711.00,0.0084
2710.00,0.0084
2709.00,0.0084
2708.00,0.0084
2707.00,0.0084
2706.00,0.0084
2705.00,0.0084
2704.00,0.0084
2703.00,0.0083
2702.00,0.0083
2701.00,0.0083
2700.00,0.0083
2699.00,0.0083
2698.00,0.0083
2697.00,0.0083
2696.00,0.0083
2695.00,0.0083
2694.00,0.0083
2693.00,0.0083
2692.00,0.0083
2691.00,0.0083
2690.00,0.0083
2689.00,0.0082
2688.00,0.0082
2687.00,0.0082
2686.00,0.0082
2685.00,0.0082
2684.00,0.0082
2683.00,0.0082
2682.00,0.0082
2681.00,0.0081
2680.00,0.0081
2679.00,0.0081
2678.00,0.0081
2677.00,0.0081
2676.00,0.0081
2675.00,0.0081
2674.00,0.0081
2673.00,0.0081
2672.00,0.0081
2671.00,0.0081
2670.00,0.0081
2669.00,0.0081
2668.00,0.0082
2667.00,0.0082
2666.00,0.0082
2665.00,0.0083
2664.00,0.0083
2663.00,0.0083
2662.00,0.0084
2661.00,0.0084
2660.00,0.0084
2659.00,0.0085
2658.00,0.0085
2657.00,0.0085
2656.00,0.0085
2655.00,0.0086
2654.00,0.0086
2653.00,0.0086
2652.00,0.0086
2651.00,0.0086
2650.00,0.0086
2649.00,0.0086
2648.00,0.0086
2647.00,0.0086
2646.00,0.0086
2645.00,0.0086
2644.00,0.0086
2643.00,0.0086
2642.00,0.0086
2641.00,0.0086
2640.00,0.0086
2639.00,0.0086
2638.00,0.0086
2637.00,0.0086
2636.00,0.0086
2635.00,0.0086
2634.00,0.0086
2633.00,0.0086
2632.00,0.0086
2631.00,0.0086
2630.00,0.0086
2629.00,0.0086
2628.00,0.0086
2627.00,0.0086
2626.00,0.0086
2625.00,0.0086
2624.00,0.0087
2623.00,0.0087
2622.00,0.0087
2621.00,0.0087
2620.00,0.0087
2619.00,0.0087
2618.00,0.0087
2617.00,0.0087
2616.00,0.0087
2615.00,0.0087
2614.00,0.0087
2613.00,0.0087
2612.00,0.0087
2611.00,0.0087
2610.00,0.0086
2609.00,0.0086
2608.00,0.0086
2607.00,0.0086
2606.00,0.0086
2605.00,0.0086
2604.00,0.0087
2603.00,0.0087
2602.00,0.0087
2601.00,0.0086
2600.00,0.0086
2599.00,0.0086
2598.00,0.0085
2597.00,0.0085
2596.00,0.0085
2595.00,0.0084
2594.00,0.0084
2593.00,0.0084
2592.00,0.0084
2591.00,0.0083
2590.00,0.0083
2589.00,0.0083
2588.00,0.0083
2587.00,0.0082
2586.00,0.0082
2585.00,0.0082
2584.00,0.0082
2583.00,0.0082
2582.00,0.0082
2581.00,0.0082
2580.00,0.0081
2579.00,0.0081
2578.00,0.0081
2577.00,0.0080
2576.00,0.0080
2575.00,0.0080
2574.00,0.0080
2573.00,0.0080
2572.00,0.0080
2571.00,0.0080
2570.00,0.0080
2569.00,0.0080
2568.00,0.0080
2567.00,0.0080
2566.00,0.0079
2565.00,0.0079
2564.00,0.0079
2563.00,0.0079
2562.00,0.0079
2561.00,0.0079
2560.00,0.0079
2559.00,0.0079
2558.00,0.0079
2557.00,0.0079
2556.00,0.0079
2555.00,0.0079
2554.00,0.0078
2553.00,0.0078
2552.00,0.0079
2551.00,0.0079
2550.00,0.0079
2549.00,0.0079
2548.00,0.0079
2547.00,0.0079
2546.00,0.0079
2545.00,0.0079
2544.00,0.0078
2543.00,0.0078
2542.00,0.0078
2541.00,0.0078
2540.00,0.0078
2539.00,0.0078
2538.00,0.0078
2537.00,0.0078
2536.00,0.0078
2535.00,0.0078
2534.00,0.0078
2533.00,0.0078
2532.00,0.0078
2531.00,0.0078
2530.00,0.0078
2529.00,0.0078
2528.00,0.0079
2527.00,0.0079
2526.00,0.0079
2525.00,0.0080
2524.00,0.0080
2523.00,0.0080
2522.00,0.0080
2521.00,0.0080
2520.00,0.0080
2519.00,0.0080
2518.00,0.0080
2517.00,0.0080
2516.00,0.0080
2515.00,0.0080
2514.00,0.0080
2513.00,0.0080
2512.00,0.0080
2511.00,0.0080
2510.00,0.0080
2509.00,0.0080
2508.00,0.0080
2507.00,0.0080
2506.00,0.0080
2505.00,0.0080
2504.00,0.0080
2503.00,0.0079
2502.00,0.0079
2501.00,0.0079
2500.00,0.0080
2499.00,0.0080
2498.00,0.0080
2497.00,0.0079
2496.00,0.0079
2495.00,0.0079
2494.00,0.0079
2493.00,0.0079
2492.00,0.0079
2491.00,0.0079
2490.00,0.0078
2489.00,0.0078
2488.00,0.0078
2487.00,0.0078
2486.00,0.0078
2485.00,0.0077
2484.00,0.0077
2483.00,0.0078
2482.00,0.0078
2481.00,0.0078
2480.00,0.0078
2479.00,0.0078
2478.00,0.0078
2477.00,0.0078
2476.00,0.0078
2475.00,0.0078
2474.00,0.0078
2473.00,0.0078
2472.00,0.0078
2471.00,0.0078
2470.00,0.0077
2469.00,0.0077
2468.00,0.0077
2467.00,0.0077
2466.00,0.0076
2465.00,0.0076
2464.00,0.0077
2463.00,0.0077
2462.00,0.0078
2461.00,0.0078
2460.00,0.0078
2459.00,0.0078
2458.00,0.0078
2457.00,0.0078
2456.00,0.0078
2455.00,0.0078
2454.00,0.0078
2453.00,0.0078
2452.00,0.0078
2451.00,0.0078
2450.00,0.0078
2449.00,0.0078
2448.00,0.0077
2447.00,0.0077
2446.00,0.0077
2445.00,0.0077
2444.00,0.0077
2443.00,0.0077
2442.00,0.0077
2441.00,0.0077
2440.00,0.0077
2439.00,0.0077
2438.00,0.0077
2437.00,0.0076
2436.00,0.0076
2435.00,0.0076
2434.00,0.0076
2433.00,0.0076
2432.00,0.0076
2431.00,0.0076
2430.00,0.0076
2429.00,0.0076
2428.00,0.0075
2427.00,0.0075
2426.00,0.0076
2425.00,0.0076
2424.00,0.0076
2423.00,0.0076
2422.00,0.0076
2421.00,0.0076
2420.00,0.0076
2419.00,0.0076
2418.00,0.0076
2417.00,0.0076
2416.00,0.0077
2415.00,0.0077
2414.00,0.0077
2413.00,0.0076
2412.00,0.0076
2411.00,0.0076
2410.00,0.0076
2409.00,0.0076
2408.00,0.0076
2407.00,0.0075
2406.00,0.0075
2405.00,0.0075
2404.00,0.0075
2403.00,0.0075
2402.00,0.0074
2401.00,0.0074
2400.00,0.0074
2399.00,0.0074
2398.00,0.0074
2397.00,0.0074
2396.00,0.0074
2395.00,0.0074
2394.00,0.0073
2393.00,0.0074
2392.00,0.0074
2391.00,0.0073
2390.00,0.0073
2389.00,0.0072
2388.00,0.0072
2387.00,0.0071
2386.00,0.0071
2385.00,0.0070
2384.00,0.0070
2383.00,0.0069
2382.00,0.0069
2381.00,0.0068
2380.00,0.0068
2379.00,0.0068
2378.00,0.0068
2377.00,0.0068
2376.00,0.0068
2375.00,0.0068
2374.00,0.0068
2373.00,0.0068
2372.00,0.0068
2371.00,0.0068
2370.00,0.0068
2369.00,0.0068
2368.00,0.0068
2367.00,0.0068
2366.00,0.0067
2365.00,0.0067
2364.00,0.0068
2363.00,0.0068
2362.00,0.0068
2361.00,0.0068
2360.00,0.0068
2359.00,0.0069
2358.00,0.0069
2357.00,0.0069
2356.00,0.0069
2355.00,0.0069
2354.00,0.0069
2353.00,0.0068
2352.00,0.0069
2351.00,0.0069
2350.00,0.0069
2349.00,0.0069
2348.00,0.0069
2347.00,0.0070
2346.00,0.0070
2345.00,0.0070
2344.00,0.0070
2343.00,0.0071
2342.00,0.0071
2341.00,0.0071
2340.00,0.0072
2339.00,0.0072
2338.00,0.0072
2337.00,0.0072
2336.00,0.0072
2335.00,0.0072
2334.00,0.0072
2333.00,0.0071
2332.00,0.0071
2331.00,0.0071
2330.00,0.0072
2329.00,0.0074
2328.00,0.0077
2327.00,0.0080
2326.00,0.0083
2325.00,0.0084
2324.00,0.0083
2323.00,0.0081
2322.00,0.0080
2321.00,0.0078
2320.00,0.0077
2319.00,0.0077
2318.00,0.0077
2317.00,0.0076
2316.00,0.0076
2315.00,0.0075
2314.00,0.0075
2313.00,0.0074
2312.00,0.0074
2311.00,0.0073
2310.00,0.0072
2309.00,0.0072
2308.00,0.0073
2307.00,0.0073
2306.00,0.0074
2305.00,0.0074
2304.00,0.0075
2303.00,0.0075
2302.00,0.0075
2301.00,0.0075
2300.00,0.0075
2299.00,0.0075
2298.00,0.0076
2297.00,0.0076
2296.00,0.0077
2295.00,0.0079
2294.00,0.0080
2293.00,0.0081
2292.00,0.0082
2291.00,0.0083
2290.00,0.0083
2289.00,0.0084
2288.00,0.0084
2287.00,0.0084
2286.00,0.0084
2285.00,0.0084
2284.00,0.0083
2283.00,0.0083
2282.00,0.0082
2281.00,0.0081
2280.00,0.0080
2279.00,0.0080
2278.00,0.0079
2277.00,0.0078
2276.00,0.0078
2275.00,0.0078
2274.00,0.0078
2273.00,0.0077
2272.00,0.0077
2271.00,0.0077
2270.00,0.0076
2269.00,0.0077
2268.00,0.0077
2267.00,0.0076
2266.00,0.0076
2265.00,0.0075
2264.00,0.0075
2263.00,0.0075
2262.00,0.0075
2261.00,0.0076
2260.00,0.0077
2259.00,0.0078
2258.00,0.0078
2257.00,0.0077
2256.00,0.0076
2255.00,0.0074
2254.00,0.0073
2253.00,0.0072
2252.00,0.0072
2251.00,0.0072
2250.00,0.0071
2249.00,0.0071
2248.00,0.0071
2247.00,0.0072
2246.00,0.0072
2245.00,0.0072
2244.00,0.0072
2243.00,0.0073
2242.00,0.0073
2241.00,0.0073
2240.00,0.0074
2239.00,0.0074
2238.00,0.0073
2237.00,0.0073
2236.00,0.0072
2235.00,0.0072
2234.00,0.0071
2233.00,0.0070
2232.00,0.0070
2231.00,0.0071
2230.00,0.0071
2229.00,0.0071
2228.00,0.0071
2227.00,0.0071
2226.00,0.0071
2225.00,0.0071
2224.00,0.0072
2223.00,0.0071
2222.00,0.0070
2221.00,0.0069
2220.00,0.0068
2219.00,0.0068
2218.00,0.0067
2217.00,0.0067
2216.00,0.0068
2215.00,0.0068
2214.00,0.0068
2213.00,0.0068
2212.00,0.0068
2211.00,0.0068
2210.00,0.0067
2209.00,0.0067
2208.00,0.0067
2207.00,0.0065
2206.00,0.0064
2205.00,0.0064
2204.00,0.0065
2203.00,0.0065
2202.00,0.0064
2201.00,0.0064
2200.00,0.0064
2199.00,0.0064
2198.00,0.0063
2197.00,0.0063
2196.00,0.0062
2195.00,0.0062
2194.00,0.0062
2193.00,0.0064
2192.00,0.0066
2191.00,0.0068
2190.00,0.0069
2189.00,0.0069
2188.00,0.0069
2187.00,0.0068
2186.00,0.0068
2185.00,0.0067
2184.00,0.0066
2183.00,0.0063
2182.00,0.0061
2181.00,0.0061
2180.00,0.0062
2179.00,0.0063
2178.00,0.0064
2177.00,0.0063
2176.00,0.0063
2175.00,0.0062
2174.00,0.0063
2173.00,0.0065
2172.00,0.0068
2171.00,0.0071
2170.00,0.0073
2169.00,0.0075
2168.00,0.0077
2167.00,0.0078
2166.00,0.0078
2165.00,0.0079
2164.00,0.0082
2163.00,0.0082
2162.00,0.0078
2161.00,0.0068
2160.00,0.0054
2159.00,0.0042
2158.00,0.0035
2157.00,0.0035
2156.00,0.0039
2155.00,0.0043
2154.00,0.0046
2153.00,0.0048
2152.00,0.0050
2151.00,0.0052
2150.00,0.0052
2149.00,0.0053
2148.00,0.0054
2147.00,0.0053
2146.00,0.0052
2145.00,0.0052
2144.00,0.0053
2143.00,0.0053
2142.00,0.0054
2141.00,0.0055
2140.00,0.0055
2139.00,0.0055
2138.00,0.0054
2137.00,0.0051
2136.00,0.0048
2135.00,0.0046
2134.00,0.0045
2133.00,0.0046
2132.00,0.0049
2131.00,0.0052
2130.00,0.0053
2129.00,0.0055
2128.00,0.0057
2127.00,0.0058
2126.00,0.0059
2125.00,0.0060
2124.00,0.0061
2123.00,0.0062
2122.00,0.0063
2121.00,0.0064
2120.00,0.0065
2119.00,0.0065
2118.00,0.0066
2117.00,0.0067
2116.00,0.0068
2115.00,0.0069
2114.00,0.0068
2113.00,0.0068
2112.00,0.0068
2111.00,0.0068
2110.00,0.0068
2109.00,0.0068
2108.00,0.0068
2107.00,0.0068
2106.00,0.0067
2105.00,0.0067
2104.00,0.0067
2103.00,0.0067
2102.00,0.0067
2101.00,0.0067
2100.00,0.0067
2099.00,0.0067
2098.00,0.0065
2097.00,0.0064
2096.00,0.0062
2095.00,0.0062
2094.00,0.0063
2093.00,0.0064
2092.00,0.0066
2091.00,0.0066
2090.00,0.0066
2089.00,0.0066
2088.00,0.0066
2087.00,0.0066
2086.00,0.0066
2085.00,0.0066
2084.00,0.0067
2083.00,0.0067
2082.00,0.0068
2081.00,0.0069
2080.00,0.0070
2079.00,0.0070
2078.00,0.0070
2077.00,0.0070
2076.00,0.0070
2075.00,0.0070
2074.00,0.0070
2073.00,0.0069
2072.00,0.0069
2071.00,0.0068
2070.00,0.0067
2069.00,0.0067
2068.00,0.0067
2067.00,0.0067
2066.00,0.0068
2065.00,0.0068
2064.00,0.0068
2063.00,0.0068
2062.00,0.0068
2061.00,0.0067
2060.00,0.0067
2059.00,0.0067
2058.00,0.0066
2057.00,0.0065
2056.00,0.0064
2055.00,0.0065
2054.00,0.0067
2053.00,0.0071
2052.00,0.0075
2051.00,0.0076
2050.00,0.0072
2049.00,0.0069
2048.00,0.0066
2047.00,0.0065
2046.00,0.0064
2045.00,0.0063
2044.00,0.0063
2043.00,0.0063
2042.00,0.0062
2041.00,0.0062
2040.00,0.0063
2039.00,0.0064
2038.00,0.0063
2037.00,0.0061
2036.00,0.0059
2035.00,0.0056
2034.00,0.0052
2033.00,0.0049
2032.00,0.0049
2031.00,0.0050
2030.00,0.0050
2029.00,0.0051
2028.00,0.0052
2027.00,0.0053
2026.00,0.0054
2025.00,0.0055
2024.00,0.0056
2023.00,0.0056
2022.00,0.0055
2021.00,0.0054
2020.00,0.0054
2019.00,0.0054
2018.00,0.0054
2017.00,0.0054
2016.00,0.0056
2015.00,0.0057
2014.00,0.0057
2013.00,0.0057
2012.00,0.0059
2011.00,0.0060
2010.00,0.0059
2009.00,0.0056
2008.00,0.0054
2007.00,0.0050
2006.00,0.0048
2005.00,0.0049
2004.00,0.0052
2003.00,0.0054
2002.00,0.0055
2001.00,0.0057
2000.00,0.0059
1999.00,0.0061
1998.00,0.0061
1997.00,0.0061
1996.00,0.0062
1995.00,0.0063
1994.00,0.0063
1993.00,0.0064
1992.00,0.0065
1991.00,0.0065
1990.00,0.0064
1989.00,0.0064
1988.00,0.0065
1987.00,0.0066
1986.00,0.0067
1985.00,0.0068
1984.00,0.0071
1983.00,0.0074
1982.00,0.0076
1981.00,0.0076
1980.00,0.0074
1979.00,0.0070
1978.00,0.0064
1977.00,0.0060
1976.00,0.0059
1975.00,0.0058
1974.00,0.0056
1973.00,0.0056
1972.00,0.0056
1971.00,0.0055
1970.00,0.0054
1969.00,0.0053
1968.00,0.0053
1967.00,0.0054
1966.00,0.0053
1965.00,0.0053
1964.00,0.0054
1963.00,0.0055
1962.00,0.0053
1961.00,0.0051
1960.00,0.0051
1959.00,0.0052
1958.00,0.0052
1957.00,0.0053
1956.00,0.0055
1955.00,0.0055
1954.00,0.0055
1953.00,0.0055
1952.00,0.0057
1951.00,0.0058
1950.00,0.0058
1949.00,0.0059
1948.00,0.0060
1947.00,0.0061
1946.00,0.0060
1945.00,0.0060
1944.00,0.0060
1943.00,0.0060
1942.00,0.0060
1941.00,0.0060
1940.00,0.0062
1939.00,0.0063
1938.00,0.0063
1937.00,0.0064
1936.00,0.0064
1935.00,0.0065
1934.00,0.0064
1933.00,0.0064
1932.00,0.0064
1931.00,0.0064
1930.00,0.0063
1929.00,0.0063
1928.00,0.0063
1927.00,0.0063
1926.00,0.0063
1925.00,0.0063
1924.00,0.0064
1923.00,0.0065
1922.00,0.0066
1921.00,0.0066
1920.00,0.0066
1919.00,0.0066
1918.00,0.0067
1917.00,0.0067
1916.00,0.0068
1915.00,0.0067
1914.00,0.0066
1913.00,0.0065
1912.00,0.0064
1911.00,0.0064
1910.00,0.0064
1909.00,0.0064
1908.00,0.0065
1907.00,0.0066
1906.00,0.0065
1905.00,0.0064
1904.00,0.0065
1903.00,0.0064
1902.00,0.0063
1901.00,0.0063
1900.00,0.0063
1899.00,0.0064
1898.00,0.0064
1897.00,0.0063
1896.00,0.0064
1895.00,0.0064
1894.00,0.0063
1893.00,0.0063
1892.00,0.0063
1891.00,0.0063
1890.00,0.0063
1889.00,0.0064
1888.00,0.0065
1887.00,0.0064
1886.00,0.0063
1885.00,0.0063
1884.00,0.0063
1883.00,0.0064
1882.00,0.0063
1881.00,0.0063
1880.00,0.0063
1879.00,0.0064
1878.00,0.0064
1877.00,0.0064
1876.00,0.0065
1875.00,0.0065
1874.00,0.0064
1873.00,0.0064
1872.00,0.0063
1871.00,0.0063
1870.00,0.0063
1869.00,0.0065
1868.00,0.0067
1867.00,0.0068
1866.00,0.0067
1865.00,0.0065
1864.00,0.0065
1863.00,0.0065
1862.00,0.0064
1861.00,0.0064
1860.00,0.0064
1859.00,0.0063
1858.00,0.0063
1857.00,0.0062
1856.00,0.0062
1855.00,0.0062
1854.00,0.0061
1853.00,0.0061
1852.00,0.0060
1851.00,0.0060
1850.00,0.0059
1849.00,0.0059
1848.00,0.0059
1847.00,0.0058
1846.00,0.0058
1845.00,0.0059
1844.00,0.0061
1843.00,0.0063
1842.00,0.0061
1841.00,0.0060
1840.00,0.0059
1839.00,0.0059
1838.00,0.0059
1837.00,0.0059
1836.00,0.0059
1835.00,0.0059
1834.00,0.0059
1833.00,0.0058
1832.00,0.0058
1831.00,0.0058
1830.00,0.0060
1829.00,0.0061
1828.00,0.0061
1827.00,0.0060
1826.00,0.0059
1825.00,0.0060
1824.00,0.0061
1823.00,0.0060
1822.00,0.0059
1821.00,0.0059
1820.00,0.0058
1819.00,0.0057
1818.00,0.0056
1817.00,0.0056
1816.00,0.0057
1815.00,0.0057
1814.00,0.0058
1813.00,0.0058
1812.00,0.0059
1811.00,0.0060
1810.00,0.0061
1809.00,0.0061
1808.00,0.0062
1807.00,0.0062
1806.00,0.0062
1805.00,0.0061
1804.00,0.0061
1803.00,0.0062
1802.00,0.0062
1801.00,0.0063
1800.00,0.0065
1799.00,0.0065
1798.00,0.0065
1797.00,0.0064
1796.00,0.0064
1795.00,0.0063
1794.00,0.0062
1793.00,0.0063
1792.00,0.0066
1791.00,0.0068
1790.00,0.0067
1789.00,0.0066
1788.00,0.0065
1787.00,0.0065
1786.00,0.0065
1785.00,0.0065
1784.00,0.0066
1783.00,0.0066
1782.00,0.0065
1781.00,0.0066
1780.00,0.0067
1779.00,0.0067
1778.00,0.0066
1777.00,0.0065
1776.00,0.0065
1775.00,0.0064
1774.00,0.0063
1773.00,0.0066
1772.00,0.0069
1771.00,0.0072
1770.00,0.0071
1769.00,0.0070
1768.00,0.0071
1767.00,0.0072
1766.00,0.0072
1765.00,0.0071
1764.00,0.0070
1763.00,0.0071
1762.00,0.0073
1761.00,0.0075
1760.00,0.0076
1759.00,0.0076
1758.00,0.0076
1757.00,0.0077
1756.00,0.0079
1755.00,0.0080
1754.00,0.0078
1753.00,0.0078
1752.00,0.0080
1751.00,0.0083
1750.00,0.0085
1749.00,0.0087
1748.00,0.0090
1747.00,0.0091
1746.00,0.0092
1745.00,0.0093
1744.00,0.0095
1743.00,0.0097
1742.00,0.0098
1741.00,0.0100
1740.00,0.0105
1739.00,0.0108
1738.00,0.0109
1737.00,0.0108
1736.00,0.0108
1735.00,0.0112
1734.00,0.0119
1733.00,0.0124
1732.00,0.0128
1731.00,0.0129
1730.00,0.0130
1729.00,0.0131
1728.00,0.0135
1727.00,0.0137
1726.00,0.0139
1725.00,0.0143
1724.00,0.0149
1723.00,0.0156
1722.00,0.0163
1721.00,0.0169
1720.00,0.0179
1719.00,0.0195
1718.00,0.0218
1717.00,0.0246
1716.00,0.0279
1715.00,0.0313
1714.00,0.0349
1713.00,0.0389
1712.00,0.0432
1711.00,0.0480
1710.00,0.0529
1709.00,0.0580
1708.00,0.0632
1707.00,0.0685
1706.00,0.0738
1705.00,0.0790
1704.00,0.0835
1703.00,0.0873
1702.00,0.0908
1701.00,0.0939
1700.00,0.0964
1699.00,0.0982
1698.00,0.0993
1697.00,0.0997
1696.00,0.0993
1695.00,0.0985
1694.00,0.0979
1693.00,0.0978
1692.00,0.0979
1691.00,0.0982
1690.00,0.0987
1689.00,0.0996
1688.00,0.1008
1687.00,0.1024
1686.00,0.1043
1685.00,0.1063
1684.00,0.1081
1683.00,0.1098
1682.00,0.1114
1681.00,0.1129
1680.00,0.1142
1679.00,0.1152
1678.00,0.1157
1677.00,0.1157
1676.00,0.1146
1675.00,0.1127
1674.00,0.1106
1673.00,0.1088
1672.00,0.1073
1671.00,0.1054
1670.00,0.1030
1669.00,0.1005
1668.00,0.0985
1667.00,0.0972
1666.00,0.0965
1665.00,0.0959
1664.00,0.0953
1663.00,0.0945
1662.00,0.0937
1661.00,0.0931
1660.00,0.0928
1659.00,0.0926
1658.00,0.0926
1657.00,0.0927
1656.00,0.0929
1655.00,0.0931
1654.00,0.0929
1653.00,0.0921
1652.00,0.0914
1651.00,0.0914
1650.00,0.0917
1649.00,0.0917
1648.00,0.0909
1647.00,0.0892
1646.00,0.0868
1645.00,0.0843
1644.00,0.0820
1643.00,0.0797
1642.00,0.0771
1641.00,0.0745
1640.00,0.0719
1639.00,0.0696
1638.00,0.0675
1637.00,0.0657
1636.00,0.0640
1635.00,0.0628
1634.00,0.0623
1633.00,0.0623
1632.00,0.0629
1631.00,0.0637
1630.00,0.0649
1629.00,0.0663
1628.00,0.0679
1627.00,0.0695
1626.00,0.0711
1625.00,0.0726
1624.00,0.0741
1623.00,0.0754
1622.00,0.0765
1621.00,0.0773
1620.00,0.0778
1619.00,0.0781
1618.00,0.0779
1617.00,0.0771
1616.00,0.0757
1615.00,0.0742
1614.00,0.0726
1613.00,0.0708
1612.00,0.0687
1611.00,0.0663
1610.00,0.0637
1609.00,0.0609
1608.00,0.0581
1607.00,0.0554
1606.00,0.0528
1605.00,0.0503
1604.00,0.0479
1603.00,0.0456
1602.00,0.0435
1601.00,0.0415
1600.00,0.0396
1599.00,0.0379
1598.00,0.0363
1597.00,0.0348
1596.00,0.0334
1595.00,0.0321
1594.00,0.0309
1593.00,0.0299
1592.00,0.0289
1591.00,0.0280
1590.00,0.0272
1589.00,0.0265
1588.00,0.0259
1587.00,0.0254
1586.00,0.0251
1585.00,0.0249
1584.00,0.0248
1583.00,0.0248
1582.00,0.0249
1581.00,0.0249
1580.00,0.0248
1579.00,0.0244
1578.00,0.0239
1577.00,0.0233
1576.00,0.0227
1575.00,0.0222
1574.00,0.0216
1573.00,0.0210
1572.00,0.0205
1571.00,0.0202
1570.00,0.0201
1569.00,0.0202
1568.00,0.0203
1567.00,0.0205
1566.00,0.0209
1565.00,0.0215
1564.00,0.0223
1563.00,0.0228
1562.00,0.0231
1561.00,0.0232
1560.00,0.0233
1559.00,0.0231
1558.00,0.0224
1557.00,0.0214
1556.00,0.0205
1555.00,0.0197
1554.00,0.0191
1553.00,0.0185
1552.00,0.0181
1551.00,0.0177
1550.00,0.0174
1549.00,0.0173
1548.00,0.0171
1547.00,0.0168
1546.00,0.0167
1545.00,0.0166
1544.00,0.0166
1543.00,0.0165
1542.00,0.0165
1541.00,0.0167
1540.00,0.0171
1539.00,0.0175
1538.00,0.0176
1537.00,0.0176
1536.00,0.0175
1535.00,0.0176
1534.00,0.0179
1533.00,0.0183
1532.00,0.0185
1531.00,0.0186
1530.00,0.0186
1529.00,0.0187
1528.00,0.0189
1527.00,0.0191
1526.00,0.0194
1525.00,0.0196
1524.00,0.0198
1523.00,0.0201
1522.00,0.0208
1521.00,0.0218
1520.00,0.0226
1519.00,0.0233
1518.00,0.0242
1517.00,0.0254
1516.00,0.0268
1515.00,0.0283
1514.00,0.0298
1513.00,0.0316
1512.00,0.0337
1511.00,0.0360
1510.00,0.0384
1509.00,0.0410
1508.00,0.0445
1507.00,0.0493
1506.00,0.0547
1505.00,0.0596
1504.00,0.0639
1503.00,0.0680
1502.00,0.0726
1501.00,0.0776
1500.00,0.0828
1499.00,0.0882
1498.00,0.0936
1497.00,0.0989
1496.00,0.1038
1495.00,0.1082
1494.00,0.1121
1493.00,0.1155
1492.00,0.1183
1491.00,0.1204
1490.00,0.1218
1489.00,0.1224
1488.00,0.1221
1487.00,0.1212
1486.00,0.1200
1485.00,0.1184
1484.00,0.1165
1483.00,0.1142
1482.00,0.1115
1481.00,0.1087
1480.00,0.1058
1479.00,0.1032
1478.00,0.1005
1477.00,0.0975
1476.00,0.0942
1475.00,0.0908
1474.00,0.0871
1473.00,0.0831
1472.00,0.0790
1471.00,0.0755
1470.00,0.0729
1469.00,0.0709
1468.00,0.0692
1467.00,0.0677
1466.00,0.0664
1465.00,0.0652
1464.00,0.0642
1463.00,0.0633
1462.00,0.0626
1461.00,0.0620
1460.00,0.0613
1459.00,0.0606
1458.00,0.0597
1457.00,0.0589
1456.00,0.0583
1455.00,0.0582
1454.00,0.0586
1453.00,0.0596
1452.00,0.0613
1451.00,0.0639
1450.00,0.0675
1449.00,0.0719
1448.00,0.0764
1447.00,0.0798
1446.00,0.0813
1445.00,0.0809
1444.00,0.0792
1443.00,0.0771
1442.00,0.0752
1441.00,0.0742
1440.00,0.0742
1439.00,0.0750
1438.00,0.0769
1437.00,0.0800
1436.00,0.0836
1435.00,0.0870
1434.00,0.0898
1433.00,0.0920
1432.00,0.0933
1431.00,0.0936
1430.00,0.0928
1429.00,0.0912
1428.00,0.0891
1427.00,0.0867
1426.00,0.0843
1425.00,0.0827
1424.00,0.0825
1423.00,0.0841
1422.00,0.0877
1421.00,0.0927
1420.00,0.0981
1419.00,0.1020
1418.00,0.1023
1417.00,0.0991
1416.00,0.0932
1415.00,0.0858
1414.00,0.0781
1413.00,0.0709
1412.00,0.0645
1411.00,0.0591
1410.00,0.0547
1409.00,0.0512
1408.00,0.0483
1407.00,0.0458
1406.00,0.0437
1405.00,0.0418
1404.00,0.0402
1403.00,0.0388
1402.00,0.0378
1401.00,0.0370
1400.00,0.0364
1399.00,0.0361
1398.00,0.0361
1397.00,0.0363
1396.00,0.0368
1395.00,0.0378
1394.00,0.0391
1393.00,0.0406
1392.00,0.0423
1391.00,0.0442
1390.00,0.0463
1389.00,0.0488
1388.00,0.0517
1387.00,0.0549
1386.00,0.0582
1385.00,0.0613
1384.00,0.0642
1383.00,0.0666
1382.00,0.0683
1381.00,0.0689
1380.00,0.0681
1379.00,0.0660
1378.00,0.0630
1377.00,0.0598
1376.00,0.0567
1375.00,0.0544
1374.00,0.0530
1373.00,0.0529
1372.00,0.0536
1371.00,0.0550
1370.00,0.0567
1369.00,0.0584
1368.00,0.0594
1367.00,0.0594
1366.00,0.0582
1365.00,0.0555
1364.00,0.0516
1363.00,0.0469
1362.00,0.0420
1361.00,0.0377
1360.00,0.0343
1359.00,0.0318
1358.00,0.0299
1357.00,0.0286
1356.00,0.0276
1355.00,0.0271
1354.00,0.0268
1353.00,0.0268
1352.00,0.0270
1351.00,0.0275
1350.00,0.0281
1349.00,0.0289
1348.00,0.0299
1347.00,0.0310
1346.00,0.0323
1345.00,0.0337
1344.00,0.0351
1343.00,0.0365
1342.00,0.0380
1341.00,0.0395
1340.00,0.0409
1339.00,0.0424
1338.00,0.0438
1337.00,0.0452
1336.00,0.0465
1335.00,0.0478
1334.00,0.0490
1333.00,0.0501
1332.00,0.0511
1331.00,0.0519
1330.00,0.0524
1329.00,0.0527
1328.00,0.0528
1327.00,0.0527
1326.00,0.0526
1325.00,0.0526
1324.00,0.0529
1323.00,0.0535
1322.00,0.0546
1321.00,0.0560
1320.00,0.0579
1319.00,0.0602
1318.00,0.0627
1317.00,0.0654
1316.00,0.0681
1315.00,0.0707
1314.00,0.0734
1313.00,0.0760
1312.00,0.0786
1311.00,0.0811
1310.00,0.0836
1309.00,0.0862
1308.00,0.0890
1307.00,0.0918
1306.00,0.0947
1305.00,0.0975
1304.00,0.1000
1303.00,0.1020
1302.00,0.1031
1301.00,0.1032
1300.00,0.1023
1299.00,0.1002
1298.00,0.0974
1297.00,0.0940
1296.00,0.0905
1295.00,0.0872
1294.00,0.0842
1293.00,0.0818
1292.00,0.0802
1291.00,0.0793
1290.00,0.0793
1289.00,0.0800
1288.00,0.0816
1287.00,0.0838
1286.00,0.0867
1285.00,0.0901
1284.00,0.0938
1283.00,0.0977
1282.00,0.1016
1281.00,0.1052
1280.00,0.1084
1279.00,0.1108
1278.00,0.1124
1277.00,0.1130
1276.00,0.1124
1275.00,0.1107
1274.00,0.1079
1273.00,0.1043
1272.00,0.1001
1271.00,0.0954
1270.00,0.0905
1269.00,0.0858
1268.00,0.0812
1267.00,0.0769
1266.00,0.0729
1265.00,0.0693
1264.00,0.0659
1263.00,0.0627
1262.00,0.0597
1261.00,0.0569
1260.00,0.0543
1259.00,0.0519
1258.00,0.0500
1257.00,0.0486
1256.00,0.0479
1255.00,0.0478
1254.00,0.0482
1253.00,0.0490
1252.00,0.0497
1251.00,0.0499
1250.00,0.0493
1249.00,0.0481
1248.00,0.0463
1247.00,0.0443
1246.00,0.0423
1245.00,0.0407
1244.00,0.0395
1243.00,0.0387
1242.00,0.0383
1241.00,0.0383
1240.00,0.0388
1239.00,0.0396
1238.00,0.0408
1237.00,0.0426
1236.00,0.0448
1235.00,0.0477
1234.00,0.0512
1233.00,0.0553
1232.00,0.0601
1231.00,0.0655
1230.00,0.0714
1229.00,0.0778
1228.00,0.0845
1227.00,0.0912
1226.00,0.0981
1225.00,0.1049
1224.00,0.1116
1223.00,0.1182
1222.00,0.1247
1221.00,0.1312
1220.00,0.1375
1219.00,0.1438
1218.00,0.1499
1217.00,0.1559
1216.00,0.1617
1215.00,0.1671
1214.00,0.1722
1213.00,0.1768
1212.00,0.1809
1211.00,0.1843
1210.00,0.1869
1209.00,0.1888
1208.00,0.1900
1207.00,0.1904
1206.00,0.1899
1205.00,0.1883
1204.00,0.1858
1203.00,0.1819
1202.00,0.1769
1201.00,0.1708
1200.00,0.1638
1199.00,0.1562
1198.00,0.1485
1197.00,0.1412
1196.00,0.1348
1195.00,0.1295
1194.00,0.1256
1193.00,0.1229
1192.00,0.1213
1191.00,0.1204
1190.00,0.1196
1189.00,0.1188
1188.00,0.1174
1187.00,0.1152
1186.00,0.1122
1185.00,0.1085
1184.00,0.1045
1183.00,0.1004
1182.00,0.0965
1181.00,0.0931
1180.00,0.0904
1179.00,0.0882
1178.00,0.0866
1177.00,0.0854
1176.00,0.0844
1175.00,0.0835
1174.00,0.0827
1173.00,0.0819
1172.00,0.0808
1171.00,0.0794
1170.00,0.0772
1169.00,0.0743
1168.00,0.0708
1167.00,0.0668
1166.00,0.0629
1165.00,0.0593
1164.00,0.0563
1163.00,0.0541
1162.00,0.0525
1161.00,0.0516
1160.00,0.0512
1159.00,0.0511
1158.00,0.0512
1157.00,0.0512
1156.00,0.0511
1155.00,0.0509
1154.00,0.0506
1153.00,0.0507
1152.00,0.0514
1151.00,0.0529
1150.00,0.0554
1149.00,0.0588
1148.00,0.0631
1147.00,0.0679
1146.00,0.0732
1145.00,0.0790
1144.00,0.0853
1143.00,0.0918
1142.00,0.0984
1141.00,0.1045
1140.00,0.1096
1139.00,0.1128
1138.00,0.1138
1137.00,0.1125
1136.00,0.1093
1135.00,0.1049
1134.00,0.1001
1133.00,0.0958
1132.00,0.0925
1131.00,0.0905
1130.00,0.0902
1129.00,0.0915
1128.00,0.0943
1127.00,0.0982
1126.00,0.1033
1125.00,0.1091
1124.00,0.1154
1123.00,0.1220
1122.00,0.1285
1121.00,0.1348
1120.00,0.1406
1119.00,0.1457
1118.00,0.1497
1117.00,0.1526
1116.00,0.1544
1115.00,0.1548
1114.00,0.1540
1113.00,0.1523
1112.00,0.1499
1111.00,0.1471
1110.00,0.1447
1109.00,0.1433
1108.00,0.1433
1107.00,0.1451
1106.00,0.1485
1105.00,0.1534
1104.00,0.1594
1103.00,0.1658
1102.00,0.1720
1101.00,0.1776
1100.00,0.1822
1099.00,0.1852
1098.00,0.1866
1097.00,0.1865
1096.00,0.1853
1095.00,0.1831
1094.00,0.1803
1093.00,0.1770
1092.00,0.1732
1091.00,0.1686
1090.00,0.1631
1089.00,0.1568
1088.00,0.1499
1087.00,0.1424
1086.00,0.1346
1085.00,0.1269
1084.00,0.1196
1083.00,0.1126
1082.00,0.1061
1081.00,0.1002
1080.00,0.0948
1079.00,0.0899
1078.00,0.0854
1077.00,0.0813
1076.00,0.0777
1075.00,0.0745
1074.00,0.0715
1073.00,0.0689
1072.00,0.0667
1071.00,0.0647
1070.00,0.0631
1069.00,0.0618
1068.00,0.0610
1067.00,0.0606
1066.00,0.0608
1065.00,0.0616
1064.00,0.0632
1063.00,0.0655
1062.00,0.0686
1061.00,0.0725
1060.00,0.0769
1059.00,0.0816
1058.00,0.0865
1057.00,0.0912
1056.00,0.0956
1055.00,0.0994
1054.00,0.1024
1053.00,0.1048
1052.00,0.1065
1051.00,0.1075
1050.00,0.1081
1049.00,0.1087
1048.00,0.1097
1047.00,0.1112
1046.00,0.1134
1045.00,0.1159
1044.00,0.1179
1043.00,0.1183
1042.00,0.1165
1041.00,0.1129
1040.00,0.1083
1039.00,0.1036
1038.00,0.0995
1037.00,0.0966
1036.00,0.0947
1035.00,0.0937
1034.00,0.0935
1033.00,0.0939
1032.00,0.0950
1031.00,0.0967
1030.00,0.0990
1029.00,0.1020
1028.00,0.1058
1027.00,0.1101
1026.00,0.1149
1025.00,0.1200
1024.00,0.1253
1023.00,0.1302
1022.00,0.1345
1021.00,0.1378
1020.00,0.1399
1019.00,0.1407
1018.00,0.1402
1017.00,0.1385
1016.00,0.1359
1015.00,0.1324
1014.00,0.1283
1013.00,0.1238
1012.00,0.1190
1011.00,0.1141
1010.00,0.1091
1009.00,0.1043
1008.00,0.0997
1007.00,0.0954
1006.00,0.0914
1005.00,0.0877
1004.00,0.0843
1003.00,0.0812
1002.00,0.0782
1001.00,0.0754
1000.00,0.0727
999.00,0.0701
998.00,0.0676
997.00,0.0653
996.00,0.0632
995.00,0.0613
994.00,0.0595
993.00,0.0580
992.00,0.0567
991.00,0.0555
990.00,0.0544
989.00,0.0534
988.00,0.0526
987.00,0.0520
986.00,0.0514
985.00,0.0511
984.00,0.0509
983.00,0.0507
982.00,0.0506
981.00,0.0505
980.00,0.0505
979.00,0.0505
978.00,0.0504
977.00,0.0503
976.00,0.0501
975.00,0.0499
974.00,0.0496
973.00,0.0492
972.00,0.0487
971.00,0.0482
970.00,0.0476
969.00,0.0471
968.00,0.0466
967.00,0.0461
966.00,0.0457
965.00,0.0453
964.00,0.0451
963.00,0.0451
962.00,0.0451
961.00,0.0452
960.00,0.0454
959.00,0.0457
958.00,0.0460
957.00,0.0462
956.00,0.0464
955.00,0.0463
954.00,0.0460
953.00,0.0455
952.00,0.0448
951.00,0.0440
950.00,0.0430
949.00,0.0420
948.00,0.0410
947.00,0.0399
946.00,0.0389
945.00,0.0379
944.00,0.0370
943.00,0.0362
942.00,0.0353
941.00,0.0346
940.00,0.0340
939.00,0.0335
938.00,0.0330
937.00,0.0325
936.00,0.0322
935.00,0.0318
934.00,0.0315
933.00,0.0312
932.00,0.0309
931.00,0.0306
930.00,0.0303
929.00,0.0301
928.00,0.0298
927.00,0.0296
926.00,0.0294
925.00,0.0292
924.00,0.0290
923.00,0.0288
922.00,0.0285
921.00,0.0283
920.00,0.0282
919.00,0.0280
918.00,0.0279
917.00,0.0278
916.00,0.0277
915.00,0.0276
914.00,0.0275
913.00,0.0274
912.00,0.0274
911.00,0.0273
910.00,0.0273
909.00,0.0273
908.00,0.0273
907.00,0.0274
906.00,0.0275
905.00,0.0276
904.00,0.0278
903.00,0.0279
902.00,0.0279
901.00,0.0279
900.00,0.0279
899.00,0.0278
898.00,0.0277
897.00,0.0276
896.00,0.0276
895.00,0.0276
894.00,0.0276
893.00,0.0275
892.00,0.0275
891.00,0.0273
890.00,0.0271
889.00,0.0269
888.00,0.0267
887.00,0.0265
886.00,0.0264
885.00,0.0265
884.00,0.0266
883.00,0.0267
882.00,0.0269
881.00,0.0272
880.00,0.0275
879.00,0.0279
878.00,0.0282
877.00,0.0287
876.00,0.0292
875.00,0.0298
874.00,0.0305
873.00,0.0314
872.00,0.0325
871.00,0.0338
870.00,0.0353
869.00,0.0373
868.00,0.0395
867.00,0.0418
866.00,0.0437
865.00,0.0449
864.00,0.0451
863.00,0.0443
862.00,0.0429
861.00,0.0412
860.00,0.0398
859.00,0.0387
858.00,0.0381
857.00,0.0379
856.00,0.0380
855.00,0.0379
854.00,0.0377
853.00,0.0371
852.00,0.0362
851.00,0.0352
850.00,0.0340
849.00,0.0329
848.00,0.0319
847.00,0.0309
846.00,0.0299
845.00,0.0289
844.00,0.0281
843.00,0.0273
842.00,0.0265
841.00,0.0258
840.00,0.0252
839.00,0.0246
838.00,0.0241
837.00,0.0237
836.00,0.0234
835.00,0.0231
834.00,0.0229
833.00,0.0227
832.00,0.0227
831.00,0.0226
830.00,0.0226
829.00,0.0228
828.00,0.0232
827.00,0.0238
826.00,0.0245
825.00,0.0252
824.00,0.0259
823.00,0.0266
822.00,0.0272
821.00,0.0279
820.00,0.0286
819.00,0.0292
818.00,0.0298
817.00,0.0304
816.00,0.0309
815.00,0.0313
814.00,0.0317
813.00,0.0322
812.00,0.0330
811.00,0.0341
810.00,0.0357
809.00,0.0378
808.00,0.0407
807.00,0.0442
806.00,0.0482
805.00,0.0527
804.00,0.0575
803.00,0.0620
802.00,0.0659
801.00,0.0691
800.00,0.0713
799.00,0.0723
798.00,0.0725
797.00,0.0720
796.00,0.0711
795.00,0.0701
794.00,0.0690
793.00,0.0679
792.00,0.0667
791.00,0.0652
790.00,0.0632
789.00,0.0609
788.00,0.0585
787.00,0.0564
786.00,0.0550
785.00,0.0549
784.00,0.0566
783.00,0.0601
782.00,0.0654
781.00,0.0719
780.00,0.0791
779.00,0.0858
778.00,0.0913
777.00,0.0948
776.00,0.0959
775.00,0.0942
774.00,0.0899
773.00,0.0837
772.00,0.0765
771.00,0.0692
770.00,0.0623
769.00,0.0564
768.00,0.0517
767.00,0.0480
766.00,0.0454
765.00,0.0437
764.00,0.0427
763.00,0.0425
762.00,0.0427
761.00,0.0435
760.00,0.0448
759.00,0.0465
758.00,0.0484
757.00,0.0507
756.00,0.0533
755.00,0.0559
754.00,0.0585
753.00,0.0610
752.00,0.0634
751.00,0.0656
750.00,0.0675
749.00,0.0689
748.00,0.0697
747.00,0.0693
746.00,0.0675
745.00,0.0644
744.00,0.0606
743.00,0.0573
742.00,0.0555
741.00,0.0565
740.00,0.0611
739.00,0.0691
738.00,0.0797
737.00,0.0909
736.00,0.1004
735.00,0.1063
734.00,0.1084
733.00,0.1080
732.00,0.1068
731.00,0.1062
730.00,0.1066
729.00,0.1077
728.00,0.1085
727.00,0.1080
726.00,0.1057
725.00,0.1013
724.00,0.0951
723.00,0.0878
722.00,0.0800
721.00,0.0725
720.00,0.0659
719.00,0.0604
718.00,0.0558
717.00,0.0521
716.00,0.0492
715.00,0.0469
714.00,0.0449
713.00,0.0434
712.00,0.0423
711.00,0.0413
710.00,0.0405
709.00,0.0399
708.00,0.0394
707.00,0.0391
706.00,0.0387
705.00,0.0385
704.00,0.0384
703.00,0.0384
702.00,0.0385
701.00,0.0387
700.00,0.0390
699.00,0.0392
698.00,0.0395
697.00,0.0398
696.00,0.0402
695.00,0.0407
694.00,0.0413
693.00,0.0419
692.00,0.0426
691.00,0.0434
690.00,0.0442
689.00,0.0451
688.00,0.0459
687.00,0.0467
686.00,0.0472
685.00,0.0477
684.00,0.0482
683.00,0.0487
682.00,0.0490
681.00,0.0492
680.00,0.0495
679.00,0.0496
678.00,0.0497
677.00,0.0498
676.00,0.0498
675.00,0.0497
674.00,0.0494
673.00,0.0489
672.00,0.0484
671.00,0.0480
670.00,0.0474
669.00,0.0465
668.00,0.0456
667.00,0.0448
666.00,0.0441
665.00,0.0439
664.00,0.0440
663.00,0.0443
662.00,0.0447
661.00,0.0452
660.00,0.0458
659.00,0.0464
658.00,0.0469
657.00,0.0473
656.00,0.0478
655.00,0.0483
654.00,0.0487
653.00,0.0490
652.00,0.0494
651.00,0.0496
650.00,0.0496
649.00,0.0495
648.00,0.0496
647.00,0.0496
646.00,0.0496
645.00,0.0496
644.00,0.0496
643.00,0.0494
642.00,0.0491
641.00,0.0488
640.00,0.0486
639.00,0.0484
638.00,0.0481
637.00,0.0478
636.00,0.0476
635.00,0.0473
634.00,0.0468
633.00,0.0464
632.00,0.0461
631.00,0.0458
630.00,0.0454
629.00,0.0451
628.00,0.0448
627.00,0.0446
626.00,0.0442
625.00,0.0438
624.00,0.0435
623.00,0.0432
622.00,0.0429
621.00,0.0427
620.00,0.0425
619.00,0.0423
618.00,0.0420
617.00,0.0416
616.00,0.0415
615.00,0.0414
614.00,0.0413
613.00,0.0412
612.00,0.0411
611.00,0.0409
610.00,0.0405
609.00,0.0403
608.00,0.0402
607.00,0.0402
606.00,0.0401
605.00,0.0402
604.00,0.0407
603.00,0.0413
602.00,0.0422
601.00,0.0434
600.00,0.0450
599.00,0.0466
598.00,0.0482
597.00,0.0497
596.00,0.0512
595.00,0.0524
594.00,0.0534
593.00,0.0543
592.00,0.0553
591.00,0.0563
590.00,0.0571
589.00,0.0578
588.00,0.0584
587.00,0.0587
586.00,0.0586
585.00,0.0584
584.00,0.0580
583.00,0.0575
582.00,0.0567
581.00,0.0559
580.00,0.0552
579.00,0.0546
578.00,0.0540
577.00,0.0533
576.00,0.0528
575.00,0.0522
574.00,0.0516
573.00,0.0512
572.00,0.0510
571.00,0.0506
570.00,0.0500
569.00,0.0494
568.00,0.0489
567.00,0.0485
566.00,0.0479
565.00,0.0473
564.00,0.0469
563.00,0.0464
562.00,0.0459
561.00,0.0455
560.00,0.0451
559.00,0.0447
558.00,0.0440
557.00,0.0434
556.00,0.0430
555.00,0.0427
554.00,0.0422
553.00,0.0418
552.00,0.0414
551.00,0.0410
550.00,0.0405
549.00,0.0402
548.00,0.0402
547.00,0.0402
546.00,0.0402
545.00,0.0403
544.00,0.0408
543.00,0.0416
542.00,0.0425
541.00,0.0436
540.00,0.0447
539.00,0.0455
538.00,0.0457
537.00,0.0454
536.00,0.0451
535.00,0.0446
534.00,0.0439
533.00,0.0431
532.00,0.0424
531.00,0.0417
530.00,0.0410
529.00,0.0404
528.00,0.0401
527.00,0.0397
526.00,0.0393
525.00,0.0390
524.00,0.0388
523.00,0.0386
522.00,0.0383
521.00,0.0382
520.00,0.0383
519.00,0.0383
518.00,0.0380
517.00,0.0376
516.00,0.0375
515.00,0.0375
514.00,0.0375
513.00,0.0375
512.00,0.0377
511.00,0.0379
510.00,0.0379
509.00,0.0381
508.00,0.0384
507.00,0.0387
506.00,0.0386
505.00,0.0385
504.00,0.0384
503.00,0.0382
502.00,0.0377
501.00,0.0373
500.00,0.0373
499.00,0.0373
498.00,0.0374
497.00,0.0377
496.00,0.0382
495.00,0.0388
494.00,0.0391
493.00,0.0393
492.00,0.0397
491.00,0.0398
490.00,0.0396
489.00,0.0395
488.00,0.0397
487.00,0.0398
486.00,0.0396
485.00,0.0394
484.00,0.0396
483.00,0.0396
482.00,0.0393
481.00,0.0389
480.00,0.0387
479.00,0.0387
478.00,0.0386
477.00,0.0389
476.00,0.0398
475.00,0.0409
474.00,0.0420
473.00,0.0438
472.00,0.0464
471.00,0.0492
470.00,0.0514
469.00,0.0533
468.00,0.0548
467.00,0.0555
466.00,0.0550
465.00,0.0542
464.00,0.0537
463.00,0.0533
462.00,0.0525
461.00,0.0517
460.00,0.0507
459.00,0.0491
458.00,0.0467
457.00,0.0444
456.00,0.0428
455.00,0.0415
454.00,0.0400
453.00,0.0387
452.00,0.0377
451.00,0.0368
450.00,0.0356
449.00,0.0344
448.00,0.0336
447.00,0.0329
446.00,0.0321
445.00,0.0316
444.00,0.0316
443.00,0.0316
442.00,0.0315
441.00,0.0317
440.00,0.0324
439.00,0.0328
438.00,0.0326
437.00,0.0324
436.00,0.0326
435.00,0.0328
434.00,0.0327
433.00,0.0327
432.00,0.0331
431.00,0.0334
430.00,0.0332
429.00,0.0330
428.00,0.0334
427.00,0.0339
426.00,0.0340
425.00,0.0342
424.00,0.0349
423.00,0.0353
422.00,0.0350
421.00,0.0348
420.00,0.0355
419.00,0.0365
418.00,0.0370
417.00,0.0376
416.00,0.0383
415.00,0.0383
414.00,0.0374
413.00,0.0367
412.00,0.0369
411.00,0.0371
410.00,0.0367
409.00,0.0366
408.00,0.0371
407.00,0.0375
406.00,0.0372
405.00,0.0373
404.00,0.0382
403.00,0.0382
402.00,0.0366
401.00,0.0356
400.00,0.0371
