Created as New Dataset,Sample 940 By YargerLab Date Monday, July 28 2025
cm-1,A
4000.00,0.0053
3999.00,0.0053
3998.00,0.0053
3997.00,0.0053
3996.00,0.0053
3995.00,0.0053
3994.00,0.0053
3993.00,0.0053
3992.00,0.0053
3991.00,0.0053
3990.00,0.0053
3989.00,0.0053
3988.00,0.0053
3987.00,0.0053
3986.00,0.0053
3985.00,0.0053
3984.00,0.0053
3983.00,0.0053
3982.00,0.0053
3981.00,0.0053
3980.00,0.0053
3979.00,0.0053
3978.00,0.0053
3977.00,0.0052
3976.00,0.0052
3975.00,0.0053
3974.00,0.0053
3973.00,0.0053
3972.00,0.0053
3971.00,0.0053
3970.00,0.0053
3969.00,0.0053
3968.00,0.0053
3967.00,0.0053
3966.00,0.0053
3965.00,0.0053
3964.00,0.0053
3963.00,0.0053
3962.00,0.0052
3961.00,0.0053
3960.00,0.0053
3959.00,0.0053
3958.00,0.0053
3957.00,0.0052
3956.00,0.0052
3955.00,0.0052
3954.00,0.0052
3953.00,0.0052
3952.00,0.0052
3951.00,0.0052
3950.00,0.0052
3949.00,0.0052
3948.00,0.0052
3947.00,0.0052
3946.00,0.0052
3945.00,0.0052
3944.00,0.0052
3943.00,0.0052
3942.00,0.0052
3941.00,0.0053
3940.00,0.0052
3939.00,0.0052
3938.00,0.0052
3937.00,0.0052
3936.00,0.0052
3935.00,0.0052
3934.00,0.0052
3933.00,0.0051
3932.00,0.0052
3931.00,0.0052
3930.00,0.0052
3929.00,0.0052
3928.00,0.0052
3927.00,0.0052
3926.00,0.0052
3925.00,0.0052
3924.00,0.0052
3923.00,0.0052
3922.00,0.0052
3921.00,0.0052
3920.00,0.0052
3919.00,0.0052
3918.00,0.0052
3917.00,0.0052
3916.00,0.0052
3915.00,0.0052
3914.00,0.0052
3913.00,0.0052
3912.00,0.0052
3911.00,0.0052
3910.00,0.0052
3909.00,0.0052
3908.00,0.0052
3907.00,0.0052
3906.00,0.0052
3905.00,0.0052
3904.00,0.0051
3903.00,0.0051
3902.00,0.0051
3901.00,0.0051
3900.00,0.0051
3899.00,0.0051
3898.00,0.0051
3897.00,0.0051
3896.00,0.0051
3895.00,0.0051
3894.00,0.0051
3893.00,0.0051
3892.00,0.0051
3891.00,0.0051
3890.00,0.0051
3889.00,0.0051
3888.00,0.0051
3887.00,0.0051
3886.00,0.0051
3885.00,0.0051
3884.00,0.0051
3883.00,0.0051
3882.00,0.0051
3881.00,0.0051
3880.00,0.0051
3879.00,0.0051
3878.00,0.0051
3877.00,0.0051
3876.00,0.0051
3875.00,0.0051
3874.00,0.0051
3873.00,0.0051
3872.00,0.0051
3871.00,0.0051
3870.00,0.0051
3869.00,0.0051
3868.00,0.0051
3867.00,0.0051
3866.00,0.0050
3865.00,0.0050
3864.00,0.0051
3863.00,0.0051
3862.00,0.0051
3861.00,0.0051
3860.00,0.0051
3859.00,0.0051
3858.00,0.0051
3857.00,0.0052
3856.00,0.0052
3855.00,0.0052
3854.00,0.0052
3853.00,0.0051
3852.00,0.0051
3851.00,0.0050
3850.00,0.0050
3849.00,0.0050
3848.00,0.0050
3847.00,0.0051
3846.00,0.0051
3845.00,0.0051
3844.00,0.0051
3843.00,0.0051
3842.00,0.0051
3841.00,0.0051
3840.00,0.0051
3839.00,0.0051
3838.00,0.0051
3837.00,0.0051
3836.00,0.0051
3835.00,0.0051
3834.00,0.0051
3833.00,0.0051
3832.00,0.0051
3831.00,0.0051
3830.00,0.0052
3829.00,0.0052
3828.00,0.0051
3827.00,0.0051
3826.00,0.0051
3825.00,0.0051
3824.00,0.0051
3823.00,0.0050
3822.00,0.0050
3821.00,0.0050
3820.00,0.0051
3819.00,0.0051
3818.00,0.0051
3817.00,0.0051
3816.00,0.0050
3815.00,0.0050
3814.00,0.0050
3813.00,0.0051
3812.00,0.0051
3811.00,0.0051
3810.00,0.0051
3809.00,0.0051
3808.00,0.0051
3807.00,0.0050
3806.00,0.0050
3805.00,0.0050
3804.00,0.0050
3803.00,0.0050
3802.00,0.0050
3801.00,0.0050
3800.00,0.0050
3799.00,0.0050
3798.00,0.0050
3797.00,0.0050
3796.00,0.0050
3795.00,0.0051
3794.00,0.0051
3793.00,0.0051
3792.00,0.0051
3791.00,0.0051
3790.00,0.0051
3789.00,0.0051
3788.00,0.0051
3787.00,0.0051
3786.00,0.0051
3785.00,0.0051
3784.00,0.0051
3783.00,0.0051
3782.00,0.0051
3781.00,0.0051
3780.00,0.0051
3779.00,0.0051
3778.00,0.0051
3777.00,0.0051
3776.00,0.0051
3775.00,0.0051
3774.00,0.0051
3773.00,0.0051
3772.00,0.0051
3771.00,0.0051
3770.00,0.0051
3769.00,0.0051
3768.00,0.0051
3767.00,0.0051
3766.00,0.0051
3765.00,0.0051
3764.00,0.0051
3763.00,0.0051
3762.00,0.0051
3761.00,0.0051
3760.00,0.0051
3759.00,0.0051
3758.00,0.0051
3757.00,0.0051
3756.00,0.0051
3755.00,0.0051
3754.00,0.0051
3753.00,0.0050
3752.00,0.0050
3751.00,0.0049
3750.00,0.0049
3749.00,0.0049
3748.00,0.0049
3747.00,0.0050
3746.00,0.0050
3745.00,0.0050
3744.00,0.0050
3743.00,0.0049
3742.00,0.0049
3741.00,0.0049
3740.00,0.0049
3739.00,0.0049
3738.00,0.0049
3737.00,0.0049
3736.00,0.0049
3735.00,0.0049
3734.00,0.0049
3733.00,0.0049
3732.00,0.0049
3731.00,0.0049
3730.00,0.0049
3729.00,0.0049
3728.00,0.0049
3727.00,0.0049
3726.00,0.0049
3725.00,0.0050
3724.00,0.0050
3723.00,0.0050
3722.00,0.0050
3721.00,0.0050
3720.00,0.0050
3719.00,0.0050
3718.00,0.0050
3717.00,0.0050
3716.00,0.0050
3715.00,0.0050
3714.00,0.0050
3713.00,0.0050
3712.00,0.0049
3711.00,0.0049
3710.00,0.0050
3709.00,0.0050
3708.00,0.0050
3707.00,0.0049
3706.00,0.0049
3705.00,0.0049
3704.00,0.0048
3703.00,0.0049
3702.00,0.0049
3701.00,0.0049
3700.00,0.0050
3699.00,0.0050
3698.00,0.0049
3697.00,0.0049
3696.00,0.0049
3695.00,0.0050
3694.00,0.0049
3693.00,0.0049
3692.00,0.0049
3691.00,0.0049
3690.00,0.0049
3689.00,0.0049
3688.00,0.0050
3687.00,0.0050
3686.00,0.0050
3685.00,0.0050
3684.00,0.0051
3683.00,0.0051
3682.00,0.0051
3681.00,0.0051
3680.00,0.0052
3679.00,0.0052
3678.00,0.0052
3677.00,0.0052
3676.00,0.0052
3675.00,0.0053
3674.00,0.0053
3673.00,0.0053
3672.00,0.0052
3671.00,0.0052
3670.00,0.0053
3669.00,0.0053
3668.00,0.0054
3667.00,0.0054
3666.00,0.0054
3665.00,0.0054
3664.00,0.0054
3663.00,0.0055
3662.00,0.0055
3661.00,0.0055
3660.00,0.0055
3659.00,0.0055
3658.00,0.0055
3657.00,0.0055
3656.00,0.0055
3655.00,0.0055
3654.00,0.0055
3653.00,0.0055
3652.00,0.0055
3651.00,0.0055
3650.00,0.0056
3649.00,0.0056
3648.00,0.0057
3647.00,0.0058
3646.00,0.0058
3645.00,0.0059
3644.00,0.0059
3643.00,0.0059
3642.00,0.0059
3641.00,0.0060
3640.00,0.0060
3639.00,0.0060
3638.00,0.0061
3637.00,0.0061
3636.00,0.0061
3635.00,0.0061
3634.00,0.0062
3633.00,0.0062
3632.00,0.0062
3631.00,0.0063
3630.00,0.0063
3629.00,0.0064
3628.00,0.0064
3627.00,0.0065
3626.00,0.0065
3625.00,0.0066
3624.00,0.0066
3623.00,0.0066
3622.00,0.0067
3621.00,0.0067
3620.00,0.0067
3619.00,0.0068
3618.00,0.0069
3617.00,0.0069
3616.00,0.0069
3615.00,0.0070
3614.00,0.0070
3613.00,0.0071
3612.00,0.0072
3611.00,0.0072
3610.00,0.0072
3609.00,0.0073
3608.00,0.0073
3607.00,0.0074
3606.00,0.0075
3605.00,0.0075
3604.00,0.0076
3603.00,0.0077
3602.00,0.0077
3601.00,0.0078
3600.00,0.0079
3599.00,0.0079
3598.00,0.0080
3597.00,0.0080
3596.00,0.0081
3595.00,0.0081
3594.00,0.0082
3593.00,0.0083
3592.00,0.0083
3591.00,0.0084
3590.00,0.0085
3589.00,0.0085
3588.00,0.0086
3587.00,0.0087
3586.00,0.0088
3585.00,0.0089
3584.00,0.0089
3583.00,0.0090
3582.00,0.0091
3581.00,0.0091
3580.00,0.0092
3579.00,0.0093
3578.00,0.0094
3577.00,0.0094
3576.00,0.0095
3575.00,0.0096
3574.00,0.0097
3573.00,0.0098
3572.00,0.0099
3571.00,0.0099
3570.00,0.0099
3569.00,0.0100
3568.00,0.0100
3567.00,0.0101
3566.00,0.0102
3565.00,0.0103
3564.00,0.0104
3563.00,0.0105
3562.00,0.0106
3561.00,0.0107
3560.00,0.0108
3559.00,0.0109
3558.00,0.0110
3557.00,0.0111
3556.00,0.0111
3555.00,0.0112
3554.00,0.0112
3553.00,0.0113
3552.00,0.0114
3551.00,0.0115
3550.00,0.0116
3549.00,0.0116
3548.00,0.0117
3547.00,0.0118
3546.00,0.0119
3545.00,0.0120
3544.00,0.0121
3543.00,0.0121
3542.00,0.0122
3541.00,0.0123
3540.00,0.0124
3539.00,0.0125
3538.00,0.0126
3537.00,0.0126
3536.00,0.0127
3535.00,0.0128
3534.00,0.0128
3533.00,0.0129
3532.00,0.0130
3531.00,0.0130
3530.00,0.0131
3529.00,0.0132
3528.00,0.0132
3527.00,0.0133
3526.00,0.0134
3525.00,0.0135
3524.00,0.0136
3523.00,0.0136
3522.00,0.0137
3521.00,0.0138
3520.00,0.0139
3519.00,0.0139
3518.00,0.0140
3517.00,0.0141
3516.00,0.0142
3515.00,0.0143
3514.00,0.0144
3513.00,0.0144
3512.00,0.0145
3511.00,0.0145
3510.00,0.0146
3509.00,0.0147
3508.00,0.0148
3507.00,0.0149
3506.00,0.0150
3505.00,0.0151
3504.00,0.0152
3503.00,0.0153
3502.00,0.0154
3501.00,0.0155
3500.00,0.0156
3499.00,0.0156
3498.00,0.0157
3497.00,0.0158
3496.00,0.0159
3495.00,0.0160
3494.00,0.0161
3493.00,0.0162
3492.00,0.0163
3491.00,0.0163
3490.00,0.0165
3489.00,0.0166
3488.00,0.0167
3487.00,0.0168
3486.00,0.0169
3485.00,0.0170
3484.00,0.0171
3483.00,0.0172
3482.00,0.0173
3481.00,0.0174
3480.00,0.0175
3479.00,0.0176
3478.00,0.0177
3477.00,0.0178
3476.00,0.0179
3475.00,0.0180
3474.00,0.0181
3473.00,0.0182
3472.00,0.0183
3471.00,0.0184
3470.00,0.0185
3469.00,0.0187
3468.00,0.0188
3467.00,0.0188
3466.00,0.0189
3465.00,0.0190
3464.00,0.0190
3463.00,0.0191
3462.00,0.0192
3461.00,0.0193
3460.00,0.0194
3459.00,0.0195
3458.00,0.0196
3457.00,0.0197
3456.00,0.0198
3455.00,0.0199
3454.00,0.0200
3453.00,0.0200
3452.00,0.0201
3451.00,0.0202
3450.00,0.0203
3449.00,0.0204
3448.00,0.0205
3447.00,0.0206
3446.00,0.0207
3445.00,0.0208
3444.00,0.0209
3443.00,0.0210
3442.00,0.0211
3441.00,0.0212
3440.00,0.0212
3439.00,0.0213
3438.00,0.0214
3437.00,0.0216
3436.00,0.0217
3435.00,0.0218
3434.00,0.0219
3433.00,0.0220
3432.00,0.0221
3431.00,0.0222
3430.00,0.0223
3429.00,0.0224
3428.00,0.0225
3427.00,0.0226
3426.00,0.0227
3425.00,0.0228
3424.00,0.0229
3423.00,0.0230
3422.00,0.0231
3421.00,0.0232
3420.00,0.0234
3419.00,0.0235
3418.00,0.0236
3417.00,0.0237
3416.00,0.0238
3415.00,0.0239
3414.00,0.0240
3413.00,0.0241
3412.00,0.0242
3411.00,0.0243
3410.00,0.0244
3409.00,0.0245
3408.00,0.0246
3407.00,0.0247
3406.00,0.0248
3405.00,0.0249
3404.00,0.0249
3403.00,0.0250
3402.00,0.0250
3401.00,0.0250
3400.00,0.0250
3399.00,0.0251
3398.00,0.0251
3397.00,0.0252
3396.00,0.0252
3395.00,0.0253
3394.00,0.0253
3393.00,0.0253
3392.00,0.0253
3391.00,0.0253
3390.00,0.0253
3389.00,0.0253
3388.00,0.0253
3387.00,0.0253
3386.00,0.0253
3385.00,0.0253
3384.00,0.0253
3383.00,0.0253
3382.00,0.0253
3381.00,0.0253
3380.00,0.0253
3379.00,0.0253
3378.00,0.0253
3377.00,0.0253
3376.00,0.0253
3375.00,0.0253
3374.00,0.0253
3373.00,0.0252
3372.00,0.0252
3371.00,0.0251
3370.00,0.0251
3369.00,0.0251
3368.00,0.0251
3367.00,0.0252
3366.00,0.0252
3365.00,0.0253
3364.00,0.0253
3363.00,0.0253
3362.00,0.0253
3361.00,0.0254
3360.00,0.0254
3359.00,0.0255
3358.00,0.0255
3357.00,0.0255
3356.00,0.0255
3355.00,0.0256
3354.00,0.0256
3353.00,0.0256
3352.00,0.0256
3351.00,0.0255
3350.00,0.0256
3349.00,0.0256
3348.00,0.0257
3347.00,0.0257
3346.00,0.0258
3345.00,0.0258
3344.00,0.0258
3343.00,0.0258
3342.00,0.0258
3341.00,0.0258
3340.00,0.0258
3339.00,0.0258
3338.00,0.0258
3337.00,0.0259
3336.00,0.0260
3335.00,0.0261
3334.00,0.0262
3333.00,0.0262
3332.00,0.0263
3331.00,0.0263
3330.00,0.0263
3329.00,0.0263
3328.00,0.0263
3327.00,0.0263
3326.00,0.0263
3325.00,0.0264
3324.00,0.0264
3323.00,0.0265
3322.00,0.0266
3321.00,0.0267
3320.00,0.0268
3319.00,0.0268
3318.00,0.0269
3317.00,0.0269
3316.00,0.0270
3315.00,0.0271
3314.00,0.0271
3313.00,0.0271
3312.00,0.0271
3311.00,0.0271
3310.00,0.0271
3309.00,0.0270
3308.00,0.0270
3307.00,0.0271
3306.00,0.0272
3305.00,0.0273
3304.00,0.0274
3303.00,0.0276
3302.00,0.0277
3301.00,0.0278
3300.00,0.0279
3299.00,0.0279
3298.00,0.0279
3297.00,0.0280
3296.00,0.0280
3295.00,0.0280
3294.00,0.0281
3293.00,0.0281
3292.00,0.0282
3291.00,0.0284
3290.00,0.0285
3289.00,0.0286
3288.00,0.0287
3287.00,0.0287
3286.00,0.0288
3285.00,0.0288
3284.00,0.0288
3283.00,0.0289
3282.00,0.0289
3281.00,0.0289
3280.00,0.0289
3279.00,0.0290
3278.00,0.0290
3277.00,0.0290
3276.00,0.0290
3275.00,0.0289
3274.00,0.0289
3273.00,0.0289
3272.00,0.0288
3271.00,0.0288
3270.00,0.0289
3269.00,0.0289
3268.00,0.0290
3267.00,0.0290
3266.00,0.0290
3265.00,0.0290
3264.00,0.0289
3263.00,0.0289
3262.00,0.0289
3261.00,0.0288
3260.00,0.0288
3259.00,0.0288
3258.00,0.0288
3257.00,0.0287
3256.00,0.0286
3255.00,0.0286
3254.00,0.0286
3253.00,0.0285
3252.00,0.0285
3251.00,0.0284
3250.00,0.0284
3249.00,0.0283
3248.00,0.0282
3247.00,0.0282
3246.00,0.0282
3245.00,0.0282
3244.00,0.0282
3243.00,0.0282
3242.00,0.0282
3241.00,0.0281
3240.00,0.0281
3239.00,0.0280
3238.00,0.0279
3237.00,0.0278
3236.00,0.0277
3235.00,0.0276
3234.00,0.0276
3233.00,0.0275
3232.00,0.0275
3231.00,0.0275
3230.00,0.0275
3229.00,0.0275
3228.00,0.0275
3227.00,0.0275
3226.00,0.0274
3225.00,0.0274
3224.00,0.0273
3223.00,0.0272
3222.00,0.0272
3221.00,0.0271
3220.00,0.0271
3219.00,0.0270
3218.00,0.0270
3217.00,0.0269
3216.00,0.0268
3215.00,0.0268
3214.00,0.0267
3213.00,0.0267
3212.00,0.0266
3211.00,0.0265
3210.00,0.0265
3209.00,0.0264
3208.00,0.0263
3207.00,0.0262
3206.00,0.0261
3205.00,0.0260
3204.00,0.0259
3203.00,0.0258
3202.00,0.0258
3201.00,0.0257
3200.00,0.0256
3199.00,0.0255
3198.00,0.0255
3197.00,0.0254
3196.00,0.0253
3195.00,0.0251
3194.00,0.0250
3193.00,0.0249
3192.00,0.0248
3191.00,0.0247
3190.00,0.0246
3189.00,0.0245
3188.00,0.0244
3187.00,0.0242
3186.00,0.0241
3185.00,0.0240
3184.00,0.0239
3183.00,0.0238
3182.00,0.0236
3181.00,0.0235
3180.00,0.0234
3179.00,0.0233
3178.00,0.0232
3177.00,0.0230
3176.00,0.0229
3175.00,0.0228
3174.00,0.0227
3173.00,0.0226
3172.00,0.0225
3171.00,0.0223
3170.00,0.0222
3169.00,0.0221
3168.00,0.0220
3167.00,0.0219
3166.00,0.0217
3165.00,0.0216
3164.00,0.0215
3163.00,0.0214
3162.00,0.0212
3161.00,0.0211
3160.00,0.0210
3159.00,0.0209
3158.00,0.0207
3157.00,0.0206
3156.00,0.0205
3155.00,0.0203
3154.00,0.0202
3153.00,0.0201
3152.00,0.0200
3151.00,0.0199
3150.00,0.0198
3149.00,0.0197
3148.00,0.0196
3147.00,0.0195
3146.00,0.0194
3145.00,0.0194
3144.00,0.0193
3143.00,0.0192
3142.00,0.0190
3141.00,0.0189
3140.00,0.0188
3139.00,0.0187
3138.00,0.0186
3137.00,0.0185
3136.00,0.0185
3135.00,0.0184
3134.00,0.0184
3133.00,0.0183
3132.00,0.0182
3131.00,0.0181
3130.00,0.0180
3129.00,0.0180
3128.00,0.0179
3127.00,0.0179
3126.00,0.0178
3125.00,0.0178
3124.00,0.0177
3123.00,0.0176
3122.00,0.0175
3121.00,0.0174
3120.00,0.0173
3119.00,0.0172
3118.00,0.0172
3117.00,0.0171
3116.00,0.0171
3115.00,0.0171
3114.00,0.0171
3113.00,0.0171
3112.00,0.0171
3111.00,0.0170
3110.00,0.0170
3109.00,0.0169
3108.00,0.0168
3107.00,0.0168
3106.00,0.0168
3105.00,0.0167
3104.00,0.0167
3103.00,0.0167
3102.00,0.0166
3101.00,0.0166
3100.00,0.0165
3099.00,0.0165
3098.00,0.0165
3097.00,0.0165
3096.00,0.0165
3095.00,0.0165
3094.00,0.0165
3093.00,0.0165
3092.00,0.0165
3091.00,0.0165
3090.00,0.0165
3089.00,0.0165
3088.00,0.0165
3087.00,0.0165
3086.00,0.0165
3085.00,0.0165
3084.00,0.0165
3083.00,0.0165
3082.00,0.0165
3081.00,0.0165
3080.00,0.0165
3079.00,0.0165
3078.00,0.0165
3077.00,0.0165
3076.00,0.0165
3075.00,0.0165
3074.00,0.0165
3073.00,0.0165
3072.00,0.0165
3071.00,0.0164
3070.00,0.0163
3069.00,0.0163
3068.00,0.0162
3067.00,0.0162
3066.00,0.0162
3065.00,0.0162
3064.00,0.0162
3063.00,0.0163
3062.00,0.0163
3061.00,0.0163
3060.00,0.0162
3059.00,0.0162
3058.00,0.0162
3057.00,0.0161
3056.00,0.0161
3055.00,0.0160
3054.00,0.0160
3053.00,0.0160
3052.00,0.0159
3051.00,0.0159
3050.00,0.0159
3049.00,0.0158
3048.00,0.0158
3047.00,0.0157
3046.00,0.0156
3045.00,0.0156
3044.00,0.0155
3043.00,0.0155
3042.00,0.0154
3041.00,0.0155
3040.00,0.0155
3039.00,0.0155
3038.00,0.0155
3037.00,0.0155
3036.00,0.0155
3035.00,0.0155
3034.00,0.0154
3033.00,0.0154
3032.00,0.0154
3031.00,0.0154
3030.00,0.0153
3029.00,0.0153
3028.00,0.0153
3027.00,0.0152
3026.00,0.0151
3025.00,0.0151
3024.00,0.0150
3023.00,0.0149
3022.00,0.0148
3021.00,0.0148
3020.00,0.0147
3019.00,0.0146
3018.00,0.0146
3017.00,0.0145
3016.00,0.0145
3015.00,0.0145
3014.00,0.0145
3013.00,0.0145
3012.00,0.0146
3011.00,0.0147
3010.00,0.0148
3009.00,0.0149
3008.00,0.0150
3007.00,0.0152
3006.00,0.0153
3005.00,0.0155
3004.00,0.0156
3003.00,0.0158
3002.00,0.0160
3001.00,0.0162
3000.00,0.0164
2999.00,0.0167
2998.00,0.0170
2997.00,0.0173
2996.00,0.0176
2995.00,0.0179
2994.00,0.0183
2993.00,0.0186
2992.00,0.0189
2991.00,0.0193
2990.00,0.0196
2989.00,0.0199
2988.00,0.0203
2987.00,0.0206
2986.00,0.0210
2985.00,0.0214
2984.00,0.0219
2983.00,0.0225
2982.00,0.0230
2981.00,0.0236
2980.00,0.0241
2979.00,0.0245
2978.00,0.0248
2977.00,0.0251
2976.00,0.0254
2975.00,0.0257
2974.00,0.0262
2973.00,0.0267
2972.00,0.0274
2971.00,0.0280
2970.00,0.0284
2969.00,0.0288
2968.00,0.0292
2967.00,0.0295
2966.00,0.0298
2965.00,0.0301
2964.00,0.0304
2963.00,0.0308
2962.00,0.0311
2961.00,0.0313
2960.00,0.0315
2959.00,0.0315
2958.00,0.0314
2957.00,0.0312
2956.00,0.0309
2955.00,0.0305
2954.00,0.0300
2953.00,0.0296
2952.00,0.0292
2951.00,0.0288
2950.00,0.0286
2949.00,0.0284
2948.00,0.0283
2947.00,0.0282
2946.00,0.0283
2945.00,0.0285
2944.00,0.0287
2943.00,0.0290
2942.00,0.0293
2941.00,0.0297
2940.00,0.0302
2939.00,0.0308
2938.00,0.0314
2937.00,0.0321
2936.00,0.0330
2935.00,0.0338
2934.00,0.0348
2933.00,0.0357
2932.00,0.0366
2931.00,0.0375
2930.00,0.0383
2929.00,0.0389
2928.00,0.0393
2927.00,0.0395
2926.00,0.0395
2925.00,0.0393
2924.00,0.0389
2923.00,0.0384
2922.00,0.0378
2921.00,0.0371
2920.00,0.0364
2919.00,0.0356
2918.00,0.0348
2917.00,0.0340
2916.00,0.0332
2915.00,0.0324
2914.00,0.0316
2913.00,0.0309
2912.00,0.0302
2911.00,0.0296
2910.00,0.0290
2909.00,0.0284
2908.00,0.0279
2907.00,0.0275
2906.00,0.0270
2905.00,0.0266
2904.00,0.0262
2903.00,0.0259
2902.00,0.0256
2901.00,0.0253
2900.00,0.0250
2899.00,0.0247
2898.00,0.0245
2897.00,0.0243
2896.00,0.0241
2895.00,0.0239
2894.00,0.0238
2893.00,0.0236
2892.00,0.0235
2891.00,0.0233
2890.00,0.0232
2889.00,0.0230
2888.00,0.0229
2887.00,0.0229
2886.00,0.0228
2885.00,0.0228
2884.00,0.0228
2883.00,0.0228
2882.00,0.0228
2881.00,0.0229
2880.00,0.0230
2879.00,0.0232
2878.00,0.0234
2877.00,0.0236
2876.00,0.0239
2875.00,0.0241
2874.00,0.0243
2873.00,0.0245
2872.00,0.0245
2871.00,0.0245
2870.00,0.0244
2869.00,0.0243
2868.00,0.0241
2867.00,0.0240
2866.00,0.0240
2865.00,0.0241
2864.00,0.0243
2863.00,0.0246
2862.00,0.0250
2861.00,0.0255
2860.00,0.0261
2859.00,0.0266
2858.00,0.0271
2857.00,0.0273
2856.00,0.0274
2855.00,0.0274
2854.00,0.0272
2853.00,0.0268
2852.00,0.0263
2851.00,0.0257
2850.00,0.0250
2849.00,0.0241
2848.00,0.0231
2847.00,0.0222
2846.00,0.0213
2845.00,0.0205
2844.00,0.0198
2843.00,0.0191
2842.00,0.0184
2841.00,0.0179
2840.00,0.0174
2839.00,0.0169
2838.00,0.0166
2837.00,0.0163
2836.00,0.0160
2835.00,0.0157
2834.00,0.0155
2833.00,0.0153
2832.00,0.0150
2831.00,0.0148
2830.00,0.0146
2829.00,0.0144
2828.00,0.0143
2827.00,0.0141
2826.00,0.0140
2825.00,0.0139
2824.00,0.0137
2823.00,0.0136
2822.00,0.0134
2821.00,0.0133
2820.00,0.0131
2819.00,0.0130
2818.00,0.0130
2817.00,0.0129
2816.00,0.0128
2815.00,0.0127
2814.00,0.0126
2813.00,0.0125
2812.00,0.0124
2811.00,0.0124
2810.00,0.0123
2809.00,0.0123
2808.00,0.0122
2807.00,0.0122
2806.00,0.0121
2805.00,0.0121
2804.00,0.0120
2803.00,0.0120
2802.00,0.0119
2801.00,0.0118
2800.00,0.0118
2799.00,0.0117
2798.00,0.0117
2797.00,0.0117
2796.00,0.0117
2795.00,0.0116
2794.00,0.0116
2793.00,0.0115
2792.00,0.0114
2791.00,0.0114
2790.00,0.0113
2789.00,0.0113
2788.00,0.0113
2787.00,0.0112
2786.00,0.0112
2785.00,0.0111
2784.00,0.0111
2783.00,0.0110
2782.00,0.0110
2781.00,0.0110
2780.00,0.0109
2779.00,0.0109
2778.00,0.0108
2777.00,0.0108
2776.00,0.0108
2775.00,0.0107
2774.00,0.0107
2773.00,0.0107
2772.00,0.0107
2771.00,0.0107
2770.00,0.0107
2769.00,0.0106
2768.00,0.0106
2767.00,0.0106
2766.00,0.0106
2765.00,0.0105
2764.00,0.0105
2763.00,0.0105
2762.00,0.0105
2761.00,0.0104
2760.00,0.0104
2759.00,0.0104
2758.00,0.0104
2757.00,0.0104
2756.00,0.0103
2755.00,0.0103
2754.00,0.0103
2753.00,0.0103
2752.00,0.0103
2751.00,0.0102
2750.00,0.0103
2749.00,0.0103
2748.00,0.0103
2747.00,0.0103
2746.00,0.0103
2745.00,0.0103
2744.00,0.0103
2743.00,0.0103
2742.00,0.0103
2741.00,0.0103
2740.00,0.0102
2739.00,0.0102
2738.00,0.0102
2737.00,0.0102
2736.00,0.0102
2735.00,0.0103
2734.00,0.0103
2733.00,0.0103
2732.00,0.0103
2731.00,0.0103
2730.00,0.0102
2729.00,0.0102
2728.00,0.0102
2727.00,0.0101
2726.00,0.0101
2725.00,0.0101
2724.00,0.0100
2723.00,0.0100
2722.00,0.0100
2721.00,0.0100
2720.00,0.0099
2719.00,0.0099
2718.00,0.0099
2717.00,0.0099
2716.00,0.0098
2715.00,0.0098
2714.00,0.0098
2713.00,0.0097
2712.00,0.0097
2711.00,0.0097
2710.00,0.0097
2709.00,0.0097
2708.00,0.0097
2707.00,0.0096
2706.00,0.0096
2705.00,0.0096
2704.00,0.0096
2703.00,0.0096
2702.00,0.0095
2701.00,0.0095
2700.00,0.0095
2699.00,0.0095
2698.00,0.0095
2697.00,0.0094
2696.00,0.0094
2695.00,0.0094
2694.00,0.0094
2693.00,0.0093
2692.00,0.0093
2691.00,0.0093
2690.00,0.0093
2689.00,0.0093
2688.00,0.0093
2687.00,0.0092
2686.00,0.0092
2685.00,0.0092
2684.00,0.0092
2683.00,0.0092
2682.00,0.0091
2681.00,0.0091
2680.00,0.0091
2679.00,0.0091
2678.00,0.0091
2677.00,0.0091
2676.00,0.0091
2675.00,0.0091
2674.00,0.0091
2673.00,0.0091
2672.00,0.0091
2671.00,0.0091
2670.00,0.0091
2669.00,0.0091
2668.00,0.0091
2667.00,0.0092
2666.00,0.0092
2665.00,0.0092
2664.00,0.0093
2663.00,0.0093
2662.00,0.0093
2661.00,0.0094
2660.00,0.0094
2659.00,0.0094
2658.00,0.0095
2657.00,0.0095
2656.00,0.0095
2655.00,0.0095
2654.00,0.0095
2653.00,0.0094
2652.00,0.0094
2651.00,0.0094
2650.00,0.0094
2649.00,0.0094
2648.00,0.0094
2647.00,0.0094
2646.00,0.0094
2645.00,0.0094
2644.00,0.0094
2643.00,0.0094
2642.00,0.0094
2641.00,0.0094
2640.00,0.0093
2639.00,0.0093
2638.00,0.0093
2637.00,0.0093
2636.00,0.0092
2635.00,0.0092
2634.00,0.0092
2633.00,0.0092
2632.00,0.0091
2631.00,0.0091
2630.00,0.0091
2629.00,0.0090
2628.00,0.0090
2627.00,0.0090
2626.00,0.0090
2625.00,0.0089
2624.00,0.0089
2623.00,0.0089
2622.00,0.0089
2621.00,0.0089
2620.00,0.0088
2619.00,0.0088
2618.00,0.0088
2617.00,0.0088
2616.00,0.0088
2615.00,0.0088
2614.00,0.0088
2613.00,0.0088
2612.00,0.0087
2611.00,0.0088
2610.00,0.0088
2609.00,0.0088
2608.00,0.0088
2607.00,0.0087
2606.00,0.0087
2605.00,0.0087
2604.00,0.0087
2603.00,0.0086
2602.00,0.0086
2601.00,0.0086
2600.00,0.0086
2599.00,0.0086
2598.00,0.0086
2597.00,0.0085
2596.00,0.0085
2595.00,0.0085
2594.00,0.0085
2593.00,0.0085
2592.00,0.0085
2591.00,0.0085
2590.00,0.0085
2589.00,0.0085
2588.00,0.0085
2587.00,0.0085
2586.00,0.0085
2585.00,0.0085
2584.00,0.0085
2583.00,0.0085
2582.00,0.0084
2581.00,0.0084
2580.00,0.0084
2579.00,0.0084
2578.00,0.0084
2577.00,0.0084
2576.00,0.0083
2575.00,0.0083
2574.00,0.0083
2573.00,0.0082
2572.00,0.0082
2571.00,0.0082
2570.00,0.0082
2569.00,0.0082
2568.00,0.0082
2567.00,0.0082
2566.00,0.0082
2565.00,0.0082
2564.00,0.0082
2563.00,0.0081
2562.00,0.0081
2561.00,0.0080
2560.00,0.0080
2559.00,0.0080
2558.00,0.0079
2557.00,0.0079
2556.00,0.0079
2555.00,0.0079
2554.00,0.0079
2553.00,0.0079
2552.00,0.0079
2551.00,0.0079
2550.00,0.0079
2549.00,0.0079
2548.00,0.0079
2547.00,0.0078
2546.00,0.0078
2545.00,0.0077
2544.00,0.0077
2543.00,0.0077
2542.00,0.0077
2541.00,0.0077
2540.00,0.0077
2539.00,0.0077
2538.00,0.0077
2537.00,0.0077
2536.00,0.0077
2535.00,0.0077
2534.00,0.0077
2533.00,0.0077
2532.00,0.0076
2531.00,0.0076
2530.00,0.0076
2529.00,0.0076
2528.00,0.0075
2527.00,0.0075
2526.00,0.0075
2525.00,0.0075
2524.00,0.0075
2523.00,0.0075
2522.00,0.0074
2521.00,0.0074
2520.00,0.0074
2519.00,0.0074
2518.00,0.0074
2517.00,0.0074
2516.00,0.0074
2515.00,0.0073
2514.00,0.0073
2513.00,0.0073
2512.00,0.0073
2511.00,0.0073
2510.00,0.0073
2509.00,0.0073
2508.00,0.0073
2507.00,0.0073
2506.00,0.0073
2505.00,0.0073
2504.00,0.0073
2503.00,0.0072
2502.00,0.0072
2501.00,0.0072
2500.00,0.0071
2499.00,0.0071
2498.00,0.0071
2497.00,0.0072
2496.00,0.0072
2495.00,0.0072
2494.00,0.0071
2493.00,0.0071
2492.00,0.0071
2491.00,0.0070
2490.00,0.0070
2489.00,0.0070
2488.00,0.0070
2487.00,0.0070
2486.00,0.0070
2485.00,0.0070
2484.00,0.0070
2483.00,0.0070
2482.00,0.0070
2481.00,0.0070
2480.00,0.0070
2479.00,0.0069
2478.00,0.0069
2477.00,0.0069
2476.00,0.0069
2475.00,0.0069
2474.00,0.0069
2473.00,0.0069
2472.00,0.0069
2471.00,0.0069
2470.00,0.0069
2469.00,0.0068
2468.00,0.0068
2467.00,0.0068
2466.00,0.0068
2465.00,0.0068
2464.00,0.0068
2463.00,0.0068
2462.00,0.0068
2461.00,0.0068
2460.00,0.0068
2459.00,0.0069
2458.00,0.0069
2457.00,0.0069
2456.00,0.0069
2455.00,0.0069
2454.00,0.0069
2453.00,0.0069
2452.00,0.0069
2451.00,0.0068
2450.00,0.0068
2449.00,0.0067
2448.00,0.0067
2447.00,0.0067
2446.00,0.0067
2445.00,0.0067
2444.00,0.0067
2443.00,0.0067
2442.00,0.0066
2441.00,0.0066
2440.00,0.0066
2439.00,0.0066
2438.00,0.0066
2437.00,0.0065
2436.00,0.0066
2435.00,0.0066
2434.00,0.0066
2433.00,0.0066
2432.00,0.0065
2431.00,0.0065
2430.00,0.0065
2429.00,0.0065
2428.00,0.0065
2427.00,0.0065
2426.00,0.0065
2425.00,0.0064
2424.00,0.0064
2423.00,0.0064
2422.00,0.0064
2421.00,0.0064
2420.00,0.0064
2419.00,0.0064
2418.00,0.0064
2417.00,0.0064
2416.00,0.0064
2415.00,0.0064
2414.00,0.0064
2413.00,0.0064
2412.00,0.0064
2411.00,0.0064
2410.00,0.0064
2409.00,0.0063
2408.00,0.0063
2407.00,0.0062
2406.00,0.0062
2405.00,0.0062
2404.00,0.0062
2403.00,0.0062
2402.00,0.0062
2401.00,0.0062
2400.00,0.0062
2399.00,0.0062
2398.00,0.0061
2397.00,0.0061
2396.00,0.0061
2395.00,0.0061
2394.00,0.0061
2393.00,0.0061
2392.00,0.0061
2391.00,0.0061
2390.00,0.0060
2389.00,0.0060
2388.00,0.0060
2387.00,0.0060
2386.00,0.0059
2385.00,0.0059
2384.00,0.0059
2383.00,0.0059
2382.00,0.0058
2381.00,0.0058
2380.00,0.0058
2379.00,0.0058
2378.00,0.0058
2377.00,0.0058
2376.00,0.0058
2375.00,0.0058
2374.00,0.0058
2373.00,0.0058
2372.00,0.0058
2371.00,0.0057
2370.00,0.0057
2369.00,0.0057
2368.00,0.0057
2367.00,0.0057
2366.00,0.0058
2365.00,0.0058
2364.00,0.0058
2363.00,0.0058
2362.00,0.0059
2361.00,0.0059
2360.00,0.0059
2359.00,0.0059
2358.00,0.0059
2357.00,0.0059
2356.00,0.0059
2355.00,0.0059
2354.00,0.0058
2353.00,0.0058
2352.00,0.0058
2351.00,0.0058
2350.00,0.0060
2349.00,0.0063
2348.00,0.0065
2347.00,0.0065
2346.00,0.0064
2345.00,0.0062
2344.00,0.0061
2343.00,0.0061
2342.00,0.0061
2341.00,0.0062
2340.00,0.0062
2339.00,0.0062
2338.00,0.0063
2337.00,0.0063
2336.00,0.0063
2335.00,0.0062
2334.00,0.0062
2333.00,0.0062
2332.00,0.0062
2331.00,0.0062
2330.00,0.0062
2329.00,0.0064
2328.00,0.0067
2327.00,0.0070
2326.00,0.0073
2325.00,0.0074
2324.00,0.0073
2323.00,0.0071
2322.00,0.0069
2321.00,0.0067
2320.00,0.0066
2319.00,0.0066
2318.00,0.0065
2317.00,0.0065
2316.00,0.0064
2315.00,0.0064
2314.00,0.0064
2313.00,0.0063
2312.00,0.0063
2311.00,0.0062
2310.00,0.0062
2309.00,0.0062
2308.00,0.0061
2307.00,0.0061
2306.00,0.0061
2305.00,0.0062
2304.00,0.0062
2303.00,0.0063
2302.00,0.0063
2301.00,0.0063
2300.00,0.0063
2299.00,0.0063
2298.00,0.0064
2297.00,0.0065
2296.00,0.0066
2295.00,0.0066
2294.00,0.0067
2293.00,0.0068
2292.00,0.0068
2291.00,0.0069
2290.00,0.0069
2289.00,0.0070
2288.00,0.0071
2287.00,0.0071
2286.00,0.0071
2285.00,0.0071
2284.00,0.0070
2283.00,0.0069
2282.00,0.0068
2281.00,0.0068
2280.00,0.0067
2279.00,0.0066
2278.00,0.0066
2277.00,0.0065
2276.00,0.0065
2275.00,0.0065
2274.00,0.0065
2273.00,0.0065
2272.00,0.0065
2271.00,0.0065
2270.00,0.0064
2269.00,0.0063
2268.00,0.0062
2267.00,0.0061
2266.00,0.0060
2265.00,0.0060
2264.00,0.0061
2263.00,0.0061
2262.00,0.0061
2261.00,0.0062
2260.00,0.0062
2259.00,0.0062
2258.00,0.0061
2257.00,0.0060
2256.00,0.0060
2255.00,0.0059
2254.00,0.0058
2253.00,0.0059
2252.00,0.0060
2251.00,0.0060
2250.00,0.0060
2249.00,0.0060
2248.00,0.0060
2247.00,0.0061
2246.00,0.0061
2245.00,0.0061
2244.00,0.0061
2243.00,0.0061
2242.00,0.0059
2241.00,0.0059
2240.00,0.0058
2239.00,0.0059
2238.00,0.0059
2237.00,0.0059
2236.00,0.0060
2235.00,0.0059
2234.00,0.0059
2233.00,0.0059
2232.00,0.0059
2231.00,0.0059
2230.00,0.0059
2229.00,0.0059
2228.00,0.0059
2227.00,0.0059
2226.00,0.0060
2225.00,0.0060
2224.00,0.0061
2223.00,0.0060
2222.00,0.0060
2221.00,0.0060
2220.00,0.0061
2219.00,0.0061
2218.00,0.0061
2217.00,0.0061
2216.00,0.0061
2215.00,0.0061
2214.00,0.0060
2213.00,0.0060
2212.00,0.0060
2211.00,0.0060
2210.00,0.0059
2209.00,0.0059
2208.00,0.0059
2207.00,0.0059
2206.00,0.0058
2205.00,0.0058
2204.00,0.0058
2203.00,0.0059
2202.00,0.0060
2201.00,0.0060
2200.00,0.0060
2199.00,0.0060
2198.00,0.0060
2197.00,0.0059
2196.00,0.0060
2195.00,0.0061
2194.00,0.0061
2193.00,0.0062
2192.00,0.0062
2191.00,0.0063
2190.00,0.0062
2189.00,0.0062
2188.00,0.0063
2187.00,0.0064
2186.00,0.0064
2185.00,0.0062
2184.00,0.0058
2183.00,0.0055
2182.00,0.0053
2181.00,0.0054
2180.00,0.0056
2179.00,0.0056
2178.00,0.0055
2177.00,0.0051
2176.00,0.0049
2175.00,0.0049
2174.00,0.0050
2173.00,0.0054
2172.00,0.0057
2171.00,0.0061
2170.00,0.0064
2169.00,0.0066
2168.00,0.0068
2167.00,0.0069
2166.00,0.0068
2165.00,0.0068
2164.00,0.0067
2163.00,0.0066
2162.00,0.0060
2161.00,0.0049
2160.00,0.0036
2159.00,0.0025
2158.00,0.0019
2157.00,0.0020
2156.00,0.0024
2155.00,0.0027
2154.00,0.0030
2153.00,0.0033
2152.00,0.0035
2151.00,0.0036
2150.00,0.0036
2149.00,0.0037
2148.00,0.0038
2147.00,0.0038
2146.00,0.0038
2145.00,0.0038
2144.00,0.0038
2143.00,0.0038
2142.00,0.0039
2141.00,0.0040
2140.00,0.0041
2139.00,0.0041
2138.00,0.0039
2137.00,0.0038
2136.00,0.0036
2135.00,0.0034
2134.00,0.0033
2133.00,0.0034
2132.00,0.0035
2131.00,0.0038
2130.00,0.0040
2129.00,0.0042
2128.00,0.0044
2127.00,0.0045
2126.00,0.0046
2125.00,0.0046
2124.00,0.0047
2123.00,0.0048
2122.00,0.0048
2121.00,0.0048
2120.00,0.0049
2119.00,0.0049
2118.00,0.0050
2117.00,0.0052
2116.00,0.0053
2115.00,0.0054
2114.00,0.0054
2113.00,0.0054
2112.00,0.0054
2111.00,0.0054
2110.00,0.0054
2109.00,0.0054
2108.00,0.0054
2107.00,0.0054
2106.00,0.0054
2105.00,0.0054
2104.00,0.0054
2103.00,0.0054
2102.00,0.0054
2101.00,0.0054
2100.00,0.0054
2099.00,0.0053
2098.00,0.0051
2097.00,0.0049
2096.00,0.0047
2095.00,0.0047
2094.00,0.0047
2093.00,0.0048
2092.00,0.0049
2091.00,0.0049
2090.00,0.0049
2089.00,0.0050
2088.00,0.0050
2087.00,0.0051
2086.00,0.0052
2085.00,0.0054
2084.00,0.0055
2083.00,0.0055
2082.00,0.0055
2081.00,0.0055
2080.00,0.0055
2079.00,0.0056
2078.00,0.0055
2077.00,0.0055
2076.00,0.0054
2075.00,0.0054
2074.00,0.0054
2073.00,0.0055
2072.00,0.0055
2071.00,0.0055
2070.00,0.0055
2069.00,0.0054
2068.00,0.0053
2067.00,0.0052
2066.00,0.0051
2065.00,0.0050
2064.00,0.0050
2063.00,0.0050
2062.00,0.0049
2061.00,0.0048
2060.00,0.0048
2059.00,0.0048
2058.00,0.0049
2057.00,0.0049
2056.00,0.0050
2055.00,0.0051
2054.00,0.0053
2053.00,0.0056
2052.00,0.0058
2051.00,0.0058
2050.00,0.0055
2049.00,0.0051
2048.00,0.0049
2047.00,0.0049
2046.00,0.0048
2045.00,0.0047
2044.00,0.0046
2043.00,0.0045
2042.00,0.0045
2041.00,0.0046
2040.00,0.0049
2039.00,0.0052
2038.00,0.0052
2037.00,0.0051
2036.00,0.0048
2035.00,0.0046
2034.00,0.0044
2033.00,0.0045
2032.00,0.0046
2031.00,0.0045
2030.00,0.0044
2029.00,0.0042
2028.00,0.0042
2027.00,0.0041
2026.00,0.0041
2025.00,0.0042
2024.00,0.0043
2023.00,0.0043
2022.00,0.0044
2021.00,0.0044
2020.00,0.0043
2019.00,0.0042
2018.00,0.0040
2017.00,0.0039
2016.00,0.0039
2015.00,0.0040
2014.00,0.0040
2013.00,0.0040
2012.00,0.0041
2011.00,0.0042
2010.00,0.0042
2009.00,0.0041
2008.00,0.0038
2007.00,0.0035
2006.00,0.0033
2005.00,0.0033
2004.00,0.0035
2003.00,0.0037
2002.00,0.0038
2001.00,0.0038
2000.00,0.0039
1999.00,0.0040
1998.00,0.0041
1997.00,0.0042
1996.00,0.0043
1995.00,0.0043
1994.00,0.0042
1993.00,0.0043
1992.00,0.0044
1991.00,0.0045
1990.00,0.0046
1989.00,0.0047
1988.00,0.0047
1987.00,0.0048
1986.00,0.0048
1985.00,0.0049
1984.00,0.0052
1983.00,0.0055
1982.00,0.0058
1981.00,0.0058
1980.00,0.0055
1979.00,0.0050
1978.00,0.0043
1977.00,0.0039
1976.00,0.0037
1975.00,0.0037
1974.00,0.0038
1973.00,0.0039
1972.00,0.0039
1971.00,0.0038
1970.00,0.0035
1969.00,0.0034
1968.00,0.0034
1967.00,0.0035
1966.00,0.0036
1965.00,0.0038
1964.00,0.0038
1963.00,0.0037
1962.00,0.0035
1961.00,0.0033
1960.00,0.0033
1959.00,0.0033
1958.00,0.0034
1957.00,0.0035
1956.00,0.0036
1955.00,0.0037
1954.00,0.0038
1953.00,0.0038
1952.00,0.0039
1951.00,0.0039
1950.00,0.0039
1949.00,0.0039
1948.00,0.0038
1947.00,0.0038
1946.00,0.0038
1945.00,0.0038
1944.00,0.0039
1943.00,0.0039
1942.00,0.0039
1941.00,0.0039
1940.00,0.0041
1939.00,0.0041
1938.00,0.0041
1937.00,0.0041
1936.00,0.0041
1935.00,0.0041
1934.00,0.0041
1933.00,0.0042
1932.00,0.0042
1931.00,0.0042
1930.00,0.0041
1929.00,0.0041
1928.00,0.0041
1927.00,0.0041
1926.00,0.0041
1925.00,0.0041
1924.00,0.0041
1923.00,0.0042
1922.00,0.0042
1921.00,0.0043
1920.00,0.0043
1919.00,0.0044
1918.00,0.0044
1917.00,0.0044
1916.00,0.0045
1915.00,0.0045
1914.00,0.0045
1913.00,0.0046
1912.00,0.0046
1911.00,0.0047
1910.00,0.0048
1909.00,0.0048
1908.00,0.0049
1907.00,0.0049
1906.00,0.0048
1905.00,0.0047
1904.00,0.0046
1903.00,0.0045
1902.00,0.0045
1901.00,0.0045
1900.00,0.0045
1899.00,0.0046
1898.00,0.0045
1897.00,0.0045
1896.00,0.0046
1895.00,0.0046
1894.00,0.0046
1893.00,0.0046
1892.00,0.0046
1891.00,0.0046
1890.00,0.0045
1889.00,0.0044
1888.00,0.0045
1887.00,0.0045
1886.00,0.0045
1885.00,0.0044
1884.00,0.0044
1883.00,0.0044
1882.00,0.0044
1881.00,0.0044
1880.00,0.0044
1879.00,0.0045
1878.00,0.0045
1877.00,0.0045
1876.00,0.0045
1875.00,0.0045
1874.00,0.0045
1873.00,0.0045
1872.00,0.0045
1871.00,0.0045
1870.00,0.0044
1869.00,0.0043
1868.00,0.0043
1867.00,0.0044
1866.00,0.0044
1865.00,0.0045
1864.00,0.0046
1863.00,0.0047
1862.00,0.0046
1861.00,0.0046
1860.00,0.0046
1859.00,0.0046
1858.00,0.0046
1857.00,0.0046
1856.00,0.0047
1855.00,0.0047
1854.00,0.0047
1853.00,0.0047
1852.00,0.0047
1851.00,0.0047
1850.00,0.0047
1849.00,0.0047
1848.00,0.0047
1847.00,0.0048
1846.00,0.0048
1845.00,0.0048
1844.00,0.0049
1843.00,0.0049
1842.00,0.0048
1841.00,0.0048
1840.00,0.0047
1839.00,0.0047
1838.00,0.0046
1837.00,0.0046
1836.00,0.0047
1835.00,0.0047
1834.00,0.0047
1833.00,0.0047
1832.00,0.0047
1831.00,0.0047
1830.00,0.0047
1829.00,0.0047
1828.00,0.0047
1827.00,0.0047
1826.00,0.0047
1825.00,0.0047
1824.00,0.0047
1823.00,0.0048
1822.00,0.0047
1821.00,0.0047
1820.00,0.0046
1819.00,0.0046
1818.00,0.0044
1817.00,0.0044
1816.00,0.0044
1815.00,0.0045
1814.00,0.0046
1813.00,0.0046
1812.00,0.0047
1811.00,0.0047
1810.00,0.0047
1809.00,0.0048
1808.00,0.0049
1807.00,0.0049
1806.00,0.0049
1805.00,0.0049
1804.00,0.0049
1803.00,0.0049
1802.00,0.0048
1801.00,0.0048
1800.00,0.0049
1799.00,0.0050
1798.00,0.0050
1797.00,0.0050
1796.00,0.0050
1795.00,0.0051
1794.00,0.0051
1793.00,0.0051
1792.00,0.0052
1791.00,0.0052
1790.00,0.0053
1789.00,0.0053
1788.00,0.0053
1787.00,0.0053
1786.00,0.0053
1785.00,0.0053
1784.00,0.0053
1783.00,0.0053
1782.00,0.0053
1781.00,0.0053
1780.00,0.0053
1779.00,0.0053
1778.00,0.0053
1777.00,0.0054
1776.00,0.0054
1775.00,0.0055
1774.00,0.0055
1773.00,0.0056
1772.00,0.0056
1771.00,0.0057
1770.00,0.0057
1769.00,0.0057
1768.00,0.0057
1767.00,0.0057
1766.00,0.0057
1765.00,0.0058
1764.00,0.0058
1763.00,0.0059
1762.00,0.0059
1761.00,0.0060
1760.00,0.0061
1759.00,0.0061
1758.00,0.0060
1757.00,0.0060
1756.00,0.0061
1755.00,0.0062
1754.00,0.0062
1753.00,0.0062
1752.00,0.0062
1751.00,0.0061
1750.00,0.0061
1749.00,0.0061
1748.00,0.0062
1747.00,0.0063
1746.00,0.0064
1745.00,0.0065
1744.00,0.0066
1743.00,0.0067
1742.00,0.0069
1741.00,0.0070
1740.00,0.0072
1739.00,0.0073
1738.00,0.0074
1737.00,0.0075
1736.00,0.0077
1735.00,0.0078
1734.00,0.0080
1733.00,0.0081
1732.00,0.0083
1731.00,0.0083
1730.00,0.0084
1729.00,0.0086
1728.00,0.0088
1727.00,0.0091
1726.00,0.0093
1725.00,0.0094
1724.00,0.0097
1723.00,0.0099
1722.00,0.0101
1721.00,0.0104
1720.00,0.0107
1719.00,0.0110
1718.00,0.0113
1717.00,0.0117
1716.00,0.0122
1715.00,0.0127
1714.00,0.0131
1713.00,0.0135
1712.00,0.0141
1711.00,0.0146
1710.00,0.0151
1709.00,0.0157
1708.00,0.0164
1707.00,0.0173
1706.00,0.0182
1705.00,0.0193
1704.00,0.0205
1703.00,0.0217
1702.00,0.0230
1701.00,0.0249
1700.00,0.0272
1699.00,0.0293
1698.00,0.0309
1697.00,0.0326
1696.00,0.0351
1695.00,0.0377
1694.00,0.0400
1693.00,0.0419
1692.00,0.0438
1691.00,0.0459
1690.00,0.0481
1689.00,0.0503
1688.00,0.0524
1687.00,0.0544
1686.00,0.0564
1685.00,0.0588
1684.00,0.0617
1683.00,0.0643
1682.00,0.0662
1681.00,0.0676
1680.00,0.0692
1679.00,0.0707
1678.00,0.0722
1677.00,0.0737
1676.00,0.0754
1675.00,0.0771
1674.00,0.0785
1673.00,0.0796
1672.00,0.0806
1671.00,0.0817
1670.00,0.0829
1669.00,0.0842
1668.00,0.0854
1667.00,0.0864
1666.00,0.0871
1665.00,0.0878
1664.00,0.0886
1663.00,0.0895
1662.00,0.0903
1661.00,0.0910
1660.00,0.0915
1659.00,0.0919
1658.00,0.0922
1657.00,0.0924
1656.00,0.0925
1655.00,0.0927
1654.00,0.0927
1653.00,0.0928
1652.00,0.0927
1651.00,0.0920
1650.00,0.0910
1649.00,0.0900
1648.00,0.0891
1647.00,0.0881
1646.00,0.0871
1645.00,0.0861
1644.00,0.0850
1643.00,0.0839
1642.00,0.0828
1641.00,0.0816
1640.00,0.0805
1639.00,0.0795
1638.00,0.0785
1637.00,0.0775
1636.00,0.0766
1635.00,0.0758
1634.00,0.0752
1633.00,0.0747
1632.00,0.0743
1631.00,0.0741
1630.00,0.0742
1629.00,0.0748
1628.00,0.0757
1627.00,0.0768
1626.00,0.0778
1625.00,0.0787
1624.00,0.0794
1623.00,0.0799
1622.00,0.0800
1621.00,0.0796
1620.00,0.0789
1619.00,0.0778
1618.00,0.0762
1617.00,0.0740
1616.00,0.0718
1615.00,0.0700
1614.00,0.0686
1613.00,0.0676
1612.00,0.0668
1611.00,0.0658
1610.00,0.0647
1609.00,0.0633
1608.00,0.0616
1607.00,0.0598
1606.00,0.0580
1605.00,0.0562
1604.00,0.0544
1603.00,0.0528
1602.00,0.0512
1601.00,0.0499
1600.00,0.0487
1599.00,0.0476
1598.00,0.0467
1597.00,0.0459
1596.00,0.0452
1595.00,0.0447
1594.00,0.0445
1593.00,0.0445
1592.00,0.0447
1591.00,0.0452
1590.00,0.0460
1589.00,0.0470
1588.00,0.0481
1587.00,0.0491
1586.00,0.0500
1585.00,0.0505
1584.00,0.0508
1583.00,0.0508
1582.00,0.0505
1581.00,0.0501
1580.00,0.0496
1579.00,0.0490
1578.00,0.0484
1577.00,0.0476
1576.00,0.0466
1575.00,0.0458
1574.00,0.0452
1573.00,0.0448
1572.00,0.0445
1571.00,0.0443
1570.00,0.0442
1569.00,0.0441
1568.00,0.0441
1567.00,0.0440
1566.00,0.0439
1565.00,0.0437
1564.00,0.0435
1563.00,0.0434
1562.00,0.0434
1561.00,0.0435
1560.00,0.0434
1559.00,0.0433
1558.00,0.0436
1557.00,0.0439
1556.00,0.0441
1555.00,0.0443
1554.00,0.0446
1553.00,0.0450
1552.00,0.0453
1551.00,0.0456
1550.00,0.0460
1549.00,0.0464
1548.00,0.0468
1547.00,0.0472
1546.00,0.0475
1545.00,0.0478
1544.00,0.0481
1543.00,0.0485
1542.00,0.0488
1541.00,0.0491
1540.00,0.0494
1539.00,0.0497
1538.00,0.0500
1537.00,0.0501
1536.00,0.0501
1535.00,0.0502
1534.00,0.0502
1533.00,0.0502
1532.00,0.0503
1531.00,0.0504
1530.00,0.0504
1529.00,0.0504
1528.00,0.0504
1527.00,0.0504
1526.00,0.0503
1525.00,0.0503
1524.00,0.0503
1523.00,0.0503
1522.00,0.0503
1521.00,0.0503
1520.00,0.0505
1519.00,0.0506
1518.00,0.0506
1517.00,0.0507
1516.00,0.0508
1515.00,0.0509
1514.00,0.0508
1513.00,0.0507
1512.00,0.0504
1511.00,0.0501
1510.00,0.0497
1509.00,0.0493
1508.00,0.0488
1507.00,0.0483
1506.00,0.0482
1505.00,0.0482
1504.00,0.0481
1503.00,0.0479
1502.00,0.0478
1501.00,0.0481
1500.00,0.0487
1499.00,0.0496
1498.00,0.0507
1497.00,0.0517
1496.00,0.0521
1495.00,0.0519
1494.00,0.0510
1493.00,0.0497
1492.00,0.0481
1491.00,0.0463
1490.00,0.0443
1489.00,0.0426
1488.00,0.0410
1487.00,0.0397
1486.00,0.0385
1485.00,0.0374
1484.00,0.0365
1483.00,0.0357
1482.00,0.0349
1481.00,0.0344
1480.00,0.0340
1479.00,0.0338
1478.00,0.0337
1477.00,0.0338
1476.00,0.0341
1475.00,0.0345
1474.00,0.0353
1473.00,0.0364
1472.00,0.0380
1471.00,0.0398
1470.00,0.0417
1469.00,0.0437
1468.00,0.0458
1467.00,0.0479
1466.00,0.0497
1465.00,0.0513
1464.00,0.0525
1463.00,0.0532
1462.00,0.0536
1461.00,0.0539
1460.00,0.0541
1459.00,0.0541
1458.00,0.0538
1457.00,0.0533
1456.00,0.0526
1455.00,0.0518
1454.00,0.0511
1453.00,0.0505
1452.00,0.0502
1451.00,0.0501
1450.00,0.0502
1449.00,0.0505
1448.00,0.0510
1447.00,0.0518
1446.00,0.0527
1445.00,0.0537
1444.00,0.0548
1443.00,0.0561
1442.00,0.0573
1441.00,0.0585
1440.00,0.0595
1439.00,0.0604
1438.00,0.0612
1437.00,0.0621
1436.00,0.0628
1435.00,0.0634
1434.00,0.0638
1433.00,0.0641
1432.00,0.0644
1431.00,0.0647
1430.00,0.0649
1429.00,0.0651
1428.00,0.0653
1427.00,0.0654
1426.00,0.0655
1425.00,0.0656
1424.00,0.0656
1423.00,0.0654
1422.00,0.0650
1421.00,0.0643
1420.00,0.0632
1419.00,0.0616
1418.00,0.0598
1417.00,0.0580
1416.00,0.0563
1415.00,0.0546
1414.00,0.0531
1413.00,0.0518
1412.00,0.0508
1411.00,0.0501
1410.00,0.0497
1409.00,0.0496
1408.00,0.0499
1407.00,0.0504
1406.00,0.0512
1405.00,0.0522
1404.00,0.0533
1403.00,0.0543
1402.00,0.0552
1401.00,0.0557
1400.00,0.0559
1399.00,0.0557
1398.00,0.0551
1397.00,0.0543
1396.00,0.0532
1395.00,0.0519
1394.00,0.0506
1393.00,0.0496
1392.00,0.0487
1391.00,0.0480
1390.00,0.0477
1389.00,0.0478
1388.00,0.0483
1387.00,0.0489
1386.00,0.0491
1385.00,0.0490
1384.00,0.0485
1383.00,0.0480
1382.00,0.0477
1381.00,0.0477
1380.00,0.0478
1379.00,0.0478
1378.00,0.0476
1377.00,0.0473
1376.00,0.0466
1375.00,0.0457
1374.00,0.0447
1373.00,0.0439
1372.00,0.0433
1371.00,0.0429
1370.00,0.0428
1369.00,0.0430
1368.00,0.0436
1367.00,0.0443
1366.00,0.0448
1365.00,0.0451
1364.00,0.0451
1363.00,0.0452
1362.00,0.0455
1361.00,0.0460
1360.00,0.0462
1359.00,0.0458
1358.00,0.0446
1357.00,0.0431
1356.00,0.0417
1355.00,0.0406
1354.00,0.0398
1353.00,0.0392
1352.00,0.0388
1351.00,0.0385
1350.00,0.0384
1349.00,0.0384
1348.00,0.0383
1347.00,0.0383
1346.00,0.0381
1345.00,0.0379
1344.00,0.0375
1343.00,0.0371
1342.00,0.0366
1341.00,0.0361
1340.00,0.0356
1339.00,0.0352
1338.00,0.0349
1337.00,0.0349
1336.00,0.0349
1335.00,0.0351
1334.00,0.0353
1333.00,0.0356
1332.00,0.0359
1331.00,0.0362
1330.00,0.0365
1329.00,0.0368
1328.00,0.0370
1327.00,0.0372
1326.00,0.0373
1325.00,0.0375
1324.00,0.0377
1323.00,0.0380
1322.00,0.0383
1321.00,0.0386
1320.00,0.0389
1319.00,0.0391
1318.00,0.0392
1317.00,0.0392
1316.00,0.0391
1315.00,0.0389
1314.00,0.0387
1313.00,0.0384
1312.00,0.0383
1311.00,0.0382
1310.00,0.0383
1309.00,0.0385
1308.00,0.0389
1307.00,0.0396
1306.00,0.0405
1305.00,0.0416
1304.00,0.0429
1303.00,0.0444
1302.00,0.0458
1301.00,0.0469
1300.00,0.0477
1299.00,0.0484
1298.00,0.0490
1297.00,0.0498
1296.00,0.0510
1295.00,0.0523
1294.00,0.0538
1293.00,0.0553
1292.00,0.0566
1291.00,0.0579
1290.00,0.0591
1289.00,0.0602
1288.00,0.0613
1287.00,0.0623
1286.00,0.0631
1285.00,0.0636
1284.00,0.0636
1283.00,0.0632
1282.00,0.0623
1281.00,0.0611
1280.00,0.0597
1279.00,0.0583
1278.00,0.0571
1277.00,0.0562
1276.00,0.0555
1275.00,0.0551
1274.00,0.0548
1273.00,0.0546
1272.00,0.0543
1271.00,0.0539
1270.00,0.0535
1269.00,0.0529
1268.00,0.0522
1267.00,0.0515
1266.00,0.0507
1265.00,0.0498
1264.00,0.0489
1263.00,0.0480
1262.00,0.0471
1261.00,0.0463
1260.00,0.0455
1259.00,0.0448
1258.00,0.0443
1257.00,0.0438
1256.00,0.0434
1255.00,0.0431
1254.00,0.0429
1253.00,0.0428
1252.00,0.0429
1251.00,0.0430
1250.00,0.0434
1249.00,0.0438
1248.00,0.0445
1247.00,0.0453
1246.00,0.0461
1245.00,0.0469
1244.00,0.0477
1243.00,0.0483
1242.00,0.0488
1241.00,0.0493
1240.00,0.0498
1239.00,0.0505
1238.00,0.0513
1237.00,0.0523
1236.00,0.0533
1235.00,0.0543
1234.00,0.0549
1233.00,0.0552
1232.00,0.0551
1231.00,0.0546
1230.00,0.0539
1229.00,0.0531
1228.00,0.0523
1227.00,0.0514
1226.00,0.0506
1225.00,0.0498
1224.00,0.0491
1223.00,0.0485
1222.00,0.0479
1221.00,0.0475
1220.00,0.0472
1219.00,0.0470
1218.00,0.0470
1217.00,0.0470
1216.00,0.0469
1215.00,0.0468
1214.00,0.0464
1213.00,0.0458
1212.00,0.0449
1211.00,0.0438
1210.00,0.0426
1209.00,0.0414
1208.00,0.0403
1207.00,0.0395
1206.00,0.0388
1205.00,0.0384
1204.00,0.0382
1203.00,0.0383
1202.00,0.0387
1201.00,0.0393
1200.00,0.0402
1199.00,0.0412
1198.00,0.0423
1197.00,0.0435
1196.00,0.0444
1195.00,0.0450
1194.00,0.0451
1193.00,0.0446
1192.00,0.0436
1191.00,0.0423
1190.00,0.0409
1189.00,0.0395
1188.00,0.0381
1187.00,0.0368
1186.00,0.0357
1185.00,0.0347
1184.00,0.0339
1183.00,0.0333
1182.00,0.0329
1181.00,0.0326
1180.00,0.0324
1179.00,0.0323
1178.00,0.0322
1177.00,0.0323
1176.00,0.0324
1175.00,0.0326
1174.00,0.0328
1173.00,0.0331
1172.00,0.0334
1171.00,0.0336
1170.00,0.0339
1169.00,0.0341
1168.00,0.0343
1167.00,0.0345
1166.00,0.0348
1165.00,0.0351
1164.00,0.0355
1163.00,0.0360
1162.00,0.0368
1161.00,0.0378
1160.00,0.0391
1159.00,0.0409
1158.00,0.0430
1157.00,0.0452
1156.00,0.0471
1155.00,0.0483
1154.00,0.0484
1153.00,0.0473
1152.00,0.0453
1151.00,0.0428
1150.00,0.0403
1149.00,0.0382
1148.00,0.0365
1147.00,0.0352
1146.00,0.0342
1145.00,0.0335
1144.00,0.0329
1143.00,0.0324
1142.00,0.0321
1141.00,0.0318
1140.00,0.0317
1139.00,0.0317
1138.00,0.0319
1137.00,0.0323
1136.00,0.0330
1135.00,0.0341
1134.00,0.0358
1133.00,0.0379
1132.00,0.0406
1131.00,0.0434
1130.00,0.0458
1129.00,0.0475
1128.00,0.0481
1127.00,0.0478
1126.00,0.0468
1125.00,0.0453
1124.00,0.0437
1123.00,0.0420
1122.00,0.0404
1121.00,0.0390
1120.00,0.0379
1119.00,0.0372
1118.00,0.0367
1117.00,0.0365
1116.00,0.0365
1115.00,0.0366
1114.00,0.0367
1113.00,0.0367
1112.00,0.0367
1111.00,0.0366
1110.00,0.0366
1109.00,0.0366
1108.00,0.0366
1107.00,0.0368
1106.00,0.0372
1105.00,0.0377
1104.00,0.0386
1103.00,0.0398
1102.00,0.0412
1101.00,0.0425
1100.00,0.0436
1099.00,0.0441
1098.00,0.0440
1097.00,0.0433
1096.00,0.0423
1095.00,0.0412
1094.00,0.0402
1093.00,0.0395
1092.00,0.0390
1091.00,0.0387
1090.00,0.0386
1089.00,0.0386
1088.00,0.0386
1087.00,0.0387
1086.00,0.0388
1085.00,0.0390
1084.00,0.0391
1083.00,0.0393
1082.00,0.0394
1081.00,0.0396
1080.00,0.0397
1079.00,0.0398
1078.00,0.0398
1077.00,0.0398
1076.00,0.0398
1075.00,0.0397
1074.00,0.0396
1073.00,0.0395
1072.00,0.0394
1071.00,0.0394
1070.00,0.0395
1069.00,0.0396
1068.00,0.0398
1067.00,0.0400
1066.00,0.0404
1065.00,0.0409
1064.00,0.0416
1063.00,0.0425
1062.00,0.0438
1061.00,0.0454
1060.00,0.0474
1059.00,0.0500
1058.00,0.0529
1057.00,0.0561
1056.00,0.0590
1055.00,0.0615
1054.00,0.0633
1053.00,0.0644
1052.00,0.0651
1051.00,0.0656
1050.00,0.0659
1049.00,0.0658
1048.00,0.0650
1047.00,0.0636
1046.00,0.0617
1045.00,0.0596
1044.00,0.0573
1043.00,0.0551
1042.00,0.0530
1041.00,0.0512
1040.00,0.0498
1039.00,0.0488
1038.00,0.0482
1037.00,0.0479
1036.00,0.0479
1035.00,0.0481
1034.00,0.0484
1033.00,0.0490
1032.00,0.0501
1031.00,0.0519
1030.00,0.0543
1029.00,0.0571
1028.00,0.0597
1027.00,0.0615
1026.00,0.0619
1025.00,0.0608
1024.00,0.0586
1023.00,0.0559
1022.00,0.0533
1021.00,0.0510
1020.00,0.0491
1019.00,0.0474
1018.00,0.0459
1017.00,0.0446
1016.00,0.0434
1015.00,0.0423
1014.00,0.0413
1013.00,0.0405
1012.00,0.0398
1011.00,0.0392
1010.00,0.0389
1009.00,0.0389
1008.00,0.0391
1007.00,0.0395
1006.00,0.0401
1005.00,0.0407
1004.00,0.0411
1003.00,0.0412
1002.00,0.0410
1001.00,0.0405
1000.00,0.0398
999.00,0.0391
998.00,0.0383
997.00,0.0376
996.00,0.0369
995.00,0.0362
994.00,0.0356
993.00,0.0349
992.00,0.0341
991.00,0.0333
990.00,0.0324
989.00,0.0316
988.00,0.0308
987.00,0.0300
986.00,0.0294
985.00,0.0289
984.00,0.0284
983.00,0.0280
982.00,0.0277
981.00,0.0274
980.00,0.0272
979.00,0.0271
978.00,0.0270
977.00,0.0270
976.00,0.0270
975.00,0.0271
974.00,0.0271
973.00,0.0272
972.00,0.0272
971.00,0.0273
970.00,0.0273
969.00,0.0274
968.00,0.0275
967.00,0.0275
966.00,0.0276
965.00,0.0277
964.00,0.0278
963.00,0.0280
962.00,0.0281
961.00,0.0281
960.00,0.0279
959.00,0.0276
958.00,0.0273
957.00,0.0270
956.00,0.0266
955.00,0.0262
954.00,0.0259
953.00,0.0255
952.00,0.0252
951.00,0.0249
950.00,0.0248
949.00,0.0247
948.00,0.0246
947.00,0.0246
946.00,0.0245
945.00,0.0245
944.00,0.0245
943.00,0.0247
942.00,0.0250
941.00,0.0253
940.00,0.0258
939.00,0.0262
938.00,0.0266
937.00,0.0270
936.00,0.0273
935.00,0.0276
934.00,0.0278
933.00,0.0280
932.00,0.0280
931.00,0.0279
930.00,0.0277
929.00,0.0274
928.00,0.0272
927.00,0.0271
926.00,0.0271
925.00,0.0272
924.00,0.0274
923.00,0.0276
922.00,0.0277
921.00,0.0276
920.00,0.0273
919.00,0.0267
918.00,0.0261
917.00,0.0254
916.00,0.0248
915.00,0.0244
914.00,0.0240
913.00,0.0237
912.00,0.0234
911.00,0.0232
910.00,0.0231
909.00,0.0230
908.00,0.0230
907.00,0.0231
906.00,0.0233
905.00,0.0236
904.00,0.0240
903.00,0.0246
902.00,0.0254
901.00,0.0262
900.00,0.0269
899.00,0.0274
898.00,0.0274
897.00,0.0272
896.00,0.0267
895.00,0.0263
894.00,0.0261
893.00,0.0262
892.00,0.0266
891.00,0.0272
890.00,0.0275
889.00,0.0272
888.00,0.0265
887.00,0.0256
886.00,0.0248
885.00,0.0243
884.00,0.0241
883.00,0.0240
882.00,0.0241
881.00,0.0243
880.00,0.0245
879.00,0.0249
878.00,0.0256
877.00,0.0267
876.00,0.0280
875.00,0.0298
874.00,0.0317
873.00,0.0338
872.00,0.0359
871.00,0.0376
870.00,0.0386
869.00,0.0386
868.00,0.0378
867.00,0.0365
866.00,0.0352
865.00,0.0340
864.00,0.0329
863.00,0.0319
862.00,0.0310
861.00,0.0303
860.00,0.0298
859.00,0.0296
858.00,0.0298
857.00,0.0304
856.00,0.0314
855.00,0.0325
854.00,0.0337
853.00,0.0347
852.00,0.0356
851.00,0.0366
850.00,0.0374
849.00,0.0379
848.00,0.0378
847.00,0.0372
846.00,0.0364
845.00,0.0356
844.00,0.0349
843.00,0.0343
842.00,0.0340
841.00,0.0338
840.00,0.0339
839.00,0.0343
838.00,0.0352
837.00,0.0364
836.00,0.0376
835.00,0.0386
834.00,0.0393
833.00,0.0395
832.00,0.0393
831.00,0.0386
830.00,0.0375
829.00,0.0361
828.00,0.0347
827.00,0.0334
826.00,0.0326
825.00,0.0323
824.00,0.0329
823.00,0.0347
822.00,0.0375
821.00,0.0404
820.00,0.0425
819.00,0.0436
818.00,0.0444
817.00,0.0455
816.00,0.0463
815.00,0.0458
814.00,0.0436
813.00,0.0403
812.00,0.0372
811.00,0.0349
810.00,0.0333
809.00,0.0322
808.00,0.0314
807.00,0.0308
806.00,0.0303
805.00,0.0300
804.00,0.0297
803.00,0.0296
802.00,0.0296
801.00,0.0297
800.00,0.0297
799.00,0.0298
798.00,0.0299
797.00,0.0300
796.00,0.0300
795.00,0.0301
794.00,0.0302
793.00,0.0304
792.00,0.0305
791.00,0.0307
790.00,0.0310
789.00,0.0312
788.00,0.0314
787.00,0.0316
786.00,0.0318
785.00,0.0321
784.00,0.0323
783.00,0.0326
782.00,0.0328
781.00,0.0330
780.00,0.0331
779.00,0.0333
778.00,0.0336
777.00,0.0341
776.00,0.0346
775.00,0.0350
774.00,0.0351
773.00,0.0349
772.00,0.0346
771.00,0.0343
770.00,0.0341
769.00,0.0340
768.00,0.0340
767.00,0.0341
766.00,0.0343
765.00,0.0345
764.00,0.0348
763.00,0.0352
762.00,0.0356
761.00,0.0359
760.00,0.0363
759.00,0.0365
758.00,0.0367
757.00,0.0368
756.00,0.0369
755.00,0.0370
754.00,0.0372
753.00,0.0375
752.00,0.0377
751.00,0.0380
750.00,0.0383
749.00,0.0386
748.00,0.0389
747.00,0.0392
746.00,0.0394
745.00,0.0397
744.00,0.0400
743.00,0.0404
742.00,0.0408
741.00,0.0414
740.00,0.0421
739.00,0.0430
738.00,0.0443
737.00,0.0458
736.00,0.0472
735.00,0.0483
734.00,0.0486
733.00,0.0484
732.00,0.0480
731.00,0.0477
730.00,0.0477
729.00,0.0478
728.00,0.0478
727.00,0.0474
726.00,0.0468
725.00,0.0461
724.00,0.0454
723.00,0.0450
722.00,0.0447
721.00,0.0446
720.00,0.0446
719.00,0.0449
718.00,0.0454
717.00,0.0460
716.00,0.0466
715.00,0.0471
714.00,0.0474
713.00,0.0475
712.00,0.0476
711.00,0.0476
710.00,0.0477
709.00,0.0478
708.00,0.0480
707.00,0.0483
706.00,0.0486
705.00,0.0490
704.00,0.0495
703.00,0.0500
702.00,0.0506
701.00,0.0511
700.00,0.0517
699.00,0.0521
698.00,0.0525
697.00,0.0527
696.00,0.0527
695.00,0.0526
694.00,0.0524
693.00,0.0523
692.00,0.0525
691.00,0.0529
690.00,0.0535
689.00,0.0541
688.00,0.0545
687.00,0.0548
686.00,0.0547
685.00,0.0546
684.00,0.0544
683.00,0.0544
682.00,0.0545
681.00,0.0547
680.00,0.0550
679.00,0.0555
678.00,0.0560
677.00,0.0566
676.00,0.0573
675.00,0.0580
674.00,0.0587
673.00,0.0594
672.00,0.0601
671.00,0.0608
670.00,0.0613
669.00,0.0617
668.00,0.0619
667.00,0.0621
666.00,0.0622
665.00,0.0625
664.00,0.0630
663.00,0.0635
662.00,0.0641
661.00,0.0644
660.00,0.0646
659.00,0.0646
658.00,0.0645
657.00,0.0644
656.00,0.0643
655.00,0.0643
654.00,0.0644
653.00,0.0646
652.00,0.0647
651.00,0.0650
650.00,0.0652
649.00,0.0653
648.00,0.0654
647.00,0.0654
646.00,0.0653
645.00,0.0652
644.00,0.0651
643.00,0.0650
642.00,0.0650
641.00,0.0649
640.00,0.0648
639.00,0.0646
638.00,0.0644
637.00,0.0641
636.00,0.0640
635.00,0.0639
634.00,0.0639
633.00,0.0639
632.00,0.0640
631.00,0.0641
630.00,0.0642
629.00,0.0643
628.00,0.0645
627.00,0.0647
626.00,0.0650
625.00,0.0653
624.00,0.0657
623.00,0.0661
622.00,0.0666
621.00,0.0670
620.00,0.0673
619.00,0.0676
618.00,0.0676
617.00,0.0674
616.00,0.0671
615.00,0.0668
614.00,0.0666
613.00,0.0666
612.00,0.0666
611.00,0.0668
610.00,0.0671
609.00,0.0675
608.00,0.0682
607.00,0.0691
606.00,0.0701
605.00,0.0711
604.00,0.0721
603.00,0.0730
602.00,0.0737
601.00,0.0742
600.00,0.0745
599.00,0.0748
598.00,0.0749
597.00,0.0750
596.00,0.0752
595.00,0.0753
594.00,0.0755
593.00,0.0757
592.00,0.0759
591.00,0.0761
590.00,0.0763
589.00,0.0766
588.00,0.0769
587.00,0.0772
586.00,0.0775
585.00,0.0778
584.00,0.0782
583.00,0.0786
582.00,0.0791
581.00,0.0796
580.00,0.0802
579.00,0.0810
578.00,0.0818
577.00,0.0825
576.00,0.0828
575.00,0.0827
574.00,0.0822
573.00,0.0817
572.00,0.0812
571.00,0.0807
570.00,0.0802
569.00,0.0797
568.00,0.0794
567.00,0.0793
566.00,0.0793
565.00,0.0794
564.00,0.0797
563.00,0.0801
562.00,0.0806
561.00,0.0810
560.00,0.0813
559.00,0.0814
558.00,0.0813
557.00,0.0809
556.00,0.0804
555.00,0.0799
554.00,0.0795
553.00,0.0794
552.00,0.0794
551.00,0.0797
550.00,0.0802
549.00,0.0809
548.00,0.0817
547.00,0.0823
546.00,0.0828
545.00,0.0829
544.00,0.0828
543.00,0.0825
542.00,0.0823
541.00,0.0821
540.00,0.0820
539.00,0.0818
538.00,0.0816
537.00,0.0814
536.00,0.0816
535.00,0.0820
534.00,0.0827
533.00,0.0835
532.00,0.0843
531.00,0.0849
530.00,0.0850
529.00,0.0848
528.00,0.0844
527.00,0.0839
526.00,0.0834
525.00,0.0830
524.00,0.0827
523.00,0.0825
522.00,0.0822
521.00,0.0817
520.00,0.0813
519.00,0.0809
518.00,0.0808
517.00,0.0808
516.00,0.0808
515.00,0.0807
514.00,0.0805
513.00,0.0802
512.00,0.0800
511.00,0.0800
510.00,0.0800
509.00,0.0800
508.00,0.0801
507.00,0.0803
506.00,0.0804
505.00,0.0803
504.00,0.0801
503.00,0.0798
502.00,0.0796
501.00,0.0795
500.00,0.0793
499.00,0.0790
498.00,0.0788
497.00,0.0786
496.00,0.0785
495.00,0.0786
494.00,0.0787
493.00,0.0789
492.00,0.0791
491.00,0.0792
490.00,0.0790
489.00,0.0786
488.00,0.0782
487.00,0.0778
486.00,0.0775
485.00,0.0773
484.00,0.0771
483.00,0.0769
482.00,0.0768
481.00,0.0768
480.00,0.0769
479.00,0.0771
478.00,0.0772
477.00,0.0770
476.00,0.0767
475.00,0.0763
474.00,0.0757
473.00,0.0755
472.00,0.0755
471.00,0.0758
470.00,0.0760
469.00,0.0759
468.00,0.0757
467.00,0.0755
466.00,0.0753
465.00,0.0753
464.00,0.0752
463.00,0.0752
462.00,0.0751
461.00,0.0751
460.00,0.0750
459.00,0.0749
458.00,0.0749
457.00,0.0750
456.00,0.0751
455.00,0.0749
454.00,0.0745
453.00,0.0740
452.00,0.0736
451.00,0.0734
450.00,0.0734
449.00,0.0733
448.00,0.0731
447.00,0.0730
446.00,0.0729
445.00,0.0731
444.00,0.0735
443.00,0.0739
442.00,0.0741
441.00,0.0742
440.00,0.0741
439.00,0.0740
438.00,0.0739
437.00,0.0737
436.00,0.0736
435.00,0.0735
434.00,0.0735
433.00,0.0733
432.00,0.0731
431.00,0.0730
430.00,0.0731
429.00,0.0735
428.00,0.0739
427.00,0.0743
426.00,0.0744
425.00,0.0738
424.00,0.0729
423.00,0.0720
422.00,0.0717
421.00,0.0718
420.00,0.0721
419.00,0.0722
418.00,0.0722
417.00,0.0724
416.00,0.0727
415.00,0.0731
414.00,0.0733
413.00,0.0732
412.00,0.0730
411.00,0.0729
410.00,0.0728
409.00,0.0726
408.00,0.0718
407.00,0.0708
406.00,0.0703
405.00,0.0705
404.00,0.0710
403.00,0.0713
402.00,0.0716
401.00,0.0718
400.00,0.0715
