Created as New Dataset,Sample 971 By YargerLab Date Wednesday, July 30 2025
cm-1,A
4000.00,0.0016
3999.00,0.0016
3998.00,0.0016
3997.00,0.0016
3996.00,0.0016
3995.00,0.0016
3994.00,0.0016
3993.00,0.0016
3992.00,0.0016
3991.00,0.0016
3990.00,0.0016
3989.00,0.0016
3988.00,0.0016
3987.00,0.0016
3986.00,0.0016
3985.00,0.0016
3984.00,0.0016
3983.00,0.0016
3982.00,0.0016
3981.00,0.0016
3980.00,0.0016
3979.00,0.0016
3978.00,0.0016
3977.00,0.0016
3976.00,0.0016
3975.00,0.0016
3974.00,0.0016
3973.00,0.0016
3972.00,0.0016
3971.00,0.0016
3970.00,0.0016
3969.00,0.0016
3968.00,0.0015
3967.00,0.0015
3966.00,0.0015
3965.00,0.0016
3964.00,0.0016
3963.00,0.0016
3962.00,0.0016
3961.00,0.0016
3960.00,0.0015
3959.00,0.0015
3958.00,0.0015
3957.00,0.0015
3956.00,0.0016
3955.00,0.0016
3954.00,0.0016
3953.00,0.0016
3952.00,0.0016
3951.00,0.0015
3950.00,0.0015
3949.00,0.0015
3948.00,0.0015
3947.00,0.0015
3946.00,0.0015
3945.00,0.0015
3944.00,0.0015
3943.00,0.0016
3942.00,0.0016
3941.00,0.0016
3940.00,0.0015
3939.00,0.0015
3938.00,0.0015
3937.00,0.0015
3936.00,0.0015
3935.00,0.0015
3934.00,0.0015
3933.00,0.0015
3932.00,0.0015
3931.00,0.0015
3930.00,0.0015
3929.00,0.0015
3928.00,0.0015
3927.00,0.0015
3926.00,0.0015
3925.00,0.0015
3924.00,0.0015
3923.00,0.0015
3922.00,0.0014
3921.00,0.0014
3920.00,0.0015
3919.00,0.0015
3918.00,0.0015
3917.00,0.0015
3916.00,0.0015
3915.00,0.0015
3914.00,0.0015
3913.00,0.0015
3912.00,0.0015
3911.00,0.0015
3910.00,0.0015
3909.00,0.0015
3908.00,0.0015
3907.00,0.0014
3906.00,0.0014
3905.00,0.0014
3904.00,0.0014
3903.00,0.0014
3902.00,0.0013
3901.00,0.0013
3900.00,0.0013
3899.00,0.0013
3898.00,0.0014
3897.00,0.0014
3896.00,0.0014
3895.00,0.0014
3894.00,0.0014
3893.00,0.0014
3892.00,0.0015
3891.00,0.0015
3890.00,0.0015
3889.00,0.0014
3888.00,0.0014
3887.00,0.0014
3886.00,0.0014
3885.00,0.0014
3884.00,0.0014
3883.00,0.0014
3882.00,0.0014
3881.00,0.0014
3880.00,0.0014
3879.00,0.0014
3878.00,0.0014
3877.00,0.0014
3876.00,0.0014
3875.00,0.0014
3874.00,0.0014
3873.00,0.0014
3872.00,0.0014
3871.00,0.0014
3870.00,0.0014
3869.00,0.0013
3868.00,0.0013
3867.00,0.0013
3866.00,0.0013
3865.00,0.0013
3864.00,0.0013
3863.00,0.0013
3862.00,0.0014
3861.00,0.0014
3860.00,0.0014
3859.00,0.0014
3858.00,0.0014
3857.00,0.0014
3856.00,0.0013
3855.00,0.0013
3854.00,0.0013
3853.00,0.0013
3852.00,0.0013
3851.00,0.0013
3850.00,0.0013
3849.00,0.0014
3848.00,0.0014
3847.00,0.0015
3846.00,0.0015
3845.00,0.0015
3844.00,0.0014
3843.00,0.0014
3842.00,0.0014
3841.00,0.0013
3840.00,0.0013
3839.00,0.0013
3838.00,0.0013
3837.00,0.0013
3836.00,0.0013
3835.00,0.0013
3834.00,0.0013
3833.00,0.0013
3832.00,0.0013
3831.00,0.0014
3830.00,0.0014
3829.00,0.0014
3828.00,0.0014
3827.00,0.0015
3826.00,0.0015
3825.00,0.0014
3824.00,0.0014
3823.00,0.0013
3822.00,0.0014
3821.00,0.0014
3820.00,0.0014
3819.00,0.0013
3818.00,0.0013
3817.00,0.0013
3816.00,0.0013
3815.00,0.0014
3814.00,0.0014
3813.00,0.0014
3812.00,0.0014
3811.00,0.0014
3810.00,0.0014
3809.00,0.0014
3808.00,0.0014
3807.00,0.0014
3806.00,0.0014
3805.00,0.0013
3804.00,0.0013
3803.00,0.0012
3802.00,0.0013
3801.00,0.0013
3800.00,0.0012
3799.00,0.0012
3798.00,0.0013
3797.00,0.0013
3796.00,0.0014
3795.00,0.0015
3794.00,0.0015
3793.00,0.0015
3792.00,0.0015
3791.00,0.0015
3790.00,0.0015
3789.00,0.0015
3788.00,0.0016
3787.00,0.0016
3786.00,0.0015
3785.00,0.0015
3784.00,0.0015
3783.00,0.0015
3782.00,0.0015
3781.00,0.0015
3780.00,0.0015
3779.00,0.0015
3778.00,0.0015
3777.00,0.0015
3776.00,0.0015
3775.00,0.0015
3774.00,0.0015
3773.00,0.0015
3772.00,0.0015
3771.00,0.0015
3770.00,0.0015
3769.00,0.0015
3768.00,0.0015
3767.00,0.0015
3766.00,0.0015
3765.00,0.0015
3764.00,0.0015
3763.00,0.0015
3762.00,0.0014
3761.00,0.0014
3760.00,0.0014
3759.00,0.0014
3758.00,0.0014
3757.00,0.0014
3756.00,0.0014
3755.00,0.0014
3754.00,0.0014
3753.00,0.0014
3752.00,0.0014
3751.00,0.0013
3750.00,0.0012
3749.00,0.0012
3748.00,0.0011
3747.00,0.0011
3746.00,0.0011
3745.00,0.0012
3744.00,0.0012
3743.00,0.0012
3742.00,0.0012
3741.00,0.0013
3740.00,0.0013
3739.00,0.0012
3738.00,0.0012
3737.00,0.0012
3736.00,0.0012
3735.00,0.0012
3734.00,0.0011
3733.00,0.0011
3732.00,0.0012
3731.00,0.0012
3730.00,0.0013
3729.00,0.0013
3728.00,0.0013
3727.00,0.0014
3726.00,0.0014
3725.00,0.0014
3724.00,0.0014
3723.00,0.0014
3722.00,0.0014
3721.00,0.0014
3720.00,0.0014
3719.00,0.0014
3718.00,0.0014
3717.00,0.0014
3716.00,0.0014
3715.00,0.0014
3714.00,0.0014
3713.00,0.0013
3712.00,0.0013
3711.00,0.0013
3710.00,0.0013
3709.00,0.0013
3708.00,0.0013
3707.00,0.0013
3706.00,0.0014
3705.00,0.0014
3704.00,0.0014
3703.00,0.0014
3702.00,0.0014
3701.00,0.0014
3700.00,0.0014
3699.00,0.0014
3698.00,0.0014
3697.00,0.0015
3696.00,0.0015
3695.00,0.0015
3694.00,0.0015
3693.00,0.0015
3692.00,0.0015
3691.00,0.0015
3690.00,0.0015
3689.00,0.0015
3688.00,0.0016
3687.00,0.0016
3686.00,0.0017
3685.00,0.0018
3684.00,0.0018
3683.00,0.0019
3682.00,0.0019
3681.00,0.0019
3680.00,0.0019
3679.00,0.0019
3678.00,0.0018
3677.00,0.0018
3676.00,0.0018
3675.00,0.0018
3674.00,0.0018
3673.00,0.0018
3672.00,0.0018
3671.00,0.0019
3670.00,0.0019
3669.00,0.0020
3668.00,0.0020
3667.00,0.0020
3666.00,0.0021
3665.00,0.0021
3664.00,0.0022
3663.00,0.0023
3662.00,0.0023
3661.00,0.0023
3660.00,0.0023
3659.00,0.0023
3658.00,0.0023
3657.00,0.0024
3656.00,0.0024
3655.00,0.0025
3654.00,0.0025
3653.00,0.0025
3652.00,0.0025
3651.00,0.0025
3650.00,0.0026
3649.00,0.0026
3648.00,0.0026
3647.00,0.0026
3646.00,0.0026
3645.00,0.0027
3644.00,0.0028
3643.00,0.0029
3642.00,0.0030
3641.00,0.0031
3640.00,0.0031
3639.00,0.0031
3638.00,0.0032
3637.00,0.0032
3636.00,0.0032
3635.00,0.0033
3634.00,0.0033
3633.00,0.0034
3632.00,0.0033
3631.00,0.0033
3630.00,0.0033
3629.00,0.0033
3628.00,0.0034
3627.00,0.0034
3626.00,0.0035
3625.00,0.0036
3624.00,0.0038
3623.00,0.0038
3622.00,0.0039
3621.00,0.0039
3620.00,0.0039
3619.00,0.0040
3618.00,0.0041
3617.00,0.0041
3616.00,0.0042
3615.00,0.0043
3614.00,0.0043
3613.00,0.0044
3612.00,0.0044
3611.00,0.0045
3610.00,0.0046
3609.00,0.0046
3608.00,0.0047
3607.00,0.0048
3606.00,0.0049
3605.00,0.0050
3604.00,0.0051
3603.00,0.0051
3602.00,0.0052
3601.00,0.0053
3600.00,0.0054
3599.00,0.0054
3598.00,0.0055
3597.00,0.0056
3596.00,0.0057
3595.00,0.0058
3594.00,0.0059
3593.00,0.0060
3592.00,0.0060
3591.00,0.0061
3590.00,0.0062
3589.00,0.0062
3588.00,0.0063
3587.00,0.0064
3586.00,0.0065
3585.00,0.0067
3584.00,0.0068
3583.00,0.0069
3582.00,0.0070
3581.00,0.0071
3580.00,0.0072
3579.00,0.0073
3578.00,0.0074
3577.00,0.0075
3576.00,0.0076
3575.00,0.0077
3574.00,0.0078
3573.00,0.0079
3572.00,0.0080
3571.00,0.0081
3570.00,0.0081
3569.00,0.0082
3568.00,0.0083
3567.00,0.0083
3566.00,0.0084
3565.00,0.0085
3564.00,0.0087
3563.00,0.0088
3562.00,0.0088
3561.00,0.0089
3560.00,0.0090
3559.00,0.0091
3558.00,0.0092
3557.00,0.0093
3556.00,0.0094
3555.00,0.0095
3554.00,0.0096
3553.00,0.0097
3552.00,0.0097
3551.00,0.0098
3550.00,0.0099
3549.00,0.0100
3548.00,0.0101
3547.00,0.0102
3546.00,0.0102
3545.00,0.0103
3544.00,0.0103
3543.00,0.0103
3542.00,0.0104
3541.00,0.0105
3540.00,0.0105
3539.00,0.0106
3538.00,0.0107
3537.00,0.0108
3536.00,0.0108
3535.00,0.0109
3534.00,0.0110
3533.00,0.0110
3532.00,0.0111
3531.00,0.0111
3530.00,0.0111
3529.00,0.0112
3528.00,0.0112
3527.00,0.0113
3526.00,0.0113
3525.00,0.0114
3524.00,0.0114
3523.00,0.0115
3522.00,0.0116
3521.00,0.0116
3520.00,0.0117
3519.00,0.0117
3518.00,0.0118
3517.00,0.0118
3516.00,0.0119
3515.00,0.0120
3514.00,0.0120
3513.00,0.0121
3512.00,0.0121
3511.00,0.0121
3510.00,0.0121
3509.00,0.0121
3508.00,0.0122
3507.00,0.0122
3506.00,0.0123
3505.00,0.0123
3504.00,0.0124
3503.00,0.0124
3502.00,0.0125
3501.00,0.0125
3500.00,0.0126
3499.00,0.0126
3498.00,0.0127
3497.00,0.0127
3496.00,0.0128
3495.00,0.0128
3494.00,0.0129
3493.00,0.0129
3492.00,0.0130
3491.00,0.0130
3490.00,0.0130
3489.00,0.0131
3488.00,0.0131
3487.00,0.0131
3486.00,0.0132
3485.00,0.0132
3484.00,0.0133
3483.00,0.0133
3482.00,0.0134
3481.00,0.0134
3480.00,0.0135
3479.00,0.0136
3478.00,0.0136
3477.00,0.0136
3476.00,0.0137
3475.00,0.0137
3474.00,0.0137
3473.00,0.0137
3472.00,0.0138
3471.00,0.0138
3470.00,0.0139
3469.00,0.0139
3468.00,0.0139
3467.00,0.0140
3466.00,0.0140
3465.00,0.0140
3464.00,0.0140
3463.00,0.0140
3462.00,0.0140
3461.00,0.0141
3460.00,0.0141
3459.00,0.0141
3458.00,0.0142
3457.00,0.0142
3456.00,0.0142
3455.00,0.0142
3454.00,0.0142
3453.00,0.0142
3452.00,0.0142
3451.00,0.0143
3450.00,0.0143
3449.00,0.0142
3448.00,0.0142
3447.00,0.0142
3446.00,0.0142
3445.00,0.0143
3444.00,0.0143
3443.00,0.0143
3442.00,0.0143
3441.00,0.0143
3440.00,0.0143
3439.00,0.0143
3438.00,0.0143
3437.00,0.0143
3436.00,0.0143
3435.00,0.0143
3434.00,0.0143
3433.00,0.0143
3432.00,0.0143
3431.00,0.0143
3430.00,0.0143
3429.00,0.0143
3428.00,0.0142
3427.00,0.0142
3426.00,0.0142
3425.00,0.0142
3424.00,0.0142
3423.00,0.0142
3422.00,0.0142
3421.00,0.0141
3420.00,0.0141
3419.00,0.0141
3418.00,0.0141
3417.00,0.0141
3416.00,0.0141
3415.00,0.0140
3414.00,0.0140
3413.00,0.0140
3412.00,0.0140
3411.00,0.0140
3410.00,0.0140
3409.00,0.0139
3408.00,0.0139
3407.00,0.0139
3406.00,0.0139
3405.00,0.0139
3404.00,0.0139
3403.00,0.0139
3402.00,0.0138
3401.00,0.0138
3400.00,0.0138
3399.00,0.0138
3398.00,0.0137
3397.00,0.0137
3396.00,0.0137
3395.00,0.0137
3394.00,0.0137
3393.00,0.0137
3392.00,0.0137
3391.00,0.0136
3390.00,0.0136
3389.00,0.0136
3388.00,0.0135
3387.00,0.0135
3386.00,0.0135
3385.00,0.0135
3384.00,0.0135
3383.00,0.0135
3382.00,0.0135
3381.00,0.0135
3380.00,0.0134
3379.00,0.0134
3378.00,0.0134
3377.00,0.0133
3376.00,0.0133
3375.00,0.0133
3374.00,0.0133
3373.00,0.0133
3372.00,0.0132
3371.00,0.0132
3370.00,0.0131
3369.00,0.0131
3368.00,0.0131
3367.00,0.0130
3366.00,0.0130
3365.00,0.0131
3364.00,0.0131
3363.00,0.0131
3362.00,0.0131
3361.00,0.0131
3360.00,0.0131
3359.00,0.0131
3358.00,0.0131
3357.00,0.0131
3356.00,0.0131
3355.00,0.0130
3354.00,0.0130
3353.00,0.0129
3352.00,0.0129
3351.00,0.0129
3350.00,0.0128
3349.00,0.0129
3348.00,0.0129
3347.00,0.0129
3346.00,0.0129
3345.00,0.0128
3344.00,0.0128
3343.00,0.0128
3342.00,0.0127
3341.00,0.0127
3340.00,0.0127
3339.00,0.0126
3338.00,0.0126
3337.00,0.0127
3336.00,0.0127
3335.00,0.0127
3334.00,0.0127
3333.00,0.0127
3332.00,0.0127
3331.00,0.0126
3330.00,0.0126
3329.00,0.0126
3328.00,0.0125
3327.00,0.0125
3326.00,0.0125
3325.00,0.0124
3324.00,0.0125
3323.00,0.0125
3322.00,0.0125
3321.00,0.0125
3320.00,0.0125
3319.00,0.0125
3318.00,0.0124
3317.00,0.0124
3316.00,0.0124
3315.00,0.0123
3314.00,0.0123
3313.00,0.0123
3312.00,0.0123
3311.00,0.0122
3310.00,0.0122
3309.00,0.0121
3308.00,0.0120
3307.00,0.0119
3306.00,0.0119
3305.00,0.0120
3304.00,0.0120
3303.00,0.0121
3302.00,0.0121
3301.00,0.0122
3300.00,0.0122
3299.00,0.0121
3298.00,0.0121
3297.00,0.0121
3296.00,0.0120
3295.00,0.0120
3294.00,0.0120
3293.00,0.0120
3292.00,0.0120
3291.00,0.0120
3290.00,0.0121
3289.00,0.0121
3288.00,0.0121
3287.00,0.0121
3286.00,0.0121
3285.00,0.0120
3284.00,0.0120
3283.00,0.0120
3282.00,0.0120
3281.00,0.0120
3280.00,0.0119
3279.00,0.0119
3278.00,0.0119
3277.00,0.0119
3276.00,0.0119
3275.00,0.0118
3274.00,0.0118
3273.00,0.0118
3272.00,0.0117
3271.00,0.0117
3270.00,0.0117
3269.00,0.0118
3268.00,0.0118
3267.00,0.0118
3266.00,0.0117
3265.00,0.0117
3264.00,0.0117
3263.00,0.0117
3262.00,0.0117
3261.00,0.0117
3260.00,0.0117
3259.00,0.0117
3258.00,0.0116
3257.00,0.0116
3256.00,0.0116
3255.00,0.0115
3254.00,0.0115
3253.00,0.0115
3252.00,0.0115
3251.00,0.0115
3250.00,0.0114
3249.00,0.0114
3248.00,0.0114
3247.00,0.0113
3246.00,0.0113
3245.00,0.0113
3244.00,0.0113
3243.00,0.0113
3242.00,0.0113
3241.00,0.0113
3240.00,0.0113
3239.00,0.0113
3238.00,0.0112
3237.00,0.0112
3236.00,0.0112
3235.00,0.0112
3234.00,0.0112
3233.00,0.0111
3232.00,0.0111
3231.00,0.0111
3230.00,0.0111
3229.00,0.0111
3228.00,0.0111
3227.00,0.0111
3226.00,0.0110
3225.00,0.0110
3224.00,0.0110
3223.00,0.0109
3222.00,0.0109
3221.00,0.0109
3220.00,0.0109
3219.00,0.0109
3218.00,0.0108
3217.00,0.0108
3216.00,0.0108
3215.00,0.0108
3214.00,0.0108
3213.00,0.0107
3212.00,0.0107
3211.00,0.0107
3210.00,0.0106
3209.00,0.0106
3208.00,0.0106
3207.00,0.0106
3206.00,0.0106
3205.00,0.0105
3204.00,0.0105
3203.00,0.0105
3202.00,0.0104
3201.00,0.0104
3200.00,0.0104
3199.00,0.0104
3198.00,0.0103
3197.00,0.0103
3196.00,0.0103
3195.00,0.0103
3194.00,0.0103
3193.00,0.0102
3192.00,0.0102
3191.00,0.0102
3190.00,0.0102
3189.00,0.0102
3188.00,0.0102
3187.00,0.0102
3186.00,0.0102
3185.00,0.0102
3184.00,0.0102
3183.00,0.0101
3182.00,0.0101
3181.00,0.0100
3180.00,0.0100
3179.00,0.0100
3178.00,0.0100
3177.00,0.0100
3176.00,0.0100
3175.00,0.0100
3174.00,0.0099
3173.00,0.0099
3172.00,0.0099
3171.00,0.0099
3170.00,0.0099
3169.00,0.0099
3168.00,0.0099
3167.00,0.0098
3166.00,0.0098
3165.00,0.0098
3164.00,0.0098
3163.00,0.0097
3162.00,0.0097
3161.00,0.0097
3160.00,0.0097
3159.00,0.0097
3158.00,0.0096
3157.00,0.0096
3156.00,0.0096
3155.00,0.0096
3154.00,0.0095
3153.00,0.0095
3152.00,0.0095
3151.00,0.0095
3150.00,0.0094
3149.00,0.0094
3148.00,0.0094
3147.00,0.0093
3146.00,0.0093
3145.00,0.0093
3144.00,0.0093
3143.00,0.0093
3142.00,0.0093
3141.00,0.0093
3140.00,0.0093
3139.00,0.0093
3138.00,0.0092
3137.00,0.0092
3136.00,0.0092
3135.00,0.0091
3134.00,0.0091
3133.00,0.0091
3132.00,0.0091
3131.00,0.0091
3130.00,0.0091
3129.00,0.0091
3128.00,0.0091
3127.00,0.0090
3126.00,0.0090
3125.00,0.0090
3124.00,0.0090
3123.00,0.0091
3122.00,0.0091
3121.00,0.0091
3120.00,0.0091
3119.00,0.0090
3118.00,0.0090
3117.00,0.0090
3116.00,0.0090
3115.00,0.0089
3114.00,0.0089
3113.00,0.0089
3112.00,0.0089
3111.00,0.0088
3110.00,0.0088
3109.00,0.0088
3108.00,0.0087
3107.00,0.0087
3106.00,0.0087
3105.00,0.0087
3104.00,0.0087
3103.00,0.0086
3102.00,0.0086
3101.00,0.0086
3100.00,0.0086
3099.00,0.0085
3098.00,0.0085
3097.00,0.0085
3096.00,0.0085
3095.00,0.0085
3094.00,0.0085
3093.00,0.0085
3092.00,0.0085
3091.00,0.0085
3090.00,0.0085
3089.00,0.0085
3088.00,0.0085
3087.00,0.0085
3086.00,0.0085
3085.00,0.0085
3084.00,0.0085
3083.00,0.0085
3082.00,0.0085
3081.00,0.0086
3080.00,0.0086
3079.00,0.0086
3078.00,0.0086
3077.00,0.0085
3076.00,0.0085
3075.00,0.0085
3074.00,0.0085
3073.00,0.0085
3072.00,0.0085
3071.00,0.0084
3070.00,0.0084
3069.00,0.0084
3068.00,0.0084
3067.00,0.0083
3066.00,0.0083
3065.00,0.0083
3064.00,0.0082
3063.00,0.0082
3062.00,0.0082
3061.00,0.0082
3060.00,0.0082
3059.00,0.0082
3058.00,0.0082
3057.00,0.0082
3056.00,0.0082
3055.00,0.0081
3054.00,0.0081
3053.00,0.0081
3052.00,0.0081
3051.00,0.0080
3050.00,0.0080
3049.00,0.0080
3048.00,0.0080
3047.00,0.0080
3046.00,0.0080
3045.00,0.0080
3044.00,0.0080
3043.00,0.0080
3042.00,0.0080
3041.00,0.0080
3040.00,0.0080
3039.00,0.0080
3038.00,0.0080
3037.00,0.0080
3036.00,0.0080
3035.00,0.0080
3034.00,0.0080
3033.00,0.0080
3032.00,0.0080
3031.00,0.0080
3030.00,0.0080
3029.00,0.0080
3028.00,0.0080
3027.00,0.0080
3026.00,0.0080
3025.00,0.0080
3024.00,0.0080
3023.00,0.0080
3022.00,0.0080
3021.00,0.0080
3020.00,0.0081
3019.00,0.0081
3018.00,0.0082
3017.00,0.0082
3016.00,0.0083
3015.00,0.0083
3014.00,0.0084
3013.00,0.0085
3012.00,0.0086
3011.00,0.0087
3010.00,0.0089
3009.00,0.0090
3008.00,0.0092
3007.00,0.0094
3006.00,0.0096
3005.00,0.0099
3004.00,0.0101
3003.00,0.0104
3002.00,0.0107
3001.00,0.0110
3000.00,0.0114
2999.00,0.0117
2998.00,0.0121
2997.00,0.0126
2996.00,0.0130
2995.00,0.0135
2994.00,0.0140
2993.00,0.0145
2992.00,0.0150
2991.00,0.0156
2990.00,0.0161
2989.00,0.0167
2988.00,0.0172
2987.00,0.0178
2986.00,0.0183
2985.00,0.0188
2984.00,0.0192
2983.00,0.0197
2982.00,0.0201
2981.00,0.0205
2980.00,0.0208
2979.00,0.0212
2978.00,0.0215
2977.00,0.0218
2976.00,0.0220
2975.00,0.0223
2974.00,0.0225
2973.00,0.0227
2972.00,0.0229
2971.00,0.0232
2970.00,0.0234
2969.00,0.0237
2968.00,0.0240
2967.00,0.0243
2966.00,0.0246
2965.00,0.0249
2964.00,0.0253
2963.00,0.0257
2962.00,0.0261
2961.00,0.0264
2960.00,0.0268
2959.00,0.0271
2958.00,0.0274
2957.00,0.0277
2956.00,0.0280
2955.00,0.0282
2954.00,0.0284
2953.00,0.0285
2952.00,0.0286
2951.00,0.0287
2950.00,0.0286
2949.00,0.0286
2948.00,0.0285
2947.00,0.0283
2946.00,0.0282
2945.00,0.0281
2944.00,0.0281
2943.00,0.0280
2942.00,0.0279
2941.00,0.0279
2940.00,0.0279
2939.00,0.0280
2938.00,0.0280
2937.00,0.0282
2936.00,0.0284
2935.00,0.0286
2934.00,0.0288
2933.00,0.0290
2932.00,0.0293
2931.00,0.0295
2930.00,0.0298
2929.00,0.0300
2928.00,0.0302
2927.00,0.0304
2926.00,0.0305
2925.00,0.0306
2924.00,0.0306
2923.00,0.0306
2922.00,0.0305
2921.00,0.0303
2920.00,0.0301
2919.00,0.0299
2918.00,0.0296
2917.00,0.0292
2916.00,0.0288
2915.00,0.0283
2914.00,0.0279
2913.00,0.0273
2912.00,0.0268
2911.00,0.0262
2910.00,0.0257
2909.00,0.0252
2908.00,0.0248
2907.00,0.0244
2906.00,0.0240
2905.00,0.0237
2904.00,0.0234
2903.00,0.0232
2902.00,0.0230
2901.00,0.0228
2900.00,0.0227
2899.00,0.0226
2898.00,0.0226
2897.00,0.0225
2896.00,0.0225
2895.00,0.0226
2894.00,0.0226
2893.00,0.0226
2892.00,0.0226
2891.00,0.0225
2890.00,0.0225
2889.00,0.0225
2888.00,0.0224
2887.00,0.0224
2886.00,0.0224
2885.00,0.0223
2884.00,0.0223
2883.00,0.0223
2882.00,0.0223
2881.00,0.0223
2880.00,0.0224
2879.00,0.0224
2878.00,0.0225
2877.00,0.0225
2876.00,0.0226
2875.00,0.0227
2874.00,0.0227
2873.00,0.0228
2872.00,0.0228
2871.00,0.0228
2870.00,0.0227
2869.00,0.0226
2868.00,0.0225
2867.00,0.0224
2866.00,0.0223
2865.00,0.0222
2864.00,0.0221
2863.00,0.0221
2862.00,0.0221
2861.00,0.0221
2860.00,0.0220
2859.00,0.0220
2858.00,0.0218
2857.00,0.0216
2856.00,0.0214
2855.00,0.0211
2854.00,0.0207
2853.00,0.0202
2852.00,0.0197
2851.00,0.0192
2850.00,0.0186
2849.00,0.0180
2848.00,0.0174
2847.00,0.0168
2846.00,0.0163
2845.00,0.0157
2844.00,0.0152
2843.00,0.0147
2842.00,0.0142
2841.00,0.0138
2840.00,0.0134
2839.00,0.0130
2838.00,0.0127
2837.00,0.0124
2836.00,0.0121
2835.00,0.0118
2834.00,0.0116
2833.00,0.0113
2832.00,0.0111
2831.00,0.0108
2830.00,0.0106
2829.00,0.0104
2828.00,0.0102
2827.00,0.0100
2826.00,0.0098
2825.00,0.0096
2824.00,0.0094
2823.00,0.0093
2822.00,0.0091
2821.00,0.0089
2820.00,0.0088
2819.00,0.0086
2818.00,0.0085
2817.00,0.0083
2816.00,0.0082
2815.00,0.0081
2814.00,0.0080
2813.00,0.0079
2812.00,0.0077
2811.00,0.0076
2810.00,0.0075
2809.00,0.0074
2808.00,0.0073
2807.00,0.0071
2806.00,0.0070
2805.00,0.0069
2804.00,0.0068
2803.00,0.0068
2802.00,0.0067
2801.00,0.0066
2800.00,0.0065
2799.00,0.0065
2798.00,0.0064
2797.00,0.0063
2796.00,0.0062
2795.00,0.0062
2794.00,0.0061
2793.00,0.0061
2792.00,0.0061
2791.00,0.0060
2790.00,0.0059
2789.00,0.0059
2788.00,0.0058
2787.00,0.0058
2786.00,0.0058
2785.00,0.0057
2784.00,0.0057
2783.00,0.0056
2782.00,0.0056
2781.00,0.0056
2780.00,0.0055
2779.00,0.0055
2778.00,0.0054
2777.00,0.0054
2776.00,0.0054
2775.00,0.0053
2774.00,0.0053
2773.00,0.0053
2772.00,0.0052
2771.00,0.0052
2770.00,0.0052
2769.00,0.0051
2768.00,0.0051
2767.00,0.0051
2766.00,0.0051
2765.00,0.0050
2764.00,0.0050
2763.00,0.0050
2762.00,0.0050
2761.00,0.0050
2760.00,0.0050
2759.00,0.0050
2758.00,0.0049
2757.00,0.0049
2756.00,0.0049
2755.00,0.0049
2754.00,0.0049
2753.00,0.0049
2752.00,0.0049
2751.00,0.0049
2750.00,0.0050
2749.00,0.0050
2748.00,0.0050
2747.00,0.0049
2746.00,0.0049
2745.00,0.0050
2744.00,0.0050
2743.00,0.0050
2742.00,0.0050
2741.00,0.0050
2740.00,0.0050
2739.00,0.0050
2738.00,0.0050
2737.00,0.0050
2736.00,0.0050
2735.00,0.0050
2734.00,0.0050
2733.00,0.0050
2732.00,0.0050
2731.00,0.0050
2730.00,0.0050
2729.00,0.0049
2728.00,0.0049
2727.00,0.0049
2726.00,0.0049
2725.00,0.0048
2724.00,0.0048
2723.00,0.0048
2722.00,0.0048
2721.00,0.0047
2720.00,0.0047
2719.00,0.0047
2718.00,0.0047
2717.00,0.0047
2716.00,0.0047
2715.00,0.0047
2714.00,0.0046
2713.00,0.0046
2712.00,0.0046
2711.00,0.0046
2710.00,0.0046
2709.00,0.0046
2708.00,0.0046
2707.00,0.0046
2706.00,0.0045
2705.00,0.0045
2704.00,0.0045
2703.00,0.0045
2702.00,0.0044
2701.00,0.0044
2700.00,0.0044
2699.00,0.0044
2698.00,0.0044
2697.00,0.0044
2696.00,0.0044
2695.00,0.0043
2694.00,0.0043
2693.00,0.0043
2692.00,0.0042
2691.00,0.0042
2690.00,0.0042
2689.00,0.0042
2688.00,0.0042
2687.00,0.0042
2686.00,0.0042
2685.00,0.0041
2684.00,0.0041
2683.00,0.0041
2682.00,0.0041
2681.00,0.0041
2680.00,0.0041
2679.00,0.0041
2678.00,0.0041
2677.00,0.0041
2676.00,0.0040
2675.00,0.0040
2674.00,0.0040
2673.00,0.0040
2672.00,0.0040
2671.00,0.0040
2670.00,0.0040
2669.00,0.0040
2668.00,0.0040
2667.00,0.0041
2666.00,0.0041
2665.00,0.0041
2664.00,0.0041
2663.00,0.0042
2662.00,0.0042
2661.00,0.0042
2660.00,0.0042
2659.00,0.0043
2658.00,0.0043
2657.00,0.0043
2656.00,0.0043
2655.00,0.0043
2654.00,0.0043
2653.00,0.0043
2652.00,0.0043
2651.00,0.0042
2650.00,0.0042
2649.00,0.0042
2648.00,0.0042
2647.00,0.0042
2646.00,0.0042
2645.00,0.0042
2644.00,0.0042
2643.00,0.0042
2642.00,0.0042
2641.00,0.0042
2640.00,0.0041
2639.00,0.0041
2638.00,0.0041
2637.00,0.0040
2636.00,0.0040
2635.00,0.0040
2634.00,0.0040
2633.00,0.0039
2632.00,0.0039
2631.00,0.0039
2630.00,0.0039
2629.00,0.0039
2628.00,0.0039
2627.00,0.0039
2626.00,0.0039
2625.00,0.0039
2624.00,0.0039
2623.00,0.0039
2622.00,0.0039
2621.00,0.0038
2620.00,0.0038
2619.00,0.0038
2618.00,0.0037
2617.00,0.0037
2616.00,0.0037
2615.00,0.0037
2614.00,0.0037
2613.00,0.0037
2612.00,0.0037
2611.00,0.0037
2610.00,0.0037
2609.00,0.0036
2608.00,0.0036
2607.00,0.0036
2606.00,0.0036
2605.00,0.0036
2604.00,0.0035
2603.00,0.0035
2602.00,0.0035
2601.00,0.0035
2600.00,0.0035
2599.00,0.0035
2598.00,0.0035
2597.00,0.0035
2596.00,0.0035
2595.00,0.0034
2594.00,0.0034
2593.00,0.0034
2592.00,0.0034
2591.00,0.0034
2590.00,0.0034
2589.00,0.0034
2588.00,0.0034
2587.00,0.0034
2586.00,0.0034
2585.00,0.0034
2584.00,0.0034
2583.00,0.0034
2582.00,0.0034
2581.00,0.0034
2580.00,0.0034
2579.00,0.0033
2578.00,0.0033
2577.00,0.0033
2576.00,0.0033
2575.00,0.0033
2574.00,0.0033
2573.00,0.0033
2572.00,0.0033
2571.00,0.0033
2570.00,0.0033
2569.00,0.0033
2568.00,0.0032
2567.00,0.0032
2566.00,0.0032
2565.00,0.0031
2564.00,0.0032
2563.00,0.0032
2562.00,0.0032
2561.00,0.0032
2560.00,0.0032
2559.00,0.0031
2558.00,0.0031
2557.00,0.0030
2556.00,0.0030
2555.00,0.0030
2554.00,0.0030
2553.00,0.0030
2552.00,0.0030
2551.00,0.0030
2550.00,0.0030
2549.00,0.0030
2548.00,0.0030
2547.00,0.0030
2546.00,0.0029
2545.00,0.0029
2544.00,0.0029
2543.00,0.0029
2542.00,0.0029
2541.00,0.0029
2540.00,0.0028
2539.00,0.0028
2538.00,0.0028
2537.00,0.0027
2536.00,0.0027
2535.00,0.0027
2534.00,0.0027
2533.00,0.0027
2532.00,0.0027
2531.00,0.0027
2530.00,0.0027
2529.00,0.0026
2528.00,0.0026
2527.00,0.0026
2526.00,0.0026
2525.00,0.0026
2524.00,0.0026
2523.00,0.0026
2522.00,0.0025
2521.00,0.0025
2520.00,0.0025
2519.00,0.0025
2518.00,0.0025
2517.00,0.0024
2516.00,0.0024
2515.00,0.0024
2514.00,0.0023
2513.00,0.0023
2512.00,0.0023
2511.00,0.0024
2510.00,0.0024
2509.00,0.0024
2508.00,0.0024
2507.00,0.0024
2506.00,0.0023
2505.00,0.0023
2504.00,0.0023
2503.00,0.0022
2502.00,0.0022
2501.00,0.0022
2500.00,0.0023
2499.00,0.0023
2498.00,0.0023
2497.00,0.0023
2496.00,0.0023
2495.00,0.0022
2494.00,0.0022
2493.00,0.0022
2492.00,0.0023
2491.00,0.0023
2490.00,0.0023
2489.00,0.0022
2488.00,0.0022
2487.00,0.0022
2486.00,0.0022
2485.00,0.0022
2484.00,0.0021
2483.00,0.0021
2482.00,0.0021
2481.00,0.0021
2480.00,0.0022
2479.00,0.0022
2478.00,0.0022
2477.00,0.0022
2476.00,0.0022
2475.00,0.0021
2474.00,0.0021
2473.00,0.0021
2472.00,0.0021
2471.00,0.0021
2470.00,0.0021
2469.00,0.0021
2468.00,0.0021
2467.00,0.0021
2466.00,0.0021
2465.00,0.0021
2464.00,0.0022
2463.00,0.0022
2462.00,0.0022
2461.00,0.0022
2460.00,0.0022
2459.00,0.0022
2458.00,0.0022
2457.00,0.0022
2456.00,0.0022
2455.00,0.0023
2454.00,0.0023
2453.00,0.0022
2452.00,0.0022
2451.00,0.0022
2450.00,0.0022
2449.00,0.0022
2448.00,0.0022
2447.00,0.0022
2446.00,0.0022
2445.00,0.0022
2444.00,0.0021
2443.00,0.0021
2442.00,0.0021
2441.00,0.0021
2440.00,0.0021
2439.00,0.0021
2438.00,0.0021
2437.00,0.0021
2436.00,0.0021
2435.00,0.0021
2434.00,0.0021
2433.00,0.0021
2432.00,0.0021
2431.00,0.0021
2430.00,0.0021
2429.00,0.0021
2428.00,0.0021
2427.00,0.0021
2426.00,0.0021
2425.00,0.0021
2424.00,0.0020
2423.00,0.0020
2422.00,0.0019
2421.00,0.0019
2420.00,0.0019
2419.00,0.0020
2418.00,0.0020
2417.00,0.0020
2416.00,0.0020
2415.00,0.0020
2414.00,0.0020
2413.00,0.0020
2412.00,0.0020
2411.00,0.0020
2410.00,0.0020
2409.00,0.0020
2408.00,0.0020
2407.00,0.0020
2406.00,0.0019
2405.00,0.0018
2404.00,0.0018
2403.00,0.0018
2402.00,0.0018
2401.00,0.0019
2400.00,0.0019
2399.00,0.0019
2398.00,0.0019
2397.00,0.0019
2396.00,0.0018
2395.00,0.0018
2394.00,0.0018
2393.00,0.0018
2392.00,0.0018
2391.00,0.0018
2390.00,0.0018
2389.00,0.0017
2388.00,0.0016
2387.00,0.0016
2386.00,0.0015
2385.00,0.0015
2384.00,0.0015
2383.00,0.0014
2382.00,0.0014
2381.00,0.0014
2380.00,0.0014
2379.00,0.0014
2378.00,0.0014
2377.00,0.0014
2376.00,0.0014
2375.00,0.0014
2374.00,0.0014
2373.00,0.0014
2372.00,0.0013
2371.00,0.0013
2370.00,0.0012
2369.00,0.0012
2368.00,0.0012
2367.00,0.0013
2366.00,0.0013
2365.00,0.0013
2364.00,0.0014
2363.00,0.0014
2362.00,0.0014
2361.00,0.0014
2360.00,0.0014
2359.00,0.0014
2358.00,0.0014
2357.00,0.0014
2356.00,0.0014
2355.00,0.0015
2354.00,0.0015
2353.00,0.0015
2352.00,0.0015
2351.00,0.0015
2350.00,0.0015
2349.00,0.0016
2348.00,0.0017
2347.00,0.0017
2346.00,0.0017
2345.00,0.0017
2344.00,0.0018
2343.00,0.0018
2342.00,0.0018
2341.00,0.0019
2340.00,0.0019
2339.00,0.0019
2338.00,0.0019
2337.00,0.0019
2336.00,0.0019
2335.00,0.0019
2334.00,0.0019
2333.00,0.0019
2332.00,0.0019
2331.00,0.0019
2330.00,0.0020
2329.00,0.0022
2328.00,0.0025
2327.00,0.0029
2326.00,0.0032
2325.00,0.0033
2324.00,0.0032
2323.00,0.0030
2322.00,0.0028
2321.00,0.0027
2320.00,0.0026
2319.00,0.0026
2318.00,0.0025
2317.00,0.0025
2316.00,0.0024
2315.00,0.0024
2314.00,0.0023
2313.00,0.0023
2312.00,0.0023
2311.00,0.0023
2310.00,0.0023
2309.00,0.0023
2308.00,0.0023
2307.00,0.0023
2306.00,0.0023
2305.00,0.0023
2304.00,0.0023
2303.00,0.0024
2302.00,0.0024
2301.00,0.0024
2300.00,0.0025
2299.00,0.0025
2298.00,0.0026
2297.00,0.0026
2296.00,0.0027
2295.00,0.0028
2294.00,0.0028
2293.00,0.0029
2292.00,0.0030
2291.00,0.0030
2290.00,0.0031
2289.00,0.0031
2288.00,0.0032
2287.00,0.0032
2286.00,0.0032
2285.00,0.0031
2284.00,0.0031
2283.00,0.0030
2282.00,0.0029
2281.00,0.0029
2280.00,0.0028
2279.00,0.0028
2278.00,0.0027
2277.00,0.0027
2276.00,0.0026
2275.00,0.0026
2274.00,0.0026
2273.00,0.0027
2272.00,0.0027
2271.00,0.0027
2270.00,0.0026
2269.00,0.0025
2268.00,0.0024
2267.00,0.0023
2266.00,0.0022
2265.00,0.0022
2264.00,0.0022
2263.00,0.0022
2262.00,0.0022
2261.00,0.0022
2260.00,0.0022
2259.00,0.0022
2258.00,0.0021
2257.00,0.0021
2256.00,0.0020
2255.00,0.0020
2254.00,0.0020
2253.00,0.0020
2252.00,0.0021
2251.00,0.0021
2250.00,0.0021
2249.00,0.0022
2248.00,0.0022
2247.00,0.0022
2246.00,0.0022
2245.00,0.0022
2244.00,0.0022
2243.00,0.0022
2242.00,0.0022
2241.00,0.0022
2240.00,0.0022
2239.00,0.0022
2238.00,0.0022
2237.00,0.0022
2236.00,0.0023
2235.00,0.0023
2234.00,0.0023
2233.00,0.0023
2232.00,0.0023
2231.00,0.0023
2230.00,0.0023
2229.00,0.0022
2228.00,0.0022
2227.00,0.0022
2226.00,0.0021
2225.00,0.0021
2224.00,0.0021
2223.00,0.0022
2222.00,0.0022
2221.00,0.0023
2220.00,0.0023
2219.00,0.0023
2218.00,0.0023
2217.00,0.0023
2216.00,0.0023
2215.00,0.0022
2214.00,0.0022
2213.00,0.0022
2212.00,0.0023
2211.00,0.0023
2210.00,0.0022
2209.00,0.0022
2208.00,0.0021
2207.00,0.0021
2206.00,0.0021
2205.00,0.0021
2204.00,0.0021
2203.00,0.0022
2202.00,0.0022
2201.00,0.0022
2200.00,0.0023
2199.00,0.0024
2198.00,0.0024
2197.00,0.0024
2196.00,0.0024
2195.00,0.0024
2194.00,0.0023
2193.00,0.0023
2192.00,0.0024
2191.00,0.0025
2190.00,0.0026
2189.00,0.0027
2188.00,0.0028
2187.00,0.0027
2186.00,0.0025
2185.00,0.0023
2184.00,0.0021
2183.00,0.0020
2182.00,0.0019
2181.00,0.0019
2180.00,0.0020
2179.00,0.0020
2178.00,0.0019
2177.00,0.0017
2176.00,0.0016
2175.00,0.0016
2174.00,0.0017
2173.00,0.0019
2172.00,0.0021
2171.00,0.0023
2170.00,0.0024
2169.00,0.0026
2168.00,0.0027
2167.00,0.0029
2166.00,0.0030
2165.00,0.0032
2164.00,0.0035
2163.00,0.0037
2162.00,0.0032
2161.00,0.0021
2160.00,0.0007
2159.00,-0.0004
2158.00,-0.0010
2157.00,-0.0010
2156.00,-0.0007
2155.00,-0.0003
2154.00,-0.0000
2153.00,0.0003
2152.00,0.0006
2151.00,0.0007
2150.00,0.0007
2149.00,0.0006
2148.00,0.0005
2147.00,0.0004
2146.00,0.0003
2145.00,0.0003
2144.00,0.0004
2143.00,0.0004
2142.00,0.0005
2141.00,0.0005
2140.00,0.0006
2139.00,0.0005
2138.00,0.0004
2137.00,0.0001
2136.00,-0.0001
2135.00,-0.0002
2134.00,-0.0001
2133.00,-0.0000
2132.00,0.0002
2131.00,0.0004
2130.00,0.0005
2129.00,0.0006
2128.00,0.0007
2127.00,0.0008
2126.00,0.0009
2125.00,0.0010
2124.00,0.0011
2123.00,0.0012
2122.00,0.0013
2121.00,0.0014
2120.00,0.0015
2119.00,0.0017
2118.00,0.0018
2117.00,0.0020
2116.00,0.0021
2115.00,0.0022
2114.00,0.0021
2113.00,0.0020
2112.00,0.0020
2111.00,0.0019
2110.00,0.0019
2109.00,0.0019
2108.00,0.0019
2107.00,0.0019
2106.00,0.0019
2105.00,0.0020
2104.00,0.0021
2103.00,0.0021
2102.00,0.0021
2101.00,0.0021
2100.00,0.0020
2099.00,0.0019
2098.00,0.0018
2097.00,0.0016
2096.00,0.0015
2095.00,0.0014
2094.00,0.0014
2093.00,0.0015
2092.00,0.0016
2091.00,0.0017
2090.00,0.0017
2089.00,0.0018
2088.00,0.0019
2087.00,0.0020
2086.00,0.0020
2085.00,0.0020
2084.00,0.0021
2083.00,0.0022
2082.00,0.0022
2081.00,0.0023
2080.00,0.0023
2079.00,0.0023
2078.00,0.0023
2077.00,0.0023
2076.00,0.0023
2075.00,0.0023
2074.00,0.0022
2073.00,0.0021
2072.00,0.0021
2071.00,0.0020
2070.00,0.0019
2069.00,0.0018
2068.00,0.0018
2067.00,0.0018
2066.00,0.0018
2065.00,0.0018
2064.00,0.0018
2063.00,0.0018
2062.00,0.0018
2061.00,0.0018
2060.00,0.0018
2059.00,0.0019
2058.00,0.0019
2057.00,0.0019
2056.00,0.0019
2055.00,0.0019
2054.00,0.0021
2053.00,0.0024
2052.00,0.0028
2051.00,0.0028
2050.00,0.0026
2049.00,0.0022
2048.00,0.0020
2047.00,0.0020
2046.00,0.0019
2045.00,0.0018
2044.00,0.0018
2043.00,0.0019
2042.00,0.0020
2041.00,0.0020
2040.00,0.0021
2039.00,0.0021
2038.00,0.0020
2037.00,0.0019
2036.00,0.0019
2035.00,0.0019
2034.00,0.0018
2033.00,0.0017
2032.00,0.0016
2031.00,0.0015
2030.00,0.0013
2029.00,0.0011
2028.00,0.0011
2027.00,0.0011
2026.00,0.0011
2025.00,0.0010
2024.00,0.0010
2023.00,0.0011
2022.00,0.0011
2021.00,0.0011
2020.00,0.0012
2019.00,0.0012
2018.00,0.0010
2017.00,0.0009
2016.00,0.0010
2015.00,0.0011
2014.00,0.0011
2013.00,0.0012
2012.00,0.0013
2011.00,0.0013
2010.00,0.0012
2009.00,0.0010
2008.00,0.0008
2007.00,0.0007
2006.00,0.0005
2005.00,0.0005
2004.00,0.0006
2003.00,0.0007
2002.00,0.0007
2001.00,0.0008
2000.00,0.0011
1999.00,0.0013
1998.00,0.0014
1997.00,0.0015
1996.00,0.0016
1995.00,0.0017
1994.00,0.0017
1993.00,0.0016
1992.00,0.0016
1991.00,0.0015
1990.00,0.0015
1989.00,0.0015
1988.00,0.0016
1987.00,0.0017
1986.00,0.0017
1985.00,0.0018
1984.00,0.0020
1983.00,0.0023
1982.00,0.0025
1981.00,0.0026
1980.00,0.0024
1979.00,0.0019
1978.00,0.0012
1977.00,0.0007
1976.00,0.0005
1975.00,0.0004
1974.00,0.0003
1973.00,0.0003
1972.00,0.0006
1971.00,0.0009
1970.00,0.0011
1969.00,0.0012
1968.00,0.0013
1967.00,0.0011
1966.00,0.0008
1965.00,0.0006
1964.00,0.0005
1963.00,0.0005
1962.00,0.0004
1961.00,0.0003
1960.00,0.0003
1959.00,0.0003
1958.00,0.0004
1957.00,0.0005
1956.00,0.0006
1955.00,0.0007
1954.00,0.0007
1953.00,0.0006
1952.00,0.0007
1951.00,0.0007
1950.00,0.0008
1949.00,0.0008
1948.00,0.0009
1947.00,0.0010
1946.00,0.0009
1945.00,0.0008
1944.00,0.0007
1943.00,0.0008
1942.00,0.0008
1941.00,0.0008
1940.00,0.0009
1939.00,0.0009
1938.00,0.0008
1937.00,0.0008
1936.00,0.0008
1935.00,0.0009
1934.00,0.0009
1933.00,0.0010
1932.00,0.0010
1931.00,0.0010
1930.00,0.0010
1929.00,0.0010
1928.00,0.0009
1927.00,0.0010
1926.00,0.0010
1925.00,0.0011
1924.00,0.0012
1923.00,0.0013
1922.00,0.0012
1921.00,0.0012
1920.00,0.0012
1919.00,0.0013
1918.00,0.0012
1917.00,0.0012
1916.00,0.0012
1915.00,0.0012
1914.00,0.0011
1913.00,0.0012
1912.00,0.0013
1911.00,0.0013
1910.00,0.0014
1909.00,0.0013
1908.00,0.0013
1907.00,0.0013
1906.00,0.0013
1905.00,0.0013
1904.00,0.0013
1903.00,0.0014
1902.00,0.0014
1901.00,0.0013
1900.00,0.0013
1899.00,0.0013
1898.00,0.0013
1897.00,0.0013
1896.00,0.0014
1895.00,0.0014
1894.00,0.0014
1893.00,0.0014
1892.00,0.0014
1891.00,0.0015
1890.00,0.0014
1889.00,0.0014
1888.00,0.0014
1887.00,0.0014
1886.00,0.0014
1885.00,0.0014
1884.00,0.0014
1883.00,0.0014
1882.00,0.0013
1881.00,0.0013
1880.00,0.0014
1879.00,0.0014
1878.00,0.0014
1877.00,0.0014
1876.00,0.0014
1875.00,0.0014
1874.00,0.0013
1873.00,0.0013
1872.00,0.0014
1871.00,0.0014
1870.00,0.0015
1869.00,0.0015
1868.00,0.0016
1867.00,0.0016
1866.00,0.0015
1865.00,0.0015
1864.00,0.0015
1863.00,0.0015
1862.00,0.0015
1861.00,0.0015
1860.00,0.0015
1859.00,0.0015
1858.00,0.0016
1857.00,0.0016
1856.00,0.0016
1855.00,0.0016
1854.00,0.0016
1853.00,0.0016
1852.00,0.0016
1851.00,0.0017
1850.00,0.0017
1849.00,0.0017
1848.00,0.0017
1847.00,0.0017
1846.00,0.0016
1845.00,0.0016
1844.00,0.0016
1843.00,0.0015
1842.00,0.0015
1841.00,0.0015
1840.00,0.0016
1839.00,0.0017
1838.00,0.0017
1837.00,0.0017
1836.00,0.0017
1835.00,0.0017
1834.00,0.0016
1833.00,0.0016
1832.00,0.0016
1831.00,0.0017
1830.00,0.0016
1829.00,0.0016
1828.00,0.0016
1827.00,0.0017
1826.00,0.0018
1825.00,0.0018
1824.00,0.0018
1823.00,0.0018
1822.00,0.0018
1821.00,0.0017
1820.00,0.0016
1819.00,0.0016
1818.00,0.0015
1817.00,0.0014
1816.00,0.0015
1815.00,0.0015
1814.00,0.0016
1813.00,0.0017
1812.00,0.0018
1811.00,0.0018
1810.00,0.0018
1809.00,0.0018
1808.00,0.0018
1807.00,0.0018
1806.00,0.0018
1805.00,0.0018
1804.00,0.0019
1803.00,0.0019
1802.00,0.0019
1801.00,0.0019
1800.00,0.0020
1799.00,0.0020
1798.00,0.0021
1797.00,0.0020
1796.00,0.0020
1795.00,0.0020
1794.00,0.0019
1793.00,0.0020
1792.00,0.0020
1791.00,0.0021
1790.00,0.0021
1789.00,0.0021
1788.00,0.0022
1787.00,0.0022
1786.00,0.0022
1785.00,0.0023
1784.00,0.0023
1783.00,0.0024
1782.00,0.0024
1781.00,0.0024
1780.00,0.0024
1779.00,0.0024
1778.00,0.0024
1777.00,0.0024
1776.00,0.0024
1775.00,0.0025
1774.00,0.0025
1773.00,0.0025
1772.00,0.0025
1771.00,0.0025
1770.00,0.0025
1769.00,0.0026
1768.00,0.0027
1767.00,0.0028
1766.00,0.0028
1765.00,0.0028
1764.00,0.0029
1763.00,0.0029
1762.00,0.0030
1761.00,0.0030
1760.00,0.0030
1759.00,0.0031
1758.00,0.0032
1757.00,0.0032
1756.00,0.0033
1755.00,0.0033
1754.00,0.0033
1753.00,0.0034
1752.00,0.0035
1751.00,0.0036
1750.00,0.0037
1749.00,0.0037
1748.00,0.0038
1747.00,0.0039
1746.00,0.0040
1745.00,0.0040
1744.00,0.0041
1743.00,0.0041
1742.00,0.0041
1741.00,0.0041
1740.00,0.0042
1739.00,0.0043
1738.00,0.0043
1737.00,0.0043
1736.00,0.0045
1735.00,0.0047
1734.00,0.0048
1733.00,0.0050
1732.00,0.0052
1731.00,0.0054
1730.00,0.0055
1729.00,0.0056
1728.00,0.0058
1727.00,0.0060
1726.00,0.0062
1725.00,0.0063
1724.00,0.0066
1723.00,0.0068
1722.00,0.0069
1721.00,0.0071
1720.00,0.0074
1719.00,0.0078
1718.00,0.0082
1717.00,0.0085
1716.00,0.0090
1715.00,0.0095
1714.00,0.0099
1713.00,0.0104
1712.00,0.0111
1711.00,0.0119
1710.00,0.0126
1709.00,0.0135
1708.00,0.0145
1707.00,0.0159
1706.00,0.0173
1705.00,0.0189
1704.00,0.0206
1703.00,0.0222
1702.00,0.0239
1701.00,0.0266
1700.00,0.0305
1699.00,0.0343
1698.00,0.0376
1697.00,0.0410
1696.00,0.0453
1695.00,0.0501
1694.00,0.0546
1693.00,0.0588
1692.00,0.0630
1691.00,0.0674
1690.00,0.0720
1689.00,0.0767
1688.00,0.0812
1687.00,0.0853
1686.00,0.0891
1685.00,0.0929
1684.00,0.0971
1683.00,0.1014
1682.00,0.1053
1681.00,0.1087
1680.00,0.1118
1679.00,0.1147
1678.00,0.1173
1677.00,0.1195
1676.00,0.1212
1675.00,0.1226
1674.00,0.1243
1673.00,0.1262
1672.00,0.1280
1671.00,0.1290
1670.00,0.1293
1669.00,0.1296
1668.00,0.1305
1667.00,0.1319
1666.00,0.1333
1665.00,0.1346
1664.00,0.1353
1663.00,0.1356
1662.00,0.1358
1661.00,0.1365
1660.00,0.1373
1659.00,0.1381
1658.00,0.1387
1657.00,0.1394
1656.00,0.1401
1655.00,0.1399
1654.00,0.1373
1653.00,0.1327
1652.00,0.1301
1651.00,0.1299
1650.00,0.1300
1649.00,0.1291
1648.00,0.1262
1647.00,0.1215
1646.00,0.1165
1645.00,0.1126
1644.00,0.1095
1643.00,0.1064
1642.00,0.1030
1641.00,0.0991
1640.00,0.0953
1639.00,0.0918
1638.00,0.0882
1637.00,0.0839
1636.00,0.0786
1635.00,0.0736
1634.00,0.0700
1633.00,0.0675
1632.00,0.0652
1631.00,0.0629
1630.00,0.0606
1629.00,0.0583
1628.00,0.0563
1627.00,0.0549
1626.00,0.0540
1625.00,0.0535
1624.00,0.0534
1623.00,0.0536
1622.00,0.0542
1621.00,0.0548
1620.00,0.0552
1619.00,0.0553
1618.00,0.0548
1617.00,0.0535
1616.00,0.0519
1615.00,0.0505
1614.00,0.0494
1613.00,0.0483
1612.00,0.0472
1611.00,0.0461
1610.00,0.0450
1609.00,0.0436
1608.00,0.0420
1607.00,0.0402
1606.00,0.0382
1605.00,0.0361
1604.00,0.0339
1603.00,0.0318
1602.00,0.0298
1601.00,0.0280
1600.00,0.0265
1599.00,0.0253
1598.00,0.0243
1597.00,0.0236
1596.00,0.0231
1595.00,0.0229
1594.00,0.0231
1593.00,0.0237
1592.00,0.0246
1591.00,0.0259
1590.00,0.0275
1589.00,0.0291
1588.00,0.0306
1587.00,0.0319
1586.00,0.0327
1585.00,0.0329
1584.00,0.0325
1583.00,0.0316
1582.00,0.0302
1581.00,0.0287
1580.00,0.0272
1579.00,0.0258
1578.00,0.0245
1577.00,0.0230
1576.00,0.0215
1575.00,0.0203
1574.00,0.0196
1573.00,0.0191
1572.00,0.0186
1571.00,0.0180
1570.00,0.0173
1569.00,0.0167
1568.00,0.0162
1567.00,0.0159
1566.00,0.0155
1565.00,0.0151
1564.00,0.0147
1563.00,0.0142
1562.00,0.0138
1561.00,0.0134
1560.00,0.0131
1559.00,0.0125
1558.00,0.0120
1557.00,0.0120
1556.00,0.0120
1555.00,0.0120
1554.00,0.0119
1553.00,0.0118
1552.00,0.0118
1551.00,0.0117
1550.00,0.0115
1549.00,0.0113
1548.00,0.0112
1547.00,0.0111
1546.00,0.0110
1545.00,0.0109
1544.00,0.0107
1543.00,0.0105
1542.00,0.0105
1541.00,0.0105
1540.00,0.0103
1539.00,0.0102
1538.00,0.0102
1537.00,0.0103
1536.00,0.0103
1535.00,0.0104
1534.00,0.0104
1533.00,0.0104
1532.00,0.0103
1531.00,0.0104
1530.00,0.0105
1529.00,0.0106
1528.00,0.0107
1527.00,0.0108
1526.00,0.0109
1525.00,0.0110
1524.00,0.0111
1523.00,0.0114
1522.00,0.0116
1521.00,0.0118
1520.00,0.0121
1519.00,0.0124
1518.00,0.0127
1517.00,0.0130
1516.00,0.0133
1515.00,0.0135
1514.00,0.0137
1513.00,0.0140
1512.00,0.0142
1511.00,0.0145
1510.00,0.0148
1509.00,0.0151
1508.00,0.0155
1507.00,0.0159
1506.00,0.0166
1505.00,0.0176
1504.00,0.0188
1503.00,0.0201
1502.00,0.0215
1501.00,0.0232
1500.00,0.0250
1499.00,0.0271
1498.00,0.0292
1497.00,0.0313
1496.00,0.0329
1495.00,0.0340
1494.00,0.0346
1493.00,0.0347
1492.00,0.0343
1491.00,0.0334
1490.00,0.0319
1489.00,0.0300
1488.00,0.0281
1487.00,0.0263
1486.00,0.0245
1485.00,0.0230
1484.00,0.0217
1483.00,0.0205
1482.00,0.0195
1481.00,0.0187
1480.00,0.0182
1479.00,0.0180
1478.00,0.0180
1477.00,0.0182
1476.00,0.0188
1475.00,0.0195
1474.00,0.0207
1473.00,0.0224
1472.00,0.0247
1471.00,0.0274
1470.00,0.0302
1469.00,0.0332
1468.00,0.0364
1467.00,0.0399
1466.00,0.0438
1465.00,0.0482
1464.00,0.0524
1463.00,0.0559
1462.00,0.0586
1461.00,0.0604
1460.00,0.0615
1459.00,0.0614
1458.00,0.0598
1457.00,0.0566
1456.00,0.0531
1455.00,0.0504
1454.00,0.0483
1453.00,0.0466
1452.00,0.0451
1451.00,0.0441
1450.00,0.0438
1449.00,0.0442
1448.00,0.0453
1447.00,0.0470
1446.00,0.0491
1445.00,0.0515
1444.00,0.0541
1443.00,0.0569
1442.00,0.0597
1441.00,0.0625
1440.00,0.0652
1439.00,0.0676
1438.00,0.0699
1437.00,0.0722
1436.00,0.0746
1435.00,0.0766
1434.00,0.0783
1433.00,0.0797
1432.00,0.0807
1431.00,0.0815
1430.00,0.0824
1429.00,0.0836
1428.00,0.0853
1427.00,0.0874
1426.00,0.0899
1425.00,0.0926
1424.00,0.0954
1423.00,0.0976
1422.00,0.0991
1421.00,0.0994
1420.00,0.0978
1419.00,0.0941
1418.00,0.0892
1417.00,0.0843
1416.00,0.0793
1415.00,0.0741
1414.00,0.0690
1413.00,0.0643
1412.00,0.0600
1411.00,0.0563
1410.00,0.0534
1409.00,0.0512
1408.00,0.0496
1407.00,0.0484
1406.00,0.0476
1405.00,0.0470
1404.00,0.0465
1403.00,0.0460
1402.00,0.0456
1401.00,0.0449
1400.00,0.0436
1399.00,0.0419
1398.00,0.0400
1397.00,0.0381
1396.00,0.0361
1395.00,0.0339
1394.00,0.0320
1393.00,0.0306
1392.00,0.0295
1391.00,0.0288
1390.00,0.0284
1389.00,0.0282
1388.00,0.0283
1387.00,0.0286
1386.00,0.0293
1385.00,0.0301
1384.00,0.0311
1383.00,0.0322
1382.00,0.0334
1381.00,0.0346
1380.00,0.0357
1379.00,0.0366
1378.00,0.0373
1377.00,0.0378
1376.00,0.0381
1375.00,0.0382
1374.00,0.0381
1373.00,0.0379
1372.00,0.0375
1371.00,0.0371
1370.00,0.0367
1369.00,0.0361
1368.00,0.0354
1367.00,0.0348
1366.00,0.0344
1365.00,0.0341
1364.00,0.0338
1363.00,0.0336
1362.00,0.0334
1361.00,0.0330
1360.00,0.0323
1359.00,0.0314
1358.00,0.0301
1357.00,0.0286
1356.00,0.0271
1355.00,0.0257
1354.00,0.0244
1353.00,0.0235
1352.00,0.0228
1351.00,0.0222
1350.00,0.0219
1349.00,0.0216
1348.00,0.0214
1347.00,0.0212
1346.00,0.0212
1345.00,0.0212
1344.00,0.0212
1343.00,0.0213
1342.00,0.0214
1341.00,0.0214
1340.00,0.0215
1339.00,0.0216
1338.00,0.0218
1337.00,0.0220
1336.00,0.0224
1335.00,0.0229
1334.00,0.0234
1333.00,0.0240
1332.00,0.0246
1331.00,0.0253
1330.00,0.0261
1329.00,0.0269
1328.00,0.0278
1327.00,0.0288
1326.00,0.0299
1325.00,0.0311
1324.00,0.0323
1323.00,0.0336
1322.00,0.0348
1321.00,0.0360
1320.00,0.0369
1319.00,0.0376
1318.00,0.0381
1317.00,0.0382
1316.00,0.0381
1315.00,0.0377
1314.00,0.0371
1313.00,0.0363
1312.00,0.0355
1311.00,0.0347
1310.00,0.0342
1309.00,0.0338
1308.00,0.0336
1307.00,0.0337
1306.00,0.0340
1305.00,0.0347
1304.00,0.0355
1303.00,0.0367
1302.00,0.0383
1301.00,0.0404
1300.00,0.0430
1299.00,0.0462
1298.00,0.0500
1297.00,0.0546
1296.00,0.0598
1295.00,0.0656
1294.00,0.0716
1293.00,0.0779
1292.00,0.0841
1291.00,0.0900
1290.00,0.0954
1289.00,0.1002
1288.00,0.1042
1287.00,0.1071
1286.00,0.1090
1285.00,0.1097
1284.00,0.1094
1283.00,0.1080
1282.00,0.1061
1281.00,0.1037
1280.00,0.1014
1279.00,0.0994
1278.00,0.0979
1277.00,0.0972
1276.00,0.0971
1275.00,0.0974
1274.00,0.0981
1273.00,0.0987
1272.00,0.0990
1271.00,0.0987
1270.00,0.0979
1269.00,0.0963
1268.00,0.0940
1267.00,0.0911
1266.00,0.0877
1265.00,0.0840
1264.00,0.0801
1263.00,0.0761
1262.00,0.0722
1261.00,0.0684
1260.00,0.0647
1259.00,0.0613
1258.00,0.0582
1257.00,0.0553
1256.00,0.0527
1255.00,0.0504
1254.00,0.0483
1253.00,0.0466
1252.00,0.0451
1251.00,0.0439
1250.00,0.0430
1249.00,0.0424
1248.00,0.0421
1247.00,0.0421
1246.00,0.0424
1245.00,0.0430
1244.00,0.0437
1243.00,0.0445
1242.00,0.0454
1241.00,0.0462
1240.00,0.0470
1239.00,0.0477
1238.00,0.0483
1237.00,0.0490
1236.00,0.0496
1235.00,0.0502
1234.00,0.0507
1233.00,0.0511
1232.00,0.0514
1231.00,0.0516
1230.00,0.0516
1229.00,0.0516
1228.00,0.0514
1227.00,0.0511
1226.00,0.0509
1225.00,0.0506
1224.00,0.0504
1223.00,0.0502
1222.00,0.0501
1221.00,0.0500
1220.00,0.0498
1219.00,0.0495
1218.00,0.0490
1217.00,0.0484
1216.00,0.0474
1215.00,0.0462
1214.00,0.0448
1213.00,0.0432
1212.00,0.0416
1211.00,0.0400
1210.00,0.0385
1209.00,0.0372
1208.00,0.0360
1207.00,0.0350
1206.00,0.0342
1205.00,0.0337
1204.00,0.0334
1203.00,0.0333
1202.00,0.0334
1201.00,0.0338
1200.00,0.0344
1199.00,0.0350
1198.00,0.0358
1197.00,0.0366
1196.00,0.0373
1195.00,0.0378
1194.00,0.0381
1193.00,0.0379
1192.00,0.0373
1191.00,0.0363
1190.00,0.0352
1189.00,0.0339
1188.00,0.0325
1187.00,0.0313
1186.00,0.0303
1185.00,0.0294
1184.00,0.0286
1183.00,0.0280
1182.00,0.0277
1181.00,0.0274
1180.00,0.0273
1179.00,0.0273
1178.00,0.0274
1177.00,0.0277
1176.00,0.0280
1175.00,0.0284
1174.00,0.0290
1173.00,0.0295
1172.00,0.0300
1171.00,0.0305
1170.00,0.0309
1169.00,0.0312
1168.00,0.0313
1167.00,0.0314
1166.00,0.0314
1165.00,0.0315
1164.00,0.0317
1163.00,0.0320
1162.00,0.0325
1161.00,0.0331
1160.00,0.0339
1159.00,0.0346
1158.00,0.0353
1157.00,0.0356
1156.00,0.0355
1155.00,0.0350
1154.00,0.0342
1153.00,0.0331
1152.00,0.0317
1151.00,0.0303
1150.00,0.0288
1149.00,0.0274
1148.00,0.0260
1147.00,0.0246
1146.00,0.0235
1145.00,0.0224
1144.00,0.0215
1143.00,0.0207
1142.00,0.0201
1141.00,0.0198
1140.00,0.0195
1139.00,0.0195
1138.00,0.0198
1137.00,0.0204
1136.00,0.0213
1135.00,0.0227
1134.00,0.0244
1133.00,0.0264
1132.00,0.0284
1131.00,0.0301
1130.00,0.0312
1129.00,0.0316
1128.00,0.0311
1127.00,0.0299
1126.00,0.0283
1125.00,0.0267
1124.00,0.0252
1123.00,0.0239
1122.00,0.0230
1121.00,0.0223
1120.00,0.0218
1119.00,0.0215
1118.00,0.0213
1117.00,0.0213
1116.00,0.0213
1115.00,0.0213
1114.00,0.0214
1113.00,0.0216
1112.00,0.0217
1111.00,0.0218
1110.00,0.0219
1109.00,0.0221
1108.00,0.0223
1107.00,0.0226
1106.00,0.0230
1105.00,0.0235
1104.00,0.0240
1103.00,0.0246
1102.00,0.0251
1101.00,0.0255
1100.00,0.0256
1099.00,0.0255
1098.00,0.0252
1097.00,0.0246
1096.00,0.0240
1095.00,0.0233
1094.00,0.0226
1093.00,0.0220
1092.00,0.0214
1091.00,0.0209
1090.00,0.0206
1089.00,0.0203
1088.00,0.0200
1087.00,0.0198
1086.00,0.0197
1085.00,0.0196
1084.00,0.0196
1083.00,0.0196
1082.00,0.0199
1081.00,0.0202
1080.00,0.0205
1079.00,0.0209
1078.00,0.0215
1077.00,0.0221
1076.00,0.0227
1075.00,0.0233
1074.00,0.0239
1073.00,0.0245
1072.00,0.0251
1071.00,0.0258
1070.00,0.0267
1069.00,0.0278
1068.00,0.0291
1067.00,0.0307
1066.00,0.0327
1065.00,0.0348
1064.00,0.0372
1063.00,0.0397
1062.00,0.0423
1061.00,0.0446
1060.00,0.0466
1059.00,0.0480
1058.00,0.0488
1057.00,0.0487
1056.00,0.0476
1055.00,0.0458
1054.00,0.0434
1053.00,0.0406
1052.00,0.0378
1051.00,0.0353
1050.00,0.0331
1049.00,0.0315
1048.00,0.0303
1047.00,0.0296
1046.00,0.0293
1045.00,0.0293
1044.00,0.0296
1043.00,0.0300
1042.00,0.0305
1041.00,0.0311
1040.00,0.0316
1039.00,0.0321
1038.00,0.0326
1037.00,0.0331
1036.00,0.0334
1035.00,0.0337
1034.00,0.0340
1033.00,0.0343
1032.00,0.0345
1031.00,0.0345
1030.00,0.0343
1029.00,0.0338
1028.00,0.0329
1027.00,0.0320
1026.00,0.0310
1025.00,0.0302
1024.00,0.0296
1023.00,0.0292
1022.00,0.0290
1021.00,0.0289
1020.00,0.0289
1019.00,0.0289
1018.00,0.0289
1017.00,0.0287
1016.00,0.0283
1015.00,0.0275
1014.00,0.0266
1013.00,0.0256
1012.00,0.0245
1011.00,0.0235
1010.00,0.0229
1009.00,0.0225
1008.00,0.0225
1007.00,0.0229
1006.00,0.0236
1005.00,0.0244
1004.00,0.0252
1003.00,0.0258
1002.00,0.0261
1001.00,0.0260
1000.00,0.0255
999.00,0.0247
998.00,0.0239
997.00,0.0230
996.00,0.0222
995.00,0.0214
994.00,0.0207
993.00,0.0201
992.00,0.0195
991.00,0.0189
990.00,0.0184
989.00,0.0180
988.00,0.0174
987.00,0.0169
986.00,0.0165
985.00,0.0161
984.00,0.0158
983.00,0.0155
982.00,0.0154
981.00,0.0153
980.00,0.0152
979.00,0.0152
978.00,0.0152
977.00,0.0151
976.00,0.0150
975.00,0.0149
974.00,0.0148
973.00,0.0147
972.00,0.0145
971.00,0.0143
970.00,0.0142
969.00,0.0140
968.00,0.0138
967.00,0.0137
966.00,0.0136
965.00,0.0134
964.00,0.0132
963.00,0.0130
962.00,0.0129
961.00,0.0127
960.00,0.0125
959.00,0.0123
958.00,0.0122
957.00,0.0120
956.00,0.0118
955.00,0.0116
954.00,0.0115
953.00,0.0115
952.00,0.0114
951.00,0.0114
950.00,0.0114
949.00,0.0115
948.00,0.0115
947.00,0.0116
946.00,0.0118
945.00,0.0120
944.00,0.0122
943.00,0.0125
942.00,0.0129
941.00,0.0135
940.00,0.0141
939.00,0.0148
938.00,0.0158
937.00,0.0168
936.00,0.0178
935.00,0.0187
934.00,0.0195
933.00,0.0199
932.00,0.0199
931.00,0.0197
930.00,0.0193
929.00,0.0189
928.00,0.0185
927.00,0.0183
926.00,0.0181
925.00,0.0179
924.00,0.0177
923.00,0.0173
922.00,0.0170
921.00,0.0166
920.00,0.0163
919.00,0.0159
918.00,0.0157
917.00,0.0154
916.00,0.0150
915.00,0.0147
914.00,0.0144
913.00,0.0142
912.00,0.0140
911.00,0.0139
910.00,0.0140
909.00,0.0142
908.00,0.0144
907.00,0.0146
906.00,0.0151
905.00,0.0156
904.00,0.0161
903.00,0.0168
902.00,0.0176
901.00,0.0184
900.00,0.0190
899.00,0.0196
898.00,0.0201
897.00,0.0204
896.00,0.0204
895.00,0.0202
894.00,0.0199
893.00,0.0195
892.00,0.0190
891.00,0.0185
890.00,0.0181
889.00,0.0177
888.00,0.0173
887.00,0.0171
886.00,0.0170
885.00,0.0171
884.00,0.0171
883.00,0.0173
882.00,0.0175
881.00,0.0179
880.00,0.0183
879.00,0.0189
878.00,0.0195
877.00,0.0202
876.00,0.0208
875.00,0.0215
874.00,0.0223
873.00,0.0230
872.00,0.0235
871.00,0.0238
870.00,0.0241
869.00,0.0244
868.00,0.0245
867.00,0.0245
866.00,0.0246
865.00,0.0246
864.00,0.0247
863.00,0.0249
862.00,0.0252
861.00,0.0255
860.00,0.0258
859.00,0.0262
858.00,0.0268
857.00,0.0274
856.00,0.0280
855.00,0.0288
854.00,0.0296
853.00,0.0305
852.00,0.0313
851.00,0.0321
850.00,0.0330
849.00,0.0338
848.00,0.0344
847.00,0.0349
846.00,0.0354
845.00,0.0357
844.00,0.0359
843.00,0.0359
842.00,0.0359
841.00,0.0358
840.00,0.0356
839.00,0.0352
838.00,0.0349
837.00,0.0346
836.00,0.0343
835.00,0.0341
834.00,0.0340
833.00,0.0339
832.00,0.0336
831.00,0.0333
830.00,0.0331
829.00,0.0328
828.00,0.0325
827.00,0.0321
826.00,0.0318
825.00,0.0315
824.00,0.0312
823.00,0.0309
822.00,0.0308
821.00,0.0306
820.00,0.0304
819.00,0.0303
818.00,0.0302
817.00,0.0301
816.00,0.0299
815.00,0.0296
814.00,0.0292
813.00,0.0287
812.00,0.0279
811.00,0.0270
810.00,0.0260
809.00,0.0248
808.00,0.0235
807.00,0.0222
806.00,0.0211
805.00,0.0201
804.00,0.0192
803.00,0.0185
802.00,0.0180
801.00,0.0176
800.00,0.0173
799.00,0.0172
798.00,0.0171
797.00,0.0171
796.00,0.0170
795.00,0.0170
794.00,0.0170
793.00,0.0170
792.00,0.0170
791.00,0.0170
790.00,0.0171
789.00,0.0172
788.00,0.0173
787.00,0.0173
786.00,0.0174
785.00,0.0175
784.00,0.0175
783.00,0.0175
782.00,0.0177
781.00,0.0180
780.00,0.0183
779.00,0.0186
778.00,0.0189
777.00,0.0191
776.00,0.0191
775.00,0.0190
774.00,0.0190
773.00,0.0189
772.00,0.0189
771.00,0.0190
770.00,0.0192
769.00,0.0194
768.00,0.0196
767.00,0.0199
766.00,0.0203
765.00,0.0208
764.00,0.0212
763.00,0.0216
762.00,0.0221
761.00,0.0227
760.00,0.0232
759.00,0.0237
758.00,0.0243
757.00,0.0249
756.00,0.0255
755.00,0.0260
754.00,0.0266
753.00,0.0272
752.00,0.0277
751.00,0.0282
750.00,0.0289
749.00,0.0295
748.00,0.0300
747.00,0.0305
746.00,0.0311
745.00,0.0318
744.00,0.0324
743.00,0.0331
742.00,0.0341
741.00,0.0351
740.00,0.0362
739.00,0.0372
738.00,0.0381
737.00,0.0388
736.00,0.0390
735.00,0.0389
734.00,0.0386
733.00,0.0380
732.00,0.0372
731.00,0.0363
730.00,0.0354
729.00,0.0345
728.00,0.0335
727.00,0.0325
726.00,0.0316
725.00,0.0307
724.00,0.0298
723.00,0.0290
722.00,0.0284
721.00,0.0278
720.00,0.0273
719.00,0.0269
718.00,0.0267
717.00,0.0265
716.00,0.0264
715.00,0.0263
714.00,0.0263
713.00,0.0263
712.00,0.0262
711.00,0.0260
710.00,0.0259
709.00,0.0257
708.00,0.0255
707.00,0.0253
706.00,0.0254
705.00,0.0255
704.00,0.0255
703.00,0.0256
702.00,0.0257
701.00,0.0258
700.00,0.0260
699.00,0.0263
698.00,0.0268
697.00,0.0273
696.00,0.0278
695.00,0.0284
694.00,0.0291
693.00,0.0298
692.00,0.0304
691.00,0.0309
690.00,0.0314
689.00,0.0317
688.00,0.0319
687.00,0.0321
686.00,0.0323
685.00,0.0324
684.00,0.0324
683.00,0.0325
682.00,0.0327
681.00,0.0329
680.00,0.0331
679.00,0.0333
678.00,0.0336
677.00,0.0340
676.00,0.0344
675.00,0.0348
674.00,0.0355
673.00,0.0361
672.00,0.0366
671.00,0.0372
670.00,0.0380
669.00,0.0389
668.00,0.0399
667.00,0.0408
666.00,0.0415
665.00,0.0422
664.00,0.0430
663.00,0.0439
662.00,0.0450
661.00,0.0461
660.00,0.0471
659.00,0.0482
658.00,0.0493
657.00,0.0505
656.00,0.0516
655.00,0.0528
654.00,0.0540
653.00,0.0551
652.00,0.0560
651.00,0.0567
650.00,0.0573
649.00,0.0578
648.00,0.0579
647.00,0.0578
646.00,0.0577
645.00,0.0573
644.00,0.0567
643.00,0.0560
642.00,0.0551
641.00,0.0542
640.00,0.0530
639.00,0.0519
638.00,0.0509
637.00,0.0500
636.00,0.0490
635.00,0.0481
634.00,0.0474
633.00,0.0468
632.00,0.0461
631.00,0.0456
630.00,0.0451
629.00,0.0447
628.00,0.0443
627.00,0.0439
626.00,0.0439
625.00,0.0438
624.00,0.0436
623.00,0.0433
622.00,0.0431
621.00,0.0429
620.00,0.0426
619.00,0.0424
618.00,0.0423
617.00,0.0422
616.00,0.0420
615.00,0.0418
614.00,0.0417
613.00,0.0418
612.00,0.0418
611.00,0.0420
610.00,0.0424
609.00,0.0427
608.00,0.0427
607.00,0.0428
606.00,0.0430
605.00,0.0432
604.00,0.0433
603.00,0.0435
602.00,0.0438
601.00,0.0441
600.00,0.0441
599.00,0.0442
598.00,0.0444
597.00,0.0446
596.00,0.0447
595.00,0.0447
594.00,0.0450
593.00,0.0453
592.00,0.0455
591.00,0.0460
590.00,0.0469
589.00,0.0480
588.00,0.0491
587.00,0.0503
586.00,0.0520
585.00,0.0536
584.00,0.0551
583.00,0.0565
582.00,0.0578
581.00,0.0589
580.00,0.0596
579.00,0.0601
578.00,0.0607
577.00,0.0612
576.00,0.0615
575.00,0.0618
574.00,0.0622
573.00,0.0625
572.00,0.0625
571.00,0.0624
570.00,0.0624
569.00,0.0623
568.00,0.0618
567.00,0.0613
566.00,0.0610
565.00,0.0605
564.00,0.0598
563.00,0.0591
562.00,0.0585
561.00,0.0578
560.00,0.0570
559.00,0.0562
558.00,0.0556
557.00,0.0551
556.00,0.0545
555.00,0.0540
554.00,0.0536
553.00,0.0531
552.00,0.0524
551.00,0.0517
550.00,0.0513
549.00,0.0509
548.00,0.0504
547.00,0.0500
546.00,0.0498
545.00,0.0495
544.00,0.0490
543.00,0.0485
542.00,0.0482
541.00,0.0479
540.00,0.0475
539.00,0.0472
538.00,0.0474
537.00,0.0478
536.00,0.0480
535.00,0.0485
534.00,0.0492
533.00,0.0499
532.00,0.0503
531.00,0.0503
530.00,0.0504
529.00,0.0501
528.00,0.0496
527.00,0.0490
526.00,0.0487
525.00,0.0484
524.00,0.0479
523.00,0.0476
522.00,0.0475
521.00,0.0475
520.00,0.0473
519.00,0.0469
518.00,0.0468
517.00,0.0466
516.00,0.0462
515.00,0.0460
514.00,0.0461
513.00,0.0463
512.00,0.0463
511.00,0.0464
510.00,0.0468
509.00,0.0472
508.00,0.0474
507.00,0.0475
506.00,0.0478
505.00,0.0478
504.00,0.0474
503.00,0.0470
502.00,0.0469
501.00,0.0469
500.00,0.0467
499.00,0.0465
498.00,0.0468
497.00,0.0470
496.00,0.0469
495.00,0.0468
494.00,0.0469
493.00,0.0470
492.00,0.0469
491.00,0.0471
490.00,0.0476
489.00,0.0481
488.00,0.0482
487.00,0.0482
486.00,0.0484
485.00,0.0487
484.00,0.0487
483.00,0.0487
482.00,0.0492
481.00,0.0495
480.00,0.0492
479.00,0.0487
478.00,0.0485
477.00,0.0483
476.00,0.0479
475.00,0.0478
474.00,0.0481
473.00,0.0485
472.00,0.0485
471.00,0.0486
470.00,0.0491
469.00,0.0494
468.00,0.0490
467.00,0.0488
466.00,0.0490
465.00,0.0492
464.00,0.0490
463.00,0.0489
462.00,0.0491
461.00,0.0491
460.00,0.0484
459.00,0.0477
458.00,0.0475
457.00,0.0476
456.00,0.0473
455.00,0.0471
454.00,0.0474
453.00,0.0474
452.00,0.0467
451.00,0.0462
450.00,0.0463
449.00,0.0464
448.00,0.0461
447.00,0.0457
446.00,0.0458
445.00,0.0458
444.00,0.0454
443.00,0.0450
442.00,0.0451
441.00,0.0450
440.00,0.0444
439.00,0.0441
438.00,0.0443
437.00,0.0442
436.00,0.0434
435.00,0.0425
434.00,0.0421
433.00,0.0418
432.00,0.0409
431.00,0.0405
430.00,0.0409
429.00,0.0412
428.00,0.0406
427.00,0.0401
426.00,0.0402
425.00,0.0404
424.00,0.0399
423.00,0.0393
422.00,0.0396
421.00,0.0398
420.00,0.0394
419.00,0.0398
418.00,0.0415
417.00,0.0424
416.00,0.0417
415.00,0.0410
414.00,0.0413
413.00,0.0417
412.00,0.0411
411.00,0.0404
410.00,0.0408
409.00,0.0409
408.00,0.0400
407.00,0.0395
406.00,0.0402
405.00,0.0406
404.00,0.0396
403.00,0.0390
402.00,0.0405
401.00,0.0419
400.00,0.0415
