Created as New Dataset,Sample 777 By YargerLab Date Monday, July 07 2025
cm-1,A
4000.00,0.0062
3999.00,0.0062
3998.00,0.0062
3997.00,0.0062
3996.00,0.0062
3995.00,0.0062
3994.00,0.0061
3993.00,0.0061
3992.00,0.0061
3991.00,0.0061
3990.00,0.0061
3989.00,0.0061
3988.00,0.0061
3987.00,0.0061
3986.00,0.0062
3985.00,0.0062
3984.00,0.0062
3983.00,0.0062
3982.00,0.0062
3981.00,0.0062
3980.00,0.0062
3979.00,0.0062
3978.00,0.0062
3977.00,0.0062
3976.00,0.0062
3975.00,0.0062
3974.00,0.0062
3973.00,0.0062
3972.00,0.0062
3971.00,0.0062
3970.00,0.0062
3969.00,0.0063
3968.00,0.0063
3967.00,0.0063
3966.00,0.0063
3965.00,0.0064
3964.00,0.0064
3963.00,0.0064
3962.00,0.0064
3961.00,0.0064
3960.00,0.0064
3959.00,0.0063
3958.00,0.0063
3957.00,0.0063
3956.00,0.0063
3955.00,0.0063
3954.00,0.0064
3953.00,0.0064
3952.00,0.0064
3951.00,0.0063
3950.00,0.0063
3949.00,0.0063
3948.00,0.0064
3947.00,0.0064
3946.00,0.0064
3945.00,0.0064
3944.00,0.0064
3943.00,0.0063
3942.00,0.0063
3941.00,0.0063
3940.00,0.0063
3939.00,0.0064
3938.00,0.0064
3937.00,0.0064
3936.00,0.0064
3935.00,0.0064
3934.00,0.0064
3933.00,0.0064
3932.00,0.0064
3931.00,0.0064
3930.00,0.0064
3929.00,0.0064
3928.00,0.0064
3927.00,0.0064
3926.00,0.0064
3925.00,0.0064
3924.00,0.0064
3923.00,0.0064
3922.00,0.0065
3921.00,0.0065
3920.00,0.0065
3919.00,0.0065
3918.00,0.0065
3917.00,0.0065
3916.00,0.0065
3915.00,0.0064
3914.00,0.0064
3913.00,0.0063
3912.00,0.0063
3911.00,0.0063
3910.00,0.0063
3909.00,0.0064
3908.00,0.0064
3907.00,0.0064
3906.00,0.0064
3905.00,0.0064
3904.00,0.0065
3903.00,0.0065
3902.00,0.0065
3901.00,0.0065
3900.00,0.0064
3899.00,0.0063
3898.00,0.0063
3897.00,0.0063
3896.00,0.0062
3895.00,0.0062
3894.00,0.0062
3893.00,0.0062
3892.00,0.0062
3891.00,0.0062
3890.00,0.0063
3889.00,0.0063
3888.00,0.0063
3887.00,0.0063
3886.00,0.0062
3885.00,0.0062
3884.00,0.0062
3883.00,0.0062
3882.00,0.0062
3881.00,0.0061
3880.00,0.0061
3879.00,0.0062
3878.00,0.0063
3877.00,0.0063
3876.00,0.0062
3875.00,0.0062
3874.00,0.0062
3873.00,0.0063
3872.00,0.0063
3871.00,0.0062
3870.00,0.0062
3869.00,0.0062
3868.00,0.0063
3867.00,0.0063
3866.00,0.0062
3865.00,0.0062
3864.00,0.0062
3863.00,0.0062
3862.00,0.0062
3861.00,0.0061
3860.00,0.0061
3859.00,0.0062
3858.00,0.0062
3857.00,0.0063
3856.00,0.0063
3855.00,0.0064
3854.00,0.0063
3853.00,0.0063
3852.00,0.0064
3851.00,0.0063
3850.00,0.0062
3849.00,0.0061
3848.00,0.0061
3847.00,0.0061
3846.00,0.0061
3845.00,0.0061
3844.00,0.0061
3843.00,0.0061
3842.00,0.0062
3841.00,0.0062
3840.00,0.0062
3839.00,0.0062
3838.00,0.0062
3837.00,0.0061
3836.00,0.0061
3835.00,0.0061
3834.00,0.0060
3833.00,0.0060
3832.00,0.0059
3831.00,0.0060
3830.00,0.0060
3829.00,0.0060
3828.00,0.0060
3827.00,0.0060
3826.00,0.0061
3825.00,0.0061
3824.00,0.0062
3823.00,0.0061
3822.00,0.0061
3821.00,0.0061
3820.00,0.0062
3819.00,0.0062
3818.00,0.0061
3817.00,0.0060
3816.00,0.0059
3815.00,0.0060
3814.00,0.0060
3813.00,0.0060
3812.00,0.0060
3811.00,0.0060
3810.00,0.0060
3809.00,0.0060
3808.00,0.0059
3807.00,0.0059
3806.00,0.0060
3805.00,0.0061
3804.00,0.0061
3803.00,0.0060
3802.00,0.0060
3801.00,0.0060
3800.00,0.0060
3799.00,0.0060
3798.00,0.0060
3797.00,0.0059
3796.00,0.0059
3795.00,0.0059
3794.00,0.0059
3793.00,0.0059
3792.00,0.0059
3791.00,0.0059
3790.00,0.0059
3789.00,0.0059
3788.00,0.0059
3787.00,0.0059
3786.00,0.0059
3785.00,0.0059
3784.00,0.0059
3783.00,0.0059
3782.00,0.0059
3781.00,0.0059
3780.00,0.0059
3779.00,0.0059
3778.00,0.0059
3777.00,0.0059
3776.00,0.0059
3775.00,0.0059
3774.00,0.0059
3773.00,0.0060
3772.00,0.0060
3771.00,0.0060
3770.00,0.0060
3769.00,0.0060
3768.00,0.0060
3767.00,0.0060
3766.00,0.0059
3765.00,0.0059
3764.00,0.0060
3763.00,0.0060
3762.00,0.0060
3761.00,0.0060
3760.00,0.0059
3759.00,0.0059
3758.00,0.0059
3757.00,0.0059
3756.00,0.0059
3755.00,0.0060
3754.00,0.0060
3753.00,0.0060
3752.00,0.0061
3751.00,0.0060
3750.00,0.0061
3749.00,0.0061
3748.00,0.0061
3747.00,0.0061
3746.00,0.0060
3745.00,0.0059
3744.00,0.0058
3743.00,0.0059
3742.00,0.0059
3741.00,0.0059
3740.00,0.0058
3739.00,0.0058
3738.00,0.0059
3737.00,0.0059
3736.00,0.0059
3735.00,0.0058
3734.00,0.0058
3733.00,0.0057
3732.00,0.0057
3731.00,0.0057
3730.00,0.0057
3729.00,0.0057
3728.00,0.0057
3727.00,0.0057
3726.00,0.0057
3725.00,0.0057
3724.00,0.0057
3723.00,0.0056
3722.00,0.0056
3721.00,0.0056
3720.00,0.0056
3719.00,0.0056
3718.00,0.0056
3717.00,0.0056
3716.00,0.0056
3715.00,0.0057
3714.00,0.0057
3713.00,0.0057
3712.00,0.0057
3711.00,0.0057
3710.00,0.0057
3709.00,0.0057
3708.00,0.0056
3707.00,0.0056
3706.00,0.0056
3705.00,0.0056
3704.00,0.0056
3703.00,0.0055
3702.00,0.0055
3701.00,0.0055
3700.00,0.0055
3699.00,0.0055
3698.00,0.0055
3697.00,0.0055
3696.00,0.0056
3695.00,0.0056
3694.00,0.0057
3693.00,0.0057
3692.00,0.0057
3691.00,0.0057
3690.00,0.0056
3689.00,0.0056
3688.00,0.0056
3687.00,0.0056
3686.00,0.0056
3685.00,0.0055
3684.00,0.0055
3683.00,0.0055
3682.00,0.0055
3681.00,0.0055
3680.00,0.0056
3679.00,0.0057
3678.00,0.0057
3677.00,0.0057
3676.00,0.0056
3675.00,0.0057
3674.00,0.0057
3673.00,0.0058
3672.00,0.0057
3671.00,0.0056
3670.00,0.0055
3669.00,0.0055
3668.00,0.0056
3667.00,0.0055
3666.00,0.0055
3665.00,0.0054
3664.00,0.0054
3663.00,0.0054
3662.00,0.0054
3661.00,0.0054
3660.00,0.0054
3659.00,0.0054
3658.00,0.0055
3657.00,0.0055
3656.00,0.0055
3655.00,0.0056
3654.00,0.0056
3653.00,0.0056
3652.00,0.0056
3651.00,0.0057
3650.00,0.0056
3649.00,0.0056
3648.00,0.0055
3647.00,0.0054
3646.00,0.0054
3645.00,0.0053
3644.00,0.0053
3643.00,0.0053
3642.00,0.0053
3641.00,0.0054
3640.00,0.0054
3639.00,0.0054
3638.00,0.0054
3637.00,0.0054
3636.00,0.0054
3635.00,0.0054
3634.00,0.0054
3633.00,0.0055
3632.00,0.0056
3631.00,0.0056
3630.00,0.0055
3629.00,0.0055
3628.00,0.0055
3627.00,0.0055
3626.00,0.0055
3625.00,0.0054
3624.00,0.0054
3623.00,0.0054
3622.00,0.0055
3621.00,0.0055
3620.00,0.0055
3619.00,0.0055
3618.00,0.0055
3617.00,0.0056
3616.00,0.0056
3615.00,0.0056
3614.00,0.0056
3613.00,0.0056
3612.00,0.0056
3611.00,0.0057
3610.00,0.0057
3609.00,0.0057
3608.00,0.0057
3607.00,0.0057
3606.00,0.0057
3605.00,0.0056
3604.00,0.0056
3603.00,0.0056
3602.00,0.0056
3601.00,0.0056
3600.00,0.0056
3599.00,0.0056
3598.00,0.0056
3597.00,0.0056
3596.00,0.0056
3595.00,0.0056
3594.00,0.0057
3593.00,0.0057
3592.00,0.0057
3591.00,0.0058
3590.00,0.0058
3589.00,0.0058
3588.00,0.0058
3587.00,0.0059
3586.00,0.0059
3585.00,0.0059
3584.00,0.0059
3583.00,0.0059
3582.00,0.0059
3581.00,0.0060
3580.00,0.0060
3579.00,0.0061
3578.00,0.0061
3577.00,0.0061
3576.00,0.0062
3575.00,0.0062
3574.00,0.0062
3573.00,0.0063
3572.00,0.0064
3571.00,0.0065
3570.00,0.0066
3569.00,0.0067
3568.00,0.0068
3567.00,0.0068
3566.00,0.0069
3565.00,0.0069
3564.00,0.0069
3563.00,0.0070
3562.00,0.0071
3561.00,0.0072
3560.00,0.0073
3559.00,0.0075
3558.00,0.0076
3557.00,0.0077
3556.00,0.0078
3555.00,0.0079
3554.00,0.0081
3553.00,0.0082
3552.00,0.0085
3551.00,0.0087
3550.00,0.0089
3549.00,0.0091
3548.00,0.0094
3547.00,0.0097
3546.00,0.0100
3545.00,0.0104
3544.00,0.0108
3543.00,0.0112
3542.00,0.0117
3541.00,0.0122
3540.00,0.0127
3539.00,0.0133
3538.00,0.0140
3537.00,0.0148
3536.00,0.0158
3535.00,0.0168
3534.00,0.0180
3533.00,0.0194
3532.00,0.0211
3531.00,0.0231
3530.00,0.0254
3529.00,0.0281
3528.00,0.0311
3527.00,0.0343
3526.00,0.0376
3525.00,0.0408
3524.00,0.0438
3523.00,0.0463
3522.00,0.0483
3521.00,0.0495
3520.00,0.0501
3519.00,0.0499
3518.00,0.0492
3517.00,0.0480
3516.00,0.0464
3515.00,0.0444
3514.00,0.0423
3513.00,0.0401
3512.00,0.0380
3511.00,0.0359
3510.00,0.0339
3509.00,0.0321
3508.00,0.0306
3507.00,0.0292
3506.00,0.0280
3505.00,0.0270
3504.00,0.0262
3503.00,0.0255
3502.00,0.0250
3501.00,0.0245
3500.00,0.0242
3499.00,0.0239
3498.00,0.0237
3497.00,0.0235
3496.00,0.0234
3495.00,0.0234
3494.00,0.0234
3493.00,0.0234
3492.00,0.0235
3491.00,0.0236
3490.00,0.0237
3489.00,0.0239
3488.00,0.0241
3487.00,0.0244
3486.00,0.0246
3485.00,0.0249
3484.00,0.0251
3483.00,0.0255
3482.00,0.0258
3481.00,0.0262
3480.00,0.0266
3479.00,0.0270
3478.00,0.0274
3477.00,0.0278
3476.00,0.0283
3475.00,0.0287
3474.00,0.0292
3473.00,0.0298
3472.00,0.0303
3471.00,0.0308
3470.00,0.0314
3469.00,0.0320
3468.00,0.0327
3467.00,0.0333
3466.00,0.0340
3465.00,0.0346
3464.00,0.0353
3463.00,0.0359
3462.00,0.0366
3461.00,0.0373
3460.00,0.0380
3459.00,0.0387
3458.00,0.0394
3457.00,0.0401
3456.00,0.0408
3455.00,0.0415
3454.00,0.0421
3453.00,0.0428
3452.00,0.0435
3451.00,0.0441
3450.00,0.0447
3449.00,0.0454
3448.00,0.0461
3447.00,0.0468
3446.00,0.0475
3445.00,0.0481
3444.00,0.0487
3443.00,0.0493
3442.00,0.0500
3441.00,0.0506
3440.00,0.0512
3439.00,0.0519
3438.00,0.0525
3437.00,0.0531
3436.00,0.0537
3435.00,0.0543
3434.00,0.0549
3433.00,0.0554
3432.00,0.0560
3431.00,0.0566
3430.00,0.0572
3429.00,0.0578
3428.00,0.0584
3427.00,0.0590
3426.00,0.0596
3425.00,0.0603
3424.00,0.0610
3423.00,0.0617
3422.00,0.0626
3421.00,0.0636
3420.00,0.0646
3419.00,0.0657
3418.00,0.0667
3417.00,0.0678
3416.00,0.0689
3415.00,0.0700
3414.00,0.0710
3413.00,0.0721
3412.00,0.0730
3411.00,0.0737
3410.00,0.0744
3409.00,0.0748
3408.00,0.0750
3407.00,0.0750
3406.00,0.0747
3405.00,0.0741
3404.00,0.0733
3403.00,0.0723
3402.00,0.0710
3401.00,0.0694
3400.00,0.0676
3399.00,0.0657
3398.00,0.0636
3397.00,0.0615
3396.00,0.0594
3395.00,0.0573
3394.00,0.0553
3393.00,0.0533
3392.00,0.0514
3391.00,0.0495
3390.00,0.0478
3389.00,0.0461
3388.00,0.0445
3387.00,0.0430
3386.00,0.0417
3385.00,0.0404
3384.00,0.0393
3383.00,0.0382
3382.00,0.0372
3381.00,0.0362
3380.00,0.0353
3379.00,0.0344
3378.00,0.0335
3377.00,0.0328
3376.00,0.0320
3375.00,0.0313
3374.00,0.0306
3373.00,0.0300
3372.00,0.0293
3371.00,0.0287
3370.00,0.0281
3369.00,0.0276
3368.00,0.0270
3367.00,0.0265
3366.00,0.0259
3365.00,0.0254
3364.00,0.0249
3363.00,0.0244
3362.00,0.0240
3361.00,0.0235
3360.00,0.0231
3359.00,0.0226
3358.00,0.0222
3357.00,0.0218
3356.00,0.0214
3355.00,0.0211
3354.00,0.0207
3353.00,0.0204
3352.00,0.0201
3351.00,0.0198
3350.00,0.0195
3349.00,0.0192
3348.00,0.0189
3347.00,0.0186
3346.00,0.0183
3345.00,0.0181
3344.00,0.0178
3343.00,0.0176
3342.00,0.0174
3341.00,0.0172
3340.00,0.0170
3339.00,0.0168
3338.00,0.0166
3337.00,0.0163
3336.00,0.0161
3335.00,0.0159
3334.00,0.0157
3333.00,0.0155
3332.00,0.0154
3331.00,0.0152
3330.00,0.0151
3329.00,0.0149
3328.00,0.0148
3327.00,0.0146
3326.00,0.0145
3325.00,0.0143
3324.00,0.0142
3323.00,0.0141
3322.00,0.0139
3321.00,0.0138
3320.00,0.0136
3319.00,0.0135
3318.00,0.0134
3317.00,0.0132
3316.00,0.0131
3315.00,0.0130
3314.00,0.0129
3313.00,0.0128
3312.00,0.0127
3311.00,0.0126
3310.00,0.0125
3309.00,0.0124
3308.00,0.0123
3307.00,0.0122
3306.00,0.0121
3305.00,0.0120
3304.00,0.0119
3303.00,0.0118
3302.00,0.0117
3301.00,0.0116
3300.00,0.0115
3299.00,0.0114
3298.00,0.0113
3297.00,0.0112
3296.00,0.0111
3295.00,0.0111
3294.00,0.0110
3293.00,0.0109
3292.00,0.0108
3291.00,0.0108
3290.00,0.0107
3289.00,0.0106
3288.00,0.0106
3287.00,0.0105
3286.00,0.0105
3285.00,0.0104
3284.00,0.0103
3283.00,0.0102
3282.00,0.0101
3281.00,0.0100
3280.00,0.0100
3279.00,0.0099
3278.00,0.0099
3277.00,0.0098
3276.00,0.0098
3275.00,0.0097
3274.00,0.0096
3273.00,0.0095
3272.00,0.0095
3271.00,0.0094
3270.00,0.0094
3269.00,0.0095
3268.00,0.0095
3267.00,0.0095
3266.00,0.0095
3265.00,0.0095
3264.00,0.0095
3263.00,0.0095
3262.00,0.0094
3261.00,0.0094
3260.00,0.0094
3259.00,0.0093
3258.00,0.0093
3257.00,0.0092
3256.00,0.0091
3255.00,0.0091
3254.00,0.0091
3253.00,0.0092
3252.00,0.0092
3251.00,0.0091
3250.00,0.0091
3249.00,0.0090
3248.00,0.0089
3247.00,0.0089
3246.00,0.0089
3245.00,0.0090
3244.00,0.0090
3243.00,0.0090
3242.00,0.0090
3241.00,0.0089
3240.00,0.0089
3239.00,0.0088
3238.00,0.0087
3237.00,0.0086
3236.00,0.0085
3235.00,0.0084
3234.00,0.0084
3233.00,0.0084
3232.00,0.0084
3231.00,0.0084
3230.00,0.0084
3229.00,0.0084
3228.00,0.0083
3227.00,0.0083
3226.00,0.0083
3225.00,0.0083
3224.00,0.0083
3223.00,0.0083
3222.00,0.0082
3221.00,0.0082
3220.00,0.0082
3219.00,0.0082
3218.00,0.0082
3217.00,0.0082
3216.00,0.0082
3215.00,0.0082
3214.00,0.0082
3213.00,0.0081
3212.00,0.0081
3211.00,0.0081
3210.00,0.0081
3209.00,0.0081
3208.00,0.0081
3207.00,0.0081
3206.00,0.0081
3205.00,0.0081
3204.00,0.0081
3203.00,0.0080
3202.00,0.0080
3201.00,0.0080
3200.00,0.0080
3199.00,0.0080
3198.00,0.0080
3197.00,0.0079
3196.00,0.0079
3195.00,0.0079
3194.00,0.0079
3193.00,0.0079
3192.00,0.0078
3191.00,0.0078
3190.00,0.0078
3189.00,0.0078
3188.00,0.0078
3187.00,0.0078
3186.00,0.0079
3185.00,0.0079
3184.00,0.0079
3183.00,0.0079
3182.00,0.0079
3181.00,0.0079
3180.00,0.0079
3179.00,0.0079
3178.00,0.0080
3177.00,0.0080
3176.00,0.0080
3175.00,0.0080
3174.00,0.0081
3173.00,0.0081
3172.00,0.0081
3171.00,0.0081
3170.00,0.0082
3169.00,0.0082
3168.00,0.0082
3167.00,0.0082
3166.00,0.0082
3165.00,0.0082
3164.00,0.0082
3163.00,0.0082
3162.00,0.0082
3161.00,0.0082
3160.00,0.0082
3159.00,0.0081
3158.00,0.0081
3157.00,0.0080
3156.00,0.0079
3155.00,0.0078
3154.00,0.0077
3153.00,0.0077
3152.00,0.0077
3151.00,0.0077
3150.00,0.0078
3149.00,0.0078
3148.00,0.0078
3147.00,0.0078
3146.00,0.0078
3145.00,0.0078
3144.00,0.0078
3143.00,0.0077
3142.00,0.0077
3141.00,0.0076
3140.00,0.0076
3139.00,0.0076
3138.00,0.0076
3137.00,0.0076
3136.00,0.0076
3135.00,0.0076
3134.00,0.0076
3133.00,0.0076
3132.00,0.0076
3131.00,0.0076
3130.00,0.0076
3129.00,0.0076
3128.00,0.0076
3127.00,0.0076
3126.00,0.0076
3125.00,0.0076
3124.00,0.0076
3123.00,0.0075
3122.00,0.0075
3121.00,0.0075
3120.00,0.0075
3119.00,0.0075
3118.00,0.0074
3117.00,0.0074
3116.00,0.0074
3115.00,0.0074
3114.00,0.0074
3113.00,0.0074
3112.00,0.0075
3111.00,0.0075
3110.00,0.0075
3109.00,0.0075
3108.00,0.0075
3107.00,0.0075
3106.00,0.0075
3105.00,0.0075
3104.00,0.0075
3103.00,0.0076
3102.00,0.0076
3101.00,0.0076
3100.00,0.0076
3099.00,0.0076
3098.00,0.0077
3097.00,0.0077
3096.00,0.0077
3095.00,0.0078
3094.00,0.0078
3093.00,0.0078
3092.00,0.0079
3091.00,0.0080
3090.00,0.0080
3089.00,0.0081
3088.00,0.0082
3087.00,0.0084
3086.00,0.0086
3085.00,0.0089
3084.00,0.0092
3083.00,0.0097
3082.00,0.0103
3081.00,0.0112
3080.00,0.0122
3079.00,0.0133
3078.00,0.0146
3077.00,0.0157
3076.00,0.0166
3075.00,0.0169
3074.00,0.0167
3073.00,0.0161
3072.00,0.0150
3071.00,0.0139
3070.00,0.0128
3069.00,0.0118
3068.00,0.0110
3067.00,0.0104
3066.00,0.0100
3065.00,0.0096
3064.00,0.0094
3063.00,0.0092
3062.00,0.0090
3061.00,0.0088
3060.00,0.0087
3059.00,0.0086
3058.00,0.0086
3057.00,0.0085
3056.00,0.0085
3055.00,0.0085
3054.00,0.0085
3053.00,0.0085
3052.00,0.0085
3051.00,0.0085
3050.00,0.0086
3049.00,0.0086
3048.00,0.0087
3047.00,0.0088
3046.00,0.0090
3045.00,0.0091
3044.00,0.0092
3043.00,0.0094
3042.00,0.0095
3041.00,0.0097
3040.00,0.0098
3039.00,0.0100
3038.00,0.0101
3037.00,0.0103
3036.00,0.0105
3035.00,0.0106
3034.00,0.0108
3033.00,0.0108
3032.00,0.0108
3031.00,0.0108
3030.00,0.0106
3029.00,0.0105
3028.00,0.0103
3027.00,0.0101
3026.00,0.0099
3025.00,0.0098
3024.00,0.0096
3023.00,0.0095
3022.00,0.0095
3021.00,0.0094
3020.00,0.0094
3019.00,0.0094
3018.00,0.0094
3017.00,0.0095
3016.00,0.0095
3015.00,0.0096
3014.00,0.0096
3013.00,0.0097
3012.00,0.0099
3011.00,0.0100
3010.00,0.0101
3009.00,0.0102
3008.00,0.0104
3007.00,0.0105
3006.00,0.0106
3005.00,0.0107
3004.00,0.0108
3003.00,0.0110
3002.00,0.0111
3001.00,0.0113
3000.00,0.0115
2999.00,0.0116
2998.00,0.0118
2997.00,0.0120
2996.00,0.0122
2995.00,0.0125
2994.00,0.0128
2993.00,0.0131
2992.00,0.0135
2991.00,0.0139
2990.00,0.0143
2989.00,0.0147
2988.00,0.0150
2987.00,0.0152
2986.00,0.0155
2985.00,0.0158
2984.00,0.0162
2983.00,0.0167
2982.00,0.0174
2981.00,0.0182
2980.00,0.0191
2979.00,0.0203
2978.00,0.0216
2977.00,0.0232
2976.00,0.0250
2975.00,0.0269
2974.00,0.0291
2973.00,0.0314
2972.00,0.0339
2971.00,0.0363
2970.00,0.0387
2969.00,0.0409
2968.00,0.0428
2967.00,0.0442
2966.00,0.0451
2965.00,0.0455
2964.00,0.0455
2963.00,0.0453
2962.00,0.0449
2961.00,0.0443
2960.00,0.0435
2959.00,0.0426
2958.00,0.0415
2957.00,0.0403
2956.00,0.0390
2955.00,0.0378
2954.00,0.0368
2953.00,0.0359
2952.00,0.0353
2951.00,0.0351
2950.00,0.0352
2949.00,0.0358
2948.00,0.0369
2947.00,0.0384
2946.00,0.0404
2945.00,0.0425
2944.00,0.0446
2943.00,0.0467
2942.00,0.0487
2941.00,0.0505
2940.00,0.0523
2939.00,0.0541
2938.00,0.0561
2937.00,0.0582
2936.00,0.0605
2935.00,0.0629
2934.00,0.0654
2933.00,0.0680
2932.00,0.0706
2931.00,0.0733
2930.00,0.0759
2929.00,0.0783
2928.00,0.0806
2927.00,0.0824
2926.00,0.0836
2925.00,0.0842
2924.00,0.0842
2923.00,0.0838
2922.00,0.0831
2921.00,0.0823
2920.00,0.0816
2919.00,0.0809
2918.00,0.0802
2917.00,0.0795
2916.00,0.0786
2915.00,0.0774
2914.00,0.0759
2913.00,0.0740
2912.00,0.0719
2911.00,0.0695
2910.00,0.0670
2909.00,0.0646
2908.00,0.0622
2907.00,0.0599
2906.00,0.0578
2905.00,0.0560
2904.00,0.0543
2903.00,0.0529
2902.00,0.0517
2901.00,0.0504
2900.00,0.0492
2899.00,0.0478
2898.00,0.0464
2897.00,0.0449
2896.00,0.0433
2895.00,0.0419
2894.00,0.0406
2893.00,0.0394
2892.00,0.0385
2891.00,0.0377
2890.00,0.0371
2889.00,0.0366
2888.00,0.0362
2887.00,0.0359
2886.00,0.0357
2885.00,0.0356
2884.00,0.0355
2883.00,0.0355
2882.00,0.0355
2881.00,0.0357
2880.00,0.0359
2879.00,0.0363
2878.00,0.0368
2877.00,0.0374
2876.00,0.0380
2875.00,0.0387
2874.00,0.0394
2873.00,0.0400
2872.00,0.0403
2871.00,0.0404
2870.00,0.0401
2869.00,0.0397
2868.00,0.0393
2867.00,0.0391
2866.00,0.0392
2865.00,0.0399
2864.00,0.0411
2863.00,0.0430
2862.00,0.0456
2861.00,0.0488
2860.00,0.0524
2859.00,0.0562
2858.00,0.0596
2857.00,0.0621
2856.00,0.0632
2855.00,0.0626
2854.00,0.0606
2853.00,0.0574
2852.00,0.0536
2851.00,0.0496
2850.00,0.0456
2849.00,0.0419
2848.00,0.0385
2847.00,0.0354
2846.00,0.0328
2845.00,0.0305
2844.00,0.0285
2843.00,0.0270
2842.00,0.0257
2841.00,0.0247
2840.00,0.0240
2839.00,0.0236
2838.00,0.0236
2837.00,0.0239
2836.00,0.0246
2835.00,0.0259
2834.00,0.0276
2833.00,0.0296
2832.00,0.0318
2831.00,0.0337
2830.00,0.0348
2829.00,0.0348
2828.00,0.0337
2827.00,0.0316
2826.00,0.0291
2825.00,0.0264
2824.00,0.0240
2823.00,0.0219
2822.00,0.0203
2821.00,0.0190
2820.00,0.0179
2819.00,0.0171
2818.00,0.0164
2817.00,0.0158
2816.00,0.0153
2815.00,0.0149
2814.00,0.0145
2813.00,0.0142
2812.00,0.0139
2811.00,0.0136
2810.00,0.0134
2809.00,0.0132
2808.00,0.0130
2807.00,0.0128
2806.00,0.0127
2805.00,0.0125
2804.00,0.0123
2803.00,0.0121
2802.00,0.0120
2801.00,0.0118
2800.00,0.0117
2799.00,0.0115
2798.00,0.0114
2797.00,0.0113
2796.00,0.0111
2795.00,0.0110
2794.00,0.0109
2793.00,0.0109
2792.00,0.0108
2791.00,0.0107
2790.00,0.0106
2789.00,0.0105
2788.00,0.0105
2787.00,0.0104
2786.00,0.0103
2785.00,0.0102
2784.00,0.0102
2783.00,0.0101
2782.00,0.0100
2781.00,0.0099
2780.00,0.0098
2779.00,0.0097
2778.00,0.0097
2777.00,0.0096
2776.00,0.0096
2775.00,0.0095
2774.00,0.0095
2773.00,0.0094
2772.00,0.0094
2771.00,0.0094
2770.00,0.0093
2769.00,0.0093
2768.00,0.0092
2767.00,0.0092
2766.00,0.0091
2765.00,0.0091
2764.00,0.0090
2763.00,0.0090
2762.00,0.0090
2761.00,0.0089
2760.00,0.0089
2759.00,0.0089
2758.00,0.0088
2757.00,0.0088
2756.00,0.0088
2755.00,0.0088
2754.00,0.0088
2753.00,0.0088
2752.00,0.0088
2751.00,0.0088
2750.00,0.0088
2749.00,0.0088
2748.00,0.0088
2747.00,0.0088
2746.00,0.0088
2745.00,0.0089
2744.00,0.0090
2743.00,0.0090
2742.00,0.0090
2741.00,0.0091
2740.00,0.0091
2739.00,0.0092
2738.00,0.0093
2737.00,0.0094
2736.00,0.0095
2735.00,0.0096
2734.00,0.0098
2733.00,0.0100
2732.00,0.0102
2731.00,0.0103
2730.00,0.0105
2729.00,0.0106
2728.00,0.0106
2727.00,0.0104
2726.00,0.0103
2725.00,0.0101
2724.00,0.0099
2723.00,0.0097
2722.00,0.0095
2721.00,0.0094
2720.00,0.0093
2719.00,0.0092
2718.00,0.0091
2717.00,0.0090
2716.00,0.0089
2715.00,0.0088
2714.00,0.0088
2713.00,0.0087
2712.00,0.0086
2711.00,0.0085
2710.00,0.0085
2709.00,0.0085
2708.00,0.0084
2707.00,0.0084
2706.00,0.0084
2705.00,0.0083
2704.00,0.0083
2703.00,0.0082
2702.00,0.0082
2701.00,0.0082
2700.00,0.0081
2699.00,0.0081
2698.00,0.0081
2697.00,0.0081
2696.00,0.0081
2695.00,0.0081
2694.00,0.0081
2693.00,0.0081
2692.00,0.0081
2691.00,0.0081
2690.00,0.0081
2689.00,0.0082
2688.00,0.0082
2687.00,0.0082
2686.00,0.0082
2685.00,0.0083
2684.00,0.0083
2683.00,0.0083
2682.00,0.0084
2681.00,0.0084
2680.00,0.0084
2679.00,0.0085
2678.00,0.0085
2677.00,0.0086
2676.00,0.0086
2675.00,0.0087
2674.00,0.0087
2673.00,0.0087
2672.00,0.0087
2671.00,0.0088
2670.00,0.0088
2669.00,0.0088
2668.00,0.0089
2667.00,0.0089
2666.00,0.0089
2665.00,0.0090
2664.00,0.0090
2663.00,0.0090
2662.00,0.0091
2661.00,0.0091
2660.00,0.0091
2659.00,0.0091
2658.00,0.0091
2657.00,0.0091
2656.00,0.0090
2655.00,0.0090
2654.00,0.0090
2653.00,0.0090
2652.00,0.0090
2651.00,0.0090
2650.00,0.0089
2649.00,0.0088
2648.00,0.0088
2647.00,0.0088
2646.00,0.0088
2645.00,0.0087
2644.00,0.0087
2643.00,0.0087
2642.00,0.0086
2641.00,0.0086
2640.00,0.0085
2639.00,0.0085
2638.00,0.0085
2637.00,0.0085
2636.00,0.0085
2635.00,0.0085
2634.00,0.0085
2633.00,0.0085
2632.00,0.0085
2631.00,0.0085
2630.00,0.0085
2629.00,0.0085
2628.00,0.0085
2627.00,0.0085
2626.00,0.0085
2625.00,0.0084
2624.00,0.0084
2623.00,0.0084
2622.00,0.0084
2621.00,0.0084
2620.00,0.0084
2619.00,0.0084
2618.00,0.0084
2617.00,0.0084
2616.00,0.0084
2615.00,0.0084
2614.00,0.0084
2613.00,0.0083
2612.00,0.0083
2611.00,0.0083
2610.00,0.0083
2609.00,0.0083
2608.00,0.0083
2607.00,0.0083
2606.00,0.0083
2605.00,0.0083
2604.00,0.0083
2603.00,0.0083
2602.00,0.0083
2601.00,0.0082
2600.00,0.0082
2599.00,0.0082
2598.00,0.0081
2597.00,0.0081
2596.00,0.0081
2595.00,0.0080
2594.00,0.0080
2593.00,0.0081
2592.00,0.0081
2591.00,0.0081
2590.00,0.0081
2589.00,0.0081
2588.00,0.0080
2587.00,0.0080
2586.00,0.0080
2585.00,0.0080
2584.00,0.0080
2583.00,0.0080
2582.00,0.0080
2581.00,0.0080
2580.00,0.0079
2579.00,0.0079
2578.00,0.0079
2577.00,0.0078
2576.00,0.0079
2575.00,0.0079
2574.00,0.0079
2573.00,0.0079
2572.00,0.0079
2571.00,0.0079
2570.00,0.0079
2569.00,0.0079
2568.00,0.0079
2567.00,0.0079
2566.00,0.0079
2565.00,0.0079
2564.00,0.0079
2563.00,0.0078
2562.00,0.0078
2561.00,0.0078
2560.00,0.0079
2559.00,0.0079
2558.00,0.0078
2557.00,0.0078
2556.00,0.0077
2555.00,0.0077
2554.00,0.0077
2553.00,0.0077
2552.00,0.0077
2551.00,0.0078
2550.00,0.0077
2549.00,0.0077
2548.00,0.0077
2547.00,0.0077
2546.00,0.0077
2545.00,0.0076
2544.00,0.0076
2543.00,0.0076
2542.00,0.0076
2541.00,0.0076
2540.00,0.0076
2539.00,0.0076
2538.00,0.0076
2537.00,0.0076
2536.00,0.0076
2535.00,0.0076
2534.00,0.0076
2533.00,0.0076
2532.00,0.0076
2531.00,0.0076
2530.00,0.0075
2529.00,0.0075
2528.00,0.0075
2527.00,0.0075
2526.00,0.0075
2525.00,0.0075
2524.00,0.0075
2523.00,0.0075
2522.00,0.0075
2521.00,0.0075
2520.00,0.0075
2519.00,0.0074
2518.00,0.0074
2517.00,0.0074
2516.00,0.0074
2515.00,0.0075
2514.00,0.0075
2513.00,0.0075
2512.00,0.0075
2511.00,0.0075
2510.00,0.0075
2509.00,0.0075
2508.00,0.0075
2507.00,0.0075
2506.00,0.0075
2505.00,0.0075
2504.00,0.0075
2503.00,0.0075
2502.00,0.0074
2501.00,0.0074
2500.00,0.0074
2499.00,0.0074
2498.00,0.0074
2497.00,0.0074
2496.00,0.0075
2495.00,0.0075
2494.00,0.0075
2493.00,0.0075
2492.00,0.0075
2491.00,0.0075
2490.00,0.0075
2489.00,0.0075
2488.00,0.0075
2487.00,0.0075
2486.00,0.0075
2485.00,0.0075
2484.00,0.0075
2483.00,0.0075
2482.00,0.0076
2481.00,0.0076
2480.00,0.0077
2479.00,0.0077
2478.00,0.0077
2477.00,0.0077
2476.00,0.0077
2475.00,0.0077
2474.00,0.0076
2473.00,0.0076
2472.00,0.0076
2471.00,0.0076
2470.00,0.0076
2469.00,0.0076
2468.00,0.0076
2467.00,0.0076
2466.00,0.0076
2465.00,0.0076
2464.00,0.0076
2463.00,0.0077
2462.00,0.0077
2461.00,0.0078
2460.00,0.0079
2459.00,0.0079
2458.00,0.0079
2457.00,0.0080
2456.00,0.0079
2455.00,0.0079
2454.00,0.0078
2453.00,0.0078
2452.00,0.0078
2451.00,0.0078
2450.00,0.0078
2449.00,0.0078
2448.00,0.0077
2447.00,0.0076
2446.00,0.0076
2445.00,0.0075
2444.00,0.0075
2443.00,0.0074
2442.00,0.0074
2441.00,0.0073
2440.00,0.0073
2439.00,0.0072
2438.00,0.0072
2437.00,0.0071
2436.00,0.0071
2435.00,0.0070
2434.00,0.0070
2433.00,0.0069
2432.00,0.0068
2431.00,0.0067
2430.00,0.0067
2429.00,0.0067
2428.00,0.0067
2427.00,0.0067
2426.00,0.0067
2425.00,0.0067
2424.00,0.0066
2423.00,0.0066
2422.00,0.0066
2421.00,0.0065
2420.00,0.0065
2419.00,0.0065
2418.00,0.0065
2417.00,0.0065
2416.00,0.0065
2415.00,0.0065
2414.00,0.0065
2413.00,0.0065
2412.00,0.0065
2411.00,0.0064
2410.00,0.0064
2409.00,0.0063
2408.00,0.0063
2407.00,0.0062
2406.00,0.0062
2405.00,0.0061
2404.00,0.0061
2403.00,0.0061
2402.00,0.0061
2401.00,0.0061
2400.00,0.0061
2399.00,0.0062
2398.00,0.0062
2397.00,0.0062
2396.00,0.0062
2395.00,0.0062
2394.00,0.0062
2393.00,0.0062
2392.00,0.0062
2391.00,0.0062
2390.00,0.0062
2389.00,0.0062
2388.00,0.0061
2387.00,0.0061
2386.00,0.0060
2385.00,0.0059
2384.00,0.0058
2383.00,0.0058
2382.00,0.0057
2381.00,0.0057
2380.00,0.0057
2379.00,0.0057
2378.00,0.0057
2377.00,0.0057
2376.00,0.0057
2375.00,0.0057
2374.00,0.0056
2373.00,0.0055
2372.00,0.0054
2371.00,0.0054
2370.00,0.0053
2369.00,0.0053
2368.00,0.0054
2367.00,0.0054
2366.00,0.0055
2365.00,0.0055
2364.00,0.0055
2363.00,0.0056
2362.00,0.0056
2361.00,0.0056
2360.00,0.0056
2359.00,0.0056
2358.00,0.0056
2357.00,0.0056
2356.00,0.0056
2355.00,0.0056
2354.00,0.0056
2353.00,0.0056
2352.00,0.0056
2351.00,0.0055
2350.00,0.0055
2349.00,0.0055
2348.00,0.0057
2347.00,0.0059
2346.00,0.0061
2345.00,0.0062
2344.00,0.0062
2343.00,0.0060
2342.00,0.0059
2341.00,0.0058
2340.00,0.0058
2339.00,0.0059
2338.00,0.0059
2337.00,0.0059
2336.00,0.0059
2335.00,0.0060
2334.00,0.0060
2333.00,0.0060
2332.00,0.0059
2331.00,0.0059
2330.00,0.0059
2329.00,0.0061
2328.00,0.0064
2327.00,0.0067
2326.00,0.0070
2325.00,0.0071
2324.00,0.0070
2323.00,0.0068
2322.00,0.0065
2321.00,0.0063
2320.00,0.0062
2319.00,0.0061
2318.00,0.0060
2317.00,0.0060
2316.00,0.0060
2315.00,0.0059
2314.00,0.0058
2313.00,0.0058
2312.00,0.0057
2311.00,0.0056
2310.00,0.0056
2309.00,0.0056
2308.00,0.0056
2307.00,0.0057
2306.00,0.0057
2305.00,0.0057
2304.00,0.0058
2303.00,0.0058
2302.00,0.0058
2301.00,0.0058
2300.00,0.0059
2299.00,0.0060
2298.00,0.0061
2297.00,0.0062
2296.00,0.0063
2295.00,0.0064
2294.00,0.0066
2293.00,0.0067
2292.00,0.0068
2291.00,0.0069
2290.00,0.0070
2289.00,0.0071
2288.00,0.0072
2287.00,0.0072
2286.00,0.0072
2285.00,0.0071
2284.00,0.0070
2283.00,0.0069
2282.00,0.0069
2281.00,0.0068
2280.00,0.0068
2279.00,0.0067
2278.00,0.0066
2277.00,0.0066
2276.00,0.0066
2275.00,0.0066
2274.00,0.0066
2273.00,0.0067
2272.00,0.0066
2271.00,0.0066
2270.00,0.0064
2269.00,0.0063
2268.00,0.0062
2267.00,0.0061
2266.00,0.0061
2265.00,0.0061
2264.00,0.0062
2263.00,0.0062
2262.00,0.0063
2261.00,0.0063
2260.00,0.0063
2259.00,0.0063
2258.00,0.0062
2257.00,0.0061
2256.00,0.0061
2255.00,0.0060
2254.00,0.0060
2253.00,0.0060
2252.00,0.0060
2251.00,0.0060
2250.00,0.0061
2249.00,0.0061
2248.00,0.0061
2247.00,0.0061
2246.00,0.0061
2245.00,0.0060
2244.00,0.0060
2243.00,0.0060
2242.00,0.0060
2241.00,0.0060
2240.00,0.0061
2239.00,0.0062
2238.00,0.0062
2237.00,0.0061
2236.00,0.0062
2235.00,0.0062
2234.00,0.0063
2233.00,0.0063
2232.00,0.0063
2231.00,0.0062
2230.00,0.0061
2229.00,0.0060
2228.00,0.0059
2227.00,0.0059
2226.00,0.0058
2225.00,0.0058
2224.00,0.0058
2223.00,0.0060
2222.00,0.0061
2221.00,0.0061
2220.00,0.0061
2219.00,0.0060
2218.00,0.0060
2217.00,0.0060
2216.00,0.0060
2215.00,0.0060
2214.00,0.0060
2213.00,0.0060
2212.00,0.0060
2211.00,0.0059
2210.00,0.0059
2209.00,0.0060
2208.00,0.0061
2207.00,0.0061
2206.00,0.0061
2205.00,0.0060
2204.00,0.0059
2203.00,0.0059
2202.00,0.0059
2201.00,0.0058
2200.00,0.0058
2199.00,0.0058
2198.00,0.0059
2197.00,0.0060
2196.00,0.0060
2195.00,0.0059
2194.00,0.0058
2193.00,0.0057
2192.00,0.0057
2191.00,0.0059
2190.00,0.0061
2189.00,0.0062
2188.00,0.0064
2187.00,0.0064
2186.00,0.0063
2185.00,0.0062
2184.00,0.0059
2183.00,0.0055
2182.00,0.0052
2181.00,0.0051
2180.00,0.0053
2179.00,0.0054
2178.00,0.0055
2177.00,0.0055
2176.00,0.0054
2175.00,0.0055
2174.00,0.0056
2173.00,0.0059
2172.00,0.0062
2171.00,0.0065
2170.00,0.0066
2169.00,0.0067
2168.00,0.0068
2167.00,0.0068
2166.00,0.0069
2165.00,0.0072
2164.00,0.0075
2163.00,0.0074
2162.00,0.0065
2161.00,0.0050
2160.00,0.0032
2159.00,0.0020
2158.00,0.0016
2157.00,0.0018
2156.00,0.0022
2155.00,0.0025
2154.00,0.0028
2153.00,0.0031
2152.00,0.0034
2151.00,0.0036
2150.00,0.0037
2149.00,0.0036
2148.00,0.0035
2147.00,0.0034
2146.00,0.0034
2145.00,0.0034
2144.00,0.0035
2143.00,0.0034
2142.00,0.0034
2141.00,0.0033
2140.00,0.0034
2139.00,0.0035
2138.00,0.0034
2137.00,0.0031
2136.00,0.0028
2135.00,0.0026
2134.00,0.0026
2133.00,0.0028
2132.00,0.0032
2131.00,0.0034
2130.00,0.0036
2129.00,0.0037
2128.00,0.0038
2127.00,0.0040
2126.00,0.0041
2125.00,0.0042
2124.00,0.0044
2123.00,0.0045
2122.00,0.0046
2121.00,0.0046
2120.00,0.0047
2119.00,0.0048
2118.00,0.0050
2117.00,0.0052
2116.00,0.0053
2115.00,0.0054
2114.00,0.0053
2113.00,0.0051
2112.00,0.0050
2111.00,0.0050
2110.00,0.0049
2109.00,0.0050
2108.00,0.0050
2107.00,0.0050
2106.00,0.0049
2105.00,0.0049
2104.00,0.0049
2103.00,0.0049
2102.00,0.0048
2101.00,0.0047
2100.00,0.0047
2099.00,0.0047
2098.00,0.0046
2097.00,0.0044
2096.00,0.0043
2095.00,0.0043
2094.00,0.0044
2093.00,0.0045
2092.00,0.0047
2091.00,0.0049
2090.00,0.0050
2089.00,0.0050
2088.00,0.0051
2087.00,0.0051
2086.00,0.0051
2085.00,0.0052
2084.00,0.0052
2083.00,0.0053
2082.00,0.0054
2081.00,0.0054
2080.00,0.0054
2079.00,0.0054
2078.00,0.0053
2077.00,0.0052
2076.00,0.0052
2075.00,0.0051
2074.00,0.0050
2073.00,0.0050
2072.00,0.0049
2071.00,0.0048
2070.00,0.0046
2069.00,0.0045
2068.00,0.0044
2067.00,0.0043
2066.00,0.0043
2065.00,0.0043
2064.00,0.0042
2063.00,0.0042
2062.00,0.0042
2061.00,0.0042
2060.00,0.0043
2059.00,0.0045
2058.00,0.0046
2057.00,0.0047
2056.00,0.0047
2055.00,0.0048
2054.00,0.0050
2053.00,0.0055
2052.00,0.0058
2051.00,0.0058
2050.00,0.0055
2049.00,0.0050
2048.00,0.0046
2047.00,0.0043
2046.00,0.0040
2045.00,0.0039
2044.00,0.0039
2043.00,0.0039
2042.00,0.0039
2041.00,0.0041
2040.00,0.0042
2039.00,0.0043
2038.00,0.0043
2037.00,0.0042
2036.00,0.0039
2035.00,0.0035
2034.00,0.0031
2033.00,0.0029
2032.00,0.0028
2031.00,0.0028
2030.00,0.0029
2029.00,0.0030
2028.00,0.0032
2027.00,0.0033
2026.00,0.0033
2025.00,0.0033
2024.00,0.0032
2023.00,0.0031
2022.00,0.0030
2021.00,0.0030
2020.00,0.0032
2019.00,0.0034
2018.00,0.0034
2017.00,0.0035
2016.00,0.0035
2015.00,0.0034
2014.00,0.0033
2013.00,0.0033
2012.00,0.0033
2011.00,0.0033
2010.00,0.0031
2009.00,0.0028
2008.00,0.0025
2007.00,0.0021
2006.00,0.0020
2005.00,0.0021
2004.00,0.0024
2003.00,0.0026
2002.00,0.0028
2001.00,0.0030
2000.00,0.0032
1999.00,0.0034
1998.00,0.0035
1997.00,0.0037
1996.00,0.0038
1995.00,0.0039
1994.00,0.0041
1993.00,0.0043
1992.00,0.0045
1991.00,0.0046
1990.00,0.0045
1989.00,0.0044
1988.00,0.0044
1987.00,0.0045
1986.00,0.0047
1985.00,0.0050
1984.00,0.0053
1983.00,0.0056
1982.00,0.0059
1981.00,0.0060
1980.00,0.0056
1979.00,0.0048
1978.00,0.0040
1977.00,0.0034
1976.00,0.0032
1975.00,0.0032
1974.00,0.0031
1973.00,0.0030
1972.00,0.0030
1971.00,0.0030
1970.00,0.0030
1969.00,0.0031
1968.00,0.0032
1967.00,0.0033
1966.00,0.0032
1965.00,0.0033
1964.00,0.0034
1963.00,0.0033
1962.00,0.0031
1961.00,0.0030
1960.00,0.0030
1959.00,0.0030
1958.00,0.0030
1957.00,0.0030
1956.00,0.0030
1955.00,0.0031
1954.00,0.0031
1953.00,0.0032
1952.00,0.0034
1951.00,0.0034
1950.00,0.0035
1949.00,0.0035
1948.00,0.0036
1947.00,0.0036
1946.00,0.0036
1945.00,0.0036
1944.00,0.0037
1943.00,0.0038
1942.00,0.0037
1941.00,0.0037
1940.00,0.0036
1939.00,0.0036
1938.00,0.0035
1937.00,0.0036
1936.00,0.0037
1935.00,0.0037
1934.00,0.0038
1933.00,0.0038
1932.00,0.0037
1931.00,0.0037
1930.00,0.0036
1929.00,0.0037
1928.00,0.0038
1927.00,0.0039
1926.00,0.0039
1925.00,0.0038
1924.00,0.0038
1923.00,0.0038
1922.00,0.0039
1921.00,0.0040
1920.00,0.0041
1919.00,0.0041
1918.00,0.0041
1917.00,0.0041
1916.00,0.0042
1915.00,0.0042
1914.00,0.0042
1913.00,0.0042
1912.00,0.0043
1911.00,0.0043
1910.00,0.0044
1909.00,0.0045
1908.00,0.0045
1907.00,0.0045
1906.00,0.0045
1905.00,0.0045
1904.00,0.0045
1903.00,0.0045
1902.00,0.0045
1901.00,0.0045
1900.00,0.0045
1899.00,0.0045
1898.00,0.0045
1897.00,0.0045
1896.00,0.0046
1895.00,0.0046
1894.00,0.0045
1893.00,0.0045
1892.00,0.0046
1891.00,0.0046
1890.00,0.0047
1889.00,0.0047
1888.00,0.0048
1887.00,0.0048
1886.00,0.0047
1885.00,0.0047
1884.00,0.0047
1883.00,0.0047
1882.00,0.0047
1881.00,0.0047
1880.00,0.0047
1879.00,0.0047
1878.00,0.0047
1877.00,0.0047
1876.00,0.0048
1875.00,0.0048
1874.00,0.0048
1873.00,0.0048
1872.00,0.0048
1871.00,0.0049
1870.00,0.0048
1869.00,0.0048
1868.00,0.0048
1867.00,0.0048
1866.00,0.0047
1865.00,0.0047
1864.00,0.0047
1863.00,0.0046
1862.00,0.0046
1861.00,0.0046
1860.00,0.0047
1859.00,0.0046
1858.00,0.0046
1857.00,0.0046
1856.00,0.0046
1855.00,0.0047
1854.00,0.0047
1853.00,0.0047
1852.00,0.0047
1851.00,0.0047
1850.00,0.0047
1849.00,0.0047
1848.00,0.0048
1847.00,0.0048
1846.00,0.0048
1845.00,0.0048
1844.00,0.0048
1843.00,0.0047
1842.00,0.0048
1841.00,0.0048
1840.00,0.0049
1839.00,0.0049
1838.00,0.0049
1837.00,0.0049
1836.00,0.0049
1835.00,0.0049
1834.00,0.0049
1833.00,0.0049
1832.00,0.0050
1831.00,0.0050
1830.00,0.0050
1829.00,0.0051
1828.00,0.0051
1827.00,0.0051
1826.00,0.0051
1825.00,0.0051
1824.00,0.0051
1823.00,0.0051
1822.00,0.0051
1821.00,0.0051
1820.00,0.0050
1819.00,0.0049
1818.00,0.0049
1817.00,0.0049
1816.00,0.0050
1815.00,0.0051
1814.00,0.0051
1813.00,0.0052
1812.00,0.0053
1811.00,0.0054
1810.00,0.0055
1809.00,0.0057
1808.00,0.0058
1807.00,0.0059
1806.00,0.0059
1805.00,0.0060
1804.00,0.0061
1803.00,0.0061
1802.00,0.0062
1801.00,0.0062
1800.00,0.0062
1799.00,0.0061
1798.00,0.0061
1797.00,0.0060
1796.00,0.0060
1795.00,0.0059
1794.00,0.0058
1793.00,0.0058
1792.00,0.0057
1791.00,0.0056
1790.00,0.0056
1789.00,0.0057
1788.00,0.0057
1787.00,0.0057
1786.00,0.0057
1785.00,0.0057
1784.00,0.0057
1783.00,0.0058
1782.00,0.0058
1781.00,0.0058
1780.00,0.0059
1779.00,0.0059
1778.00,0.0060
1777.00,0.0061
1776.00,0.0062
1775.00,0.0063
1774.00,0.0064
1773.00,0.0065
1772.00,0.0066
1771.00,0.0066
1770.00,0.0065
1769.00,0.0064
1768.00,0.0063
1767.00,0.0062
1766.00,0.0061
1765.00,0.0060
1764.00,0.0059
1763.00,0.0059
1762.00,0.0058
1761.00,0.0058
1760.00,0.0058
1759.00,0.0057
1758.00,0.0057
1757.00,0.0057
1756.00,0.0057
1755.00,0.0057
1754.00,0.0057
1753.00,0.0057
1752.00,0.0057
1751.00,0.0057
1750.00,0.0057
1749.00,0.0057
1748.00,0.0057
1747.00,0.0057
1746.00,0.0057
1745.00,0.0057
1744.00,0.0057
1743.00,0.0058
1742.00,0.0058
1741.00,0.0058
1740.00,0.0058
1739.00,0.0058
1738.00,0.0058
1737.00,0.0059
1736.00,0.0059
1735.00,0.0059
1734.00,0.0059
1733.00,0.0059
1732.00,0.0060
1731.00,0.0060
1730.00,0.0060
1729.00,0.0061
1728.00,0.0061
1727.00,0.0062
1726.00,0.0062
1725.00,0.0062
1724.00,0.0063
1723.00,0.0064
1722.00,0.0064
1721.00,0.0065
1720.00,0.0065
1719.00,0.0065
1718.00,0.0065
1717.00,0.0066
1716.00,0.0066
1715.00,0.0066
1714.00,0.0066
1713.00,0.0067
1712.00,0.0067
1711.00,0.0068
1710.00,0.0069
1709.00,0.0070
1708.00,0.0071
1707.00,0.0071
1706.00,0.0072
1705.00,0.0073
1704.00,0.0074
1703.00,0.0075
1702.00,0.0075
1701.00,0.0075
1700.00,0.0075
1699.00,0.0076
1698.00,0.0076
1697.00,0.0076
1696.00,0.0077
1695.00,0.0077
1694.00,0.0077
1693.00,0.0077
1692.00,0.0077
1691.00,0.0076
1690.00,0.0076
1689.00,0.0076
1688.00,0.0076
1687.00,0.0076
1686.00,0.0075
1685.00,0.0075
1684.00,0.0075
1683.00,0.0076
1682.00,0.0076
1681.00,0.0076
1680.00,0.0077
1679.00,0.0078
1678.00,0.0079
1677.00,0.0079
1676.00,0.0081
1675.00,0.0082
1674.00,0.0083
1673.00,0.0084
1672.00,0.0086
1671.00,0.0088
1670.00,0.0090
1669.00,0.0094
1668.00,0.0098
1667.00,0.0101
1666.00,0.0104
1665.00,0.0107
1664.00,0.0110
1663.00,0.0114
1662.00,0.0116
1661.00,0.0117
1660.00,0.0117
1659.00,0.0117
1658.00,0.0117
1657.00,0.0117
1656.00,0.0118
1655.00,0.0121
1654.00,0.0129
1653.00,0.0145
1652.00,0.0162
1651.00,0.0174
1650.00,0.0185
1649.00,0.0204
1648.00,0.0240
1647.00,0.0298
1646.00,0.0362
1645.00,0.0408
1644.00,0.0429
1643.00,0.0429
1642.00,0.0415
1641.00,0.0396
1640.00,0.0381
1639.00,0.0374
1638.00,0.0378
1637.00,0.0405
1636.00,0.0461
1635.00,0.0530
1634.00,0.0584
1633.00,0.0618
1632.00,0.0641
1631.00,0.0660
1630.00,0.0676
1629.00,0.0695
1628.00,0.0721
1627.00,0.0752
1626.00,0.0784
1625.00,0.0816
1624.00,0.0848
1623.00,0.0864
1622.00,0.0849
1621.00,0.0804
1620.00,0.0743
1619.00,0.0674
1618.00,0.0599
1617.00,0.0523
1616.00,0.0458
1615.00,0.0410
1614.00,0.0375
1613.00,0.0345
1612.00,0.0319
1611.00,0.0295
1610.00,0.0275
1609.00,0.0259
1608.00,0.0245
1607.00,0.0234
1606.00,0.0226
1605.00,0.0220
1604.00,0.0215
1603.00,0.0212
1602.00,0.0212
1601.00,0.0214
1600.00,0.0218
1599.00,0.0225
1598.00,0.0234
1597.00,0.0247
1596.00,0.0265
1595.00,0.0289
1594.00,0.0320
1593.00,0.0361
1592.00,0.0413
1591.00,0.0476
1590.00,0.0551
1589.00,0.0632
1588.00,0.0715
1587.00,0.0795
1586.00,0.0867
1585.00,0.0931
1584.00,0.0986
1583.00,0.1027
1582.00,0.1046
1581.00,0.1039
1580.00,0.1009
1579.00,0.0959
1578.00,0.0891
1577.00,0.0808
1576.00,0.0721
1575.00,0.0645
1574.00,0.0584
1573.00,0.0533
1572.00,0.0487
1571.00,0.0441
1570.00,0.0395
1569.00,0.0354
1568.00,0.0321
1567.00,0.0294
1566.00,0.0270
1565.00,0.0248
1564.00,0.0230
1563.00,0.0216
1562.00,0.0205
1561.00,0.0195
1560.00,0.0185
1559.00,0.0175
1558.00,0.0169
1557.00,0.0164
1556.00,0.0160
1555.00,0.0156
1554.00,0.0152
1553.00,0.0149
1552.00,0.0145
1551.00,0.0141
1550.00,0.0138
1549.00,0.0135
1548.00,0.0132
1547.00,0.0130
1546.00,0.0127
1545.00,0.0125
1544.00,0.0124
1543.00,0.0122
1542.00,0.0120
1541.00,0.0119
1540.00,0.0118
1539.00,0.0118
1538.00,0.0119
1537.00,0.0119
1536.00,0.0119
1535.00,0.0119
1534.00,0.0120
1533.00,0.0120
1532.00,0.0121
1531.00,0.0121
1530.00,0.0121
1529.00,0.0123
1528.00,0.0124
1527.00,0.0127
1526.00,0.0130
1525.00,0.0135
1524.00,0.0140
1523.00,0.0148
1522.00,0.0164
1521.00,0.0186
1520.00,0.0206
1519.00,0.0223
1518.00,0.0240
1517.00,0.0260
1516.00,0.0277
1515.00,0.0286
1514.00,0.0287
1513.00,0.0280
1512.00,0.0269
1511.00,0.0254
1510.00,0.0239
1509.00,0.0225
1508.00,0.0211
1507.00,0.0198
1506.00,0.0189
1505.00,0.0184
1504.00,0.0180
1503.00,0.0176
1502.00,0.0172
1501.00,0.0169
1500.00,0.0165
1499.00,0.0160
1498.00,0.0154
1497.00,0.0148
1496.00,0.0143
1495.00,0.0138
1494.00,0.0134
1493.00,0.0130
1492.00,0.0127
1491.00,0.0123
1490.00,0.0120
1489.00,0.0119
1488.00,0.0117
1487.00,0.0116
1486.00,0.0115
1485.00,0.0115
1484.00,0.0116
1483.00,0.0116
1482.00,0.0118
1481.00,0.0120
1480.00,0.0123
1479.00,0.0125
1478.00,0.0128
1477.00,0.0132
1476.00,0.0138
1475.00,0.0144
1474.00,0.0153
1473.00,0.0170
1472.00,0.0195
1471.00,0.0223
1470.00,0.0254
1469.00,0.0287
1468.00,0.0319
1467.00,0.0346
1466.00,0.0367
1465.00,0.0386
1464.00,0.0402
1463.00,0.0415
1462.00,0.0426
1461.00,0.0435
1460.00,0.0443
1459.00,0.0451
1458.00,0.0467
1457.00,0.0498
1456.00,0.0534
1455.00,0.0565
1454.00,0.0598
1453.00,0.0641
1452.00,0.0697
1451.00,0.0762
1450.00,0.0836
1449.00,0.0923
1448.00,0.1021
1447.00,0.1112
1446.00,0.1182
1445.00,0.1230
1444.00,0.1257
1443.00,0.1266
1442.00,0.1262
1441.00,0.1249
1440.00,0.1227
1439.00,0.1199
1438.00,0.1170
1437.00,0.1144
1436.00,0.1113
1435.00,0.1075
1434.00,0.1031
1433.00,0.0985
1432.00,0.0935
1431.00,0.0879
1430.00,0.0815
1429.00,0.0742
1428.00,0.0664
1427.00,0.0589
1426.00,0.0519
1425.00,0.0455
1424.00,0.0400
1423.00,0.0357
1422.00,0.0325
1421.00,0.0298
1420.00,0.0275
1419.00,0.0255
1418.00,0.0239
1417.00,0.0226
1416.00,0.0215
1415.00,0.0207
1414.00,0.0199
1413.00,0.0192
1412.00,0.0186
1411.00,0.0181
1410.00,0.0177
1409.00,0.0173
1408.00,0.0170
1407.00,0.0168
1406.00,0.0166
1405.00,0.0165
1404.00,0.0162
1403.00,0.0161
1402.00,0.0159
1401.00,0.0157
1400.00,0.0155
1399.00,0.0154
1398.00,0.0153
1397.00,0.0152
1396.00,0.0151
1395.00,0.0150
1394.00,0.0149
1393.00,0.0147
1392.00,0.0146
1391.00,0.0146
1390.00,0.0147
1389.00,0.0149
1388.00,0.0153
1387.00,0.0160
1386.00,0.0169
1385.00,0.0180
1384.00,0.0195
1383.00,0.0216
1382.00,0.0244
1381.00,0.0281
1380.00,0.0329
1379.00,0.0386
1378.00,0.0447
1377.00,0.0502
1376.00,0.0542
1375.00,0.0561
1374.00,0.0555
1373.00,0.0529
1372.00,0.0494
1371.00,0.0459
1370.00,0.0427
1369.00,0.0397
1368.00,0.0372
1367.00,0.0352
1366.00,0.0333
1365.00,0.0315
1364.00,0.0298
1363.00,0.0283
1362.00,0.0270
1361.00,0.0261
1360.00,0.0253
1359.00,0.0248
1358.00,0.0244
1357.00,0.0242
1356.00,0.0241
1355.00,0.0241
1354.00,0.0242
1353.00,0.0244
1352.00,0.0245
1351.00,0.0248
1350.00,0.0251
1349.00,0.0257
1348.00,0.0263
1347.00,0.0272
1346.00,0.0281
1345.00,0.0289
1344.00,0.0297
1343.00,0.0302
1342.00,0.0304
1341.00,0.0303
1340.00,0.0297
1339.00,0.0287
1338.00,0.0276
1337.00,0.0267
1336.00,0.0262
1335.00,0.0261
1334.00,0.0265
1333.00,0.0273
1332.00,0.0283
1331.00,0.0296
1330.00,0.0309
1329.00,0.0322
1328.00,0.0333
1327.00,0.0345
1326.00,0.0357
1325.00,0.0366
1324.00,0.0371
1323.00,0.0368
1322.00,0.0358
1321.00,0.0345
1320.00,0.0333
1319.00,0.0328
1318.00,0.0334
1317.00,0.0352
1316.00,0.0382
1315.00,0.0422
1314.00,0.0466
1313.00,0.0505
1312.00,0.0533
1311.00,0.0543
1310.00,0.0539
1309.00,0.0525
1308.00,0.0511
1307.00,0.0503
1306.00,0.0503
1305.00,0.0511
1304.00,0.0523
1303.00,0.0535
1302.00,0.0543
1301.00,0.0547
1300.00,0.0545
1299.00,0.0538
1298.00,0.0529
1297.00,0.0517
1296.00,0.0504
1295.00,0.0488
1294.00,0.0473
1293.00,0.0457
1292.00,0.0442
1291.00,0.0429
1290.00,0.0418
1289.00,0.0412
1288.00,0.0412
1287.00,0.0420
1286.00,0.0435
1285.00,0.0454
1284.00,0.0477
1283.00,0.0499
1282.00,0.0520
1281.00,0.0537
1280.00,0.0548
1279.00,0.0554
1278.00,0.0554
1277.00,0.0547
1276.00,0.0533
1275.00,0.0514
1274.00,0.0490
1273.00,0.0462
1272.00,0.0430
1271.00,0.0396
1270.00,0.0362
1269.00,0.0331
1268.00,0.0302
1267.00,0.0278
1266.00,0.0258
1265.00,0.0241
1264.00,0.0227
1263.00,0.0216
1262.00,0.0207
1261.00,0.0200
1260.00,0.0193
1259.00,0.0188
1258.00,0.0185
1257.00,0.0183
1256.00,0.0182
1255.00,0.0184
1254.00,0.0188
1253.00,0.0195
1252.00,0.0206
1251.00,0.0220
1250.00,0.0235
1249.00,0.0247
1248.00,0.0257
1247.00,0.0265
1246.00,0.0273
1245.00,0.0287
1244.00,0.0310
1243.00,0.0345
1242.00,0.0391
1241.00,0.0447
1240.00,0.0508
1239.00,0.0567
1238.00,0.0615
1237.00,0.0645
1236.00,0.0658
1235.00,0.0656
1234.00,0.0645
1233.00,0.0626
1232.00,0.0603
1231.00,0.0580
1230.00,0.0564
1229.00,0.0563
1228.00,0.0581
1227.00,0.0616
1226.00,0.0663
1225.00,0.0716
1224.00,0.0774
1223.00,0.0835
1222.00,0.0902
1221.00,0.0981
1220.00,0.1075
1219.00,0.1182
1218.00,0.1297
1217.00,0.1406
1216.00,0.1495
1215.00,0.1548
1214.00,0.1559
1213.00,0.1529
1212.00,0.1466
1211.00,0.1380
1210.00,0.1285
1209.00,0.1191
1208.00,0.1105
1207.00,0.1028
1206.00,0.0959
1205.00,0.0895
1204.00,0.0831
1203.00,0.0766
1202.00,0.0701
1201.00,0.0638
1200.00,0.0580
1199.00,0.0528
1198.00,0.0485
1197.00,0.0449
1196.00,0.0422
1195.00,0.0402
1194.00,0.0390
1193.00,0.0383
1192.00,0.0382
1191.00,0.0386
1190.00,0.0393
1189.00,0.0402
1188.00,0.0412
1187.00,0.0423
1186.00,0.0435
1185.00,0.0447
1184.00,0.0460
1183.00,0.0471
1182.00,0.0479
1181.00,0.0486
1180.00,0.0491
1179.00,0.0496
1178.00,0.0500
1177.00,0.0504
1176.00,0.0511
1175.00,0.0524
1174.00,0.0545
1173.00,0.0568
1172.00,0.0577
1171.00,0.0563
1170.00,0.0523
1169.00,0.0469
1168.00,0.0413
1167.00,0.0365
1166.00,0.0327
1165.00,0.0297
1164.00,0.0275
1163.00,0.0259
1162.00,0.0247
1161.00,0.0240
1160.00,0.0237
1159.00,0.0238
1158.00,0.0244
1157.00,0.0258
1156.00,0.0283
1155.00,0.0325
1154.00,0.0385
1153.00,0.0461
1152.00,0.0536
1151.00,0.0588
1150.00,0.0595
1149.00,0.0554
1148.00,0.0482
1147.00,0.0404
1146.00,0.0338
1145.00,0.0290
1144.00,0.0257
1143.00,0.0236
1142.00,0.0223
1141.00,0.0216
1140.00,0.0214
1139.00,0.0215
1138.00,0.0221
1137.00,0.0227
1136.00,0.0233
1135.00,0.0236
1134.00,0.0235
1133.00,0.0228
1132.00,0.0218
1131.00,0.0207
1130.00,0.0195
1129.00,0.0184
1128.00,0.0175
1127.00,0.0167
1126.00,0.0161
1125.00,0.0157
1124.00,0.0154
1123.00,0.0151
1122.00,0.0150
1121.00,0.0149
1120.00,0.0149
1119.00,0.0150
1118.00,0.0151
1117.00,0.0153
1116.00,0.0156
1115.00,0.0158
1114.00,0.0161
1113.00,0.0164
1112.00,0.0167
1111.00,0.0171
1110.00,0.0176
1109.00,0.0183
1108.00,0.0190
1107.00,0.0200
1106.00,0.0210
1105.00,0.0221
1104.00,0.0233
1103.00,0.0247
1102.00,0.0263
1101.00,0.0280
1100.00,0.0294
1099.00,0.0301
1098.00,0.0298
1097.00,0.0286
1096.00,0.0267
1095.00,0.0248
1094.00,0.0231
1093.00,0.0218
1092.00,0.0207
1091.00,0.0200
1090.00,0.0194
1089.00,0.0190
1088.00,0.0188
1087.00,0.0190
1086.00,0.0196
1085.00,0.0207
1084.00,0.0222
1083.00,0.0243
1082.00,0.0266
1081.00,0.0287
1080.00,0.0301
1079.00,0.0304
1078.00,0.0296
1077.00,0.0281
1076.00,0.0262
1075.00,0.0245
1074.00,0.0230
1073.00,0.0218
1072.00,0.0209
1071.00,0.0202
1070.00,0.0197
1069.00,0.0193
1068.00,0.0190
1067.00,0.0189
1066.00,0.0189
1065.00,0.0191
1064.00,0.0195
1063.00,0.0201
1062.00,0.0210
1061.00,0.0222
1060.00,0.0240
1059.00,0.0266
1058.00,0.0304
1057.00,0.0357
1056.00,0.0425
1055.00,0.0503
1054.00,0.0577
1053.00,0.0636
1052.00,0.0671
1051.00,0.0682
1050.00,0.0669
1049.00,0.0634
1048.00,0.0582
1047.00,0.0522
1046.00,0.0466
1045.00,0.0423
1044.00,0.0396
1043.00,0.0385
1042.00,0.0385
1041.00,0.0392
1040.00,0.0406
1039.00,0.0427
1038.00,0.0457
1037.00,0.0500
1036.00,0.0557
1035.00,0.0625
1034.00,0.0694
1033.00,0.0749
1032.00,0.0777
1031.00,0.0772
1030.00,0.0741
1029.00,0.0696
1028.00,0.0651
1027.00,0.0619
1026.00,0.0607
1025.00,0.0618
1024.00,0.0655
1023.00,0.0716
1022.00,0.0794
1021.00,0.0875
1020.00,0.0942
1019.00,0.0976
1018.00,0.0969
1017.00,0.0928
1016.00,0.0865
1015.00,0.0795
1014.00,0.0727
1013.00,0.0666
1012.00,0.0615
1011.00,0.0579
1010.00,0.0558
1009.00,0.0551
1008.00,0.0555
1007.00,0.0569
1006.00,0.0592
1005.00,0.0621
1004.00,0.0651
1003.00,0.0672
1002.00,0.0679
1001.00,0.0668
1000.00,0.0638
999.00,0.0592
998.00,0.0537
997.00,0.0481
996.00,0.0433
995.00,0.0395
994.00,0.0368
993.00,0.0351
992.00,0.0343
991.00,0.0344
990.00,0.0352
989.00,0.0363
988.00,0.0376
987.00,0.0388
986.00,0.0396
985.00,0.0399
984.00,0.0394
983.00,0.0379
982.00,0.0360
981.00,0.0339
980.00,0.0321
979.00,0.0309
978.00,0.0300
977.00,0.0294
976.00,0.0287
975.00,0.0282
974.00,0.0278
973.00,0.0276
972.00,0.0278
971.00,0.0285
970.00,0.0295
969.00,0.0309
968.00,0.0324
967.00,0.0341
966.00,0.0360
965.00,0.0383
964.00,0.0409
963.00,0.0435
962.00,0.0453
961.00,0.0458
960.00,0.0446
959.00,0.0418
958.00,0.0382
957.00,0.0343
956.00,0.0308
955.00,0.0279
954.00,0.0257
953.00,0.0240
952.00,0.0227
951.00,0.0217
950.00,0.0209
949.00,0.0203
948.00,0.0199
947.00,0.0195
946.00,0.0192
945.00,0.0189
944.00,0.0186
943.00,0.0184
942.00,0.0182
941.00,0.0180
940.00,0.0178
939.00,0.0176
938.00,0.0175
937.00,0.0175
936.00,0.0175
935.00,0.0176
934.00,0.0178
933.00,0.0182
932.00,0.0188
931.00,0.0194
930.00,0.0199
929.00,0.0202
928.00,0.0203
927.00,0.0202
926.00,0.0202
925.00,0.0201
924.00,0.0200
923.00,0.0200
922.00,0.0200
921.00,0.0202
920.00,0.0206
919.00,0.0214
918.00,0.0224
917.00,0.0234
916.00,0.0243
915.00,0.0247
914.00,0.0248
913.00,0.0245
912.00,0.0243
911.00,0.0244
910.00,0.0249
909.00,0.0259
908.00,0.0276
907.00,0.0299
906.00,0.0328
905.00,0.0362
904.00,0.0402
903.00,0.0448
902.00,0.0506
901.00,0.0579
900.00,0.0669
899.00,0.0771
898.00,0.0869
897.00,0.0939
896.00,0.0960
895.00,0.0930
894.00,0.0864
893.00,0.0782
892.00,0.0704
891.00,0.0643
890.00,0.0607
889.00,0.0603
888.00,0.0637
887.00,0.0713
886.00,0.0825
885.00,0.0952
884.00,0.1057
883.00,0.1101
882.00,0.1065
881.00,0.0966
880.00,0.0839
879.00,0.0715
878.00,0.0615
877.00,0.0542
876.00,0.0493
875.00,0.0466
874.00,0.0456
873.00,0.0461
872.00,0.0478
871.00,0.0499
870.00,0.0514
869.00,0.0515
868.00,0.0505
867.00,0.0494
866.00,0.0496
865.00,0.0517
864.00,0.0553
863.00,0.0594
862.00,0.0626
861.00,0.0640
860.00,0.0638
859.00,0.0630
858.00,0.0625
857.00,0.0631
856.00,0.0646
855.00,0.0666
854.00,0.0685
853.00,0.0702
852.00,0.0714
851.00,0.0721
850.00,0.0717
849.00,0.0701
848.00,0.0675
847.00,0.0646
846.00,0.0621
845.00,0.0604
844.00,0.0593
843.00,0.0583
842.00,0.0571
841.00,0.0556
840.00,0.0543
839.00,0.0534
838.00,0.0531
837.00,0.0536
836.00,0.0546
835.00,0.0563
834.00,0.0585
833.00,0.0610
832.00,0.0636
831.00,0.0661
830.00,0.0683
829.00,0.0700
828.00,0.0709
827.00,0.0708
826.00,0.0692
825.00,0.0662
824.00,0.0621
823.00,0.0576
822.00,0.0529
821.00,0.0482
820.00,0.0437
819.00,0.0399
818.00,0.0367
817.00,0.0343
816.00,0.0326
815.00,0.0313
814.00,0.0302
813.00,0.0294
812.00,0.0289
811.00,0.0291
810.00,0.0303
809.00,0.0331
808.00,0.0380
807.00,0.0449
806.00,0.0523
805.00,0.0579
804.00,0.0596
803.00,0.0572
802.00,0.0523
801.00,0.0466
800.00,0.0415
799.00,0.0374
798.00,0.0342
797.00,0.0318
796.00,0.0301
795.00,0.0290
794.00,0.0285
793.00,0.0282
792.00,0.0280
791.00,0.0277
790.00,0.0274
789.00,0.0272
788.00,0.0271
787.00,0.0273
786.00,0.0274
785.00,0.0272
784.00,0.0266
783.00,0.0256
782.00,0.0248
781.00,0.0242
780.00,0.0238
779.00,0.0237
778.00,0.0237
777.00,0.0235
776.00,0.0232
775.00,0.0229
774.00,0.0227
773.00,0.0228
772.00,0.0231
771.00,0.0234
770.00,0.0234
769.00,0.0231
768.00,0.0223
767.00,0.0214
766.00,0.0204
765.00,0.0195
764.00,0.0187
763.00,0.0182
762.00,0.0179
761.00,0.0177
760.00,0.0177
759.00,0.0179
758.00,0.0182
757.00,0.0189
756.00,0.0199
755.00,0.0216
754.00,0.0237
753.00,0.0258
752.00,0.0277
751.00,0.0291
750.00,0.0300
749.00,0.0305
748.00,0.0301
747.00,0.0288
746.00,0.0267
745.00,0.0244
744.00,0.0224
743.00,0.0209
742.00,0.0198
741.00,0.0190
740.00,0.0186
739.00,0.0184
738.00,0.0186
737.00,0.0190
736.00,0.0198
735.00,0.0210
734.00,0.0228
733.00,0.0248
732.00,0.0269
731.00,0.0281
730.00,0.0281
729.00,0.0270
728.00,0.0254
727.00,0.0239
726.00,0.0230
725.00,0.0224
724.00,0.0221
723.00,0.0218
722.00,0.0215
721.00,0.0211
720.00,0.0207
719.00,0.0203
718.00,0.0197
717.00,0.0190
716.00,0.0183
715.00,0.0177
714.00,0.0173
713.00,0.0172
712.00,0.0172
711.00,0.0172
710.00,0.0170
709.00,0.0165
708.00,0.0160
707.00,0.0155
706.00,0.0151
705.00,0.0148
704.00,0.0146
703.00,0.0145
702.00,0.0145
701.00,0.0144
700.00,0.0144
699.00,0.0143
698.00,0.0143
697.00,0.0143
696.00,0.0143
695.00,0.0142
694.00,0.0142
693.00,0.0141
692.00,0.0142
691.00,0.0143
690.00,0.0144
689.00,0.0146
688.00,0.0147
687.00,0.0148
686.00,0.0149
685.00,0.0150
684.00,0.0152
683.00,0.0155
682.00,0.0159
681.00,0.0162
680.00,0.0166
679.00,0.0169
678.00,0.0174
677.00,0.0179
676.00,0.0185
675.00,0.0192
674.00,0.0201
673.00,0.0212
672.00,0.0226
671.00,0.0240
670.00,0.0254
669.00,0.0268
668.00,0.0280
667.00,0.0289
666.00,0.0294
665.00,0.0298
664.00,0.0302
663.00,0.0306
662.00,0.0308
661.00,0.0309
660.00,0.0309
659.00,0.0309
658.00,0.0309
657.00,0.0307
656.00,0.0303
655.00,0.0300
654.00,0.0299
653.00,0.0302
652.00,0.0310
651.00,0.0320
650.00,0.0330
649.00,0.0336
648.00,0.0335
647.00,0.0328
646.00,0.0315
645.00,0.0299
644.00,0.0283
643.00,0.0269
642.00,0.0258
641.00,0.0249
640.00,0.0244
639.00,0.0240
638.00,0.0239
637.00,0.0240
636.00,0.0241
635.00,0.0244
634.00,0.0248
633.00,0.0252
632.00,0.0257
631.00,0.0263
630.00,0.0269
629.00,0.0276
628.00,0.0284
627.00,0.0291
626.00,0.0297
625.00,0.0303
624.00,0.0306
623.00,0.0306
622.00,0.0301
621.00,0.0291
620.00,0.0277
619.00,0.0260
618.00,0.0245
617.00,0.0236
616.00,0.0238
615.00,0.0251
614.00,0.0277
613.00,0.0309
612.00,0.0339
611.00,0.0357
610.00,0.0361
609.00,0.0354
608.00,0.0345
607.00,0.0340
606.00,0.0342
605.00,0.0348
604.00,0.0356
603.00,0.0365
602.00,0.0376
601.00,0.0389
600.00,0.0403
599.00,0.0414
598.00,0.0420
597.00,0.0420
596.00,0.0417
595.00,0.0418
594.00,0.0423
593.00,0.0436
592.00,0.0456
591.00,0.0480
590.00,0.0507
589.00,0.0534
588.00,0.0557
587.00,0.0571
586.00,0.0573
585.00,0.0562
584.00,0.0542
583.00,0.0517
582.00,0.0492
581.00,0.0467
580.00,0.0446
579.00,0.0429
578.00,0.0418
577.00,0.0411
576.00,0.0409
575.00,0.0411
574.00,0.0414
573.00,0.0419
572.00,0.0424
571.00,0.0430
570.00,0.0436
569.00,0.0442
568.00,0.0448
567.00,0.0454
566.00,0.0458
565.00,0.0460
564.00,0.0461
563.00,0.0461
562.00,0.0462
561.00,0.0463
560.00,0.0463
559.00,0.0462
558.00,0.0460
557.00,0.0457
556.00,0.0455
555.00,0.0456
554.00,0.0461
553.00,0.0473
552.00,0.0490
551.00,0.0508
550.00,0.0523
549.00,0.0534
548.00,0.0544
547.00,0.0557
546.00,0.0575
545.00,0.0592
544.00,0.0605
543.00,0.0613
542.00,0.0619
541.00,0.0630
540.00,0.0650
539.00,0.0681
538.00,0.0717
537.00,0.0750
536.00,0.0772
535.00,0.0777
534.00,0.0766
533.00,0.0750
532.00,0.0733
531.00,0.0719
530.00,0.0708
529.00,0.0704
528.00,0.0714
527.00,0.0741
526.00,0.0784
525.00,0.0835
524.00,0.0887
523.00,0.0930
522.00,0.0952
521.00,0.0941
520.00,0.0894
519.00,0.0821
518.00,0.0744
517.00,0.0679
516.00,0.0632
515.00,0.0602
514.00,0.0586
513.00,0.0579
512.00,0.0580
511.00,0.0587
510.00,0.0599
509.00,0.0615
508.00,0.0637
507.00,0.0663
506.00,0.0693
505.00,0.0725
504.00,0.0761
503.00,0.0800
502.00,0.0841
501.00,0.0881
500.00,0.0917
499.00,0.0947
498.00,0.0970
497.00,0.0989
496.00,0.1003
495.00,0.1012
494.00,0.1016
493.00,0.1015
492.00,0.1011
491.00,0.1004
490.00,0.0995
489.00,0.0987
488.00,0.0981
487.00,0.0979
486.00,0.0978
485.00,0.0976
484.00,0.0970
483.00,0.0958
482.00,0.0940
481.00,0.0919
480.00,0.0896
479.00,0.0874
478.00,0.0854
477.00,0.0839
476.00,0.0830
475.00,0.0828
474.00,0.0829
473.00,0.0837
472.00,0.0851
471.00,0.0870
470.00,0.0890
469.00,0.0910
468.00,0.0926
467.00,0.0935
466.00,0.0936
465.00,0.0933
464.00,0.0930
463.00,0.0926
462.00,0.0921
461.00,0.0917
460.00,0.0914
459.00,0.0908
458.00,0.0899
457.00,0.0891
456.00,0.0886
455.00,0.0885
454.00,0.0884
453.00,0.0881
452.00,0.0877
451.00,0.0868
450.00,0.0854
449.00,0.0838
448.00,0.0822
447.00,0.0807
446.00,0.0791
445.00,0.0777
444.00,0.0764
443.00,0.0755
442.00,0.0749
441.00,0.0745
440.00,0.0743
439.00,0.0741
438.00,0.0738
437.00,0.0736
436.00,0.0736
435.00,0.0738
434.00,0.0740
433.00,0.0741
432.00,0.0746
431.00,0.0759
430.00,0.0782
429.00,0.0814
428.00,0.0852
427.00,0.0892
426.00,0.0928
425.00,0.0953
424.00,0.0964
423.00,0.0960
422.00,0.0945
421.00,0.0928
420.00,0.0915
419.00,0.0910
418.00,0.0909
417.00,0.0908
416.00,0.0905
415.00,0.0899
414.00,0.0897
413.00,0.0906
412.00,0.0926
411.00,0.0953
410.00,0.0978
409.00,0.1001
408.00,0.1023
407.00,0.1042
406.00,0.1058
405.00,0.1074
404.00,0.1095
403.00,0.1117
402.00,0.1133
401.00,0.1147
400.00,0.1164
