Created as New Dataset,Sample 868 By YargerLab Date Monday, July 21 2025
cm-1,A
4000.00,0.0044
3999.00,0.0045
3998.00,0.0045
3997.00,0.0045
3996.00,0.0045
3995.00,0.0045
3994.00,0.0045
3993.00,0.0045
3992.00,0.0045
3991.00,0.0045
3990.00,0.0045
3989.00,0.0045
3988.00,0.0045
3987.00,0.0045
3986.00,0.0045
3985.00,0.0045
3984.00,0.0045
3983.00,0.0045
3982.00,0.0045
3981.00,0.0045
3980.00,0.0045
3979.00,0.0045
3978.00,0.0045
3977.00,0.0045
3976.00,0.0045
3975.00,0.0045
3974.00,0.0045
3973.00,0.0045
3972.00,0.0045
3971.00,0.0045
3970.00,0.0045
3969.00,0.0045
3968.00,0.0045
3967.00,0.0045
3966.00,0.0045
3965.00,0.0045
3964.00,0.0046
3963.00,0.0046
3962.00,0.0046
3961.00,0.0046
3960.00,0.0046
3959.00,0.0046
3958.00,0.0046
3957.00,0.0046
3956.00,0.0045
3955.00,0.0045
3954.00,0.0045
3953.00,0.0045
3952.00,0.0045
3951.00,0.0045
3950.00,0.0046
3949.00,0.0046
3948.00,0.0046
3947.00,0.0046
3946.00,0.0045
3945.00,0.0045
3944.00,0.0045
3943.00,0.0046
3942.00,0.0046
3941.00,0.0046
3940.00,0.0046
3939.00,0.0046
3938.00,0.0046
3937.00,0.0046
3936.00,0.0046
3935.00,0.0046
3934.00,0.0046
3933.00,0.0046
3932.00,0.0046
3931.00,0.0046
3930.00,0.0046
3929.00,0.0046
3928.00,0.0046
3927.00,0.0046
3926.00,0.0046
3925.00,0.0046
3924.00,0.0046
3923.00,0.0046
3922.00,0.0047
3921.00,0.0047
3920.00,0.0047
3919.00,0.0047
3918.00,0.0046
3917.00,0.0046
3916.00,0.0046
3915.00,0.0046
3914.00,0.0046
3913.00,0.0046
3912.00,0.0046
3911.00,0.0046
3910.00,0.0046
3909.00,0.0046
3908.00,0.0046
3907.00,0.0046
3906.00,0.0046
3905.00,0.0046
3904.00,0.0045
3903.00,0.0045
3902.00,0.0045
3901.00,0.0044
3900.00,0.0044
3899.00,0.0044
3898.00,0.0044
3897.00,0.0044
3896.00,0.0045
3895.00,0.0045
3894.00,0.0045
3893.00,0.0044
3892.00,0.0044
3891.00,0.0044
3890.00,0.0044
3889.00,0.0044
3888.00,0.0044
3887.00,0.0044
3886.00,0.0044
3885.00,0.0044
3884.00,0.0044
3883.00,0.0044
3882.00,0.0043
3881.00,0.0043
3880.00,0.0044
3879.00,0.0044
3878.00,0.0044
3877.00,0.0044
3876.00,0.0043
3875.00,0.0043
3874.00,0.0043
3873.00,0.0043
3872.00,0.0043
3871.00,0.0043
3870.00,0.0043
3869.00,0.0043
3868.00,0.0044
3867.00,0.0043
3866.00,0.0043
3865.00,0.0043
3864.00,0.0043
3863.00,0.0043
3862.00,0.0043
3861.00,0.0043
3860.00,0.0043
3859.00,0.0043
3858.00,0.0043
3857.00,0.0043
3856.00,0.0043
3855.00,0.0043
3854.00,0.0043
3853.00,0.0042
3852.00,0.0042
3851.00,0.0042
3850.00,0.0042
3849.00,0.0042
3848.00,0.0042
3847.00,0.0043
3846.00,0.0043
3845.00,0.0043
3844.00,0.0043
3843.00,0.0044
3842.00,0.0044
3841.00,0.0043
3840.00,0.0043
3839.00,0.0042
3838.00,0.0042
3837.00,0.0042
3836.00,0.0042
3835.00,0.0042
3834.00,0.0042
3833.00,0.0042
3832.00,0.0042
3831.00,0.0042
3830.00,0.0042
3829.00,0.0042
3828.00,0.0042
3827.00,0.0042
3826.00,0.0042
3825.00,0.0042
3824.00,0.0042
3823.00,0.0041
3822.00,0.0041
3821.00,0.0041
3820.00,0.0041
3819.00,0.0041
3818.00,0.0041
3817.00,0.0041
3816.00,0.0041
3815.00,0.0042
3814.00,0.0042
3813.00,0.0042
3812.00,0.0042
3811.00,0.0042
3810.00,0.0042
3809.00,0.0042
3808.00,0.0042
3807.00,0.0042
3806.00,0.0042
3805.00,0.0042
3804.00,0.0041
3803.00,0.0041
3802.00,0.0041
3801.00,0.0041
3800.00,0.0042
3799.00,0.0042
3798.00,0.0042
3797.00,0.0042
3796.00,0.0042
3795.00,0.0043
3794.00,0.0043
3793.00,0.0043
3792.00,0.0043
3791.00,0.0042
3790.00,0.0043
3789.00,0.0043
3788.00,0.0043
3787.00,0.0043
3786.00,0.0043
3785.00,0.0042
3784.00,0.0042
3783.00,0.0042
3782.00,0.0042
3781.00,0.0042
3780.00,0.0042
3779.00,0.0042
3778.00,0.0042
3777.00,0.0042
3776.00,0.0042
3775.00,0.0043
3774.00,0.0043
3773.00,0.0043
3772.00,0.0043
3771.00,0.0042
3770.00,0.0042
3769.00,0.0042
3768.00,0.0042
3767.00,0.0042
3766.00,0.0041
3765.00,0.0041
3764.00,0.0042
3763.00,0.0042
3762.00,0.0042
3761.00,0.0042
3760.00,0.0042
3759.00,0.0042
3758.00,0.0042
3757.00,0.0042
3756.00,0.0042
3755.00,0.0042
3754.00,0.0042
3753.00,0.0042
3752.00,0.0042
3751.00,0.0041
3750.00,0.0041
3749.00,0.0041
3748.00,0.0041
3747.00,0.0041
3746.00,0.0040
3745.00,0.0040
3744.00,0.0040
3743.00,0.0040
3742.00,0.0040
3741.00,0.0040
3740.00,0.0040
3739.00,0.0040
3738.00,0.0041
3737.00,0.0041
3736.00,0.0041
3735.00,0.0040
3734.00,0.0040
3733.00,0.0039
3732.00,0.0039
3731.00,0.0039
3730.00,0.0039
3729.00,0.0039
3728.00,0.0039
3727.00,0.0039
3726.00,0.0040
3725.00,0.0040
3724.00,0.0039
3723.00,0.0039
3722.00,0.0039
3721.00,0.0039
3720.00,0.0039
3719.00,0.0039
3718.00,0.0039
3717.00,0.0040
3716.00,0.0040
3715.00,0.0040
3714.00,0.0040
3713.00,0.0040
3712.00,0.0040
3711.00,0.0040
3710.00,0.0040
3709.00,0.0039
3708.00,0.0039
3707.00,0.0039
3706.00,0.0039
3705.00,0.0039
3704.00,0.0039
3703.00,0.0039
3702.00,0.0039
3701.00,0.0039
3700.00,0.0039
3699.00,0.0039
3698.00,0.0040
3697.00,0.0040
3696.00,0.0040
3695.00,0.0040
3694.00,0.0040
3693.00,0.0040
3692.00,0.0040
3691.00,0.0039
3690.00,0.0038
3689.00,0.0038
3688.00,0.0038
3687.00,0.0038
3686.00,0.0039
3685.00,0.0039
3684.00,0.0039
3683.00,0.0040
3682.00,0.0040
3681.00,0.0040
3680.00,0.0040
3679.00,0.0041
3678.00,0.0041
3677.00,0.0040
3676.00,0.0040
3675.00,0.0040
3674.00,0.0039
3673.00,0.0039
3672.00,0.0039
3671.00,0.0039
3670.00,0.0040
3669.00,0.0040
3668.00,0.0040
3667.00,0.0040
3666.00,0.0040
3665.00,0.0040
3664.00,0.0040
3663.00,0.0040
3662.00,0.0041
3661.00,0.0041
3660.00,0.0041
3659.00,0.0041
3658.00,0.0041
3657.00,0.0041
3656.00,0.0041
3655.00,0.0041
3654.00,0.0041
3653.00,0.0041
3652.00,0.0041
3651.00,0.0041
3650.00,0.0041
3649.00,0.0041
3648.00,0.0041
3647.00,0.0041
3646.00,0.0041
3645.00,0.0041
3644.00,0.0041
3643.00,0.0042
3642.00,0.0042
3641.00,0.0042
3640.00,0.0042
3639.00,0.0042
3638.00,0.0042
3637.00,0.0042
3636.00,0.0043
3635.00,0.0043
3634.00,0.0043
3633.00,0.0043
3632.00,0.0043
3631.00,0.0043
3630.00,0.0042
3629.00,0.0043
3628.00,0.0043
3627.00,0.0044
3626.00,0.0044
3625.00,0.0044
3624.00,0.0044
3623.00,0.0045
3622.00,0.0045
3621.00,0.0045
3620.00,0.0045
3619.00,0.0045
3618.00,0.0046
3617.00,0.0046
3616.00,0.0047
3615.00,0.0047
3614.00,0.0048
3613.00,0.0048
3612.00,0.0049
3611.00,0.0049
3610.00,0.0049
3609.00,0.0049
3608.00,0.0049
3607.00,0.0049
3606.00,0.0050
3605.00,0.0050
3604.00,0.0050
3603.00,0.0051
3602.00,0.0051
3601.00,0.0051
3600.00,0.0051
3599.00,0.0052
3598.00,0.0052
3597.00,0.0052
3596.00,0.0053
3595.00,0.0053
3594.00,0.0053
3593.00,0.0053
3592.00,0.0054
3591.00,0.0054
3590.00,0.0054
3589.00,0.0055
3588.00,0.0055
3587.00,0.0056
3586.00,0.0057
3585.00,0.0057
3584.00,0.0058
3583.00,0.0059
3582.00,0.0059
3581.00,0.0060
3580.00,0.0061
3579.00,0.0061
3578.00,0.0062
3577.00,0.0062
3576.00,0.0062
3575.00,0.0063
3574.00,0.0064
3573.00,0.0064
3572.00,0.0065
3571.00,0.0065
3570.00,0.0066
3569.00,0.0067
3568.00,0.0068
3567.00,0.0069
3566.00,0.0070
3565.00,0.0071
3564.00,0.0072
3563.00,0.0073
3562.00,0.0074
3561.00,0.0076
3560.00,0.0077
3559.00,0.0078
3558.00,0.0079
3557.00,0.0080
3556.00,0.0082
3555.00,0.0083
3554.00,0.0085
3553.00,0.0087
3552.00,0.0089
3551.00,0.0091
3550.00,0.0093
3549.00,0.0095
3548.00,0.0097
3547.00,0.0100
3546.00,0.0103
3545.00,0.0106
3544.00,0.0110
3543.00,0.0114
3542.00,0.0118
3541.00,0.0123
3540.00,0.0128
3539.00,0.0134
3538.00,0.0140
3537.00,0.0148
3536.00,0.0156
3535.00,0.0166
3534.00,0.0176
3533.00,0.0189
3532.00,0.0203
3531.00,0.0220
3530.00,0.0241
3529.00,0.0264
3528.00,0.0290
3527.00,0.0318
3526.00,0.0347
3525.00,0.0375
3524.00,0.0401
3523.00,0.0423
3522.00,0.0440
3521.00,0.0452
3520.00,0.0457
3519.00,0.0457
3518.00,0.0451
3517.00,0.0441
3516.00,0.0426
3515.00,0.0410
3514.00,0.0391
3513.00,0.0372
3512.00,0.0353
3511.00,0.0335
3510.00,0.0317
3509.00,0.0302
3508.00,0.0288
3507.00,0.0276
3506.00,0.0266
3505.00,0.0258
3504.00,0.0251
3503.00,0.0245
3502.00,0.0241
3501.00,0.0238
3500.00,0.0235
3499.00,0.0233
3498.00,0.0232
3497.00,0.0231
3496.00,0.0231
3495.00,0.0231
3494.00,0.0232
3493.00,0.0233
3492.00,0.0234
3491.00,0.0235
3490.00,0.0237
3489.00,0.0239
3488.00,0.0241
3487.00,0.0243
3486.00,0.0245
3485.00,0.0248
3484.00,0.0251
3483.00,0.0254
3482.00,0.0258
3481.00,0.0261
3480.00,0.0265
3479.00,0.0269
3478.00,0.0272
3477.00,0.0276
3476.00,0.0281
3475.00,0.0285
3474.00,0.0290
3473.00,0.0295
3472.00,0.0300
3471.00,0.0306
3470.00,0.0311
3469.00,0.0317
3468.00,0.0323
3467.00,0.0329
3466.00,0.0334
3465.00,0.0340
3464.00,0.0346
3463.00,0.0352
3462.00,0.0358
3461.00,0.0365
3460.00,0.0371
3459.00,0.0377
3458.00,0.0384
3457.00,0.0390
3456.00,0.0396
3455.00,0.0402
3454.00,0.0408
3453.00,0.0414
3452.00,0.0420
3451.00,0.0426
3450.00,0.0432
3449.00,0.0438
3448.00,0.0444
3447.00,0.0450
3446.00,0.0456
3445.00,0.0461
3444.00,0.0467
3443.00,0.0472
3442.00,0.0478
3441.00,0.0484
3440.00,0.0490
3439.00,0.0495
3438.00,0.0501
3437.00,0.0506
3436.00,0.0512
3435.00,0.0517
3434.00,0.0522
3433.00,0.0527
3432.00,0.0532
3431.00,0.0537
3430.00,0.0542
3429.00,0.0547
3428.00,0.0552
3427.00,0.0557
3426.00,0.0563
3425.00,0.0568
3424.00,0.0575
3423.00,0.0581
3422.00,0.0589
3421.00,0.0597
3420.00,0.0606
3419.00,0.0614
3418.00,0.0624
3417.00,0.0633
3416.00,0.0643
3415.00,0.0652
3414.00,0.0661
3413.00,0.0669
3412.00,0.0677
3411.00,0.0683
3410.00,0.0688
3409.00,0.0691
3408.00,0.0692
3407.00,0.0691
3406.00,0.0687
3405.00,0.0681
3404.00,0.0673
3403.00,0.0663
3402.00,0.0651
3401.00,0.0636
3400.00,0.0619
3399.00,0.0601
3398.00,0.0583
3397.00,0.0564
3396.00,0.0545
3395.00,0.0527
3394.00,0.0509
3393.00,0.0492
3392.00,0.0475
3391.00,0.0459
3390.00,0.0443
3389.00,0.0429
3388.00,0.0416
3387.00,0.0403
3386.00,0.0392
3385.00,0.0381
3384.00,0.0371
3383.00,0.0362
3382.00,0.0353
3381.00,0.0344
3380.00,0.0336
3379.00,0.0328
3378.00,0.0321
3377.00,0.0314
3376.00,0.0308
3375.00,0.0302
3374.00,0.0296
3373.00,0.0290
3372.00,0.0285
3371.00,0.0279
3370.00,0.0274
3369.00,0.0269
3368.00,0.0264
3367.00,0.0259
3366.00,0.0254
3365.00,0.0250
3364.00,0.0246
3363.00,0.0242
3362.00,0.0238
3361.00,0.0234
3360.00,0.0231
3359.00,0.0227
3358.00,0.0223
3357.00,0.0220
3356.00,0.0216
3355.00,0.0213
3354.00,0.0210
3353.00,0.0207
3352.00,0.0204
3351.00,0.0201
3350.00,0.0198
3349.00,0.0196
3348.00,0.0194
3347.00,0.0191
3346.00,0.0189
3345.00,0.0186
3344.00,0.0184
3343.00,0.0181
3342.00,0.0179
3341.00,0.0177
3340.00,0.0175
3339.00,0.0173
3338.00,0.0171
3337.00,0.0170
3336.00,0.0168
3335.00,0.0166
3334.00,0.0165
3333.00,0.0163
3332.00,0.0161
3331.00,0.0160
3330.00,0.0159
3329.00,0.0157
3328.00,0.0156
3327.00,0.0154
3326.00,0.0153
3325.00,0.0151
3324.00,0.0150
3323.00,0.0149
3322.00,0.0148
3321.00,0.0147
3320.00,0.0146
3319.00,0.0145
3318.00,0.0144
3317.00,0.0143
3316.00,0.0142
3315.00,0.0140
3314.00,0.0139
3313.00,0.0138
3312.00,0.0137
3311.00,0.0136
3310.00,0.0134
3309.00,0.0133
3308.00,0.0132
3307.00,0.0131
3306.00,0.0130
3305.00,0.0129
3304.00,0.0128
3303.00,0.0128
3302.00,0.0127
3301.00,0.0126
3300.00,0.0125
3299.00,0.0124
3298.00,0.0123
3297.00,0.0123
3296.00,0.0122
3295.00,0.0121
3294.00,0.0120
3293.00,0.0119
3292.00,0.0119
3291.00,0.0118
3290.00,0.0118
3289.00,0.0118
3288.00,0.0117
3287.00,0.0117
3286.00,0.0116
3285.00,0.0115
3284.00,0.0114
3283.00,0.0113
3282.00,0.0113
3281.00,0.0112
3280.00,0.0112
3279.00,0.0111
3278.00,0.0110
3277.00,0.0109
3276.00,0.0108
3275.00,0.0107
3274.00,0.0106
3273.00,0.0105
3272.00,0.0105
3271.00,0.0104
3270.00,0.0104
3269.00,0.0105
3268.00,0.0105
3267.00,0.0105
3266.00,0.0105
3265.00,0.0105
3264.00,0.0104
3263.00,0.0104
3262.00,0.0104
3261.00,0.0103
3260.00,0.0103
3259.00,0.0102
3258.00,0.0101
3257.00,0.0101
3256.00,0.0101
3255.00,0.0100
3254.00,0.0100
3253.00,0.0100
3252.00,0.0100
3251.00,0.0099
3250.00,0.0099
3249.00,0.0098
3248.00,0.0097
3247.00,0.0097
3246.00,0.0097
3245.00,0.0097
3244.00,0.0097
3243.00,0.0097
3242.00,0.0096
3241.00,0.0096
3240.00,0.0095
3239.00,0.0095
3238.00,0.0094
3237.00,0.0094
3236.00,0.0093
3235.00,0.0092
3234.00,0.0091
3233.00,0.0090
3232.00,0.0090
3231.00,0.0090
3230.00,0.0090
3229.00,0.0090
3228.00,0.0090
3227.00,0.0090
3226.00,0.0090
3225.00,0.0089
3224.00,0.0089
3223.00,0.0089
3222.00,0.0088
3221.00,0.0088
3220.00,0.0088
3219.00,0.0087
3218.00,0.0087
3217.00,0.0087
3216.00,0.0087
3215.00,0.0087
3214.00,0.0087
3213.00,0.0086
3212.00,0.0086
3211.00,0.0086
3210.00,0.0085
3209.00,0.0085
3208.00,0.0085
3207.00,0.0085
3206.00,0.0085
3205.00,0.0084
3204.00,0.0084
3203.00,0.0084
3202.00,0.0084
3201.00,0.0084
3200.00,0.0084
3199.00,0.0084
3198.00,0.0083
3197.00,0.0083
3196.00,0.0082
3195.00,0.0082
3194.00,0.0081
3193.00,0.0081
3192.00,0.0081
3191.00,0.0081
3190.00,0.0081
3189.00,0.0081
3188.00,0.0081
3187.00,0.0080
3186.00,0.0080
3185.00,0.0080
3184.00,0.0080
3183.00,0.0080
3182.00,0.0080
3181.00,0.0080
3180.00,0.0080
3179.00,0.0081
3178.00,0.0081
3177.00,0.0081
3176.00,0.0081
3175.00,0.0081
3174.00,0.0081
3173.00,0.0081
3172.00,0.0081
3171.00,0.0081
3170.00,0.0081
3169.00,0.0081
3168.00,0.0081
3167.00,0.0081
3166.00,0.0081
3165.00,0.0081
3164.00,0.0081
3163.00,0.0081
3162.00,0.0081
3161.00,0.0081
3160.00,0.0080
3159.00,0.0080
3158.00,0.0080
3157.00,0.0079
3156.00,0.0078
3155.00,0.0077
3154.00,0.0076
3153.00,0.0076
3152.00,0.0076
3151.00,0.0076
3150.00,0.0076
3149.00,0.0076
3148.00,0.0076
3147.00,0.0076
3146.00,0.0076
3145.00,0.0076
3144.00,0.0076
3143.00,0.0075
3142.00,0.0075
3141.00,0.0074
3140.00,0.0074
3139.00,0.0074
3138.00,0.0074
3137.00,0.0074
3136.00,0.0074
3135.00,0.0074
3134.00,0.0074
3133.00,0.0074
3132.00,0.0073
3131.00,0.0073
3130.00,0.0073
3129.00,0.0073
3128.00,0.0073
3127.00,0.0073
3126.00,0.0073
3125.00,0.0072
3124.00,0.0072
3123.00,0.0072
3122.00,0.0072
3121.00,0.0072
3120.00,0.0072
3119.00,0.0072
3118.00,0.0071
3117.00,0.0071
3116.00,0.0071
3115.00,0.0071
3114.00,0.0071
3113.00,0.0071
3112.00,0.0071
3111.00,0.0071
3110.00,0.0071
3109.00,0.0071
3108.00,0.0071
3107.00,0.0071
3106.00,0.0071
3105.00,0.0071
3104.00,0.0071
3103.00,0.0071
3102.00,0.0071
3101.00,0.0071
3100.00,0.0072
3099.00,0.0072
3098.00,0.0072
3097.00,0.0072
3096.00,0.0073
3095.00,0.0074
3094.00,0.0074
3093.00,0.0074
3092.00,0.0074
3091.00,0.0075
3090.00,0.0075
3089.00,0.0076
3088.00,0.0077
3087.00,0.0078
3086.00,0.0079
3085.00,0.0082
3084.00,0.0084
3083.00,0.0088
3082.00,0.0093
3081.00,0.0099
3080.00,0.0107
3079.00,0.0118
3078.00,0.0129
3077.00,0.0140
3076.00,0.0149
3075.00,0.0154
3074.00,0.0154
3073.00,0.0149
3072.00,0.0141
3071.00,0.0131
3070.00,0.0120
3069.00,0.0111
3068.00,0.0103
3067.00,0.0097
3066.00,0.0093
3065.00,0.0089
3064.00,0.0087
3063.00,0.0085
3062.00,0.0083
3061.00,0.0082
3060.00,0.0081
3059.00,0.0080
3058.00,0.0079
3057.00,0.0078
3056.00,0.0078
3055.00,0.0077
3054.00,0.0077
3053.00,0.0077
3052.00,0.0077
3051.00,0.0078
3050.00,0.0078
3049.00,0.0079
3048.00,0.0080
3047.00,0.0081
3046.00,0.0082
3045.00,0.0083
3044.00,0.0085
3043.00,0.0085
3042.00,0.0086
3041.00,0.0087
3040.00,0.0089
3039.00,0.0090
3038.00,0.0092
3037.00,0.0093
3036.00,0.0095
3035.00,0.0096
3034.00,0.0098
3033.00,0.0099
3032.00,0.0099
3031.00,0.0099
3030.00,0.0098
3029.00,0.0097
3028.00,0.0095
3027.00,0.0093
3026.00,0.0091
3025.00,0.0090
3024.00,0.0089
3023.00,0.0088
3022.00,0.0087
3021.00,0.0087
3020.00,0.0087
3019.00,0.0087
3018.00,0.0087
3017.00,0.0087
3016.00,0.0088
3015.00,0.0088
3014.00,0.0089
3013.00,0.0090
3012.00,0.0092
3011.00,0.0093
3010.00,0.0095
3009.00,0.0096
3008.00,0.0098
3007.00,0.0100
3006.00,0.0101
3005.00,0.0102
3004.00,0.0104
3003.00,0.0106
3002.00,0.0107
3001.00,0.0109
3000.00,0.0111
2999.00,0.0113
2998.00,0.0116
2997.00,0.0118
2996.00,0.0121
2995.00,0.0124
2994.00,0.0127
2993.00,0.0131
2992.00,0.0135
2991.00,0.0140
2990.00,0.0144
2989.00,0.0148
2988.00,0.0151
2987.00,0.0154
2986.00,0.0157
2985.00,0.0160
2984.00,0.0164
2983.00,0.0169
2982.00,0.0175
2981.00,0.0182
2980.00,0.0190
2979.00,0.0200
2978.00,0.0212
2977.00,0.0225
2976.00,0.0241
2975.00,0.0259
2974.00,0.0279
2973.00,0.0300
2972.00,0.0323
2971.00,0.0346
2970.00,0.0369
2969.00,0.0391
2968.00,0.0409
2967.00,0.0424
2966.00,0.0435
2965.00,0.0441
2964.00,0.0444
2963.00,0.0444
2962.00,0.0442
2961.00,0.0439
2960.00,0.0433
2959.00,0.0426
2958.00,0.0416
2957.00,0.0406
2956.00,0.0395
2955.00,0.0384
2954.00,0.0374
2953.00,0.0364
2952.00,0.0357
2951.00,0.0353
2950.00,0.0353
2949.00,0.0356
2948.00,0.0364
2947.00,0.0376
2946.00,0.0392
2945.00,0.0411
2944.00,0.0431
2943.00,0.0451
2942.00,0.0469
2941.00,0.0486
2940.00,0.0503
2939.00,0.0519
2938.00,0.0536
2937.00,0.0555
2936.00,0.0575
2935.00,0.0597
2934.00,0.0620
2933.00,0.0644
2932.00,0.0668
2931.00,0.0692
2930.00,0.0717
2929.00,0.0739
2928.00,0.0760
2927.00,0.0778
2926.00,0.0790
2925.00,0.0797
2924.00,0.0798
2923.00,0.0794
2922.00,0.0788
2921.00,0.0780
2920.00,0.0773
2919.00,0.0766
2918.00,0.0759
2917.00,0.0751
2916.00,0.0743
2915.00,0.0732
2914.00,0.0718
2913.00,0.0702
2912.00,0.0683
2911.00,0.0662
2910.00,0.0639
2909.00,0.0616
2908.00,0.0594
2907.00,0.0573
2906.00,0.0553
2905.00,0.0535
2904.00,0.0520
2903.00,0.0506
2902.00,0.0495
2901.00,0.0484
2900.00,0.0473
2899.00,0.0461
2898.00,0.0448
2897.00,0.0435
2896.00,0.0421
2895.00,0.0408
2894.00,0.0395
2893.00,0.0385
2892.00,0.0375
2891.00,0.0368
2890.00,0.0362
2889.00,0.0357
2888.00,0.0353
2887.00,0.0350
2886.00,0.0348
2885.00,0.0347
2884.00,0.0346
2883.00,0.0346
2882.00,0.0346
2881.00,0.0347
2880.00,0.0349
2879.00,0.0352
2878.00,0.0356
2877.00,0.0361
2876.00,0.0367
2875.00,0.0373
2874.00,0.0379
2873.00,0.0384
2872.00,0.0388
2871.00,0.0388
2870.00,0.0386
2869.00,0.0382
2868.00,0.0378
2867.00,0.0375
2866.00,0.0375
2865.00,0.0379
2864.00,0.0389
2863.00,0.0404
2862.00,0.0425
2861.00,0.0453
2860.00,0.0485
2859.00,0.0519
2858.00,0.0551
2857.00,0.0575
2856.00,0.0588
2855.00,0.0586
2854.00,0.0570
2853.00,0.0543
2852.00,0.0509
2851.00,0.0471
2850.00,0.0434
2849.00,0.0398
2848.00,0.0366
2847.00,0.0337
2846.00,0.0311
2845.00,0.0289
2844.00,0.0270
2843.00,0.0255
2842.00,0.0242
2841.00,0.0232
2840.00,0.0225
2839.00,0.0220
2838.00,0.0219
2837.00,0.0220
2836.00,0.0226
2835.00,0.0236
2834.00,0.0250
2833.00,0.0267
2832.00,0.0285
2831.00,0.0302
2830.00,0.0312
2829.00,0.0314
2828.00,0.0305
2827.00,0.0288
2826.00,0.0265
2825.00,0.0241
2824.00,0.0219
2823.00,0.0199
2822.00,0.0183
2821.00,0.0171
2820.00,0.0160
2819.00,0.0152
2818.00,0.0146
2817.00,0.0140
2816.00,0.0136
2815.00,0.0132
2814.00,0.0128
2813.00,0.0125
2812.00,0.0122
2811.00,0.0120
2810.00,0.0118
2809.00,0.0116
2808.00,0.0114
2807.00,0.0112
2806.00,0.0110
2805.00,0.0109
2804.00,0.0107
2803.00,0.0106
2802.00,0.0104
2801.00,0.0103
2800.00,0.0101
2799.00,0.0100
2798.00,0.0098
2797.00,0.0097
2796.00,0.0096
2795.00,0.0096
2794.00,0.0095
2793.00,0.0094
2792.00,0.0093
2791.00,0.0092
2790.00,0.0091
2789.00,0.0091
2788.00,0.0090
2787.00,0.0089
2786.00,0.0088
2785.00,0.0087
2784.00,0.0087
2783.00,0.0086
2782.00,0.0086
2781.00,0.0085
2780.00,0.0084
2779.00,0.0083
2778.00,0.0083
2777.00,0.0082
2776.00,0.0082
2775.00,0.0082
2774.00,0.0081
2773.00,0.0080
2772.00,0.0080
2771.00,0.0080
2770.00,0.0079
2769.00,0.0079
2768.00,0.0078
2767.00,0.0078
2766.00,0.0078
2765.00,0.0077
2764.00,0.0077
2763.00,0.0077
2762.00,0.0076
2761.00,0.0076
2760.00,0.0075
2759.00,0.0075
2758.00,0.0075
2757.00,0.0075
2756.00,0.0075
2755.00,0.0075
2754.00,0.0075
2753.00,0.0075
2752.00,0.0075
2751.00,0.0074
2750.00,0.0074
2749.00,0.0074
2748.00,0.0075
2747.00,0.0075
2746.00,0.0075
2745.00,0.0076
2744.00,0.0076
2743.00,0.0077
2742.00,0.0077
2741.00,0.0078
2740.00,0.0078
2739.00,0.0079
2738.00,0.0080
2737.00,0.0080
2736.00,0.0081
2735.00,0.0082
2734.00,0.0084
2733.00,0.0086
2732.00,0.0087
2731.00,0.0089
2730.00,0.0090
2729.00,0.0091
2728.00,0.0091
2727.00,0.0090
2726.00,0.0089
2725.00,0.0087
2724.00,0.0086
2723.00,0.0084
2722.00,0.0082
2721.00,0.0081
2720.00,0.0080
2719.00,0.0079
2718.00,0.0078
2717.00,0.0077
2716.00,0.0076
2715.00,0.0075
2714.00,0.0074
2713.00,0.0074
2712.00,0.0073
2711.00,0.0073
2710.00,0.0072
2709.00,0.0072
2708.00,0.0072
2707.00,0.0071
2706.00,0.0071
2705.00,0.0070
2704.00,0.0070
2703.00,0.0070
2702.00,0.0070
2701.00,0.0070
2700.00,0.0070
2699.00,0.0070
2698.00,0.0070
2697.00,0.0069
2696.00,0.0069
2695.00,0.0069
2694.00,0.0069
2693.00,0.0069
2692.00,0.0069
2691.00,0.0069
2690.00,0.0069
2689.00,0.0069
2688.00,0.0070
2687.00,0.0070
2686.00,0.0070
2685.00,0.0070
2684.00,0.0071
2683.00,0.0071
2682.00,0.0071
2681.00,0.0072
2680.00,0.0072
2679.00,0.0072
2678.00,0.0073
2677.00,0.0073
2676.00,0.0073
2675.00,0.0073
2674.00,0.0074
2673.00,0.0074
2672.00,0.0074
2671.00,0.0075
2670.00,0.0075
2669.00,0.0075
2668.00,0.0075
2667.00,0.0076
2666.00,0.0076
2665.00,0.0076
2664.00,0.0076
2663.00,0.0077
2662.00,0.0077
2661.00,0.0077
2660.00,0.0077
2659.00,0.0077
2658.00,0.0077
2657.00,0.0077
2656.00,0.0077
2655.00,0.0077
2654.00,0.0077
2653.00,0.0076
2652.00,0.0076
2651.00,0.0076
2650.00,0.0075
2649.00,0.0075
2648.00,0.0075
2647.00,0.0075
2646.00,0.0074
2645.00,0.0074
2644.00,0.0074
2643.00,0.0074
2642.00,0.0073
2641.00,0.0073
2640.00,0.0073
2639.00,0.0073
2638.00,0.0073
2637.00,0.0073
2636.00,0.0073
2635.00,0.0072
2634.00,0.0072
2633.00,0.0072
2632.00,0.0073
2631.00,0.0073
2630.00,0.0073
2629.00,0.0073
2628.00,0.0073
2627.00,0.0073
2626.00,0.0072
2625.00,0.0072
2624.00,0.0072
2623.00,0.0072
2622.00,0.0072
2621.00,0.0072
2620.00,0.0072
2619.00,0.0072
2618.00,0.0071
2617.00,0.0071
2616.00,0.0071
2615.00,0.0071
2614.00,0.0071
2613.00,0.0071
2612.00,0.0071
2611.00,0.0071
2610.00,0.0070
2609.00,0.0070
2608.00,0.0070
2607.00,0.0070
2606.00,0.0070
2605.00,0.0070
2604.00,0.0070
2603.00,0.0070
2602.00,0.0070
2601.00,0.0069
2600.00,0.0069
2599.00,0.0069
2598.00,0.0069
2597.00,0.0069
2596.00,0.0069
2595.00,0.0069
2594.00,0.0068
2593.00,0.0068
2592.00,0.0068
2591.00,0.0068
2590.00,0.0068
2589.00,0.0068
2588.00,0.0068
2587.00,0.0068
2586.00,0.0068
2585.00,0.0067
2584.00,0.0067
2583.00,0.0067
2582.00,0.0067
2581.00,0.0068
2580.00,0.0068
2579.00,0.0068
2578.00,0.0068
2577.00,0.0067
2576.00,0.0067
2575.00,0.0067
2574.00,0.0067
2573.00,0.0067
2572.00,0.0067
2571.00,0.0067
2570.00,0.0067
2569.00,0.0067
2568.00,0.0067
2567.00,0.0067
2566.00,0.0067
2565.00,0.0067
2564.00,0.0067
2563.00,0.0066
2562.00,0.0066
2561.00,0.0066
2560.00,0.0066
2559.00,0.0066
2558.00,0.0066
2557.00,0.0066
2556.00,0.0066
2555.00,0.0066
2554.00,0.0066
2553.00,0.0065
2552.00,0.0065
2551.00,0.0065
2550.00,0.0065
2549.00,0.0065
2548.00,0.0065
2547.00,0.0065
2546.00,0.0065
2545.00,0.0065
2544.00,0.0065
2543.00,0.0064
2542.00,0.0064
2541.00,0.0064
2540.00,0.0064
2539.00,0.0064
2538.00,0.0064
2537.00,0.0064
2536.00,0.0064
2535.00,0.0064
2534.00,0.0064
2533.00,0.0063
2532.00,0.0063
2531.00,0.0063
2530.00,0.0063
2529.00,0.0063
2528.00,0.0063
2527.00,0.0063
2526.00,0.0063
2525.00,0.0063
2524.00,0.0063
2523.00,0.0063
2522.00,0.0063
2521.00,0.0063
2520.00,0.0063
2519.00,0.0063
2518.00,0.0062
2517.00,0.0062
2516.00,0.0062
2515.00,0.0062
2514.00,0.0062
2513.00,0.0062
2512.00,0.0062
2511.00,0.0063
2510.00,0.0063
2509.00,0.0063
2508.00,0.0063
2507.00,0.0063
2506.00,0.0063
2505.00,0.0063
2504.00,0.0063
2503.00,0.0063
2502.00,0.0062
2501.00,0.0062
2500.00,0.0062
2499.00,0.0062
2498.00,0.0062
2497.00,0.0062
2496.00,0.0062
2495.00,0.0062
2494.00,0.0062
2493.00,0.0062
2492.00,0.0062
2491.00,0.0063
2490.00,0.0063
2489.00,0.0063
2488.00,0.0063
2487.00,0.0063
2486.00,0.0062
2485.00,0.0063
2484.00,0.0063
2483.00,0.0063
2482.00,0.0063
2481.00,0.0063
2480.00,0.0063
2479.00,0.0063
2478.00,0.0064
2477.00,0.0064
2476.00,0.0064
2475.00,0.0064
2474.00,0.0064
2473.00,0.0064
2472.00,0.0063
2471.00,0.0063
2470.00,0.0063
2469.00,0.0063
2468.00,0.0064
2467.00,0.0064
2466.00,0.0064
2465.00,0.0064
2464.00,0.0064
2463.00,0.0064
2462.00,0.0064
2461.00,0.0065
2460.00,0.0065
2459.00,0.0065
2458.00,0.0065
2457.00,0.0065
2456.00,0.0065
2455.00,0.0065
2454.00,0.0065
2453.00,0.0065
2452.00,0.0065
2451.00,0.0065
2450.00,0.0065
2449.00,0.0065
2448.00,0.0065
2447.00,0.0065
2446.00,0.0064
2445.00,0.0063
2444.00,0.0063
2443.00,0.0062
2442.00,0.0062
2441.00,0.0061
2440.00,0.0061
2439.00,0.0061
2438.00,0.0060
2437.00,0.0060
2436.00,0.0059
2435.00,0.0059
2434.00,0.0058
2433.00,0.0057
2432.00,0.0057
2431.00,0.0057
2430.00,0.0057
2429.00,0.0057
2428.00,0.0056
2427.00,0.0056
2426.00,0.0055
2425.00,0.0055
2424.00,0.0055
2423.00,0.0055
2422.00,0.0055
2421.00,0.0054
2420.00,0.0054
2419.00,0.0054
2418.00,0.0054
2417.00,0.0054
2416.00,0.0054
2415.00,0.0054
2414.00,0.0054
2413.00,0.0054
2412.00,0.0054
2411.00,0.0054
2410.00,0.0054
2409.00,0.0053
2408.00,0.0053
2407.00,0.0052
2406.00,0.0052
2405.00,0.0052
2404.00,0.0052
2403.00,0.0052
2402.00,0.0052
2401.00,0.0052
2400.00,0.0052
2399.00,0.0052
2398.00,0.0052
2397.00,0.0052
2396.00,0.0052
2395.00,0.0052
2394.00,0.0051
2393.00,0.0051
2392.00,0.0051
2391.00,0.0052
2390.00,0.0052
2389.00,0.0052
2388.00,0.0052
2387.00,0.0052
2386.00,0.0051
2385.00,0.0051
2384.00,0.0050
2383.00,0.0050
2382.00,0.0049
2381.00,0.0048
2380.00,0.0048
2379.00,0.0047
2378.00,0.0047
2377.00,0.0048
2376.00,0.0048
2375.00,0.0048
2374.00,0.0048
2373.00,0.0048
2372.00,0.0048
2371.00,0.0048
2370.00,0.0047
2369.00,0.0047
2368.00,0.0046
2367.00,0.0046
2366.00,0.0046
2365.00,0.0047
2364.00,0.0048
2363.00,0.0048
2362.00,0.0048
2361.00,0.0048
2360.00,0.0048
2359.00,0.0048
2358.00,0.0048
2357.00,0.0048
2356.00,0.0048
2355.00,0.0049
2354.00,0.0049
2353.00,0.0049
2352.00,0.0048
2351.00,0.0048
2350.00,0.0048
2349.00,0.0049
2348.00,0.0050
2347.00,0.0051
2346.00,0.0052
2345.00,0.0051
2344.00,0.0050
2343.00,0.0050
2342.00,0.0050
2341.00,0.0051
2340.00,0.0052
2339.00,0.0053
2338.00,0.0052
2337.00,0.0052
2336.00,0.0052
2335.00,0.0052
2334.00,0.0051
2333.00,0.0051
2332.00,0.0051
2331.00,0.0051
2330.00,0.0051
2329.00,0.0053
2328.00,0.0056
2327.00,0.0061
2326.00,0.0065
2325.00,0.0066
2324.00,0.0065
2323.00,0.0062
2322.00,0.0060
2321.00,0.0058
2320.00,0.0057
2319.00,0.0056
2318.00,0.0056
2317.00,0.0056
2316.00,0.0056
2315.00,0.0056
2314.00,0.0055
2313.00,0.0054
2312.00,0.0053
2311.00,0.0052
2310.00,0.0052
2309.00,0.0052
2308.00,0.0052
2307.00,0.0052
2306.00,0.0052
2305.00,0.0053
2304.00,0.0053
2303.00,0.0053
2302.00,0.0053
2301.00,0.0053
2300.00,0.0053
2299.00,0.0054
2298.00,0.0054
2297.00,0.0055
2296.00,0.0056
2295.00,0.0057
2294.00,0.0057
2293.00,0.0058
2292.00,0.0060
2291.00,0.0061
2290.00,0.0061
2289.00,0.0062
2288.00,0.0062
2287.00,0.0062
2286.00,0.0061
2285.00,0.0061
2284.00,0.0060
2283.00,0.0060
2282.00,0.0059
2281.00,0.0059
2280.00,0.0059
2279.00,0.0059
2278.00,0.0058
2277.00,0.0058
2276.00,0.0057
2275.00,0.0056
2274.00,0.0055
2273.00,0.0055
2272.00,0.0055
2271.00,0.0055
2270.00,0.0054
2269.00,0.0054
2268.00,0.0053
2267.00,0.0053
2266.00,0.0052
2265.00,0.0052
2264.00,0.0053
2263.00,0.0054
2262.00,0.0054
2261.00,0.0054
2260.00,0.0055
2259.00,0.0055
2258.00,0.0054
2257.00,0.0053
2256.00,0.0053
2255.00,0.0052
2254.00,0.0052
2253.00,0.0051
2252.00,0.0051
2251.00,0.0052
2250.00,0.0052
2249.00,0.0052
2248.00,0.0053
2247.00,0.0053
2246.00,0.0053
2245.00,0.0053
2244.00,0.0053
2243.00,0.0053
2242.00,0.0054
2241.00,0.0054
2240.00,0.0055
2239.00,0.0055
2238.00,0.0055
2237.00,0.0054
2236.00,0.0054
2235.00,0.0053
2234.00,0.0052
2233.00,0.0052
2232.00,0.0052
2231.00,0.0051
2230.00,0.0051
2229.00,0.0051
2228.00,0.0051
2227.00,0.0051
2226.00,0.0051
2225.00,0.0051
2224.00,0.0052
2223.00,0.0052
2222.00,0.0052
2221.00,0.0052
2220.00,0.0052
2219.00,0.0052
2218.00,0.0052
2217.00,0.0051
2216.00,0.0050
2215.00,0.0050
2214.00,0.0049
2213.00,0.0049
2212.00,0.0049
2211.00,0.0049
2210.00,0.0049
2209.00,0.0049
2208.00,0.0051
2207.00,0.0052
2206.00,0.0052
2205.00,0.0051
2204.00,0.0050
2203.00,0.0050
2202.00,0.0050
2201.00,0.0050
2200.00,0.0050
2199.00,0.0051
2198.00,0.0051
2197.00,0.0052
2196.00,0.0053
2195.00,0.0053
2194.00,0.0052
2193.00,0.0052
2192.00,0.0052
2191.00,0.0053
2190.00,0.0053
2189.00,0.0053
2188.00,0.0054
2187.00,0.0054
2186.00,0.0054
2185.00,0.0052
2184.00,0.0050
2183.00,0.0048
2182.00,0.0047
2181.00,0.0047
2180.00,0.0049
2179.00,0.0049
2178.00,0.0047
2177.00,0.0045
2176.00,0.0045
2175.00,0.0045
2174.00,0.0047
2173.00,0.0049
2172.00,0.0052
2171.00,0.0055
2170.00,0.0058
2169.00,0.0060
2168.00,0.0061
2167.00,0.0060
2166.00,0.0061
2165.00,0.0063
2164.00,0.0065
2163.00,0.0065
2162.00,0.0058
2161.00,0.0044
2160.00,0.0028
2159.00,0.0017
2158.00,0.0013
2157.00,0.0014
2156.00,0.0018
2155.00,0.0022
2154.00,0.0024
2153.00,0.0026
2152.00,0.0027
2151.00,0.0028
2150.00,0.0029
2149.00,0.0029
2148.00,0.0029
2147.00,0.0028
2146.00,0.0028
2145.00,0.0028
2144.00,0.0029
2143.00,0.0030
2142.00,0.0030
2141.00,0.0030
2140.00,0.0030
2139.00,0.0030
2138.00,0.0029
2137.00,0.0027
2136.00,0.0025
2135.00,0.0024
2134.00,0.0024
2133.00,0.0026
2132.00,0.0028
2131.00,0.0030
2130.00,0.0032
2129.00,0.0033
2128.00,0.0034
2127.00,0.0034
2126.00,0.0034
2125.00,0.0035
2124.00,0.0036
2123.00,0.0038
2122.00,0.0039
2121.00,0.0040
2120.00,0.0042
2119.00,0.0043
2118.00,0.0044
2117.00,0.0045
2116.00,0.0046
2115.00,0.0046
2114.00,0.0046
2113.00,0.0045
2112.00,0.0045
2111.00,0.0044
2110.00,0.0043
2109.00,0.0042
2108.00,0.0042
2107.00,0.0042
2106.00,0.0042
2105.00,0.0042
2104.00,0.0042
2103.00,0.0042
2102.00,0.0042
2101.00,0.0043
2100.00,0.0043
2099.00,0.0042
2098.00,0.0040
2097.00,0.0039
2096.00,0.0038
2095.00,0.0038
2094.00,0.0039
2093.00,0.0041
2092.00,0.0042
2091.00,0.0043
2090.00,0.0044
2089.00,0.0044
2088.00,0.0045
2087.00,0.0045
2086.00,0.0045
2085.00,0.0045
2084.00,0.0045
2083.00,0.0046
2082.00,0.0047
2081.00,0.0047
2080.00,0.0047
2079.00,0.0046
2078.00,0.0045
2077.00,0.0044
2076.00,0.0044
2075.00,0.0043
2074.00,0.0042
2073.00,0.0042
2072.00,0.0041
2071.00,0.0040
2070.00,0.0040
2069.00,0.0039
2068.00,0.0039
2067.00,0.0038
2066.00,0.0037
2065.00,0.0036
2064.00,0.0035
2063.00,0.0036
2062.00,0.0036
2061.00,0.0036
2060.00,0.0036
2059.00,0.0037
2058.00,0.0038
2057.00,0.0040
2056.00,0.0041
2055.00,0.0042
2054.00,0.0044
2053.00,0.0047
2052.00,0.0050
2051.00,0.0050
2050.00,0.0047
2049.00,0.0043
2048.00,0.0040
2047.00,0.0038
2046.00,0.0037
2045.00,0.0037
2044.00,0.0037
2043.00,0.0036
2042.00,0.0035
2041.00,0.0035
2040.00,0.0035
2039.00,0.0035
2038.00,0.0034
2037.00,0.0033
2036.00,0.0031
2035.00,0.0029
2034.00,0.0027
2033.00,0.0027
2032.00,0.0028
2031.00,0.0029
2030.00,0.0029
2029.00,0.0030
2028.00,0.0030
2027.00,0.0031
2026.00,0.0030
2025.00,0.0030
2024.00,0.0030
2023.00,0.0030
2022.00,0.0031
2021.00,0.0032
2020.00,0.0033
2019.00,0.0034
2018.00,0.0034
2017.00,0.0033
2016.00,0.0032
2015.00,0.0029
2014.00,0.0026
2013.00,0.0025
2012.00,0.0026
2011.00,0.0027
2010.00,0.0026
2009.00,0.0025
2008.00,0.0023
2007.00,0.0020
2006.00,0.0018
2005.00,0.0019
2004.00,0.0022
2003.00,0.0024
2002.00,0.0027
2001.00,0.0029
2000.00,0.0031
1999.00,0.0032
1998.00,0.0033
1997.00,0.0034
1996.00,0.0034
1995.00,0.0035
1994.00,0.0035
1993.00,0.0035
1992.00,0.0036
1991.00,0.0037
1990.00,0.0038
1989.00,0.0041
1988.00,0.0043
1987.00,0.0044
1986.00,0.0044
1985.00,0.0044
1984.00,0.0046
1983.00,0.0049
1982.00,0.0052
1981.00,0.0054
1980.00,0.0052
1979.00,0.0047
1978.00,0.0040
1977.00,0.0035
1976.00,0.0032
1975.00,0.0029
1974.00,0.0026
1973.00,0.0024
1972.00,0.0023
1971.00,0.0023
1970.00,0.0023
1969.00,0.0024
1968.00,0.0025
1967.00,0.0026
1966.00,0.0026
1965.00,0.0027
1964.00,0.0028
1963.00,0.0027
1962.00,0.0026
1961.00,0.0024
1960.00,0.0024
1959.00,0.0024
1958.00,0.0024
1957.00,0.0026
1956.00,0.0028
1955.00,0.0029
1954.00,0.0030
1953.00,0.0030
1952.00,0.0030
1951.00,0.0030
1950.00,0.0030
1949.00,0.0030
1948.00,0.0030
1947.00,0.0030
1946.00,0.0029
1945.00,0.0029
1944.00,0.0030
1943.00,0.0031
1942.00,0.0031
1941.00,0.0031
1940.00,0.0032
1939.00,0.0033
1938.00,0.0032
1937.00,0.0032
1936.00,0.0032
1935.00,0.0032
1934.00,0.0032
1933.00,0.0032
1932.00,0.0032
1931.00,0.0031
1930.00,0.0030
1929.00,0.0030
1928.00,0.0031
1927.00,0.0032
1926.00,0.0032
1925.00,0.0033
1924.00,0.0034
1923.00,0.0035
1922.00,0.0035
1921.00,0.0036
1920.00,0.0036
1919.00,0.0035
1918.00,0.0035
1917.00,0.0035
1916.00,0.0036
1915.00,0.0036
1914.00,0.0037
1913.00,0.0037
1912.00,0.0037
1911.00,0.0037
1910.00,0.0037
1909.00,0.0038
1908.00,0.0038
1907.00,0.0038
1906.00,0.0038
1905.00,0.0038
1904.00,0.0038
1903.00,0.0038
1902.00,0.0038
1901.00,0.0038
1900.00,0.0038
1899.00,0.0038
1898.00,0.0037
1897.00,0.0037
1896.00,0.0037
1895.00,0.0037
1894.00,0.0038
1893.00,0.0038
1892.00,0.0038
1891.00,0.0039
1890.00,0.0038
1889.00,0.0039
1888.00,0.0040
1887.00,0.0040
1886.00,0.0040
1885.00,0.0040
1884.00,0.0040
1883.00,0.0041
1882.00,0.0041
1881.00,0.0041
1880.00,0.0041
1879.00,0.0041
1878.00,0.0041
1877.00,0.0041
1876.00,0.0041
1875.00,0.0041
1874.00,0.0041
1873.00,0.0041
1872.00,0.0041
1871.00,0.0041
1870.00,0.0040
1869.00,0.0040
1868.00,0.0040
1867.00,0.0041
1866.00,0.0041
1865.00,0.0041
1864.00,0.0041
1863.00,0.0041
1862.00,0.0041
1861.00,0.0041
1860.00,0.0041
1859.00,0.0041
1858.00,0.0041
1857.00,0.0042
1856.00,0.0042
1855.00,0.0042
1854.00,0.0042
1853.00,0.0041
1852.00,0.0041
1851.00,0.0041
1850.00,0.0041
1849.00,0.0042
1848.00,0.0043
1847.00,0.0043
1846.00,0.0043
1845.00,0.0042
1844.00,0.0042
1843.00,0.0041
1842.00,0.0042
1841.00,0.0042
1840.00,0.0043
1839.00,0.0043
1838.00,0.0043
1837.00,0.0043
1836.00,0.0043
1835.00,0.0044
1834.00,0.0044
1833.00,0.0044
1832.00,0.0044
1831.00,0.0044
1830.00,0.0044
1829.00,0.0044
1828.00,0.0044
1827.00,0.0044
1826.00,0.0044
1825.00,0.0045
1824.00,0.0045
1823.00,0.0045
1822.00,0.0046
1821.00,0.0046
1820.00,0.0045
1819.00,0.0044
1818.00,0.0043
1817.00,0.0043
1816.00,0.0043
1815.00,0.0044
1814.00,0.0045
1813.00,0.0046
1812.00,0.0047
1811.00,0.0048
1810.00,0.0049
1809.00,0.0050
1808.00,0.0051
1807.00,0.0052
1806.00,0.0053
1805.00,0.0054
1804.00,0.0054
1803.00,0.0054
1802.00,0.0054
1801.00,0.0054
1800.00,0.0055
1799.00,0.0055
1798.00,0.0055
1797.00,0.0054
1796.00,0.0054
1795.00,0.0053
1794.00,0.0052
1793.00,0.0051
1792.00,0.0050
1791.00,0.0050
1790.00,0.0050
1789.00,0.0050
1788.00,0.0051
1787.00,0.0051
1786.00,0.0051
1785.00,0.0051
1784.00,0.0051
1783.00,0.0051
1782.00,0.0052
1781.00,0.0052
1780.00,0.0053
1779.00,0.0053
1778.00,0.0054
1777.00,0.0054
1776.00,0.0056
1775.00,0.0057
1774.00,0.0058
1773.00,0.0059
1772.00,0.0060
1771.00,0.0059
1770.00,0.0059
1769.00,0.0058
1768.00,0.0057
1767.00,0.0056
1766.00,0.0055
1765.00,0.0055
1764.00,0.0054
1763.00,0.0054
1762.00,0.0052
1761.00,0.0052
1760.00,0.0052
1759.00,0.0052
1758.00,0.0052
1757.00,0.0052
1756.00,0.0053
1755.00,0.0053
1754.00,0.0053
1753.00,0.0053
1752.00,0.0053
1751.00,0.0053
1750.00,0.0052
1749.00,0.0052
1748.00,0.0053
1747.00,0.0053
1746.00,0.0053
1745.00,0.0053
1744.00,0.0054
1743.00,0.0054
1742.00,0.0054
1741.00,0.0054
1740.00,0.0055
1739.00,0.0056
1738.00,0.0056
1737.00,0.0057
1736.00,0.0057
1735.00,0.0058
1734.00,0.0058
1733.00,0.0058
1732.00,0.0059
1731.00,0.0059
1730.00,0.0060
1729.00,0.0061
1728.00,0.0062
1727.00,0.0063
1726.00,0.0063
1725.00,0.0064
1724.00,0.0065
1723.00,0.0066
1722.00,0.0066
1721.00,0.0067
1720.00,0.0067
1719.00,0.0068
1718.00,0.0068
1717.00,0.0069
1716.00,0.0070
1715.00,0.0072
1714.00,0.0073
1713.00,0.0075
1712.00,0.0078
1711.00,0.0080
1710.00,0.0082
1709.00,0.0084
1708.00,0.0086
1707.00,0.0089
1706.00,0.0091
1705.00,0.0095
1704.00,0.0098
1703.00,0.0101
1702.00,0.0104
1701.00,0.0109
1700.00,0.0117
1699.00,0.0124
1698.00,0.0130
1697.00,0.0136
1696.00,0.0146
1695.00,0.0156
1694.00,0.0164
1693.00,0.0171
1692.00,0.0178
1691.00,0.0186
1690.00,0.0195
1689.00,0.0204
1688.00,0.0212
1687.00,0.0218
1686.00,0.0225
1685.00,0.0234
1684.00,0.0246
1683.00,0.0257
1682.00,0.0264
1681.00,0.0271
1680.00,0.0277
1679.00,0.0284
1678.00,0.0289
1677.00,0.0295
1676.00,0.0304
1675.00,0.0314
1674.00,0.0323
1673.00,0.0329
1672.00,0.0336
1671.00,0.0343
1670.00,0.0352
1669.00,0.0363
1668.00,0.0373
1667.00,0.0380
1666.00,0.0386
1665.00,0.0391
1664.00,0.0397
1663.00,0.0404
1662.00,0.0409
1661.00,0.0412
1660.00,0.0413
1659.00,0.0414
1658.00,0.0413
1657.00,0.0412
1656.00,0.0412
1655.00,0.0413
1654.00,0.0419
1653.00,0.0432
1652.00,0.0445
1651.00,0.0453
1650.00,0.0459
1649.00,0.0471
1648.00,0.0498
1647.00,0.0544
1646.00,0.0597
1645.00,0.0636
1644.00,0.0655
1643.00,0.0653
1642.00,0.0636
1641.00,0.0612
1640.00,0.0589
1639.00,0.0574
1638.00,0.0570
1637.00,0.0584
1636.00,0.0622
1635.00,0.0672
1634.00,0.0714
1633.00,0.0743
1632.00,0.0765
1631.00,0.0782
1630.00,0.0795
1629.00,0.0806
1628.00,0.0822
1627.00,0.0843
1626.00,0.0868
1625.00,0.0896
1624.00,0.0922
1623.00,0.0931
1622.00,0.0913
1621.00,0.0870
1620.00,0.0814
1619.00,0.0750
1618.00,0.0677
1617.00,0.0597
1616.00,0.0525
1615.00,0.0470
1614.00,0.0432
1613.00,0.0401
1612.00,0.0373
1611.00,0.0348
1610.00,0.0325
1609.00,0.0306
1608.00,0.0290
1607.00,0.0277
1606.00,0.0266
1605.00,0.0258
1604.00,0.0251
1603.00,0.0247
1602.00,0.0245
1601.00,0.0245
1600.00,0.0248
1599.00,0.0253
1598.00,0.0260
1597.00,0.0271
1596.00,0.0286
1595.00,0.0306
1594.00,0.0333
1593.00,0.0369
1592.00,0.0415
1591.00,0.0472
1590.00,0.0540
1589.00,0.0615
1588.00,0.0693
1587.00,0.0768
1586.00,0.0836
1585.00,0.0896
1584.00,0.0947
1583.00,0.0986
1582.00,0.1006
1581.00,0.1002
1580.00,0.0978
1579.00,0.0936
1578.00,0.0875
1577.00,0.0794
1576.00,0.0703
1575.00,0.0623
1574.00,0.0562
1573.00,0.0515
1572.00,0.0474
1571.00,0.0432
1570.00,0.0388
1569.00,0.0346
1568.00,0.0313
1567.00,0.0288
1566.00,0.0266
1565.00,0.0246
1564.00,0.0228
1563.00,0.0214
1562.00,0.0204
1561.00,0.0195
1560.00,0.0186
1559.00,0.0175
1558.00,0.0167
1557.00,0.0163
1556.00,0.0159
1555.00,0.0155
1554.00,0.0152
1553.00,0.0148
1552.00,0.0144
1551.00,0.0141
1550.00,0.0138
1549.00,0.0135
1548.00,0.0133
1547.00,0.0130
1546.00,0.0128
1545.00,0.0126
1544.00,0.0124
1543.00,0.0123
1542.00,0.0122
1541.00,0.0122
1540.00,0.0122
1539.00,0.0122
1538.00,0.0122
1537.00,0.0122
1536.00,0.0122
1535.00,0.0122
1534.00,0.0122
1533.00,0.0122
1532.00,0.0123
1531.00,0.0123
1530.00,0.0124
1529.00,0.0126
1528.00,0.0127
1527.00,0.0130
1526.00,0.0133
1525.00,0.0137
1524.00,0.0143
1523.00,0.0150
1522.00,0.0163
1521.00,0.0180
1520.00,0.0197
1519.00,0.0213
1518.00,0.0230
1517.00,0.0248
1516.00,0.0264
1515.00,0.0273
1514.00,0.0276
1513.00,0.0273
1512.00,0.0264
1511.00,0.0251
1510.00,0.0238
1509.00,0.0226
1508.00,0.0214
1507.00,0.0204
1506.00,0.0197
1505.00,0.0194
1504.00,0.0194
1503.00,0.0194
1502.00,0.0194
1501.00,0.0194
1500.00,0.0194
1499.00,0.0192
1498.00,0.0191
1497.00,0.0189
1496.00,0.0186
1495.00,0.0183
1494.00,0.0180
1493.00,0.0176
1492.00,0.0172
1491.00,0.0166
1490.00,0.0160
1489.00,0.0155
1488.00,0.0151
1487.00,0.0147
1486.00,0.0143
1485.00,0.0141
1484.00,0.0140
1483.00,0.0138
1482.00,0.0138
1481.00,0.0138
1480.00,0.0139
1479.00,0.0141
1478.00,0.0144
1477.00,0.0148
1476.00,0.0154
1475.00,0.0162
1474.00,0.0173
1473.00,0.0192
1472.00,0.0219
1471.00,0.0251
1470.00,0.0286
1469.00,0.0323
1468.00,0.0360
1467.00,0.0393
1466.00,0.0422
1465.00,0.0446
1464.00,0.0466
1463.00,0.0484
1462.00,0.0499
1461.00,0.0511
1460.00,0.0521
1459.00,0.0528
1458.00,0.0536
1457.00,0.0552
1456.00,0.0572
1455.00,0.0595
1454.00,0.0623
1453.00,0.0662
1452.00,0.0713
1451.00,0.0774
1450.00,0.0844
1449.00,0.0926
1448.00,0.1018
1447.00,0.1106
1446.00,0.1179
1445.00,0.1235
1444.00,0.1274
1443.00,0.1295
1442.00,0.1302
1441.00,0.1301
1440.00,0.1292
1439.00,0.1276
1438.00,0.1254
1437.00,0.1226
1436.00,0.1191
1435.00,0.1151
1434.00,0.1111
1433.00,0.1071
1432.00,0.1027
1431.00,0.0976
1430.00,0.0917
1429.00,0.0851
1428.00,0.0783
1427.00,0.0717
1426.00,0.0657
1425.00,0.0602
1424.00,0.0553
1423.00,0.0514
1422.00,0.0482
1421.00,0.0454
1420.00,0.0425
1419.00,0.0395
1418.00,0.0367
1417.00,0.0344
1416.00,0.0323
1415.00,0.0304
1414.00,0.0287
1413.00,0.0270
1412.00,0.0255
1411.00,0.0242
1410.00,0.0231
1409.00,0.0222
1408.00,0.0214
1407.00,0.0207
1406.00,0.0202
1405.00,0.0197
1404.00,0.0192
1403.00,0.0188
1402.00,0.0185
1401.00,0.0182
1400.00,0.0178
1399.00,0.0176
1398.00,0.0175
1397.00,0.0173
1396.00,0.0171
1395.00,0.0169
1394.00,0.0168
1393.00,0.0168
1392.00,0.0168
1391.00,0.0168
1390.00,0.0170
1389.00,0.0172
1388.00,0.0176
1387.00,0.0183
1386.00,0.0193
1385.00,0.0205
1384.00,0.0220
1383.00,0.0241
1382.00,0.0269
1381.00,0.0305
1380.00,0.0350
1379.00,0.0404
1378.00,0.0462
1377.00,0.0515
1376.00,0.0556
1375.00,0.0574
1374.00,0.0569
1373.00,0.0544
1372.00,0.0512
1371.00,0.0480
1370.00,0.0450
1369.00,0.0422
1368.00,0.0398
1367.00,0.0377
1366.00,0.0359
1365.00,0.0341
1364.00,0.0323
1363.00,0.0306
1362.00,0.0292
1361.00,0.0280
1360.00,0.0272
1359.00,0.0266
1358.00,0.0262
1357.00,0.0258
1356.00,0.0256
1355.00,0.0256
1354.00,0.0256
1353.00,0.0257
1352.00,0.0257
1351.00,0.0259
1350.00,0.0262
1349.00,0.0267
1348.00,0.0272
1347.00,0.0279
1346.00,0.0287
1345.00,0.0295
1344.00,0.0302
1343.00,0.0307
1342.00,0.0309
1341.00,0.0308
1340.00,0.0302
1339.00,0.0294
1338.00,0.0284
1337.00,0.0277
1336.00,0.0272
1335.00,0.0273
1334.00,0.0278
1333.00,0.0286
1332.00,0.0296
1331.00,0.0309
1330.00,0.0323
1329.00,0.0336
1328.00,0.0349
1327.00,0.0362
1326.00,0.0375
1325.00,0.0386
1324.00,0.0395
1323.00,0.0397
1322.00,0.0392
1321.00,0.0383
1320.00,0.0374
1319.00,0.0370
1318.00,0.0376
1317.00,0.0392
1316.00,0.0418
1315.00,0.0454
1314.00,0.0493
1313.00,0.0528
1312.00,0.0553
1311.00,0.0562
1310.00,0.0558
1309.00,0.0545
1308.00,0.0529
1307.00,0.0519
1306.00,0.0518
1305.00,0.0525
1304.00,0.0538
1303.00,0.0552
1302.00,0.0565
1301.00,0.0575
1300.00,0.0580
1299.00,0.0584
1298.00,0.0587
1297.00,0.0589
1296.00,0.0590
1295.00,0.0589
1294.00,0.0589
1293.00,0.0587
1292.00,0.0585
1291.00,0.0583
1290.00,0.0581
1289.00,0.0580
1288.00,0.0583
1287.00,0.0591
1286.00,0.0603
1285.00,0.0618
1284.00,0.0635
1283.00,0.0652
1282.00,0.0667
1281.00,0.0679
1280.00,0.0687
1279.00,0.0692
1278.00,0.0692
1277.00,0.0687
1276.00,0.0677
1275.00,0.0662
1274.00,0.0643
1273.00,0.0618
1272.00,0.0589
1271.00,0.0556
1270.00,0.0521
1269.00,0.0487
1268.00,0.0454
1267.00,0.0425
1266.00,0.0398
1265.00,0.0375
1264.00,0.0354
1263.00,0.0337
1262.00,0.0321
1261.00,0.0308
1260.00,0.0295
1259.00,0.0285
1258.00,0.0277
1257.00,0.0271
1256.00,0.0267
1255.00,0.0266
1254.00,0.0267
1253.00,0.0271
1252.00,0.0279
1251.00,0.0289
1250.00,0.0301
1249.00,0.0312
1248.00,0.0320
1247.00,0.0327
1246.00,0.0334
1245.00,0.0346
1244.00,0.0366
1243.00,0.0397
1242.00,0.0439
1241.00,0.0490
1240.00,0.0547
1239.00,0.0602
1238.00,0.0648
1237.00,0.0679
1236.00,0.0692
1235.00,0.0693
1234.00,0.0685
1233.00,0.0670
1232.00,0.0650
1231.00,0.0629
1230.00,0.0613
1229.00,0.0611
1228.00,0.0626
1227.00,0.0657
1226.00,0.0700
1225.00,0.0750
1224.00,0.0803
1223.00,0.0860
1222.00,0.0922
1221.00,0.0996
1220.00,0.1086
1219.00,0.1190
1218.00,0.1304
1217.00,0.1415
1216.00,0.1505
1215.00,0.1562
1214.00,0.1575
1213.00,0.1546
1212.00,0.1481
1211.00,0.1394
1210.00,0.1296
1209.00,0.1199
1208.00,0.1109
1207.00,0.1031
1206.00,0.0962
1205.00,0.0899
1204.00,0.0837
1203.00,0.0775
1202.00,0.0713
1201.00,0.0653
1200.00,0.0597
1199.00,0.0547
1198.00,0.0504
1197.00,0.0469
1196.00,0.0442
1195.00,0.0422
1194.00,0.0408
1193.00,0.0401
1192.00,0.0399
1191.00,0.0401
1190.00,0.0407
1189.00,0.0415
1188.00,0.0424
1187.00,0.0434
1186.00,0.0446
1185.00,0.0457
1184.00,0.0469
1183.00,0.0479
1182.00,0.0488
1181.00,0.0495
1180.00,0.0502
1179.00,0.0508
1178.00,0.0514
1177.00,0.0521
1176.00,0.0529
1175.00,0.0543
1174.00,0.0563
1173.00,0.0585
1172.00,0.0596
1171.00,0.0584
1170.00,0.0548
1169.00,0.0497
1168.00,0.0444
1167.00,0.0398
1166.00,0.0360
1165.00,0.0331
1164.00,0.0308
1163.00,0.0291
1162.00,0.0279
1161.00,0.0270
1160.00,0.0266
1159.00,0.0265
1158.00,0.0270
1157.00,0.0281
1156.00,0.0303
1155.00,0.0339
1154.00,0.0394
1153.00,0.0465
1152.00,0.0538
1151.00,0.0592
1150.00,0.0605
1149.00,0.0571
1148.00,0.0503
1147.00,0.0426
1146.00,0.0359
1145.00,0.0310
1144.00,0.0275
1143.00,0.0253
1142.00,0.0239
1141.00,0.0230
1140.00,0.0227
1139.00,0.0228
1138.00,0.0232
1137.00,0.0237
1136.00,0.0242
1135.00,0.0244
1134.00,0.0243
1133.00,0.0238
1132.00,0.0229
1131.00,0.0218
1130.00,0.0207
1129.00,0.0197
1128.00,0.0188
1127.00,0.0181
1126.00,0.0176
1125.00,0.0172
1124.00,0.0169
1123.00,0.0167
1122.00,0.0165
1121.00,0.0165
1120.00,0.0164
1119.00,0.0165
1118.00,0.0166
1117.00,0.0168
1116.00,0.0171
1115.00,0.0173
1114.00,0.0176
1113.00,0.0179
1112.00,0.0182
1111.00,0.0185
1110.00,0.0190
1109.00,0.0196
1108.00,0.0203
1107.00,0.0211
1106.00,0.0221
1105.00,0.0232
1104.00,0.0243
1103.00,0.0255
1102.00,0.0270
1101.00,0.0286
1100.00,0.0299
1099.00,0.0307
1098.00,0.0306
1097.00,0.0296
1096.00,0.0279
1095.00,0.0261
1094.00,0.0245
1093.00,0.0232
1092.00,0.0222
1091.00,0.0214
1090.00,0.0208
1089.00,0.0204
1088.00,0.0201
1087.00,0.0202
1086.00,0.0208
1085.00,0.0218
1084.00,0.0233
1083.00,0.0252
1082.00,0.0274
1081.00,0.0294
1080.00,0.0308
1079.00,0.0313
1078.00,0.0308
1077.00,0.0294
1076.00,0.0277
1075.00,0.0260
1074.00,0.0246
1073.00,0.0235
1072.00,0.0225
1071.00,0.0218
1070.00,0.0213
1069.00,0.0209
1068.00,0.0205
1067.00,0.0203
1066.00,0.0203
1065.00,0.0204
1064.00,0.0207
1063.00,0.0213
1062.00,0.0222
1061.00,0.0234
1060.00,0.0250
1059.00,0.0274
1058.00,0.0309
1057.00,0.0359
1056.00,0.0423
1055.00,0.0496
1054.00,0.0568
1053.00,0.0626
1052.00,0.0660
1051.00,0.0670
1050.00,0.0657
1049.00,0.0623
1048.00,0.0572
1047.00,0.0513
1046.00,0.0459
1045.00,0.0417
1044.00,0.0390
1043.00,0.0378
1042.00,0.0378
1041.00,0.0385
1040.00,0.0398
1039.00,0.0417
1038.00,0.0446
1037.00,0.0486
1036.00,0.0539
1035.00,0.0604
1034.00,0.0672
1033.00,0.0729
1032.00,0.0760
1031.00,0.0761
1030.00,0.0736
1029.00,0.0696
1028.00,0.0654
1027.00,0.0623
1026.00,0.0610
1025.00,0.0618
1024.00,0.0651
1023.00,0.0708
1022.00,0.0782
1021.00,0.0862
1020.00,0.0928
1019.00,0.0963
1018.00,0.0957
1017.00,0.0916
1016.00,0.0853
1015.00,0.0783
1014.00,0.0716
1013.00,0.0656
1012.00,0.0606
1011.00,0.0570
1010.00,0.0549
1009.00,0.0540
1008.00,0.0542
1007.00,0.0553
1006.00,0.0574
1005.00,0.0603
1004.00,0.0632
1003.00,0.0656
1002.00,0.0666
1001.00,0.0659
1000.00,0.0633
999.00,0.0590
998.00,0.0537
997.00,0.0482
996.00,0.0433
995.00,0.0395
994.00,0.0368
993.00,0.0350
992.00,0.0342
991.00,0.0341
990.00,0.0348
989.00,0.0359
988.00,0.0370
987.00,0.0381
986.00,0.0389
985.00,0.0392
984.00,0.0387
983.00,0.0374
982.00,0.0356
981.00,0.0336
980.00,0.0318
979.00,0.0306
978.00,0.0298
977.00,0.0292
976.00,0.0286
975.00,0.0281
974.00,0.0276
973.00,0.0274
972.00,0.0275
971.00,0.0281
970.00,0.0291
969.00,0.0303
968.00,0.0317
967.00,0.0333
966.00,0.0350
965.00,0.0371
964.00,0.0396
963.00,0.0420
962.00,0.0440
961.00,0.0447
960.00,0.0436
959.00,0.0410
958.00,0.0376
957.00,0.0339
956.00,0.0306
955.00,0.0278
954.00,0.0257
953.00,0.0241
952.00,0.0228
951.00,0.0218
950.00,0.0211
949.00,0.0206
948.00,0.0201
947.00,0.0198
946.00,0.0195
945.00,0.0193
944.00,0.0191
943.00,0.0189
942.00,0.0188
941.00,0.0187
940.00,0.0186
939.00,0.0186
938.00,0.0187
937.00,0.0188
936.00,0.0190
935.00,0.0192
934.00,0.0196
933.00,0.0199
932.00,0.0203
931.00,0.0208
930.00,0.0212
929.00,0.0215
928.00,0.0215
927.00,0.0214
926.00,0.0214
925.00,0.0213
924.00,0.0211
923.00,0.0210
922.00,0.0210
921.00,0.0211
920.00,0.0215
919.00,0.0222
918.00,0.0231
917.00,0.0241
916.00,0.0249
915.00,0.0254
914.00,0.0255
913.00,0.0253
912.00,0.0250
911.00,0.0250
910.00,0.0254
909.00,0.0263
908.00,0.0277
907.00,0.0298
906.00,0.0325
905.00,0.0357
904.00,0.0393
903.00,0.0436
902.00,0.0489
901.00,0.0556
900.00,0.0641
899.00,0.0738
898.00,0.0834
897.00,0.0904
896.00,0.0928
895.00,0.0901
894.00,0.0838
893.00,0.0760
892.00,0.0685
891.00,0.0626
890.00,0.0593
889.00,0.0590
888.00,0.0625
887.00,0.0701
886.00,0.0813
885.00,0.0938
884.00,0.1039
883.00,0.1080
882.00,0.1043
881.00,0.0944
880.00,0.0818
879.00,0.0697
878.00,0.0599
877.00,0.0527
876.00,0.0479
875.00,0.0451
874.00,0.0439
873.00,0.0442
872.00,0.0456
871.00,0.0475
870.00,0.0489
869.00,0.0492
868.00,0.0484
867.00,0.0475
866.00,0.0477
865.00,0.0497
864.00,0.0531
863.00,0.0570
862.00,0.0602
861.00,0.0618
860.00,0.0619
859.00,0.0613
858.00,0.0611
857.00,0.0618
856.00,0.0634
855.00,0.0654
854.00,0.0676
853.00,0.0695
852.00,0.0710
851.00,0.0718
850.00,0.0716
849.00,0.0702
848.00,0.0677
847.00,0.0649
846.00,0.0625
845.00,0.0608
844.00,0.0596
843.00,0.0586
842.00,0.0575
841.00,0.0561
840.00,0.0547
839.00,0.0539
838.00,0.0537
837.00,0.0541
836.00,0.0551
835.00,0.0566
834.00,0.0586
833.00,0.0609
832.00,0.0633
831.00,0.0657
830.00,0.0678
829.00,0.0694
828.00,0.0702
827.00,0.0699
826.00,0.0683
825.00,0.0652
824.00,0.0611
823.00,0.0566
822.00,0.0520
821.00,0.0475
820.00,0.0432
819.00,0.0395
818.00,0.0364
817.00,0.0341
816.00,0.0324
815.00,0.0312
814.00,0.0303
813.00,0.0296
812.00,0.0290
811.00,0.0290
810.00,0.0299
809.00,0.0321
808.00,0.0363
807.00,0.0425
806.00,0.0494
805.00,0.0550
804.00,0.0570
803.00,0.0552
802.00,0.0508
801.00,0.0454
800.00,0.0405
799.00,0.0365
798.00,0.0335
797.00,0.0313
796.00,0.0298
795.00,0.0288
794.00,0.0284
793.00,0.0281
792.00,0.0279
791.00,0.0277
790.00,0.0274
789.00,0.0272
788.00,0.0271
787.00,0.0272
786.00,0.0275
785.00,0.0275
784.00,0.0270
783.00,0.0261
782.00,0.0253
781.00,0.0248
780.00,0.0245
779.00,0.0244
778.00,0.0245
777.00,0.0245
776.00,0.0243
775.00,0.0241
774.00,0.0240
773.00,0.0241
772.00,0.0243
771.00,0.0245
770.00,0.0246
769.00,0.0244
768.00,0.0238
767.00,0.0230
766.00,0.0223
765.00,0.0216
764.00,0.0211
763.00,0.0207
762.00,0.0206
761.00,0.0206
760.00,0.0207
759.00,0.0209
758.00,0.0214
757.00,0.0221
756.00,0.0231
755.00,0.0246
754.00,0.0266
753.00,0.0287
752.00,0.0304
751.00,0.0317
750.00,0.0327
749.00,0.0334
748.00,0.0332
747.00,0.0322
746.00,0.0305
745.00,0.0285
744.00,0.0268
743.00,0.0254
742.00,0.0246
741.00,0.0242
740.00,0.0239
739.00,0.0238
738.00,0.0240
737.00,0.0245
736.00,0.0252
735.00,0.0263
734.00,0.0279
733.00,0.0299
732.00,0.0316
731.00,0.0327
730.00,0.0327
729.00,0.0315
728.00,0.0298
727.00,0.0283
726.00,0.0273
725.00,0.0266
724.00,0.0260
723.00,0.0256
722.00,0.0252
721.00,0.0249
720.00,0.0246
719.00,0.0242
718.00,0.0237
717.00,0.0230
716.00,0.0222
715.00,0.0216
714.00,0.0213
713.00,0.0212
712.00,0.0212
711.00,0.0212
710.00,0.0211
709.00,0.0209
708.00,0.0204
707.00,0.0199
706.00,0.0196
705.00,0.0194
704.00,0.0192
703.00,0.0191
702.00,0.0192
701.00,0.0192
700.00,0.0192
699.00,0.0193
698.00,0.0194
697.00,0.0195
696.00,0.0195
695.00,0.0195
694.00,0.0197
693.00,0.0199
692.00,0.0199
691.00,0.0200
690.00,0.0202
689.00,0.0203
688.00,0.0204
687.00,0.0206
686.00,0.0209
685.00,0.0213
684.00,0.0215
683.00,0.0218
682.00,0.0221
681.00,0.0225
680.00,0.0228
679.00,0.0233
678.00,0.0238
677.00,0.0245
676.00,0.0251
675.00,0.0259
674.00,0.0270
673.00,0.0282
672.00,0.0294
671.00,0.0308
670.00,0.0324
669.00,0.0340
668.00,0.0354
667.00,0.0364
666.00,0.0370
665.00,0.0374
664.00,0.0379
663.00,0.0384
662.00,0.0388
661.00,0.0391
660.00,0.0393
659.00,0.0396
658.00,0.0398
657.00,0.0399
656.00,0.0397
655.00,0.0396
654.00,0.0398
653.00,0.0403
652.00,0.0411
651.00,0.0422
650.00,0.0434
649.00,0.0441
648.00,0.0441
647.00,0.0434
646.00,0.0421
645.00,0.0406
644.00,0.0388
643.00,0.0372
642.00,0.0359
641.00,0.0349
640.00,0.0342
639.00,0.0337
638.00,0.0335
637.00,0.0334
636.00,0.0334
635.00,0.0334
634.00,0.0338
633.00,0.0341
632.00,0.0345
631.00,0.0349
630.00,0.0355
629.00,0.0361
628.00,0.0367
627.00,0.0373
626.00,0.0380
625.00,0.0386
624.00,0.0388
623.00,0.0387
622.00,0.0383
621.00,0.0374
620.00,0.0361
619.00,0.0347
618.00,0.0336
617.00,0.0331
616.00,0.0331
615.00,0.0341
614.00,0.0361
613.00,0.0388
612.00,0.0414
611.00,0.0431
610.00,0.0437
609.00,0.0432
608.00,0.0423
607.00,0.0417
606.00,0.0419
605.00,0.0426
604.00,0.0432
603.00,0.0440
602.00,0.0450
601.00,0.0462
600.00,0.0475
599.00,0.0486
598.00,0.0494
597.00,0.0495
596.00,0.0493
595.00,0.0494
594.00,0.0501
593.00,0.0514
592.00,0.0531
591.00,0.0554
590.00,0.0581
589.00,0.0608
588.00,0.0631
587.00,0.0646
586.00,0.0652
585.00,0.0648
584.00,0.0635
583.00,0.0616
582.00,0.0597
581.00,0.0576
580.00,0.0555
579.00,0.0539
578.00,0.0529
577.00,0.0523
576.00,0.0520
575.00,0.0520
574.00,0.0525
573.00,0.0531
572.00,0.0536
571.00,0.0542
570.00,0.0550
569.00,0.0556
568.00,0.0559
567.00,0.0562
566.00,0.0565
565.00,0.0568
564.00,0.0568
563.00,0.0567
562.00,0.0567
561.00,0.0566
560.00,0.0564
559.00,0.0563
558.00,0.0563
557.00,0.0563
556.00,0.0563
555.00,0.0564
554.00,0.0570
553.00,0.0578
552.00,0.0587
551.00,0.0599
550.00,0.0613
549.00,0.0623
548.00,0.0631
547.00,0.0641
546.00,0.0656
545.00,0.0670
544.00,0.0679
543.00,0.0684
542.00,0.0690
541.00,0.0700
540.00,0.0718
539.00,0.0746
538.00,0.0782
537.00,0.0818
536.00,0.0841
535.00,0.0848
534.00,0.0842
533.00,0.0828
532.00,0.0810
531.00,0.0793
530.00,0.0782
529.00,0.0777
528.00,0.0782
527.00,0.0805
526.00,0.0845
525.00,0.0894
524.00,0.0943
523.00,0.0987
522.00,0.1015
521.00,0.1011
520.00,0.0967
519.00,0.0897
518.00,0.0824
517.00,0.0763
516.00,0.0717
515.00,0.0687
514.00,0.0671
513.00,0.0664
512.00,0.0662
511.00,0.0667
510.00,0.0681
509.00,0.0698
508.00,0.0719
507.00,0.0744
506.00,0.0776
505.00,0.0809
504.00,0.0841
503.00,0.0877
502.00,0.0918
501.00,0.0959
500.00,0.0993
499.00,0.1024
498.00,0.1053
497.00,0.1075
496.00,0.1088
495.00,0.1096
494.00,0.1103
493.00,0.1104
492.00,0.1097
491.00,0.1088
490.00,0.1082
489.00,0.1078
488.00,0.1072
487.00,0.1067
486.00,0.1064
485.00,0.1060
484.00,0.1052
483.00,0.1042
482.00,0.1030
481.00,0.1012
480.00,0.0985
479.00,0.0958
478.00,0.0937
477.00,0.0921
476.00,0.0907
475.00,0.0902
474.00,0.0908
473.00,0.0922
472.00,0.0937
471.00,0.0953
470.00,0.0973
469.00,0.0989
468.00,0.0997
467.00,0.1001
466.00,0.1007
465.00,0.1009
464.00,0.1006
463.00,0.1002
462.00,0.1002
461.00,0.0999
460.00,0.0990
459.00,0.0982
458.00,0.0980
457.00,0.0979
456.00,0.0973
455.00,0.0967
454.00,0.0963
453.00,0.0956
452.00,0.0942
451.00,0.0929
450.00,0.0922
449.00,0.0916
448.00,0.0902
447.00,0.0885
446.00,0.0870
445.00,0.0854
444.00,0.0837
443.00,0.0823
442.00,0.0818
441.00,0.0813
440.00,0.0805
439.00,0.0801
438.00,0.0802
437.00,0.0803
436.00,0.0797
435.00,0.0790
434.00,0.0789
433.00,0.0793
432.00,0.0798
431.00,0.0812
430.00,0.0839
429.00,0.0872
428.00,0.0905
427.00,0.0941
426.00,0.0981
425.00,0.1010
424.00,0.1016
423.00,0.1009
422.00,0.1000
421.00,0.0991
420.00,0.0975
419.00,0.0962
418.00,0.0962
417.00,0.0960
416.00,0.0949
415.00,0.0942
414.00,0.0949
413.00,0.0962
412.00,0.0973
411.00,0.0989
410.00,0.1016
409.00,0.1041
408.00,0.1052
407.00,0.1063
406.00,0.1084
405.00,0.1106
404.00,0.1114
403.00,0.1119
402.00,0.1135
401.00,0.1151
400.00,0.1158
