Created as New Dataset,Sample 1071 By YargerLab Date Tuesday, August 05 2025
cm-1,A
4000.00,0.0006
3999.00,0.0006
3998.00,0.0006
3997.00,0.0006
3996.00,0.0006
3995.00,0.0006
3994.00,0.0006
3993.00,0.0006
3992.00,0.0006
3991.00,0.0005
3990.00,0.0005
3989.00,0.0005
3988.00,0.0005
3987.00,0.0005
3986.00,0.0005
3985.00,0.0006
3984.00,0.0006
3983.00,0.0006
3982.00,0.0006
3981.00,0.0006
3980.00,0.0006
3979.00,0.0006
3978.00,0.0005
3977.00,0.0005
3976.00,0.0005
3975.00,0.0006
3974.00,0.0006
3973.00,0.0006
3972.00,0.0006
3971.00,0.0006
3970.00,0.0005
3969.00,0.0005
3968.00,0.0005
3967.00,0.0005
3966.00,0.0005
3965.00,0.0004
3964.00,0.0005
3963.00,0.0005
3962.00,0.0005
3961.00,0.0005
3960.00,0.0005
3959.00,0.0005
3958.00,0.0005
3957.00,0.0005
3956.00,0.0005
3955.00,0.0005
3954.00,0.0005
3953.00,0.0005
3952.00,0.0005
3951.00,0.0005
3950.00,0.0005
3949.00,0.0005
3948.00,0.0005
3947.00,0.0005
3946.00,0.0005
3945.00,0.0005
3944.00,0.0005
3943.00,0.0005
3942.00,0.0005
3941.00,0.0005
3940.00,0.0005
3939.00,0.0005
3938.00,0.0005
3937.00,0.0005
3936.00,0.0005
3935.00,0.0005
3934.00,0.0005
3933.00,0.0005
3932.00,0.0005
3931.00,0.0005
3930.00,0.0005
3929.00,0.0005
3928.00,0.0005
3927.00,0.0005
3926.00,0.0005
3925.00,0.0005
3924.00,0.0005
3923.00,0.0005
3922.00,0.0005
3921.00,0.0005
3920.00,0.0005
3919.00,0.0005
3918.00,0.0005
3917.00,0.0005
3916.00,0.0005
3915.00,0.0005
3914.00,0.0005
3913.00,0.0005
3912.00,0.0005
3911.00,0.0005
3910.00,0.0005
3909.00,0.0005
3908.00,0.0005
3907.00,0.0005
3906.00,0.0004
3905.00,0.0004
3904.00,0.0004
3903.00,0.0005
3902.00,0.0005
3901.00,0.0005
3900.00,0.0004
3899.00,0.0004
3898.00,0.0004
3897.00,0.0005
3896.00,0.0005
3895.00,0.0005
3894.00,0.0005
3893.00,0.0005
3892.00,0.0004
3891.00,0.0005
3890.00,0.0005
3889.00,0.0005
3888.00,0.0005
3887.00,0.0004
3886.00,0.0004
3885.00,0.0004
3884.00,0.0004
3883.00,0.0004
3882.00,0.0004
3881.00,0.0004
3880.00,0.0004
3879.00,0.0004
3878.00,0.0004
3877.00,0.0004
3876.00,0.0004
3875.00,0.0005
3874.00,0.0005
3873.00,0.0005
3872.00,0.0004
3871.00,0.0004
3870.00,0.0004
3869.00,0.0004
3868.00,0.0004
3867.00,0.0004
3866.00,0.0004
3865.00,0.0004
3864.00,0.0004
3863.00,0.0004
3862.00,0.0004
3861.00,0.0004
3860.00,0.0004
3859.00,0.0004
3858.00,0.0004
3857.00,0.0003
3856.00,0.0003
3855.00,0.0003
3854.00,0.0003
3853.00,0.0003
3852.00,0.0002
3851.00,0.0003
3850.00,0.0003
3849.00,0.0003
3848.00,0.0004
3847.00,0.0004
3846.00,0.0004
3845.00,0.0005
3844.00,0.0005
3843.00,0.0005
3842.00,0.0004
3841.00,0.0004
3840.00,0.0004
3839.00,0.0003
3838.00,0.0003
3837.00,0.0003
3836.00,0.0003
3835.00,0.0004
3834.00,0.0004
3833.00,0.0004
3832.00,0.0005
3831.00,0.0005
3830.00,0.0005
3829.00,0.0005
3828.00,0.0005
3827.00,0.0005
3826.00,0.0005
3825.00,0.0005
3824.00,0.0005
3823.00,0.0005
3822.00,0.0005
3821.00,0.0005
3820.00,0.0005
3819.00,0.0004
3818.00,0.0004
3817.00,0.0004
3816.00,0.0004
3815.00,0.0005
3814.00,0.0005
3813.00,0.0005
3812.00,0.0005
3811.00,0.0005
3810.00,0.0005
3809.00,0.0005
3808.00,0.0005
3807.00,0.0005
3806.00,0.0005
3805.00,0.0005
3804.00,0.0004
3803.00,0.0004
3802.00,0.0004
3801.00,0.0004
3800.00,0.0004
3799.00,0.0004
3798.00,0.0004
3797.00,0.0004
3796.00,0.0005
3795.00,0.0005
3794.00,0.0005
3793.00,0.0005
3792.00,0.0005
3791.00,0.0006
3790.00,0.0006
3789.00,0.0006
3788.00,0.0006
3787.00,0.0006
3786.00,0.0005
3785.00,0.0005
3784.00,0.0005
3783.00,0.0005
3782.00,0.0005
3781.00,0.0005
3780.00,0.0005
3779.00,0.0005
3778.00,0.0005
3777.00,0.0005
3776.00,0.0005
3775.00,0.0005
3774.00,0.0006
3773.00,0.0006
3772.00,0.0006
3771.00,0.0006
3770.00,0.0006
3769.00,0.0006
3768.00,0.0006
3767.00,0.0006
3766.00,0.0006
3765.00,0.0006
3764.00,0.0006
3763.00,0.0006
3762.00,0.0006
3761.00,0.0006
3760.00,0.0006
3759.00,0.0006
3758.00,0.0006
3757.00,0.0006
3756.00,0.0006
3755.00,0.0006
3754.00,0.0005
3753.00,0.0005
3752.00,0.0005
3751.00,0.0005
3750.00,0.0005
3749.00,0.0005
3748.00,0.0004
3747.00,0.0004
3746.00,0.0004
3745.00,0.0004
3744.00,0.0005
3743.00,0.0005
3742.00,0.0005
3741.00,0.0005
3740.00,0.0005
3739.00,0.0005
3738.00,0.0005
3737.00,0.0005
3736.00,0.0004
3735.00,0.0004
3734.00,0.0004
3733.00,0.0004
3732.00,0.0004
3731.00,0.0004
3730.00,0.0004
3729.00,0.0004
3728.00,0.0004
3727.00,0.0005
3726.00,0.0005
3725.00,0.0005
3724.00,0.0005
3723.00,0.0005
3722.00,0.0005
3721.00,0.0005
3720.00,0.0005
3719.00,0.0005
3718.00,0.0005
3717.00,0.0005
3716.00,0.0005
3715.00,0.0005
3714.00,0.0005
3713.00,0.0005
3712.00,0.0005
3711.00,0.0004
3710.00,0.0004
3709.00,0.0005
3708.00,0.0005
3707.00,0.0005
3706.00,0.0005
3705.00,0.0005
3704.00,0.0005
3703.00,0.0005
3702.00,0.0005
3701.00,0.0005
3700.00,0.0006
3699.00,0.0006
3698.00,0.0006
3697.00,0.0006
3696.00,0.0006
3695.00,0.0006
3694.00,0.0006
3693.00,0.0006
3692.00,0.0006
3691.00,0.0006
3690.00,0.0007
3689.00,0.0007
3688.00,0.0008
3687.00,0.0008
3686.00,0.0009
3685.00,0.0010
3684.00,0.0010
3683.00,0.0011
3682.00,0.0011
3681.00,0.0011
3680.00,0.0011
3679.00,0.0011
3678.00,0.0010
3677.00,0.0010
3676.00,0.0010
3675.00,0.0010
3674.00,0.0010
3673.00,0.0010
3672.00,0.0010
3671.00,0.0011
3670.00,0.0011
3669.00,0.0012
3668.00,0.0012
3667.00,0.0013
3666.00,0.0013
3665.00,0.0013
3664.00,0.0014
3663.00,0.0014
3662.00,0.0015
3661.00,0.0015
3660.00,0.0015
3659.00,0.0015
3658.00,0.0015
3657.00,0.0016
3656.00,0.0016
3655.00,0.0017
3654.00,0.0017
3653.00,0.0018
3652.00,0.0018
3651.00,0.0019
3650.00,0.0019
3649.00,0.0019
3648.00,0.0020
3647.00,0.0020
3646.00,0.0020
3645.00,0.0021
3644.00,0.0021
3643.00,0.0021
3642.00,0.0022
3641.00,0.0023
3640.00,0.0023
3639.00,0.0024
3638.00,0.0024
3637.00,0.0025
3636.00,0.0025
3635.00,0.0026
3634.00,0.0026
3633.00,0.0026
3632.00,0.0026
3631.00,0.0026
3630.00,0.0026
3629.00,0.0027
3628.00,0.0028
3627.00,0.0029
3626.00,0.0030
3625.00,0.0030
3624.00,0.0031
3623.00,0.0032
3622.00,0.0032
3621.00,0.0033
3620.00,0.0033
3619.00,0.0034
3618.00,0.0034
3617.00,0.0035
3616.00,0.0035
3615.00,0.0036
3614.00,0.0037
3613.00,0.0038
3612.00,0.0038
3611.00,0.0039
3610.00,0.0040
3609.00,0.0041
3608.00,0.0041
3607.00,0.0042
3606.00,0.0043
3605.00,0.0044
3604.00,0.0044
3603.00,0.0045
3602.00,0.0046
3601.00,0.0047
3600.00,0.0048
3599.00,0.0049
3598.00,0.0050
3597.00,0.0050
3596.00,0.0051
3595.00,0.0052
3594.00,0.0053
3593.00,0.0054
3592.00,0.0055
3591.00,0.0055
3590.00,0.0056
3589.00,0.0057
3588.00,0.0058
3587.00,0.0059
3586.00,0.0060
3585.00,0.0061
3584.00,0.0061
3583.00,0.0062
3582.00,0.0063
3581.00,0.0065
3580.00,0.0066
3579.00,0.0067
3578.00,0.0068
3577.00,0.0068
3576.00,0.0069
3575.00,0.0070
3574.00,0.0071
3573.00,0.0072
3572.00,0.0073
3571.00,0.0074
3570.00,0.0074
3569.00,0.0075
3568.00,0.0076
3567.00,0.0077
3566.00,0.0078
3565.00,0.0080
3564.00,0.0081
3563.00,0.0082
3562.00,0.0083
3561.00,0.0084
3560.00,0.0085
3559.00,0.0085
3558.00,0.0086
3557.00,0.0087
3556.00,0.0088
3555.00,0.0088
3554.00,0.0089
3553.00,0.0090
3552.00,0.0091
3551.00,0.0092
3550.00,0.0093
3549.00,0.0094
3548.00,0.0094
3547.00,0.0095
3546.00,0.0096
3545.00,0.0097
3544.00,0.0098
3543.00,0.0099
3542.00,0.0099
3541.00,0.0099
3540.00,0.0100
3539.00,0.0101
3538.00,0.0101
3537.00,0.0102
3536.00,0.0102
3535.00,0.0103
3534.00,0.0104
3533.00,0.0104
3532.00,0.0105
3531.00,0.0105
3530.00,0.0105
3529.00,0.0106
3528.00,0.0107
3527.00,0.0108
3526.00,0.0108
3525.00,0.0109
3524.00,0.0109
3523.00,0.0110
3522.00,0.0110
3521.00,0.0111
3520.00,0.0111
3519.00,0.0112
3518.00,0.0112
3517.00,0.0113
3516.00,0.0114
3515.00,0.0114
3514.00,0.0115
3513.00,0.0115
3512.00,0.0116
3511.00,0.0116
3510.00,0.0116
3509.00,0.0117
3508.00,0.0117
3507.00,0.0118
3506.00,0.0118
3505.00,0.0119
3504.00,0.0120
3503.00,0.0120
3502.00,0.0121
3501.00,0.0122
3500.00,0.0122
3499.00,0.0123
3498.00,0.0123
3497.00,0.0123
3496.00,0.0124
3495.00,0.0124
3494.00,0.0125
3493.00,0.0125
3492.00,0.0126
3491.00,0.0126
3490.00,0.0126
3489.00,0.0127
3488.00,0.0127
3487.00,0.0128
3486.00,0.0128
3485.00,0.0128
3484.00,0.0129
3483.00,0.0129
3482.00,0.0130
3481.00,0.0130
3480.00,0.0131
3479.00,0.0131
3478.00,0.0132
3477.00,0.0132
3476.00,0.0132
3475.00,0.0133
3474.00,0.0133
3473.00,0.0133
3472.00,0.0134
3471.00,0.0134
3470.00,0.0135
3469.00,0.0135
3468.00,0.0136
3467.00,0.0136
3466.00,0.0136
3465.00,0.0136
3464.00,0.0137
3463.00,0.0137
3462.00,0.0137
3461.00,0.0138
3460.00,0.0138
3459.00,0.0138
3458.00,0.0138
3457.00,0.0138
3456.00,0.0138
3455.00,0.0138
3454.00,0.0138
3453.00,0.0139
3452.00,0.0139
3451.00,0.0139
3450.00,0.0140
3449.00,0.0140
3448.00,0.0140
3447.00,0.0140
3446.00,0.0140
3445.00,0.0140
3444.00,0.0141
3443.00,0.0141
3442.00,0.0141
3441.00,0.0141
3440.00,0.0141
3439.00,0.0141
3438.00,0.0141
3437.00,0.0140
3436.00,0.0140
3435.00,0.0140
3434.00,0.0140
3433.00,0.0140
3432.00,0.0140
3431.00,0.0141
3430.00,0.0141
3429.00,0.0141
3428.00,0.0140
3427.00,0.0140
3426.00,0.0140
3425.00,0.0140
3424.00,0.0140
3423.00,0.0140
3422.00,0.0140
3421.00,0.0141
3420.00,0.0141
3419.00,0.0141
3418.00,0.0140
3417.00,0.0140
3416.00,0.0140
3415.00,0.0140
3414.00,0.0140
3413.00,0.0140
3412.00,0.0140
3411.00,0.0140
3410.00,0.0139
3409.00,0.0139
3408.00,0.0139
3407.00,0.0139
3406.00,0.0139
3405.00,0.0139
3404.00,0.0138
3403.00,0.0138
3402.00,0.0138
3401.00,0.0138
3400.00,0.0138
3399.00,0.0138
3398.00,0.0138
3397.00,0.0137
3396.00,0.0137
3395.00,0.0137
3394.00,0.0136
3393.00,0.0136
3392.00,0.0136
3391.00,0.0136
3390.00,0.0136
3389.00,0.0137
3388.00,0.0137
3387.00,0.0137
3386.00,0.0137
3385.00,0.0137
3384.00,0.0137
3383.00,0.0136
3382.00,0.0136
3381.00,0.0136
3380.00,0.0135
3379.00,0.0135
3378.00,0.0135
3377.00,0.0134
3376.00,0.0134
3375.00,0.0134
3374.00,0.0134
3373.00,0.0133
3372.00,0.0133
3371.00,0.0132
3370.00,0.0131
3369.00,0.0130
3368.00,0.0130
3367.00,0.0131
3366.00,0.0132
3365.00,0.0133
3364.00,0.0133
3363.00,0.0133
3362.00,0.0133
3361.00,0.0133
3360.00,0.0133
3359.00,0.0133
3358.00,0.0133
3357.00,0.0133
3356.00,0.0133
3355.00,0.0133
3354.00,0.0132
3353.00,0.0130
3352.00,0.0129
3351.00,0.0129
3350.00,0.0129
3349.00,0.0130
3348.00,0.0131
3347.00,0.0131
3346.00,0.0131
3345.00,0.0131
3344.00,0.0130
3343.00,0.0130
3342.00,0.0129
3341.00,0.0128
3340.00,0.0128
3339.00,0.0127
3338.00,0.0127
3337.00,0.0128
3336.00,0.0129
3335.00,0.0130
3334.00,0.0130
3333.00,0.0130
3332.00,0.0130
3331.00,0.0129
3330.00,0.0129
3329.00,0.0128
3328.00,0.0127
3327.00,0.0127
3326.00,0.0126
3325.00,0.0127
3324.00,0.0127
3323.00,0.0128
3322.00,0.0128
3321.00,0.0128
3320.00,0.0128
3319.00,0.0128
3318.00,0.0128
3317.00,0.0128
3316.00,0.0128
3315.00,0.0128
3314.00,0.0128
3313.00,0.0127
3312.00,0.0126
3311.00,0.0124
3310.00,0.0122
3309.00,0.0121
3308.00,0.0120
3307.00,0.0119
3306.00,0.0120
3305.00,0.0121
3304.00,0.0122
3303.00,0.0124
3302.00,0.0125
3301.00,0.0125
3300.00,0.0125
3299.00,0.0125
3298.00,0.0124
3297.00,0.0123
3296.00,0.0122
3295.00,0.0122
3294.00,0.0121
3293.00,0.0122
3292.00,0.0122
3291.00,0.0123
3290.00,0.0124
3289.00,0.0125
3288.00,0.0125
3287.00,0.0125
3286.00,0.0125
3285.00,0.0124
3284.00,0.0124
3283.00,0.0124
3282.00,0.0123
3281.00,0.0123
3280.00,0.0123
3279.00,0.0123
3278.00,0.0122
3277.00,0.0121
3276.00,0.0120
3275.00,0.0119
3274.00,0.0119
3273.00,0.0118
3272.00,0.0118
3271.00,0.0118
3270.00,0.0118
3269.00,0.0119
3268.00,0.0119
3267.00,0.0119
3266.00,0.0119
3265.00,0.0119
3264.00,0.0119
3263.00,0.0119
3262.00,0.0119
3261.00,0.0118
3260.00,0.0118
3259.00,0.0117
3258.00,0.0117
3257.00,0.0116
3256.00,0.0116
3255.00,0.0116
3254.00,0.0116
3253.00,0.0116
3252.00,0.0116
3251.00,0.0115
3250.00,0.0115
3249.00,0.0115
3248.00,0.0114
3247.00,0.0114
3246.00,0.0114
3245.00,0.0114
3244.00,0.0114
3243.00,0.0115
3242.00,0.0115
3241.00,0.0114
3240.00,0.0114
3239.00,0.0114
3238.00,0.0114
3237.00,0.0113
3236.00,0.0113
3235.00,0.0112
3234.00,0.0112
3233.00,0.0112
3232.00,0.0112
3231.00,0.0112
3230.00,0.0112
3229.00,0.0112
3228.00,0.0111
3227.00,0.0111
3226.00,0.0111
3225.00,0.0111
3224.00,0.0111
3223.00,0.0111
3222.00,0.0110
3221.00,0.0110
3220.00,0.0109
3219.00,0.0109
3218.00,0.0108
3217.00,0.0108
3216.00,0.0108
3215.00,0.0108
3214.00,0.0108
3213.00,0.0107
3212.00,0.0107
3211.00,0.0107
3210.00,0.0107
3209.00,0.0106
3208.00,0.0106
3207.00,0.0105
3206.00,0.0105
3205.00,0.0104
3204.00,0.0104
3203.00,0.0104
3202.00,0.0103
3201.00,0.0103
3200.00,0.0103
3199.00,0.0103
3198.00,0.0102
3197.00,0.0102
3196.00,0.0102
3195.00,0.0102
3194.00,0.0101
3193.00,0.0101
3192.00,0.0101
3191.00,0.0101
3190.00,0.0100
3189.00,0.0100
3188.00,0.0100
3187.00,0.0100
3186.00,0.0100
3185.00,0.0100
3184.00,0.0100
3183.00,0.0099
3182.00,0.0099
3181.00,0.0099
3180.00,0.0099
3179.00,0.0099
3178.00,0.0099
3177.00,0.0099
3176.00,0.0099
3175.00,0.0099
3174.00,0.0099
3173.00,0.0098
3172.00,0.0098
3171.00,0.0098
3170.00,0.0098
3169.00,0.0097
3168.00,0.0097
3167.00,0.0097
3166.00,0.0097
3165.00,0.0096
3164.00,0.0096
3163.00,0.0096
3162.00,0.0096
3161.00,0.0095
3160.00,0.0095
3159.00,0.0094
3158.00,0.0094
3157.00,0.0093
3156.00,0.0093
3155.00,0.0093
3154.00,0.0092
3153.00,0.0092
3152.00,0.0092
3151.00,0.0092
3150.00,0.0092
3149.00,0.0092
3148.00,0.0092
3147.00,0.0091
3146.00,0.0091
3145.00,0.0090
3144.00,0.0090
3143.00,0.0090
3142.00,0.0090
3141.00,0.0090
3140.00,0.0089
3139.00,0.0089
3138.00,0.0088
3137.00,0.0088
3136.00,0.0088
3135.00,0.0088
3134.00,0.0088
3133.00,0.0088
3132.00,0.0088
3131.00,0.0088
3130.00,0.0087
3129.00,0.0087
3128.00,0.0087
3127.00,0.0087
3126.00,0.0087
3125.00,0.0087
3124.00,0.0087
3123.00,0.0087
3122.00,0.0087
3121.00,0.0087
3120.00,0.0086
3119.00,0.0086
3118.00,0.0086
3117.00,0.0086
3116.00,0.0086
3115.00,0.0086
3114.00,0.0085
3113.00,0.0085
3112.00,0.0085
3111.00,0.0084
3110.00,0.0084
3109.00,0.0083
3108.00,0.0083
3107.00,0.0083
3106.00,0.0082
3105.00,0.0082
3104.00,0.0082
3103.00,0.0082
3102.00,0.0082
3101.00,0.0082
3100.00,0.0082
3099.00,0.0082
3098.00,0.0082
3097.00,0.0081
3096.00,0.0081
3095.00,0.0081
3094.00,0.0081
3093.00,0.0081
3092.00,0.0080
3091.00,0.0080
3090.00,0.0080
3089.00,0.0080
3088.00,0.0081
3087.00,0.0081
3086.00,0.0081
3085.00,0.0081
3084.00,0.0081
3083.00,0.0081
3082.00,0.0081
3081.00,0.0081
3080.00,0.0081
3079.00,0.0081
3078.00,0.0081
3077.00,0.0081
3076.00,0.0080
3075.00,0.0080
3074.00,0.0080
3073.00,0.0080
3072.00,0.0080
3071.00,0.0080
3070.00,0.0079
3069.00,0.0079
3068.00,0.0079
3067.00,0.0079
3066.00,0.0078
3065.00,0.0078
3064.00,0.0077
3063.00,0.0077
3062.00,0.0077
3061.00,0.0076
3060.00,0.0076
3059.00,0.0076
3058.00,0.0076
3057.00,0.0076
3056.00,0.0076
3055.00,0.0076
3054.00,0.0076
3053.00,0.0076
3052.00,0.0076
3051.00,0.0075
3050.00,0.0075
3049.00,0.0074
3048.00,0.0074
3047.00,0.0074
3046.00,0.0074
3045.00,0.0074
3044.00,0.0074
3043.00,0.0074
3042.00,0.0074
3041.00,0.0074
3040.00,0.0074
3039.00,0.0074
3038.00,0.0074
3037.00,0.0073
3036.00,0.0073
3035.00,0.0073
3034.00,0.0073
3033.00,0.0073
3032.00,0.0073
3031.00,0.0074
3030.00,0.0074
3029.00,0.0074
3028.00,0.0074
3027.00,0.0074
3026.00,0.0073
3025.00,0.0073
3024.00,0.0073
3023.00,0.0073
3022.00,0.0073
3021.00,0.0073
3020.00,0.0073
3019.00,0.0074
3018.00,0.0074
3017.00,0.0074
3016.00,0.0075
3015.00,0.0075
3014.00,0.0076
3013.00,0.0077
3012.00,0.0078
3011.00,0.0079
3010.00,0.0081
3009.00,0.0083
3008.00,0.0085
3007.00,0.0086
3006.00,0.0088
3005.00,0.0090
3004.00,0.0093
3003.00,0.0096
3002.00,0.0099
3001.00,0.0102
3000.00,0.0105
2999.00,0.0108
2998.00,0.0112
2997.00,0.0116
2996.00,0.0121
2995.00,0.0125
2994.00,0.0130
2993.00,0.0134
2992.00,0.0139
2991.00,0.0145
2990.00,0.0150
2989.00,0.0155
2988.00,0.0160
2987.00,0.0164
2986.00,0.0169
2985.00,0.0173
2984.00,0.0178
2983.00,0.0181
2982.00,0.0185
2981.00,0.0188
2980.00,0.0191
2979.00,0.0194
2978.00,0.0197
2977.00,0.0199
2976.00,0.0201
2975.00,0.0203
2974.00,0.0205
2973.00,0.0207
2972.00,0.0210
2971.00,0.0212
2970.00,0.0215
2969.00,0.0217
2968.00,0.0220
2967.00,0.0223
2966.00,0.0226
2965.00,0.0229
2964.00,0.0233
2963.00,0.0236
2962.00,0.0240
2961.00,0.0244
2960.00,0.0247
2959.00,0.0250
2958.00,0.0253
2957.00,0.0256
2956.00,0.0258
2955.00,0.0260
2954.00,0.0261
2953.00,0.0262
2952.00,0.0262
2951.00,0.0262
2950.00,0.0261
2949.00,0.0260
2948.00,0.0259
2947.00,0.0258
2946.00,0.0257
2945.00,0.0256
2944.00,0.0255
2943.00,0.0255
2942.00,0.0255
2941.00,0.0255
2940.00,0.0256
2939.00,0.0257
2938.00,0.0258
2937.00,0.0259
2936.00,0.0261
2935.00,0.0263
2934.00,0.0265
2933.00,0.0267
2932.00,0.0269
2931.00,0.0272
2930.00,0.0274
2929.00,0.0276
2928.00,0.0278
2927.00,0.0279
2926.00,0.0280
2925.00,0.0280
2924.00,0.0280
2923.00,0.0279
2922.00,0.0277
2921.00,0.0275
2920.00,0.0272
2919.00,0.0268
2918.00,0.0264
2917.00,0.0260
2916.00,0.0256
2915.00,0.0252
2914.00,0.0248
2913.00,0.0243
2912.00,0.0239
2911.00,0.0235
2910.00,0.0230
2909.00,0.0226
2908.00,0.0222
2907.00,0.0218
2906.00,0.0215
2905.00,0.0212
2904.00,0.0210
2903.00,0.0207
2902.00,0.0206
2901.00,0.0205
2900.00,0.0204
2899.00,0.0203
2898.00,0.0202
2897.00,0.0202
2896.00,0.0202
2895.00,0.0202
2894.00,0.0202
2893.00,0.0202
2892.00,0.0201
2891.00,0.0201
2890.00,0.0201
2889.00,0.0200
2888.00,0.0200
2887.00,0.0200
2886.00,0.0200
2885.00,0.0200
2884.00,0.0200
2883.00,0.0200
2882.00,0.0200
2881.00,0.0200
2880.00,0.0200
2879.00,0.0201
2878.00,0.0202
2877.00,0.0202
2876.00,0.0203
2875.00,0.0203
2874.00,0.0204
2873.00,0.0204
2872.00,0.0205
2871.00,0.0205
2870.00,0.0205
2869.00,0.0205
2868.00,0.0204
2867.00,0.0203
2866.00,0.0202
2865.00,0.0201
2864.00,0.0201
2863.00,0.0201
2862.00,0.0201
2861.00,0.0200
2860.00,0.0200
2859.00,0.0199
2858.00,0.0198
2857.00,0.0197
2856.00,0.0194
2855.00,0.0191
2854.00,0.0186
2853.00,0.0182
2852.00,0.0176
2851.00,0.0171
2850.00,0.0165
2849.00,0.0159
2848.00,0.0154
2847.00,0.0149
2846.00,0.0145
2845.00,0.0140
2844.00,0.0136
2843.00,0.0132
2842.00,0.0127
2841.00,0.0123
2840.00,0.0118
2839.00,0.0115
2838.00,0.0111
2837.00,0.0109
2836.00,0.0107
2835.00,0.0104
2834.00,0.0102
2833.00,0.0100
2832.00,0.0098
2831.00,0.0096
2830.00,0.0094
2829.00,0.0092
2828.00,0.0090
2827.00,0.0088
2826.00,0.0086
2825.00,0.0085
2824.00,0.0083
2823.00,0.0082
2822.00,0.0080
2821.00,0.0078
2820.00,0.0077
2819.00,0.0075
2818.00,0.0074
2817.00,0.0072
2816.00,0.0071
2815.00,0.0070
2814.00,0.0069
2813.00,0.0068
2812.00,0.0067
2811.00,0.0066
2810.00,0.0064
2809.00,0.0063
2808.00,0.0063
2807.00,0.0062
2806.00,0.0061
2805.00,0.0060
2804.00,0.0059
2803.00,0.0059
2802.00,0.0058
2801.00,0.0057
2800.00,0.0056
2799.00,0.0056
2798.00,0.0055
2797.00,0.0054
2796.00,0.0054
2795.00,0.0053
2794.00,0.0053
2793.00,0.0052
2792.00,0.0052
2791.00,0.0051
2790.00,0.0051
2789.00,0.0050
2788.00,0.0050
2787.00,0.0050
2786.00,0.0050
2785.00,0.0049
2784.00,0.0049
2783.00,0.0048
2782.00,0.0048
2781.00,0.0048
2780.00,0.0047
2779.00,0.0047
2778.00,0.0046
2777.00,0.0046
2776.00,0.0045
2775.00,0.0045
2774.00,0.0045
2773.00,0.0045
2772.00,0.0044
2771.00,0.0044
2770.00,0.0044
2769.00,0.0044
2768.00,0.0043
2767.00,0.0043
2766.00,0.0043
2765.00,0.0043
2764.00,0.0043
2763.00,0.0043
2762.00,0.0043
2761.00,0.0043
2760.00,0.0043
2759.00,0.0042
2758.00,0.0042
2757.00,0.0042
2756.00,0.0042
2755.00,0.0042
2754.00,0.0042
2753.00,0.0042
2752.00,0.0042
2751.00,0.0042
2750.00,0.0042
2749.00,0.0042
2748.00,0.0042
2747.00,0.0042
2746.00,0.0043
2745.00,0.0043
2744.00,0.0043
2743.00,0.0043
2742.00,0.0043
2741.00,0.0043
2740.00,0.0043
2739.00,0.0043
2738.00,0.0043
2737.00,0.0043
2736.00,0.0043
2735.00,0.0043
2734.00,0.0043
2733.00,0.0043
2732.00,0.0043
2731.00,0.0043
2730.00,0.0043
2729.00,0.0043
2728.00,0.0042
2727.00,0.0042
2726.00,0.0042
2725.00,0.0042
2724.00,0.0042
2723.00,0.0042
2722.00,0.0041
2721.00,0.0041
2720.00,0.0041
2719.00,0.0040
2718.00,0.0040
2717.00,0.0040
2716.00,0.0040
2715.00,0.0040
2714.00,0.0040
2713.00,0.0040
2712.00,0.0040
2711.00,0.0040
2710.00,0.0039
2709.00,0.0039
2708.00,0.0039
2707.00,0.0039
2706.00,0.0038
2705.00,0.0038
2704.00,0.0038
2703.00,0.0038
2702.00,0.0038
2701.00,0.0037
2700.00,0.0037
2699.00,0.0037
2698.00,0.0037
2697.00,0.0037
2696.00,0.0037
2695.00,0.0037
2694.00,0.0037
2693.00,0.0036
2692.00,0.0036
2691.00,0.0036
2690.00,0.0035
2689.00,0.0035
2688.00,0.0035
2687.00,0.0035
2686.00,0.0035
2685.00,0.0035
2684.00,0.0035
2683.00,0.0034
2682.00,0.0034
2681.00,0.0034
2680.00,0.0034
2679.00,0.0034
2678.00,0.0034
2677.00,0.0034
2676.00,0.0034
2675.00,0.0034
2674.00,0.0034
2673.00,0.0034
2672.00,0.0034
2671.00,0.0033
2670.00,0.0033
2669.00,0.0033
2668.00,0.0033
2667.00,0.0034
2666.00,0.0034
2665.00,0.0035
2664.00,0.0035
2663.00,0.0036
2662.00,0.0036
2661.00,0.0036
2660.00,0.0036
2659.00,0.0036
2658.00,0.0036
2657.00,0.0036
2656.00,0.0036
2655.00,0.0036
2654.00,0.0036
2653.00,0.0036
2652.00,0.0036
2651.00,0.0036
2650.00,0.0036
2649.00,0.0036
2648.00,0.0036
2647.00,0.0036
2646.00,0.0035
2645.00,0.0035
2644.00,0.0035
2643.00,0.0035
2642.00,0.0035
2641.00,0.0035
2640.00,0.0035
2639.00,0.0035
2638.00,0.0035
2637.00,0.0035
2636.00,0.0034
2635.00,0.0034
2634.00,0.0034
2633.00,0.0034
2632.00,0.0034
2631.00,0.0034
2630.00,0.0034
2629.00,0.0034
2628.00,0.0033
2627.00,0.0033
2626.00,0.0033
2625.00,0.0033
2624.00,0.0032
2623.00,0.0032
2622.00,0.0032
2621.00,0.0032
2620.00,0.0032
2619.00,0.0032
2618.00,0.0032
2617.00,0.0032
2616.00,0.0032
2615.00,0.0032
2614.00,0.0032
2613.00,0.0031
2612.00,0.0031
2611.00,0.0031
2610.00,0.0031
2609.00,0.0031
2608.00,0.0031
2607.00,0.0031
2606.00,0.0031
2605.00,0.0031
2604.00,0.0030
2603.00,0.0030
2602.00,0.0030
2601.00,0.0030
2600.00,0.0029
2599.00,0.0029
2598.00,0.0029
2597.00,0.0029
2596.00,0.0029
2595.00,0.0029
2594.00,0.0029
2593.00,0.0029
2592.00,0.0029
2591.00,0.0030
2590.00,0.0030
2589.00,0.0030
2588.00,0.0030
2587.00,0.0029
2586.00,0.0029
2585.00,0.0029
2584.00,0.0029
2583.00,0.0029
2582.00,0.0029
2581.00,0.0029
2580.00,0.0029
2579.00,0.0029
2578.00,0.0029
2577.00,0.0029
2576.00,0.0028
2575.00,0.0028
2574.00,0.0028
2573.00,0.0028
2572.00,0.0028
2571.00,0.0028
2570.00,0.0028
2569.00,0.0028
2568.00,0.0027
2567.00,0.0027
2566.00,0.0027
2565.00,0.0026
2564.00,0.0026
2563.00,0.0026
2562.00,0.0026
2561.00,0.0026
2560.00,0.0026
2559.00,0.0026
2558.00,0.0026
2557.00,0.0026
2556.00,0.0026
2555.00,0.0025
2554.00,0.0025
2553.00,0.0025
2552.00,0.0025
2551.00,0.0025
2550.00,0.0025
2549.00,0.0025
2548.00,0.0025
2547.00,0.0025
2546.00,0.0024
2545.00,0.0024
2544.00,0.0024
2543.00,0.0023
2542.00,0.0023
2541.00,0.0023
2540.00,0.0023
2539.00,0.0023
2538.00,0.0023
2537.00,0.0022
2536.00,0.0022
2535.00,0.0022
2534.00,0.0022
2533.00,0.0022
2532.00,0.0022
2531.00,0.0022
2530.00,0.0021
2529.00,0.0021
2528.00,0.0021
2527.00,0.0021
2526.00,0.0020
2525.00,0.0020
2524.00,0.0020
2523.00,0.0019
2522.00,0.0019
2521.00,0.0018
2520.00,0.0018
2519.00,0.0018
2518.00,0.0018
2517.00,0.0018
2516.00,0.0018
2515.00,0.0018
2514.00,0.0018
2513.00,0.0017
2512.00,0.0017
2511.00,0.0017
2510.00,0.0017
2509.00,0.0017
2508.00,0.0017
2507.00,0.0017
2506.00,0.0017
2505.00,0.0017
2504.00,0.0017
2503.00,0.0017
2502.00,0.0016
2501.00,0.0016
2500.00,0.0016
2499.00,0.0017
2498.00,0.0016
2497.00,0.0016
2496.00,0.0016
2495.00,0.0016
2494.00,0.0016
2493.00,0.0016
2492.00,0.0016
2491.00,0.0016
2490.00,0.0016
2489.00,0.0016
2488.00,0.0016
2487.00,0.0015
2486.00,0.0015
2485.00,0.0015
2484.00,0.0015
2483.00,0.0015
2482.00,0.0015
2481.00,0.0016
2480.00,0.0016
2479.00,0.0015
2478.00,0.0015
2477.00,0.0014
2476.00,0.0014
2475.00,0.0015
2474.00,0.0015
2473.00,0.0015
2472.00,0.0015
2471.00,0.0014
2470.00,0.0014
2469.00,0.0014
2468.00,0.0014
2467.00,0.0014
2466.00,0.0014
2465.00,0.0014
2464.00,0.0014
2463.00,0.0015
2462.00,0.0015
2461.00,0.0015
2460.00,0.0016
2459.00,0.0016
2458.00,0.0016
2457.00,0.0017
2456.00,0.0017
2455.00,0.0016
2454.00,0.0016
2453.00,0.0016
2452.00,0.0016
2451.00,0.0015
2450.00,0.0015
2449.00,0.0015
2448.00,0.0015
2447.00,0.0015
2446.00,0.0015
2445.00,0.0015
2444.00,0.0015
2443.00,0.0016
2442.00,0.0015
2441.00,0.0015
2440.00,0.0015
2439.00,0.0015
2438.00,0.0014
2437.00,0.0014
2436.00,0.0014
2435.00,0.0014
2434.00,0.0014
2433.00,0.0014
2432.00,0.0015
2431.00,0.0015
2430.00,0.0014
2429.00,0.0014
2428.00,0.0015
2427.00,0.0015
2426.00,0.0014
2425.00,0.0014
2424.00,0.0014
2423.00,0.0014
2422.00,0.0014
2421.00,0.0014
2420.00,0.0015
2419.00,0.0014
2418.00,0.0014
2417.00,0.0014
2416.00,0.0014
2415.00,0.0014
2414.00,0.0014
2413.00,0.0014
2412.00,0.0014
2411.00,0.0014
2410.00,0.0014
2409.00,0.0013
2408.00,0.0013
2407.00,0.0012
2406.00,0.0012
2405.00,0.0012
2404.00,0.0012
2403.00,0.0012
2402.00,0.0012
2401.00,0.0012
2400.00,0.0012
2399.00,0.0012
2398.00,0.0012
2397.00,0.0012
2396.00,0.0012
2395.00,0.0012
2394.00,0.0012
2393.00,0.0011
2392.00,0.0011
2391.00,0.0011
2390.00,0.0011
2389.00,0.0011
2388.00,0.0011
2387.00,0.0010
2386.00,0.0010
2385.00,0.0009
2384.00,0.0009
2383.00,0.0009
2382.00,0.0008
2381.00,0.0008
2380.00,0.0008
2379.00,0.0008
2378.00,0.0008
2377.00,0.0008
2376.00,0.0008
2375.00,0.0008
2374.00,0.0008
2373.00,0.0007
2372.00,0.0007
2371.00,0.0007
2370.00,0.0006
2369.00,0.0006
2368.00,0.0006
2367.00,0.0006
2366.00,0.0006
2365.00,0.0006
2364.00,0.0007
2363.00,0.0008
2362.00,0.0008
2361.00,0.0008
2360.00,0.0008
2359.00,0.0008
2358.00,0.0008
2357.00,0.0008
2356.00,0.0009
2355.00,0.0009
2354.00,0.0009
2353.00,0.0009
2352.00,0.0008
2351.00,0.0008
2350.00,0.0009
2349.00,0.0010
2348.00,0.0011
2347.00,0.0012
2346.00,0.0012
2345.00,0.0012
2344.00,0.0011
2343.00,0.0011
2342.00,0.0011
2341.00,0.0012
2340.00,0.0012
2339.00,0.0013
2338.00,0.0013
2337.00,0.0013
2336.00,0.0014
2335.00,0.0013
2334.00,0.0013
2333.00,0.0013
2332.00,0.0013
2331.00,0.0013
2330.00,0.0013
2329.00,0.0015
2328.00,0.0018
2327.00,0.0022
2326.00,0.0025
2325.00,0.0026
2324.00,0.0026
2323.00,0.0024
2322.00,0.0022
2321.00,0.0020
2320.00,0.0019
2319.00,0.0019
2318.00,0.0018
2317.00,0.0017
2316.00,0.0017
2315.00,0.0017
2314.00,0.0016
2313.00,0.0016
2312.00,0.0016
2311.00,0.0016
2310.00,0.0015
2309.00,0.0015
2308.00,0.0016
2307.00,0.0016
2306.00,0.0016
2305.00,0.0017
2304.00,0.0017
2303.00,0.0017
2302.00,0.0017
2301.00,0.0017
2300.00,0.0018
2299.00,0.0018
2298.00,0.0019
2297.00,0.0019
2296.00,0.0020
2295.00,0.0021
2294.00,0.0021
2293.00,0.0022
2292.00,0.0022
2291.00,0.0023
2290.00,0.0023
2289.00,0.0024
2288.00,0.0024
2287.00,0.0025
2286.00,0.0024
2285.00,0.0024
2284.00,0.0023
2283.00,0.0022
2282.00,0.0022
2281.00,0.0022
2280.00,0.0022
2279.00,0.0021
2278.00,0.0021
2277.00,0.0021
2276.00,0.0021
2275.00,0.0021
2274.00,0.0020
2273.00,0.0019
2272.00,0.0018
2271.00,0.0018
2270.00,0.0018
2269.00,0.0018
2268.00,0.0018
2267.00,0.0017
2266.00,0.0017
2265.00,0.0016
2264.00,0.0017
2263.00,0.0017
2262.00,0.0017
2261.00,0.0018
2260.00,0.0018
2259.00,0.0018
2258.00,0.0018
2257.00,0.0017
2256.00,0.0015
2255.00,0.0014
2254.00,0.0013
2253.00,0.0014
2252.00,0.0014
2251.00,0.0015
2250.00,0.0015
2249.00,0.0015
2248.00,0.0015
2247.00,0.0016
2246.00,0.0016
2245.00,0.0015
2244.00,0.0015
2243.00,0.0016
2242.00,0.0016
2241.00,0.0017
2240.00,0.0017
2239.00,0.0017
2238.00,0.0016
2237.00,0.0016
2236.00,0.0015
2235.00,0.0015
2234.00,0.0015
2233.00,0.0015
2232.00,0.0015
2231.00,0.0016
2230.00,0.0015
2229.00,0.0015
2228.00,0.0015
2227.00,0.0015
2226.00,0.0015
2225.00,0.0016
2224.00,0.0016
2223.00,0.0016
2222.00,0.0016
2221.00,0.0016
2220.00,0.0016
2219.00,0.0016
2218.00,0.0017
2217.00,0.0017
2216.00,0.0018
2215.00,0.0017
2214.00,0.0016
2213.00,0.0015
2212.00,0.0014
2211.00,0.0014
2210.00,0.0014
2209.00,0.0014
2208.00,0.0014
2207.00,0.0014
2206.00,0.0013
2205.00,0.0013
2204.00,0.0013
2203.00,0.0013
2202.00,0.0013
2201.00,0.0013
2200.00,0.0014
2199.00,0.0015
2198.00,0.0015
2197.00,0.0015
2196.00,0.0015
2195.00,0.0015
2194.00,0.0015
2193.00,0.0016
2192.00,0.0017
2191.00,0.0018
2190.00,0.0019
2189.00,0.0019
2188.00,0.0019
2187.00,0.0019
2186.00,0.0018
2185.00,0.0017
2184.00,0.0015
2183.00,0.0013
2182.00,0.0011
2181.00,0.0010
2180.00,0.0010
2179.00,0.0011
2178.00,0.0011
2177.00,0.0010
2176.00,0.0009
2175.00,0.0009
2174.00,0.0010
2173.00,0.0012
2172.00,0.0015
2171.00,0.0019
2170.00,0.0021
2169.00,0.0024
2168.00,0.0026
2167.00,0.0027
2166.00,0.0027
2165.00,0.0028
2164.00,0.0029
2163.00,0.0028
2162.00,0.0022
2161.00,0.0011
2160.00,-0.0002
2159.00,-0.0012
2158.00,-0.0017
2157.00,-0.0016
2156.00,-0.0013
2155.00,-0.0010
2154.00,-0.0008
2153.00,-0.0006
2152.00,-0.0003
2151.00,-0.0002
2150.00,-0.0001
2149.00,-0.0002
2148.00,-0.0003
2147.00,-0.0003
2146.00,-0.0004
2145.00,-0.0003
2144.00,-0.0003
2143.00,-0.0003
2142.00,-0.0003
2141.00,-0.0002
2140.00,-0.0001
2139.00,-0.0000
2138.00,-0.0002
2137.00,-0.0004
2136.00,-0.0006
2135.00,-0.0007
2134.00,-0.0008
2133.00,-0.0008
2132.00,-0.0006
2131.00,-0.0004
2130.00,-0.0002
2129.00,0.0000
2128.00,0.0002
2127.00,0.0003
2126.00,0.0003
2125.00,0.0003
2124.00,0.0004
2123.00,0.0005
2122.00,0.0006
2121.00,0.0006
2120.00,0.0007
2119.00,0.0008
2118.00,0.0009
2117.00,0.0010
2116.00,0.0011
2115.00,0.0012
2114.00,0.0012
2113.00,0.0011
2112.00,0.0011
2111.00,0.0011
2110.00,0.0011
2109.00,0.0011
2108.00,0.0011
2107.00,0.0012
2106.00,0.0012
2105.00,0.0012
2104.00,0.0012
2103.00,0.0013
2102.00,0.0013
2101.00,0.0012
2100.00,0.0012
2099.00,0.0012
2098.00,0.0011
2097.00,0.0009
2096.00,0.0008
2095.00,0.0008
2094.00,0.0007
2093.00,0.0008
2092.00,0.0009
2091.00,0.0010
2090.00,0.0011
2089.00,0.0011
2088.00,0.0012
2087.00,0.0012
2086.00,0.0013
2085.00,0.0014
2084.00,0.0014
2083.00,0.0015
2082.00,0.0015
2081.00,0.0015
2080.00,0.0014
2079.00,0.0014
2078.00,0.0014
2077.00,0.0014
2076.00,0.0014
2075.00,0.0014
2074.00,0.0014
2073.00,0.0014
2072.00,0.0014
2071.00,0.0014
2070.00,0.0013
2069.00,0.0012
2068.00,0.0011
2067.00,0.0011
2066.00,0.0011
2065.00,0.0010
2064.00,0.0010
2063.00,0.0010
2062.00,0.0009
2061.00,0.0010
2060.00,0.0011
2059.00,0.0011
2058.00,0.0011
2057.00,0.0011
2056.00,0.0012
2055.00,0.0013
2054.00,0.0016
2053.00,0.0019
2052.00,0.0022
2051.00,0.0021
2050.00,0.0017
2049.00,0.0014
2048.00,0.0011
2047.00,0.0010
2046.00,0.0009
2045.00,0.0008
2044.00,0.0008
2043.00,0.0008
2042.00,0.0007
2041.00,0.0008
2040.00,0.0009
2039.00,0.0010
2038.00,0.0010
2037.00,0.0010
2036.00,0.0010
2035.00,0.0009
2034.00,0.0007
2033.00,0.0005
2032.00,0.0005
2031.00,0.0005
2030.00,0.0005
2029.00,0.0006
2028.00,0.0006
2027.00,0.0006
2026.00,0.0004
2025.00,0.0004
2024.00,0.0004
2023.00,0.0005
2022.00,0.0003
2021.00,0.0002
2020.00,0.0002
2019.00,0.0002
2018.00,0.0001
2017.00,0.0002
2016.00,0.0003
2015.00,0.0004
2014.00,0.0005
2013.00,0.0005
2012.00,0.0005
2011.00,0.0004
2010.00,0.0002
2009.00,-0.0000
2008.00,-0.0003
2007.00,-0.0004
2006.00,-0.0005
2005.00,-0.0004
2004.00,-0.0002
2003.00,-0.0000
2002.00,0.0000
2001.00,0.0001
2000.00,0.0002
1999.00,0.0003
1998.00,0.0004
1997.00,0.0004
1996.00,0.0005
1995.00,0.0005
1994.00,0.0004
1993.00,0.0004
1992.00,0.0005
1991.00,0.0006
1990.00,0.0007
1989.00,0.0008
1988.00,0.0010
1987.00,0.0012
1986.00,0.0014
1985.00,0.0017
1984.00,0.0020
1983.00,0.0022
1982.00,0.0023
1981.00,0.0023
1980.00,0.0020
1979.00,0.0014
1978.00,0.0006
1977.00,0.0001
1976.00,0.0000
1975.00,-0.0000
1974.00,-0.0001
1973.00,-0.0002
1972.00,-0.0002
1971.00,-0.0002
1970.00,-0.0002
1969.00,-0.0002
1968.00,-0.0001
1967.00,-0.0001
1966.00,-0.0002
1965.00,-0.0002
1964.00,-0.0002
1963.00,-0.0002
1962.00,-0.0004
1961.00,-0.0005
1960.00,-0.0006
1959.00,-0.0006
1958.00,-0.0005
1957.00,-0.0003
1956.00,-0.0001
1955.00,-0.0000
1954.00,-0.0000
1953.00,-0.0001
1952.00,-0.0000
1951.00,-0.0000
1950.00,-0.0000
1949.00,0.0000
1948.00,0.0001
1947.00,0.0001
1946.00,0.0001
1945.00,0.0001
1944.00,0.0002
1943.00,0.0003
1942.00,0.0003
1941.00,0.0003
1940.00,0.0003
1939.00,0.0002
1938.00,0.0001
1937.00,0.0001
1936.00,0.0003
1935.00,0.0004
1934.00,0.0004
1933.00,0.0004
1932.00,0.0004
1931.00,0.0004
1930.00,0.0004
1929.00,0.0003
1928.00,0.0003
1927.00,0.0004
1926.00,0.0004
1925.00,0.0004
1924.00,0.0005
1923.00,0.0006
1922.00,0.0007
1921.00,0.0007
1920.00,0.0008
1919.00,0.0008
1918.00,0.0007
1917.00,0.0007
1916.00,0.0008
1915.00,0.0009
1914.00,0.0009
1913.00,0.0009
1912.00,0.0009
1911.00,0.0009
1910.00,0.0008
1909.00,0.0008
1908.00,0.0007
1907.00,0.0007
1906.00,0.0007
1905.00,0.0007
1904.00,0.0007
1903.00,0.0008
1902.00,0.0007
1901.00,0.0007
1900.00,0.0007
1899.00,0.0008
1898.00,0.0008
1897.00,0.0008
1896.00,0.0008
1895.00,0.0008
1894.00,0.0008
1893.00,0.0008
1892.00,0.0009
1891.00,0.0009
1890.00,0.0008
1889.00,0.0008
1888.00,0.0008
1887.00,0.0008
1886.00,0.0008
1885.00,0.0008
1884.00,0.0008
1883.00,0.0009
1882.00,0.0009
1881.00,0.0009
1880.00,0.0009
1879.00,0.0009
1878.00,0.0009
1877.00,0.0009
1876.00,0.0009
1875.00,0.0009
1874.00,0.0009
1873.00,0.0009
1872.00,0.0009
1871.00,0.0009
1870.00,0.0008
1869.00,0.0008
1868.00,0.0009
1867.00,0.0009
1866.00,0.0009
1865.00,0.0009
1864.00,0.0010
1863.00,0.0010
1862.00,0.0010
1861.00,0.0010
1860.00,0.0010
1859.00,0.0010
1858.00,0.0010
1857.00,0.0010
1856.00,0.0010
1855.00,0.0011
1854.00,0.0011
1853.00,0.0011
1852.00,0.0011
1851.00,0.0011
1850.00,0.0011
1849.00,0.0011
1848.00,0.0012
1847.00,0.0013
1846.00,0.0013
1845.00,0.0013
1844.00,0.0012
1843.00,0.0012
1842.00,0.0011
1841.00,0.0011
1840.00,0.0011
1839.00,0.0012
1838.00,0.0011
1837.00,0.0011
1836.00,0.0012
1835.00,0.0012
1834.00,0.0012
1833.00,0.0012
1832.00,0.0013
1831.00,0.0013
1830.00,0.0013
1829.00,0.0013
1828.00,0.0013
1827.00,0.0013
1826.00,0.0013
1825.00,0.0013
1824.00,0.0013
1823.00,0.0013
1822.00,0.0013
1821.00,0.0013
1820.00,0.0012
1819.00,0.0011
1818.00,0.0010
1817.00,0.0010
1816.00,0.0010
1815.00,0.0011
1814.00,0.0011
1813.00,0.0012
1812.00,0.0013
1811.00,0.0013
1810.00,0.0013
1809.00,0.0013
1808.00,0.0013
1807.00,0.0013
1806.00,0.0013
1805.00,0.0014
1804.00,0.0014
1803.00,0.0014
1802.00,0.0015
1801.00,0.0015
1800.00,0.0016
1799.00,0.0016
1798.00,0.0016
1797.00,0.0016
1796.00,0.0016
1795.00,0.0017
1794.00,0.0017
1793.00,0.0017
1792.00,0.0017
1791.00,0.0017
1790.00,0.0016
1789.00,0.0016
1788.00,0.0017
1787.00,0.0017
1786.00,0.0017
1785.00,0.0017
1784.00,0.0018
1783.00,0.0018
1782.00,0.0018
1781.00,0.0018
1780.00,0.0019
1779.00,0.0018
1778.00,0.0018
1777.00,0.0019
1776.00,0.0020
1775.00,0.0021
1774.00,0.0022
1773.00,0.0022
1772.00,0.0023
1771.00,0.0023
1770.00,0.0023
1769.00,0.0022
1768.00,0.0023
1767.00,0.0023
1766.00,0.0023
1765.00,0.0023
1764.00,0.0024
1763.00,0.0025
1762.00,0.0025
1761.00,0.0025
1760.00,0.0025
1759.00,0.0025
1758.00,0.0025
1757.00,0.0026
1756.00,0.0027
1755.00,0.0028
1754.00,0.0028
1753.00,0.0029
1752.00,0.0030
1751.00,0.0031
1750.00,0.0030
1749.00,0.0030
1748.00,0.0031
1747.00,0.0031
1746.00,0.0031
1745.00,0.0032
1744.00,0.0033
1743.00,0.0034
1742.00,0.0035
1741.00,0.0035
1740.00,0.0036
1739.00,0.0037
1738.00,0.0038
1737.00,0.0040
1736.00,0.0042
1735.00,0.0043
1734.00,0.0044
1733.00,0.0044
1732.00,0.0045
1731.00,0.0046
1730.00,0.0047
1729.00,0.0048
1728.00,0.0050
1727.00,0.0052
1726.00,0.0053
1725.00,0.0054
1724.00,0.0057
1723.00,0.0059
1722.00,0.0061
1721.00,0.0063
1720.00,0.0067
1719.00,0.0071
1718.00,0.0074
1717.00,0.0077
1716.00,0.0081
1715.00,0.0085
1714.00,0.0089
1713.00,0.0093
1712.00,0.0098
1711.00,0.0104
1710.00,0.0111
1709.00,0.0119
1708.00,0.0129
1707.00,0.0140
1706.00,0.0153
1705.00,0.0169
1704.00,0.0185
1703.00,0.0200
1702.00,0.0217
1701.00,0.0244
1700.00,0.0280
1699.00,0.0313
1698.00,0.0339
1697.00,0.0369
1696.00,0.0412
1695.00,0.0460
1694.00,0.0500
1693.00,0.0534
1692.00,0.0570
1691.00,0.0609
1690.00,0.0653
1689.00,0.0697
1688.00,0.0737
1687.00,0.0771
1686.00,0.0805
1685.00,0.0852
1684.00,0.0911
1683.00,0.0962
1682.00,0.0993
1681.00,0.1016
1680.00,0.1040
1679.00,0.1062
1678.00,0.1082
1677.00,0.1100
1676.00,0.1122
1675.00,0.1147
1674.00,0.1167
1673.00,0.1180
1672.00,0.1190
1671.00,0.1202
1670.00,0.1217
1669.00,0.1235
1668.00,0.1251
1667.00,0.1262
1666.00,0.1268
1665.00,0.1275
1664.00,0.1285
1663.00,0.1299
1662.00,0.1313
1661.00,0.1324
1660.00,0.1330
1659.00,0.1334
1658.00,0.1336
1657.00,0.1335
1656.00,0.1331
1655.00,0.1326
1654.00,0.1324
1653.00,0.1326
1652.00,0.1322
1651.00,0.1309
1650.00,0.1288
1649.00,0.1264
1648.00,0.1236
1647.00,0.1206
1646.00,0.1174
1645.00,0.1141
1644.00,0.1107
1643.00,0.1071
1642.00,0.1033
1641.00,0.0993
1640.00,0.0955
1639.00,0.0918
1638.00,0.0882
1637.00,0.0843
1636.00,0.0801
1635.00,0.0760
1634.00,0.0725
1633.00,0.0694
1632.00,0.0666
1631.00,0.0639
1630.00,0.0614
1629.00,0.0592
1628.00,0.0574
1627.00,0.0560
1626.00,0.0551
1625.00,0.0546
1624.00,0.0547
1623.00,0.0552
1622.00,0.0558
1621.00,0.0563
1620.00,0.0565
1619.00,0.0563
1618.00,0.0559
1617.00,0.0550
1616.00,0.0538
1615.00,0.0524
1614.00,0.0511
1613.00,0.0497
1612.00,0.0484
1611.00,0.0473
1610.00,0.0461
1609.00,0.0447
1608.00,0.0431
1607.00,0.0412
1606.00,0.0392
1605.00,0.0369
1604.00,0.0347
1603.00,0.0325
1602.00,0.0305
1601.00,0.0287
1600.00,0.0272
1599.00,0.0259
1598.00,0.0249
1597.00,0.0241
1596.00,0.0236
1595.00,0.0235
1594.00,0.0238
1593.00,0.0244
1592.00,0.0254
1591.00,0.0268
1590.00,0.0284
1589.00,0.0301
1588.00,0.0317
1587.00,0.0329
1586.00,0.0337
1585.00,0.0338
1584.00,0.0334
1583.00,0.0324
1582.00,0.0310
1581.00,0.0294
1580.00,0.0278
1579.00,0.0264
1578.00,0.0250
1577.00,0.0237
1576.00,0.0223
1575.00,0.0212
1574.00,0.0205
1573.00,0.0198
1572.00,0.0192
1571.00,0.0186
1570.00,0.0180
1569.00,0.0174
1568.00,0.0168
1567.00,0.0163
1566.00,0.0159
1565.00,0.0154
1564.00,0.0150
1563.00,0.0147
1562.00,0.0145
1561.00,0.0144
1560.00,0.0141
1559.00,0.0137
1558.00,0.0133
1557.00,0.0130
1556.00,0.0126
1555.00,0.0123
1554.00,0.0121
1553.00,0.0119
1552.00,0.0118
1551.00,0.0116
1550.00,0.0114
1549.00,0.0113
1548.00,0.0112
1547.00,0.0111
1546.00,0.0110
1545.00,0.0110
1544.00,0.0110
1543.00,0.0110
1542.00,0.0110
1541.00,0.0109
1540.00,0.0108
1539.00,0.0106
1538.00,0.0105
1537.00,0.0104
1536.00,0.0104
1535.00,0.0103
1534.00,0.0104
1533.00,0.0104
1532.00,0.0104
1531.00,0.0104
1530.00,0.0104
1529.00,0.0105
1528.00,0.0106
1527.00,0.0107
1526.00,0.0110
1525.00,0.0112
1524.00,0.0114
1523.00,0.0116
1522.00,0.0119
1521.00,0.0123
1520.00,0.0126
1519.00,0.0128
1518.00,0.0130
1517.00,0.0132
1516.00,0.0135
1515.00,0.0136
1514.00,0.0138
1513.00,0.0139
1512.00,0.0141
1511.00,0.0144
1510.00,0.0147
1509.00,0.0150
1508.00,0.0154
1507.00,0.0162
1506.00,0.0172
1505.00,0.0182
1504.00,0.0191
1503.00,0.0201
1502.00,0.0214
1501.00,0.0231
1500.00,0.0250
1499.00,0.0271
1498.00,0.0293
1497.00,0.0313
1496.00,0.0329
1495.00,0.0339
1494.00,0.0342
1493.00,0.0341
1492.00,0.0335
1491.00,0.0325
1490.00,0.0310
1489.00,0.0293
1488.00,0.0273
1487.00,0.0254
1486.00,0.0236
1485.00,0.0220
1484.00,0.0207
1483.00,0.0195
1482.00,0.0185
1481.00,0.0178
1480.00,0.0174
1479.00,0.0172
1478.00,0.0173
1477.00,0.0177
1476.00,0.0183
1475.00,0.0191
1474.00,0.0203
1473.00,0.0223
1472.00,0.0248
1471.00,0.0275
1470.00,0.0302
1469.00,0.0330
1468.00,0.0362
1467.00,0.0397
1466.00,0.0437
1465.00,0.0483
1464.00,0.0526
1463.00,0.0559
1462.00,0.0581
1461.00,0.0595
1460.00,0.0601
1459.00,0.0598
1458.00,0.0583
1457.00,0.0557
1456.00,0.0526
1455.00,0.0498
1454.00,0.0474
1453.00,0.0455
1452.00,0.0441
1451.00,0.0433
1450.00,0.0432
1449.00,0.0439
1448.00,0.0454
1447.00,0.0474
1446.00,0.0496
1445.00,0.0521
1444.00,0.0547
1443.00,0.0575
1442.00,0.0603
1441.00,0.0629
1440.00,0.0653
1439.00,0.0675
1438.00,0.0696
1437.00,0.0721
1436.00,0.0746
1435.00,0.0762
1434.00,0.0771
1433.00,0.0777
1432.00,0.0783
1431.00,0.0790
1430.00,0.0799
1429.00,0.0812
1428.00,0.0829
1427.00,0.0848
1426.00,0.0870
1425.00,0.0896
1424.00,0.0922
1423.00,0.0942
1422.00,0.0950
1421.00,0.0947
1420.00,0.0929
1419.00,0.0895
1418.00,0.0849
1417.00,0.0799
1416.00,0.0748
1415.00,0.0697
1414.00,0.0648
1413.00,0.0605
1412.00,0.0567
1411.00,0.0536
1410.00,0.0512
1409.00,0.0494
1408.00,0.0481
1407.00,0.0473
1406.00,0.0468
1405.00,0.0465
1404.00,0.0463
1403.00,0.0460
1402.00,0.0456
1401.00,0.0448
1400.00,0.0436
1399.00,0.0419
1398.00,0.0401
1397.00,0.0381
1396.00,0.0360
1395.00,0.0339
1394.00,0.0321
1393.00,0.0306
1392.00,0.0294
1391.00,0.0285
1390.00,0.0280
1389.00,0.0278
1388.00,0.0279
1387.00,0.0283
1386.00,0.0290
1385.00,0.0298
1384.00,0.0307
1383.00,0.0318
1382.00,0.0330
1381.00,0.0341
1380.00,0.0351
1379.00,0.0359
1378.00,0.0365
1377.00,0.0369
1376.00,0.0371
1375.00,0.0371
1374.00,0.0370
1373.00,0.0368
1372.00,0.0364
1371.00,0.0359
1370.00,0.0354
1369.00,0.0348
1368.00,0.0342
1367.00,0.0336
1366.00,0.0332
1365.00,0.0330
1364.00,0.0329
1363.00,0.0328
1362.00,0.0328
1361.00,0.0325
1360.00,0.0319
1359.00,0.0309
1358.00,0.0296
1357.00,0.0281
1356.00,0.0265
1355.00,0.0251
1354.00,0.0239
1353.00,0.0230
1352.00,0.0223
1351.00,0.0218
1350.00,0.0214
1349.00,0.0211
1348.00,0.0209
1347.00,0.0207
1346.00,0.0206
1345.00,0.0206
1344.00,0.0205
1343.00,0.0205
1342.00,0.0206
1341.00,0.0207
1340.00,0.0209
1339.00,0.0211
1338.00,0.0215
1337.00,0.0219
1336.00,0.0223
1335.00,0.0228
1334.00,0.0233
1333.00,0.0239
1332.00,0.0245
1331.00,0.0252
1330.00,0.0259
1329.00,0.0267
1328.00,0.0276
1327.00,0.0286
1326.00,0.0297
1325.00,0.0308
1324.00,0.0320
1323.00,0.0332
1322.00,0.0343
1321.00,0.0353
1320.00,0.0362
1319.00,0.0368
1318.00,0.0372
1317.00,0.0372
1316.00,0.0369
1315.00,0.0364
1314.00,0.0357
1313.00,0.0350
1312.00,0.0342
1311.00,0.0335
1310.00,0.0330
1309.00,0.0327
1308.00,0.0325
1307.00,0.0327
1306.00,0.0331
1305.00,0.0338
1304.00,0.0347
1303.00,0.0360
1302.00,0.0377
1301.00,0.0399
1300.00,0.0426
1299.00,0.0459
1298.00,0.0500
1297.00,0.0547
1296.00,0.0601
1295.00,0.0659
1294.00,0.0720
1293.00,0.0780
1292.00,0.0839
1291.00,0.0894
1290.00,0.0943
1289.00,0.0985
1288.00,0.1017
1287.00,0.1040
1286.00,0.1052
1285.00,0.1054
1284.00,0.1045
1283.00,0.1029
1282.00,0.1007
1281.00,0.0983
1280.00,0.0961
1279.00,0.0943
1278.00,0.0931
1277.00,0.0925
1276.00,0.0925
1275.00,0.0928
1274.00,0.0932
1273.00,0.0935
1272.00,0.0934
1271.00,0.0928
1270.00,0.0916
1269.00,0.0896
1268.00,0.0870
1267.00,0.0839
1266.00,0.0805
1265.00,0.0768
1264.00,0.0730
1263.00,0.0692
1262.00,0.0655
1261.00,0.0621
1260.00,0.0588
1259.00,0.0558
1258.00,0.0530
1257.00,0.0505
1256.00,0.0482
1255.00,0.0461
1254.00,0.0443
1253.00,0.0427
1252.00,0.0414
1251.00,0.0404
1250.00,0.0397
1249.00,0.0393
1248.00,0.0391
1247.00,0.0392
1246.00,0.0396
1245.00,0.0403
1244.00,0.0410
1243.00,0.0419
1242.00,0.0427
1241.00,0.0436
1240.00,0.0443
1239.00,0.0449
1238.00,0.0456
1237.00,0.0462
1236.00,0.0467
1235.00,0.0472
1234.00,0.0477
1233.00,0.0480
1232.00,0.0482
1231.00,0.0483
1230.00,0.0483
1229.00,0.0481
1228.00,0.0479
1227.00,0.0477
1226.00,0.0474
1225.00,0.0472
1224.00,0.0471
1223.00,0.0470
1222.00,0.0470
1221.00,0.0469
1220.00,0.0468
1219.00,0.0466
1218.00,0.0462
1217.00,0.0455
1216.00,0.0446
1215.00,0.0435
1214.00,0.0422
1213.00,0.0407
1212.00,0.0391
1211.00,0.0376
1210.00,0.0361
1209.00,0.0349
1208.00,0.0337
1207.00,0.0328
1206.00,0.0321
1205.00,0.0316
1204.00,0.0313
1203.00,0.0313
1202.00,0.0315
1201.00,0.0319
1200.00,0.0325
1199.00,0.0332
1198.00,0.0340
1197.00,0.0348
1196.00,0.0356
1195.00,0.0361
1194.00,0.0363
1193.00,0.0361
1192.00,0.0355
1191.00,0.0345
1190.00,0.0333
1189.00,0.0320
1188.00,0.0307
1187.00,0.0294
1186.00,0.0284
1185.00,0.0275
1184.00,0.0268
1183.00,0.0262
1182.00,0.0259
1181.00,0.0256
1180.00,0.0254
1179.00,0.0254
1178.00,0.0256
1177.00,0.0258
1176.00,0.0261
1175.00,0.0265
1174.00,0.0269
1173.00,0.0274
1172.00,0.0278
1171.00,0.0281
1170.00,0.0284
1169.00,0.0286
1168.00,0.0287
1167.00,0.0287
1166.00,0.0287
1165.00,0.0288
1164.00,0.0290
1163.00,0.0294
1162.00,0.0300
1161.00,0.0307
1160.00,0.0315
1159.00,0.0323
1158.00,0.0329
1157.00,0.0332
1156.00,0.0331
1155.00,0.0327
1154.00,0.0319
1153.00,0.0308
1152.00,0.0295
1151.00,0.0281
1150.00,0.0267
1149.00,0.0252
1148.00,0.0238
1147.00,0.0225
1146.00,0.0214
1145.00,0.0205
1144.00,0.0196
1143.00,0.0190
1142.00,0.0185
1141.00,0.0182
1140.00,0.0180
1139.00,0.0180
1138.00,0.0183
1137.00,0.0189
1136.00,0.0199
1135.00,0.0213
1134.00,0.0230
1133.00,0.0249
1132.00,0.0268
1131.00,0.0284
1130.00,0.0294
1129.00,0.0296
1128.00,0.0290
1127.00,0.0277
1126.00,0.0261
1125.00,0.0243
1124.00,0.0227
1123.00,0.0213
1122.00,0.0204
1121.00,0.0196
1120.00,0.0191
1119.00,0.0187
1118.00,0.0185
1117.00,0.0183
1116.00,0.0182
1115.00,0.0182
1114.00,0.0183
1113.00,0.0184
1112.00,0.0185
1111.00,0.0187
1110.00,0.0189
1109.00,0.0191
1108.00,0.0193
1107.00,0.0197
1106.00,0.0202
1105.00,0.0207
1104.00,0.0213
1103.00,0.0219
1102.00,0.0225
1101.00,0.0229
1100.00,0.0230
1099.00,0.0229
1098.00,0.0226
1097.00,0.0221
1096.00,0.0214
1095.00,0.0208
1094.00,0.0202
1093.00,0.0197
1092.00,0.0191
1091.00,0.0187
1090.00,0.0183
1089.00,0.0180
1088.00,0.0178
1087.00,0.0176
1086.00,0.0176
1085.00,0.0176
1084.00,0.0176
1083.00,0.0177
1082.00,0.0179
1081.00,0.0181
1080.00,0.0185
1079.00,0.0189
1078.00,0.0194
1077.00,0.0200
1076.00,0.0205
1075.00,0.0210
1074.00,0.0217
1073.00,0.0223
1072.00,0.0229
1071.00,0.0237
1070.00,0.0246
1069.00,0.0258
1068.00,0.0271
1067.00,0.0287
1066.00,0.0307
1065.00,0.0329
1064.00,0.0353
1063.00,0.0377
1062.00,0.0403
1061.00,0.0427
1060.00,0.0447
1059.00,0.0462
1058.00,0.0469
1057.00,0.0468
1056.00,0.0458
1055.00,0.0440
1054.00,0.0417
1053.00,0.0390
1052.00,0.0362
1051.00,0.0337
1050.00,0.0315
1049.00,0.0297
1048.00,0.0284
1047.00,0.0276
1046.00,0.0272
1045.00,0.0272
1044.00,0.0273
1043.00,0.0275
1042.00,0.0279
1041.00,0.0283
1040.00,0.0287
1039.00,0.0291
1038.00,0.0295
1037.00,0.0298
1036.00,0.0302
1035.00,0.0305
1034.00,0.0309
1033.00,0.0313
1032.00,0.0316
1031.00,0.0317
1030.00,0.0315
1029.00,0.0311
1028.00,0.0304
1027.00,0.0296
1026.00,0.0288
1025.00,0.0280
1024.00,0.0274
1023.00,0.0271
1022.00,0.0269
1021.00,0.0269
1020.00,0.0269
1019.00,0.0269
1018.00,0.0269
1017.00,0.0266
1016.00,0.0262
1015.00,0.0255
1014.00,0.0246
1013.00,0.0237
1012.00,0.0227
1011.00,0.0219
1010.00,0.0214
1009.00,0.0212
1008.00,0.0213
1007.00,0.0217
1006.00,0.0224
1005.00,0.0232
1004.00,0.0239
1003.00,0.0245
1002.00,0.0247
1001.00,0.0245
1000.00,0.0240
999.00,0.0233
998.00,0.0226
997.00,0.0218
996.00,0.0211
995.00,0.0204
994.00,0.0197
993.00,0.0192
992.00,0.0186
991.00,0.0181
990.00,0.0176
989.00,0.0171
988.00,0.0166
987.00,0.0162
986.00,0.0159
985.00,0.0155
984.00,0.0152
983.00,0.0149
982.00,0.0148
981.00,0.0147
980.00,0.0146
979.00,0.0146
978.00,0.0147
977.00,0.0147
976.00,0.0146
975.00,0.0145
974.00,0.0144
973.00,0.0143
972.00,0.0141
971.00,0.0139
970.00,0.0137
969.00,0.0135
968.00,0.0133
967.00,0.0131
966.00,0.0130
965.00,0.0128
964.00,0.0127
963.00,0.0125
962.00,0.0124
961.00,0.0122
960.00,0.0120
959.00,0.0118
958.00,0.0117
957.00,0.0116
956.00,0.0114
955.00,0.0113
954.00,0.0112
953.00,0.0111
952.00,0.0111
951.00,0.0111
950.00,0.0111
949.00,0.0112
948.00,0.0112
947.00,0.0113
946.00,0.0115
945.00,0.0116
944.00,0.0118
943.00,0.0121
942.00,0.0125
941.00,0.0130
940.00,0.0137
939.00,0.0144
938.00,0.0153
937.00,0.0163
936.00,0.0172
935.00,0.0181
934.00,0.0188
933.00,0.0191
932.00,0.0191
931.00,0.0189
930.00,0.0186
929.00,0.0183
928.00,0.0180
927.00,0.0178
926.00,0.0177
925.00,0.0175
924.00,0.0173
923.00,0.0170
922.00,0.0167
921.00,0.0164
920.00,0.0160
919.00,0.0157
918.00,0.0154
917.00,0.0152
916.00,0.0149
915.00,0.0146
914.00,0.0145
913.00,0.0143
912.00,0.0141
911.00,0.0141
910.00,0.0141
909.00,0.0143
908.00,0.0145
907.00,0.0148
906.00,0.0153
905.00,0.0158
904.00,0.0164
903.00,0.0171
902.00,0.0178
901.00,0.0185
900.00,0.0192
899.00,0.0197
898.00,0.0202
897.00,0.0205
896.00,0.0205
895.00,0.0204
894.00,0.0201
893.00,0.0197
892.00,0.0192
891.00,0.0187
890.00,0.0183
889.00,0.0179
888.00,0.0176
887.00,0.0175
886.00,0.0175
885.00,0.0175
884.00,0.0176
883.00,0.0178
882.00,0.0181
881.00,0.0184
880.00,0.0189
879.00,0.0194
878.00,0.0201
877.00,0.0209
876.00,0.0217
875.00,0.0224
874.00,0.0232
873.00,0.0239
872.00,0.0245
871.00,0.0249
870.00,0.0253
869.00,0.0255
868.00,0.0256
867.00,0.0256
866.00,0.0257
865.00,0.0258
864.00,0.0259
863.00,0.0261
862.00,0.0264
861.00,0.0267
860.00,0.0269
859.00,0.0273
858.00,0.0278
857.00,0.0284
856.00,0.0290
855.00,0.0297
854.00,0.0305
853.00,0.0313
852.00,0.0321
851.00,0.0328
850.00,0.0336
849.00,0.0343
848.00,0.0349
847.00,0.0354
846.00,0.0359
845.00,0.0362
844.00,0.0364
843.00,0.0365
842.00,0.0365
841.00,0.0364
840.00,0.0363
839.00,0.0361
838.00,0.0359
837.00,0.0358
836.00,0.0356
835.00,0.0354
834.00,0.0353
833.00,0.0352
832.00,0.0350
831.00,0.0348
830.00,0.0347
829.00,0.0345
828.00,0.0343
827.00,0.0340
826.00,0.0337
825.00,0.0334
824.00,0.0331
823.00,0.0328
822.00,0.0327
821.00,0.0327
820.00,0.0326
819.00,0.0325
818.00,0.0325
817.00,0.0324
816.00,0.0321
815.00,0.0319
814.00,0.0316
813.00,0.0311
812.00,0.0303
811.00,0.0293
810.00,0.0282
809.00,0.0270
808.00,0.0255
807.00,0.0242
806.00,0.0230
805.00,0.0219
804.00,0.0210
803.00,0.0203
802.00,0.0198
801.00,0.0195
800.00,0.0192
799.00,0.0191
798.00,0.0191
797.00,0.0191
796.00,0.0191
795.00,0.0190
794.00,0.0191
793.00,0.0192
792.00,0.0192
791.00,0.0193
790.00,0.0195
789.00,0.0196
788.00,0.0196
787.00,0.0196
786.00,0.0197
785.00,0.0197
784.00,0.0197
783.00,0.0199
782.00,0.0201
781.00,0.0204
780.00,0.0207
779.00,0.0210
778.00,0.0213
777.00,0.0216
776.00,0.0216
775.00,0.0214
774.00,0.0213
773.00,0.0212
772.00,0.0212
771.00,0.0213
770.00,0.0215
769.00,0.0218
768.00,0.0221
767.00,0.0225
766.00,0.0230
765.00,0.0234
764.00,0.0238
763.00,0.0243
762.00,0.0249
761.00,0.0254
760.00,0.0260
759.00,0.0265
758.00,0.0272
757.00,0.0278
756.00,0.0283
755.00,0.0289
754.00,0.0295
753.00,0.0300
752.00,0.0306
751.00,0.0311
750.00,0.0318
749.00,0.0325
748.00,0.0331
747.00,0.0337
746.00,0.0344
745.00,0.0351
744.00,0.0359
743.00,0.0367
742.00,0.0377
741.00,0.0388
740.00,0.0399
739.00,0.0410
738.00,0.0420
737.00,0.0427
736.00,0.0429
735.00,0.0428
734.00,0.0424
733.00,0.0418
732.00,0.0409
731.00,0.0399
730.00,0.0390
729.00,0.0380
728.00,0.0370
727.00,0.0360
726.00,0.0351
725.00,0.0343
724.00,0.0335
723.00,0.0328
722.00,0.0322
721.00,0.0316
720.00,0.0311
719.00,0.0308
718.00,0.0307
717.00,0.0306
716.00,0.0304
715.00,0.0304
714.00,0.0304
713.00,0.0303
712.00,0.0302
711.00,0.0300
710.00,0.0299
709.00,0.0298
708.00,0.0297
707.00,0.0296
706.00,0.0298
705.00,0.0299
704.00,0.0299
703.00,0.0300
702.00,0.0301
701.00,0.0302
700.00,0.0304
699.00,0.0306
698.00,0.0311
697.00,0.0317
696.00,0.0324
695.00,0.0331
694.00,0.0338
693.00,0.0345
692.00,0.0351
691.00,0.0357
690.00,0.0362
689.00,0.0366
688.00,0.0368
687.00,0.0369
686.00,0.0371
685.00,0.0373
684.00,0.0374
683.00,0.0376
682.00,0.0378
681.00,0.0380
680.00,0.0382
679.00,0.0384
678.00,0.0387
677.00,0.0391
676.00,0.0394
675.00,0.0398
674.00,0.0405
673.00,0.0412
672.00,0.0418
671.00,0.0423
670.00,0.0430
669.00,0.0440
668.00,0.0452
667.00,0.0464
666.00,0.0473
665.00,0.0480
664.00,0.0487
663.00,0.0496
662.00,0.0507
661.00,0.0519
660.00,0.0530
659.00,0.0543
658.00,0.0556
657.00,0.0569
656.00,0.0582
655.00,0.0594
654.00,0.0607
653.00,0.0618
652.00,0.0627
651.00,0.0635
650.00,0.0642
649.00,0.0647
648.00,0.0649
647.00,0.0649
646.00,0.0647
645.00,0.0643
644.00,0.0637
643.00,0.0629
642.00,0.0621
641.00,0.0611
640.00,0.0600
639.00,0.0589
638.00,0.0579
637.00,0.0570
636.00,0.0561
635.00,0.0552
634.00,0.0545
633.00,0.0539
632.00,0.0531
631.00,0.0525
630.00,0.0521
629.00,0.0518
628.00,0.0515
627.00,0.0512
626.00,0.0511
625.00,0.0510
624.00,0.0507
623.00,0.0505
622.00,0.0503
621.00,0.0501
620.00,0.0498
619.00,0.0496
618.00,0.0496
617.00,0.0496
616.00,0.0494
615.00,0.0493
614.00,0.0492
613.00,0.0492
612.00,0.0492
611.00,0.0493
610.00,0.0496
609.00,0.0499
608.00,0.0501
607.00,0.0503
606.00,0.0507
605.00,0.0511
604.00,0.0514
603.00,0.0516
602.00,0.0518
601.00,0.0520
600.00,0.0521
599.00,0.0522
598.00,0.0525
597.00,0.0527
596.00,0.0527
595.00,0.0527
594.00,0.0529
593.00,0.0532
592.00,0.0535
591.00,0.0539
590.00,0.0548
589.00,0.0559
588.00,0.0571
587.00,0.0586
586.00,0.0604
585.00,0.0624
584.00,0.0641
583.00,0.0656
582.00,0.0669
581.00,0.0680
580.00,0.0688
579.00,0.0694
578.00,0.0700
577.00,0.0705
576.00,0.0707
575.00,0.0709
574.00,0.0713
573.00,0.0715
572.00,0.0715
571.00,0.0713
570.00,0.0712
569.00,0.0710
568.00,0.0706
567.00,0.0702
566.00,0.0699
565.00,0.0694
564.00,0.0686
563.00,0.0678
562.00,0.0671
561.00,0.0664
560.00,0.0655
559.00,0.0648
558.00,0.0643
557.00,0.0638
556.00,0.0632
555.00,0.0627
554.00,0.0622
553.00,0.0617
552.00,0.0609
551.00,0.0602
550.00,0.0597
549.00,0.0594
548.00,0.0589
547.00,0.0584
546.00,0.0580
545.00,0.0576
544.00,0.0570
543.00,0.0566
542.00,0.0563
541.00,0.0561
540.00,0.0557
539.00,0.0555
538.00,0.0556
537.00,0.0559
536.00,0.0562
535.00,0.0565
534.00,0.0572
533.00,0.0578
532.00,0.0580
531.00,0.0580
530.00,0.0581
529.00,0.0579
528.00,0.0573
527.00,0.0567
526.00,0.0562
525.00,0.0558
524.00,0.0552
523.00,0.0547
522.00,0.0546
521.00,0.0544
520.00,0.0540
519.00,0.0536
518.00,0.0536
517.00,0.0536
516.00,0.0534
515.00,0.0532
514.00,0.0534
513.00,0.0536
512.00,0.0536
511.00,0.0536
510.00,0.0538
509.00,0.0541
508.00,0.0541
507.00,0.0539
506.00,0.0540
505.00,0.0539
504.00,0.0535
503.00,0.0533
502.00,0.0533
501.00,0.0533
500.00,0.0529
499.00,0.0528
498.00,0.0530
497.00,0.0532
496.00,0.0530
495.00,0.0529
494.00,0.0531
493.00,0.0533
492.00,0.0533
491.00,0.0534
490.00,0.0538
489.00,0.0540
488.00,0.0538
487.00,0.0535
486.00,0.0536
485.00,0.0537
484.00,0.0537
483.00,0.0538
482.00,0.0542
481.00,0.0544
480.00,0.0541
479.00,0.0537
478.00,0.0537
477.00,0.0537
476.00,0.0536
475.00,0.0536
474.00,0.0540
473.00,0.0544
472.00,0.0542
471.00,0.0540
470.00,0.0543
469.00,0.0545
468.00,0.0542
467.00,0.0539
466.00,0.0540
465.00,0.0540
464.00,0.0534
463.00,0.0530
462.00,0.0533
461.00,0.0536
460.00,0.0533
459.00,0.0529
458.00,0.0530
457.00,0.0532
456.00,0.0529
455.00,0.0527
454.00,0.0530
453.00,0.0533
452.00,0.0529
451.00,0.0526
450.00,0.0526
449.00,0.0526
448.00,0.0520
447.00,0.0515
446.00,0.0517
445.00,0.0518
444.00,0.0513
443.00,0.0509
442.00,0.0511
441.00,0.0514
440.00,0.0511
439.00,0.0508
438.00,0.0509
437.00,0.0509
436.00,0.0505
435.00,0.0504
434.00,0.0511
433.00,0.0515
432.00,0.0509
431.00,0.0502
430.00,0.0502
429.00,0.0504
428.00,0.0500
427.00,0.0497
426.00,0.0500
425.00,0.0502
424.00,0.0494
423.00,0.0488
422.00,0.0491
421.00,0.0496
420.00,0.0493
419.00,0.0490
418.00,0.0502
417.00,0.0514
416.00,0.0518
415.00,0.0524
414.00,0.0535
413.00,0.0538
412.00,0.0529
411.00,0.0524
410.00,0.0534
409.00,0.0543
408.00,0.0532
407.00,0.0518
406.00,0.0514
405.00,0.0512
404.00,0.0497
403.00,0.0485
402.00,0.0488
401.00,0.0494
400.00,0.0484
