Created as New Dataset,Sample 1059 By YargerLab Date Monday, August 04 2025
cm-1,A
4000.00,0.0018
3999.00,0.0018
3998.00,0.0019
3997.00,0.0018
3996.00,0.0018
3995.00,0.0018
3994.00,0.0018
3993.00,0.0018
3992.00,0.0018
3991.00,0.0018
3990.00,0.0018
3989.00,0.0018
3988.00,0.0018
3987.00,0.0018
3986.00,0.0018
3985.00,0.0018
3984.00,0.0018
3983.00,0.0018
3982.00,0.0018
3981.00,0.0018
3980.00,0.0018
3979.00,0.0018
3978.00,0.0018
3977.00,0.0018
3976.00,0.0018
3975.00,0.0018
3974.00,0.0018
3973.00,0.0018
3972.00,0.0018
3971.00,0.0017
3970.00,0.0017
3969.00,0.0017
3968.00,0.0018
3967.00,0.0018
3966.00,0.0018
3965.00,0.0018
3964.00,0.0018
3963.00,0.0018
3962.00,0.0018
3961.00,0.0018
3960.00,0.0018
3959.00,0.0018
3958.00,0.0018
3957.00,0.0018
3956.00,0.0018
3955.00,0.0018
3954.00,0.0018
3953.00,0.0018
3952.00,0.0018
3951.00,0.0018
3950.00,0.0018
3949.00,0.0018
3948.00,0.0018
3947.00,0.0018
3946.00,0.0018
3945.00,0.0017
3944.00,0.0017
3943.00,0.0017
3942.00,0.0017
3941.00,0.0017
3940.00,0.0017
3939.00,0.0017
3938.00,0.0017
3937.00,0.0017
3936.00,0.0017
3935.00,0.0017
3934.00,0.0017
3933.00,0.0017
3932.00,0.0018
3931.00,0.0017
3930.00,0.0017
3929.00,0.0017
3928.00,0.0017
3927.00,0.0017
3926.00,0.0017
3925.00,0.0017
3924.00,0.0017
3923.00,0.0018
3922.00,0.0018
3921.00,0.0017
3920.00,0.0017
3919.00,0.0017
3918.00,0.0017
3917.00,0.0017
3916.00,0.0017
3915.00,0.0017
3914.00,0.0017
3913.00,0.0017
3912.00,0.0017
3911.00,0.0017
3910.00,0.0017
3909.00,0.0017
3908.00,0.0018
3907.00,0.0018
3906.00,0.0018
3905.00,0.0018
3904.00,0.0018
3903.00,0.0018
3902.00,0.0018
3901.00,0.0018
3900.00,0.0017
3899.00,0.0017
3898.00,0.0017
3897.00,0.0017
3896.00,0.0017
3895.00,0.0017
3894.00,0.0018
3893.00,0.0018
3892.00,0.0018
3891.00,0.0018
3890.00,0.0018
3889.00,0.0018
3888.00,0.0018
3887.00,0.0018
3886.00,0.0017
3885.00,0.0017
3884.00,0.0017
3883.00,0.0017
3882.00,0.0017
3881.00,0.0017
3880.00,0.0017
3879.00,0.0017
3878.00,0.0017
3877.00,0.0017
3876.00,0.0017
3875.00,0.0017
3874.00,0.0018
3873.00,0.0018
3872.00,0.0018
3871.00,0.0018
3870.00,0.0018
3869.00,0.0018
3868.00,0.0018
3867.00,0.0018
3866.00,0.0017
3865.00,0.0017
3864.00,0.0017
3863.00,0.0018
3862.00,0.0018
3861.00,0.0018
3860.00,0.0018
3859.00,0.0018
3858.00,0.0018
3857.00,0.0018
3856.00,0.0018
3855.00,0.0017
3854.00,0.0017
3853.00,0.0017
3852.00,0.0017
3851.00,0.0017
3850.00,0.0017
3849.00,0.0017
3848.00,0.0018
3847.00,0.0018
3846.00,0.0018
3845.00,0.0019
3844.00,0.0019
3843.00,0.0019
3842.00,0.0019
3841.00,0.0019
3840.00,0.0019
3839.00,0.0019
3838.00,0.0019
3837.00,0.0019
3836.00,0.0018
3835.00,0.0018
3834.00,0.0018
3833.00,0.0018
3832.00,0.0018
3831.00,0.0018
3830.00,0.0018
3829.00,0.0018
3828.00,0.0018
3827.00,0.0019
3826.00,0.0019
3825.00,0.0019
3824.00,0.0020
3823.00,0.0020
3822.00,0.0019
3821.00,0.0019
3820.00,0.0019
3819.00,0.0019
3818.00,0.0018
3817.00,0.0018
3816.00,0.0018
3815.00,0.0018
3814.00,0.0018
3813.00,0.0017
3812.00,0.0017
3811.00,0.0018
3810.00,0.0018
3809.00,0.0018
3808.00,0.0018
3807.00,0.0019
3806.00,0.0019
3805.00,0.0019
3804.00,0.0019
3803.00,0.0019
3802.00,0.0019
3801.00,0.0019
3800.00,0.0018
3799.00,0.0018
3798.00,0.0018
3797.00,0.0017
3796.00,0.0017
3795.00,0.0017
3794.00,0.0017
3793.00,0.0017
3792.00,0.0017
3791.00,0.0017
3790.00,0.0017
3789.00,0.0018
3788.00,0.0018
3787.00,0.0018
3786.00,0.0018
3785.00,0.0018
3784.00,0.0018
3783.00,0.0018
3782.00,0.0018
3781.00,0.0018
3780.00,0.0019
3779.00,0.0019
3778.00,0.0018
3777.00,0.0018
3776.00,0.0018
3775.00,0.0018
3774.00,0.0018
3773.00,0.0018
3772.00,0.0018
3771.00,0.0018
3770.00,0.0018
3769.00,0.0018
3768.00,0.0018
3767.00,0.0018
3766.00,0.0018
3765.00,0.0018
3764.00,0.0018
3763.00,0.0019
3762.00,0.0019
3761.00,0.0019
3760.00,0.0019
3759.00,0.0019
3758.00,0.0019
3757.00,0.0019
3756.00,0.0020
3755.00,0.0020
3754.00,0.0020
3753.00,0.0020
3752.00,0.0020
3751.00,0.0019
3750.00,0.0019
3749.00,0.0019
3748.00,0.0019
3747.00,0.0019
3746.00,0.0018
3745.00,0.0018
3744.00,0.0019
3743.00,0.0019
3742.00,0.0019
3741.00,0.0019
3740.00,0.0019
3739.00,0.0019
3738.00,0.0020
3737.00,0.0020
3736.00,0.0019
3735.00,0.0019
3734.00,0.0018
3733.00,0.0018
3732.00,0.0017
3731.00,0.0017
3730.00,0.0018
3729.00,0.0018
3728.00,0.0018
3727.00,0.0018
3726.00,0.0018
3725.00,0.0018
3724.00,0.0018
3723.00,0.0018
3722.00,0.0018
3721.00,0.0018
3720.00,0.0018
3719.00,0.0018
3718.00,0.0018
3717.00,0.0018
3716.00,0.0018
3715.00,0.0019
3714.00,0.0019
3713.00,0.0019
3712.00,0.0020
3711.00,0.0020
3710.00,0.0019
3709.00,0.0019
3708.00,0.0019
3707.00,0.0018
3706.00,0.0018
3705.00,0.0019
3704.00,0.0019
3703.00,0.0018
3702.00,0.0018
3701.00,0.0018
3700.00,0.0019
3699.00,0.0019
3698.00,0.0019
3697.00,0.0020
3696.00,0.0020
3695.00,0.0021
3694.00,0.0021
3693.00,0.0022
3692.00,0.0022
3691.00,0.0022
3690.00,0.0022
3689.00,0.0023
3688.00,0.0023
3687.00,0.0024
3686.00,0.0024
3685.00,0.0025
3684.00,0.0026
3683.00,0.0027
3682.00,0.0028
3681.00,0.0028
3680.00,0.0029
3679.00,0.0030
3678.00,0.0031
3677.00,0.0031
3676.00,0.0030
3675.00,0.0030
3674.00,0.0031
3673.00,0.0031
3672.00,0.0031
3671.00,0.0031
3670.00,0.0032
3669.00,0.0032
3668.00,0.0033
3667.00,0.0033
3666.00,0.0033
3665.00,0.0033
3664.00,0.0034
3663.00,0.0034
3662.00,0.0035
3661.00,0.0036
3660.00,0.0037
3659.00,0.0037
3658.00,0.0037
3657.00,0.0038
3656.00,0.0039
3655.00,0.0040
3654.00,0.0041
3653.00,0.0042
3652.00,0.0042
3651.00,0.0043
3650.00,0.0044
3649.00,0.0045
3648.00,0.0045
3647.00,0.0045
3646.00,0.0046
3645.00,0.0046
3644.00,0.0047
3643.00,0.0048
3642.00,0.0049
3641.00,0.0049
3640.00,0.0050
3639.00,0.0051
3638.00,0.0052
3637.00,0.0053
3636.00,0.0053
3635.00,0.0054
3634.00,0.0055
3633.00,0.0056
3632.00,0.0056
3631.00,0.0057
3630.00,0.0058
3629.00,0.0059
3628.00,0.0060
3627.00,0.0061
3626.00,0.0062
3625.00,0.0062
3624.00,0.0063
3623.00,0.0063
3622.00,0.0064
3621.00,0.0065
3620.00,0.0066
3619.00,0.0067
3618.00,0.0069
3617.00,0.0071
3616.00,0.0072
3615.00,0.0073
3614.00,0.0074
3613.00,0.0075
3612.00,0.0076
3611.00,0.0077
3610.00,0.0078
3609.00,0.0078
3608.00,0.0080
3607.00,0.0081
3606.00,0.0082
3605.00,0.0084
3604.00,0.0085
3603.00,0.0086
3602.00,0.0087
3601.00,0.0088
3600.00,0.0090
3599.00,0.0091
3598.00,0.0092
3597.00,0.0093
3596.00,0.0095
3595.00,0.0096
3594.00,0.0097
3593.00,0.0099
3592.00,0.0100
3591.00,0.0101
3590.00,0.0102
3589.00,0.0104
3588.00,0.0106
3587.00,0.0108
3586.00,0.0110
3585.00,0.0112
3584.00,0.0113
3583.00,0.0114
3582.00,0.0115
3581.00,0.0116
3580.00,0.0118
3579.00,0.0119
3578.00,0.0121
3577.00,0.0123
3576.00,0.0125
3575.00,0.0126
3574.00,0.0128
3573.00,0.0130
3572.00,0.0132
3571.00,0.0133
3570.00,0.0134
3569.00,0.0135
3568.00,0.0137
3567.00,0.0139
3566.00,0.0141
3565.00,0.0143
3564.00,0.0145
3563.00,0.0146
3562.00,0.0147
3561.00,0.0149
3560.00,0.0150
3559.00,0.0152
3558.00,0.0153
3557.00,0.0155
3556.00,0.0156
3555.00,0.0157
3554.00,0.0159
3553.00,0.0161
3552.00,0.0163
3551.00,0.0164
3550.00,0.0166
3549.00,0.0167
3548.00,0.0168
3547.00,0.0169
3546.00,0.0171
3545.00,0.0173
3544.00,0.0174
3543.00,0.0176
3542.00,0.0177
3541.00,0.0178
3540.00,0.0179
3539.00,0.0180
3538.00,0.0182
3537.00,0.0183
3536.00,0.0184
3535.00,0.0185
3534.00,0.0186
3533.00,0.0187
3532.00,0.0188
3531.00,0.0189
3530.00,0.0190
3529.00,0.0191
3528.00,0.0193
3527.00,0.0194
3526.00,0.0195
3525.00,0.0197
3524.00,0.0198
3523.00,0.0199
3522.00,0.0200
3521.00,0.0200
3520.00,0.0201
3519.00,0.0203
3518.00,0.0204
3517.00,0.0205
3516.00,0.0206
3515.00,0.0207
3514.00,0.0207
3513.00,0.0208
3512.00,0.0209
3511.00,0.0210
3510.00,0.0211
3509.00,0.0212
3508.00,0.0214
3507.00,0.0215
3506.00,0.0215
3505.00,0.0216
3504.00,0.0217
3503.00,0.0218
3502.00,0.0219
3501.00,0.0220
3500.00,0.0221
3499.00,0.0222
3498.00,0.0222
3497.00,0.0223
3496.00,0.0224
3495.00,0.0225
3494.00,0.0226
3493.00,0.0227
3492.00,0.0227
3491.00,0.0227
3490.00,0.0228
3489.00,0.0229
3488.00,0.0229
3487.00,0.0230
3486.00,0.0231
3485.00,0.0232
3484.00,0.0232
3483.00,0.0233
3482.00,0.0234
3481.00,0.0235
3480.00,0.0236
3479.00,0.0237
3478.00,0.0237
3477.00,0.0237
3476.00,0.0238
3475.00,0.0239
3474.00,0.0239
3473.00,0.0240
3472.00,0.0241
3471.00,0.0242
3470.00,0.0242
3469.00,0.0243
3468.00,0.0244
3467.00,0.0244
3466.00,0.0244
3465.00,0.0245
3464.00,0.0245
3463.00,0.0246
3462.00,0.0246
3461.00,0.0246
3460.00,0.0247
3459.00,0.0247
3458.00,0.0248
3457.00,0.0248
3456.00,0.0249
3455.00,0.0249
3454.00,0.0250
3453.00,0.0250
3452.00,0.0251
3451.00,0.0251
3450.00,0.0251
3449.00,0.0251
3448.00,0.0251
3447.00,0.0252
3446.00,0.0252
3445.00,0.0252
3444.00,0.0253
3443.00,0.0253
3442.00,0.0254
3441.00,0.0254
3440.00,0.0255
3439.00,0.0255
3438.00,0.0256
3437.00,0.0256
3436.00,0.0256
3435.00,0.0256
3434.00,0.0256
3433.00,0.0256
3432.00,0.0257
3431.00,0.0257
3430.00,0.0257
3429.00,0.0257
3428.00,0.0257
3427.00,0.0257
3426.00,0.0257
3425.00,0.0257
3424.00,0.0257
3423.00,0.0257
3422.00,0.0257
3421.00,0.0257
3420.00,0.0257
3419.00,0.0257
3418.00,0.0257
3417.00,0.0257
3416.00,0.0257
3415.00,0.0257
3414.00,0.0257
3413.00,0.0257
3412.00,0.0257
3411.00,0.0257
3410.00,0.0257
3409.00,0.0257
3408.00,0.0257
3407.00,0.0257
3406.00,0.0257
3405.00,0.0257
3404.00,0.0257
3403.00,0.0257
3402.00,0.0257
3401.00,0.0257
3400.00,0.0256
3399.00,0.0256
3398.00,0.0255
3397.00,0.0255
3396.00,0.0255
3395.00,0.0255
3394.00,0.0255
3393.00,0.0255
3392.00,0.0255
3391.00,0.0254
3390.00,0.0254
3389.00,0.0254
3388.00,0.0254
3387.00,0.0253
3386.00,0.0252
3385.00,0.0252
3384.00,0.0251
3383.00,0.0251
3382.00,0.0251
3381.00,0.0250
3380.00,0.0250
3379.00,0.0250
3378.00,0.0249
3377.00,0.0249
3376.00,0.0248
3375.00,0.0248
3374.00,0.0248
3373.00,0.0247
3372.00,0.0246
3371.00,0.0245
3370.00,0.0244
3369.00,0.0243
3368.00,0.0243
3367.00,0.0243
3366.00,0.0243
3365.00,0.0243
3364.00,0.0243
3363.00,0.0243
3362.00,0.0242
3361.00,0.0242
3360.00,0.0242
3359.00,0.0241
3358.00,0.0241
3357.00,0.0241
3356.00,0.0241
3355.00,0.0240
3354.00,0.0239
3353.00,0.0238
3352.00,0.0237
3351.00,0.0237
3350.00,0.0237
3349.00,0.0237
3348.00,0.0237
3347.00,0.0237
3346.00,0.0236
3345.00,0.0236
3344.00,0.0235
3343.00,0.0235
3342.00,0.0234
3341.00,0.0233
3340.00,0.0233
3339.00,0.0232
3338.00,0.0232
3337.00,0.0232
3336.00,0.0232
3335.00,0.0233
3334.00,0.0233
3333.00,0.0233
3332.00,0.0233
3331.00,0.0232
3330.00,0.0232
3329.00,0.0231
3328.00,0.0230
3327.00,0.0230
3326.00,0.0229
3325.00,0.0229
3324.00,0.0230
3323.00,0.0230
3322.00,0.0231
3321.00,0.0231
3320.00,0.0231
3319.00,0.0231
3318.00,0.0231
3317.00,0.0231
3316.00,0.0230
3315.00,0.0230
3314.00,0.0229
3313.00,0.0229
3312.00,0.0228
3311.00,0.0227
3310.00,0.0226
3309.00,0.0225
3308.00,0.0224
3307.00,0.0223
3306.00,0.0224
3305.00,0.0225
3304.00,0.0226
3303.00,0.0227
3302.00,0.0228
3301.00,0.0228
3300.00,0.0228
3299.00,0.0228
3298.00,0.0227
3297.00,0.0226
3296.00,0.0226
3295.00,0.0225
3294.00,0.0225
3293.00,0.0225
3292.00,0.0225
3291.00,0.0226
3290.00,0.0227
3289.00,0.0228
3288.00,0.0228
3287.00,0.0228
3286.00,0.0228
3285.00,0.0227
3284.00,0.0227
3283.00,0.0227
3282.00,0.0226
3281.00,0.0226
3280.00,0.0226
3279.00,0.0225
3278.00,0.0224
3277.00,0.0224
3276.00,0.0223
3275.00,0.0223
3274.00,0.0222
3273.00,0.0221
3272.00,0.0221
3271.00,0.0221
3270.00,0.0221
3269.00,0.0221
3268.00,0.0221
3267.00,0.0221
3266.00,0.0221
3265.00,0.0221
3264.00,0.0221
3263.00,0.0221
3262.00,0.0220
3261.00,0.0219
3260.00,0.0219
3259.00,0.0218
3258.00,0.0218
3257.00,0.0217
3256.00,0.0217
3255.00,0.0216
3254.00,0.0216
3253.00,0.0216
3252.00,0.0215
3251.00,0.0215
3250.00,0.0214
3249.00,0.0214
3248.00,0.0213
3247.00,0.0213
3246.00,0.0213
3245.00,0.0212
3244.00,0.0212
3243.00,0.0212
3242.00,0.0212
3241.00,0.0211
3240.00,0.0211
3239.00,0.0211
3238.00,0.0210
3237.00,0.0209
3236.00,0.0209
3235.00,0.0208
3234.00,0.0207
3233.00,0.0206
3232.00,0.0206
3231.00,0.0205
3230.00,0.0205
3229.00,0.0205
3228.00,0.0204
3227.00,0.0204
3226.00,0.0203
3225.00,0.0203
3224.00,0.0203
3223.00,0.0202
3222.00,0.0202
3221.00,0.0201
3220.00,0.0200
3219.00,0.0200
3218.00,0.0199
3217.00,0.0199
3216.00,0.0198
3215.00,0.0197
3214.00,0.0197
3213.00,0.0196
3212.00,0.0196
3211.00,0.0195
3210.00,0.0195
3209.00,0.0194
3208.00,0.0193
3207.00,0.0193
3206.00,0.0192
3205.00,0.0191
3204.00,0.0190
3203.00,0.0189
3202.00,0.0188
3201.00,0.0188
3200.00,0.0188
3199.00,0.0187
3198.00,0.0187
3197.00,0.0186
3196.00,0.0185
3195.00,0.0185
3194.00,0.0184
3193.00,0.0184
3192.00,0.0183
3191.00,0.0183
3190.00,0.0182
3189.00,0.0182
3188.00,0.0181
3187.00,0.0180
3186.00,0.0180
3185.00,0.0179
3184.00,0.0179
3183.00,0.0178
3182.00,0.0177
3181.00,0.0176
3180.00,0.0176
3179.00,0.0176
3178.00,0.0175
3177.00,0.0175
3176.00,0.0174
3175.00,0.0174
3174.00,0.0173
3173.00,0.0173
3172.00,0.0172
3171.00,0.0172
3170.00,0.0171
3169.00,0.0171
3168.00,0.0170
3167.00,0.0170
3166.00,0.0169
3165.00,0.0168
3164.00,0.0168
3163.00,0.0167
3162.00,0.0167
3161.00,0.0166
3160.00,0.0166
3159.00,0.0165
3158.00,0.0164
3157.00,0.0164
3156.00,0.0163
3155.00,0.0162
3154.00,0.0162
3153.00,0.0161
3152.00,0.0161
3151.00,0.0161
3150.00,0.0160
3149.00,0.0160
3148.00,0.0159
3147.00,0.0159
3146.00,0.0158
3145.00,0.0157
3144.00,0.0157
3143.00,0.0156
3142.00,0.0156
3141.00,0.0156
3140.00,0.0155
3139.00,0.0154
3138.00,0.0154
3137.00,0.0153
3136.00,0.0153
3135.00,0.0152
3134.00,0.0152
3133.00,0.0151
3132.00,0.0151
3131.00,0.0151
3130.00,0.0150
3129.00,0.0150
3128.00,0.0150
3127.00,0.0150
3126.00,0.0149
3125.00,0.0149
3124.00,0.0149
3123.00,0.0149
3122.00,0.0148
3121.00,0.0148
3120.00,0.0147
3119.00,0.0147
3118.00,0.0147
3117.00,0.0146
3116.00,0.0146
3115.00,0.0146
3114.00,0.0145
3113.00,0.0145
3112.00,0.0144
3111.00,0.0144
3110.00,0.0143
3109.00,0.0143
3108.00,0.0142
3107.00,0.0141
3106.00,0.0141
3105.00,0.0140
3104.00,0.0140
3103.00,0.0139
3102.00,0.0139
3101.00,0.0138
3100.00,0.0138
3099.00,0.0138
3098.00,0.0138
3097.00,0.0137
3096.00,0.0137
3095.00,0.0137
3094.00,0.0137
3093.00,0.0136
3092.00,0.0136
3091.00,0.0136
3090.00,0.0136
3089.00,0.0136
3088.00,0.0136
3087.00,0.0136
3086.00,0.0136
3085.00,0.0136
3084.00,0.0136
3083.00,0.0136
3082.00,0.0135
3081.00,0.0135
3080.00,0.0135
3079.00,0.0135
3078.00,0.0135
3077.00,0.0135
3076.00,0.0134
3075.00,0.0134
3074.00,0.0134
3073.00,0.0133
3072.00,0.0133
3071.00,0.0132
3070.00,0.0131
3069.00,0.0131
3068.00,0.0130
3067.00,0.0130
3066.00,0.0130
3065.00,0.0129
3064.00,0.0129
3063.00,0.0128
3062.00,0.0127
3061.00,0.0127
3060.00,0.0127
3059.00,0.0126
3058.00,0.0126
3057.00,0.0126
3056.00,0.0125
3055.00,0.0125
3054.00,0.0125
3053.00,0.0125
3052.00,0.0125
3051.00,0.0124
3050.00,0.0124
3049.00,0.0124
3048.00,0.0123
3047.00,0.0123
3046.00,0.0123
3045.00,0.0122
3044.00,0.0122
3043.00,0.0122
3042.00,0.0121
3041.00,0.0121
3040.00,0.0121
3039.00,0.0121
3038.00,0.0120
3037.00,0.0120
3036.00,0.0120
3035.00,0.0120
3034.00,0.0120
3033.00,0.0120
3032.00,0.0120
3031.00,0.0120
3030.00,0.0119
3029.00,0.0119
3028.00,0.0119
3027.00,0.0118
3026.00,0.0118
3025.00,0.0118
3024.00,0.0117
3023.00,0.0117
3022.00,0.0117
3021.00,0.0117
3020.00,0.0118
3019.00,0.0118
3018.00,0.0119
3017.00,0.0120
3016.00,0.0120
3015.00,0.0121
3014.00,0.0122
3013.00,0.0123
3012.00,0.0124
3011.00,0.0126
3010.00,0.0127
3009.00,0.0129
3008.00,0.0132
3007.00,0.0134
3006.00,0.0137
3005.00,0.0140
3004.00,0.0144
3003.00,0.0148
3002.00,0.0152
3001.00,0.0156
3000.00,0.0160
2999.00,0.0165
2998.00,0.0171
2997.00,0.0176
2996.00,0.0182
2995.00,0.0187
2994.00,0.0193
2993.00,0.0199
2992.00,0.0206
2991.00,0.0212
2990.00,0.0219
2989.00,0.0225
2988.00,0.0231
2987.00,0.0237
2986.00,0.0243
2985.00,0.0249
2984.00,0.0255
2983.00,0.0261
2982.00,0.0266
2981.00,0.0270
2980.00,0.0274
2979.00,0.0277
2978.00,0.0279
2977.00,0.0282
2976.00,0.0284
2975.00,0.0287
2974.00,0.0289
2973.00,0.0292
2972.00,0.0296
2971.00,0.0299
2970.00,0.0302
2969.00,0.0306
2968.00,0.0310
2967.00,0.0314
2966.00,0.0318
2965.00,0.0323
2964.00,0.0327
2963.00,0.0332
2962.00,0.0336
2961.00,0.0340
2960.00,0.0344
2959.00,0.0348
2958.00,0.0351
2957.00,0.0354
2956.00,0.0357
2955.00,0.0359
2954.00,0.0360
2953.00,0.0361
2952.00,0.0360
2951.00,0.0359
2950.00,0.0358
2949.00,0.0356
2948.00,0.0354
2947.00,0.0352
2946.00,0.0350
2945.00,0.0349
2944.00,0.0348
2943.00,0.0347
2942.00,0.0347
2941.00,0.0348
2940.00,0.0349
2939.00,0.0351
2938.00,0.0353
2937.00,0.0356
2936.00,0.0358
2935.00,0.0361
2934.00,0.0365
2933.00,0.0369
2932.00,0.0372
2931.00,0.0375
2930.00,0.0378
2929.00,0.0380
2928.00,0.0381
2927.00,0.0381
2926.00,0.0381
2925.00,0.0381
2924.00,0.0379
2923.00,0.0377
2922.00,0.0374
2921.00,0.0371
2920.00,0.0367
2919.00,0.0362
2918.00,0.0356
2917.00,0.0351
2916.00,0.0345
2915.00,0.0338
2914.00,0.0332
2913.00,0.0326
2912.00,0.0320
2911.00,0.0314
2910.00,0.0309
2909.00,0.0303
2908.00,0.0298
2907.00,0.0293
2906.00,0.0289
2905.00,0.0285
2904.00,0.0282
2903.00,0.0280
2902.00,0.0278
2901.00,0.0277
2900.00,0.0276
2899.00,0.0275
2898.00,0.0275
2897.00,0.0274
2896.00,0.0274
2895.00,0.0274
2894.00,0.0274
2893.00,0.0273
2892.00,0.0273
2891.00,0.0273
2890.00,0.0272
2889.00,0.0272
2888.00,0.0271
2887.00,0.0270
2886.00,0.0270
2885.00,0.0270
2884.00,0.0270
2883.00,0.0270
2882.00,0.0270
2881.00,0.0270
2880.00,0.0270
2879.00,0.0271
2878.00,0.0272
2877.00,0.0273
2876.00,0.0274
2875.00,0.0275
2874.00,0.0276
2873.00,0.0277
2872.00,0.0277
2871.00,0.0278
2870.00,0.0277
2869.00,0.0276
2868.00,0.0275
2867.00,0.0274
2866.00,0.0273
2865.00,0.0273
2864.00,0.0272
2863.00,0.0272
2862.00,0.0272
2861.00,0.0272
2860.00,0.0272
2859.00,0.0272
2858.00,0.0271
2857.00,0.0268
2856.00,0.0264
2855.00,0.0259
2854.00,0.0253
2853.00,0.0246
2852.00,0.0239
2851.00,0.0231
2850.00,0.0223
2849.00,0.0215
2848.00,0.0207
2847.00,0.0200
2846.00,0.0194
2845.00,0.0187
2844.00,0.0181
2843.00,0.0175
2842.00,0.0169
2841.00,0.0164
2840.00,0.0158
2839.00,0.0154
2838.00,0.0149
2837.00,0.0146
2836.00,0.0142
2835.00,0.0139
2834.00,0.0136
2833.00,0.0133
2832.00,0.0130
2831.00,0.0127
2830.00,0.0124
2829.00,0.0122
2828.00,0.0119
2827.00,0.0117
2826.00,0.0115
2825.00,0.0112
2824.00,0.0110
2823.00,0.0108
2822.00,0.0106
2821.00,0.0104
2820.00,0.0102
2819.00,0.0100
2818.00,0.0099
2817.00,0.0097
2816.00,0.0096
2815.00,0.0095
2814.00,0.0094
2813.00,0.0092
2812.00,0.0091
2811.00,0.0090
2810.00,0.0089
2809.00,0.0088
2808.00,0.0088
2807.00,0.0087
2806.00,0.0086
2805.00,0.0086
2804.00,0.0085
2803.00,0.0085
2802.00,0.0084
2801.00,0.0083
2800.00,0.0082
2799.00,0.0082
2798.00,0.0081
2797.00,0.0081
2796.00,0.0080
2795.00,0.0080
2794.00,0.0080
2793.00,0.0079
2792.00,0.0079
2791.00,0.0078
2790.00,0.0078
2789.00,0.0077
2788.00,0.0077
2787.00,0.0077
2786.00,0.0076
2785.00,0.0076
2784.00,0.0076
2783.00,0.0075
2782.00,0.0075
2781.00,0.0075
2780.00,0.0075
2779.00,0.0074
2778.00,0.0074
2777.00,0.0073
2776.00,0.0073
2775.00,0.0073
2774.00,0.0072
2773.00,0.0072
2772.00,0.0072
2771.00,0.0072
2770.00,0.0071
2769.00,0.0071
2768.00,0.0071
2767.00,0.0071
2766.00,0.0070
2765.00,0.0070
2764.00,0.0070
2763.00,0.0070
2762.00,0.0070
2761.00,0.0070
2760.00,0.0070
2759.00,0.0070
2758.00,0.0070
2757.00,0.0070
2756.00,0.0070
2755.00,0.0070
2754.00,0.0070
2753.00,0.0070
2752.00,0.0070
2751.00,0.0070
2750.00,0.0070
2749.00,0.0070
2748.00,0.0071
2747.00,0.0071
2746.00,0.0071
2745.00,0.0071
2744.00,0.0071
2743.00,0.0071
2742.00,0.0071
2741.00,0.0072
2740.00,0.0072
2739.00,0.0072
2738.00,0.0072
2737.00,0.0072
2736.00,0.0072
2735.00,0.0072
2734.00,0.0072
2733.00,0.0072
2732.00,0.0072
2731.00,0.0071
2730.00,0.0071
2729.00,0.0071
2728.00,0.0071
2727.00,0.0070
2726.00,0.0070
2725.00,0.0070
2724.00,0.0070
2723.00,0.0069
2722.00,0.0069
2721.00,0.0069
2720.00,0.0069
2719.00,0.0069
2718.00,0.0069
2717.00,0.0069
2716.00,0.0068
2715.00,0.0068
2714.00,0.0068
2713.00,0.0068
2712.00,0.0067
2711.00,0.0067
2710.00,0.0067
2709.00,0.0067
2708.00,0.0066
2707.00,0.0066
2706.00,0.0066
2705.00,0.0065
2704.00,0.0065
2703.00,0.0065
2702.00,0.0065
2701.00,0.0065
2700.00,0.0065
2699.00,0.0064
2698.00,0.0064
2697.00,0.0064
2696.00,0.0063
2695.00,0.0063
2694.00,0.0062
2693.00,0.0062
2692.00,0.0062
2691.00,0.0061
2690.00,0.0061
2689.00,0.0061
2688.00,0.0061
2687.00,0.0061
2686.00,0.0061
2685.00,0.0061
2684.00,0.0060
2683.00,0.0060
2682.00,0.0060
2681.00,0.0060
2680.00,0.0060
2679.00,0.0060
2678.00,0.0060
2677.00,0.0060
2676.00,0.0060
2675.00,0.0059
2674.00,0.0059
2673.00,0.0059
2672.00,0.0059
2671.00,0.0059
2670.00,0.0059
2669.00,0.0059
2668.00,0.0059
2667.00,0.0059
2666.00,0.0060
2665.00,0.0060
2664.00,0.0060
2663.00,0.0061
2662.00,0.0061
2661.00,0.0061
2660.00,0.0061
2659.00,0.0061
2658.00,0.0061
2657.00,0.0061
2656.00,0.0061
2655.00,0.0061
2654.00,0.0061
2653.00,0.0061
2652.00,0.0061
2651.00,0.0061
2650.00,0.0060
2649.00,0.0060
2648.00,0.0060
2647.00,0.0060
2646.00,0.0060
2645.00,0.0060
2644.00,0.0059
2643.00,0.0059
2642.00,0.0059
2641.00,0.0059
2640.00,0.0059
2639.00,0.0059
2638.00,0.0059
2637.00,0.0058
2636.00,0.0058
2635.00,0.0058
2634.00,0.0057
2633.00,0.0057
2632.00,0.0057
2631.00,0.0057
2630.00,0.0057
2629.00,0.0057
2628.00,0.0056
2627.00,0.0056
2626.00,0.0056
2625.00,0.0055
2624.00,0.0055
2623.00,0.0055
2622.00,0.0055
2621.00,0.0055
2620.00,0.0055
2619.00,0.0054
2618.00,0.0054
2617.00,0.0054
2616.00,0.0054
2615.00,0.0054
2614.00,0.0054
2613.00,0.0054
2612.00,0.0053
2611.00,0.0053
2610.00,0.0053
2609.00,0.0052
2608.00,0.0052
2607.00,0.0052
2606.00,0.0052
2605.00,0.0052
2604.00,0.0052
2603.00,0.0052
2602.00,0.0052
2601.00,0.0052
2600.00,0.0052
2599.00,0.0052
2598.00,0.0051
2597.00,0.0051
2596.00,0.0051
2595.00,0.0050
2594.00,0.0050
2593.00,0.0050
2592.00,0.0050
2591.00,0.0050
2590.00,0.0050
2589.00,0.0050
2588.00,0.0050
2587.00,0.0050
2586.00,0.0050
2585.00,0.0050
2584.00,0.0049
2583.00,0.0049
2582.00,0.0049
2581.00,0.0048
2580.00,0.0048
2579.00,0.0048
2578.00,0.0048
2577.00,0.0048
2576.00,0.0049
2575.00,0.0049
2574.00,0.0049
2573.00,0.0048
2572.00,0.0048
2571.00,0.0048
2570.00,0.0048
2569.00,0.0048
2568.00,0.0047
2567.00,0.0047
2566.00,0.0047
2565.00,0.0047
2564.00,0.0047
2563.00,0.0046
2562.00,0.0046
2561.00,0.0045
2560.00,0.0045
2559.00,0.0044
2558.00,0.0044
2557.00,0.0044
2556.00,0.0044
2555.00,0.0044
2554.00,0.0044
2553.00,0.0044
2552.00,0.0044
2551.00,0.0044
2550.00,0.0044
2549.00,0.0043
2548.00,0.0043
2547.00,0.0043
2546.00,0.0043
2545.00,0.0043
2544.00,0.0043
2543.00,0.0042
2542.00,0.0042
2541.00,0.0042
2540.00,0.0041
2539.00,0.0041
2538.00,0.0041
2537.00,0.0041
2536.00,0.0041
2535.00,0.0040
2534.00,0.0040
2533.00,0.0040
2532.00,0.0040
2531.00,0.0040
2530.00,0.0040
2529.00,0.0039
2528.00,0.0039
2527.00,0.0038
2526.00,0.0038
2525.00,0.0038
2524.00,0.0038
2523.00,0.0037
2522.00,0.0037
2521.00,0.0037
2520.00,0.0037
2519.00,0.0037
2518.00,0.0037
2517.00,0.0037
2516.00,0.0036
2515.00,0.0036
2514.00,0.0036
2513.00,0.0036
2512.00,0.0036
2511.00,0.0036
2510.00,0.0036
2509.00,0.0036
2508.00,0.0036
2507.00,0.0036
2506.00,0.0035
2505.00,0.0035
2504.00,0.0035
2503.00,0.0035
2502.00,0.0035
2501.00,0.0035
2500.00,0.0035
2499.00,0.0035
2498.00,0.0034
2497.00,0.0034
2496.00,0.0033
2495.00,0.0033
2494.00,0.0033
2493.00,0.0033
2492.00,0.0034
2491.00,0.0034
2490.00,0.0033
2489.00,0.0033
2488.00,0.0033
2487.00,0.0032
2486.00,0.0032
2485.00,0.0032
2484.00,0.0032
2483.00,0.0033
2482.00,0.0033
2481.00,0.0032
2480.00,0.0032
2479.00,0.0032
2478.00,0.0032
2477.00,0.0032
2476.00,0.0032
2475.00,0.0032
2474.00,0.0032
2473.00,0.0032
2472.00,0.0032
2471.00,0.0032
2470.00,0.0032
2469.00,0.0032
2468.00,0.0033
2467.00,0.0033
2466.00,0.0033
2465.00,0.0033
2464.00,0.0033
2463.00,0.0033
2462.00,0.0033
2461.00,0.0033
2460.00,0.0033
2459.00,0.0033
2458.00,0.0033
2457.00,0.0033
2456.00,0.0033
2455.00,0.0033
2454.00,0.0033
2453.00,0.0033
2452.00,0.0033
2451.00,0.0032
2450.00,0.0032
2449.00,0.0032
2448.00,0.0032
2447.00,0.0032
2446.00,0.0032
2445.00,0.0032
2444.00,0.0032
2443.00,0.0032
2442.00,0.0032
2441.00,0.0032
2440.00,0.0032
2439.00,0.0031
2438.00,0.0031
2437.00,0.0031
2436.00,0.0030
2435.00,0.0030
2434.00,0.0030
2433.00,0.0031
2432.00,0.0031
2431.00,0.0031
2430.00,0.0031
2429.00,0.0031
2428.00,0.0031
2427.00,0.0031
2426.00,0.0031
2425.00,0.0031
2424.00,0.0031
2423.00,0.0031
2422.00,0.0030
2421.00,0.0030
2420.00,0.0030
2419.00,0.0030
2418.00,0.0030
2417.00,0.0030
2416.00,0.0031
2415.00,0.0030
2414.00,0.0030
2413.00,0.0030
2412.00,0.0030
2411.00,0.0030
2410.00,0.0030
2409.00,0.0030
2408.00,0.0030
2407.00,0.0030
2406.00,0.0030
2405.00,0.0029
2404.00,0.0029
2403.00,0.0029
2402.00,0.0029
2401.00,0.0029
2400.00,0.0029
2399.00,0.0029
2398.00,0.0028
2397.00,0.0028
2396.00,0.0028
2395.00,0.0028
2394.00,0.0028
2393.00,0.0028
2392.00,0.0028
2391.00,0.0028
2390.00,0.0028
2389.00,0.0028
2388.00,0.0028
2387.00,0.0028
2386.00,0.0027
2385.00,0.0027
2384.00,0.0027
2383.00,0.0026
2382.00,0.0026
2381.00,0.0025
2380.00,0.0026
2379.00,0.0026
2378.00,0.0026
2377.00,0.0026
2376.00,0.0026
2375.00,0.0026
2374.00,0.0025
2373.00,0.0025
2372.00,0.0025
2371.00,0.0024
2370.00,0.0024
2369.00,0.0024
2368.00,0.0024
2367.00,0.0025
2366.00,0.0025
2365.00,0.0026
2364.00,0.0026
2363.00,0.0026
2362.00,0.0026
2361.00,0.0026
2360.00,0.0026
2359.00,0.0026
2358.00,0.0026
2357.00,0.0026
2356.00,0.0026
2355.00,0.0027
2354.00,0.0026
2353.00,0.0026
2352.00,0.0026
2351.00,0.0025
2350.00,0.0026
2349.00,0.0028
2348.00,0.0030
2347.00,0.0032
2346.00,0.0032
2345.00,0.0031
2344.00,0.0031
2343.00,0.0030
2342.00,0.0030
2341.00,0.0030
2340.00,0.0030
2339.00,0.0031
2338.00,0.0031
2337.00,0.0031
2336.00,0.0032
2335.00,0.0032
2334.00,0.0032
2333.00,0.0032
2332.00,0.0031
2331.00,0.0031
2330.00,0.0031
2329.00,0.0033
2328.00,0.0037
2327.00,0.0041
2326.00,0.0045
2325.00,0.0046
2324.00,0.0044
2323.00,0.0042
2322.00,0.0039
2321.00,0.0038
2320.00,0.0038
2319.00,0.0037
2318.00,0.0037
2317.00,0.0037
2316.00,0.0036
2315.00,0.0036
2314.00,0.0035
2313.00,0.0034
2312.00,0.0034
2311.00,0.0033
2310.00,0.0033
2309.00,0.0033
2308.00,0.0034
2307.00,0.0035
2306.00,0.0035
2305.00,0.0035
2304.00,0.0035
2303.00,0.0034
2302.00,0.0034
2301.00,0.0035
2300.00,0.0035
2299.00,0.0036
2298.00,0.0037
2297.00,0.0037
2296.00,0.0037
2295.00,0.0038
2294.00,0.0039
2293.00,0.0040
2292.00,0.0041
2291.00,0.0042
2290.00,0.0042
2289.00,0.0043
2288.00,0.0044
2287.00,0.0044
2286.00,0.0043
2285.00,0.0042
2284.00,0.0041
2283.00,0.0041
2282.00,0.0040
2281.00,0.0040
2280.00,0.0039
2279.00,0.0039
2278.00,0.0038
2277.00,0.0038
2276.00,0.0038
2275.00,0.0038
2274.00,0.0038
2273.00,0.0038
2272.00,0.0038
2271.00,0.0037
2270.00,0.0037
2269.00,0.0036
2268.00,0.0036
2267.00,0.0035
2266.00,0.0035
2265.00,0.0035
2264.00,0.0035
2263.00,0.0035
2262.00,0.0034
2261.00,0.0035
2260.00,0.0035
2259.00,0.0036
2258.00,0.0035
2257.00,0.0034
2256.00,0.0034
2255.00,0.0033
2254.00,0.0033
2253.00,0.0034
2252.00,0.0035
2251.00,0.0035
2250.00,0.0036
2249.00,0.0035
2248.00,0.0035
2247.00,0.0035
2246.00,0.0035
2245.00,0.0035
2244.00,0.0035
2243.00,0.0035
2242.00,0.0035
2241.00,0.0035
2240.00,0.0035
2239.00,0.0034
2238.00,0.0034
2237.00,0.0033
2236.00,0.0034
2235.00,0.0035
2234.00,0.0035
2233.00,0.0035
2232.00,0.0036
2231.00,0.0037
2230.00,0.0037
2229.00,0.0037
2228.00,0.0037
2227.00,0.0036
2226.00,0.0036
2225.00,0.0037
2224.00,0.0037
2223.00,0.0037
2222.00,0.0036
2221.00,0.0035
2220.00,0.0035
2219.00,0.0035
2218.00,0.0035
2217.00,0.0035
2216.00,0.0036
2215.00,0.0036
2214.00,0.0036
2213.00,0.0036
2212.00,0.0036
2211.00,0.0036
2210.00,0.0036
2209.00,0.0036
2208.00,0.0037
2207.00,0.0037
2206.00,0.0036
2205.00,0.0036
2204.00,0.0036
2203.00,0.0036
2202.00,0.0036
2201.00,0.0036
2200.00,0.0036
2199.00,0.0036
2198.00,0.0036
2197.00,0.0036
2196.00,0.0037
2195.00,0.0038
2194.00,0.0039
2193.00,0.0039
2192.00,0.0039
2191.00,0.0039
2190.00,0.0038
2189.00,0.0039
2188.00,0.0039
2187.00,0.0040
2186.00,0.0040
2185.00,0.0039
2184.00,0.0037
2183.00,0.0034
2182.00,0.0031
2181.00,0.0031
2180.00,0.0032
2179.00,0.0033
2178.00,0.0033
2177.00,0.0032
2176.00,0.0032
2175.00,0.0033
2174.00,0.0035
2173.00,0.0038
2172.00,0.0041
2171.00,0.0044
2170.00,0.0045
2169.00,0.0047
2168.00,0.0048
2167.00,0.0048
2166.00,0.0047
2165.00,0.0048
2164.00,0.0051
2163.00,0.0052
2162.00,0.0046
2161.00,0.0033
2160.00,0.0017
2159.00,0.0004
2158.00,-0.0003
2157.00,-0.0004
2156.00,-0.0000
2155.00,0.0004
2154.00,0.0008
2153.00,0.0011
2152.00,0.0013
2151.00,0.0015
2150.00,0.0016
2149.00,0.0017
2148.00,0.0017
2147.00,0.0017
2146.00,0.0017
2145.00,0.0016
2144.00,0.0016
2143.00,0.0017
2142.00,0.0017
2141.00,0.0018
2140.00,0.0018
2139.00,0.0018
2138.00,0.0017
2137.00,0.0014
2136.00,0.0012
2135.00,0.0011
2134.00,0.0011
2133.00,0.0012
2132.00,0.0015
2131.00,0.0017
2130.00,0.0018
2129.00,0.0020
2128.00,0.0022
2127.00,0.0024
2126.00,0.0025
2125.00,0.0025
2124.00,0.0026
2123.00,0.0027
2122.00,0.0027
2121.00,0.0028
2120.00,0.0028
2119.00,0.0028
2118.00,0.0028
2117.00,0.0029
2116.00,0.0030
2115.00,0.0030
2114.00,0.0031
2113.00,0.0031
2112.00,0.0031
2111.00,0.0032
2110.00,0.0031
2109.00,0.0031
2108.00,0.0031
2107.00,0.0030
2106.00,0.0030
2105.00,0.0031
2104.00,0.0032
2103.00,0.0032
2102.00,0.0033
2101.00,0.0033
2100.00,0.0033
2099.00,0.0032
2098.00,0.0030
2097.00,0.0028
2096.00,0.0026
2095.00,0.0026
2094.00,0.0027
2093.00,0.0029
2092.00,0.0030
2091.00,0.0031
2090.00,0.0031
2089.00,0.0031
2088.00,0.0032
2087.00,0.0033
2086.00,0.0033
2085.00,0.0034
2084.00,0.0034
2083.00,0.0034
2082.00,0.0033
2081.00,0.0033
2080.00,0.0034
2079.00,0.0034
2078.00,0.0033
2077.00,0.0033
2076.00,0.0032
2075.00,0.0032
2074.00,0.0032
2073.00,0.0031
2072.00,0.0031
2071.00,0.0030
2070.00,0.0030
2069.00,0.0030
2068.00,0.0032
2067.00,0.0032
2066.00,0.0032
2065.00,0.0030
2064.00,0.0030
2063.00,0.0029
2062.00,0.0029
2061.00,0.0030
2060.00,0.0031
2059.00,0.0032
2058.00,0.0032
2057.00,0.0033
2056.00,0.0032
2055.00,0.0032
2054.00,0.0034
2053.00,0.0037
2052.00,0.0040
2051.00,0.0040
2050.00,0.0037
2049.00,0.0033
2048.00,0.0030
2047.00,0.0029
2046.00,0.0029
2045.00,0.0029
2044.00,0.0030
2043.00,0.0030
2042.00,0.0030
2041.00,0.0031
2040.00,0.0031
2039.00,0.0032
2038.00,0.0030
2037.00,0.0029
2036.00,0.0027
2035.00,0.0024
2034.00,0.0023
2033.00,0.0023
2032.00,0.0024
2031.00,0.0025
2030.00,0.0024
2029.00,0.0022
2028.00,0.0021
2027.00,0.0020
2026.00,0.0018
2025.00,0.0016
2024.00,0.0016
2023.00,0.0015
2022.00,0.0015
2021.00,0.0016
2020.00,0.0019
2019.00,0.0022
2018.00,0.0024
2017.00,0.0025
2016.00,0.0025
2015.00,0.0023
2014.00,0.0021
2013.00,0.0020
2012.00,0.0020
2011.00,0.0020
2010.00,0.0019
2009.00,0.0016
2008.00,0.0013
2007.00,0.0010
2006.00,0.0008
2005.00,0.0009
2004.00,0.0012
2003.00,0.0015
2002.00,0.0018
2001.00,0.0021
2000.00,0.0023
1999.00,0.0024
1998.00,0.0024
1997.00,0.0023
1996.00,0.0024
1995.00,0.0025
1994.00,0.0024
1993.00,0.0024
1992.00,0.0024
1991.00,0.0024
1990.00,0.0024
1989.00,0.0024
1988.00,0.0025
1987.00,0.0027
1986.00,0.0027
1985.00,0.0029
1984.00,0.0032
1983.00,0.0035
1982.00,0.0038
1981.00,0.0039
1980.00,0.0037
1979.00,0.0032
1978.00,0.0025
1977.00,0.0019
1976.00,0.0017
1975.00,0.0016
1974.00,0.0015
1973.00,0.0013
1972.00,0.0013
1971.00,0.0013
1970.00,0.0013
1969.00,0.0013
1968.00,0.0013
1967.00,0.0014
1966.00,0.0014
1965.00,0.0014
1964.00,0.0015
1963.00,0.0014
1962.00,0.0011
1961.00,0.0010
1960.00,0.0010
1959.00,0.0010
1958.00,0.0010
1957.00,0.0012
1956.00,0.0015
1955.00,0.0016
1954.00,0.0016
1953.00,0.0016
1952.00,0.0016
1951.00,0.0015
1950.00,0.0015
1949.00,0.0015
1948.00,0.0017
1947.00,0.0017
1946.00,0.0017
1945.00,0.0016
1944.00,0.0017
1943.00,0.0017
1942.00,0.0016
1941.00,0.0016
1940.00,0.0017
1939.00,0.0018
1938.00,0.0018
1937.00,0.0018
1936.00,0.0018
1935.00,0.0018
1934.00,0.0018
1933.00,0.0018
1932.00,0.0019
1931.00,0.0019
1930.00,0.0019
1929.00,0.0018
1928.00,0.0019
1927.00,0.0019
1926.00,0.0019
1925.00,0.0020
1924.00,0.0021
1923.00,0.0022
1922.00,0.0021
1921.00,0.0021
1920.00,0.0022
1919.00,0.0022
1918.00,0.0022
1917.00,0.0021
1916.00,0.0021
1915.00,0.0022
1914.00,0.0022
1913.00,0.0023
1912.00,0.0023
1911.00,0.0023
1910.00,0.0023
1909.00,0.0022
1908.00,0.0022
1907.00,0.0022
1906.00,0.0022
1905.00,0.0022
1904.00,0.0023
1903.00,0.0023
1902.00,0.0024
1901.00,0.0024
1900.00,0.0025
1899.00,0.0025
1898.00,0.0024
1897.00,0.0024
1896.00,0.0024
1895.00,0.0024
1894.00,0.0024
1893.00,0.0024
1892.00,0.0024
1891.00,0.0024
1890.00,0.0023
1889.00,0.0023
1888.00,0.0023
1887.00,0.0024
1886.00,0.0024
1885.00,0.0024
1884.00,0.0024
1883.00,0.0024
1882.00,0.0023
1881.00,0.0023
1880.00,0.0023
1879.00,0.0023
1878.00,0.0023
1877.00,0.0023
1876.00,0.0023
1875.00,0.0023
1874.00,0.0023
1873.00,0.0023
1872.00,0.0024
1871.00,0.0025
1870.00,0.0025
1869.00,0.0025
1868.00,0.0025
1867.00,0.0025
1866.00,0.0025
1865.00,0.0024
1864.00,0.0025
1863.00,0.0025
1862.00,0.0025
1861.00,0.0026
1860.00,0.0026
1859.00,0.0027
1858.00,0.0026
1857.00,0.0025
1856.00,0.0025
1855.00,0.0026
1854.00,0.0026
1853.00,0.0026
1852.00,0.0026
1851.00,0.0026
1850.00,0.0025
1849.00,0.0025
1848.00,0.0026
1847.00,0.0027
1846.00,0.0027
1845.00,0.0027
1844.00,0.0027
1843.00,0.0026
1842.00,0.0026
1841.00,0.0026
1840.00,0.0027
1839.00,0.0027
1838.00,0.0027
1837.00,0.0027
1836.00,0.0027
1835.00,0.0027
1834.00,0.0026
1833.00,0.0026
1832.00,0.0027
1831.00,0.0028
1830.00,0.0028
1829.00,0.0028
1828.00,0.0028
1827.00,0.0028
1826.00,0.0028
1825.00,0.0027
1824.00,0.0028
1823.00,0.0028
1822.00,0.0028
1821.00,0.0028
1820.00,0.0027
1819.00,0.0026
1818.00,0.0025
1817.00,0.0024
1816.00,0.0025
1815.00,0.0026
1814.00,0.0026
1813.00,0.0027
1812.00,0.0028
1811.00,0.0028
1810.00,0.0028
1809.00,0.0028
1808.00,0.0028
1807.00,0.0028
1806.00,0.0029
1805.00,0.0029
1804.00,0.0029
1803.00,0.0030
1802.00,0.0030
1801.00,0.0031
1800.00,0.0031
1799.00,0.0031
1798.00,0.0031
1797.00,0.0032
1796.00,0.0032
1795.00,0.0033
1794.00,0.0033
1793.00,0.0034
1792.00,0.0034
1791.00,0.0033
1790.00,0.0033
1789.00,0.0033
1788.00,0.0033
1787.00,0.0034
1786.00,0.0034
1785.00,0.0034
1784.00,0.0035
1783.00,0.0035
1782.00,0.0035
1781.00,0.0036
1780.00,0.0036
1779.00,0.0037
1778.00,0.0036
1777.00,0.0037
1776.00,0.0038
1775.00,0.0039
1774.00,0.0040
1773.00,0.0040
1772.00,0.0040
1771.00,0.0040
1770.00,0.0040
1769.00,0.0041
1768.00,0.0042
1767.00,0.0042
1766.00,0.0042
1765.00,0.0042
1764.00,0.0043
1763.00,0.0044
1762.00,0.0044
1761.00,0.0044
1760.00,0.0045
1759.00,0.0046
1758.00,0.0047
1757.00,0.0047
1756.00,0.0048
1755.00,0.0049
1754.00,0.0049
1753.00,0.0050
1752.00,0.0052
1751.00,0.0053
1750.00,0.0053
1749.00,0.0054
1748.00,0.0055
1747.00,0.0055
1746.00,0.0056
1745.00,0.0056
1744.00,0.0058
1743.00,0.0059
1742.00,0.0059
1741.00,0.0060
1740.00,0.0062
1739.00,0.0063
1738.00,0.0063
1737.00,0.0064
1736.00,0.0067
1735.00,0.0070
1734.00,0.0071
1733.00,0.0071
1732.00,0.0074
1731.00,0.0076
1730.00,0.0078
1729.00,0.0080
1728.00,0.0082
1727.00,0.0084
1726.00,0.0086
1725.00,0.0089
1724.00,0.0093
1723.00,0.0096
1722.00,0.0098
1721.00,0.0100
1720.00,0.0105
1719.00,0.0110
1718.00,0.0114
1717.00,0.0119
1716.00,0.0124
1715.00,0.0129
1714.00,0.0133
1713.00,0.0138
1712.00,0.0146
1711.00,0.0153
1710.00,0.0161
1709.00,0.0170
1708.00,0.0181
1707.00,0.0193
1706.00,0.0207
1705.00,0.0223
1704.00,0.0238
1703.00,0.0253
1702.00,0.0269
1701.00,0.0297
1700.00,0.0335
1699.00,0.0369
1698.00,0.0397
1697.00,0.0429
1696.00,0.0474
1695.00,0.0523
1694.00,0.0566
1693.00,0.0603
1692.00,0.0643
1691.00,0.0687
1690.00,0.0736
1689.00,0.0786
1688.00,0.0832
1687.00,0.0871
1686.00,0.0911
1685.00,0.0967
1684.00,0.1041
1683.00,0.1106
1682.00,0.1150
1681.00,0.1184
1680.00,0.1217
1679.00,0.1250
1678.00,0.1279
1677.00,0.1307
1676.00,0.1344
1675.00,0.1386
1674.00,0.1425
1673.00,0.1453
1672.00,0.1477
1671.00,0.1504
1670.00,0.1540
1669.00,0.1581
1668.00,0.1620
1667.00,0.1650
1666.00,0.1672
1665.00,0.1693
1664.00,0.1720
1663.00,0.1754
1662.00,0.1789
1661.00,0.1819
1660.00,0.1842
1659.00,0.1859
1658.00,0.1872
1657.00,0.1879
1656.00,0.1880
1655.00,0.1879
1654.00,0.1886
1653.00,0.1909
1652.00,0.1928
1651.00,0.1925
1650.00,0.1904
1649.00,0.1875
1648.00,0.1844
1647.00,0.1815
1646.00,0.1784
1645.00,0.1749
1644.00,0.1710
1643.00,0.1664
1642.00,0.1615
1641.00,0.1562
1640.00,0.1509
1639.00,0.1456
1638.00,0.1402
1637.00,0.1344
1636.00,0.1283
1635.00,0.1225
1634.00,0.1173
1633.00,0.1126
1632.00,0.1081
1631.00,0.1036
1630.00,0.0994
1629.00,0.0956
1628.00,0.0924
1627.00,0.0898
1626.00,0.0880
1625.00,0.0867
1624.00,0.0863
1623.00,0.0866
1622.00,0.0871
1621.00,0.0874
1620.00,0.0872
1619.00,0.0865
1618.00,0.0854
1617.00,0.0838
1616.00,0.0819
1615.00,0.0798
1614.00,0.0777
1613.00,0.0755
1612.00,0.0735
1611.00,0.0717
1610.00,0.0699
1609.00,0.0679
1608.00,0.0656
1607.00,0.0628
1606.00,0.0598
1605.00,0.0565
1604.00,0.0532
1603.00,0.0500
1602.00,0.0471
1601.00,0.0444
1600.00,0.0421
1599.00,0.0401
1598.00,0.0386
1597.00,0.0374
1596.00,0.0367
1595.00,0.0364
1594.00,0.0366
1593.00,0.0374
1592.00,0.0386
1591.00,0.0403
1590.00,0.0424
1589.00,0.0447
1588.00,0.0467
1587.00,0.0483
1586.00,0.0493
1585.00,0.0494
1584.00,0.0486
1583.00,0.0472
1582.00,0.0452
1581.00,0.0430
1580.00,0.0407
1579.00,0.0387
1578.00,0.0368
1577.00,0.0349
1576.00,0.0331
1575.00,0.0316
1574.00,0.0305
1573.00,0.0295
1572.00,0.0285
1571.00,0.0277
1570.00,0.0269
1569.00,0.0261
1568.00,0.0253
1567.00,0.0246
1566.00,0.0240
1565.00,0.0233
1564.00,0.0227
1563.00,0.0221
1562.00,0.0216
1561.00,0.0211
1560.00,0.0207
1559.00,0.0203
1558.00,0.0199
1557.00,0.0194
1556.00,0.0191
1555.00,0.0189
1554.00,0.0186
1553.00,0.0183
1552.00,0.0181
1551.00,0.0179
1550.00,0.0176
1549.00,0.0174
1548.00,0.0172
1547.00,0.0170
1546.00,0.0168
1545.00,0.0167
1544.00,0.0165
1543.00,0.0164
1542.00,0.0164
1541.00,0.0164
1540.00,0.0164
1539.00,0.0162
1538.00,0.0159
1537.00,0.0158
1536.00,0.0157
1535.00,0.0157
1534.00,0.0157
1533.00,0.0157
1532.00,0.0157
1531.00,0.0157
1530.00,0.0158
1529.00,0.0159
1528.00,0.0160
1527.00,0.0161
1526.00,0.0164
1525.00,0.0166
1524.00,0.0168
1523.00,0.0172
1522.00,0.0176
1521.00,0.0181
1520.00,0.0184
1519.00,0.0187
1518.00,0.0191
1517.00,0.0195
1516.00,0.0198
1515.00,0.0200
1514.00,0.0201
1513.00,0.0203
1512.00,0.0205
1511.00,0.0207
1510.00,0.0210
1509.00,0.0214
1508.00,0.0221
1507.00,0.0232
1506.00,0.0245
1505.00,0.0257
1504.00,0.0270
1503.00,0.0284
1502.00,0.0302
1501.00,0.0324
1500.00,0.0351
1499.00,0.0380
1498.00,0.0410
1497.00,0.0439
1496.00,0.0461
1495.00,0.0473
1494.00,0.0476
1493.00,0.0472
1492.00,0.0461
1491.00,0.0445
1490.00,0.0423
1489.00,0.0398
1488.00,0.0372
1487.00,0.0345
1486.00,0.0321
1485.00,0.0300
1484.00,0.0282
1483.00,0.0267
1482.00,0.0255
1481.00,0.0247
1480.00,0.0243
1479.00,0.0241
1478.00,0.0242
1477.00,0.0247
1476.00,0.0256
1475.00,0.0268
1474.00,0.0286
1473.00,0.0315
1472.00,0.0352
1471.00,0.0391
1470.00,0.0430
1469.00,0.0471
1468.00,0.0516
1467.00,0.0565
1466.00,0.0622
1465.00,0.0684
1464.00,0.0742
1463.00,0.0785
1462.00,0.0811
1461.00,0.0824
1460.00,0.0825
1459.00,0.0813
1458.00,0.0788
1457.00,0.0749
1456.00,0.0708
1455.00,0.0672
1454.00,0.0644
1453.00,0.0623
1452.00,0.0608
1451.00,0.0602
1450.00,0.0607
1449.00,0.0623
1448.00,0.0650
1447.00,0.0684
1446.00,0.0721
1445.00,0.0759
1444.00,0.0797
1443.00,0.0835
1442.00,0.0871
1441.00,0.0904
1440.00,0.0930
1439.00,0.0950
1438.00,0.0968
1437.00,0.0989
1436.00,0.1008
1435.00,0.1019
1434.00,0.1022
1433.00,0.1022
1432.00,0.1023
1431.00,0.1027
1430.00,0.1037
1429.00,0.1054
1428.00,0.1077
1427.00,0.1103
1426.00,0.1132
1425.00,0.1165
1424.00,0.1196
1423.00,0.1216
1422.00,0.1219
1421.00,0.1206
1420.00,0.1172
1419.00,0.1119
1418.00,0.1054
1417.00,0.0988
1416.00,0.0923
1415.00,0.0859
1414.00,0.0800
1413.00,0.0750
1412.00,0.0707
1411.00,0.0674
1410.00,0.0649
1409.00,0.0632
1408.00,0.0621
1407.00,0.0614
1406.00,0.0612
1405.00,0.0612
1404.00,0.0613
1403.00,0.0611
1402.00,0.0606
1401.00,0.0597
1400.00,0.0581
1399.00,0.0560
1398.00,0.0537
1397.00,0.0512
1396.00,0.0485
1395.00,0.0458
1394.00,0.0433
1393.00,0.0414
1392.00,0.0399
1391.00,0.0388
1390.00,0.0382
1389.00,0.0380
1388.00,0.0381
1387.00,0.0388
1386.00,0.0397
1385.00,0.0409
1384.00,0.0422
1383.00,0.0436
1382.00,0.0451
1381.00,0.0466
1380.00,0.0478
1379.00,0.0487
1378.00,0.0494
1377.00,0.0497
1376.00,0.0497
1375.00,0.0495
1374.00,0.0492
1373.00,0.0487
1372.00,0.0480
1371.00,0.0472
1370.00,0.0464
1369.00,0.0456
1368.00,0.0449
1367.00,0.0442
1366.00,0.0438
1365.00,0.0436
1364.00,0.0436
1363.00,0.0439
1362.00,0.0441
1361.00,0.0440
1360.00,0.0432
1359.00,0.0420
1358.00,0.0403
1357.00,0.0384
1356.00,0.0363
1355.00,0.0345
1354.00,0.0330
1353.00,0.0319
1352.00,0.0310
1351.00,0.0304
1350.00,0.0301
1349.00,0.0298
1348.00,0.0296
1347.00,0.0294
1346.00,0.0294
1345.00,0.0293
1344.00,0.0293
1343.00,0.0293
1342.00,0.0294
1341.00,0.0296
1340.00,0.0299
1339.00,0.0302
1338.00,0.0307
1337.00,0.0312
1336.00,0.0318
1335.00,0.0324
1334.00,0.0331
1333.00,0.0339
1332.00,0.0347
1331.00,0.0355
1330.00,0.0365
1329.00,0.0375
1328.00,0.0387
1327.00,0.0399
1326.00,0.0414
1325.00,0.0429
1324.00,0.0445
1323.00,0.0460
1322.00,0.0475
1321.00,0.0488
1320.00,0.0498
1319.00,0.0505
1318.00,0.0509
1317.00,0.0508
1316.00,0.0503
1315.00,0.0496
1314.00,0.0487
1313.00,0.0476
1312.00,0.0466
1311.00,0.0458
1310.00,0.0452
1309.00,0.0449
1308.00,0.0449
1307.00,0.0452
1306.00,0.0459
1305.00,0.0470
1304.00,0.0485
1303.00,0.0504
1302.00,0.0530
1301.00,0.0562
1300.00,0.0603
1299.00,0.0653
1298.00,0.0713
1297.00,0.0782
1296.00,0.0859
1295.00,0.0941
1294.00,0.1024
1293.00,0.1105
1292.00,0.1179
1291.00,0.1245
1290.00,0.1299
1289.00,0.1341
1288.00,0.1370
1287.00,0.1385
1286.00,0.1386
1285.00,0.1376
1284.00,0.1355
1283.00,0.1328
1282.00,0.1298
1281.00,0.1269
1280.00,0.1244
1279.00,0.1225
1278.00,0.1214
1277.00,0.1208
1276.00,0.1207
1275.00,0.1208
1274.00,0.1207
1273.00,0.1203
1272.00,0.1192
1271.00,0.1174
1270.00,0.1149
1269.00,0.1115
1268.00,0.1075
1267.00,0.1031
1266.00,0.0984
1265.00,0.0937
1264.00,0.0890
1263.00,0.0844
1262.00,0.0801
1261.00,0.0761
1260.00,0.0723
1259.00,0.0689
1258.00,0.0658
1257.00,0.0630
1256.00,0.0604
1255.00,0.0582
1254.00,0.0562
1253.00,0.0546
1252.00,0.0532
1251.00,0.0522
1250.00,0.0515
1249.00,0.0511
1248.00,0.0511
1247.00,0.0514
1246.00,0.0521
1245.00,0.0530
1244.00,0.0540
1243.00,0.0552
1242.00,0.0563
1241.00,0.0574
1240.00,0.0583
1239.00,0.0592
1238.00,0.0599
1237.00,0.0607
1236.00,0.0613
1235.00,0.0619
1234.00,0.0624
1233.00,0.0627
1232.00,0.0629
1231.00,0.0629
1230.00,0.0628
1229.00,0.0626
1228.00,0.0623
1227.00,0.0621
1226.00,0.0619
1225.00,0.0618
1224.00,0.0617
1223.00,0.0618
1222.00,0.0620
1221.00,0.0622
1220.00,0.0623
1219.00,0.0623
1218.00,0.0620
1217.00,0.0613
1216.00,0.0602
1215.00,0.0588
1214.00,0.0570
1213.00,0.0551
1212.00,0.0531
1211.00,0.0511
1210.00,0.0493
1209.00,0.0476
1208.00,0.0462
1207.00,0.0450
1206.00,0.0441
1205.00,0.0435
1204.00,0.0432
1203.00,0.0432
1202.00,0.0436
1201.00,0.0442
1200.00,0.0451
1199.00,0.0461
1198.00,0.0473
1197.00,0.0485
1196.00,0.0496
1195.00,0.0503
1194.00,0.0506
1193.00,0.0503
1192.00,0.0494
1191.00,0.0481
1190.00,0.0464
1189.00,0.0446
1188.00,0.0428
1187.00,0.0411
1186.00,0.0397
1185.00,0.0385
1184.00,0.0375
1183.00,0.0368
1182.00,0.0363
1181.00,0.0360
1180.00,0.0359
1179.00,0.0359
1178.00,0.0362
1177.00,0.0365
1176.00,0.0370
1175.00,0.0375
1174.00,0.0381
1173.00,0.0386
1172.00,0.0391
1171.00,0.0394
1170.00,0.0397
1169.00,0.0398
1168.00,0.0397
1167.00,0.0396
1166.00,0.0396
1165.00,0.0397
1164.00,0.0400
1163.00,0.0405
1162.00,0.0415
1161.00,0.0426
1160.00,0.0439
1159.00,0.0452
1158.00,0.0463
1157.00,0.0469
1156.00,0.0469
1155.00,0.0463
1154.00,0.0453
1153.00,0.0438
1152.00,0.0419
1151.00,0.0399
1150.00,0.0378
1149.00,0.0357
1148.00,0.0337
1147.00,0.0320
1146.00,0.0305
1145.00,0.0292
1144.00,0.0281
1143.00,0.0273
1142.00,0.0267
1141.00,0.0263
1140.00,0.0261
1139.00,0.0262
1138.00,0.0267
1137.00,0.0277
1136.00,0.0291
1135.00,0.0311
1134.00,0.0336
1133.00,0.0364
1132.00,0.0391
1131.00,0.0414
1130.00,0.0428
1129.00,0.0431
1128.00,0.0422
1127.00,0.0403
1126.00,0.0379
1125.00,0.0354
1124.00,0.0330
1123.00,0.0310
1122.00,0.0295
1121.00,0.0284
1120.00,0.0276
1119.00,0.0270
1118.00,0.0266
1117.00,0.0264
1116.00,0.0263
1115.00,0.0263
1114.00,0.0265
1113.00,0.0267
1112.00,0.0269
1111.00,0.0270
1110.00,0.0273
1109.00,0.0276
1108.00,0.0279
1107.00,0.0284
1106.00,0.0290
1105.00,0.0299
1104.00,0.0308
1103.00,0.0317
1102.00,0.0326
1101.00,0.0333
1100.00,0.0336
1099.00,0.0335
1098.00,0.0331
1097.00,0.0324
1096.00,0.0316
1095.00,0.0308
1094.00,0.0300
1093.00,0.0293
1092.00,0.0286
1091.00,0.0280
1090.00,0.0276
1089.00,0.0273
1088.00,0.0270
1087.00,0.0268
1086.00,0.0268
1085.00,0.0269
1084.00,0.0271
1083.00,0.0274
1082.00,0.0278
1081.00,0.0283
1080.00,0.0288
1079.00,0.0294
1078.00,0.0302
1077.00,0.0310
1076.00,0.0318
1075.00,0.0326
1074.00,0.0335
1073.00,0.0344
1072.00,0.0355
1071.00,0.0367
1070.00,0.0381
1069.00,0.0399
1068.00,0.0419
1067.00,0.0443
1066.00,0.0472
1065.00,0.0503
1064.00,0.0537
1063.00,0.0572
1062.00,0.0608
1061.00,0.0641
1060.00,0.0669
1059.00,0.0688
1058.00,0.0697
1057.00,0.0693
1056.00,0.0676
1055.00,0.0647
1054.00,0.0610
1053.00,0.0569
1052.00,0.0525
1051.00,0.0484
1050.00,0.0448
1049.00,0.0417
1048.00,0.0392
1047.00,0.0371
1046.00,0.0356
1045.00,0.0343
1044.00,0.0334
1043.00,0.0326
1042.00,0.0322
1041.00,0.0319
1040.00,0.0316
1039.00,0.0315
1038.00,0.0315
1037.00,0.0316
1036.00,0.0318
1035.00,0.0322
1034.00,0.0328
1033.00,0.0336
1032.00,0.0343
1031.00,0.0348
1030.00,0.0352
1029.00,0.0351
1028.00,0.0346
1027.00,0.0339
1026.00,0.0332
1025.00,0.0326
1024.00,0.0322
1023.00,0.0321
1022.00,0.0323
1021.00,0.0326
1020.00,0.0329
1019.00,0.0331
1018.00,0.0332
1017.00,0.0331
1016.00,0.0325
1015.00,0.0317
1014.00,0.0308
1013.00,0.0298
1012.00,0.0289
1011.00,0.0283
1010.00,0.0281
1009.00,0.0282
1008.00,0.0287
1007.00,0.0296
1006.00,0.0308
1005.00,0.0321
1004.00,0.0331
1003.00,0.0338
1002.00,0.0340
1001.00,0.0337
1000.00,0.0331
999.00,0.0322
998.00,0.0314
997.00,0.0306
996.00,0.0298
995.00,0.0290
994.00,0.0284
993.00,0.0277
992.00,0.0271
991.00,0.0264
990.00,0.0258
989.00,0.0253
988.00,0.0246
987.00,0.0240
986.00,0.0235
985.00,0.0231
984.00,0.0227
983.00,0.0224
982.00,0.0221
981.00,0.0219
980.00,0.0218
979.00,0.0217
978.00,0.0218
977.00,0.0218
976.00,0.0217
975.00,0.0215
974.00,0.0214
973.00,0.0212
972.00,0.0210
971.00,0.0207
970.00,0.0204
969.00,0.0202
968.00,0.0199
967.00,0.0197
966.00,0.0195
965.00,0.0193
964.00,0.0190
963.00,0.0188
962.00,0.0186
961.00,0.0185
960.00,0.0183
959.00,0.0181
958.00,0.0180
957.00,0.0178
956.00,0.0176
955.00,0.0175
954.00,0.0174
953.00,0.0173
952.00,0.0172
951.00,0.0172
950.00,0.0172
949.00,0.0173
948.00,0.0173
947.00,0.0174
946.00,0.0176
945.00,0.0179
944.00,0.0182
943.00,0.0186
942.00,0.0192
941.00,0.0199
940.00,0.0207
939.00,0.0217
938.00,0.0228
937.00,0.0240
936.00,0.0250
935.00,0.0260
934.00,0.0267
933.00,0.0270
932.00,0.0268
931.00,0.0264
930.00,0.0260
929.00,0.0256
928.00,0.0253
927.00,0.0252
926.00,0.0252
925.00,0.0251
924.00,0.0249
923.00,0.0246
922.00,0.0243
921.00,0.0240
920.00,0.0235
919.00,0.0231
918.00,0.0228
917.00,0.0224
916.00,0.0220
915.00,0.0217
914.00,0.0214
913.00,0.0213
912.00,0.0211
911.00,0.0210
910.00,0.0211
909.00,0.0213
908.00,0.0216
907.00,0.0220
906.00,0.0226
905.00,0.0233
904.00,0.0240
903.00,0.0249
902.00,0.0258
901.00,0.0267
900.00,0.0275
899.00,0.0282
898.00,0.0287
897.00,0.0290
896.00,0.0290
895.00,0.0288
894.00,0.0284
893.00,0.0279
892.00,0.0272
891.00,0.0265
890.00,0.0260
889.00,0.0255
888.00,0.0252
887.00,0.0250
886.00,0.0250
885.00,0.0251
884.00,0.0253
883.00,0.0256
882.00,0.0261
881.00,0.0266
880.00,0.0272
879.00,0.0280
878.00,0.0289
877.00,0.0299
876.00,0.0309
875.00,0.0319
874.00,0.0330
873.00,0.0339
872.00,0.0346
871.00,0.0351
870.00,0.0356
869.00,0.0358
868.00,0.0359
867.00,0.0359
866.00,0.0360
865.00,0.0362
864.00,0.0364
863.00,0.0366
862.00,0.0369
861.00,0.0372
860.00,0.0375
859.00,0.0379
858.00,0.0384
857.00,0.0391
856.00,0.0397
855.00,0.0405
854.00,0.0414
853.00,0.0424
852.00,0.0432
851.00,0.0440
850.00,0.0448
849.00,0.0455
848.00,0.0461
847.00,0.0466
846.00,0.0471
845.00,0.0474
844.00,0.0476
843.00,0.0477
842.00,0.0478
841.00,0.0477
840.00,0.0475
839.00,0.0473
838.00,0.0472
837.00,0.0471
836.00,0.0470
835.00,0.0470
834.00,0.0470
833.00,0.0470
832.00,0.0469
831.00,0.0468
830.00,0.0468
829.00,0.0466
828.00,0.0463
827.00,0.0460
826.00,0.0458
825.00,0.0455
824.00,0.0452
823.00,0.0452
822.00,0.0453
821.00,0.0454
820.00,0.0455
819.00,0.0456
818.00,0.0457
817.00,0.0456
816.00,0.0454
815.00,0.0452
814.00,0.0449
813.00,0.0443
812.00,0.0434
811.00,0.0423
810.00,0.0409
809.00,0.0393
808.00,0.0376
807.00,0.0359
806.00,0.0345
805.00,0.0333
804.00,0.0323
803.00,0.0315
802.00,0.0311
801.00,0.0307
800.00,0.0305
799.00,0.0303
798.00,0.0303
797.00,0.0304
796.00,0.0305
795.00,0.0306
794.00,0.0308
793.00,0.0309
792.00,0.0310
791.00,0.0311
790.00,0.0313
789.00,0.0315
788.00,0.0316
787.00,0.0317
786.00,0.0319
785.00,0.0321
784.00,0.0322
783.00,0.0324
782.00,0.0327
781.00,0.0330
780.00,0.0334
779.00,0.0337
778.00,0.0341
777.00,0.0344
776.00,0.0344
775.00,0.0344
774.00,0.0343
773.00,0.0342
772.00,0.0342
771.00,0.0343
770.00,0.0346
769.00,0.0350
768.00,0.0354
767.00,0.0359
766.00,0.0364
765.00,0.0370
764.00,0.0375
763.00,0.0381
762.00,0.0388
761.00,0.0395
760.00,0.0401
759.00,0.0408
758.00,0.0416
757.00,0.0424
756.00,0.0432
755.00,0.0439
754.00,0.0447
753.00,0.0455
752.00,0.0463
751.00,0.0471
750.00,0.0479
749.00,0.0487
748.00,0.0494
747.00,0.0502
746.00,0.0511
745.00,0.0520
744.00,0.0529
743.00,0.0540
742.00,0.0552
741.00,0.0565
740.00,0.0579
739.00,0.0594
738.00,0.0607
737.00,0.0616
736.00,0.0619
735.00,0.0618
734.00,0.0613
733.00,0.0606
732.00,0.0596
731.00,0.0585
730.00,0.0574
729.00,0.0562
728.00,0.0550
727.00,0.0539
726.00,0.0529
725.00,0.0520
724.00,0.0511
723.00,0.0503
722.00,0.0497
721.00,0.0492
720.00,0.0487
719.00,0.0484
718.00,0.0483
717.00,0.0483
716.00,0.0482
715.00,0.0482
714.00,0.0482
713.00,0.0481
712.00,0.0479
711.00,0.0477
710.00,0.0476
709.00,0.0474
708.00,0.0473
707.00,0.0473
706.00,0.0475
705.00,0.0476
704.00,0.0478
703.00,0.0479
702.00,0.0481
701.00,0.0483
700.00,0.0485
699.00,0.0488
698.00,0.0494
697.00,0.0501
696.00,0.0509
695.00,0.0518
694.00,0.0528
693.00,0.0537
692.00,0.0545
691.00,0.0552
690.00,0.0559
689.00,0.0564
688.00,0.0568
687.00,0.0570
686.00,0.0573
685.00,0.0574
684.00,0.0575
683.00,0.0575
682.00,0.0577
681.00,0.0579
680.00,0.0581
679.00,0.0583
678.00,0.0587
677.00,0.0592
676.00,0.0597
675.00,0.0603
674.00,0.0611
673.00,0.0619
672.00,0.0625
671.00,0.0631
670.00,0.0637
669.00,0.0647
668.00,0.0661
667.00,0.0675
666.00,0.0686
665.00,0.0695
664.00,0.0703
663.00,0.0714
662.00,0.0727
661.00,0.0740
660.00,0.0754
659.00,0.0768
658.00,0.0783
657.00,0.0797
656.00,0.0811
655.00,0.0824
654.00,0.0839
653.00,0.0852
652.00,0.0863
651.00,0.0872
650.00,0.0879
649.00,0.0883
648.00,0.0885
647.00,0.0884
646.00,0.0882
645.00,0.0878
644.00,0.0870
643.00,0.0861
642.00,0.0851
641.00,0.0841
640.00,0.0829
639.00,0.0818
638.00,0.0808
637.00,0.0799
636.00,0.0790
635.00,0.0781
634.00,0.0774
633.00,0.0768
632.00,0.0761
631.00,0.0755
630.00,0.0751
629.00,0.0748
628.00,0.0745
627.00,0.0743
626.00,0.0741
625.00,0.0739
624.00,0.0735
623.00,0.0732
622.00,0.0731
621.00,0.0729
620.00,0.0727
619.00,0.0724
618.00,0.0723
617.00,0.0722
616.00,0.0720
615.00,0.0718
614.00,0.0719
613.00,0.0719
612.00,0.0720
611.00,0.0721
610.00,0.0725
609.00,0.0729
608.00,0.0731
607.00,0.0733
606.00,0.0736
605.00,0.0739
604.00,0.0741
603.00,0.0743
602.00,0.0747
601.00,0.0751
600.00,0.0753
599.00,0.0755
598.00,0.0758
597.00,0.0759
596.00,0.0758
595.00,0.0758
594.00,0.0760
593.00,0.0763
592.00,0.0767
591.00,0.0773
590.00,0.0783
589.00,0.0795
588.00,0.0808
587.00,0.0825
586.00,0.0846
585.00,0.0868
584.00,0.0888
583.00,0.0907
582.00,0.0923
581.00,0.0935
580.00,0.0943
579.00,0.0949
578.00,0.0954
577.00,0.0958
576.00,0.0959
575.00,0.0959
574.00,0.0961
573.00,0.0961
572.00,0.0960
571.00,0.0958
570.00,0.0957
569.00,0.0956
568.00,0.0953
567.00,0.0950
566.00,0.0946
565.00,0.0942
564.00,0.0936
563.00,0.0929
562.00,0.0922
561.00,0.0913
560.00,0.0903
559.00,0.0895
558.00,0.0890
557.00,0.0886
556.00,0.0880
555.00,0.0875
554.00,0.0870
553.00,0.0864
552.00,0.0857
551.00,0.0850
550.00,0.0847
549.00,0.0845
548.00,0.0840
547.00,0.0835
546.00,0.0830
545.00,0.0825
544.00,0.0817
543.00,0.0811
542.00,0.0809
541.00,0.0808
540.00,0.0808
539.00,0.0808
538.00,0.0810
537.00,0.0813
536.00,0.0815
535.00,0.0819
534.00,0.0827
533.00,0.0834
532.00,0.0837
531.00,0.0839
530.00,0.0839
529.00,0.0837
528.00,0.0831
527.00,0.0823
526.00,0.0818
525.00,0.0812
524.00,0.0805
523.00,0.0798
522.00,0.0796
521.00,0.0793
520.00,0.0789
519.00,0.0785
518.00,0.0783
517.00,0.0782
516.00,0.0778
515.00,0.0776
514.00,0.0776
513.00,0.0778
512.00,0.0779
511.00,0.0782
510.00,0.0787
509.00,0.0792
508.00,0.0792
507.00,0.0791
506.00,0.0791
505.00,0.0790
504.00,0.0785
503.00,0.0781
502.00,0.0781
501.00,0.0780
500.00,0.0776
499.00,0.0773
498.00,0.0774
497.00,0.0776
496.00,0.0776
495.00,0.0776
494.00,0.0778
493.00,0.0780
492.00,0.0780
491.00,0.0781
490.00,0.0786
489.00,0.0792
488.00,0.0793
487.00,0.0793
486.00,0.0795
485.00,0.0795
484.00,0.0792
483.00,0.0789
482.00,0.0790
481.00,0.0792
480.00,0.0792
479.00,0.0792
478.00,0.0796
477.00,0.0798
476.00,0.0797
475.00,0.0797
474.00,0.0800
473.00,0.0803
472.00,0.0799
471.00,0.0795
470.00,0.0795
469.00,0.0793
468.00,0.0786
467.00,0.0781
466.00,0.0781
465.00,0.0781
464.00,0.0776
463.00,0.0771
462.00,0.0771
461.00,0.0771
460.00,0.0766
459.00,0.0761
458.00,0.0761
457.00,0.0759
456.00,0.0752
455.00,0.0746
454.00,0.0746
453.00,0.0745
452.00,0.0739
451.00,0.0735
450.00,0.0736
449.00,0.0737
448.00,0.0734
447.00,0.0729
446.00,0.0728
445.00,0.0724
444.00,0.0715
443.00,0.0706
442.00,0.0703
441.00,0.0701
440.00,0.0695
439.00,0.0691
438.00,0.0695
437.00,0.0699
436.00,0.0697
435.00,0.0693
434.00,0.0692
433.00,0.0688
432.00,0.0676
431.00,0.0667
430.00,0.0667
429.00,0.0669
428.00,0.0665
427.00,0.0662
426.00,0.0663
425.00,0.0662
424.00,0.0654
423.00,0.0647
422.00,0.0651
421.00,0.0656
420.00,0.0654
419.00,0.0657
418.00,0.0671
417.00,0.0679
416.00,0.0673
415.00,0.0670
414.00,0.0678
413.00,0.0687
412.00,0.0686
411.00,0.0684
410.00,0.0690
409.00,0.0690
408.00,0.0677
407.00,0.0667
406.00,0.0674
405.00,0.0681
404.00,0.0671
403.00,0.0659
402.00,0.0661
401.00,0.0666
400.00,0.0661
