Created as New Dataset,Sample 846 By YargerLab Date Monday, July 21 2025
cm-1,A
4000.00,0.0067
3999.00,0.0067
3998.00,0.0067
3997.00,0.0068
3996.00,0.0068
3995.00,0.0068
3994.00,0.0068
3993.00,0.0068
3992.00,0.0067
3991.00,0.0067
3990.00,0.0066
3989.00,0.0066
3988.00,0.0067
3987.00,0.0067
3986.00,0.0067
3985.00,0.0067
3984.00,0.0067
3983.00,0.0067
3982.00,0.0067
3981.00,0.0066
3980.00,0.0066
3979.00,0.0066
3978.00,0.0066
3977.00,0.0066
3976.00,0.0066
3975.00,0.0066
3974.00,0.0066
3973.00,0.0066
3972.00,0.0066
3971.00,0.0066
3970.00,0.0065
3969.00,0.0065
3968.00,0.0066
3967.00,0.0066
3966.00,0.0066
3965.00,0.0067
3964.00,0.0067
3963.00,0.0067
3962.00,0.0067
3961.00,0.0067
3960.00,0.0067
3959.00,0.0067
3958.00,0.0067
3957.00,0.0068
3956.00,0.0068
3955.00,0.0068
3954.00,0.0068
3953.00,0.0069
3952.00,0.0069
3951.00,0.0069
3950.00,0.0069
3949.00,0.0070
3948.00,0.0070
3947.00,0.0070
3946.00,0.0069
3945.00,0.0068
3944.00,0.0068
3943.00,0.0067
3942.00,0.0066
3941.00,0.0066
3940.00,0.0067
3939.00,0.0067
3938.00,0.0067
3937.00,0.0067
3936.00,0.0067
3935.00,0.0068
3934.00,0.0068
3933.00,0.0068
3932.00,0.0068
3931.00,0.0068
3930.00,0.0068
3929.00,0.0068
3928.00,0.0068
3927.00,0.0068
3926.00,0.0068
3925.00,0.0068
3924.00,0.0068
3923.00,0.0067
3922.00,0.0067
3921.00,0.0066
3920.00,0.0067
3919.00,0.0067
3918.00,0.0067
3917.00,0.0068
3916.00,0.0067
3915.00,0.0067
3914.00,0.0067
3913.00,0.0068
3912.00,0.0068
3911.00,0.0068
3910.00,0.0068
3909.00,0.0068
3908.00,0.0068
3907.00,0.0067
3906.00,0.0067
3905.00,0.0067
3904.00,0.0067
3903.00,0.0066
3902.00,0.0065
3901.00,0.0064
3900.00,0.0064
3899.00,0.0064
3898.00,0.0064
3897.00,0.0065
3896.00,0.0065
3895.00,0.0066
3894.00,0.0066
3893.00,0.0066
3892.00,0.0066
3891.00,0.0066
3890.00,0.0066
3889.00,0.0066
3888.00,0.0066
3887.00,0.0066
3886.00,0.0066
3885.00,0.0066
3884.00,0.0066
3883.00,0.0066
3882.00,0.0067
3881.00,0.0067
3880.00,0.0067
3879.00,0.0067
3878.00,0.0066
3877.00,0.0066
3876.00,0.0065
3875.00,0.0065
3874.00,0.0065
3873.00,0.0065
3872.00,0.0065
3871.00,0.0065
3870.00,0.0065
3869.00,0.0065
3868.00,0.0065
3867.00,0.0065
3866.00,0.0065
3865.00,0.0065
3864.00,0.0065
3863.00,0.0065
3862.00,0.0065
3861.00,0.0065
3860.00,0.0065
3859.00,0.0065
3858.00,0.0065
3857.00,0.0065
3856.00,0.0064
3855.00,0.0064
3854.00,0.0064
3853.00,0.0064
3852.00,0.0063
3851.00,0.0063
3850.00,0.0063
3849.00,0.0063
3848.00,0.0063
3847.00,0.0064
3846.00,0.0064
3845.00,0.0065
3844.00,0.0066
3843.00,0.0066
3842.00,0.0067
3841.00,0.0068
3840.00,0.0068
3839.00,0.0068
3838.00,0.0068
3837.00,0.0068
3836.00,0.0068
3835.00,0.0068
3834.00,0.0068
3833.00,0.0067
3832.00,0.0067
3831.00,0.0066
3830.00,0.0066
3829.00,0.0066
3828.00,0.0066
3827.00,0.0066
3826.00,0.0066
3825.00,0.0066
3824.00,0.0066
3823.00,0.0066
3822.00,0.0066
3821.00,0.0065
3820.00,0.0064
3819.00,0.0064
3818.00,0.0064
3817.00,0.0064
3816.00,0.0064
3815.00,0.0064
3814.00,0.0064
3813.00,0.0064
3812.00,0.0063
3811.00,0.0064
3810.00,0.0064
3809.00,0.0065
3808.00,0.0066
3807.00,0.0066
3806.00,0.0065
3805.00,0.0064
3804.00,0.0063
3803.00,0.0062
3802.00,0.0062
3801.00,0.0062
3800.00,0.0062
3799.00,0.0062
3798.00,0.0063
3797.00,0.0063
3796.00,0.0064
3795.00,0.0064
3794.00,0.0064
3793.00,0.0064
3792.00,0.0064
3791.00,0.0064
3790.00,0.0063
3789.00,0.0063
3788.00,0.0063
3787.00,0.0063
3786.00,0.0063
3785.00,0.0064
3784.00,0.0064
3783.00,0.0064
3782.00,0.0064
3781.00,0.0064
3780.00,0.0064
3779.00,0.0064
3778.00,0.0064
3777.00,0.0065
3776.00,0.0065
3775.00,0.0064
3774.00,0.0063
3773.00,0.0063
3772.00,0.0063
3771.00,0.0063
3770.00,0.0064
3769.00,0.0064
3768.00,0.0064
3767.00,0.0064
3766.00,0.0064
3765.00,0.0064
3764.00,0.0064
3763.00,0.0064
3762.00,0.0064
3761.00,0.0064
3760.00,0.0064
3759.00,0.0064
3758.00,0.0064
3757.00,0.0065
3756.00,0.0065
3755.00,0.0065
3754.00,0.0065
3753.00,0.0065
3752.00,0.0064
3751.00,0.0064
3750.00,0.0063
3749.00,0.0062
3748.00,0.0061
3747.00,0.0060
3746.00,0.0060
3745.00,0.0061
3744.00,0.0061
3743.00,0.0061
3742.00,0.0062
3741.00,0.0062
3740.00,0.0062
3739.00,0.0062
3738.00,0.0062
3737.00,0.0062
3736.00,0.0062
3735.00,0.0062
3734.00,0.0061
3733.00,0.0062
3732.00,0.0062
3731.00,0.0062
3730.00,0.0063
3729.00,0.0063
3728.00,0.0063
3727.00,0.0064
3726.00,0.0064
3725.00,0.0064
3724.00,0.0063
3723.00,0.0063
3722.00,0.0062
3721.00,0.0062
3720.00,0.0061
3719.00,0.0061
3718.00,0.0061
3717.00,0.0062
3716.00,0.0063
3715.00,0.0063
3714.00,0.0064
3713.00,0.0065
3712.00,0.0064
3711.00,0.0064
3710.00,0.0063
3709.00,0.0062
3708.00,0.0062
3707.00,0.0062
3706.00,0.0063
3705.00,0.0063
3704.00,0.0063
3703.00,0.0063
3702.00,0.0062
3701.00,0.0061
3700.00,0.0060
3699.00,0.0060
3698.00,0.0060
3697.00,0.0061
3696.00,0.0061
3695.00,0.0062
3694.00,0.0062
3693.00,0.0062
3692.00,0.0062
3691.00,0.0061
3690.00,0.0061
3689.00,0.0061
3688.00,0.0061
3687.00,0.0061
3686.00,0.0061
3685.00,0.0061
3684.00,0.0062
3683.00,0.0062
3682.00,0.0063
3681.00,0.0064
3680.00,0.0064
3679.00,0.0064
3678.00,0.0064
3677.00,0.0064
3676.00,0.0063
3675.00,0.0062
3674.00,0.0061
3673.00,0.0061
3672.00,0.0060
3671.00,0.0060
3670.00,0.0060
3669.00,0.0059
3668.00,0.0060
3667.00,0.0060
3666.00,0.0061
3665.00,0.0062
3664.00,0.0062
3663.00,0.0061
3662.00,0.0061
3661.00,0.0061
3660.00,0.0061
3659.00,0.0060
3658.00,0.0060
3657.00,0.0060
3656.00,0.0060
3655.00,0.0060
3654.00,0.0061
3653.00,0.0062
3652.00,0.0062
3651.00,0.0061
3650.00,0.0060
3649.00,0.0060
3648.00,0.0059
3647.00,0.0059
3646.00,0.0059
3645.00,0.0060
3644.00,0.0060
3643.00,0.0060
3642.00,0.0061
3641.00,0.0061
3640.00,0.0061
3639.00,0.0061
3638.00,0.0061
3637.00,0.0061
3636.00,0.0061
3635.00,0.0060
3634.00,0.0059
3633.00,0.0059
3632.00,0.0059
3631.00,0.0059
3630.00,0.0059
3629.00,0.0060
3628.00,0.0060
3627.00,0.0060
3626.00,0.0060
3625.00,0.0060
3624.00,0.0060
3623.00,0.0060
3622.00,0.0060
3621.00,0.0060
3620.00,0.0060
3619.00,0.0060
3618.00,0.0060
3617.00,0.0060
3616.00,0.0061
3615.00,0.0061
3614.00,0.0061
3613.00,0.0060
3612.00,0.0060
3611.00,0.0060
3610.00,0.0060
3609.00,0.0060
3608.00,0.0061
3607.00,0.0061
3606.00,0.0062
3605.00,0.0062
3604.00,0.0062
3603.00,0.0062
3602.00,0.0062
3601.00,0.0062
3600.00,0.0062
3599.00,0.0062
3598.00,0.0062
3597.00,0.0062
3596.00,0.0063
3595.00,0.0063
3594.00,0.0062
3593.00,0.0062
3592.00,0.0062
3591.00,0.0062
3590.00,0.0062
3589.00,0.0062
3588.00,0.0062
3587.00,0.0063
3586.00,0.0063
3585.00,0.0064
3584.00,0.0064
3583.00,0.0064
3582.00,0.0065
3581.00,0.0066
3580.00,0.0066
3579.00,0.0067
3578.00,0.0067
3577.00,0.0067
3576.00,0.0067
3575.00,0.0066
3574.00,0.0066
3573.00,0.0066
3572.00,0.0067
3571.00,0.0067
3570.00,0.0068
3569.00,0.0069
3568.00,0.0070
3567.00,0.0070
3566.00,0.0071
3565.00,0.0071
3564.00,0.0072
3563.00,0.0072
3562.00,0.0072
3561.00,0.0072
3560.00,0.0073
3559.00,0.0074
3558.00,0.0076
3557.00,0.0078
3556.00,0.0079
3555.00,0.0080
3554.00,0.0081
3553.00,0.0082
3552.00,0.0083
3551.00,0.0084
3550.00,0.0085
3549.00,0.0087
3548.00,0.0088
3547.00,0.0090
3546.00,0.0092
3545.00,0.0095
3544.00,0.0098
3543.00,0.0102
3542.00,0.0106
3541.00,0.0110
3540.00,0.0115
3539.00,0.0120
3538.00,0.0126
3537.00,0.0134
3536.00,0.0142
3535.00,0.0151
3534.00,0.0161
3533.00,0.0173
3532.00,0.0187
3531.00,0.0204
3530.00,0.0224
3529.00,0.0245
3528.00,0.0269
3527.00,0.0295
3526.00,0.0320
3525.00,0.0343
3524.00,0.0362
3523.00,0.0377
3522.00,0.0387
3521.00,0.0391
3520.00,0.0389
3519.00,0.0383
3518.00,0.0373
3517.00,0.0360
3516.00,0.0345
3515.00,0.0328
3514.00,0.0311
3513.00,0.0293
3512.00,0.0277
3511.00,0.0261
3510.00,0.0247
3509.00,0.0235
3508.00,0.0225
3507.00,0.0217
3506.00,0.0211
3505.00,0.0205
3504.00,0.0200
3503.00,0.0196
3502.00,0.0193
3501.00,0.0191
3500.00,0.0190
3499.00,0.0189
3498.00,0.0189
3497.00,0.0189
3496.00,0.0189
3495.00,0.0189
3494.00,0.0190
3493.00,0.0191
3492.00,0.0192
3491.00,0.0194
3490.00,0.0195
3489.00,0.0196
3488.00,0.0198
3487.00,0.0200
3486.00,0.0202
3485.00,0.0204
3484.00,0.0207
3483.00,0.0209
3482.00,0.0212
3481.00,0.0214
3480.00,0.0216
3479.00,0.0219
3478.00,0.0222
3477.00,0.0226
3476.00,0.0230
3475.00,0.0235
3474.00,0.0239
3473.00,0.0242
3472.00,0.0246
3471.00,0.0250
3470.00,0.0255
3469.00,0.0260
3468.00,0.0264
3467.00,0.0269
3466.00,0.0274
3465.00,0.0279
3464.00,0.0284
3463.00,0.0290
3462.00,0.0295
3461.00,0.0300
3460.00,0.0305
3459.00,0.0309
3458.00,0.0314
3457.00,0.0319
3456.00,0.0324
3455.00,0.0330
3454.00,0.0335
3453.00,0.0340
3452.00,0.0344
3451.00,0.0349
3450.00,0.0354
3449.00,0.0358
3448.00,0.0363
3447.00,0.0367
3446.00,0.0371
3445.00,0.0376
3444.00,0.0380
3443.00,0.0384
3442.00,0.0388
3441.00,0.0393
3440.00,0.0397
3439.00,0.0402
3438.00,0.0406
3437.00,0.0410
3436.00,0.0414
3435.00,0.0417
3434.00,0.0421
3433.00,0.0424
3432.00,0.0427
3431.00,0.0431
3430.00,0.0434
3429.00,0.0438
3428.00,0.0441
3427.00,0.0445
3426.00,0.0448
3425.00,0.0452
3424.00,0.0456
3423.00,0.0461
3422.00,0.0466
3421.00,0.0472
3420.00,0.0478
3419.00,0.0485
3418.00,0.0491
3417.00,0.0497
3416.00,0.0503
3415.00,0.0509
3414.00,0.0514
3413.00,0.0518
3412.00,0.0521
3411.00,0.0523
3410.00,0.0522
3409.00,0.0520
3408.00,0.0517
3407.00,0.0512
3406.00,0.0505
3405.00,0.0496
3404.00,0.0486
3403.00,0.0475
3402.00,0.0462
3401.00,0.0448
3400.00,0.0433
3399.00,0.0418
3398.00,0.0403
3397.00,0.0388
3396.00,0.0375
3395.00,0.0362
3394.00,0.0349
3393.00,0.0337
3392.00,0.0326
3391.00,0.0315
3390.00,0.0305
3389.00,0.0296
3388.00,0.0288
3387.00,0.0280
3386.00,0.0272
3385.00,0.0266
3384.00,0.0259
3383.00,0.0254
3382.00,0.0248
3381.00,0.0243
3380.00,0.0238
3379.00,0.0233
3378.00,0.0229
3377.00,0.0224
3376.00,0.0219
3375.00,0.0215
3374.00,0.0211
3373.00,0.0208
3372.00,0.0204
3371.00,0.0200
3370.00,0.0197
3369.00,0.0193
3368.00,0.0190
3367.00,0.0187
3366.00,0.0185
3365.00,0.0182
3364.00,0.0179
3363.00,0.0176
3362.00,0.0173
3361.00,0.0171
3360.00,0.0169
3359.00,0.0167
3358.00,0.0165
3357.00,0.0163
3356.00,0.0160
3355.00,0.0158
3354.00,0.0156
3353.00,0.0154
3352.00,0.0151
3351.00,0.0149
3350.00,0.0148
3349.00,0.0146
3348.00,0.0144
3347.00,0.0143
3346.00,0.0141
3345.00,0.0140
3344.00,0.0138
3343.00,0.0138
3342.00,0.0137
3341.00,0.0136
3340.00,0.0134
3339.00,0.0133
3338.00,0.0131
3337.00,0.0130
3336.00,0.0129
3335.00,0.0128
3334.00,0.0127
3333.00,0.0126
3332.00,0.0125
3331.00,0.0124
3330.00,0.0123
3329.00,0.0121
3328.00,0.0120
3327.00,0.0119
3326.00,0.0119
3325.00,0.0118
3324.00,0.0117
3323.00,0.0115
3322.00,0.0113
3321.00,0.0112
3320.00,0.0111
3319.00,0.0112
3318.00,0.0112
3317.00,0.0112
3316.00,0.0111
3315.00,0.0110
3314.00,0.0108
3313.00,0.0107
3312.00,0.0106
3311.00,0.0105
3310.00,0.0105
3309.00,0.0105
3308.00,0.0104
3307.00,0.0104
3306.00,0.0103
3305.00,0.0103
3304.00,0.0103
3303.00,0.0103
3302.00,0.0103
3301.00,0.0102
3300.00,0.0101
3299.00,0.0100
3298.00,0.0100
3297.00,0.0100
3296.00,0.0099
3295.00,0.0098
3294.00,0.0096
3293.00,0.0095
3292.00,0.0094
3291.00,0.0094
3290.00,0.0094
3289.00,0.0094
3288.00,0.0093
3287.00,0.0093
3286.00,0.0092
3285.00,0.0092
3284.00,0.0092
3283.00,0.0092
3282.00,0.0092
3281.00,0.0091
3280.00,0.0091
3279.00,0.0090
3278.00,0.0089
3277.00,0.0089
3276.00,0.0088
3275.00,0.0088
3274.00,0.0087
3273.00,0.0087
3272.00,0.0087
3271.00,0.0087
3270.00,0.0087
3269.00,0.0087
3268.00,0.0087
3267.00,0.0087
3266.00,0.0087
3265.00,0.0087
3264.00,0.0086
3263.00,0.0086
3262.00,0.0085
3261.00,0.0085
3260.00,0.0085
3259.00,0.0085
3258.00,0.0085
3257.00,0.0084
3256.00,0.0084
3255.00,0.0084
3254.00,0.0085
3253.00,0.0085
3252.00,0.0085
3251.00,0.0084
3250.00,0.0083
3249.00,0.0082
3248.00,0.0082
3247.00,0.0082
3246.00,0.0082
3245.00,0.0082
3244.00,0.0082
3243.00,0.0081
3242.00,0.0081
3241.00,0.0081
3240.00,0.0081
3239.00,0.0081
3238.00,0.0080
3237.00,0.0080
3236.00,0.0079
3235.00,0.0079
3234.00,0.0079
3233.00,0.0079
3232.00,0.0080
3231.00,0.0080
3230.00,0.0080
3229.00,0.0080
3228.00,0.0080
3227.00,0.0080
3226.00,0.0080
3225.00,0.0080
3224.00,0.0079
3223.00,0.0079
3222.00,0.0078
3221.00,0.0078
3220.00,0.0079
3219.00,0.0078
3218.00,0.0078
3217.00,0.0078
3216.00,0.0077
3215.00,0.0077
3214.00,0.0077
3213.00,0.0077
3212.00,0.0078
3211.00,0.0077
3210.00,0.0077
3209.00,0.0077
3208.00,0.0076
3207.00,0.0076
3206.00,0.0076
3205.00,0.0076
3204.00,0.0075
3203.00,0.0075
3202.00,0.0076
3201.00,0.0076
3200.00,0.0077
3199.00,0.0077
3198.00,0.0077
3197.00,0.0076
3196.00,0.0075
3195.00,0.0074
3194.00,0.0073
3193.00,0.0074
3192.00,0.0074
3191.00,0.0075
3190.00,0.0076
3189.00,0.0076
3188.00,0.0075
3187.00,0.0074
3186.00,0.0074
3185.00,0.0074
3184.00,0.0074
3183.00,0.0074
3182.00,0.0074
3181.00,0.0074
3180.00,0.0074
3179.00,0.0074
3178.00,0.0074
3177.00,0.0074
3176.00,0.0075
3175.00,0.0075
3174.00,0.0075
3173.00,0.0076
3172.00,0.0076
3171.00,0.0077
3170.00,0.0077
3169.00,0.0078
3168.00,0.0078
3167.00,0.0078
3166.00,0.0077
3165.00,0.0077
3164.00,0.0077
3163.00,0.0077
3162.00,0.0077
3161.00,0.0077
3160.00,0.0076
3159.00,0.0076
3158.00,0.0076
3157.00,0.0075
3156.00,0.0075
3155.00,0.0075
3154.00,0.0074
3153.00,0.0074
3152.00,0.0074
3151.00,0.0074
3150.00,0.0074
3149.00,0.0074
3148.00,0.0074
3147.00,0.0074
3146.00,0.0074
3145.00,0.0074
3144.00,0.0074
3143.00,0.0073
3142.00,0.0072
3141.00,0.0071
3140.00,0.0071
3139.00,0.0071
3138.00,0.0071
3137.00,0.0071
3136.00,0.0071
3135.00,0.0072
3134.00,0.0072
3133.00,0.0073
3132.00,0.0073
3131.00,0.0074
3130.00,0.0074
3129.00,0.0074
3128.00,0.0074
3127.00,0.0074
3126.00,0.0073
3125.00,0.0073
3124.00,0.0072
3123.00,0.0072
3122.00,0.0072
3121.00,0.0072
3120.00,0.0073
3119.00,0.0073
3118.00,0.0073
3117.00,0.0073
3116.00,0.0072
3115.00,0.0072
3114.00,0.0071
3113.00,0.0072
3112.00,0.0072
3111.00,0.0072
3110.00,0.0072
3109.00,0.0072
3108.00,0.0071
3107.00,0.0071
3106.00,0.0071
3105.00,0.0071
3104.00,0.0072
3103.00,0.0073
3102.00,0.0073
3101.00,0.0073
3100.00,0.0073
3099.00,0.0073
3098.00,0.0073
3097.00,0.0073
3096.00,0.0074
3095.00,0.0074
3094.00,0.0074
3093.00,0.0075
3092.00,0.0076
3091.00,0.0076
3090.00,0.0077
3089.00,0.0077
3088.00,0.0077
3087.00,0.0077
3086.00,0.0078
3085.00,0.0078
3084.00,0.0080
3083.00,0.0083
3082.00,0.0087
3081.00,0.0092
3080.00,0.0098
3079.00,0.0106
3078.00,0.0115
3077.00,0.0124
3076.00,0.0132
3075.00,0.0137
3074.00,0.0139
3073.00,0.0137
3072.00,0.0131
3071.00,0.0124
3070.00,0.0116
3069.00,0.0109
3068.00,0.0102
3067.00,0.0097
3066.00,0.0092
3065.00,0.0089
3064.00,0.0086
3063.00,0.0085
3062.00,0.0084
3061.00,0.0084
3060.00,0.0083
3059.00,0.0082
3058.00,0.0081
3057.00,0.0080
3056.00,0.0079
3055.00,0.0078
3054.00,0.0078
3053.00,0.0078
3052.00,0.0079
3051.00,0.0080
3050.00,0.0080
3049.00,0.0080
3048.00,0.0081
3047.00,0.0082
3046.00,0.0083
3045.00,0.0084
3044.00,0.0085
3043.00,0.0085
3042.00,0.0086
3041.00,0.0086
3040.00,0.0086
3039.00,0.0087
3038.00,0.0088
3037.00,0.0090
3036.00,0.0091
3035.00,0.0093
3034.00,0.0094
3033.00,0.0095
3032.00,0.0095
3031.00,0.0095
3030.00,0.0094
3029.00,0.0093
3028.00,0.0091
3027.00,0.0089
3026.00,0.0088
3025.00,0.0087
3024.00,0.0086
3023.00,0.0086
3022.00,0.0085
3021.00,0.0085
3020.00,0.0084
3019.00,0.0084
3018.00,0.0083
3017.00,0.0083
3016.00,0.0084
3015.00,0.0084
3014.00,0.0085
3013.00,0.0086
3012.00,0.0087
3011.00,0.0088
3010.00,0.0089
3009.00,0.0091
3008.00,0.0092
3007.00,0.0094
3006.00,0.0095
3005.00,0.0095
3004.00,0.0096
3003.00,0.0097
3002.00,0.0097
3001.00,0.0098
3000.00,0.0100
2999.00,0.0101
2998.00,0.0103
2997.00,0.0105
2996.00,0.0107
2995.00,0.0108
2994.00,0.0110
2993.00,0.0112
2992.00,0.0115
2991.00,0.0118
2990.00,0.0121
2989.00,0.0124
2988.00,0.0126
2987.00,0.0128
2986.00,0.0129
2985.00,0.0131
2984.00,0.0133
2983.00,0.0136
2982.00,0.0140
2981.00,0.0145
2980.00,0.0150
2979.00,0.0157
2978.00,0.0165
2977.00,0.0174
2976.00,0.0185
2975.00,0.0198
2974.00,0.0213
2973.00,0.0229
2972.00,0.0247
2971.00,0.0265
2970.00,0.0283
2969.00,0.0299
2968.00,0.0313
2967.00,0.0324
2966.00,0.0332
2965.00,0.0335
2964.00,0.0337
2963.00,0.0336
2962.00,0.0334
2961.00,0.0332
2960.00,0.0328
2959.00,0.0323
2958.00,0.0316
2957.00,0.0308
2956.00,0.0299
2955.00,0.0290
2954.00,0.0281
2953.00,0.0273
2952.00,0.0267
2951.00,0.0262
2950.00,0.0260
2949.00,0.0260
2948.00,0.0264
2947.00,0.0272
2946.00,0.0283
2945.00,0.0296
2944.00,0.0312
2943.00,0.0328
2942.00,0.0344
2941.00,0.0359
2940.00,0.0373
2939.00,0.0387
2938.00,0.0400
2937.00,0.0415
2936.00,0.0430
2935.00,0.0447
2934.00,0.0466
2933.00,0.0485
2932.00,0.0505
2931.00,0.0525
2930.00,0.0543
2929.00,0.0561
2928.00,0.0577
2927.00,0.0589
2926.00,0.0598
2925.00,0.0601
2924.00,0.0600
2923.00,0.0594
2922.00,0.0586
2921.00,0.0577
2920.00,0.0568
2919.00,0.0560
2918.00,0.0552
2917.00,0.0545
2916.00,0.0536
2915.00,0.0526
2914.00,0.0514
2913.00,0.0501
2912.00,0.0486
2911.00,0.0469
2910.00,0.0453
2909.00,0.0436
2908.00,0.0420
2907.00,0.0405
2906.00,0.0391
2905.00,0.0379
2904.00,0.0369
2903.00,0.0360
2902.00,0.0352
2901.00,0.0345
2900.00,0.0337
2899.00,0.0329
2898.00,0.0321
2897.00,0.0311
2896.00,0.0302
2895.00,0.0293
2894.00,0.0284
2893.00,0.0277
2892.00,0.0271
2891.00,0.0266
2890.00,0.0261
2889.00,0.0258
2888.00,0.0255
2887.00,0.0253
2886.00,0.0252
2885.00,0.0251
2884.00,0.0250
2883.00,0.0249
2882.00,0.0249
2881.00,0.0249
2880.00,0.0250
2879.00,0.0253
2878.00,0.0256
2877.00,0.0261
2876.00,0.0266
2875.00,0.0272
2874.00,0.0277
2873.00,0.0281
2872.00,0.0283
2871.00,0.0283
2870.00,0.0281
2869.00,0.0278
2868.00,0.0274
2867.00,0.0271
2866.00,0.0271
2865.00,0.0274
2864.00,0.0281
2863.00,0.0292
2862.00,0.0307
2861.00,0.0327
2860.00,0.0350
2859.00,0.0375
2858.00,0.0398
2857.00,0.0415
2856.00,0.0424
2855.00,0.0423
2854.00,0.0411
2853.00,0.0392
2852.00,0.0368
2851.00,0.0342
2850.00,0.0315
2849.00,0.0290
2848.00,0.0267
2847.00,0.0247
2846.00,0.0230
2845.00,0.0215
2844.00,0.0203
2843.00,0.0193
2842.00,0.0185
2841.00,0.0178
2840.00,0.0173
2839.00,0.0170
2838.00,0.0169
2837.00,0.0171
2836.00,0.0176
2835.00,0.0183
2834.00,0.0193
2833.00,0.0205
2832.00,0.0217
2831.00,0.0228
2830.00,0.0234
2829.00,0.0234
2828.00,0.0228
2827.00,0.0215
2826.00,0.0200
2825.00,0.0184
2824.00,0.0169
2823.00,0.0156
2822.00,0.0146
2821.00,0.0138
2820.00,0.0132
2819.00,0.0127
2818.00,0.0123
2817.00,0.0120
2816.00,0.0117
2815.00,0.0115
2814.00,0.0112
2813.00,0.0110
2812.00,0.0108
2811.00,0.0107
2810.00,0.0106
2809.00,0.0105
2808.00,0.0105
2807.00,0.0104
2806.00,0.0103
2805.00,0.0102
2804.00,0.0100
2803.00,0.0099
2802.00,0.0098
2801.00,0.0097
2800.00,0.0096
2799.00,0.0096
2798.00,0.0095
2797.00,0.0094
2796.00,0.0094
2795.00,0.0094
2794.00,0.0093
2793.00,0.0093
2792.00,0.0092
2791.00,0.0092
2790.00,0.0091
2789.00,0.0090
2788.00,0.0090
2787.00,0.0090
2786.00,0.0089
2785.00,0.0088
2784.00,0.0088
2783.00,0.0087
2782.00,0.0086
2781.00,0.0086
2780.00,0.0086
2779.00,0.0086
2778.00,0.0085
2777.00,0.0085
2776.00,0.0085
2775.00,0.0084
2774.00,0.0084
2773.00,0.0084
2772.00,0.0083
2771.00,0.0083
2770.00,0.0083
2769.00,0.0082
2768.00,0.0082
2767.00,0.0082
2766.00,0.0082
2765.00,0.0082
2764.00,0.0081
2763.00,0.0081
2762.00,0.0081
2761.00,0.0081
2760.00,0.0081
2759.00,0.0080
2758.00,0.0080
2757.00,0.0080
2756.00,0.0080
2755.00,0.0081
2754.00,0.0081
2753.00,0.0081
2752.00,0.0080
2751.00,0.0080
2750.00,0.0080
2749.00,0.0080
2748.00,0.0080
2747.00,0.0080
2746.00,0.0081
2745.00,0.0081
2744.00,0.0081
2743.00,0.0081
2742.00,0.0081
2741.00,0.0082
2740.00,0.0082
2739.00,0.0083
2738.00,0.0083
2737.00,0.0084
2736.00,0.0085
2735.00,0.0086
2734.00,0.0087
2733.00,0.0088
2732.00,0.0089
2731.00,0.0090
2730.00,0.0091
2729.00,0.0091
2728.00,0.0091
2727.00,0.0090
2726.00,0.0089
2725.00,0.0088
2724.00,0.0086
2723.00,0.0085
2722.00,0.0083
2721.00,0.0083
2720.00,0.0082
2719.00,0.0082
2718.00,0.0082
2717.00,0.0081
2716.00,0.0081
2715.00,0.0080
2714.00,0.0080
2713.00,0.0079
2712.00,0.0078
2711.00,0.0078
2710.00,0.0078
2709.00,0.0078
2708.00,0.0078
2707.00,0.0078
2706.00,0.0078
2705.00,0.0078
2704.00,0.0077
2703.00,0.0077
2702.00,0.0076
2701.00,0.0076
2700.00,0.0075
2699.00,0.0075
2698.00,0.0076
2697.00,0.0076
2696.00,0.0076
2695.00,0.0076
2694.00,0.0076
2693.00,0.0076
2692.00,0.0076
2691.00,0.0076
2690.00,0.0077
2689.00,0.0077
2688.00,0.0078
2687.00,0.0078
2686.00,0.0078
2685.00,0.0077
2684.00,0.0077
2683.00,0.0077
2682.00,0.0077
2681.00,0.0078
2680.00,0.0078
2679.00,0.0078
2678.00,0.0078
2677.00,0.0078
2676.00,0.0079
2675.00,0.0079
2674.00,0.0080
2673.00,0.0080
2672.00,0.0080
2671.00,0.0080
2670.00,0.0079
2669.00,0.0079
2668.00,0.0080
2667.00,0.0080
2666.00,0.0081
2665.00,0.0081
2664.00,0.0081
2663.00,0.0082
2662.00,0.0082
2661.00,0.0082
2660.00,0.0082
2659.00,0.0082
2658.00,0.0081
2657.00,0.0081
2656.00,0.0081
2655.00,0.0082
2654.00,0.0082
2653.00,0.0081
2652.00,0.0081
2651.00,0.0080
2650.00,0.0080
2649.00,0.0080
2648.00,0.0080
2647.00,0.0080
2646.00,0.0081
2645.00,0.0080
2644.00,0.0080
2643.00,0.0080
2642.00,0.0079
2641.00,0.0079
2640.00,0.0079
2639.00,0.0079
2638.00,0.0079
2637.00,0.0078
2636.00,0.0078
2635.00,0.0078
2634.00,0.0078
2633.00,0.0078
2632.00,0.0078
2631.00,0.0078
2630.00,0.0078
2629.00,0.0078
2628.00,0.0078
2627.00,0.0078
2626.00,0.0078
2625.00,0.0078
2624.00,0.0078
2623.00,0.0078
2622.00,0.0077
2621.00,0.0077
2620.00,0.0077
2619.00,0.0077
2618.00,0.0077
2617.00,0.0077
2616.00,0.0077
2615.00,0.0077
2614.00,0.0076
2613.00,0.0076
2612.00,0.0076
2611.00,0.0076
2610.00,0.0076
2609.00,0.0075
2608.00,0.0075
2607.00,0.0075
2606.00,0.0075
2605.00,0.0074
2604.00,0.0074
2603.00,0.0074
2602.00,0.0074
2601.00,0.0075
2600.00,0.0076
2599.00,0.0076
2598.00,0.0076
2597.00,0.0076
2596.00,0.0075
2595.00,0.0075
2594.00,0.0075
2593.00,0.0074
2592.00,0.0074
2591.00,0.0073
2590.00,0.0073
2589.00,0.0073
2588.00,0.0074
2587.00,0.0075
2586.00,0.0075
2585.00,0.0074
2584.00,0.0073
2583.00,0.0073
2582.00,0.0073
2581.00,0.0074
2580.00,0.0075
2579.00,0.0075
2578.00,0.0075
2577.00,0.0075
2576.00,0.0074
2575.00,0.0074
2574.00,0.0074
2573.00,0.0075
2572.00,0.0075
2571.00,0.0075
2570.00,0.0075
2569.00,0.0076
2568.00,0.0075
2567.00,0.0075
2566.00,0.0074
2565.00,0.0073
2564.00,0.0073
2563.00,0.0073
2562.00,0.0074
2561.00,0.0074
2560.00,0.0073
2559.00,0.0072
2558.00,0.0072
2557.00,0.0071
2556.00,0.0071
2555.00,0.0071
2554.00,0.0072
2553.00,0.0072
2552.00,0.0072
2551.00,0.0072
2550.00,0.0071
2549.00,0.0070
2548.00,0.0070
2547.00,0.0070
2546.00,0.0071
2545.00,0.0071
2544.00,0.0071
2543.00,0.0071
2542.00,0.0071
2541.00,0.0071
2540.00,0.0071
2539.00,0.0071
2538.00,0.0070
2537.00,0.0070
2536.00,0.0070
2535.00,0.0070
2534.00,0.0071
2533.00,0.0072
2532.00,0.0073
2531.00,0.0074
2530.00,0.0075
2529.00,0.0075
2528.00,0.0074
2527.00,0.0073
2526.00,0.0072
2525.00,0.0071
2524.00,0.0071
2523.00,0.0071
2522.00,0.0071
2521.00,0.0071
2520.00,0.0071
2519.00,0.0071
2518.00,0.0070
2517.00,0.0070
2516.00,0.0069
2515.00,0.0070
2514.00,0.0070
2513.00,0.0070
2512.00,0.0070
2511.00,0.0071
2510.00,0.0071
2509.00,0.0072
2508.00,0.0072
2507.00,0.0072
2506.00,0.0072
2505.00,0.0073
2504.00,0.0073
2503.00,0.0073
2502.00,0.0073
2501.00,0.0072
2500.00,0.0072
2499.00,0.0072
2498.00,0.0073
2497.00,0.0073
2496.00,0.0073
2495.00,0.0073
2494.00,0.0073
2493.00,0.0073
2492.00,0.0073
2491.00,0.0072
2490.00,0.0071
2489.00,0.0071
2488.00,0.0071
2487.00,0.0071
2486.00,0.0071
2485.00,0.0071
2484.00,0.0071
2483.00,0.0071
2482.00,0.0071
2481.00,0.0071
2480.00,0.0071
2479.00,0.0071
2478.00,0.0071
2477.00,0.0072
2476.00,0.0072
2475.00,0.0072
2474.00,0.0072
2473.00,0.0071
2472.00,0.0070
2471.00,0.0069
2470.00,0.0069
2469.00,0.0070
2468.00,0.0071
2467.00,0.0071
2466.00,0.0071
2465.00,0.0071
2464.00,0.0072
2463.00,0.0072
2462.00,0.0072
2461.00,0.0072
2460.00,0.0072
2459.00,0.0072
2458.00,0.0073
2457.00,0.0074
2456.00,0.0074
2455.00,0.0074
2454.00,0.0074
2453.00,0.0073
2452.00,0.0073
2451.00,0.0073
2450.00,0.0073
2449.00,0.0073
2448.00,0.0073
2447.00,0.0072
2446.00,0.0072
2445.00,0.0072
2444.00,0.0071
2443.00,0.0070
2442.00,0.0069
2441.00,0.0069
2440.00,0.0069
2439.00,0.0069
2438.00,0.0068
2437.00,0.0068
2436.00,0.0067
2435.00,0.0066
2434.00,0.0066
2433.00,0.0066
2432.00,0.0066
2431.00,0.0067
2430.00,0.0068
2429.00,0.0069
2428.00,0.0069
2427.00,0.0068
2426.00,0.0067
2425.00,0.0067
2424.00,0.0067
2423.00,0.0066
2422.00,0.0066
2421.00,0.0066
2420.00,0.0066
2419.00,0.0066
2418.00,0.0065
2417.00,0.0065
2416.00,0.0065
2415.00,0.0064
2414.00,0.0064
2413.00,0.0064
2412.00,0.0064
2411.00,0.0064
2410.00,0.0064
2409.00,0.0064
2408.00,0.0065
2407.00,0.0065
2406.00,0.0065
2405.00,0.0065
2404.00,0.0065
2403.00,0.0065
2402.00,0.0066
2401.00,0.0066
2400.00,0.0066
2399.00,0.0065
2398.00,0.0064
2397.00,0.0064
2396.00,0.0063
2395.00,0.0063
2394.00,0.0063
2393.00,0.0063
2392.00,0.0063
2391.00,0.0064
2390.00,0.0064
2389.00,0.0065
2388.00,0.0065
2387.00,0.0066
2386.00,0.0065
2385.00,0.0065
2384.00,0.0065
2383.00,0.0065
2382.00,0.0065
2381.00,0.0065
2380.00,0.0065
2379.00,0.0065
2378.00,0.0065
2377.00,0.0065
2376.00,0.0066
2375.00,0.0066
2374.00,0.0065
2373.00,0.0065
2372.00,0.0065
2371.00,0.0066
2370.00,0.0066
2369.00,0.0066
2368.00,0.0065
2367.00,0.0064
2366.00,0.0064
2365.00,0.0065
2364.00,0.0067
2363.00,0.0068
2362.00,0.0070
2361.00,0.0070
2360.00,0.0071
2359.00,0.0070
2358.00,0.0070
2357.00,0.0069
2356.00,0.0068
2355.00,0.0067
2354.00,0.0066
2353.00,0.0066
2352.00,0.0065
2351.00,0.0066
2350.00,0.0067
2349.00,0.0069
2348.00,0.0071
2347.00,0.0072
2346.00,0.0072
2345.00,0.0071
2344.00,0.0070
2343.00,0.0069
2342.00,0.0068
2341.00,0.0069
2340.00,0.0070
2339.00,0.0071
2338.00,0.0072
2337.00,0.0072
2336.00,0.0072
2335.00,0.0071
2334.00,0.0070
2333.00,0.0069
2332.00,0.0069
2331.00,0.0068
2330.00,0.0068
2329.00,0.0069
2328.00,0.0072
2327.00,0.0076
2326.00,0.0080
2325.00,0.0082
2324.00,0.0082
2323.00,0.0079
2322.00,0.0076
2321.00,0.0074
2320.00,0.0073
2319.00,0.0073
2318.00,0.0073
2317.00,0.0073
2316.00,0.0073
2315.00,0.0072
2314.00,0.0072
2313.00,0.0071
2312.00,0.0071
2311.00,0.0071
2310.00,0.0070
2309.00,0.0070
2308.00,0.0069
2307.00,0.0069
2306.00,0.0070
2305.00,0.0070
2304.00,0.0070
2303.00,0.0070
2302.00,0.0069
2301.00,0.0069
2300.00,0.0068
2299.00,0.0068
2298.00,0.0068
2297.00,0.0068
2296.00,0.0068
2295.00,0.0068
2294.00,0.0068
2293.00,0.0069
2292.00,0.0070
2291.00,0.0071
2290.00,0.0072
2289.00,0.0072
2288.00,0.0073
2287.00,0.0073
2286.00,0.0073
2285.00,0.0073
2284.00,0.0072
2283.00,0.0070
2282.00,0.0069
2281.00,0.0069
2280.00,0.0069
2279.00,0.0069
2278.00,0.0069
2277.00,0.0067
2276.00,0.0066
2275.00,0.0065
2274.00,0.0065
2273.00,0.0065
2272.00,0.0065
2271.00,0.0065
2270.00,0.0066
2269.00,0.0067
2268.00,0.0067
2267.00,0.0067
2266.00,0.0066
2265.00,0.0065
2264.00,0.0064
2263.00,0.0063
2262.00,0.0062
2261.00,0.0063
2260.00,0.0065
2259.00,0.0066
2258.00,0.0067
2257.00,0.0066
2256.00,0.0064
2255.00,0.0061
2254.00,0.0059
2253.00,0.0059
2252.00,0.0061
2251.00,0.0063
2250.00,0.0064
2249.00,0.0065
2248.00,0.0065
2247.00,0.0066
2246.00,0.0067
2245.00,0.0069
2244.00,0.0069
2243.00,0.0069
2242.00,0.0068
2241.00,0.0067
2240.00,0.0064
2239.00,0.0062
2238.00,0.0061
2237.00,0.0060
2236.00,0.0061
2235.00,0.0063
2234.00,0.0065
2233.00,0.0066
2232.00,0.0067
2231.00,0.0066
2230.00,0.0065
2229.00,0.0064
2228.00,0.0064
2227.00,0.0066
2226.00,0.0069
2225.00,0.0071
2224.00,0.0071
2223.00,0.0070
2222.00,0.0068
2221.00,0.0067
2220.00,0.0065
2219.00,0.0062
2218.00,0.0060
2217.00,0.0059
2216.00,0.0061
2215.00,0.0063
2214.00,0.0063
2213.00,0.0061
2212.00,0.0060
2211.00,0.0061
2210.00,0.0063
2209.00,0.0066
2208.00,0.0066
2207.00,0.0063
2206.00,0.0061
2205.00,0.0061
2204.00,0.0062
2203.00,0.0062
2202.00,0.0061
2201.00,0.0061
2200.00,0.0062
2199.00,0.0065
2198.00,0.0068
2197.00,0.0071
2196.00,0.0072
2195.00,0.0071
2194.00,0.0069
2193.00,0.0066
2192.00,0.0064
2191.00,0.0062
2190.00,0.0061
2189.00,0.0062
2188.00,0.0065
2187.00,0.0066
2186.00,0.0064
2185.00,0.0061
2184.00,0.0057
2183.00,0.0053
2182.00,0.0051
2181.00,0.0050
2180.00,0.0050
2179.00,0.0051
2178.00,0.0053
2177.00,0.0055
2176.00,0.0056
2175.00,0.0054
2174.00,0.0052
2173.00,0.0051
2172.00,0.0052
2171.00,0.0057
2170.00,0.0062
2169.00,0.0068
2168.00,0.0073
2167.00,0.0075
2166.00,0.0077
2165.00,0.0078
2164.00,0.0078
2163.00,0.0077
2162.00,0.0073
2161.00,0.0066
2160.00,0.0055
2159.00,0.0042
2158.00,0.0033
2157.00,0.0029
2156.00,0.0029
2155.00,0.0029
2154.00,0.0029
2153.00,0.0030
2152.00,0.0035
2151.00,0.0041
2150.00,0.0045
2149.00,0.0047
2148.00,0.0047
2147.00,0.0047
2146.00,0.0046
2145.00,0.0046
2144.00,0.0045
2143.00,0.0045
2142.00,0.0046
2141.00,0.0049
2140.00,0.0050
2139.00,0.0050
2138.00,0.0048
2137.00,0.0045
2136.00,0.0043
2135.00,0.0039
2134.00,0.0037
2133.00,0.0036
2132.00,0.0039
2131.00,0.0043
2130.00,0.0045
2129.00,0.0047
2128.00,0.0048
2127.00,0.0050
2126.00,0.0053
2125.00,0.0056
2124.00,0.0059
2123.00,0.0060
2122.00,0.0060
2121.00,0.0059
2120.00,0.0059
2119.00,0.0058
2118.00,0.0058
2117.00,0.0058
2116.00,0.0058
2115.00,0.0058
2114.00,0.0058
2113.00,0.0059
2112.00,0.0059
2111.00,0.0058
2110.00,0.0058
2109.00,0.0057
2108.00,0.0057
2107.00,0.0058
2106.00,0.0059
2105.00,0.0060
2104.00,0.0060
2103.00,0.0060
2102.00,0.0058
2101.00,0.0056
2100.00,0.0055
2099.00,0.0054
2098.00,0.0053
2097.00,0.0053
2096.00,0.0052
2095.00,0.0052
2094.00,0.0051
2093.00,0.0050
2092.00,0.0050
2091.00,0.0050
2090.00,0.0051
2089.00,0.0053
2088.00,0.0056
2087.00,0.0059
2086.00,0.0062
2085.00,0.0063
2084.00,0.0064
2083.00,0.0062
2082.00,0.0060
2081.00,0.0058
2080.00,0.0057
2079.00,0.0056
2078.00,0.0056
2077.00,0.0056
2076.00,0.0056
2075.00,0.0057
2074.00,0.0057
2073.00,0.0057
2072.00,0.0057
2071.00,0.0056
2070.00,0.0054
2069.00,0.0053
2068.00,0.0052
2067.00,0.0051
2066.00,0.0050
2065.00,0.0051
2064.00,0.0053
2063.00,0.0055
2062.00,0.0056
2061.00,0.0056
2060.00,0.0056
2059.00,0.0056
2058.00,0.0056
2057.00,0.0057
2056.00,0.0057
2055.00,0.0056
2054.00,0.0056
2053.00,0.0056
2052.00,0.0058
2051.00,0.0059
2050.00,0.0059
2049.00,0.0058
2048.00,0.0056
2047.00,0.0056
2046.00,0.0056
2045.00,0.0057
2044.00,0.0057
2043.00,0.0056
2042.00,0.0055
2041.00,0.0054
2040.00,0.0054
2039.00,0.0053
2038.00,0.0052
2037.00,0.0048
2036.00,0.0044
2035.00,0.0041
2034.00,0.0039
2033.00,0.0040
2032.00,0.0041
2031.00,0.0041
2030.00,0.0041
2029.00,0.0042
2028.00,0.0045
2027.00,0.0047
2026.00,0.0048
2025.00,0.0049
2024.00,0.0049
2023.00,0.0050
2022.00,0.0050
2021.00,0.0051
2020.00,0.0053
2019.00,0.0055
2018.00,0.0057
2017.00,0.0057
2016.00,0.0055
2015.00,0.0051
2014.00,0.0050
2013.00,0.0051
2012.00,0.0053
2011.00,0.0055
2010.00,0.0056
2009.00,0.0056
2008.00,0.0054
2007.00,0.0049
2006.00,0.0044
2005.00,0.0041
2004.00,0.0042
2003.00,0.0043
2002.00,0.0044
2001.00,0.0046
2000.00,0.0048
1999.00,0.0050
1998.00,0.0050
1997.00,0.0050
1996.00,0.0048
1995.00,0.0047
1994.00,0.0048
1993.00,0.0049
1992.00,0.0052
1991.00,0.0053
1990.00,0.0054
1989.00,0.0055
1988.00,0.0056
1987.00,0.0056
1986.00,0.0056
1985.00,0.0056
1984.00,0.0058
1983.00,0.0061
1982.00,0.0064
1981.00,0.0066
1980.00,0.0065
1979.00,0.0060
1978.00,0.0054
1977.00,0.0049
1976.00,0.0048
1975.00,0.0049
1974.00,0.0050
1973.00,0.0052
1972.00,0.0055
1971.00,0.0057
1970.00,0.0056
1969.00,0.0053
1968.00,0.0048
1967.00,0.0043
1966.00,0.0040
1965.00,0.0040
1964.00,0.0041
1963.00,0.0042
1962.00,0.0042
1961.00,0.0043
1960.00,0.0045
1959.00,0.0045
1958.00,0.0045
1957.00,0.0044
1956.00,0.0044
1955.00,0.0044
1954.00,0.0043
1953.00,0.0043
1952.00,0.0045
1951.00,0.0047
1950.00,0.0050
1949.00,0.0051
1948.00,0.0052
1947.00,0.0053
1946.00,0.0053
1945.00,0.0054
1944.00,0.0055
1943.00,0.0054
1942.00,0.0052
1941.00,0.0050
1940.00,0.0048
1939.00,0.0048
1938.00,0.0049
1937.00,0.0050
1936.00,0.0050
1935.00,0.0049
1934.00,0.0049
1933.00,0.0048
1932.00,0.0048
1931.00,0.0048
1930.00,0.0047
1929.00,0.0047
1928.00,0.0047
1927.00,0.0047
1926.00,0.0048
1925.00,0.0050
1924.00,0.0052
1923.00,0.0053
1922.00,0.0053
1921.00,0.0052
1920.00,0.0052
1919.00,0.0051
1918.00,0.0050
1917.00,0.0049
1916.00,0.0049
1915.00,0.0049
1914.00,0.0050
1913.00,0.0051
1912.00,0.0051
1911.00,0.0052
1910.00,0.0052
1909.00,0.0052
1908.00,0.0052
1907.00,0.0052
1906.00,0.0052
1905.00,0.0052
1904.00,0.0053
1903.00,0.0054
1902.00,0.0054
1901.00,0.0054
1900.00,0.0054
1899.00,0.0053
1898.00,0.0052
1897.00,0.0052
1896.00,0.0053
1895.00,0.0054
1894.00,0.0054
1893.00,0.0055
1892.00,0.0055
1891.00,0.0055
1890.00,0.0054
1889.00,0.0052
1888.00,0.0051
1887.00,0.0050
1886.00,0.0050
1885.00,0.0050
1884.00,0.0051
1883.00,0.0052
1882.00,0.0053
1881.00,0.0052
1880.00,0.0051
1879.00,0.0051
1878.00,0.0051
1877.00,0.0052
1876.00,0.0052
1875.00,0.0052
1874.00,0.0051
1873.00,0.0050
1872.00,0.0050
1871.00,0.0051
1870.00,0.0053
1869.00,0.0054
1868.00,0.0055
1867.00,0.0054
1866.00,0.0054
1865.00,0.0054
1864.00,0.0054
1863.00,0.0053
1862.00,0.0053
1861.00,0.0053
1860.00,0.0053
1859.00,0.0053
1858.00,0.0053
1857.00,0.0054
1856.00,0.0054
1855.00,0.0054
1854.00,0.0053
1853.00,0.0054
1852.00,0.0054
1851.00,0.0054
1850.00,0.0053
1849.00,0.0052
1848.00,0.0051
1847.00,0.0051
1846.00,0.0051
1845.00,0.0051
1844.00,0.0051
1843.00,0.0051
1842.00,0.0053
1841.00,0.0054
1840.00,0.0056
1839.00,0.0057
1838.00,0.0056
1837.00,0.0055
1836.00,0.0055
1835.00,0.0056
1834.00,0.0056
1833.00,0.0056
1832.00,0.0055
1831.00,0.0055
1830.00,0.0056
1829.00,0.0056
1828.00,0.0057
1827.00,0.0057
1826.00,0.0056
1825.00,0.0056
1824.00,0.0056
1823.00,0.0056
1822.00,0.0055
1821.00,0.0055
1820.00,0.0055
1819.00,0.0055
1818.00,0.0054
1817.00,0.0054
1816.00,0.0054
1815.00,0.0055
1814.00,0.0056
1813.00,0.0057
1812.00,0.0057
1811.00,0.0057
1810.00,0.0057
1809.00,0.0057
1808.00,0.0059
1807.00,0.0060
1806.00,0.0061
1805.00,0.0061
1804.00,0.0061
1803.00,0.0060
1802.00,0.0060
1801.00,0.0060
1800.00,0.0060
1799.00,0.0061
1798.00,0.0062
1797.00,0.0062
1796.00,0.0061
1795.00,0.0061
1794.00,0.0060
1793.00,0.0060
1792.00,0.0060
1791.00,0.0060
1790.00,0.0060
1789.00,0.0060
1788.00,0.0060
1787.00,0.0060
1786.00,0.0061
1785.00,0.0061
1784.00,0.0061
1783.00,0.0061
1782.00,0.0061
1781.00,0.0061
1780.00,0.0061
1779.00,0.0062
1778.00,0.0062
1777.00,0.0062
1776.00,0.0062
1775.00,0.0062
1774.00,0.0062
1773.00,0.0062
1772.00,0.0062
1771.00,0.0062
1770.00,0.0063
1769.00,0.0063
1768.00,0.0062
1767.00,0.0062
1766.00,0.0061
1765.00,0.0060
1764.00,0.0060
1763.00,0.0060
1762.00,0.0060
1761.00,0.0059
1760.00,0.0059
1759.00,0.0058
1758.00,0.0058
1757.00,0.0058
1756.00,0.0059
1755.00,0.0059
1754.00,0.0059
1753.00,0.0059
1752.00,0.0059
1751.00,0.0060
1750.00,0.0059
1749.00,0.0059
1748.00,0.0059
1747.00,0.0059
1746.00,0.0059
1745.00,0.0058
1744.00,0.0059
1743.00,0.0059
1742.00,0.0060
1741.00,0.0060
1740.00,0.0060
1739.00,0.0061
1738.00,0.0061
1737.00,0.0061
1736.00,0.0061
1735.00,0.0061
1734.00,0.0059
1733.00,0.0058
1732.00,0.0058
1731.00,0.0059
1730.00,0.0060
1729.00,0.0060
1728.00,0.0061
1727.00,0.0061
1726.00,0.0061
1725.00,0.0061
1724.00,0.0061
1723.00,0.0062
1722.00,0.0062
1721.00,0.0062
1720.00,0.0062
1719.00,0.0062
1718.00,0.0063
1717.00,0.0063
1716.00,0.0063
1715.00,0.0063
1714.00,0.0064
1713.00,0.0064
1712.00,0.0064
1711.00,0.0065
1710.00,0.0065
1709.00,0.0065
1708.00,0.0066
1707.00,0.0066
1706.00,0.0066
1705.00,0.0066
1704.00,0.0066
1703.00,0.0066
1702.00,0.0067
1701.00,0.0067
1700.00,0.0067
1699.00,0.0067
1698.00,0.0068
1697.00,0.0067
1696.00,0.0067
1695.00,0.0066
1694.00,0.0066
1693.00,0.0066
1692.00,0.0067
1691.00,0.0067
1690.00,0.0067
1689.00,0.0067
1688.00,0.0066
1687.00,0.0066
1686.00,0.0065
1685.00,0.0065
1684.00,0.0065
1683.00,0.0065
1682.00,0.0066
1681.00,0.0066
1680.00,0.0067
1679.00,0.0067
1678.00,0.0068
1677.00,0.0068
1676.00,0.0068
1675.00,0.0069
1674.00,0.0070
1673.00,0.0072
1672.00,0.0073
1671.00,0.0074
1670.00,0.0075
1669.00,0.0077
1668.00,0.0079
1667.00,0.0081
1666.00,0.0083
1665.00,0.0085
1664.00,0.0088
1663.00,0.0090
1662.00,0.0090
1661.00,0.0091
1660.00,0.0091
1659.00,0.0091
1658.00,0.0091
1657.00,0.0090
1656.00,0.0090
1655.00,0.0091
1654.00,0.0094
1653.00,0.0101
1652.00,0.0109
1651.00,0.0117
1650.00,0.0124
1649.00,0.0134
1648.00,0.0152
1647.00,0.0181
1646.00,0.0215
1645.00,0.0242
1644.00,0.0258
1643.00,0.0262
1642.00,0.0257
1641.00,0.0248
1640.00,0.0239
1639.00,0.0235
1638.00,0.0237
1637.00,0.0250
1636.00,0.0279
1635.00,0.0315
1634.00,0.0347
1633.00,0.0370
1632.00,0.0388
1631.00,0.0402
1630.00,0.0412
1629.00,0.0421
1628.00,0.0430
1627.00,0.0442
1626.00,0.0457
1625.00,0.0473
1624.00,0.0487
1623.00,0.0490
1622.00,0.0478
1621.00,0.0453
1620.00,0.0421
1619.00,0.0386
1618.00,0.0346
1617.00,0.0303
1616.00,0.0264
1615.00,0.0236
1614.00,0.0218
1613.00,0.0204
1612.00,0.0192
1611.00,0.0180
1610.00,0.0170
1609.00,0.0162
1608.00,0.0155
1607.00,0.0149
1606.00,0.0144
1605.00,0.0141
1604.00,0.0138
1603.00,0.0137
1602.00,0.0138
1601.00,0.0139
1600.00,0.0142
1599.00,0.0146
1598.00,0.0151
1597.00,0.0158
1596.00,0.0167
1595.00,0.0180
1594.00,0.0197
1593.00,0.0219
1592.00,0.0249
1591.00,0.0286
1590.00,0.0330
1589.00,0.0380
1588.00,0.0432
1587.00,0.0482
1586.00,0.0527
1585.00,0.0565
1584.00,0.0597
1583.00,0.0619
1582.00,0.0630
1581.00,0.0625
1580.00,0.0608
1579.00,0.0579
1578.00,0.0538
1577.00,0.0485
1576.00,0.0426
1575.00,0.0376
1574.00,0.0341
1573.00,0.0314
1572.00,0.0291
1571.00,0.0267
1570.00,0.0242
1569.00,0.0219
1568.00,0.0200
1567.00,0.0186
1566.00,0.0173
1565.00,0.0162
1564.00,0.0152
1563.00,0.0144
1562.00,0.0138
1561.00,0.0133
1560.00,0.0129
1559.00,0.0124
1558.00,0.0119
1557.00,0.0116
1556.00,0.0113
1555.00,0.0111
1554.00,0.0109
1553.00,0.0107
1552.00,0.0105
1551.00,0.0103
1550.00,0.0101
1549.00,0.0100
1548.00,0.0098
1547.00,0.0097
1546.00,0.0095
1545.00,0.0094
1544.00,0.0093
1543.00,0.0093
1542.00,0.0094
1541.00,0.0094
1540.00,0.0094
1539.00,0.0093
1538.00,0.0092
1537.00,0.0092
1536.00,0.0092
1535.00,0.0092
1534.00,0.0092
1533.00,0.0092
1532.00,0.0093
1531.00,0.0093
1530.00,0.0093
1529.00,0.0093
1528.00,0.0094
1527.00,0.0094
1526.00,0.0095
1525.00,0.0097
1524.00,0.0100
1523.00,0.0105
1522.00,0.0113
1521.00,0.0124
1520.00,0.0134
1519.00,0.0143
1518.00,0.0152
1517.00,0.0161
1516.00,0.0169
1515.00,0.0175
1514.00,0.0176
1513.00,0.0174
1512.00,0.0169
1511.00,0.0161
1510.00,0.0153
1509.00,0.0145
1508.00,0.0137
1507.00,0.0130
1506.00,0.0125
1505.00,0.0122
1504.00,0.0121
1503.00,0.0120
1502.00,0.0119
1501.00,0.0118
1500.00,0.0116
1499.00,0.0114
1498.00,0.0112
1497.00,0.0109
1496.00,0.0105
1495.00,0.0103
1494.00,0.0101
1493.00,0.0100
1492.00,0.0098
1491.00,0.0095
1490.00,0.0092
1489.00,0.0089
1488.00,0.0089
1487.00,0.0088
1486.00,0.0088
1485.00,0.0089
1484.00,0.0089
1483.00,0.0089
1482.00,0.0090
1481.00,0.0090
1480.00,0.0091
1479.00,0.0092
1478.00,0.0094
1477.00,0.0096
1476.00,0.0099
1475.00,0.0102
1474.00,0.0106
1473.00,0.0114
1472.00,0.0126
1471.00,0.0142
1470.00,0.0160
1469.00,0.0179
1468.00,0.0198
1467.00,0.0214
1466.00,0.0226
1465.00,0.0234
1464.00,0.0240
1463.00,0.0247
1462.00,0.0254
1461.00,0.0262
1460.00,0.0268
1459.00,0.0274
1458.00,0.0281
1457.00,0.0294
1456.00,0.0311
1455.00,0.0329
1454.00,0.0350
1453.00,0.0377
1452.00,0.0410
1451.00,0.0450
1450.00,0.0494
1449.00,0.0545
1448.00,0.0601
1447.00,0.0654
1446.00,0.0695
1445.00,0.0724
1444.00,0.0739
1443.00,0.0743
1442.00,0.0738
1441.00,0.0728
1440.00,0.0715
1439.00,0.0697
1438.00,0.0674
1437.00,0.0646
1436.00,0.0616
1435.00,0.0588
1434.00,0.0563
1433.00,0.0538
1432.00,0.0510
1431.00,0.0476
1430.00,0.0438
1429.00,0.0397
1428.00,0.0355
1427.00,0.0317
1426.00,0.0282
1425.00,0.0251
1424.00,0.0224
1423.00,0.0203
1422.00,0.0188
1421.00,0.0175
1420.00,0.0162
1419.00,0.0152
1418.00,0.0145
1417.00,0.0140
1416.00,0.0136
1415.00,0.0133
1414.00,0.0130
1413.00,0.0127
1412.00,0.0124
1411.00,0.0122
1410.00,0.0120
1409.00,0.0118
1408.00,0.0117
1407.00,0.0115
1406.00,0.0115
1405.00,0.0115
1404.00,0.0114
1403.00,0.0114
1402.00,0.0113
1401.00,0.0112
1400.00,0.0111
1399.00,0.0111
1398.00,0.0111
1397.00,0.0111
1396.00,0.0110
1395.00,0.0110
1394.00,0.0109
1393.00,0.0109
1392.00,0.0109
1391.00,0.0109
1390.00,0.0109
1389.00,0.0110
1388.00,0.0111
1387.00,0.0114
1386.00,0.0118
1385.00,0.0124
1384.00,0.0132
1383.00,0.0143
1382.00,0.0158
1381.00,0.0177
1380.00,0.0202
1379.00,0.0231
1378.00,0.0263
1377.00,0.0290
1376.00,0.0310
1375.00,0.0317
1374.00,0.0311
1373.00,0.0295
1372.00,0.0277
1371.00,0.0259
1370.00,0.0243
1369.00,0.0228
1368.00,0.0216
1367.00,0.0206
1366.00,0.0198
1365.00,0.0189
1364.00,0.0181
1363.00,0.0172
1362.00,0.0166
1361.00,0.0161
1360.00,0.0158
1359.00,0.0157
1358.00,0.0155
1357.00,0.0154
1356.00,0.0153
1355.00,0.0154
1354.00,0.0154
1353.00,0.0155
1352.00,0.0156
1351.00,0.0158
1350.00,0.0160
1349.00,0.0162
1348.00,0.0165
1347.00,0.0169
1346.00,0.0173
1345.00,0.0177
1344.00,0.0181
1343.00,0.0184
1342.00,0.0186
1341.00,0.0185
1340.00,0.0182
1339.00,0.0177
1338.00,0.0171
1337.00,0.0167
1336.00,0.0165
1335.00,0.0165
1334.00,0.0167
1333.00,0.0171
1332.00,0.0175
1331.00,0.0181
1330.00,0.0187
1329.00,0.0193
1328.00,0.0199
1327.00,0.0204
1326.00,0.0210
1325.00,0.0215
1324.00,0.0219
1323.00,0.0219
1322.00,0.0215
1321.00,0.0209
1320.00,0.0202
1319.00,0.0199
1318.00,0.0200
1317.00,0.0208
1316.00,0.0222
1315.00,0.0241
1314.00,0.0262
1313.00,0.0281
1312.00,0.0295
1311.00,0.0300
1310.00,0.0298
1309.00,0.0292
1308.00,0.0284
1307.00,0.0280
1306.00,0.0279
1305.00,0.0284
1304.00,0.0290
1303.00,0.0298
1302.00,0.0304
1301.00,0.0306
1300.00,0.0305
1299.00,0.0302
1298.00,0.0297
1297.00,0.0290
1296.00,0.0283
1295.00,0.0276
1294.00,0.0267
1293.00,0.0259
1292.00,0.0251
1291.00,0.0244
1290.00,0.0239
1289.00,0.0236
1288.00,0.0236
1287.00,0.0239
1286.00,0.0246
1285.00,0.0255
1284.00,0.0267
1283.00,0.0279
1282.00,0.0290
1281.00,0.0300
1280.00,0.0308
1279.00,0.0312
1278.00,0.0314
1277.00,0.0312
1276.00,0.0306
1275.00,0.0297
1274.00,0.0286
1273.00,0.0272
1272.00,0.0256
1271.00,0.0239
1270.00,0.0222
1269.00,0.0206
1268.00,0.0191
1267.00,0.0179
1266.00,0.0168
1265.00,0.0160
1264.00,0.0153
1263.00,0.0148
1262.00,0.0143
1261.00,0.0138
1260.00,0.0135
1259.00,0.0132
1258.00,0.0130
1257.00,0.0129
1256.00,0.0128
1255.00,0.0128
1254.00,0.0130
1253.00,0.0133
1252.00,0.0138
1251.00,0.0145
1250.00,0.0152
1249.00,0.0159
1248.00,0.0165
1247.00,0.0170
1246.00,0.0175
1245.00,0.0182
1244.00,0.0194
1243.00,0.0212
1242.00,0.0237
1241.00,0.0266
1240.00,0.0299
1239.00,0.0330
1238.00,0.0356
1237.00,0.0372
1236.00,0.0380
1235.00,0.0380
1234.00,0.0376
1233.00,0.0368
1232.00,0.0356
1231.00,0.0343
1230.00,0.0333
1229.00,0.0331
1228.00,0.0340
1227.00,0.0360
1226.00,0.0386
1225.00,0.0417
1224.00,0.0451
1223.00,0.0487
1222.00,0.0528
1221.00,0.0578
1220.00,0.0639
1219.00,0.0713
1218.00,0.0795
1217.00,0.0872
1216.00,0.0931
1215.00,0.0960
1214.00,0.0955
1213.00,0.0918
1212.00,0.0857
1211.00,0.0785
1210.00,0.0712
1209.00,0.0645
1208.00,0.0586
1207.00,0.0536
1206.00,0.0494
1205.00,0.0458
1204.00,0.0424
1203.00,0.0393
1202.00,0.0363
1201.00,0.0334
1200.00,0.0308
1199.00,0.0284
1198.00,0.0264
1197.00,0.0248
1196.00,0.0236
1195.00,0.0226
1194.00,0.0219
1193.00,0.0214
1192.00,0.0213
1191.00,0.0215
1190.00,0.0219
1189.00,0.0224
1188.00,0.0230
1187.00,0.0236
1186.00,0.0243
1185.00,0.0250
1184.00,0.0257
1183.00,0.0263
1182.00,0.0268
1181.00,0.0271
1180.00,0.0274
1179.00,0.0277
1178.00,0.0280
1177.00,0.0283
1176.00,0.0287
1175.00,0.0293
1174.00,0.0303
1173.00,0.0314
1172.00,0.0319
1171.00,0.0311
1170.00,0.0291
1169.00,0.0264
1168.00,0.0236
1167.00,0.0213
1166.00,0.0194
1165.00,0.0180
1164.00,0.0170
1163.00,0.0162
1162.00,0.0156
1161.00,0.0152
1160.00,0.0151
1159.00,0.0151
1158.00,0.0154
1157.00,0.0160
1156.00,0.0171
1155.00,0.0189
1154.00,0.0216
1153.00,0.0252
1152.00,0.0289
1151.00,0.0317
1150.00,0.0324
1149.00,0.0306
1148.00,0.0272
1147.00,0.0233
1146.00,0.0201
1145.00,0.0177
1144.00,0.0161
1143.00,0.0151
1142.00,0.0143
1141.00,0.0139
1140.00,0.0137
1139.00,0.0138
1138.00,0.0140
1137.00,0.0143
1136.00,0.0145
1135.00,0.0147
1134.00,0.0147
1133.00,0.0144
1132.00,0.0140
1131.00,0.0135
1130.00,0.0130
1129.00,0.0125
1128.00,0.0121
1127.00,0.0118
1126.00,0.0116
1125.00,0.0114
1124.00,0.0113
1123.00,0.0112
1122.00,0.0111
1121.00,0.0110
1120.00,0.0109
1119.00,0.0110
1118.00,0.0111
1117.00,0.0112
1116.00,0.0113
1115.00,0.0114
1114.00,0.0116
1113.00,0.0118
1112.00,0.0120
1111.00,0.0121
1110.00,0.0123
1109.00,0.0124
1108.00,0.0127
1107.00,0.0130
1106.00,0.0135
1105.00,0.0141
1104.00,0.0147
1103.00,0.0154
1102.00,0.0163
1101.00,0.0171
1100.00,0.0179
1099.00,0.0184
1098.00,0.0184
1097.00,0.0179
1096.00,0.0170
1095.00,0.0160
1094.00,0.0151
1093.00,0.0144
1092.00,0.0139
1091.00,0.0136
1090.00,0.0133
1089.00,0.0130
1088.00,0.0128
1087.00,0.0129
1086.00,0.0131
1085.00,0.0136
1084.00,0.0144
1083.00,0.0153
1082.00,0.0165
1081.00,0.0175
1080.00,0.0183
1079.00,0.0185
1078.00,0.0183
1077.00,0.0176
1076.00,0.0168
1075.00,0.0159
1074.00,0.0152
1073.00,0.0145
1072.00,0.0139
1071.00,0.0136
1070.00,0.0134
1069.00,0.0133
1068.00,0.0131
1067.00,0.0130
1066.00,0.0130
1065.00,0.0130
1064.00,0.0131
1063.00,0.0133
1062.00,0.0136
1061.00,0.0140
1060.00,0.0148
1059.00,0.0160
1058.00,0.0178
1057.00,0.0204
1056.00,0.0237
1055.00,0.0276
1054.00,0.0315
1053.00,0.0346
1052.00,0.0365
1051.00,0.0371
1050.00,0.0365
1049.00,0.0348
1048.00,0.0321
1047.00,0.0290
1046.00,0.0261
1045.00,0.0238
1044.00,0.0224
1043.00,0.0218
1042.00,0.0218
1041.00,0.0221
1040.00,0.0227
1039.00,0.0237
1038.00,0.0251
1037.00,0.0271
1036.00,0.0299
1035.00,0.0335
1034.00,0.0373
1033.00,0.0405
1032.00,0.0424
1031.00,0.0427
1030.00,0.0415
1029.00,0.0395
1028.00,0.0373
1027.00,0.0357
1026.00,0.0351
1025.00,0.0357
1024.00,0.0376
1023.00,0.0408
1022.00,0.0450
1021.00,0.0493
1020.00,0.0527
1019.00,0.0542
1018.00,0.0532
1017.00,0.0503
1016.00,0.0463
1015.00,0.0422
1014.00,0.0384
1013.00,0.0353
1012.00,0.0328
1011.00,0.0311
1010.00,0.0300
1009.00,0.0296
1008.00,0.0297
1007.00,0.0302
1006.00,0.0312
1005.00,0.0327
1004.00,0.0342
1003.00,0.0353
1002.00,0.0357
1001.00,0.0351
1000.00,0.0336
999.00,0.0313
998.00,0.0287
997.00,0.0261
996.00,0.0237
995.00,0.0219
994.00,0.0206
993.00,0.0198
992.00,0.0194
991.00,0.0194
990.00,0.0196
989.00,0.0201
988.00,0.0206
987.00,0.0211
986.00,0.0215
985.00,0.0216
984.00,0.0214
983.00,0.0207
982.00,0.0197
981.00,0.0188
980.00,0.0180
979.00,0.0175
978.00,0.0172
977.00,0.0170
976.00,0.0167
975.00,0.0164
974.00,0.0163
973.00,0.0162
972.00,0.0163
971.00,0.0166
970.00,0.0171
969.00,0.0176
968.00,0.0183
967.00,0.0191
966.00,0.0201
965.00,0.0212
964.00,0.0225
963.00,0.0237
962.00,0.0247
961.00,0.0251
960.00,0.0247
959.00,0.0235
958.00,0.0218
957.00,0.0200
956.00,0.0184
955.00,0.0169
954.00,0.0158
953.00,0.0148
952.00,0.0141
951.00,0.0137
950.00,0.0134
949.00,0.0132
948.00,0.0130
947.00,0.0127
946.00,0.0125
945.00,0.0123
944.00,0.0121
943.00,0.0119
942.00,0.0117
941.00,0.0117
940.00,0.0116
939.00,0.0117
938.00,0.0118
937.00,0.0118
936.00,0.0118
935.00,0.0117
934.00,0.0116
933.00,0.0116
932.00,0.0118
931.00,0.0121
930.00,0.0124
929.00,0.0127
928.00,0.0129
927.00,0.0129
926.00,0.0128
925.00,0.0127
924.00,0.0126
923.00,0.0125
922.00,0.0124
921.00,0.0125
920.00,0.0127
919.00,0.0130
918.00,0.0135
917.00,0.0139
916.00,0.0143
915.00,0.0145
914.00,0.0145
913.00,0.0144
912.00,0.0142
911.00,0.0142
910.00,0.0144
909.00,0.0149
908.00,0.0156
907.00,0.0165
906.00,0.0178
905.00,0.0194
904.00,0.0211
903.00,0.0232
902.00,0.0257
901.00,0.0290
900.00,0.0333
899.00,0.0386
898.00,0.0441
897.00,0.0483
896.00,0.0498
895.00,0.0485
894.00,0.0450
893.00,0.0408
892.00,0.0368
891.00,0.0338
890.00,0.0321
889.00,0.0320
888.00,0.0340
887.00,0.0382
886.00,0.0440
885.00,0.0500
884.00,0.0540
883.00,0.0542
882.00,0.0505
881.00,0.0442
880.00,0.0376
879.00,0.0320
878.00,0.0279
877.00,0.0251
876.00,0.0234
875.00,0.0225
874.00,0.0222
873.00,0.0225
872.00,0.0233
871.00,0.0243
870.00,0.0251
869.00,0.0253
868.00,0.0250
867.00,0.0246
866.00,0.0247
865.00,0.0255
864.00,0.0271
863.00,0.0290
862.00,0.0306
861.00,0.0313
860.00,0.0313
859.00,0.0310
858.00,0.0308
857.00,0.0310
856.00,0.0318
855.00,0.0328
854.00,0.0338
853.00,0.0345
852.00,0.0349
851.00,0.0349
850.00,0.0343
849.00,0.0333
848.00,0.0319
847.00,0.0305
846.00,0.0292
845.00,0.0284
844.00,0.0278
843.00,0.0274
842.00,0.0270
841.00,0.0266
840.00,0.0263
839.00,0.0261
838.00,0.0261
837.00,0.0265
836.00,0.0271
835.00,0.0280
834.00,0.0292
833.00,0.0305
832.00,0.0318
831.00,0.0330
830.00,0.0340
829.00,0.0347
828.00,0.0349
827.00,0.0345
826.00,0.0334
825.00,0.0317
824.00,0.0297
823.00,0.0276
822.00,0.0256
821.00,0.0237
820.00,0.0221
819.00,0.0206
818.00,0.0194
817.00,0.0183
816.00,0.0174
815.00,0.0168
814.00,0.0163
813.00,0.0161
812.00,0.0160
811.00,0.0161
810.00,0.0165
809.00,0.0173
808.00,0.0190
807.00,0.0216
806.00,0.0247
805.00,0.0271
804.00,0.0282
803.00,0.0276
802.00,0.0257
801.00,0.0233
800.00,0.0211
799.00,0.0192
798.00,0.0178
797.00,0.0169
796.00,0.0162
795.00,0.0157
794.00,0.0154
793.00,0.0152
792.00,0.0150
791.00,0.0149
790.00,0.0148
789.00,0.0148
788.00,0.0147
787.00,0.0148
786.00,0.0150
785.00,0.0150
784.00,0.0148
783.00,0.0144
782.00,0.0140
781.00,0.0138
780.00,0.0137
779.00,0.0137
778.00,0.0137
777.00,0.0136
776.00,0.0134
775.00,0.0133
774.00,0.0133
773.00,0.0133
772.00,0.0134
771.00,0.0135
770.00,0.0135
769.00,0.0134
768.00,0.0131
767.00,0.0126
766.00,0.0122
765.00,0.0118
764.00,0.0115
763.00,0.0112
762.00,0.0111
761.00,0.0110
760.00,0.0111
759.00,0.0112
758.00,0.0114
757.00,0.0115
756.00,0.0119
755.00,0.0125
754.00,0.0133
753.00,0.0142
752.00,0.0148
751.00,0.0153
750.00,0.0157
749.00,0.0159
748.00,0.0158
747.00,0.0154
746.00,0.0146
745.00,0.0138
744.00,0.0131
743.00,0.0126
742.00,0.0121
741.00,0.0118
740.00,0.0116
739.00,0.0116
738.00,0.0117
737.00,0.0118
736.00,0.0121
735.00,0.0126
734.00,0.0133
733.00,0.0141
732.00,0.0149
731.00,0.0153
730.00,0.0152
729.00,0.0148
728.00,0.0142
727.00,0.0136
726.00,0.0131
725.00,0.0127
724.00,0.0124
723.00,0.0123
722.00,0.0123
721.00,0.0123
720.00,0.0123
719.00,0.0123
718.00,0.0121
717.00,0.0118
716.00,0.0115
715.00,0.0112
714.00,0.0110
713.00,0.0110
712.00,0.0111
711.00,0.0110
710.00,0.0107
709.00,0.0104
708.00,0.0101
707.00,0.0100
706.00,0.0099
705.00,0.0098
704.00,0.0097
703.00,0.0095
702.00,0.0095
701.00,0.0096
700.00,0.0097
699.00,0.0098
698.00,0.0097
697.00,0.0096
696.00,0.0095
695.00,0.0096
694.00,0.0096
693.00,0.0097
692.00,0.0096
691.00,0.0096
690.00,0.0097
689.00,0.0099
688.00,0.0100
687.00,0.0101
686.00,0.0101
685.00,0.0101
684.00,0.0101
683.00,0.0102
682.00,0.0103
681.00,0.0103
680.00,0.0103
679.00,0.0104
678.00,0.0105
677.00,0.0107
676.00,0.0110
675.00,0.0113
674.00,0.0117
673.00,0.0123
672.00,0.0130
671.00,0.0138
670.00,0.0145
669.00,0.0149
668.00,0.0150
667.00,0.0149
666.00,0.0149
665.00,0.0151
664.00,0.0154
663.00,0.0158
662.00,0.0160
661.00,0.0161
660.00,0.0160
659.00,0.0158
658.00,0.0157
657.00,0.0157
656.00,0.0156
655.00,0.0154
654.00,0.0154
653.00,0.0155
652.00,0.0159
651.00,0.0165
650.00,0.0171
649.00,0.0174
648.00,0.0173
647.00,0.0168
646.00,0.0162
645.00,0.0156
644.00,0.0151
643.00,0.0146
642.00,0.0142
641.00,0.0137
640.00,0.0133
639.00,0.0131
638.00,0.0129
637.00,0.0129
636.00,0.0130
635.00,0.0132
634.00,0.0133
633.00,0.0135
632.00,0.0136
631.00,0.0139
630.00,0.0141
629.00,0.0143
628.00,0.0145
627.00,0.0148
626.00,0.0150
625.00,0.0154
624.00,0.0158
623.00,0.0162
622.00,0.0162
621.00,0.0160
620.00,0.0154
619.00,0.0147
618.00,0.0140
617.00,0.0134
616.00,0.0131
615.00,0.0133
614.00,0.0141
613.00,0.0154
612.00,0.0168
611.00,0.0181
610.00,0.0187
609.00,0.0185
608.00,0.0178
607.00,0.0171
606.00,0.0169
605.00,0.0171
604.00,0.0174
603.00,0.0175
602.00,0.0176
601.00,0.0177
600.00,0.0181
599.00,0.0187
598.00,0.0191
597.00,0.0193
596.00,0.0194
595.00,0.0195
594.00,0.0197
593.00,0.0200
592.00,0.0206
591.00,0.0215
590.00,0.0228
589.00,0.0239
588.00,0.0248
587.00,0.0253
586.00,0.0254
585.00,0.0252
584.00,0.0246
583.00,0.0236
582.00,0.0224
581.00,0.0214
580.00,0.0207
579.00,0.0203
578.00,0.0200
577.00,0.0196
576.00,0.0193
575.00,0.0191
574.00,0.0193
573.00,0.0195
572.00,0.0198
571.00,0.0199
570.00,0.0201
569.00,0.0203
568.00,0.0207
567.00,0.0212
566.00,0.0216
565.00,0.0219
564.00,0.0220
563.00,0.0220
562.00,0.0220
561.00,0.0220
560.00,0.0220
559.00,0.0218
558.00,0.0214
557.00,0.0212
556.00,0.0211
555.00,0.0214
554.00,0.0219
553.00,0.0223
552.00,0.0226
551.00,0.0229
550.00,0.0231
549.00,0.0234
548.00,0.0239
547.00,0.0246
546.00,0.0256
545.00,0.0265
544.00,0.0271
543.00,0.0276
542.00,0.0279
541.00,0.0285
540.00,0.0294
539.00,0.0307
538.00,0.0321
537.00,0.0332
536.00,0.0337
535.00,0.0336
534.00,0.0332
533.00,0.0327
532.00,0.0321
531.00,0.0315
530.00,0.0309
529.00,0.0305
528.00,0.0307
527.00,0.0317
526.00,0.0335
525.00,0.0359
524.00,0.0380
523.00,0.0395
522.00,0.0402
521.00,0.0398
520.00,0.0381
519.00,0.0355
518.00,0.0326
517.00,0.0300
516.00,0.0283
515.00,0.0272
514.00,0.0267
513.00,0.0265
512.00,0.0265
511.00,0.0265
510.00,0.0266
509.00,0.0271
508.00,0.0279
507.00,0.0290
506.00,0.0301
505.00,0.0311
504.00,0.0320
503.00,0.0332
502.00,0.0349
501.00,0.0369
500.00,0.0387
499.00,0.0402
498.00,0.0416
497.00,0.0427
496.00,0.0435
495.00,0.0438
494.00,0.0437
493.00,0.0435
492.00,0.0437
491.00,0.0438
490.00,0.0435
489.00,0.0428
488.00,0.0419
487.00,0.0412
486.00,0.0409
485.00,0.0409
484.00,0.0406
483.00,0.0398
482.00,0.0387
481.00,0.0377
480.00,0.0368
479.00,0.0358
478.00,0.0350
477.00,0.0347
476.00,0.0348
475.00,0.0349
474.00,0.0347
473.00,0.0346
472.00,0.0347
471.00,0.0350
470.00,0.0353
469.00,0.0357
468.00,0.0365
467.00,0.0374
466.00,0.0378
465.00,0.0373
464.00,0.0363
463.00,0.0357
462.00,0.0357
461.00,0.0358
460.00,0.0360
459.00,0.0362
458.00,0.0366
457.00,0.0372
456.00,0.0373
455.00,0.0367
454.00,0.0356
453.00,0.0346
452.00,0.0339
451.00,0.0335
450.00,0.0332
449.00,0.0329
448.00,0.0327
447.00,0.0327
446.00,0.0326
445.00,0.0326
444.00,0.0323
443.00,0.0317
442.00,0.0308
441.00,0.0299
440.00,0.0291
439.00,0.0287
438.00,0.0292
437.00,0.0304
436.00,0.0315
435.00,0.0318
434.00,0.0310
433.00,0.0300
432.00,0.0292
431.00,0.0290
430.00,0.0293
429.00,0.0303
428.00,0.0319
427.00,0.0334
426.00,0.0343
425.00,0.0347
424.00,0.0346
423.00,0.0346
422.00,0.0350
421.00,0.0355
420.00,0.0359
419.00,0.0352
418.00,0.0333
417.00,0.0317
416.00,0.0315
415.00,0.0323
414.00,0.0332
413.00,0.0332
412.00,0.0322
411.00,0.0313
410.00,0.0320
409.00,0.0346
408.00,0.0377
407.00,0.0391
406.00,0.0383
405.00,0.0369
404.00,0.0366
403.00,0.0374
402.00,0.0382
401.00,0.0389
400.00,0.0397
