Created as New Dataset,Sample 543 By YargerLab Date Wednesday, June 04 2025
cm-1,A
4000.00,0.0009
3999.00,0.0009
3998.00,0.0009
3997.00,0.0009
3996.00,0.0009
3995.00,0.0009
3994.00,0.0009
3993.00,0.0009
3992.00,0.0009
3991.00,0.0009
3990.00,0.0009
3989.00,0.0009
3988.00,0.0010
3987.00,0.0010
3986.00,0.0010
3985.00,0.0010
3984.00,0.0010
3983.00,0.0010
3982.00,0.0010
3981.00,0.0010
3980.00,0.0010
3979.00,0.0010
3978.00,0.0010
3977.00,0.0010
3976.00,0.0010
3975.00,0.0010
3974.00,0.0010
3973.00,0.0010
3972.00,0.0010
3971.00,0.0010
3970.00,0.0010
3969.00,0.0010
3968.00,0.0010
3967.00,0.0010
3966.00,0.0010
3965.00,0.0010
3964.00,0.0010
3963.00,0.0010
3962.00,0.0010
3961.00,0.0010
3960.00,0.0010
3959.00,0.0010
3958.00,0.0009
3957.00,0.0009
3956.00,0.0009
3955.00,0.0009
3954.00,0.0009
3953.00,0.0009
3952.00,0.0009
3951.00,0.0009
3950.00,0.0009
3949.00,0.0009
3948.00,0.0009
3947.00,0.0008
3946.00,0.0008
3945.00,0.0008
3944.00,0.0008
3943.00,0.0008
3942.00,0.0008
3941.00,0.0008
3940.00,0.0008
3939.00,0.0009
3938.00,0.0009
3937.00,0.0009
3936.00,0.0008
3935.00,0.0008
3934.00,0.0008
3933.00,0.0008
3932.00,0.0008
3931.00,0.0008
3930.00,0.0008
3929.00,0.0008
3928.00,0.0008
3927.00,0.0008
3926.00,0.0008
3925.00,0.0008
3924.00,0.0008
3923.00,0.0008
3922.00,0.0008
3921.00,0.0008
3920.00,0.0008
3919.00,0.0007
3918.00,0.0007
3917.00,0.0007
3916.00,0.0007
3915.00,0.0007
3914.00,0.0008
3913.00,0.0008
3912.00,0.0008
3911.00,0.0008
3910.00,0.0008
3909.00,0.0008
3908.00,0.0007
3907.00,0.0007
3906.00,0.0007
3905.00,0.0006
3904.00,0.0006
3903.00,0.0005
3902.00,0.0005
3901.00,0.0005
3900.00,0.0005
3899.00,0.0005
3898.00,0.0006
3897.00,0.0006
3896.00,0.0006
3895.00,0.0006
3894.00,0.0006
3893.00,0.0006
3892.00,0.0006
3891.00,0.0006
3890.00,0.0006
3889.00,0.0006
3888.00,0.0005
3887.00,0.0005
3886.00,0.0006
3885.00,0.0006
3884.00,0.0005
3883.00,0.0005
3882.00,0.0005
3881.00,0.0005
3880.00,0.0006
3879.00,0.0005
3878.00,0.0005
3877.00,0.0005
3876.00,0.0005
3875.00,0.0005
3874.00,0.0005
3873.00,0.0005
3872.00,0.0004
3871.00,0.0004
3870.00,0.0004
3869.00,0.0004
3868.00,0.0004
3867.00,0.0004
3866.00,0.0004
3865.00,0.0004
3864.00,0.0005
3863.00,0.0005
3862.00,0.0005
3861.00,0.0005
3860.00,0.0005
3859.00,0.0005
3858.00,0.0004
3857.00,0.0004
3856.00,0.0003
3855.00,0.0003
3854.00,0.0002
3853.00,0.0002
3852.00,0.0001
3851.00,0.0001
3850.00,0.0002
3849.00,0.0003
3848.00,0.0004
3847.00,0.0005
3846.00,0.0005
3845.00,0.0005
3844.00,0.0005
3843.00,0.0004
3842.00,0.0003
3841.00,0.0002
3840.00,0.0002
3839.00,0.0001
3838.00,0.0001
3837.00,0.0001
3836.00,0.0001
3835.00,0.0002
3834.00,0.0003
3833.00,0.0004
3832.00,0.0004
3831.00,0.0005
3830.00,0.0005
3829.00,0.0005
3828.00,0.0005
3827.00,0.0005
3826.00,0.0005
3825.00,0.0004
3824.00,0.0003
3823.00,0.0003
3822.00,0.0003
3821.00,0.0003
3820.00,0.0003
3819.00,0.0002
3818.00,0.0002
3817.00,0.0003
3816.00,0.0004
3815.00,0.0005
3814.00,0.0005
3813.00,0.0005
3812.00,0.0005
3811.00,0.0006
3810.00,0.0005
3809.00,0.0005
3808.00,0.0005
3807.00,0.0005
3806.00,0.0004
3805.00,0.0003
3804.00,0.0003
3803.00,0.0003
3802.00,0.0004
3801.00,0.0004
3800.00,0.0004
3799.00,0.0003
3798.00,0.0004
3797.00,0.0004
3796.00,0.0005
3795.00,0.0005
3794.00,0.0006
3793.00,0.0006
3792.00,0.0007
3791.00,0.0007
3790.00,0.0007
3789.00,0.0007
3788.00,0.0007
3787.00,0.0007
3786.00,0.0007
3785.00,0.0007
3784.00,0.0007
3783.00,0.0007
3782.00,0.0006
3781.00,0.0006
3780.00,0.0006
3779.00,0.0006
3778.00,0.0006
3777.00,0.0007
3776.00,0.0007
3775.00,0.0007
3774.00,0.0008
3773.00,0.0008
3772.00,0.0008
3771.00,0.0008
3770.00,0.0007
3769.00,0.0007
3768.00,0.0007
3767.00,0.0007
3766.00,0.0007
3765.00,0.0007
3764.00,0.0007
3763.00,0.0007
3762.00,0.0007
3761.00,0.0007
3760.00,0.0007
3759.00,0.0007
3758.00,0.0007
3757.00,0.0007
3756.00,0.0006
3755.00,0.0006
3754.00,0.0005
3753.00,0.0005
3752.00,0.0004
3751.00,0.0004
3750.00,0.0003
3749.00,0.0002
3748.00,0.0002
3747.00,0.0002
3746.00,0.0002
3745.00,0.0003
3744.00,0.0003
3743.00,0.0003
3742.00,0.0003
3741.00,0.0003
3740.00,0.0004
3739.00,0.0004
3738.00,0.0005
3737.00,0.0004
3736.00,0.0004
3735.00,0.0003
3734.00,0.0002
3733.00,0.0002
3732.00,0.0003
3731.00,0.0004
3730.00,0.0005
3729.00,0.0005
3728.00,0.0006
3727.00,0.0007
3726.00,0.0007
3725.00,0.0007
3724.00,0.0007
3723.00,0.0007
3722.00,0.0006
3721.00,0.0006
3720.00,0.0006
3719.00,0.0007
3718.00,0.0007
3717.00,0.0007
3716.00,0.0007
3715.00,0.0007
3714.00,0.0007
3713.00,0.0006
3712.00,0.0006
3711.00,0.0005
3710.00,0.0005
3709.00,0.0005
3708.00,0.0006
3707.00,0.0007
3706.00,0.0008
3705.00,0.0008
3704.00,0.0008
3703.00,0.0009
3702.00,0.0008
3701.00,0.0008
3700.00,0.0008
3699.00,0.0008
3698.00,0.0009
3697.00,0.0009
3696.00,0.0009
3695.00,0.0009
3694.00,0.0008
3693.00,0.0007
3692.00,0.0006
3691.00,0.0006
3690.00,0.0006
3689.00,0.0006
3688.00,0.0006
3687.00,0.0006
3686.00,0.0006
3685.00,0.0006
3684.00,0.0006
3683.00,0.0006
3682.00,0.0006
3681.00,0.0005
3680.00,0.0004
3679.00,0.0002
3678.00,0.0001
3677.00,-0.0001
3676.00,-0.0002
3675.00,-0.0003
3674.00,-0.0004
3673.00,-0.0004
3672.00,-0.0004
3671.00,-0.0003
3670.00,-0.0002
3669.00,-0.0001
3668.00,-0.0001
3667.00,-0.0001
3666.00,-0.0000
3665.00,0.0001
3664.00,0.0001
3663.00,0.0002
3662.00,0.0002
3661.00,0.0003
3660.00,0.0003
3659.00,0.0004
3658.00,0.0004
3657.00,0.0005
3656.00,0.0006
3655.00,0.0006
3654.00,0.0007
3653.00,0.0007
3652.00,0.0008
3651.00,0.0009
3650.00,0.0010
3649.00,0.0010
3648.00,0.0012
3647.00,0.0013
3646.00,0.0015
3645.00,0.0017
3644.00,0.0020
3643.00,0.0022
3642.00,0.0024
3641.00,0.0026
3640.00,0.0028
3639.00,0.0029
3638.00,0.0030
3637.00,0.0032
3636.00,0.0034
3635.00,0.0036
3634.00,0.0039
3633.00,0.0041
3632.00,0.0042
3631.00,0.0044
3630.00,0.0046
3629.00,0.0048
3628.00,0.0050
3627.00,0.0051
3626.00,0.0052
3625.00,0.0054
3624.00,0.0056
3623.00,0.0057
3622.00,0.0059
3621.00,0.0060
3620.00,0.0062
3619.00,0.0063
3618.00,0.0064
3617.00,0.0065
3616.00,0.0066
3615.00,0.0068
3614.00,0.0069
3613.00,0.0071
3612.00,0.0072
3611.00,0.0073
3610.00,0.0075
3609.00,0.0077
3608.00,0.0078
3607.00,0.0080
3606.00,0.0082
3605.00,0.0083
3604.00,0.0085
3603.00,0.0086
3602.00,0.0087
3601.00,0.0089
3600.00,0.0090
3599.00,0.0090
3598.00,0.0091
3597.00,0.0093
3596.00,0.0094
3595.00,0.0096
3594.00,0.0097
3593.00,0.0098
3592.00,0.0100
3591.00,0.0101
3590.00,0.0102
3589.00,0.0103
3588.00,0.0104
3587.00,0.0106
3586.00,0.0107
3585.00,0.0109
3584.00,0.0110
3583.00,0.0112
3582.00,0.0114
3581.00,0.0115
3580.00,0.0117
3579.00,0.0118
3578.00,0.0120
3577.00,0.0121
3576.00,0.0122
3575.00,0.0124
3574.00,0.0125
3573.00,0.0126
3572.00,0.0127
3571.00,0.0128
3570.00,0.0129
3569.00,0.0131
3568.00,0.0133
3567.00,0.0134
3566.00,0.0135
3565.00,0.0136
3564.00,0.0138
3563.00,0.0139
3562.00,0.0141
3561.00,0.0143
3560.00,0.0145
3559.00,0.0146
3558.00,0.0148
3557.00,0.0149
3556.00,0.0151
3555.00,0.0152
3554.00,0.0153
3553.00,0.0155
3552.00,0.0156
3551.00,0.0158
3550.00,0.0159
3549.00,0.0161
3548.00,0.0162
3547.00,0.0163
3546.00,0.0165
3545.00,0.0167
3544.00,0.0168
3543.00,0.0170
3542.00,0.0171
3541.00,0.0172
3540.00,0.0174
3539.00,0.0175
3538.00,0.0177
3537.00,0.0178
3536.00,0.0180
3535.00,0.0181
3534.00,0.0182
3533.00,0.0184
3532.00,0.0185
3531.00,0.0187
3530.00,0.0188
3529.00,0.0190
3528.00,0.0191
3527.00,0.0192
3526.00,0.0193
3525.00,0.0194
3524.00,0.0196
3523.00,0.0197
3522.00,0.0198
3521.00,0.0199
3520.00,0.0201
3519.00,0.0202
3518.00,0.0204
3517.00,0.0205
3516.00,0.0207
3515.00,0.0208
3514.00,0.0210
3513.00,0.0211
3512.00,0.0213
3511.00,0.0214
3510.00,0.0215
3509.00,0.0217
3508.00,0.0218
3507.00,0.0219
3506.00,0.0220
3505.00,0.0222
3504.00,0.0223
3503.00,0.0224
3502.00,0.0226
3501.00,0.0227
3500.00,0.0229
3499.00,0.0230
3498.00,0.0231
3497.00,0.0233
3496.00,0.0234
3495.00,0.0235
3494.00,0.0237
3493.00,0.0238
3492.00,0.0240
3491.00,0.0241
3490.00,0.0243
3489.00,0.0244
3488.00,0.0245
3487.00,0.0247
3486.00,0.0248
3485.00,0.0250
3484.00,0.0252
3483.00,0.0253
3482.00,0.0255
3481.00,0.0256
3480.00,0.0257
3479.00,0.0259
3478.00,0.0260
3477.00,0.0261
3476.00,0.0263
3475.00,0.0264
3474.00,0.0266
3473.00,0.0268
3472.00,0.0269
3471.00,0.0270
3470.00,0.0272
3469.00,0.0273
3468.00,0.0275
3467.00,0.0276
3466.00,0.0278
3465.00,0.0279
3464.00,0.0280
3463.00,0.0282
3462.00,0.0283
3461.00,0.0285
3460.00,0.0287
3459.00,0.0288
3458.00,0.0290
3457.00,0.0291
3456.00,0.0292
3455.00,0.0294
3454.00,0.0295
3453.00,0.0297
3452.00,0.0298
3451.00,0.0299
3450.00,0.0301
3449.00,0.0302
3448.00,0.0304
3447.00,0.0305
3446.00,0.0307
3445.00,0.0309
3444.00,0.0310
3443.00,0.0312
3442.00,0.0313
3441.00,0.0314
3440.00,0.0316
3439.00,0.0317
3438.00,0.0319
3437.00,0.0320
3436.00,0.0322
3435.00,0.0323
3434.00,0.0325
3433.00,0.0326
3432.00,0.0328
3431.00,0.0329
3430.00,0.0331
3429.00,0.0333
3428.00,0.0334
3427.00,0.0336
3426.00,0.0337
3425.00,0.0339
3424.00,0.0341
3423.00,0.0342
3422.00,0.0344
3421.00,0.0346
3420.00,0.0348
3419.00,0.0349
3418.00,0.0350
3417.00,0.0351
3416.00,0.0353
3415.00,0.0354
3414.00,0.0355
3413.00,0.0357
3412.00,0.0359
3411.00,0.0360
3410.00,0.0362
3409.00,0.0364
3408.00,0.0366
3407.00,0.0367
3406.00,0.0368
3405.00,0.0370
3404.00,0.0371
3403.00,0.0372
3402.00,0.0374
3401.00,0.0375
3400.00,0.0377
3399.00,0.0379
3398.00,0.0380
3397.00,0.0382
3396.00,0.0384
3395.00,0.0385
3394.00,0.0386
3393.00,0.0388
3392.00,0.0389
3391.00,0.0391
3390.00,0.0392
3389.00,0.0394
3388.00,0.0396
3387.00,0.0398
3386.00,0.0399
3385.00,0.0401
3384.00,0.0403
3383.00,0.0405
3382.00,0.0407
3381.00,0.0409
3380.00,0.0411
3379.00,0.0412
3378.00,0.0414
3377.00,0.0416
3376.00,0.0418
3375.00,0.0419
3374.00,0.0421
3373.00,0.0423
3372.00,0.0425
3371.00,0.0426
3370.00,0.0428
3369.00,0.0430
3368.00,0.0432
3367.00,0.0435
3366.00,0.0437
3365.00,0.0440
3364.00,0.0442
3363.00,0.0444
3362.00,0.0446
3361.00,0.0448
3360.00,0.0451
3359.00,0.0453
3358.00,0.0456
3357.00,0.0459
3356.00,0.0461
3355.00,0.0463
3354.00,0.0465
3353.00,0.0467
3352.00,0.0469
3351.00,0.0471
3350.00,0.0474
3349.00,0.0477
3348.00,0.0480
3347.00,0.0482
3346.00,0.0485
3345.00,0.0487
3344.00,0.0489
3343.00,0.0492
3342.00,0.0495
3341.00,0.0498
3340.00,0.0500
3339.00,0.0503
3338.00,0.0506
3337.00,0.0509
3336.00,0.0513
3335.00,0.0517
3334.00,0.0520
3333.00,0.0524
3332.00,0.0527
3331.00,0.0530
3330.00,0.0534
3329.00,0.0537
3328.00,0.0540
3327.00,0.0543
3326.00,0.0546
3325.00,0.0550
3324.00,0.0554
3323.00,0.0558
3322.00,0.0563
3321.00,0.0567
3320.00,0.0571
3319.00,0.0575
3318.00,0.0580
3317.00,0.0584
3316.00,0.0588
3315.00,0.0593
3314.00,0.0597
3313.00,0.0601
3312.00,0.0605
3311.00,0.0609
3310.00,0.0612
3309.00,0.0615
3308.00,0.0619
3307.00,0.0624
3306.00,0.0629
3305.00,0.0634
3304.00,0.0640
3303.00,0.0646
3302.00,0.0652
3301.00,0.0657
3300.00,0.0662
3299.00,0.0667
3298.00,0.0671
3297.00,0.0675
3296.00,0.0679
3295.00,0.0683
3294.00,0.0688
3293.00,0.0692
3292.00,0.0698
3291.00,0.0703
3290.00,0.0709
3289.00,0.0714
3288.00,0.0718
3287.00,0.0723
3286.00,0.0726
3285.00,0.0730
3284.00,0.0733
3283.00,0.0736
3282.00,0.0739
3281.00,0.0741
3280.00,0.0743
3279.00,0.0745
3278.00,0.0746
3277.00,0.0746
3276.00,0.0747
3275.00,0.0747
3274.00,0.0746
3273.00,0.0745
3272.00,0.0744
3271.00,0.0743
3270.00,0.0742
3269.00,0.0742
3268.00,0.0741
3267.00,0.0739
3266.00,0.0737
3265.00,0.0734
3264.00,0.0731
3263.00,0.0728
3262.00,0.0724
3261.00,0.0720
3260.00,0.0715
3259.00,0.0710
3258.00,0.0704
3257.00,0.0699
3256.00,0.0694
3255.00,0.0690
3254.00,0.0686
3253.00,0.0682
3252.00,0.0677
3251.00,0.0671
3250.00,0.0665
3249.00,0.0659
3248.00,0.0654
3247.00,0.0650
3246.00,0.0646
3245.00,0.0642
3244.00,0.0639
3243.00,0.0635
3242.00,0.0631
3241.00,0.0627
3240.00,0.0622
3239.00,0.0618
3238.00,0.0613
3237.00,0.0607
3236.00,0.0602
3235.00,0.0597
3234.00,0.0593
3233.00,0.0590
3232.00,0.0588
3231.00,0.0586
3230.00,0.0584
3229.00,0.0581
3228.00,0.0577
3227.00,0.0574
3226.00,0.0571
3225.00,0.0567
3224.00,0.0564
3223.00,0.0561
3222.00,0.0558
3221.00,0.0555
3220.00,0.0552
3219.00,0.0548
3218.00,0.0545
3217.00,0.0542
3216.00,0.0539
3215.00,0.0536
3214.00,0.0533
3213.00,0.0531
3212.00,0.0528
3211.00,0.0526
3210.00,0.0523
3209.00,0.0520
3208.00,0.0517
3207.00,0.0514
3206.00,0.0511
3205.00,0.0509
3204.00,0.0507
3203.00,0.0504
3202.00,0.0502
3201.00,0.0499
3200.00,0.0497
3199.00,0.0494
3198.00,0.0492
3197.00,0.0489
3196.00,0.0487
3195.00,0.0484
3194.00,0.0482
3193.00,0.0479
3192.00,0.0476
3191.00,0.0473
3190.00,0.0471
3189.00,0.0468
3188.00,0.0465
3187.00,0.0463
3186.00,0.0460
3185.00,0.0458
3184.00,0.0455
3183.00,0.0453
3182.00,0.0451
3181.00,0.0449
3180.00,0.0446
3179.00,0.0444
3178.00,0.0442
3177.00,0.0439
3176.00,0.0436
3175.00,0.0434
3174.00,0.0431
3173.00,0.0429
3172.00,0.0427
3171.00,0.0425
3170.00,0.0423
3169.00,0.0420
3168.00,0.0418
3167.00,0.0416
3166.00,0.0414
3165.00,0.0411
3164.00,0.0409
3163.00,0.0407
3162.00,0.0405
3161.00,0.0404
3160.00,0.0402
3159.00,0.0400
3158.00,0.0397
3157.00,0.0395
3156.00,0.0393
3155.00,0.0391
3154.00,0.0388
3153.00,0.0386
3152.00,0.0384
3151.00,0.0383
3150.00,0.0382
3149.00,0.0381
3148.00,0.0379
3147.00,0.0378
3146.00,0.0376
3145.00,0.0375
3144.00,0.0373
3143.00,0.0372
3142.00,0.0370
3141.00,0.0368
3140.00,0.0366
3139.00,0.0364
3138.00,0.0363
3137.00,0.0362
3136.00,0.0362
3135.00,0.0361
3134.00,0.0360
3133.00,0.0359
3132.00,0.0357
3131.00,0.0356
3130.00,0.0355
3129.00,0.0354
3128.00,0.0353
3127.00,0.0353
3126.00,0.0352
3125.00,0.0351
3124.00,0.0349
3123.00,0.0348
3122.00,0.0346
3121.00,0.0345
3120.00,0.0344
3119.00,0.0344
3118.00,0.0343
3117.00,0.0343
3116.00,0.0343
3115.00,0.0344
3114.00,0.0345
3113.00,0.0346
3112.00,0.0346
3111.00,0.0346
3110.00,0.0346
3109.00,0.0346
3108.00,0.0346
3107.00,0.0347
3106.00,0.0348
3105.00,0.0349
3104.00,0.0349
3103.00,0.0349
3102.00,0.0349
3101.00,0.0349
3100.00,0.0350
3099.00,0.0351
3098.00,0.0353
3097.00,0.0355
3096.00,0.0356
3095.00,0.0356
3094.00,0.0356
3093.00,0.0356
3092.00,0.0356
3091.00,0.0355
3090.00,0.0356
3089.00,0.0356
3088.00,0.0357
3087.00,0.0357
3086.00,0.0357
3085.00,0.0357
3084.00,0.0357
3083.00,0.0357
3082.00,0.0357
3081.00,0.0356
3080.00,0.0356
3079.00,0.0356
3078.00,0.0357
3077.00,0.0357
3076.00,0.0359
3075.00,0.0359
3074.00,0.0360
3073.00,0.0359
3072.00,0.0359
3071.00,0.0358
3070.00,0.0356
3069.00,0.0354
3068.00,0.0353
3067.00,0.0351
3066.00,0.0351
3065.00,0.0350
3064.00,0.0350
3063.00,0.0349
3062.00,0.0348
3061.00,0.0347
3060.00,0.0345
3059.00,0.0343
3058.00,0.0340
3057.00,0.0338
3056.00,0.0336
3055.00,0.0334
3054.00,0.0332
3053.00,0.0330
3052.00,0.0328
3051.00,0.0326
3050.00,0.0325
3049.00,0.0323
3048.00,0.0321
3047.00,0.0319
3046.00,0.0316
3045.00,0.0313
3044.00,0.0311
3043.00,0.0309
3042.00,0.0307
3041.00,0.0306
3040.00,0.0306
3039.00,0.0305
3038.00,0.0304
3037.00,0.0302
3036.00,0.0299
3035.00,0.0297
3034.00,0.0296
3033.00,0.0294
3032.00,0.0294
3031.00,0.0293
3030.00,0.0292
3029.00,0.0290
3028.00,0.0289
3027.00,0.0287
3026.00,0.0284
3025.00,0.0282
3024.00,0.0280
3023.00,0.0277
3022.00,0.0275
3021.00,0.0272
3020.00,0.0269
3019.00,0.0266
3018.00,0.0263
3017.00,0.0260
3016.00,0.0256
3015.00,0.0252
3014.00,0.0248
3013.00,0.0244
3012.00,0.0240
3011.00,0.0236
3010.00,0.0231
3009.00,0.0226
3008.00,0.0221
3007.00,0.0215
3006.00,0.0208
3005.00,0.0200
3004.00,0.0193
3003.00,0.0186
3002.00,0.0179
3001.00,0.0173
3000.00,0.0167
2999.00,0.0161
2998.00,0.0157
2997.00,0.0153
2996.00,0.0150
2995.00,0.0148
2994.00,0.0145
2993.00,0.0144
2992.00,0.0143
2991.00,0.0142
2990.00,0.0142
2989.00,0.0142
2988.00,0.0142
2987.00,0.0139
2986.00,0.0133
2985.00,0.0121
2984.00,0.0104
2983.00,0.0088
2982.00,0.0076
2981.00,0.0075
2980.00,0.0084
2979.00,0.0100
2978.00,0.0117
2977.00,0.0132
2976.00,0.0145
2975.00,0.0154
2974.00,0.0160
2973.00,0.0163
2972.00,0.0167
2971.00,0.0174
2970.00,0.0185
2969.00,0.0199
2968.00,0.0214
2967.00,0.0226
2966.00,0.0237
2965.00,0.0246
2964.00,0.0254
2963.00,0.0261
2962.00,0.0267
2961.00,0.0272
2960.00,0.0276
2959.00,0.0279
2958.00,0.0281
2957.00,0.0282
2956.00,0.0282
2955.00,0.0282
2954.00,0.0282
2953.00,0.0283
2952.00,0.0283
2951.00,0.0284
2950.00,0.0286
2949.00,0.0287
2948.00,0.0289
2947.00,0.0292
2946.00,0.0296
2945.00,0.0301
2944.00,0.0306
2943.00,0.0312
2942.00,0.0318
2941.00,0.0324
2940.00,0.0330
2939.00,0.0335
2938.00,0.0340
2937.00,0.0345
2936.00,0.0350
2935.00,0.0353
2934.00,0.0356
2933.00,0.0358
2932.00,0.0360
2931.00,0.0362
2930.00,0.0364
2929.00,0.0365
2928.00,0.0367
2927.00,0.0368
2926.00,0.0368
2925.00,0.0367
2924.00,0.0366
2923.00,0.0363
2922.00,0.0360
2921.00,0.0356
2920.00,0.0350
2919.00,0.0344
2918.00,0.0337
2917.00,0.0330
2916.00,0.0323
2915.00,0.0316
2914.00,0.0309
2913.00,0.0303
2912.00,0.0297
2911.00,0.0291
2910.00,0.0285
2909.00,0.0279
2908.00,0.0274
2907.00,0.0269
2906.00,0.0264
2905.00,0.0260
2904.00,0.0256
2903.00,0.0253
2902.00,0.0250
2901.00,0.0246
2900.00,0.0243
2899.00,0.0240
2898.00,0.0237
2897.00,0.0234
2896.00,0.0230
2895.00,0.0227
2894.00,0.0223
2893.00,0.0220
2892.00,0.0217
2891.00,0.0214
2890.00,0.0212
2889.00,0.0211
2888.00,0.0211
2887.00,0.0211
2886.00,0.0211
2885.00,0.0212
2884.00,0.0214
2883.00,0.0217
2882.00,0.0221
2881.00,0.0226
2880.00,0.0232
2879.00,0.0237
2878.00,0.0242
2877.00,0.0245
2876.00,0.0248
2875.00,0.0249
2874.00,0.0250
2873.00,0.0251
2872.00,0.0250
2871.00,0.0249
2870.00,0.0248
2869.00,0.0246
2868.00,0.0244
2867.00,0.0242
2866.00,0.0241
2865.00,0.0239
2864.00,0.0238
2863.00,0.0238
2862.00,0.0238
2861.00,0.0238
2860.00,0.0239
2859.00,0.0240
2858.00,0.0242
2857.00,0.0243
2856.00,0.0243
2855.00,0.0244
2854.00,0.0243
2853.00,0.0243
2852.00,0.0241
2851.00,0.0238
2850.00,0.0234
2849.00,0.0230
2848.00,0.0226
2847.00,0.0221
2846.00,0.0217
2845.00,0.0213
2844.00,0.0209
2843.00,0.0205
2842.00,0.0202
2841.00,0.0199
2840.00,0.0196
2839.00,0.0193
2838.00,0.0191
2837.00,0.0190
2836.00,0.0188
2835.00,0.0187
2834.00,0.0186
2833.00,0.0185
2832.00,0.0184
2831.00,0.0183
2830.00,0.0182
2829.00,0.0181
2828.00,0.0181
2827.00,0.0180
2826.00,0.0179
2825.00,0.0179
2824.00,0.0178
2823.00,0.0177
2822.00,0.0177
2821.00,0.0176
2820.00,0.0176
2819.00,0.0175
2818.00,0.0174
2817.00,0.0173
2816.00,0.0173
2815.00,0.0172
2814.00,0.0172
2813.00,0.0171
2812.00,0.0171
2811.00,0.0170
2810.00,0.0170
2809.00,0.0170
2808.00,0.0169
2807.00,0.0169
2806.00,0.0168
2805.00,0.0168
2804.00,0.0167
2803.00,0.0166
2802.00,0.0166
2801.00,0.0165
2800.00,0.0164
2799.00,0.0163
2798.00,0.0162
2797.00,0.0162
2796.00,0.0162
2795.00,0.0161
2794.00,0.0161
2793.00,0.0160
2792.00,0.0160
2791.00,0.0159
2790.00,0.0158
2789.00,0.0157
2788.00,0.0157
2787.00,0.0157
2786.00,0.0157
2785.00,0.0156
2784.00,0.0156
2783.00,0.0155
2782.00,0.0155
2781.00,0.0154
2780.00,0.0154
2779.00,0.0153
2778.00,0.0152
2777.00,0.0152
2776.00,0.0151
2775.00,0.0150
2774.00,0.0149
2773.00,0.0149
2772.00,0.0149
2771.00,0.0148
2770.00,0.0147
2769.00,0.0147
2768.00,0.0147
2767.00,0.0146
2766.00,0.0146
2765.00,0.0145
2764.00,0.0145
2763.00,0.0144
2762.00,0.0143
2761.00,0.0143
2760.00,0.0142
2759.00,0.0142
2758.00,0.0141
2757.00,0.0141
2756.00,0.0140
2755.00,0.0140
2754.00,0.0139
2753.00,0.0139
2752.00,0.0138
2751.00,0.0138
2750.00,0.0137
2749.00,0.0137
2748.00,0.0136
2747.00,0.0135
2746.00,0.0135
2745.00,0.0135
2744.00,0.0134
2743.00,0.0134
2742.00,0.0133
2741.00,0.0132
2740.00,0.0132
2739.00,0.0131
2738.00,0.0131
2737.00,0.0130
2736.00,0.0130
2735.00,0.0130
2734.00,0.0129
2733.00,0.0129
2732.00,0.0128
2731.00,0.0128
2730.00,0.0127
2729.00,0.0127
2728.00,0.0126
2727.00,0.0125
2726.00,0.0125
2725.00,0.0125
2724.00,0.0124
2723.00,0.0124
2722.00,0.0124
2721.00,0.0123
2720.00,0.0122
2719.00,0.0122
2718.00,0.0121
2717.00,0.0121
2716.00,0.0120
2715.00,0.0120
2714.00,0.0119
2713.00,0.0119
2712.00,0.0118
2711.00,0.0118
2710.00,0.0118
2709.00,0.0117
2708.00,0.0117
2707.00,0.0117
2706.00,0.0116
2705.00,0.0116
2704.00,0.0116
2703.00,0.0116
2702.00,0.0115
2701.00,0.0115
2700.00,0.0115
2699.00,0.0115
2698.00,0.0115
2697.00,0.0114
2696.00,0.0114
2695.00,0.0113
2694.00,0.0113
2693.00,0.0113
2692.00,0.0113
2691.00,0.0112
2690.00,0.0112
2689.00,0.0111
2688.00,0.0111
2687.00,0.0111
2686.00,0.0111
2685.00,0.0110
2684.00,0.0110
2683.00,0.0110
2682.00,0.0110
2681.00,0.0109
2680.00,0.0109
2679.00,0.0109
2678.00,0.0109
2677.00,0.0109
2676.00,0.0108
2675.00,0.0108
2674.00,0.0108
2673.00,0.0107
2672.00,0.0107
2671.00,0.0106
2670.00,0.0106
2669.00,0.0106
2668.00,0.0106
2667.00,0.0106
2666.00,0.0106
2665.00,0.0106
2664.00,0.0107
2663.00,0.0107
2662.00,0.0108
2661.00,0.0108
2660.00,0.0108
2659.00,0.0108
2658.00,0.0108
2657.00,0.0108
2656.00,0.0108
2655.00,0.0108
2654.00,0.0107
2653.00,0.0107
2652.00,0.0107
2651.00,0.0107
2650.00,0.0107
2649.00,0.0107
2648.00,0.0107
2647.00,0.0107
2646.00,0.0106
2645.00,0.0106
2644.00,0.0106
2643.00,0.0105
2642.00,0.0105
2641.00,0.0105
2640.00,0.0105
2639.00,0.0104
2638.00,0.0104
2637.00,0.0104
2636.00,0.0104
2635.00,0.0104
2634.00,0.0104
2633.00,0.0104
2632.00,0.0103
2631.00,0.0103
2630.00,0.0103
2629.00,0.0103
2628.00,0.0103
2627.00,0.0102
2626.00,0.0102
2625.00,0.0102
2624.00,0.0102
2623.00,0.0102
2622.00,0.0102
2621.00,0.0101
2620.00,0.0101
2619.00,0.0100
2618.00,0.0100
2617.00,0.0100
2616.00,0.0100
2615.00,0.0099
2614.00,0.0099
2613.00,0.0099
2612.00,0.0098
2611.00,0.0098
2610.00,0.0098
2609.00,0.0098
2608.00,0.0098
2607.00,0.0097
2606.00,0.0097
2605.00,0.0097
2604.00,0.0096
2603.00,0.0096
2602.00,0.0096
2601.00,0.0095
2600.00,0.0095
2599.00,0.0094
2598.00,0.0094
2597.00,0.0093
2596.00,0.0093
2595.00,0.0092
2594.00,0.0092
2593.00,0.0092
2592.00,0.0092
2591.00,0.0092
2590.00,0.0091
2589.00,0.0091
2588.00,0.0091
2587.00,0.0091
2586.00,0.0090
2585.00,0.0090
2584.00,0.0090
2583.00,0.0090
2582.00,0.0090
2581.00,0.0089
2580.00,0.0089
2579.00,0.0089
2578.00,0.0088
2577.00,0.0088
2576.00,0.0088
2575.00,0.0087
2574.00,0.0087
2573.00,0.0087
2572.00,0.0087
2571.00,0.0086
2570.00,0.0086
2569.00,0.0086
2568.00,0.0085
2567.00,0.0085
2566.00,0.0085
2565.00,0.0085
2564.00,0.0084
2563.00,0.0084
2562.00,0.0084
2561.00,0.0084
2560.00,0.0085
2559.00,0.0085
2558.00,0.0084
2557.00,0.0084
2556.00,0.0083
2555.00,0.0083
2554.00,0.0082
2553.00,0.0082
2552.00,0.0082
2551.00,0.0081
2550.00,0.0081
2549.00,0.0081
2548.00,0.0080
2547.00,0.0080
2546.00,0.0080
2545.00,0.0080
2544.00,0.0080
2543.00,0.0080
2542.00,0.0080
2541.00,0.0080
2540.00,0.0080
2539.00,0.0079
2538.00,0.0079
2537.00,0.0078
2536.00,0.0078
2535.00,0.0077
2534.00,0.0077
2533.00,0.0076
2532.00,0.0076
2531.00,0.0076
2530.00,0.0076
2529.00,0.0076
2528.00,0.0076
2527.00,0.0076
2526.00,0.0075
2525.00,0.0075
2524.00,0.0075
2523.00,0.0076
2522.00,0.0075
2521.00,0.0075
2520.00,0.0075
2519.00,0.0074
2518.00,0.0074
2517.00,0.0074
2516.00,0.0074
2515.00,0.0074
2514.00,0.0074
2513.00,0.0074
2512.00,0.0074
2511.00,0.0074
2510.00,0.0073
2509.00,0.0073
2508.00,0.0073
2507.00,0.0072
2506.00,0.0072
2505.00,0.0072
2504.00,0.0072
2503.00,0.0072
2502.00,0.0071
2501.00,0.0071
2500.00,0.0071
2499.00,0.0071
2498.00,0.0071
2497.00,0.0071
2496.00,0.0071
2495.00,0.0070
2494.00,0.0070
2493.00,0.0069
2492.00,0.0069
2491.00,0.0069
2490.00,0.0069
2489.00,0.0069
2488.00,0.0069
2487.00,0.0068
2486.00,0.0068
2485.00,0.0068
2484.00,0.0068
2483.00,0.0068
2482.00,0.0068
2481.00,0.0068
2480.00,0.0068
2479.00,0.0067
2478.00,0.0067
2477.00,0.0067
2476.00,0.0066
2475.00,0.0066
2474.00,0.0065
2473.00,0.0065
2472.00,0.0065
2471.00,0.0065
2470.00,0.0065
2469.00,0.0065
2468.00,0.0065
2467.00,0.0065
2466.00,0.0064
2465.00,0.0064
2464.00,0.0064
2463.00,0.0064
2462.00,0.0064
2461.00,0.0064
2460.00,0.0064
2459.00,0.0064
2458.00,0.0064
2457.00,0.0064
2456.00,0.0064
2455.00,0.0064
2454.00,0.0063
2453.00,0.0063
2452.00,0.0063
2451.00,0.0062
2450.00,0.0062
2449.00,0.0061
2448.00,0.0061
2447.00,0.0061
2446.00,0.0061
2445.00,0.0060
2444.00,0.0060
2443.00,0.0060
2442.00,0.0060
2441.00,0.0059
2440.00,0.0059
2439.00,0.0059
2438.00,0.0058
2437.00,0.0058
2436.00,0.0058
2435.00,0.0057
2434.00,0.0057
2433.00,0.0057
2432.00,0.0057
2431.00,0.0057
2430.00,0.0057
2429.00,0.0056
2428.00,0.0056
2427.00,0.0055
2426.00,0.0055
2425.00,0.0055
2424.00,0.0055
2423.00,0.0055
2422.00,0.0054
2421.00,0.0054
2420.00,0.0054
2419.00,0.0054
2418.00,0.0053
2417.00,0.0053
2416.00,0.0053
2415.00,0.0053
2414.00,0.0053
2413.00,0.0053
2412.00,0.0053
2411.00,0.0052
2410.00,0.0052
2409.00,0.0051
2408.00,0.0050
2407.00,0.0049
2406.00,0.0049
2405.00,0.0049
2404.00,0.0049
2403.00,0.0049
2402.00,0.0049
2401.00,0.0049
2400.00,0.0049
2399.00,0.0049
2398.00,0.0048
2397.00,0.0048
2396.00,0.0048
2395.00,0.0048
2394.00,0.0047
2393.00,0.0047
2392.00,0.0047
2391.00,0.0047
2390.00,0.0047
2389.00,0.0047
2388.00,0.0046
2387.00,0.0046
2386.00,0.0045
2385.00,0.0045
2384.00,0.0045
2383.00,0.0044
2382.00,0.0044
2381.00,0.0044
2380.00,0.0043
2379.00,0.0043
2378.00,0.0043
2377.00,0.0043
2376.00,0.0043
2375.00,0.0043
2374.00,0.0042
2373.00,0.0042
2372.00,0.0042
2371.00,0.0042
2370.00,0.0042
2369.00,0.0042
2368.00,0.0042
2367.00,0.0042
2366.00,0.0042
2365.00,0.0042
2364.00,0.0042
2363.00,0.0042
2362.00,0.0041
2361.00,0.0041
2360.00,0.0041
2359.00,0.0041
2358.00,0.0041
2357.00,0.0042
2356.00,0.0042
2355.00,0.0041
2354.00,0.0040
2353.00,0.0039
2352.00,0.0039
2351.00,0.0039
2350.00,0.0040
2349.00,0.0042
2348.00,0.0043
2347.00,0.0044
2346.00,0.0044
2345.00,0.0044
2344.00,0.0043
2343.00,0.0043
2342.00,0.0043
2341.00,0.0043
2340.00,0.0043
2339.00,0.0043
2338.00,0.0043
2337.00,0.0043
2336.00,0.0043
2335.00,0.0042
2334.00,0.0042
2333.00,0.0042
2332.00,0.0041
2331.00,0.0041
2330.00,0.0041
2329.00,0.0043
2328.00,0.0047
2327.00,0.0052
2326.00,0.0056
2325.00,0.0058
2324.00,0.0057
2323.00,0.0054
2322.00,0.0051
2321.00,0.0048
2320.00,0.0047
2319.00,0.0046
2318.00,0.0045
2317.00,0.0045
2316.00,0.0045
2315.00,0.0045
2314.00,0.0045
2313.00,0.0044
2312.00,0.0044
2311.00,0.0043
2310.00,0.0043
2309.00,0.0043
2308.00,0.0043
2307.00,0.0043
2306.00,0.0044
2305.00,0.0044
2304.00,0.0044
2303.00,0.0045
2302.00,0.0045
2301.00,0.0045
2300.00,0.0045
2299.00,0.0046
2298.00,0.0046
2297.00,0.0046
2296.00,0.0047
2295.00,0.0048
2294.00,0.0048
2293.00,0.0049
2292.00,0.0050
2291.00,0.0051
2290.00,0.0052
2289.00,0.0052
2288.00,0.0053
2287.00,0.0053
2286.00,0.0052
2285.00,0.0051
2284.00,0.0050
2283.00,0.0050
2282.00,0.0049
2281.00,0.0049
2280.00,0.0048
2279.00,0.0048
2278.00,0.0047
2277.00,0.0047
2276.00,0.0046
2275.00,0.0045
2274.00,0.0044
2273.00,0.0044
2272.00,0.0044
2271.00,0.0044
2270.00,0.0044
2269.00,0.0043
2268.00,0.0043
2267.00,0.0042
2266.00,0.0042
2265.00,0.0042
2264.00,0.0042
2263.00,0.0041
2262.00,0.0041
2261.00,0.0042
2260.00,0.0042
2259.00,0.0042
2258.00,0.0041
2257.00,0.0040
2256.00,0.0040
2255.00,0.0040
2254.00,0.0041
2253.00,0.0041
2252.00,0.0041
2251.00,0.0041
2250.00,0.0040
2249.00,0.0041
2248.00,0.0041
2247.00,0.0041
2246.00,0.0041
2245.00,0.0041
2244.00,0.0041
2243.00,0.0042
2242.00,0.0041
2241.00,0.0041
2240.00,0.0041
2239.00,0.0040
2238.00,0.0040
2237.00,0.0039
2236.00,0.0039
2235.00,0.0039
2234.00,0.0038
2233.00,0.0039
2232.00,0.0039
2231.00,0.0039
2230.00,0.0039
2229.00,0.0039
2228.00,0.0038
2227.00,0.0038
2226.00,0.0038
2225.00,0.0038
2224.00,0.0038
2223.00,0.0038
2222.00,0.0037
2221.00,0.0037
2220.00,0.0036
2219.00,0.0036
2218.00,0.0036
2217.00,0.0036
2216.00,0.0037
2215.00,0.0036
2214.00,0.0036
2213.00,0.0035
2212.00,0.0035
2211.00,0.0035
2210.00,0.0034
2209.00,0.0035
2208.00,0.0035
2207.00,0.0035
2206.00,0.0035
2205.00,0.0036
2204.00,0.0036
2203.00,0.0037
2202.00,0.0036
2201.00,0.0036
2200.00,0.0036
2199.00,0.0036
2198.00,0.0036
2197.00,0.0036
2196.00,0.0036
2195.00,0.0036
2194.00,0.0037
2193.00,0.0037
2192.00,0.0039
2191.00,0.0039
2190.00,0.0038
2189.00,0.0037
2188.00,0.0037
2187.00,0.0036
2186.00,0.0036
2185.00,0.0036
2184.00,0.0036
2183.00,0.0034
2182.00,0.0033
2181.00,0.0033
2180.00,0.0033
2179.00,0.0033
2178.00,0.0031
2177.00,0.0028
2176.00,0.0027
2175.00,0.0027
2174.00,0.0029
2173.00,0.0032
2172.00,0.0036
2171.00,0.0038
2170.00,0.0040
2169.00,0.0042
2168.00,0.0043
2167.00,0.0042
2166.00,0.0041
2165.00,0.0043
2164.00,0.0046
2163.00,0.0046
2162.00,0.0041
2161.00,0.0029
2160.00,0.0013
2159.00,-0.0001
2158.00,-0.0007
2157.00,-0.0005
2156.00,0.0000
2155.00,0.0005
2154.00,0.0007
2153.00,0.0009
2152.00,0.0011
2151.00,0.0012
2150.00,0.0013
2149.00,0.0013
2148.00,0.0014
2147.00,0.0014
2146.00,0.0014
2145.00,0.0014
2144.00,0.0016
2143.00,0.0016
2142.00,0.0017
2141.00,0.0018
2140.00,0.0019
2139.00,0.0020
2138.00,0.0019
2137.00,0.0017
2136.00,0.0015
2135.00,0.0013
2134.00,0.0013
2133.00,0.0014
2132.00,0.0016
2131.00,0.0018
2130.00,0.0020
2129.00,0.0022
2128.00,0.0024
2127.00,0.0026
2126.00,0.0027
2125.00,0.0028
2124.00,0.0029
2123.00,0.0029
2122.00,0.0030
2121.00,0.0031
2120.00,0.0032
2119.00,0.0033
2118.00,0.0035
2117.00,0.0037
2116.00,0.0039
2115.00,0.0039
2114.00,0.0039
2113.00,0.0039
2112.00,0.0039
2111.00,0.0039
2110.00,0.0039
2109.00,0.0039
2108.00,0.0039
2107.00,0.0038
2106.00,0.0038
2105.00,0.0038
2104.00,0.0038
2103.00,0.0038
2102.00,0.0038
2101.00,0.0038
2100.00,0.0038
2099.00,0.0038
2098.00,0.0036
2097.00,0.0034
2096.00,0.0032
2095.00,0.0031
2094.00,0.0031
2093.00,0.0032
2092.00,0.0034
2091.00,0.0035
2090.00,0.0035
2089.00,0.0036
2088.00,0.0037
2087.00,0.0037
2086.00,0.0037
2085.00,0.0037
2084.00,0.0038
2083.00,0.0038
2082.00,0.0038
2081.00,0.0039
2080.00,0.0039
2079.00,0.0039
2078.00,0.0038
2077.00,0.0038
2076.00,0.0038
2075.00,0.0038
2074.00,0.0037
2073.00,0.0036
2072.00,0.0036
2071.00,0.0035
2070.00,0.0034
2069.00,0.0034
2068.00,0.0034
2067.00,0.0034
2066.00,0.0034
2065.00,0.0034
2064.00,0.0034
2063.00,0.0033
2062.00,0.0033
2061.00,0.0033
2060.00,0.0034
2059.00,0.0035
2058.00,0.0034
2057.00,0.0034
2056.00,0.0034
2055.00,0.0034
2054.00,0.0037
2053.00,0.0043
2052.00,0.0047
2051.00,0.0047
2050.00,0.0044
2049.00,0.0038
2048.00,0.0034
2047.00,0.0031
2046.00,0.0029
2045.00,0.0028
2044.00,0.0028
2043.00,0.0027
2042.00,0.0027
2041.00,0.0027
2040.00,0.0028
2039.00,0.0028
2038.00,0.0028
2037.00,0.0029
2036.00,0.0030
2035.00,0.0028
2034.00,0.0024
2033.00,0.0022
2032.00,0.0020
2031.00,0.0019
2030.00,0.0017
2029.00,0.0016
2028.00,0.0017
2027.00,0.0018
2026.00,0.0019
2025.00,0.0019
2024.00,0.0019
2023.00,0.0019
2022.00,0.0019
2021.00,0.0019
2020.00,0.0019
2019.00,0.0018
2018.00,0.0017
2017.00,0.0017
2016.00,0.0019
2015.00,0.0020
2014.00,0.0021
2013.00,0.0023
2012.00,0.0024
2011.00,0.0023
2010.00,0.0022
2009.00,0.0020
2008.00,0.0018
2007.00,0.0014
2006.00,0.0012
2005.00,0.0013
2004.00,0.0015
2003.00,0.0016
2002.00,0.0018
2001.00,0.0020
2000.00,0.0023
1999.00,0.0026
1998.00,0.0027
1997.00,0.0028
1996.00,0.0029
1995.00,0.0030
1994.00,0.0030
1993.00,0.0030
1992.00,0.0031
1991.00,0.0030
1990.00,0.0030
1989.00,0.0030
1988.00,0.0031
1987.00,0.0032
1986.00,0.0033
1985.00,0.0035
1984.00,0.0038
1983.00,0.0041
1982.00,0.0042
1981.00,0.0041
1980.00,0.0038
1979.00,0.0030
1978.00,0.0021
1977.00,0.0015
1976.00,0.0014
1975.00,0.0015
1974.00,0.0015
1973.00,0.0017
1972.00,0.0019
1971.00,0.0020
1970.00,0.0020
1969.00,0.0021
1968.00,0.0023
1967.00,0.0023
1966.00,0.0022
1965.00,0.0022
1964.00,0.0022
1963.00,0.0021
1962.00,0.0020
1961.00,0.0018
1960.00,0.0018
1959.00,0.0017
1958.00,0.0018
1957.00,0.0020
1956.00,0.0023
1955.00,0.0025
1954.00,0.0025
1953.00,0.0025
1952.00,0.0025
1951.00,0.0025
1950.00,0.0024
1949.00,0.0024
1948.00,0.0025
1947.00,0.0025
1946.00,0.0024
1945.00,0.0024
1944.00,0.0025
1943.00,0.0026
1942.00,0.0026
1941.00,0.0027
1940.00,0.0028
1939.00,0.0028
1938.00,0.0028
1937.00,0.0028
1936.00,0.0028
1935.00,0.0028
1934.00,0.0027
1933.00,0.0026
1932.00,0.0027
1931.00,0.0027
1930.00,0.0027
1929.00,0.0027
1928.00,0.0027
1927.00,0.0026
1926.00,0.0026
1925.00,0.0027
1924.00,0.0028
1923.00,0.0028
1922.00,0.0028
1921.00,0.0028
1920.00,0.0029
1919.00,0.0029
1918.00,0.0029
1917.00,0.0029
1916.00,0.0030
1915.00,0.0030
1914.00,0.0030
1913.00,0.0031
1912.00,0.0032
1911.00,0.0033
1910.00,0.0033
1909.00,0.0033
1908.00,0.0033
1907.00,0.0032
1906.00,0.0031
1905.00,0.0031
1904.00,0.0032
1903.00,0.0033
1902.00,0.0032
1901.00,0.0033
1900.00,0.0033
1899.00,0.0034
1898.00,0.0034
1897.00,0.0034
1896.00,0.0034
1895.00,0.0033
1894.00,0.0032
1893.00,0.0032
1892.00,0.0033
1891.00,0.0033
1890.00,0.0033
1889.00,0.0033
1888.00,0.0033
1887.00,0.0034
1886.00,0.0034
1885.00,0.0034
1884.00,0.0034
1883.00,0.0034
1882.00,0.0033
1881.00,0.0034
1880.00,0.0034
1879.00,0.0035
1878.00,0.0034
1877.00,0.0035
1876.00,0.0035
1875.00,0.0035
1874.00,0.0034
1873.00,0.0033
1872.00,0.0032
1871.00,0.0032
1870.00,0.0033
1869.00,0.0033
1868.00,0.0034
1867.00,0.0035
1866.00,0.0035
1865.00,0.0035
1864.00,0.0036
1863.00,0.0036
1862.00,0.0036
1861.00,0.0037
1860.00,0.0037
1859.00,0.0037
1858.00,0.0036
1857.00,0.0036
1856.00,0.0036
1855.00,0.0037
1854.00,0.0036
1853.00,0.0036
1852.00,0.0037
1851.00,0.0037
1850.00,0.0036
1849.00,0.0035
1848.00,0.0035
1847.00,0.0035
1846.00,0.0036
1845.00,0.0037
1844.00,0.0038
1843.00,0.0037
1842.00,0.0037
1841.00,0.0037
1840.00,0.0038
1839.00,0.0039
1838.00,0.0039
1837.00,0.0039
1836.00,0.0039
1835.00,0.0039
1834.00,0.0037
1833.00,0.0036
1832.00,0.0036
1831.00,0.0036
1830.00,0.0036
1829.00,0.0036
1828.00,0.0036
1827.00,0.0038
1826.00,0.0039
1825.00,0.0041
1824.00,0.0042
1823.00,0.0042
1822.00,0.0042
1821.00,0.0043
1820.00,0.0043
1819.00,0.0042
1818.00,0.0041
1817.00,0.0041
1816.00,0.0041
1815.00,0.0042
1814.00,0.0043
1813.00,0.0044
1812.00,0.0045
1811.00,0.0046
1810.00,0.0046
1809.00,0.0047
1808.00,0.0048
1807.00,0.0048
1806.00,0.0048
1805.00,0.0047
1804.00,0.0047
1803.00,0.0047
1802.00,0.0047
1801.00,0.0047
1800.00,0.0048
1799.00,0.0049
1798.00,0.0050
1797.00,0.0050
1796.00,0.0051
1795.00,0.0051
1794.00,0.0052
1793.00,0.0053
1792.00,0.0054
1791.00,0.0054
1790.00,0.0054
1789.00,0.0054
1788.00,0.0056
1787.00,0.0057
1786.00,0.0057
1785.00,0.0057
1784.00,0.0058
1783.00,0.0058
1782.00,0.0059
1781.00,0.0060
1780.00,0.0061
1779.00,0.0061
1778.00,0.0060
1777.00,0.0061
1776.00,0.0062
1775.00,0.0064
1774.00,0.0065
1773.00,0.0065
1772.00,0.0064
1771.00,0.0064
1770.00,0.0066
1769.00,0.0069
1768.00,0.0072
1767.00,0.0072
1766.00,0.0072
1765.00,0.0073
1764.00,0.0076
1763.00,0.0079
1762.00,0.0081
1761.00,0.0083
1760.00,0.0085
1759.00,0.0088
1758.00,0.0091
1757.00,0.0094
1756.00,0.0098
1755.00,0.0102
1754.00,0.0107
1753.00,0.0112
1752.00,0.0116
1751.00,0.0119
1750.00,0.0121
1749.00,0.0125
1748.00,0.0130
1747.00,0.0136
1746.00,0.0141
1745.00,0.0146
1744.00,0.0151
1743.00,0.0155
1742.00,0.0159
1741.00,0.0165
1740.00,0.0173
1739.00,0.0179
1738.00,0.0185
1737.00,0.0193
1736.00,0.0200
1735.00,0.0207
1734.00,0.0213
1733.00,0.0219
1732.00,0.0225
1731.00,0.0231
1730.00,0.0234
1729.00,0.0240
1728.00,0.0246
1727.00,0.0251
1726.00,0.0255
1725.00,0.0260
1724.00,0.0265
1723.00,0.0267
1722.00,0.0269
1721.00,0.0273
1720.00,0.0283
1719.00,0.0293
1718.00,0.0299
1717.00,0.0302
1716.00,0.0305
1715.00,0.0308
1714.00,0.0312
1713.00,0.0319
1712.00,0.0326
1711.00,0.0333
1710.00,0.0339
1709.00,0.0345
1708.00,0.0355
1707.00,0.0369
1706.00,0.0385
1705.00,0.0404
1704.00,0.0424
1703.00,0.0444
1702.00,0.0469
1701.00,0.0513
1700.00,0.0570
1699.00,0.0618
1698.00,0.0652
1697.00,0.0682
1696.00,0.0710
1695.00,0.0729
1694.00,0.0740
1693.00,0.0749
1692.00,0.0760
1691.00,0.0774
1690.00,0.0790
1689.00,0.0809
1688.00,0.0829
1687.00,0.0848
1686.00,0.0866
1685.00,0.0891
1684.00,0.0922
1683.00,0.0949
1682.00,0.0970
1681.00,0.0990
1680.00,0.1011
1679.00,0.1030
1678.00,0.1047
1677.00,0.1068
1676.00,0.1096
1675.00,0.1128
1674.00,0.1154
1673.00,0.1175
1672.00,0.1196
1671.00,0.1222
1670.00,0.1256
1669.00,0.1293
1668.00,0.1325
1667.00,0.1349
1666.00,0.1368
1665.00,0.1389
1664.00,0.1418
1663.00,0.1453
1662.00,0.1489
1661.00,0.1520
1660.00,0.1547
1659.00,0.1571
1658.00,0.1591
1657.00,0.1612
1656.00,0.1634
1655.00,0.1661
1654.00,0.1700
1653.00,0.1745
1652.00,0.1768
1651.00,0.1765
1650.00,0.1759
1649.00,0.1763
1648.00,0.1779
1647.00,0.1801
1646.00,0.1821
1645.00,0.1831
1644.00,0.1838
1643.00,0.1844
1642.00,0.1850
1641.00,0.1858
1640.00,0.1868
1639.00,0.1878
1638.00,0.1892
1637.00,0.1914
1636.00,0.1951
1635.00,0.1992
1634.00,0.2023
1633.00,0.2046
1632.00,0.2069
1631.00,0.2096
1630.00,0.2126
1629.00,0.2163
1628.00,0.2204
1627.00,0.2242
1626.00,0.2273
1625.00,0.2300
1624.00,0.2329
1623.00,0.2356
1622.00,0.2369
1621.00,0.2368
1620.00,0.2360
1619.00,0.2346
1618.00,0.2321
1617.00,0.2278
1616.00,0.2221
1615.00,0.2158
1614.00,0.2095
1613.00,0.2031
1612.00,0.1962
1611.00,0.1889
1610.00,0.1815
1609.00,0.1740
1608.00,0.1666
1607.00,0.1596
1606.00,0.1531
1605.00,0.1470
1604.00,0.1412
1603.00,0.1358
1602.00,0.1308
1601.00,0.1262
1600.00,0.1220
1599.00,0.1182
1598.00,0.1148
1597.00,0.1117
1596.00,0.1088
1595.00,0.1061
1594.00,0.1036
1593.00,0.1014
1592.00,0.0993
1591.00,0.0973
1590.00,0.0957
1589.00,0.0944
1588.00,0.0931
1587.00,0.0921
1586.00,0.0915
1585.00,0.0910
1584.00,0.0906
1583.00,0.0904
1582.00,0.0904
1581.00,0.0906
1580.00,0.0910
1579.00,0.0919
1578.00,0.0933
1577.00,0.0947
1576.00,0.0959
1575.00,0.0967
1574.00,0.0973
1573.00,0.0981
1572.00,0.0990
1571.00,0.1006
1570.00,0.1030
1569.00,0.1057
1568.00,0.1080
1567.00,0.1098
1566.00,0.1119
1565.00,0.1142
1564.00,0.1165
1563.00,0.1186
1562.00,0.1201
1561.00,0.1215
1560.00,0.1244
1559.00,0.1294
1558.00,0.1343
1557.00,0.1372
1556.00,0.1393
1555.00,0.1417
1554.00,0.1445
1553.00,0.1471
1552.00,0.1495
1551.00,0.1520
1550.00,0.1549
1549.00,0.1577
1548.00,0.1599
1547.00,0.1617
1546.00,0.1637
1545.00,0.1660
1544.00,0.1682
1543.00,0.1703
1542.00,0.1729
1541.00,0.1764
1540.00,0.1803
1539.00,0.1832
1538.00,0.1843
1537.00,0.1844
1536.00,0.1846
1535.00,0.1855
1534.00,0.1876
1533.00,0.1900
1532.00,0.1917
1531.00,0.1924
1530.00,0.1928
1529.00,0.1933
1528.00,0.1939
1527.00,0.1945
1526.00,0.1949
1525.00,0.1951
1524.00,0.1951
1523.00,0.1953
1522.00,0.1957
1521.00,0.1960
1520.00,0.1957
1519.00,0.1950
1518.00,0.1947
1517.00,0.1946
1516.00,0.1940
1515.00,0.1925
1514.00,0.1902
1513.00,0.1872
1512.00,0.1835
1511.00,0.1797
1510.00,0.1761
1509.00,0.1727
1508.00,0.1689
1507.00,0.1642
1506.00,0.1591
1505.00,0.1544
1504.00,0.1501
1503.00,0.1462
1502.00,0.1423
1501.00,0.1383
1500.00,0.1346
1499.00,0.1313
1498.00,0.1282
1497.00,0.1246
1496.00,0.1207
1495.00,0.1168
1494.00,0.1130
1493.00,0.1094
1492.00,0.1061
1491.00,0.1029
1490.00,0.0996
1489.00,0.0965
1488.00,0.0938
1487.00,0.0915
1486.00,0.0893
1485.00,0.0873
1484.00,0.0854
1483.00,0.0838
1482.00,0.0823
1481.00,0.0809
1480.00,0.0798
1479.00,0.0789
1478.00,0.0783
1477.00,0.0780
1476.00,0.0782
1475.00,0.0786
1474.00,0.0794
1473.00,0.0808
1472.00,0.0827
1471.00,0.0844
1470.00,0.0856
1469.00,0.0863
1468.00,0.0867
1467.00,0.0869
1466.00,0.0870
1465.00,0.0871
1464.00,0.0873
1463.00,0.0874
1462.00,0.0875
1461.00,0.0878
1460.00,0.0885
1459.00,0.0899
1458.00,0.0919
1457.00,0.0942
1456.00,0.0959
1455.00,0.0965
1454.00,0.0967
1453.00,0.0968
1452.00,0.0969
1451.00,0.0969
1450.00,0.0968
1449.00,0.0968
1448.00,0.0968
1447.00,0.0967
1446.00,0.0965
1445.00,0.0961
1444.00,0.0957
1443.00,0.0952
1442.00,0.0947
1441.00,0.0941
1440.00,0.0934
1439.00,0.0927
1438.00,0.0919
1437.00,0.0911
1436.00,0.0902
1435.00,0.0890
1434.00,0.0877
1433.00,0.0864
1432.00,0.0852
1431.00,0.0841
1430.00,0.0833
1429.00,0.0826
1428.00,0.0820
1427.00,0.0816
1426.00,0.0814
1425.00,0.0814
1424.00,0.0816
1423.00,0.0819
1422.00,0.0823
1421.00,0.0828
1420.00,0.0835
1419.00,0.0846
1418.00,0.0857
1417.00,0.0865
1416.00,0.0872
1415.00,0.0880
1414.00,0.0887
1413.00,0.0894
1412.00,0.0901
1411.00,0.0907
1410.00,0.0912
1409.00,0.0915
1408.00,0.0917
1407.00,0.0919
1406.00,0.0921
1405.00,0.0922
1404.00,0.0922
1403.00,0.0921
1402.00,0.0917
1401.00,0.0913
1400.00,0.0911
1399.00,0.0909
1398.00,0.0907
1397.00,0.0905
1396.00,0.0903
1395.00,0.0903
1394.00,0.0904
1393.00,0.0904
1392.00,0.0904
1391.00,0.0905
1390.00,0.0905
1389.00,0.0904
1388.00,0.0902
1387.00,0.0898
1386.00,0.0890
1385.00,0.0880
1384.00,0.0869
1383.00,0.0858
1382.00,0.0847
1381.00,0.0837
1380.00,0.0830
1379.00,0.0823
1378.00,0.0816
1377.00,0.0810
1376.00,0.0805
1375.00,0.0802
1374.00,0.0801
1373.00,0.0800
1372.00,0.0801
1371.00,0.0801
1370.00,0.0801
1369.00,0.0799
1368.00,0.0795
1367.00,0.0788
1366.00,0.0779
1365.00,0.0771
1364.00,0.0763
1363.00,0.0756
1362.00,0.0751
1361.00,0.0746
1360.00,0.0742
1359.00,0.0738
1358.00,0.0735
1357.00,0.0733
1356.00,0.0731
1355.00,0.0730
1354.00,0.0729
1353.00,0.0728
1352.00,0.0728
1351.00,0.0728
1350.00,0.0728
1349.00,0.0728
1348.00,0.0729
1347.00,0.0729
1346.00,0.0730
1345.00,0.0731
1344.00,0.0731
1343.00,0.0731
1342.00,0.0732
1341.00,0.0733
1340.00,0.0733
1339.00,0.0734
1338.00,0.0733
1337.00,0.0731
1336.00,0.0730
1335.00,0.0728
1334.00,0.0726
1333.00,0.0724
1332.00,0.0722
1331.00,0.0722
1330.00,0.0721
1329.00,0.0721
1328.00,0.0721
1327.00,0.0722
1326.00,0.0723
1325.00,0.0725
1324.00,0.0726
1323.00,0.0728
1322.00,0.0730
1321.00,0.0733
1320.00,0.0736
1319.00,0.0738
1318.00,0.0741
1317.00,0.0743
1316.00,0.0745
1315.00,0.0746
1314.00,0.0747
1313.00,0.0748
1312.00,0.0748
1311.00,0.0748
1310.00,0.0747
1309.00,0.0747
1308.00,0.0746
1307.00,0.0746
1306.00,0.0745
1305.00,0.0745
1304.00,0.0745
1303.00,0.0745
1302.00,0.0746
1301.00,0.0746
1300.00,0.0747
1299.00,0.0749
1298.00,0.0751
1297.00,0.0754
1296.00,0.0757
1295.00,0.0760
1294.00,0.0763
1293.00,0.0766
1292.00,0.0769
1291.00,0.0773
1290.00,0.0776
1289.00,0.0780
1288.00,0.0783
1287.00,0.0786
1286.00,0.0789
1285.00,0.0791
1284.00,0.0794
1283.00,0.0796
1282.00,0.0799
1281.00,0.0800
1280.00,0.0802
1279.00,0.0803
1278.00,0.0803
1277.00,0.0803
1276.00,0.0803
1275.00,0.0802
1274.00,0.0802
1273.00,0.0802
1272.00,0.0802
1271.00,0.0803
1270.00,0.0805
1269.00,0.0807
1268.00,0.0810
1267.00,0.0815
1266.00,0.0819
1265.00,0.0825
1264.00,0.0831
1263.00,0.0838
1262.00,0.0845
1261.00,0.0852
1260.00,0.0859
1259.00,0.0867
1258.00,0.0873
1257.00,0.0879
1256.00,0.0886
1255.00,0.0893
1254.00,0.0899
1253.00,0.0907
1252.00,0.0914
1251.00,0.0923
1250.00,0.0933
1249.00,0.0944
1248.00,0.0955
1247.00,0.0965
1246.00,0.0975
1245.00,0.0985
1244.00,0.0994
1243.00,0.1002
1242.00,0.1010
1241.00,0.1018
1240.00,0.1026
1239.00,0.1034
1238.00,0.1042
1237.00,0.1049
1236.00,0.1055
1235.00,0.1062
1234.00,0.1067
1233.00,0.1071
1232.00,0.1075
1231.00,0.1078
1230.00,0.1080
1229.00,0.1081
1228.00,0.1082
1227.00,0.1081
1226.00,0.1080
1225.00,0.1078
1224.00,0.1076
1223.00,0.1072
1222.00,0.1068
1221.00,0.1063
1220.00,0.1057
1219.00,0.1050
1218.00,0.1042
1217.00,0.1033
1216.00,0.1024
1215.00,0.1014
1214.00,0.1004
1213.00,0.0993
1212.00,0.0981
1211.00,0.0970
1210.00,0.0959
1209.00,0.0948
1208.00,0.0938
1207.00,0.0928
1206.00,0.0918
1205.00,0.0909
1204.00,0.0900
1203.00,0.0891
1202.00,0.0883
1201.00,0.0875
1200.00,0.0867
1199.00,0.0860
1198.00,0.0854
1197.00,0.0847
1196.00,0.0841
1195.00,0.0835
1194.00,0.0830
1193.00,0.0824
1192.00,0.0819
1191.00,0.0815
1190.00,0.0810
1189.00,0.0805
1188.00,0.0800
1187.00,0.0796
1186.00,0.0792
1185.00,0.0789
1184.00,0.0786
1183.00,0.0784
1182.00,0.0782
1181.00,0.0780
1180.00,0.0780
1179.00,0.0781
1178.00,0.0783
1177.00,0.0786
1176.00,0.0791
1175.00,0.0796
1174.00,0.0801
1173.00,0.0805
1172.00,0.0808
1171.00,0.0810
1170.00,0.0811
1169.00,0.0811
1168.00,0.0812
1167.00,0.0812
1166.00,0.0813
1165.00,0.0814
1164.00,0.0815
1163.00,0.0818
1162.00,0.0821
1161.00,0.0824
1160.00,0.0826
1159.00,0.0828
1158.00,0.0829
1157.00,0.0829
1156.00,0.0828
1155.00,0.0826
1154.00,0.0823
1153.00,0.0818
1152.00,0.0813
1151.00,0.0806
1150.00,0.0799
1149.00,0.0792
1148.00,0.0784
1147.00,0.0776
1146.00,0.0769
1145.00,0.0761
1144.00,0.0754
1143.00,0.0747
1142.00,0.0741
1141.00,0.0734
1140.00,0.0729
1139.00,0.0725
1138.00,0.0722
1137.00,0.0720
1136.00,0.0720
1135.00,0.0721
1134.00,0.0722
1133.00,0.0724
1132.00,0.0727
1131.00,0.0730
1130.00,0.0735
1129.00,0.0740
1128.00,0.0745
1127.00,0.0751
1126.00,0.0757
1125.00,0.0762
1124.00,0.0767
1123.00,0.0772
1122.00,0.0776
1121.00,0.0781
1120.00,0.0785
1119.00,0.0790
1118.00,0.0794
1117.00,0.0799
1116.00,0.0803
1115.00,0.0808
1114.00,0.0812
1113.00,0.0815
1112.00,0.0818
1111.00,0.0821
1110.00,0.0824
1109.00,0.0827
1108.00,0.0830
1107.00,0.0833
1106.00,0.0836
1105.00,0.0839
1104.00,0.0842
1103.00,0.0844
1102.00,0.0847
1101.00,0.0849
1100.00,0.0852
1099.00,0.0855
1098.00,0.0859
1097.00,0.0862
1096.00,0.0867
1095.00,0.0872
1094.00,0.0878
1093.00,0.0885
1092.00,0.0893
1091.00,0.0903
1090.00,0.0914
1089.00,0.0926
1088.00,0.0940
1087.00,0.0955
1086.00,0.0970
1085.00,0.0985
1084.00,0.0999
1083.00,0.1013
1082.00,0.1025
1081.00,0.1037
1080.00,0.1046
1079.00,0.1054
1078.00,0.1059
1077.00,0.1062
1076.00,0.1063
1075.00,0.1062
1074.00,0.1059
1073.00,0.1056
1072.00,0.1054
1071.00,0.1053
1070.00,0.1053
1069.00,0.1055
1068.00,0.1059
1067.00,0.1065
1066.00,0.1071
1065.00,0.1078
1064.00,0.1086
1063.00,0.1094
1062.00,0.1102
1061.00,0.1110
1060.00,0.1117
1059.00,0.1125
1058.00,0.1131
1057.00,0.1137
1056.00,0.1142
1055.00,0.1146
1054.00,0.1148
1053.00,0.1150
1052.00,0.1152
1051.00,0.1153
1050.00,0.1153
1049.00,0.1153
1048.00,0.1152
1047.00,0.1152
1046.00,0.1151
1045.00,0.1150
1044.00,0.1148
1043.00,0.1146
1042.00,0.1143
1041.00,0.1140
1040.00,0.1137
1039.00,0.1134
1038.00,0.1130
1037.00,0.1127
1036.00,0.1125
1035.00,0.1123
1034.00,0.1121
1033.00,0.1120
1032.00,0.1119
1031.00,0.1119
1030.00,0.1117
1029.00,0.1114
1028.00,0.1111
1027.00,0.1106
1026.00,0.1101
1025.00,0.1095
1024.00,0.1088
1023.00,0.1080
1022.00,0.1071
1021.00,0.1061
1020.00,0.1050
1019.00,0.1038
1018.00,0.1026
1017.00,0.1013
1016.00,0.1001
1015.00,0.0989
1014.00,0.0976
1013.00,0.0963
1012.00,0.0949
1011.00,0.0936
1010.00,0.0923
1009.00,0.0911
1008.00,0.0899
1007.00,0.0887
1006.00,0.0876
1005.00,0.0866
1004.00,0.0856
1003.00,0.0846
1002.00,0.0836
1001.00,0.0826
1000.00,0.0816
999.00,0.0805
998.00,0.0794
997.00,0.0783
996.00,0.0772
995.00,0.0760
994.00,0.0749
993.00,0.0737
992.00,0.0725
991.00,0.0713
990.00,0.0701
989.00,0.0689
988.00,0.0678
987.00,0.0667
986.00,0.0658
985.00,0.0649
984.00,0.0640
983.00,0.0633
982.00,0.0626
981.00,0.0620
980.00,0.0614
979.00,0.0610
978.00,0.0605
977.00,0.0601
976.00,0.0597
975.00,0.0592
974.00,0.0588
973.00,0.0584
972.00,0.0580
971.00,0.0576
970.00,0.0573
969.00,0.0570
968.00,0.0567
967.00,0.0565
966.00,0.0564
965.00,0.0564
964.00,0.0564
963.00,0.0563
962.00,0.0561
961.00,0.0559
960.00,0.0555
959.00,0.0551
958.00,0.0546
957.00,0.0542
956.00,0.0540
955.00,0.0538
954.00,0.0537
953.00,0.0536
952.00,0.0536
951.00,0.0538
950.00,0.0540
949.00,0.0543
948.00,0.0546
947.00,0.0549
946.00,0.0551
945.00,0.0554
944.00,0.0557
943.00,0.0561
942.00,0.0565
941.00,0.0570
940.00,0.0574
939.00,0.0580
938.00,0.0586
937.00,0.0592
936.00,0.0599
935.00,0.0605
934.00,0.0610
933.00,0.0615
932.00,0.0619
931.00,0.0622
930.00,0.0625
929.00,0.0628
928.00,0.0630
927.00,0.0631
926.00,0.0631
925.00,0.0631
924.00,0.0630
923.00,0.0629
922.00,0.0628
921.00,0.0627
920.00,0.0625
919.00,0.0623
918.00,0.0621
917.00,0.0620
916.00,0.0618
915.00,0.0615
914.00,0.0613
913.00,0.0611
912.00,0.0608
911.00,0.0607
910.00,0.0605
909.00,0.0604
908.00,0.0602
907.00,0.0600
906.00,0.0598
905.00,0.0597
904.00,0.0595
903.00,0.0594
902.00,0.0592
901.00,0.0591
900.00,0.0589
899.00,0.0588
898.00,0.0588
897.00,0.0587
896.00,0.0586
895.00,0.0585
894.00,0.0584
893.00,0.0584
892.00,0.0583
891.00,0.0583
890.00,0.0582
889.00,0.0582
888.00,0.0582
887.00,0.0582
886.00,0.0581
885.00,0.0581
884.00,0.0581
883.00,0.0581
882.00,0.0580
881.00,0.0580
880.00,0.0579
879.00,0.0579
878.00,0.0578
877.00,0.0578
876.00,0.0577
875.00,0.0577
874.00,0.0576
873.00,0.0575
872.00,0.0574
871.00,0.0573
870.00,0.0573
869.00,0.0574
868.00,0.0575
867.00,0.0576
866.00,0.0577
865.00,0.0578
864.00,0.0580
863.00,0.0583
862.00,0.0585
861.00,0.0588
860.00,0.0592
859.00,0.0596
858.00,0.0600
857.00,0.0604
856.00,0.0609
855.00,0.0613
854.00,0.0618
853.00,0.0622
852.00,0.0625
851.00,0.0627
850.00,0.0628
849.00,0.0629
848.00,0.0629
847.00,0.0630
846.00,0.0630
845.00,0.0632
844.00,0.0635
843.00,0.0638
842.00,0.0641
841.00,0.0644
840.00,0.0647
839.00,0.0650
838.00,0.0654
837.00,0.0658
836.00,0.0662
835.00,0.0667
834.00,0.0673
833.00,0.0678
832.00,0.0683
831.00,0.0688
830.00,0.0691
829.00,0.0695
828.00,0.0698
827.00,0.0700
826.00,0.0702
825.00,0.0704
824.00,0.0706
823.00,0.0707
822.00,0.0709
821.00,0.0711
820.00,0.0713
819.00,0.0715
818.00,0.0718
817.00,0.0721
816.00,0.0725
815.00,0.0729
814.00,0.0733
813.00,0.0738
812.00,0.0743
811.00,0.0747
810.00,0.0752
809.00,0.0756
808.00,0.0761
807.00,0.0765
806.00,0.0770
805.00,0.0774
804.00,0.0778
803.00,0.0783
802.00,0.0788
801.00,0.0794
800.00,0.0800
799.00,0.0806
798.00,0.0812
797.00,0.0819
796.00,0.0825
795.00,0.0833
794.00,0.0840
793.00,0.0848
792.00,0.0857
791.00,0.0866
790.00,0.0875
789.00,0.0885
788.00,0.0895
787.00,0.0904
786.00,0.0913
785.00,0.0921
784.00,0.0929
783.00,0.0936
782.00,0.0941
781.00,0.0946
780.00,0.0950
779.00,0.0954
778.00,0.0957
777.00,0.0960
776.00,0.0963
775.00,0.0967
774.00,0.0970
773.00,0.0973
772.00,0.0976
771.00,0.0979
770.00,0.0982
769.00,0.0986
768.00,0.0990
767.00,0.0993
766.00,0.0996
765.00,0.0999
764.00,0.1002
763.00,0.1006
762.00,0.1009
761.00,0.1013
760.00,0.1017
759.00,0.1022
758.00,0.1027
757.00,0.1033
756.00,0.1039
755.00,0.1044
754.00,0.1049
753.00,0.1055
752.00,0.1062
751.00,0.1070
750.00,0.1077
749.00,0.1084
748.00,0.1091
747.00,0.1098
746.00,0.1104
745.00,0.1110
744.00,0.1116
743.00,0.1122
742.00,0.1127
741.00,0.1131
740.00,0.1136
739.00,0.1141
738.00,0.1146
737.00,0.1151
736.00,0.1158
735.00,0.1165
734.00,0.1173
733.00,0.1182
732.00,0.1193
731.00,0.1204
730.00,0.1216
729.00,0.1229
728.00,0.1243
727.00,0.1258
726.00,0.1274
725.00,0.1290
724.00,0.1308
723.00,0.1325
722.00,0.1341
721.00,0.1356
720.00,0.1370
719.00,0.1385
718.00,0.1398
717.00,0.1411
716.00,0.1424
715.00,0.1437
714.00,0.1449
713.00,0.1462
712.00,0.1474
711.00,0.1487
710.00,0.1500
709.00,0.1514
708.00,0.1528
707.00,0.1543
706.00,0.1558
705.00,0.1573
704.00,0.1589
703.00,0.1604
702.00,0.1618
701.00,0.1631
700.00,0.1642
699.00,0.1651
698.00,0.1655
697.00,0.1658
696.00,0.1658
695.00,0.1656
694.00,0.1654
693.00,0.1651
692.00,0.1650
691.00,0.1648
690.00,0.1647
689.00,0.1646
688.00,0.1647
687.00,0.1649
686.00,0.1650
685.00,0.1652
684.00,0.1653
683.00,0.1655
682.00,0.1656
681.00,0.1658
680.00,0.1661
679.00,0.1664
678.00,0.1666
677.00,0.1669
676.00,0.1673
675.00,0.1675
674.00,0.1677
673.00,0.1679
672.00,0.1680
671.00,0.1682
670.00,0.1684
669.00,0.1692
668.00,0.1705
667.00,0.1715
666.00,0.1718
665.00,0.1717
664.00,0.1716
663.00,0.1718
662.00,0.1721
661.00,0.1724
660.00,0.1728
659.00,0.1731
658.00,0.1733
657.00,0.1735
656.00,0.1736
655.00,0.1739
654.00,0.1742
653.00,0.1745
652.00,0.1748
651.00,0.1752
650.00,0.1755
649.00,0.1758
648.00,0.1761
647.00,0.1765
646.00,0.1770
645.00,0.1773
644.00,0.1778
643.00,0.1782
642.00,0.1785
641.00,0.1789
640.00,0.1793
639.00,0.1797
638.00,0.1800
637.00,0.1804
636.00,0.1810
635.00,0.1816
634.00,0.1822
633.00,0.1828
632.00,0.1834
631.00,0.1840
630.00,0.1845
629.00,0.1849
628.00,0.1854
627.00,0.1859
626.00,0.1863
625.00,0.1866
624.00,0.1869
623.00,0.1872
622.00,0.1874
621.00,0.1877
620.00,0.1879
619.00,0.1881
618.00,0.1881
617.00,0.1882
616.00,0.1884
615.00,0.1886
614.00,0.1887
613.00,0.1887
612.00,0.1889
611.00,0.1890
610.00,0.1890
609.00,0.1891
608.00,0.1892
607.00,0.1894
606.00,0.1895
605.00,0.1896
604.00,0.1899
603.00,0.1901
602.00,0.1903
601.00,0.1904
600.00,0.1906
599.00,0.1907
598.00,0.1908
597.00,0.1910
596.00,0.1914
595.00,0.1918
594.00,0.1922
593.00,0.1925
592.00,0.1928
591.00,0.1930
590.00,0.1931
589.00,0.1934
588.00,0.1939
587.00,0.1945
586.00,0.1950
585.00,0.1954
584.00,0.1958
583.00,0.1962
582.00,0.1966
581.00,0.1970
580.00,0.1976
579.00,0.1980
578.00,0.1984
577.00,0.1987
576.00,0.1992
575.00,0.1997
574.00,0.2001
573.00,0.2004
572.00,0.2008
571.00,0.2012
570.00,0.2016
569.00,0.2019
568.00,0.2024
567.00,0.2029
566.00,0.2033
565.00,0.2036
564.00,0.2040
563.00,0.2044
562.00,0.2047
561.00,0.2050
560.00,0.2055
559.00,0.2060
558.00,0.2065
557.00,0.2070
556.00,0.2075
555.00,0.2080
554.00,0.2083
553.00,0.2086
552.00,0.2091
551.00,0.2095
550.00,0.2098
549.00,0.2102
548.00,0.2108
547.00,0.2113
546.00,0.2116
545.00,0.2119
544.00,0.2123
543.00,0.2126
542.00,0.2128
541.00,0.2130
540.00,0.2134
539.00,0.2140
538.00,0.2145
537.00,0.2150
536.00,0.2154
535.00,0.2157
534.00,0.2160
533.00,0.2164
532.00,0.2169
531.00,0.2174
530.00,0.2176
529.00,0.2177
528.00,0.2181
527.00,0.2185
526.00,0.2189
525.00,0.2193
524.00,0.2198
523.00,0.2200
522.00,0.2200
521.00,0.2202
520.00,0.2207
519.00,0.2211
518.00,0.2212
517.00,0.2212
516.00,0.2214
515.00,0.2216
514.00,0.2216
513.00,0.2217
512.00,0.2220
511.00,0.2222
510.00,0.2222
509.00,0.2221
508.00,0.2223
507.00,0.2226
506.00,0.2226
505.00,0.2225
504.00,0.2224
503.00,0.2223
502.00,0.2222
501.00,0.2221
500.00,0.2222
499.00,0.2221
498.00,0.2218
497.00,0.2216
496.00,0.2216
495.00,0.2217
494.00,0.2217
493.00,0.2217
492.00,0.2219
491.00,0.2221
490.00,0.2220
489.00,0.2219
488.00,0.2221
487.00,0.2221
486.00,0.2217
485.00,0.2212
484.00,0.2210
483.00,0.2208
482.00,0.2205
481.00,0.2202
480.00,0.2202
479.00,0.2203
478.00,0.2202
477.00,0.2200
476.00,0.2199
475.00,0.2196
474.00,0.2191
473.00,0.2188
472.00,0.2192
471.00,0.2195
470.00,0.2193
469.00,0.2188
468.00,0.2186
467.00,0.2185
466.00,0.2185
465.00,0.2187
464.00,0.2192
463.00,0.2196
462.00,0.2196
461.00,0.2196
460.00,0.2196
459.00,0.2196
458.00,0.2193
457.00,0.2192
456.00,0.2192
455.00,0.2190
454.00,0.2183
453.00,0.2176
452.00,0.2172
451.00,0.2169
450.00,0.2164
449.00,0.2161
448.00,0.2161
447.00,0.2160
446.00,0.2154
445.00,0.2147
444.00,0.2142
443.00,0.2135
442.00,0.2123
441.00,0.2112
440.00,0.2107
439.00,0.2104
438.00,0.2100
437.00,0.2099
436.00,0.2102
435.00,0.2102
434.00,0.2096
433.00,0.2089
432.00,0.2085
431.00,0.2084
430.00,0.2084
429.00,0.2087
428.00,0.2094
427.00,0.2097
426.00,0.2093
425.00,0.2090
424.00,0.2091
423.00,0.2092
422.00,0.2085
421.00,0.2078
420.00,0.2079
419.00,0.2087
418.00,0.2089
417.00,0.2085
416.00,0.2080
415.00,0.2071
414.00,0.2055
413.00,0.2044
412.00,0.2043
411.00,0.2048
410.00,0.2047
409.00,0.2047
408.00,0.2052
407.00,0.2057
406.00,0.2053
405.00,0.2047
404.00,0.2043
403.00,0.2037
402.00,0.2019
401.00,0.2004
400.00,0.1999
