Created as New Dataset,Sample 719 By YargerLab Date Tuesday, June 24 2025
cm-1,A
4000.00,0.0079
3999.00,0.0079
3998.00,0.0079
3997.00,0.0079
3996.00,0.0079
3995.00,0.0079
3994.00,0.0079
3993.00,0.0079
3992.00,0.0079
3991.00,0.0079
3990.00,0.0079
3989.00,0.0079
3988.00,0.0079
3987.00,0.0079
3986.00,0.0079
3985.00,0.0079
3984.00,0.0079
3983.00,0.0079
3982.00,0.0078
3981.00,0.0078
3980.00,0.0078
3979.00,0.0078
3978.00,0.0078
3977.00,0.0079
3976.00,0.0079
3975.00,0.0079
3974.00,0.0079
3973.00,0.0079
3972.00,0.0079
3971.00,0.0079
3970.00,0.0079
3969.00,0.0079
3968.00,0.0079
3967.00,0.0079
3966.00,0.0079
3965.00,0.0079
3964.00,0.0079
3963.00,0.0080
3962.00,0.0080
3961.00,0.0080
3960.00,0.0080
3959.00,0.0080
3958.00,0.0080
3957.00,0.0080
3956.00,0.0080
3955.00,0.0080
3954.00,0.0080
3953.00,0.0080
3952.00,0.0080
3951.00,0.0080
3950.00,0.0080
3949.00,0.0080
3948.00,0.0080
3947.00,0.0080
3946.00,0.0079
3945.00,0.0079
3944.00,0.0079
3943.00,0.0079
3942.00,0.0079
3941.00,0.0079
3940.00,0.0079
3939.00,0.0079
3938.00,0.0079
3937.00,0.0079
3936.00,0.0079
3935.00,0.0079
3934.00,0.0079
3933.00,0.0079
3932.00,0.0079
3931.00,0.0079
3930.00,0.0079
3929.00,0.0079
3928.00,0.0079
3927.00,0.0079
3926.00,0.0079
3925.00,0.0079
3924.00,0.0079
3923.00,0.0079
3922.00,0.0079
3921.00,0.0080
3920.00,0.0080
3919.00,0.0079
3918.00,0.0079
3917.00,0.0079
3916.00,0.0079
3915.00,0.0078
3914.00,0.0078
3913.00,0.0078
3912.00,0.0078
3911.00,0.0077
3910.00,0.0077
3909.00,0.0077
3908.00,0.0078
3907.00,0.0078
3906.00,0.0078
3905.00,0.0078
3904.00,0.0078
3903.00,0.0078
3902.00,0.0078
3901.00,0.0078
3900.00,0.0078
3899.00,0.0078
3898.00,0.0078
3897.00,0.0078
3896.00,0.0078
3895.00,0.0078
3894.00,0.0078
3893.00,0.0078
3892.00,0.0077
3891.00,0.0077
3890.00,0.0077
3889.00,0.0077
3888.00,0.0077
3887.00,0.0077
3886.00,0.0076
3885.00,0.0076
3884.00,0.0076
3883.00,0.0076
3882.00,0.0076
3881.00,0.0076
3880.00,0.0076
3879.00,0.0076
3878.00,0.0076
3877.00,0.0076
3876.00,0.0075
3875.00,0.0075
3874.00,0.0075
3873.00,0.0076
3872.00,0.0076
3871.00,0.0076
3870.00,0.0076
3869.00,0.0076
3868.00,0.0076
3867.00,0.0076
3866.00,0.0076
3865.00,0.0076
3864.00,0.0076
3863.00,0.0076
3862.00,0.0076
3861.00,0.0076
3860.00,0.0076
3859.00,0.0076
3858.00,0.0076
3857.00,0.0076
3856.00,0.0076
3855.00,0.0076
3854.00,0.0076
3853.00,0.0076
3852.00,0.0076
3851.00,0.0076
3850.00,0.0076
3849.00,0.0075
3848.00,0.0075
3847.00,0.0075
3846.00,0.0075
3845.00,0.0075
3844.00,0.0075
3843.00,0.0075
3842.00,0.0075
3841.00,0.0075
3840.00,0.0075
3839.00,0.0075
3838.00,0.0075
3837.00,0.0075
3836.00,0.0075
3835.00,0.0075
3834.00,0.0075
3833.00,0.0075
3832.00,0.0075
3831.00,0.0075
3830.00,0.0075
3829.00,0.0075
3828.00,0.0075
3827.00,0.0075
3826.00,0.0074
3825.00,0.0074
3824.00,0.0074
3823.00,0.0074
3822.00,0.0074
3821.00,0.0074
3820.00,0.0074
3819.00,0.0075
3818.00,0.0075
3817.00,0.0074
3816.00,0.0074
3815.00,0.0074
3814.00,0.0074
3813.00,0.0074
3812.00,0.0074
3811.00,0.0074
3810.00,0.0075
3809.00,0.0075
3808.00,0.0075
3807.00,0.0075
3806.00,0.0075
3805.00,0.0075
3804.00,0.0075
3803.00,0.0075
3802.00,0.0074
3801.00,0.0074
3800.00,0.0073
3799.00,0.0074
3798.00,0.0074
3797.00,0.0074
3796.00,0.0074
3795.00,0.0074
3794.00,0.0074
3793.00,0.0074
3792.00,0.0074
3791.00,0.0073
3790.00,0.0073
3789.00,0.0073
3788.00,0.0074
3787.00,0.0074
3786.00,0.0074
3785.00,0.0074
3784.00,0.0074
3783.00,0.0074
3782.00,0.0074
3781.00,0.0074
3780.00,0.0074
3779.00,0.0074
3778.00,0.0074
3777.00,0.0074
3776.00,0.0074
3775.00,0.0074
3774.00,0.0074
3773.00,0.0074
3772.00,0.0074
3771.00,0.0075
3770.00,0.0075
3769.00,0.0075
3768.00,0.0074
3767.00,0.0074
3766.00,0.0074
3765.00,0.0074
3764.00,0.0074
3763.00,0.0074
3762.00,0.0074
3761.00,0.0074
3760.00,0.0074
3759.00,0.0074
3758.00,0.0074
3757.00,0.0074
3756.00,0.0074
3755.00,0.0074
3754.00,0.0074
3753.00,0.0074
3752.00,0.0074
3751.00,0.0074
3750.00,0.0074
3749.00,0.0074
3748.00,0.0074
3747.00,0.0074
3746.00,0.0074
3745.00,0.0074
3744.00,0.0073
3743.00,0.0073
3742.00,0.0073
3741.00,0.0073
3740.00,0.0072
3739.00,0.0072
3738.00,0.0072
3737.00,0.0072
3736.00,0.0072
3735.00,0.0072
3734.00,0.0073
3733.00,0.0072
3732.00,0.0072
3731.00,0.0072
3730.00,0.0072
3729.00,0.0072
3728.00,0.0072
3727.00,0.0072
3726.00,0.0072
3725.00,0.0072
3724.00,0.0072
3723.00,0.0072
3722.00,0.0072
3721.00,0.0072
3720.00,0.0072
3719.00,0.0072
3718.00,0.0072
3717.00,0.0072
3716.00,0.0072
3715.00,0.0072
3714.00,0.0072
3713.00,0.0072
3712.00,0.0071
3711.00,0.0071
3710.00,0.0071
3709.00,0.0071
3708.00,0.0071
3707.00,0.0071
3706.00,0.0071
3705.00,0.0071
3704.00,0.0071
3703.00,0.0071
3702.00,0.0071
3701.00,0.0071
3700.00,0.0071
3699.00,0.0071
3698.00,0.0071
3697.00,0.0071
3696.00,0.0071
3695.00,0.0071
3694.00,0.0071
3693.00,0.0071
3692.00,0.0071
3691.00,0.0071
3690.00,0.0071
3689.00,0.0071
3688.00,0.0070
3687.00,0.0070
3686.00,0.0070
3685.00,0.0071
3684.00,0.0071
3683.00,0.0071
3682.00,0.0071
3681.00,0.0071
3680.00,0.0071
3679.00,0.0071
3678.00,0.0071
3677.00,0.0071
3676.00,0.0071
3675.00,0.0072
3674.00,0.0072
3673.00,0.0072
3672.00,0.0072
3671.00,0.0071
3670.00,0.0071
3669.00,0.0071
3668.00,0.0072
3667.00,0.0072
3666.00,0.0072
3665.00,0.0072
3664.00,0.0072
3663.00,0.0072
3662.00,0.0072
3661.00,0.0072
3660.00,0.0073
3659.00,0.0073
3658.00,0.0073
3657.00,0.0073
3656.00,0.0073
3655.00,0.0073
3654.00,0.0074
3653.00,0.0074
3652.00,0.0074
3651.00,0.0074
3650.00,0.0074
3649.00,0.0074
3648.00,0.0073
3647.00,0.0073
3646.00,0.0073
3645.00,0.0073
3644.00,0.0073
3643.00,0.0074
3642.00,0.0074
3641.00,0.0074
3640.00,0.0074
3639.00,0.0074
3638.00,0.0074
3637.00,0.0074
3636.00,0.0074
3635.00,0.0074
3634.00,0.0074
3633.00,0.0074
3632.00,0.0074
3631.00,0.0074
3630.00,0.0074
3629.00,0.0074
3628.00,0.0074
3627.00,0.0074
3626.00,0.0074
3625.00,0.0074
3624.00,0.0074
3623.00,0.0075
3622.00,0.0075
3621.00,0.0075
3620.00,0.0075
3619.00,0.0075
3618.00,0.0075
3617.00,0.0075
3616.00,0.0075
3615.00,0.0075
3614.00,0.0075
3613.00,0.0075
3612.00,0.0075
3611.00,0.0076
3610.00,0.0076
3609.00,0.0076
3608.00,0.0076
3607.00,0.0075
3606.00,0.0075
3605.00,0.0075
3604.00,0.0075
3603.00,0.0075
3602.00,0.0075
3601.00,0.0075
3600.00,0.0075
3599.00,0.0075
3598.00,0.0075
3597.00,0.0076
3596.00,0.0076
3595.00,0.0076
3594.00,0.0076
3593.00,0.0075
3592.00,0.0075
3591.00,0.0075
3590.00,0.0075
3589.00,0.0075
3588.00,0.0075
3587.00,0.0076
3586.00,0.0076
3585.00,0.0076
3584.00,0.0076
3583.00,0.0076
3582.00,0.0076
3581.00,0.0076
3580.00,0.0076
3579.00,0.0076
3578.00,0.0076
3577.00,0.0076
3576.00,0.0076
3575.00,0.0076
3574.00,0.0076
3573.00,0.0076
3572.00,0.0077
3571.00,0.0077
3570.00,0.0077
3569.00,0.0077
3568.00,0.0077
3567.00,0.0077
3566.00,0.0077
3565.00,0.0077
3564.00,0.0078
3563.00,0.0078
3562.00,0.0078
3561.00,0.0078
3560.00,0.0078
3559.00,0.0079
3558.00,0.0079
3557.00,0.0079
3556.00,0.0079
3555.00,0.0079
3554.00,0.0079
3553.00,0.0079
3552.00,0.0079
3551.00,0.0080
3550.00,0.0080
3549.00,0.0080
3548.00,0.0080
3547.00,0.0081
3546.00,0.0081
3545.00,0.0081
3544.00,0.0081
3543.00,0.0081
3542.00,0.0082
3541.00,0.0082
3540.00,0.0082
3539.00,0.0082
3538.00,0.0082
3537.00,0.0082
3536.00,0.0082
3535.00,0.0082
3534.00,0.0082
3533.00,0.0082
3532.00,0.0083
3531.00,0.0083
3530.00,0.0083
3529.00,0.0083
3528.00,0.0084
3527.00,0.0084
3526.00,0.0085
3525.00,0.0085
3524.00,0.0085
3523.00,0.0085
3522.00,0.0085
3521.00,0.0085
3520.00,0.0085
3519.00,0.0085
3518.00,0.0086
3517.00,0.0086
3516.00,0.0086
3515.00,0.0086
3514.00,0.0087
3513.00,0.0087
3512.00,0.0087
3511.00,0.0087
3510.00,0.0088
3509.00,0.0088
3508.00,0.0088
3507.00,0.0088
3506.00,0.0088
3505.00,0.0088
3504.00,0.0089
3503.00,0.0089
3502.00,0.0089
3501.00,0.0090
3500.00,0.0090
3499.00,0.0091
3498.00,0.0091
3497.00,0.0092
3496.00,0.0092
3495.00,0.0093
3494.00,0.0093
3493.00,0.0094
3492.00,0.0094
3491.00,0.0095
3490.00,0.0095
3489.00,0.0096
3488.00,0.0096
3487.00,0.0097
3486.00,0.0097
3485.00,0.0098
3484.00,0.0099
3483.00,0.0100
3482.00,0.0100
3481.00,0.0101
3480.00,0.0102
3479.00,0.0102
3478.00,0.0103
3477.00,0.0104
3476.00,0.0105
3475.00,0.0106
3474.00,0.0107
3473.00,0.0108
3472.00,0.0108
3471.00,0.0108
3470.00,0.0109
3469.00,0.0109
3468.00,0.0110
3467.00,0.0112
3466.00,0.0113
3465.00,0.0115
3464.00,0.0116
3463.00,0.0117
3462.00,0.0118
3461.00,0.0119
3460.00,0.0120
3459.00,0.0121
3458.00,0.0122
3457.00,0.0123
3456.00,0.0124
3455.00,0.0125
3454.00,0.0126
3453.00,0.0127
3452.00,0.0127
3451.00,0.0128
3450.00,0.0128
3449.00,0.0129
3448.00,0.0129
3447.00,0.0129
3446.00,0.0130
3445.00,0.0130
3444.00,0.0130
3443.00,0.0131
3442.00,0.0131
3441.00,0.0130
3440.00,0.0130
3439.00,0.0130
3438.00,0.0129
3437.00,0.0128
3436.00,0.0128
3435.00,0.0128
3434.00,0.0128
3433.00,0.0128
3432.00,0.0128
3431.00,0.0128
3430.00,0.0127
3429.00,0.0127
3428.00,0.0127
3427.00,0.0127
3426.00,0.0127
3425.00,0.0127
3424.00,0.0127
3423.00,0.0127
3422.00,0.0127
3421.00,0.0128
3420.00,0.0128
3419.00,0.0129
3418.00,0.0129
3417.00,0.0129
3416.00,0.0129
3415.00,0.0130
3414.00,0.0130
3413.00,0.0131
3412.00,0.0131
3411.00,0.0132
3410.00,0.0133
3409.00,0.0134
3408.00,0.0135
3407.00,0.0135
3406.00,0.0136
3405.00,0.0137
3404.00,0.0137
3403.00,0.0138
3402.00,0.0138
3401.00,0.0140
3400.00,0.0141
3399.00,0.0144
3398.00,0.0146
3397.00,0.0148
3396.00,0.0149
3395.00,0.0151
3394.00,0.0152
3393.00,0.0153
3392.00,0.0156
3391.00,0.0158
3390.00,0.0161
3389.00,0.0164
3388.00,0.0167
3387.00,0.0170
3386.00,0.0172
3385.00,0.0175
3384.00,0.0177
3383.00,0.0180
3382.00,0.0182
3381.00,0.0185
3380.00,0.0187
3379.00,0.0190
3378.00,0.0192
3377.00,0.0195
3376.00,0.0198
3375.00,0.0201
3374.00,0.0204
3373.00,0.0206
3372.00,0.0208
3371.00,0.0210
3370.00,0.0212
3369.00,0.0216
3368.00,0.0220
3367.00,0.0225
3366.00,0.0231
3365.00,0.0237
3364.00,0.0242
3363.00,0.0247
3362.00,0.0253
3361.00,0.0259
3360.00,0.0265
3359.00,0.0272
3358.00,0.0280
3357.00,0.0288
3356.00,0.0297
3355.00,0.0306
3354.00,0.0315
3353.00,0.0325
3352.00,0.0335
3351.00,0.0347
3350.00,0.0360
3349.00,0.0374
3348.00,0.0389
3347.00,0.0404
3346.00,0.0419
3345.00,0.0434
3344.00,0.0449
3343.00,0.0464
3342.00,0.0480
3341.00,0.0495
3340.00,0.0511
3339.00,0.0526
3338.00,0.0541
3337.00,0.0555
3336.00,0.0569
3335.00,0.0581
3334.00,0.0591
3333.00,0.0600
3332.00,0.0607
3331.00,0.0611
3330.00,0.0615
3329.00,0.0617
3328.00,0.0618
3327.00,0.0618
3326.00,0.0618
3325.00,0.0617
3324.00,0.0616
3323.00,0.0613
3322.00,0.0610
3321.00,0.0606
3320.00,0.0601
3319.00,0.0594
3318.00,0.0587
3317.00,0.0579
3316.00,0.0571
3315.00,0.0561
3314.00,0.0551
3313.00,0.0541
3312.00,0.0530
3311.00,0.0519
3310.00,0.0508
3309.00,0.0497
3308.00,0.0486
3307.00,0.0476
3306.00,0.0466
3305.00,0.0456
3304.00,0.0448
3303.00,0.0440
3302.00,0.0432
3301.00,0.0424
3300.00,0.0416
3299.00,0.0408
3298.00,0.0400
3297.00,0.0393
3296.00,0.0386
3295.00,0.0379
3294.00,0.0373
3293.00,0.0367
3292.00,0.0361
3291.00,0.0356
3290.00,0.0351
3289.00,0.0346
3288.00,0.0340
3287.00,0.0334
3286.00,0.0329
3285.00,0.0323
3284.00,0.0318
3283.00,0.0314
3282.00,0.0309
3281.00,0.0305
3280.00,0.0302
3279.00,0.0299
3278.00,0.0296
3277.00,0.0294
3276.00,0.0292
3275.00,0.0291
3274.00,0.0289
3273.00,0.0288
3272.00,0.0287
3271.00,0.0286
3270.00,0.0286
3269.00,0.0286
3268.00,0.0286
3267.00,0.0286
3266.00,0.0286
3265.00,0.0286
3264.00,0.0285
3263.00,0.0284
3262.00,0.0284
3261.00,0.0283
3260.00,0.0281
3259.00,0.0280
3258.00,0.0278
3257.00,0.0276
3256.00,0.0274
3255.00,0.0272
3254.00,0.0271
3253.00,0.0269
3252.00,0.0268
3251.00,0.0266
3250.00,0.0265
3249.00,0.0263
3248.00,0.0262
3247.00,0.0261
3246.00,0.0261
3245.00,0.0260
3244.00,0.0259
3243.00,0.0259
3242.00,0.0258
3241.00,0.0257
3240.00,0.0256
3239.00,0.0255
3238.00,0.0253
3237.00,0.0251
3236.00,0.0249
3235.00,0.0246
3234.00,0.0244
3233.00,0.0242
3232.00,0.0240
3231.00,0.0237
3230.00,0.0235
3229.00,0.0233
3228.00,0.0230
3227.00,0.0228
3226.00,0.0225
3225.00,0.0223
3224.00,0.0220
3223.00,0.0218
3222.00,0.0216
3221.00,0.0214
3220.00,0.0211
3219.00,0.0209
3218.00,0.0208
3217.00,0.0206
3216.00,0.0204
3215.00,0.0203
3214.00,0.0201
3213.00,0.0200
3212.00,0.0199
3211.00,0.0197
3210.00,0.0196
3209.00,0.0195
3208.00,0.0194
3207.00,0.0192
3206.00,0.0191
3205.00,0.0190
3204.00,0.0189
3203.00,0.0187
3202.00,0.0186
3201.00,0.0185
3200.00,0.0183
3199.00,0.0181
3198.00,0.0180
3197.00,0.0178
3196.00,0.0177
3195.00,0.0176
3194.00,0.0174
3193.00,0.0173
3192.00,0.0172
3191.00,0.0171
3190.00,0.0170
3189.00,0.0170
3188.00,0.0169
3187.00,0.0168
3186.00,0.0168
3185.00,0.0167
3184.00,0.0167
3183.00,0.0166
3182.00,0.0166
3181.00,0.0165
3180.00,0.0164
3179.00,0.0164
3178.00,0.0163
3177.00,0.0162
3176.00,0.0162
3175.00,0.0162
3174.00,0.0161
3173.00,0.0161
3172.00,0.0160
3171.00,0.0160
3170.00,0.0159
3169.00,0.0159
3168.00,0.0158
3167.00,0.0158
3166.00,0.0158
3165.00,0.0158
3164.00,0.0158
3163.00,0.0158
3162.00,0.0158
3161.00,0.0158
3160.00,0.0158
3159.00,0.0158
3158.00,0.0158
3157.00,0.0158
3156.00,0.0158
3155.00,0.0158
3154.00,0.0158
3153.00,0.0158
3152.00,0.0158
3151.00,0.0159
3150.00,0.0159
3149.00,0.0160
3148.00,0.0160
3147.00,0.0160
3146.00,0.0160
3145.00,0.0160
3144.00,0.0160
3143.00,0.0159
3142.00,0.0159
3141.00,0.0159
3140.00,0.0160
3139.00,0.0160
3138.00,0.0161
3137.00,0.0162
3136.00,0.0163
3135.00,0.0164
3134.00,0.0164
3133.00,0.0165
3132.00,0.0166
3131.00,0.0166
3130.00,0.0167
3129.00,0.0168
3128.00,0.0169
3127.00,0.0170
3126.00,0.0172
3125.00,0.0173
3124.00,0.0174
3123.00,0.0175
3122.00,0.0176
3121.00,0.0178
3120.00,0.0179
3119.00,0.0181
3118.00,0.0183
3117.00,0.0186
3116.00,0.0190
3115.00,0.0193
3114.00,0.0197
3113.00,0.0200
3112.00,0.0203
3111.00,0.0206
3110.00,0.0208
3109.00,0.0211
3108.00,0.0214
3107.00,0.0217
3106.00,0.0219
3105.00,0.0221
3104.00,0.0223
3103.00,0.0223
3102.00,0.0224
3101.00,0.0224
3100.00,0.0223
3099.00,0.0223
3098.00,0.0222
3097.00,0.0220
3096.00,0.0219
3095.00,0.0218
3094.00,0.0216
3093.00,0.0215
3092.00,0.0213
3091.00,0.0211
3090.00,0.0210
3089.00,0.0210
3088.00,0.0209
3087.00,0.0209
3086.00,0.0209
3085.00,0.0208
3084.00,0.0208
3083.00,0.0208
3082.00,0.0208
3081.00,0.0207
3080.00,0.0207
3079.00,0.0207
3078.00,0.0206
3077.00,0.0206
3076.00,0.0205
3075.00,0.0203
3074.00,0.0202
3073.00,0.0200
3072.00,0.0197
3071.00,0.0195
3070.00,0.0193
3069.00,0.0192
3068.00,0.0191
3067.00,0.0191
3066.00,0.0192
3065.00,0.0193
3064.00,0.0193
3063.00,0.0194
3062.00,0.0193
3061.00,0.0192
3060.00,0.0190
3059.00,0.0188
3058.00,0.0185
3057.00,0.0183
3056.00,0.0181
3055.00,0.0180
3054.00,0.0179
3053.00,0.0179
3052.00,0.0178
3051.00,0.0178
3050.00,0.0179
3049.00,0.0179
3048.00,0.0180
3047.00,0.0180
3046.00,0.0179
3045.00,0.0179
3044.00,0.0180
3043.00,0.0180
3042.00,0.0182
3041.00,0.0184
3040.00,0.0186
3039.00,0.0188
3038.00,0.0191
3037.00,0.0193
3036.00,0.0195
3035.00,0.0197
3034.00,0.0199
3033.00,0.0202
3032.00,0.0204
3031.00,0.0207
3030.00,0.0209
3029.00,0.0210
3028.00,0.0211
3027.00,0.0212
3026.00,0.0212
3025.00,0.0212
3024.00,0.0211
3023.00,0.0211
3022.00,0.0210
3021.00,0.0209
3020.00,0.0209
3019.00,0.0208
3018.00,0.0208
3017.00,0.0209
3016.00,0.0210
3015.00,0.0211
3014.00,0.0213
3013.00,0.0216
3012.00,0.0220
3011.00,0.0225
3010.00,0.0230
3009.00,0.0236
3008.00,0.0242
3007.00,0.0248
3006.00,0.0254
3005.00,0.0260
3004.00,0.0265
3003.00,0.0271
3002.00,0.0275
3001.00,0.0279
3000.00,0.0282
2999.00,0.0284
2998.00,0.0285
2997.00,0.0285
2996.00,0.0284
2995.00,0.0280
2994.00,0.0275
2993.00,0.0270
2992.00,0.0264
2991.00,0.0258
2990.00,0.0253
2989.00,0.0248
2988.00,0.0244
2987.00,0.0240
2986.00,0.0236
2985.00,0.0232
2984.00,0.0229
2983.00,0.0226
2982.00,0.0224
2981.00,0.0222
2980.00,0.0221
2979.00,0.0221
2978.00,0.0221
2977.00,0.0221
2976.00,0.0221
2975.00,0.0221
2974.00,0.0222
2973.00,0.0223
2972.00,0.0226
2971.00,0.0229
2970.00,0.0232
2969.00,0.0237
2968.00,0.0243
2967.00,0.0250
2966.00,0.0259
2965.00,0.0270
2964.00,0.0282
2963.00,0.0297
2962.00,0.0314
2961.00,0.0333
2960.00,0.0353
2959.00,0.0375
2958.00,0.0396
2957.00,0.0417
2956.00,0.0435
2955.00,0.0449
2954.00,0.0460
2953.00,0.0465
2952.00,0.0464
2951.00,0.0458
2950.00,0.0446
2949.00,0.0430
2948.00,0.0411
2947.00,0.0390
2946.00,0.0370
2945.00,0.0350
2944.00,0.0333
2943.00,0.0318
2942.00,0.0305
2941.00,0.0294
2940.00,0.0285
2939.00,0.0278
2938.00,0.0273
2937.00,0.0269
2936.00,0.0266
2935.00,0.0264
2934.00,0.0262
2933.00,0.0260
2932.00,0.0258
2931.00,0.0256
2930.00,0.0254
2929.00,0.0252
2928.00,0.0250
2927.00,0.0247
2926.00,0.0243
2925.00,0.0240
2924.00,0.0236
2923.00,0.0232
2922.00,0.0228
2921.00,0.0224
2920.00,0.0220
2919.00,0.0216
2918.00,0.0213
2917.00,0.0210
2916.00,0.0208
2915.00,0.0206
2914.00,0.0205
2913.00,0.0204
2912.00,0.0204
2911.00,0.0203
2910.00,0.0202
2909.00,0.0201
2908.00,0.0201
2907.00,0.0200
2906.00,0.0199
2905.00,0.0197
2904.00,0.0196
2903.00,0.0195
2902.00,0.0194
2901.00,0.0193
2900.00,0.0192
2899.00,0.0190
2898.00,0.0189
2897.00,0.0187
2896.00,0.0185
2895.00,0.0184
2894.00,0.0183
2893.00,0.0183
2892.00,0.0182
2891.00,0.0182
2890.00,0.0181
2889.00,0.0182
2888.00,0.0182
2887.00,0.0182
2886.00,0.0182
2885.00,0.0182
2884.00,0.0183
2883.00,0.0183
2882.00,0.0183
2881.00,0.0183
2880.00,0.0183
2879.00,0.0183
2878.00,0.0183
2877.00,0.0183
2876.00,0.0183
2875.00,0.0183
2874.00,0.0183
2873.00,0.0183
2872.00,0.0184
2871.00,0.0184
2870.00,0.0184
2869.00,0.0183
2868.00,0.0181
2867.00,0.0180
2866.00,0.0179
2865.00,0.0178
2864.00,0.0177
2863.00,0.0176
2862.00,0.0174
2861.00,0.0173
2860.00,0.0173
2859.00,0.0172
2858.00,0.0172
2857.00,0.0172
2856.00,0.0172
2855.00,0.0173
2854.00,0.0173
2853.00,0.0174
2852.00,0.0175
2851.00,0.0176
2850.00,0.0177
2849.00,0.0180
2848.00,0.0183
2847.00,0.0187
2846.00,0.0192
2845.00,0.0196
2844.00,0.0198
2843.00,0.0200
2842.00,0.0200
2841.00,0.0198
2840.00,0.0195
2839.00,0.0192
2838.00,0.0188
2837.00,0.0185
2836.00,0.0181
2835.00,0.0178
2834.00,0.0175
2833.00,0.0172
2832.00,0.0169
2831.00,0.0167
2830.00,0.0165
2829.00,0.0163
2828.00,0.0161
2827.00,0.0160
2826.00,0.0158
2825.00,0.0157
2824.00,0.0156
2823.00,0.0156
2822.00,0.0155
2821.00,0.0154
2820.00,0.0154
2819.00,0.0154
2818.00,0.0153
2817.00,0.0153
2816.00,0.0153
2815.00,0.0152
2814.00,0.0152
2813.00,0.0151
2812.00,0.0151
2811.00,0.0150
2810.00,0.0150
2809.00,0.0149
2808.00,0.0149
2807.00,0.0148
2806.00,0.0147
2805.00,0.0147
2804.00,0.0146
2803.00,0.0145
2802.00,0.0144
2801.00,0.0143
2800.00,0.0142
2799.00,0.0141
2798.00,0.0140
2797.00,0.0139
2796.00,0.0138
2795.00,0.0137
2794.00,0.0136
2793.00,0.0135
2792.00,0.0134
2791.00,0.0133
2790.00,0.0132
2789.00,0.0131
2788.00,0.0130
2787.00,0.0130
2786.00,0.0129
2785.00,0.0128
2784.00,0.0128
2783.00,0.0127
2782.00,0.0127
2781.00,0.0126
2780.00,0.0126
2779.00,0.0126
2778.00,0.0125
2777.00,0.0125
2776.00,0.0125
2775.00,0.0124
2774.00,0.0124
2773.00,0.0124
2772.00,0.0124
2771.00,0.0124
2770.00,0.0124
2769.00,0.0124
2768.00,0.0124
2767.00,0.0124
2766.00,0.0123
2765.00,0.0123
2764.00,0.0123
2763.00,0.0123
2762.00,0.0123
2761.00,0.0123
2760.00,0.0123
2759.00,0.0122
2758.00,0.0122
2757.00,0.0122
2756.00,0.0122
2755.00,0.0122
2754.00,0.0122
2753.00,0.0122
2752.00,0.0122
2751.00,0.0122
2750.00,0.0121
2749.00,0.0121
2748.00,0.0121
2747.00,0.0121
2746.00,0.0121
2745.00,0.0121
2744.00,0.0121
2743.00,0.0121
2742.00,0.0121
2741.00,0.0121
2740.00,0.0121
2739.00,0.0121
2738.00,0.0121
2737.00,0.0121
2736.00,0.0120
2735.00,0.0120
2734.00,0.0120
2733.00,0.0120
2732.00,0.0119
2731.00,0.0119
2730.00,0.0119
2729.00,0.0118
2728.00,0.0118
2727.00,0.0118
2726.00,0.0118
2725.00,0.0118
2724.00,0.0118
2723.00,0.0118
2722.00,0.0117
2721.00,0.0117
2720.00,0.0117
2719.00,0.0117
2718.00,0.0117
2717.00,0.0116
2716.00,0.0116
2715.00,0.0116
2714.00,0.0116
2713.00,0.0116
2712.00,0.0116
2711.00,0.0115
2710.00,0.0115
2709.00,0.0115
2708.00,0.0115
2707.00,0.0115
2706.00,0.0115
2705.00,0.0114
2704.00,0.0114
2703.00,0.0115
2702.00,0.0115
2701.00,0.0115
2700.00,0.0115
2699.00,0.0115
2698.00,0.0114
2697.00,0.0114
2696.00,0.0114
2695.00,0.0114
2694.00,0.0114
2693.00,0.0114
2692.00,0.0114
2691.00,0.0114
2690.00,0.0114
2689.00,0.0114
2688.00,0.0114
2687.00,0.0114
2686.00,0.0114
2685.00,0.0114
2684.00,0.0114
2683.00,0.0114
2682.00,0.0114
2681.00,0.0114
2680.00,0.0114
2679.00,0.0114
2678.00,0.0114
2677.00,0.0115
2676.00,0.0115
2675.00,0.0115
2674.00,0.0115
2673.00,0.0115
2672.00,0.0115
2671.00,0.0115
2670.00,0.0115
2669.00,0.0115
2668.00,0.0115
2667.00,0.0115
2666.00,0.0115
2665.00,0.0116
2664.00,0.0116
2663.00,0.0117
2662.00,0.0117
2661.00,0.0118
2660.00,0.0118
2659.00,0.0118
2658.00,0.0119
2657.00,0.0119
2656.00,0.0119
2655.00,0.0120
2654.00,0.0120
2653.00,0.0120
2652.00,0.0120
2651.00,0.0120
2650.00,0.0120
2649.00,0.0120
2648.00,0.0120
2647.00,0.0120
2646.00,0.0120
2645.00,0.0120
2644.00,0.0120
2643.00,0.0120
2642.00,0.0120
2641.00,0.0119
2640.00,0.0119
2639.00,0.0119
2638.00,0.0118
2637.00,0.0118
2636.00,0.0118
2635.00,0.0118
2634.00,0.0118
2633.00,0.0118
2632.00,0.0118
2631.00,0.0118
2630.00,0.0118
2629.00,0.0118
2628.00,0.0118
2627.00,0.0118
2626.00,0.0118
2625.00,0.0118
2624.00,0.0118
2623.00,0.0118
2622.00,0.0119
2621.00,0.0119
2620.00,0.0119
2619.00,0.0119
2618.00,0.0119
2617.00,0.0119
2616.00,0.0119
2615.00,0.0118
2614.00,0.0118
2613.00,0.0118
2612.00,0.0118
2611.00,0.0118
2610.00,0.0117
2609.00,0.0117
2608.00,0.0117
2607.00,0.0116
2606.00,0.0116
2605.00,0.0116
2604.00,0.0116
2603.00,0.0116
2602.00,0.0115
2601.00,0.0115
2600.00,0.0115
2599.00,0.0114
2598.00,0.0114
2597.00,0.0113
2596.00,0.0113
2595.00,0.0113
2594.00,0.0112
2593.00,0.0112
2592.00,0.0112
2591.00,0.0111
2590.00,0.0111
2589.00,0.0110
2588.00,0.0110
2587.00,0.0110
2586.00,0.0110
2585.00,0.0109
2584.00,0.0109
2583.00,0.0108
2582.00,0.0108
2581.00,0.0107
2580.00,0.0107
2579.00,0.0106
2578.00,0.0106
2577.00,0.0106
2576.00,0.0105
2575.00,0.0105
2574.00,0.0104
2573.00,0.0104
2572.00,0.0103
2571.00,0.0103
2570.00,0.0102
2569.00,0.0102
2568.00,0.0102
2567.00,0.0102
2566.00,0.0102
2565.00,0.0103
2564.00,0.0102
2563.00,0.0102
2562.00,0.0102
2561.00,0.0102
2560.00,0.0102
2559.00,0.0101
2558.00,0.0101
2557.00,0.0101
2556.00,0.0101
2555.00,0.0102
2554.00,0.0102
2553.00,0.0102
2552.00,0.0102
2551.00,0.0102
2550.00,0.0102
2549.00,0.0102
2548.00,0.0102
2547.00,0.0102
2546.00,0.0102
2545.00,0.0102
2544.00,0.0102
2543.00,0.0102
2542.00,0.0102
2541.00,0.0102
2540.00,0.0102
2539.00,0.0103
2538.00,0.0103
2537.00,0.0102
2536.00,0.0103
2535.00,0.0103
2534.00,0.0103
2533.00,0.0103
2532.00,0.0103
2531.00,0.0102
2530.00,0.0101
2529.00,0.0100
2528.00,0.0100
2527.00,0.0100
2526.00,0.0099
2525.00,0.0099
2524.00,0.0099
2523.00,0.0098
2522.00,0.0098
2521.00,0.0098
2520.00,0.0098
2519.00,0.0098
2518.00,0.0098
2517.00,0.0098
2516.00,0.0098
2515.00,0.0098
2514.00,0.0098
2513.00,0.0098
2512.00,0.0098
2511.00,0.0097
2510.00,0.0097
2509.00,0.0097
2508.00,0.0097
2507.00,0.0097
2506.00,0.0096
2505.00,0.0096
2504.00,0.0096
2503.00,0.0095
2502.00,0.0095
2501.00,0.0095
2500.00,0.0096
2499.00,0.0096
2498.00,0.0096
2497.00,0.0096
2496.00,0.0096
2495.00,0.0096
2494.00,0.0097
2493.00,0.0097
2492.00,0.0097
2491.00,0.0097
2490.00,0.0097
2489.00,0.0097
2488.00,0.0097
2487.00,0.0097
2486.00,0.0098
2485.00,0.0098
2484.00,0.0097
2483.00,0.0097
2482.00,0.0096
2481.00,0.0096
2480.00,0.0095
2479.00,0.0095
2478.00,0.0094
2477.00,0.0094
2476.00,0.0094
2475.00,0.0095
2474.00,0.0094
2473.00,0.0094
2472.00,0.0094
2471.00,0.0094
2470.00,0.0094
2469.00,0.0094
2468.00,0.0094
2467.00,0.0094
2466.00,0.0094
2465.00,0.0094
2464.00,0.0094
2463.00,0.0095
2462.00,0.0095
2461.00,0.0095
2460.00,0.0096
2459.00,0.0097
2458.00,0.0097
2457.00,0.0098
2456.00,0.0098
2455.00,0.0098
2454.00,0.0098
2453.00,0.0098
2452.00,0.0098
2451.00,0.0097
2450.00,0.0097
2449.00,0.0096
2448.00,0.0096
2447.00,0.0095
2446.00,0.0095
2445.00,0.0094
2444.00,0.0094
2443.00,0.0093
2442.00,0.0092
2441.00,0.0092
2440.00,0.0091
2439.00,0.0091
2438.00,0.0091
2437.00,0.0091
2436.00,0.0092
2435.00,0.0092
2434.00,0.0091
2433.00,0.0091
2432.00,0.0091
2431.00,0.0090
2430.00,0.0090
2429.00,0.0090
2428.00,0.0090
2427.00,0.0090
2426.00,0.0090
2425.00,0.0091
2424.00,0.0091
2423.00,0.0091
2422.00,0.0091
2421.00,0.0091
2420.00,0.0091
2419.00,0.0091
2418.00,0.0091
2417.00,0.0090
2416.00,0.0090
2415.00,0.0090
2414.00,0.0090
2413.00,0.0090
2412.00,0.0089
2411.00,0.0089
2410.00,0.0088
2409.00,0.0088
2408.00,0.0087
2407.00,0.0087
2406.00,0.0087
2405.00,0.0087
2404.00,0.0087
2403.00,0.0087
2402.00,0.0086
2401.00,0.0086
2400.00,0.0086
2399.00,0.0086
2398.00,0.0086
2397.00,0.0086
2396.00,0.0086
2395.00,0.0086
2394.00,0.0086
2393.00,0.0085
2392.00,0.0085
2391.00,0.0084
2390.00,0.0084
2389.00,0.0084
2388.00,0.0084
2387.00,0.0083
2386.00,0.0083
2385.00,0.0083
2384.00,0.0083
2383.00,0.0083
2382.00,0.0083
2381.00,0.0083
2380.00,0.0082
2379.00,0.0082
2378.00,0.0082
2377.00,0.0082
2376.00,0.0083
2375.00,0.0082
2374.00,0.0082
2373.00,0.0082
2372.00,0.0081
2371.00,0.0081
2370.00,0.0080
2369.00,0.0080
2368.00,0.0080
2367.00,0.0080
2366.00,0.0081
2365.00,0.0081
2364.00,0.0082
2363.00,0.0082
2362.00,0.0082
2361.00,0.0082
2360.00,0.0082
2359.00,0.0082
2358.00,0.0082
2357.00,0.0083
2356.00,0.0083
2355.00,0.0083
2354.00,0.0083
2353.00,0.0083
2352.00,0.0082
2351.00,0.0082
2350.00,0.0083
2349.00,0.0083
2348.00,0.0084
2347.00,0.0084
2346.00,0.0084
2345.00,0.0084
2344.00,0.0084
2343.00,0.0083
2342.00,0.0083
2341.00,0.0084
2340.00,0.0085
2339.00,0.0086
2338.00,0.0086
2337.00,0.0085
2336.00,0.0085
2335.00,0.0085
2334.00,0.0085
2333.00,0.0085
2332.00,0.0085
2331.00,0.0085
2330.00,0.0085
2329.00,0.0087
2328.00,0.0091
2327.00,0.0095
2326.00,0.0098
2325.00,0.0099
2324.00,0.0097
2323.00,0.0095
2322.00,0.0092
2321.00,0.0090
2320.00,0.0089
2319.00,0.0088
2318.00,0.0086
2317.00,0.0086
2316.00,0.0085
2315.00,0.0084
2314.00,0.0084
2313.00,0.0083
2312.00,0.0082
2311.00,0.0081
2310.00,0.0080
2309.00,0.0080
2308.00,0.0080
2307.00,0.0080
2306.00,0.0080
2305.00,0.0080
2304.00,0.0080
2303.00,0.0080
2302.00,0.0080
2301.00,0.0081
2300.00,0.0081
2299.00,0.0081
2298.00,0.0082
2297.00,0.0082
2296.00,0.0082
2295.00,0.0083
2294.00,0.0084
2293.00,0.0085
2292.00,0.0086
2291.00,0.0088
2290.00,0.0088
2289.00,0.0089
2288.00,0.0090
2287.00,0.0090
2286.00,0.0088
2285.00,0.0087
2284.00,0.0085
2283.00,0.0084
2282.00,0.0083
2281.00,0.0083
2280.00,0.0083
2279.00,0.0082
2278.00,0.0082
2277.00,0.0081
2276.00,0.0080
2275.00,0.0080
2274.00,0.0079
2273.00,0.0079
2272.00,0.0079
2271.00,0.0079
2270.00,0.0079
2269.00,0.0078
2268.00,0.0077
2267.00,0.0075
2266.00,0.0074
2265.00,0.0073
2264.00,0.0074
2263.00,0.0074
2262.00,0.0074
2261.00,0.0075
2260.00,0.0076
2259.00,0.0076
2258.00,0.0075
2257.00,0.0073
2256.00,0.0072
2255.00,0.0070
2254.00,0.0070
2253.00,0.0070
2252.00,0.0071
2251.00,0.0071
2250.00,0.0071
2249.00,0.0071
2248.00,0.0071
2247.00,0.0070
2246.00,0.0070
2245.00,0.0071
2244.00,0.0071
2243.00,0.0071
2242.00,0.0070
2241.00,0.0069
2240.00,0.0068
2239.00,0.0068
2238.00,0.0068
2237.00,0.0067
2236.00,0.0067
2235.00,0.0066
2234.00,0.0066
2233.00,0.0065
2232.00,0.0066
2231.00,0.0065
2230.00,0.0065
2229.00,0.0065
2228.00,0.0065
2227.00,0.0065
2226.00,0.0065
2225.00,0.0065
2224.00,0.0065
2223.00,0.0065
2222.00,0.0064
2221.00,0.0063
2220.00,0.0063
2219.00,0.0063
2218.00,0.0062
2217.00,0.0061
2216.00,0.0061
2215.00,0.0060
2214.00,0.0060
2213.00,0.0060
2212.00,0.0060
2211.00,0.0060
2210.00,0.0060
2209.00,0.0060
2208.00,0.0061
2207.00,0.0061
2206.00,0.0062
2205.00,0.0062
2204.00,0.0063
2203.00,0.0062
2202.00,0.0060
2201.00,0.0060
2200.00,0.0060
2199.00,0.0060
2198.00,0.0061
2197.00,0.0062
2196.00,0.0063
2195.00,0.0064
2194.00,0.0064
2193.00,0.0064
2192.00,0.0064
2191.00,0.0064
2190.00,0.0063
2189.00,0.0064
2188.00,0.0064
2187.00,0.0063
2186.00,0.0061
2185.00,0.0058
2184.00,0.0055
2183.00,0.0053
2182.00,0.0053
2181.00,0.0056
2180.00,0.0059
2179.00,0.0061
2178.00,0.0060
2177.00,0.0058
2176.00,0.0056
2175.00,0.0055
2174.00,0.0056
2173.00,0.0058
2172.00,0.0062
2171.00,0.0066
2170.00,0.0068
2169.00,0.0069
2168.00,0.0070
2167.00,0.0069
2166.00,0.0069
2165.00,0.0071
2164.00,0.0074
2163.00,0.0073
2162.00,0.0067
2161.00,0.0054
2160.00,0.0039
2159.00,0.0027
2158.00,0.0022
2157.00,0.0023
2156.00,0.0027
2155.00,0.0031
2154.00,0.0034
2153.00,0.0038
2152.00,0.0042
2151.00,0.0044
2150.00,0.0044
2149.00,0.0044
2148.00,0.0044
2147.00,0.0044
2146.00,0.0044
2145.00,0.0045
2144.00,0.0046
2143.00,0.0046
2142.00,0.0046
2141.00,0.0046
2140.00,0.0046
2139.00,0.0045
2138.00,0.0043
2137.00,0.0041
2136.00,0.0039
2135.00,0.0038
2134.00,0.0037
2133.00,0.0039
2132.00,0.0041
2131.00,0.0044
2130.00,0.0046
2129.00,0.0049
2128.00,0.0050
2127.00,0.0051
2126.00,0.0052
2125.00,0.0053
2124.00,0.0055
2123.00,0.0056
2122.00,0.0056
2121.00,0.0057
2120.00,0.0058
2119.00,0.0060
2118.00,0.0060
2117.00,0.0062
2116.00,0.0063
2115.00,0.0063
2114.00,0.0063
2113.00,0.0062
2112.00,0.0062
2111.00,0.0062
2110.00,0.0062
2109.00,0.0062
2108.00,0.0062
2107.00,0.0062
2106.00,0.0062
2105.00,0.0062
2104.00,0.0062
2103.00,0.0063
2102.00,0.0062
2101.00,0.0062
2100.00,0.0062
2099.00,0.0061
2098.00,0.0060
2097.00,0.0058
2096.00,0.0056
2095.00,0.0056
2094.00,0.0056
2093.00,0.0058
2092.00,0.0061
2091.00,0.0063
2090.00,0.0064
2089.00,0.0065
2088.00,0.0064
2087.00,0.0064
2086.00,0.0063
2085.00,0.0063
2084.00,0.0064
2083.00,0.0064
2082.00,0.0064
2081.00,0.0064
2080.00,0.0064
2079.00,0.0064
2078.00,0.0063
2077.00,0.0064
2076.00,0.0065
2075.00,0.0065
2074.00,0.0065
2073.00,0.0065
2072.00,0.0065
2071.00,0.0065
2070.00,0.0065
2069.00,0.0065
2068.00,0.0066
2067.00,0.0066
2066.00,0.0065
2065.00,0.0064
2064.00,0.0064
2063.00,0.0063
2062.00,0.0062
2061.00,0.0062
2060.00,0.0061
2059.00,0.0061
2058.00,0.0060
2057.00,0.0059
2056.00,0.0058
2055.00,0.0059
2054.00,0.0061
2053.00,0.0065
2052.00,0.0069
2051.00,0.0068
2050.00,0.0063
2049.00,0.0057
2048.00,0.0053
2047.00,0.0050
2046.00,0.0048
2045.00,0.0047
2044.00,0.0048
2043.00,0.0048
2042.00,0.0048
2041.00,0.0048
2040.00,0.0047
2039.00,0.0044
2038.00,0.0042
2037.00,0.0041
2036.00,0.0041
2035.00,0.0039
2034.00,0.0036
2033.00,0.0034
2032.00,0.0034
2031.00,0.0035
2030.00,0.0035
2029.00,0.0036
2028.00,0.0037
2027.00,0.0037
2026.00,0.0036
2025.00,0.0037
2024.00,0.0040
2023.00,0.0041
2022.00,0.0041
2021.00,0.0042
2020.00,0.0044
2019.00,0.0046
2018.00,0.0048
2017.00,0.0049
2016.00,0.0050
2015.00,0.0051
2014.00,0.0050
2013.00,0.0050
2012.00,0.0050
2011.00,0.0049
2010.00,0.0048
2009.00,0.0047
2008.00,0.0047
2007.00,0.0047
2006.00,0.0047
2005.00,0.0050
2004.00,0.0055
2003.00,0.0058
2002.00,0.0061
2001.00,0.0064
2000.00,0.0066
1999.00,0.0067
1998.00,0.0066
1997.00,0.0066
1996.00,0.0067
1995.00,0.0069
1994.00,0.0070
1993.00,0.0070
1992.00,0.0069
1991.00,0.0067
1990.00,0.0065
1989.00,0.0065
1988.00,0.0066
1987.00,0.0066
1986.00,0.0065
1985.00,0.0065
1984.00,0.0068
1983.00,0.0072
1982.00,0.0075
1981.00,0.0076
1980.00,0.0073
1979.00,0.0066
1978.00,0.0056
1977.00,0.0049
1976.00,0.0047
1975.00,0.0047
1974.00,0.0047
1973.00,0.0049
1972.00,0.0052
1971.00,0.0055
1970.00,0.0057
1969.00,0.0059
1968.00,0.0062
1967.00,0.0063
1966.00,0.0061
1965.00,0.0060
1964.00,0.0059
1963.00,0.0058
1962.00,0.0055
1961.00,0.0053
1960.00,0.0051
1959.00,0.0050
1958.00,0.0050
1957.00,0.0051
1956.00,0.0053
1955.00,0.0054
1954.00,0.0054
1953.00,0.0054
1952.00,0.0054
1951.00,0.0054
1950.00,0.0054
1949.00,0.0054
1948.00,0.0055
1947.00,0.0056
1946.00,0.0057
1945.00,0.0059
1944.00,0.0060
1943.00,0.0060
1942.00,0.0059
1941.00,0.0057
1940.00,0.0057
1939.00,0.0058
1938.00,0.0058
1937.00,0.0058
1936.00,0.0059
1935.00,0.0060
1934.00,0.0059
1933.00,0.0060
1932.00,0.0060
1931.00,0.0061
1930.00,0.0061
1929.00,0.0061
1928.00,0.0062
1927.00,0.0063
1926.00,0.0064
1925.00,0.0067
1924.00,0.0070
1923.00,0.0071
1922.00,0.0071
1921.00,0.0070
1920.00,0.0070
1919.00,0.0068
1918.00,0.0065
1917.00,0.0064
1916.00,0.0064
1915.00,0.0064
1914.00,0.0064
1913.00,0.0064
1912.00,0.0065
1911.00,0.0066
1910.00,0.0066
1909.00,0.0066
1908.00,0.0066
1907.00,0.0065
1906.00,0.0064
1905.00,0.0064
1904.00,0.0065
1903.00,0.0064
1902.00,0.0063
1901.00,0.0063
1900.00,0.0063
1899.00,0.0063
1898.00,0.0064
1897.00,0.0065
1896.00,0.0066
1895.00,0.0066
1894.00,0.0065
1893.00,0.0065
1892.00,0.0066
1891.00,0.0065
1890.00,0.0064
1889.00,0.0063
1888.00,0.0062
1887.00,0.0062
1886.00,0.0062
1885.00,0.0061
1884.00,0.0061
1883.00,0.0061
1882.00,0.0060
1881.00,0.0060
1880.00,0.0060
1879.00,0.0060
1878.00,0.0059
1877.00,0.0058
1876.00,0.0058
1875.00,0.0057
1874.00,0.0058
1873.00,0.0060
1872.00,0.0062
1871.00,0.0064
1870.00,0.0063
1869.00,0.0061
1868.00,0.0060
1867.00,0.0059
1866.00,0.0059
1865.00,0.0060
1864.00,0.0061
1863.00,0.0062
1862.00,0.0063
1861.00,0.0064
1860.00,0.0064
1859.00,0.0064
1858.00,0.0063
1857.00,0.0063
1856.00,0.0063
1855.00,0.0063
1854.00,0.0063
1853.00,0.0064
1852.00,0.0064
1851.00,0.0065
1850.00,0.0065
1849.00,0.0064
1848.00,0.0064
1847.00,0.0064
1846.00,0.0062
1845.00,0.0061
1844.00,0.0061
1843.00,0.0061
1842.00,0.0060
1841.00,0.0061
1840.00,0.0061
1839.00,0.0061
1838.00,0.0060
1837.00,0.0059
1836.00,0.0060
1835.00,0.0060
1834.00,0.0060
1833.00,0.0060
1832.00,0.0060
1831.00,0.0060
1830.00,0.0059
1829.00,0.0059
1828.00,0.0060
1827.00,0.0060
1826.00,0.0060
1825.00,0.0061
1824.00,0.0067
1823.00,0.0066
1822.00,0.0065
1821.00,0.0063
1820.00,0.0063
1819.00,0.0064
1818.00,0.0064
1817.00,0.0064
1816.00,0.0064
1815.00,0.0065
1814.00,0.0067
1813.00,0.0069
1812.00,0.0064
1811.00,0.0065
1810.00,0.0066
1809.00,0.0066
1808.00,0.0068
1807.00,0.0068
1806.00,0.0068
1805.00,0.0069
1804.00,0.0070
1803.00,0.0071
1802.00,0.0072
1801.00,0.0072
1800.00,0.0074
1799.00,0.0076
1798.00,0.0077
1797.00,0.0078
1796.00,0.0079
1795.00,0.0080
1794.00,0.0080
1793.00,0.0080
1792.00,0.0081
1791.00,0.0082
1790.00,0.0083
1789.00,0.0085
1788.00,0.0086
1787.00,0.0088
1786.00,0.0088
1785.00,0.0090
1784.00,0.0091
1783.00,0.0092
1782.00,0.0093
1781.00,0.0095
1780.00,0.0096
1779.00,0.0098
1778.00,0.0100
1777.00,0.0101
1776.00,0.0103
1775.00,0.0105
1774.00,0.0106
1773.00,0.0108
1772.00,0.0110
1771.00,0.0113
1770.00,0.0116
1769.00,0.0120
1768.00,0.0125
1767.00,0.0129
1766.00,0.0133
1765.00,0.0143
1764.00,0.0147
1763.00,0.0151
1762.00,0.0155
1761.00,0.0163
1760.00,0.0173
1759.00,0.0182
1758.00,0.0190
1757.00,0.0197
1756.00,0.0206
1755.00,0.0219
1754.00,0.0235
1753.00,0.0254
1752.00,0.0275
1751.00,0.0298
1750.00,0.0320
1749.00,0.0342
1748.00,0.0367
1747.00,0.0397
1746.00,0.0433
1745.00,0.0476
1744.00,0.0524
1743.00,0.0575
1742.00,0.0627
1741.00,0.0684
1740.00,0.0754
1739.00,0.0831
1738.00,0.0905
1737.00,0.0969
1736.00,0.1030
1735.00,0.1100
1734.00,0.1180
1733.00,0.1253
1732.00,0.1302
1731.00,0.1327
1730.00,0.1341
1729.00,0.1349
1728.00,0.1350
1727.00,0.1344
1726.00,0.1329
1725.00,0.1306
1724.00,0.1275
1723.00,0.1235
1722.00,0.1189
1721.00,0.1140
1720.00,0.1091
1719.00,0.1040
1718.00,0.0993
1717.00,0.0956
1716.00,0.0933
1715.00,0.0920
1714.00,0.0917
1713.00,0.0927
1712.00,0.0950
1711.00,0.0983
1710.00,0.1023
1709.00,0.1069
1708.00,0.1117
1707.00,0.1165
1706.00,0.1209
1705.00,0.1246
1704.00,0.1269
1703.00,0.1272
1702.00,0.1253
1701.00,0.1220
1700.00,0.1196
1699.00,0.1192
1698.00,0.1193
1697.00,0.1195
1696.00,0.1207
1695.00,0.1239
1694.00,0.1292
1693.00,0.1362
1692.00,0.1450
1691.00,0.1555
1690.00,0.1666
1689.00,0.1763
1688.00,0.1833
1687.00,0.1873
1686.00,0.1894
1685.00,0.1916
1684.00,0.1961
1683.00,0.2025
1682.00,0.2091
1681.00,0.2156
1680.00,0.2221
1679.00,0.2274
1678.00,0.2304
1677.00,0.2305
1676.00,0.2278
1675.00,0.2227
1674.00,0.2159
1673.00,0.2078
1672.00,0.1981
1671.00,0.1865
1670.00,0.1737
1669.00,0.1614
1668.00,0.1511
1667.00,0.1428
1666.00,0.1357
1665.00,0.1291
1664.00,0.1226
1663.00,0.1168
1662.00,0.1124
1661.00,0.1094
1660.00,0.1070
1659.00,0.1051
1658.00,0.1038
1657.00,0.1032
1656.00,0.1031
1655.00,0.1031
1654.00,0.1042
1653.00,0.1081
1652.00,0.1139
1651.00,0.1185
1650.00,0.1211
1649.00,0.1226
1648.00,0.1235
1647.00,0.1233
1646.00,0.1218
1645.00,0.1191
1644.00,0.1154
1643.00,0.1108
1642.00,0.1058
1641.00,0.1007
1640.00,0.0960
1639.00,0.0919
1638.00,0.0881
1637.00,0.0845
1636.00,0.0815
1635.00,0.0805
1634.00,0.0816
1633.00,0.0838
1632.00,0.0862
1631.00,0.0885
1630.00,0.0907
1629.00,0.0927
1628.00,0.0945
1627.00,0.0960
1626.00,0.0969
1625.00,0.0970
1624.00,0.0967
1623.00,0.0966
1622.00,0.0968
1621.00,0.0970
1620.00,0.0968
1619.00,0.0960
1618.00,0.0945
1617.00,0.0926
1616.00,0.0911
1615.00,0.0900
1614.00,0.0891
1613.00,0.0882
1612.00,0.0873
1611.00,0.0868
1610.00,0.0867
1609.00,0.0870
1608.00,0.0877
1607.00,0.0888
1606.00,0.0900
1605.00,0.0908
1604.00,0.0904
1603.00,0.0884
1602.00,0.0846
1601.00,0.0796
1600.00,0.0742
1599.00,0.0692
1598.00,0.0649
1597.00,0.0614
1596.00,0.0585
1595.00,0.0563
1594.00,0.0544
1593.00,0.0527
1592.00,0.0510
1591.00,0.0490
1590.00,0.0471
1589.00,0.0451
1588.00,0.0432
1587.00,0.0415
1586.00,0.0402
1585.00,0.0393
1584.00,0.0388
1583.00,0.0388
1582.00,0.0395
1581.00,0.0410
1580.00,0.0433
1579.00,0.0460
1578.00,0.0489
1577.00,0.0517
1576.00,0.0542
1575.00,0.0559
1574.00,0.0567
1573.00,0.0567
1572.00,0.0561
1571.00,0.0557
1570.00,0.0563
1569.00,0.0584
1568.00,0.0614
1567.00,0.0648
1566.00,0.0684
1565.00,0.0723
1564.00,0.0766
1563.00,0.0806
1562.00,0.0837
1561.00,0.0852
1560.00,0.0855
1559.00,0.0856
1558.00,0.0858
1557.00,0.0859
1556.00,0.0850
1555.00,0.0828
1554.00,0.0798
1553.00,0.0769
1552.00,0.0742
1551.00,0.0715
1550.00,0.0687
1549.00,0.0660
1548.00,0.0639
1547.00,0.0625
1546.00,0.0619
1545.00,0.0618
1544.00,0.0618
1543.00,0.0616
1542.00,0.0619
1541.00,0.0637
1540.00,0.0680
1539.00,0.0750
1538.00,0.0832
1537.00,0.0914
1536.00,0.1005
1535.00,0.1124
1534.00,0.1292
1533.00,0.1495
1532.00,0.1691
1531.00,0.1855
1530.00,0.1984
1529.00,0.2077
1528.00,0.2125
1527.00,0.2118
1526.00,0.2055
1525.00,0.1952
1524.00,0.1831
1523.00,0.1699
1522.00,0.1557
1521.00,0.1417
1520.00,0.1303
1519.00,0.1219
1518.00,0.1154
1517.00,0.1101
1516.00,0.1063
1515.00,0.1039
1514.00,0.1027
1513.00,0.1026
1512.00,0.1040
1511.00,0.1068
1510.00,0.1108
1509.00,0.1157
1508.00,0.1222
1507.00,0.1312
1506.00,0.1423
1505.00,0.1539
1504.00,0.1645
1503.00,0.1742
1502.00,0.1841
1501.00,0.1944
1500.00,0.2049
1499.00,0.2154
1498.00,0.2260
1497.00,0.2361
1496.00,0.2445
1495.00,0.2500
1494.00,0.2525
1493.00,0.2522
1492.00,0.2496
1491.00,0.2449
1490.00,0.2385
1489.00,0.2303
1488.00,0.2210
1487.00,0.2119
1486.00,0.2035
1485.00,0.1961
1484.00,0.1892
1483.00,0.1829
1482.00,0.1768
1481.00,0.1708
1480.00,0.1650
1479.00,0.1592
1478.00,0.1536
1477.00,0.1480
1476.00,0.1427
1475.00,0.1376
1474.00,0.1328
1473.00,0.1280
1472.00,0.1236
1471.00,0.1200
1470.00,0.1174
1469.00,0.1153
1468.00,0.1136
1467.00,0.1122
1466.00,0.1111
1465.00,0.1105
1464.00,0.1104
1463.00,0.1106
1462.00,0.1107
1461.00,0.1106
1460.00,0.1107
1459.00,0.1108
1458.00,0.1109
1457.00,0.1110
1456.00,0.1109
1455.00,0.1106
1454.00,0.1101
1453.00,0.1100
1452.00,0.1103
1451.00,0.1112
1450.00,0.1128
1449.00,0.1152
1448.00,0.1186
1447.00,0.1227
1446.00,0.1272
1445.00,0.1317
1444.00,0.1359
1443.00,0.1396
1442.00,0.1431
1441.00,0.1472
1440.00,0.1522
1439.00,0.1587
1438.00,0.1679
1437.00,0.1808
1436.00,0.1956
1435.00,0.2091
1434.00,0.2202
1433.00,0.2296
1432.00,0.2364
1431.00,0.2386
1430.00,0.2349
1429.00,0.2262
1428.00,0.2144
1427.00,0.2019
1426.00,0.1902
1425.00,0.1804
1424.00,0.1726
1423.00,0.1669
1422.00,0.1627
1421.00,0.1590
1420.00,0.1544
1419.00,0.1479
1418.00,0.1398
1417.00,0.1308
1416.00,0.1216
1415.00,0.1129
1414.00,0.1053
1413.00,0.0989
1412.00,0.0937
1411.00,0.0893
1410.00,0.0858
1409.00,0.0829
1408.00,0.0807
1407.00,0.0790
1406.00,0.0777
1405.00,0.0763
1404.00,0.0749
1403.00,0.0735
1402.00,0.0722
1401.00,0.0710
1400.00,0.0698
1399.00,0.0689
1398.00,0.0682
1397.00,0.0676
1396.00,0.0670
1395.00,0.0666
1394.00,0.0666
1393.00,0.0672
1392.00,0.0684
1391.00,0.0703
1390.00,0.0728
1389.00,0.0755
1388.00,0.0781
1387.00,0.0802
1386.00,0.0818
1385.00,0.0831
1384.00,0.0849
1383.00,0.0875
1382.00,0.0906
1381.00,0.0937
1380.00,0.0960
1379.00,0.0972
1378.00,0.0968
1377.00,0.0953
1376.00,0.0930
1375.00,0.0901
1374.00,0.0868
1373.00,0.0831
1372.00,0.0793
1371.00,0.0759
1370.00,0.0728
1369.00,0.0703
1368.00,0.0683
1367.00,0.0671
1366.00,0.0670
1365.00,0.0681
1364.00,0.0702
1363.00,0.0730
1362.00,0.0761
1361.00,0.0792
1360.00,0.0828
1359.00,0.0871
1358.00,0.0924
1357.00,0.0991
1356.00,0.1073
1355.00,0.1175
1354.00,0.1296
1353.00,0.1431
1352.00,0.1571
1351.00,0.1698
1350.00,0.1789
1349.00,0.1827
1348.00,0.1809
1347.00,0.1748
1346.00,0.1667
1345.00,0.1589
1344.00,0.1530
1343.00,0.1494
1342.00,0.1479
1341.00,0.1471
1340.00,0.1458
1339.00,0.1428
1338.00,0.1380
1337.00,0.1320
1336.00,0.1255
1335.00,0.1194
1334.00,0.1139
1333.00,0.1094
1332.00,0.1062
1331.00,0.1042
1330.00,0.1034
1329.00,0.1037
1328.00,0.1050
1327.00,0.1070
1326.00,0.1099
1325.00,0.1135
1324.00,0.1181
1323.00,0.1236
1322.00,0.1298
1321.00,0.1362
1320.00,0.1426
1319.00,0.1486
1318.00,0.1542
1317.00,0.1598
1316.00,0.1657
1315.00,0.1719
1314.00,0.1781
1313.00,0.1840
1312.00,0.1892
1311.00,0.1937
1310.00,0.1970
1309.00,0.1990
1308.00,0.1991
1307.00,0.1972
1306.00,0.1935
1305.00,0.1889
1304.00,0.1838
1303.00,0.1789
1302.00,0.1743
1301.00,0.1702
1300.00,0.1667
1299.00,0.1638
1298.00,0.1614
1297.00,0.1597
1296.00,0.1587
1295.00,0.1584
1294.00,0.1588
1293.00,0.1599
1292.00,0.1614
1291.00,0.1627
1290.00,0.1637
1289.00,0.1641
1288.00,0.1639
1287.00,0.1632
1286.00,0.1623
1285.00,0.1612
1284.00,0.1602
1283.00,0.1591
1282.00,0.1579
1281.00,0.1566
1280.00,0.1553
1279.00,0.1541
1278.00,0.1529
1277.00,0.1521
1276.00,0.1516
1275.00,0.1515
1274.00,0.1519
1273.00,0.1525
1272.00,0.1532
1271.00,0.1535
1270.00,0.1530
1269.00,0.1514
1268.00,0.1488
1267.00,0.1453
1266.00,0.1414
1265.00,0.1377
1264.00,0.1345
1263.00,0.1324
1262.00,0.1312
1261.00,0.1310
1260.00,0.1312
1259.00,0.1316
1258.00,0.1317
1257.00,0.1315
1256.00,0.1312
1255.00,0.1309
1254.00,0.1309
1253.00,0.1314
1252.00,0.1326
1251.00,0.1347
1250.00,0.1375
1249.00,0.1410
1248.00,0.1451
1247.00,0.1495
1246.00,0.1543
1245.00,0.1595
1244.00,0.1650
1243.00,0.1710
1242.00,0.1776
1241.00,0.1850
1240.00,0.1928
1239.00,0.2005
1238.00,0.2074
1237.00,0.2137
1236.00,0.2202
1235.00,0.2279
1234.00,0.2377
1233.00,0.2500
1232.00,0.2642
1231.00,0.2796
1230.00,0.2954
1229.00,0.3110
1228.00,0.3260
1227.00,0.3395
1226.00,0.3505
1225.00,0.3582
1224.00,0.3620
1223.00,0.3619
1222.00,0.3585
1221.00,0.3530
1220.00,0.3465
1219.00,0.3396
1218.00,0.3328
1217.00,0.3265
1216.00,0.3205
1215.00,0.3145
1214.00,0.3081
1213.00,0.3010
1212.00,0.2928
1211.00,0.2834
1210.00,0.2727
1209.00,0.2609
1208.00,0.2484
1207.00,0.2356
1206.00,0.2228
1205.00,0.2106
1204.00,0.1993
1203.00,0.1891
1202.00,0.1805
1201.00,0.1736
1200.00,0.1687
1199.00,0.1661
1198.00,0.1661
1197.00,0.1690
1196.00,0.1750
1195.00,0.1842
1194.00,0.1967
1193.00,0.2116
1192.00,0.2276
1191.00,0.2425
1190.00,0.2539
1189.00,0.2597
1188.00,0.2593
1187.00,0.2532
1186.00,0.2430
1185.00,0.2307
1184.00,0.2179
1183.00,0.2053
1182.00,0.1932
1181.00,0.1816
1180.00,0.1704
1179.00,0.1598
1178.00,0.1504
1177.00,0.1423
1176.00,0.1358
1175.00,0.1309
1174.00,0.1276
1173.00,0.1260
1172.00,0.1259
1171.00,0.1275
1170.00,0.1306
1169.00,0.1351
1168.00,0.1406
1167.00,0.1466
1166.00,0.1520
1165.00,0.1559
1164.00,0.1573
1163.00,0.1563
1162.00,0.1533
1161.00,0.1495
1160.00,0.1459
1159.00,0.1430
1158.00,0.1415
1157.00,0.1417
1156.00,0.1444
1155.00,0.1497
1154.00,0.1569
1153.00,0.1647
1152.00,0.1709
1151.00,0.1744
1150.00,0.1751
1149.00,0.1745
1148.00,0.1739
1147.00,0.1743
1146.00,0.1757
1145.00,0.1777
1144.00,0.1795
1143.00,0.1803
1142.00,0.1797
1141.00,0.1774
1140.00,0.1738
1139.00,0.1694
1138.00,0.1646
1137.00,0.1599
1136.00,0.1557
1135.00,0.1520
1134.00,0.1492
1133.00,0.1477
1132.00,0.1477
1131.00,0.1497
1130.00,0.1539
1129.00,0.1607
1128.00,0.1704
1127.00,0.1830
1126.00,0.1988
1125.00,0.2173
1124.00,0.2378
1123.00,0.2589
1122.00,0.2784
1121.00,0.2947
1120.00,0.3063
1119.00,0.3129
1118.00,0.3148
1117.00,0.3128
1116.00,0.3082
1115.00,0.3020
1114.00,0.2951
1113.00,0.2885
1112.00,0.2827
1111.00,0.2784
1110.00,0.2757
1109.00,0.2749
1108.00,0.2761
1107.00,0.2793
1106.00,0.2841
1105.00,0.2902
1104.00,0.2967
1103.00,0.3028
1102.00,0.3073
1101.00,0.3095
1100.00,0.3092
1099.00,0.3064
1098.00,0.3014
1097.00,0.2946
1096.00,0.2864
1095.00,0.2770
1094.00,0.2667
1093.00,0.2557
1092.00,0.2445
1091.00,0.2333
1090.00,0.2226
1089.00,0.2128
1088.00,0.2042
1087.00,0.1969
1086.00,0.1908
1085.00,0.1854
1084.00,0.1804
1083.00,0.1750
1082.00,0.1690
1081.00,0.1624
1080.00,0.1554
1079.00,0.1484
1078.00,0.1418
1077.00,0.1360
1076.00,0.1311
1075.00,0.1273
1074.00,0.1246
1073.00,0.1228
1072.00,0.1215
1071.00,0.1200
1070.00,0.1179
1069.00,0.1152
1068.00,0.1120
1067.00,0.1089
1066.00,0.1062
1065.00,0.1044
1064.00,0.1036
1063.00,0.1041
1062.00,0.1062
1061.00,0.1101
1060.00,0.1159
1059.00,0.1236
1058.00,0.1326
1057.00,0.1420
1056.00,0.1509
1055.00,0.1582
1054.00,0.1634
1053.00,0.1664
1052.00,0.1679
1051.00,0.1686
1050.00,0.1692
1049.00,0.1697
1048.00,0.1700
1047.00,0.1698
1046.00,0.1694
1045.00,0.1688
1044.00,0.1683
1043.00,0.1679
1042.00,0.1675
1041.00,0.1670
1040.00,0.1663
1039.00,0.1652
1038.00,0.1636
1037.00,0.1615
1036.00,0.1591
1035.00,0.1568
1034.00,0.1550
1033.00,0.1546
1032.00,0.1559
1031.00,0.1596
1030.00,0.1657
1029.00,0.1742
1028.00,0.1847
1027.00,0.1962
1026.00,0.2077
1025.00,0.2184
1024.00,0.2276
1023.00,0.2345
1022.00,0.2387
1021.00,0.2401
1020.00,0.2390
1019.00,0.2360
1018.00,0.2314
1017.00,0.2255
1016.00,0.2182
1015.00,0.2094
1014.00,0.1992
1013.00,0.1884
1012.00,0.1775
1011.00,0.1671
1010.00,0.1575
1009.00,0.1489
1008.00,0.1414
1007.00,0.1350
1006.00,0.1295
1005.00,0.1250
1004.00,0.1213
1003.00,0.1180
1002.00,0.1149
1001.00,0.1117
1000.00,0.1083
999.00,0.1049
998.00,0.1016
997.00,0.0986
996.00,0.0959
995.00,0.0934
994.00,0.0911
993.00,0.0891
992.00,0.0872
991.00,0.0855
990.00,0.0840
989.00,0.0827
988.00,0.0816
987.00,0.0806
986.00,0.0798
985.00,0.0792
984.00,0.0789
983.00,0.0788
982.00,0.0789
981.00,0.0791
980.00,0.0791
979.00,0.0790
978.00,0.0788
977.00,0.0785
976.00,0.0783
975.00,0.0783
974.00,0.0788
973.00,0.0796
972.00,0.0807
971.00,0.0820
970.00,0.0829
969.00,0.0834
968.00,0.0834
967.00,0.0832
966.00,0.0834
965.00,0.0844
964.00,0.0862
963.00,0.0880
962.00,0.0890
961.00,0.0888
960.00,0.0879
959.00,0.0871
958.00,0.0869
957.00,0.0876
956.00,0.0886
955.00,0.0893
954.00,0.0892
953.00,0.0881
952.00,0.0864
951.00,0.0843
950.00,0.0822
949.00,0.0801
948.00,0.0781
947.00,0.0761
946.00,0.0742
945.00,0.0725
944.00,0.0708
943.00,0.0693
942.00,0.0677
941.00,0.0659
940.00,0.0640
939.00,0.0621
938.00,0.0601
937.00,0.0583
936.00,0.0566
935.00,0.0553
934.00,0.0541
933.00,0.0530
932.00,0.0521
931.00,0.0513
930.00,0.0506
929.00,0.0500
928.00,0.0495
927.00,0.0493
926.00,0.0492
925.00,0.0493
924.00,0.0494
923.00,0.0494
922.00,0.0492
921.00,0.0487
920.00,0.0482
919.00,0.0476
918.00,0.0470
917.00,0.0466
916.00,0.0462
915.00,0.0457
914.00,0.0453
913.00,0.0448
912.00,0.0442
911.00,0.0437
910.00,0.0432
909.00,0.0427
908.00,0.0424
907.00,0.0420
906.00,0.0417
905.00,0.0414
904.00,0.0412
903.00,0.0409
902.00,0.0407
901.00,0.0405
900.00,0.0404
899.00,0.0402
898.00,0.0400
897.00,0.0399
896.00,0.0398
895.00,0.0398
894.00,0.0399
893.00,0.0401
892.00,0.0403
891.00,0.0405
890.00,0.0406
889.00,0.0408
888.00,0.0411
887.00,0.0414
886.00,0.0420
885.00,0.0425
884.00,0.0428
883.00,0.0426
882.00,0.0420
881.00,0.0412
880.00,0.0405
879.00,0.0398
878.00,0.0392
877.00,0.0386
876.00,0.0383
875.00,0.0381
874.00,0.0383
873.00,0.0388
872.00,0.0395
871.00,0.0402
870.00,0.0410
869.00,0.0419
868.00,0.0432
867.00,0.0451
866.00,0.0475
865.00,0.0505
864.00,0.0546
863.00,0.0607
862.00,0.0704
861.00,0.0844
860.00,0.1007
859.00,0.1136
858.00,0.1173
857.00,0.1110
856.00,0.0992
855.00,0.0875
854.00,0.0791
853.00,0.0746
852.00,0.0731
851.00,0.0733
850.00,0.0737
849.00,0.0730
848.00,0.0706
847.00,0.0670
846.00,0.0630
845.00,0.0593
844.00,0.0564
843.00,0.0545
842.00,0.0537
841.00,0.0538
840.00,0.0553
839.00,0.0592
838.00,0.0660
837.00,0.0759
836.00,0.0883
835.00,0.1020
834.00,0.1161
833.00,0.1296
832.00,0.1422
831.00,0.1527
830.00,0.1593
829.00,0.1607
828.00,0.1568
827.00,0.1488
826.00,0.1389
825.00,0.1288
824.00,0.1198
823.00,0.1124
822.00,0.1067
821.00,0.1022
820.00,0.0985
819.00,0.0954
818.00,0.0925
817.00,0.0896
816.00,0.0866
815.00,0.0836
814.00,0.0807
813.00,0.0783
812.00,0.0766
811.00,0.0759
810.00,0.0761
809.00,0.0770
808.00,0.0781
807.00,0.0786
806.00,0.0777
805.00,0.0750
804.00,0.0712
803.00,0.0674
802.00,0.0646
801.00,0.0636
800.00,0.0648
799.00,0.0694
798.00,0.0789
797.00,0.0949
796.00,0.1169
795.00,0.1409
794.00,0.1599
793.00,0.1676
792.00,0.1639
791.00,0.1541
790.00,0.1445
789.00,0.1378
788.00,0.1334
787.00,0.1297
786.00,0.1257
785.00,0.1223
784.00,0.1208
783.00,0.1216
782.00,0.1239
781.00,0.1261
780.00,0.1271
779.00,0.1269
778.00,0.1260
777.00,0.1251
776.00,0.1250
775.00,0.1262
774.00,0.1289
773.00,0.1325
772.00,0.1357
771.00,0.1379
770.00,0.1390
769.00,0.1403
768.00,0.1432
767.00,0.1496
766.00,0.1601
765.00,0.1732
764.00,0.1853
763.00,0.1922
762.00,0.1912
761.00,0.1829
760.00,0.1706
759.00,0.1578
758.00,0.1469
757.00,0.1387
756.00,0.1330
755.00,0.1290
754.00,0.1262
753.00,0.1241
752.00,0.1231
751.00,0.1242
750.00,0.1285
749.00,0.1369
748.00,0.1497
747.00,0.1651
746.00,0.1791
745.00,0.1870
744.00,0.1858
743.00,0.1761
742.00,0.1616
741.00,0.1459
740.00,0.1313
739.00,0.1185
738.00,0.1078
737.00,0.0987
736.00,0.0911
735.00,0.0849
734.00,0.0798
733.00,0.0756
732.00,0.0723
731.00,0.0695
730.00,0.0671
729.00,0.0649
728.00,0.0630
727.00,0.0613
726.00,0.0599
725.00,0.0588
724.00,0.0582
723.00,0.0582
722.00,0.0589
721.00,0.0605
720.00,0.0633
719.00,0.0679
718.00,0.0752
717.00,0.0863
716.00,0.1028
715.00,0.1249
714.00,0.1501
713.00,0.1729
712.00,0.1862
711.00,0.1865
710.00,0.1757
709.00,0.1596
708.00,0.1435
707.00,0.1303
706.00,0.1204
705.00,0.1134
704.00,0.1082
703.00,0.1045
702.00,0.1020
701.00,0.1006
700.00,0.1000
699.00,0.1000
698.00,0.1003
697.00,0.1010
696.00,0.1020
695.00,0.1036
694.00,0.1062
693.00,0.1102
692.00,0.1157
691.00,0.1231
690.00,0.1321
689.00,0.1420
688.00,0.1512
687.00,0.1581
686.00,0.1614
685.00,0.1609
684.00,0.1572
683.00,0.1519
682.00,0.1462
681.00,0.1410
680.00,0.1366
679.00,0.1335
678.00,0.1320
677.00,0.1324
676.00,0.1343
675.00,0.1370
674.00,0.1390
673.00,0.1393
672.00,0.1374
671.00,0.1342
670.00,0.1305
669.00,0.1271
668.00,0.1244
667.00,0.1227
666.00,0.1213
665.00,0.1203
664.00,0.1193
663.00,0.1181
662.00,0.1165
661.00,0.1144
660.00,0.1118
659.00,0.1088
658.00,0.1055
657.00,0.1019
656.00,0.0981
655.00,0.0944
654.00,0.0908
653.00,0.0874
652.00,0.0842
651.00,0.0812
650.00,0.0785
649.00,0.0759
648.00,0.0736
647.00,0.0715
646.00,0.0699
645.00,0.0685
644.00,0.0674
643.00,0.0662
642.00,0.0650
641.00,0.0635
640.00,0.0620
639.00,0.0607
638.00,0.0602
637.00,0.0606
636.00,0.0617
635.00,0.0633
634.00,0.0651
633.00,0.0668
632.00,0.0688
631.00,0.0717
630.00,0.0759
629.00,0.0817
628.00,0.0890
627.00,0.0973
626.00,0.1056
625.00,0.1126
624.00,0.1173
623.00,0.1193
622.00,0.1187
621.00,0.1160
620.00,0.1118
619.00,0.1071
618.00,0.1022
617.00,0.0977
616.00,0.0937
615.00,0.0908
614.00,0.0892
613.00,0.0889
612.00,0.0898
611.00,0.0913
610.00,0.0929
609.00,0.0938
608.00,0.0933
607.00,0.0914
606.00,0.0884
605.00,0.0848
604.00,0.0812
603.00,0.0779
602.00,0.0754
601.00,0.0734
600.00,0.0721
599.00,0.0714
598.00,0.0716
597.00,0.0726
596.00,0.0741
595.00,0.0760
594.00,0.0782
593.00,0.0808
592.00,0.0835
591.00,0.0857
590.00,0.0866
589.00,0.0863
588.00,0.0858
587.00,0.0861
586.00,0.0877
585.00,0.0896
584.00,0.0905
583.00,0.0897
582.00,0.0874
581.00,0.0842
580.00,0.0809
579.00,0.0782
578.00,0.0763
577.00,0.0749
576.00,0.0739
575.00,0.0730
574.00,0.0723
573.00,0.0720
572.00,0.0721
571.00,0.0726
570.00,0.0734
569.00,0.0744
568.00,0.0753
567.00,0.0762
566.00,0.0770
565.00,0.0775
564.00,0.0775
563.00,0.0768
562.00,0.0752
561.00,0.0729
560.00,0.0702
559.00,0.0677
558.00,0.0654
557.00,0.0634
556.00,0.0620
555.00,0.0610
554.00,0.0606
553.00,0.0606
552.00,0.0608
551.00,0.0610
550.00,0.0610
549.00,0.0604
548.00,0.0592
547.00,0.0578
546.00,0.0564
545.00,0.0550
544.00,0.0537
543.00,0.0527
542.00,0.0521
541.00,0.0518
540.00,0.0514
539.00,0.0511
538.00,0.0509
537.00,0.0505
536.00,0.0500
535.00,0.0495
534.00,0.0490
533.00,0.0487
532.00,0.0484
531.00,0.0481
530.00,0.0479
529.00,0.0476
528.00,0.0475
527.00,0.0475
526.00,0.0477
525.00,0.0476
524.00,0.0474
523.00,0.0474
522.00,0.0478
521.00,0.0487
520.00,0.0497
519.00,0.0508
518.00,0.0517
517.00,0.0523
516.00,0.0529
515.00,0.0537
514.00,0.0550
513.00,0.0563
512.00,0.0571
511.00,0.0570
510.00,0.0562
509.00,0.0549
508.00,0.0533
507.00,0.0519
506.00,0.0509
505.00,0.0501
504.00,0.0497
503.00,0.0495
502.00,0.0492
501.00,0.0487
500.00,0.0479
499.00,0.0475
498.00,0.0474
497.00,0.0475
496.00,0.0478
495.00,0.0482
494.00,0.0489
493.00,0.0496
492.00,0.0501
491.00,0.0505
490.00,0.0509
489.00,0.0516
488.00,0.0527
487.00,0.0542
486.00,0.0561
485.00,0.0580
484.00,0.0599
483.00,0.0617
482.00,0.0633
481.00,0.0641
480.00,0.0641
479.00,0.0638
478.00,0.0637
477.00,0.0639
476.00,0.0644
475.00,0.0656
474.00,0.0675
473.00,0.0703
472.00,0.0735
471.00,0.0770
470.00,0.0806
469.00,0.0840
468.00,0.0865
467.00,0.0877
466.00,0.0874
465.00,0.0860
464.00,0.0837
463.00,0.0810
462.00,0.0781
461.00,0.0751
460.00,0.0723
459.00,0.0698
458.00,0.0677
457.00,0.0657
456.00,0.0637
455.00,0.0623
454.00,0.0614
453.00,0.0607
452.00,0.0597
451.00,0.0584
450.00,0.0574
449.00,0.0568
448.00,0.0565
447.00,0.0562
446.00,0.0559
445.00,0.0556
444.00,0.0553
443.00,0.0549
442.00,0.0543
441.00,0.0536
440.00,0.0529
439.00,0.0529
438.00,0.0535
437.00,0.0541
436.00,0.0543
435.00,0.0538
434.00,0.0532
433.00,0.0526
432.00,0.0525
431.00,0.0527
430.00,0.0535
429.00,0.0546
428.00,0.0558
427.00,0.0570
426.00,0.0583
425.00,0.0596
424.00,0.0608
423.00,0.0621
422.00,0.0639
421.00,0.0665
420.00,0.0701
419.00,0.0745
418.00,0.0779
417.00,0.0795
416.00,0.0803
415.00,0.0814
414.00,0.0828
413.00,0.0840
412.00,0.0849
411.00,0.0858
410.00,0.0868
409.00,0.0874
408.00,0.0871
407.00,0.0854
406.00,0.0826
405.00,0.0792
404.00,0.0760
403.00,0.0740
402.00,0.0736
401.00,0.0741
400.00,0.0749
