Created as New Dataset,Sample 997 By YargerLab Date Wednesday, July 30 2025
cm-1,A
4000.00,0.0010
3999.00,0.0010
3998.00,0.0010
3997.00,0.0011
3996.00,0.0011
3995.00,0.0011
3994.00,0.0011
3993.00,0.0011
3992.00,0.0011
3991.00,0.0011
3990.00,0.0010
3989.00,0.0010
3988.00,0.0010
3987.00,0.0010
3986.00,0.0010
3985.00,0.0010
3984.00,0.0010
3983.00,0.0010
3982.00,0.0010
3981.00,0.0010
3980.00,0.0010
3979.00,0.0010
3978.00,0.0010
3977.00,0.0010
3976.00,0.0010
3975.00,0.0010
3974.00,0.0010
3973.00,0.0010
3972.00,0.0010
3971.00,0.0010
3970.00,0.0010
3969.00,0.0010
3968.00,0.0010
3967.00,0.0010
3966.00,0.0010
3965.00,0.0010
3964.00,0.0010
3963.00,0.0010
3962.00,0.0010
3961.00,0.0010
3960.00,0.0010
3959.00,0.0010
3958.00,0.0010
3957.00,0.0010
3956.00,0.0010
3955.00,0.0010
3954.00,0.0010
3953.00,0.0010
3952.00,0.0010
3951.00,0.0010
3950.00,0.0010
3949.00,0.0010
3948.00,0.0010
3947.00,0.0010
3946.00,0.0010
3945.00,0.0010
3944.00,0.0010
3943.00,0.0010
3942.00,0.0010
3941.00,0.0010
3940.00,0.0010
3939.00,0.0010
3938.00,0.0010
3937.00,0.0010
3936.00,0.0011
3935.00,0.0011
3934.00,0.0011
3933.00,0.0011
3932.00,0.0010
3931.00,0.0010
3930.00,0.0010
3929.00,0.0010
3928.00,0.0011
3927.00,0.0011
3926.00,0.0011
3925.00,0.0010
3924.00,0.0010
3923.00,0.0010
3922.00,0.0010
3921.00,0.0010
3920.00,0.0010
3919.00,0.0010
3918.00,0.0010
3917.00,0.0010
3916.00,0.0010
3915.00,0.0010
3914.00,0.0010
3913.00,0.0010
3912.00,0.0010
3911.00,0.0010
3910.00,0.0010
3909.00,0.0011
3908.00,0.0011
3907.00,0.0011
3906.00,0.0012
3905.00,0.0012
3904.00,0.0012
3903.00,0.0012
3902.00,0.0012
3901.00,0.0012
3900.00,0.0011
3899.00,0.0011
3898.00,0.0010
3897.00,0.0011
3896.00,0.0011
3895.00,0.0011
3894.00,0.0011
3893.00,0.0011
3892.00,0.0011
3891.00,0.0011
3890.00,0.0011
3889.00,0.0011
3888.00,0.0011
3887.00,0.0011
3886.00,0.0011
3885.00,0.0011
3884.00,0.0012
3883.00,0.0012
3882.00,0.0011
3881.00,0.0011
3880.00,0.0010
3879.00,0.0010
3878.00,0.0011
3877.00,0.0011
3876.00,0.0011
3875.00,0.0011
3874.00,0.0011
3873.00,0.0011
3872.00,0.0012
3871.00,0.0012
3870.00,0.0011
3869.00,0.0012
3868.00,0.0012
3867.00,0.0012
3866.00,0.0012
3865.00,0.0012
3864.00,0.0011
3863.00,0.0011
3862.00,0.0011
3861.00,0.0011
3860.00,0.0011
3859.00,0.0011
3858.00,0.0012
3857.00,0.0013
3856.00,0.0014
3855.00,0.0015
3854.00,0.0014
3853.00,0.0013
3852.00,0.0013
3851.00,0.0013
3850.00,0.0012
3849.00,0.0011
3848.00,0.0011
3847.00,0.0010
3846.00,0.0010
3845.00,0.0011
3844.00,0.0011
3843.00,0.0011
3842.00,0.0012
3841.00,0.0013
3840.00,0.0013
3839.00,0.0013
3838.00,0.0012
3837.00,0.0012
3836.00,0.0012
3835.00,0.0013
3834.00,0.0012
3833.00,0.0012
3832.00,0.0011
3831.00,0.0011
3830.00,0.0011
3829.00,0.0011
3828.00,0.0011
3827.00,0.0011
3826.00,0.0011
3825.00,0.0012
3824.00,0.0013
3823.00,0.0013
3822.00,0.0013
3821.00,0.0012
3820.00,0.0013
3819.00,0.0013
3818.00,0.0013
3817.00,0.0012
3816.00,0.0012
3815.00,0.0011
3814.00,0.0011
3813.00,0.0011
3812.00,0.0011
3811.00,0.0011
3810.00,0.0011
3809.00,0.0011
3808.00,0.0011
3807.00,0.0011
3806.00,0.0012
3805.00,0.0012
3804.00,0.0012
3803.00,0.0012
3802.00,0.0011
3801.00,0.0011
3800.00,0.0012
3799.00,0.0012
3798.00,0.0012
3797.00,0.0012
3796.00,0.0011
3795.00,0.0011
3794.00,0.0011
3793.00,0.0010
3792.00,0.0010
3791.00,0.0010
3790.00,0.0010
3789.00,0.0010
3788.00,0.0010
3787.00,0.0010
3786.00,0.0011
3785.00,0.0011
3784.00,0.0011
3783.00,0.0011
3782.00,0.0011
3781.00,0.0011
3780.00,0.0011
3779.00,0.0011
3778.00,0.0011
3777.00,0.0011
3776.00,0.0011
3775.00,0.0010
3774.00,0.0010
3773.00,0.0011
3772.00,0.0011
3771.00,0.0011
3770.00,0.0011
3769.00,0.0011
3768.00,0.0011
3767.00,0.0011
3766.00,0.0011
3765.00,0.0011
3764.00,0.0011
3763.00,0.0011
3762.00,0.0011
3761.00,0.0011
3760.00,0.0011
3759.00,0.0011
3758.00,0.0011
3757.00,0.0012
3756.00,0.0012
3755.00,0.0013
3754.00,0.0014
3753.00,0.0015
3752.00,0.0015
3751.00,0.0015
3750.00,0.0015
3749.00,0.0015
3748.00,0.0015
3747.00,0.0015
3746.00,0.0014
3745.00,0.0013
3744.00,0.0012
3743.00,0.0012
3742.00,0.0012
3741.00,0.0012
3740.00,0.0012
3739.00,0.0012
3738.00,0.0012
3737.00,0.0012
3736.00,0.0013
3735.00,0.0013
3734.00,0.0013
3733.00,0.0012
3732.00,0.0012
3731.00,0.0011
3730.00,0.0011
3729.00,0.0011
3728.00,0.0011
3727.00,0.0010
3726.00,0.0011
3725.00,0.0011
3724.00,0.0011
3723.00,0.0010
3722.00,0.0010
3721.00,0.0010
3720.00,0.0010
3719.00,0.0010
3718.00,0.0010
3717.00,0.0010
3716.00,0.0011
3715.00,0.0011
3714.00,0.0012
3713.00,0.0012
3712.00,0.0012
3711.00,0.0012
3710.00,0.0012
3709.00,0.0012
3708.00,0.0011
3707.00,0.0010
3706.00,0.0010
3705.00,0.0010
3704.00,0.0010
3703.00,0.0011
3702.00,0.0011
3701.00,0.0011
3700.00,0.0011
3699.00,0.0011
3698.00,0.0010
3697.00,0.0010
3696.00,0.0010
3695.00,0.0011
3694.00,0.0011
3693.00,0.0012
3692.00,0.0012
3691.00,0.0013
3690.00,0.0013
3689.00,0.0013
3688.00,0.0013
3687.00,0.0013
3686.00,0.0013
3685.00,0.0012
3684.00,0.0012
3683.00,0.0012
3682.00,0.0012
3681.00,0.0012
3680.00,0.0013
3679.00,0.0014
3678.00,0.0015
3677.00,0.0016
3676.00,0.0016
3675.00,0.0016
3674.00,0.0016
3673.00,0.0016
3672.00,0.0016
3671.00,0.0016
3670.00,0.0016
3669.00,0.0016
3668.00,0.0016
3667.00,0.0016
3666.00,0.0015
3665.00,0.0015
3664.00,0.0015
3663.00,0.0016
3662.00,0.0016
3661.00,0.0016
3660.00,0.0017
3659.00,0.0017
3658.00,0.0018
3657.00,0.0018
3656.00,0.0018
3655.00,0.0019
3654.00,0.0020
3653.00,0.0021
3652.00,0.0021
3651.00,0.0022
3650.00,0.0022
3649.00,0.0022
3648.00,0.0022
3647.00,0.0022
3646.00,0.0022
3645.00,0.0022
3644.00,0.0022
3643.00,0.0022
3642.00,0.0022
3641.00,0.0022
3640.00,0.0023
3639.00,0.0023
3638.00,0.0023
3637.00,0.0024
3636.00,0.0024
3635.00,0.0025
3634.00,0.0026
3633.00,0.0027
3632.00,0.0028
3631.00,0.0028
3630.00,0.0029
3629.00,0.0028
3628.00,0.0029
3627.00,0.0029
3626.00,0.0030
3625.00,0.0030
3624.00,0.0030
3623.00,0.0030
3622.00,0.0031
3621.00,0.0032
3620.00,0.0032
3619.00,0.0033
3618.00,0.0034
3617.00,0.0034
3616.00,0.0034
3615.00,0.0035
3614.00,0.0035
3613.00,0.0035
3612.00,0.0036
3611.00,0.0036
3610.00,0.0036
3609.00,0.0037
3608.00,0.0037
3607.00,0.0037
3606.00,0.0038
3605.00,0.0038
3604.00,0.0039
3603.00,0.0039
3602.00,0.0039
3601.00,0.0040
3600.00,0.0040
3599.00,0.0041
3598.00,0.0041
3597.00,0.0042
3596.00,0.0042
3595.00,0.0042
3594.00,0.0043
3593.00,0.0044
3592.00,0.0044
3591.00,0.0045
3590.00,0.0045
3589.00,0.0046
3588.00,0.0046
3587.00,0.0046
3586.00,0.0047
3585.00,0.0048
3584.00,0.0048
3583.00,0.0049
3582.00,0.0049
3581.00,0.0049
3580.00,0.0050
3579.00,0.0051
3578.00,0.0051
3577.00,0.0052
3576.00,0.0052
3575.00,0.0053
3574.00,0.0053
3573.00,0.0054
3572.00,0.0055
3571.00,0.0056
3570.00,0.0057
3569.00,0.0057
3568.00,0.0058
3567.00,0.0058
3566.00,0.0058
3565.00,0.0059
3564.00,0.0059
3563.00,0.0059
3562.00,0.0060
3561.00,0.0060
3560.00,0.0061
3559.00,0.0062
3558.00,0.0062
3557.00,0.0063
3556.00,0.0063
3555.00,0.0064
3554.00,0.0064
3553.00,0.0064
3552.00,0.0065
3551.00,0.0066
3550.00,0.0066
3549.00,0.0067
3548.00,0.0068
3547.00,0.0068
3546.00,0.0069
3545.00,0.0069
3544.00,0.0070
3543.00,0.0071
3542.00,0.0071
3541.00,0.0072
3540.00,0.0072
3539.00,0.0073
3538.00,0.0073
3537.00,0.0073
3536.00,0.0074
3535.00,0.0074
3534.00,0.0075
3533.00,0.0076
3532.00,0.0076
3531.00,0.0077
3530.00,0.0077
3529.00,0.0078
3528.00,0.0079
3527.00,0.0079
3526.00,0.0080
3525.00,0.0080
3524.00,0.0080
3523.00,0.0081
3522.00,0.0082
3521.00,0.0082
3520.00,0.0083
3519.00,0.0084
3518.00,0.0084
3517.00,0.0084
3516.00,0.0085
3515.00,0.0085
3514.00,0.0086
3513.00,0.0086
3512.00,0.0087
3511.00,0.0087
3510.00,0.0088
3509.00,0.0088
3508.00,0.0089
3507.00,0.0090
3506.00,0.0090
3505.00,0.0091
3504.00,0.0091
3503.00,0.0092
3502.00,0.0092
3501.00,0.0093
3500.00,0.0094
3499.00,0.0094
3498.00,0.0095
3497.00,0.0095
3496.00,0.0095
3495.00,0.0096
3494.00,0.0097
3493.00,0.0097
3492.00,0.0098
3491.00,0.0099
3490.00,0.0099
3489.00,0.0100
3488.00,0.0100
3487.00,0.0101
3486.00,0.0102
3485.00,0.0103
3484.00,0.0103
3483.00,0.0104
3482.00,0.0105
3481.00,0.0105
3480.00,0.0105
3479.00,0.0106
3478.00,0.0106
3477.00,0.0107
3476.00,0.0107
3475.00,0.0108
3474.00,0.0108
3473.00,0.0109
3472.00,0.0110
3471.00,0.0110
3470.00,0.0111
3469.00,0.0111
3468.00,0.0112
3467.00,0.0112
3466.00,0.0113
3465.00,0.0114
3464.00,0.0114
3463.00,0.0115
3462.00,0.0116
3461.00,0.0116
3460.00,0.0117
3459.00,0.0117
3458.00,0.0118
3457.00,0.0119
3456.00,0.0120
3455.00,0.0120
3454.00,0.0121
3453.00,0.0121
3452.00,0.0122
3451.00,0.0122
3450.00,0.0123
3449.00,0.0123
3448.00,0.0124
3447.00,0.0124
3446.00,0.0125
3445.00,0.0126
3444.00,0.0126
3443.00,0.0127
3442.00,0.0127
3441.00,0.0128
3440.00,0.0128
3439.00,0.0129
3438.00,0.0129
3437.00,0.0130
3436.00,0.0131
3435.00,0.0132
3434.00,0.0133
3433.00,0.0133
3432.00,0.0134
3431.00,0.0134
3430.00,0.0135
3429.00,0.0135
3428.00,0.0136
3427.00,0.0137
3426.00,0.0138
3425.00,0.0138
3424.00,0.0139
3423.00,0.0139
3422.00,0.0140
3421.00,0.0140
3420.00,0.0141
3419.00,0.0142
3418.00,0.0142
3417.00,0.0143
3416.00,0.0144
3415.00,0.0144
3414.00,0.0145
3413.00,0.0145
3412.00,0.0146
3411.00,0.0147
3410.00,0.0147
3409.00,0.0148
3408.00,0.0149
3407.00,0.0150
3406.00,0.0150
3405.00,0.0150
3404.00,0.0151
3403.00,0.0152
3402.00,0.0152
3401.00,0.0153
3400.00,0.0154
3399.00,0.0154
3398.00,0.0155
3397.00,0.0156
3396.00,0.0156
3395.00,0.0157
3394.00,0.0157
3393.00,0.0158
3392.00,0.0159
3391.00,0.0159
3390.00,0.0160
3389.00,0.0161
3388.00,0.0161
3387.00,0.0162
3386.00,0.0163
3385.00,0.0164
3384.00,0.0164
3383.00,0.0165
3382.00,0.0166
3381.00,0.0167
3380.00,0.0167
3379.00,0.0168
3378.00,0.0169
3377.00,0.0170
3376.00,0.0171
3375.00,0.0171
3374.00,0.0172
3373.00,0.0173
3372.00,0.0173
3371.00,0.0174
3370.00,0.0175
3369.00,0.0175
3368.00,0.0176
3367.00,0.0177
3366.00,0.0178
3365.00,0.0179
3364.00,0.0180
3363.00,0.0181
3362.00,0.0182
3361.00,0.0183
3360.00,0.0184
3359.00,0.0185
3358.00,0.0186
3357.00,0.0187
3356.00,0.0188
3355.00,0.0189
3354.00,0.0190
3353.00,0.0191
3352.00,0.0191
3351.00,0.0192
3350.00,0.0193
3349.00,0.0195
3348.00,0.0196
3347.00,0.0197
3346.00,0.0198
3345.00,0.0199
3344.00,0.0200
3343.00,0.0201
3342.00,0.0202
3341.00,0.0203
3340.00,0.0204
3339.00,0.0205
3338.00,0.0206
3337.00,0.0207
3336.00,0.0208
3335.00,0.0210
3334.00,0.0211
3333.00,0.0213
3332.00,0.0214
3331.00,0.0215
3330.00,0.0217
3329.00,0.0218
3328.00,0.0219
3327.00,0.0220
3326.00,0.0221
3325.00,0.0223
3324.00,0.0224
3323.00,0.0226
3322.00,0.0228
3321.00,0.0229
3320.00,0.0231
3319.00,0.0232
3318.00,0.0234
3317.00,0.0235
3316.00,0.0237
3315.00,0.0238
3314.00,0.0240
3313.00,0.0241
3312.00,0.0242
3311.00,0.0243
3310.00,0.0244
3309.00,0.0246
3308.00,0.0247
3307.00,0.0248
3306.00,0.0250
3305.00,0.0251
3304.00,0.0253
3303.00,0.0255
3302.00,0.0257
3301.00,0.0259
3300.00,0.0260
3299.00,0.0261
3298.00,0.0262
3297.00,0.0263
3296.00,0.0264
3295.00,0.0266
3294.00,0.0267
3293.00,0.0268
3292.00,0.0269
3291.00,0.0271
3290.00,0.0272
3289.00,0.0273
3288.00,0.0275
3287.00,0.0276
3286.00,0.0277
3285.00,0.0278
3284.00,0.0279
3283.00,0.0279
3282.00,0.0280
3281.00,0.0280
3280.00,0.0280
3279.00,0.0280
3278.00,0.0281
3277.00,0.0281
3276.00,0.0281
3275.00,0.0280
3274.00,0.0280
3273.00,0.0279
3272.00,0.0279
3271.00,0.0278
3270.00,0.0277
3269.00,0.0277
3268.00,0.0276
3267.00,0.0275
3266.00,0.0274
3265.00,0.0273
3264.00,0.0272
3263.00,0.0271
3262.00,0.0270
3261.00,0.0269
3260.00,0.0267
3259.00,0.0266
3258.00,0.0264
3257.00,0.0263
3256.00,0.0261
3255.00,0.0260
3254.00,0.0259
3253.00,0.0257
3252.00,0.0256
3251.00,0.0255
3250.00,0.0253
3249.00,0.0251
3248.00,0.0250
3247.00,0.0248
3246.00,0.0247
3245.00,0.0246
3244.00,0.0245
3243.00,0.0244
3242.00,0.0243
3241.00,0.0242
3240.00,0.0240
3239.00,0.0239
3238.00,0.0238
3237.00,0.0236
3236.00,0.0234
3235.00,0.0233
3234.00,0.0231
3233.00,0.0230
3232.00,0.0230
3231.00,0.0229
3230.00,0.0228
3229.00,0.0227
3228.00,0.0226
3227.00,0.0225
3226.00,0.0224
3225.00,0.0223
3224.00,0.0222
3223.00,0.0222
3222.00,0.0221
3221.00,0.0220
3220.00,0.0219
3219.00,0.0218
3218.00,0.0217
3217.00,0.0217
3216.00,0.0216
3215.00,0.0215
3214.00,0.0214
3213.00,0.0213
3212.00,0.0213
3211.00,0.0212
3210.00,0.0211
3209.00,0.0211
3208.00,0.0210
3207.00,0.0209
3206.00,0.0208
3205.00,0.0208
3204.00,0.0207
3203.00,0.0206
3202.00,0.0205
3201.00,0.0205
3200.00,0.0204
3199.00,0.0203
3198.00,0.0203
3197.00,0.0202
3196.00,0.0201
3195.00,0.0200
3194.00,0.0200
3193.00,0.0199
3192.00,0.0198
3191.00,0.0197
3190.00,0.0196
3189.00,0.0195
3188.00,0.0194
3187.00,0.0193
3186.00,0.0192
3185.00,0.0192
3184.00,0.0191
3183.00,0.0190
3182.00,0.0190
3181.00,0.0189
3180.00,0.0188
3179.00,0.0187
3178.00,0.0186
3177.00,0.0185
3176.00,0.0184
3175.00,0.0184
3174.00,0.0183
3173.00,0.0182
3172.00,0.0181
3171.00,0.0180
3170.00,0.0179
3169.00,0.0178
3168.00,0.0177
3167.00,0.0177
3166.00,0.0176
3165.00,0.0175
3164.00,0.0174
3163.00,0.0173
3162.00,0.0172
3161.00,0.0171
3160.00,0.0170
3159.00,0.0170
3158.00,0.0169
3157.00,0.0168
3156.00,0.0167
3155.00,0.0166
3154.00,0.0165
3153.00,0.0165
3152.00,0.0164
3151.00,0.0163
3150.00,0.0163
3149.00,0.0162
3148.00,0.0161
3147.00,0.0161
3146.00,0.0160
3145.00,0.0159
3144.00,0.0158
3143.00,0.0157
3142.00,0.0157
3141.00,0.0156
3140.00,0.0155
3139.00,0.0154
3138.00,0.0153
3137.00,0.0153
3136.00,0.0152
3135.00,0.0152
3134.00,0.0151
3133.00,0.0151
3132.00,0.0150
3131.00,0.0149
3130.00,0.0149
3129.00,0.0148
3128.00,0.0148
3127.00,0.0148
3126.00,0.0147
3125.00,0.0147
3124.00,0.0146
3123.00,0.0146
3122.00,0.0145
3121.00,0.0144
3120.00,0.0143
3119.00,0.0143
3118.00,0.0143
3117.00,0.0143
3116.00,0.0143
3115.00,0.0143
3114.00,0.0143
3113.00,0.0143
3112.00,0.0144
3111.00,0.0143
3110.00,0.0143
3109.00,0.0143
3108.00,0.0143
3107.00,0.0143
3106.00,0.0143
3105.00,0.0143
3104.00,0.0143
3103.00,0.0143
3102.00,0.0143
3101.00,0.0144
3100.00,0.0144
3099.00,0.0145
3098.00,0.0145
3097.00,0.0145
3096.00,0.0146
3095.00,0.0146
3094.00,0.0146
3093.00,0.0146
3092.00,0.0146
3091.00,0.0146
3090.00,0.0146
3089.00,0.0146
3088.00,0.0146
3087.00,0.0146
3086.00,0.0146
3085.00,0.0146
3084.00,0.0147
3083.00,0.0147
3082.00,0.0147
3081.00,0.0147
3080.00,0.0147
3079.00,0.0147
3078.00,0.0148
3077.00,0.0148
3076.00,0.0149
3075.00,0.0149
3074.00,0.0149
3073.00,0.0149
3072.00,0.0149
3071.00,0.0149
3070.00,0.0149
3069.00,0.0149
3068.00,0.0148
3067.00,0.0148
3066.00,0.0148
3065.00,0.0148
3064.00,0.0148
3063.00,0.0148
3062.00,0.0148
3061.00,0.0148
3060.00,0.0148
3059.00,0.0147
3058.00,0.0147
3057.00,0.0146
3056.00,0.0146
3055.00,0.0145
3054.00,0.0145
3053.00,0.0144
3052.00,0.0144
3051.00,0.0143
3050.00,0.0143
3049.00,0.0142
3048.00,0.0141
3047.00,0.0140
3046.00,0.0140
3045.00,0.0139
3044.00,0.0138
3043.00,0.0137
3042.00,0.0137
3041.00,0.0137
3040.00,0.0137
3039.00,0.0136
3038.00,0.0136
3037.00,0.0135
3036.00,0.0134
3035.00,0.0133
3034.00,0.0133
3033.00,0.0133
3032.00,0.0132
3031.00,0.0132
3030.00,0.0131
3029.00,0.0131
3028.00,0.0130
3027.00,0.0129
3026.00,0.0129
3025.00,0.0128
3024.00,0.0128
3023.00,0.0127
3022.00,0.0126
3021.00,0.0125
3020.00,0.0124
3019.00,0.0123
3018.00,0.0123
3017.00,0.0122
3016.00,0.0121
3015.00,0.0120
3014.00,0.0120
3013.00,0.0120
3012.00,0.0119
3011.00,0.0119
3010.00,0.0119
3009.00,0.0118
3008.00,0.0118
3007.00,0.0118
3006.00,0.0118
3005.00,0.0117
3004.00,0.0117
3003.00,0.0117
3002.00,0.0117
3001.00,0.0116
3000.00,0.0116
2999.00,0.0116
2998.00,0.0116
2997.00,0.0116
2996.00,0.0116
2995.00,0.0117
2994.00,0.0117
2993.00,0.0118
2992.00,0.0119
2991.00,0.0120
2990.00,0.0121
2989.00,0.0121
2988.00,0.0122
2987.00,0.0123
2986.00,0.0124
2985.00,0.0125
2984.00,0.0126
2983.00,0.0127
2982.00,0.0128
2981.00,0.0130
2980.00,0.0131
2979.00,0.0133
2978.00,0.0135
2977.00,0.0137
2976.00,0.0139
2975.00,0.0140
2974.00,0.0142
2973.00,0.0143
2972.00,0.0145
2971.00,0.0147
2970.00,0.0149
2969.00,0.0151
2968.00,0.0152
2967.00,0.0154
2966.00,0.0155
2965.00,0.0155
2964.00,0.0156
2963.00,0.0157
2962.00,0.0157
2961.00,0.0157
2960.00,0.0157
2959.00,0.0156
2958.00,0.0156
2957.00,0.0155
2956.00,0.0154
2955.00,0.0153
2954.00,0.0152
2953.00,0.0151
2952.00,0.0150
2951.00,0.0149
2950.00,0.0148
2949.00,0.0147
2948.00,0.0147
2947.00,0.0146
2946.00,0.0147
2945.00,0.0147
2944.00,0.0148
2943.00,0.0150
2942.00,0.0151
2941.00,0.0152
2940.00,0.0153
2939.00,0.0155
2938.00,0.0156
2937.00,0.0157
2936.00,0.0158
2935.00,0.0158
2934.00,0.0158
2933.00,0.0159
2932.00,0.0159
2931.00,0.0159
2930.00,0.0159
2929.00,0.0160
2928.00,0.0160
2927.00,0.0160
2926.00,0.0159
2925.00,0.0159
2924.00,0.0158
2923.00,0.0157
2922.00,0.0155
2921.00,0.0154
2920.00,0.0152
2919.00,0.0150
2918.00,0.0148
2917.00,0.0146
2916.00,0.0144
2915.00,0.0143
2914.00,0.0141
2913.00,0.0140
2912.00,0.0138
2911.00,0.0137
2910.00,0.0136
2909.00,0.0134
2908.00,0.0133
2907.00,0.0132
2906.00,0.0130
2905.00,0.0129
2904.00,0.0128
2903.00,0.0127
2902.00,0.0126
2901.00,0.0125
2900.00,0.0124
2899.00,0.0123
2898.00,0.0122
2897.00,0.0121
2896.00,0.0120
2895.00,0.0120
2894.00,0.0119
2893.00,0.0118
2892.00,0.0118
2891.00,0.0117
2890.00,0.0117
2889.00,0.0117
2888.00,0.0117
2887.00,0.0117
2886.00,0.0117
2885.00,0.0117
2884.00,0.0118
2883.00,0.0118
2882.00,0.0119
2881.00,0.0119
2880.00,0.0120
2879.00,0.0121
2878.00,0.0122
2877.00,0.0122
2876.00,0.0122
2875.00,0.0122
2874.00,0.0122
2873.00,0.0121
2872.00,0.0120
2871.00,0.0120
2870.00,0.0119
2869.00,0.0118
2868.00,0.0116
2867.00,0.0115
2866.00,0.0114
2865.00,0.0113
2864.00,0.0112
2863.00,0.0111
2862.00,0.0110
2861.00,0.0110
2860.00,0.0109
2859.00,0.0109
2858.00,0.0109
2857.00,0.0109
2856.00,0.0109
2855.00,0.0109
2854.00,0.0108
2853.00,0.0107
2852.00,0.0106
2851.00,0.0105
2850.00,0.0103
2849.00,0.0101
2848.00,0.0100
2847.00,0.0098
2846.00,0.0097
2845.00,0.0096
2844.00,0.0095
2843.00,0.0094
2842.00,0.0093
2841.00,0.0092
2840.00,0.0092
2839.00,0.0091
2838.00,0.0090
2837.00,0.0089
2836.00,0.0089
2835.00,0.0088
2834.00,0.0088
2833.00,0.0087
2832.00,0.0087
2831.00,0.0087
2830.00,0.0087
2829.00,0.0086
2828.00,0.0086
2827.00,0.0085
2826.00,0.0085
2825.00,0.0085
2824.00,0.0084
2823.00,0.0084
2822.00,0.0084
2821.00,0.0083
2820.00,0.0083
2819.00,0.0083
2818.00,0.0082
2817.00,0.0082
2816.00,0.0082
2815.00,0.0082
2814.00,0.0081
2813.00,0.0081
2812.00,0.0081
2811.00,0.0081
2810.00,0.0080
2809.00,0.0080
2808.00,0.0080
2807.00,0.0080
2806.00,0.0080
2805.00,0.0079
2804.00,0.0079
2803.00,0.0079
2802.00,0.0079
2801.00,0.0078
2800.00,0.0078
2799.00,0.0078
2798.00,0.0077
2797.00,0.0077
2796.00,0.0077
2795.00,0.0076
2794.00,0.0076
2793.00,0.0076
2792.00,0.0076
2791.00,0.0075
2790.00,0.0075
2789.00,0.0075
2788.00,0.0074
2787.00,0.0074
2786.00,0.0074
2785.00,0.0074
2784.00,0.0074
2783.00,0.0074
2782.00,0.0073
2781.00,0.0073
2780.00,0.0073
2779.00,0.0073
2778.00,0.0072
2777.00,0.0072
2776.00,0.0072
2775.00,0.0072
2774.00,0.0071
2773.00,0.0071
2772.00,0.0071
2771.00,0.0070
2770.00,0.0070
2769.00,0.0070
2768.00,0.0070
2767.00,0.0070
2766.00,0.0069
2765.00,0.0069
2764.00,0.0069
2763.00,0.0069
2762.00,0.0068
2761.00,0.0068
2760.00,0.0068
2759.00,0.0068
2758.00,0.0067
2757.00,0.0067
2756.00,0.0067
2755.00,0.0067
2754.00,0.0067
2753.00,0.0066
2752.00,0.0066
2751.00,0.0066
2750.00,0.0066
2749.00,0.0066
2748.00,0.0065
2747.00,0.0065
2746.00,0.0065
2745.00,0.0065
2744.00,0.0064
2743.00,0.0064
2742.00,0.0064
2741.00,0.0064
2740.00,0.0064
2739.00,0.0064
2738.00,0.0063
2737.00,0.0063
2736.00,0.0063
2735.00,0.0062
2734.00,0.0062
2733.00,0.0062
2732.00,0.0062
2731.00,0.0062
2730.00,0.0062
2729.00,0.0061
2728.00,0.0061
2727.00,0.0061
2726.00,0.0061
2725.00,0.0061
2724.00,0.0061
2723.00,0.0060
2722.00,0.0060
2721.00,0.0060
2720.00,0.0059
2719.00,0.0059
2718.00,0.0059
2717.00,0.0059
2716.00,0.0059
2715.00,0.0058
2714.00,0.0058
2713.00,0.0058
2712.00,0.0058
2711.00,0.0058
2710.00,0.0057
2709.00,0.0057
2708.00,0.0057
2707.00,0.0057
2706.00,0.0057
2705.00,0.0056
2704.00,0.0057
2703.00,0.0057
2702.00,0.0057
2701.00,0.0056
2700.00,0.0056
2699.00,0.0056
2698.00,0.0056
2697.00,0.0056
2696.00,0.0056
2695.00,0.0056
2694.00,0.0055
2693.00,0.0055
2692.00,0.0055
2691.00,0.0055
2690.00,0.0055
2689.00,0.0055
2688.00,0.0055
2687.00,0.0054
2686.00,0.0054
2685.00,0.0054
2684.00,0.0054
2683.00,0.0054
2682.00,0.0054
2681.00,0.0055
2680.00,0.0055
2679.00,0.0054
2678.00,0.0054
2677.00,0.0054
2676.00,0.0054
2675.00,0.0054
2674.00,0.0054
2673.00,0.0054
2672.00,0.0054
2671.00,0.0054
2670.00,0.0054
2669.00,0.0054
2668.00,0.0054
2667.00,0.0054
2666.00,0.0054
2665.00,0.0055
2664.00,0.0055
2663.00,0.0056
2662.00,0.0057
2661.00,0.0057
2660.00,0.0057
2659.00,0.0057
2658.00,0.0057
2657.00,0.0057
2656.00,0.0057
2655.00,0.0057
2654.00,0.0057
2653.00,0.0057
2652.00,0.0057
2651.00,0.0058
2650.00,0.0058
2649.00,0.0058
2648.00,0.0057
2647.00,0.0057
2646.00,0.0057
2645.00,0.0057
2644.00,0.0057
2643.00,0.0057
2642.00,0.0057
2641.00,0.0057
2640.00,0.0057
2639.00,0.0057
2638.00,0.0057
2637.00,0.0057
2636.00,0.0057
2635.00,0.0056
2634.00,0.0056
2633.00,0.0056
2632.00,0.0055
2631.00,0.0055
2630.00,0.0056
2629.00,0.0056
2628.00,0.0055
2627.00,0.0055
2626.00,0.0055
2625.00,0.0055
2624.00,0.0055
2623.00,0.0055
2622.00,0.0054
2621.00,0.0054
2620.00,0.0054
2619.00,0.0054
2618.00,0.0054
2617.00,0.0054
2616.00,0.0053
2615.00,0.0053
2614.00,0.0053
2613.00,0.0053
2612.00,0.0053
2611.00,0.0053
2610.00,0.0053
2609.00,0.0053
2608.00,0.0053
2607.00,0.0053
2606.00,0.0052
2605.00,0.0052
2604.00,0.0052
2603.00,0.0052
2602.00,0.0052
2601.00,0.0051
2600.00,0.0051
2599.00,0.0051
2598.00,0.0050
2597.00,0.0050
2596.00,0.0050
2595.00,0.0050
2594.00,0.0050
2593.00,0.0050
2592.00,0.0050
2591.00,0.0050
2590.00,0.0050
2589.00,0.0049
2588.00,0.0049
2587.00,0.0049
2586.00,0.0049
2585.00,0.0049
2584.00,0.0048
2583.00,0.0048
2582.00,0.0047
2581.00,0.0047
2580.00,0.0047
2579.00,0.0047
2578.00,0.0047
2577.00,0.0047
2576.00,0.0046
2575.00,0.0046
2574.00,0.0046
2573.00,0.0046
2572.00,0.0046
2571.00,0.0046
2570.00,0.0046
2569.00,0.0046
2568.00,0.0046
2567.00,0.0046
2566.00,0.0045
2565.00,0.0045
2564.00,0.0045
2563.00,0.0045
2562.00,0.0045
2561.00,0.0045
2560.00,0.0045
2559.00,0.0045
2558.00,0.0045
2557.00,0.0045
2556.00,0.0045
2555.00,0.0044
2554.00,0.0044
2553.00,0.0044
2552.00,0.0044
2551.00,0.0044
2550.00,0.0044
2549.00,0.0044
2548.00,0.0044
2547.00,0.0044
2546.00,0.0043
2545.00,0.0043
2544.00,0.0043
2543.00,0.0043
2542.00,0.0042
2541.00,0.0042
2540.00,0.0042
2539.00,0.0043
2538.00,0.0043
2537.00,0.0042
2536.00,0.0042
2535.00,0.0042
2534.00,0.0042
2533.00,0.0042
2532.00,0.0042
2531.00,0.0042
2530.00,0.0042
2529.00,0.0041
2528.00,0.0041
2527.00,0.0041
2526.00,0.0041
2525.00,0.0041
2524.00,0.0041
2523.00,0.0040
2522.00,0.0040
2521.00,0.0040
2520.00,0.0041
2519.00,0.0041
2518.00,0.0041
2517.00,0.0041
2516.00,0.0040
2515.00,0.0040
2514.00,0.0040
2513.00,0.0040
2512.00,0.0040
2511.00,0.0040
2510.00,0.0040
2509.00,0.0040
2508.00,0.0040
2507.00,0.0040
2506.00,0.0039
2505.00,0.0039
2504.00,0.0039
2503.00,0.0039
2502.00,0.0039
2501.00,0.0039
2500.00,0.0039
2499.00,0.0040
2498.00,0.0040
2497.00,0.0040
2496.00,0.0039
2495.00,0.0039
2494.00,0.0039
2493.00,0.0038
2492.00,0.0038
2491.00,0.0038
2490.00,0.0038
2489.00,0.0038
2488.00,0.0038
2487.00,0.0038
2486.00,0.0037
2485.00,0.0036
2484.00,0.0036
2483.00,0.0036
2482.00,0.0036
2481.00,0.0037
2480.00,0.0037
2479.00,0.0037
2478.00,0.0037
2477.00,0.0037
2476.00,0.0037
2475.00,0.0037
2474.00,0.0037
2473.00,0.0037
2472.00,0.0036
2471.00,0.0036
2470.00,0.0036
2469.00,0.0035
2468.00,0.0035
2467.00,0.0035
2466.00,0.0035
2465.00,0.0035
2464.00,0.0035
2463.00,0.0035
2462.00,0.0035
2461.00,0.0035
2460.00,0.0035
2459.00,0.0035
2458.00,0.0035
2457.00,0.0035
2456.00,0.0036
2455.00,0.0036
2454.00,0.0035
2453.00,0.0035
2452.00,0.0035
2451.00,0.0035
2450.00,0.0035
2449.00,0.0035
2448.00,0.0034
2447.00,0.0034
2446.00,0.0034
2445.00,0.0034
2444.00,0.0034
2443.00,0.0033
2442.00,0.0033
2441.00,0.0033
2440.00,0.0033
2439.00,0.0033
2438.00,0.0033
2437.00,0.0033
2436.00,0.0033
2435.00,0.0032
2434.00,0.0032
2433.00,0.0032
2432.00,0.0031
2431.00,0.0031
2430.00,0.0031
2429.00,0.0031
2428.00,0.0031
2427.00,0.0031
2426.00,0.0031
2425.00,0.0031
2424.00,0.0031
2423.00,0.0030
2422.00,0.0030
2421.00,0.0030
2420.00,0.0030
2419.00,0.0030
2418.00,0.0030
2417.00,0.0031
2416.00,0.0031
2415.00,0.0030
2414.00,0.0030
2413.00,0.0030
2412.00,0.0030
2411.00,0.0029
2410.00,0.0029
2409.00,0.0029
2408.00,0.0028
2407.00,0.0027
2406.00,0.0027
2405.00,0.0027
2404.00,0.0027
2403.00,0.0027
2402.00,0.0027
2401.00,0.0027
2400.00,0.0027
2399.00,0.0027
2398.00,0.0026
2397.00,0.0026
2396.00,0.0026
2395.00,0.0026
2394.00,0.0026
2393.00,0.0027
2392.00,0.0027
2391.00,0.0026
2390.00,0.0026
2389.00,0.0026
2388.00,0.0025
2387.00,0.0025
2386.00,0.0024
2385.00,0.0024
2384.00,0.0023
2383.00,0.0023
2382.00,0.0022
2381.00,0.0021
2380.00,0.0020
2379.00,0.0020
2378.00,0.0020
2377.00,0.0020
2376.00,0.0021
2375.00,0.0021
2374.00,0.0020
2373.00,0.0020
2372.00,0.0019
2371.00,0.0019
2370.00,0.0018
2369.00,0.0017
2368.00,0.0017
2367.00,0.0018
2366.00,0.0018
2365.00,0.0018
2364.00,0.0019
2363.00,0.0019
2362.00,0.0019
2361.00,0.0019
2360.00,0.0019
2359.00,0.0019
2358.00,0.0019
2357.00,0.0019
2356.00,0.0019
2355.00,0.0019
2354.00,0.0020
2353.00,0.0020
2352.00,0.0019
2351.00,0.0019
2350.00,0.0019
2349.00,0.0020
2348.00,0.0020
2347.00,0.0021
2346.00,0.0021
2345.00,0.0021
2344.00,0.0021
2343.00,0.0021
2342.00,0.0022
2341.00,0.0022
2340.00,0.0023
2339.00,0.0023
2338.00,0.0023
2337.00,0.0023
2336.00,0.0023
2335.00,0.0023
2334.00,0.0023
2333.00,0.0023
2332.00,0.0023
2331.00,0.0023
2330.00,0.0023
2329.00,0.0024
2328.00,0.0027
2327.00,0.0030
2326.00,0.0033
2325.00,0.0035
2324.00,0.0034
2323.00,0.0033
2322.00,0.0031
2321.00,0.0030
2320.00,0.0029
2319.00,0.0028
2318.00,0.0028
2317.00,0.0027
2316.00,0.0027
2315.00,0.0026
2314.00,0.0026
2313.00,0.0025
2312.00,0.0025
2311.00,0.0025
2310.00,0.0024
2309.00,0.0024
2308.00,0.0024
2307.00,0.0024
2306.00,0.0025
2305.00,0.0025
2304.00,0.0026
2303.00,0.0026
2302.00,0.0026
2301.00,0.0026
2300.00,0.0027
2299.00,0.0027
2298.00,0.0028
2297.00,0.0028
2296.00,0.0029
2295.00,0.0030
2294.00,0.0031
2293.00,0.0032
2292.00,0.0033
2291.00,0.0034
2290.00,0.0034
2289.00,0.0035
2288.00,0.0035
2287.00,0.0036
2286.00,0.0036
2285.00,0.0036
2284.00,0.0035
2283.00,0.0034
2282.00,0.0033
2281.00,0.0032
2280.00,0.0032
2279.00,0.0032
2278.00,0.0032
2277.00,0.0032
2276.00,0.0032
2275.00,0.0032
2274.00,0.0031
2273.00,0.0031
2272.00,0.0030
2271.00,0.0030
2270.00,0.0030
2269.00,0.0029
2268.00,0.0029
2267.00,0.0028
2266.00,0.0028
2265.00,0.0028
2264.00,0.0028
2263.00,0.0028
2262.00,0.0029
2261.00,0.0030
2260.00,0.0030
2259.00,0.0030
2258.00,0.0029
2257.00,0.0027
2256.00,0.0026
2255.00,0.0025
2254.00,0.0025
2253.00,0.0026
2252.00,0.0026
2251.00,0.0027
2250.00,0.0027
2249.00,0.0027
2248.00,0.0027
2247.00,0.0027
2246.00,0.0027
2245.00,0.0028
2244.00,0.0028
2243.00,0.0027
2242.00,0.0027
2241.00,0.0027
2240.00,0.0027
2239.00,0.0028
2238.00,0.0029
2237.00,0.0029
2236.00,0.0029
2235.00,0.0029
2234.00,0.0029
2233.00,0.0029
2232.00,0.0028
2231.00,0.0028
2230.00,0.0027
2229.00,0.0027
2228.00,0.0026
2227.00,0.0026
2226.00,0.0027
2225.00,0.0028
2224.00,0.0028
2223.00,0.0029
2222.00,0.0028
2221.00,0.0028
2220.00,0.0027
2219.00,0.0027
2218.00,0.0026
2217.00,0.0026
2216.00,0.0027
2215.00,0.0027
2214.00,0.0026
2213.00,0.0026
2212.00,0.0025
2211.00,0.0025
2210.00,0.0025
2209.00,0.0026
2208.00,0.0027
2207.00,0.0027
2206.00,0.0026
2205.00,0.0026
2204.00,0.0025
2203.00,0.0025
2202.00,0.0025
2201.00,0.0026
2200.00,0.0027
2199.00,0.0028
2198.00,0.0028
2197.00,0.0028
2196.00,0.0027
2195.00,0.0026
2194.00,0.0026
2193.00,0.0026
2192.00,0.0027
2191.00,0.0028
2190.00,0.0029
2189.00,0.0029
2188.00,0.0028
2187.00,0.0027
2186.00,0.0027
2185.00,0.0026
2184.00,0.0025
2183.00,0.0024
2182.00,0.0023
2181.00,0.0023
2180.00,0.0024
2179.00,0.0025
2178.00,0.0024
2177.00,0.0023
2176.00,0.0021
2175.00,0.0021
2174.00,0.0022
2173.00,0.0024
2172.00,0.0026
2171.00,0.0027
2170.00,0.0029
2169.00,0.0031
2168.00,0.0032
2167.00,0.0033
2166.00,0.0033
2165.00,0.0034
2164.00,0.0036
2163.00,0.0037
2162.00,0.0034
2161.00,0.0024
2160.00,0.0011
2159.00,-0.0000
2158.00,-0.0006
2157.00,-0.0006
2156.00,-0.0002
2155.00,0.0001
2154.00,0.0005
2153.00,0.0007
2152.00,0.0009
2151.00,0.0009
2150.00,0.0009
2149.00,0.0009
2148.00,0.0010
2147.00,0.0010
2146.00,0.0011
2145.00,0.0011
2144.00,0.0011
2143.00,0.0010
2142.00,0.0010
2141.00,0.0010
2140.00,0.0010
2139.00,0.0010
2138.00,0.0009
2137.00,0.0008
2136.00,0.0007
2135.00,0.0006
2134.00,0.0005
2133.00,0.0006
2132.00,0.0007
2131.00,0.0009
2130.00,0.0011
2129.00,0.0013
2128.00,0.0015
2127.00,0.0016
2126.00,0.0017
2125.00,0.0017
2124.00,0.0017
2123.00,0.0018
2122.00,0.0018
2121.00,0.0018
2120.00,0.0019
2119.00,0.0020
2118.00,0.0022
2117.00,0.0024
2116.00,0.0025
2115.00,0.0026
2114.00,0.0026
2113.00,0.0026
2112.00,0.0026
2111.00,0.0025
2110.00,0.0024
2109.00,0.0023
2108.00,0.0023
2107.00,0.0024
2106.00,0.0024
2105.00,0.0025
2104.00,0.0025
2103.00,0.0025
2102.00,0.0025
2101.00,0.0025
2100.00,0.0025
2099.00,0.0025
2098.00,0.0024
2097.00,0.0023
2096.00,0.0021
2095.00,0.0020
2094.00,0.0019
2093.00,0.0020
2092.00,0.0022
2091.00,0.0023
2090.00,0.0023
2089.00,0.0023
2088.00,0.0024
2087.00,0.0024
2086.00,0.0025
2085.00,0.0026
2084.00,0.0027
2083.00,0.0028
2082.00,0.0028
2081.00,0.0028
2080.00,0.0028
2079.00,0.0028
2078.00,0.0027
2077.00,0.0027
2076.00,0.0027
2075.00,0.0027
2074.00,0.0027
2073.00,0.0026
2072.00,0.0026
2071.00,0.0025
2070.00,0.0024
2069.00,0.0024
2068.00,0.0024
2067.00,0.0024
2066.00,0.0023
2065.00,0.0023
2064.00,0.0023
2063.00,0.0024
2062.00,0.0024
2061.00,0.0024
2060.00,0.0024
2059.00,0.0025
2058.00,0.0025
2057.00,0.0026
2056.00,0.0025
2055.00,0.0025
2054.00,0.0026
2053.00,0.0030
2052.00,0.0033
2051.00,0.0035
2050.00,0.0034
2049.00,0.0031
2048.00,0.0028
2047.00,0.0026
2046.00,0.0025
2045.00,0.0025
2044.00,0.0025
2043.00,0.0026
2042.00,0.0026
2041.00,0.0026
2040.00,0.0027
2039.00,0.0027
2038.00,0.0026
2037.00,0.0025
2036.00,0.0025
2035.00,0.0023
2034.00,0.0022
2033.00,0.0022
2032.00,0.0022
2031.00,0.0021
2030.00,0.0019
2029.00,0.0019
2028.00,0.0018
2027.00,0.0018
2026.00,0.0017
2025.00,0.0017
2024.00,0.0017
2023.00,0.0016
2022.00,0.0015
2021.00,0.0015
2020.00,0.0014
2019.00,0.0015
2018.00,0.0016
2017.00,0.0017
2016.00,0.0017
2015.00,0.0017
2014.00,0.0016
2013.00,0.0016
2012.00,0.0017
2011.00,0.0017
2010.00,0.0015
2009.00,0.0013
2008.00,0.0012
2007.00,0.0011
2006.00,0.0011
2005.00,0.0013
2004.00,0.0015
2003.00,0.0016
2002.00,0.0016
2001.00,0.0016
2000.00,0.0016
1999.00,0.0017
1998.00,0.0018
1997.00,0.0020
1996.00,0.0020
1995.00,0.0019
1994.00,0.0018
1993.00,0.0019
1992.00,0.0021
1991.00,0.0023
1990.00,0.0024
1989.00,0.0025
1988.00,0.0025
1987.00,0.0027
1986.00,0.0028
1985.00,0.0030
1984.00,0.0033
1983.00,0.0035
1982.00,0.0036
1981.00,0.0035
1980.00,0.0032
1979.00,0.0027
1978.00,0.0020
1977.00,0.0015
1976.00,0.0013
1975.00,0.0012
1974.00,0.0011
1973.00,0.0011
1972.00,0.0011
1971.00,0.0011
1970.00,0.0010
1969.00,0.0010
1968.00,0.0009
1967.00,0.0010
1966.00,0.0010
1965.00,0.0011
1964.00,0.0011
1963.00,0.0009
1962.00,0.0007
1961.00,0.0006
1960.00,0.0005
1959.00,0.0006
1958.00,0.0007
1957.00,0.0008
1956.00,0.0010
1955.00,0.0012
1954.00,0.0012
1953.00,0.0012
1952.00,0.0013
1951.00,0.0014
1950.00,0.0014
1949.00,0.0014
1948.00,0.0014
1947.00,0.0013
1946.00,0.0013
1945.00,0.0013
1944.00,0.0014
1943.00,0.0014
1942.00,0.0015
1941.00,0.0015
1940.00,0.0015
1939.00,0.0015
1938.00,0.0016
1937.00,0.0016
1936.00,0.0015
1935.00,0.0015
1934.00,0.0015
1933.00,0.0015
1932.00,0.0015
1931.00,0.0015
1930.00,0.0015
1929.00,0.0015
1928.00,0.0015
1927.00,0.0015
1926.00,0.0015
1925.00,0.0016
1924.00,0.0017
1923.00,0.0017
1922.00,0.0017
1921.00,0.0017
1920.00,0.0018
1919.00,0.0018
1918.00,0.0019
1917.00,0.0019
1916.00,0.0019
1915.00,0.0019
1914.00,0.0019
1913.00,0.0018
1912.00,0.0018
1911.00,0.0018
1910.00,0.0018
1909.00,0.0018
1908.00,0.0019
1907.00,0.0018
1906.00,0.0018
1905.00,0.0018
1904.00,0.0018
1903.00,0.0018
1902.00,0.0019
1901.00,0.0019
1900.00,0.0019
1899.00,0.0019
1898.00,0.0019
1897.00,0.0018
1896.00,0.0019
1895.00,0.0018
1894.00,0.0018
1893.00,0.0018
1892.00,0.0018
1891.00,0.0018
1890.00,0.0018
1889.00,0.0018
1888.00,0.0018
1887.00,0.0018
1886.00,0.0018
1885.00,0.0019
1884.00,0.0019
1883.00,0.0019
1882.00,0.0018
1881.00,0.0018
1880.00,0.0019
1879.00,0.0019
1878.00,0.0020
1877.00,0.0020
1876.00,0.0020
1875.00,0.0020
1874.00,0.0020
1873.00,0.0020
1872.00,0.0019
1871.00,0.0019
1870.00,0.0019
1869.00,0.0018
1868.00,0.0018
1867.00,0.0018
1866.00,0.0018
1865.00,0.0018
1864.00,0.0019
1863.00,0.0019
1862.00,0.0019
1861.00,0.0019
1860.00,0.0019
1859.00,0.0019
1858.00,0.0019
1857.00,0.0019
1856.00,0.0019
1855.00,0.0020
1854.00,0.0020
1853.00,0.0020
1852.00,0.0020
1851.00,0.0020
1850.00,0.0019
1849.00,0.0019
1848.00,0.0019
1847.00,0.0019
1846.00,0.0018
1845.00,0.0018
1844.00,0.0019
1843.00,0.0020
1842.00,0.0020
1841.00,0.0020
1840.00,0.0020
1839.00,0.0020
1838.00,0.0020
1837.00,0.0020
1836.00,0.0020
1835.00,0.0020
1834.00,0.0020
1833.00,0.0020
1832.00,0.0021
1831.00,0.0021
1830.00,0.0021
1829.00,0.0020
1828.00,0.0020
1827.00,0.0020
1826.00,0.0020
1825.00,0.0020
1824.00,0.0021
1823.00,0.0021
1822.00,0.0021
1821.00,0.0021
1820.00,0.0020
1819.00,0.0020
1818.00,0.0019
1817.00,0.0019
1816.00,0.0019
1815.00,0.0020
1814.00,0.0020
1813.00,0.0021
1812.00,0.0021
1811.00,0.0022
1810.00,0.0022
1809.00,0.0022
1808.00,0.0022
1807.00,0.0023
1806.00,0.0023
1805.00,0.0023
1804.00,0.0023
1803.00,0.0023
1802.00,0.0023
1801.00,0.0023
1800.00,0.0024
1799.00,0.0024
1798.00,0.0024
1797.00,0.0024
1796.00,0.0024
1795.00,0.0023
1794.00,0.0023
1793.00,0.0024
1792.00,0.0025
1791.00,0.0025
1790.00,0.0025
1789.00,0.0026
1788.00,0.0026
1787.00,0.0026
1786.00,0.0027
1785.00,0.0027
1784.00,0.0028
1783.00,0.0028
1782.00,0.0027
1781.00,0.0027
1780.00,0.0027
1779.00,0.0027
1778.00,0.0027
1777.00,0.0027
1776.00,0.0027
1775.00,0.0028
1774.00,0.0028
1773.00,0.0029
1772.00,0.0031
1771.00,0.0031
1770.00,0.0031
1769.00,0.0031
1768.00,0.0031
1767.00,0.0032
1766.00,0.0033
1765.00,0.0033
1764.00,0.0033
1763.00,0.0034
1762.00,0.0035
1761.00,0.0037
1760.00,0.0038
1759.00,0.0039
1758.00,0.0040
1757.00,0.0041
1756.00,0.0043
1755.00,0.0045
1754.00,0.0046
1753.00,0.0048
1752.00,0.0051
1751.00,0.0053
1750.00,0.0054
1749.00,0.0055
1748.00,0.0057
1747.00,0.0059
1746.00,0.0062
1745.00,0.0065
1744.00,0.0069
1743.00,0.0072
1742.00,0.0076
1741.00,0.0080
1740.00,0.0085
1739.00,0.0090
1738.00,0.0095
1737.00,0.0098
1736.00,0.0101
1735.00,0.0107
1734.00,0.0113
1733.00,0.0117
1732.00,0.0120
1731.00,0.0121
1730.00,0.0122
1729.00,0.0124
1728.00,0.0127
1727.00,0.0129
1726.00,0.0130
1725.00,0.0131
1724.00,0.0133
1723.00,0.0134
1722.00,0.0134
1721.00,0.0134
1720.00,0.0135
1719.00,0.0136
1718.00,0.0137
1717.00,0.0137
1716.00,0.0137
1715.00,0.0137
1714.00,0.0136
1713.00,0.0136
1712.00,0.0136
1711.00,0.0137
1710.00,0.0138
1709.00,0.0139
1708.00,0.0141
1707.00,0.0143
1706.00,0.0146
1705.00,0.0150
1704.00,0.0154
1703.00,0.0159
1702.00,0.0166
1701.00,0.0176
1700.00,0.0190
1699.00,0.0200
1698.00,0.0205
1697.00,0.0208
1696.00,0.0216
1695.00,0.0224
1694.00,0.0226
1693.00,0.0233
1692.00,0.0239
1691.00,0.0245
1690.00,0.0251
1689.00,0.0258
1688.00,0.0265
1687.00,0.0272
1686.00,0.0279
1685.00,0.0286
1684.00,0.0294
1683.00,0.0302
1682.00,0.0310
1681.00,0.0318
1680.00,0.0326
1679.00,0.0334
1678.00,0.0342
1677.00,0.0350
1676.00,0.0358
1675.00,0.0367
1674.00,0.0376
1673.00,0.0383
1672.00,0.0389
1671.00,0.0397
1670.00,0.0405
1669.00,0.0415
1668.00,0.0425
1667.00,0.0434
1666.00,0.0442
1665.00,0.0450
1664.00,0.0460
1663.00,0.0470
1662.00,0.0481
1661.00,0.0491
1660.00,0.0501
1659.00,0.0511
1658.00,0.0520
1657.00,0.0530
1656.00,0.0539
1655.00,0.0548
1654.00,0.0557
1653.00,0.0567
1652.00,0.0577
1651.00,0.0583
1650.00,0.0583
1649.00,0.0584
1648.00,0.0585
1647.00,0.0587
1646.00,0.0590
1645.00,0.0592
1644.00,0.0595
1643.00,0.0596
1642.00,0.0597
1641.00,0.0598
1640.00,0.0600
1639.00,0.0602
1638.00,0.0604
1637.00,0.0606
1636.00,0.0608
1635.00,0.0611
1634.00,0.0616
1633.00,0.0619
1632.00,0.0622
1631.00,0.0625
1630.00,0.0629
1629.00,0.0632
1628.00,0.0635
1627.00,0.0637
1626.00,0.0639
1625.00,0.0638
1624.00,0.0636
1623.00,0.0631
1622.00,0.0625
1621.00,0.0619
1620.00,0.0613
1619.00,0.0606
1618.00,0.0596
1617.00,0.0583
1616.00,0.0569
1615.00,0.0555
1614.00,0.0542
1613.00,0.0529
1612.00,0.0515
1611.00,0.0500
1610.00,0.0485
1609.00,0.0470
1608.00,0.0455
1607.00,0.0441
1606.00,0.0428
1605.00,0.0416
1604.00,0.0404
1603.00,0.0392
1602.00,0.0381
1601.00,0.0372
1600.00,0.0362
1599.00,0.0354
1598.00,0.0346
1597.00,0.0338
1596.00,0.0331
1595.00,0.0324
1594.00,0.0318
1593.00,0.0313
1592.00,0.0307
1591.00,0.0302
1590.00,0.0297
1589.00,0.0293
1588.00,0.0289
1587.00,0.0286
1586.00,0.0283
1585.00,0.0281
1584.00,0.0280
1583.00,0.0278
1582.00,0.0277
1581.00,0.0277
1580.00,0.0277
1579.00,0.0277
1578.00,0.0278
1577.00,0.0281
1576.00,0.0285
1575.00,0.0288
1574.00,0.0291
1573.00,0.0293
1572.00,0.0295
1571.00,0.0298
1570.00,0.0304
1569.00,0.0310
1568.00,0.0315
1567.00,0.0320
1566.00,0.0326
1565.00,0.0333
1564.00,0.0340
1563.00,0.0346
1562.00,0.0353
1561.00,0.0362
1560.00,0.0372
1559.00,0.0384
1558.00,0.0396
1557.00,0.0406
1556.00,0.0413
1555.00,0.0421
1554.00,0.0430
1553.00,0.0440
1552.00,0.0449
1551.00,0.0456
1550.00,0.0465
1549.00,0.0474
1548.00,0.0482
1547.00,0.0490
1546.00,0.0496
1545.00,0.0503
1544.00,0.0509
1543.00,0.0514
1542.00,0.0519
1541.00,0.0524
1540.00,0.0529
1539.00,0.0536
1538.00,0.0542
1537.00,0.0545
1536.00,0.0547
1535.00,0.0549
1534.00,0.0551
1533.00,0.0554
1532.00,0.0557
1531.00,0.0559
1530.00,0.0562
1529.00,0.0563
1528.00,0.0565
1527.00,0.0565
1526.00,0.0566
1525.00,0.0567
1524.00,0.0568
1523.00,0.0568
1522.00,0.0569
1521.00,0.0570
1520.00,0.0572
1519.00,0.0574
1518.00,0.0575
1517.00,0.0574
1516.00,0.0574
1515.00,0.0572
1514.00,0.0570
1513.00,0.0565
1512.00,0.0558
1511.00,0.0551
1510.00,0.0543
1509.00,0.0534
1508.00,0.0522
1507.00,0.0508
1506.00,0.0495
1505.00,0.0487
1504.00,0.0480
1503.00,0.0470
1502.00,0.0460
1501.00,0.0450
1500.00,0.0439
1499.00,0.0429
1498.00,0.0418
1497.00,0.0407
1496.00,0.0395
1495.00,0.0385
1494.00,0.0375
1493.00,0.0365
1492.00,0.0354
1491.00,0.0343
1490.00,0.0331
1489.00,0.0320
1488.00,0.0311
1487.00,0.0303
1486.00,0.0297
1485.00,0.0291
1484.00,0.0286
1483.00,0.0281
1482.00,0.0276
1481.00,0.0272
1480.00,0.0269
1479.00,0.0267
1478.00,0.0266
1477.00,0.0265
1476.00,0.0265
1475.00,0.0266
1474.00,0.0269
1473.00,0.0273
1472.00,0.0278
1471.00,0.0283
1470.00,0.0286
1469.00,0.0288
1468.00,0.0289
1467.00,0.0291
1466.00,0.0292
1465.00,0.0293
1464.00,0.0294
1463.00,0.0296
1462.00,0.0297
1461.00,0.0298
1460.00,0.0300
1459.00,0.0302
1458.00,0.0305
1457.00,0.0310
1456.00,0.0316
1455.00,0.0319
1454.00,0.0319
1453.00,0.0319
1452.00,0.0320
1451.00,0.0320
1450.00,0.0320
1449.00,0.0320
1448.00,0.0320
1447.00,0.0319
1446.00,0.0319
1445.00,0.0318
1444.00,0.0317
1443.00,0.0316
1442.00,0.0315
1441.00,0.0313
1440.00,0.0312
1439.00,0.0310
1438.00,0.0307
1437.00,0.0304
1436.00,0.0300
1435.00,0.0296
1434.00,0.0292
1433.00,0.0287
1432.00,0.0284
1431.00,0.0280
1430.00,0.0277
1429.00,0.0275
1428.00,0.0274
1427.00,0.0273
1426.00,0.0272
1425.00,0.0271
1424.00,0.0271
1423.00,0.0271
1422.00,0.0272
1421.00,0.0274
1420.00,0.0275
1419.00,0.0277
1418.00,0.0279
1417.00,0.0280
1416.00,0.0281
1415.00,0.0283
1414.00,0.0284
1413.00,0.0286
1412.00,0.0287
1411.00,0.0288
1410.00,0.0289
1409.00,0.0290
1408.00,0.0290
1407.00,0.0291
1406.00,0.0290
1405.00,0.0290
1404.00,0.0289
1403.00,0.0289
1402.00,0.0289
1401.00,0.0289
1400.00,0.0288
1399.00,0.0287
1398.00,0.0287
1397.00,0.0287
1396.00,0.0287
1395.00,0.0287
1394.00,0.0288
1393.00,0.0290
1392.00,0.0291
1391.00,0.0292
1390.00,0.0292
1389.00,0.0293
1388.00,0.0293
1387.00,0.0292
1386.00,0.0291
1385.00,0.0290
1384.00,0.0288
1383.00,0.0286
1382.00,0.0284
1381.00,0.0282
1380.00,0.0280
1379.00,0.0278
1378.00,0.0275
1377.00,0.0273
1376.00,0.0271
1375.00,0.0269
1374.00,0.0268
1373.00,0.0268
1372.00,0.0268
1371.00,0.0268
1370.00,0.0267
1369.00,0.0267
1368.00,0.0266
1367.00,0.0264
1366.00,0.0262
1365.00,0.0260
1364.00,0.0257
1363.00,0.0254
1362.00,0.0252
1361.00,0.0251
1360.00,0.0250
1359.00,0.0250
1358.00,0.0250
1357.00,0.0250
1356.00,0.0249
1355.00,0.0249
1354.00,0.0249
1353.00,0.0250
1352.00,0.0250
1351.00,0.0251
1350.00,0.0251
1349.00,0.0252
1348.00,0.0252
1347.00,0.0253
1346.00,0.0253
1345.00,0.0253
1344.00,0.0254
1343.00,0.0254
1342.00,0.0253
1341.00,0.0253
1340.00,0.0252
1339.00,0.0252
1338.00,0.0251
1337.00,0.0251
1336.00,0.0251
1335.00,0.0252
1334.00,0.0251
1333.00,0.0251
1332.00,0.0251
1331.00,0.0251
1330.00,0.0250
1329.00,0.0250
1328.00,0.0250
1327.00,0.0250
1326.00,0.0250
1325.00,0.0251
1324.00,0.0251
1323.00,0.0252
1322.00,0.0252
1321.00,0.0253
1320.00,0.0253
1319.00,0.0254
1318.00,0.0254
1317.00,0.0255
1316.00,0.0255
1315.00,0.0256
1314.00,0.0256
1313.00,0.0257
1312.00,0.0257
1311.00,0.0257
1310.00,0.0258
1309.00,0.0258
1308.00,0.0259
1307.00,0.0259
1306.00,0.0260
1305.00,0.0260
1304.00,0.0261
1303.00,0.0261
1302.00,0.0262
1301.00,0.0262
1300.00,0.0263
1299.00,0.0263
1298.00,0.0264
1297.00,0.0265
1296.00,0.0266
1295.00,0.0267
1294.00,0.0267
1293.00,0.0268
1292.00,0.0269
1291.00,0.0270
1290.00,0.0271
1289.00,0.0272
1288.00,0.0273
1287.00,0.0274
1286.00,0.0275
1285.00,0.0276
1284.00,0.0277
1283.00,0.0278
1282.00,0.0279
1281.00,0.0279
1280.00,0.0280
1279.00,0.0281
1278.00,0.0281
1277.00,0.0282
1276.00,0.0282
1275.00,0.0283
1274.00,0.0284
1273.00,0.0285
1272.00,0.0286
1271.00,0.0287
1270.00,0.0289
1269.00,0.0290
1268.00,0.0292
1267.00,0.0293
1266.00,0.0295
1265.00,0.0296
1264.00,0.0297
1263.00,0.0299
1262.00,0.0301
1261.00,0.0302
1260.00,0.0304
1259.00,0.0306
1258.00,0.0308
1257.00,0.0310
1256.00,0.0311
1255.00,0.0313
1254.00,0.0315
1253.00,0.0317
1252.00,0.0319
1251.00,0.0321
1250.00,0.0323
1249.00,0.0325
1248.00,0.0327
1247.00,0.0329
1246.00,0.0331
1245.00,0.0333
1244.00,0.0335
1243.00,0.0338
1242.00,0.0339
1241.00,0.0341
1240.00,0.0342
1239.00,0.0343
1238.00,0.0344
1237.00,0.0346
1236.00,0.0347
1235.00,0.0348
1234.00,0.0349
1233.00,0.0349
1232.00,0.0349
1231.00,0.0349
1230.00,0.0349
1229.00,0.0348
1228.00,0.0348
1227.00,0.0347
1226.00,0.0346
1225.00,0.0345
1224.00,0.0344
1223.00,0.0342
1222.00,0.0340
1221.00,0.0338
1220.00,0.0336
1219.00,0.0333
1218.00,0.0331
1217.00,0.0329
1216.00,0.0327
1215.00,0.0324
1214.00,0.0322
1213.00,0.0319
1212.00,0.0317
1211.00,0.0315
1210.00,0.0313
1209.00,0.0311
1208.00,0.0309
1207.00,0.0308
1206.00,0.0306
1205.00,0.0305
1204.00,0.0304
1203.00,0.0303
1202.00,0.0303
1201.00,0.0302
1200.00,0.0302
1199.00,0.0302
1198.00,0.0301
1197.00,0.0301
1196.00,0.0301
1195.00,0.0302
1194.00,0.0302
1193.00,0.0303
1192.00,0.0304
1191.00,0.0305
1190.00,0.0307
1189.00,0.0308
1188.00,0.0309
1187.00,0.0310
1186.00,0.0311
1185.00,0.0313
1184.00,0.0314
1183.00,0.0316
1182.00,0.0317
1181.00,0.0319
1180.00,0.0321
1179.00,0.0323
1178.00,0.0326
1177.00,0.0328
1176.00,0.0331
1175.00,0.0333
1174.00,0.0335
1173.00,0.0337
1172.00,0.0338
1171.00,0.0339
1170.00,0.0340
1169.00,0.0341
1168.00,0.0341
1167.00,0.0341
1166.00,0.0341
1165.00,0.0341
1164.00,0.0340
1163.00,0.0340
1162.00,0.0339
1161.00,0.0339
1160.00,0.0338
1159.00,0.0337
1158.00,0.0336
1157.00,0.0335
1156.00,0.0333
1155.00,0.0332
1154.00,0.0330
1153.00,0.0328
1152.00,0.0326
1151.00,0.0323
1150.00,0.0321
1149.00,0.0319
1148.00,0.0316
1147.00,0.0313
1146.00,0.0311
1145.00,0.0308
1144.00,0.0305
1143.00,0.0303
1142.00,0.0301
1141.00,0.0300
1140.00,0.0298
1139.00,0.0298
1138.00,0.0297
1137.00,0.0296
1136.00,0.0295
1135.00,0.0295
1134.00,0.0295
1133.00,0.0295
1132.00,0.0295
1131.00,0.0295
1130.00,0.0296
1129.00,0.0296
1128.00,0.0296
1127.00,0.0296
1126.00,0.0295
1125.00,0.0295
1124.00,0.0294
1123.00,0.0294
1122.00,0.0294
1121.00,0.0293
1120.00,0.0293
1119.00,0.0292
1118.00,0.0292
1117.00,0.0292
1116.00,0.0292
1115.00,0.0292
1114.00,0.0292
1113.00,0.0292
1112.00,0.0292
1111.00,0.0292
1110.00,0.0292
1109.00,0.0292
1108.00,0.0292
1107.00,0.0292
1106.00,0.0293
1105.00,0.0293
1104.00,0.0294
1103.00,0.0294
1102.00,0.0295
1101.00,0.0295
1100.00,0.0296
1099.00,0.0296
1098.00,0.0297
1097.00,0.0297
1096.00,0.0297
1095.00,0.0297
1094.00,0.0298
1093.00,0.0298
1092.00,0.0298
1091.00,0.0299
1090.00,0.0300
1089.00,0.0301
1088.00,0.0302
1087.00,0.0304
1086.00,0.0305
1085.00,0.0307
1084.00,0.0308
1083.00,0.0310
1082.00,0.0311
1081.00,0.0312
1080.00,0.0313
1079.00,0.0314
1078.00,0.0314
1077.00,0.0315
1076.00,0.0315
1075.00,0.0315
1074.00,0.0315
1073.00,0.0314
1072.00,0.0314
1071.00,0.0313
1070.00,0.0313
1069.00,0.0312
1068.00,0.0312
1067.00,0.0312
1066.00,0.0311
1065.00,0.0310
1064.00,0.0310
1063.00,0.0309
1062.00,0.0309
1061.00,0.0309
1060.00,0.0309
1059.00,0.0309
1058.00,0.0309
1057.00,0.0309
1056.00,0.0308
1055.00,0.0308
1054.00,0.0307
1053.00,0.0306
1052.00,0.0305
1051.00,0.0304
1050.00,0.0303
1049.00,0.0302
1048.00,0.0301
1047.00,0.0300
1046.00,0.0298
1045.00,0.0296
1044.00,0.0295
1043.00,0.0293
1042.00,0.0292
1041.00,0.0291
1040.00,0.0290
1039.00,0.0289
1038.00,0.0288
1037.00,0.0287
1036.00,0.0287
1035.00,0.0286
1034.00,0.0286
1033.00,0.0286
1032.00,0.0286
1031.00,0.0285
1030.00,0.0284
1029.00,0.0284
1028.00,0.0283
1027.00,0.0282
1026.00,0.0281
1025.00,0.0280
1024.00,0.0278
1023.00,0.0276
1022.00,0.0275
1021.00,0.0273
1020.00,0.0272
1019.00,0.0270
1018.00,0.0268
1017.00,0.0266
1016.00,0.0264
1015.00,0.0262
1014.00,0.0259
1013.00,0.0257
1012.00,0.0255
1011.00,0.0252
1010.00,0.0250
1009.00,0.0247
1008.00,0.0245
1007.00,0.0243
1006.00,0.0241
1005.00,0.0240
1004.00,0.0238
1003.00,0.0236
1002.00,0.0234
1001.00,0.0233
1000.00,0.0232
999.00,0.0230
998.00,0.0229
997.00,0.0228
996.00,0.0227
995.00,0.0225
994.00,0.0224
993.00,0.0223
992.00,0.0222
991.00,0.0222
990.00,0.0221
989.00,0.0219
988.00,0.0218
987.00,0.0217
986.00,0.0215
985.00,0.0214
984.00,0.0213
983.00,0.0212
982.00,0.0210
981.00,0.0209
980.00,0.0209
979.00,0.0208
978.00,0.0207
977.00,0.0207
976.00,0.0207
975.00,0.0206
974.00,0.0206
973.00,0.0205
972.00,0.0205
971.00,0.0204
970.00,0.0204
969.00,0.0203
968.00,0.0203
967.00,0.0203
966.00,0.0202
965.00,0.0202
964.00,0.0202
963.00,0.0202
962.00,0.0202
961.00,0.0202
960.00,0.0202
959.00,0.0202
958.00,0.0201
957.00,0.0201
956.00,0.0201
955.00,0.0201
954.00,0.0200
953.00,0.0200
952.00,0.0200
951.00,0.0200
950.00,0.0200
949.00,0.0200
948.00,0.0200
947.00,0.0200
946.00,0.0200
945.00,0.0201
944.00,0.0201
943.00,0.0202
942.00,0.0202
941.00,0.0202
940.00,0.0203
939.00,0.0203
938.00,0.0203
937.00,0.0203
936.00,0.0204
935.00,0.0204
934.00,0.0204
933.00,0.0205
932.00,0.0205
931.00,0.0205
930.00,0.0205
929.00,0.0205
928.00,0.0205
927.00,0.0205
926.00,0.0205
925.00,0.0205
924.00,0.0204
923.00,0.0204
922.00,0.0204
921.00,0.0203
920.00,0.0202
919.00,0.0202
918.00,0.0201
917.00,0.0201
916.00,0.0200
915.00,0.0200
914.00,0.0200
913.00,0.0199
912.00,0.0199
911.00,0.0198
910.00,0.0198
909.00,0.0198
908.00,0.0198
907.00,0.0198
906.00,0.0198
905.00,0.0198
904.00,0.0198
903.00,0.0198
902.00,0.0197
901.00,0.0196
900.00,0.0195
899.00,0.0195
898.00,0.0195
897.00,0.0195
896.00,0.0195
895.00,0.0195
894.00,0.0195
893.00,0.0195
892.00,0.0195
891.00,0.0195
890.00,0.0195
889.00,0.0195
888.00,0.0194
887.00,0.0194
886.00,0.0194
885.00,0.0193
884.00,0.0193
883.00,0.0193
882.00,0.0193
881.00,0.0193
880.00,0.0193
879.00,0.0193
878.00,0.0193
877.00,0.0192
876.00,0.0191
875.00,0.0190
874.00,0.0190
873.00,0.0189
872.00,0.0189
871.00,0.0189
870.00,0.0189
869.00,0.0189
868.00,0.0188
867.00,0.0188
866.00,0.0189
865.00,0.0189
864.00,0.0190
863.00,0.0191
862.00,0.0192
861.00,0.0193
860.00,0.0193
859.00,0.0195
858.00,0.0196
857.00,0.0196
856.00,0.0198
855.00,0.0199
854.00,0.0200
853.00,0.0201
852.00,0.0203
851.00,0.0203
850.00,0.0203
849.00,0.0203
848.00,0.0203
847.00,0.0203
846.00,0.0204
845.00,0.0205
844.00,0.0206
843.00,0.0207
842.00,0.0207
841.00,0.0208
840.00,0.0210
839.00,0.0211
838.00,0.0213
837.00,0.0215
836.00,0.0216
835.00,0.0217
834.00,0.0217
833.00,0.0219
832.00,0.0220
831.00,0.0221
830.00,0.0222
829.00,0.0223
828.00,0.0223
827.00,0.0223
826.00,0.0223
825.00,0.0223
824.00,0.0224
823.00,0.0225
822.00,0.0225
821.00,0.0225
820.00,0.0224
819.00,0.0224
818.00,0.0224
817.00,0.0224
816.00,0.0225
815.00,0.0225
814.00,0.0226
813.00,0.0227
812.00,0.0228
811.00,0.0229
810.00,0.0230
809.00,0.0231
808.00,0.0232
807.00,0.0233
806.00,0.0233
805.00,0.0233
804.00,0.0234
803.00,0.0234
802.00,0.0234
801.00,0.0235
800.00,0.0235
799.00,0.0237
798.00,0.0238
797.00,0.0239
796.00,0.0240
795.00,0.0241
794.00,0.0243
793.00,0.0245
792.00,0.0247
791.00,0.0249
790.00,0.0251
789.00,0.0253
788.00,0.0255
787.00,0.0256
786.00,0.0258
785.00,0.0259
784.00,0.0260
783.00,0.0262
782.00,0.0263
781.00,0.0264
780.00,0.0265
779.00,0.0266
778.00,0.0267
777.00,0.0268
776.00,0.0269
775.00,0.0270
774.00,0.0271
773.00,0.0273
772.00,0.0274
771.00,0.0275
770.00,0.0276
769.00,0.0277
768.00,0.0278
767.00,0.0279
766.00,0.0280
765.00,0.0281
764.00,0.0282
763.00,0.0283
762.00,0.0285
761.00,0.0287
760.00,0.0288
759.00,0.0289
758.00,0.0291
757.00,0.0292
756.00,0.0293
755.00,0.0295
754.00,0.0296
753.00,0.0298
752.00,0.0300
751.00,0.0302
750.00,0.0304
749.00,0.0306
748.00,0.0308
747.00,0.0310
746.00,0.0311
745.00,0.0313
744.00,0.0314
743.00,0.0314
742.00,0.0315
741.00,0.0315
740.00,0.0316
739.00,0.0316
738.00,0.0317
737.00,0.0318
736.00,0.0320
735.00,0.0321
734.00,0.0323
733.00,0.0324
732.00,0.0326
731.00,0.0327
730.00,0.0329
729.00,0.0331
728.00,0.0334
727.00,0.0336
726.00,0.0339
725.00,0.0342
724.00,0.0344
723.00,0.0347
722.00,0.0349
721.00,0.0352
720.00,0.0355
719.00,0.0358
718.00,0.0361
717.00,0.0364
716.00,0.0366
715.00,0.0369
714.00,0.0372
713.00,0.0375
712.00,0.0378
711.00,0.0381
710.00,0.0385
709.00,0.0388
708.00,0.0392
707.00,0.0397
706.00,0.0400
705.00,0.0404
704.00,0.0408
703.00,0.0411
702.00,0.0415
701.00,0.0418
700.00,0.0420
699.00,0.0421
698.00,0.0422
697.00,0.0423
696.00,0.0424
695.00,0.0424
694.00,0.0424
693.00,0.0424
692.00,0.0424
691.00,0.0425
690.00,0.0425
689.00,0.0425
688.00,0.0426
687.00,0.0427
686.00,0.0428
685.00,0.0430
684.00,0.0431
683.00,0.0432
682.00,0.0433
681.00,0.0434
680.00,0.0435
679.00,0.0436
678.00,0.0438
677.00,0.0439
676.00,0.0440
675.00,0.0441
674.00,0.0443
673.00,0.0444
672.00,0.0446
671.00,0.0446
670.00,0.0448
669.00,0.0450
668.00,0.0455
667.00,0.0459
666.00,0.0460
665.00,0.0458
664.00,0.0456
663.00,0.0456
662.00,0.0456
661.00,0.0457
660.00,0.0457
659.00,0.0458
658.00,0.0460
657.00,0.0462
656.00,0.0464
655.00,0.0465
654.00,0.0466
653.00,0.0467
652.00,0.0469
651.00,0.0470
650.00,0.0471
649.00,0.0471
648.00,0.0472
647.00,0.0473
646.00,0.0474
645.00,0.0474
644.00,0.0475
643.00,0.0476
642.00,0.0477
641.00,0.0479
640.00,0.0482
639.00,0.0484
638.00,0.0485
637.00,0.0487
636.00,0.0488
635.00,0.0491
634.00,0.0494
633.00,0.0497
632.00,0.0500
631.00,0.0502
630.00,0.0505
629.00,0.0507
628.00,0.0509
627.00,0.0511
626.00,0.0513
625.00,0.0514
624.00,0.0515
623.00,0.0515
622.00,0.0516
621.00,0.0517
620.00,0.0517
619.00,0.0518
618.00,0.0518
617.00,0.0519
616.00,0.0521
615.00,0.0521
614.00,0.0521
613.00,0.0521
612.00,0.0522
611.00,0.0523
610.00,0.0524
609.00,0.0525
608.00,0.0526
607.00,0.0527
606.00,0.0528
605.00,0.0529
604.00,0.0529
603.00,0.0530
602.00,0.0529
601.00,0.0529
600.00,0.0529
599.00,0.0529
598.00,0.0530
597.00,0.0531
596.00,0.0532
595.00,0.0533
594.00,0.0534
593.00,0.0534
592.00,0.0535
591.00,0.0536
590.00,0.0537
589.00,0.0537
588.00,0.0538
587.00,0.0538
586.00,0.0539
585.00,0.0540
584.00,0.0541
583.00,0.0542
582.00,0.0542
581.00,0.0543
580.00,0.0544
579.00,0.0546
578.00,0.0548
577.00,0.0549
576.00,0.0550
575.00,0.0551
574.00,0.0553
573.00,0.0554
572.00,0.0556
571.00,0.0558
570.00,0.0560
569.00,0.0560
568.00,0.0560
567.00,0.0560
566.00,0.0561
565.00,0.0563
564.00,0.0564
563.00,0.0566
562.00,0.0566
561.00,0.0567
560.00,0.0567
559.00,0.0568
558.00,0.0570
557.00,0.0571
556.00,0.0573
555.00,0.0575
554.00,0.0575
553.00,0.0576
552.00,0.0576
551.00,0.0577
550.00,0.0577
549.00,0.0578
548.00,0.0580
547.00,0.0583
546.00,0.0586
545.00,0.0587
544.00,0.0588
543.00,0.0588
542.00,0.0588
541.00,0.0590
540.00,0.0591
539.00,0.0591
538.00,0.0591
537.00,0.0591
536.00,0.0593
535.00,0.0595
534.00,0.0596
533.00,0.0596
532.00,0.0596
531.00,0.0596
530.00,0.0595
529.00,0.0595
528.00,0.0595
527.00,0.0595
526.00,0.0595
525.00,0.0596
524.00,0.0598
523.00,0.0600
522.00,0.0601
521.00,0.0600
520.00,0.0599
519.00,0.0598
518.00,0.0599
517.00,0.0600
516.00,0.0602
515.00,0.0602
514.00,0.0601
513.00,0.0600
512.00,0.0599
511.00,0.0599
510.00,0.0598
509.00,0.0599
508.00,0.0600
507.00,0.0601
506.00,0.0600
505.00,0.0600
504.00,0.0599
503.00,0.0599
502.00,0.0598
501.00,0.0598
500.00,0.0599
499.00,0.0599
498.00,0.0600
497.00,0.0601
496.00,0.0602
495.00,0.0602
494.00,0.0601
493.00,0.0600
492.00,0.0599
491.00,0.0600
490.00,0.0603
489.00,0.0606
488.00,0.0610
487.00,0.0613
486.00,0.0613
485.00,0.0612
484.00,0.0611
483.00,0.0611
482.00,0.0610
481.00,0.0609
480.00,0.0609
479.00,0.0610
478.00,0.0609
477.00,0.0610
476.00,0.0612
475.00,0.0613
474.00,0.0612
473.00,0.0608
472.00,0.0606
471.00,0.0605
470.00,0.0606
469.00,0.0608
468.00,0.0610
467.00,0.0612
466.00,0.0613
465.00,0.0614
464.00,0.0616
463.00,0.0617
462.00,0.0617
461.00,0.0616
460.00,0.0615
459.00,0.0613
458.00,0.0609
457.00,0.0606
456.00,0.0607
455.00,0.0610
454.00,0.0613
453.00,0.0614
452.00,0.0614
451.00,0.0613
450.00,0.0612
449.00,0.0612
448.00,0.0612
447.00,0.0614
446.00,0.0614
445.00,0.0614
444.00,0.0612
443.00,0.0610
442.00,0.0606
441.00,0.0604
440.00,0.0603
439.00,0.0603
438.00,0.0604
437.00,0.0605
436.00,0.0605
435.00,0.0602
434.00,0.0598
433.00,0.0597
432.00,0.0599
431.00,0.0603
430.00,0.0605
429.00,0.0605
428.00,0.0603
427.00,0.0601
426.00,0.0598
425.00,0.0596
424.00,0.0595
423.00,0.0595
422.00,0.0594
421.00,0.0593
420.00,0.0592
419.00,0.0592
418.00,0.0593
417.00,0.0595
416.00,0.0600
415.00,0.0603
414.00,0.0602
413.00,0.0599
412.00,0.0597
411.00,0.0597
410.00,0.0595
409.00,0.0590
408.00,0.0586
407.00,0.0586
406.00,0.0591
405.00,0.0595
404.00,0.0599
403.00,0.0601
402.00,0.0603
401.00,0.0605
400.00,0.0605
