Created as New Dataset,Sample 635 By YargerLab Date Friday, June 06 2025
cm-1,A
4000.00,0.0036
3999.00,0.0036
3998.00,0.0036
3997.00,0.0035
3996.00,0.0035
3995.00,0.0035
3994.00,0.0035
3993.00,0.0035
3992.00,0.0035
3991.00,0.0035
3990.00,0.0035
3989.00,0.0034
3988.00,0.0034
3987.00,0.0034
3986.00,0.0034
3985.00,0.0034
3984.00,0.0034
3983.00,0.0034
3982.00,0.0034
3981.00,0.0034
3980.00,0.0034
3979.00,0.0034
3978.00,0.0034
3977.00,0.0034
3976.00,0.0034
3975.00,0.0034
3974.00,0.0034
3973.00,0.0034
3972.00,0.0034
3971.00,0.0034
3970.00,0.0034
3969.00,0.0034
3968.00,0.0034
3967.00,0.0034
3966.00,0.0034
3965.00,0.0034
3964.00,0.0033
3963.00,0.0033
3962.00,0.0033
3961.00,0.0033
3960.00,0.0033
3959.00,0.0033
3958.00,0.0033
3957.00,0.0033
3956.00,0.0033
3955.00,0.0033
3954.00,0.0033
3953.00,0.0033
3952.00,0.0033
3951.00,0.0033
3950.00,0.0033
3949.00,0.0032
3948.00,0.0032
3947.00,0.0032
3946.00,0.0032
3945.00,0.0032
3944.00,0.0033
3943.00,0.0033
3942.00,0.0033
3941.00,0.0033
3940.00,0.0033
3939.00,0.0033
3938.00,0.0033
3937.00,0.0033
3936.00,0.0033
3935.00,0.0032
3934.00,0.0032
3933.00,0.0031
3932.00,0.0032
3931.00,0.0032
3930.00,0.0032
3929.00,0.0033
3928.00,0.0033
3927.00,0.0033
3926.00,0.0033
3925.00,0.0033
3924.00,0.0033
3923.00,0.0033
3922.00,0.0032
3921.00,0.0031
3920.00,0.0031
3919.00,0.0030
3918.00,0.0030
3917.00,0.0031
3916.00,0.0031
3915.00,0.0032
3914.00,0.0032
3913.00,0.0032
3912.00,0.0033
3911.00,0.0033
3910.00,0.0033
3909.00,0.0033
3908.00,0.0033
3907.00,0.0033
3906.00,0.0032
3905.00,0.0031
3904.00,0.0029
3903.00,0.0028
3902.00,0.0026
3901.00,0.0026
3900.00,0.0027
3899.00,0.0028
3898.00,0.0029
3897.00,0.0029
3896.00,0.0030
3895.00,0.0030
3894.00,0.0031
3893.00,0.0032
3892.00,0.0033
3891.00,0.0033
3890.00,0.0032
3889.00,0.0031
3888.00,0.0029
3887.00,0.0028
3886.00,0.0028
3885.00,0.0028
3884.00,0.0029
3883.00,0.0028
3882.00,0.0028
3881.00,0.0028
3880.00,0.0029
3879.00,0.0030
3878.00,0.0029
3877.00,0.0029
3876.00,0.0029
3875.00,0.0029
3874.00,0.0030
3873.00,0.0031
3872.00,0.0029
3871.00,0.0028
3870.00,0.0027
3869.00,0.0027
3868.00,0.0027
3867.00,0.0026
3866.00,0.0026
3865.00,0.0026
3864.00,0.0028
3863.00,0.0028
3862.00,0.0028
3861.00,0.0028
3860.00,0.0028
3859.00,0.0029
3858.00,0.0031
3857.00,0.0032
3856.00,0.0033
3855.00,0.0032
3854.00,0.0031
3853.00,0.0029
3852.00,0.0028
3851.00,0.0027
3850.00,0.0027
3849.00,0.0027
3848.00,0.0027
3847.00,0.0028
3846.00,0.0028
3845.00,0.0028
3844.00,0.0028
3843.00,0.0028
3842.00,0.0027
3841.00,0.0027
3840.00,0.0026
3839.00,0.0026
3838.00,0.0027
3837.00,0.0027
3836.00,0.0028
3835.00,0.0028
3834.00,0.0028
3833.00,0.0028
3832.00,0.0028
3831.00,0.0029
3830.00,0.0029
3829.00,0.0029
3828.00,0.0029
3827.00,0.0029
3826.00,0.0029
3825.00,0.0029
3824.00,0.0028
3823.00,0.0027
3822.00,0.0027
3821.00,0.0028
3820.00,0.0029
3819.00,0.0028
3818.00,0.0027
3817.00,0.0026
3816.00,0.0027
3815.00,0.0029
3814.00,0.0031
3813.00,0.0031
3812.00,0.0031
3811.00,0.0032
3810.00,0.0032
3809.00,0.0032
3808.00,0.0031
3807.00,0.0030
3806.00,0.0030
3805.00,0.0029
3804.00,0.0028
3803.00,0.0026
3802.00,0.0026
3801.00,0.0028
3800.00,0.0028
3799.00,0.0028
3798.00,0.0028
3797.00,0.0028
3796.00,0.0029
3795.00,0.0031
3794.00,0.0031
3793.00,0.0032
3792.00,0.0032
3791.00,0.0033
3790.00,0.0033
3789.00,0.0033
3788.00,0.0033
3787.00,0.0033
3786.00,0.0032
3785.00,0.0032
3784.00,0.0032
3783.00,0.0032
3782.00,0.0031
3781.00,0.0031
3780.00,0.0031
3779.00,0.0031
3778.00,0.0032
3777.00,0.0032
3776.00,0.0032
3775.00,0.0032
3774.00,0.0032
3773.00,0.0032
3772.00,0.0031
3771.00,0.0030
3770.00,0.0030
3769.00,0.0030
3768.00,0.0029
3767.00,0.0029
3766.00,0.0029
3765.00,0.0030
3764.00,0.0030
3763.00,0.0030
3762.00,0.0028
3761.00,0.0028
3760.00,0.0027
3759.00,0.0027
3758.00,0.0027
3757.00,0.0027
3756.00,0.0026
3755.00,0.0026
3754.00,0.0025
3753.00,0.0024
3752.00,0.0023
3751.00,0.0022
3750.00,0.0021
3749.00,0.0020
3748.00,0.0020
3747.00,0.0020
3746.00,0.0019
3745.00,0.0019
3744.00,0.0020
3743.00,0.0022
3742.00,0.0022
3741.00,0.0021
3740.00,0.0019
3739.00,0.0018
3738.00,0.0018
3737.00,0.0017
3736.00,0.0018
3735.00,0.0019
3734.00,0.0020
3733.00,0.0020
3732.00,0.0021
3731.00,0.0022
3730.00,0.0024
3729.00,0.0025
3728.00,0.0025
3727.00,0.0025
3726.00,0.0025
3725.00,0.0026
3724.00,0.0026
3723.00,0.0026
3722.00,0.0026
3721.00,0.0027
3720.00,0.0027
3719.00,0.0028
3718.00,0.0028
3717.00,0.0028
3716.00,0.0028
3715.00,0.0027
3714.00,0.0026
3713.00,0.0025
3712.00,0.0025
3711.00,0.0025
3710.00,0.0025
3709.00,0.0025
3708.00,0.0025
3707.00,0.0026
3706.00,0.0027
3705.00,0.0028
3704.00,0.0028
3703.00,0.0029
3702.00,0.0030
3701.00,0.0030
3700.00,0.0030
3699.00,0.0030
3698.00,0.0030
3697.00,0.0029
3696.00,0.0030
3695.00,0.0030
3694.00,0.0029
3693.00,0.0029
3692.00,0.0028
3691.00,0.0029
3690.00,0.0028
3689.00,0.0027
3688.00,0.0027
3687.00,0.0027
3686.00,0.0027
3685.00,0.0028
3684.00,0.0029
3683.00,0.0029
3682.00,0.0029
3681.00,0.0030
3680.00,0.0030
3679.00,0.0030
3678.00,0.0029
3677.00,0.0028
3676.00,0.0027
3675.00,0.0028
3674.00,0.0029
3673.00,0.0029
3672.00,0.0027
3671.00,0.0027
3670.00,0.0029
3669.00,0.0030
3668.00,0.0031
3667.00,0.0032
3666.00,0.0033
3665.00,0.0034
3664.00,0.0035
3663.00,0.0036
3662.00,0.0037
3661.00,0.0037
3660.00,0.0037
3659.00,0.0037
3658.00,0.0036
3657.00,0.0035
3656.00,0.0035
3655.00,0.0034
3654.00,0.0033
3653.00,0.0031
3652.00,0.0029
3651.00,0.0028
3650.00,0.0028
3649.00,0.0027
3648.00,0.0027
3647.00,0.0028
3646.00,0.0029
3645.00,0.0031
3644.00,0.0032
3643.00,0.0033
3642.00,0.0033
3641.00,0.0034
3640.00,0.0034
3639.00,0.0034
3638.00,0.0033
3637.00,0.0033
3636.00,0.0032
3635.00,0.0030
3634.00,0.0030
3633.00,0.0029
3632.00,0.0028
3631.00,0.0027
3630.00,0.0026
3629.00,0.0026
3628.00,0.0025
3627.00,0.0025
3626.00,0.0025
3625.00,0.0025
3624.00,0.0026
3623.00,0.0027
3622.00,0.0027
3621.00,0.0028
3620.00,0.0028
3619.00,0.0027
3618.00,0.0026
3617.00,0.0024
3616.00,0.0023
3615.00,0.0022
3614.00,0.0022
3613.00,0.0023
3612.00,0.0023
3611.00,0.0023
3610.00,0.0022
3609.00,0.0023
3608.00,0.0024
3607.00,0.0025
3606.00,0.0026
3605.00,0.0027
3604.00,0.0027
3603.00,0.0028
3602.00,0.0028
3601.00,0.0028
3600.00,0.0028
3599.00,0.0028
3598.00,0.0028
3597.00,0.0027
3596.00,0.0027
3595.00,0.0027
3594.00,0.0027
3593.00,0.0027
3592.00,0.0027
3591.00,0.0026
3590.00,0.0026
3589.00,0.0025
3588.00,0.0026
3587.00,0.0027
3586.00,0.0027
3585.00,0.0027
3584.00,0.0027
3583.00,0.0028
3582.00,0.0028
3581.00,0.0029
3580.00,0.0030
3579.00,0.0030
3578.00,0.0031
3577.00,0.0031
3576.00,0.0031
3575.00,0.0031
3574.00,0.0031
3573.00,0.0031
3572.00,0.0030
3571.00,0.0029
3570.00,0.0027
3569.00,0.0026
3568.00,0.0025
3567.00,0.0025
3566.00,0.0025
3565.00,0.0026
3564.00,0.0026
3563.00,0.0027
3562.00,0.0028
3561.00,0.0029
3560.00,0.0030
3559.00,0.0031
3558.00,0.0031
3557.00,0.0032
3556.00,0.0032
3555.00,0.0031
3554.00,0.0031
3553.00,0.0031
3552.00,0.0031
3551.00,0.0031
3550.00,0.0031
3549.00,0.0030
3548.00,0.0029
3547.00,0.0029
3546.00,0.0029
3545.00,0.0030
3544.00,0.0031
3543.00,0.0031
3542.00,0.0032
3541.00,0.0033
3540.00,0.0033
3539.00,0.0033
3538.00,0.0034
3537.00,0.0034
3536.00,0.0034
3535.00,0.0034
3534.00,0.0034
3533.00,0.0034
3532.00,0.0034
3531.00,0.0034
3530.00,0.0034
3529.00,0.0034
3528.00,0.0034
3527.00,0.0034
3526.00,0.0033
3525.00,0.0033
3524.00,0.0033
3523.00,0.0034
3522.00,0.0035
3521.00,0.0035
3520.00,0.0036
3519.00,0.0037
3518.00,0.0037
3517.00,0.0037
3516.00,0.0038
3515.00,0.0038
3514.00,0.0038
3513.00,0.0038
3512.00,0.0038
3511.00,0.0038
3510.00,0.0039
3509.00,0.0039
3508.00,0.0040
3507.00,0.0040
3506.00,0.0040
3505.00,0.0040
3504.00,0.0040
3503.00,0.0040
3502.00,0.0040
3501.00,0.0041
3500.00,0.0041
3499.00,0.0041
3498.00,0.0042
3497.00,0.0043
3496.00,0.0043
3495.00,0.0044
3494.00,0.0044
3493.00,0.0044
3492.00,0.0045
3491.00,0.0045
3490.00,0.0045
3489.00,0.0045
3488.00,0.0046
3487.00,0.0046
3486.00,0.0046
3485.00,0.0046
3484.00,0.0047
3483.00,0.0047
3482.00,0.0047
3481.00,0.0048
3480.00,0.0048
3479.00,0.0048
3478.00,0.0048
3477.00,0.0049
3476.00,0.0049
3475.00,0.0049
3474.00,0.0050
3473.00,0.0050
3472.00,0.0050
3471.00,0.0050
3470.00,0.0050
3469.00,0.0050
3468.00,0.0050
3467.00,0.0050
3466.00,0.0050
3465.00,0.0051
3464.00,0.0051
3463.00,0.0051
3462.00,0.0051
3461.00,0.0051
3460.00,0.0051
3459.00,0.0051
3458.00,0.0051
3457.00,0.0051
3456.00,0.0051
3455.00,0.0051
3454.00,0.0051
3453.00,0.0051
3452.00,0.0051
3451.00,0.0051
3450.00,0.0051
3449.00,0.0051
3448.00,0.0051
3447.00,0.0050
3446.00,0.0050
3445.00,0.0050
3444.00,0.0050
3443.00,0.0050
3442.00,0.0051
3441.00,0.0050
3440.00,0.0050
3439.00,0.0050
3438.00,0.0050
3437.00,0.0050
3436.00,0.0050
3435.00,0.0049
3434.00,0.0049
3433.00,0.0049
3432.00,0.0049
3431.00,0.0049
3430.00,0.0050
3429.00,0.0050
3428.00,0.0050
3427.00,0.0049
3426.00,0.0049
3425.00,0.0049
3424.00,0.0049
3423.00,0.0049
3422.00,0.0050
3421.00,0.0050
3420.00,0.0050
3419.00,0.0050
3418.00,0.0049
3417.00,0.0049
3416.00,0.0048
3415.00,0.0048
3414.00,0.0048
3413.00,0.0049
3412.00,0.0049
3411.00,0.0049
3410.00,0.0049
3409.00,0.0049
3408.00,0.0049
3407.00,0.0049
3406.00,0.0049
3405.00,0.0049
3404.00,0.0049
3403.00,0.0049
3402.00,0.0049
3401.00,0.0049
3400.00,0.0049
3399.00,0.0049
3398.00,0.0049
3397.00,0.0049
3396.00,0.0049
3395.00,0.0049
3394.00,0.0049
3393.00,0.0049
3392.00,0.0049
3391.00,0.0049
3390.00,0.0049
3389.00,0.0049
3388.00,0.0050
3387.00,0.0050
3386.00,0.0050
3385.00,0.0050
3384.00,0.0050
3383.00,0.0050
3382.00,0.0050
3381.00,0.0050
3380.00,0.0050
3379.00,0.0050
3378.00,0.0050
3377.00,0.0051
3376.00,0.0051
3375.00,0.0051
3374.00,0.0051
3373.00,0.0051
3372.00,0.0051
3371.00,0.0051
3370.00,0.0051
3369.00,0.0051
3368.00,0.0051
3367.00,0.0051
3366.00,0.0051
3365.00,0.0051
3364.00,0.0051
3363.00,0.0051
3362.00,0.0051
3361.00,0.0051
3360.00,0.0052
3359.00,0.0052
3358.00,0.0052
3357.00,0.0052
3356.00,0.0052
3355.00,0.0052
3354.00,0.0052
3353.00,0.0051
3352.00,0.0051
3351.00,0.0052
3350.00,0.0052
3349.00,0.0052
3348.00,0.0052
3347.00,0.0052
3346.00,0.0051
3345.00,0.0051
3344.00,0.0051
3343.00,0.0051
3342.00,0.0051
3341.00,0.0051
3340.00,0.0051
3339.00,0.0050
3338.00,0.0050
3337.00,0.0050
3336.00,0.0050
3335.00,0.0050
3334.00,0.0050
3333.00,0.0050
3332.00,0.0050
3331.00,0.0050
3330.00,0.0050
3329.00,0.0049
3328.00,0.0049
3327.00,0.0049
3326.00,0.0049
3325.00,0.0049
3324.00,0.0049
3323.00,0.0049
3322.00,0.0049
3321.00,0.0049
3320.00,0.0049
3319.00,0.0049
3318.00,0.0049
3317.00,0.0049
3316.00,0.0048
3315.00,0.0048
3314.00,0.0048
3313.00,0.0048
3312.00,0.0048
3311.00,0.0047
3310.00,0.0047
3309.00,0.0047
3308.00,0.0047
3307.00,0.0047
3306.00,0.0047
3305.00,0.0047
3304.00,0.0047
3303.00,0.0047
3302.00,0.0047
3301.00,0.0047
3300.00,0.0047
3299.00,0.0047
3298.00,0.0047
3297.00,0.0047
3296.00,0.0047
3295.00,0.0047
3294.00,0.0046
3293.00,0.0046
3292.00,0.0046
3291.00,0.0046
3290.00,0.0047
3289.00,0.0047
3288.00,0.0047
3287.00,0.0047
3286.00,0.0047
3285.00,0.0047
3284.00,0.0047
3283.00,0.0046
3282.00,0.0046
3281.00,0.0046
3280.00,0.0046
3279.00,0.0046
3278.00,0.0046
3277.00,0.0046
3276.00,0.0046
3275.00,0.0046
3274.00,0.0046
3273.00,0.0046
3272.00,0.0046
3271.00,0.0046
3270.00,0.0046
3269.00,0.0046
3268.00,0.0046
3267.00,0.0046
3266.00,0.0046
3265.00,0.0046
3264.00,0.0046
3263.00,0.0047
3262.00,0.0047
3261.00,0.0047
3260.00,0.0047
3259.00,0.0046
3258.00,0.0046
3257.00,0.0046
3256.00,0.0046
3255.00,0.0046
3254.00,0.0046
3253.00,0.0046
3252.00,0.0046
3251.00,0.0046
3250.00,0.0046
3249.00,0.0046
3248.00,0.0046
3247.00,0.0046
3246.00,0.0046
3245.00,0.0046
3244.00,0.0046
3243.00,0.0046
3242.00,0.0046
3241.00,0.0046
3240.00,0.0046
3239.00,0.0046
3238.00,0.0046
3237.00,0.0046
3236.00,0.0046
3235.00,0.0046
3234.00,0.0046
3233.00,0.0046
3232.00,0.0046
3231.00,0.0046
3230.00,0.0046
3229.00,0.0047
3228.00,0.0047
3227.00,0.0047
3226.00,0.0047
3225.00,0.0047
3224.00,0.0047
3223.00,0.0047
3222.00,0.0046
3221.00,0.0046
3220.00,0.0046
3219.00,0.0047
3218.00,0.0047
3217.00,0.0047
3216.00,0.0047
3215.00,0.0047
3214.00,0.0047
3213.00,0.0047
3212.00,0.0047
3211.00,0.0048
3210.00,0.0048
3209.00,0.0048
3208.00,0.0048
3207.00,0.0048
3206.00,0.0048
3205.00,0.0048
3204.00,0.0048
3203.00,0.0048
3202.00,0.0048
3201.00,0.0048
3200.00,0.0048
3199.00,0.0048
3198.00,0.0048
3197.00,0.0047
3196.00,0.0047
3195.00,0.0047
3194.00,0.0047
3193.00,0.0046
3192.00,0.0046
3191.00,0.0046
3190.00,0.0046
3189.00,0.0045
3188.00,0.0045
3187.00,0.0045
3186.00,0.0045
3185.00,0.0045
3184.00,0.0045
3183.00,0.0045
3182.00,0.0045
3181.00,0.0045
3180.00,0.0045
3179.00,0.0045
3178.00,0.0045
3177.00,0.0044
3176.00,0.0044
3175.00,0.0044
3174.00,0.0044
3173.00,0.0044
3172.00,0.0044
3171.00,0.0045
3170.00,0.0045
3169.00,0.0045
3168.00,0.0045
3167.00,0.0046
3166.00,0.0046
3165.00,0.0046
3164.00,0.0046
3163.00,0.0045
3162.00,0.0045
3161.00,0.0045
3160.00,0.0045
3159.00,0.0045
3158.00,0.0044
3157.00,0.0044
3156.00,0.0043
3155.00,0.0043
3154.00,0.0043
3153.00,0.0042
3152.00,0.0042
3151.00,0.0042
3150.00,0.0042
3149.00,0.0042
3148.00,0.0042
3147.00,0.0042
3146.00,0.0042
3145.00,0.0042
3144.00,0.0042
3143.00,0.0042
3142.00,0.0041
3141.00,0.0041
3140.00,0.0041
3139.00,0.0041
3138.00,0.0041
3137.00,0.0041
3136.00,0.0041
3135.00,0.0041
3134.00,0.0041
3133.00,0.0042
3132.00,0.0042
3131.00,0.0042
3130.00,0.0042
3129.00,0.0042
3128.00,0.0042
3127.00,0.0042
3126.00,0.0042
3125.00,0.0042
3124.00,0.0042
3123.00,0.0042
3122.00,0.0043
3121.00,0.0043
3120.00,0.0043
3119.00,0.0044
3118.00,0.0044
3117.00,0.0045
3116.00,0.0046
3115.00,0.0047
3114.00,0.0049
3113.00,0.0051
3112.00,0.0053
3111.00,0.0056
3110.00,0.0058
3109.00,0.0061
3108.00,0.0064
3107.00,0.0067
3106.00,0.0069
3105.00,0.0071
3104.00,0.0071
3103.00,0.0072
3102.00,0.0071
3101.00,0.0071
3100.00,0.0070
3099.00,0.0069
3098.00,0.0069
3097.00,0.0068
3096.00,0.0069
3095.00,0.0070
3094.00,0.0073
3093.00,0.0076
3092.00,0.0080
3091.00,0.0085
3090.00,0.0092
3089.00,0.0100
3088.00,0.0109
3087.00,0.0119
3086.00,0.0129
3085.00,0.0138
3084.00,0.0144
3083.00,0.0147
3082.00,0.0148
3081.00,0.0145
3080.00,0.0140
3079.00,0.0134
3078.00,0.0128
3077.00,0.0122
3076.00,0.0118
3075.00,0.0115
3074.00,0.0114
3073.00,0.0114
3072.00,0.0115
3071.00,0.0118
3070.00,0.0122
3069.00,0.0127
3068.00,0.0134
3067.00,0.0143
3066.00,0.0152
3065.00,0.0163
3064.00,0.0173
3063.00,0.0183
3062.00,0.0191
3061.00,0.0196
3060.00,0.0197
3059.00,0.0196
3058.00,0.0191
3057.00,0.0183
3056.00,0.0174
3055.00,0.0164
3054.00,0.0154
3053.00,0.0145
3052.00,0.0136
3051.00,0.0129
3050.00,0.0123
3049.00,0.0118
3048.00,0.0114
3047.00,0.0112
3046.00,0.0110
3045.00,0.0110
3044.00,0.0111
3043.00,0.0113
3042.00,0.0116
3041.00,0.0121
3040.00,0.0127
3039.00,0.0134
3038.00,0.0143
3037.00,0.0154
3036.00,0.0166
3035.00,0.0181
3034.00,0.0199
3033.00,0.0220
3032.00,0.0244
3031.00,0.0269
3030.00,0.0295
3029.00,0.0319
3028.00,0.0341
3027.00,0.0357
3026.00,0.0365
3025.00,0.0365
3024.00,0.0356
3023.00,0.0337
3022.00,0.0313
3021.00,0.0284
3020.00,0.0255
3019.00,0.0227
3018.00,0.0201
3017.00,0.0180
3016.00,0.0162
3015.00,0.0148
3014.00,0.0137
3013.00,0.0129
3012.00,0.0123
3011.00,0.0119
3010.00,0.0118
3009.00,0.0118
3008.00,0.0120
3007.00,0.0124
3006.00,0.0128
3005.00,0.0133
3004.00,0.0138
3003.00,0.0142
3002.00,0.0145
3001.00,0.0146
3000.00,0.0145
2999.00,0.0142
2998.00,0.0138
2997.00,0.0133
2996.00,0.0128
2995.00,0.0123
2994.00,0.0120
2993.00,0.0117
2992.00,0.0116
2991.00,0.0115
2990.00,0.0115
2989.00,0.0115
2988.00,0.0116
2987.00,0.0118
2986.00,0.0120
2985.00,0.0125
2984.00,0.0131
2983.00,0.0137
2982.00,0.0142
2981.00,0.0144
2980.00,0.0144
2979.00,0.0143
2978.00,0.0141
2977.00,0.0139
2976.00,0.0138
2975.00,0.0138
2974.00,0.0140
2973.00,0.0142
2972.00,0.0144
2971.00,0.0146
2970.00,0.0146
2969.00,0.0146
2968.00,0.0145
2967.00,0.0145
2966.00,0.0146
2965.00,0.0147
2964.00,0.0148
2963.00,0.0150
2962.00,0.0151
2961.00,0.0153
2960.00,0.0155
2959.00,0.0158
2958.00,0.0160
2957.00,0.0163
2956.00,0.0165
2955.00,0.0168
2954.00,0.0172
2953.00,0.0175
2952.00,0.0179
2951.00,0.0184
2950.00,0.0189
2949.00,0.0195
2948.00,0.0201
2947.00,0.0208
2946.00,0.0216
2945.00,0.0225
2944.00,0.0235
2943.00,0.0246
2942.00,0.0258
2941.00,0.0271
2940.00,0.0285
2939.00,0.0300
2938.00,0.0315
2937.00,0.0332
2936.00,0.0349
2935.00,0.0366
2934.00,0.0384
2933.00,0.0402
2932.00,0.0419
2931.00,0.0436
2930.00,0.0452
2929.00,0.0467
2928.00,0.0480
2927.00,0.0491
2926.00,0.0501
2925.00,0.0508
2924.00,0.0512
2923.00,0.0514
2922.00,0.0514
2921.00,0.0511
2920.00,0.0506
2919.00,0.0500
2918.00,0.0493
2917.00,0.0484
2916.00,0.0474
2915.00,0.0463
2914.00,0.0452
2913.00,0.0440
2912.00,0.0429
2911.00,0.0417
2910.00,0.0405
2909.00,0.0393
2908.00,0.0381
2907.00,0.0369
2906.00,0.0358
2905.00,0.0346
2904.00,0.0334
2903.00,0.0323
2902.00,0.0311
2901.00,0.0300
2900.00,0.0289
2899.00,0.0278
2898.00,0.0268
2897.00,0.0259
2896.00,0.0251
2895.00,0.0243
2894.00,0.0236
2893.00,0.0230
2892.00,0.0225
2891.00,0.0220
2890.00,0.0215
2889.00,0.0210
2888.00,0.0206
2887.00,0.0201
2886.00,0.0197
2885.00,0.0193
2884.00,0.0190
2883.00,0.0186
2882.00,0.0182
2881.00,0.0178
2880.00,0.0173
2879.00,0.0170
2878.00,0.0166
2877.00,0.0163
2876.00,0.0160
2875.00,0.0158
2874.00,0.0156
2873.00,0.0154
2872.00,0.0153
2871.00,0.0152
2870.00,0.0152
2869.00,0.0152
2868.00,0.0152
2867.00,0.0153
2866.00,0.0155
2865.00,0.0159
2864.00,0.0163
2863.00,0.0168
2862.00,0.0174
2861.00,0.0181
2860.00,0.0188
2859.00,0.0196
2858.00,0.0205
2857.00,0.0213
2856.00,0.0221
2855.00,0.0228
2854.00,0.0234
2853.00,0.0238
2852.00,0.0241
2851.00,0.0241
2850.00,0.0240
2849.00,0.0237
2848.00,0.0231
2847.00,0.0225
2846.00,0.0217
2845.00,0.0208
2844.00,0.0197
2843.00,0.0185
2842.00,0.0173
2841.00,0.0160
2840.00,0.0148
2839.00,0.0137
2838.00,0.0126
2837.00,0.0117
2836.00,0.0109
2835.00,0.0102
2834.00,0.0096
2833.00,0.0091
2832.00,0.0087
2831.00,0.0083
2830.00,0.0081
2829.00,0.0078
2828.00,0.0076
2827.00,0.0075
2826.00,0.0073
2825.00,0.0072
2824.00,0.0070
2823.00,0.0069
2822.00,0.0068
2821.00,0.0068
2820.00,0.0067
2819.00,0.0066
2818.00,0.0066
2817.00,0.0065
2816.00,0.0065
2815.00,0.0064
2814.00,0.0064
2813.00,0.0063
2812.00,0.0063
2811.00,0.0062
2810.00,0.0062
2809.00,0.0062
2808.00,0.0061
2807.00,0.0061
2806.00,0.0061
2805.00,0.0060
2804.00,0.0060
2803.00,0.0059
2802.00,0.0059
2801.00,0.0058
2800.00,0.0058
2799.00,0.0058
2798.00,0.0057
2797.00,0.0057
2796.00,0.0057
2795.00,0.0056
2794.00,0.0056
2793.00,0.0055
2792.00,0.0055
2791.00,0.0054
2790.00,0.0054
2789.00,0.0054
2788.00,0.0054
2787.00,0.0054
2786.00,0.0053
2785.00,0.0053
2784.00,0.0053
2783.00,0.0053
2782.00,0.0053
2781.00,0.0053
2780.00,0.0053
2779.00,0.0052
2778.00,0.0052
2777.00,0.0052
2776.00,0.0052
2775.00,0.0051
2774.00,0.0051
2773.00,0.0051
2772.00,0.0051
2771.00,0.0050
2770.00,0.0050
2769.00,0.0050
2768.00,0.0050
2767.00,0.0050
2766.00,0.0050
2765.00,0.0049
2764.00,0.0049
2763.00,0.0049
2762.00,0.0049
2761.00,0.0049
2760.00,0.0049
2759.00,0.0048
2758.00,0.0048
2757.00,0.0048
2756.00,0.0048
2755.00,0.0048
2754.00,0.0048
2753.00,0.0048
2752.00,0.0048
2751.00,0.0048
2750.00,0.0048
2749.00,0.0048
2748.00,0.0048
2747.00,0.0047
2746.00,0.0047
2745.00,0.0047
2744.00,0.0047
2743.00,0.0047
2742.00,0.0047
2741.00,0.0047
2740.00,0.0047
2739.00,0.0047
2738.00,0.0047
2737.00,0.0047
2736.00,0.0047
2735.00,0.0048
2734.00,0.0048
2733.00,0.0048
2732.00,0.0048
2731.00,0.0047
2730.00,0.0047
2729.00,0.0047
2728.00,0.0047
2727.00,0.0047
2726.00,0.0047
2725.00,0.0047
2724.00,0.0047
2723.00,0.0047
2722.00,0.0047
2721.00,0.0047
2720.00,0.0047
2719.00,0.0047
2718.00,0.0048
2717.00,0.0048
2716.00,0.0048
2715.00,0.0047
2714.00,0.0047
2713.00,0.0047
2712.00,0.0047
2711.00,0.0047
2710.00,0.0047
2709.00,0.0047
2708.00,0.0047
2707.00,0.0046
2706.00,0.0046
2705.00,0.0046
2704.00,0.0047
2703.00,0.0047
2702.00,0.0047
2701.00,0.0047
2700.00,0.0047
2699.00,0.0047
2698.00,0.0047
2697.00,0.0047
2696.00,0.0046
2695.00,0.0046
2694.00,0.0047
2693.00,0.0047
2692.00,0.0046
2691.00,0.0046
2690.00,0.0046
2689.00,0.0046
2688.00,0.0046
2687.00,0.0046
2686.00,0.0046
2685.00,0.0046
2684.00,0.0046
2683.00,0.0046
2682.00,0.0046
2681.00,0.0046
2680.00,0.0046
2679.00,0.0046
2678.00,0.0046
2677.00,0.0046
2676.00,0.0046
2675.00,0.0047
2674.00,0.0047
2673.00,0.0047
2672.00,0.0047
2671.00,0.0047
2670.00,0.0047
2669.00,0.0047
2668.00,0.0048
2667.00,0.0048
2666.00,0.0048
2665.00,0.0048
2664.00,0.0049
2663.00,0.0049
2662.00,0.0050
2661.00,0.0050
2660.00,0.0051
2659.00,0.0051
2658.00,0.0051
2657.00,0.0052
2656.00,0.0052
2655.00,0.0052
2654.00,0.0052
2653.00,0.0052
2652.00,0.0052
2651.00,0.0052
2650.00,0.0052
2649.00,0.0052
2648.00,0.0052
2647.00,0.0052
2646.00,0.0052
2645.00,0.0052
2644.00,0.0052
2643.00,0.0052
2642.00,0.0052
2641.00,0.0052
2640.00,0.0051
2639.00,0.0051
2638.00,0.0051
2637.00,0.0051
2636.00,0.0051
2635.00,0.0051
2634.00,0.0052
2633.00,0.0052
2632.00,0.0051
2631.00,0.0051
2630.00,0.0051
2629.00,0.0051
2628.00,0.0051
2627.00,0.0050
2626.00,0.0050
2625.00,0.0050
2624.00,0.0049
2623.00,0.0049
2622.00,0.0048
2621.00,0.0048
2620.00,0.0048
2619.00,0.0047
2618.00,0.0047
2617.00,0.0047
2616.00,0.0047
2615.00,0.0047
2614.00,0.0047
2613.00,0.0048
2612.00,0.0048
2611.00,0.0048
2610.00,0.0048
2609.00,0.0048
2608.00,0.0048
2607.00,0.0048
2606.00,0.0048
2605.00,0.0048
2604.00,0.0048
2603.00,0.0048
2602.00,0.0048
2601.00,0.0047
2600.00,0.0047
2599.00,0.0046
2598.00,0.0046
2597.00,0.0045
2596.00,0.0045
2595.00,0.0045
2594.00,0.0045
2593.00,0.0045
2592.00,0.0044
2591.00,0.0044
2590.00,0.0044
2589.00,0.0044
2588.00,0.0044
2587.00,0.0044
2586.00,0.0044
2585.00,0.0044
2584.00,0.0044
2583.00,0.0044
2582.00,0.0043
2581.00,0.0043
2580.00,0.0043
2579.00,0.0043
2578.00,0.0043
2577.00,0.0043
2576.00,0.0043
2575.00,0.0043
2574.00,0.0043
2573.00,0.0043
2572.00,0.0043
2571.00,0.0043
2570.00,0.0043
2569.00,0.0043
2568.00,0.0042
2567.00,0.0041
2566.00,0.0041
2565.00,0.0041
2564.00,0.0041
2563.00,0.0041
2562.00,0.0041
2561.00,0.0041
2560.00,0.0041
2559.00,0.0041
2558.00,0.0041
2557.00,0.0041
2556.00,0.0041
2555.00,0.0041
2554.00,0.0040
2553.00,0.0040
2552.00,0.0040
2551.00,0.0040
2550.00,0.0040
2549.00,0.0040
2548.00,0.0040
2547.00,0.0040
2546.00,0.0040
2545.00,0.0040
2544.00,0.0040
2543.00,0.0040
2542.00,0.0039
2541.00,0.0039
2540.00,0.0039
2539.00,0.0038
2538.00,0.0038
2537.00,0.0038
2536.00,0.0038
2535.00,0.0038
2534.00,0.0038
2533.00,0.0038
2532.00,0.0038
2531.00,0.0038
2530.00,0.0038
2529.00,0.0038
2528.00,0.0038
2527.00,0.0038
2526.00,0.0038
2525.00,0.0038
2524.00,0.0039
2523.00,0.0039
2522.00,0.0039
2521.00,0.0039
2520.00,0.0039
2519.00,0.0039
2518.00,0.0038
2517.00,0.0038
2516.00,0.0038
2515.00,0.0037
2514.00,0.0037
2513.00,0.0037
2512.00,0.0038
2511.00,0.0038
2510.00,0.0038
2509.00,0.0038
2508.00,0.0038
2507.00,0.0038
2506.00,0.0038
2505.00,0.0038
2504.00,0.0038
2503.00,0.0038
2502.00,0.0038
2501.00,0.0038
2500.00,0.0037
2499.00,0.0037
2498.00,0.0037
2497.00,0.0037
2496.00,0.0037
2495.00,0.0038
2494.00,0.0038
2493.00,0.0037
2492.00,0.0036
2491.00,0.0036
2490.00,0.0035
2489.00,0.0035
2488.00,0.0036
2487.00,0.0036
2486.00,0.0036
2485.00,0.0036
2484.00,0.0036
2483.00,0.0036
2482.00,0.0036
2481.00,0.0036
2480.00,0.0036
2479.00,0.0036
2478.00,0.0036
2477.00,0.0036
2476.00,0.0035
2475.00,0.0035
2474.00,0.0035
2473.00,0.0034
2472.00,0.0034
2471.00,0.0034
2470.00,0.0035
2469.00,0.0034
2468.00,0.0034
2467.00,0.0034
2466.00,0.0034
2465.00,0.0034
2464.00,0.0034
2463.00,0.0035
2462.00,0.0035
2461.00,0.0036
2460.00,0.0036
2459.00,0.0036
2458.00,0.0036
2457.00,0.0036
2456.00,0.0035
2455.00,0.0036
2454.00,0.0036
2453.00,0.0036
2452.00,0.0036
2451.00,0.0036
2450.00,0.0035
2449.00,0.0034
2448.00,0.0034
2447.00,0.0034
2446.00,0.0033
2445.00,0.0034
2444.00,0.0034
2443.00,0.0034
2442.00,0.0034
2441.00,0.0034
2440.00,0.0034
2439.00,0.0034
2438.00,0.0033
2437.00,0.0033
2436.00,0.0033
2435.00,0.0033
2434.00,0.0033
2433.00,0.0033
2432.00,0.0033
2431.00,0.0033
2430.00,0.0032
2429.00,0.0032
2428.00,0.0031
2427.00,0.0031
2426.00,0.0031
2425.00,0.0030
2424.00,0.0030
2423.00,0.0030
2422.00,0.0031
2421.00,0.0031
2420.00,0.0031
2419.00,0.0031
2418.00,0.0031
2417.00,0.0031
2416.00,0.0031
2415.00,0.0031
2414.00,0.0032
2413.00,0.0031
2412.00,0.0031
2411.00,0.0031
2410.00,0.0031
2409.00,0.0031
2408.00,0.0030
2407.00,0.0030
2406.00,0.0029
2405.00,0.0029
2404.00,0.0029
2403.00,0.0029
2402.00,0.0029
2401.00,0.0029
2400.00,0.0029
2399.00,0.0029
2398.00,0.0029
2397.00,0.0029
2396.00,0.0030
2395.00,0.0029
2394.00,0.0029
2393.00,0.0029
2392.00,0.0029
2391.00,0.0029
2390.00,0.0029
2389.00,0.0029
2388.00,0.0029
2387.00,0.0029
2386.00,0.0029
2385.00,0.0029
2384.00,0.0029
2383.00,0.0029
2382.00,0.0029
2381.00,0.0030
2380.00,0.0030
2379.00,0.0030
2378.00,0.0030
2377.00,0.0030
2376.00,0.0030
2375.00,0.0030
2374.00,0.0030
2373.00,0.0029
2372.00,0.0029
2371.00,0.0029
2370.00,0.0029
2369.00,0.0029
2368.00,0.0029
2367.00,0.0029
2366.00,0.0029
2365.00,0.0030
2364.00,0.0031
2363.00,0.0032
2362.00,0.0033
2361.00,0.0033
2360.00,0.0033
2359.00,0.0033
2358.00,0.0033
2357.00,0.0033
2356.00,0.0034
2355.00,0.0034
2354.00,0.0034
2353.00,0.0034
2352.00,0.0034
2351.00,0.0035
2350.00,0.0035
2349.00,0.0035
2348.00,0.0036
2347.00,0.0036
2346.00,0.0037
2345.00,0.0037
2344.00,0.0037
2343.00,0.0038
2342.00,0.0039
2341.00,0.0039
2340.00,0.0040
2339.00,0.0040
2338.00,0.0040
2337.00,0.0040
2336.00,0.0040
2335.00,0.0040
2334.00,0.0040
2333.00,0.0040
2332.00,0.0040
2331.00,0.0040
2330.00,0.0040
2329.00,0.0041
2328.00,0.0044
2327.00,0.0048
2326.00,0.0051
2325.00,0.0053
2324.00,0.0052
2323.00,0.0050
2322.00,0.0047
2321.00,0.0046
2320.00,0.0044
2319.00,0.0044
2318.00,0.0044
2317.00,0.0044
2316.00,0.0044
2315.00,0.0044
2314.00,0.0044
2313.00,0.0043
2312.00,0.0043
2311.00,0.0043
2310.00,0.0042
2309.00,0.0041
2308.00,0.0041
2307.00,0.0040
2306.00,0.0040
2305.00,0.0040
2304.00,0.0040
2303.00,0.0040
2302.00,0.0040
2301.00,0.0040
2300.00,0.0040
2299.00,0.0040
2298.00,0.0040
2297.00,0.0041
2296.00,0.0041
2295.00,0.0042
2294.00,0.0042
2293.00,0.0043
2292.00,0.0043
2291.00,0.0044
2290.00,0.0044
2289.00,0.0044
2288.00,0.0044
2287.00,0.0044
2286.00,0.0043
2285.00,0.0043
2284.00,0.0042
2283.00,0.0041
2282.00,0.0040
2281.00,0.0040
2280.00,0.0040
2279.00,0.0040
2278.00,0.0039
2277.00,0.0038
2276.00,0.0038
2275.00,0.0037
2274.00,0.0037
2273.00,0.0037
2272.00,0.0038
2271.00,0.0038
2270.00,0.0037
2269.00,0.0037
2268.00,0.0036
2267.00,0.0035
2266.00,0.0035
2265.00,0.0034
2264.00,0.0034
2263.00,0.0035
2262.00,0.0035
2261.00,0.0036
2260.00,0.0036
2259.00,0.0036
2258.00,0.0035
2257.00,0.0034
2256.00,0.0032
2255.00,0.0031
2254.00,0.0031
2253.00,0.0032
2252.00,0.0032
2251.00,0.0032
2250.00,0.0031
2249.00,0.0031
2248.00,0.0030
2247.00,0.0030
2246.00,0.0030
2245.00,0.0031
2244.00,0.0031
2243.00,0.0032
2242.00,0.0032
2241.00,0.0033
2240.00,0.0033
2239.00,0.0033
2238.00,0.0033
2237.00,0.0032
2236.00,0.0032
2235.00,0.0032
2234.00,0.0032
2233.00,0.0033
2232.00,0.0033
2231.00,0.0033
2230.00,0.0033
2229.00,0.0033
2228.00,0.0033
2227.00,0.0033
2226.00,0.0032
2225.00,0.0032
2224.00,0.0031
2223.00,0.0030
2222.00,0.0029
2221.00,0.0029
2220.00,0.0029
2219.00,0.0029
2218.00,0.0029
2217.00,0.0029
2216.00,0.0029
2215.00,0.0029
2214.00,0.0029
2213.00,0.0030
2212.00,0.0031
2211.00,0.0031
2210.00,0.0031
2209.00,0.0031
2208.00,0.0031
2207.00,0.0030
2206.00,0.0030
2205.00,0.0030
2204.00,0.0030
2203.00,0.0030
2202.00,0.0030
2201.00,0.0030
2200.00,0.0030
2199.00,0.0030
2198.00,0.0030
2197.00,0.0030
2196.00,0.0030
2195.00,0.0031
2194.00,0.0031
2193.00,0.0032
2192.00,0.0032
2191.00,0.0032
2190.00,0.0033
2189.00,0.0034
2188.00,0.0035
2187.00,0.0035
2186.00,0.0035
2185.00,0.0033
2184.00,0.0031
2183.00,0.0027
2182.00,0.0024
2181.00,0.0022
2180.00,0.0022
2179.00,0.0023
2178.00,0.0023
2177.00,0.0022
2176.00,0.0021
2175.00,0.0021
2174.00,0.0023
2173.00,0.0027
2172.00,0.0031
2171.00,0.0034
2170.00,0.0036
2169.00,0.0038
2168.00,0.0039
2167.00,0.0039
2166.00,0.0039
2165.00,0.0040
2164.00,0.0042
2163.00,0.0043
2162.00,0.0038
2161.00,0.0027
2160.00,0.0013
2159.00,0.0001
2158.00,-0.0006
2157.00,-0.0006
2156.00,-0.0003
2155.00,-0.0001
2154.00,0.0001
2153.00,0.0003
2152.00,0.0004
2151.00,0.0005
2150.00,0.0006
2149.00,0.0007
2148.00,0.0008
2147.00,0.0008
2146.00,0.0008
2145.00,0.0008
2144.00,0.0007
2143.00,0.0007
2142.00,0.0007
2141.00,0.0007
2140.00,0.0007
2139.00,0.0007
2138.00,0.0006
2137.00,0.0004
2136.00,0.0002
2135.00,0.0000
2134.00,-0.0000
2133.00,0.0001
2132.00,0.0003
2131.00,0.0005
2130.00,0.0007
2129.00,0.0009
2128.00,0.0010
2127.00,0.0012
2126.00,0.0013
2125.00,0.0014
2124.00,0.0016
2123.00,0.0017
2122.00,0.0017
2121.00,0.0018
2120.00,0.0020
2119.00,0.0021
2118.00,0.0022
2117.00,0.0023
2116.00,0.0024
2115.00,0.0024
2114.00,0.0024
2113.00,0.0025
2112.00,0.0025
2111.00,0.0025
2110.00,0.0025
2109.00,0.0025
2108.00,0.0025
2107.00,0.0024
2106.00,0.0023
2105.00,0.0023
2104.00,0.0023
2103.00,0.0023
2102.00,0.0024
2101.00,0.0025
2100.00,0.0025
2099.00,0.0024
2098.00,0.0022
2097.00,0.0020
2096.00,0.0018
2095.00,0.0017
2094.00,0.0017
2093.00,0.0018
2092.00,0.0020
2091.00,0.0022
2090.00,0.0023
2089.00,0.0024
2088.00,0.0025
2087.00,0.0026
2086.00,0.0026
2085.00,0.0027
2084.00,0.0027
2083.00,0.0027
2082.00,0.0027
2081.00,0.0026
2080.00,0.0026
2079.00,0.0026
2078.00,0.0026
2077.00,0.0026
2076.00,0.0025
2075.00,0.0025
2074.00,0.0024
2073.00,0.0024
2072.00,0.0024
2071.00,0.0024
2070.00,0.0024
2069.00,0.0024
2068.00,0.0024
2067.00,0.0023
2066.00,0.0022
2065.00,0.0021
2064.00,0.0022
2063.00,0.0022
2062.00,0.0022
2061.00,0.0022
2060.00,0.0021
2059.00,0.0020
2058.00,0.0020
2057.00,0.0020
2056.00,0.0020
2055.00,0.0021
2054.00,0.0024
2053.00,0.0028
2052.00,0.0032
2051.00,0.0032
2050.00,0.0029
2049.00,0.0025
2048.00,0.0022
2047.00,0.0021
2046.00,0.0020
2045.00,0.0020
2044.00,0.0021
2043.00,0.0022
2042.00,0.0022
2041.00,0.0022
2040.00,0.0022
2039.00,0.0022
2038.00,0.0021
2037.00,0.0021
2036.00,0.0021
2035.00,0.0020
2034.00,0.0018
2033.00,0.0017
2032.00,0.0016
2031.00,0.0016
2030.00,0.0015
2029.00,0.0015
2028.00,0.0015
2027.00,0.0015
2026.00,0.0015
2025.00,0.0015
2024.00,0.0016
2023.00,0.0015
2022.00,0.0014
2021.00,0.0014
2020.00,0.0013
2019.00,0.0012
2018.00,0.0012
2017.00,0.0012
2016.00,0.0013
2015.00,0.0013
2014.00,0.0013
2013.00,0.0013
2012.00,0.0013
2011.00,0.0013
2010.00,0.0013
2009.00,0.0012
2008.00,0.0010
2007.00,0.0008
2006.00,0.0006
2005.00,0.0006
2004.00,0.0008
2003.00,0.0011
2002.00,0.0013
2001.00,0.0015
2000.00,0.0016
1999.00,0.0016
1998.00,0.0017
1997.00,0.0018
1996.00,0.0020
1995.00,0.0021
1994.00,0.0023
1993.00,0.0025
1992.00,0.0027
1991.00,0.0027
1990.00,0.0026
1989.00,0.0026
1988.00,0.0027
1987.00,0.0029
1986.00,0.0031
1985.00,0.0034
1984.00,0.0036
1983.00,0.0039
1982.00,0.0041
1981.00,0.0041
1980.00,0.0037
1979.00,0.0030
1978.00,0.0022
1977.00,0.0017
1976.00,0.0016
1975.00,0.0015
1974.00,0.0015
1973.00,0.0016
1972.00,0.0018
1971.00,0.0021
1970.00,0.0023
1969.00,0.0025
1968.00,0.0027
1967.00,0.0029
1966.00,0.0030
1965.00,0.0031
1964.00,0.0032
1963.00,0.0032
1962.00,0.0031
1961.00,0.0030
1960.00,0.0030
1959.00,0.0031
1958.00,0.0033
1957.00,0.0036
1956.00,0.0038
1955.00,0.0041
1954.00,0.0042
1953.00,0.0044
1952.00,0.0046
1951.00,0.0048
1950.00,0.0050
1949.00,0.0052
1948.00,0.0055
1947.00,0.0057
1946.00,0.0059
1945.00,0.0060
1944.00,0.0062
1943.00,0.0062
1942.00,0.0062
1941.00,0.0060
1940.00,0.0059
1939.00,0.0056
1938.00,0.0054
1937.00,0.0051
1936.00,0.0048
1935.00,0.0044
1934.00,0.0041
1933.00,0.0039
1932.00,0.0038
1931.00,0.0036
1930.00,0.0034
1929.00,0.0033
1928.00,0.0031
1927.00,0.0029
1926.00,0.0028
1925.00,0.0027
1924.00,0.0028
1923.00,0.0028
1922.00,0.0027
1921.00,0.0026
1920.00,0.0026
1919.00,0.0024
1918.00,0.0024
1917.00,0.0023
1916.00,0.0023
1915.00,0.0023
1914.00,0.0023
1913.00,0.0023
1912.00,0.0024
1911.00,0.0024
1910.00,0.0023
1909.00,0.0023
1908.00,0.0024
1907.00,0.0024
1906.00,0.0024
1905.00,0.0025
1904.00,0.0026
1903.00,0.0027
1902.00,0.0028
1901.00,0.0029
1900.00,0.0030
1899.00,0.0030
1898.00,0.0030
1897.00,0.0031
1896.00,0.0033
1895.00,0.0034
1894.00,0.0036
1893.00,0.0037
1892.00,0.0040
1891.00,0.0041
1890.00,0.0043
1889.00,0.0044
1888.00,0.0045
1887.00,0.0046
1886.00,0.0046
1885.00,0.0048
1884.00,0.0049
1883.00,0.0050
1882.00,0.0050
1881.00,0.0051
1880.00,0.0053
1879.00,0.0054
1878.00,0.0054
1877.00,0.0055
1876.00,0.0056
1875.00,0.0057
1874.00,0.0057
1873.00,0.0057
1872.00,0.0058
1871.00,0.0059
1870.00,0.0059
1869.00,0.0059
1868.00,0.0059
1867.00,0.0058
1866.00,0.0056
1865.00,0.0054
1864.00,0.0053
1863.00,0.0051
1862.00,0.0048
1861.00,0.0046
1860.00,0.0045
1859.00,0.0043
1858.00,0.0041
1857.00,0.0039
1856.00,0.0037
1855.00,0.0035
1854.00,0.0034
1853.00,0.0032
1852.00,0.0031
1851.00,0.0030
1850.00,0.0029
1849.00,0.0028
1848.00,0.0028
1847.00,0.0027
1846.00,0.0027
1845.00,0.0026
1844.00,0.0027
1843.00,0.0027
1842.00,0.0026
1841.00,0.0026
1840.00,0.0026
1839.00,0.0027
1838.00,0.0027
1837.00,0.0028
1836.00,0.0029
1835.00,0.0029
1834.00,0.0029
1833.00,0.0030
1832.00,0.0031
1831.00,0.0033
1830.00,0.0034
1829.00,0.0035
1828.00,0.0035
1827.00,0.0036
1826.00,0.0037
1825.00,0.0038
1824.00,0.0039
1823.00,0.0041
1822.00,0.0041
1821.00,0.0042
1820.00,0.0043
1819.00,0.0044
1818.00,0.0044
1817.00,0.0046
1816.00,0.0048
1815.00,0.0050
1814.00,0.0052
1813.00,0.0054
1812.00,0.0056
1811.00,0.0058
1810.00,0.0059
1809.00,0.0061
1808.00,0.0063
1807.00,0.0065
1806.00,0.0066
1805.00,0.0066
1804.00,0.0067
1803.00,0.0068
1802.00,0.0068
1801.00,0.0068
1800.00,0.0067
1799.00,0.0066
1798.00,0.0064
1797.00,0.0062
1796.00,0.0060
1795.00,0.0058
1794.00,0.0056
1793.00,0.0053
1792.00,0.0051
1791.00,0.0049
1790.00,0.0047
1789.00,0.0045
1788.00,0.0044
1787.00,0.0044
1786.00,0.0043
1785.00,0.0043
1784.00,0.0043
1783.00,0.0043
1782.00,0.0043
1781.00,0.0043
1780.00,0.0043
1779.00,0.0043
1778.00,0.0043
1777.00,0.0044
1776.00,0.0045
1775.00,0.0046
1774.00,0.0047
1773.00,0.0048
1772.00,0.0048
1771.00,0.0048
1770.00,0.0048
1769.00,0.0047
1768.00,0.0047
1767.00,0.0049
1766.00,0.0050
1765.00,0.0052
1764.00,0.0054
1763.00,0.0057
1762.00,0.0059
1761.00,0.0062
1760.00,0.0063
1759.00,0.0065
1758.00,0.0068
1757.00,0.0071
1756.00,0.0075
1755.00,0.0078
1754.00,0.0081
1753.00,0.0083
1752.00,0.0086
1751.00,0.0090
1750.00,0.0094
1749.00,0.0098
1748.00,0.0101
1747.00,0.0103
1746.00,0.0104
1745.00,0.0106
1744.00,0.0106
1743.00,0.0107
1742.00,0.0107
1741.00,0.0107
1740.00,0.0105
1739.00,0.0104
1738.00,0.0102
1737.00,0.0100
1736.00,0.0097
1735.00,0.0094
1734.00,0.0091
1733.00,0.0089
1732.00,0.0087
1731.00,0.0086
1730.00,0.0085
1729.00,0.0084
1728.00,0.0084
1727.00,0.0083
1726.00,0.0082
1725.00,0.0080
1724.00,0.0079
1723.00,0.0078
1722.00,0.0077
1721.00,0.0076
1720.00,0.0075
1719.00,0.0074
1718.00,0.0072
1717.00,0.0071
1716.00,0.0070
1715.00,0.0069
1714.00,0.0067
1713.00,0.0067
1712.00,0.0067
1711.00,0.0066
1710.00,0.0066
1709.00,0.0065
1708.00,0.0065
1707.00,0.0065
1706.00,0.0065
1705.00,0.0065
1704.00,0.0065
1703.00,0.0064
1702.00,0.0061
1701.00,0.0060
1700.00,0.0061
1699.00,0.0060
1698.00,0.0058
1697.00,0.0056
1696.00,0.0057
1695.00,0.0059
1694.00,0.0060
1693.00,0.0061
1692.00,0.0061
1691.00,0.0062
1690.00,0.0063
1689.00,0.0064
1688.00,0.0065
1687.00,0.0065
1686.00,0.0065
1685.00,0.0067
1684.00,0.0071
1683.00,0.0073
1682.00,0.0074
1681.00,0.0075
1680.00,0.0075
1679.00,0.0076
1678.00,0.0078
1677.00,0.0079
1676.00,0.0081
1675.00,0.0082
1674.00,0.0082
1673.00,0.0082
1672.00,0.0083
1671.00,0.0083
1670.00,0.0085
1669.00,0.0086
1668.00,0.0085
1667.00,0.0085
1666.00,0.0085
1665.00,0.0084
1664.00,0.0084
1663.00,0.0083
1662.00,0.0082
1661.00,0.0080
1660.00,0.0079
1659.00,0.0077
1658.00,0.0076
1657.00,0.0076
1656.00,0.0076
1655.00,0.0075
1654.00,0.0075
1653.00,0.0074
1652.00,0.0072
1651.00,0.0070
1650.00,0.0069
1649.00,0.0068
1648.00,0.0067
1647.00,0.0066
1646.00,0.0065
1645.00,0.0064
1644.00,0.0064
1643.00,0.0064
1642.00,0.0064
1641.00,0.0064
1640.00,0.0065
1639.00,0.0065
1638.00,0.0066
1637.00,0.0067
1636.00,0.0068
1635.00,0.0069
1634.00,0.0070
1633.00,0.0070
1632.00,0.0071
1631.00,0.0071
1630.00,0.0071
1629.00,0.0072
1628.00,0.0074
1627.00,0.0074
1626.00,0.0075
1625.00,0.0076
1624.00,0.0077
1623.00,0.0077
1622.00,0.0077
1621.00,0.0078
1620.00,0.0078
1619.00,0.0079
1618.00,0.0080
1617.00,0.0082
1616.00,0.0085
1615.00,0.0088
1614.00,0.0091
1613.00,0.0096
1612.00,0.0102
1611.00,0.0111
1610.00,0.0124
1609.00,0.0142
1608.00,0.0167
1607.00,0.0197
1606.00,0.0232
1605.00,0.0271
1604.00,0.0310
1603.00,0.0344
1602.00,0.0366
1601.00,0.0373
1600.00,0.0361
1599.00,0.0335
1598.00,0.0300
1597.00,0.0263
1596.00,0.0230
1595.00,0.0202
1594.00,0.0180
1593.00,0.0163
1592.00,0.0150
1591.00,0.0140
1590.00,0.0133
1589.00,0.0130
1588.00,0.0131
1587.00,0.0137
1586.00,0.0147
1585.00,0.0159
1584.00,0.0168
1583.00,0.0168
1582.00,0.0161
1581.00,0.0147
1580.00,0.0131
1579.00,0.0115
1578.00,0.0102
1577.00,0.0092
1576.00,0.0084
1575.00,0.0078
1574.00,0.0074
1573.00,0.0071
1572.00,0.0069
1571.00,0.0066
1570.00,0.0064
1569.00,0.0062
1568.00,0.0059
1567.00,0.0057
1566.00,0.0055
1565.00,0.0055
1564.00,0.0055
1563.00,0.0055
1562.00,0.0055
1561.00,0.0056
1560.00,0.0056
1559.00,0.0055
1558.00,0.0054
1557.00,0.0055
1556.00,0.0056
1555.00,0.0056
1554.00,0.0057
1553.00,0.0057
1552.00,0.0058
1551.00,0.0059
1550.00,0.0060
1549.00,0.0061
1548.00,0.0062
1547.00,0.0062
1546.00,0.0063
1545.00,0.0065
1544.00,0.0067
1543.00,0.0068
1542.00,0.0068
1541.00,0.0067
1540.00,0.0065
1539.00,0.0061
1538.00,0.0059
1537.00,0.0059
1536.00,0.0058
1535.00,0.0057
1534.00,0.0055
1533.00,0.0053
1532.00,0.0052
1531.00,0.0050
1530.00,0.0048
1529.00,0.0048
1528.00,0.0048
1527.00,0.0048
1526.00,0.0048
1525.00,0.0047
1524.00,0.0048
1523.00,0.0048
1522.00,0.0049
1521.00,0.0049
1520.00,0.0050
1519.00,0.0050
1518.00,0.0050
1517.00,0.0050
1516.00,0.0050
1515.00,0.0051
1514.00,0.0052
1513.00,0.0053
1512.00,0.0054
1511.00,0.0057
1510.00,0.0058
1509.00,0.0059
1508.00,0.0062
1507.00,0.0067
1506.00,0.0072
1505.00,0.0079
1504.00,0.0087
1503.00,0.0097
1502.00,0.0110
1501.00,0.0130
1500.00,0.0160
1499.00,0.0205
1498.00,0.0277
1497.00,0.0387
1496.00,0.0531
1495.00,0.0682
1494.00,0.0801
1493.00,0.0863
1492.00,0.0853
1491.00,0.0771
1490.00,0.0644
1489.00,0.0515
1488.00,0.0412
1487.00,0.0336
1486.00,0.0280
1485.00,0.0238
1484.00,0.0205
1483.00,0.0179
1482.00,0.0159
1481.00,0.0143
1480.00,0.0133
1479.00,0.0125
1478.00,0.0119
1477.00,0.0115
1476.00,0.0114
1475.00,0.0113
1474.00,0.0112
1473.00,0.0112
1472.00,0.0114
1471.00,0.0115
1470.00,0.0116
1469.00,0.0119
1468.00,0.0122
1467.00,0.0126
1466.00,0.0130
1465.00,0.0135
1464.00,0.0142
1463.00,0.0149
1462.00,0.0158
1461.00,0.0170
1460.00,0.0189
1459.00,0.0221
1458.00,0.0283
1457.00,0.0390
1456.00,0.0529
1455.00,0.0665
1454.00,0.0781
1453.00,0.0864
1452.00,0.0901
1451.00,0.0886
1450.00,0.0832
1449.00,0.0763
1448.00,0.0694
1447.00,0.0634
1446.00,0.0584
1445.00,0.0540
1444.00,0.0498
1443.00,0.0457
1442.00,0.0420
1441.00,0.0387
1440.00,0.0358
1439.00,0.0331
1438.00,0.0304
1437.00,0.0275
1436.00,0.0246
1435.00,0.0222
1434.00,0.0202
1433.00,0.0185
1432.00,0.0169
1431.00,0.0156
1430.00,0.0144
1429.00,0.0134
1428.00,0.0126
1427.00,0.0120
1426.00,0.0115
1425.00,0.0111
1424.00,0.0107
1423.00,0.0104
1422.00,0.0103
1421.00,0.0102
1420.00,0.0100
1419.00,0.0099
1418.00,0.0098
1417.00,0.0096
1416.00,0.0095
1415.00,0.0095
1414.00,0.0095
1413.00,0.0095
1412.00,0.0095
1411.00,0.0095
1410.00,0.0096
1409.00,0.0096
1408.00,0.0096
1407.00,0.0096
1406.00,0.0097
1405.00,0.0098
1404.00,0.0099
1403.00,0.0100
1402.00,0.0102
1401.00,0.0103
1400.00,0.0105
1399.00,0.0107
1398.00,0.0110
1397.00,0.0113
1396.00,0.0116
1395.00,0.0121
1394.00,0.0126
1393.00,0.0130
1392.00,0.0134
1391.00,0.0139
1390.00,0.0145
1389.00,0.0151
1388.00,0.0158
1387.00,0.0166
1386.00,0.0173
1385.00,0.0180
1384.00,0.0186
1383.00,0.0192
1382.00,0.0198
1381.00,0.0203
1380.00,0.0207
1379.00,0.0212
1378.00,0.0216
1377.00,0.0220
1376.00,0.0224
1375.00,0.0227
1374.00,0.0229
1373.00,0.0230
1372.00,0.0229
1371.00,0.0227
1370.00,0.0225
1369.00,0.0223
1368.00,0.0220
1367.00,0.0217
1366.00,0.0215
1365.00,0.0213
1364.00,0.0210
1363.00,0.0208
1362.00,0.0205
1361.00,0.0202
1360.00,0.0198
1359.00,0.0195
1358.00,0.0192
1357.00,0.0189
1356.00,0.0187
1355.00,0.0185
1354.00,0.0183
1353.00,0.0182
1352.00,0.0182
1351.00,0.0181
1350.00,0.0180
1349.00,0.0180
1348.00,0.0178
1347.00,0.0176
1346.00,0.0174
1345.00,0.0172
1344.00,0.0169
1343.00,0.0166
1342.00,0.0162
1341.00,0.0160
1340.00,0.0157
1339.00,0.0156
1338.00,0.0156
1337.00,0.0156
1336.00,0.0158
1335.00,0.0161
1334.00,0.0164
1333.00,0.0168
1332.00,0.0172
1331.00,0.0176
1330.00,0.0178
1329.00,0.0180
1328.00,0.0180
1327.00,0.0179
1326.00,0.0176
1325.00,0.0174
1324.00,0.0171
1323.00,0.0169
1322.00,0.0167
1321.00,0.0165
1320.00,0.0165
1319.00,0.0165
1318.00,0.0166
1317.00,0.0167
1316.00,0.0169
1315.00,0.0171
1314.00,0.0172
1313.00,0.0173
1312.00,0.0173
1311.00,0.0172
1310.00,0.0171
1309.00,0.0169
1308.00,0.0167
1307.00,0.0165
1306.00,0.0162
1305.00,0.0160
1304.00,0.0157
1303.00,0.0155
1302.00,0.0152
1301.00,0.0150
1300.00,0.0147
1299.00,0.0145
1298.00,0.0144
1297.00,0.0143
1296.00,0.0142
1295.00,0.0142
1294.00,0.0141
1293.00,0.0140
1292.00,0.0139
1291.00,0.0138
1290.00,0.0137
1289.00,0.0136
1288.00,0.0135
1287.00,0.0134
1286.00,0.0134
1285.00,0.0134
1284.00,0.0134
1283.00,0.0134
1282.00,0.0134
1281.00,0.0134
1280.00,0.0134
1279.00,0.0134
1278.00,0.0132
1277.00,0.0131
1276.00,0.0130
1275.00,0.0128
1274.00,0.0127
1273.00,0.0126
1272.00,0.0125
1271.00,0.0124
1270.00,0.0124
1269.00,0.0124
1268.00,0.0124
1267.00,0.0123
1266.00,0.0124
1265.00,0.0124
1264.00,0.0124
1263.00,0.0124
1262.00,0.0123
1261.00,0.0123
1260.00,0.0122
1259.00,0.0122
1258.00,0.0122
1257.00,0.0122
1256.00,0.0123
1255.00,0.0123
1254.00,0.0124
1253.00,0.0125
1252.00,0.0125
1251.00,0.0126
1250.00,0.0125
1249.00,0.0125
1248.00,0.0125
1247.00,0.0125
1246.00,0.0124
1245.00,0.0124
1244.00,0.0123
1243.00,0.0122
1242.00,0.0122
1241.00,0.0121
1240.00,0.0120
1239.00,0.0119
1238.00,0.0119
1237.00,0.0118
1236.00,0.0117
1235.00,0.0116
1234.00,0.0116
1233.00,0.0115
1232.00,0.0114
1231.00,0.0113
1230.00,0.0113
1229.00,0.0112
1228.00,0.0112
1227.00,0.0111
1226.00,0.0111
1225.00,0.0110
1224.00,0.0109
1223.00,0.0109
1222.00,0.0108
1221.00,0.0108
1220.00,0.0107
1219.00,0.0106
1218.00,0.0106
1217.00,0.0106
1216.00,0.0106
1215.00,0.0107
1214.00,0.0108
1213.00,0.0109
1212.00,0.0110
1211.00,0.0112
1210.00,0.0114
1209.00,0.0116
1208.00,0.0119
1207.00,0.0122
1206.00,0.0125
1205.00,0.0129
1204.00,0.0132
1203.00,0.0136
1202.00,0.0140
1201.00,0.0143
1200.00,0.0147
1199.00,0.0149
1198.00,0.0152
1197.00,0.0153
1196.00,0.0155
1195.00,0.0155
1194.00,0.0156
1193.00,0.0157
1192.00,0.0158
1191.00,0.0159
1190.00,0.0161
1189.00,0.0164
1188.00,0.0168
1187.00,0.0173
1186.00,0.0181
1185.00,0.0190
1184.00,0.0200
1183.00,0.0209
1182.00,0.0215
1181.00,0.0217
1180.00,0.0214
1179.00,0.0206
1178.00,0.0195
1177.00,0.0184
1176.00,0.0174
1175.00,0.0165
1174.00,0.0159
1173.00,0.0155
1172.00,0.0153
1171.00,0.0152
1170.00,0.0152
1169.00,0.0152
1168.00,0.0152
1167.00,0.0154
1166.00,0.0155
1165.00,0.0157
1164.00,0.0160
1163.00,0.0163
1162.00,0.0168
1161.00,0.0176
1160.00,0.0186
1159.00,0.0198
1158.00,0.0211
1157.00,0.0223
1156.00,0.0234
1155.00,0.0239
1154.00,0.0238
1153.00,0.0230
1152.00,0.0218
1151.00,0.0202
1150.00,0.0187
1149.00,0.0173
1148.00,0.0162
1147.00,0.0154
1146.00,0.0147
1145.00,0.0141
1144.00,0.0137
1143.00,0.0132
1142.00,0.0128
1141.00,0.0125
1140.00,0.0123
1139.00,0.0120
1138.00,0.0119
1137.00,0.0117
1136.00,0.0116
1135.00,0.0114
1134.00,0.0113
1133.00,0.0112
1132.00,0.0113
1131.00,0.0113
1130.00,0.0113
1129.00,0.0114
1128.00,0.0114
1127.00,0.0114
1126.00,0.0115
1125.00,0.0115
1124.00,0.0116
1123.00,0.0117
1122.00,0.0119
1121.00,0.0120
1120.00,0.0123
1119.00,0.0125
1118.00,0.0128
1117.00,0.0131
1116.00,0.0134
1115.00,0.0137
1114.00,0.0139
1113.00,0.0140
1112.00,0.0140
1111.00,0.0140
1110.00,0.0139
1109.00,0.0139
1108.00,0.0138
1107.00,0.0137
1106.00,0.0136
1105.00,0.0136
1104.00,0.0137
1103.00,0.0137
1102.00,0.0138
1101.00,0.0139
1100.00,0.0140
1099.00,0.0141
1098.00,0.0143
1097.00,0.0145
1096.00,0.0147
1095.00,0.0150
1094.00,0.0152
1093.00,0.0154
1092.00,0.0156
1091.00,0.0159
1090.00,0.0161
1089.00,0.0164
1088.00,0.0168
1087.00,0.0171
1086.00,0.0175
1085.00,0.0180
1084.00,0.0185
1083.00,0.0191
1082.00,0.0197
1081.00,0.0203
1080.00,0.0209
1079.00,0.0215
1078.00,0.0221
1077.00,0.0228
1076.00,0.0237
1075.00,0.0247
1074.00,0.0258
1073.00,0.0269
1072.00,0.0279
1071.00,0.0287
1070.00,0.0292
1069.00,0.0293
1068.00,0.0291
1067.00,0.0285
1066.00,0.0277
1065.00,0.0268
1064.00,0.0258
1063.00,0.0247
1062.00,0.0236
1061.00,0.0226
1060.00,0.0217
1059.00,0.0209
1058.00,0.0201
1057.00,0.0195
1056.00,0.0189
1055.00,0.0184
1054.00,0.0179
1053.00,0.0175
1052.00,0.0171
1051.00,0.0167
1050.00,0.0163
1049.00,0.0160
1048.00,0.0158
1047.00,0.0155
1046.00,0.0153
1045.00,0.0152
1044.00,0.0151
1043.00,0.0150
1042.00,0.0150
1041.00,0.0152
1040.00,0.0156
1039.00,0.0162
1038.00,0.0173
1037.00,0.0189
1036.00,0.0212
1035.00,0.0242
1034.00,0.0279
1033.00,0.0321
1032.00,0.0363
1031.00,0.0402
1030.00,0.0433
1029.00,0.0453
1028.00,0.0461
1027.00,0.0453
1026.00,0.0432
1025.00,0.0403
1024.00,0.0371
1023.00,0.0341
1022.00,0.0316
1021.00,0.0294
1020.00,0.0277
1019.00,0.0262
1018.00,0.0249
1017.00,0.0237
1016.00,0.0227
1015.00,0.0218
1014.00,0.0210
1013.00,0.0203
1012.00,0.0198
1011.00,0.0193
1010.00,0.0189
1009.00,0.0187
1008.00,0.0187
1007.00,0.0189
1006.00,0.0193
1005.00,0.0198
1004.00,0.0202
1003.00,0.0202
1002.00,0.0197
1001.00,0.0188
1000.00,0.0178
999.00,0.0167
998.00,0.0158
997.00,0.0152
996.00,0.0149
995.00,0.0147
994.00,0.0146
993.00,0.0146
992.00,0.0146
991.00,0.0148
990.00,0.0150
989.00,0.0152
988.00,0.0156
987.00,0.0160
986.00,0.0164
985.00,0.0169
984.00,0.0174
983.00,0.0179
982.00,0.0183
981.00,0.0186
980.00,0.0187
979.00,0.0187
978.00,0.0186
977.00,0.0183
976.00,0.0181
975.00,0.0179
974.00,0.0178
973.00,0.0179
972.00,0.0181
971.00,0.0185
970.00,0.0191
969.00,0.0197
968.00,0.0205
967.00,0.0211
966.00,0.0216
965.00,0.0219
964.00,0.0220
963.00,0.0217
962.00,0.0212
961.00,0.0205
960.00,0.0198
959.00,0.0191
958.00,0.0185
957.00,0.0180
956.00,0.0177
955.00,0.0175
954.00,0.0173
953.00,0.0173
952.00,0.0173
951.00,0.0174
950.00,0.0175
949.00,0.0176
948.00,0.0178
947.00,0.0179
946.00,0.0179
945.00,0.0180
944.00,0.0180
943.00,0.0180
942.00,0.0178
941.00,0.0176
940.00,0.0172
939.00,0.0167
938.00,0.0161
937.00,0.0155
936.00,0.0149
935.00,0.0143
934.00,0.0137
933.00,0.0132
932.00,0.0128
931.00,0.0125
930.00,0.0122
929.00,0.0120
928.00,0.0119
927.00,0.0119
926.00,0.0119
925.00,0.0119
924.00,0.0121
923.00,0.0123
922.00,0.0125
921.00,0.0128
920.00,0.0133
919.00,0.0139
918.00,0.0146
917.00,0.0155
916.00,0.0166
915.00,0.0179
914.00,0.0195
913.00,0.0213
912.00,0.0233
911.00,0.0253
910.00,0.0272
909.00,0.0289
908.00,0.0301
907.00,0.0308
906.00,0.0308
905.00,0.0301
904.00,0.0289
903.00,0.0271
902.00,0.0250
901.00,0.0228
900.00,0.0206
899.00,0.0185
898.00,0.0167
897.00,0.0153
896.00,0.0141
895.00,0.0133
894.00,0.0126
893.00,0.0120
892.00,0.0116
891.00,0.0113
890.00,0.0109
889.00,0.0106
888.00,0.0103
887.00,0.0101
886.00,0.0098
885.00,0.0096
884.00,0.0095
883.00,0.0093
882.00,0.0092
881.00,0.0090
880.00,0.0089
879.00,0.0088
878.00,0.0087
877.00,0.0086
876.00,0.0086
875.00,0.0086
874.00,0.0085
873.00,0.0084
872.00,0.0083
871.00,0.0082
870.00,0.0082
869.00,0.0081
868.00,0.0081
867.00,0.0081
866.00,0.0080
865.00,0.0080
864.00,0.0081
863.00,0.0082
862.00,0.0082
861.00,0.0082
860.00,0.0082
859.00,0.0083
858.00,0.0082
857.00,0.0083
856.00,0.0084
855.00,0.0086
854.00,0.0088
853.00,0.0092
852.00,0.0097
851.00,0.0103
850.00,0.0110
849.00,0.0118
848.00,0.0127
847.00,0.0136
846.00,0.0144
845.00,0.0151
844.00,0.0158
843.00,0.0162
842.00,0.0164
841.00,0.0164
840.00,0.0161
839.00,0.0156
838.00,0.0148
837.00,0.0139
836.00,0.0130
835.00,0.0120
834.00,0.0111
833.00,0.0103
832.00,0.0097
831.00,0.0092
830.00,0.0088
829.00,0.0086
828.00,0.0085
827.00,0.0084
826.00,0.0083
825.00,0.0082
824.00,0.0082
823.00,0.0082
822.00,0.0082
821.00,0.0082
820.00,0.0083
819.00,0.0084
818.00,0.0084
817.00,0.0085
816.00,0.0086
815.00,0.0087
814.00,0.0087
813.00,0.0087
812.00,0.0088
811.00,0.0088
810.00,0.0088
809.00,0.0088
808.00,0.0088
807.00,0.0089
806.00,0.0089
805.00,0.0090
804.00,0.0091
803.00,0.0094
802.00,0.0095
801.00,0.0097
800.00,0.0100
799.00,0.0102
798.00,0.0105
797.00,0.0109
796.00,0.0113
795.00,0.0119
794.00,0.0124
793.00,0.0130
792.00,0.0137
791.00,0.0144
790.00,0.0151
789.00,0.0160
788.00,0.0169
787.00,0.0179
786.00,0.0189
785.00,0.0200
784.00,0.0212
783.00,0.0225
782.00,0.0239
781.00,0.0256
780.00,0.0276
779.00,0.0299
778.00,0.0325
777.00,0.0355
776.00,0.0388
775.00,0.0424
774.00,0.0463
773.00,0.0505
772.00,0.0550
771.00,0.0599
770.00,0.0650
769.00,0.0703
768.00,0.0757
767.00,0.0810
766.00,0.0861
765.00,0.0911
764.00,0.0962
763.00,0.1013
762.00,0.1065
761.00,0.1117
760.00,0.1169
759.00,0.1217
758.00,0.1258
757.00,0.1289
756.00,0.1309
755.00,0.1319
754.00,0.1318
753.00,0.1314
752.00,0.1309
751.00,0.1306
750.00,0.1303
749.00,0.1300
748.00,0.1292
747.00,0.1272
746.00,0.1233
745.00,0.1175
744.00,0.1100
743.00,0.1013
742.00,0.0922
741.00,0.0834
740.00,0.0752
739.00,0.0677
738.00,0.0609
737.00,0.0545
736.00,0.0485
735.00,0.0428
734.00,0.0374
733.00,0.0325
732.00,0.0283
731.00,0.0249
730.00,0.0222
729.00,0.0202
728.00,0.0187
727.00,0.0177
726.00,0.0169
725.00,0.0163
724.00,0.0160
723.00,0.0157
722.00,0.0155
721.00,0.0155
720.00,0.0156
719.00,0.0159
718.00,0.0163
717.00,0.0170
716.00,0.0181
715.00,0.0196
714.00,0.0218
713.00,0.0248
712.00,0.0290
711.00,0.0347
710.00,0.0424
709.00,0.0526
708.00,0.0656
707.00,0.0817
706.00,0.1010
705.00,0.1236
704.00,0.1497
703.00,0.1792
702.00,0.2121
701.00,0.2483
700.00,0.2873
699.00,0.3284
698.00,0.3698
697.00,0.4078
696.00,0.4356
695.00,0.4443
694.00,0.4285
693.00,0.3907
692.00,0.3405
691.00,0.2888
690.00,0.2427
689.00,0.2048
688.00,0.1750
687.00,0.1519
686.00,0.1339
685.00,0.1198
684.00,0.1085
683.00,0.0991
682.00,0.0912
681.00,0.0845
680.00,0.0788
679.00,0.0739
678.00,0.0697
677.00,0.0661
676.00,0.0632
675.00,0.0606
674.00,0.0583
673.00,0.0562
672.00,0.0544
671.00,0.0528
670.00,0.0512
669.00,0.0495
668.00,0.0477
667.00,0.0457
666.00,0.0438
665.00,0.0421
664.00,0.0405
663.00,0.0389
662.00,0.0373
661.00,0.0357
660.00,0.0342
659.00,0.0327
658.00,0.0312
657.00,0.0299
656.00,0.0287
655.00,0.0277
654.00,0.0266
653.00,0.0257
652.00,0.0250
651.00,0.0243
650.00,0.0236
649.00,0.0229
648.00,0.0224
647.00,0.0219
646.00,0.0215
645.00,0.0211
644.00,0.0208
643.00,0.0206
642.00,0.0204
641.00,0.0204
640.00,0.0205
639.00,0.0208
638.00,0.0211
637.00,0.0215
636.00,0.0220
635.00,0.0226
634.00,0.0231
633.00,0.0237
632.00,0.0243
631.00,0.0248
630.00,0.0252
629.00,0.0256
628.00,0.0259
627.00,0.0262
626.00,0.0264
625.00,0.0267
624.00,0.0271
623.00,0.0276
622.00,0.0281
621.00,0.0284
620.00,0.0283
619.00,0.0278
618.00,0.0269
617.00,0.0259
616.00,0.0252
615.00,0.0247
614.00,0.0242
613.00,0.0238
612.00,0.0235
611.00,0.0232
610.00,0.0228
609.00,0.0225
608.00,0.0223
607.00,0.0222
606.00,0.0220
605.00,0.0219
604.00,0.0221
603.00,0.0222
602.00,0.0223
601.00,0.0224
600.00,0.0226
599.00,0.0230
598.00,0.0233
597.00,0.0236
596.00,0.0239
595.00,0.0241
594.00,0.0244
593.00,0.0247
592.00,0.0252
591.00,0.0257
590.00,0.0260
589.00,0.0263
588.00,0.0268
587.00,0.0271
586.00,0.0274
585.00,0.0279
584.00,0.0285
583.00,0.0293
582.00,0.0300
581.00,0.0309
580.00,0.0320
579.00,0.0332
578.00,0.0344
577.00,0.0358
576.00,0.0376
575.00,0.0395
574.00,0.0412
573.00,0.0430
572.00,0.0448
571.00,0.0466
570.00,0.0483
569.00,0.0500
568.00,0.0517
567.00,0.0532
566.00,0.0547
565.00,0.0563
564.00,0.0582
563.00,0.0599
562.00,0.0615
561.00,0.0630
560.00,0.0648
559.00,0.0666
558.00,0.0683
557.00,0.0700
556.00,0.0720
555.00,0.0739
554.00,0.0758
553.00,0.0777
552.00,0.0801
551.00,0.0825
550.00,0.0850
549.00,0.0878
548.00,0.0912
547.00,0.0950
546.00,0.0990
545.00,0.1033
544.00,0.1080
543.00,0.1125
542.00,0.1164
541.00,0.1199
540.00,0.1229
539.00,0.1249
538.00,0.1252
537.00,0.1240
536.00,0.1214
535.00,0.1173
534.00,0.1120
533.00,0.1060
532.00,0.1000
531.00,0.0937
530.00,0.0873
529.00,0.0812
528.00,0.0757
527.00,0.0705
526.00,0.0655
525.00,0.0612
524.00,0.0578
523.00,0.0548
522.00,0.0519
521.00,0.0493
520.00,0.0473
519.00,0.0455
518.00,0.0437
517.00,0.0421
516.00,0.0409
515.00,0.0397
514.00,0.0385
513.00,0.0373
512.00,0.0363
511.00,0.0353
510.00,0.0340
509.00,0.0328
508.00,0.0320
507.00,0.0312
506.00,0.0300
505.00,0.0287
504.00,0.0278
503.00,0.0270
502.00,0.0261
501.00,0.0255
500.00,0.0253
499.00,0.0249
498.00,0.0244
497.00,0.0239
496.00,0.0238
495.00,0.0237
494.00,0.0232
493.00,0.0227
492.00,0.0223
491.00,0.0218
490.00,0.0212
489.00,0.0207
488.00,0.0206
487.00,0.0204
486.00,0.0199
485.00,0.0195
484.00,0.0194
483.00,0.0192
482.00,0.0189
481.00,0.0188
480.00,0.0191
479.00,0.0193
478.00,0.0190
477.00,0.0185
476.00,0.0182
475.00,0.0179
474.00,0.0171
473.00,0.0164
472.00,0.0164
471.00,0.0167
470.00,0.0169
469.00,0.0171
468.00,0.0174
467.00,0.0175
466.00,0.0171
465.00,0.0167
464.00,0.0167
463.00,0.0166
462.00,0.0161
461.00,0.0156
460.00,0.0154
459.00,0.0153
458.00,0.0150
457.00,0.0148
456.00,0.0150
455.00,0.0153
454.00,0.0151
453.00,0.0149
452.00,0.0152
451.00,0.0156
450.00,0.0155
449.00,0.0155
448.00,0.0156
447.00,0.0156
446.00,0.0152
445.00,0.0147
444.00,0.0148
443.00,0.0148
442.00,0.0144
441.00,0.0140
440.00,0.0141
439.00,0.0145
438.00,0.0145
437.00,0.0146
436.00,0.0150
435.00,0.0151
434.00,0.0145
433.00,0.0139
432.00,0.0140
431.00,0.0141
430.00,0.0138
429.00,0.0135
428.00,0.0137
427.00,0.0137
426.00,0.0132
425.00,0.0129
424.00,0.0134
423.00,0.0138
422.00,0.0134
421.00,0.0131
420.00,0.0134
419.00,0.0135
418.00,0.0126
417.00,0.0122
416.00,0.0130
415.00,0.0139
414.00,0.0138
413.00,0.0136
412.00,0.0142
411.00,0.0148
410.00,0.0145
409.00,0.0142
408.00,0.0146
407.00,0.0152
406.00,0.0151
405.00,0.0153
404.00,0.0163
403.00,0.0165
402.00,0.0150
401.00,0.0138
400.00,0.0144
