Created as New Dataset,Sample 618 By YargerLab Date Friday, June 06 2025
cm-1,A
4000.00,0.0060
3999.00,0.0060
3998.00,0.0060
3997.00,0.0061
3996.00,0.0061
3995.00,0.0061
3994.00,0.0061
3993.00,0.0061
3992.00,0.0061
3991.00,0.0061
3990.00,0.0061
3989.00,0.0061
3988.00,0.0060
3987.00,0.0060
3986.00,0.0060
3985.00,0.0060
3984.00,0.0060
3983.00,0.0060
3982.00,0.0061
3981.00,0.0061
3980.00,0.0061
3979.00,0.0061
3978.00,0.0061
3977.00,0.0061
3976.00,0.0061
3975.00,0.0061
3974.00,0.0061
3973.00,0.0061
3972.00,0.0061
3971.00,0.0061
3970.00,0.0061
3969.00,0.0061
3968.00,0.0061
3967.00,0.0061
3966.00,0.0061
3965.00,0.0061
3964.00,0.0061
3963.00,0.0061
3962.00,0.0061
3961.00,0.0062
3960.00,0.0062
3959.00,0.0062
3958.00,0.0062
3957.00,0.0062
3956.00,0.0062
3955.00,0.0062
3954.00,0.0061
3953.00,0.0061
3952.00,0.0061
3951.00,0.0061
3950.00,0.0062
3949.00,0.0062
3948.00,0.0062
3947.00,0.0062
3946.00,0.0062
3945.00,0.0062
3944.00,0.0062
3943.00,0.0062
3942.00,0.0062
3941.00,0.0062
3940.00,0.0062
3939.00,0.0062
3938.00,0.0062
3937.00,0.0062
3936.00,0.0061
3935.00,0.0061
3934.00,0.0061
3933.00,0.0062
3932.00,0.0062
3931.00,0.0062
3930.00,0.0062
3929.00,0.0062
3928.00,0.0062
3927.00,0.0062
3926.00,0.0062
3925.00,0.0062
3924.00,0.0062
3923.00,0.0061
3922.00,0.0061
3921.00,0.0061
3920.00,0.0061
3919.00,0.0061
3918.00,0.0061
3917.00,0.0061
3916.00,0.0061
3915.00,0.0061
3914.00,0.0061
3913.00,0.0061
3912.00,0.0061
3911.00,0.0061
3910.00,0.0061
3909.00,0.0061
3908.00,0.0061
3907.00,0.0061
3906.00,0.0061
3905.00,0.0061
3904.00,0.0062
3903.00,0.0062
3902.00,0.0062
3901.00,0.0063
3900.00,0.0063
3899.00,0.0062
3898.00,0.0062
3897.00,0.0061
3896.00,0.0061
3895.00,0.0060
3894.00,0.0060
3893.00,0.0060
3892.00,0.0060
3891.00,0.0060
3890.00,0.0060
3889.00,0.0060
3888.00,0.0061
3887.00,0.0060
3886.00,0.0060
3885.00,0.0060
3884.00,0.0060
3883.00,0.0061
3882.00,0.0061
3881.00,0.0061
3880.00,0.0061
3879.00,0.0061
3878.00,0.0061
3877.00,0.0061
3876.00,0.0061
3875.00,0.0061
3874.00,0.0061
3873.00,0.0061
3872.00,0.0061
3871.00,0.0061
3870.00,0.0061
3869.00,0.0061
3868.00,0.0062
3867.00,0.0062
3866.00,0.0062
3865.00,0.0062
3864.00,0.0061
3863.00,0.0061
3862.00,0.0061
3861.00,0.0061
3860.00,0.0061
3859.00,0.0060
3858.00,0.0060
3857.00,0.0060
3856.00,0.0061
3855.00,0.0061
3854.00,0.0062
3853.00,0.0062
3852.00,0.0062
3851.00,0.0063
3850.00,0.0063
3849.00,0.0062
3848.00,0.0062
3847.00,0.0061
3846.00,0.0061
3845.00,0.0060
3844.00,0.0060
3843.00,0.0061
3842.00,0.0061
3841.00,0.0061
3840.00,0.0061
3839.00,0.0061
3838.00,0.0061
3837.00,0.0061
3836.00,0.0061
3835.00,0.0061
3834.00,0.0061
3833.00,0.0061
3832.00,0.0061
3831.00,0.0061
3830.00,0.0061
3829.00,0.0060
3828.00,0.0060
3827.00,0.0060
3826.00,0.0059
3825.00,0.0060
3824.00,0.0060
3823.00,0.0060
3822.00,0.0060
3821.00,0.0060
3820.00,0.0060
3819.00,0.0060
3818.00,0.0061
3817.00,0.0061
3816.00,0.0061
3815.00,0.0061
3814.00,0.0060
3813.00,0.0060
3812.00,0.0060
3811.00,0.0060
3810.00,0.0060
3809.00,0.0060
3808.00,0.0060
3807.00,0.0060
3806.00,0.0060
3805.00,0.0061
3804.00,0.0061
3803.00,0.0062
3802.00,0.0062
3801.00,0.0061
3800.00,0.0061
3799.00,0.0061
3798.00,0.0061
3797.00,0.0061
3796.00,0.0060
3795.00,0.0060
3794.00,0.0060
3793.00,0.0060
3792.00,0.0060
3791.00,0.0060
3790.00,0.0059
3789.00,0.0059
3788.00,0.0059
3787.00,0.0059
3786.00,0.0060
3785.00,0.0060
3784.00,0.0060
3783.00,0.0060
3782.00,0.0060
3781.00,0.0060
3780.00,0.0060
3779.00,0.0060
3778.00,0.0060
3777.00,0.0059
3776.00,0.0060
3775.00,0.0060
3774.00,0.0060
3773.00,0.0060
3772.00,0.0060
3771.00,0.0060
3770.00,0.0060
3769.00,0.0060
3768.00,0.0060
3767.00,0.0060
3766.00,0.0060
3765.00,0.0060
3764.00,0.0060
3763.00,0.0060
3762.00,0.0060
3761.00,0.0060
3760.00,0.0060
3759.00,0.0060
3758.00,0.0060
3757.00,0.0060
3756.00,0.0061
3755.00,0.0061
3754.00,0.0061
3753.00,0.0061
3752.00,0.0061
3751.00,0.0061
3750.00,0.0061
3749.00,0.0062
3748.00,0.0062
3747.00,0.0062
3746.00,0.0062
3745.00,0.0062
3744.00,0.0062
3743.00,0.0062
3742.00,0.0062
3741.00,0.0061
3740.00,0.0061
3739.00,0.0061
3738.00,0.0061
3737.00,0.0061
3736.00,0.0061
3735.00,0.0061
3734.00,0.0060
3733.00,0.0060
3732.00,0.0060
3731.00,0.0060
3730.00,0.0060
3729.00,0.0060
3728.00,0.0060
3727.00,0.0060
3726.00,0.0060
3725.00,0.0060
3724.00,0.0060
3723.00,0.0059
3722.00,0.0059
3721.00,0.0059
3720.00,0.0059
3719.00,0.0059
3718.00,0.0059
3717.00,0.0059
3716.00,0.0059
3715.00,0.0059
3714.00,0.0060
3713.00,0.0060
3712.00,0.0060
3711.00,0.0060
3710.00,0.0060
3709.00,0.0060
3708.00,0.0060
3707.00,0.0059
3706.00,0.0059
3705.00,0.0059
3704.00,0.0059
3703.00,0.0059
3702.00,0.0058
3701.00,0.0058
3700.00,0.0058
3699.00,0.0058
3698.00,0.0058
3697.00,0.0058
3696.00,0.0057
3695.00,0.0058
3694.00,0.0058
3693.00,0.0058
3692.00,0.0058
3691.00,0.0058
3690.00,0.0058
3689.00,0.0058
3688.00,0.0058
3687.00,0.0058
3686.00,0.0058
3685.00,0.0058
3684.00,0.0058
3683.00,0.0058
3682.00,0.0058
3681.00,0.0058
3680.00,0.0058
3679.00,0.0058
3678.00,0.0058
3677.00,0.0059
3676.00,0.0059
3675.00,0.0059
3674.00,0.0059
3673.00,0.0059
3672.00,0.0060
3671.00,0.0060
3670.00,0.0060
3669.00,0.0059
3668.00,0.0059
3667.00,0.0059
3666.00,0.0059
3665.00,0.0059
3664.00,0.0058
3663.00,0.0058
3662.00,0.0058
3661.00,0.0058
3660.00,0.0058
3659.00,0.0058
3658.00,0.0058
3657.00,0.0058
3656.00,0.0058
3655.00,0.0058
3654.00,0.0058
3653.00,0.0059
3652.00,0.0059
3651.00,0.0060
3650.00,0.0060
3649.00,0.0061
3648.00,0.0061
3647.00,0.0060
3646.00,0.0060
3645.00,0.0059
3644.00,0.0059
3643.00,0.0058
3642.00,0.0058
3641.00,0.0057
3640.00,0.0057
3639.00,0.0057
3638.00,0.0057
3637.00,0.0057
3636.00,0.0057
3635.00,0.0058
3634.00,0.0058
3633.00,0.0058
3632.00,0.0058
3631.00,0.0059
3630.00,0.0059
3629.00,0.0060
3628.00,0.0060
3627.00,0.0060
3626.00,0.0060
3625.00,0.0059
3624.00,0.0059
3623.00,0.0058
3622.00,0.0058
3621.00,0.0058
3620.00,0.0058
3619.00,0.0058
3618.00,0.0058
3617.00,0.0058
3616.00,0.0058
3615.00,0.0058
3614.00,0.0058
3613.00,0.0058
3612.00,0.0058
3611.00,0.0059
3610.00,0.0059
3609.00,0.0060
3608.00,0.0059
3607.00,0.0059
3606.00,0.0059
3605.00,0.0059
3604.00,0.0058
3603.00,0.0058
3602.00,0.0058
3601.00,0.0058
3600.00,0.0058
3599.00,0.0058
3598.00,0.0058
3597.00,0.0058
3596.00,0.0058
3595.00,0.0058
3594.00,0.0058
3593.00,0.0058
3592.00,0.0058
3591.00,0.0058
3590.00,0.0058
3589.00,0.0058
3588.00,0.0058
3587.00,0.0058
3586.00,0.0058
3585.00,0.0058
3584.00,0.0058
3583.00,0.0058
3582.00,0.0058
3581.00,0.0058
3580.00,0.0057
3579.00,0.0057
3578.00,0.0057
3577.00,0.0057
3576.00,0.0057
3575.00,0.0058
3574.00,0.0058
3573.00,0.0058
3572.00,0.0058
3571.00,0.0058
3570.00,0.0058
3569.00,0.0058
3568.00,0.0058
3567.00,0.0059
3566.00,0.0059
3565.00,0.0059
3564.00,0.0059
3563.00,0.0059
3562.00,0.0058
3561.00,0.0058
3560.00,0.0057
3559.00,0.0057
3558.00,0.0057
3557.00,0.0057
3556.00,0.0058
3555.00,0.0058
3554.00,0.0058
3553.00,0.0058
3552.00,0.0057
3551.00,0.0057
3550.00,0.0058
3549.00,0.0058
3548.00,0.0058
3547.00,0.0058
3546.00,0.0058
3545.00,0.0058
3544.00,0.0058
3543.00,0.0058
3542.00,0.0058
3541.00,0.0058
3540.00,0.0058
3539.00,0.0058
3538.00,0.0059
3537.00,0.0059
3536.00,0.0059
3535.00,0.0059
3534.00,0.0059
3533.00,0.0059
3532.00,0.0059
3531.00,0.0059
3530.00,0.0059
3529.00,0.0059
3528.00,0.0059
3527.00,0.0059
3526.00,0.0059
3525.00,0.0059
3524.00,0.0058
3523.00,0.0058
3522.00,0.0058
3521.00,0.0058
3520.00,0.0058
3519.00,0.0058
3518.00,0.0058
3517.00,0.0058
3516.00,0.0058
3515.00,0.0058
3514.00,0.0058
3513.00,0.0058
3512.00,0.0058
3511.00,0.0058
3510.00,0.0058
3509.00,0.0058
3508.00,0.0058
3507.00,0.0058
3506.00,0.0058
3505.00,0.0058
3504.00,0.0058
3503.00,0.0059
3502.00,0.0059
3501.00,0.0059
3500.00,0.0059
3499.00,0.0059
3498.00,0.0058
3497.00,0.0058
3496.00,0.0058
3495.00,0.0058
3494.00,0.0058
3493.00,0.0058
3492.00,0.0058
3491.00,0.0058
3490.00,0.0058
3489.00,0.0058
3488.00,0.0058
3487.00,0.0058
3486.00,0.0058
3485.00,0.0058
3484.00,0.0057
3483.00,0.0057
3482.00,0.0057
3481.00,0.0057
3480.00,0.0057
3479.00,0.0057
3478.00,0.0057
3477.00,0.0057
3476.00,0.0057
3475.00,0.0057
3474.00,0.0057
3473.00,0.0057
3472.00,0.0057
3471.00,0.0057
3470.00,0.0057
3469.00,0.0057
3468.00,0.0057
3467.00,0.0057
3466.00,0.0057
3465.00,0.0057
3464.00,0.0057
3463.00,0.0057
3462.00,0.0058
3461.00,0.0058
3460.00,0.0058
3459.00,0.0058
3458.00,0.0058
3457.00,0.0057
3456.00,0.0057
3455.00,0.0057
3454.00,0.0057
3453.00,0.0057
3452.00,0.0057
3451.00,0.0057
3450.00,0.0058
3449.00,0.0058
3448.00,0.0059
3447.00,0.0059
3446.00,0.0059
3445.00,0.0059
3444.00,0.0059
3443.00,0.0059
3442.00,0.0059
3441.00,0.0059
3440.00,0.0059
3439.00,0.0059
3438.00,0.0059
3437.00,0.0059
3436.00,0.0059
3435.00,0.0059
3434.00,0.0059
3433.00,0.0059
3432.00,0.0059
3431.00,0.0060
3430.00,0.0060
3429.00,0.0061
3428.00,0.0061
3427.00,0.0061
3426.00,0.0061
3425.00,0.0061
3424.00,0.0061
3423.00,0.0061
3422.00,0.0062
3421.00,0.0063
3420.00,0.0063
3419.00,0.0064
3418.00,0.0064
3417.00,0.0065
3416.00,0.0065
3415.00,0.0066
3414.00,0.0066
3413.00,0.0067
3412.00,0.0067
3411.00,0.0068
3410.00,0.0069
3409.00,0.0070
3408.00,0.0071
3407.00,0.0072
3406.00,0.0073
3405.00,0.0073
3404.00,0.0074
3403.00,0.0074
3402.00,0.0075
3401.00,0.0075
3400.00,0.0076
3399.00,0.0078
3398.00,0.0079
3397.00,0.0080
3396.00,0.0081
3395.00,0.0081
3394.00,0.0082
3393.00,0.0083
3392.00,0.0084
3391.00,0.0086
3390.00,0.0088
3389.00,0.0089
3388.00,0.0091
3387.00,0.0093
3386.00,0.0095
3385.00,0.0096
3384.00,0.0098
3383.00,0.0100
3382.00,0.0102
3381.00,0.0105
3380.00,0.0108
3379.00,0.0111
3378.00,0.0115
3377.00,0.0119
3376.00,0.0123
3375.00,0.0129
3374.00,0.0135
3373.00,0.0141
3372.00,0.0148
3371.00,0.0157
3370.00,0.0167
3369.00,0.0179
3368.00,0.0193
3367.00,0.0209
3366.00,0.0226
3365.00,0.0244
3364.00,0.0263
3363.00,0.0281
3362.00,0.0298
3361.00,0.0312
3360.00,0.0324
3359.00,0.0333
3358.00,0.0338
3357.00,0.0339
3356.00,0.0337
3355.00,0.0332
3354.00,0.0325
3353.00,0.0316
3352.00,0.0306
3351.00,0.0295
3350.00,0.0285
3349.00,0.0275
3348.00,0.0265
3347.00,0.0256
3346.00,0.0247
3345.00,0.0239
3344.00,0.0231
3343.00,0.0225
3342.00,0.0219
3341.00,0.0214
3340.00,0.0210
3339.00,0.0206
3338.00,0.0203
3337.00,0.0200
3336.00,0.0197
3335.00,0.0195
3334.00,0.0193
3333.00,0.0191
3332.00,0.0189
3331.00,0.0186
3330.00,0.0184
3329.00,0.0182
3328.00,0.0180
3327.00,0.0178
3326.00,0.0176
3325.00,0.0175
3324.00,0.0173
3323.00,0.0172
3322.00,0.0171
3321.00,0.0169
3320.00,0.0167
3319.00,0.0166
3318.00,0.0164
3317.00,0.0162
3316.00,0.0161
3315.00,0.0159
3314.00,0.0156
3313.00,0.0154
3312.00,0.0152
3311.00,0.0150
3310.00,0.0149
3309.00,0.0147
3308.00,0.0146
3307.00,0.0144
3306.00,0.0143
3305.00,0.0141
3304.00,0.0140
3303.00,0.0139
3302.00,0.0138
3301.00,0.0137
3300.00,0.0135
3299.00,0.0134
3298.00,0.0132
3297.00,0.0130
3296.00,0.0128
3295.00,0.0127
3294.00,0.0125
3293.00,0.0124
3292.00,0.0122
3291.00,0.0121
3290.00,0.0120
3289.00,0.0119
3288.00,0.0117
3287.00,0.0116
3286.00,0.0114
3285.00,0.0112
3284.00,0.0111
3283.00,0.0110
3282.00,0.0109
3281.00,0.0108
3280.00,0.0107
3279.00,0.0106
3278.00,0.0105
3277.00,0.0104
3276.00,0.0103
3275.00,0.0103
3274.00,0.0102
3273.00,0.0101
3272.00,0.0100
3271.00,0.0099
3270.00,0.0099
3269.00,0.0099
3268.00,0.0099
3267.00,0.0098
3266.00,0.0098
3265.00,0.0098
3264.00,0.0098
3263.00,0.0098
3262.00,0.0098
3261.00,0.0097
3260.00,0.0097
3259.00,0.0096
3258.00,0.0096
3257.00,0.0096
3256.00,0.0095
3255.00,0.0095
3254.00,0.0095
3253.00,0.0095
3252.00,0.0095
3251.00,0.0095
3250.00,0.0095
3249.00,0.0095
3248.00,0.0095
3247.00,0.0095
3246.00,0.0096
3245.00,0.0096
3244.00,0.0097
3243.00,0.0097
3242.00,0.0097
3241.00,0.0098
3240.00,0.0098
3239.00,0.0098
3238.00,0.0098
3237.00,0.0098
3236.00,0.0098
3235.00,0.0097
3234.00,0.0097
3233.00,0.0097
3232.00,0.0097
3231.00,0.0097
3230.00,0.0097
3229.00,0.0096
3228.00,0.0096
3227.00,0.0095
3226.00,0.0095
3225.00,0.0094
3224.00,0.0093
3223.00,0.0092
3222.00,0.0091
3221.00,0.0090
3220.00,0.0090
3219.00,0.0089
3218.00,0.0088
3217.00,0.0088
3216.00,0.0087
3215.00,0.0087
3214.00,0.0086
3213.00,0.0086
3212.00,0.0085
3211.00,0.0085
3210.00,0.0084
3209.00,0.0084
3208.00,0.0083
3207.00,0.0083
3206.00,0.0082
3205.00,0.0081
3204.00,0.0081
3203.00,0.0081
3202.00,0.0081
3201.00,0.0080
3200.00,0.0080
3199.00,0.0079
3198.00,0.0079
3197.00,0.0079
3196.00,0.0078
3195.00,0.0078
3194.00,0.0078
3193.00,0.0078
3192.00,0.0078
3191.00,0.0078
3190.00,0.0077
3189.00,0.0077
3188.00,0.0077
3187.00,0.0077
3186.00,0.0076
3185.00,0.0076
3184.00,0.0076
3183.00,0.0076
3182.00,0.0076
3181.00,0.0076
3180.00,0.0076
3179.00,0.0076
3178.00,0.0076
3177.00,0.0076
3176.00,0.0075
3175.00,0.0075
3174.00,0.0075
3173.00,0.0075
3172.00,0.0075
3171.00,0.0074
3170.00,0.0074
3169.00,0.0074
3168.00,0.0074
3167.00,0.0074
3166.00,0.0074
3165.00,0.0074
3164.00,0.0073
3163.00,0.0073
3162.00,0.0073
3161.00,0.0073
3160.00,0.0073
3159.00,0.0073
3158.00,0.0074
3157.00,0.0074
3156.00,0.0074
3155.00,0.0074
3154.00,0.0074
3153.00,0.0074
3152.00,0.0074
3151.00,0.0073
3150.00,0.0073
3149.00,0.0074
3148.00,0.0074
3147.00,0.0074
3146.00,0.0074
3145.00,0.0074
3144.00,0.0074
3143.00,0.0074
3142.00,0.0074
3141.00,0.0074
3140.00,0.0074
3139.00,0.0074
3138.00,0.0074
3137.00,0.0074
3136.00,0.0075
3135.00,0.0075
3134.00,0.0075
3133.00,0.0075
3132.00,0.0076
3131.00,0.0076
3130.00,0.0076
3129.00,0.0076
3128.00,0.0076
3127.00,0.0076
3126.00,0.0077
3125.00,0.0077
3124.00,0.0077
3123.00,0.0078
3122.00,0.0078
3121.00,0.0079
3120.00,0.0079
3119.00,0.0080
3118.00,0.0080
3117.00,0.0081
3116.00,0.0082
3115.00,0.0082
3114.00,0.0083
3113.00,0.0084
3112.00,0.0085
3111.00,0.0086
3110.00,0.0087
3109.00,0.0088
3108.00,0.0089
3107.00,0.0090
3106.00,0.0091
3105.00,0.0091
3104.00,0.0092
3103.00,0.0092
3102.00,0.0092
3101.00,0.0092
3100.00,0.0092
3099.00,0.0092
3098.00,0.0092
3097.00,0.0091
3096.00,0.0091
3095.00,0.0090
3094.00,0.0089
3093.00,0.0089
3092.00,0.0088
3091.00,0.0088
3090.00,0.0087
3089.00,0.0087
3088.00,0.0087
3087.00,0.0086
3086.00,0.0086
3085.00,0.0086
3084.00,0.0087
3083.00,0.0087
3082.00,0.0087
3081.00,0.0086
3080.00,0.0086
3079.00,0.0085
3078.00,0.0085
3077.00,0.0084
3076.00,0.0084
3075.00,0.0084
3074.00,0.0083
3073.00,0.0083
3072.00,0.0083
3071.00,0.0083
3070.00,0.0082
3069.00,0.0082
3068.00,0.0082
3067.00,0.0082
3066.00,0.0082
3065.00,0.0082
3064.00,0.0081
3063.00,0.0081
3062.00,0.0081
3061.00,0.0081
3060.00,0.0081
3059.00,0.0080
3058.00,0.0080
3057.00,0.0080
3056.00,0.0080
3055.00,0.0080
3054.00,0.0079
3053.00,0.0079
3052.00,0.0079
3051.00,0.0079
3050.00,0.0079
3049.00,0.0079
3048.00,0.0079
3047.00,0.0079
3046.00,0.0079
3045.00,0.0078
3044.00,0.0078
3043.00,0.0078
3042.00,0.0078
3041.00,0.0079
3040.00,0.0080
3039.00,0.0080
3038.00,0.0081
3037.00,0.0081
3036.00,0.0081
3035.00,0.0081
3034.00,0.0082
3033.00,0.0082
3032.00,0.0083
3031.00,0.0083
3030.00,0.0084
3029.00,0.0084
3028.00,0.0084
3027.00,0.0084
3026.00,0.0084
3025.00,0.0085
3024.00,0.0085
3023.00,0.0086
3022.00,0.0086
3021.00,0.0087
3020.00,0.0088
3019.00,0.0088
3018.00,0.0088
3017.00,0.0088
3016.00,0.0089
3015.00,0.0089
3014.00,0.0089
3013.00,0.0089
3012.00,0.0089
3011.00,0.0089
3010.00,0.0090
3009.00,0.0091
3008.00,0.0092
3007.00,0.0092
3006.00,0.0093
3005.00,0.0094
3004.00,0.0095
3003.00,0.0096
3002.00,0.0098
3001.00,0.0100
3000.00,0.0101
2999.00,0.0103
2998.00,0.0105
2997.00,0.0106
2996.00,0.0108
2995.00,0.0109
2994.00,0.0111
2993.00,0.0112
2992.00,0.0114
2991.00,0.0115
2990.00,0.0117
2989.00,0.0119
2988.00,0.0120
2987.00,0.0120
2986.00,0.0119
2985.00,0.0117
2984.00,0.0115
2983.00,0.0112
2982.00,0.0109
2981.00,0.0106
2980.00,0.0104
2979.00,0.0102
2978.00,0.0101
2977.00,0.0100
2976.00,0.0099
2975.00,0.0098
2974.00,0.0097
2973.00,0.0097
2972.00,0.0096
2971.00,0.0097
2970.00,0.0097
2969.00,0.0097
2968.00,0.0098
2967.00,0.0099
2966.00,0.0099
2965.00,0.0100
2964.00,0.0102
2963.00,0.0104
2962.00,0.0107
2961.00,0.0110
2960.00,0.0114
2959.00,0.0118
2958.00,0.0123
2957.00,0.0128
2956.00,0.0134
2955.00,0.0139
2954.00,0.0145
2953.00,0.0150
2952.00,0.0154
2951.00,0.0156
2950.00,0.0155
2949.00,0.0153
2948.00,0.0149
2947.00,0.0144
2946.00,0.0139
2945.00,0.0134
2944.00,0.0130
2943.00,0.0126
2942.00,0.0122
2941.00,0.0119
2940.00,0.0116
2939.00,0.0114
2938.00,0.0111
2937.00,0.0110
2936.00,0.0108
2935.00,0.0107
2934.00,0.0106
2933.00,0.0105
2932.00,0.0105
2931.00,0.0104
2930.00,0.0104
2929.00,0.0103
2928.00,0.0103
2927.00,0.0102
2926.00,0.0102
2925.00,0.0101
2924.00,0.0100
2923.00,0.0099
2922.00,0.0098
2921.00,0.0097
2920.00,0.0096
2919.00,0.0095
2918.00,0.0095
2917.00,0.0094
2916.00,0.0094
2915.00,0.0093
2914.00,0.0093
2913.00,0.0092
2912.00,0.0092
2911.00,0.0092
2910.00,0.0092
2909.00,0.0093
2908.00,0.0093
2907.00,0.0092
2906.00,0.0092
2905.00,0.0092
2904.00,0.0091
2903.00,0.0091
2902.00,0.0090
2901.00,0.0089
2900.00,0.0089
2899.00,0.0088
2898.00,0.0087
2897.00,0.0087
2896.00,0.0087
2895.00,0.0087
2894.00,0.0086
2893.00,0.0086
2892.00,0.0086
2891.00,0.0086
2890.00,0.0086
2889.00,0.0086
2888.00,0.0086
2887.00,0.0086
2886.00,0.0086
2885.00,0.0086
2884.00,0.0086
2883.00,0.0086
2882.00,0.0085
2881.00,0.0085
2880.00,0.0085
2879.00,0.0085
2878.00,0.0085
2877.00,0.0084
2876.00,0.0084
2875.00,0.0083
2874.00,0.0083
2873.00,0.0084
2872.00,0.0084
2871.00,0.0084
2870.00,0.0085
2869.00,0.0085
2868.00,0.0085
2867.00,0.0085
2866.00,0.0086
2865.00,0.0086
2864.00,0.0086
2863.00,0.0086
2862.00,0.0086
2861.00,0.0086
2860.00,0.0086
2859.00,0.0086
2858.00,0.0085
2857.00,0.0085
2856.00,0.0085
2855.00,0.0085
2854.00,0.0085
2853.00,0.0085
2852.00,0.0085
2851.00,0.0085
2850.00,0.0084
2849.00,0.0085
2848.00,0.0085
2847.00,0.0085
2846.00,0.0086
2845.00,0.0087
2844.00,0.0088
2843.00,0.0089
2842.00,0.0090
2841.00,0.0091
2840.00,0.0092
2839.00,0.0092
2838.00,0.0092
2837.00,0.0091
2836.00,0.0090
2835.00,0.0089
2834.00,0.0087
2833.00,0.0085
2832.00,0.0084
2831.00,0.0082
2830.00,0.0081
2829.00,0.0081
2828.00,0.0080
2827.00,0.0080
2826.00,0.0080
2825.00,0.0079
2824.00,0.0079
2823.00,0.0079
2822.00,0.0079
2821.00,0.0079
2820.00,0.0080
2819.00,0.0080
2818.00,0.0080
2817.00,0.0080
2816.00,0.0080
2815.00,0.0080
2814.00,0.0080
2813.00,0.0080
2812.00,0.0080
2811.00,0.0080
2810.00,0.0080
2809.00,0.0080
2808.00,0.0080
2807.00,0.0080
2806.00,0.0080
2805.00,0.0080
2804.00,0.0079
2803.00,0.0079
2802.00,0.0078
2801.00,0.0078
2800.00,0.0077
2799.00,0.0077
2798.00,0.0076
2797.00,0.0076
2796.00,0.0076
2795.00,0.0075
2794.00,0.0075
2793.00,0.0075
2792.00,0.0075
2791.00,0.0074
2790.00,0.0074
2789.00,0.0074
2788.00,0.0073
2787.00,0.0073
2786.00,0.0073
2785.00,0.0073
2784.00,0.0072
2783.00,0.0072
2782.00,0.0072
2781.00,0.0071
2780.00,0.0071
2779.00,0.0071
2778.00,0.0071
2777.00,0.0070
2776.00,0.0070
2775.00,0.0070
2774.00,0.0070
2773.00,0.0070
2772.00,0.0070
2771.00,0.0070
2770.00,0.0070
2769.00,0.0070
2768.00,0.0069
2767.00,0.0069
2766.00,0.0069
2765.00,0.0069
2764.00,0.0069
2763.00,0.0069
2762.00,0.0069
2761.00,0.0069
2760.00,0.0069
2759.00,0.0069
2758.00,0.0069
2757.00,0.0069
2756.00,0.0069
2755.00,0.0069
2754.00,0.0069
2753.00,0.0069
2752.00,0.0069
2751.00,0.0069
2750.00,0.0069
2749.00,0.0069
2748.00,0.0068
2747.00,0.0068
2746.00,0.0068
2745.00,0.0068
2744.00,0.0068
2743.00,0.0068
2742.00,0.0068
2741.00,0.0068
2740.00,0.0068
2739.00,0.0068
2738.00,0.0068
2737.00,0.0068
2736.00,0.0068
2735.00,0.0067
2734.00,0.0067
2733.00,0.0067
2732.00,0.0067
2731.00,0.0067
2730.00,0.0067
2729.00,0.0067
2728.00,0.0067
2727.00,0.0067
2726.00,0.0067
2725.00,0.0066
2724.00,0.0066
2723.00,0.0066
2722.00,0.0066
2721.00,0.0066
2720.00,0.0066
2719.00,0.0066
2718.00,0.0067
2717.00,0.0067
2716.00,0.0067
2715.00,0.0067
2714.00,0.0067
2713.00,0.0067
2712.00,0.0067
2711.00,0.0067
2710.00,0.0067
2709.00,0.0067
2708.00,0.0067
2707.00,0.0068
2706.00,0.0068
2705.00,0.0068
2704.00,0.0068
2703.00,0.0068
2702.00,0.0068
2701.00,0.0068
2700.00,0.0067
2699.00,0.0067
2698.00,0.0067
2697.00,0.0067
2696.00,0.0067
2695.00,0.0067
2694.00,0.0067
2693.00,0.0067
2692.00,0.0067
2691.00,0.0067
2690.00,0.0067
2689.00,0.0067
2688.00,0.0068
2687.00,0.0068
2686.00,0.0068
2685.00,0.0068
2684.00,0.0068
2683.00,0.0068
2682.00,0.0068
2681.00,0.0068
2680.00,0.0068
2679.00,0.0067
2678.00,0.0067
2677.00,0.0067
2676.00,0.0067
2675.00,0.0067
2674.00,0.0067
2673.00,0.0067
2672.00,0.0067
2671.00,0.0067
2670.00,0.0067
2669.00,0.0067
2668.00,0.0066
2667.00,0.0067
2666.00,0.0067
2665.00,0.0067
2664.00,0.0068
2663.00,0.0068
2662.00,0.0068
2661.00,0.0069
2660.00,0.0069
2659.00,0.0069
2658.00,0.0069
2657.00,0.0069
2656.00,0.0070
2655.00,0.0070
2654.00,0.0070
2653.00,0.0070
2652.00,0.0070
2651.00,0.0070
2650.00,0.0070
2649.00,0.0070
2648.00,0.0070
2647.00,0.0070
2646.00,0.0070
2645.00,0.0070
2644.00,0.0070
2643.00,0.0070
2642.00,0.0070
2641.00,0.0070
2640.00,0.0070
2639.00,0.0069
2638.00,0.0069
2637.00,0.0069
2636.00,0.0069
2635.00,0.0069
2634.00,0.0069
2633.00,0.0069
2632.00,0.0069
2631.00,0.0069
2630.00,0.0069
2629.00,0.0068
2628.00,0.0068
2627.00,0.0068
2626.00,0.0068
2625.00,0.0069
2624.00,0.0069
2623.00,0.0068
2622.00,0.0068
2621.00,0.0068
2620.00,0.0069
2619.00,0.0069
2618.00,0.0069
2617.00,0.0069
2616.00,0.0069
2615.00,0.0070
2614.00,0.0070
2613.00,0.0070
2612.00,0.0069
2611.00,0.0069
2610.00,0.0069
2609.00,0.0069
2608.00,0.0069
2607.00,0.0069
2606.00,0.0069
2605.00,0.0069
2604.00,0.0069
2603.00,0.0069
2602.00,0.0069
2601.00,0.0068
2600.00,0.0068
2599.00,0.0068
2598.00,0.0068
2597.00,0.0068
2596.00,0.0068
2595.00,0.0068
2594.00,0.0068
2593.00,0.0068
2592.00,0.0068
2591.00,0.0068
2590.00,0.0067
2589.00,0.0067
2588.00,0.0067
2587.00,0.0066
2586.00,0.0066
2585.00,0.0066
2584.00,0.0066
2583.00,0.0066
2582.00,0.0066
2581.00,0.0066
2580.00,0.0065
2579.00,0.0065
2578.00,0.0065
2577.00,0.0065
2576.00,0.0065
2575.00,0.0065
2574.00,0.0065
2573.00,0.0065
2572.00,0.0065
2571.00,0.0065
2570.00,0.0064
2569.00,0.0064
2568.00,0.0064
2567.00,0.0064
2566.00,0.0064
2565.00,0.0064
2564.00,0.0064
2563.00,0.0064
2562.00,0.0064
2561.00,0.0064
2560.00,0.0064
2559.00,0.0063
2558.00,0.0063
2557.00,0.0063
2556.00,0.0063
2555.00,0.0062
2554.00,0.0062
2553.00,0.0062
2552.00,0.0063
2551.00,0.0063
2550.00,0.0063
2549.00,0.0063
2548.00,0.0063
2547.00,0.0062
2546.00,0.0062
2545.00,0.0062
2544.00,0.0062
2543.00,0.0062
2542.00,0.0062
2541.00,0.0062
2540.00,0.0062
2539.00,0.0062
2538.00,0.0062
2537.00,0.0062
2536.00,0.0062
2535.00,0.0062
2534.00,0.0062
2533.00,0.0062
2532.00,0.0061
2531.00,0.0061
2530.00,0.0061
2529.00,0.0061
2528.00,0.0061
2527.00,0.0061
2526.00,0.0061
2525.00,0.0061
2524.00,0.0061
2523.00,0.0062
2522.00,0.0062
2521.00,0.0062
2520.00,0.0062
2519.00,0.0062
2518.00,0.0062
2517.00,0.0062
2516.00,0.0062
2515.00,0.0062
2514.00,0.0062
2513.00,0.0062
2512.00,0.0062
2511.00,0.0062
2510.00,0.0061
2509.00,0.0061
2508.00,0.0061
2507.00,0.0061
2506.00,0.0061
2505.00,0.0061
2504.00,0.0061
2503.00,0.0061
2502.00,0.0061
2501.00,0.0061
2500.00,0.0061
2499.00,0.0062
2498.00,0.0062
2497.00,0.0062
2496.00,0.0063
2495.00,0.0063
2494.00,0.0063
2493.00,0.0063
2492.00,0.0063
2491.00,0.0063
2490.00,0.0063
2489.00,0.0063
2488.00,0.0063
2487.00,0.0063
2486.00,0.0063
2485.00,0.0063
2484.00,0.0063
2483.00,0.0063
2482.00,0.0063
2481.00,0.0062
2480.00,0.0062
2479.00,0.0062
2478.00,0.0062
2477.00,0.0062
2476.00,0.0062
2475.00,0.0061
2474.00,0.0061
2473.00,0.0061
2472.00,0.0061
2471.00,0.0061
2470.00,0.0061
2469.00,0.0061
2468.00,0.0061
2467.00,0.0061
2466.00,0.0061
2465.00,0.0061
2464.00,0.0061
2463.00,0.0061
2462.00,0.0061
2461.00,0.0061
2460.00,0.0062
2459.00,0.0062
2458.00,0.0062
2457.00,0.0062
2456.00,0.0062
2455.00,0.0061
2454.00,0.0061
2453.00,0.0061
2452.00,0.0061
2451.00,0.0061
2450.00,0.0061
2449.00,0.0061
2448.00,0.0061
2447.00,0.0061
2446.00,0.0060
2445.00,0.0060
2444.00,0.0060
2443.00,0.0060
2442.00,0.0060
2441.00,0.0060
2440.00,0.0060
2439.00,0.0060
2438.00,0.0060
2437.00,0.0059
2436.00,0.0059
2435.00,0.0059
2434.00,0.0059
2433.00,0.0059
2432.00,0.0059
2431.00,0.0059
2430.00,0.0059
2429.00,0.0059
2428.00,0.0060
2427.00,0.0060
2426.00,0.0060
2425.00,0.0060
2424.00,0.0060
2423.00,0.0060
2422.00,0.0060
2421.00,0.0060
2420.00,0.0060
2419.00,0.0059
2418.00,0.0059
2417.00,0.0059
2416.00,0.0059
2415.00,0.0059
2414.00,0.0059
2413.00,0.0059
2412.00,0.0059
2411.00,0.0059
2410.00,0.0059
2409.00,0.0059
2408.00,0.0059
2407.00,0.0058
2406.00,0.0058
2405.00,0.0058
2404.00,0.0057
2403.00,0.0057
2402.00,0.0057
2401.00,0.0057
2400.00,0.0056
2399.00,0.0056
2398.00,0.0056
2397.00,0.0056
2396.00,0.0056
2395.00,0.0056
2394.00,0.0056
2393.00,0.0056
2392.00,0.0057
2391.00,0.0057
2390.00,0.0057
2389.00,0.0057
2388.00,0.0057
2387.00,0.0056
2386.00,0.0056
2385.00,0.0055
2384.00,0.0055
2383.00,0.0055
2382.00,0.0055
2381.00,0.0055
2380.00,0.0054
2379.00,0.0054
2378.00,0.0054
2377.00,0.0055
2376.00,0.0055
2375.00,0.0055
2374.00,0.0054
2373.00,0.0054
2372.00,0.0054
2371.00,0.0054
2370.00,0.0053
2369.00,0.0053
2368.00,0.0053
2367.00,0.0053
2366.00,0.0053
2365.00,0.0054
2364.00,0.0055
2363.00,0.0055
2362.00,0.0055
2361.00,0.0055
2360.00,0.0055
2359.00,0.0055
2358.00,0.0054
2357.00,0.0054
2356.00,0.0054
2355.00,0.0054
2354.00,0.0053
2353.00,0.0053
2352.00,0.0052
2351.00,0.0052
2350.00,0.0053
2349.00,0.0054
2348.00,0.0056
2347.00,0.0058
2346.00,0.0058
2345.00,0.0058
2344.00,0.0057
2343.00,0.0056
2342.00,0.0056
2341.00,0.0056
2340.00,0.0056
2339.00,0.0057
2338.00,0.0057
2337.00,0.0057
2336.00,0.0057
2335.00,0.0057
2334.00,0.0057
2333.00,0.0057
2332.00,0.0056
2331.00,0.0056
2330.00,0.0056
2329.00,0.0057
2328.00,0.0059
2327.00,0.0063
2326.00,0.0066
2325.00,0.0067
2324.00,0.0066
2323.00,0.0064
2322.00,0.0061
2321.00,0.0060
2320.00,0.0059
2319.00,0.0058
2318.00,0.0058
2317.00,0.0058
2316.00,0.0057
2315.00,0.0057
2314.00,0.0057
2313.00,0.0056
2312.00,0.0056
2311.00,0.0056
2310.00,0.0055
2309.00,0.0055
2308.00,0.0055
2307.00,0.0055
2306.00,0.0055
2305.00,0.0055
2304.00,0.0056
2303.00,0.0056
2302.00,0.0057
2301.00,0.0057
2300.00,0.0057
2299.00,0.0057
2298.00,0.0058
2297.00,0.0058
2296.00,0.0059
2295.00,0.0060
2294.00,0.0061
2293.00,0.0062
2292.00,0.0062
2291.00,0.0063
2290.00,0.0063
2289.00,0.0063
2288.00,0.0063
2287.00,0.0063
2286.00,0.0063
2285.00,0.0063
2284.00,0.0063
2283.00,0.0063
2282.00,0.0062
2281.00,0.0062
2280.00,0.0061
2279.00,0.0060
2278.00,0.0060
2277.00,0.0060
2276.00,0.0060
2275.00,0.0060
2274.00,0.0060
2273.00,0.0060
2272.00,0.0060
2271.00,0.0060
2270.00,0.0060
2269.00,0.0060
2268.00,0.0059
2267.00,0.0058
2266.00,0.0057
2265.00,0.0057
2264.00,0.0058
2263.00,0.0058
2262.00,0.0058
2261.00,0.0058
2260.00,0.0059
2259.00,0.0059
2258.00,0.0058
2257.00,0.0057
2256.00,0.0057
2255.00,0.0056
2254.00,0.0055
2253.00,0.0055
2252.00,0.0055
2251.00,0.0055
2250.00,0.0054
2249.00,0.0054
2248.00,0.0054
2247.00,0.0054
2246.00,0.0054
2245.00,0.0054
2244.00,0.0055
2243.00,0.0055
2242.00,0.0056
2241.00,0.0056
2240.00,0.0056
2239.00,0.0055
2238.00,0.0055
2237.00,0.0055
2236.00,0.0054
2235.00,0.0054
2234.00,0.0053
2233.00,0.0052
2232.00,0.0052
2231.00,0.0052
2230.00,0.0051
2229.00,0.0051
2228.00,0.0051
2227.00,0.0052
2226.00,0.0052
2225.00,0.0051
2224.00,0.0051
2223.00,0.0051
2222.00,0.0050
2221.00,0.0051
2220.00,0.0051
2219.00,0.0050
2218.00,0.0050
2217.00,0.0050
2216.00,0.0050
2215.00,0.0050
2214.00,0.0050
2213.00,0.0051
2212.00,0.0051
2211.00,0.0051
2210.00,0.0051
2209.00,0.0051
2208.00,0.0051
2207.00,0.0051
2206.00,0.0051
2205.00,0.0051
2204.00,0.0051
2203.00,0.0051
2202.00,0.0051
2201.00,0.0051
2200.00,0.0050
2199.00,0.0050
2198.00,0.0050
2197.00,0.0050
2196.00,0.0050
2195.00,0.0050
2194.00,0.0049
2193.00,0.0050
2192.00,0.0050
2191.00,0.0051
2190.00,0.0052
2189.00,0.0052
2188.00,0.0052
2187.00,0.0052
2186.00,0.0051
2185.00,0.0050
2184.00,0.0048
2183.00,0.0047
2182.00,0.0045
2181.00,0.0045
2180.00,0.0046
2179.00,0.0046
2178.00,0.0046
2177.00,0.0045
2176.00,0.0045
2175.00,0.0045
2174.00,0.0047
2173.00,0.0049
2172.00,0.0053
2171.00,0.0056
2170.00,0.0058
2169.00,0.0059
2168.00,0.0059
2167.00,0.0059
2166.00,0.0060
2165.00,0.0063
2164.00,0.0067
2163.00,0.0069
2162.00,0.0066
2161.00,0.0057
2160.00,0.0044
2159.00,0.0033
2158.00,0.0027
2157.00,0.0027
2156.00,0.0029
2155.00,0.0031
2154.00,0.0032
2153.00,0.0034
2152.00,0.0036
2151.00,0.0038
2150.00,0.0039
2149.00,0.0040
2148.00,0.0040
2147.00,0.0040
2146.00,0.0039
2145.00,0.0039
2144.00,0.0039
2143.00,0.0038
2142.00,0.0038
2141.00,0.0038
2140.00,0.0038
2139.00,0.0038
2138.00,0.0037
2137.00,0.0036
2136.00,0.0034
2135.00,0.0034
2134.00,0.0033
2133.00,0.0034
2132.00,0.0036
2131.00,0.0037
2130.00,0.0038
2129.00,0.0039
2128.00,0.0040
2127.00,0.0041
2126.00,0.0041
2125.00,0.0042
2124.00,0.0042
2123.00,0.0043
2122.00,0.0043
2121.00,0.0044
2120.00,0.0046
2119.00,0.0047
2118.00,0.0048
2117.00,0.0048
2116.00,0.0049
2115.00,0.0049
2114.00,0.0049
2113.00,0.0049
2112.00,0.0049
2111.00,0.0049
2110.00,0.0048
2109.00,0.0048
2108.00,0.0048
2107.00,0.0048
2106.00,0.0048
2105.00,0.0049
2104.00,0.0049
2103.00,0.0049
2102.00,0.0049
2101.00,0.0048
2100.00,0.0048
2099.00,0.0048
2098.00,0.0047
2097.00,0.0045
2096.00,0.0044
2095.00,0.0044
2094.00,0.0045
2093.00,0.0046
2092.00,0.0048
2091.00,0.0049
2090.00,0.0050
2089.00,0.0051
2088.00,0.0051
2087.00,0.0052
2086.00,0.0052
2085.00,0.0052
2084.00,0.0053
2083.00,0.0053
2082.00,0.0052
2081.00,0.0052
2080.00,0.0052
2079.00,0.0051
2078.00,0.0051
2077.00,0.0051
2076.00,0.0051
2075.00,0.0051
2074.00,0.0051
2073.00,0.0051
2072.00,0.0050
2071.00,0.0050
2070.00,0.0050
2069.00,0.0050
2068.00,0.0049
2067.00,0.0049
2066.00,0.0048
2065.00,0.0048
2064.00,0.0048
2063.00,0.0048
2062.00,0.0048
2061.00,0.0048
2060.00,0.0048
2059.00,0.0048
2058.00,0.0046
2057.00,0.0046
2056.00,0.0045
2055.00,0.0046
2054.00,0.0048
2053.00,0.0051
2052.00,0.0055
2051.00,0.0055
2050.00,0.0053
2049.00,0.0050
2048.00,0.0048
2047.00,0.0046
2046.00,0.0045
2045.00,0.0045
2044.00,0.0044
2043.00,0.0043
2042.00,0.0042
2041.00,0.0041
2040.00,0.0042
2039.00,0.0043
2038.00,0.0044
2037.00,0.0044
2036.00,0.0043
2035.00,0.0040
2034.00,0.0037
2033.00,0.0036
2032.00,0.0036
2031.00,0.0036
2030.00,0.0036
2029.00,0.0037
2028.00,0.0038
2027.00,0.0038
2026.00,0.0037
2025.00,0.0036
2024.00,0.0037
2023.00,0.0037
2022.00,0.0036
2021.00,0.0036
2020.00,0.0037
2019.00,0.0037
2018.00,0.0037
2017.00,0.0038
2016.00,0.0039
2015.00,0.0039
2014.00,0.0040
2013.00,0.0041
2012.00,0.0043
2011.00,0.0045
2010.00,0.0045
2009.00,0.0043
2008.00,0.0041
2007.00,0.0037
2006.00,0.0035
2005.00,0.0034
2004.00,0.0035
2003.00,0.0036
2002.00,0.0037
2001.00,0.0038
2000.00,0.0040
1999.00,0.0041
1998.00,0.0041
1997.00,0.0041
1996.00,0.0043
1995.00,0.0045
1994.00,0.0046
1993.00,0.0046
1992.00,0.0046
1991.00,0.0045
1990.00,0.0045
1989.00,0.0045
1988.00,0.0047
1987.00,0.0048
1986.00,0.0050
1985.00,0.0051
1984.00,0.0052
1983.00,0.0053
1982.00,0.0053
1981.00,0.0052
1980.00,0.0051
1979.00,0.0046
1978.00,0.0040
1977.00,0.0036
1976.00,0.0034
1975.00,0.0034
1974.00,0.0034
1973.00,0.0035
1972.00,0.0035
1971.00,0.0035
1970.00,0.0034
1969.00,0.0034
1968.00,0.0035
1967.00,0.0036
1966.00,0.0036
1965.00,0.0036
1964.00,0.0036
1963.00,0.0035
1962.00,0.0033
1961.00,0.0032
1960.00,0.0032
1959.00,0.0032
1958.00,0.0033
1957.00,0.0035
1956.00,0.0037
1955.00,0.0038
1954.00,0.0038
1953.00,0.0037
1952.00,0.0037
1951.00,0.0037
1950.00,0.0038
1949.00,0.0039
1948.00,0.0041
1947.00,0.0042
1946.00,0.0040
1945.00,0.0039
1944.00,0.0037
1943.00,0.0036
1942.00,0.0036
1941.00,0.0038
1940.00,0.0039
1939.00,0.0040
1938.00,0.0040
1937.00,0.0040
1936.00,0.0040
1935.00,0.0040
1934.00,0.0039
1933.00,0.0038
1932.00,0.0039
1931.00,0.0040
1930.00,0.0040
1929.00,0.0041
1928.00,0.0041
1927.00,0.0040
1926.00,0.0039
1925.00,0.0039
1924.00,0.0040
1923.00,0.0041
1922.00,0.0042
1921.00,0.0042
1920.00,0.0043
1919.00,0.0043
1918.00,0.0044
1917.00,0.0044
1916.00,0.0044
1915.00,0.0044
1914.00,0.0044
1913.00,0.0044
1912.00,0.0044
1911.00,0.0044
1910.00,0.0044
1909.00,0.0044
1908.00,0.0045
1907.00,0.0045
1906.00,0.0045
1905.00,0.0046
1904.00,0.0047
1903.00,0.0046
1902.00,0.0046
1901.00,0.0045
1900.00,0.0045
1899.00,0.0046
1898.00,0.0046
1897.00,0.0046
1896.00,0.0045
1895.00,0.0045
1894.00,0.0044
1893.00,0.0043
1892.00,0.0042
1891.00,0.0042
1890.00,0.0042
1889.00,0.0042
1888.00,0.0042
1887.00,0.0041
1886.00,0.0040
1885.00,0.0040
1884.00,0.0041
1883.00,0.0041
1882.00,0.0041
1881.00,0.0041
1880.00,0.0041
1879.00,0.0040
1878.00,0.0040
1877.00,0.0040
1876.00,0.0040
1875.00,0.0040
1874.00,0.0040
1873.00,0.0040
1872.00,0.0040
1871.00,0.0040
1870.00,0.0039
1869.00,0.0038
1868.00,0.0038
1867.00,0.0038
1866.00,0.0038
1865.00,0.0038
1864.00,0.0039
1863.00,0.0039
1862.00,0.0039
1861.00,0.0040
1860.00,0.0040
1859.00,0.0041
1858.00,0.0040
1857.00,0.0040
1856.00,0.0040
1855.00,0.0040
1854.00,0.0040
1853.00,0.0040
1852.00,0.0040
1851.00,0.0040
1850.00,0.0039
1849.00,0.0039
1848.00,0.0038
1847.00,0.0038
1846.00,0.0037
1845.00,0.0037
1844.00,0.0038
1843.00,0.0039
1842.00,0.0039
1841.00,0.0039
1840.00,0.0038
1839.00,0.0038
1838.00,0.0037
1837.00,0.0037
1836.00,0.0037
1835.00,0.0037
1834.00,0.0037
1833.00,0.0038
1832.00,0.0038
1831.00,0.0038
1830.00,0.0038
1829.00,0.0038
1828.00,0.0039
1827.00,0.0039
1826.00,0.0039
1825.00,0.0040
1824.00,0.0041
1823.00,0.0042
1822.00,0.0041
1821.00,0.0041
1820.00,0.0040
1819.00,0.0038
1818.00,0.0037
1817.00,0.0036
1816.00,0.0036
1815.00,0.0037
1814.00,0.0037
1813.00,0.0037
1812.00,0.0037
1811.00,0.0037
1810.00,0.0037
1809.00,0.0037
1808.00,0.0037
1807.00,0.0038
1806.00,0.0038
1805.00,0.0038
1804.00,0.0038
1803.00,0.0039
1802.00,0.0039
1801.00,0.0039
1800.00,0.0039
1799.00,0.0040
1798.00,0.0039
1797.00,0.0039
1796.00,0.0040
1795.00,0.0040
1794.00,0.0039
1793.00,0.0039
1792.00,0.0040
1791.00,0.0041
1790.00,0.0041
1789.00,0.0041
1788.00,0.0041
1787.00,0.0041
1786.00,0.0040
1785.00,0.0041
1784.00,0.0041
1783.00,0.0041
1782.00,0.0040
1781.00,0.0040
1780.00,0.0040
1779.00,0.0040
1778.00,0.0040
1777.00,0.0040
1776.00,0.0041
1775.00,0.0041
1774.00,0.0040
1773.00,0.0040
1772.00,0.0041
1771.00,0.0041
1770.00,0.0041
1769.00,0.0042
1768.00,0.0043
1767.00,0.0043
1766.00,0.0044
1765.00,0.0044
1764.00,0.0044
1763.00,0.0044
1762.00,0.0044
1761.00,0.0044
1760.00,0.0045
1759.00,0.0045
1758.00,0.0044
1757.00,0.0044
1756.00,0.0045
1755.00,0.0045
1754.00,0.0046
1753.00,0.0046
1752.00,0.0046
1751.00,0.0047
1750.00,0.0048
1749.00,0.0048
1748.00,0.0048
1747.00,0.0049
1746.00,0.0049
1745.00,0.0050
1744.00,0.0053
1743.00,0.0055
1742.00,0.0056
1741.00,0.0059
1740.00,0.0062
1739.00,0.0064
1738.00,0.0066
1737.00,0.0068
1736.00,0.0069
1735.00,0.0071
1734.00,0.0074
1733.00,0.0078
1732.00,0.0080
1731.00,0.0080
1730.00,0.0079
1729.00,0.0080
1728.00,0.0081
1727.00,0.0082
1726.00,0.0081
1725.00,0.0082
1724.00,0.0083
1723.00,0.0085
1722.00,0.0086
1721.00,0.0089
1720.00,0.0093
1719.00,0.0098
1718.00,0.0106
1717.00,0.0117
1716.00,0.0130
1715.00,0.0142
1714.00,0.0156
1713.00,0.0173
1712.00,0.0194
1711.00,0.0219
1710.00,0.0251
1709.00,0.0291
1708.00,0.0339
1707.00,0.0397
1706.00,0.0464
1705.00,0.0529
1704.00,0.0581
1703.00,0.0616
1702.00,0.0638
1701.00,0.0647
1700.00,0.0638
1699.00,0.0617
1698.00,0.0591
1697.00,0.0564
1696.00,0.0541
1695.00,0.0532
1694.00,0.0537
1693.00,0.0551
1692.00,0.0573
1691.00,0.0602
1690.00,0.0637
1689.00,0.0669
1688.00,0.0693
1687.00,0.0707
1686.00,0.0713
1685.00,0.0710
1684.00,0.0696
1683.00,0.0677
1682.00,0.0655
1681.00,0.0631
1680.00,0.0606
1679.00,0.0581
1678.00,0.0558
1677.00,0.0534
1676.00,0.0511
1675.00,0.0489
1674.00,0.0471
1673.00,0.0457
1672.00,0.0444
1671.00,0.0432
1670.00,0.0422
1669.00,0.0410
1668.00,0.0397
1667.00,0.0385
1666.00,0.0372
1665.00,0.0359
1664.00,0.0347
1663.00,0.0336
1662.00,0.0327
1661.00,0.0320
1660.00,0.0314
1659.00,0.0310
1658.00,0.0307
1657.00,0.0306
1656.00,0.0305
1655.00,0.0306
1654.00,0.0315
1653.00,0.0332
1652.00,0.0347
1651.00,0.0357
1650.00,0.0362
1649.00,0.0368
1648.00,0.0378
1647.00,0.0391
1646.00,0.0402
1645.00,0.0406
1644.00,0.0403
1643.00,0.0392
1642.00,0.0378
1641.00,0.0363
1640.00,0.0346
1639.00,0.0332
1638.00,0.0318
1637.00,0.0308
1636.00,0.0300
1635.00,0.0297
1634.00,0.0299
1633.00,0.0302
1632.00,0.0307
1631.00,0.0315
1630.00,0.0325
1629.00,0.0339
1628.00,0.0354
1627.00,0.0369
1626.00,0.0382
1625.00,0.0394
1624.00,0.0408
1623.00,0.0422
1622.00,0.0433
1621.00,0.0441
1620.00,0.0445
1619.00,0.0447
1618.00,0.0448
1617.00,0.0447
1616.00,0.0443
1615.00,0.0436
1614.00,0.0425
1613.00,0.0412
1612.00,0.0397
1611.00,0.0384
1610.00,0.0371
1609.00,0.0360
1608.00,0.0352
1607.00,0.0349
1606.00,0.0347
1605.00,0.0344
1604.00,0.0338
1603.00,0.0326
1602.00,0.0309
1601.00,0.0290
1600.00,0.0269
1599.00,0.0250
1598.00,0.0233
1597.00,0.0218
1596.00,0.0205
1595.00,0.0193
1594.00,0.0184
1593.00,0.0175
1592.00,0.0167
1591.00,0.0160
1590.00,0.0155
1589.00,0.0149
1588.00,0.0144
1587.00,0.0140
1586.00,0.0136
1585.00,0.0133
1584.00,0.0132
1583.00,0.0131
1582.00,0.0133
1581.00,0.0138
1580.00,0.0143
1579.00,0.0149
1578.00,0.0152
1577.00,0.0153
1576.00,0.0149
1575.00,0.0144
1574.00,0.0139
1573.00,0.0134
1572.00,0.0129
1571.00,0.0125
1570.00,0.0122
1569.00,0.0120
1568.00,0.0118
1567.00,0.0115
1566.00,0.0113
1565.00,0.0112
1564.00,0.0110
1563.00,0.0109
1562.00,0.0108
1561.00,0.0107
1560.00,0.0107
1559.00,0.0107
1558.00,0.0107
1557.00,0.0107
1556.00,0.0106
1555.00,0.0104
1554.00,0.0104
1553.00,0.0105
1552.00,0.0105
1551.00,0.0105
1550.00,0.0106
1549.00,0.0108
1548.00,0.0110
1547.00,0.0113
1546.00,0.0117
1545.00,0.0122
1544.00,0.0128
1543.00,0.0134
1542.00,0.0142
1541.00,0.0154
1540.00,0.0173
1539.00,0.0195
1538.00,0.0218
1537.00,0.0237
1536.00,0.0256
1535.00,0.0283
1534.00,0.0323
1533.00,0.0374
1532.00,0.0427
1531.00,0.0479
1530.00,0.0533
1529.00,0.0592
1528.00,0.0651
1527.00,0.0703
1526.00,0.0740
1525.00,0.0754
1524.00,0.0747
1523.00,0.0719
1522.00,0.0673
1521.00,0.0615
1520.00,0.0563
1519.00,0.0522
1518.00,0.0488
1517.00,0.0456
1516.00,0.0431
1515.00,0.0416
1514.00,0.0409
1513.00,0.0409
1512.00,0.0415
1511.00,0.0426
1510.00,0.0441
1509.00,0.0459
1508.00,0.0485
1507.00,0.0523
1506.00,0.0565
1505.00,0.0597
1504.00,0.0619
1503.00,0.0636
1502.00,0.0655
1501.00,0.0678
1500.00,0.0702
1499.00,0.0727
1498.00,0.0750
1497.00,0.0769
1496.00,0.0781
1495.00,0.0784
1494.00,0.0781
1493.00,0.0772
1492.00,0.0760
1491.00,0.0746
1490.00,0.0731
1489.00,0.0713
1488.00,0.0692
1487.00,0.0672
1486.00,0.0651
1485.00,0.0630
1484.00,0.0608
1483.00,0.0586
1482.00,0.0564
1481.00,0.0542
1480.00,0.0523
1479.00,0.0506
1478.00,0.0491
1477.00,0.0480
1476.00,0.0470
1475.00,0.0460
1474.00,0.0451
1473.00,0.0439
1472.00,0.0426
1471.00,0.0414
1470.00,0.0404
1469.00,0.0394
1468.00,0.0385
1467.00,0.0377
1466.00,0.0370
1465.00,0.0363
1464.00,0.0357
1463.00,0.0351
1462.00,0.0344
1461.00,0.0338
1460.00,0.0333
1459.00,0.0328
1458.00,0.0325
1457.00,0.0324
1456.00,0.0324
1455.00,0.0324
1454.00,0.0323
1453.00,0.0323
1452.00,0.0324
1451.00,0.0328
1450.00,0.0334
1449.00,0.0342
1448.00,0.0352
1447.00,0.0363
1446.00,0.0375
1445.00,0.0386
1444.00,0.0397
1443.00,0.0407
1442.00,0.0416
1441.00,0.0424
1440.00,0.0431
1439.00,0.0439
1438.00,0.0457
1437.00,0.0492
1436.00,0.0541
1435.00,0.0594
1434.00,0.0643
1433.00,0.0688
1432.00,0.0727
1431.00,0.0755
1430.00,0.0766
1429.00,0.0759
1428.00,0.0736
1427.00,0.0700
1426.00,0.0657
1425.00,0.0611
1424.00,0.0567
1423.00,0.0527
1422.00,0.0494
1421.00,0.0465
1420.00,0.0437
1419.00,0.0410
1418.00,0.0385
1417.00,0.0364
1416.00,0.0345
1415.00,0.0328
1414.00,0.0313
1413.00,0.0299
1412.00,0.0286
1411.00,0.0274
1410.00,0.0264
1409.00,0.0255
1408.00,0.0247
1407.00,0.0240
1406.00,0.0233
1405.00,0.0227
1404.00,0.0222
1403.00,0.0218
1402.00,0.0214
1401.00,0.0211
1400.00,0.0208
1399.00,0.0206
1398.00,0.0206
1397.00,0.0206
1396.00,0.0207
1395.00,0.0212
1394.00,0.0218
1393.00,0.0226
1392.00,0.0233
1391.00,0.0242
1390.00,0.0252
1389.00,0.0264
1388.00,0.0279
1387.00,0.0296
1386.00,0.0312
1385.00,0.0324
1384.00,0.0334
1383.00,0.0341
1382.00,0.0347
1381.00,0.0352
1380.00,0.0357
1379.00,0.0362
1378.00,0.0365
1377.00,0.0364
1376.00,0.0355
1375.00,0.0338
1374.00,0.0315
1373.00,0.0291
1372.00,0.0269
1371.00,0.0252
1370.00,0.0240
1369.00,0.0231
1368.00,0.0225
1367.00,0.0223
1366.00,0.0223
1365.00,0.0225
1364.00,0.0229
1363.00,0.0236
1362.00,0.0245
1361.00,0.0255
1360.00,0.0265
1359.00,0.0276
1358.00,0.0288
1357.00,0.0302
1356.00,0.0317
1355.00,0.0336
1354.00,0.0359
1353.00,0.0386
1352.00,0.0419
1351.00,0.0457
1350.00,0.0500
1349.00,0.0543
1348.00,0.0582
1347.00,0.0612
1346.00,0.0631
1345.00,0.0639
1344.00,0.0637
1343.00,0.0627
1342.00,0.0610
1341.00,0.0584
1340.00,0.0551
1339.00,0.0514
1338.00,0.0476
1337.00,0.0443
1336.00,0.0417
1335.00,0.0400
1334.00,0.0395
1333.00,0.0401
1332.00,0.0419
1331.00,0.0444
1330.00,0.0467
1329.00,0.0479
1328.00,0.0476
1327.00,0.0458
1326.00,0.0433
1325.00,0.0407
1324.00,0.0387
1323.00,0.0373
1322.00,0.0367
1321.00,0.0364
1320.00,0.0365
1319.00,0.0368
1318.00,0.0372
1317.00,0.0379
1316.00,0.0389
1315.00,0.0401
1314.00,0.0418
1313.00,0.0438
1312.00,0.0465
1311.00,0.0497
1310.00,0.0531
1309.00,0.0565
1308.00,0.0590
1307.00,0.0605
1306.00,0.0606
1305.00,0.0598
1304.00,0.0582
1303.00,0.0561
1302.00,0.0537
1301.00,0.0512
1300.00,0.0486
1299.00,0.0462
1298.00,0.0442
1297.00,0.0427
1296.00,0.0417
1295.00,0.0413
1294.00,0.0416
1293.00,0.0426
1292.00,0.0445
1291.00,0.0472
1290.00,0.0509
1289.00,0.0552
1288.00,0.0600
1287.00,0.0648
1286.00,0.0691
1285.00,0.0727
1284.00,0.0753
1283.00,0.0770
1282.00,0.0777
1281.00,0.0774
1280.00,0.0763
1279.00,0.0745
1278.00,0.0721
1277.00,0.0695
1276.00,0.0666
1275.00,0.0637
1274.00,0.0608
1273.00,0.0580
1272.00,0.0554
1271.00,0.0529
1270.00,0.0506
1269.00,0.0484
1268.00,0.0464
1267.00,0.0444
1266.00,0.0424
1265.00,0.0405
1264.00,0.0387
1263.00,0.0370
1262.00,0.0354
1261.00,0.0340
1260.00,0.0326
1259.00,0.0315
1258.00,0.0305
1257.00,0.0296
1256.00,0.0289
1255.00,0.0283
1254.00,0.0278
1253.00,0.0274
1252.00,0.0272
1251.00,0.0272
1250.00,0.0273
1249.00,0.0276
1248.00,0.0281
1247.00,0.0288
1246.00,0.0297
1245.00,0.0306
1244.00,0.0316
1243.00,0.0327
1242.00,0.0339
1241.00,0.0351
1240.00,0.0364
1239.00,0.0377
1238.00,0.0389
1237.00,0.0400
1236.00,0.0409
1235.00,0.0415
1234.00,0.0417
1233.00,0.0417
1232.00,0.0415
1231.00,0.0415
1230.00,0.0417
1229.00,0.0422
1228.00,0.0429
1227.00,0.0438
1226.00,0.0448
1225.00,0.0459
1224.00,0.0470
1223.00,0.0481
1222.00,0.0492
1221.00,0.0504
1220.00,0.0517
1219.00,0.0530
1218.00,0.0544
1217.00,0.0559
1216.00,0.0576
1215.00,0.0596
1214.00,0.0620
1213.00,0.0650
1212.00,0.0686
1211.00,0.0726
1210.00,0.0769
1209.00,0.0810
1208.00,0.0847
1207.00,0.0875
1206.00,0.0891
1205.00,0.0893
1204.00,0.0881
1203.00,0.0857
1202.00,0.0822
1201.00,0.0781
1200.00,0.0737
1199.00,0.0694
1198.00,0.0655
1197.00,0.0622
1196.00,0.0599
1195.00,0.0587
1194.00,0.0586
1193.00,0.0597
1192.00,0.0619
1191.00,0.0649
1190.00,0.0684
1189.00,0.0720
1188.00,0.0752
1187.00,0.0779
1186.00,0.0800
1185.00,0.0817
1184.00,0.0826
1183.00,0.0828
1182.00,0.0819
1181.00,0.0801
1180.00,0.0776
1179.00,0.0746
1178.00,0.0711
1177.00,0.0673
1176.00,0.0633
1175.00,0.0591
1174.00,0.0550
1173.00,0.0512
1172.00,0.0477
1171.00,0.0448
1170.00,0.0424
1169.00,0.0405
1168.00,0.0392
1167.00,0.0383
1166.00,0.0380
1165.00,0.0379
1164.00,0.0379
1163.00,0.0377
1162.00,0.0373
1161.00,0.0366
1160.00,0.0356
1159.00,0.0346
1158.00,0.0336
1157.00,0.0326
1156.00,0.0317
1155.00,0.0311
1154.00,0.0307
1153.00,0.0307
1152.00,0.0311
1151.00,0.0318
1150.00,0.0328
1149.00,0.0340
1148.00,0.0354
1147.00,0.0373
1146.00,0.0398
1145.00,0.0430
1144.00,0.0465
1143.00,0.0497
1142.00,0.0517
1141.00,0.0520
1140.00,0.0505
1139.00,0.0482
1138.00,0.0461
1137.00,0.0452
1136.00,0.0459
1135.00,0.0480
1134.00,0.0510
1133.00,0.0540
1132.00,0.0559
1131.00,0.0564
1130.00,0.0554
1129.00,0.0537
1128.00,0.0520
1127.00,0.0508
1126.00,0.0506
1125.00,0.0513
1124.00,0.0531
1123.00,0.0558
1122.00,0.0594
1121.00,0.0640
1120.00,0.0695
1119.00,0.0755
1118.00,0.0816
1117.00,0.0869
1116.00,0.0906
1115.00,0.0921
1114.00,0.0913
1113.00,0.0887
1112.00,0.0849
1111.00,0.0806
1110.00,0.0762
1109.00,0.0723
1108.00,0.0692
1107.00,0.0671
1106.00,0.0662
1105.00,0.0664
1104.00,0.0678
1103.00,0.0703
1102.00,0.0736
1101.00,0.0776
1100.00,0.0818
1099.00,0.0857
1098.00,0.0888
1097.00,0.0907
1096.00,0.0912
1095.00,0.0905
1094.00,0.0888
1093.00,0.0864
1092.00,0.0835
1091.00,0.0802
1090.00,0.0768
1089.00,0.0731
1088.00,0.0695
1087.00,0.0659
1086.00,0.0624
1085.00,0.0593
1084.00,0.0564
1083.00,0.0538
1082.00,0.0514
1081.00,0.0492
1080.00,0.0473
1079.00,0.0455
1078.00,0.0439
1077.00,0.0424
1076.00,0.0411
1075.00,0.0399
1074.00,0.0389
1073.00,0.0380
1072.00,0.0372
1071.00,0.0366
1070.00,0.0360
1069.00,0.0355
1068.00,0.0350
1067.00,0.0345
1066.00,0.0341
1065.00,0.0342
1064.00,0.0347
1063.00,0.0360
1062.00,0.0378
1061.00,0.0402
1060.00,0.0427
1059.00,0.0451
1058.00,0.0469
1057.00,0.0481
1056.00,0.0487
1055.00,0.0490
1054.00,0.0489
1053.00,0.0486
1052.00,0.0482
1051.00,0.0478
1050.00,0.0473
1049.00,0.0468
1048.00,0.0461
1047.00,0.0452
1046.00,0.0441
1045.00,0.0429
1044.00,0.0417
1043.00,0.0407
1042.00,0.0398
1041.00,0.0391
1040.00,0.0386
1039.00,0.0384
1038.00,0.0385
1037.00,0.0389
1036.00,0.0396
1035.00,0.0407
1034.00,0.0424
1033.00,0.0446
1032.00,0.0473
1031.00,0.0505
1030.00,0.0540
1029.00,0.0575
1028.00,0.0608
1027.00,0.0636
1026.00,0.0658
1025.00,0.0673
1024.00,0.0681
1023.00,0.0685
1022.00,0.0683
1021.00,0.0675
1020.00,0.0663
1019.00,0.0646
1018.00,0.0624
1017.00,0.0600
1016.00,0.0574
1015.00,0.0547
1014.00,0.0521
1013.00,0.0497
1012.00,0.0474
1011.00,0.0452
1010.00,0.0432
1009.00,0.0414
1008.00,0.0398
1007.00,0.0383
1006.00,0.0370
1005.00,0.0359
1004.00,0.0349
1003.00,0.0340
1002.00,0.0332
1001.00,0.0324
1000.00,0.0317
999.00,0.0311
998.00,0.0305
997.00,0.0300
996.00,0.0295
995.00,0.0291
994.00,0.0287
993.00,0.0283
992.00,0.0280
991.00,0.0278
990.00,0.0277
989.00,0.0275
988.00,0.0275
987.00,0.0275
986.00,0.0276
985.00,0.0277
984.00,0.0278
983.00,0.0279
982.00,0.0278
981.00,0.0277
980.00,0.0275
979.00,0.0272
978.00,0.0268
977.00,0.0264
976.00,0.0259
975.00,0.0253
974.00,0.0249
973.00,0.0245
972.00,0.0242
971.00,0.0239
970.00,0.0237
969.00,0.0236
968.00,0.0235
967.00,0.0235
966.00,0.0236
965.00,0.0238
964.00,0.0241
963.00,0.0243
962.00,0.0244
961.00,0.0244
960.00,0.0242
959.00,0.0241
958.00,0.0239
957.00,0.0239
956.00,0.0239
955.00,0.0240
954.00,0.0243
953.00,0.0247
952.00,0.0252
951.00,0.0255
950.00,0.0256
949.00,0.0254
948.00,0.0251
947.00,0.0246
946.00,0.0240
945.00,0.0235
944.00,0.0229
943.00,0.0223
942.00,0.0218
941.00,0.0214
940.00,0.0210
939.00,0.0206
938.00,0.0203
937.00,0.0199
936.00,0.0196
935.00,0.0194
934.00,0.0191
933.00,0.0189
932.00,0.0187
931.00,0.0185
930.00,0.0184
929.00,0.0183
928.00,0.0181
927.00,0.0180
926.00,0.0180
925.00,0.0179
924.00,0.0178
923.00,0.0178
922.00,0.0177
921.00,0.0177
920.00,0.0176
919.00,0.0174
918.00,0.0173
917.00,0.0172
916.00,0.0170
915.00,0.0169
914.00,0.0167
913.00,0.0166
912.00,0.0165
911.00,0.0165
910.00,0.0164
909.00,0.0163
908.00,0.0162
907.00,0.0162
906.00,0.0161
905.00,0.0160
904.00,0.0159
903.00,0.0158
902.00,0.0157
901.00,0.0156
900.00,0.0156
899.00,0.0155
898.00,0.0154
897.00,0.0154
896.00,0.0153
895.00,0.0152
894.00,0.0152
893.00,0.0151
892.00,0.0150
891.00,0.0150
890.00,0.0149
889.00,0.0148
888.00,0.0147
887.00,0.0146
886.00,0.0146
885.00,0.0146
884.00,0.0146
883.00,0.0146
882.00,0.0147
881.00,0.0147
880.00,0.0147
879.00,0.0148
878.00,0.0149
877.00,0.0150
876.00,0.0151
875.00,0.0153
874.00,0.0154
873.00,0.0154
872.00,0.0153
871.00,0.0151
870.00,0.0149
869.00,0.0148
868.00,0.0147
867.00,0.0149
866.00,0.0155
865.00,0.0167
864.00,0.0189
863.00,0.0224
862.00,0.0269
861.00,0.0315
860.00,0.0348
859.00,0.0359
858.00,0.0344
857.00,0.0312
856.00,0.0274
855.00,0.0240
854.00,0.0214
853.00,0.0195
852.00,0.0183
851.00,0.0175
850.00,0.0172
849.00,0.0172
848.00,0.0177
847.00,0.0187
846.00,0.0202
845.00,0.0218
844.00,0.0231
843.00,0.0239
842.00,0.0240
841.00,0.0237
840.00,0.0234
839.00,0.0235
838.00,0.0243
837.00,0.0262
836.00,0.0292
835.00,0.0336
834.00,0.0396
833.00,0.0470
832.00,0.0547
831.00,0.0605
830.00,0.0626
829.00,0.0604
828.00,0.0552
827.00,0.0488
826.00,0.0427
825.00,0.0376
824.00,0.0336
823.00,0.0306
822.00,0.0282
821.00,0.0264
820.00,0.0248
819.00,0.0235
818.00,0.0224
817.00,0.0216
816.00,0.0209
815.00,0.0204
814.00,0.0199
813.00,0.0196
812.00,0.0195
811.00,0.0195
810.00,0.0197
809.00,0.0201
808.00,0.0206
807.00,0.0214
806.00,0.0223
805.00,0.0233
804.00,0.0241
803.00,0.0243
802.00,0.0239
801.00,0.0228
800.00,0.0216
799.00,0.0206
798.00,0.0202
797.00,0.0204
796.00,0.0212
795.00,0.0223
794.00,0.0235
793.00,0.0245
792.00,0.0251
791.00,0.0255
790.00,0.0259
789.00,0.0268
788.00,0.0280
787.00,0.0295
786.00,0.0308
785.00,0.0319
784.00,0.0328
783.00,0.0338
782.00,0.0355
781.00,0.0382
780.00,0.0414
779.00,0.0438
778.00,0.0442
777.00,0.0423
776.00,0.0388
775.00,0.0350
774.00,0.0316
773.00,0.0288
772.00,0.0265
771.00,0.0247
770.00,0.0232
769.00,0.0221
768.00,0.0214
767.00,0.0211
766.00,0.0212
765.00,0.0215
764.00,0.0221
763.00,0.0227
762.00,0.0236
761.00,0.0246
760.00,0.0258
759.00,0.0274
758.00,0.0295
757.00,0.0324
756.00,0.0362
755.00,0.0408
754.00,0.0454
753.00,0.0488
752.00,0.0499
751.00,0.0488
750.00,0.0467
749.00,0.0447
748.00,0.0435
747.00,0.0430
746.00,0.0428
745.00,0.0424
744.00,0.0417
743.00,0.0411
742.00,0.0410
741.00,0.0419
740.00,0.0436
739.00,0.0458
738.00,0.0475
737.00,0.0477
736.00,0.0460
735.00,0.0428
734.00,0.0388
733.00,0.0349
732.00,0.0316
731.00,0.0289
730.00,0.0267
729.00,0.0250
728.00,0.0236
727.00,0.0224
726.00,0.0216
725.00,0.0210
724.00,0.0206
723.00,0.0205
722.00,0.0207
721.00,0.0212
720.00,0.0223
719.00,0.0241
718.00,0.0266
717.00,0.0297
716.00,0.0332
715.00,0.0373
714.00,0.0422
713.00,0.0486
712.00,0.0562
711.00,0.0642
710.00,0.0704
709.00,0.0729
708.00,0.0708
707.00,0.0650
706.00,0.0574
705.00,0.0500
704.00,0.0439
703.00,0.0391
702.00,0.0357
701.00,0.0331
700.00,0.0311
699.00,0.0294
698.00,0.0282
697.00,0.0274
696.00,0.0268
695.00,0.0265
694.00,0.0265
693.00,0.0268
692.00,0.0273
691.00,0.0282
690.00,0.0295
689.00,0.0313
688.00,0.0340
687.00,0.0377
686.00,0.0426
685.00,0.0481
684.00,0.0532
683.00,0.0564
682.00,0.0574
681.00,0.0566
680.00,0.0550
679.00,0.0536
678.00,0.0522
677.00,0.0506
676.00,0.0486
675.00,0.0461
674.00,0.0436
673.00,0.0412
672.00,0.0391
671.00,0.0374
670.00,0.0359
669.00,0.0344
668.00,0.0329
667.00,0.0317
666.00,0.0309
665.00,0.0306
664.00,0.0304
663.00,0.0303
662.00,0.0304
661.00,0.0306
660.00,0.0310
659.00,0.0314
658.00,0.0320
657.00,0.0326
656.00,0.0334
655.00,0.0343
654.00,0.0352
653.00,0.0362
652.00,0.0373
651.00,0.0384
650.00,0.0395
649.00,0.0405
648.00,0.0414
647.00,0.0418
646.00,0.0419
645.00,0.0414
644.00,0.0405
643.00,0.0392
642.00,0.0375
641.00,0.0355
640.00,0.0334
639.00,0.0312
638.00,0.0293
637.00,0.0275
636.00,0.0261
635.00,0.0251
634.00,0.0243
633.00,0.0237
632.00,0.0235
631.00,0.0235
630.00,0.0238
629.00,0.0244
628.00,0.0252
627.00,0.0262
626.00,0.0274
625.00,0.0287
624.00,0.0302
623.00,0.0318
622.00,0.0335
621.00,0.0353
620.00,0.0372
619.00,0.0393
618.00,0.0414
617.00,0.0436
616.00,0.0456
615.00,0.0473
614.00,0.0485
613.00,0.0488
612.00,0.0478
611.00,0.0459
610.00,0.0441
609.00,0.0430
608.00,0.0428
607.00,0.0425
606.00,0.0416
605.00,0.0403
604.00,0.0389
603.00,0.0379
602.00,0.0375
601.00,0.0379
600.00,0.0391
599.00,0.0409
598.00,0.0424
597.00,0.0430
596.00,0.0425
595.00,0.0411
594.00,0.0392
593.00,0.0373
592.00,0.0354
591.00,0.0338
590.00,0.0323
589.00,0.0311
588.00,0.0305
587.00,0.0306
586.00,0.0316
585.00,0.0335
584.00,0.0360
583.00,0.0386
582.00,0.0407
581.00,0.0422
580.00,0.0428
579.00,0.0428
578.00,0.0421
577.00,0.0410
576.00,0.0398
575.00,0.0387
574.00,0.0377
573.00,0.0370
572.00,0.0364
571.00,0.0358
570.00,0.0353
569.00,0.0348
568.00,0.0343
567.00,0.0339
566.00,0.0336
565.00,0.0334
564.00,0.0333
563.00,0.0332
562.00,0.0329
561.00,0.0325
560.00,0.0319
559.00,0.0311
558.00,0.0303
557.00,0.0295
556.00,0.0286
555.00,0.0278
554.00,0.0271
553.00,0.0265
552.00,0.0260
551.00,0.0257
550.00,0.0255
549.00,0.0252
548.00,0.0248
547.00,0.0244
546.00,0.0241
545.00,0.0238
544.00,0.0235
543.00,0.0233
542.00,0.0231
541.00,0.0230
540.00,0.0229
539.00,0.0227
538.00,0.0225
537.00,0.0223
536.00,0.0221
535.00,0.0219
534.00,0.0217
533.00,0.0215
532.00,0.0213
531.00,0.0212
530.00,0.0211
529.00,0.0210
528.00,0.0210
527.00,0.0209
526.00,0.0208
525.00,0.0206
524.00,0.0204
523.00,0.0201
522.00,0.0199
521.00,0.0198
520.00,0.0197
519.00,0.0197
518.00,0.0197
517.00,0.0196
516.00,0.0196
515.00,0.0196
514.00,0.0199
513.00,0.0203
512.00,0.0208
511.00,0.0213
510.00,0.0217
509.00,0.0218
508.00,0.0217
507.00,0.0215
506.00,0.0212
505.00,0.0210
504.00,0.0208
503.00,0.0205
502.00,0.0201
501.00,0.0197
500.00,0.0193
499.00,0.0190
498.00,0.0188
497.00,0.0188
496.00,0.0187
495.00,0.0186
494.00,0.0184
493.00,0.0182
492.00,0.0181
491.00,0.0181
490.00,0.0182
489.00,0.0183
488.00,0.0183
487.00,0.0182
486.00,0.0181
485.00,0.0182
484.00,0.0183
483.00,0.0184
482.00,0.0184
481.00,0.0184
480.00,0.0184
479.00,0.0185
478.00,0.0186
477.00,0.0188
476.00,0.0190
475.00,0.0192
474.00,0.0194
473.00,0.0197
472.00,0.0200
471.00,0.0204
470.00,0.0206
469.00,0.0208
468.00,0.0209
467.00,0.0209
466.00,0.0208
465.00,0.0207
464.00,0.0205
463.00,0.0202
462.00,0.0199
461.00,0.0197
460.00,0.0195
459.00,0.0194
458.00,0.0192
457.00,0.0192
456.00,0.0194
455.00,0.0197
454.00,0.0199
453.00,0.0200
452.00,0.0201
451.00,0.0203
450.00,0.0207
449.00,0.0211
448.00,0.0212
447.00,0.0210
446.00,0.0206
445.00,0.0199
444.00,0.0193
443.00,0.0190
442.00,0.0189
441.00,0.0189
440.00,0.0188
439.00,0.0188
438.00,0.0186
437.00,0.0182
436.00,0.0176
435.00,0.0173
434.00,0.0173
433.00,0.0174
432.00,0.0173
431.00,0.0170
430.00,0.0166
429.00,0.0165
428.00,0.0164
427.00,0.0165
426.00,0.0166
425.00,0.0165
424.00,0.0165
423.00,0.0168
422.00,0.0174
421.00,0.0180
420.00,0.0183
419.00,0.0187
418.00,0.0194
417.00,0.0203
416.00,0.0211
415.00,0.0217
414.00,0.0226
413.00,0.0238
412.00,0.0255
411.00,0.0276
410.00,0.0296
409.00,0.0311
408.00,0.0319
407.00,0.0321
406.00,0.0318
405.00,0.0313
404.00,0.0307
403.00,0.0301
402.00,0.0293
401.00,0.0284
400.00,0.0283
