Created as New Dataset,Sample 774 By YargerLab Date Monday, July 07 2025
cm-1,A
4000.00,0.0047
3999.00,0.0047
3998.00,0.0047
3997.00,0.0047
3996.00,0.0047
3995.00,0.0047
3994.00,0.0047
3993.00,0.0047
3992.00,0.0047
3991.00,0.0047
3990.00,0.0047
3989.00,0.0047
3988.00,0.0047
3987.00,0.0047
3986.00,0.0047
3985.00,0.0047
3984.00,0.0047
3983.00,0.0047
3982.00,0.0047
3981.00,0.0047
3980.00,0.0047
3979.00,0.0047
3978.00,0.0047
3977.00,0.0047
3976.00,0.0047
3975.00,0.0047
3974.00,0.0047
3973.00,0.0047
3972.00,0.0047
3971.00,0.0047
3970.00,0.0047
3969.00,0.0047
3968.00,0.0047
3967.00,0.0047
3966.00,0.0047
3965.00,0.0047
3964.00,0.0047
3963.00,0.0047
3962.00,0.0047
3961.00,0.0047
3960.00,0.0047
3959.00,0.0047
3958.00,0.0048
3957.00,0.0048
3956.00,0.0048
3955.00,0.0048
3954.00,0.0047
3953.00,0.0047
3952.00,0.0047
3951.00,0.0046
3950.00,0.0047
3949.00,0.0047
3948.00,0.0047
3947.00,0.0047
3946.00,0.0047
3945.00,0.0047
3944.00,0.0047
3943.00,0.0047
3942.00,0.0047
3941.00,0.0047
3940.00,0.0047
3939.00,0.0047
3938.00,0.0047
3937.00,0.0047
3936.00,0.0047
3935.00,0.0047
3934.00,0.0047
3933.00,0.0047
3932.00,0.0047
3931.00,0.0047
3930.00,0.0047
3929.00,0.0047
3928.00,0.0047
3927.00,0.0047
3926.00,0.0047
3925.00,0.0047
3924.00,0.0047
3923.00,0.0046
3922.00,0.0046
3921.00,0.0046
3920.00,0.0046
3919.00,0.0046
3918.00,0.0047
3917.00,0.0047
3916.00,0.0047
3915.00,0.0047
3914.00,0.0047
3913.00,0.0047
3912.00,0.0047
3911.00,0.0047
3910.00,0.0047
3909.00,0.0047
3908.00,0.0046
3907.00,0.0046
3906.00,0.0046
3905.00,0.0046
3904.00,0.0046
3903.00,0.0046
3902.00,0.0046
3901.00,0.0046
3900.00,0.0046
3899.00,0.0046
3898.00,0.0046
3897.00,0.0046
3896.00,0.0046
3895.00,0.0046
3894.00,0.0046
3893.00,0.0046
3892.00,0.0046
3891.00,0.0046
3890.00,0.0046
3889.00,0.0046
3888.00,0.0046
3887.00,0.0046
3886.00,0.0046
3885.00,0.0046
3884.00,0.0046
3883.00,0.0046
3882.00,0.0046
3881.00,0.0046
3880.00,0.0046
3879.00,0.0047
3878.00,0.0047
3877.00,0.0047
3876.00,0.0047
3875.00,0.0047
3874.00,0.0046
3873.00,0.0046
3872.00,0.0046
3871.00,0.0046
3870.00,0.0046
3869.00,0.0046
3868.00,0.0046
3867.00,0.0046
3866.00,0.0046
3865.00,0.0046
3864.00,0.0046
3863.00,0.0046
3862.00,0.0046
3861.00,0.0046
3860.00,0.0046
3859.00,0.0046
3858.00,0.0046
3857.00,0.0046
3856.00,0.0046
3855.00,0.0046
3854.00,0.0046
3853.00,0.0046
3852.00,0.0046
3851.00,0.0045
3850.00,0.0045
3849.00,0.0046
3848.00,0.0046
3847.00,0.0046
3846.00,0.0046
3845.00,0.0046
3844.00,0.0046
3843.00,0.0046
3842.00,0.0046
3841.00,0.0046
3840.00,0.0046
3839.00,0.0046
3838.00,0.0046
3837.00,0.0046
3836.00,0.0046
3835.00,0.0046
3834.00,0.0046
3833.00,0.0046
3832.00,0.0046
3831.00,0.0046
3830.00,0.0046
3829.00,0.0046
3828.00,0.0046
3827.00,0.0047
3826.00,0.0047
3825.00,0.0047
3824.00,0.0047
3823.00,0.0046
3822.00,0.0046
3821.00,0.0047
3820.00,0.0046
3819.00,0.0046
3818.00,0.0046
3817.00,0.0046
3816.00,0.0046
3815.00,0.0046
3814.00,0.0046
3813.00,0.0046
3812.00,0.0046
3811.00,0.0046
3810.00,0.0046
3809.00,0.0046
3808.00,0.0046
3807.00,0.0046
3806.00,0.0046
3805.00,0.0046
3804.00,0.0046
3803.00,0.0046
3802.00,0.0046
3801.00,0.0046
3800.00,0.0046
3799.00,0.0046
3798.00,0.0046
3797.00,0.0046
3796.00,0.0046
3795.00,0.0046
3794.00,0.0046
3793.00,0.0047
3792.00,0.0047
3791.00,0.0047
3790.00,0.0047
3789.00,0.0047
3788.00,0.0047
3787.00,0.0047
3786.00,0.0046
3785.00,0.0046
3784.00,0.0046
3783.00,0.0046
3782.00,0.0046
3781.00,0.0046
3780.00,0.0046
3779.00,0.0046
3778.00,0.0046
3777.00,0.0046
3776.00,0.0046
3775.00,0.0046
3774.00,0.0046
3773.00,0.0046
3772.00,0.0046
3771.00,0.0047
3770.00,0.0047
3769.00,0.0047
3768.00,0.0047
3767.00,0.0047
3766.00,0.0047
3765.00,0.0046
3764.00,0.0046
3763.00,0.0046
3762.00,0.0046
3761.00,0.0046
3760.00,0.0046
3759.00,0.0046
3758.00,0.0046
3757.00,0.0046
3756.00,0.0046
3755.00,0.0046
3754.00,0.0047
3753.00,0.0047
3752.00,0.0047
3751.00,0.0047
3750.00,0.0046
3749.00,0.0046
3748.00,0.0046
3747.00,0.0045
3746.00,0.0045
3745.00,0.0045
3744.00,0.0045
3743.00,0.0045
3742.00,0.0045
3741.00,0.0045
3740.00,0.0045
3739.00,0.0046
3738.00,0.0046
3737.00,0.0046
3736.00,0.0046
3735.00,0.0045
3734.00,0.0045
3733.00,0.0044
3732.00,0.0044
3731.00,0.0045
3730.00,0.0045
3729.00,0.0046
3728.00,0.0046
3727.00,0.0047
3726.00,0.0047
3725.00,0.0047
3724.00,0.0047
3723.00,0.0047
3722.00,0.0046
3721.00,0.0046
3720.00,0.0046
3719.00,0.0045
3718.00,0.0045
3717.00,0.0045
3716.00,0.0045
3715.00,0.0045
3714.00,0.0045
3713.00,0.0046
3712.00,0.0046
3711.00,0.0046
3710.00,0.0046
3709.00,0.0046
3708.00,0.0045
3707.00,0.0045
3706.00,0.0045
3705.00,0.0045
3704.00,0.0045
3703.00,0.0044
3702.00,0.0044
3701.00,0.0044
3700.00,0.0043
3699.00,0.0043
3698.00,0.0043
3697.00,0.0043
3696.00,0.0044
3695.00,0.0044
3694.00,0.0044
3693.00,0.0044
3692.00,0.0044
3691.00,0.0043
3690.00,0.0042
3689.00,0.0042
3688.00,0.0042
3687.00,0.0042
3686.00,0.0043
3685.00,0.0043
3684.00,0.0043
3683.00,0.0043
3682.00,0.0043
3681.00,0.0043
3680.00,0.0043
3679.00,0.0043
3678.00,0.0042
3677.00,0.0042
3676.00,0.0041
3675.00,0.0040
3674.00,0.0040
3673.00,0.0040
3672.00,0.0039
3671.00,0.0039
3670.00,0.0039
3669.00,0.0039
3668.00,0.0040
3667.00,0.0040
3666.00,0.0040
3665.00,0.0040
3664.00,0.0040
3663.00,0.0040
3662.00,0.0039
3661.00,0.0039
3660.00,0.0039
3659.00,0.0039
3658.00,0.0039
3657.00,0.0039
3656.00,0.0039
3655.00,0.0039
3654.00,0.0039
3653.00,0.0039
3652.00,0.0039
3651.00,0.0039
3650.00,0.0039
3649.00,0.0040
3648.00,0.0040
3647.00,0.0040
3646.00,0.0040
3645.00,0.0040
3644.00,0.0041
3643.00,0.0041
3642.00,0.0042
3641.00,0.0042
3640.00,0.0042
3639.00,0.0042
3638.00,0.0042
3637.00,0.0042
3636.00,0.0043
3635.00,0.0044
3634.00,0.0045
3633.00,0.0045
3632.00,0.0045
3631.00,0.0045
3630.00,0.0045
3629.00,0.0046
3628.00,0.0046
3627.00,0.0046
3626.00,0.0046
3625.00,0.0047
3624.00,0.0047
3623.00,0.0047
3622.00,0.0047
3621.00,0.0047
3620.00,0.0047
3619.00,0.0047
3618.00,0.0047
3617.00,0.0048
3616.00,0.0048
3615.00,0.0049
3614.00,0.0049
3613.00,0.0050
3612.00,0.0050
3611.00,0.0050
3610.00,0.0051
3609.00,0.0051
3608.00,0.0051
3607.00,0.0052
3606.00,0.0052
3605.00,0.0052
3604.00,0.0052
3603.00,0.0052
3602.00,0.0052
3601.00,0.0052
3600.00,0.0052
3599.00,0.0052
3598.00,0.0052
3597.00,0.0052
3596.00,0.0052
3595.00,0.0053
3594.00,0.0053
3593.00,0.0053
3592.00,0.0053
3591.00,0.0053
3590.00,0.0052
3589.00,0.0052
3588.00,0.0052
3587.00,0.0052
3586.00,0.0053
3585.00,0.0053
3584.00,0.0053
3583.00,0.0054
3582.00,0.0054
3581.00,0.0054
3580.00,0.0055
3579.00,0.0055
3578.00,0.0055
3577.00,0.0056
3576.00,0.0056
3575.00,0.0056
3574.00,0.0056
3573.00,0.0057
3572.00,0.0057
3571.00,0.0057
3570.00,0.0058
3569.00,0.0058
3568.00,0.0058
3567.00,0.0058
3566.00,0.0059
3565.00,0.0059
3564.00,0.0059
3563.00,0.0060
3562.00,0.0060
3561.00,0.0061
3560.00,0.0061
3559.00,0.0062
3558.00,0.0062
3557.00,0.0063
3556.00,0.0063
3555.00,0.0063
3554.00,0.0064
3553.00,0.0064
3552.00,0.0065
3551.00,0.0065
3550.00,0.0066
3549.00,0.0066
3548.00,0.0067
3547.00,0.0067
3546.00,0.0068
3545.00,0.0068
3544.00,0.0069
3543.00,0.0070
3542.00,0.0070
3541.00,0.0071
3540.00,0.0071
3539.00,0.0072
3538.00,0.0072
3537.00,0.0073
3536.00,0.0073
3535.00,0.0074
3534.00,0.0075
3533.00,0.0075
3532.00,0.0076
3531.00,0.0076
3530.00,0.0077
3529.00,0.0077
3528.00,0.0078
3527.00,0.0079
3526.00,0.0079
3525.00,0.0080
3524.00,0.0080
3523.00,0.0081
3522.00,0.0082
3521.00,0.0083
3520.00,0.0084
3519.00,0.0085
3518.00,0.0085
3517.00,0.0086
3516.00,0.0087
3515.00,0.0088
3514.00,0.0088
3513.00,0.0089
3512.00,0.0090
3511.00,0.0090
3510.00,0.0091
3509.00,0.0092
3508.00,0.0093
3507.00,0.0094
3506.00,0.0095
3505.00,0.0096
3504.00,0.0098
3503.00,0.0099
3502.00,0.0100
3501.00,0.0101
3500.00,0.0102
3499.00,0.0102
3498.00,0.0103
3497.00,0.0104
3496.00,0.0105
3495.00,0.0107
3494.00,0.0108
3493.00,0.0109
3492.00,0.0110
3491.00,0.0111
3490.00,0.0112
3489.00,0.0114
3488.00,0.0115
3487.00,0.0116
3486.00,0.0118
3485.00,0.0119
3484.00,0.0121
3483.00,0.0122
3482.00,0.0124
3481.00,0.0125
3480.00,0.0126
3479.00,0.0128
3478.00,0.0129
3477.00,0.0130
3476.00,0.0132
3475.00,0.0133
3474.00,0.0135
3473.00,0.0136
3472.00,0.0138
3471.00,0.0139
3470.00,0.0141
3469.00,0.0142
3468.00,0.0144
3467.00,0.0145
3466.00,0.0147
3465.00,0.0148
3464.00,0.0150
3463.00,0.0151
3462.00,0.0152
3461.00,0.0154
3460.00,0.0155
3459.00,0.0156
3458.00,0.0157
3457.00,0.0158
3456.00,0.0159
3455.00,0.0160
3454.00,0.0161
3453.00,0.0162
3452.00,0.0163
3451.00,0.0164
3450.00,0.0165
3449.00,0.0166
3448.00,0.0167
3447.00,0.0168
3446.00,0.0168
3445.00,0.0169
3444.00,0.0170
3443.00,0.0170
3442.00,0.0171
3441.00,0.0172
3440.00,0.0172
3439.00,0.0173
3438.00,0.0173
3437.00,0.0174
3436.00,0.0174
3435.00,0.0175
3434.00,0.0175
3433.00,0.0175
3432.00,0.0176
3431.00,0.0176
3430.00,0.0176
3429.00,0.0176
3428.00,0.0177
3427.00,0.0177
3426.00,0.0177
3425.00,0.0177
3424.00,0.0177
3423.00,0.0178
3422.00,0.0178
3421.00,0.0178
3420.00,0.0178
3419.00,0.0179
3418.00,0.0179
3417.00,0.0179
3416.00,0.0179
3415.00,0.0179
3414.00,0.0180
3413.00,0.0180
3412.00,0.0180
3411.00,0.0180
3410.00,0.0180
3409.00,0.0180
3408.00,0.0180
3407.00,0.0180
3406.00,0.0180
3405.00,0.0180
3404.00,0.0181
3403.00,0.0181
3402.00,0.0181
3401.00,0.0181
3400.00,0.0181
3399.00,0.0182
3398.00,0.0182
3397.00,0.0182
3396.00,0.0182
3395.00,0.0182
3394.00,0.0182
3393.00,0.0182
3392.00,0.0182
3391.00,0.0182
3390.00,0.0182
3389.00,0.0182
3388.00,0.0182
3387.00,0.0182
3386.00,0.0182
3385.00,0.0183
3384.00,0.0183
3383.00,0.0183
3382.00,0.0183
3381.00,0.0183
3380.00,0.0183
3379.00,0.0183
3378.00,0.0183
3377.00,0.0183
3376.00,0.0183
3375.00,0.0184
3374.00,0.0184
3373.00,0.0184
3372.00,0.0184
3371.00,0.0184
3370.00,0.0184
3369.00,0.0184
3368.00,0.0184
3367.00,0.0184
3366.00,0.0184
3365.00,0.0184
3364.00,0.0185
3363.00,0.0185
3362.00,0.0185
3361.00,0.0185
3360.00,0.0186
3359.00,0.0186
3358.00,0.0186
3357.00,0.0186
3356.00,0.0186
3355.00,0.0186
3354.00,0.0187
3353.00,0.0187
3352.00,0.0187
3351.00,0.0187
3350.00,0.0187
3349.00,0.0187
3348.00,0.0187
3347.00,0.0188
3346.00,0.0188
3345.00,0.0188
3344.00,0.0188
3343.00,0.0188
3342.00,0.0188
3341.00,0.0188
3340.00,0.0188
3339.00,0.0188
3338.00,0.0188
3337.00,0.0189
3336.00,0.0189
3335.00,0.0189
3334.00,0.0190
3333.00,0.0190
3332.00,0.0190
3331.00,0.0190
3330.00,0.0190
3329.00,0.0190
3328.00,0.0190
3327.00,0.0189
3326.00,0.0189
3325.00,0.0190
3324.00,0.0190
3323.00,0.0190
3322.00,0.0191
3321.00,0.0191
3320.00,0.0191
3319.00,0.0191
3318.00,0.0191
3317.00,0.0192
3316.00,0.0192
3315.00,0.0192
3314.00,0.0192
3313.00,0.0192
3312.00,0.0191
3311.00,0.0191
3310.00,0.0190
3309.00,0.0189
3308.00,0.0189
3307.00,0.0189
3306.00,0.0189
3305.00,0.0189
3304.00,0.0190
3303.00,0.0191
3302.00,0.0191
3301.00,0.0191
3300.00,0.0191
3299.00,0.0191
3298.00,0.0191
3297.00,0.0190
3296.00,0.0190
3295.00,0.0189
3294.00,0.0189
3293.00,0.0189
3292.00,0.0189
3291.00,0.0190
3290.00,0.0190
3289.00,0.0190
3288.00,0.0190
3287.00,0.0190
3286.00,0.0190
3285.00,0.0190
3284.00,0.0190
3283.00,0.0190
3282.00,0.0190
3281.00,0.0190
3280.00,0.0189
3279.00,0.0189
3278.00,0.0189
3277.00,0.0188
3276.00,0.0188
3275.00,0.0188
3274.00,0.0188
3273.00,0.0188
3272.00,0.0187
3271.00,0.0187
3270.00,0.0187
3269.00,0.0188
3268.00,0.0188
3267.00,0.0188
3266.00,0.0188
3265.00,0.0188
3264.00,0.0188
3263.00,0.0188
3262.00,0.0187
3261.00,0.0187
3260.00,0.0187
3259.00,0.0187
3258.00,0.0186
3257.00,0.0186
3256.00,0.0186
3255.00,0.0186
3254.00,0.0186
3253.00,0.0186
3252.00,0.0186
3251.00,0.0186
3250.00,0.0185
3249.00,0.0185
3248.00,0.0185
3247.00,0.0184
3246.00,0.0184
3245.00,0.0184
3244.00,0.0184
3243.00,0.0184
3242.00,0.0184
3241.00,0.0184
3240.00,0.0183
3239.00,0.0183
3238.00,0.0183
3237.00,0.0183
3236.00,0.0182
3235.00,0.0182
3234.00,0.0182
3233.00,0.0181
3232.00,0.0181
3231.00,0.0181
3230.00,0.0181
3229.00,0.0180
3228.00,0.0180
3227.00,0.0180
3226.00,0.0180
3225.00,0.0179
3224.00,0.0179
3223.00,0.0179
3222.00,0.0179
3221.00,0.0179
3220.00,0.0179
3219.00,0.0178
3218.00,0.0178
3217.00,0.0178
3216.00,0.0177
3215.00,0.0177
3214.00,0.0177
3213.00,0.0177
3212.00,0.0177
3211.00,0.0177
3210.00,0.0177
3209.00,0.0177
3208.00,0.0177
3207.00,0.0176
3206.00,0.0176
3205.00,0.0176
3204.00,0.0175
3203.00,0.0175
3202.00,0.0175
3201.00,0.0175
3200.00,0.0175
3199.00,0.0175
3198.00,0.0174
3197.00,0.0174
3196.00,0.0174
3195.00,0.0174
3194.00,0.0174
3193.00,0.0173
3192.00,0.0173
3191.00,0.0173
3190.00,0.0172
3189.00,0.0172
3188.00,0.0171
3187.00,0.0171
3186.00,0.0171
3185.00,0.0170
3184.00,0.0170
3183.00,0.0170
3182.00,0.0169
3181.00,0.0169
3180.00,0.0168
3179.00,0.0168
3178.00,0.0167
3177.00,0.0167
3176.00,0.0167
3175.00,0.0166
3174.00,0.0166
3173.00,0.0165
3172.00,0.0165
3171.00,0.0165
3170.00,0.0164
3169.00,0.0164
3168.00,0.0164
3167.00,0.0163
3166.00,0.0163
3165.00,0.0162
3164.00,0.0162
3163.00,0.0162
3162.00,0.0161
3161.00,0.0160
3160.00,0.0159
3159.00,0.0159
3158.00,0.0158
3157.00,0.0157
3156.00,0.0157
3155.00,0.0156
3154.00,0.0155
3153.00,0.0155
3152.00,0.0155
3151.00,0.0154
3150.00,0.0154
3149.00,0.0154
3148.00,0.0154
3147.00,0.0153
3146.00,0.0153
3145.00,0.0152
3144.00,0.0152
3143.00,0.0151
3142.00,0.0151
3141.00,0.0150
3140.00,0.0150
3139.00,0.0149
3138.00,0.0149
3137.00,0.0148
3136.00,0.0148
3135.00,0.0147
3134.00,0.0147
3133.00,0.0146
3132.00,0.0146
3131.00,0.0145
3130.00,0.0145
3129.00,0.0144
3128.00,0.0144
3127.00,0.0144
3126.00,0.0143
3125.00,0.0142
3124.00,0.0142
3123.00,0.0141
3122.00,0.0141
3121.00,0.0140
3120.00,0.0140
3119.00,0.0139
3118.00,0.0139
3117.00,0.0138
3116.00,0.0138
3115.00,0.0138
3114.00,0.0137
3113.00,0.0137
3112.00,0.0136
3111.00,0.0136
3110.00,0.0135
3109.00,0.0135
3108.00,0.0134
3107.00,0.0134
3106.00,0.0134
3105.00,0.0133
3104.00,0.0133
3103.00,0.0133
3102.00,0.0132
3101.00,0.0132
3100.00,0.0132
3099.00,0.0132
3098.00,0.0131
3097.00,0.0131
3096.00,0.0131
3095.00,0.0131
3094.00,0.0131
3093.00,0.0131
3092.00,0.0131
3091.00,0.0131
3090.00,0.0131
3089.00,0.0131
3088.00,0.0132
3087.00,0.0132
3086.00,0.0132
3085.00,0.0132
3084.00,0.0133
3083.00,0.0133
3082.00,0.0134
3081.00,0.0135
3080.00,0.0135
3079.00,0.0136
3078.00,0.0136
3077.00,0.0137
3076.00,0.0137
3075.00,0.0137
3074.00,0.0137
3073.00,0.0137
3072.00,0.0136
3071.00,0.0136
3070.00,0.0135
3069.00,0.0134
3068.00,0.0133
3067.00,0.0131
3066.00,0.0129
3065.00,0.0128
3064.00,0.0126
3063.00,0.0125
3062.00,0.0123
3061.00,0.0122
3060.00,0.0121
3059.00,0.0120
3058.00,0.0119
3057.00,0.0118
3056.00,0.0117
3055.00,0.0116
3054.00,0.0116
3053.00,0.0115
3052.00,0.0115
3051.00,0.0115
3050.00,0.0115
3049.00,0.0114
3048.00,0.0114
3047.00,0.0114
3046.00,0.0114
3045.00,0.0114
3044.00,0.0114
3043.00,0.0114
3042.00,0.0114
3041.00,0.0114
3040.00,0.0114
3039.00,0.0114
3038.00,0.0114
3037.00,0.0113
3036.00,0.0113
3035.00,0.0113
3034.00,0.0113
3033.00,0.0112
3032.00,0.0112
3031.00,0.0112
3030.00,0.0112
3029.00,0.0111
3028.00,0.0111
3027.00,0.0111
3026.00,0.0110
3025.00,0.0110
3024.00,0.0110
3023.00,0.0109
3022.00,0.0109
3021.00,0.0109
3020.00,0.0109
3019.00,0.0109
3018.00,0.0108
3017.00,0.0108
3016.00,0.0108
3015.00,0.0108
3014.00,0.0107
3013.00,0.0106
3012.00,0.0106
3011.00,0.0105
3010.00,0.0105
3009.00,0.0104
3008.00,0.0103
3007.00,0.0103
3006.00,0.0102
3005.00,0.0101
3004.00,0.0100
3003.00,0.0100
3002.00,0.0099
3001.00,0.0098
3000.00,0.0098
2999.00,0.0098
2998.00,0.0098
2997.00,0.0099
2996.00,0.0099
2995.00,0.0100
2994.00,0.0102
2993.00,0.0103
2992.00,0.0104
2991.00,0.0106
2990.00,0.0107
2989.00,0.0109
2988.00,0.0110
2987.00,0.0111
2986.00,0.0111
2985.00,0.0109
2984.00,0.0107
2983.00,0.0104
2982.00,0.0103
2981.00,0.0104
2980.00,0.0109
2979.00,0.0115
2978.00,0.0123
2977.00,0.0130
2976.00,0.0137
2975.00,0.0143
2974.00,0.0148
2973.00,0.0153
2972.00,0.0159
2971.00,0.0166
2970.00,0.0174
2969.00,0.0184
2968.00,0.0193
2967.00,0.0203
2966.00,0.0212
2965.00,0.0220
2964.00,0.0229
2963.00,0.0236
2962.00,0.0243
2961.00,0.0249
2960.00,0.0254
2959.00,0.0258
2958.00,0.0262
2957.00,0.0264
2956.00,0.0266
2955.00,0.0267
2954.00,0.0268
2953.00,0.0267
2952.00,0.0266
2951.00,0.0265
2950.00,0.0264
2949.00,0.0263
2948.00,0.0263
2947.00,0.0264
2946.00,0.0266
2945.00,0.0268
2944.00,0.0273
2943.00,0.0278
2942.00,0.0284
2941.00,0.0291
2940.00,0.0298
2939.00,0.0307
2938.00,0.0316
2937.00,0.0326
2936.00,0.0335
2935.00,0.0345
2934.00,0.0354
2933.00,0.0363
2932.00,0.0372
2931.00,0.0380
2930.00,0.0387
2929.00,0.0392
2928.00,0.0397
2927.00,0.0401
2926.00,0.0403
2925.00,0.0404
2924.00,0.0404
2923.00,0.0403
2922.00,0.0401
2921.00,0.0398
2920.00,0.0393
2919.00,0.0389
2918.00,0.0383
2917.00,0.0377
2916.00,0.0371
2915.00,0.0365
2914.00,0.0358
2913.00,0.0352
2912.00,0.0345
2911.00,0.0339
2910.00,0.0332
2909.00,0.0326
2908.00,0.0319
2907.00,0.0313
2906.00,0.0307
2905.00,0.0302
2904.00,0.0297
2903.00,0.0292
2902.00,0.0287
2901.00,0.0283
2900.00,0.0279
2899.00,0.0275
2898.00,0.0271
2897.00,0.0268
2896.00,0.0264
2895.00,0.0261
2894.00,0.0257
2893.00,0.0254
2892.00,0.0250
2891.00,0.0247
2890.00,0.0244
2889.00,0.0242
2888.00,0.0240
2887.00,0.0238
2886.00,0.0236
2885.00,0.0235
2884.00,0.0233
2883.00,0.0233
2882.00,0.0233
2881.00,0.0234
2880.00,0.0235
2879.00,0.0237
2878.00,0.0238
2877.00,0.0241
2876.00,0.0243
2875.00,0.0246
2874.00,0.0248
2873.00,0.0251
2872.00,0.0253
2871.00,0.0254
2870.00,0.0255
2869.00,0.0255
2868.00,0.0255
2867.00,0.0255
2866.00,0.0256
2865.00,0.0257
2864.00,0.0260
2863.00,0.0264
2862.00,0.0269
2861.00,0.0274
2860.00,0.0280
2859.00,0.0285
2858.00,0.0288
2857.00,0.0291
2856.00,0.0291
2855.00,0.0290
2854.00,0.0286
2853.00,0.0280
2852.00,0.0273
2851.00,0.0265
2850.00,0.0256
2849.00,0.0247
2848.00,0.0238
2847.00,0.0228
2846.00,0.0220
2845.00,0.0211
2844.00,0.0203
2843.00,0.0196
2842.00,0.0190
2841.00,0.0185
2840.00,0.0180
2839.00,0.0177
2838.00,0.0175
2837.00,0.0174
2836.00,0.0174
2835.00,0.0173
2834.00,0.0173
2833.00,0.0173
2832.00,0.0172
2831.00,0.0171
2830.00,0.0168
2829.00,0.0166
2828.00,0.0162
2827.00,0.0158
2826.00,0.0153
2825.00,0.0149
2824.00,0.0144
2823.00,0.0139
2822.00,0.0135
2821.00,0.0131
2820.00,0.0128
2819.00,0.0125
2818.00,0.0122
2817.00,0.0119
2816.00,0.0117
2815.00,0.0115
2814.00,0.0114
2813.00,0.0112
2812.00,0.0111
2811.00,0.0109
2810.00,0.0108
2809.00,0.0107
2808.00,0.0106
2807.00,0.0105
2806.00,0.0104
2805.00,0.0103
2804.00,0.0102
2803.00,0.0101
2802.00,0.0101
2801.00,0.0100
2800.00,0.0099
2799.00,0.0099
2798.00,0.0098
2797.00,0.0097
2796.00,0.0097
2795.00,0.0096
2794.00,0.0095
2793.00,0.0095
2792.00,0.0094
2791.00,0.0094
2790.00,0.0093
2789.00,0.0093
2788.00,0.0093
2787.00,0.0093
2786.00,0.0092
2785.00,0.0092
2784.00,0.0092
2783.00,0.0091
2782.00,0.0091
2781.00,0.0091
2780.00,0.0091
2779.00,0.0090
2778.00,0.0090
2777.00,0.0090
2776.00,0.0089
2775.00,0.0089
2774.00,0.0089
2773.00,0.0089
2772.00,0.0088
2771.00,0.0088
2770.00,0.0088
2769.00,0.0088
2768.00,0.0088
2767.00,0.0088
2766.00,0.0088
2765.00,0.0088
2764.00,0.0088
2763.00,0.0088
2762.00,0.0088
2761.00,0.0088
2760.00,0.0088
2759.00,0.0088
2758.00,0.0087
2757.00,0.0087
2756.00,0.0087
2755.00,0.0087
2754.00,0.0087
2753.00,0.0087
2752.00,0.0087
2751.00,0.0087
2750.00,0.0087
2749.00,0.0087
2748.00,0.0087
2747.00,0.0087
2746.00,0.0087
2745.00,0.0087
2744.00,0.0087
2743.00,0.0088
2742.00,0.0088
2741.00,0.0088
2740.00,0.0088
2739.00,0.0088
2738.00,0.0088
2737.00,0.0088
2736.00,0.0089
2735.00,0.0089
2734.00,0.0089
2733.00,0.0090
2732.00,0.0090
2731.00,0.0090
2730.00,0.0090
2729.00,0.0090
2728.00,0.0090
2727.00,0.0090
2726.00,0.0090
2725.00,0.0090
2724.00,0.0090
2723.00,0.0089
2722.00,0.0089
2721.00,0.0089
2720.00,0.0089
2719.00,0.0088
2718.00,0.0088
2717.00,0.0087
2716.00,0.0087
2715.00,0.0087
2714.00,0.0087
2713.00,0.0086
2712.00,0.0086
2711.00,0.0086
2710.00,0.0086
2709.00,0.0085
2708.00,0.0085
2707.00,0.0085
2706.00,0.0085
2705.00,0.0085
2704.00,0.0085
2703.00,0.0085
2702.00,0.0085
2701.00,0.0084
2700.00,0.0084
2699.00,0.0084
2698.00,0.0084
2697.00,0.0084
2696.00,0.0084
2695.00,0.0084
2694.00,0.0084
2693.00,0.0084
2692.00,0.0084
2691.00,0.0084
2690.00,0.0084
2689.00,0.0084
2688.00,0.0084
2687.00,0.0084
2686.00,0.0084
2685.00,0.0084
2684.00,0.0084
2683.00,0.0084
2682.00,0.0084
2681.00,0.0084
2680.00,0.0084
2679.00,0.0084
2678.00,0.0084
2677.00,0.0084
2676.00,0.0084
2675.00,0.0084
2674.00,0.0084
2673.00,0.0084
2672.00,0.0084
2671.00,0.0084
2670.00,0.0084
2669.00,0.0084
2668.00,0.0084
2667.00,0.0084
2666.00,0.0084
2665.00,0.0085
2664.00,0.0085
2663.00,0.0086
2662.00,0.0086
2661.00,0.0086
2660.00,0.0086
2659.00,0.0086
2658.00,0.0086
2657.00,0.0086
2656.00,0.0086
2655.00,0.0086
2654.00,0.0086
2653.00,0.0086
2652.00,0.0086
2651.00,0.0085
2650.00,0.0085
2649.00,0.0085
2648.00,0.0085
2647.00,0.0085
2646.00,0.0085
2645.00,0.0085
2644.00,0.0084
2643.00,0.0084
2642.00,0.0084
2641.00,0.0084
2640.00,0.0084
2639.00,0.0084
2638.00,0.0084
2637.00,0.0084
2636.00,0.0084
2635.00,0.0084
2634.00,0.0083
2633.00,0.0083
2632.00,0.0083
2631.00,0.0083
2630.00,0.0083
2629.00,0.0083
2628.00,0.0083
2627.00,0.0082
2626.00,0.0082
2625.00,0.0082
2624.00,0.0082
2623.00,0.0082
2622.00,0.0081
2621.00,0.0081
2620.00,0.0082
2619.00,0.0082
2618.00,0.0082
2617.00,0.0081
2616.00,0.0081
2615.00,0.0081
2614.00,0.0080
2613.00,0.0080
2612.00,0.0080
2611.00,0.0080
2610.00,0.0079
2609.00,0.0079
2608.00,0.0079
2607.00,0.0078
2606.00,0.0078
2605.00,0.0078
2604.00,0.0077
2603.00,0.0077
2602.00,0.0077
2601.00,0.0077
2600.00,0.0077
2599.00,0.0077
2598.00,0.0076
2597.00,0.0076
2596.00,0.0076
2595.00,0.0076
2594.00,0.0077
2593.00,0.0077
2592.00,0.0076
2591.00,0.0076
2590.00,0.0075
2589.00,0.0075
2588.00,0.0075
2587.00,0.0075
2586.00,0.0076
2585.00,0.0075
2584.00,0.0075
2583.00,0.0075
2582.00,0.0075
2581.00,0.0075
2580.00,0.0075
2579.00,0.0075
2578.00,0.0074
2577.00,0.0074
2576.00,0.0074
2575.00,0.0074
2574.00,0.0074
2573.00,0.0074
2572.00,0.0074
2571.00,0.0074
2570.00,0.0074
2569.00,0.0074
2568.00,0.0074
2567.00,0.0073
2566.00,0.0073
2565.00,0.0072
2564.00,0.0072
2563.00,0.0072
2562.00,0.0072
2561.00,0.0072
2560.00,0.0072
2559.00,0.0072
2558.00,0.0072
2557.00,0.0072
2556.00,0.0072
2555.00,0.0072
2554.00,0.0072
2553.00,0.0072
2552.00,0.0072
2551.00,0.0072
2550.00,0.0071
2549.00,0.0071
2548.00,0.0071
2547.00,0.0071
2546.00,0.0071
2545.00,0.0070
2544.00,0.0070
2543.00,0.0070
2542.00,0.0070
2541.00,0.0070
2540.00,0.0070
2539.00,0.0070
2538.00,0.0069
2537.00,0.0069
2536.00,0.0068
2535.00,0.0068
2534.00,0.0068
2533.00,0.0068
2532.00,0.0068
2531.00,0.0068
2530.00,0.0068
2529.00,0.0068
2528.00,0.0068
2527.00,0.0068
2526.00,0.0068
2525.00,0.0068
2524.00,0.0067
2523.00,0.0067
2522.00,0.0067
2521.00,0.0067
2520.00,0.0067
2519.00,0.0067
2518.00,0.0067
2517.00,0.0067
2516.00,0.0067
2515.00,0.0067
2514.00,0.0067
2513.00,0.0067
2512.00,0.0067
2511.00,0.0066
2510.00,0.0066
2509.00,0.0066
2508.00,0.0065
2507.00,0.0065
2506.00,0.0065
2505.00,0.0065
2504.00,0.0065
2503.00,0.0065
2502.00,0.0065
2501.00,0.0065
2500.00,0.0065
2499.00,0.0065
2498.00,0.0064
2497.00,0.0064
2496.00,0.0064
2495.00,0.0064
2494.00,0.0064
2493.00,0.0064
2492.00,0.0064
2491.00,0.0064
2490.00,0.0064
2489.00,0.0064
2488.00,0.0064
2487.00,0.0064
2486.00,0.0064
2485.00,0.0064
2484.00,0.0064
2483.00,0.0064
2482.00,0.0064
2481.00,0.0064
2480.00,0.0064
2479.00,0.0064
2478.00,0.0063
2477.00,0.0063
2476.00,0.0063
2475.00,0.0063
2474.00,0.0062
2473.00,0.0062
2472.00,0.0062
2471.00,0.0062
2470.00,0.0062
2469.00,0.0063
2468.00,0.0063
2467.00,0.0063
2466.00,0.0063
2465.00,0.0063
2464.00,0.0063
2463.00,0.0063
2462.00,0.0063
2461.00,0.0063
2460.00,0.0063
2459.00,0.0064
2458.00,0.0064
2457.00,0.0064
2456.00,0.0064
2455.00,0.0064
2454.00,0.0063
2453.00,0.0063
2452.00,0.0063
2451.00,0.0062
2450.00,0.0062
2449.00,0.0062
2448.00,0.0062
2447.00,0.0062
2446.00,0.0061
2445.00,0.0061
2444.00,0.0062
2443.00,0.0062
2442.00,0.0061
2441.00,0.0061
2440.00,0.0061
2439.00,0.0061
2438.00,0.0061
2437.00,0.0060
2436.00,0.0060
2435.00,0.0060
2434.00,0.0059
2433.00,0.0059
2432.00,0.0059
2431.00,0.0059
2430.00,0.0059
2429.00,0.0059
2428.00,0.0059
2427.00,0.0059
2426.00,0.0058
2425.00,0.0058
2424.00,0.0058
2423.00,0.0058
2422.00,0.0058
2421.00,0.0058
2420.00,0.0058
2419.00,0.0058
2418.00,0.0058
2417.00,0.0058
2416.00,0.0058
2415.00,0.0057
2414.00,0.0057
2413.00,0.0057
2412.00,0.0057
2411.00,0.0058
2410.00,0.0057
2409.00,0.0057
2408.00,0.0057
2407.00,0.0056
2406.00,0.0055
2405.00,0.0055
2404.00,0.0055
2403.00,0.0056
2402.00,0.0056
2401.00,0.0056
2400.00,0.0056
2399.00,0.0055
2398.00,0.0055
2397.00,0.0056
2396.00,0.0056
2395.00,0.0055
2394.00,0.0055
2393.00,0.0055
2392.00,0.0055
2391.00,0.0055
2390.00,0.0055
2389.00,0.0055
2388.00,0.0055
2387.00,0.0055
2386.00,0.0055
2385.00,0.0054
2384.00,0.0054
2383.00,0.0054
2382.00,0.0053
2381.00,0.0053
2380.00,0.0053
2379.00,0.0053
2378.00,0.0054
2377.00,0.0055
2376.00,0.0056
2375.00,0.0056
2374.00,0.0056
2373.00,0.0057
2372.00,0.0057
2371.00,0.0056
2370.00,0.0056
2369.00,0.0056
2368.00,0.0056
2367.00,0.0057
2366.00,0.0058
2365.00,0.0060
2364.00,0.0061
2363.00,0.0062
2362.00,0.0062
2361.00,0.0063
2360.00,0.0063
2359.00,0.0062
2358.00,0.0062
2357.00,0.0061
2356.00,0.0061
2355.00,0.0061
2354.00,0.0061
2353.00,0.0060
2352.00,0.0058
2351.00,0.0058
2350.00,0.0059
2349.00,0.0062
2348.00,0.0065
2347.00,0.0066
2346.00,0.0065
2345.00,0.0064
2344.00,0.0063
2343.00,0.0064
2342.00,0.0064
2341.00,0.0064
2340.00,0.0064
2339.00,0.0064
2338.00,0.0064
2337.00,0.0063
2336.00,0.0063
2335.00,0.0063
2334.00,0.0062
2333.00,0.0062
2332.00,0.0061
2331.00,0.0060
2330.00,0.0061
2329.00,0.0063
2328.00,0.0068
2327.00,0.0072
2326.00,0.0075
2325.00,0.0076
2324.00,0.0074
2323.00,0.0071
2322.00,0.0068
2321.00,0.0067
2320.00,0.0066
2319.00,0.0066
2318.00,0.0066
2317.00,0.0066
2316.00,0.0066
2315.00,0.0065
2314.00,0.0064
2313.00,0.0063
2312.00,0.0062
2311.00,0.0061
2310.00,0.0060
2309.00,0.0060
2308.00,0.0059
2307.00,0.0059
2306.00,0.0059
2305.00,0.0059
2304.00,0.0059
2303.00,0.0060
2302.00,0.0060
2301.00,0.0060
2300.00,0.0061
2299.00,0.0061
2298.00,0.0061
2297.00,0.0062
2296.00,0.0063
2295.00,0.0063
2294.00,0.0064
2293.00,0.0065
2292.00,0.0066
2291.00,0.0067
2290.00,0.0067
2289.00,0.0068
2288.00,0.0068
2287.00,0.0068
2286.00,0.0067
2285.00,0.0066
2284.00,0.0066
2283.00,0.0065
2282.00,0.0064
2281.00,0.0064
2280.00,0.0063
2279.00,0.0063
2278.00,0.0063
2277.00,0.0063
2276.00,0.0063
2275.00,0.0063
2274.00,0.0063
2273.00,0.0062
2272.00,0.0062
2271.00,0.0062
2270.00,0.0062
2269.00,0.0061
2268.00,0.0059
2267.00,0.0057
2266.00,0.0056
2265.00,0.0056
2264.00,0.0057
2263.00,0.0058
2262.00,0.0059
2261.00,0.0060
2260.00,0.0061
2259.00,0.0061
2258.00,0.0060
2257.00,0.0059
2256.00,0.0057
2255.00,0.0056
2254.00,0.0056
2253.00,0.0056
2252.00,0.0056
2251.00,0.0056
2250.00,0.0056
2249.00,0.0057
2248.00,0.0057
2247.00,0.0057
2246.00,0.0057
2245.00,0.0058
2244.00,0.0058
2243.00,0.0058
2242.00,0.0057
2241.00,0.0057
2240.00,0.0057
2239.00,0.0057
2238.00,0.0057
2237.00,0.0056
2236.00,0.0056
2235.00,0.0057
2234.00,0.0057
2233.00,0.0057
2232.00,0.0057
2231.00,0.0057
2230.00,0.0057
2229.00,0.0057
2228.00,0.0057
2227.00,0.0057
2226.00,0.0057
2225.00,0.0057
2224.00,0.0056
2223.00,0.0056
2222.00,0.0055
2221.00,0.0056
2220.00,0.0056
2219.00,0.0056
2218.00,0.0056
2217.00,0.0055
2216.00,0.0055
2215.00,0.0055
2214.00,0.0055
2213.00,0.0055
2212.00,0.0056
2211.00,0.0056
2210.00,0.0056
2209.00,0.0055
2208.00,0.0055
2207.00,0.0054
2206.00,0.0054
2205.00,0.0055
2204.00,0.0056
2203.00,0.0057
2202.00,0.0058
2201.00,0.0058
2200.00,0.0058
2199.00,0.0058
2198.00,0.0058
2197.00,0.0058
2196.00,0.0058
2195.00,0.0058
2194.00,0.0058
2193.00,0.0058
2192.00,0.0058
2191.00,0.0058
2190.00,0.0058
2189.00,0.0058
2188.00,0.0058
2187.00,0.0058
2186.00,0.0057
2185.00,0.0056
2184.00,0.0054
2183.00,0.0052
2182.00,0.0050
2181.00,0.0051
2180.00,0.0052
2179.00,0.0054
2178.00,0.0053
2177.00,0.0051
2176.00,0.0049
2175.00,0.0048
2174.00,0.0049
2173.00,0.0051
2172.00,0.0054
2171.00,0.0057
2170.00,0.0059
2169.00,0.0060
2168.00,0.0061
2167.00,0.0062
2166.00,0.0063
2165.00,0.0065
2164.00,0.0068
2163.00,0.0067
2162.00,0.0060
2161.00,0.0046
2160.00,0.0031
2159.00,0.0019
2158.00,0.0015
2157.00,0.0017
2156.00,0.0021
2155.00,0.0025
2154.00,0.0027
2153.00,0.0029
2152.00,0.0031
2151.00,0.0033
2150.00,0.0034
2149.00,0.0034
2148.00,0.0034
2147.00,0.0034
2146.00,0.0034
2145.00,0.0035
2144.00,0.0035
2143.00,0.0034
2142.00,0.0034
2141.00,0.0033
2140.00,0.0034
2139.00,0.0033
2138.00,0.0032
2137.00,0.0030
2136.00,0.0027
2135.00,0.0026
2134.00,0.0026
2133.00,0.0028
2132.00,0.0031
2131.00,0.0033
2130.00,0.0036
2129.00,0.0038
2128.00,0.0039
2127.00,0.0041
2126.00,0.0042
2125.00,0.0043
2124.00,0.0043
2123.00,0.0044
2122.00,0.0044
2121.00,0.0044
2120.00,0.0045
2119.00,0.0046
2118.00,0.0047
2117.00,0.0049
2116.00,0.0051
2115.00,0.0051
2114.00,0.0051
2113.00,0.0051
2112.00,0.0050
2111.00,0.0050
2110.00,0.0049
2109.00,0.0048
2108.00,0.0048
2107.00,0.0048
2106.00,0.0047
2105.00,0.0048
2104.00,0.0048
2103.00,0.0049
2102.00,0.0049
2101.00,0.0050
2100.00,0.0050
2099.00,0.0050
2098.00,0.0048
2097.00,0.0047
2096.00,0.0045
2095.00,0.0044
2094.00,0.0044
2093.00,0.0046
2092.00,0.0047
2091.00,0.0048
2090.00,0.0048
2089.00,0.0049
2088.00,0.0049
2087.00,0.0050
2086.00,0.0050
2085.00,0.0051
2084.00,0.0052
2083.00,0.0053
2082.00,0.0053
2081.00,0.0053
2080.00,0.0053
2079.00,0.0053
2078.00,0.0052
2077.00,0.0052
2076.00,0.0052
2075.00,0.0051
2074.00,0.0050
2073.00,0.0049
2072.00,0.0048
2071.00,0.0048
2070.00,0.0048
2069.00,0.0048
2068.00,0.0048
2067.00,0.0047
2066.00,0.0047
2065.00,0.0046
2064.00,0.0045
2063.00,0.0045
2062.00,0.0045
2061.00,0.0045
2060.00,0.0045
2059.00,0.0046
2058.00,0.0047
2057.00,0.0047
2056.00,0.0047
2055.00,0.0048
2054.00,0.0051
2053.00,0.0056
2052.00,0.0060
2051.00,0.0061
2050.00,0.0057
2049.00,0.0052
2048.00,0.0048
2047.00,0.0046
2046.00,0.0044
2045.00,0.0044
2044.00,0.0045
2043.00,0.0046
2042.00,0.0047
2041.00,0.0048
2040.00,0.0049
2039.00,0.0049
2038.00,0.0048
2037.00,0.0047
2036.00,0.0046
2035.00,0.0042
2034.00,0.0038
2033.00,0.0035
2032.00,0.0035
2031.00,0.0035
2030.00,0.0036
2029.00,0.0037
2028.00,0.0039
2027.00,0.0040
2026.00,0.0039
2025.00,0.0038
2024.00,0.0038
2023.00,0.0039
2022.00,0.0039
2021.00,0.0039
2020.00,0.0041
2019.00,0.0041
2018.00,0.0041
2017.00,0.0041
2016.00,0.0041
2015.00,0.0041
2014.00,0.0040
2013.00,0.0039
2012.00,0.0040
2011.00,0.0039
2010.00,0.0039
2009.00,0.0038
2008.00,0.0036
2007.00,0.0034
2006.00,0.0031
2005.00,0.0031
2004.00,0.0034
2003.00,0.0036
2002.00,0.0039
2001.00,0.0040
2000.00,0.0041
1999.00,0.0042
1998.00,0.0042
1997.00,0.0042
1996.00,0.0043
1995.00,0.0045
1994.00,0.0046
1993.00,0.0048
1992.00,0.0049
1991.00,0.0049
1990.00,0.0049
1989.00,0.0049
1988.00,0.0050
1987.00,0.0051
1986.00,0.0052
1985.00,0.0054
1984.00,0.0056
1983.00,0.0059
1982.00,0.0061
1981.00,0.0061
1980.00,0.0057
1979.00,0.0050
1978.00,0.0043
1977.00,0.0038
1976.00,0.0035
1975.00,0.0034
1974.00,0.0033
1973.00,0.0034
1972.00,0.0035
1971.00,0.0035
1970.00,0.0035
1969.00,0.0036
1968.00,0.0036
1967.00,0.0036
1966.00,0.0036
1965.00,0.0037
1964.00,0.0037
1963.00,0.0037
1962.00,0.0036
1961.00,0.0034
1960.00,0.0034
1959.00,0.0033
1958.00,0.0034
1957.00,0.0035
1956.00,0.0037
1955.00,0.0037
1954.00,0.0037
1953.00,0.0037
1952.00,0.0037
1951.00,0.0038
1950.00,0.0038
1949.00,0.0038
1948.00,0.0039
1947.00,0.0040
1946.00,0.0040
1945.00,0.0040
1944.00,0.0040
1943.00,0.0040
1942.00,0.0039
1941.00,0.0038
1940.00,0.0038
1939.00,0.0038
1938.00,0.0038
1937.00,0.0039
1936.00,0.0040
1935.00,0.0040
1934.00,0.0040
1933.00,0.0040
1932.00,0.0039
1931.00,0.0039
1930.00,0.0038
1929.00,0.0038
1928.00,0.0039
1927.00,0.0039
1926.00,0.0039
1925.00,0.0039
1924.00,0.0040
1923.00,0.0041
1922.00,0.0042
1921.00,0.0043
1920.00,0.0043
1919.00,0.0042
1918.00,0.0042
1917.00,0.0041
1916.00,0.0042
1915.00,0.0042
1914.00,0.0042
1913.00,0.0043
1912.00,0.0043
1911.00,0.0044
1910.00,0.0044
1909.00,0.0044
1908.00,0.0044
1907.00,0.0045
1906.00,0.0044
1905.00,0.0044
1904.00,0.0044
1903.00,0.0044
1902.00,0.0044
1901.00,0.0044
1900.00,0.0045
1899.00,0.0045
1898.00,0.0044
1897.00,0.0044
1896.00,0.0044
1895.00,0.0045
1894.00,0.0045
1893.00,0.0045
1892.00,0.0045
1891.00,0.0045
1890.00,0.0045
1889.00,0.0045
1888.00,0.0045
1887.00,0.0044
1886.00,0.0044
1885.00,0.0044
1884.00,0.0044
1883.00,0.0044
1882.00,0.0044
1881.00,0.0045
1880.00,0.0045
1879.00,0.0045
1878.00,0.0045
1877.00,0.0045
1876.00,0.0045
1875.00,0.0045
1874.00,0.0045
1873.00,0.0045
1872.00,0.0046
1871.00,0.0046
1870.00,0.0046
1869.00,0.0046
1868.00,0.0046
1867.00,0.0046
1866.00,0.0046
1865.00,0.0046
1864.00,0.0046
1863.00,0.0046
1862.00,0.0046
1861.00,0.0046
1860.00,0.0046
1859.00,0.0046
1858.00,0.0046
1857.00,0.0046
1856.00,0.0046
1855.00,0.0046
1854.00,0.0045
1853.00,0.0045
1852.00,0.0045
1851.00,0.0045
1850.00,0.0045
1849.00,0.0045
1848.00,0.0046
1847.00,0.0047
1846.00,0.0047
1845.00,0.0047
1844.00,0.0047
1843.00,0.0047
1842.00,0.0046
1841.00,0.0046
1840.00,0.0046
1839.00,0.0046
1838.00,0.0046
1837.00,0.0046
1836.00,0.0047
1835.00,0.0047
1834.00,0.0047
1833.00,0.0047
1832.00,0.0048
1831.00,0.0048
1830.00,0.0048
1829.00,0.0049
1828.00,0.0049
1827.00,0.0049
1826.00,0.0049
1825.00,0.0048
1824.00,0.0048
1823.00,0.0048
1822.00,0.0048
1821.00,0.0047
1820.00,0.0046
1819.00,0.0045
1818.00,0.0044
1817.00,0.0043
1816.00,0.0044
1815.00,0.0045
1814.00,0.0045
1813.00,0.0046
1812.00,0.0047
1811.00,0.0048
1810.00,0.0048
1809.00,0.0048
1808.00,0.0048
1807.00,0.0047
1806.00,0.0047
1805.00,0.0048
1804.00,0.0048
1803.00,0.0049
1802.00,0.0049
1801.00,0.0049
1800.00,0.0050
1799.00,0.0050
1798.00,0.0049
1797.00,0.0050
1796.00,0.0050
1795.00,0.0051
1794.00,0.0051
1793.00,0.0051
1792.00,0.0051
1791.00,0.0050
1790.00,0.0050
1789.00,0.0050
1788.00,0.0051
1787.00,0.0051
1786.00,0.0051
1785.00,0.0051
1784.00,0.0051
1783.00,0.0051
1782.00,0.0051
1781.00,0.0051
1780.00,0.0051
1779.00,0.0051
1778.00,0.0051
1777.00,0.0051
1776.00,0.0051
1775.00,0.0051
1774.00,0.0051
1773.00,0.0051
1772.00,0.0052
1771.00,0.0052
1770.00,0.0051
1769.00,0.0051
1768.00,0.0051
1767.00,0.0051
1766.00,0.0051
1765.00,0.0051
1764.00,0.0052
1763.00,0.0052
1762.00,0.0052
1761.00,0.0052
1760.00,0.0052
1759.00,0.0051
1758.00,0.0051
1757.00,0.0051
1756.00,0.0051
1755.00,0.0051
1754.00,0.0051
1753.00,0.0051
1752.00,0.0052
1751.00,0.0052
1750.00,0.0052
1749.00,0.0052
1748.00,0.0052
1747.00,0.0052
1746.00,0.0052
1745.00,0.0052
1744.00,0.0053
1743.00,0.0053
1742.00,0.0053
1741.00,0.0053
1740.00,0.0054
1739.00,0.0054
1738.00,0.0054
1737.00,0.0055
1736.00,0.0055
1735.00,0.0056
1734.00,0.0055
1733.00,0.0056
1732.00,0.0056
1731.00,0.0056
1730.00,0.0056
1729.00,0.0057
1728.00,0.0057
1727.00,0.0058
1726.00,0.0058
1725.00,0.0058
1724.00,0.0059
1723.00,0.0060
1722.00,0.0061
1721.00,0.0062
1720.00,0.0064
1719.00,0.0065
1718.00,0.0066
1717.00,0.0067
1716.00,0.0068
1715.00,0.0069
1714.00,0.0070
1713.00,0.0071
1712.00,0.0073
1711.00,0.0074
1710.00,0.0076
1709.00,0.0079
1708.00,0.0082
1707.00,0.0086
1706.00,0.0090
1705.00,0.0095
1704.00,0.0101
1703.00,0.0106
1702.00,0.0111
1701.00,0.0120
1700.00,0.0133
1699.00,0.0145
1698.00,0.0155
1697.00,0.0166
1696.00,0.0184
1695.00,0.0203
1694.00,0.0219
1693.00,0.0233
1692.00,0.0248
1691.00,0.0264
1690.00,0.0282
1689.00,0.0299
1688.00,0.0315
1687.00,0.0328
1686.00,0.0339
1685.00,0.0354
1684.00,0.0372
1683.00,0.0387
1682.00,0.0397
1681.00,0.0404
1680.00,0.0412
1679.00,0.0422
1678.00,0.0431
1677.00,0.0442
1676.00,0.0458
1675.00,0.0480
1674.00,0.0502
1673.00,0.0522
1672.00,0.0543
1671.00,0.0568
1670.00,0.0598
1669.00,0.0633
1668.00,0.0664
1667.00,0.0690
1666.00,0.0710
1665.00,0.0729
1664.00,0.0749
1663.00,0.0771
1662.00,0.0790
1661.00,0.0805
1660.00,0.0816
1659.00,0.0822
1658.00,0.0825
1657.00,0.0825
1656.00,0.0823
1655.00,0.0817
1654.00,0.0805
1653.00,0.0792
1652.00,0.0781
1651.00,0.0770
1650.00,0.0755
1649.00,0.0738
1648.00,0.0717
1647.00,0.0695
1646.00,0.0672
1645.00,0.0651
1644.00,0.0631
1643.00,0.0610
1642.00,0.0586
1641.00,0.0561
1640.00,0.0538
1639.00,0.0516
1638.00,0.0497
1637.00,0.0479
1636.00,0.0465
1635.00,0.0459
1634.00,0.0458
1633.00,0.0460
1632.00,0.0464
1631.00,0.0471
1630.00,0.0480
1629.00,0.0489
1628.00,0.0498
1627.00,0.0505
1626.00,0.0506
1625.00,0.0503
1624.00,0.0495
1623.00,0.0485
1622.00,0.0474
1621.00,0.0461
1620.00,0.0448
1619.00,0.0433
1618.00,0.0416
1617.00,0.0395
1616.00,0.0374
1615.00,0.0355
1614.00,0.0338
1613.00,0.0321
1612.00,0.0305
1611.00,0.0289
1610.00,0.0274
1609.00,0.0261
1608.00,0.0250
1607.00,0.0242
1606.00,0.0236
1605.00,0.0232
1604.00,0.0231
1603.00,0.0232
1602.00,0.0235
1601.00,0.0241
1600.00,0.0249
1599.00,0.0260
1598.00,0.0273
1597.00,0.0287
1596.00,0.0302
1595.00,0.0319
1594.00,0.0336
1593.00,0.0354
1592.00,0.0371
1591.00,0.0390
1590.00,0.0408
1589.00,0.0426
1588.00,0.0443
1587.00,0.0456
1586.00,0.0466
1585.00,0.0471
1584.00,0.0470
1583.00,0.0463
1582.00,0.0451
1581.00,0.0435
1580.00,0.0417
1579.00,0.0399
1578.00,0.0379
1577.00,0.0356
1576.00,0.0332
1575.00,0.0312
1574.00,0.0297
1573.00,0.0284
1572.00,0.0271
1571.00,0.0258
1570.00,0.0244
1569.00,0.0230
1568.00,0.0219
1567.00,0.0209
1566.00,0.0200
1565.00,0.0192
1564.00,0.0185
1563.00,0.0180
1562.00,0.0176
1561.00,0.0172
1560.00,0.0167
1559.00,0.0162
1558.00,0.0159
1557.00,0.0155
1556.00,0.0152
1555.00,0.0149
1554.00,0.0147
1553.00,0.0145
1552.00,0.0143
1551.00,0.0141
1550.00,0.0140
1549.00,0.0139
1548.00,0.0138
1547.00,0.0137
1546.00,0.0137
1545.00,0.0137
1544.00,0.0137
1543.00,0.0138
1542.00,0.0138
1541.00,0.0138
1540.00,0.0139
1539.00,0.0139
1538.00,0.0139
1537.00,0.0139
1536.00,0.0140
1535.00,0.0140
1534.00,0.0141
1533.00,0.0143
1532.00,0.0145
1531.00,0.0146
1530.00,0.0148
1529.00,0.0150
1528.00,0.0152
1527.00,0.0155
1526.00,0.0159
1525.00,0.0163
1524.00,0.0166
1523.00,0.0169
1522.00,0.0172
1521.00,0.0176
1520.00,0.0179
1519.00,0.0180
1518.00,0.0180
1517.00,0.0179
1516.00,0.0178
1515.00,0.0176
1514.00,0.0173
1513.00,0.0170
1512.00,0.0168
1511.00,0.0165
1510.00,0.0163
1509.00,0.0161
1508.00,0.0160
1507.00,0.0159
1506.00,0.0159
1505.00,0.0160
1504.00,0.0162
1503.00,0.0165
1502.00,0.0169
1501.00,0.0174
1500.00,0.0180
1499.00,0.0187
1498.00,0.0195
1497.00,0.0202
1496.00,0.0207
1495.00,0.0210
1494.00,0.0211
1493.00,0.0209
1492.00,0.0205
1491.00,0.0198
1490.00,0.0189
1489.00,0.0179
1488.00,0.0170
1487.00,0.0161
1486.00,0.0153
1485.00,0.0147
1484.00,0.0142
1483.00,0.0138
1482.00,0.0136
1481.00,0.0135
1480.00,0.0135
1479.00,0.0136
1478.00,0.0138
1477.00,0.0141
1476.00,0.0146
1475.00,0.0153
1474.00,0.0162
1473.00,0.0177
1472.00,0.0197
1471.00,0.0219
1470.00,0.0241
1469.00,0.0263
1468.00,0.0285
1467.00,0.0308
1466.00,0.0331
1465.00,0.0355
1464.00,0.0377
1463.00,0.0392
1462.00,0.0402
1461.00,0.0409
1460.00,0.0412
1459.00,0.0414
1458.00,0.0416
1457.00,0.0421
1456.00,0.0428
1455.00,0.0435
1454.00,0.0443
1453.00,0.0454
1452.00,0.0471
1451.00,0.0490
1450.00,0.0511
1449.00,0.0537
1448.00,0.0565
1447.00,0.0594
1446.00,0.0619
1445.00,0.0642
1444.00,0.0662
1443.00,0.0679
1442.00,0.0694
1441.00,0.0705
1440.00,0.0713
1439.00,0.0716
1438.00,0.0716
1437.00,0.0716
1436.00,0.0714
1435.00,0.0711
1434.00,0.0709
1433.00,0.0708
1432.00,0.0709
1431.00,0.0713
1430.00,0.0718
1429.00,0.0723
1428.00,0.0723
1427.00,0.0719
1426.00,0.0710
1425.00,0.0699
1424.00,0.0684
1423.00,0.0666
1422.00,0.0646
1421.00,0.0621
1420.00,0.0588
1419.00,0.0546
1418.00,0.0503
1417.00,0.0465
1416.00,0.0431
1415.00,0.0399
1414.00,0.0370
1413.00,0.0345
1412.00,0.0323
1411.00,0.0305
1410.00,0.0290
1409.00,0.0279
1408.00,0.0269
1407.00,0.0261
1406.00,0.0254
1405.00,0.0249
1404.00,0.0244
1403.00,0.0240
1402.00,0.0238
1401.00,0.0235
1400.00,0.0233
1399.00,0.0232
1398.00,0.0232
1397.00,0.0231
1396.00,0.0231
1395.00,0.0231
1394.00,0.0232
1393.00,0.0233
1392.00,0.0235
1391.00,0.0237
1390.00,0.0240
1389.00,0.0243
1388.00,0.0248
1387.00,0.0254
1386.00,0.0261
1385.00,0.0270
1384.00,0.0279
1383.00,0.0291
1382.00,0.0306
1381.00,0.0323
1380.00,0.0341
1379.00,0.0359
1378.00,0.0376
1377.00,0.0387
1376.00,0.0394
1375.00,0.0395
1374.00,0.0392
1373.00,0.0384
1372.00,0.0375
1371.00,0.0365
1370.00,0.0356
1369.00,0.0348
1368.00,0.0340
1367.00,0.0333
1366.00,0.0327
1365.00,0.0320
1364.00,0.0314
1363.00,0.0307
1362.00,0.0302
1361.00,0.0297
1360.00,0.0293
1359.00,0.0290
1358.00,0.0289
1357.00,0.0288
1356.00,0.0288
1355.00,0.0288
1354.00,0.0289
1353.00,0.0290
1352.00,0.0291
1351.00,0.0291
1350.00,0.0292
1349.00,0.0292
1348.00,0.0292
1347.00,0.0292
1346.00,0.0292
1345.00,0.0292
1344.00,0.0292
1343.00,0.0291
1342.00,0.0291
1341.00,0.0291
1340.00,0.0292
1339.00,0.0293
1338.00,0.0295
1337.00,0.0297
1336.00,0.0298
1335.00,0.0300
1334.00,0.0301
1333.00,0.0302
1332.00,0.0302
1331.00,0.0302
1330.00,0.0302
1329.00,0.0303
1328.00,0.0305
1327.00,0.0308
1326.00,0.0313
1325.00,0.0319
1324.00,0.0327
1323.00,0.0335
1322.00,0.0344
1321.00,0.0353
1320.00,0.0361
1319.00,0.0369
1318.00,0.0375
1317.00,0.0379
1316.00,0.0381
1315.00,0.0381
1314.00,0.0379
1313.00,0.0376
1312.00,0.0372
1311.00,0.0368
1310.00,0.0364
1309.00,0.0360
1308.00,0.0358
1307.00,0.0356
1306.00,0.0354
1305.00,0.0353
1304.00,0.0353
1303.00,0.0356
1302.00,0.0361
1301.00,0.0369
1300.00,0.0382
1299.00,0.0399
1298.00,0.0421
1297.00,0.0448
1296.00,0.0479
1295.00,0.0512
1294.00,0.0544
1293.00,0.0573
1292.00,0.0597
1291.00,0.0613
1290.00,0.0622
1289.00,0.0625
1288.00,0.0621
1287.00,0.0613
1286.00,0.0602
1285.00,0.0588
1284.00,0.0574
1283.00,0.0560
1282.00,0.0548
1281.00,0.0538
1280.00,0.0530
1279.00,0.0526
1278.00,0.0524
1277.00,0.0524
1276.00,0.0524
1275.00,0.0523
1274.00,0.0520
1273.00,0.0515
1272.00,0.0507
1271.00,0.0495
1270.00,0.0482
1269.00,0.0466
1268.00,0.0449
1267.00,0.0432
1266.00,0.0416
1265.00,0.0400
1264.00,0.0387
1263.00,0.0375
1262.00,0.0367
1261.00,0.0361
1260.00,0.0358
1259.00,0.0358
1258.00,0.0361
1257.00,0.0367
1256.00,0.0374
1255.00,0.0383
1254.00,0.0394
1253.00,0.0405
1252.00,0.0415
1251.00,0.0425
1250.00,0.0435
1249.00,0.0444
1248.00,0.0453
1247.00,0.0461
1246.00,0.0470
1245.00,0.0479
1244.00,0.0486
1243.00,0.0492
1242.00,0.0496
1241.00,0.0497
1240.00,0.0496
1239.00,0.0492
1238.00,0.0485
1237.00,0.0478
1236.00,0.0469
1235.00,0.0461
1234.00,0.0453
1233.00,0.0446
1232.00,0.0440
1231.00,0.0436
1230.00,0.0435
1229.00,0.0435
1228.00,0.0438
1227.00,0.0441
1226.00,0.0443
1225.00,0.0445
1224.00,0.0446
1223.00,0.0446
1222.00,0.0444
1221.00,0.0443
1220.00,0.0440
1219.00,0.0438
1218.00,0.0435
1217.00,0.0431
1216.00,0.0427
1215.00,0.0423
1214.00,0.0418
1213.00,0.0412
1212.00,0.0406
1211.00,0.0401
1210.00,0.0396
1209.00,0.0393
1208.00,0.0391
1207.00,0.0392
1206.00,0.0395
1205.00,0.0399
1204.00,0.0403
1203.00,0.0406
1202.00,0.0406
1201.00,0.0403
1200.00,0.0396
1199.00,0.0386
1198.00,0.0374
1197.00,0.0361
1196.00,0.0348
1195.00,0.0336
1194.00,0.0325
1193.00,0.0317
1192.00,0.0309
1191.00,0.0303
1190.00,0.0298
1189.00,0.0293
1188.00,0.0289
1187.00,0.0285
1186.00,0.0282
1185.00,0.0280
1184.00,0.0278
1183.00,0.0278
1182.00,0.0279
1181.00,0.0282
1180.00,0.0288
1179.00,0.0295
1178.00,0.0304
1177.00,0.0315
1176.00,0.0326
1175.00,0.0336
1174.00,0.0343
1173.00,0.0348
1172.00,0.0348
1171.00,0.0344
1170.00,0.0336
1169.00,0.0327
1168.00,0.0315
1167.00,0.0303
1166.00,0.0290
1165.00,0.0278
1164.00,0.0267
1163.00,0.0259
1162.00,0.0252
1161.00,0.0248
1160.00,0.0247
1159.00,0.0249
1158.00,0.0255
1157.00,0.0264
1156.00,0.0276
1155.00,0.0290
1154.00,0.0304
1153.00,0.0318
1152.00,0.0329
1151.00,0.0337
1150.00,0.0339
1149.00,0.0334
1148.00,0.0321
1147.00,0.0302
1146.00,0.0280
1145.00,0.0258
1144.00,0.0239
1143.00,0.0223
1142.00,0.0211
1141.00,0.0202
1140.00,0.0196
1139.00,0.0192
1138.00,0.0190
1137.00,0.0189
1136.00,0.0188
1135.00,0.0187
1134.00,0.0186
1133.00,0.0183
1132.00,0.0180
1131.00,0.0177
1130.00,0.0173
1129.00,0.0170
1128.00,0.0166
1127.00,0.0163
1126.00,0.0161
1125.00,0.0159
1124.00,0.0158
1123.00,0.0157
1122.00,0.0156
1121.00,0.0156
1120.00,0.0156
1119.00,0.0157
1118.00,0.0158
1117.00,0.0159
1116.00,0.0161
1115.00,0.0163
1114.00,0.0165
1113.00,0.0167
1112.00,0.0169
1111.00,0.0171
1110.00,0.0172
1109.00,0.0172
1108.00,0.0172
1107.00,0.0172
1106.00,0.0173
1105.00,0.0174
1104.00,0.0175
1103.00,0.0177
1102.00,0.0179
1101.00,0.0181
1100.00,0.0184
1099.00,0.0186
1098.00,0.0188
1097.00,0.0189
1096.00,0.0189
1095.00,0.0188
1094.00,0.0185
1093.00,0.0181
1092.00,0.0175
1091.00,0.0170
1090.00,0.0165
1089.00,0.0162
1088.00,0.0159
1087.00,0.0158
1086.00,0.0158
1085.00,0.0159
1084.00,0.0160
1083.00,0.0162
1082.00,0.0165
1081.00,0.0167
1080.00,0.0170
1079.00,0.0172
1078.00,0.0174
1077.00,0.0174
1076.00,0.0174
1075.00,0.0172
1074.00,0.0169
1073.00,0.0166
1072.00,0.0163
1071.00,0.0160
1070.00,0.0158
1069.00,0.0157
1068.00,0.0157
1067.00,0.0158
1066.00,0.0159
1065.00,0.0163
1064.00,0.0168
1063.00,0.0176
1062.00,0.0187
1061.00,0.0203
1060.00,0.0223
1059.00,0.0249
1058.00,0.0279
1057.00,0.0311
1056.00,0.0342
1055.00,0.0368
1054.00,0.0385
1053.00,0.0389
1052.00,0.0380
1051.00,0.0360
1050.00,0.0334
1049.00,0.0306
1048.00,0.0281
1047.00,0.0261
1046.00,0.0248
1045.00,0.0240
1044.00,0.0238
1043.00,0.0241
1042.00,0.0247
1041.00,0.0258
1040.00,0.0272
1039.00,0.0291
1038.00,0.0314
1037.00,0.0342
1036.00,0.0375
1035.00,0.0411
1034.00,0.0448
1033.00,0.0485
1032.00,0.0519
1031.00,0.0548
1030.00,0.0571
1029.00,0.0585
1028.00,0.0591
1027.00,0.0586
1026.00,0.0573
1025.00,0.0552
1024.00,0.0528
1023.00,0.0504
1022.00,0.0481
1021.00,0.0462
1020.00,0.0446
1019.00,0.0432
1018.00,0.0419
1017.00,0.0404
1016.00,0.0388
1015.00,0.0371
1014.00,0.0355
1013.00,0.0340
1012.00,0.0327
1011.00,0.0317
1010.00,0.0309
1009.00,0.0303
1008.00,0.0298
1007.00,0.0294
1006.00,0.0290
1005.00,0.0285
1004.00,0.0280
1003.00,0.0275
1002.00,0.0270
1001.00,0.0266
1000.00,0.0262
999.00,0.0258
998.00,0.0253
997.00,0.0249
996.00,0.0245
995.00,0.0240
994.00,0.0237
993.00,0.0235
992.00,0.0234
991.00,0.0234
990.00,0.0236
989.00,0.0238
988.00,0.0240
987.00,0.0241
986.00,0.0240
985.00,0.0237
984.00,0.0232
983.00,0.0226
982.00,0.0220
981.00,0.0213
980.00,0.0207
979.00,0.0202
978.00,0.0198
977.00,0.0195
976.00,0.0192
975.00,0.0190
974.00,0.0187
973.00,0.0185
972.00,0.0183
971.00,0.0182
970.00,0.0181
969.00,0.0182
968.00,0.0183
967.00,0.0185
966.00,0.0188
965.00,0.0190
964.00,0.0193
963.00,0.0196
962.00,0.0197
961.00,0.0196
960.00,0.0194
959.00,0.0189
958.00,0.0183
957.00,0.0175
956.00,0.0167
955.00,0.0158
954.00,0.0150
953.00,0.0142
952.00,0.0136
951.00,0.0131
950.00,0.0127
949.00,0.0124
948.00,0.0122
947.00,0.0121
946.00,0.0120
945.00,0.0119
944.00,0.0118
943.00,0.0118
942.00,0.0119
941.00,0.0120
940.00,0.0122
939.00,0.0124
938.00,0.0127
937.00,0.0131
936.00,0.0135
935.00,0.0139
934.00,0.0143
933.00,0.0146
932.00,0.0148
931.00,0.0149
930.00,0.0150
929.00,0.0149
928.00,0.0148
927.00,0.0148
926.00,0.0147
925.00,0.0147
924.00,0.0147
923.00,0.0147
922.00,0.0147
921.00,0.0148
920.00,0.0150
919.00,0.0153
918.00,0.0156
917.00,0.0159
916.00,0.0162
915.00,0.0165
914.00,0.0169
913.00,0.0172
912.00,0.0175
911.00,0.0179
910.00,0.0184
909.00,0.0190
908.00,0.0197
907.00,0.0207
906.00,0.0218
905.00,0.0230
904.00,0.0242
903.00,0.0254
902.00,0.0265
901.00,0.0275
900.00,0.0284
899.00,0.0291
898.00,0.0298
897.00,0.0305
896.00,0.0313
895.00,0.0322
894.00,0.0331
893.00,0.0341
892.00,0.0351
891.00,0.0362
890.00,0.0372
889.00,0.0382
888.00,0.0390
887.00,0.0397
886.00,0.0401
885.00,0.0401
884.00,0.0399
883.00,0.0394
882.00,0.0386
881.00,0.0376
880.00,0.0364
879.00,0.0351
878.00,0.0338
877.00,0.0324
876.00,0.0312
875.00,0.0300
874.00,0.0291
873.00,0.0283
872.00,0.0277
871.00,0.0274
870.00,0.0272
869.00,0.0272
868.00,0.0275
867.00,0.0279
866.00,0.0284
865.00,0.0289
864.00,0.0293
863.00,0.0296
862.00,0.0299
861.00,0.0300
860.00,0.0302
859.00,0.0304
858.00,0.0306
857.00,0.0310
856.00,0.0315
855.00,0.0320
854.00,0.0325
853.00,0.0330
852.00,0.0335
851.00,0.0338
850.00,0.0341
849.00,0.0344
848.00,0.0346
847.00,0.0347
846.00,0.0348
845.00,0.0349
844.00,0.0350
843.00,0.0350
842.00,0.0350
841.00,0.0351
840.00,0.0352
839.00,0.0354
838.00,0.0357
837.00,0.0361
836.00,0.0366
835.00,0.0371
834.00,0.0376
833.00,0.0381
832.00,0.0385
831.00,0.0388
830.00,0.0389
829.00,0.0388
828.00,0.0385
827.00,0.0379
826.00,0.0372
825.00,0.0363
824.00,0.0352
823.00,0.0340
822.00,0.0329
821.00,0.0318
820.00,0.0307
819.00,0.0297
818.00,0.0288
817.00,0.0280
816.00,0.0273
815.00,0.0267
814.00,0.0263
813.00,0.0260
812.00,0.0258
811.00,0.0256
810.00,0.0256
809.00,0.0257
808.00,0.0260
807.00,0.0265
806.00,0.0270
805.00,0.0275
804.00,0.0278
803.00,0.0276
802.00,0.0271
801.00,0.0263
800.00,0.0255
799.00,0.0250
798.00,0.0246
797.00,0.0245
796.00,0.0246
795.00,0.0247
794.00,0.0247
793.00,0.0246
792.00,0.0244
791.00,0.0241
790.00,0.0238
789.00,0.0233
788.00,0.0229
787.00,0.0226
786.00,0.0224
785.00,0.0222
784.00,0.0220
783.00,0.0219
782.00,0.0218
781.00,0.0218
780.00,0.0218
779.00,0.0220
778.00,0.0223
777.00,0.0227
776.00,0.0231
775.00,0.0235
774.00,0.0238
773.00,0.0240
772.00,0.0241
771.00,0.0242
770.00,0.0243
769.00,0.0243
768.00,0.0242
767.00,0.0242
766.00,0.0242
765.00,0.0242
764.00,0.0243
763.00,0.0245
762.00,0.0248
761.00,0.0252
760.00,0.0257
759.00,0.0263
758.00,0.0270
757.00,0.0276
756.00,0.0281
755.00,0.0286
754.00,0.0290
753.00,0.0292
752.00,0.0292
751.00,0.0291
750.00,0.0289
749.00,0.0286
748.00,0.0282
747.00,0.0279
746.00,0.0276
745.00,0.0274
744.00,0.0273
743.00,0.0273
742.00,0.0274
741.00,0.0276
740.00,0.0280
739.00,0.0283
738.00,0.0286
737.00,0.0290
736.00,0.0294
735.00,0.0298
734.00,0.0302
733.00,0.0304
732.00,0.0305
731.00,0.0305
730.00,0.0303
729.00,0.0300
728.00,0.0295
727.00,0.0290
726.00,0.0285
725.00,0.0281
724.00,0.0276
723.00,0.0271
722.00,0.0266
721.00,0.0261
720.00,0.0257
719.00,0.0255
718.00,0.0253
717.00,0.0252
716.00,0.0251
715.00,0.0250
714.00,0.0249
713.00,0.0249
712.00,0.0249
711.00,0.0248
710.00,0.0248
709.00,0.0248
708.00,0.0248
707.00,0.0247
706.00,0.0247
705.00,0.0247
704.00,0.0247
703.00,0.0247
702.00,0.0248
701.00,0.0248
700.00,0.0249
699.00,0.0250
698.00,0.0251
697.00,0.0252
696.00,0.0253
695.00,0.0254
694.00,0.0255
693.00,0.0257
692.00,0.0258
691.00,0.0259
690.00,0.0261
689.00,0.0263
688.00,0.0267
687.00,0.0270
686.00,0.0275
685.00,0.0280
684.00,0.0284
683.00,0.0289
682.00,0.0294
681.00,0.0299
680.00,0.0303
679.00,0.0308
678.00,0.0312
677.00,0.0316
676.00,0.0319
675.00,0.0322
674.00,0.0324
673.00,0.0324
672.00,0.0324
671.00,0.0324
670.00,0.0323
669.00,0.0323
668.00,0.0324
667.00,0.0330
666.00,0.0334
665.00,0.0338
664.00,0.0342
663.00,0.0346
662.00,0.0349
661.00,0.0352
660.00,0.0355
659.00,0.0358
658.00,0.0361
657.00,0.0365
656.00,0.0369
655.00,0.0374
654.00,0.0378
653.00,0.0381
652.00,0.0385
651.00,0.0386
650.00,0.0387
649.00,0.0386
648.00,0.0386
647.00,0.0384
646.00,0.0381
645.00,0.0376
644.00,0.0371
643.00,0.0365
642.00,0.0358
641.00,0.0352
640.00,0.0345
639.00,0.0337
638.00,0.0330
637.00,0.0324
636.00,0.0319
635.00,0.0314
634.00,0.0309
633.00,0.0304
632.00,0.0300
631.00,0.0296
630.00,0.0292
629.00,0.0289
628.00,0.0286
627.00,0.0282
626.00,0.0280
625.00,0.0277
624.00,0.0275
623.00,0.0274
622.00,0.0273
621.00,0.0273
620.00,0.0273
619.00,0.0274
618.00,0.0275
617.00,0.0277
616.00,0.0279
615.00,0.0282
614.00,0.0285
613.00,0.0288
612.00,0.0292
611.00,0.0295
610.00,0.0298
609.00,0.0299
608.00,0.0301
607.00,0.0302
606.00,0.0303
605.00,0.0305
604.00,0.0307
603.00,0.0309
602.00,0.0311
601.00,0.0314
600.00,0.0318
599.00,0.0320
598.00,0.0322
597.00,0.0322
596.00,0.0322
595.00,0.0322
594.00,0.0322
593.00,0.0323
592.00,0.0323
591.00,0.0322
590.00,0.0322
589.00,0.0323
588.00,0.0325
587.00,0.0328
586.00,0.0332
585.00,0.0338
584.00,0.0345
583.00,0.0353
582.00,0.0361
581.00,0.0368
580.00,0.0373
579.00,0.0375
578.00,0.0375
577.00,0.0372
576.00,0.0369
575.00,0.0365
574.00,0.0361
573.00,0.0357
572.00,0.0352
571.00,0.0348
570.00,0.0343
569.00,0.0338
568.00,0.0334
567.00,0.0330
566.00,0.0327
565.00,0.0325
564.00,0.0323
563.00,0.0322
562.00,0.0321
561.00,0.0322
560.00,0.0325
559.00,0.0330
558.00,0.0337
557.00,0.0347
556.00,0.0359
555.00,0.0370
554.00,0.0379
553.00,0.0387
552.00,0.0392
551.00,0.0393
550.00,0.0392
549.00,0.0388
548.00,0.0383
547.00,0.0378
546.00,0.0372
545.00,0.0367
544.00,0.0362
543.00,0.0357
542.00,0.0355
541.00,0.0354
540.00,0.0356
539.00,0.0359
538.00,0.0362
537.00,0.0367
536.00,0.0371
535.00,0.0376
534.00,0.0380
533.00,0.0383
532.00,0.0384
531.00,0.0383
530.00,0.0383
529.00,0.0384
528.00,0.0389
527.00,0.0396
526.00,0.0404
525.00,0.0409
524.00,0.0409
523.00,0.0404
522.00,0.0395
521.00,0.0382
520.00,0.0369
519.00,0.0357
518.00,0.0346
517.00,0.0337
516.00,0.0331
515.00,0.0326
514.00,0.0322
513.00,0.0319
512.00,0.0318
511.00,0.0317
510.00,0.0316
509.00,0.0316
508.00,0.0316
507.00,0.0317
506.00,0.0317
505.00,0.0316
504.00,0.0316
503.00,0.0317
502.00,0.0318
501.00,0.0321
500.00,0.0323
499.00,0.0325
498.00,0.0327
497.00,0.0328
496.00,0.0330
495.00,0.0332
494.00,0.0335
493.00,0.0339
492.00,0.0342
491.00,0.0346
490.00,0.0349
489.00,0.0353
488.00,0.0356
487.00,0.0358
486.00,0.0360
485.00,0.0363
484.00,0.0367
483.00,0.0370
482.00,0.0371
481.00,0.0371
480.00,0.0370
479.00,0.0369
478.00,0.0368
477.00,0.0368
476.00,0.0368
475.00,0.0368
474.00,0.0367
473.00,0.0367
472.00,0.0369
471.00,0.0373
470.00,0.0379
469.00,0.0384
468.00,0.0387
467.00,0.0386
466.00,0.0382
465.00,0.0378
464.00,0.0374
463.00,0.0371
462.00,0.0368
461.00,0.0366
460.00,0.0364
459.00,0.0364
458.00,0.0363
457.00,0.0363
456.00,0.0363
455.00,0.0361
454.00,0.0357
453.00,0.0353
452.00,0.0351
451.00,0.0352
450.00,0.0353
449.00,0.0354
448.00,0.0352
447.00,0.0350
446.00,0.0348
445.00,0.0348
444.00,0.0347
443.00,0.0345
442.00,0.0343
441.00,0.0341
440.00,0.0341
439.00,0.0341
438.00,0.0342
437.00,0.0343
436.00,0.0343
435.00,0.0342
434.00,0.0340
433.00,0.0337
432.00,0.0336
431.00,0.0338
430.00,0.0340
429.00,0.0342
428.00,0.0343
427.00,0.0343
426.00,0.0344
425.00,0.0346
424.00,0.0350
423.00,0.0354
422.00,0.0357
421.00,0.0357
420.00,0.0356
419.00,0.0354
418.00,0.0352
417.00,0.0347
416.00,0.0342
415.00,0.0337
414.00,0.0335
413.00,0.0335
412.00,0.0333
411.00,0.0328
410.00,0.0323
409.00,0.0320
408.00,0.0320
407.00,0.0320
406.00,0.0321
405.00,0.0323
404.00,0.0325
403.00,0.0322
402.00,0.0310
401.00,0.0292
400.00,0.0276
