Created as New Dataset,Sample 911 By YargerLab Date Thursday, July 24 2025
cm-1,A
4000.00,0.0043
3999.00,0.0043
3998.00,0.0043
3997.00,0.0043
3996.00,0.0043
3995.00,0.0043
3994.00,0.0043
3993.00,0.0043
3992.00,0.0044
3991.00,0.0044
3990.00,0.0044
3989.00,0.0044
3988.00,0.0044
3987.00,0.0044
3986.00,0.0044
3985.00,0.0044
3984.00,0.0044
3983.00,0.0044
3982.00,0.0044
3981.00,0.0043
3980.00,0.0043
3979.00,0.0043
3978.00,0.0043
3977.00,0.0043
3976.00,0.0043
3975.00,0.0043
3974.00,0.0043
3973.00,0.0043
3972.00,0.0043
3971.00,0.0043
3970.00,0.0043
3969.00,0.0043
3968.00,0.0043
3967.00,0.0043
3966.00,0.0043
3965.00,0.0043
3964.00,0.0043
3963.00,0.0043
3962.00,0.0043
3961.00,0.0043
3960.00,0.0043
3959.00,0.0043
3958.00,0.0043
3957.00,0.0043
3956.00,0.0043
3955.00,0.0043
3954.00,0.0043
3953.00,0.0043
3952.00,0.0043
3951.00,0.0043
3950.00,0.0043
3949.00,0.0043
3948.00,0.0043
3947.00,0.0043
3946.00,0.0043
3945.00,0.0043
3944.00,0.0043
3943.00,0.0044
3942.00,0.0044
3941.00,0.0044
3940.00,0.0044
3939.00,0.0044
3938.00,0.0043
3937.00,0.0043
3936.00,0.0043
3935.00,0.0043
3934.00,0.0043
3933.00,0.0044
3932.00,0.0044
3931.00,0.0044
3930.00,0.0044
3929.00,0.0044
3928.00,0.0044
3927.00,0.0044
3926.00,0.0044
3925.00,0.0044
3924.00,0.0044
3923.00,0.0044
3922.00,0.0044
3921.00,0.0044
3920.00,0.0044
3919.00,0.0044
3918.00,0.0044
3917.00,0.0044
3916.00,0.0043
3915.00,0.0043
3914.00,0.0043
3913.00,0.0043
3912.00,0.0043
3911.00,0.0043
3910.00,0.0043
3909.00,0.0043
3908.00,0.0044
3907.00,0.0044
3906.00,0.0044
3905.00,0.0045
3904.00,0.0045
3903.00,0.0045
3902.00,0.0045
3901.00,0.0044
3900.00,0.0044
3899.00,0.0044
3898.00,0.0044
3897.00,0.0044
3896.00,0.0044
3895.00,0.0044
3894.00,0.0044
3893.00,0.0044
3892.00,0.0044
3891.00,0.0044
3890.00,0.0045
3889.00,0.0045
3888.00,0.0045
3887.00,0.0045
3886.00,0.0045
3885.00,0.0045
3884.00,0.0045
3883.00,0.0045
3882.00,0.0045
3881.00,0.0044
3880.00,0.0044
3879.00,0.0044
3878.00,0.0044
3877.00,0.0044
3876.00,0.0044
3875.00,0.0044
3874.00,0.0044
3873.00,0.0044
3872.00,0.0045
3871.00,0.0045
3870.00,0.0045
3869.00,0.0045
3868.00,0.0045
3867.00,0.0045
3866.00,0.0045
3865.00,0.0045
3864.00,0.0045
3863.00,0.0045
3862.00,0.0045
3861.00,0.0045
3860.00,0.0045
3859.00,0.0045
3858.00,0.0045
3857.00,0.0046
3856.00,0.0046
3855.00,0.0047
3854.00,0.0047
3853.00,0.0046
3852.00,0.0046
3851.00,0.0045
3850.00,0.0045
3849.00,0.0044
3848.00,0.0044
3847.00,0.0044
3846.00,0.0044
3845.00,0.0044
3844.00,0.0044
3843.00,0.0044
3842.00,0.0044
3841.00,0.0045
3840.00,0.0045
3839.00,0.0045
3838.00,0.0046
3837.00,0.0046
3836.00,0.0046
3835.00,0.0046
3834.00,0.0045
3833.00,0.0045
3832.00,0.0045
3831.00,0.0044
3830.00,0.0044
3829.00,0.0044
3828.00,0.0044
3827.00,0.0044
3826.00,0.0044
3825.00,0.0044
3824.00,0.0045
3823.00,0.0045
3822.00,0.0045
3821.00,0.0045
3820.00,0.0046
3819.00,0.0046
3818.00,0.0046
3817.00,0.0046
3816.00,0.0045
3815.00,0.0045
3814.00,0.0045
3813.00,0.0044
3812.00,0.0044
3811.00,0.0044
3810.00,0.0044
3809.00,0.0044
3808.00,0.0045
3807.00,0.0045
3806.00,0.0045
3805.00,0.0045
3804.00,0.0045
3803.00,0.0046
3802.00,0.0046
3801.00,0.0045
3800.00,0.0045
3799.00,0.0045
3798.00,0.0045
3797.00,0.0045
3796.00,0.0045
3795.00,0.0045
3794.00,0.0045
3793.00,0.0045
3792.00,0.0044
3791.00,0.0044
3790.00,0.0044
3789.00,0.0044
3788.00,0.0044
3787.00,0.0044
3786.00,0.0044
3785.00,0.0044
3784.00,0.0044
3783.00,0.0044
3782.00,0.0044
3781.00,0.0044
3780.00,0.0044
3779.00,0.0044
3778.00,0.0044
3777.00,0.0044
3776.00,0.0044
3775.00,0.0044
3774.00,0.0044
3773.00,0.0044
3772.00,0.0044
3771.00,0.0045
3770.00,0.0045
3769.00,0.0045
3768.00,0.0045
3767.00,0.0045
3766.00,0.0045
3765.00,0.0045
3764.00,0.0045
3763.00,0.0045
3762.00,0.0045
3761.00,0.0045
3760.00,0.0044
3759.00,0.0044
3758.00,0.0045
3757.00,0.0045
3756.00,0.0045
3755.00,0.0046
3754.00,0.0046
3753.00,0.0046
3752.00,0.0046
3751.00,0.0046
3750.00,0.0046
3749.00,0.0046
3748.00,0.0047
3747.00,0.0047
3746.00,0.0046
3745.00,0.0046
3744.00,0.0046
3743.00,0.0046
3742.00,0.0047
3741.00,0.0046
3740.00,0.0046
3739.00,0.0045
3738.00,0.0044
3737.00,0.0044
3736.00,0.0044
3735.00,0.0044
3734.00,0.0044
3733.00,0.0044
3732.00,0.0044
3731.00,0.0044
3730.00,0.0044
3729.00,0.0044
3728.00,0.0044
3727.00,0.0043
3726.00,0.0043
3725.00,0.0044
3724.00,0.0044
3723.00,0.0044
3722.00,0.0044
3721.00,0.0044
3720.00,0.0044
3719.00,0.0044
3718.00,0.0044
3717.00,0.0044
3716.00,0.0044
3715.00,0.0045
3714.00,0.0045
3713.00,0.0045
3712.00,0.0045
3711.00,0.0045
3710.00,0.0045
3709.00,0.0044
3708.00,0.0044
3707.00,0.0044
3706.00,0.0044
3705.00,0.0044
3704.00,0.0044
3703.00,0.0044
3702.00,0.0043
3701.00,0.0043
3700.00,0.0043
3699.00,0.0043
3698.00,0.0043
3697.00,0.0043
3696.00,0.0043
3695.00,0.0043
3694.00,0.0043
3693.00,0.0043
3692.00,0.0044
3691.00,0.0044
3690.00,0.0044
3689.00,0.0044
3688.00,0.0045
3687.00,0.0045
3686.00,0.0045
3685.00,0.0045
3684.00,0.0045
3683.00,0.0045
3682.00,0.0045
3681.00,0.0045
3680.00,0.0045
3679.00,0.0046
3678.00,0.0047
3677.00,0.0047
3676.00,0.0047
3675.00,0.0047
3674.00,0.0048
3673.00,0.0048
3672.00,0.0048
3671.00,0.0048
3670.00,0.0047
3669.00,0.0047
3668.00,0.0047
3667.00,0.0047
3666.00,0.0047
3665.00,0.0047
3664.00,0.0047
3663.00,0.0047
3662.00,0.0047
3661.00,0.0047
3660.00,0.0047
3659.00,0.0047
3658.00,0.0048
3657.00,0.0048
3656.00,0.0048
3655.00,0.0049
3654.00,0.0049
3653.00,0.0050
3652.00,0.0051
3651.00,0.0051
3650.00,0.0051
3649.00,0.0051
3648.00,0.0051
3647.00,0.0051
3646.00,0.0051
3645.00,0.0051
3644.00,0.0051
3643.00,0.0051
3642.00,0.0051
3641.00,0.0051
3640.00,0.0052
3639.00,0.0052
3638.00,0.0052
3637.00,0.0053
3636.00,0.0053
3635.00,0.0053
3634.00,0.0053
3633.00,0.0054
3632.00,0.0054
3631.00,0.0055
3630.00,0.0055
3629.00,0.0055
3628.00,0.0056
3627.00,0.0056
3626.00,0.0056
3625.00,0.0056
3624.00,0.0057
3623.00,0.0057
3622.00,0.0058
3621.00,0.0058
3620.00,0.0059
3619.00,0.0060
3618.00,0.0060
3617.00,0.0061
3616.00,0.0062
3615.00,0.0062
3614.00,0.0063
3613.00,0.0063
3612.00,0.0064
3611.00,0.0064
3610.00,0.0065
3609.00,0.0065
3608.00,0.0065
3607.00,0.0066
3606.00,0.0066
3605.00,0.0067
3604.00,0.0067
3603.00,0.0068
3602.00,0.0068
3601.00,0.0068
3600.00,0.0069
3599.00,0.0069
3598.00,0.0070
3597.00,0.0070
3596.00,0.0071
3595.00,0.0072
3594.00,0.0073
3593.00,0.0073
3592.00,0.0074
3591.00,0.0075
3590.00,0.0076
3589.00,0.0077
3588.00,0.0078
3587.00,0.0078
3586.00,0.0079
3585.00,0.0080
3584.00,0.0080
3583.00,0.0081
3582.00,0.0082
3581.00,0.0083
3580.00,0.0084
3579.00,0.0084
3578.00,0.0085
3577.00,0.0086
3576.00,0.0086
3575.00,0.0087
3574.00,0.0088
3573.00,0.0089
3572.00,0.0090
3571.00,0.0091
3570.00,0.0092
3569.00,0.0093
3568.00,0.0094
3567.00,0.0095
3566.00,0.0096
3565.00,0.0096
3564.00,0.0097
3563.00,0.0097
3562.00,0.0098
3561.00,0.0099
3560.00,0.0100
3559.00,0.0101
3558.00,0.0102
3557.00,0.0103
3556.00,0.0104
3555.00,0.0104
3554.00,0.0105
3553.00,0.0106
3552.00,0.0106
3551.00,0.0107
3550.00,0.0108
3549.00,0.0109
3548.00,0.0110
3547.00,0.0110
3546.00,0.0111
3545.00,0.0111
3544.00,0.0112
3543.00,0.0112
3542.00,0.0112
3541.00,0.0113
3540.00,0.0113
3539.00,0.0114
3538.00,0.0115
3537.00,0.0115
3536.00,0.0116
3535.00,0.0116
3534.00,0.0116
3533.00,0.0117
3532.00,0.0118
3531.00,0.0118
3530.00,0.0119
3529.00,0.0119
3528.00,0.0120
3527.00,0.0120
3526.00,0.0121
3525.00,0.0121
3524.00,0.0121
3523.00,0.0121
3522.00,0.0121
3521.00,0.0122
3520.00,0.0122
3519.00,0.0122
3518.00,0.0123
3517.00,0.0123
3516.00,0.0123
3515.00,0.0124
3514.00,0.0124
3513.00,0.0124
3512.00,0.0125
3511.00,0.0125
3510.00,0.0125
3509.00,0.0125
3508.00,0.0125
3507.00,0.0126
3506.00,0.0126
3505.00,0.0126
3504.00,0.0126
3503.00,0.0126
3502.00,0.0126
3501.00,0.0126
3500.00,0.0127
3499.00,0.0127
3498.00,0.0127
3497.00,0.0128
3496.00,0.0128
3495.00,0.0128
3494.00,0.0128
3493.00,0.0128
3492.00,0.0128
3491.00,0.0128
3490.00,0.0128
3489.00,0.0129
3488.00,0.0129
3487.00,0.0129
3486.00,0.0130
3485.00,0.0130
3484.00,0.0130
3483.00,0.0130
3482.00,0.0130
3481.00,0.0130
3480.00,0.0130
3479.00,0.0130
3478.00,0.0130
3477.00,0.0131
3476.00,0.0131
3475.00,0.0131
3474.00,0.0131
3473.00,0.0131
3472.00,0.0131
3471.00,0.0132
3470.00,0.0132
3469.00,0.0132
3468.00,0.0132
3467.00,0.0132
3466.00,0.0132
3465.00,0.0132
3464.00,0.0132
3463.00,0.0132
3462.00,0.0132
3461.00,0.0133
3460.00,0.0133
3459.00,0.0133
3458.00,0.0133
3457.00,0.0133
3456.00,0.0133
3455.00,0.0133
3454.00,0.0133
3453.00,0.0133
3452.00,0.0133
3451.00,0.0134
3450.00,0.0134
3449.00,0.0134
3448.00,0.0134
3447.00,0.0134
3446.00,0.0133
3445.00,0.0133
3444.00,0.0133
3443.00,0.0133
3442.00,0.0133
3441.00,0.0133
3440.00,0.0133
3439.00,0.0133
3438.00,0.0134
3437.00,0.0134
3436.00,0.0134
3435.00,0.0134
3434.00,0.0133
3433.00,0.0133
3432.00,0.0133
3431.00,0.0132
3430.00,0.0132
3429.00,0.0132
3428.00,0.0132
3427.00,0.0132
3426.00,0.0132
3425.00,0.0131
3424.00,0.0131
3423.00,0.0132
3422.00,0.0132
3421.00,0.0131
3420.00,0.0131
3419.00,0.0131
3418.00,0.0130
3417.00,0.0130
3416.00,0.0130
3415.00,0.0129
3414.00,0.0129
3413.00,0.0129
3412.00,0.0128
3411.00,0.0128
3410.00,0.0128
3409.00,0.0128
3408.00,0.0127
3407.00,0.0127
3406.00,0.0127
3405.00,0.0127
3404.00,0.0127
3403.00,0.0126
3402.00,0.0126
3401.00,0.0125
3400.00,0.0125
3399.00,0.0125
3398.00,0.0125
3397.00,0.0125
3396.00,0.0124
3395.00,0.0124
3394.00,0.0124
3393.00,0.0123
3392.00,0.0123
3391.00,0.0123
3390.00,0.0122
3389.00,0.0122
3388.00,0.0122
3387.00,0.0122
3386.00,0.0122
3385.00,0.0121
3384.00,0.0121
3383.00,0.0121
3382.00,0.0121
3381.00,0.0120
3380.00,0.0120
3379.00,0.0119
3378.00,0.0119
3377.00,0.0119
3376.00,0.0118
3375.00,0.0118
3374.00,0.0117
3373.00,0.0117
3372.00,0.0116
3371.00,0.0116
3370.00,0.0115
3369.00,0.0114
3368.00,0.0114
3367.00,0.0114
3366.00,0.0115
3365.00,0.0115
3364.00,0.0115
3363.00,0.0115
3362.00,0.0115
3361.00,0.0114
3360.00,0.0114
3359.00,0.0114
3358.00,0.0114
3357.00,0.0114
3356.00,0.0113
3355.00,0.0113
3354.00,0.0113
3353.00,0.0112
3352.00,0.0112
3351.00,0.0112
3350.00,0.0112
3349.00,0.0112
3348.00,0.0112
3347.00,0.0112
3346.00,0.0112
3345.00,0.0111
3344.00,0.0110
3343.00,0.0110
3342.00,0.0109
3341.00,0.0109
3340.00,0.0109
3339.00,0.0108
3338.00,0.0108
3337.00,0.0109
3336.00,0.0109
3335.00,0.0109
3334.00,0.0109
3333.00,0.0109
3332.00,0.0109
3331.00,0.0109
3330.00,0.0109
3329.00,0.0108
3328.00,0.0108
3327.00,0.0107
3326.00,0.0107
3325.00,0.0106
3324.00,0.0106
3323.00,0.0107
3322.00,0.0107
3321.00,0.0107
3320.00,0.0107
3319.00,0.0106
3318.00,0.0106
3317.00,0.0106
3316.00,0.0105
3315.00,0.0105
3314.00,0.0104
3313.00,0.0104
3312.00,0.0103
3311.00,0.0102
3310.00,0.0101
3309.00,0.0100
3308.00,0.0099
3307.00,0.0098
3306.00,0.0097
3305.00,0.0098
3304.00,0.0099
3303.00,0.0100
3302.00,0.0101
3301.00,0.0101
3300.00,0.0101
3299.00,0.0100
3298.00,0.0099
3297.00,0.0098
3296.00,0.0098
3295.00,0.0097
3294.00,0.0097
3293.00,0.0097
3292.00,0.0097
3291.00,0.0097
3290.00,0.0097
3289.00,0.0097
3288.00,0.0098
3287.00,0.0098
3286.00,0.0097
3285.00,0.0097
3284.00,0.0097
3283.00,0.0097
3282.00,0.0096
3281.00,0.0096
3280.00,0.0095
3279.00,0.0095
3278.00,0.0095
3277.00,0.0094
3276.00,0.0094
3275.00,0.0093
3274.00,0.0092
3273.00,0.0092
3272.00,0.0091
3271.00,0.0091
3270.00,0.0091
3269.00,0.0091
3268.00,0.0091
3267.00,0.0091
3266.00,0.0091
3265.00,0.0091
3264.00,0.0090
3263.00,0.0090
3262.00,0.0090
3261.00,0.0090
3260.00,0.0090
3259.00,0.0089
3258.00,0.0088
3257.00,0.0088
3256.00,0.0087
3255.00,0.0087
3254.00,0.0086
3253.00,0.0086
3252.00,0.0086
3251.00,0.0086
3250.00,0.0085
3249.00,0.0085
3248.00,0.0085
3247.00,0.0084
3246.00,0.0084
3245.00,0.0083
3244.00,0.0083
3243.00,0.0083
3242.00,0.0083
3241.00,0.0082
3240.00,0.0082
3239.00,0.0082
3238.00,0.0082
3237.00,0.0081
3236.00,0.0081
3235.00,0.0080
3234.00,0.0080
3233.00,0.0080
3232.00,0.0080
3231.00,0.0079
3230.00,0.0079
3229.00,0.0079
3228.00,0.0078
3227.00,0.0078
3226.00,0.0078
3225.00,0.0077
3224.00,0.0077
3223.00,0.0077
3222.00,0.0077
3221.00,0.0077
3220.00,0.0076
3219.00,0.0076
3218.00,0.0076
3217.00,0.0075
3216.00,0.0075
3215.00,0.0075
3214.00,0.0074
3213.00,0.0074
3212.00,0.0074
3211.00,0.0074
3210.00,0.0074
3209.00,0.0074
3208.00,0.0073
3207.00,0.0073
3206.00,0.0072
3205.00,0.0072
3204.00,0.0072
3203.00,0.0072
3202.00,0.0072
3201.00,0.0071
3200.00,0.0071
3199.00,0.0071
3198.00,0.0071
3197.00,0.0070
3196.00,0.0070
3195.00,0.0070
3194.00,0.0070
3193.00,0.0070
3192.00,0.0070
3191.00,0.0069
3190.00,0.0069
3189.00,0.0069
3188.00,0.0069
3187.00,0.0069
3186.00,0.0069
3185.00,0.0068
3184.00,0.0068
3183.00,0.0068
3182.00,0.0067
3181.00,0.0067
3180.00,0.0067
3179.00,0.0066
3178.00,0.0066
3177.00,0.0066
3176.00,0.0066
3175.00,0.0066
3174.00,0.0066
3173.00,0.0066
3172.00,0.0065
3171.00,0.0065
3170.00,0.0065
3169.00,0.0065
3168.00,0.0065
3167.00,0.0065
3166.00,0.0065
3165.00,0.0064
3164.00,0.0064
3163.00,0.0064
3162.00,0.0064
3161.00,0.0064
3160.00,0.0064
3159.00,0.0064
3158.00,0.0064
3157.00,0.0064
3156.00,0.0064
3155.00,0.0063
3154.00,0.0063
3153.00,0.0063
3152.00,0.0063
3151.00,0.0063
3150.00,0.0063
3149.00,0.0062
3148.00,0.0062
3147.00,0.0062
3146.00,0.0062
3145.00,0.0062
3144.00,0.0062
3143.00,0.0062
3142.00,0.0062
3141.00,0.0061
3140.00,0.0061
3139.00,0.0061
3138.00,0.0061
3137.00,0.0061
3136.00,0.0061
3135.00,0.0061
3134.00,0.0061
3133.00,0.0061
3132.00,0.0061
3131.00,0.0061
3130.00,0.0061
3129.00,0.0060
3128.00,0.0060
3127.00,0.0060
3126.00,0.0060
3125.00,0.0060
3124.00,0.0060
3123.00,0.0060
3122.00,0.0060
3121.00,0.0060
3120.00,0.0060
3119.00,0.0060
3118.00,0.0060
3117.00,0.0060
3116.00,0.0060
3115.00,0.0059
3114.00,0.0059
3113.00,0.0059
3112.00,0.0059
3111.00,0.0059
3110.00,0.0059
3109.00,0.0059
3108.00,0.0059
3107.00,0.0059
3106.00,0.0059
3105.00,0.0059
3104.00,0.0059
3103.00,0.0059
3102.00,0.0059
3101.00,0.0059
3100.00,0.0059
3099.00,0.0059
3098.00,0.0059
3097.00,0.0058
3096.00,0.0058
3095.00,0.0058
3094.00,0.0058
3093.00,0.0058
3092.00,0.0057
3091.00,0.0057
3090.00,0.0057
3089.00,0.0058
3088.00,0.0058
3087.00,0.0057
3086.00,0.0057
3085.00,0.0057
3084.00,0.0057
3083.00,0.0057
3082.00,0.0057
3081.00,0.0057
3080.00,0.0057
3079.00,0.0057
3078.00,0.0057
3077.00,0.0057
3076.00,0.0056
3075.00,0.0056
3074.00,0.0056
3073.00,0.0056
3072.00,0.0056
3071.00,0.0056
3070.00,0.0056
3069.00,0.0056
3068.00,0.0056
3067.00,0.0056
3066.00,0.0056
3065.00,0.0056
3064.00,0.0056
3063.00,0.0056
3062.00,0.0056
3061.00,0.0056
3060.00,0.0056
3059.00,0.0056
3058.00,0.0056
3057.00,0.0056
3056.00,0.0056
3055.00,0.0056
3054.00,0.0056
3053.00,0.0056
3052.00,0.0056
3051.00,0.0056
3050.00,0.0056
3049.00,0.0056
3048.00,0.0056
3047.00,0.0056
3046.00,0.0056
3045.00,0.0056
3044.00,0.0056
3043.00,0.0056
3042.00,0.0056
3041.00,0.0056
3040.00,0.0056
3039.00,0.0056
3038.00,0.0056
3037.00,0.0056
3036.00,0.0056
3035.00,0.0056
3034.00,0.0056
3033.00,0.0056
3032.00,0.0056
3031.00,0.0056
3030.00,0.0057
3029.00,0.0057
3028.00,0.0057
3027.00,0.0057
3026.00,0.0057
3025.00,0.0057
3024.00,0.0058
3023.00,0.0058
3022.00,0.0058
3021.00,0.0059
3020.00,0.0059
3019.00,0.0060
3018.00,0.0060
3017.00,0.0061
3016.00,0.0061
3015.00,0.0062
3014.00,0.0063
3013.00,0.0063
3012.00,0.0064
3011.00,0.0065
3010.00,0.0066
3009.00,0.0067
3008.00,0.0068
3007.00,0.0070
3006.00,0.0071
3005.00,0.0072
3004.00,0.0074
3003.00,0.0075
3002.00,0.0077
3001.00,0.0079
3000.00,0.0081
2999.00,0.0083
2998.00,0.0085
2997.00,0.0087
2996.00,0.0089
2995.00,0.0092
2994.00,0.0094
2993.00,0.0097
2992.00,0.0100
2991.00,0.0103
2990.00,0.0105
2989.00,0.0108
2988.00,0.0111
2987.00,0.0113
2986.00,0.0116
2985.00,0.0119
2984.00,0.0121
2983.00,0.0123
2982.00,0.0125
2981.00,0.0128
2980.00,0.0130
2979.00,0.0132
2978.00,0.0134
2977.00,0.0136
2976.00,0.0138
2975.00,0.0140
2974.00,0.0142
2973.00,0.0143
2972.00,0.0145
2971.00,0.0147
2970.00,0.0148
2969.00,0.0150
2968.00,0.0151
2967.00,0.0153
2966.00,0.0154
2965.00,0.0156
2964.00,0.0157
2963.00,0.0159
2962.00,0.0160
2961.00,0.0162
2960.00,0.0163
2959.00,0.0164
2958.00,0.0165
2957.00,0.0166
2956.00,0.0167
2955.00,0.0168
2954.00,0.0169
2953.00,0.0170
2952.00,0.0171
2951.00,0.0172
2950.00,0.0172
2949.00,0.0172
2948.00,0.0171
2947.00,0.0171
2946.00,0.0170
2945.00,0.0169
2944.00,0.0168
2943.00,0.0166
2942.00,0.0165
2941.00,0.0164
2940.00,0.0163
2939.00,0.0162
2938.00,0.0160
2937.00,0.0160
2936.00,0.0159
2935.00,0.0158
2934.00,0.0158
2933.00,0.0157
2932.00,0.0157
2931.00,0.0157
2930.00,0.0158
2929.00,0.0158
2928.00,0.0159
2927.00,0.0159
2926.00,0.0159
2925.00,0.0160
2924.00,0.0160
2923.00,0.0160
2922.00,0.0161
2921.00,0.0161
2920.00,0.0161
2919.00,0.0160
2918.00,0.0160
2917.00,0.0159
2916.00,0.0159
2915.00,0.0158
2914.00,0.0158
2913.00,0.0157
2912.00,0.0156
2911.00,0.0155
2910.00,0.0154
2909.00,0.0153
2908.00,0.0152
2907.00,0.0150
2906.00,0.0149
2905.00,0.0148
2904.00,0.0147
2903.00,0.0146
2902.00,0.0145
2901.00,0.0145
2900.00,0.0145
2899.00,0.0145
2898.00,0.0145
2897.00,0.0145
2896.00,0.0146
2895.00,0.0147
2894.00,0.0148
2893.00,0.0148
2892.00,0.0149
2891.00,0.0149
2890.00,0.0150
2889.00,0.0150
2888.00,0.0150
2887.00,0.0151
2886.00,0.0151
2885.00,0.0151
2884.00,0.0151
2883.00,0.0152
2882.00,0.0152
2881.00,0.0152
2880.00,0.0152
2879.00,0.0152
2878.00,0.0151
2877.00,0.0150
2876.00,0.0150
2875.00,0.0149
2874.00,0.0148
2873.00,0.0147
2872.00,0.0146
2871.00,0.0145
2870.00,0.0145
2869.00,0.0144
2868.00,0.0144
2867.00,0.0143
2866.00,0.0142
2865.00,0.0141
2864.00,0.0140
2863.00,0.0139
2862.00,0.0138
2861.00,0.0136
2860.00,0.0135
2859.00,0.0133
2858.00,0.0132
2857.00,0.0130
2856.00,0.0129
2855.00,0.0127
2854.00,0.0125
2853.00,0.0123
2852.00,0.0121
2851.00,0.0119
2850.00,0.0117
2849.00,0.0115
2848.00,0.0113
2847.00,0.0112
2846.00,0.0111
2845.00,0.0110
2844.00,0.0109
2843.00,0.0108
2842.00,0.0106
2841.00,0.0105
2840.00,0.0104
2839.00,0.0102
2838.00,0.0101
2837.00,0.0100
2836.00,0.0099
2835.00,0.0098
2834.00,0.0097
2833.00,0.0096
2832.00,0.0094
2831.00,0.0093
2830.00,0.0091
2829.00,0.0090
2828.00,0.0089
2827.00,0.0087
2826.00,0.0086
2825.00,0.0084
2824.00,0.0083
2823.00,0.0082
2822.00,0.0081
2821.00,0.0080
2820.00,0.0079
2819.00,0.0078
2818.00,0.0078
2817.00,0.0077
2816.00,0.0076
2815.00,0.0075
2814.00,0.0075
2813.00,0.0074
2812.00,0.0073
2811.00,0.0073
2810.00,0.0072
2809.00,0.0072
2808.00,0.0071
2807.00,0.0071
2806.00,0.0071
2805.00,0.0071
2804.00,0.0070
2803.00,0.0070
2802.00,0.0070
2801.00,0.0070
2800.00,0.0070
2799.00,0.0069
2798.00,0.0069
2797.00,0.0069
2796.00,0.0068
2795.00,0.0068
2794.00,0.0068
2793.00,0.0068
2792.00,0.0067
2791.00,0.0067
2790.00,0.0067
2789.00,0.0067
2788.00,0.0066
2787.00,0.0066
2786.00,0.0066
2785.00,0.0066
2784.00,0.0066
2783.00,0.0066
2782.00,0.0066
2781.00,0.0066
2780.00,0.0065
2779.00,0.0065
2778.00,0.0065
2777.00,0.0065
2776.00,0.0065
2775.00,0.0064
2774.00,0.0064
2773.00,0.0064
2772.00,0.0064
2771.00,0.0064
2770.00,0.0064
2769.00,0.0064
2768.00,0.0064
2767.00,0.0063
2766.00,0.0063
2765.00,0.0063
2764.00,0.0063
2763.00,0.0063
2762.00,0.0063
2761.00,0.0063
2760.00,0.0062
2759.00,0.0062
2758.00,0.0062
2757.00,0.0062
2756.00,0.0062
2755.00,0.0062
2754.00,0.0062
2753.00,0.0062
2752.00,0.0062
2751.00,0.0062
2750.00,0.0062
2749.00,0.0062
2748.00,0.0062
2747.00,0.0062
2746.00,0.0062
2745.00,0.0062
2744.00,0.0062
2743.00,0.0062
2742.00,0.0062
2741.00,0.0062
2740.00,0.0062
2739.00,0.0062
2738.00,0.0062
2737.00,0.0062
2736.00,0.0062
2735.00,0.0062
2734.00,0.0062
2733.00,0.0062
2732.00,0.0062
2731.00,0.0062
2730.00,0.0062
2729.00,0.0062
2728.00,0.0061
2727.00,0.0061
2726.00,0.0061
2725.00,0.0061
2724.00,0.0061
2723.00,0.0061
2722.00,0.0061
2721.00,0.0061
2720.00,0.0061
2719.00,0.0061
2718.00,0.0061
2717.00,0.0061
2716.00,0.0061
2715.00,0.0061
2714.00,0.0060
2713.00,0.0060
2712.00,0.0060
2711.00,0.0060
2710.00,0.0060
2709.00,0.0060
2708.00,0.0061
2707.00,0.0060
2706.00,0.0060
2705.00,0.0060
2704.00,0.0060
2703.00,0.0060
2702.00,0.0059
2701.00,0.0059
2700.00,0.0060
2699.00,0.0060
2698.00,0.0060
2697.00,0.0060
2696.00,0.0059
2695.00,0.0059
2694.00,0.0059
2693.00,0.0059
2692.00,0.0059
2691.00,0.0059
2690.00,0.0059
2689.00,0.0059
2688.00,0.0059
2687.00,0.0059
2686.00,0.0059
2685.00,0.0059
2684.00,0.0059
2683.00,0.0059
2682.00,0.0059
2681.00,0.0059
2680.00,0.0059
2679.00,0.0059
2678.00,0.0059
2677.00,0.0059
2676.00,0.0058
2675.00,0.0058
2674.00,0.0058
2673.00,0.0058
2672.00,0.0059
2671.00,0.0059
2670.00,0.0059
2669.00,0.0059
2668.00,0.0059
2667.00,0.0060
2666.00,0.0060
2665.00,0.0060
2664.00,0.0061
2663.00,0.0061
2662.00,0.0061
2661.00,0.0062
2660.00,0.0062
2659.00,0.0062
2658.00,0.0063
2657.00,0.0063
2656.00,0.0063
2655.00,0.0063
2654.00,0.0063
2653.00,0.0063
2652.00,0.0063
2651.00,0.0063
2650.00,0.0063
2649.00,0.0063
2648.00,0.0063
2647.00,0.0063
2646.00,0.0063
2645.00,0.0063
2644.00,0.0063
2643.00,0.0063
2642.00,0.0063
2641.00,0.0063
2640.00,0.0063
2639.00,0.0063
2638.00,0.0063
2637.00,0.0063
2636.00,0.0063
2635.00,0.0063
2634.00,0.0063
2633.00,0.0063
2632.00,0.0063
2631.00,0.0063
2630.00,0.0062
2629.00,0.0062
2628.00,0.0062
2627.00,0.0062
2626.00,0.0062
2625.00,0.0062
2624.00,0.0062
2623.00,0.0062
2622.00,0.0062
2621.00,0.0061
2620.00,0.0061
2619.00,0.0061
2618.00,0.0061
2617.00,0.0061
2616.00,0.0061
2615.00,0.0061
2614.00,0.0061
2613.00,0.0061
2612.00,0.0061
2611.00,0.0061
2610.00,0.0061
2609.00,0.0061
2608.00,0.0061
2607.00,0.0061
2606.00,0.0061
2605.00,0.0060
2604.00,0.0060
2603.00,0.0060
2602.00,0.0060
2601.00,0.0060
2600.00,0.0060
2599.00,0.0060
2598.00,0.0060
2597.00,0.0060
2596.00,0.0060
2595.00,0.0060
2594.00,0.0060
2593.00,0.0060
2592.00,0.0060
2591.00,0.0060
2590.00,0.0060
2589.00,0.0060
2588.00,0.0060
2587.00,0.0060
2586.00,0.0060
2585.00,0.0060
2584.00,0.0060
2583.00,0.0060
2582.00,0.0060
2581.00,0.0060
2580.00,0.0060
2579.00,0.0060
2578.00,0.0060
2577.00,0.0060
2576.00,0.0060
2575.00,0.0060
2574.00,0.0060
2573.00,0.0059
2572.00,0.0059
2571.00,0.0059
2570.00,0.0059
2569.00,0.0059
2568.00,0.0060
2567.00,0.0060
2566.00,0.0060
2565.00,0.0060
2564.00,0.0060
2563.00,0.0060
2562.00,0.0060
2561.00,0.0060
2560.00,0.0059
2559.00,0.0059
2558.00,0.0059
2557.00,0.0059
2556.00,0.0059
2555.00,0.0059
2554.00,0.0059
2553.00,0.0058
2552.00,0.0058
2551.00,0.0058
2550.00,0.0058
2549.00,0.0058
2548.00,0.0058
2547.00,0.0058
2546.00,0.0057
2545.00,0.0057
2544.00,0.0057
2543.00,0.0057
2542.00,0.0057
2541.00,0.0057
2540.00,0.0057
2539.00,0.0057
2538.00,0.0056
2537.00,0.0056
2536.00,0.0056
2535.00,0.0057
2534.00,0.0057
2533.00,0.0057
2532.00,0.0057
2531.00,0.0057
2530.00,0.0056
2529.00,0.0056
2528.00,0.0056
2527.00,0.0056
2526.00,0.0056
2525.00,0.0056
2524.00,0.0056
2523.00,0.0056
2522.00,0.0056
2521.00,0.0056
2520.00,0.0056
2519.00,0.0056
2518.00,0.0056
2517.00,0.0056
2516.00,0.0056
2515.00,0.0056
2514.00,0.0056
2513.00,0.0056
2512.00,0.0056
2511.00,0.0055
2510.00,0.0055
2509.00,0.0055
2508.00,0.0055
2507.00,0.0056
2506.00,0.0056
2505.00,0.0056
2504.00,0.0056
2503.00,0.0056
2502.00,0.0056
2501.00,0.0056
2500.00,0.0056
2499.00,0.0055
2498.00,0.0055
2497.00,0.0055
2496.00,0.0055
2495.00,0.0055
2494.00,0.0055
2493.00,0.0055
2492.00,0.0055
2491.00,0.0055
2490.00,0.0055
2489.00,0.0056
2488.00,0.0056
2487.00,0.0056
2486.00,0.0055
2485.00,0.0055
2484.00,0.0055
2483.00,0.0055
2482.00,0.0055
2481.00,0.0055
2480.00,0.0054
2479.00,0.0054
2478.00,0.0054
2477.00,0.0054
2476.00,0.0054
2475.00,0.0054
2474.00,0.0054
2473.00,0.0054
2472.00,0.0054
2471.00,0.0055
2470.00,0.0055
2469.00,0.0055
2468.00,0.0055
2467.00,0.0055
2466.00,0.0054
2465.00,0.0054
2464.00,0.0055
2463.00,0.0055
2462.00,0.0055
2461.00,0.0056
2460.00,0.0056
2459.00,0.0056
2458.00,0.0056
2457.00,0.0056
2456.00,0.0056
2455.00,0.0056
2454.00,0.0056
2453.00,0.0056
2452.00,0.0056
2451.00,0.0056
2450.00,0.0056
2449.00,0.0056
2448.00,0.0055
2447.00,0.0055
2446.00,0.0055
2445.00,0.0055
2444.00,0.0055
2443.00,0.0055
2442.00,0.0055
2441.00,0.0055
2440.00,0.0055
2439.00,0.0055
2438.00,0.0055
2437.00,0.0055
2436.00,0.0055
2435.00,0.0054
2434.00,0.0054
2433.00,0.0054
2432.00,0.0054
2431.00,0.0054
2430.00,0.0054
2429.00,0.0054
2428.00,0.0055
2427.00,0.0055
2426.00,0.0054
2425.00,0.0054
2424.00,0.0054
2423.00,0.0055
2422.00,0.0055
2421.00,0.0054
2420.00,0.0054
2419.00,0.0054
2418.00,0.0054
2417.00,0.0055
2416.00,0.0055
2415.00,0.0054
2414.00,0.0054
2413.00,0.0054
2412.00,0.0054
2411.00,0.0054
2410.00,0.0054
2409.00,0.0054
2408.00,0.0053
2407.00,0.0053
2406.00,0.0053
2405.00,0.0053
2404.00,0.0053
2403.00,0.0053
2402.00,0.0053
2401.00,0.0053
2400.00,0.0053
2399.00,0.0053
2398.00,0.0053
2397.00,0.0053
2396.00,0.0053
2395.00,0.0053
2394.00,0.0053
2393.00,0.0053
2392.00,0.0053
2391.00,0.0052
2390.00,0.0052
2389.00,0.0052
2388.00,0.0052
2387.00,0.0052
2386.00,0.0052
2385.00,0.0051
2384.00,0.0051
2383.00,0.0050
2382.00,0.0049
2381.00,0.0049
2380.00,0.0048
2379.00,0.0048
2378.00,0.0048
2377.00,0.0048
2376.00,0.0048
2375.00,0.0048
2374.00,0.0048
2373.00,0.0048
2372.00,0.0048
2371.00,0.0048
2370.00,0.0048
2369.00,0.0047
2368.00,0.0047
2367.00,0.0046
2366.00,0.0046
2365.00,0.0047
2364.00,0.0047
2363.00,0.0048
2362.00,0.0048
2361.00,0.0048
2360.00,0.0048
2359.00,0.0048
2358.00,0.0048
2357.00,0.0048
2356.00,0.0048
2355.00,0.0049
2354.00,0.0049
2353.00,0.0049
2352.00,0.0049
2351.00,0.0049
2350.00,0.0049
2349.00,0.0049
2348.00,0.0050
2347.00,0.0050
2346.00,0.0051
2345.00,0.0051
2344.00,0.0051
2343.00,0.0051
2342.00,0.0051
2341.00,0.0051
2340.00,0.0051
2339.00,0.0052
2338.00,0.0052
2337.00,0.0053
2336.00,0.0053
2335.00,0.0054
2334.00,0.0054
2333.00,0.0054
2332.00,0.0054
2331.00,0.0054
2330.00,0.0054
2329.00,0.0056
2328.00,0.0059
2327.00,0.0062
2326.00,0.0065
2325.00,0.0066
2324.00,0.0065
2323.00,0.0063
2322.00,0.0061
2321.00,0.0060
2320.00,0.0059
2319.00,0.0058
2318.00,0.0058
2317.00,0.0058
2316.00,0.0058
2315.00,0.0058
2314.00,0.0058
2313.00,0.0058
2312.00,0.0057
2311.00,0.0057
2310.00,0.0056
2309.00,0.0056
2308.00,0.0056
2307.00,0.0056
2306.00,0.0056
2305.00,0.0057
2304.00,0.0057
2303.00,0.0057
2302.00,0.0057
2301.00,0.0057
2300.00,0.0058
2299.00,0.0058
2298.00,0.0058
2297.00,0.0059
2296.00,0.0059
2295.00,0.0060
2294.00,0.0060
2293.00,0.0061
2292.00,0.0062
2291.00,0.0062
2290.00,0.0063
2289.00,0.0064
2288.00,0.0064
2287.00,0.0065
2286.00,0.0065
2285.00,0.0065
2284.00,0.0064
2283.00,0.0063
2282.00,0.0062
2281.00,0.0062
2280.00,0.0061
2279.00,0.0061
2278.00,0.0061
2277.00,0.0060
2276.00,0.0060
2275.00,0.0060
2274.00,0.0060
2273.00,0.0060
2272.00,0.0060
2271.00,0.0059
2270.00,0.0059
2269.00,0.0058
2268.00,0.0058
2267.00,0.0057
2266.00,0.0057
2265.00,0.0057
2264.00,0.0057
2263.00,0.0057
2262.00,0.0058
2261.00,0.0058
2260.00,0.0059
2259.00,0.0059
2258.00,0.0058
2257.00,0.0058
2256.00,0.0057
2255.00,0.0056
2254.00,0.0056
2253.00,0.0056
2252.00,0.0056
2251.00,0.0056
2250.00,0.0056
2249.00,0.0056
2248.00,0.0056
2247.00,0.0056
2246.00,0.0056
2245.00,0.0056
2244.00,0.0056
2243.00,0.0056
2242.00,0.0056
2241.00,0.0057
2240.00,0.0058
2239.00,0.0058
2238.00,0.0058
2237.00,0.0058
2236.00,0.0058
2235.00,0.0059
2234.00,0.0059
2233.00,0.0058
2232.00,0.0057
2231.00,0.0057
2230.00,0.0057
2229.00,0.0056
2228.00,0.0056
2227.00,0.0056
2226.00,0.0055
2225.00,0.0055
2224.00,0.0056
2223.00,0.0056
2222.00,0.0057
2221.00,0.0057
2220.00,0.0057
2219.00,0.0057
2218.00,0.0057
2217.00,0.0056
2216.00,0.0057
2215.00,0.0057
2214.00,0.0058
2213.00,0.0057
2212.00,0.0057
2211.00,0.0057
2210.00,0.0057
2209.00,0.0057
2208.00,0.0058
2207.00,0.0058
2206.00,0.0059
2205.00,0.0059
2204.00,0.0059
2203.00,0.0058
2202.00,0.0058
2201.00,0.0057
2200.00,0.0056
2199.00,0.0056
2198.00,0.0056
2197.00,0.0057
2196.00,0.0057
2195.00,0.0058
2194.00,0.0058
2193.00,0.0058
2192.00,0.0058
2191.00,0.0058
2190.00,0.0057
2189.00,0.0058
2188.00,0.0058
2187.00,0.0058
2186.00,0.0058
2185.00,0.0057
2184.00,0.0057
2183.00,0.0056
2182.00,0.0055
2181.00,0.0055
2180.00,0.0056
2179.00,0.0057
2178.00,0.0057
2177.00,0.0057
2176.00,0.0057
2175.00,0.0057
2174.00,0.0057
2173.00,0.0057
2172.00,0.0059
2171.00,0.0061
2170.00,0.0063
2169.00,0.0065
2168.00,0.0067
2167.00,0.0068
2166.00,0.0068
2165.00,0.0069
2164.00,0.0071
2163.00,0.0070
2162.00,0.0066
2161.00,0.0056
2160.00,0.0043
2159.00,0.0033
2158.00,0.0027
2157.00,0.0026
2156.00,0.0027
2155.00,0.0031
2154.00,0.0035
2153.00,0.0039
2152.00,0.0042
2151.00,0.0043
2150.00,0.0042
2149.00,0.0040
2148.00,0.0039
2147.00,0.0039
2146.00,0.0039
2145.00,0.0039
2144.00,0.0040
2143.00,0.0040
2142.00,0.0040
2141.00,0.0040
2140.00,0.0041
2139.00,0.0041
2138.00,0.0040
2137.00,0.0038
2136.00,0.0037
2135.00,0.0036
2134.00,0.0036
2133.00,0.0037
2132.00,0.0039
2131.00,0.0041
2130.00,0.0042
2129.00,0.0044
2128.00,0.0046
2127.00,0.0048
2126.00,0.0049
2125.00,0.0049
2124.00,0.0049
2123.00,0.0049
2122.00,0.0050
2121.00,0.0051
2120.00,0.0052
2119.00,0.0054
2118.00,0.0056
2117.00,0.0057
2116.00,0.0058
2115.00,0.0058
2114.00,0.0057
2113.00,0.0056
2112.00,0.0056
2111.00,0.0055
2110.00,0.0055
2109.00,0.0055
2108.00,0.0054
2107.00,0.0054
2106.00,0.0055
2105.00,0.0055
2104.00,0.0055
2103.00,0.0055
2102.00,0.0055
2101.00,0.0055
2100.00,0.0054
2099.00,0.0054
2098.00,0.0052
2097.00,0.0051
2096.00,0.0050
2095.00,0.0050
2094.00,0.0050
2093.00,0.0051
2092.00,0.0052
2091.00,0.0053
2090.00,0.0054
2089.00,0.0055
2088.00,0.0056
2087.00,0.0056
2086.00,0.0056
2085.00,0.0056
2084.00,0.0056
2083.00,0.0056
2082.00,0.0055
2081.00,0.0055
2080.00,0.0055
2079.00,0.0055
2078.00,0.0055
2077.00,0.0055
2076.00,0.0055
2075.00,0.0055
2074.00,0.0056
2073.00,0.0056
2072.00,0.0057
2071.00,0.0057
2070.00,0.0056
2069.00,0.0055
2068.00,0.0054
2067.00,0.0054
2066.00,0.0054
2065.00,0.0054
2064.00,0.0053
2063.00,0.0053
2062.00,0.0052
2061.00,0.0052
2060.00,0.0052
2059.00,0.0053
2058.00,0.0053
2057.00,0.0053
2056.00,0.0053
2055.00,0.0054
2054.00,0.0056
2053.00,0.0060
2052.00,0.0063
2051.00,0.0063
2050.00,0.0060
2049.00,0.0057
2048.00,0.0054
2047.00,0.0053
2046.00,0.0052
2045.00,0.0052
2044.00,0.0051
2043.00,0.0052
2042.00,0.0053
2041.00,0.0055
2040.00,0.0057
2039.00,0.0058
2038.00,0.0058
2037.00,0.0056
2036.00,0.0054
2035.00,0.0052
2034.00,0.0050
2033.00,0.0050
2032.00,0.0050
2031.00,0.0050
2030.00,0.0050
2029.00,0.0049
2028.00,0.0050
2027.00,0.0049
2026.00,0.0048
2025.00,0.0047
2024.00,0.0046
2023.00,0.0046
2022.00,0.0046
2021.00,0.0045
2020.00,0.0046
2019.00,0.0047
2018.00,0.0048
2017.00,0.0049
2016.00,0.0049
2015.00,0.0048
2014.00,0.0048
2013.00,0.0048
2012.00,0.0049
2011.00,0.0050
2010.00,0.0050
2009.00,0.0048
2008.00,0.0045
2007.00,0.0043
2006.00,0.0042
2005.00,0.0043
2004.00,0.0044
2003.00,0.0044
2002.00,0.0043
2001.00,0.0042
2000.00,0.0042
1999.00,0.0043
1998.00,0.0043
1997.00,0.0044
1996.00,0.0046
1995.00,0.0048
1994.00,0.0049
1993.00,0.0050
1992.00,0.0049
1991.00,0.0049
1990.00,0.0048
1989.00,0.0048
1988.00,0.0049
1987.00,0.0050
1986.00,0.0051
1985.00,0.0052
1984.00,0.0054
1983.00,0.0057
1982.00,0.0060
1981.00,0.0060
1980.00,0.0058
1979.00,0.0053
1978.00,0.0048
1977.00,0.0045
1976.00,0.0044
1975.00,0.0043
1974.00,0.0041
1973.00,0.0038
1972.00,0.0037
1971.00,0.0037
1970.00,0.0037
1969.00,0.0038
1968.00,0.0040
1967.00,0.0041
1966.00,0.0042
1965.00,0.0042
1964.00,0.0042
1963.00,0.0041
1962.00,0.0039
1961.00,0.0037
1960.00,0.0035
1959.00,0.0035
1958.00,0.0036
1957.00,0.0038
1956.00,0.0040
1955.00,0.0042
1954.00,0.0042
1953.00,0.0043
1952.00,0.0043
1951.00,0.0042
1950.00,0.0041
1949.00,0.0040
1948.00,0.0040
1947.00,0.0041
1946.00,0.0041
1945.00,0.0040
1944.00,0.0040
1943.00,0.0040
1942.00,0.0040
1941.00,0.0041
1940.00,0.0041
1939.00,0.0041
1938.00,0.0041
1937.00,0.0040
1936.00,0.0041
1935.00,0.0041
1934.00,0.0041
1933.00,0.0041
1932.00,0.0040
1931.00,0.0040
1930.00,0.0040
1929.00,0.0040
1928.00,0.0040
1927.00,0.0040
1926.00,0.0040
1925.00,0.0040
1924.00,0.0041
1923.00,0.0041
1922.00,0.0042
1921.00,0.0043
1920.00,0.0044
1919.00,0.0044
1918.00,0.0044
1917.00,0.0043
1916.00,0.0042
1915.00,0.0042
1914.00,0.0042
1913.00,0.0042
1912.00,0.0043
1911.00,0.0043
1910.00,0.0043
1909.00,0.0043
1908.00,0.0043
1907.00,0.0043
1906.00,0.0042
1905.00,0.0042
1904.00,0.0042
1903.00,0.0042
1902.00,0.0042
1901.00,0.0043
1900.00,0.0043
1899.00,0.0043
1898.00,0.0043
1897.00,0.0043
1896.00,0.0042
1895.00,0.0042
1894.00,0.0042
1893.00,0.0042
1892.00,0.0042
1891.00,0.0042
1890.00,0.0042
1889.00,0.0042
1888.00,0.0042
1887.00,0.0043
1886.00,0.0043
1885.00,0.0042
1884.00,0.0042
1883.00,0.0042
1882.00,0.0042
1881.00,0.0042
1880.00,0.0042
1879.00,0.0042
1878.00,0.0042
1877.00,0.0042
1876.00,0.0043
1875.00,0.0043
1874.00,0.0043
1873.00,0.0043
1872.00,0.0043
1871.00,0.0043
1870.00,0.0043
1869.00,0.0043
1868.00,0.0043
1867.00,0.0043
1866.00,0.0043
1865.00,0.0043
1864.00,0.0043
1863.00,0.0043
1862.00,0.0042
1861.00,0.0042
1860.00,0.0042
1859.00,0.0042
1858.00,0.0042
1857.00,0.0042
1856.00,0.0042
1855.00,0.0042
1854.00,0.0042
1853.00,0.0042
1852.00,0.0042
1851.00,0.0042
1850.00,0.0042
1849.00,0.0042
1848.00,0.0042
1847.00,0.0043
1846.00,0.0042
1845.00,0.0042
1844.00,0.0042
1843.00,0.0043
1842.00,0.0042
1841.00,0.0042
1840.00,0.0042
1839.00,0.0042
1838.00,0.0042
1837.00,0.0042
1836.00,0.0042
1835.00,0.0042
1834.00,0.0042
1833.00,0.0041
1832.00,0.0042
1831.00,0.0042
1830.00,0.0042
1829.00,0.0042
1828.00,0.0042
1827.00,0.0042
1826.00,0.0042
1825.00,0.0042
1824.00,0.0042
1823.00,0.0042
1822.00,0.0042
1821.00,0.0042
1820.00,0.0041
1819.00,0.0040
1818.00,0.0039
1817.00,0.0038
1816.00,0.0038
1815.00,0.0039
1814.00,0.0039
1813.00,0.0040
1812.00,0.0040
1811.00,0.0041
1810.00,0.0041
1809.00,0.0040
1808.00,0.0040
1807.00,0.0040
1806.00,0.0040
1805.00,0.0040
1804.00,0.0040
1803.00,0.0040
1802.00,0.0040
1801.00,0.0040
1800.00,0.0041
1799.00,0.0041
1798.00,0.0041
1797.00,0.0041
1796.00,0.0041
1795.00,0.0041
1794.00,0.0040
1793.00,0.0040
1792.00,0.0040
1791.00,0.0040
1790.00,0.0041
1789.00,0.0041
1788.00,0.0040
1787.00,0.0040
1786.00,0.0040
1785.00,0.0040
1784.00,0.0040
1783.00,0.0040
1782.00,0.0040
1781.00,0.0040
1780.00,0.0040
1779.00,0.0040
1778.00,0.0040
1777.00,0.0040
1776.00,0.0040
1775.00,0.0041
1774.00,0.0041
1773.00,0.0040
1772.00,0.0040
1771.00,0.0041
1770.00,0.0041
1769.00,0.0041
1768.00,0.0041
1767.00,0.0041
1766.00,0.0040
1765.00,0.0040
1764.00,0.0041
1763.00,0.0041
1762.00,0.0041
1761.00,0.0041
1760.00,0.0041
1759.00,0.0041
1758.00,0.0041
1757.00,0.0041
1756.00,0.0041
1755.00,0.0042
1754.00,0.0042
1753.00,0.0042
1752.00,0.0042
1751.00,0.0042
1750.00,0.0042
1749.00,0.0042
1748.00,0.0043
1747.00,0.0043
1746.00,0.0043
1745.00,0.0044
1744.00,0.0044
1743.00,0.0044
1742.00,0.0044
1741.00,0.0044
1740.00,0.0044
1739.00,0.0044
1738.00,0.0044
1737.00,0.0045
1736.00,0.0045
1735.00,0.0045
1734.00,0.0045
1733.00,0.0046
1732.00,0.0047
1731.00,0.0048
1730.00,0.0048
1729.00,0.0048
1728.00,0.0049
1727.00,0.0049
1726.00,0.0050
1725.00,0.0050
1724.00,0.0052
1723.00,0.0053
1722.00,0.0054
1721.00,0.0055
1720.00,0.0057
1719.00,0.0059
1718.00,0.0060
1717.00,0.0062
1716.00,0.0065
1715.00,0.0067
1714.00,0.0069
1713.00,0.0072
1712.00,0.0076
1711.00,0.0080
1710.00,0.0085
1709.00,0.0091
1708.00,0.0097
1707.00,0.0105
1706.00,0.0114
1705.00,0.0124
1704.00,0.0136
1703.00,0.0148
1702.00,0.0161
1701.00,0.0177
1700.00,0.0197
1699.00,0.0219
1698.00,0.0239
1697.00,0.0262
1696.00,0.0288
1695.00,0.0315
1694.00,0.0342
1693.00,0.0369
1692.00,0.0397
1691.00,0.0427
1690.00,0.0457
1689.00,0.0488
1688.00,0.0519
1687.00,0.0550
1686.00,0.0580
1685.00,0.0610
1684.00,0.0639
1683.00,0.0667
1682.00,0.0694
1681.00,0.0722
1680.00,0.0751
1679.00,0.0780
1678.00,0.0806
1677.00,0.0832
1676.00,0.0854
1675.00,0.0872
1674.00,0.0889
1673.00,0.0909
1672.00,0.0931
1671.00,0.0949
1670.00,0.0960
1669.00,0.0967
1668.00,0.0975
1667.00,0.0987
1666.00,0.1003
1665.00,0.1018
1664.00,0.1030
1663.00,0.1035
1662.00,0.1036
1661.00,0.1039
1660.00,0.1046
1659.00,0.1054
1658.00,0.1063
1657.00,0.1073
1656.00,0.1087
1655.00,0.1095
1654.00,0.1082
1653.00,0.1043
1652.00,0.1008
1651.00,0.0997
1650.00,0.1000
1649.00,0.1001
1648.00,0.0988
1647.00,0.0956
1646.00,0.0915
1645.00,0.0881
1644.00,0.0855
1643.00,0.0833
1642.00,0.0811
1641.00,0.0785
1640.00,0.0759
1639.00,0.0736
1638.00,0.0713
1637.00,0.0685
1636.00,0.0648
1635.00,0.0610
1634.00,0.0580
1633.00,0.0559
1632.00,0.0544
1631.00,0.0528
1630.00,0.0511
1629.00,0.0492
1628.00,0.0473
1627.00,0.0456
1626.00,0.0441
1625.00,0.0427
1624.00,0.0412
1623.00,0.0396
1622.00,0.0382
1621.00,0.0370
1620.00,0.0362
1619.00,0.0353
1618.00,0.0342
1617.00,0.0329
1616.00,0.0315
1615.00,0.0304
1614.00,0.0296
1613.00,0.0289
1612.00,0.0281
1611.00,0.0273
1610.00,0.0265
1609.00,0.0257
1608.00,0.0250
1607.00,0.0242
1606.00,0.0236
1605.00,0.0230
1604.00,0.0224
1603.00,0.0218
1602.00,0.0213
1601.00,0.0207
1600.00,0.0202
1599.00,0.0198
1598.00,0.0193
1597.00,0.0190
1596.00,0.0186
1595.00,0.0182
1594.00,0.0179
1593.00,0.0175
1592.00,0.0172
1591.00,0.0168
1590.00,0.0165
1589.00,0.0162
1588.00,0.0159
1587.00,0.0156
1586.00,0.0154
1585.00,0.0151
1584.00,0.0149
1583.00,0.0146
1582.00,0.0144
1581.00,0.0142
1580.00,0.0140
1579.00,0.0139
1578.00,0.0137
1577.00,0.0136
1576.00,0.0133
1575.00,0.0132
1574.00,0.0131
1573.00,0.0130
1572.00,0.0128
1571.00,0.0127
1570.00,0.0125
1569.00,0.0124
1568.00,0.0123
1567.00,0.0122
1566.00,0.0122
1565.00,0.0121
1564.00,0.0120
1563.00,0.0119
1562.00,0.0118
1561.00,0.0117
1560.00,0.0116
1559.00,0.0114
1558.00,0.0114
1557.00,0.0113
1556.00,0.0113
1555.00,0.0112
1554.00,0.0112
1553.00,0.0111
1552.00,0.0110
1551.00,0.0109
1550.00,0.0108
1549.00,0.0107
1548.00,0.0107
1547.00,0.0106
1546.00,0.0105
1545.00,0.0105
1544.00,0.0104
1543.00,0.0104
1542.00,0.0103
1541.00,0.0103
1540.00,0.0103
1539.00,0.0102
1538.00,0.0101
1537.00,0.0101
1536.00,0.0101
1535.00,0.0100
1534.00,0.0099
1533.00,0.0099
1532.00,0.0099
1531.00,0.0099
1530.00,0.0099
1529.00,0.0099
1528.00,0.0099
1527.00,0.0099
1526.00,0.0098
1525.00,0.0098
1524.00,0.0098
1523.00,0.0098
1522.00,0.0098
1521.00,0.0098
1520.00,0.0098
1519.00,0.0099
1518.00,0.0099
1517.00,0.0099
1516.00,0.0099
1515.00,0.0100
1514.00,0.0100
1513.00,0.0102
1512.00,0.0103
1511.00,0.0106
1510.00,0.0109
1509.00,0.0112
1508.00,0.0116
1507.00,0.0122
1506.00,0.0128
1505.00,0.0135
1504.00,0.0142
1503.00,0.0150
1502.00,0.0159
1501.00,0.0169
1500.00,0.0179
1499.00,0.0190
1498.00,0.0200
1497.00,0.0210
1496.00,0.0218
1495.00,0.0224
1494.00,0.0229
1493.00,0.0232
1492.00,0.0232
1491.00,0.0229
1490.00,0.0223
1489.00,0.0216
1488.00,0.0206
1487.00,0.0197
1486.00,0.0187
1485.00,0.0178
1484.00,0.0170
1483.00,0.0163
1482.00,0.0156
1481.00,0.0151
1480.00,0.0147
1479.00,0.0145
1478.00,0.0145
1477.00,0.0146
1476.00,0.0150
1475.00,0.0154
1474.00,0.0161
1473.00,0.0171
1472.00,0.0183
1471.00,0.0198
1470.00,0.0214
1469.00,0.0232
1468.00,0.0253
1467.00,0.0276
1466.00,0.0300
1465.00,0.0326
1464.00,0.0350
1463.00,0.0370
1462.00,0.0386
1461.00,0.0397
1460.00,0.0404
1459.00,0.0404
1458.00,0.0393
1457.00,0.0372
1456.00,0.0348
1455.00,0.0329
1454.00,0.0316
1453.00,0.0306
1452.00,0.0297
1451.00,0.0290
1450.00,0.0286
1449.00,0.0286
1448.00,0.0290
1447.00,0.0297
1446.00,0.0308
1445.00,0.0322
1444.00,0.0339
1443.00,0.0358
1442.00,0.0378
1441.00,0.0399
1440.00,0.0421
1439.00,0.0441
1438.00,0.0461
1437.00,0.0478
1436.00,0.0493
1435.00,0.0506
1434.00,0.0518
1433.00,0.0529
1432.00,0.0539
1431.00,0.0548
1430.00,0.0557
1429.00,0.0569
1428.00,0.0584
1427.00,0.0603
1426.00,0.0623
1425.00,0.0645
1424.00,0.0666
1423.00,0.0682
1422.00,0.0695
1421.00,0.0700
1420.00,0.0694
1419.00,0.0672
1418.00,0.0642
1417.00,0.0611
1416.00,0.0579
1415.00,0.0544
1414.00,0.0507
1413.00,0.0471
1412.00,0.0435
1411.00,0.0401
1410.00,0.0371
1409.00,0.0344
1408.00,0.0321
1407.00,0.0301
1406.00,0.0283
1405.00,0.0266
1404.00,0.0251
1403.00,0.0239
1402.00,0.0229
1401.00,0.0222
1400.00,0.0214
1399.00,0.0207
1398.00,0.0201
1397.00,0.0197
1396.00,0.0194
1395.00,0.0190
1394.00,0.0188
1393.00,0.0187
1392.00,0.0186
1391.00,0.0187
1390.00,0.0188
1389.00,0.0191
1388.00,0.0193
1387.00,0.0197
1386.00,0.0202
1385.00,0.0208
1384.00,0.0214
1383.00,0.0220
1382.00,0.0227
1381.00,0.0233
1380.00,0.0240
1379.00,0.0246
1378.00,0.0252
1377.00,0.0258
1376.00,0.0262
1375.00,0.0266
1374.00,0.0268
1373.00,0.0269
1372.00,0.0269
1371.00,0.0269
1370.00,0.0267
1369.00,0.0265
1368.00,0.0261
1367.00,0.0257
1366.00,0.0252
1365.00,0.0247
1364.00,0.0241
1363.00,0.0234
1362.00,0.0227
1361.00,0.0219
1360.00,0.0212
1359.00,0.0205
1358.00,0.0199
1357.00,0.0193
1356.00,0.0188
1355.00,0.0183
1354.00,0.0178
1353.00,0.0175
1352.00,0.0171
1351.00,0.0167
1350.00,0.0164
1349.00,0.0161
1348.00,0.0159
1347.00,0.0156
1346.00,0.0154
1345.00,0.0153
1344.00,0.0152
1343.00,0.0151
1342.00,0.0150
1341.00,0.0150
1340.00,0.0151
1339.00,0.0151
1338.00,0.0152
1337.00,0.0153
1336.00,0.0155
1335.00,0.0156
1334.00,0.0158
1333.00,0.0161
1332.00,0.0164
1331.00,0.0168
1330.00,0.0172
1329.00,0.0178
1328.00,0.0184
1327.00,0.0191
1326.00,0.0198
1325.00,0.0207
1324.00,0.0216
1323.00,0.0225
1322.00,0.0235
1321.00,0.0244
1320.00,0.0253
1319.00,0.0261
1318.00,0.0267
1317.00,0.0272
1316.00,0.0274
1315.00,0.0275
1314.00,0.0274
1313.00,0.0271
1312.00,0.0267
1311.00,0.0261
1310.00,0.0256
1309.00,0.0251
1308.00,0.0247
1307.00,0.0243
1306.00,0.0241
1305.00,0.0242
1304.00,0.0244
1303.00,0.0249
1302.00,0.0257
1301.00,0.0268
1300.00,0.0283
1299.00,0.0302
1298.00,0.0325
1297.00,0.0352
1296.00,0.0385
1295.00,0.0421
1294.00,0.0460
1293.00,0.0502
1292.00,0.0544
1291.00,0.0585
1290.00,0.0625
1289.00,0.0660
1288.00,0.0691
1287.00,0.0715
1286.00,0.0732
1285.00,0.0741
1284.00,0.0743
1283.00,0.0738
1282.00,0.0728
1281.00,0.0715
1280.00,0.0703
1279.00,0.0692
1278.00,0.0685
1277.00,0.0683
1276.00,0.0684
1275.00,0.0690
1274.00,0.0697
1273.00,0.0705
1272.00,0.0712
1271.00,0.0717
1270.00,0.0718
1269.00,0.0714
1268.00,0.0707
1267.00,0.0694
1266.00,0.0678
1265.00,0.0658
1264.00,0.0636
1263.00,0.0612
1262.00,0.0587
1261.00,0.0563
1260.00,0.0538
1259.00,0.0515
1258.00,0.0493
1257.00,0.0472
1256.00,0.0454
1255.00,0.0436
1254.00,0.0421
1253.00,0.0407
1252.00,0.0394
1251.00,0.0383
1250.00,0.0373
1249.00,0.0365
1248.00,0.0358
1247.00,0.0352
1246.00,0.0348
1245.00,0.0344
1244.00,0.0342
1243.00,0.0340
1242.00,0.0339
1241.00,0.0339
1240.00,0.0341
1239.00,0.0343
1238.00,0.0346
1237.00,0.0349
1236.00,0.0354
1235.00,0.0358
1234.00,0.0362
1233.00,0.0366
1232.00,0.0370
1231.00,0.0374
1230.00,0.0376
1229.00,0.0379
1228.00,0.0380
1227.00,0.0380
1226.00,0.0380
1225.00,0.0378
1224.00,0.0376
1223.00,0.0374
1222.00,0.0372
1221.00,0.0371
1220.00,0.0368
1219.00,0.0366
1218.00,0.0363
1217.00,0.0360
1216.00,0.0355
1215.00,0.0350
1214.00,0.0345
1213.00,0.0340
1212.00,0.0334
1211.00,0.0329
1210.00,0.0323
1209.00,0.0317
1208.00,0.0312
1207.00,0.0306
1206.00,0.0302
1205.00,0.0297
1204.00,0.0293
1203.00,0.0288
1202.00,0.0284
1201.00,0.0281
1200.00,0.0277
1199.00,0.0273
1198.00,0.0270
1197.00,0.0267
1196.00,0.0264
1195.00,0.0262
1194.00,0.0259
1193.00,0.0256
1192.00,0.0254
1191.00,0.0251
1190.00,0.0249
1189.00,0.0248
1188.00,0.0246
1187.00,0.0245
1186.00,0.0244
1185.00,0.0244
1184.00,0.0243
1183.00,0.0243
1182.00,0.0243
1181.00,0.0244
1180.00,0.0244
1179.00,0.0246
1178.00,0.0247
1177.00,0.0250
1176.00,0.0253
1175.00,0.0256
1174.00,0.0260
1173.00,0.0264
1172.00,0.0268
1171.00,0.0271
1170.00,0.0274
1169.00,0.0277
1168.00,0.0278
1167.00,0.0278
1166.00,0.0278
1165.00,0.0276
1164.00,0.0274
1163.00,0.0270
1162.00,0.0267
1161.00,0.0263
1160.00,0.0258
1159.00,0.0254
1158.00,0.0250
1157.00,0.0246
1156.00,0.0242
1155.00,0.0238
1154.00,0.0234
1153.00,0.0230
1152.00,0.0227
1151.00,0.0223
1150.00,0.0220
1149.00,0.0218
1148.00,0.0215
1147.00,0.0212
1146.00,0.0209
1145.00,0.0206
1144.00,0.0203
1143.00,0.0199
1142.00,0.0196
1141.00,0.0193
1140.00,0.0190
1139.00,0.0188
1138.00,0.0185
1137.00,0.0183
1136.00,0.0181
1135.00,0.0180
1134.00,0.0178
1133.00,0.0178
1132.00,0.0177
1131.00,0.0177
1130.00,0.0177
1129.00,0.0177
1128.00,0.0176
1127.00,0.0176
1126.00,0.0176
1125.00,0.0176
1124.00,0.0177
1123.00,0.0177
1122.00,0.0177
1121.00,0.0177
1120.00,0.0177
1119.00,0.0177
1118.00,0.0177
1117.00,0.0177
1116.00,0.0178
1115.00,0.0178
1114.00,0.0178
1113.00,0.0178
1112.00,0.0178
1111.00,0.0178
1110.00,0.0178
1109.00,0.0178
1108.00,0.0178
1107.00,0.0178
1106.00,0.0178
1105.00,0.0178
1104.00,0.0178
1103.00,0.0178
1102.00,0.0178
1101.00,0.0178
1100.00,0.0178
1099.00,0.0177
1098.00,0.0178
1097.00,0.0178
1096.00,0.0178
1095.00,0.0177
1094.00,0.0177
1093.00,0.0177
1092.00,0.0177
1091.00,0.0177
1090.00,0.0177
1089.00,0.0177
1088.00,0.0177
1087.00,0.0177
1086.00,0.0177
1085.00,0.0177
1084.00,0.0177
1083.00,0.0177
1082.00,0.0177
1081.00,0.0178
1080.00,0.0179
1079.00,0.0181
1078.00,0.0182
1077.00,0.0184
1076.00,0.0186
1075.00,0.0187
1074.00,0.0187
1073.00,0.0187
1072.00,0.0186
1071.00,0.0185
1070.00,0.0183
1069.00,0.0181
1068.00,0.0178
1067.00,0.0176
1066.00,0.0174
1065.00,0.0172
1064.00,0.0171
1063.00,0.0170
1062.00,0.0169
1061.00,0.0168
1060.00,0.0168
1059.00,0.0167
1058.00,0.0167
1057.00,0.0166
1056.00,0.0165
1055.00,0.0165
1054.00,0.0164
1053.00,0.0164
1052.00,0.0164
1051.00,0.0164
1050.00,0.0164
1049.00,0.0164
1048.00,0.0164
1047.00,0.0163
1046.00,0.0163
1045.00,0.0163
1044.00,0.0163
1043.00,0.0163
1042.00,0.0163
1041.00,0.0163
1040.00,0.0163
1039.00,0.0164
1038.00,0.0164
1037.00,0.0164
1036.00,0.0165
1035.00,0.0165
1034.00,0.0166
1033.00,0.0166
1032.00,0.0167
1031.00,0.0168
1030.00,0.0169
1029.00,0.0171
1028.00,0.0173
1027.00,0.0175
1026.00,0.0178
1025.00,0.0181
1024.00,0.0184
1023.00,0.0188
1022.00,0.0192
1021.00,0.0195
1020.00,0.0199
1019.00,0.0201
1018.00,0.0203
1017.00,0.0203
1016.00,0.0202
1015.00,0.0200
1014.00,0.0197
1013.00,0.0192
1012.00,0.0187
1011.00,0.0183
1010.00,0.0179
1009.00,0.0177
1008.00,0.0175
1007.00,0.0174
1006.00,0.0174
1005.00,0.0176
1004.00,0.0179
1003.00,0.0181
1002.00,0.0183
1001.00,0.0184
1000.00,0.0183
999.00,0.0182
998.00,0.0179
997.00,0.0176
996.00,0.0173
995.00,0.0170
994.00,0.0167
993.00,0.0164
992.00,0.0161
991.00,0.0159
990.00,0.0157
989.00,0.0155
988.00,0.0154
987.00,0.0153
986.00,0.0153
985.00,0.0152
984.00,0.0150
983.00,0.0149
982.00,0.0148
981.00,0.0147
980.00,0.0146
979.00,0.0145
978.00,0.0144
977.00,0.0143
976.00,0.0143
975.00,0.0142
974.00,0.0141
973.00,0.0140
972.00,0.0140
971.00,0.0139
970.00,0.0139
969.00,0.0138
968.00,0.0137
967.00,0.0136
966.00,0.0135
965.00,0.0134
964.00,0.0134
963.00,0.0134
962.00,0.0134
961.00,0.0134
960.00,0.0134
959.00,0.0134
958.00,0.0134
957.00,0.0133
956.00,0.0133
955.00,0.0133
954.00,0.0133
953.00,0.0133
952.00,0.0132
951.00,0.0132
950.00,0.0132
949.00,0.0132
948.00,0.0132
947.00,0.0132
946.00,0.0132
945.00,0.0133
944.00,0.0134
943.00,0.0135
942.00,0.0137
941.00,0.0139
940.00,0.0143
939.00,0.0147
938.00,0.0151
937.00,0.0156
936.00,0.0160
935.00,0.0165
934.00,0.0168
933.00,0.0170
932.00,0.0171
931.00,0.0169
930.00,0.0167
929.00,0.0164
928.00,0.0162
927.00,0.0159
926.00,0.0157
925.00,0.0155
924.00,0.0154
923.00,0.0152
922.00,0.0151
921.00,0.0150
920.00,0.0148
919.00,0.0147
918.00,0.0146
917.00,0.0145
916.00,0.0145
915.00,0.0144
914.00,0.0143
913.00,0.0143
912.00,0.0143
911.00,0.0143
910.00,0.0143
909.00,0.0143
908.00,0.0144
907.00,0.0144
906.00,0.0145
905.00,0.0146
904.00,0.0148
903.00,0.0150
902.00,0.0152
901.00,0.0154
900.00,0.0156
899.00,0.0157
898.00,0.0158
897.00,0.0159
896.00,0.0160
895.00,0.0160
894.00,0.0159
893.00,0.0158
892.00,0.0157
891.00,0.0155
890.00,0.0153
889.00,0.0151
888.00,0.0148
887.00,0.0146
886.00,0.0144
885.00,0.0143
884.00,0.0141
883.00,0.0140
882.00,0.0139
881.00,0.0138
880.00,0.0137
879.00,0.0137
878.00,0.0136
877.00,0.0136
876.00,0.0136
875.00,0.0136
874.00,0.0137
873.00,0.0137
872.00,0.0137
871.00,0.0137
870.00,0.0138
869.00,0.0138
868.00,0.0140
867.00,0.0141
866.00,0.0143
865.00,0.0145
864.00,0.0147
863.00,0.0150
862.00,0.0153
861.00,0.0157
860.00,0.0161
859.00,0.0166
858.00,0.0171
857.00,0.0176
856.00,0.0181
855.00,0.0187
854.00,0.0193
853.00,0.0199
852.00,0.0205
851.00,0.0211
850.00,0.0216
849.00,0.0222
848.00,0.0226
847.00,0.0230
846.00,0.0232
845.00,0.0234
844.00,0.0235
843.00,0.0234
842.00,0.0233
841.00,0.0231
840.00,0.0228
839.00,0.0224
838.00,0.0220
837.00,0.0216
836.00,0.0212
835.00,0.0208
834.00,0.0203
833.00,0.0199
832.00,0.0194
831.00,0.0190
830.00,0.0186
829.00,0.0181
828.00,0.0177
827.00,0.0173
826.00,0.0169
825.00,0.0165
824.00,0.0162
823.00,0.0159
822.00,0.0156
821.00,0.0153
820.00,0.0151
819.00,0.0149
818.00,0.0147
817.00,0.0145
816.00,0.0144
815.00,0.0142
814.00,0.0141
813.00,0.0140
812.00,0.0139
811.00,0.0138
810.00,0.0137
809.00,0.0135
808.00,0.0134
807.00,0.0133
806.00,0.0132
805.00,0.0131
804.00,0.0130
803.00,0.0130
802.00,0.0129
801.00,0.0129
800.00,0.0129
799.00,0.0129
798.00,0.0129
797.00,0.0129
796.00,0.0129
795.00,0.0129
794.00,0.0129
793.00,0.0129
792.00,0.0129
791.00,0.0130
790.00,0.0130
789.00,0.0131
788.00,0.0132
787.00,0.0132
786.00,0.0133
785.00,0.0133
784.00,0.0134
783.00,0.0134
782.00,0.0135
781.00,0.0136
780.00,0.0136
779.00,0.0137
778.00,0.0138
777.00,0.0139
776.00,0.0140
775.00,0.0141
774.00,0.0142
773.00,0.0143
772.00,0.0145
771.00,0.0146
770.00,0.0148
769.00,0.0149
768.00,0.0150
767.00,0.0151
766.00,0.0153
765.00,0.0155
764.00,0.0157
763.00,0.0159
762.00,0.0161
761.00,0.0164
760.00,0.0166
759.00,0.0169
758.00,0.0172
757.00,0.0175
756.00,0.0179
755.00,0.0182
754.00,0.0185
753.00,0.0189
752.00,0.0192
751.00,0.0196
750.00,0.0199
749.00,0.0203
748.00,0.0206
747.00,0.0210
746.00,0.0214
745.00,0.0218
744.00,0.0221
743.00,0.0224
742.00,0.0227
741.00,0.0230
740.00,0.0233
739.00,0.0236
738.00,0.0240
737.00,0.0243
736.00,0.0246
735.00,0.0248
734.00,0.0249
733.00,0.0249
732.00,0.0248
731.00,0.0244
730.00,0.0240
729.00,0.0235
728.00,0.0230
727.00,0.0225
726.00,0.0221
725.00,0.0216
724.00,0.0212
723.00,0.0208
722.00,0.0205
721.00,0.0201
720.00,0.0198
719.00,0.0196
718.00,0.0195
717.00,0.0193
716.00,0.0192
715.00,0.0190
714.00,0.0189
713.00,0.0188
712.00,0.0188
711.00,0.0187
710.00,0.0187
709.00,0.0187
708.00,0.0187
707.00,0.0188
706.00,0.0189
705.00,0.0189
704.00,0.0190
703.00,0.0191
702.00,0.0191
701.00,0.0192
700.00,0.0193
699.00,0.0195
698.00,0.0196
697.00,0.0198
696.00,0.0201
695.00,0.0203
694.00,0.0205
693.00,0.0207
692.00,0.0209
691.00,0.0211
690.00,0.0213
689.00,0.0216
688.00,0.0219
687.00,0.0222
686.00,0.0224
685.00,0.0227
684.00,0.0230
683.00,0.0233
682.00,0.0237
681.00,0.0240
680.00,0.0244
679.00,0.0247
678.00,0.0250
677.00,0.0254
676.00,0.0257
675.00,0.0261
674.00,0.0264
673.00,0.0268
672.00,0.0272
671.00,0.0277
670.00,0.0282
669.00,0.0290
668.00,0.0298
667.00,0.0305
666.00,0.0310
665.00,0.0314
664.00,0.0320
663.00,0.0327
662.00,0.0334
661.00,0.0341
660.00,0.0348
659.00,0.0356
658.00,0.0364
657.00,0.0372
656.00,0.0380
655.00,0.0388
654.00,0.0396
653.00,0.0403
652.00,0.0410
651.00,0.0414
650.00,0.0418
649.00,0.0420
648.00,0.0422
647.00,0.0423
646.00,0.0422
645.00,0.0421
644.00,0.0419
643.00,0.0415
642.00,0.0410
641.00,0.0404
640.00,0.0399
639.00,0.0393
638.00,0.0388
637.00,0.0383
636.00,0.0378
635.00,0.0373
634.00,0.0368
633.00,0.0363
632.00,0.0359
631.00,0.0356
630.00,0.0354
629.00,0.0352
628.00,0.0349
627.00,0.0346
626.00,0.0343
625.00,0.0340
624.00,0.0338
623.00,0.0336
622.00,0.0335
621.00,0.0335
620.00,0.0334
619.00,0.0333
618.00,0.0332
617.00,0.0332
616.00,0.0332
615.00,0.0332
614.00,0.0333
613.00,0.0334
612.00,0.0335
611.00,0.0335
610.00,0.0335
609.00,0.0336
608.00,0.0336
607.00,0.0337
606.00,0.0337
605.00,0.0338
604.00,0.0338
603.00,0.0339
602.00,0.0340
601.00,0.0342
600.00,0.0344
599.00,0.0346
598.00,0.0348
597.00,0.0350
596.00,0.0352
595.00,0.0355
594.00,0.0359
593.00,0.0362
592.00,0.0366
591.00,0.0369
590.00,0.0373
589.00,0.0378
588.00,0.0384
587.00,0.0391
586.00,0.0399
585.00,0.0406
584.00,0.0413
583.00,0.0420
582.00,0.0427
581.00,0.0435
580.00,0.0444
579.00,0.0451
578.00,0.0458
577.00,0.0463
576.00,0.0468
575.00,0.0472
574.00,0.0475
573.00,0.0477
572.00,0.0478
571.00,0.0479
570.00,0.0479
569.00,0.0477
568.00,0.0476
567.00,0.0473
566.00,0.0469
565.00,0.0466
564.00,0.0461
563.00,0.0455
562.00,0.0450
561.00,0.0445
560.00,0.0440
559.00,0.0435
558.00,0.0431
557.00,0.0427
556.00,0.0424
555.00,0.0421
554.00,0.0418
553.00,0.0415
552.00,0.0412
551.00,0.0411
550.00,0.0410
549.00,0.0409
548.00,0.0407
547.00,0.0405
546.00,0.0401
545.00,0.0398
544.00,0.0394
543.00,0.0390
542.00,0.0388
541.00,0.0386
540.00,0.0386
539.00,0.0387
538.00,0.0388
537.00,0.0387
536.00,0.0386
535.00,0.0384
534.00,0.0384
533.00,0.0383
532.00,0.0382
531.00,0.0381
530.00,0.0380
529.00,0.0380
528.00,0.0380
527.00,0.0380
526.00,0.0380
525.00,0.0380
524.00,0.0382
523.00,0.0383
522.00,0.0385
521.00,0.0387
520.00,0.0387
519.00,0.0387
518.00,0.0385
517.00,0.0384
516.00,0.0384
515.00,0.0385
514.00,0.0387
513.00,0.0389
512.00,0.0391
511.00,0.0391
510.00,0.0391
509.00,0.0391
508.00,0.0390
507.00,0.0388
506.00,0.0388
505.00,0.0390
504.00,0.0393
503.00,0.0395
502.00,0.0396
501.00,0.0395
500.00,0.0395
499.00,0.0395
498.00,0.0396
497.00,0.0396
496.00,0.0395
495.00,0.0395
494.00,0.0395
493.00,0.0397
492.00,0.0399
491.00,0.0400
490.00,0.0401
489.00,0.0401
488.00,0.0401
487.00,0.0401
486.00,0.0402
485.00,0.0402
484.00,0.0404
483.00,0.0406
482.00,0.0408
481.00,0.0409
480.00,0.0410
479.00,0.0412
478.00,0.0413
477.00,0.0414
476.00,0.0414
475.00,0.0414
474.00,0.0413
473.00,0.0415
472.00,0.0417
471.00,0.0419
470.00,0.0419
469.00,0.0417
468.00,0.0415
467.00,0.0414
466.00,0.0413
465.00,0.0413
464.00,0.0414
463.00,0.0414
462.00,0.0413
461.00,0.0412
460.00,0.0412
459.00,0.0413
458.00,0.0414
457.00,0.0414
456.00,0.0412
455.00,0.0409
454.00,0.0405
453.00,0.0402
452.00,0.0399
451.00,0.0399
450.00,0.0400
449.00,0.0401
448.00,0.0399
447.00,0.0396
446.00,0.0393
445.00,0.0389
444.00,0.0387
443.00,0.0384
442.00,0.0382
441.00,0.0381
440.00,0.0382
439.00,0.0384
438.00,0.0385
437.00,0.0385
436.00,0.0384
435.00,0.0383
434.00,0.0382
433.00,0.0381
432.00,0.0379
431.00,0.0376
430.00,0.0374
429.00,0.0373
428.00,0.0372
427.00,0.0370
426.00,0.0367
425.00,0.0362
424.00,0.0358
423.00,0.0355
422.00,0.0356
421.00,0.0360
420.00,0.0364
419.00,0.0367
418.00,0.0364
417.00,0.0358
416.00,0.0351
415.00,0.0345
414.00,0.0343
413.00,0.0344
412.00,0.0347
411.00,0.0347
410.00,0.0344
409.00,0.0342
408.00,0.0340
407.00,0.0340
406.00,0.0340
405.00,0.0342
404.00,0.0345
403.00,0.0347
402.00,0.0350
401.00,0.0350
400.00,0.0348
