Created as New Dataset,Sample 864 By YargerLab Date Monday, July 21 2025
cm-1,A
4000.00,0.0046
3999.00,0.0045
3998.00,0.0045
3997.00,0.0045
3996.00,0.0045
3995.00,0.0046
3994.00,0.0046
3993.00,0.0046
3992.00,0.0046
3991.00,0.0046
3990.00,0.0046
3989.00,0.0046
3988.00,0.0046
3987.00,0.0045
3986.00,0.0045
3985.00,0.0045
3984.00,0.0045
3983.00,0.0045
3982.00,0.0045
3981.00,0.0045
3980.00,0.0045
3979.00,0.0045
3978.00,0.0045
3977.00,0.0045
3976.00,0.0045
3975.00,0.0045
3974.00,0.0045
3973.00,0.0045
3972.00,0.0045
3971.00,0.0045
3970.00,0.0045
3969.00,0.0045
3968.00,0.0045
3967.00,0.0045
3966.00,0.0045
3965.00,0.0045
3964.00,0.0045
3963.00,0.0045
3962.00,0.0045
3961.00,0.0045
3960.00,0.0045
3959.00,0.0045
3958.00,0.0045
3957.00,0.0045
3956.00,0.0045
3955.00,0.0045
3954.00,0.0045
3953.00,0.0046
3952.00,0.0046
3951.00,0.0045
3950.00,0.0045
3949.00,0.0045
3948.00,0.0045
3947.00,0.0045
3946.00,0.0045
3945.00,0.0045
3944.00,0.0045
3943.00,0.0045
3942.00,0.0045
3941.00,0.0045
3940.00,0.0045
3939.00,0.0045
3938.00,0.0045
3937.00,0.0045
3936.00,0.0046
3935.00,0.0046
3934.00,0.0046
3933.00,0.0046
3932.00,0.0046
3931.00,0.0046
3930.00,0.0046
3929.00,0.0046
3928.00,0.0046
3927.00,0.0046
3926.00,0.0045
3925.00,0.0045
3924.00,0.0045
3923.00,0.0045
3922.00,0.0045
3921.00,0.0045
3920.00,0.0045
3919.00,0.0045
3918.00,0.0044
3917.00,0.0044
3916.00,0.0045
3915.00,0.0045
3914.00,0.0045
3913.00,0.0045
3912.00,0.0045
3911.00,0.0045
3910.00,0.0045
3909.00,0.0045
3908.00,0.0045
3907.00,0.0046
3906.00,0.0046
3905.00,0.0046
3904.00,0.0045
3903.00,0.0045
3902.00,0.0045
3901.00,0.0045
3900.00,0.0044
3899.00,0.0045
3898.00,0.0045
3897.00,0.0045
3896.00,0.0045
3895.00,0.0045
3894.00,0.0045
3893.00,0.0045
3892.00,0.0045
3891.00,0.0046
3890.00,0.0046
3889.00,0.0046
3888.00,0.0045
3887.00,0.0045
3886.00,0.0045
3885.00,0.0045
3884.00,0.0045
3883.00,0.0045
3882.00,0.0045
3881.00,0.0045
3880.00,0.0046
3879.00,0.0046
3878.00,0.0046
3877.00,0.0046
3876.00,0.0045
3875.00,0.0045
3874.00,0.0045
3873.00,0.0046
3872.00,0.0046
3871.00,0.0045
3870.00,0.0045
3869.00,0.0045
3868.00,0.0045
3867.00,0.0045
3866.00,0.0045
3865.00,0.0045
3864.00,0.0045
3863.00,0.0045
3862.00,0.0045
3861.00,0.0045
3860.00,0.0045
3859.00,0.0045
3858.00,0.0045
3857.00,0.0046
3856.00,0.0046
3855.00,0.0046
3854.00,0.0046
3853.00,0.0046
3852.00,0.0046
3851.00,0.0045
3850.00,0.0045
3849.00,0.0045
3848.00,0.0045
3847.00,0.0045
3846.00,0.0045
3845.00,0.0045
3844.00,0.0045
3843.00,0.0046
3842.00,0.0046
3841.00,0.0046
3840.00,0.0046
3839.00,0.0046
3838.00,0.0046
3837.00,0.0046
3836.00,0.0046
3835.00,0.0046
3834.00,0.0046
3833.00,0.0046
3832.00,0.0046
3831.00,0.0046
3830.00,0.0046
3829.00,0.0046
3828.00,0.0046
3827.00,0.0046
3826.00,0.0046
3825.00,0.0046
3824.00,0.0046
3823.00,0.0046
3822.00,0.0046
3821.00,0.0046
3820.00,0.0046
3819.00,0.0046
3818.00,0.0045
3817.00,0.0045
3816.00,0.0045
3815.00,0.0045
3814.00,0.0045
3813.00,0.0045
3812.00,0.0045
3811.00,0.0045
3810.00,0.0045
3809.00,0.0045
3808.00,0.0045
3807.00,0.0045
3806.00,0.0045
3805.00,0.0045
3804.00,0.0045
3803.00,0.0046
3802.00,0.0046
3801.00,0.0046
3800.00,0.0046
3799.00,0.0045
3798.00,0.0044
3797.00,0.0044
3796.00,0.0044
3795.00,0.0044
3794.00,0.0045
3793.00,0.0045
3792.00,0.0045
3791.00,0.0045
3790.00,0.0045
3789.00,0.0045
3788.00,0.0045
3787.00,0.0044
3786.00,0.0044
3785.00,0.0044
3784.00,0.0044
3783.00,0.0045
3782.00,0.0045
3781.00,0.0045
3780.00,0.0045
3779.00,0.0046
3778.00,0.0046
3777.00,0.0045
3776.00,0.0045
3775.00,0.0045
3774.00,0.0045
3773.00,0.0045
3772.00,0.0045
3771.00,0.0045
3770.00,0.0045
3769.00,0.0045
3768.00,0.0045
3767.00,0.0045
3766.00,0.0045
3765.00,0.0045
3764.00,0.0045
3763.00,0.0045
3762.00,0.0045
3761.00,0.0045
3760.00,0.0045
3759.00,0.0045
3758.00,0.0045
3757.00,0.0045
3756.00,0.0046
3755.00,0.0046
3754.00,0.0046
3753.00,0.0046
3752.00,0.0045
3751.00,0.0045
3750.00,0.0045
3749.00,0.0045
3748.00,0.0045
3747.00,0.0045
3746.00,0.0045
3745.00,0.0045
3744.00,0.0044
3743.00,0.0044
3742.00,0.0044
3741.00,0.0044
3740.00,0.0044
3739.00,0.0044
3738.00,0.0044
3737.00,0.0044
3736.00,0.0043
3735.00,0.0043
3734.00,0.0043
3733.00,0.0043
3732.00,0.0043
3731.00,0.0043
3730.00,0.0043
3729.00,0.0043
3728.00,0.0043
3727.00,0.0043
3726.00,0.0044
3725.00,0.0044
3724.00,0.0044
3723.00,0.0044
3722.00,0.0044
3721.00,0.0044
3720.00,0.0044
3719.00,0.0044
3718.00,0.0044
3717.00,0.0044
3716.00,0.0044
3715.00,0.0044
3714.00,0.0044
3713.00,0.0044
3712.00,0.0044
3711.00,0.0044
3710.00,0.0044
3709.00,0.0044
3708.00,0.0044
3707.00,0.0044
3706.00,0.0044
3705.00,0.0043
3704.00,0.0043
3703.00,0.0043
3702.00,0.0043
3701.00,0.0044
3700.00,0.0044
3699.00,0.0043
3698.00,0.0043
3697.00,0.0043
3696.00,0.0043
3695.00,0.0044
3694.00,0.0044
3693.00,0.0044
3692.00,0.0044
3691.00,0.0045
3690.00,0.0045
3689.00,0.0045
3688.00,0.0045
3687.00,0.0044
3686.00,0.0044
3685.00,0.0044
3684.00,0.0044
3683.00,0.0044
3682.00,0.0045
3681.00,0.0045
3680.00,0.0046
3679.00,0.0046
3678.00,0.0047
3677.00,0.0046
3676.00,0.0046
3675.00,0.0046
3674.00,0.0046
3673.00,0.0046
3672.00,0.0045
3671.00,0.0045
3670.00,0.0045
3669.00,0.0045
3668.00,0.0045
3667.00,0.0045
3666.00,0.0045
3665.00,0.0045
3664.00,0.0045
3663.00,0.0045
3662.00,0.0045
3661.00,0.0045
3660.00,0.0046
3659.00,0.0046
3658.00,0.0047
3657.00,0.0047
3656.00,0.0048
3655.00,0.0048
3654.00,0.0048
3653.00,0.0048
3652.00,0.0048
3651.00,0.0048
3650.00,0.0048
3649.00,0.0047
3648.00,0.0048
3647.00,0.0048
3646.00,0.0048
3645.00,0.0048
3644.00,0.0048
3643.00,0.0049
3642.00,0.0049
3641.00,0.0050
3640.00,0.0050
3639.00,0.0051
3638.00,0.0051
3637.00,0.0051
3636.00,0.0052
3635.00,0.0052
3634.00,0.0052
3633.00,0.0053
3632.00,0.0053
3631.00,0.0053
3630.00,0.0053
3629.00,0.0054
3628.00,0.0054
3627.00,0.0055
3626.00,0.0055
3625.00,0.0055
3624.00,0.0056
3623.00,0.0056
3622.00,0.0057
3621.00,0.0057
3620.00,0.0058
3619.00,0.0058
3618.00,0.0059
3617.00,0.0059
3616.00,0.0059
3615.00,0.0059
3614.00,0.0059
3613.00,0.0059
3612.00,0.0059
3611.00,0.0059
3610.00,0.0059
3609.00,0.0060
3608.00,0.0060
3607.00,0.0061
3606.00,0.0062
3605.00,0.0062
3604.00,0.0063
3603.00,0.0064
3602.00,0.0064
3601.00,0.0065
3600.00,0.0065
3599.00,0.0066
3598.00,0.0066
3597.00,0.0066
3596.00,0.0067
3595.00,0.0067
3594.00,0.0068
3593.00,0.0068
3592.00,0.0069
3591.00,0.0069
3590.00,0.0069
3589.00,0.0070
3588.00,0.0070
3587.00,0.0071
3586.00,0.0071
3585.00,0.0071
3584.00,0.0072
3583.00,0.0072
3582.00,0.0072
3581.00,0.0073
3580.00,0.0074
3579.00,0.0074
3578.00,0.0075
3577.00,0.0076
3576.00,0.0077
3575.00,0.0077
3574.00,0.0077
3573.00,0.0078
3572.00,0.0079
3571.00,0.0079
3570.00,0.0079
3569.00,0.0079
3568.00,0.0080
3567.00,0.0080
3566.00,0.0081
3565.00,0.0082
3564.00,0.0083
3563.00,0.0083
3562.00,0.0084
3561.00,0.0085
3560.00,0.0085
3559.00,0.0085
3558.00,0.0086
3557.00,0.0086
3556.00,0.0087
3555.00,0.0087
3554.00,0.0088
3553.00,0.0088
3552.00,0.0089
3551.00,0.0090
3550.00,0.0090
3549.00,0.0090
3548.00,0.0090
3547.00,0.0091
3546.00,0.0091
3545.00,0.0091
3544.00,0.0092
3543.00,0.0093
3542.00,0.0093
3541.00,0.0094
3540.00,0.0094
3539.00,0.0095
3538.00,0.0095
3537.00,0.0096
3536.00,0.0096
3535.00,0.0096
3534.00,0.0097
3533.00,0.0097
3532.00,0.0097
3531.00,0.0098
3530.00,0.0099
3529.00,0.0099
3528.00,0.0100
3527.00,0.0100
3526.00,0.0100
3525.00,0.0100
3524.00,0.0101
3523.00,0.0101
3522.00,0.0102
3521.00,0.0102
3520.00,0.0103
3519.00,0.0103
3518.00,0.0104
3517.00,0.0104
3516.00,0.0105
3515.00,0.0105
3514.00,0.0105
3513.00,0.0105
3512.00,0.0105
3511.00,0.0106
3510.00,0.0106
3509.00,0.0106
3508.00,0.0107
3507.00,0.0107
3506.00,0.0108
3505.00,0.0108
3504.00,0.0109
3503.00,0.0109
3502.00,0.0110
3501.00,0.0110
3500.00,0.0111
3499.00,0.0111
3498.00,0.0111
3497.00,0.0112
3496.00,0.0112
3495.00,0.0113
3494.00,0.0113
3493.00,0.0114
3492.00,0.0114
3491.00,0.0114
3490.00,0.0115
3489.00,0.0115
3488.00,0.0116
3487.00,0.0117
3486.00,0.0117
3485.00,0.0118
3484.00,0.0118
3483.00,0.0118
3482.00,0.0119
3481.00,0.0120
3480.00,0.0120
3479.00,0.0120
3478.00,0.0121
3477.00,0.0121
3476.00,0.0121
3475.00,0.0121
3474.00,0.0122
3473.00,0.0122
3472.00,0.0122
3471.00,0.0123
3470.00,0.0123
3469.00,0.0124
3468.00,0.0124
3467.00,0.0125
3466.00,0.0125
3465.00,0.0125
3464.00,0.0125
3463.00,0.0126
3462.00,0.0126
3461.00,0.0126
3460.00,0.0127
3459.00,0.0127
3458.00,0.0127
3457.00,0.0128
3456.00,0.0128
3455.00,0.0128
3454.00,0.0129
3453.00,0.0129
3452.00,0.0129
3451.00,0.0129
3450.00,0.0129
3449.00,0.0129
3448.00,0.0130
3447.00,0.0130
3446.00,0.0131
3445.00,0.0131
3444.00,0.0131
3443.00,0.0132
3442.00,0.0132
3441.00,0.0132
3440.00,0.0132
3439.00,0.0133
3438.00,0.0133
3437.00,0.0133
3436.00,0.0134
3435.00,0.0134
3434.00,0.0134
3433.00,0.0133
3432.00,0.0133
3431.00,0.0133
3430.00,0.0133
3429.00,0.0134
3428.00,0.0134
3427.00,0.0134
3426.00,0.0134
3425.00,0.0134
3424.00,0.0135
3423.00,0.0135
3422.00,0.0135
3421.00,0.0135
3420.00,0.0135
3419.00,0.0135
3418.00,0.0136
3417.00,0.0136
3416.00,0.0136
3415.00,0.0136
3414.00,0.0136
3413.00,0.0136
3412.00,0.0137
3411.00,0.0137
3410.00,0.0137
3409.00,0.0137
3408.00,0.0137
3407.00,0.0137
3406.00,0.0137
3405.00,0.0137
3404.00,0.0138
3403.00,0.0138
3402.00,0.0137
3401.00,0.0137
3400.00,0.0137
3399.00,0.0137
3398.00,0.0138
3397.00,0.0138
3396.00,0.0138
3395.00,0.0138
3394.00,0.0138
3393.00,0.0138
3392.00,0.0138
3391.00,0.0139
3390.00,0.0139
3389.00,0.0140
3388.00,0.0140
3387.00,0.0140
3386.00,0.0140
3385.00,0.0140
3384.00,0.0140
3383.00,0.0140
3382.00,0.0140
3381.00,0.0140
3380.00,0.0141
3379.00,0.0141
3378.00,0.0141
3377.00,0.0141
3376.00,0.0141
3375.00,0.0141
3374.00,0.0141
3373.00,0.0141
3372.00,0.0141
3371.00,0.0141
3370.00,0.0140
3369.00,0.0140
3368.00,0.0141
3367.00,0.0141
3366.00,0.0142
3365.00,0.0143
3364.00,0.0144
3363.00,0.0144
3362.00,0.0144
3361.00,0.0144
3360.00,0.0144
3359.00,0.0144
3358.00,0.0144
3357.00,0.0144
3356.00,0.0145
3355.00,0.0145
3354.00,0.0144
3353.00,0.0144
3352.00,0.0144
3351.00,0.0144
3350.00,0.0144
3349.00,0.0145
3348.00,0.0146
3347.00,0.0146
3346.00,0.0146
3345.00,0.0146
3344.00,0.0146
3343.00,0.0145
3342.00,0.0145
3341.00,0.0145
3340.00,0.0145
3339.00,0.0144
3338.00,0.0145
3337.00,0.0145
3336.00,0.0146
3335.00,0.0147
3334.00,0.0147
3333.00,0.0147
3332.00,0.0147
3331.00,0.0147
3330.00,0.0147
3329.00,0.0147
3328.00,0.0147
3327.00,0.0147
3326.00,0.0146
3325.00,0.0146
3324.00,0.0147
3323.00,0.0147
3322.00,0.0148
3321.00,0.0148
3320.00,0.0148
3319.00,0.0149
3318.00,0.0149
3317.00,0.0148
3316.00,0.0148
3315.00,0.0148
3314.00,0.0148
3313.00,0.0148
3312.00,0.0148
3311.00,0.0147
3310.00,0.0146
3309.00,0.0145
3308.00,0.0144
3307.00,0.0144
3306.00,0.0144
3305.00,0.0145
3304.00,0.0146
3303.00,0.0147
3302.00,0.0148
3301.00,0.0149
3300.00,0.0149
3299.00,0.0149
3298.00,0.0148
3297.00,0.0148
3296.00,0.0147
3295.00,0.0146
3294.00,0.0146
3293.00,0.0146
3292.00,0.0147
3291.00,0.0147
3290.00,0.0148
3289.00,0.0149
3288.00,0.0149
3287.00,0.0149
3286.00,0.0149
3285.00,0.0149
3284.00,0.0149
3283.00,0.0148
3282.00,0.0148
3281.00,0.0148
3280.00,0.0148
3279.00,0.0148
3278.00,0.0148
3277.00,0.0148
3276.00,0.0147
3275.00,0.0147
3274.00,0.0146
3273.00,0.0146
3272.00,0.0146
3271.00,0.0145
3270.00,0.0145
3269.00,0.0146
3268.00,0.0146
3267.00,0.0146
3266.00,0.0146
3265.00,0.0146
3264.00,0.0146
3263.00,0.0146
3262.00,0.0146
3261.00,0.0146
3260.00,0.0146
3259.00,0.0146
3258.00,0.0146
3257.00,0.0146
3256.00,0.0146
3255.00,0.0145
3254.00,0.0145
3253.00,0.0145
3252.00,0.0145
3251.00,0.0144
3250.00,0.0144
3249.00,0.0144
3248.00,0.0143
3247.00,0.0143
3246.00,0.0143
3245.00,0.0143
3244.00,0.0144
3243.00,0.0144
3242.00,0.0144
3241.00,0.0144
3240.00,0.0144
3239.00,0.0143
3238.00,0.0143
3237.00,0.0143
3236.00,0.0142
3235.00,0.0142
3234.00,0.0142
3233.00,0.0142
3232.00,0.0141
3231.00,0.0141
3230.00,0.0141
3229.00,0.0141
3228.00,0.0141
3227.00,0.0141
3226.00,0.0141
3225.00,0.0141
3224.00,0.0141
3223.00,0.0141
3222.00,0.0140
3221.00,0.0140
3220.00,0.0140
3219.00,0.0139
3218.00,0.0139
3217.00,0.0139
3216.00,0.0138
3215.00,0.0138
3214.00,0.0138
3213.00,0.0138
3212.00,0.0138
3211.00,0.0138
3210.00,0.0138
3209.00,0.0137
3208.00,0.0137
3207.00,0.0137
3206.00,0.0137
3205.00,0.0137
3204.00,0.0137
3203.00,0.0137
3202.00,0.0137
3201.00,0.0137
3200.00,0.0137
3199.00,0.0136
3198.00,0.0136
3197.00,0.0136
3196.00,0.0136
3195.00,0.0135
3194.00,0.0135
3193.00,0.0135
3192.00,0.0135
3191.00,0.0134
3190.00,0.0134
3189.00,0.0134
3188.00,0.0134
3187.00,0.0134
3186.00,0.0133
3185.00,0.0133
3184.00,0.0133
3183.00,0.0132
3182.00,0.0132
3181.00,0.0131
3180.00,0.0131
3179.00,0.0131
3178.00,0.0131
3177.00,0.0131
3176.00,0.0131
3175.00,0.0130
3174.00,0.0130
3173.00,0.0129
3172.00,0.0129
3171.00,0.0129
3170.00,0.0128
3169.00,0.0128
3168.00,0.0128
3167.00,0.0127
3166.00,0.0127
3165.00,0.0127
3164.00,0.0126
3163.00,0.0126
3162.00,0.0126
3161.00,0.0125
3160.00,0.0125
3159.00,0.0125
3158.00,0.0124
3157.00,0.0124
3156.00,0.0123
3155.00,0.0123
3154.00,0.0123
3153.00,0.0122
3152.00,0.0122
3151.00,0.0121
3150.00,0.0121
3149.00,0.0121
3148.00,0.0120
3147.00,0.0120
3146.00,0.0120
3145.00,0.0120
3144.00,0.0119
3143.00,0.0119
3142.00,0.0119
3141.00,0.0118
3140.00,0.0118
3139.00,0.0117
3138.00,0.0117
3137.00,0.0117
3136.00,0.0117
3135.00,0.0117
3134.00,0.0116
3133.00,0.0116
3132.00,0.0116
3131.00,0.0115
3130.00,0.0115
3129.00,0.0114
3128.00,0.0114
3127.00,0.0114
3126.00,0.0114
3125.00,0.0114
3124.00,0.0114
3123.00,0.0113
3122.00,0.0113
3121.00,0.0113
3120.00,0.0113
3119.00,0.0113
3118.00,0.0112
3117.00,0.0112
3116.00,0.0111
3115.00,0.0111
3114.00,0.0110
3113.00,0.0110
3112.00,0.0110
3111.00,0.0109
3110.00,0.0109
3109.00,0.0109
3108.00,0.0109
3107.00,0.0108
3106.00,0.0108
3105.00,0.0108
3104.00,0.0107
3103.00,0.0107
3102.00,0.0106
3101.00,0.0106
3100.00,0.0105
3099.00,0.0105
3098.00,0.0105
3097.00,0.0104
3096.00,0.0104
3095.00,0.0104
3094.00,0.0104
3093.00,0.0103
3092.00,0.0103
3091.00,0.0103
3090.00,0.0103
3089.00,0.0103
3088.00,0.0103
3087.00,0.0102
3086.00,0.0102
3085.00,0.0102
3084.00,0.0101
3083.00,0.0101
3082.00,0.0101
3081.00,0.0101
3080.00,0.0101
3079.00,0.0101
3078.00,0.0101
3077.00,0.0101
3076.00,0.0101
3075.00,0.0101
3074.00,0.0101
3073.00,0.0101
3072.00,0.0101
3071.00,0.0100
3070.00,0.0100
3069.00,0.0100
3068.00,0.0099
3067.00,0.0099
3066.00,0.0098
3065.00,0.0098
3064.00,0.0097
3063.00,0.0097
3062.00,0.0096
3061.00,0.0096
3060.00,0.0095
3059.00,0.0095
3058.00,0.0094
3057.00,0.0094
3056.00,0.0093
3055.00,0.0093
3054.00,0.0092
3053.00,0.0092
3052.00,0.0092
3051.00,0.0091
3050.00,0.0091
3049.00,0.0091
3048.00,0.0091
3047.00,0.0091
3046.00,0.0091
3045.00,0.0090
3044.00,0.0090
3043.00,0.0090
3042.00,0.0089
3041.00,0.0089
3040.00,0.0089
3039.00,0.0089
3038.00,0.0088
3037.00,0.0088
3036.00,0.0088
3035.00,0.0088
3034.00,0.0088
3033.00,0.0088
3032.00,0.0088
3031.00,0.0088
3030.00,0.0088
3029.00,0.0088
3028.00,0.0087
3027.00,0.0087
3026.00,0.0087
3025.00,0.0087
3024.00,0.0087
3023.00,0.0087
3022.00,0.0087
3021.00,0.0088
3020.00,0.0088
3019.00,0.0088
3018.00,0.0088
3017.00,0.0089
3016.00,0.0089
3015.00,0.0089
3014.00,0.0090
3013.00,0.0090
3012.00,0.0090
3011.00,0.0091
3010.00,0.0091
3009.00,0.0092
3008.00,0.0092
3007.00,0.0093
3006.00,0.0093
3005.00,0.0094
3004.00,0.0094
3003.00,0.0095
3002.00,0.0096
3001.00,0.0097
3000.00,0.0099
2999.00,0.0100
2998.00,0.0102
2997.00,0.0104
2996.00,0.0106
2995.00,0.0108
2994.00,0.0110
2993.00,0.0112
2992.00,0.0115
2991.00,0.0117
2990.00,0.0120
2989.00,0.0123
2988.00,0.0126
2987.00,0.0128
2986.00,0.0130
2985.00,0.0132
2984.00,0.0133
2983.00,0.0134
2982.00,0.0135
2981.00,0.0137
2980.00,0.0141
2979.00,0.0144
2978.00,0.0148
2977.00,0.0152
2976.00,0.0156
2975.00,0.0159
2974.00,0.0162
2973.00,0.0165
2972.00,0.0168
2971.00,0.0171
2970.00,0.0175
2969.00,0.0179
2968.00,0.0183
2967.00,0.0187
2966.00,0.0191
2965.00,0.0195
2964.00,0.0199
2963.00,0.0203
2962.00,0.0206
2961.00,0.0209
2960.00,0.0212
2959.00,0.0215
2958.00,0.0217
2957.00,0.0219
2956.00,0.0221
2955.00,0.0222
2954.00,0.0223
2953.00,0.0223
2952.00,0.0223
2951.00,0.0223
2950.00,0.0222
2949.00,0.0222
2948.00,0.0221
2947.00,0.0220
2946.00,0.0220
2945.00,0.0220
2944.00,0.0220
2943.00,0.0220
2942.00,0.0220
2941.00,0.0221
2940.00,0.0222
2939.00,0.0224
2938.00,0.0226
2937.00,0.0229
2936.00,0.0231
2935.00,0.0235
2934.00,0.0238
2933.00,0.0241
2932.00,0.0244
2931.00,0.0247
2930.00,0.0250
2929.00,0.0253
2928.00,0.0256
2927.00,0.0259
2926.00,0.0261
2925.00,0.0263
2924.00,0.0265
2923.00,0.0266
2922.00,0.0266
2921.00,0.0266
2920.00,0.0265
2919.00,0.0264
2918.00,0.0262
2917.00,0.0260
2916.00,0.0257
2915.00,0.0254
2914.00,0.0251
2913.00,0.0247
2912.00,0.0244
2911.00,0.0240
2910.00,0.0236
2909.00,0.0233
2908.00,0.0229
2907.00,0.0226
2906.00,0.0222
2905.00,0.0219
2904.00,0.0217
2903.00,0.0215
2902.00,0.0213
2901.00,0.0211
2900.00,0.0210
2899.00,0.0209
2898.00,0.0208
2897.00,0.0207
2896.00,0.0206
2895.00,0.0205
2894.00,0.0204
2893.00,0.0203
2892.00,0.0202
2891.00,0.0202
2890.00,0.0201
2889.00,0.0200
2888.00,0.0200
2887.00,0.0199
2886.00,0.0199
2885.00,0.0199
2884.00,0.0199
2883.00,0.0198
2882.00,0.0198
2881.00,0.0198
2880.00,0.0199
2879.00,0.0199
2878.00,0.0199
2877.00,0.0199
2876.00,0.0199
2875.00,0.0199
2874.00,0.0199
2873.00,0.0199
2872.00,0.0200
2871.00,0.0200
2870.00,0.0199
2869.00,0.0199
2868.00,0.0198
2867.00,0.0197
2866.00,0.0197
2865.00,0.0197
2864.00,0.0197
2863.00,0.0197
2862.00,0.0198
2861.00,0.0198
2860.00,0.0199
2859.00,0.0199
2858.00,0.0200
2857.00,0.0200
2856.00,0.0200
2855.00,0.0199
2854.00,0.0197
2853.00,0.0195
2852.00,0.0192
2851.00,0.0189
2850.00,0.0184
2849.00,0.0179
2848.00,0.0174
2847.00,0.0169
2846.00,0.0164
2845.00,0.0159
2844.00,0.0155
2843.00,0.0151
2842.00,0.0147
2841.00,0.0143
2840.00,0.0140
2839.00,0.0137
2838.00,0.0135
2837.00,0.0134
2836.00,0.0132
2835.00,0.0131
2834.00,0.0130
2833.00,0.0129
2832.00,0.0128
2831.00,0.0127
2830.00,0.0126
2829.00,0.0124
2828.00,0.0122
2827.00,0.0120
2826.00,0.0118
2825.00,0.0115
2824.00,0.0113
2823.00,0.0110
2822.00,0.0108
2821.00,0.0106
2820.00,0.0103
2819.00,0.0102
2818.00,0.0100
2817.00,0.0098
2816.00,0.0097
2815.00,0.0095
2814.00,0.0094
2813.00,0.0093
2812.00,0.0092
2811.00,0.0091
2810.00,0.0090
2809.00,0.0090
2808.00,0.0089
2807.00,0.0088
2806.00,0.0088
2805.00,0.0087
2804.00,0.0086
2803.00,0.0086
2802.00,0.0085
2801.00,0.0085
2800.00,0.0084
2799.00,0.0084
2798.00,0.0084
2797.00,0.0083
2796.00,0.0083
2795.00,0.0082
2794.00,0.0082
2793.00,0.0082
2792.00,0.0081
2791.00,0.0081
2790.00,0.0081
2789.00,0.0081
2788.00,0.0080
2787.00,0.0080
2786.00,0.0080
2785.00,0.0079
2784.00,0.0079
2783.00,0.0079
2782.00,0.0078
2781.00,0.0078
2780.00,0.0078
2779.00,0.0078
2778.00,0.0078
2777.00,0.0078
2776.00,0.0078
2775.00,0.0077
2774.00,0.0077
2773.00,0.0077
2772.00,0.0077
2771.00,0.0076
2770.00,0.0076
2769.00,0.0076
2768.00,0.0076
2767.00,0.0076
2766.00,0.0075
2765.00,0.0075
2764.00,0.0075
2763.00,0.0075
2762.00,0.0075
2761.00,0.0074
2760.00,0.0074
2759.00,0.0074
2758.00,0.0074
2757.00,0.0074
2756.00,0.0074
2755.00,0.0075
2754.00,0.0074
2753.00,0.0074
2752.00,0.0074
2751.00,0.0074
2750.00,0.0074
2749.00,0.0074
2748.00,0.0074
2747.00,0.0074
2746.00,0.0074
2745.00,0.0074
2744.00,0.0074
2743.00,0.0074
2742.00,0.0074
2741.00,0.0074
2740.00,0.0074
2739.00,0.0074
2738.00,0.0074
2737.00,0.0074
2736.00,0.0074
2735.00,0.0075
2734.00,0.0075
2733.00,0.0075
2732.00,0.0075
2731.00,0.0075
2730.00,0.0075
2729.00,0.0075
2728.00,0.0075
2727.00,0.0075
2726.00,0.0075
2725.00,0.0075
2724.00,0.0075
2723.00,0.0075
2722.00,0.0075
2721.00,0.0075
2720.00,0.0075
2719.00,0.0075
2718.00,0.0074
2717.00,0.0074
2716.00,0.0074
2715.00,0.0074
2714.00,0.0074
2713.00,0.0074
2712.00,0.0074
2711.00,0.0073
2710.00,0.0073
2709.00,0.0073
2708.00,0.0073
2707.00,0.0072
2706.00,0.0072
2705.00,0.0072
2704.00,0.0072
2703.00,0.0072
2702.00,0.0072
2701.00,0.0072
2700.00,0.0072
2699.00,0.0072
2698.00,0.0072
2697.00,0.0072
2696.00,0.0072
2695.00,0.0072
2694.00,0.0072
2693.00,0.0072
2692.00,0.0072
2691.00,0.0072
2690.00,0.0072
2689.00,0.0071
2688.00,0.0071
2687.00,0.0071
2686.00,0.0071
2685.00,0.0071
2684.00,0.0071
2683.00,0.0071
2682.00,0.0071
2681.00,0.0071
2680.00,0.0071
2679.00,0.0070
2678.00,0.0070
2677.00,0.0070
2676.00,0.0070
2675.00,0.0071
2674.00,0.0071
2673.00,0.0071
2672.00,0.0071
2671.00,0.0071
2670.00,0.0071
2669.00,0.0071
2668.00,0.0071
2667.00,0.0071
2666.00,0.0071
2665.00,0.0071
2664.00,0.0072
2663.00,0.0072
2662.00,0.0072
2661.00,0.0072
2660.00,0.0073
2659.00,0.0073
2658.00,0.0073
2657.00,0.0073
2656.00,0.0073
2655.00,0.0073
2654.00,0.0073
2653.00,0.0073
2652.00,0.0072
2651.00,0.0072
2650.00,0.0072
2649.00,0.0072
2648.00,0.0072
2647.00,0.0072
2646.00,0.0072
2645.00,0.0072
2644.00,0.0072
2643.00,0.0072
2642.00,0.0071
2641.00,0.0071
2640.00,0.0071
2639.00,0.0071
2638.00,0.0071
2637.00,0.0070
2636.00,0.0070
2635.00,0.0070
2634.00,0.0070
2633.00,0.0070
2632.00,0.0070
2631.00,0.0070
2630.00,0.0070
2629.00,0.0069
2628.00,0.0069
2627.00,0.0069
2626.00,0.0069
2625.00,0.0069
2624.00,0.0069
2623.00,0.0069
2622.00,0.0069
2621.00,0.0068
2620.00,0.0068
2619.00,0.0068
2618.00,0.0068
2617.00,0.0068
2616.00,0.0068
2615.00,0.0067
2614.00,0.0067
2613.00,0.0067
2612.00,0.0067
2611.00,0.0067
2610.00,0.0066
2609.00,0.0066
2608.00,0.0066
2607.00,0.0066
2606.00,0.0066
2605.00,0.0066
2604.00,0.0066
2603.00,0.0066
2602.00,0.0066
2601.00,0.0066
2600.00,0.0066
2599.00,0.0065
2598.00,0.0065
2597.00,0.0065
2596.00,0.0065
2595.00,0.0065
2594.00,0.0065
2593.00,0.0065
2592.00,0.0065
2591.00,0.0065
2590.00,0.0065
2589.00,0.0065
2588.00,0.0064
2587.00,0.0064
2586.00,0.0064
2585.00,0.0064
2584.00,0.0064
2583.00,0.0064
2582.00,0.0064
2581.00,0.0064
2580.00,0.0064
2579.00,0.0064
2578.00,0.0064
2577.00,0.0064
2576.00,0.0064
2575.00,0.0064
2574.00,0.0064
2573.00,0.0063
2572.00,0.0063
2571.00,0.0063
2570.00,0.0063
2569.00,0.0063
2568.00,0.0063
2567.00,0.0063
2566.00,0.0063
2565.00,0.0063
2564.00,0.0063
2563.00,0.0063
2562.00,0.0063
2561.00,0.0063
2560.00,0.0063
2559.00,0.0062
2558.00,0.0062
2557.00,0.0061
2556.00,0.0061
2555.00,0.0061
2554.00,0.0061
2553.00,0.0061
2552.00,0.0061
2551.00,0.0062
2550.00,0.0061
2549.00,0.0061
2548.00,0.0061
2547.00,0.0061
2546.00,0.0060
2545.00,0.0060
2544.00,0.0060
2543.00,0.0060
2542.00,0.0060
2541.00,0.0060
2540.00,0.0060
2539.00,0.0061
2538.00,0.0061
2537.00,0.0060
2536.00,0.0060
2535.00,0.0060
2534.00,0.0060
2533.00,0.0060
2532.00,0.0060
2531.00,0.0060
2530.00,0.0060
2529.00,0.0059
2528.00,0.0059
2527.00,0.0059
2526.00,0.0059
2525.00,0.0059
2524.00,0.0059
2523.00,0.0058
2522.00,0.0058
2521.00,0.0058
2520.00,0.0058
2519.00,0.0058
2518.00,0.0058
2517.00,0.0057
2516.00,0.0057
2515.00,0.0057
2514.00,0.0057
2513.00,0.0057
2512.00,0.0057
2511.00,0.0057
2510.00,0.0057
2509.00,0.0057
2508.00,0.0057
2507.00,0.0057
2506.00,0.0057
2505.00,0.0057
2504.00,0.0057
2503.00,0.0057
2502.00,0.0057
2501.00,0.0057
2500.00,0.0057
2499.00,0.0057
2498.00,0.0057
2497.00,0.0057
2496.00,0.0056
2495.00,0.0056
2494.00,0.0056
2493.00,0.0056
2492.00,0.0057
2491.00,0.0056
2490.00,0.0056
2489.00,0.0056
2488.00,0.0056
2487.00,0.0056
2486.00,0.0056
2485.00,0.0055
2484.00,0.0055
2483.00,0.0055
2482.00,0.0055
2481.00,0.0055
2480.00,0.0055
2479.00,0.0055
2478.00,0.0055
2477.00,0.0055
2476.00,0.0055
2475.00,0.0055
2474.00,0.0055
2473.00,0.0055
2472.00,0.0055
2471.00,0.0055
2470.00,0.0055
2469.00,0.0055
2468.00,0.0056
2467.00,0.0056
2466.00,0.0055
2465.00,0.0055
2464.00,0.0055
2463.00,0.0056
2462.00,0.0056
2461.00,0.0056
2460.00,0.0056
2459.00,0.0056
2458.00,0.0056
2457.00,0.0056
2456.00,0.0056
2455.00,0.0055
2454.00,0.0055
2453.00,0.0055
2452.00,0.0055
2451.00,0.0056
2450.00,0.0056
2449.00,0.0056
2448.00,0.0056
2447.00,0.0056
2446.00,0.0055
2445.00,0.0055
2444.00,0.0055
2443.00,0.0055
2442.00,0.0055
2441.00,0.0055
2440.00,0.0055
2439.00,0.0054
2438.00,0.0054
2437.00,0.0053
2436.00,0.0053
2435.00,0.0053
2434.00,0.0053
2433.00,0.0053
2432.00,0.0053
2431.00,0.0053
2430.00,0.0053
2429.00,0.0053
2428.00,0.0053
2427.00,0.0053
2426.00,0.0053
2425.00,0.0053
2424.00,0.0053
2423.00,0.0053
2422.00,0.0053
2421.00,0.0053
2420.00,0.0053
2419.00,0.0053
2418.00,0.0053
2417.00,0.0053
2416.00,0.0053
2415.00,0.0053
2414.00,0.0053
2413.00,0.0053
2412.00,0.0053
2411.00,0.0053
2410.00,0.0053
2409.00,0.0053
2408.00,0.0052
2407.00,0.0052
2406.00,0.0051
2405.00,0.0051
2404.00,0.0051
2403.00,0.0052
2402.00,0.0052
2401.00,0.0052
2400.00,0.0052
2399.00,0.0052
2398.00,0.0052
2397.00,0.0051
2396.00,0.0051
2395.00,0.0051
2394.00,0.0051
2393.00,0.0051
2392.00,0.0051
2391.00,0.0051
2390.00,0.0051
2389.00,0.0051
2388.00,0.0051
2387.00,0.0051
2386.00,0.0051
2385.00,0.0050
2384.00,0.0050
2383.00,0.0050
2382.00,0.0050
2381.00,0.0050
2380.00,0.0049
2379.00,0.0049
2378.00,0.0049
2377.00,0.0050
2376.00,0.0050
2375.00,0.0050
2374.00,0.0050
2373.00,0.0050
2372.00,0.0050
2371.00,0.0049
2370.00,0.0049
2369.00,0.0049
2368.00,0.0049
2367.00,0.0050
2366.00,0.0050
2365.00,0.0050
2364.00,0.0050
2363.00,0.0050
2362.00,0.0050
2361.00,0.0050
2360.00,0.0051
2359.00,0.0051
2358.00,0.0051
2357.00,0.0050
2356.00,0.0049
2355.00,0.0048
2354.00,0.0047
2353.00,0.0047
2352.00,0.0047
2351.00,0.0048
2350.00,0.0050
2349.00,0.0051
2348.00,0.0053
2347.00,0.0053
2346.00,0.0052
2345.00,0.0052
2344.00,0.0052
2343.00,0.0053
2342.00,0.0053
2341.00,0.0054
2340.00,0.0054
2339.00,0.0054
2338.00,0.0054
2337.00,0.0054
2336.00,0.0054
2335.00,0.0054
2334.00,0.0054
2333.00,0.0054
2332.00,0.0054
2331.00,0.0054
2330.00,0.0054
2329.00,0.0056
2328.00,0.0058
2327.00,0.0061
2326.00,0.0064
2325.00,0.0064
2324.00,0.0063
2323.00,0.0061
2322.00,0.0059
2321.00,0.0058
2320.00,0.0058
2319.00,0.0058
2318.00,0.0058
2317.00,0.0058
2316.00,0.0058
2315.00,0.0057
2314.00,0.0056
2313.00,0.0056
2312.00,0.0055
2311.00,0.0055
2310.00,0.0055
2309.00,0.0055
2308.00,0.0055
2307.00,0.0055
2306.00,0.0055
2305.00,0.0055
2304.00,0.0055
2303.00,0.0056
2302.00,0.0056
2301.00,0.0057
2300.00,0.0057
2299.00,0.0058
2298.00,0.0058
2297.00,0.0058
2296.00,0.0058
2295.00,0.0059
2294.00,0.0059
2293.00,0.0060
2292.00,0.0060
2291.00,0.0061
2290.00,0.0062
2289.00,0.0062
2288.00,0.0062
2287.00,0.0062
2286.00,0.0062
2285.00,0.0061
2284.00,0.0060
2283.00,0.0060
2282.00,0.0059
2281.00,0.0059
2280.00,0.0059
2279.00,0.0059
2278.00,0.0059
2277.00,0.0059
2276.00,0.0059
2275.00,0.0058
2274.00,0.0058
2273.00,0.0058
2272.00,0.0058
2271.00,0.0058
2270.00,0.0057
2269.00,0.0057
2268.00,0.0056
2267.00,0.0055
2266.00,0.0054
2265.00,0.0054
2264.00,0.0054
2263.00,0.0054
2262.00,0.0054
2261.00,0.0055
2260.00,0.0055
2259.00,0.0055
2258.00,0.0055
2257.00,0.0054
2256.00,0.0053
2255.00,0.0053
2254.00,0.0052
2253.00,0.0053
2252.00,0.0053
2251.00,0.0053
2250.00,0.0053
2249.00,0.0053
2248.00,0.0053
2247.00,0.0053
2246.00,0.0053
2245.00,0.0054
2244.00,0.0054
2243.00,0.0055
2242.00,0.0054
2241.00,0.0054
2240.00,0.0054
2239.00,0.0054
2238.00,0.0054
2237.00,0.0054
2236.00,0.0054
2235.00,0.0053
2234.00,0.0053
2233.00,0.0053
2232.00,0.0053
2231.00,0.0053
2230.00,0.0053
2229.00,0.0053
2228.00,0.0054
2227.00,0.0055
2226.00,0.0055
2225.00,0.0055
2224.00,0.0054
2223.00,0.0053
2222.00,0.0052
2221.00,0.0053
2220.00,0.0054
2219.00,0.0054
2218.00,0.0054
2217.00,0.0054
2216.00,0.0053
2215.00,0.0052
2214.00,0.0052
2213.00,0.0052
2212.00,0.0052
2211.00,0.0053
2210.00,0.0053
2209.00,0.0053
2208.00,0.0054
2207.00,0.0054
2206.00,0.0055
2205.00,0.0055
2204.00,0.0056
2203.00,0.0055
2202.00,0.0054
2201.00,0.0053
2200.00,0.0052
2199.00,0.0052
2198.00,0.0052
2197.00,0.0053
2196.00,0.0053
2195.00,0.0054
2194.00,0.0055
2193.00,0.0054
2192.00,0.0054
2191.00,0.0053
2190.00,0.0053
2189.00,0.0053
2188.00,0.0054
2187.00,0.0055
2186.00,0.0054
2185.00,0.0052
2184.00,0.0050
2183.00,0.0048
2182.00,0.0047
2181.00,0.0048
2180.00,0.0050
2179.00,0.0051
2178.00,0.0051
2177.00,0.0049
2176.00,0.0048
2175.00,0.0048
2174.00,0.0050
2173.00,0.0053
2172.00,0.0056
2171.00,0.0059
2170.00,0.0060
2169.00,0.0060
2168.00,0.0060
2167.00,0.0060
2166.00,0.0061
2165.00,0.0062
2164.00,0.0063
2163.00,0.0062
2162.00,0.0057
2161.00,0.0047
2160.00,0.0035
2159.00,0.0026
2158.00,0.0022
2157.00,0.0023
2156.00,0.0025
2155.00,0.0028
2154.00,0.0031
2153.00,0.0034
2152.00,0.0036
2151.00,0.0038
2150.00,0.0038
2149.00,0.0038
2148.00,0.0037
2147.00,0.0036
2146.00,0.0035
2145.00,0.0035
2144.00,0.0036
2143.00,0.0038
2142.00,0.0038
2141.00,0.0039
2140.00,0.0039
2139.00,0.0038
2138.00,0.0036
2137.00,0.0034
2136.00,0.0032
2135.00,0.0030
2134.00,0.0030
2133.00,0.0031
2132.00,0.0033
2131.00,0.0035
2130.00,0.0036
2129.00,0.0037
2128.00,0.0039
2127.00,0.0040
2126.00,0.0041
2125.00,0.0042
2124.00,0.0043
2123.00,0.0044
2122.00,0.0044
2121.00,0.0044
2120.00,0.0045
2119.00,0.0047
2118.00,0.0048
2117.00,0.0049
2116.00,0.0050
2115.00,0.0051
2114.00,0.0050
2113.00,0.0049
2112.00,0.0049
2111.00,0.0049
2110.00,0.0048
2109.00,0.0048
2108.00,0.0047
2107.00,0.0047
2106.00,0.0047
2105.00,0.0048
2104.00,0.0049
2103.00,0.0049
2102.00,0.0049
2101.00,0.0049
2100.00,0.0049
2099.00,0.0048
2098.00,0.0048
2097.00,0.0047
2096.00,0.0045
2095.00,0.0045
2094.00,0.0045
2093.00,0.0045
2092.00,0.0047
2091.00,0.0048
2090.00,0.0049
2089.00,0.0049
2088.00,0.0049
2087.00,0.0048
2086.00,0.0048
2085.00,0.0049
2084.00,0.0049
2083.00,0.0050
2082.00,0.0050
2081.00,0.0049
2080.00,0.0049
2079.00,0.0048
2078.00,0.0048
2077.00,0.0048
2076.00,0.0048
2075.00,0.0048
2074.00,0.0048
2073.00,0.0047
2072.00,0.0047
2071.00,0.0047
2070.00,0.0046
2069.00,0.0046
2068.00,0.0046
2067.00,0.0046
2066.00,0.0047
2065.00,0.0047
2064.00,0.0047
2063.00,0.0047
2062.00,0.0047
2061.00,0.0046
2060.00,0.0046
2059.00,0.0046
2058.00,0.0046
2057.00,0.0046
2056.00,0.0046
2055.00,0.0046
2054.00,0.0047
2053.00,0.0050
2052.00,0.0054
2051.00,0.0056
2050.00,0.0055
2049.00,0.0052
2048.00,0.0049
2047.00,0.0048
2046.00,0.0048
2045.00,0.0048
2044.00,0.0049
2043.00,0.0050
2042.00,0.0050
2041.00,0.0049
2040.00,0.0049
2039.00,0.0049
2038.00,0.0047
2037.00,0.0045
2036.00,0.0043
2035.00,0.0042
2034.00,0.0041
2033.00,0.0041
2032.00,0.0041
2031.00,0.0043
2030.00,0.0043
2029.00,0.0044
2028.00,0.0044
2027.00,0.0044
2026.00,0.0042
2025.00,0.0041
2024.00,0.0040
2023.00,0.0040
2022.00,0.0040
2021.00,0.0040
2020.00,0.0040
2019.00,0.0040
2018.00,0.0039
2017.00,0.0039
2016.00,0.0040
2015.00,0.0041
2014.00,0.0040
2013.00,0.0039
2012.00,0.0039
2011.00,0.0040
2010.00,0.0040
2009.00,0.0039
2008.00,0.0037
2007.00,0.0035
2006.00,0.0032
2005.00,0.0031
2004.00,0.0031
2003.00,0.0033
2002.00,0.0035
2001.00,0.0036
2000.00,0.0038
1999.00,0.0040
1998.00,0.0040
1997.00,0.0041
1996.00,0.0042
1995.00,0.0043
1994.00,0.0045
1993.00,0.0046
1992.00,0.0047
1991.00,0.0048
1990.00,0.0047
1989.00,0.0046
1988.00,0.0045
1987.00,0.0044
1986.00,0.0043
1985.00,0.0043
1984.00,0.0045
1983.00,0.0049
1982.00,0.0052
1981.00,0.0053
1980.00,0.0052
1979.00,0.0048
1978.00,0.0042
1977.00,0.0038
1976.00,0.0037
1975.00,0.0037
1974.00,0.0036
1973.00,0.0036
1972.00,0.0036
1971.00,0.0036
1970.00,0.0035
1969.00,0.0035
1968.00,0.0035
1967.00,0.0035
1966.00,0.0035
1965.00,0.0035
1964.00,0.0035
1963.00,0.0035
1962.00,0.0034
1961.00,0.0033
1960.00,0.0033
1959.00,0.0034
1958.00,0.0034
1957.00,0.0035
1956.00,0.0036
1955.00,0.0037
1954.00,0.0038
1953.00,0.0039
1952.00,0.0039
1951.00,0.0038
1950.00,0.0037
1949.00,0.0036
1948.00,0.0036
1947.00,0.0036
1946.00,0.0037
1945.00,0.0037
1944.00,0.0037
1943.00,0.0038
1942.00,0.0038
1941.00,0.0038
1940.00,0.0038
1939.00,0.0037
1938.00,0.0037
1937.00,0.0037
1936.00,0.0038
1935.00,0.0038
1934.00,0.0037
1933.00,0.0037
1932.00,0.0037
1931.00,0.0037
1930.00,0.0038
1929.00,0.0039
1928.00,0.0039
1927.00,0.0039
1926.00,0.0038
1925.00,0.0038
1924.00,0.0038
1923.00,0.0039
1922.00,0.0039
1921.00,0.0039
1920.00,0.0039
1919.00,0.0040
1918.00,0.0040
1917.00,0.0040
1916.00,0.0040
1915.00,0.0040
1914.00,0.0040
1913.00,0.0040
1912.00,0.0040
1911.00,0.0040
1910.00,0.0040
1909.00,0.0040
1908.00,0.0040
1907.00,0.0040
1906.00,0.0040
1905.00,0.0039
1904.00,0.0040
1903.00,0.0040
1902.00,0.0040
1901.00,0.0041
1900.00,0.0041
1899.00,0.0041
1898.00,0.0040
1897.00,0.0040
1896.00,0.0040
1895.00,0.0040
1894.00,0.0040
1893.00,0.0039
1892.00,0.0040
1891.00,0.0040
1890.00,0.0040
1889.00,0.0040
1888.00,0.0039
1887.00,0.0039
1886.00,0.0039
1885.00,0.0039
1884.00,0.0039
1883.00,0.0039
1882.00,0.0039
1881.00,0.0038
1880.00,0.0039
1879.00,0.0040
1878.00,0.0040
1877.00,0.0040
1876.00,0.0040
1875.00,0.0041
1874.00,0.0041
1873.00,0.0040
1872.00,0.0040
1871.00,0.0040
1870.00,0.0040
1869.00,0.0039
1868.00,0.0040
1867.00,0.0040
1866.00,0.0040
1865.00,0.0040
1864.00,0.0040
1863.00,0.0040
1862.00,0.0040
1861.00,0.0040
1860.00,0.0040
1859.00,0.0040
1858.00,0.0040
1857.00,0.0040
1856.00,0.0040
1855.00,0.0040
1854.00,0.0040
1853.00,0.0040
1852.00,0.0040
1851.00,0.0040
1850.00,0.0040
1849.00,0.0040
1848.00,0.0041
1847.00,0.0041
1846.00,0.0040
1845.00,0.0040
1844.00,0.0039
1843.00,0.0040
1842.00,0.0040
1841.00,0.0040
1840.00,0.0041
1839.00,0.0041
1838.00,0.0041
1837.00,0.0040
1836.00,0.0040
1835.00,0.0040
1834.00,0.0040
1833.00,0.0040
1832.00,0.0040
1831.00,0.0040
1830.00,0.0040
1829.00,0.0040
1828.00,0.0040
1827.00,0.0041
1826.00,0.0041
1825.00,0.0041
1824.00,0.0041
1823.00,0.0041
1822.00,0.0040
1821.00,0.0040
1820.00,0.0040
1819.00,0.0039
1818.00,0.0038
1817.00,0.0037
1816.00,0.0037
1815.00,0.0038
1814.00,0.0038
1813.00,0.0039
1812.00,0.0040
1811.00,0.0040
1810.00,0.0040
1809.00,0.0039
1808.00,0.0040
1807.00,0.0040
1806.00,0.0040
1805.00,0.0040
1804.00,0.0040
1803.00,0.0040
1802.00,0.0040
1801.00,0.0040
1800.00,0.0040
1799.00,0.0040
1798.00,0.0040
1797.00,0.0040
1796.00,0.0040
1795.00,0.0040
1794.00,0.0039
1793.00,0.0039
1792.00,0.0039
1791.00,0.0040
1790.00,0.0039
1789.00,0.0040
1788.00,0.0040
1787.00,0.0040
1786.00,0.0040
1785.00,0.0040
1784.00,0.0041
1783.00,0.0041
1782.00,0.0041
1781.00,0.0042
1780.00,0.0042
1779.00,0.0042
1778.00,0.0041
1777.00,0.0041
1776.00,0.0041
1775.00,0.0041
1774.00,0.0041
1773.00,0.0041
1772.00,0.0041
1771.00,0.0042
1770.00,0.0042
1769.00,0.0042
1768.00,0.0042
1767.00,0.0042
1766.00,0.0042
1765.00,0.0042
1764.00,0.0042
1763.00,0.0042
1762.00,0.0042
1761.00,0.0042
1760.00,0.0042
1759.00,0.0043
1758.00,0.0043
1757.00,0.0043
1756.00,0.0043
1755.00,0.0043
1754.00,0.0043
1753.00,0.0043
1752.00,0.0043
1751.00,0.0043
1750.00,0.0043
1749.00,0.0044
1748.00,0.0045
1747.00,0.0045
1746.00,0.0046
1745.00,0.0046
1744.00,0.0047
1743.00,0.0047
1742.00,0.0047
1741.00,0.0047
1740.00,0.0047
1739.00,0.0047
1738.00,0.0048
1737.00,0.0048
1736.00,0.0049
1735.00,0.0049
1734.00,0.0049
1733.00,0.0050
1732.00,0.0051
1731.00,0.0052
1730.00,0.0053
1729.00,0.0053
1728.00,0.0055
1727.00,0.0056
1726.00,0.0056
1725.00,0.0057
1724.00,0.0059
1723.00,0.0060
1722.00,0.0061
1721.00,0.0062
1720.00,0.0063
1719.00,0.0065
1718.00,0.0067
1717.00,0.0068
1716.00,0.0071
1715.00,0.0074
1714.00,0.0077
1713.00,0.0080
1712.00,0.0084
1711.00,0.0088
1710.00,0.0092
1709.00,0.0097
1708.00,0.0104
1707.00,0.0112
1706.00,0.0121
1705.00,0.0131
1704.00,0.0142
1703.00,0.0152
1702.00,0.0163
1701.00,0.0181
1700.00,0.0207
1699.00,0.0232
1698.00,0.0253
1697.00,0.0276
1696.00,0.0308
1695.00,0.0344
1694.00,0.0374
1693.00,0.0401
1692.00,0.0429
1691.00,0.0459
1690.00,0.0492
1689.00,0.0524
1688.00,0.0554
1687.00,0.0580
1686.00,0.0605
1685.00,0.0636
1684.00,0.0675
1683.00,0.0710
1682.00,0.0734
1681.00,0.0753
1680.00,0.0771
1679.00,0.0788
1678.00,0.0802
1677.00,0.0815
1676.00,0.0828
1675.00,0.0844
1674.00,0.0858
1673.00,0.0870
1672.00,0.0880
1671.00,0.0890
1670.00,0.0901
1669.00,0.0915
1668.00,0.0929
1667.00,0.0942
1666.00,0.0952
1665.00,0.0961
1664.00,0.0972
1663.00,0.0984
1662.00,0.0998
1661.00,0.1010
1660.00,0.1020
1659.00,0.1028
1658.00,0.1034
1657.00,0.1038
1656.00,0.1040
1655.00,0.1038
1654.00,0.1032
1653.00,0.1027
1652.00,0.1024
1651.00,0.1021
1650.00,0.1013
1649.00,0.0999
1648.00,0.0978
1647.00,0.0952
1646.00,0.0924
1645.00,0.0898
1644.00,0.0873
1643.00,0.0847
1642.00,0.0818
1641.00,0.0787
1640.00,0.0756
1639.00,0.0726
1638.00,0.0696
1637.00,0.0661
1636.00,0.0623
1635.00,0.0587
1634.00,0.0560
1633.00,0.0538
1632.00,0.0519
1631.00,0.0500
1630.00,0.0482
1629.00,0.0465
1628.00,0.0450
1627.00,0.0437
1626.00,0.0427
1625.00,0.0417
1624.00,0.0408
1623.00,0.0401
1622.00,0.0395
1621.00,0.0390
1620.00,0.0386
1619.00,0.0381
1618.00,0.0375
1617.00,0.0368
1616.00,0.0359
1615.00,0.0351
1614.00,0.0342
1613.00,0.0332
1612.00,0.0320
1611.00,0.0308
1610.00,0.0296
1609.00,0.0285
1608.00,0.0274
1607.00,0.0265
1606.00,0.0257
1605.00,0.0250
1604.00,0.0246
1603.00,0.0243
1602.00,0.0242
1601.00,0.0243
1600.00,0.0245
1599.00,0.0248
1598.00,0.0253
1597.00,0.0259
1596.00,0.0264
1595.00,0.0268
1594.00,0.0272
1593.00,0.0273
1592.00,0.0273
1591.00,0.0272
1590.00,0.0269
1589.00,0.0265
1588.00,0.0260
1587.00,0.0255
1586.00,0.0249
1585.00,0.0243
1584.00,0.0237
1583.00,0.0231
1582.00,0.0224
1581.00,0.0217
1580.00,0.0211
1579.00,0.0204
1578.00,0.0198
1577.00,0.0191
1576.00,0.0183
1575.00,0.0176
1574.00,0.0171
1573.00,0.0167
1572.00,0.0163
1571.00,0.0159
1570.00,0.0155
1569.00,0.0151
1568.00,0.0148
1567.00,0.0145
1566.00,0.0143
1565.00,0.0141
1564.00,0.0138
1563.00,0.0136
1562.00,0.0134
1561.00,0.0132
1560.00,0.0128
1559.00,0.0125
1558.00,0.0124
1557.00,0.0124
1556.00,0.0124
1555.00,0.0123
1554.00,0.0123
1553.00,0.0122
1552.00,0.0121
1551.00,0.0121
1550.00,0.0120
1549.00,0.0120
1548.00,0.0119
1547.00,0.0118
1546.00,0.0118
1545.00,0.0118
1544.00,0.0117
1543.00,0.0117
1542.00,0.0116
1541.00,0.0116
1540.00,0.0116
1539.00,0.0116
1538.00,0.0115
1537.00,0.0115
1536.00,0.0115
1535.00,0.0114
1534.00,0.0114
1533.00,0.0114
1532.00,0.0113
1531.00,0.0113
1530.00,0.0113
1529.00,0.0113
1528.00,0.0113
1527.00,0.0113
1526.00,0.0113
1525.00,0.0113
1524.00,0.0113
1523.00,0.0113
1522.00,0.0113
1521.00,0.0113
1520.00,0.0113
1519.00,0.0113
1518.00,0.0114
1517.00,0.0115
1516.00,0.0115
1515.00,0.0115
1514.00,0.0115
1513.00,0.0116
1512.00,0.0117
1511.00,0.0118
1510.00,0.0120
1509.00,0.0122
1508.00,0.0125
1507.00,0.0130
1506.00,0.0136
1505.00,0.0142
1504.00,0.0149
1503.00,0.0157
1502.00,0.0166
1501.00,0.0175
1500.00,0.0186
1499.00,0.0197
1498.00,0.0209
1497.00,0.0220
1496.00,0.0230
1495.00,0.0237
1494.00,0.0241
1493.00,0.0242
1492.00,0.0240
1491.00,0.0234
1490.00,0.0226
1489.00,0.0216
1488.00,0.0204
1487.00,0.0193
1486.00,0.0182
1485.00,0.0173
1484.00,0.0165
1483.00,0.0159
1482.00,0.0153
1481.00,0.0150
1480.00,0.0148
1479.00,0.0147
1478.00,0.0148
1477.00,0.0150
1476.00,0.0154
1475.00,0.0160
1474.00,0.0168
1473.00,0.0181
1472.00,0.0199
1471.00,0.0218
1470.00,0.0238
1469.00,0.0259
1468.00,0.0281
1467.00,0.0305
1466.00,0.0333
1465.00,0.0363
1464.00,0.0391
1463.00,0.0413
1462.00,0.0428
1461.00,0.0437
1460.00,0.0440
1459.00,0.0436
1458.00,0.0425
1457.00,0.0407
1456.00,0.0389
1455.00,0.0375
1454.00,0.0366
1453.00,0.0359
1452.00,0.0354
1451.00,0.0353
1450.00,0.0356
1449.00,0.0363
1448.00,0.0374
1447.00,0.0389
1446.00,0.0406
1445.00,0.0424
1444.00,0.0444
1443.00,0.0464
1442.00,0.0485
1441.00,0.0506
1440.00,0.0524
1439.00,0.0540
1438.00,0.0556
1437.00,0.0574
1436.00,0.0593
1435.00,0.0609
1434.00,0.0622
1433.00,0.0635
1432.00,0.0649
1431.00,0.0664
1430.00,0.0681
1429.00,0.0698
1428.00,0.0715
1427.00,0.0730
1426.00,0.0743
1425.00,0.0756
1424.00,0.0768
1423.00,0.0774
1422.00,0.0774
1421.00,0.0766
1420.00,0.0745
1419.00,0.0712
1418.00,0.0673
1417.00,0.0632
1416.00,0.0591
1415.00,0.0550
1414.00,0.0510
1413.00,0.0473
1412.00,0.0439
1411.00,0.0409
1410.00,0.0383
1409.00,0.0362
1408.00,0.0344
1407.00,0.0329
1406.00,0.0316
1405.00,0.0305
1404.00,0.0295
1403.00,0.0287
1402.00,0.0282
1401.00,0.0276
1400.00,0.0271
1399.00,0.0267
1398.00,0.0264
1397.00,0.0262
1396.00,0.0260
1395.00,0.0258
1394.00,0.0258
1393.00,0.0258
1392.00,0.0258
1391.00,0.0259
1390.00,0.0261
1389.00,0.0264
1388.00,0.0267
1387.00,0.0271
1386.00,0.0276
1385.00,0.0282
1384.00,0.0288
1383.00,0.0295
1382.00,0.0304
1381.00,0.0313
1380.00,0.0323
1379.00,0.0333
1378.00,0.0342
1377.00,0.0350
1376.00,0.0355
1375.00,0.0359
1374.00,0.0359
1373.00,0.0357
1372.00,0.0353
1371.00,0.0348
1370.00,0.0343
1369.00,0.0337
1368.00,0.0330
1367.00,0.0323
1366.00,0.0315
1365.00,0.0308
1364.00,0.0300
1363.00,0.0291
1362.00,0.0282
1361.00,0.0274
1360.00,0.0267
1359.00,0.0260
1358.00,0.0255
1357.00,0.0250
1356.00,0.0245
1355.00,0.0241
1354.00,0.0237
1353.00,0.0233
1352.00,0.0229
1351.00,0.0225
1350.00,0.0222
1349.00,0.0219
1348.00,0.0216
1347.00,0.0214
1346.00,0.0212
1345.00,0.0210
1344.00,0.0208
1343.00,0.0207
1342.00,0.0207
1341.00,0.0207
1340.00,0.0207
1339.00,0.0207
1338.00,0.0208
1337.00,0.0209
1336.00,0.0210
1335.00,0.0211
1334.00,0.0213
1333.00,0.0215
1332.00,0.0218
1331.00,0.0221
1330.00,0.0225
1329.00,0.0230
1328.00,0.0236
1327.00,0.0243
1326.00,0.0251
1325.00,0.0260
1324.00,0.0270
1323.00,0.0280
1322.00,0.0290
1321.00,0.0299
1320.00,0.0308
1319.00,0.0315
1318.00,0.0319
1317.00,0.0322
1316.00,0.0322
1315.00,0.0320
1314.00,0.0316
1313.00,0.0311
1312.00,0.0304
1311.00,0.0298
1310.00,0.0292
1309.00,0.0287
1308.00,0.0283
1307.00,0.0281
1306.00,0.0280
1305.00,0.0281
1304.00,0.0285
1303.00,0.0291
1302.00,0.0301
1301.00,0.0314
1300.00,0.0332
1299.00,0.0355
1298.00,0.0383
1297.00,0.0416
1296.00,0.0454
1295.00,0.0494
1294.00,0.0538
1293.00,0.0582
1292.00,0.0624
1291.00,0.0663
1290.00,0.0698
1289.00,0.0727
1288.00,0.0749
1287.00,0.0763
1286.00,0.0770
1285.00,0.0768
1284.00,0.0760
1283.00,0.0746
1282.00,0.0729
1281.00,0.0711
1280.00,0.0694
1279.00,0.0681
1278.00,0.0673
1277.00,0.0671
1276.00,0.0672
1275.00,0.0677
1274.00,0.0682
1273.00,0.0688
1272.00,0.0690
1271.00,0.0689
1270.00,0.0684
1269.00,0.0674
1268.00,0.0659
1267.00,0.0641
1266.00,0.0620
1265.00,0.0598
1264.00,0.0575
1263.00,0.0554
1262.00,0.0534
1261.00,0.0516
1260.00,0.0501
1259.00,0.0489
1258.00,0.0480
1257.00,0.0473
1256.00,0.0468
1255.00,0.0464
1254.00,0.0462
1253.00,0.0459
1252.00,0.0456
1251.00,0.0453
1250.00,0.0449
1249.00,0.0445
1248.00,0.0440
1247.00,0.0434
1246.00,0.0428
1245.00,0.0422
1244.00,0.0415
1243.00,0.0409
1242.00,0.0402
1241.00,0.0397
1240.00,0.0392
1239.00,0.0388
1238.00,0.0385
1237.00,0.0384
1236.00,0.0383
1235.00,0.0383
1234.00,0.0384
1233.00,0.0386
1232.00,0.0387
1231.00,0.0388
1230.00,0.0389
1229.00,0.0389
1228.00,0.0390
1227.00,0.0390
1226.00,0.0389
1225.00,0.0389
1224.00,0.0387
1223.00,0.0385
1222.00,0.0383
1221.00,0.0380
1220.00,0.0377
1219.00,0.0373
1218.00,0.0370
1217.00,0.0366
1216.00,0.0361
1215.00,0.0356
1214.00,0.0351
1213.00,0.0345
1212.00,0.0339
1211.00,0.0333
1210.00,0.0326
1209.00,0.0320
1208.00,0.0315
1207.00,0.0309
1206.00,0.0305
1205.00,0.0301
1204.00,0.0298
1203.00,0.0294
1202.00,0.0290
1201.00,0.0287
1200.00,0.0283
1199.00,0.0279
1198.00,0.0275
1197.00,0.0272
1196.00,0.0269
1195.00,0.0267
1194.00,0.0265
1193.00,0.0264
1192.00,0.0263
1191.00,0.0262
1190.00,0.0262
1189.00,0.0261
1188.00,0.0260
1187.00,0.0259
1186.00,0.0257
1185.00,0.0256
1184.00,0.0254
1183.00,0.0252
1182.00,0.0251
1181.00,0.0250
1180.00,0.0251
1179.00,0.0252
1178.00,0.0255
1177.00,0.0258
1176.00,0.0263
1175.00,0.0268
1174.00,0.0274
1173.00,0.0279
1172.00,0.0283
1171.00,0.0285
1170.00,0.0286
1169.00,0.0285
1168.00,0.0282
1167.00,0.0279
1166.00,0.0275
1165.00,0.0271
1164.00,0.0266
1163.00,0.0261
1162.00,0.0257
1161.00,0.0254
1160.00,0.0252
1159.00,0.0252
1158.00,0.0253
1157.00,0.0257
1156.00,0.0261
1155.00,0.0265
1154.00,0.0267
1153.00,0.0268
1152.00,0.0265
1151.00,0.0261
1150.00,0.0254
1149.00,0.0246
1148.00,0.0237
1147.00,0.0228
1146.00,0.0220
1145.00,0.0213
1144.00,0.0206
1143.00,0.0200
1142.00,0.0197
1141.00,0.0194
1140.00,0.0191
1139.00,0.0190
1138.00,0.0189
1137.00,0.0188
1136.00,0.0187
1135.00,0.0186
1134.00,0.0185
1133.00,0.0184
1132.00,0.0183
1131.00,0.0181
1130.00,0.0181
1129.00,0.0180
1128.00,0.0178
1127.00,0.0177
1126.00,0.0176
1125.00,0.0175
1124.00,0.0175
1123.00,0.0174
1122.00,0.0175
1121.00,0.0175
1120.00,0.0175
1119.00,0.0176
1118.00,0.0176
1117.00,0.0177
1116.00,0.0178
1115.00,0.0178
1114.00,0.0180
1113.00,0.0181
1112.00,0.0182
1111.00,0.0182
1110.00,0.0183
1109.00,0.0183
1108.00,0.0183
1107.00,0.0183
1106.00,0.0184
1105.00,0.0185
1104.00,0.0185
1103.00,0.0186
1102.00,0.0186
1101.00,0.0187
1100.00,0.0188
1099.00,0.0188
1098.00,0.0189
1097.00,0.0190
1096.00,0.0189
1095.00,0.0189
1094.00,0.0188
1093.00,0.0187
1092.00,0.0185
1091.00,0.0183
1090.00,0.0181
1089.00,0.0180
1088.00,0.0178
1087.00,0.0177
1086.00,0.0176
1085.00,0.0177
1084.00,0.0177
1083.00,0.0178
1082.00,0.0180
1081.00,0.0182
1080.00,0.0185
1079.00,0.0187
1078.00,0.0190
1077.00,0.0192
1076.00,0.0192
1075.00,0.0191
1074.00,0.0190
1073.00,0.0188
1072.00,0.0186
1071.00,0.0184
1070.00,0.0182
1069.00,0.0180
1068.00,0.0178
1067.00,0.0177
1066.00,0.0177
1065.00,0.0179
1064.00,0.0181
1063.00,0.0186
1062.00,0.0193
1061.00,0.0202
1060.00,0.0214
1059.00,0.0228
1058.00,0.0242
1057.00,0.0254
1056.00,0.0261
1055.00,0.0263
1054.00,0.0259
1053.00,0.0251
1052.00,0.0239
1051.00,0.0227
1050.00,0.0217
1049.00,0.0209
1048.00,0.0203
1047.00,0.0201
1046.00,0.0201
1045.00,0.0202
1044.00,0.0205
1043.00,0.0210
1042.00,0.0217
1041.00,0.0225
1040.00,0.0235
1039.00,0.0247
1038.00,0.0261
1037.00,0.0277
1036.00,0.0293
1035.00,0.0309
1034.00,0.0324
1033.00,0.0336
1032.00,0.0344
1031.00,0.0347
1030.00,0.0346
1029.00,0.0341
1028.00,0.0331
1027.00,0.0320
1026.00,0.0308
1025.00,0.0296
1024.00,0.0286
1023.00,0.0279
1022.00,0.0275
1021.00,0.0272
1020.00,0.0270
1019.00,0.0268
1018.00,0.0266
1017.00,0.0262
1016.00,0.0257
1015.00,0.0250
1014.00,0.0242
1013.00,0.0234
1012.00,0.0226
1011.00,0.0219
1010.00,0.0213
1009.00,0.0209
1008.00,0.0207
1007.00,0.0206
1006.00,0.0207
1005.00,0.0209
1004.00,0.0211
1003.00,0.0212
1002.00,0.0213
1001.00,0.0212
1000.00,0.0210
999.00,0.0207
998.00,0.0203
997.00,0.0199
996.00,0.0194
995.00,0.0190
994.00,0.0187
993.00,0.0184
992.00,0.0182
991.00,0.0181
990.00,0.0180
989.00,0.0180
988.00,0.0179
987.00,0.0178
986.00,0.0177
985.00,0.0175
984.00,0.0172
983.00,0.0170
982.00,0.0167
981.00,0.0165
980.00,0.0162
979.00,0.0160
978.00,0.0159
977.00,0.0158
976.00,0.0157
975.00,0.0156
974.00,0.0155
973.00,0.0155
972.00,0.0154
971.00,0.0153
970.00,0.0153
969.00,0.0152
968.00,0.0152
967.00,0.0152
966.00,0.0152
965.00,0.0152
964.00,0.0152
963.00,0.0151
962.00,0.0152
961.00,0.0152
960.00,0.0151
959.00,0.0151
958.00,0.0151
957.00,0.0151
956.00,0.0150
955.00,0.0148
954.00,0.0147
953.00,0.0145
952.00,0.0143
951.00,0.0141
950.00,0.0139
949.00,0.0137
948.00,0.0135
947.00,0.0133
946.00,0.0131
945.00,0.0130
944.00,0.0130
943.00,0.0130
942.00,0.0131
941.00,0.0134
940.00,0.0137
939.00,0.0140
938.00,0.0144
937.00,0.0149
936.00,0.0154
935.00,0.0159
934.00,0.0164
933.00,0.0167
932.00,0.0168
931.00,0.0167
930.00,0.0164
929.00,0.0162
928.00,0.0159
927.00,0.0156
926.00,0.0154
925.00,0.0153
924.00,0.0150
923.00,0.0148
922.00,0.0147
921.00,0.0146
920.00,0.0145
919.00,0.0145
918.00,0.0146
917.00,0.0147
916.00,0.0147
915.00,0.0148
914.00,0.0149
913.00,0.0151
912.00,0.0151
911.00,0.0152
910.00,0.0153
909.00,0.0155
908.00,0.0158
907.00,0.0161
906.00,0.0165
905.00,0.0169
904.00,0.0174
903.00,0.0178
902.00,0.0183
901.00,0.0187
900.00,0.0191
899.00,0.0195
898.00,0.0199
897.00,0.0202
896.00,0.0204
895.00,0.0206
894.00,0.0207
893.00,0.0209
892.00,0.0209
891.00,0.0210
890.00,0.0211
889.00,0.0211
888.00,0.0212
887.00,0.0212
886.00,0.0214
885.00,0.0215
884.00,0.0216
883.00,0.0216
882.00,0.0217
881.00,0.0216
880.00,0.0215
879.00,0.0213
878.00,0.0211
877.00,0.0208
876.00,0.0204
875.00,0.0201
874.00,0.0198
873.00,0.0195
872.00,0.0192
871.00,0.0189
870.00,0.0188
869.00,0.0188
868.00,0.0187
867.00,0.0188
866.00,0.0189
865.00,0.0191
864.00,0.0193
863.00,0.0195
862.00,0.0199
861.00,0.0204
860.00,0.0208
859.00,0.0213
858.00,0.0220
857.00,0.0227
856.00,0.0234
855.00,0.0241
854.00,0.0248
853.00,0.0255
852.00,0.0260
851.00,0.0265
850.00,0.0270
849.00,0.0275
848.00,0.0278
847.00,0.0281
846.00,0.0284
845.00,0.0285
844.00,0.0286
843.00,0.0286
842.00,0.0286
841.00,0.0285
840.00,0.0284
839.00,0.0282
838.00,0.0281
837.00,0.0281
836.00,0.0280
835.00,0.0279
834.00,0.0279
833.00,0.0279
832.00,0.0278
831.00,0.0277
830.00,0.0275
829.00,0.0273
828.00,0.0269
827.00,0.0265
826.00,0.0260
825.00,0.0254
824.00,0.0247
823.00,0.0241
822.00,0.0236
821.00,0.0230
820.00,0.0224
819.00,0.0219
818.00,0.0214
817.00,0.0210
816.00,0.0206
815.00,0.0203
814.00,0.0200
813.00,0.0198
812.00,0.0196
811.00,0.0195
810.00,0.0195
809.00,0.0196
808.00,0.0196
807.00,0.0196
806.00,0.0197
805.00,0.0197
804.00,0.0196
803.00,0.0194
802.00,0.0192
801.00,0.0189
800.00,0.0187
799.00,0.0186
798.00,0.0186
797.00,0.0187
796.00,0.0187
795.00,0.0189
794.00,0.0190
793.00,0.0192
792.00,0.0191
791.00,0.0190
790.00,0.0189
789.00,0.0188
788.00,0.0186
787.00,0.0185
786.00,0.0184
785.00,0.0184
784.00,0.0183
783.00,0.0183
782.00,0.0184
781.00,0.0185
780.00,0.0186
779.00,0.0188
778.00,0.0191
777.00,0.0194
776.00,0.0196
775.00,0.0199
774.00,0.0201
773.00,0.0203
772.00,0.0205
771.00,0.0206
770.00,0.0207
769.00,0.0209
768.00,0.0210
767.00,0.0211
766.00,0.0213
765.00,0.0214
764.00,0.0216
763.00,0.0218
762.00,0.0221
761.00,0.0225
760.00,0.0229
759.00,0.0233
758.00,0.0237
757.00,0.0240
756.00,0.0241
755.00,0.0242
754.00,0.0244
753.00,0.0244
752.00,0.0245
751.00,0.0245
750.00,0.0247
749.00,0.0249
748.00,0.0251
747.00,0.0255
746.00,0.0259
745.00,0.0263
744.00,0.0266
743.00,0.0269
742.00,0.0273
741.00,0.0277
740.00,0.0281
739.00,0.0285
738.00,0.0290
737.00,0.0295
736.00,0.0298
735.00,0.0300
734.00,0.0302
733.00,0.0303
732.00,0.0301
731.00,0.0299
730.00,0.0297
729.00,0.0292
728.00,0.0287
727.00,0.0281
726.00,0.0276
725.00,0.0272
724.00,0.0266
723.00,0.0261
722.00,0.0258
721.00,0.0255
720.00,0.0252
719.00,0.0249
718.00,0.0247
717.00,0.0245
716.00,0.0244
715.00,0.0242
714.00,0.0241
713.00,0.0241
712.00,0.0239
711.00,0.0238
710.00,0.0238
709.00,0.0239
708.00,0.0239
707.00,0.0240
706.00,0.0241
705.00,0.0242
704.00,0.0242
703.00,0.0243
702.00,0.0244
701.00,0.0245
700.00,0.0245
699.00,0.0246
698.00,0.0247
697.00,0.0249
696.00,0.0249
695.00,0.0251
694.00,0.0253
693.00,0.0256
692.00,0.0258
691.00,0.0261
690.00,0.0264
689.00,0.0267
688.00,0.0269
687.00,0.0272
686.00,0.0275
685.00,0.0279
684.00,0.0282
683.00,0.0286
682.00,0.0290
681.00,0.0293
680.00,0.0296
679.00,0.0298
678.00,0.0302
677.00,0.0306
676.00,0.0309
675.00,0.0313
674.00,0.0316
673.00,0.0320
672.00,0.0323
671.00,0.0326
670.00,0.0330
669.00,0.0334
668.00,0.0338
667.00,0.0345
666.00,0.0352
665.00,0.0357
664.00,0.0362
663.00,0.0367
662.00,0.0374
661.00,0.0381
660.00,0.0388
659.00,0.0395
658.00,0.0403
657.00,0.0411
656.00,0.0418
655.00,0.0426
654.00,0.0433
653.00,0.0441
652.00,0.0447
651.00,0.0453
650.00,0.0458
649.00,0.0461
648.00,0.0462
647.00,0.0463
646.00,0.0462
645.00,0.0460
644.00,0.0455
643.00,0.0448
642.00,0.0442
641.00,0.0434
640.00,0.0426
639.00,0.0418
638.00,0.0411
637.00,0.0405
636.00,0.0398
635.00,0.0391
634.00,0.0386
633.00,0.0381
632.00,0.0376
631.00,0.0371
630.00,0.0368
629.00,0.0364
628.00,0.0360
627.00,0.0356
626.00,0.0353
625.00,0.0350
624.00,0.0347
623.00,0.0345
622.00,0.0344
621.00,0.0343
620.00,0.0341
619.00,0.0340
618.00,0.0341
617.00,0.0341
616.00,0.0341
615.00,0.0341
614.00,0.0343
613.00,0.0344
612.00,0.0344
611.00,0.0344
610.00,0.0345
609.00,0.0346
608.00,0.0346
607.00,0.0347
606.00,0.0348
605.00,0.0349
604.00,0.0349
603.00,0.0349
602.00,0.0351
601.00,0.0353
600.00,0.0353
599.00,0.0353
598.00,0.0355
597.00,0.0357
596.00,0.0357
595.00,0.0359
594.00,0.0362
593.00,0.0366
592.00,0.0369
591.00,0.0372
590.00,0.0377
589.00,0.0381
588.00,0.0385
587.00,0.0390
586.00,0.0397
585.00,0.0406
584.00,0.0415
583.00,0.0424
582.00,0.0434
581.00,0.0442
580.00,0.0447
579.00,0.0452
578.00,0.0458
577.00,0.0463
576.00,0.0466
575.00,0.0468
574.00,0.0470
573.00,0.0471
572.00,0.0469
571.00,0.0467
570.00,0.0465
569.00,0.0463
568.00,0.0459
567.00,0.0454
566.00,0.0451
565.00,0.0447
564.00,0.0440
563.00,0.0434
562.00,0.0430
561.00,0.0428
560.00,0.0425
559.00,0.0422
558.00,0.0422
557.00,0.0422
556.00,0.0419
555.00,0.0417
554.00,0.0416
553.00,0.0414
552.00,0.0412
551.00,0.0411
550.00,0.0412
549.00,0.0410
548.00,0.0404
547.00,0.0397
546.00,0.0393
545.00,0.0391
544.00,0.0388
543.00,0.0385
542.00,0.0383
541.00,0.0380
540.00,0.0376
539.00,0.0373
538.00,0.0373
537.00,0.0374
536.00,0.0372
535.00,0.0371
534.00,0.0373
533.00,0.0374
532.00,0.0371
531.00,0.0368
530.00,0.0368
529.00,0.0370
528.00,0.0371
527.00,0.0373
526.00,0.0378
525.00,0.0381
524.00,0.0382
523.00,0.0382
522.00,0.0382
521.00,0.0381
520.00,0.0375
519.00,0.0370
518.00,0.0368
517.00,0.0365
516.00,0.0361
515.00,0.0357
514.00,0.0356
513.00,0.0356
512.00,0.0354
511.00,0.0353
510.00,0.0354
509.00,0.0354
508.00,0.0351
507.00,0.0348
506.00,0.0348
505.00,0.0348
504.00,0.0345
503.00,0.0343
502.00,0.0344
501.00,0.0347
500.00,0.0347
499.00,0.0349
498.00,0.0353
497.00,0.0356
496.00,0.0354
495.00,0.0353
494.00,0.0356
493.00,0.0360
492.00,0.0362
491.00,0.0364
490.00,0.0367
489.00,0.0369
488.00,0.0367
487.00,0.0365
486.00,0.0367
485.00,0.0368
484.00,0.0366
483.00,0.0365
482.00,0.0367
481.00,0.0368
480.00,0.0366
479.00,0.0364
478.00,0.0366
477.00,0.0368
476.00,0.0365
475.00,0.0364
474.00,0.0366
473.00,0.0368
472.00,0.0364
471.00,0.0360
470.00,0.0361
469.00,0.0364
468.00,0.0363
467.00,0.0365
466.00,0.0371
465.00,0.0376
464.00,0.0375
463.00,0.0372
462.00,0.0371
461.00,0.0369
460.00,0.0363
459.00,0.0359
458.00,0.0362
457.00,0.0363
456.00,0.0358
455.00,0.0352
454.00,0.0351
453.00,0.0350
452.00,0.0348
451.00,0.0350
450.00,0.0357
449.00,0.0360
448.00,0.0354
447.00,0.0347
446.00,0.0346
445.00,0.0347
444.00,0.0343
443.00,0.0339
442.00,0.0342
441.00,0.0343
440.00,0.0339
439.00,0.0335
438.00,0.0336
437.00,0.0340
436.00,0.0339
435.00,0.0340
434.00,0.0346
433.00,0.0350
432.00,0.0345
431.00,0.0340
430.00,0.0342
429.00,0.0343
428.00,0.0341
427.00,0.0340
426.00,0.0348
425.00,0.0354
424.00,0.0351
423.00,0.0344
422.00,0.0343
421.00,0.0340
420.00,0.0328
419.00,0.0320
418.00,0.0328
417.00,0.0335
416.00,0.0333
415.00,0.0333
414.00,0.0344
413.00,0.0353
412.00,0.0349
411.00,0.0342
410.00,0.0344
409.00,0.0343
408.00,0.0330
407.00,0.0318
406.00,0.0322
405.00,0.0331
404.00,0.0330
403.00,0.0326
402.00,0.0328
401.00,0.0325
400.00,0.0309
