Created as New Dataset,Sample 553 By YargerLab Date Thursday, June 05 2025
cm-1,A
4000.00,0.0014
3999.00,0.0014
3998.00,0.0014
3997.00,0.0014
3996.00,0.0014
3995.00,0.0014
3994.00,0.0014
3993.00,0.0014
3992.00,0.0013
3991.00,0.0013
3990.00,0.0013
3989.00,0.0013
3988.00,0.0014
3987.00,0.0014
3986.00,0.0014
3985.00,0.0014
3984.00,0.0013
3983.00,0.0013
3982.00,0.0013
3981.00,0.0013
3980.00,0.0013
3979.00,0.0013
3978.00,0.0013
3977.00,0.0013
3976.00,0.0013
3975.00,0.0013
3974.00,0.0013
3973.00,0.0013
3972.00,0.0013
3971.00,0.0013
3970.00,0.0013
3969.00,0.0013
3968.00,0.0013
3967.00,0.0013
3966.00,0.0013
3965.00,0.0013
3964.00,0.0014
3963.00,0.0013
3962.00,0.0013
3961.00,0.0013
3960.00,0.0013
3959.00,0.0013
3958.00,0.0013
3957.00,0.0013
3956.00,0.0012
3955.00,0.0012
3954.00,0.0013
3953.00,0.0013
3952.00,0.0012
3951.00,0.0012
3950.00,0.0011
3949.00,0.0011
3948.00,0.0010
3947.00,0.0010
3946.00,0.0010
3945.00,0.0011
3944.00,0.0011
3943.00,0.0012
3942.00,0.0013
3941.00,0.0013
3940.00,0.0013
3939.00,0.0013
3938.00,0.0013
3937.00,0.0013
3936.00,0.0012
3935.00,0.0012
3934.00,0.0011
3933.00,0.0011
3932.00,0.0011
3931.00,0.0011
3930.00,0.0011
3929.00,0.0012
3928.00,0.0012
3927.00,0.0012
3926.00,0.0012
3925.00,0.0012
3924.00,0.0012
3923.00,0.0012
3922.00,0.0011
3921.00,0.0011
3920.00,0.0010
3919.00,0.0010
3918.00,0.0010
3917.00,0.0010
3916.00,0.0010
3915.00,0.0011
3914.00,0.0011
3913.00,0.0012
3912.00,0.0012
3911.00,0.0012
3910.00,0.0013
3909.00,0.0013
3908.00,0.0013
3907.00,0.0013
3906.00,0.0012
3905.00,0.0011
3904.00,0.0009
3903.00,0.0008
3902.00,0.0007
3901.00,0.0007
3900.00,0.0007
3899.00,0.0008
3898.00,0.0008
3897.00,0.0009
3896.00,0.0009
3895.00,0.0010
3894.00,0.0010
3893.00,0.0011
3892.00,0.0011
3891.00,0.0011
3890.00,0.0010
3889.00,0.0010
3888.00,0.0009
3887.00,0.0008
3886.00,0.0008
3885.00,0.0009
3884.00,0.0009
3883.00,0.0009
3882.00,0.0009
3881.00,0.0009
3880.00,0.0009
3879.00,0.0009
3878.00,0.0009
3877.00,0.0009
3876.00,0.0009
3875.00,0.0010
3874.00,0.0010
3873.00,0.0010
3872.00,0.0009
3871.00,0.0008
3870.00,0.0007
3869.00,0.0007
3868.00,0.0007
3867.00,0.0007
3866.00,0.0007
3865.00,0.0007
3864.00,0.0008
3863.00,0.0008
3862.00,0.0008
3861.00,0.0008
3860.00,0.0008
3859.00,0.0009
3858.00,0.0010
3857.00,0.0011
3856.00,0.0011
3855.00,0.0010
3854.00,0.0009
3853.00,0.0009
3852.00,0.0008
3851.00,0.0007
3850.00,0.0007
3849.00,0.0007
3848.00,0.0007
3847.00,0.0008
3846.00,0.0009
3845.00,0.0009
3844.00,0.0009
3843.00,0.0009
3842.00,0.0009
3841.00,0.0009
3840.00,0.0009
3839.00,0.0009
3838.00,0.0009
3837.00,0.0009
3836.00,0.0009
3835.00,0.0009
3834.00,0.0009
3833.00,0.0009
3832.00,0.0009
3831.00,0.0009
3830.00,0.0009
3829.00,0.0009
3828.00,0.0009
3827.00,0.0009
3826.00,0.0009
3825.00,0.0009
3824.00,0.0009
3823.00,0.0008
3822.00,0.0008
3821.00,0.0008
3820.00,0.0009
3819.00,0.0009
3818.00,0.0008
3817.00,0.0008
3816.00,0.0008
3815.00,0.0009
3814.00,0.0010
3813.00,0.0010
3812.00,0.0010
3811.00,0.0010
3810.00,0.0011
3809.00,0.0011
3808.00,0.0011
3807.00,0.0010
3806.00,0.0010
3805.00,0.0010
3804.00,0.0009
3803.00,0.0009
3802.00,0.0009
3801.00,0.0009
3800.00,0.0009
3799.00,0.0009
3798.00,0.0009
3797.00,0.0009
3796.00,0.0009
3795.00,0.0010
3794.00,0.0010
3793.00,0.0011
3792.00,0.0011
3791.00,0.0012
3790.00,0.0012
3789.00,0.0012
3788.00,0.0012
3787.00,0.0012
3786.00,0.0012
3785.00,0.0011
3784.00,0.0011
3783.00,0.0011
3782.00,0.0011
3781.00,0.0011
3780.00,0.0011
3779.00,0.0011
3778.00,0.0012
3777.00,0.0011
3776.00,0.0011
3775.00,0.0011
3774.00,0.0011
3773.00,0.0011
3772.00,0.0011
3771.00,0.0011
3770.00,0.0010
3769.00,0.0010
3768.00,0.0009
3767.00,0.0009
3766.00,0.0009
3765.00,0.0010
3764.00,0.0011
3763.00,0.0011
3762.00,0.0011
3761.00,0.0011
3760.00,0.0010
3759.00,0.0010
3758.00,0.0010
3757.00,0.0009
3756.00,0.0009
3755.00,0.0009
3754.00,0.0009
3753.00,0.0008
3752.00,0.0008
3751.00,0.0006
3750.00,0.0005
3749.00,0.0005
3748.00,0.0006
3747.00,0.0006
3746.00,0.0006
3745.00,0.0005
3744.00,0.0005
3743.00,0.0006
3742.00,0.0006
3741.00,0.0006
3740.00,0.0005
3739.00,0.0005
3738.00,0.0005
3737.00,0.0004
3736.00,0.0005
3735.00,0.0005
3734.00,0.0004
3733.00,0.0004
3732.00,0.0005
3731.00,0.0006
3730.00,0.0007
3729.00,0.0007
3728.00,0.0007
3727.00,0.0007
3726.00,0.0007
3725.00,0.0008
3724.00,0.0008
3723.00,0.0008
3722.00,0.0008
3721.00,0.0009
3720.00,0.0009
3719.00,0.0010
3718.00,0.0010
3717.00,0.0010
3716.00,0.0010
3715.00,0.0010
3714.00,0.0010
3713.00,0.0009
3712.00,0.0009
3711.00,0.0009
3710.00,0.0009
3709.00,0.0009
3708.00,0.0010
3707.00,0.0010
3706.00,0.0011
3705.00,0.0011
3704.00,0.0012
3703.00,0.0013
3702.00,0.0013
3701.00,0.0013
3700.00,0.0013
3699.00,0.0012
3698.00,0.0012
3697.00,0.0013
3696.00,0.0013
3695.00,0.0014
3694.00,0.0015
3693.00,0.0015
3692.00,0.0015
3691.00,0.0015
3690.00,0.0015
3689.00,0.0014
3688.00,0.0013
3687.00,0.0014
3686.00,0.0014
3685.00,0.0015
3684.00,0.0015
3683.00,0.0016
3682.00,0.0016
3681.00,0.0017
3680.00,0.0017
3679.00,0.0018
3678.00,0.0017
3677.00,0.0016
3676.00,0.0016
3675.00,0.0017
3674.00,0.0017
3673.00,0.0018
3672.00,0.0018
3671.00,0.0018
3670.00,0.0020
3669.00,0.0021
3668.00,0.0022
3667.00,0.0022
3666.00,0.0023
3665.00,0.0024
3664.00,0.0025
3663.00,0.0026
3662.00,0.0027
3661.00,0.0028
3660.00,0.0028
3659.00,0.0029
3658.00,0.0029
3657.00,0.0030
3656.00,0.0031
3655.00,0.0032
3654.00,0.0032
3653.00,0.0031
3652.00,0.0030
3651.00,0.0030
3650.00,0.0031
3649.00,0.0031
3648.00,0.0033
3647.00,0.0034
3646.00,0.0036
3645.00,0.0038
3644.00,0.0039
3643.00,0.0040
3642.00,0.0042
3641.00,0.0044
3640.00,0.0045
3639.00,0.0046
3638.00,0.0047
3637.00,0.0048
3636.00,0.0048
3635.00,0.0049
3634.00,0.0049
3633.00,0.0050
3632.00,0.0050
3631.00,0.0050
3630.00,0.0051
3629.00,0.0053
3628.00,0.0056
3627.00,0.0058
3626.00,0.0059
3625.00,0.0059
3624.00,0.0060
3623.00,0.0061
3622.00,0.0062
3621.00,0.0063
3620.00,0.0064
3619.00,0.0066
3618.00,0.0067
3617.00,0.0068
3616.00,0.0069
3615.00,0.0069
3614.00,0.0070
3613.00,0.0072
3612.00,0.0073
3611.00,0.0073
3610.00,0.0074
3609.00,0.0076
3608.00,0.0078
3607.00,0.0081
3606.00,0.0082
3605.00,0.0083
3604.00,0.0084
3603.00,0.0085
3602.00,0.0086
3601.00,0.0087
3600.00,0.0089
3599.00,0.0090
3598.00,0.0091
3597.00,0.0092
3596.00,0.0093
3595.00,0.0095
3594.00,0.0097
3593.00,0.0098
3592.00,0.0098
3591.00,0.0098
3590.00,0.0098
3589.00,0.0099
3588.00,0.0102
3587.00,0.0105
3586.00,0.0108
3585.00,0.0109
3584.00,0.0110
3583.00,0.0111
3582.00,0.0112
3581.00,0.0113
3580.00,0.0115
3579.00,0.0117
3578.00,0.0118
3577.00,0.0120
3576.00,0.0121
3575.00,0.0123
3574.00,0.0124
3573.00,0.0125
3572.00,0.0125
3571.00,0.0125
3570.00,0.0125
3569.00,0.0125
3568.00,0.0127
3567.00,0.0130
3566.00,0.0133
3565.00,0.0136
3564.00,0.0138
3563.00,0.0139
3562.00,0.0140
3561.00,0.0141
3560.00,0.0143
3559.00,0.0144
3558.00,0.0146
3557.00,0.0147
3556.00,0.0147
3555.00,0.0148
3554.00,0.0150
3553.00,0.0152
3552.00,0.0154
3551.00,0.0155
3550.00,0.0156
3549.00,0.0156
3548.00,0.0157
3547.00,0.0158
3546.00,0.0160
3545.00,0.0163
3544.00,0.0165
3543.00,0.0166
3542.00,0.0168
3541.00,0.0169
3540.00,0.0169
3539.00,0.0171
3538.00,0.0172
3537.00,0.0174
3536.00,0.0176
3535.00,0.0177
3534.00,0.0178
3533.00,0.0179
3532.00,0.0179
3531.00,0.0180
3530.00,0.0181
3529.00,0.0183
3528.00,0.0184
3527.00,0.0185
3526.00,0.0185
3525.00,0.0187
3524.00,0.0188
3523.00,0.0190
3522.00,0.0192
3521.00,0.0194
3520.00,0.0196
3519.00,0.0197
3518.00,0.0198
3517.00,0.0200
3516.00,0.0201
3515.00,0.0202
3514.00,0.0202
3513.00,0.0203
3512.00,0.0204
3511.00,0.0206
3510.00,0.0207
3509.00,0.0209
3508.00,0.0211
3507.00,0.0211
3506.00,0.0212
3505.00,0.0213
3504.00,0.0214
3503.00,0.0216
3502.00,0.0218
3501.00,0.0220
3500.00,0.0221
3499.00,0.0222
3498.00,0.0223
3497.00,0.0224
3496.00,0.0225
3495.00,0.0227
3494.00,0.0229
3493.00,0.0230
3492.00,0.0231
3491.00,0.0233
3490.00,0.0234
3489.00,0.0235
3488.00,0.0237
3487.00,0.0238
3486.00,0.0239
3485.00,0.0240
3484.00,0.0241
3483.00,0.0243
3482.00,0.0245
3481.00,0.0247
3480.00,0.0248
3479.00,0.0249
3478.00,0.0250
3477.00,0.0252
3476.00,0.0253
3475.00,0.0254
3474.00,0.0256
3473.00,0.0257
3472.00,0.0258
3471.00,0.0259
3470.00,0.0261
3469.00,0.0262
3468.00,0.0264
3467.00,0.0266
3466.00,0.0267
3465.00,0.0268
3464.00,0.0270
3463.00,0.0271
3462.00,0.0272
3461.00,0.0273
3460.00,0.0275
3459.00,0.0276
3458.00,0.0278
3457.00,0.0279
3456.00,0.0280
3455.00,0.0281
3454.00,0.0283
3453.00,0.0284
3452.00,0.0285
3451.00,0.0286
3450.00,0.0287
3449.00,0.0287
3448.00,0.0289
3447.00,0.0291
3446.00,0.0293
3445.00,0.0294
3444.00,0.0296
3443.00,0.0297
3442.00,0.0299
3441.00,0.0300
3440.00,0.0302
3439.00,0.0303
3438.00,0.0304
3437.00,0.0306
3436.00,0.0307
3435.00,0.0309
3434.00,0.0311
3433.00,0.0312
3432.00,0.0313
3431.00,0.0314
3430.00,0.0316
3429.00,0.0317
3428.00,0.0319
3427.00,0.0320
3426.00,0.0321
3425.00,0.0322
3424.00,0.0323
3423.00,0.0324
3422.00,0.0326
3421.00,0.0328
3420.00,0.0330
3419.00,0.0332
3418.00,0.0333
3417.00,0.0334
3416.00,0.0336
3415.00,0.0337
3414.00,0.0339
3413.00,0.0340
3412.00,0.0342
3411.00,0.0343
3410.00,0.0344
3409.00,0.0346
3408.00,0.0347
3407.00,0.0349
3406.00,0.0350
3405.00,0.0352
3404.00,0.0353
3403.00,0.0354
3402.00,0.0355
3401.00,0.0356
3400.00,0.0358
3399.00,0.0359
3398.00,0.0361
3397.00,0.0362
3396.00,0.0363
3395.00,0.0364
3394.00,0.0366
3393.00,0.0367
3392.00,0.0369
3391.00,0.0371
3390.00,0.0372
3389.00,0.0374
3388.00,0.0375
3387.00,0.0377
3386.00,0.0378
3385.00,0.0380
3384.00,0.0381
3383.00,0.0383
3382.00,0.0384
3381.00,0.0386
3380.00,0.0388
3379.00,0.0389
3378.00,0.0391
3377.00,0.0392
3376.00,0.0394
3375.00,0.0396
3374.00,0.0398
3373.00,0.0399
3372.00,0.0401
3371.00,0.0402
3370.00,0.0403
3369.00,0.0405
3368.00,0.0407
3367.00,0.0409
3366.00,0.0412
3365.00,0.0414
3364.00,0.0416
3363.00,0.0418
3362.00,0.0420
3361.00,0.0422
3360.00,0.0425
3359.00,0.0427
3358.00,0.0429
3357.00,0.0431
3356.00,0.0434
3355.00,0.0436
3354.00,0.0438
3353.00,0.0440
3352.00,0.0442
3351.00,0.0444
3350.00,0.0447
3349.00,0.0449
3348.00,0.0452
3347.00,0.0454
3346.00,0.0456
3345.00,0.0458
3344.00,0.0461
3343.00,0.0463
3342.00,0.0465
3341.00,0.0468
3340.00,0.0470
3339.00,0.0473
3338.00,0.0476
3337.00,0.0479
3336.00,0.0483
3335.00,0.0486
3334.00,0.0489
3333.00,0.0492
3332.00,0.0495
3331.00,0.0498
3330.00,0.0501
3329.00,0.0504
3328.00,0.0506
3327.00,0.0509
3326.00,0.0512
3325.00,0.0516
3324.00,0.0520
3323.00,0.0524
3322.00,0.0528
3321.00,0.0532
3320.00,0.0536
3319.00,0.0540
3318.00,0.0544
3317.00,0.0547
3316.00,0.0551
3315.00,0.0555
3314.00,0.0559
3313.00,0.0562
3312.00,0.0566
3311.00,0.0569
3310.00,0.0573
3309.00,0.0576
3308.00,0.0580
3307.00,0.0585
3306.00,0.0589
3305.00,0.0594
3304.00,0.0599
3303.00,0.0605
3302.00,0.0610
3301.00,0.0614
3300.00,0.0618
3299.00,0.0622
3298.00,0.0626
3297.00,0.0630
3296.00,0.0634
3295.00,0.0638
3294.00,0.0642
3293.00,0.0646
3292.00,0.0651
3291.00,0.0655
3290.00,0.0660
3289.00,0.0664
3288.00,0.0668
3287.00,0.0671
3286.00,0.0675
3285.00,0.0678
3284.00,0.0681
3283.00,0.0683
3282.00,0.0686
3281.00,0.0688
3280.00,0.0690
3279.00,0.0691
3278.00,0.0692
3277.00,0.0692
3276.00,0.0693
3275.00,0.0693
3274.00,0.0692
3273.00,0.0692
3272.00,0.0691
3271.00,0.0690
3270.00,0.0690
3269.00,0.0689
3268.00,0.0688
3267.00,0.0686
3266.00,0.0684
3265.00,0.0681
3264.00,0.0678
3263.00,0.0675
3262.00,0.0671
3261.00,0.0667
3260.00,0.0663
3259.00,0.0658
3258.00,0.0654
3257.00,0.0650
3256.00,0.0646
3255.00,0.0642
3254.00,0.0639
3253.00,0.0635
3252.00,0.0631
3251.00,0.0627
3250.00,0.0621
3249.00,0.0616
3248.00,0.0611
3247.00,0.0607
3246.00,0.0603
3245.00,0.0600
3244.00,0.0597
3243.00,0.0594
3242.00,0.0590
3241.00,0.0586
3240.00,0.0582
3239.00,0.0579
3238.00,0.0574
3237.00,0.0570
3236.00,0.0566
3235.00,0.0561
3234.00,0.0558
3233.00,0.0555
3232.00,0.0553
3231.00,0.0551
3230.00,0.0548
3229.00,0.0546
3228.00,0.0543
3227.00,0.0540
3226.00,0.0537
3225.00,0.0534
3224.00,0.0531
3223.00,0.0528
3222.00,0.0525
3221.00,0.0522
3220.00,0.0519
3219.00,0.0517
3218.00,0.0515
3217.00,0.0512
3216.00,0.0509
3215.00,0.0507
3214.00,0.0504
3213.00,0.0502
3212.00,0.0500
3211.00,0.0497
3210.00,0.0495
3209.00,0.0492
3208.00,0.0490
3207.00,0.0488
3206.00,0.0485
3205.00,0.0483
3204.00,0.0481
3203.00,0.0478
3202.00,0.0476
3201.00,0.0473
3200.00,0.0471
3199.00,0.0468
3198.00,0.0466
3197.00,0.0463
3196.00,0.0461
3195.00,0.0458
3194.00,0.0456
3193.00,0.0454
3192.00,0.0451
3191.00,0.0449
3190.00,0.0447
3189.00,0.0444
3188.00,0.0441
3187.00,0.0439
3186.00,0.0437
3185.00,0.0434
3184.00,0.0432
3183.00,0.0430
3182.00,0.0428
3181.00,0.0425
3180.00,0.0423
3179.00,0.0421
3178.00,0.0419
3177.00,0.0417
3176.00,0.0415
3175.00,0.0413
3174.00,0.0410
3173.00,0.0408
3172.00,0.0406
3171.00,0.0403
3170.00,0.0401
3169.00,0.0399
3168.00,0.0397
3167.00,0.0395
3166.00,0.0394
3165.00,0.0392
3164.00,0.0390
3163.00,0.0388
3162.00,0.0386
3161.00,0.0384
3160.00,0.0382
3159.00,0.0380
3158.00,0.0378
3157.00,0.0376
3156.00,0.0374
3155.00,0.0372
3154.00,0.0370
3153.00,0.0368
3152.00,0.0367
3151.00,0.0366
3150.00,0.0364
3149.00,0.0363
3148.00,0.0362
3147.00,0.0360
3146.00,0.0359
3145.00,0.0357
3144.00,0.0356
3143.00,0.0354
3142.00,0.0352
3141.00,0.0351
3140.00,0.0349
3139.00,0.0348
3138.00,0.0347
3137.00,0.0346
3136.00,0.0345
3135.00,0.0344
3134.00,0.0343
3133.00,0.0342
3132.00,0.0341
3131.00,0.0340
3130.00,0.0339
3129.00,0.0339
3128.00,0.0338
3127.00,0.0337
3126.00,0.0337
3125.00,0.0335
3124.00,0.0334
3123.00,0.0333
3122.00,0.0331
3121.00,0.0330
3120.00,0.0330
3119.00,0.0329
3118.00,0.0329
3117.00,0.0329
3116.00,0.0330
3115.00,0.0330
3114.00,0.0331
3113.00,0.0332
3112.00,0.0332
3111.00,0.0332
3110.00,0.0332
3109.00,0.0332
3108.00,0.0333
3107.00,0.0334
3106.00,0.0335
3105.00,0.0335
3104.00,0.0335
3103.00,0.0335
3102.00,0.0335
3101.00,0.0335
3100.00,0.0336
3099.00,0.0338
3098.00,0.0339
3097.00,0.0340
3096.00,0.0341
3095.00,0.0342
3094.00,0.0342
3093.00,0.0342
3092.00,0.0342
3091.00,0.0342
3090.00,0.0342
3089.00,0.0343
3088.00,0.0344
3087.00,0.0344
3086.00,0.0343
3085.00,0.0343
3084.00,0.0343
3083.00,0.0343
3082.00,0.0342
3081.00,0.0342
3080.00,0.0342
3079.00,0.0343
3078.00,0.0343
3077.00,0.0344
3076.00,0.0345
3075.00,0.0345
3074.00,0.0345
3073.00,0.0345
3072.00,0.0344
3071.00,0.0342
3070.00,0.0341
3069.00,0.0340
3068.00,0.0338
3067.00,0.0338
3066.00,0.0337
3065.00,0.0337
3064.00,0.0336
3063.00,0.0335
3062.00,0.0334
3061.00,0.0333
3060.00,0.0331
3059.00,0.0329
3058.00,0.0327
3057.00,0.0325
3056.00,0.0324
3055.00,0.0322
3054.00,0.0320
3053.00,0.0318
3052.00,0.0315
3051.00,0.0313
3050.00,0.0312
3049.00,0.0311
3048.00,0.0309
3047.00,0.0307
3046.00,0.0305
3045.00,0.0302
3044.00,0.0300
3043.00,0.0298
3042.00,0.0297
3041.00,0.0296
3040.00,0.0296
3039.00,0.0295
3038.00,0.0293
3037.00,0.0291
3036.00,0.0289
3035.00,0.0286
3034.00,0.0285
3033.00,0.0284
3032.00,0.0283
3031.00,0.0283
3030.00,0.0282
3029.00,0.0281
3028.00,0.0280
3027.00,0.0278
3026.00,0.0276
3025.00,0.0274
3024.00,0.0272
3023.00,0.0271
3022.00,0.0269
3021.00,0.0268
3020.00,0.0266
3019.00,0.0264
3018.00,0.0262
3017.00,0.0260
3016.00,0.0258
3015.00,0.0256
3014.00,0.0255
3013.00,0.0253
3012.00,0.0252
3011.00,0.0252
3010.00,0.0252
3009.00,0.0252
3008.00,0.0251
3007.00,0.0250
3006.00,0.0249
3005.00,0.0248
3004.00,0.0247
3003.00,0.0246
3002.00,0.0245
3001.00,0.0244
3000.00,0.0244
2999.00,0.0244
2998.00,0.0244
2997.00,0.0245
2996.00,0.0246
2995.00,0.0246
2994.00,0.0248
2993.00,0.0249
2992.00,0.0251
2991.00,0.0253
2990.00,0.0256
2989.00,0.0258
2988.00,0.0261
2987.00,0.0264
2986.00,0.0266
2985.00,0.0268
2984.00,0.0269
2983.00,0.0270
2982.00,0.0272
2981.00,0.0276
2980.00,0.0281
2979.00,0.0287
2978.00,0.0293
2977.00,0.0299
2976.00,0.0304
2975.00,0.0309
2974.00,0.0314
2973.00,0.0319
2972.00,0.0324
2971.00,0.0328
2970.00,0.0333
2969.00,0.0338
2968.00,0.0343
2967.00,0.0347
2966.00,0.0351
2965.00,0.0354
2964.00,0.0357
2963.00,0.0359
2962.00,0.0361
2961.00,0.0362
2960.00,0.0362
2959.00,0.0361
2958.00,0.0360
2957.00,0.0357
2956.00,0.0355
2955.00,0.0352
2954.00,0.0349
2953.00,0.0346
2952.00,0.0344
2951.00,0.0342
2950.00,0.0341
2949.00,0.0340
2948.00,0.0339
2947.00,0.0340
2946.00,0.0341
2945.00,0.0343
2944.00,0.0346
2943.00,0.0350
2942.00,0.0354
2941.00,0.0358
2940.00,0.0362
2939.00,0.0366
2938.00,0.0370
2937.00,0.0373
2936.00,0.0377
2935.00,0.0380
2934.00,0.0382
2933.00,0.0384
2932.00,0.0386
2931.00,0.0387
2930.00,0.0387
2929.00,0.0388
2928.00,0.0388
2927.00,0.0388
2926.00,0.0387
2925.00,0.0386
2924.00,0.0384
2923.00,0.0381
2922.00,0.0378
2921.00,0.0374
2920.00,0.0369
2919.00,0.0364
2918.00,0.0359
2917.00,0.0353
2916.00,0.0347
2915.00,0.0341
2914.00,0.0335
2913.00,0.0329
2912.00,0.0324
2911.00,0.0319
2910.00,0.0314
2909.00,0.0310
2908.00,0.0306
2907.00,0.0302
2906.00,0.0298
2905.00,0.0295
2904.00,0.0292
2903.00,0.0289
2902.00,0.0287
2901.00,0.0284
2900.00,0.0281
2899.00,0.0279
2898.00,0.0276
2897.00,0.0274
2896.00,0.0271
2895.00,0.0270
2894.00,0.0268
2893.00,0.0266
2892.00,0.0265
2891.00,0.0264
2890.00,0.0262
2889.00,0.0262
2888.00,0.0262
2887.00,0.0262
2886.00,0.0262
2885.00,0.0263
2884.00,0.0264
2883.00,0.0265
2882.00,0.0267
2881.00,0.0269
2880.00,0.0271
2879.00,0.0273
2878.00,0.0274
2877.00,0.0276
2876.00,0.0276
2875.00,0.0276
2874.00,0.0275
2873.00,0.0275
2872.00,0.0273
2871.00,0.0271
2870.00,0.0269
2869.00,0.0266
2868.00,0.0263
2867.00,0.0260
2866.00,0.0257
2865.00,0.0255
2864.00,0.0253
2863.00,0.0251
2862.00,0.0250
2861.00,0.0249
2860.00,0.0249
2859.00,0.0249
2858.00,0.0249
2857.00,0.0249
2856.00,0.0249
2855.00,0.0249
2854.00,0.0248
2853.00,0.0246
2852.00,0.0243
2851.00,0.0240
2850.00,0.0236
2849.00,0.0231
2848.00,0.0226
2847.00,0.0221
2846.00,0.0216
2845.00,0.0212
2844.00,0.0208
2843.00,0.0204
2842.00,0.0201
2841.00,0.0198
2840.00,0.0195
2839.00,0.0193
2838.00,0.0191
2837.00,0.0189
2836.00,0.0188
2835.00,0.0187
2834.00,0.0186
2833.00,0.0185
2832.00,0.0184
2831.00,0.0183
2830.00,0.0182
2829.00,0.0181
2828.00,0.0180
2827.00,0.0179
2826.00,0.0178
2825.00,0.0177
2824.00,0.0177
2823.00,0.0176
2822.00,0.0176
2821.00,0.0176
2820.00,0.0175
2819.00,0.0175
2818.00,0.0174
2817.00,0.0173
2816.00,0.0172
2815.00,0.0172
2814.00,0.0171
2813.00,0.0170
2812.00,0.0170
2811.00,0.0169
2810.00,0.0168
2809.00,0.0168
2808.00,0.0167
2807.00,0.0166
2806.00,0.0166
2805.00,0.0165
2804.00,0.0165
2803.00,0.0164
2802.00,0.0164
2801.00,0.0163
2800.00,0.0163
2799.00,0.0162
2798.00,0.0161
2797.00,0.0161
2796.00,0.0160
2795.00,0.0160
2794.00,0.0159
2793.00,0.0158
2792.00,0.0158
2791.00,0.0157
2790.00,0.0156
2789.00,0.0156
2788.00,0.0156
2787.00,0.0155
2786.00,0.0155
2785.00,0.0154
2784.00,0.0154
2783.00,0.0153
2782.00,0.0153
2781.00,0.0152
2780.00,0.0152
2779.00,0.0151
2778.00,0.0150
2777.00,0.0149
2776.00,0.0148
2775.00,0.0148
2774.00,0.0147
2773.00,0.0147
2772.00,0.0147
2771.00,0.0146
2770.00,0.0146
2769.00,0.0145
2768.00,0.0145
2767.00,0.0144
2766.00,0.0143
2765.00,0.0143
2764.00,0.0142
2763.00,0.0142
2762.00,0.0141
2761.00,0.0141
2760.00,0.0140
2759.00,0.0140
2758.00,0.0139
2757.00,0.0138
2756.00,0.0138
2755.00,0.0137
2754.00,0.0137
2753.00,0.0136
2752.00,0.0136
2751.00,0.0135
2750.00,0.0134
2749.00,0.0134
2748.00,0.0133
2747.00,0.0133
2746.00,0.0132
2745.00,0.0132
2744.00,0.0132
2743.00,0.0131
2742.00,0.0131
2741.00,0.0130
2740.00,0.0130
2739.00,0.0129
2738.00,0.0129
2737.00,0.0128
2736.00,0.0128
2735.00,0.0127
2734.00,0.0127
2733.00,0.0126
2732.00,0.0126
2731.00,0.0125
2730.00,0.0125
2729.00,0.0124
2728.00,0.0123
2727.00,0.0123
2726.00,0.0122
2725.00,0.0121
2724.00,0.0121
2723.00,0.0121
2722.00,0.0120
2721.00,0.0120
2720.00,0.0120
2719.00,0.0119
2718.00,0.0119
2717.00,0.0118
2716.00,0.0118
2715.00,0.0117
2714.00,0.0117
2713.00,0.0116
2712.00,0.0116
2711.00,0.0115
2710.00,0.0115
2709.00,0.0114
2708.00,0.0114
2707.00,0.0114
2706.00,0.0113
2705.00,0.0113
2704.00,0.0113
2703.00,0.0113
2702.00,0.0112
2701.00,0.0112
2700.00,0.0112
2699.00,0.0112
2698.00,0.0111
2697.00,0.0111
2696.00,0.0110
2695.00,0.0110
2694.00,0.0110
2693.00,0.0110
2692.00,0.0110
2691.00,0.0109
2690.00,0.0109
2689.00,0.0109
2688.00,0.0109
2687.00,0.0109
2686.00,0.0109
2685.00,0.0108
2684.00,0.0108
2683.00,0.0107
2682.00,0.0107
2681.00,0.0107
2680.00,0.0107
2679.00,0.0107
2678.00,0.0107
2677.00,0.0107
2676.00,0.0106
2675.00,0.0106
2674.00,0.0106
2673.00,0.0106
2672.00,0.0106
2671.00,0.0105
2670.00,0.0105
2669.00,0.0105
2668.00,0.0105
2667.00,0.0105
2666.00,0.0106
2665.00,0.0106
2664.00,0.0107
2663.00,0.0107
2662.00,0.0107
2661.00,0.0107
2660.00,0.0108
2659.00,0.0108
2658.00,0.0108
2657.00,0.0108
2656.00,0.0108
2655.00,0.0108
2654.00,0.0107
2653.00,0.0107
2652.00,0.0107
2651.00,0.0107
2650.00,0.0107
2649.00,0.0106
2648.00,0.0106
2647.00,0.0106
2646.00,0.0106
2645.00,0.0106
2644.00,0.0105
2643.00,0.0105
2642.00,0.0105
2641.00,0.0105
2640.00,0.0105
2639.00,0.0104
2638.00,0.0104
2637.00,0.0104
2636.00,0.0103
2635.00,0.0103
2634.00,0.0103
2633.00,0.0102
2632.00,0.0102
2631.00,0.0102
2630.00,0.0102
2629.00,0.0101
2628.00,0.0101
2627.00,0.0101
2626.00,0.0101
2625.00,0.0101
2624.00,0.0100
2623.00,0.0100
2622.00,0.0100
2621.00,0.0100
2620.00,0.0099
2619.00,0.0099
2618.00,0.0099
2617.00,0.0098
2616.00,0.0098
2615.00,0.0097
2614.00,0.0097
2613.00,0.0097
2612.00,0.0097
2611.00,0.0096
2610.00,0.0096
2609.00,0.0096
2608.00,0.0095
2607.00,0.0094
2606.00,0.0094
2605.00,0.0094
2604.00,0.0093
2603.00,0.0093
2602.00,0.0093
2601.00,0.0093
2600.00,0.0093
2599.00,0.0093
2598.00,0.0092
2597.00,0.0092
2596.00,0.0092
2595.00,0.0092
2594.00,0.0092
2593.00,0.0091
2592.00,0.0090
2591.00,0.0090
2590.00,0.0089
2589.00,0.0089
2588.00,0.0089
2587.00,0.0088
2586.00,0.0088
2585.00,0.0088
2584.00,0.0088
2583.00,0.0087
2582.00,0.0087
2581.00,0.0086
2580.00,0.0086
2579.00,0.0085
2578.00,0.0085
2577.00,0.0085
2576.00,0.0085
2575.00,0.0085
2574.00,0.0085
2573.00,0.0085
2572.00,0.0084
2571.00,0.0084
2570.00,0.0083
2569.00,0.0083
2568.00,0.0083
2567.00,0.0082
2566.00,0.0082
2565.00,0.0082
2564.00,0.0081
2563.00,0.0081
2562.00,0.0081
2561.00,0.0081
2560.00,0.0081
2559.00,0.0081
2558.00,0.0081
2557.00,0.0080
2556.00,0.0080
2555.00,0.0080
2554.00,0.0079
2553.00,0.0079
2552.00,0.0079
2551.00,0.0078
2550.00,0.0078
2549.00,0.0078
2548.00,0.0078
2547.00,0.0077
2546.00,0.0077
2545.00,0.0077
2544.00,0.0076
2543.00,0.0076
2542.00,0.0076
2541.00,0.0076
2540.00,0.0075
2539.00,0.0075
2538.00,0.0075
2537.00,0.0074
2536.00,0.0074
2535.00,0.0074
2534.00,0.0074
2533.00,0.0074
2532.00,0.0074
2531.00,0.0074
2530.00,0.0074
2529.00,0.0074
2528.00,0.0073
2527.00,0.0073
2526.00,0.0072
2525.00,0.0072
2524.00,0.0072
2523.00,0.0072
2522.00,0.0072
2521.00,0.0071
2520.00,0.0071
2519.00,0.0071
2518.00,0.0071
2517.00,0.0071
2516.00,0.0071
2515.00,0.0071
2514.00,0.0070
2513.00,0.0070
2512.00,0.0070
2511.00,0.0070
2510.00,0.0070
2509.00,0.0069
2508.00,0.0069
2507.00,0.0069
2506.00,0.0069
2505.00,0.0069
2504.00,0.0069
2503.00,0.0069
2502.00,0.0069
2501.00,0.0068
2500.00,0.0068
2499.00,0.0068
2498.00,0.0068
2497.00,0.0068
2496.00,0.0068
2495.00,0.0068
2494.00,0.0067
2493.00,0.0067
2492.00,0.0067
2491.00,0.0066
2490.00,0.0066
2489.00,0.0065
2488.00,0.0065
2487.00,0.0065
2486.00,0.0065
2485.00,0.0065
2484.00,0.0065
2483.00,0.0065
2482.00,0.0064
2481.00,0.0064
2480.00,0.0064
2479.00,0.0064
2478.00,0.0064
2477.00,0.0063
2476.00,0.0063
2475.00,0.0063
2474.00,0.0063
2473.00,0.0063
2472.00,0.0062
2471.00,0.0062
2470.00,0.0062
2469.00,0.0062
2468.00,0.0062
2467.00,0.0062
2466.00,0.0061
2465.00,0.0061
2464.00,0.0061
2463.00,0.0061
2462.00,0.0061
2461.00,0.0061
2460.00,0.0062
2459.00,0.0062
2458.00,0.0062
2457.00,0.0062
2456.00,0.0062
2455.00,0.0062
2454.00,0.0061
2453.00,0.0060
2452.00,0.0060
2451.00,0.0059
2450.00,0.0059
2449.00,0.0059
2448.00,0.0059
2447.00,0.0059
2446.00,0.0059
2445.00,0.0058
2444.00,0.0058
2443.00,0.0058
2442.00,0.0057
2441.00,0.0057
2440.00,0.0056
2439.00,0.0056
2438.00,0.0056
2437.00,0.0056
2436.00,0.0056
2435.00,0.0056
2434.00,0.0055
2433.00,0.0055
2432.00,0.0054
2431.00,0.0054
2430.00,0.0054
2429.00,0.0053
2428.00,0.0053
2427.00,0.0053
2426.00,0.0052
2425.00,0.0052
2424.00,0.0052
2423.00,0.0052
2422.00,0.0052
2421.00,0.0052
2420.00,0.0052
2419.00,0.0052
2418.00,0.0052
2417.00,0.0052
2416.00,0.0052
2415.00,0.0051
2414.00,0.0050
2413.00,0.0050
2412.00,0.0049
2411.00,0.0049
2410.00,0.0049
2409.00,0.0048
2408.00,0.0047
2407.00,0.0047
2406.00,0.0046
2405.00,0.0046
2404.00,0.0047
2403.00,0.0047
2402.00,0.0047
2401.00,0.0047
2400.00,0.0047
2399.00,0.0046
2398.00,0.0045
2397.00,0.0045
2396.00,0.0045
2395.00,0.0045
2394.00,0.0044
2393.00,0.0044
2392.00,0.0044
2391.00,0.0044
2390.00,0.0043
2389.00,0.0043
2388.00,0.0043
2387.00,0.0043
2386.00,0.0042
2385.00,0.0041
2384.00,0.0041
2383.00,0.0040
2382.00,0.0039
2381.00,0.0038
2380.00,0.0038
2379.00,0.0038
2378.00,0.0039
2377.00,0.0039
2376.00,0.0039
2375.00,0.0039
2374.00,0.0039
2373.00,0.0038
2372.00,0.0038
2371.00,0.0037
2370.00,0.0037
2369.00,0.0036
2368.00,0.0036
2367.00,0.0036
2366.00,0.0037
2365.00,0.0038
2364.00,0.0038
2363.00,0.0038
2362.00,0.0038
2361.00,0.0039
2360.00,0.0039
2359.00,0.0039
2358.00,0.0038
2357.00,0.0038
2356.00,0.0038
2355.00,0.0039
2354.00,0.0039
2353.00,0.0039
2352.00,0.0038
2351.00,0.0038
2350.00,0.0038
2349.00,0.0039
2348.00,0.0041
2347.00,0.0043
2346.00,0.0044
2345.00,0.0043
2344.00,0.0042
2343.00,0.0042
2342.00,0.0042
2341.00,0.0042
2340.00,0.0042
2339.00,0.0042
2338.00,0.0042
2337.00,0.0042
2336.00,0.0043
2335.00,0.0043
2334.00,0.0042
2333.00,0.0042
2332.00,0.0041
2331.00,0.0040
2330.00,0.0041
2329.00,0.0043
2328.00,0.0047
2327.00,0.0052
2326.00,0.0056
2325.00,0.0056
2324.00,0.0055
2323.00,0.0052
2322.00,0.0050
2321.00,0.0048
2320.00,0.0047
2319.00,0.0046
2318.00,0.0045
2317.00,0.0045
2316.00,0.0044
2315.00,0.0044
2314.00,0.0043
2313.00,0.0042
2312.00,0.0042
2311.00,0.0041
2310.00,0.0041
2309.00,0.0041
2308.00,0.0041
2307.00,0.0041
2306.00,0.0041
2305.00,0.0042
2304.00,0.0042
2303.00,0.0041
2302.00,0.0041
2301.00,0.0042
2300.00,0.0043
2299.00,0.0043
2298.00,0.0044
2297.00,0.0045
2296.00,0.0046
2295.00,0.0047
2294.00,0.0048
2293.00,0.0049
2292.00,0.0050
2291.00,0.0051
2290.00,0.0051
2289.00,0.0052
2288.00,0.0053
2287.00,0.0053
2286.00,0.0053
2285.00,0.0052
2284.00,0.0051
2283.00,0.0049
2282.00,0.0048
2281.00,0.0047
2280.00,0.0046
2279.00,0.0046
2278.00,0.0045
2277.00,0.0045
2276.00,0.0044
2275.00,0.0044
2274.00,0.0043
2273.00,0.0043
2272.00,0.0043
2271.00,0.0043
2270.00,0.0043
2269.00,0.0042
2268.00,0.0042
2267.00,0.0041
2266.00,0.0040
2265.00,0.0040
2264.00,0.0040
2263.00,0.0040
2262.00,0.0041
2261.00,0.0042
2260.00,0.0042
2259.00,0.0043
2258.00,0.0042
2257.00,0.0041
2256.00,0.0039
2255.00,0.0037
2254.00,0.0036
2253.00,0.0036
2252.00,0.0037
2251.00,0.0038
2250.00,0.0038
2249.00,0.0039
2248.00,0.0039
2247.00,0.0039
2246.00,0.0039
2245.00,0.0039
2244.00,0.0039
2243.00,0.0039
2242.00,0.0039
2241.00,0.0039
2240.00,0.0039
2239.00,0.0039
2238.00,0.0038
2237.00,0.0038
2236.00,0.0038
2235.00,0.0038
2234.00,0.0037
2233.00,0.0038
2232.00,0.0038
2231.00,0.0038
2230.00,0.0038
2229.00,0.0038
2228.00,0.0037
2227.00,0.0037
2226.00,0.0036
2225.00,0.0036
2224.00,0.0036
2223.00,0.0036
2222.00,0.0036
2221.00,0.0036
2220.00,0.0036
2219.00,0.0036
2218.00,0.0035
2217.00,0.0035
2216.00,0.0036
2215.00,0.0036
2214.00,0.0036
2213.00,0.0035
2212.00,0.0035
2211.00,0.0035
2210.00,0.0036
2209.00,0.0036
2208.00,0.0037
2207.00,0.0036
2206.00,0.0035
2205.00,0.0035
2204.00,0.0036
2203.00,0.0036
2202.00,0.0036
2201.00,0.0036
2200.00,0.0036
2199.00,0.0037
2198.00,0.0038
2197.00,0.0039
2196.00,0.0039
2195.00,0.0039
2194.00,0.0038
2193.00,0.0038
2192.00,0.0039
2191.00,0.0039
2190.00,0.0039
2189.00,0.0039
2188.00,0.0039
2187.00,0.0039
2186.00,0.0037
2185.00,0.0035
2184.00,0.0034
2183.00,0.0032
2182.00,0.0031
2181.00,0.0031
2180.00,0.0032
2179.00,0.0032
2178.00,0.0031
2177.00,0.0031
2176.00,0.0032
2175.00,0.0032
2174.00,0.0033
2173.00,0.0035
2172.00,0.0036
2171.00,0.0038
2170.00,0.0041
2169.00,0.0044
2168.00,0.0046
2167.00,0.0045
2166.00,0.0044
2165.00,0.0045
2164.00,0.0047
2163.00,0.0046
2162.00,0.0038
2161.00,0.0023
2160.00,0.0007
2159.00,-0.0005
2158.00,-0.0009
2157.00,-0.0006
2156.00,-0.0001
2155.00,0.0002
2154.00,0.0004
2153.00,0.0007
2152.00,0.0010
2151.00,0.0012
2150.00,0.0013
2149.00,0.0013
2148.00,0.0013
2147.00,0.0012
2146.00,0.0012
2145.00,0.0013
2144.00,0.0014
2143.00,0.0014
2142.00,0.0015
2141.00,0.0015
2140.00,0.0015
2139.00,0.0014
2138.00,0.0013
2137.00,0.0011
2136.00,0.0010
2135.00,0.0008
2134.00,0.0008
2133.00,0.0010
2132.00,0.0013
2131.00,0.0015
2130.00,0.0017
2129.00,0.0018
2128.00,0.0020
2127.00,0.0021
2126.00,0.0022
2125.00,0.0024
2124.00,0.0025
2123.00,0.0027
2122.00,0.0027
2121.00,0.0028
2120.00,0.0030
2119.00,0.0032
2118.00,0.0034
2117.00,0.0036
2116.00,0.0037
2115.00,0.0036
2114.00,0.0036
2113.00,0.0036
2112.00,0.0037
2111.00,0.0037
2110.00,0.0038
2109.00,0.0038
2108.00,0.0037
2107.00,0.0037
2106.00,0.0036
2105.00,0.0035
2104.00,0.0035
2103.00,0.0035
2102.00,0.0035
2101.00,0.0036
2100.00,0.0036
2099.00,0.0035
2098.00,0.0034
2097.00,0.0032
2096.00,0.0031
2095.00,0.0030
2094.00,0.0030
2093.00,0.0031
2092.00,0.0032
2091.00,0.0033
2090.00,0.0034
2089.00,0.0035
2088.00,0.0035
2087.00,0.0035
2086.00,0.0035
2085.00,0.0036
2084.00,0.0036
2083.00,0.0037
2082.00,0.0037
2081.00,0.0037
2080.00,0.0037
2079.00,0.0037
2078.00,0.0037
2077.00,0.0036
2076.00,0.0036
2075.00,0.0035
2074.00,0.0035
2073.00,0.0035
2072.00,0.0035
2071.00,0.0035
2070.00,0.0035
2069.00,0.0035
2068.00,0.0035
2067.00,0.0035
2066.00,0.0035
2065.00,0.0034
2064.00,0.0032
2063.00,0.0031
2062.00,0.0031
2061.00,0.0032
2060.00,0.0033
2059.00,0.0034
2058.00,0.0033
2057.00,0.0033
2056.00,0.0033
2055.00,0.0034
2054.00,0.0038
2053.00,0.0044
2052.00,0.0048
2051.00,0.0046
2050.00,0.0040
2049.00,0.0034
2048.00,0.0031
2047.00,0.0031
2046.00,0.0031
2045.00,0.0033
2044.00,0.0034
2043.00,0.0033
2042.00,0.0033
2041.00,0.0033
2040.00,0.0034
2039.00,0.0034
2038.00,0.0032
2037.00,0.0030
2036.00,0.0029
2035.00,0.0027
2034.00,0.0025
2033.00,0.0024
2032.00,0.0023
2031.00,0.0022
2030.00,0.0021
2029.00,0.0020
2028.00,0.0021
2027.00,0.0021
2026.00,0.0020
2025.00,0.0020
2024.00,0.0021
2023.00,0.0021
2022.00,0.0022
2021.00,0.0023
2020.00,0.0024
2019.00,0.0024
2018.00,0.0023
2017.00,0.0023
2016.00,0.0023
2015.00,0.0022
2014.00,0.0022
2013.00,0.0022
2012.00,0.0024
2011.00,0.0025
2010.00,0.0024
2009.00,0.0023
2008.00,0.0020
2007.00,0.0017
2006.00,0.0014
2005.00,0.0014
2004.00,0.0016
2003.00,0.0017
2002.00,0.0018
2001.00,0.0019
2000.00,0.0022
1999.00,0.0024
1998.00,0.0026
1997.00,0.0027
1996.00,0.0029
1995.00,0.0030
1994.00,0.0029
1993.00,0.0029
1992.00,0.0029
1991.00,0.0029
1990.00,0.0030
1989.00,0.0032
1988.00,0.0034
1987.00,0.0034
1986.00,0.0034
1985.00,0.0034
1984.00,0.0037
1983.00,0.0041
1982.00,0.0044
1981.00,0.0046
1980.00,0.0042
1979.00,0.0033
1978.00,0.0022
1977.00,0.0017
1976.00,0.0015
1975.00,0.0015
1974.00,0.0014
1973.00,0.0014
1972.00,0.0014
1971.00,0.0013
1970.00,0.0014
1969.00,0.0016
1968.00,0.0019
1967.00,0.0019
1966.00,0.0018
1965.00,0.0019
1964.00,0.0021
1963.00,0.0021
1962.00,0.0019
1961.00,0.0017
1960.00,0.0015
1959.00,0.0014
1958.00,0.0014
1957.00,0.0015
1956.00,0.0018
1955.00,0.0018
1954.00,0.0018
1953.00,0.0019
1952.00,0.0019
1951.00,0.0019
1950.00,0.0018
1949.00,0.0018
1948.00,0.0020
1947.00,0.0021
1946.00,0.0022
1945.00,0.0024
1944.00,0.0025
1943.00,0.0025
1942.00,0.0022
1941.00,0.0020
1940.00,0.0020
1939.00,0.0021
1938.00,0.0022
1937.00,0.0024
1936.00,0.0024
1935.00,0.0024
1934.00,0.0023
1933.00,0.0022
1932.00,0.0023
1931.00,0.0022
1930.00,0.0021
1929.00,0.0022
1928.00,0.0022
1927.00,0.0023
1926.00,0.0024
1925.00,0.0026
1924.00,0.0028
1923.00,0.0028
1922.00,0.0028
1921.00,0.0028
1920.00,0.0030
1919.00,0.0030
1918.00,0.0029
1917.00,0.0026
1916.00,0.0025
1915.00,0.0025
1914.00,0.0026
1913.00,0.0028
1912.00,0.0029
1911.00,0.0031
1910.00,0.0031
1909.00,0.0031
1908.00,0.0030
1907.00,0.0029
1906.00,0.0029
1905.00,0.0029
1904.00,0.0030
1903.00,0.0030
1902.00,0.0030
1901.00,0.0030
1900.00,0.0030
1899.00,0.0030
1898.00,0.0029
1897.00,0.0030
1896.00,0.0030
1895.00,0.0030
1894.00,0.0030
1893.00,0.0031
1892.00,0.0033
1891.00,0.0035
1890.00,0.0034
1889.00,0.0032
1888.00,0.0030
1887.00,0.0030
1886.00,0.0030
1885.00,0.0031
1884.00,0.0031
1883.00,0.0031
1882.00,0.0030
1881.00,0.0030
1880.00,0.0031
1879.00,0.0031
1878.00,0.0031
1877.00,0.0031
1876.00,0.0031
1875.00,0.0031
1874.00,0.0030
1873.00,0.0031
1872.00,0.0034
1871.00,0.0037
1870.00,0.0037
1869.00,0.0035
1868.00,0.0032
1867.00,0.0029
1866.00,0.0027
1865.00,0.0028
1864.00,0.0030
1863.00,0.0031
1862.00,0.0031
1861.00,0.0032
1860.00,0.0033
1859.00,0.0033
1858.00,0.0032
1857.00,0.0032
1856.00,0.0032
1855.00,0.0032
1854.00,0.0032
1853.00,0.0032
1852.00,0.0033
1851.00,0.0033
1850.00,0.0034
1849.00,0.0035
1848.00,0.0038
1847.00,0.0040
1846.00,0.0042
1845.00,0.0039
1844.00,0.0033
1843.00,0.0026
1842.00,0.0024
1841.00,0.0027
1840.00,0.0032
1839.00,0.0035
1838.00,0.0035
1837.00,0.0036
1836.00,0.0036
1835.00,0.0036
1834.00,0.0037
1833.00,0.0039
1832.00,0.0043
1831.00,0.0044
1830.00,0.0042
1829.00,0.0038
1828.00,0.0037
1827.00,0.0039
1826.00,0.0042
1825.00,0.0041
1824.00,0.0039
1823.00,0.0037
1822.00,0.0036
1821.00,0.0037
1820.00,0.0038
1819.00,0.0038
1818.00,0.0037
1817.00,0.0037
1816.00,0.0037
1815.00,0.0038
1814.00,0.0039
1813.00,0.0042
1812.00,0.0044
1811.00,0.0044
1810.00,0.0043
1809.00,0.0042
1808.00,0.0042
1807.00,0.0043
1806.00,0.0044
1805.00,0.0046
1804.00,0.0048
1803.00,0.0051
1802.00,0.0052
1801.00,0.0051
1800.00,0.0049
1799.00,0.0046
1798.00,0.0045
1797.00,0.0047
1796.00,0.0051
1795.00,0.0055
1794.00,0.0057
1793.00,0.0056
1792.00,0.0051
1791.00,0.0046
1790.00,0.0043
1789.00,0.0045
1788.00,0.0050
1787.00,0.0053
1786.00,0.0055
1785.00,0.0054
1784.00,0.0054
1783.00,0.0054
1782.00,0.0056
1781.00,0.0057
1780.00,0.0057
1779.00,0.0056
1778.00,0.0056
1777.00,0.0058
1776.00,0.0063
1775.00,0.0067
1774.00,0.0069
1773.00,0.0067
1772.00,0.0061
1771.00,0.0057
1770.00,0.0057
1769.00,0.0060
1768.00,0.0062
1767.00,0.0061
1766.00,0.0062
1765.00,0.0067
1764.00,0.0074
1763.00,0.0078
1762.00,0.0077
1761.00,0.0075
1760.00,0.0075
1759.00,0.0079
1758.00,0.0084
1757.00,0.0086
1756.00,0.0086
1755.00,0.0088
1754.00,0.0092
1753.00,0.0098
1752.00,0.0102
1751.00,0.0103
1750.00,0.0104
1749.00,0.0107
1748.00,0.0112
1747.00,0.0116
1746.00,0.0121
1745.00,0.0126
1744.00,0.0133
1743.00,0.0138
1742.00,0.0143
1741.00,0.0146
1740.00,0.0149
1739.00,0.0150
1738.00,0.0154
1737.00,0.0162
1736.00,0.0170
1735.00,0.0173
1734.00,0.0167
1733.00,0.0162
1732.00,0.0165
1731.00,0.0176
1730.00,0.0186
1729.00,0.0193
1728.00,0.0196
1727.00,0.0199
1726.00,0.0203
1725.00,0.0208
1724.00,0.0213
1723.00,0.0217
1722.00,0.0221
1721.00,0.0228
1720.00,0.0236
1719.00,0.0241
1718.00,0.0239
1717.00,0.0237
1716.00,0.0238
1715.00,0.0242
1714.00,0.0247
1713.00,0.0255
1712.00,0.0263
1711.00,0.0271
1710.00,0.0279
1709.00,0.0288
1708.00,0.0301
1707.00,0.0315
1706.00,0.0330
1705.00,0.0347
1704.00,0.0365
1703.00,0.0382
1702.00,0.0401
1701.00,0.0429
1700.00,0.0465
1699.00,0.0492
1698.00,0.0514
1697.00,0.0539
1696.00,0.0565
1695.00,0.0584
1694.00,0.0595
1693.00,0.0607
1692.00,0.0621
1691.00,0.0635
1690.00,0.0649
1689.00,0.0663
1688.00,0.0676
1687.00,0.0684
1686.00,0.0693
1685.00,0.0713
1684.00,0.0747
1683.00,0.0773
1682.00,0.0790
1681.00,0.0805
1680.00,0.0822
1679.00,0.0837
1678.00,0.0849
1677.00,0.0863
1676.00,0.0883
1675.00,0.0909
1674.00,0.0930
1673.00,0.0944
1672.00,0.0959
1671.00,0.0978
1670.00,0.1005
1669.00,0.1036
1668.00,0.1059
1667.00,0.1074
1666.00,0.1084
1665.00,0.1095
1664.00,0.1113
1663.00,0.1140
1662.00,0.1169
1661.00,0.1192
1660.00,0.1209
1659.00,0.1223
1658.00,0.1234
1657.00,0.1240
1656.00,0.1239
1655.00,0.1238
1654.00,0.1265
1653.00,0.1326
1652.00,0.1366
1651.00,0.1369
1650.00,0.1363
1649.00,0.1358
1648.00,0.1366
1647.00,0.1391
1646.00,0.1418
1645.00,0.1431
1644.00,0.1434
1643.00,0.1435
1642.00,0.1437
1641.00,0.1441
1640.00,0.1446
1639.00,0.1448
1638.00,0.1450
1637.00,0.1466
1636.00,0.1508
1635.00,0.1559
1634.00,0.1590
1633.00,0.1603
1632.00,0.1610
1631.00,0.1620
1630.00,0.1635
1629.00,0.1660
1628.00,0.1692
1627.00,0.1721
1626.00,0.1738
1625.00,0.1752
1624.00,0.1772
1623.00,0.1799
1622.00,0.1815
1621.00,0.1810
1620.00,0.1788
1619.00,0.1758
1618.00,0.1730
1617.00,0.1712
1616.00,0.1695
1615.00,0.1666
1614.00,0.1625
1613.00,0.1575
1612.00,0.1522
1611.00,0.1469
1610.00,0.1418
1609.00,0.1367
1608.00,0.1317
1607.00,0.1269
1606.00,0.1223
1605.00,0.1178
1604.00,0.1136
1603.00,0.1097
1602.00,0.1063
1601.00,0.1030
1600.00,0.0998
1599.00,0.0970
1598.00,0.0945
1597.00,0.0922
1596.00,0.0900
1595.00,0.0881
1594.00,0.0863
1593.00,0.0847
1592.00,0.0830
1591.00,0.0815
1590.00,0.0804
1589.00,0.0794
1588.00,0.0784
1587.00,0.0777
1586.00,0.0772
1585.00,0.0769
1584.00,0.0766
1583.00,0.0764
1582.00,0.0766
1581.00,0.0768
1580.00,0.0769
1579.00,0.0769
1578.00,0.0772
1577.00,0.0780
1576.00,0.0793
1575.00,0.0806
1574.00,0.0819
1573.00,0.0829
1572.00,0.0837
1571.00,0.0849
1570.00,0.0870
1569.00,0.0893
1568.00,0.0909
1567.00,0.0922
1566.00,0.0936
1565.00,0.0954
1564.00,0.0969
1563.00,0.0978
1562.00,0.0980
1561.00,0.0979
1560.00,0.0998
1559.00,0.1056
1558.00,0.1111
1557.00,0.1129
1556.00,0.1137
1555.00,0.1151
1554.00,0.1170
1553.00,0.1188
1552.00,0.1203
1551.00,0.1222
1550.00,0.1245
1549.00,0.1265
1548.00,0.1276
1547.00,0.1283
1546.00,0.1292
1545.00,0.1307
1544.00,0.1324
1543.00,0.1335
1542.00,0.1345
1541.00,0.1368
1540.00,0.1411
1539.00,0.1447
1538.00,0.1460
1537.00,0.1457
1536.00,0.1450
1535.00,0.1449
1534.00,0.1466
1533.00,0.1493
1532.00,0.1509
1531.00,0.1510
1530.00,0.1504
1529.00,0.1501
1528.00,0.1503
1527.00,0.1509
1526.00,0.1515
1525.00,0.1514
1524.00,0.1506
1523.00,0.1499
1522.00,0.1506
1521.00,0.1524
1520.00,0.1532
1519.00,0.1528
1518.00,0.1522
1517.00,0.1523
1516.00,0.1523
1515.00,0.1511
1514.00,0.1487
1513.00,0.1458
1512.00,0.1429
1511.00,0.1400
1510.00,0.1367
1509.00,0.1333
1508.00,0.1303
1507.00,0.1287
1506.00,0.1267
1505.00,0.1234
1504.00,0.1199
1503.00,0.1168
1502.00,0.1137
1501.00,0.1106
1500.00,0.1078
1499.00,0.1052
1498.00,0.1026
1497.00,0.1000
1496.00,0.0973
1495.00,0.0947
1494.00,0.0921
1493.00,0.0896
1492.00,0.0872
1491.00,0.0850
1490.00,0.0830
1489.00,0.0810
1488.00,0.0790
1487.00,0.0768
1486.00,0.0747
1485.00,0.0729
1484.00,0.0713
1483.00,0.0700
1482.00,0.0690
1481.00,0.0681
1480.00,0.0674
1479.00,0.0669
1478.00,0.0666
1477.00,0.0667
1476.00,0.0670
1475.00,0.0674
1474.00,0.0679
1473.00,0.0691
1472.00,0.0705
1471.00,0.0716
1470.00,0.0722
1469.00,0.0726
1468.00,0.0730
1467.00,0.0733
1466.00,0.0735
1465.00,0.0738
1464.00,0.0742
1463.00,0.0744
1462.00,0.0745
1461.00,0.0747
1460.00,0.0752
1459.00,0.0758
1458.00,0.0770
1457.00,0.0786
1456.00,0.0798
1455.00,0.0802
1454.00,0.0805
1453.00,0.0807
1452.00,0.0808
1451.00,0.0807
1450.00,0.0806
1449.00,0.0805
1448.00,0.0806
1447.00,0.0805
1446.00,0.0801
1445.00,0.0796
1444.00,0.0791
1443.00,0.0786
1442.00,0.0781
1441.00,0.0776
1440.00,0.0770
1439.00,0.0764
1438.00,0.0757
1437.00,0.0750
1436.00,0.0742
1435.00,0.0733
1434.00,0.0724
1433.00,0.0714
1432.00,0.0706
1431.00,0.0698
1430.00,0.0692
1429.00,0.0686
1428.00,0.0680
1427.00,0.0677
1426.00,0.0675
1425.00,0.0676
1424.00,0.0679
1423.00,0.0682
1422.00,0.0684
1421.00,0.0685
1420.00,0.0691
1419.00,0.0702
1418.00,0.0713
1417.00,0.0721
1416.00,0.0727
1415.00,0.0733
1414.00,0.0738
1413.00,0.0743
1412.00,0.0749
1411.00,0.0756
1410.00,0.0761
1409.00,0.0765
1408.00,0.0768
1407.00,0.0772
1406.00,0.0776
1405.00,0.0781
1404.00,0.0784
1403.00,0.0785
1402.00,0.0785
1401.00,0.0785
1400.00,0.0787
1399.00,0.0790
1398.00,0.0793
1397.00,0.0793
1396.00,0.0795
1395.00,0.0797
1394.00,0.0799
1393.00,0.0798
1392.00,0.0796
1391.00,0.0795
1390.00,0.0794
1389.00,0.0793
1388.00,0.0792
1387.00,0.0790
1386.00,0.0786
1385.00,0.0778
1384.00,0.0770
1383.00,0.0761
1382.00,0.0753
1381.00,0.0745
1380.00,0.0737
1379.00,0.0730
1378.00,0.0723
1377.00,0.0717
1376.00,0.0712
1375.00,0.0709
1374.00,0.0707
1373.00,0.0704
1372.00,0.0699
1371.00,0.0695
1370.00,0.0691
1369.00,0.0687
1368.00,0.0681
1367.00,0.0673
1366.00,0.0665
1365.00,0.0657
1364.00,0.0651
1363.00,0.0647
1362.00,0.0642
1361.00,0.0636
1360.00,0.0630
1359.00,0.0624
1358.00,0.0620
1357.00,0.0617
1356.00,0.0615
1355.00,0.0614
1354.00,0.0613
1353.00,0.0612
1352.00,0.0611
1351.00,0.0611
1350.00,0.0611
1349.00,0.0610
1348.00,0.0610
1347.00,0.0610
1346.00,0.0610
1345.00,0.0610
1344.00,0.0610
1343.00,0.0610
1342.00,0.0610
1341.00,0.0611
1340.00,0.0612
1339.00,0.0613
1338.00,0.0611
1337.00,0.0609
1336.00,0.0605
1335.00,0.0602
1334.00,0.0599
1333.00,0.0597
1332.00,0.0595
1331.00,0.0594
1330.00,0.0593
1329.00,0.0593
1328.00,0.0593
1327.00,0.0593
1326.00,0.0593
1325.00,0.0593
1324.00,0.0594
1323.00,0.0595
1322.00,0.0596
1321.00,0.0597
1320.00,0.0599
1319.00,0.0601
1318.00,0.0602
1317.00,0.0603
1316.00,0.0604
1315.00,0.0604
1314.00,0.0605
1313.00,0.0605
1312.00,0.0605
1311.00,0.0605
1310.00,0.0604
1309.00,0.0603
1308.00,0.0602
1307.00,0.0602
1306.00,0.0602
1305.00,0.0601
1304.00,0.0601
1303.00,0.0601
1302.00,0.0601
1301.00,0.0601
1300.00,0.0602
1299.00,0.0602
1298.00,0.0604
1297.00,0.0605
1296.00,0.0607
1295.00,0.0610
1294.00,0.0612
1293.00,0.0615
1292.00,0.0617
1291.00,0.0620
1290.00,0.0623
1289.00,0.0625
1288.00,0.0628
1287.00,0.0631
1286.00,0.0633
1285.00,0.0635
1284.00,0.0638
1283.00,0.0640
1282.00,0.0642
1281.00,0.0643
1280.00,0.0645
1279.00,0.0646
1278.00,0.0647
1277.00,0.0648
1276.00,0.0649
1275.00,0.0650
1274.00,0.0651
1273.00,0.0652
1272.00,0.0653
1271.00,0.0655
1270.00,0.0658
1269.00,0.0660
1268.00,0.0664
1267.00,0.0668
1266.00,0.0672
1265.00,0.0676
1264.00,0.0681
1263.00,0.0687
1262.00,0.0693
1261.00,0.0699
1260.00,0.0706
1259.00,0.0712
1258.00,0.0719
1257.00,0.0725
1256.00,0.0732
1255.00,0.0739
1254.00,0.0745
1253.00,0.0752
1252.00,0.0758
1251.00,0.0765
1250.00,0.0772
1249.00,0.0779
1248.00,0.0786
1247.00,0.0793
1246.00,0.0800
1245.00,0.0807
1244.00,0.0813
1243.00,0.0819
1242.00,0.0825
1241.00,0.0830
1240.00,0.0836
1239.00,0.0841
1238.00,0.0845
1237.00,0.0850
1236.00,0.0854
1235.00,0.0857
1234.00,0.0860
1233.00,0.0862
1232.00,0.0864
1231.00,0.0865
1230.00,0.0865
1229.00,0.0864
1228.00,0.0863
1227.00,0.0861
1226.00,0.0858
1225.00,0.0855
1224.00,0.0852
1223.00,0.0848
1222.00,0.0844
1221.00,0.0839
1220.00,0.0833
1219.00,0.0827
1218.00,0.0820
1217.00,0.0813
1216.00,0.0805
1215.00,0.0796
1214.00,0.0787
1213.00,0.0778
1212.00,0.0769
1211.00,0.0760
1210.00,0.0751
1209.00,0.0742
1208.00,0.0733
1207.00,0.0725
1206.00,0.0717
1205.00,0.0709
1204.00,0.0702
1203.00,0.0694
1202.00,0.0688
1201.00,0.0681
1200.00,0.0675
1199.00,0.0669
1198.00,0.0664
1197.00,0.0659
1196.00,0.0654
1195.00,0.0650
1194.00,0.0646
1193.00,0.0642
1192.00,0.0639
1191.00,0.0635
1190.00,0.0632
1189.00,0.0630
1188.00,0.0627
1187.00,0.0625
1186.00,0.0623
1185.00,0.0622
1184.00,0.0621
1183.00,0.0620
1182.00,0.0620
1181.00,0.0620
1180.00,0.0621
1179.00,0.0623
1178.00,0.0626
1177.00,0.0630
1176.00,0.0634
1175.00,0.0639
1174.00,0.0644
1173.00,0.0648
1172.00,0.0650
1171.00,0.0653
1170.00,0.0654
1169.00,0.0654
1168.00,0.0655
1167.00,0.0656
1166.00,0.0657
1165.00,0.0659
1164.00,0.0661
1163.00,0.0663
1162.00,0.0665
1161.00,0.0667
1160.00,0.0668
1159.00,0.0670
1158.00,0.0671
1157.00,0.0671
1156.00,0.0670
1155.00,0.0669
1154.00,0.0666
1153.00,0.0663
1152.00,0.0658
1151.00,0.0654
1150.00,0.0648
1149.00,0.0642
1148.00,0.0635
1147.00,0.0629
1146.00,0.0622
1145.00,0.0616
1144.00,0.0610
1143.00,0.0604
1142.00,0.0599
1141.00,0.0594
1140.00,0.0590
1139.00,0.0587
1138.00,0.0584
1137.00,0.0581
1136.00,0.0580
1135.00,0.0580
1134.00,0.0580
1133.00,0.0581
1132.00,0.0582
1131.00,0.0584
1130.00,0.0587
1129.00,0.0589
1128.00,0.0592
1127.00,0.0595
1126.00,0.0597
1125.00,0.0600
1124.00,0.0602
1123.00,0.0605
1122.00,0.0607
1121.00,0.0610
1120.00,0.0612
1119.00,0.0614
1118.00,0.0616
1117.00,0.0618
1116.00,0.0620
1115.00,0.0622
1114.00,0.0624
1113.00,0.0625
1112.00,0.0627
1111.00,0.0628
1110.00,0.0630
1109.00,0.0631
1108.00,0.0633
1107.00,0.0635
1106.00,0.0637
1105.00,0.0639
1104.00,0.0641
1103.00,0.0643
1102.00,0.0645
1101.00,0.0648
1100.00,0.0651
1099.00,0.0654
1098.00,0.0658
1097.00,0.0662
1096.00,0.0666
1095.00,0.0671
1094.00,0.0677
1093.00,0.0684
1092.00,0.0691
1091.00,0.0699
1090.00,0.0707
1089.00,0.0717
1088.00,0.0726
1087.00,0.0737
1086.00,0.0747
1085.00,0.0757
1084.00,0.0766
1083.00,0.0775
1082.00,0.0783
1081.00,0.0790
1080.00,0.0796
1079.00,0.0801
1078.00,0.0805
1077.00,0.0807
1076.00,0.0808
1075.00,0.0808
1074.00,0.0808
1073.00,0.0807
1072.00,0.0806
1071.00,0.0804
1070.00,0.0804
1069.00,0.0804
1068.00,0.0805
1067.00,0.0807
1066.00,0.0809
1065.00,0.0812
1064.00,0.0816
1063.00,0.0820
1062.00,0.0823
1061.00,0.0825
1060.00,0.0828
1059.00,0.0830
1058.00,0.0832
1057.00,0.0834
1056.00,0.0835
1055.00,0.0835
1054.00,0.0835
1053.00,0.0834
1052.00,0.0834
1051.00,0.0833
1050.00,0.0831
1049.00,0.0830
1048.00,0.0828
1047.00,0.0826
1046.00,0.0823
1045.00,0.0820
1044.00,0.0817
1043.00,0.0814
1042.00,0.0811
1041.00,0.0807
1040.00,0.0804
1039.00,0.0801
1038.00,0.0798
1037.00,0.0795
1036.00,0.0793
1035.00,0.0790
1034.00,0.0788
1033.00,0.0787
1032.00,0.0785
1031.00,0.0785
1030.00,0.0783
1029.00,0.0781
1028.00,0.0777
1027.00,0.0773
1026.00,0.0769
1025.00,0.0764
1024.00,0.0758
1023.00,0.0752
1022.00,0.0746
1021.00,0.0738
1020.00,0.0731
1019.00,0.0722
1018.00,0.0714
1017.00,0.0706
1016.00,0.0698
1015.00,0.0690
1014.00,0.0682
1013.00,0.0674
1012.00,0.0666
1011.00,0.0658
1010.00,0.0649
1009.00,0.0640
1008.00,0.0632
1007.00,0.0625
1006.00,0.0617
1005.00,0.0610
1004.00,0.0603
1003.00,0.0596
1002.00,0.0589
1001.00,0.0582
1000.00,0.0575
999.00,0.0568
998.00,0.0561
997.00,0.0554
996.00,0.0546
995.00,0.0539
994.00,0.0531
993.00,0.0524
992.00,0.0516
991.00,0.0509
990.00,0.0502
989.00,0.0495
988.00,0.0488
987.00,0.0482
986.00,0.0476
985.00,0.0471
984.00,0.0467
983.00,0.0464
982.00,0.0461
981.00,0.0459
980.00,0.0457
979.00,0.0456
978.00,0.0456
977.00,0.0456
976.00,0.0456
975.00,0.0455
974.00,0.0455
973.00,0.0456
972.00,0.0456
971.00,0.0456
970.00,0.0455
969.00,0.0455
968.00,0.0455
967.00,0.0455
966.00,0.0455
965.00,0.0455
964.00,0.0454
963.00,0.0454
962.00,0.0454
961.00,0.0452
960.00,0.0451
959.00,0.0450
958.00,0.0448
957.00,0.0447
956.00,0.0447
955.00,0.0446
954.00,0.0445
953.00,0.0444
952.00,0.0443
951.00,0.0442
950.00,0.0443
949.00,0.0443
948.00,0.0444
947.00,0.0445
946.00,0.0446
945.00,0.0448
944.00,0.0450
943.00,0.0452
942.00,0.0455
941.00,0.0458
940.00,0.0461
939.00,0.0463
938.00,0.0465
937.00,0.0467
936.00,0.0470
935.00,0.0472
934.00,0.0474
933.00,0.0476
932.00,0.0477
931.00,0.0477
930.00,0.0478
929.00,0.0477
928.00,0.0477
927.00,0.0476
926.00,0.0476
925.00,0.0474
924.00,0.0473
923.00,0.0471
922.00,0.0469
921.00,0.0466
920.00,0.0464
919.00,0.0463
918.00,0.0461
917.00,0.0459
916.00,0.0456
915.00,0.0454
914.00,0.0452
913.00,0.0451
912.00,0.0449
911.00,0.0448
910.00,0.0447
909.00,0.0445
908.00,0.0444
907.00,0.0443
906.00,0.0442
905.00,0.0441
904.00,0.0440
903.00,0.0439
902.00,0.0438
901.00,0.0437
900.00,0.0436
899.00,0.0435
898.00,0.0434
897.00,0.0434
896.00,0.0434
895.00,0.0434
894.00,0.0434
893.00,0.0433
892.00,0.0433
891.00,0.0432
890.00,0.0432
889.00,0.0431
888.00,0.0431
887.00,0.0432
886.00,0.0432
885.00,0.0432
884.00,0.0433
883.00,0.0433
882.00,0.0433
881.00,0.0432
880.00,0.0432
879.00,0.0432
878.00,0.0431
877.00,0.0431
876.00,0.0430
875.00,0.0430
874.00,0.0430
873.00,0.0430
872.00,0.0429
871.00,0.0429
870.00,0.0429
869.00,0.0429
868.00,0.0430
867.00,0.0430
866.00,0.0431
865.00,0.0432
864.00,0.0433
863.00,0.0435
862.00,0.0437
861.00,0.0440
860.00,0.0443
859.00,0.0447
858.00,0.0450
857.00,0.0453
856.00,0.0456
855.00,0.0459
854.00,0.0463
853.00,0.0466
852.00,0.0469
851.00,0.0471
850.00,0.0471
849.00,0.0472
848.00,0.0472
847.00,0.0473
846.00,0.0474
845.00,0.0475
844.00,0.0477
843.00,0.0479
842.00,0.0481
841.00,0.0484
840.00,0.0488
839.00,0.0492
838.00,0.0496
837.00,0.0499
836.00,0.0503
835.00,0.0507
834.00,0.0510
833.00,0.0514
832.00,0.0518
831.00,0.0522
830.00,0.0525
829.00,0.0527
828.00,0.0530
827.00,0.0532
826.00,0.0533
825.00,0.0534
824.00,0.0534
823.00,0.0535
822.00,0.0536
821.00,0.0537
820.00,0.0538
819.00,0.0539
818.00,0.0541
817.00,0.0543
816.00,0.0545
815.00,0.0548
814.00,0.0550
813.00,0.0553
812.00,0.0556
811.00,0.0559
810.00,0.0562
809.00,0.0565
808.00,0.0567
807.00,0.0570
806.00,0.0572
805.00,0.0575
804.00,0.0578
803.00,0.0581
802.00,0.0585
801.00,0.0590
800.00,0.0594
799.00,0.0599
798.00,0.0603
797.00,0.0608
796.00,0.0613
795.00,0.0618
794.00,0.0624
793.00,0.0630
792.00,0.0636
791.00,0.0642
790.00,0.0649
789.00,0.0655
788.00,0.0662
787.00,0.0669
786.00,0.0675
785.00,0.0681
784.00,0.0686
783.00,0.0691
782.00,0.0695
781.00,0.0699
780.00,0.0702
779.00,0.0704
778.00,0.0707
777.00,0.0709
776.00,0.0712
775.00,0.0715
774.00,0.0717
773.00,0.0719
772.00,0.0721
771.00,0.0723
770.00,0.0724
769.00,0.0727
768.00,0.0729
767.00,0.0732
766.00,0.0734
765.00,0.0737
764.00,0.0740
763.00,0.0742
762.00,0.0744
761.00,0.0747
760.00,0.0749
759.00,0.0752
758.00,0.0755
757.00,0.0758
756.00,0.0762
755.00,0.0766
754.00,0.0770
753.00,0.0775
752.00,0.0780
751.00,0.0786
750.00,0.0790
749.00,0.0795
748.00,0.0799
747.00,0.0804
746.00,0.0809
745.00,0.0813
744.00,0.0817
743.00,0.0821
742.00,0.0824
741.00,0.0826
740.00,0.0829
739.00,0.0832
738.00,0.0836
737.00,0.0839
736.00,0.0844
735.00,0.0850
734.00,0.0855
733.00,0.0862
732.00,0.0869
731.00,0.0877
730.00,0.0885
729.00,0.0894
728.00,0.0904
727.00,0.0914
726.00,0.0925
725.00,0.0935
724.00,0.0946
723.00,0.0957
722.00,0.0966
721.00,0.0976
720.00,0.0986
719.00,0.0996
718.00,0.1005
717.00,0.1014
716.00,0.1022
715.00,0.1031
714.00,0.1039
713.00,0.1047
712.00,0.1056
711.00,0.1064
710.00,0.1072
709.00,0.1081
708.00,0.1090
707.00,0.1100
706.00,0.1110
705.00,0.1120
704.00,0.1130
703.00,0.1140
702.00,0.1150
701.00,0.1158
700.00,0.1165
699.00,0.1169
698.00,0.1172
697.00,0.1173
696.00,0.1172
695.00,0.1171
694.00,0.1170
693.00,0.1168
692.00,0.1167
691.00,0.1166
690.00,0.1165
689.00,0.1165
688.00,0.1165
687.00,0.1166
686.00,0.1167
685.00,0.1168
684.00,0.1169
683.00,0.1169
682.00,0.1170
681.00,0.1172
680.00,0.1174
679.00,0.1175
678.00,0.1177
677.00,0.1178
676.00,0.1180
675.00,0.1181
674.00,0.1182
673.00,0.1183
672.00,0.1181
671.00,0.1177
670.00,0.1173
669.00,0.1176
668.00,0.1192
667.00,0.1207
666.00,0.1211
665.00,0.1207
664.00,0.1205
663.00,0.1205
662.00,0.1208
661.00,0.1211
660.00,0.1214
659.00,0.1216
658.00,0.1218
657.00,0.1218
656.00,0.1219
655.00,0.1221
654.00,0.1222
653.00,0.1224
652.00,0.1226
651.00,0.1228
650.00,0.1230
649.00,0.1232
648.00,0.1235
647.00,0.1238
646.00,0.1240
645.00,0.1242
644.00,0.1244
643.00,0.1246
642.00,0.1249
641.00,0.1251
640.00,0.1254
639.00,0.1256
638.00,0.1257
637.00,0.1259
636.00,0.1262
635.00,0.1266
634.00,0.1270
633.00,0.1273
632.00,0.1276
631.00,0.1280
630.00,0.1283
629.00,0.1286
628.00,0.1290
627.00,0.1293
626.00,0.1295
625.00,0.1297
624.00,0.1300
623.00,0.1302
622.00,0.1304
621.00,0.1304
620.00,0.1305
619.00,0.1304
618.00,0.1304
617.00,0.1304
616.00,0.1305
615.00,0.1306
614.00,0.1307
613.00,0.1307
612.00,0.1308
611.00,0.1309
610.00,0.1308
609.00,0.1307
608.00,0.1307
607.00,0.1307
606.00,0.1307
605.00,0.1308
604.00,0.1310
603.00,0.1311
602.00,0.1312
601.00,0.1314
600.00,0.1316
599.00,0.1317
598.00,0.1317
597.00,0.1317
596.00,0.1318
595.00,0.1320
594.00,0.1322
593.00,0.1324
592.00,0.1328
591.00,0.1331
590.00,0.1332
589.00,0.1333
588.00,0.1336
587.00,0.1338
586.00,0.1340
585.00,0.1341
584.00,0.1343
583.00,0.1346
582.00,0.1350
581.00,0.1354
580.00,0.1358
579.00,0.1361
578.00,0.1363
577.00,0.1363
576.00,0.1365
575.00,0.1368
574.00,0.1371
573.00,0.1374
572.00,0.1377
571.00,0.1380
570.00,0.1381
569.00,0.1382
568.00,0.1383
567.00,0.1385
566.00,0.1387
565.00,0.1389
564.00,0.1392
563.00,0.1395
562.00,0.1397
561.00,0.1398
560.00,0.1402
559.00,0.1406
558.00,0.1409
557.00,0.1412
556.00,0.1415
555.00,0.1418
554.00,0.1421
553.00,0.1423
552.00,0.1426
551.00,0.1430
550.00,0.1433
549.00,0.1436
548.00,0.1439
547.00,0.1441
546.00,0.1442
545.00,0.1444
544.00,0.1448
543.00,0.1452
542.00,0.1455
541.00,0.1457
540.00,0.1458
539.00,0.1458
538.00,0.1456
537.00,0.1456
536.00,0.1458
535.00,0.1461
534.00,0.1464
533.00,0.1465
532.00,0.1468
531.00,0.1470
530.00,0.1471
529.00,0.1472
528.00,0.1473
527.00,0.1474
526.00,0.1476
525.00,0.1478
524.00,0.1482
523.00,0.1485
522.00,0.1486
521.00,0.1485
520.00,0.1486
519.00,0.1489
518.00,0.1491
517.00,0.1495
516.00,0.1498
515.00,0.1500
514.00,0.1498
513.00,0.1498
512.00,0.1501
511.00,0.1504
510.00,0.1505
509.00,0.1505
508.00,0.1506
507.00,0.1507
506.00,0.1506
505.00,0.1503
504.00,0.1502
503.00,0.1500
502.00,0.1499
501.00,0.1498
500.00,0.1498
499.00,0.1498
498.00,0.1497
497.00,0.1496
496.00,0.1497
495.00,0.1498
494.00,0.1497
493.00,0.1497
492.00,0.1500
491.00,0.1501
490.00,0.1501
489.00,0.1500
488.00,0.1501
487.00,0.1502
486.00,0.1502
485.00,0.1500
484.00,0.1499
483.00,0.1496
482.00,0.1492
481.00,0.1488
480.00,0.1487
479.00,0.1487
478.00,0.1487
477.00,0.1487
476.00,0.1488
475.00,0.1489
474.00,0.1489
473.00,0.1490
472.00,0.1492
471.00,0.1491
470.00,0.1488
469.00,0.1487
468.00,0.1490
467.00,0.1494
466.00,0.1494
465.00,0.1491
464.00,0.1490
463.00,0.1491
462.00,0.1491
461.00,0.1490
460.00,0.1489
459.00,0.1488
458.00,0.1487
457.00,0.1487
456.00,0.1487
455.00,0.1482
454.00,0.1475
453.00,0.1470
452.00,0.1472
451.00,0.1476
450.00,0.1477
449.00,0.1475
448.00,0.1475
447.00,0.1475
446.00,0.1473
445.00,0.1471
444.00,0.1470
443.00,0.1465
442.00,0.1454
441.00,0.1441
440.00,0.1434
439.00,0.1431
438.00,0.1430
437.00,0.1432
436.00,0.1433
435.00,0.1432
434.00,0.1425
433.00,0.1420
432.00,0.1419
431.00,0.1421
430.00,0.1423
429.00,0.1425
428.00,0.1431
427.00,0.1437
426.00,0.1437
425.00,0.1434
424.00,0.1430
423.00,0.1421
422.00,0.1407
421.00,0.1398
420.00,0.1402
419.00,0.1416
418.00,0.1421
417.00,0.1417
416.00,0.1412
415.00,0.1407
414.00,0.1398
413.00,0.1391
412.00,0.1391
411.00,0.1394
410.00,0.1394
409.00,0.1392
408.00,0.1392
407.00,0.1390
406.00,0.1380
405.00,0.1367
404.00,0.1359
403.00,0.1354
402.00,0.1349
401.00,0.1348
400.00,0.1354
