Created as New Dataset,Sample 675 By YargerLab Date Thursday, June 12 2025
cm-1,A
4000.00,0.0055
3999.00,0.0055
3998.00,0.0055
3997.00,0.0055
3996.00,0.0055
3995.00,0.0055
3994.00,0.0055
3993.00,0.0055
3992.00,0.0055
3991.00,0.0055
3990.00,0.0055
3989.00,0.0055
3988.00,0.0055
3987.00,0.0055
3986.00,0.0055
3985.00,0.0055
3984.00,0.0055
3983.00,0.0055
3982.00,0.0055
3981.00,0.0055
3980.00,0.0055
3979.00,0.0055
3978.00,0.0055
3977.00,0.0055
3976.00,0.0055
3975.00,0.0055
3974.00,0.0055
3973.00,0.0055
3972.00,0.0055
3971.00,0.0055
3970.00,0.0055
3969.00,0.0055
3968.00,0.0055
3967.00,0.0055
3966.00,0.0055
3965.00,0.0055
3964.00,0.0055
3963.00,0.0055
3962.00,0.0055
3961.00,0.0055
3960.00,0.0055
3959.00,0.0055
3958.00,0.0055
3957.00,0.0055
3956.00,0.0055
3955.00,0.0055
3954.00,0.0055
3953.00,0.0055
3952.00,0.0055
3951.00,0.0055
3950.00,0.0055
3949.00,0.0055
3948.00,0.0055
3947.00,0.0055
3946.00,0.0055
3945.00,0.0055
3944.00,0.0054
3943.00,0.0054
3942.00,0.0054
3941.00,0.0054
3940.00,0.0054
3939.00,0.0055
3938.00,0.0055
3937.00,0.0055
3936.00,0.0055
3935.00,0.0055
3934.00,0.0055
3933.00,0.0055
3932.00,0.0055
3931.00,0.0055
3930.00,0.0055
3929.00,0.0055
3928.00,0.0055
3927.00,0.0055
3926.00,0.0055
3925.00,0.0055
3924.00,0.0055
3923.00,0.0055
3922.00,0.0055
3921.00,0.0055
3920.00,0.0055
3919.00,0.0055
3918.00,0.0055
3917.00,0.0055
3916.00,0.0054
3915.00,0.0055
3914.00,0.0055
3913.00,0.0055
3912.00,0.0055
3911.00,0.0055
3910.00,0.0055
3909.00,0.0055
3908.00,0.0055
3907.00,0.0055
3906.00,0.0055
3905.00,0.0055
3904.00,0.0056
3903.00,0.0056
3902.00,0.0056
3901.00,0.0055
3900.00,0.0055
3899.00,0.0055
3898.00,0.0054
3897.00,0.0054
3896.00,0.0055
3895.00,0.0055
3894.00,0.0055
3893.00,0.0055
3892.00,0.0055
3891.00,0.0054
3890.00,0.0055
3889.00,0.0055
3888.00,0.0055
3887.00,0.0055
3886.00,0.0054
3885.00,0.0054
3884.00,0.0055
3883.00,0.0055
3882.00,0.0055
3881.00,0.0054
3880.00,0.0054
3879.00,0.0054
3878.00,0.0054
3877.00,0.0054
3876.00,0.0054
3875.00,0.0054
3874.00,0.0054
3873.00,0.0055
3872.00,0.0055
3871.00,0.0055
3870.00,0.0055
3869.00,0.0055
3868.00,0.0055
3867.00,0.0055
3866.00,0.0055
3865.00,0.0054
3864.00,0.0054
3863.00,0.0054
3862.00,0.0054
3861.00,0.0054
3860.00,0.0054
3859.00,0.0054
3858.00,0.0054
3857.00,0.0054
3856.00,0.0055
3855.00,0.0055
3854.00,0.0055
3853.00,0.0055
3852.00,0.0055
3851.00,0.0055
3850.00,0.0055
3849.00,0.0055
3848.00,0.0055
3847.00,0.0054
3846.00,0.0054
3845.00,0.0054
3844.00,0.0054
3843.00,0.0054
3842.00,0.0054
3841.00,0.0055
3840.00,0.0055
3839.00,0.0054
3838.00,0.0054
3837.00,0.0054
3836.00,0.0054
3835.00,0.0054
3834.00,0.0054
3833.00,0.0054
3832.00,0.0054
3831.00,0.0054
3830.00,0.0054
3829.00,0.0054
3828.00,0.0054
3827.00,0.0054
3826.00,0.0054
3825.00,0.0054
3824.00,0.0054
3823.00,0.0054
3822.00,0.0054
3821.00,0.0054
3820.00,0.0054
3819.00,0.0054
3818.00,0.0054
3817.00,0.0054
3816.00,0.0054
3815.00,0.0054
3814.00,0.0054
3813.00,0.0054
3812.00,0.0054
3811.00,0.0054
3810.00,0.0054
3809.00,0.0054
3808.00,0.0054
3807.00,0.0054
3806.00,0.0054
3805.00,0.0054
3804.00,0.0054
3803.00,0.0054
3802.00,0.0054
3801.00,0.0054
3800.00,0.0054
3799.00,0.0054
3798.00,0.0054
3797.00,0.0054
3796.00,0.0053
3795.00,0.0053
3794.00,0.0053
3793.00,0.0054
3792.00,0.0054
3791.00,0.0054
3790.00,0.0054
3789.00,0.0054
3788.00,0.0054
3787.00,0.0054
3786.00,0.0054
3785.00,0.0054
3784.00,0.0054
3783.00,0.0054
3782.00,0.0054
3781.00,0.0054
3780.00,0.0055
3779.00,0.0055
3778.00,0.0054
3777.00,0.0054
3776.00,0.0054
3775.00,0.0054
3774.00,0.0054
3773.00,0.0054
3772.00,0.0054
3771.00,0.0054
3770.00,0.0054
3769.00,0.0054
3768.00,0.0054
3767.00,0.0054
3766.00,0.0054
3765.00,0.0054
3764.00,0.0054
3763.00,0.0054
3762.00,0.0054
3761.00,0.0054
3760.00,0.0054
3759.00,0.0054
3758.00,0.0054
3757.00,0.0054
3756.00,0.0054
3755.00,0.0054
3754.00,0.0054
3753.00,0.0054
3752.00,0.0055
3751.00,0.0055
3750.00,0.0055
3749.00,0.0055
3748.00,0.0055
3747.00,0.0055
3746.00,0.0055
3745.00,0.0054
3744.00,0.0054
3743.00,0.0054
3742.00,0.0054
3741.00,0.0053
3740.00,0.0053
3739.00,0.0053
3738.00,0.0053
3737.00,0.0053
3736.00,0.0053
3735.00,0.0053
3734.00,0.0053
3733.00,0.0053
3732.00,0.0053
3731.00,0.0053
3730.00,0.0053
3729.00,0.0053
3728.00,0.0053
3727.00,0.0053
3726.00,0.0053
3725.00,0.0053
3724.00,0.0052
3723.00,0.0052
3722.00,0.0052
3721.00,0.0052
3720.00,0.0053
3719.00,0.0053
3718.00,0.0053
3717.00,0.0052
3716.00,0.0053
3715.00,0.0053
3714.00,0.0053
3713.00,0.0053
3712.00,0.0052
3711.00,0.0052
3710.00,0.0052
3709.00,0.0053
3708.00,0.0053
3707.00,0.0052
3706.00,0.0052
3705.00,0.0052
3704.00,0.0052
3703.00,0.0052
3702.00,0.0052
3701.00,0.0051
3700.00,0.0051
3699.00,0.0051
3698.00,0.0051
3697.00,0.0051
3696.00,0.0051
3695.00,0.0051
3694.00,0.0051
3693.00,0.0051
3692.00,0.0051
3691.00,0.0051
3690.00,0.0052
3689.00,0.0052
3688.00,0.0052
3687.00,0.0051
3686.00,0.0051
3685.00,0.0051
3684.00,0.0051
3683.00,0.0051
3682.00,0.0050
3681.00,0.0050
3680.00,0.0050
3679.00,0.0050
3678.00,0.0050
3677.00,0.0050
3676.00,0.0050
3675.00,0.0050
3674.00,0.0050
3673.00,0.0050
3672.00,0.0050
3671.00,0.0050
3670.00,0.0050
3669.00,0.0050
3668.00,0.0050
3667.00,0.0050
3666.00,0.0051
3665.00,0.0050
3664.00,0.0050
3663.00,0.0050
3662.00,0.0050
3661.00,0.0049
3660.00,0.0049
3659.00,0.0049
3658.00,0.0050
3657.00,0.0050
3656.00,0.0050
3655.00,0.0050
3654.00,0.0050
3653.00,0.0050
3652.00,0.0050
3651.00,0.0050
3650.00,0.0050
3649.00,0.0050
3648.00,0.0050
3647.00,0.0049
3646.00,0.0049
3645.00,0.0049
3644.00,0.0050
3643.00,0.0050
3642.00,0.0050
3641.00,0.0050
3640.00,0.0050
3639.00,0.0051
3638.00,0.0051
3637.00,0.0050
3636.00,0.0050
3635.00,0.0050
3634.00,0.0050
3633.00,0.0050
3632.00,0.0051
3631.00,0.0052
3630.00,0.0052
3629.00,0.0052
3628.00,0.0051
3627.00,0.0051
3626.00,0.0051
3625.00,0.0051
3624.00,0.0051
3623.00,0.0051
3622.00,0.0052
3621.00,0.0051
3620.00,0.0051
3619.00,0.0051
3618.00,0.0051
3617.00,0.0051
3616.00,0.0051
3615.00,0.0051
3614.00,0.0051
3613.00,0.0051
3612.00,0.0051
3611.00,0.0051
3610.00,0.0051
3609.00,0.0051
3608.00,0.0051
3607.00,0.0050
3606.00,0.0050
3605.00,0.0051
3604.00,0.0051
3603.00,0.0051
3602.00,0.0051
3601.00,0.0051
3600.00,0.0051
3599.00,0.0051
3598.00,0.0051
3597.00,0.0050
3596.00,0.0050
3595.00,0.0050
3594.00,0.0050
3593.00,0.0050
3592.00,0.0050
3591.00,0.0051
3590.00,0.0051
3589.00,0.0050
3588.00,0.0050
3587.00,0.0050
3586.00,0.0050
3585.00,0.0050
3584.00,0.0050
3583.00,0.0050
3582.00,0.0050
3581.00,0.0050
3580.00,0.0050
3579.00,0.0050
3578.00,0.0050
3577.00,0.0050
3576.00,0.0050
3575.00,0.0050
3574.00,0.0050
3573.00,0.0050
3572.00,0.0050
3571.00,0.0050
3570.00,0.0050
3569.00,0.0050
3568.00,0.0050
3567.00,0.0050
3566.00,0.0050
3565.00,0.0050
3564.00,0.0050
3563.00,0.0050
3562.00,0.0050
3561.00,0.0050
3560.00,0.0050
3559.00,0.0050
3558.00,0.0050
3557.00,0.0050
3556.00,0.0050
3555.00,0.0050
3554.00,0.0050
3553.00,0.0050
3552.00,0.0050
3551.00,0.0051
3550.00,0.0051
3549.00,0.0051
3548.00,0.0051
3547.00,0.0051
3546.00,0.0051
3545.00,0.0051
3544.00,0.0051
3543.00,0.0050
3542.00,0.0050
3541.00,0.0050
3540.00,0.0050
3539.00,0.0051
3538.00,0.0051
3537.00,0.0051
3536.00,0.0051
3535.00,0.0051
3534.00,0.0051
3533.00,0.0051
3532.00,0.0051
3531.00,0.0051
3530.00,0.0051
3529.00,0.0051
3528.00,0.0051
3527.00,0.0052
3526.00,0.0052
3525.00,0.0052
3524.00,0.0052
3523.00,0.0051
3522.00,0.0051
3521.00,0.0051
3520.00,0.0051
3519.00,0.0052
3518.00,0.0052
3517.00,0.0052
3516.00,0.0052
3515.00,0.0052
3514.00,0.0051
3513.00,0.0051
3512.00,0.0051
3511.00,0.0051
3510.00,0.0051
3509.00,0.0051
3508.00,0.0051
3507.00,0.0051
3506.00,0.0051
3505.00,0.0051
3504.00,0.0051
3503.00,0.0052
3502.00,0.0052
3501.00,0.0052
3500.00,0.0052
3499.00,0.0052
3498.00,0.0052
3497.00,0.0052
3496.00,0.0052
3495.00,0.0052
3494.00,0.0052
3493.00,0.0052
3492.00,0.0052
3491.00,0.0052
3490.00,0.0052
3489.00,0.0052
3488.00,0.0052
3487.00,0.0052
3486.00,0.0052
3485.00,0.0052
3484.00,0.0052
3483.00,0.0052
3482.00,0.0052
3481.00,0.0053
3480.00,0.0053
3479.00,0.0053
3478.00,0.0053
3477.00,0.0052
3476.00,0.0052
3475.00,0.0052
3474.00,0.0052
3473.00,0.0052
3472.00,0.0052
3471.00,0.0052
3470.00,0.0052
3469.00,0.0052
3468.00,0.0052
3467.00,0.0052
3466.00,0.0052
3465.00,0.0052
3464.00,0.0052
3463.00,0.0052
3462.00,0.0052
3461.00,0.0052
3460.00,0.0052
3459.00,0.0053
3458.00,0.0053
3457.00,0.0053
3456.00,0.0053
3455.00,0.0053
3454.00,0.0053
3453.00,0.0053
3452.00,0.0053
3451.00,0.0053
3450.00,0.0053
3449.00,0.0053
3448.00,0.0053
3447.00,0.0053
3446.00,0.0053
3445.00,0.0053
3444.00,0.0053
3443.00,0.0053
3442.00,0.0053
3441.00,0.0053
3440.00,0.0053
3439.00,0.0053
3438.00,0.0053
3437.00,0.0053
3436.00,0.0053
3435.00,0.0053
3434.00,0.0053
3433.00,0.0053
3432.00,0.0053
3431.00,0.0053
3430.00,0.0053
3429.00,0.0053
3428.00,0.0053
3427.00,0.0053
3426.00,0.0053
3425.00,0.0053
3424.00,0.0053
3423.00,0.0054
3422.00,0.0054
3421.00,0.0054
3420.00,0.0054
3419.00,0.0055
3418.00,0.0055
3417.00,0.0055
3416.00,0.0055
3415.00,0.0055
3414.00,0.0055
3413.00,0.0055
3412.00,0.0055
3411.00,0.0055
3410.00,0.0055
3409.00,0.0055
3408.00,0.0055
3407.00,0.0055
3406.00,0.0055
3405.00,0.0055
3404.00,0.0056
3403.00,0.0056
3402.00,0.0056
3401.00,0.0056
3400.00,0.0057
3399.00,0.0057
3398.00,0.0057
3397.00,0.0058
3396.00,0.0058
3395.00,0.0058
3394.00,0.0059
3393.00,0.0059
3392.00,0.0060
3391.00,0.0061
3390.00,0.0062
3389.00,0.0062
3388.00,0.0063
3387.00,0.0064
3386.00,0.0064
3385.00,0.0065
3384.00,0.0066
3383.00,0.0067
3382.00,0.0068
3381.00,0.0069
3380.00,0.0069
3379.00,0.0070
3378.00,0.0071
3377.00,0.0072
3376.00,0.0072
3375.00,0.0073
3374.00,0.0074
3373.00,0.0074
3372.00,0.0074
3371.00,0.0075
3370.00,0.0075
3369.00,0.0076
3368.00,0.0077
3367.00,0.0079
3366.00,0.0081
3365.00,0.0083
3364.00,0.0085
3363.00,0.0087
3362.00,0.0088
3361.00,0.0090
3360.00,0.0092
3359.00,0.0095
3358.00,0.0098
3357.00,0.0101
3356.00,0.0104
3355.00,0.0106
3354.00,0.0109
3353.00,0.0112
3352.00,0.0115
3351.00,0.0119
3350.00,0.0124
3349.00,0.0129
3348.00,0.0134
3347.00,0.0140
3346.00,0.0146
3345.00,0.0152
3344.00,0.0159
3343.00,0.0167
3342.00,0.0176
3341.00,0.0186
3340.00,0.0196
3339.00,0.0206
3338.00,0.0216
3337.00,0.0226
3336.00,0.0235
3335.00,0.0244
3334.00,0.0251
3333.00,0.0256
3332.00,0.0260
3331.00,0.0262
3330.00,0.0263
3329.00,0.0263
3328.00,0.0261
3327.00,0.0259
3326.00,0.0257
3325.00,0.0254
3324.00,0.0251
3323.00,0.0248
3322.00,0.0244
3321.00,0.0239
3320.00,0.0234
3319.00,0.0229
3318.00,0.0222
3317.00,0.0216
3316.00,0.0210
3315.00,0.0204
3314.00,0.0197
3313.00,0.0191
3312.00,0.0186
3311.00,0.0180
3310.00,0.0175
3309.00,0.0170
3308.00,0.0166
3307.00,0.0162
3306.00,0.0158
3305.00,0.0155
3304.00,0.0152
3303.00,0.0149
3302.00,0.0147
3301.00,0.0145
3300.00,0.0143
3299.00,0.0141
3298.00,0.0139
3297.00,0.0138
3296.00,0.0136
3295.00,0.0135
3294.00,0.0133
3293.00,0.0132
3292.00,0.0131
3291.00,0.0130
3290.00,0.0129
3289.00,0.0128
3288.00,0.0126
3287.00,0.0125
3286.00,0.0123
3285.00,0.0121
3284.00,0.0120
3283.00,0.0118
3282.00,0.0117
3281.00,0.0115
3280.00,0.0114
3279.00,0.0113
3278.00,0.0112
3277.00,0.0111
3276.00,0.0110
3275.00,0.0110
3274.00,0.0109
3273.00,0.0109
3272.00,0.0108
3271.00,0.0108
3270.00,0.0108
3269.00,0.0108
3268.00,0.0108
3267.00,0.0108
3266.00,0.0108
3265.00,0.0108
3264.00,0.0108
3263.00,0.0109
3262.00,0.0108
3261.00,0.0108
3260.00,0.0108
3259.00,0.0107
3258.00,0.0107
3257.00,0.0106
3256.00,0.0106
3255.00,0.0105
3254.00,0.0105
3253.00,0.0105
3252.00,0.0105
3251.00,0.0104
3250.00,0.0104
3249.00,0.0103
3248.00,0.0103
3247.00,0.0103
3246.00,0.0103
3245.00,0.0103
3244.00,0.0103
3243.00,0.0103
3242.00,0.0103
3241.00,0.0103
3240.00,0.0102
3239.00,0.0102
3238.00,0.0102
3237.00,0.0101
3236.00,0.0100
3235.00,0.0099
3234.00,0.0098
3233.00,0.0097
3232.00,0.0097
3231.00,0.0096
3230.00,0.0096
3229.00,0.0095
3228.00,0.0094
3227.00,0.0093
3226.00,0.0092
3225.00,0.0090
3224.00,0.0089
3223.00,0.0088
3222.00,0.0086
3221.00,0.0085
3220.00,0.0085
3219.00,0.0084
3218.00,0.0084
3217.00,0.0083
3216.00,0.0082
3215.00,0.0082
3214.00,0.0081
3213.00,0.0080
3212.00,0.0080
3211.00,0.0079
3210.00,0.0079
3209.00,0.0079
3208.00,0.0078
3207.00,0.0078
3206.00,0.0077
3205.00,0.0077
3204.00,0.0076
3203.00,0.0076
3202.00,0.0075
3201.00,0.0074
3200.00,0.0074
3199.00,0.0073
3198.00,0.0073
3197.00,0.0073
3196.00,0.0073
3195.00,0.0073
3194.00,0.0073
3193.00,0.0073
3192.00,0.0072
3191.00,0.0072
3190.00,0.0072
3189.00,0.0071
3188.00,0.0071
3187.00,0.0071
3186.00,0.0071
3185.00,0.0071
3184.00,0.0071
3183.00,0.0071
3182.00,0.0070
3181.00,0.0070
3180.00,0.0070
3179.00,0.0070
3178.00,0.0070
3177.00,0.0070
3176.00,0.0070
3175.00,0.0070
3174.00,0.0070
3173.00,0.0069
3172.00,0.0069
3171.00,0.0069
3170.00,0.0069
3169.00,0.0069
3168.00,0.0069
3167.00,0.0069
3166.00,0.0069
3165.00,0.0069
3164.00,0.0068
3163.00,0.0068
3162.00,0.0068
3161.00,0.0068
3160.00,0.0068
3159.00,0.0068
3158.00,0.0068
3157.00,0.0068
3156.00,0.0068
3155.00,0.0068
3154.00,0.0068
3153.00,0.0068
3152.00,0.0068
3151.00,0.0068
3150.00,0.0069
3149.00,0.0069
3148.00,0.0069
3147.00,0.0070
3146.00,0.0070
3145.00,0.0070
3144.00,0.0070
3143.00,0.0070
3142.00,0.0069
3141.00,0.0069
3140.00,0.0069
3139.00,0.0069
3138.00,0.0069
3137.00,0.0070
3136.00,0.0070
3135.00,0.0070
3134.00,0.0071
3133.00,0.0071
3132.00,0.0071
3131.00,0.0071
3130.00,0.0071
3129.00,0.0071
3128.00,0.0072
3127.00,0.0072
3126.00,0.0072
3125.00,0.0072
3124.00,0.0073
3123.00,0.0073
3122.00,0.0074
3121.00,0.0074
3120.00,0.0074
3119.00,0.0075
3118.00,0.0076
3117.00,0.0076
3116.00,0.0077
3115.00,0.0078
3114.00,0.0079
3113.00,0.0079
3112.00,0.0080
3111.00,0.0081
3110.00,0.0082
3109.00,0.0083
3108.00,0.0084
3107.00,0.0085
3106.00,0.0086
3105.00,0.0086
3104.00,0.0087
3103.00,0.0087
3102.00,0.0087
3101.00,0.0087
3100.00,0.0087
3099.00,0.0087
3098.00,0.0086
3097.00,0.0085
3096.00,0.0085
3095.00,0.0084
3094.00,0.0083
3093.00,0.0082
3092.00,0.0081
3091.00,0.0081
3090.00,0.0080
3089.00,0.0080
3088.00,0.0080
3087.00,0.0080
3086.00,0.0080
3085.00,0.0081
3084.00,0.0082
3083.00,0.0082
3082.00,0.0082
3081.00,0.0082
3080.00,0.0082
3079.00,0.0082
3078.00,0.0082
3077.00,0.0081
3076.00,0.0081
3075.00,0.0080
3074.00,0.0078
3073.00,0.0077
3072.00,0.0075
3071.00,0.0074
3070.00,0.0073
3069.00,0.0073
3068.00,0.0073
3067.00,0.0073
3066.00,0.0074
3065.00,0.0075
3064.00,0.0076
3063.00,0.0076
3062.00,0.0076
3061.00,0.0075
3060.00,0.0075
3059.00,0.0074
3058.00,0.0073
3057.00,0.0072
3056.00,0.0072
3055.00,0.0072
3054.00,0.0072
3053.00,0.0071
3052.00,0.0071
3051.00,0.0070
3050.00,0.0070
3049.00,0.0070
3048.00,0.0070
3047.00,0.0070
3046.00,0.0070
3045.00,0.0069
3044.00,0.0069
3043.00,0.0069
3042.00,0.0070
3041.00,0.0071
3040.00,0.0071
3039.00,0.0072
3038.00,0.0073
3037.00,0.0073
3036.00,0.0073
3035.00,0.0073
3034.00,0.0074
3033.00,0.0074
3032.00,0.0075
3031.00,0.0076
3030.00,0.0076
3029.00,0.0077
3028.00,0.0077
3027.00,0.0077
3026.00,0.0077
3025.00,0.0076
3024.00,0.0076
3023.00,0.0075
3022.00,0.0075
3021.00,0.0074
3020.00,0.0073
3019.00,0.0073
3018.00,0.0072
3017.00,0.0072
3016.00,0.0072
3015.00,0.0071
3014.00,0.0071
3013.00,0.0072
3012.00,0.0072
3011.00,0.0073
3010.00,0.0074
3009.00,0.0075
3008.00,0.0077
3007.00,0.0078
3006.00,0.0080
3005.00,0.0082
3004.00,0.0084
3003.00,0.0086
3002.00,0.0088
3001.00,0.0090
3000.00,0.0091
2999.00,0.0092
2998.00,0.0093
2997.00,0.0093
2996.00,0.0092
2995.00,0.0090
2994.00,0.0088
2993.00,0.0085
2992.00,0.0082
2991.00,0.0079
2990.00,0.0077
2989.00,0.0076
2988.00,0.0074
2987.00,0.0073
2986.00,0.0072
2985.00,0.0070
2984.00,0.0068
2983.00,0.0066
2982.00,0.0064
2981.00,0.0063
2980.00,0.0063
2979.00,0.0064
2978.00,0.0065
2977.00,0.0066
2976.00,0.0067
2975.00,0.0067
2974.00,0.0067
2973.00,0.0066
2972.00,0.0067
2971.00,0.0067
2970.00,0.0068
2969.00,0.0070
2968.00,0.0072
2967.00,0.0074
2966.00,0.0076
2965.00,0.0079
2964.00,0.0082
2963.00,0.0086
2962.00,0.0091
2961.00,0.0096
2960.00,0.0101
2959.00,0.0107
2958.00,0.0112
2957.00,0.0117
2956.00,0.0121
2955.00,0.0124
2954.00,0.0126
2953.00,0.0126
2952.00,0.0125
2951.00,0.0122
2950.00,0.0118
2949.00,0.0114
2948.00,0.0109
2947.00,0.0104
2946.00,0.0100
2945.00,0.0096
2944.00,0.0093
2943.00,0.0091
2942.00,0.0089
2941.00,0.0088
2940.00,0.0087
2939.00,0.0086
2938.00,0.0085
2937.00,0.0085
2936.00,0.0084
2935.00,0.0084
2934.00,0.0084
2933.00,0.0084
2932.00,0.0083
2931.00,0.0083
2930.00,0.0083
2929.00,0.0083
2928.00,0.0082
2927.00,0.0082
2926.00,0.0081
2925.00,0.0080
2924.00,0.0080
2923.00,0.0079
2922.00,0.0078
2921.00,0.0077
2920.00,0.0077
2919.00,0.0076
2918.00,0.0076
2917.00,0.0075
2916.00,0.0075
2915.00,0.0075
2914.00,0.0074
2913.00,0.0074
2912.00,0.0074
2911.00,0.0074
2910.00,0.0073
2909.00,0.0073
2908.00,0.0072
2907.00,0.0072
2906.00,0.0072
2905.00,0.0071
2904.00,0.0071
2903.00,0.0071
2902.00,0.0071
2901.00,0.0070
2900.00,0.0070
2899.00,0.0069
2898.00,0.0069
2897.00,0.0069
2896.00,0.0069
2895.00,0.0068
2894.00,0.0068
2893.00,0.0067
2892.00,0.0067
2891.00,0.0067
2890.00,0.0067
2889.00,0.0067
2888.00,0.0067
2887.00,0.0068
2886.00,0.0068
2885.00,0.0068
2884.00,0.0069
2883.00,0.0069
2882.00,0.0069
2881.00,0.0069
2880.00,0.0070
2879.00,0.0070
2878.00,0.0071
2877.00,0.0071
2876.00,0.0072
2875.00,0.0072
2874.00,0.0072
2873.00,0.0072
2872.00,0.0073
2871.00,0.0074
2870.00,0.0074
2869.00,0.0074
2868.00,0.0074
2867.00,0.0074
2866.00,0.0073
2865.00,0.0073
2864.00,0.0072
2863.00,0.0072
2862.00,0.0071
2861.00,0.0071
2860.00,0.0070
2859.00,0.0070
2858.00,0.0070
2857.00,0.0070
2856.00,0.0070
2855.00,0.0070
2854.00,0.0070
2853.00,0.0070
2852.00,0.0070
2851.00,0.0070
2850.00,0.0071
2849.00,0.0072
2848.00,0.0073
2847.00,0.0074
2846.00,0.0075
2845.00,0.0077
2844.00,0.0078
2843.00,0.0078
2842.00,0.0078
2841.00,0.0077
2840.00,0.0076
2839.00,0.0074
2838.00,0.0073
2837.00,0.0072
2836.00,0.0071
2835.00,0.0070
2834.00,0.0069
2833.00,0.0069
2832.00,0.0068
2831.00,0.0068
2830.00,0.0068
2829.00,0.0068
2828.00,0.0067
2827.00,0.0067
2826.00,0.0067
2825.00,0.0066
2824.00,0.0066
2823.00,0.0066
2822.00,0.0066
2821.00,0.0066
2820.00,0.0066
2819.00,0.0066
2818.00,0.0066
2817.00,0.0066
2816.00,0.0066
2815.00,0.0066
2814.00,0.0067
2813.00,0.0067
2812.00,0.0067
2811.00,0.0067
2810.00,0.0067
2809.00,0.0067
2808.00,0.0067
2807.00,0.0067
2806.00,0.0068
2805.00,0.0067
2804.00,0.0067
2803.00,0.0067
2802.00,0.0067
2801.00,0.0066
2800.00,0.0066
2799.00,0.0066
2798.00,0.0065
2797.00,0.0065
2796.00,0.0065
2795.00,0.0064
2794.00,0.0064
2793.00,0.0064
2792.00,0.0064
2791.00,0.0063
2790.00,0.0063
2789.00,0.0062
2788.00,0.0062
2787.00,0.0062
2786.00,0.0061
2785.00,0.0061
2784.00,0.0061
2783.00,0.0061
2782.00,0.0061
2781.00,0.0061
2780.00,0.0060
2779.00,0.0060
2778.00,0.0060
2777.00,0.0060
2776.00,0.0060
2775.00,0.0060
2774.00,0.0060
2773.00,0.0060
2772.00,0.0060
2771.00,0.0060
2770.00,0.0060
2769.00,0.0060
2768.00,0.0060
2767.00,0.0060
2766.00,0.0060
2765.00,0.0060
2764.00,0.0060
2763.00,0.0060
2762.00,0.0060
2761.00,0.0060
2760.00,0.0060
2759.00,0.0060
2758.00,0.0060
2757.00,0.0060
2756.00,0.0060
2755.00,0.0060
2754.00,0.0060
2753.00,0.0060
2752.00,0.0060
2751.00,0.0060
2750.00,0.0060
2749.00,0.0060
2748.00,0.0060
2747.00,0.0060
2746.00,0.0060
2745.00,0.0059
2744.00,0.0059
2743.00,0.0060
2742.00,0.0060
2741.00,0.0060
2740.00,0.0060
2739.00,0.0060
2738.00,0.0060
2737.00,0.0060
2736.00,0.0059
2735.00,0.0059
2734.00,0.0059
2733.00,0.0059
2732.00,0.0059
2731.00,0.0059
2730.00,0.0059
2729.00,0.0059
2728.00,0.0059
2727.00,0.0059
2726.00,0.0059
2725.00,0.0059
2724.00,0.0059
2723.00,0.0060
2722.00,0.0060
2721.00,0.0060
2720.00,0.0060
2719.00,0.0060
2718.00,0.0060
2717.00,0.0060
2716.00,0.0060
2715.00,0.0060
2714.00,0.0060
2713.00,0.0060
2712.00,0.0060
2711.00,0.0060
2710.00,0.0060
2709.00,0.0060
2708.00,0.0060
2707.00,0.0060
2706.00,0.0060
2705.00,0.0060
2704.00,0.0060
2703.00,0.0060
2702.00,0.0060
2701.00,0.0060
2700.00,0.0060
2699.00,0.0060
2698.00,0.0060
2697.00,0.0060
2696.00,0.0060
2695.00,0.0060
2694.00,0.0060
2693.00,0.0060
2692.00,0.0060
2691.00,0.0060
2690.00,0.0060
2689.00,0.0060
2688.00,0.0059
2687.00,0.0059
2686.00,0.0059
2685.00,0.0059
2684.00,0.0059
2683.00,0.0059
2682.00,0.0059
2681.00,0.0059
2680.00,0.0059
2679.00,0.0059
2678.00,0.0059
2677.00,0.0059
2676.00,0.0059
2675.00,0.0059
2674.00,0.0059
2673.00,0.0059
2672.00,0.0059
2671.00,0.0060
2670.00,0.0060
2669.00,0.0060
2668.00,0.0060
2667.00,0.0060
2666.00,0.0060
2665.00,0.0060
2664.00,0.0060
2663.00,0.0061
2662.00,0.0061
2661.00,0.0061
2660.00,0.0061
2659.00,0.0061
2658.00,0.0062
2657.00,0.0062
2656.00,0.0062
2655.00,0.0062
2654.00,0.0062
2653.00,0.0062
2652.00,0.0062
2651.00,0.0062
2650.00,0.0062
2649.00,0.0062
2648.00,0.0062
2647.00,0.0062
2646.00,0.0063
2645.00,0.0063
2644.00,0.0063
2643.00,0.0062
2642.00,0.0062
2641.00,0.0062
2640.00,0.0062
2639.00,0.0062
2638.00,0.0062
2637.00,0.0062
2636.00,0.0062
2635.00,0.0062
2634.00,0.0062
2633.00,0.0062
2632.00,0.0061
2631.00,0.0061
2630.00,0.0061
2629.00,0.0061
2628.00,0.0062
2627.00,0.0062
2626.00,0.0062
2625.00,0.0062
2624.00,0.0062
2623.00,0.0062
2622.00,0.0062
2621.00,0.0062
2620.00,0.0062
2619.00,0.0062
2618.00,0.0062
2617.00,0.0062
2616.00,0.0062
2615.00,0.0062
2614.00,0.0062
2613.00,0.0062
2612.00,0.0061
2611.00,0.0061
2610.00,0.0061
2609.00,0.0061
2608.00,0.0061
2607.00,0.0060
2606.00,0.0060
2605.00,0.0060
2604.00,0.0060
2603.00,0.0060
2602.00,0.0060
2601.00,0.0060
2600.00,0.0060
2599.00,0.0060
2598.00,0.0060
2597.00,0.0059
2596.00,0.0059
2595.00,0.0059
2594.00,0.0059
2593.00,0.0059
2592.00,0.0059
2591.00,0.0059
2590.00,0.0058
2589.00,0.0058
2588.00,0.0058
2587.00,0.0058
2586.00,0.0058
2585.00,0.0058
2584.00,0.0057
2583.00,0.0058
2582.00,0.0058
2581.00,0.0058
2580.00,0.0058
2579.00,0.0058
2578.00,0.0058
2577.00,0.0058
2576.00,0.0057
2575.00,0.0057
2574.00,0.0057
2573.00,0.0057
2572.00,0.0057
2571.00,0.0056
2570.00,0.0056
2569.00,0.0056
2568.00,0.0056
2567.00,0.0056
2566.00,0.0056
2565.00,0.0056
2564.00,0.0056
2563.00,0.0056
2562.00,0.0056
2561.00,0.0055
2560.00,0.0055
2559.00,0.0055
2558.00,0.0055
2557.00,0.0055
2556.00,0.0056
2555.00,0.0056
2554.00,0.0056
2553.00,0.0056
2552.00,0.0056
2551.00,0.0056
2550.00,0.0056
2549.00,0.0056
2548.00,0.0056
2547.00,0.0056
2546.00,0.0056
2545.00,0.0055
2544.00,0.0055
2543.00,0.0055
2542.00,0.0055
2541.00,0.0055
2540.00,0.0055
2539.00,0.0055
2538.00,0.0055
2537.00,0.0056
2536.00,0.0056
2535.00,0.0056
2534.00,0.0056
2533.00,0.0056
2532.00,0.0056
2531.00,0.0056
2530.00,0.0056
2529.00,0.0055
2528.00,0.0055
2527.00,0.0055
2526.00,0.0055
2525.00,0.0054
2524.00,0.0054
2523.00,0.0054
2522.00,0.0054
2521.00,0.0054
2520.00,0.0054
2519.00,0.0054
2518.00,0.0054
2517.00,0.0054
2516.00,0.0054
2515.00,0.0054
2514.00,0.0054
2513.00,0.0054
2512.00,0.0054
2511.00,0.0054
2510.00,0.0054
2509.00,0.0054
2508.00,0.0054
2507.00,0.0054
2506.00,0.0054
2505.00,0.0053
2504.00,0.0053
2503.00,0.0053
2502.00,0.0053
2501.00,0.0054
2500.00,0.0054
2499.00,0.0054
2498.00,0.0053
2497.00,0.0053
2496.00,0.0053
2495.00,0.0053
2494.00,0.0054
2493.00,0.0054
2492.00,0.0054
2491.00,0.0054
2490.00,0.0054
2489.00,0.0054
2488.00,0.0054
2487.00,0.0054
2486.00,0.0053
2485.00,0.0054
2484.00,0.0054
2483.00,0.0054
2482.00,0.0054
2481.00,0.0054
2480.00,0.0054
2479.00,0.0053
2478.00,0.0053
2477.00,0.0053
2476.00,0.0053
2475.00,0.0053
2474.00,0.0053
2473.00,0.0053
2472.00,0.0053
2471.00,0.0053
2470.00,0.0053
2469.00,0.0053
2468.00,0.0053
2467.00,0.0053
2466.00,0.0053
2465.00,0.0053
2464.00,0.0053
2463.00,0.0053
2462.00,0.0053
2461.00,0.0054
2460.00,0.0054
2459.00,0.0054
2458.00,0.0054
2457.00,0.0054
2456.00,0.0054
2455.00,0.0055
2454.00,0.0055
2453.00,0.0054
2452.00,0.0055
2451.00,0.0054
2450.00,0.0054
2449.00,0.0054
2448.00,0.0053
2447.00,0.0053
2446.00,0.0053
2445.00,0.0053
2444.00,0.0053
2443.00,0.0053
2442.00,0.0053
2441.00,0.0052
2440.00,0.0052
2439.00,0.0052
2438.00,0.0052
2437.00,0.0052
2436.00,0.0052
2435.00,0.0052
2434.00,0.0052
2433.00,0.0052
2432.00,0.0051
2431.00,0.0051
2430.00,0.0051
2429.00,0.0051
2428.00,0.0051
2427.00,0.0051
2426.00,0.0051
2425.00,0.0051
2424.00,0.0051
2423.00,0.0051
2422.00,0.0051
2421.00,0.0051
2420.00,0.0051
2419.00,0.0051
2418.00,0.0050
2417.00,0.0050
2416.00,0.0050
2415.00,0.0050
2414.00,0.0050
2413.00,0.0050
2412.00,0.0050
2411.00,0.0050
2410.00,0.0049
2409.00,0.0049
2408.00,0.0048
2407.00,0.0048
2406.00,0.0048
2405.00,0.0048
2404.00,0.0048
2403.00,0.0048
2402.00,0.0048
2401.00,0.0048
2400.00,0.0048
2399.00,0.0048
2398.00,0.0048
2397.00,0.0049
2396.00,0.0049
2395.00,0.0049
2394.00,0.0049
2393.00,0.0049
2392.00,0.0048
2391.00,0.0048
2390.00,0.0048
2389.00,0.0048
2388.00,0.0048
2387.00,0.0048
2386.00,0.0048
2385.00,0.0047
2384.00,0.0047
2383.00,0.0047
2382.00,0.0046
2381.00,0.0046
2380.00,0.0046
2379.00,0.0046
2378.00,0.0046
2377.00,0.0046
2376.00,0.0046
2375.00,0.0046
2374.00,0.0046
2373.00,0.0046
2372.00,0.0045
2371.00,0.0045
2370.00,0.0045
2369.00,0.0045
2368.00,0.0045
2367.00,0.0045
2366.00,0.0045
2365.00,0.0045
2364.00,0.0045
2363.00,0.0045
2362.00,0.0045
2361.00,0.0045
2360.00,0.0046
2359.00,0.0046
2358.00,0.0046
2357.00,0.0046
2356.00,0.0046
2355.00,0.0046
2354.00,0.0046
2353.00,0.0046
2352.00,0.0046
2351.00,0.0046
2350.00,0.0046
2349.00,0.0046
2348.00,0.0047
2347.00,0.0047
2346.00,0.0047
2345.00,0.0047
2344.00,0.0047
2343.00,0.0047
2342.00,0.0047
2341.00,0.0047
2340.00,0.0048
2339.00,0.0048
2338.00,0.0049
2337.00,0.0049
2336.00,0.0048
2335.00,0.0048
2334.00,0.0048
2333.00,0.0048
2332.00,0.0047
2331.00,0.0048
2330.00,0.0048
2329.00,0.0049
2328.00,0.0051
2327.00,0.0054
2326.00,0.0056
2325.00,0.0057
2324.00,0.0057
2323.00,0.0056
2322.00,0.0054
2321.00,0.0053
2320.00,0.0052
2319.00,0.0051
2318.00,0.0051
2317.00,0.0050
2316.00,0.0050
2315.00,0.0050
2314.00,0.0049
2313.00,0.0049
2312.00,0.0049
2311.00,0.0048
2310.00,0.0048
2309.00,0.0048
2308.00,0.0048
2307.00,0.0048
2306.00,0.0048
2305.00,0.0048
2304.00,0.0049
2303.00,0.0049
2302.00,0.0049
2301.00,0.0049
2300.00,0.0050
2299.00,0.0050
2298.00,0.0051
2297.00,0.0051
2296.00,0.0051
2295.00,0.0052
2294.00,0.0052
2293.00,0.0053
2292.00,0.0054
2291.00,0.0055
2290.00,0.0055
2289.00,0.0055
2288.00,0.0055
2287.00,0.0055
2286.00,0.0055
2285.00,0.0054
2284.00,0.0053
2283.00,0.0052
2282.00,0.0052
2281.00,0.0052
2280.00,0.0052
2279.00,0.0051
2278.00,0.0051
2277.00,0.0051
2276.00,0.0051
2275.00,0.0051
2274.00,0.0051
2273.00,0.0050
2272.00,0.0050
2271.00,0.0050
2270.00,0.0050
2269.00,0.0049
2268.00,0.0049
2267.00,0.0049
2266.00,0.0049
2265.00,0.0048
2264.00,0.0048
2263.00,0.0048
2262.00,0.0048
2261.00,0.0048
2260.00,0.0048
2259.00,0.0048
2258.00,0.0047
2257.00,0.0046
2256.00,0.0045
2255.00,0.0044
2254.00,0.0044
2253.00,0.0044
2252.00,0.0044
2251.00,0.0044
2250.00,0.0044
2249.00,0.0044
2248.00,0.0044
2247.00,0.0043
2246.00,0.0043
2245.00,0.0043
2244.00,0.0043
2243.00,0.0043
2242.00,0.0043
2241.00,0.0042
2240.00,0.0042
2239.00,0.0041
2238.00,0.0041
2237.00,0.0041
2236.00,0.0041
2235.00,0.0041
2234.00,0.0041
2233.00,0.0042
2232.00,0.0042
2231.00,0.0042
2230.00,0.0042
2229.00,0.0043
2228.00,0.0043
2227.00,0.0044
2226.00,0.0043
2225.00,0.0043
2224.00,0.0043
2223.00,0.0043
2222.00,0.0043
2221.00,0.0042
2220.00,0.0042
2219.00,0.0042
2218.00,0.0041
2217.00,0.0040
2216.00,0.0040
2215.00,0.0040
2214.00,0.0040
2213.00,0.0041
2212.00,0.0042
2211.00,0.0042
2210.00,0.0041
2209.00,0.0040
2208.00,0.0040
2207.00,0.0039
2206.00,0.0039
2205.00,0.0040
2204.00,0.0041
2203.00,0.0041
2202.00,0.0040
2201.00,0.0040
2200.00,0.0040
2199.00,0.0041
2198.00,0.0041
2197.00,0.0042
2196.00,0.0042
2195.00,0.0041
2194.00,0.0041
2193.00,0.0041
2192.00,0.0042
2191.00,0.0043
2190.00,0.0044
2189.00,0.0044
2188.00,0.0043
2187.00,0.0043
2186.00,0.0043
2185.00,0.0042
2184.00,0.0041
2183.00,0.0040
2182.00,0.0039
2181.00,0.0040
2180.00,0.0041
2179.00,0.0041
2178.00,0.0040
2177.00,0.0040
2176.00,0.0039
2175.00,0.0039
2174.00,0.0040
2173.00,0.0041
2172.00,0.0043
2171.00,0.0045
2170.00,0.0046
2169.00,0.0047
2168.00,0.0047
2167.00,0.0047
2166.00,0.0046
2165.00,0.0047
2164.00,0.0048
2163.00,0.0048
2162.00,0.0045
2161.00,0.0037
2160.00,0.0028
2159.00,0.0021
2158.00,0.0019
2157.00,0.0020
2156.00,0.0023
2155.00,0.0026
2154.00,0.0028
2153.00,0.0029
2152.00,0.0030
2151.00,0.0029
2150.00,0.0029
2149.00,0.0029
2148.00,0.0030
2147.00,0.0030
2146.00,0.0030
2145.00,0.0030
2144.00,0.0031
2143.00,0.0031
2142.00,0.0031
2141.00,0.0030
2140.00,0.0029
2139.00,0.0029
2138.00,0.0028
2137.00,0.0027
2136.00,0.0026
2135.00,0.0025
2134.00,0.0025
2133.00,0.0026
2132.00,0.0027
2131.00,0.0028
2130.00,0.0030
2129.00,0.0031
2128.00,0.0032
2127.00,0.0033
2126.00,0.0034
2125.00,0.0035
2124.00,0.0036
2123.00,0.0037
2122.00,0.0037
2121.00,0.0038
2120.00,0.0038
2119.00,0.0038
2118.00,0.0038
2117.00,0.0039
2116.00,0.0040
2115.00,0.0040
2114.00,0.0040
2113.00,0.0040
2112.00,0.0040
2111.00,0.0040
2110.00,0.0040
2109.00,0.0040
2108.00,0.0040
2107.00,0.0041
2106.00,0.0040
2105.00,0.0040
2104.00,0.0041
2103.00,0.0040
2102.00,0.0040
2101.00,0.0040
2100.00,0.0039
2099.00,0.0039
2098.00,0.0038
2097.00,0.0037
2096.00,0.0036
2095.00,0.0035
2094.00,0.0036
2093.00,0.0037
2092.00,0.0038
2091.00,0.0038
2090.00,0.0038
2089.00,0.0038
2088.00,0.0039
2087.00,0.0040
2086.00,0.0040
2085.00,0.0040
2084.00,0.0040
2083.00,0.0041
2082.00,0.0041
2081.00,0.0041
2080.00,0.0042
2079.00,0.0041
2078.00,0.0041
2077.00,0.0041
2076.00,0.0041
2075.00,0.0041
2074.00,0.0041
2073.00,0.0041
2072.00,0.0041
2071.00,0.0041
2070.00,0.0041
2069.00,0.0041
2068.00,0.0040
2067.00,0.0039
2066.00,0.0038
2065.00,0.0038
2064.00,0.0038
2063.00,0.0038
2062.00,0.0038
2061.00,0.0038
2060.00,0.0039
2059.00,0.0039
2058.00,0.0039
2057.00,0.0039
2056.00,0.0038
2055.00,0.0038
2054.00,0.0039
2053.00,0.0042
2052.00,0.0043
2051.00,0.0043
2050.00,0.0041
2049.00,0.0038
2048.00,0.0035
2047.00,0.0033
2046.00,0.0032
2045.00,0.0031
2044.00,0.0031
2043.00,0.0031
2042.00,0.0030
2041.00,0.0029
2040.00,0.0029
2039.00,0.0030
2038.00,0.0031
2037.00,0.0032
2036.00,0.0032
2035.00,0.0030
2034.00,0.0029
2033.00,0.0028
2032.00,0.0029
2031.00,0.0029
2030.00,0.0029
2029.00,0.0028
2028.00,0.0029
2027.00,0.0029
2026.00,0.0028
2025.00,0.0028
2024.00,0.0027
2023.00,0.0026
2022.00,0.0027
2021.00,0.0029
2020.00,0.0031
2019.00,0.0032
2018.00,0.0032
2017.00,0.0031
2016.00,0.0031
2015.00,0.0030
2014.00,0.0030
2013.00,0.0030
2012.00,0.0031
2011.00,0.0033
2010.00,0.0034
2009.00,0.0035
2008.00,0.0035
2007.00,0.0033
2006.00,0.0032
2005.00,0.0033
2004.00,0.0035
2003.00,0.0036
2002.00,0.0038
2001.00,0.0039
2000.00,0.0040
1999.00,0.0040
1998.00,0.0040
1997.00,0.0040
1996.00,0.0040
1995.00,0.0039
1994.00,0.0039
1993.00,0.0039
1992.00,0.0040
1991.00,0.0039
1990.00,0.0039
1989.00,0.0039
1988.00,0.0039
1987.00,0.0039
1986.00,0.0039
1985.00,0.0039
1984.00,0.0040
1983.00,0.0041
1982.00,0.0043
1981.00,0.0044
1980.00,0.0043
1979.00,0.0039
1978.00,0.0034
1977.00,0.0031
1976.00,0.0030
1975.00,0.0030
1974.00,0.0030
1973.00,0.0030
1972.00,0.0031
1971.00,0.0031
1970.00,0.0032
1969.00,0.0033
1968.00,0.0034
1967.00,0.0035
1966.00,0.0035
1965.00,0.0034
1964.00,0.0033
1963.00,0.0031
1962.00,0.0030
1961.00,0.0029
1960.00,0.0028
1959.00,0.0028
1958.00,0.0028
1957.00,0.0029
1956.00,0.0031
1955.00,0.0033
1954.00,0.0033
1953.00,0.0034
1952.00,0.0034
1951.00,0.0033
1950.00,0.0032
1949.00,0.0032
1948.00,0.0032
1947.00,0.0032
1946.00,0.0032
1945.00,0.0033
1944.00,0.0034
1943.00,0.0034
1942.00,0.0034
1941.00,0.0032
1940.00,0.0031
1939.00,0.0031
1938.00,0.0030
1937.00,0.0031
1936.00,0.0031
1935.00,0.0033
1934.00,0.0034
1933.00,0.0035
1932.00,0.0036
1931.00,0.0037
1930.00,0.0037
1929.00,0.0036
1928.00,0.0035
1927.00,0.0035
1926.00,0.0034
1925.00,0.0035
1924.00,0.0037
1923.00,0.0037
1922.00,0.0037
1921.00,0.0037
1920.00,0.0037
1919.00,0.0037
1918.00,0.0037
1917.00,0.0036
1916.00,0.0036
1915.00,0.0035
1914.00,0.0034
1913.00,0.0034
1912.00,0.0034
1911.00,0.0034
1910.00,0.0035
1909.00,0.0034
1908.00,0.0034
1907.00,0.0033
1906.00,0.0032
1905.00,0.0032
1904.00,0.0033
1903.00,0.0034
1902.00,0.0034
1901.00,0.0033
1900.00,0.0033
1899.00,0.0033
1898.00,0.0033
1897.00,0.0034
1896.00,0.0035
1895.00,0.0035
1894.00,0.0035
1893.00,0.0035
1892.00,0.0036
1891.00,0.0036
1890.00,0.0036
1889.00,0.0036
1888.00,0.0036
1887.00,0.0035
1886.00,0.0035
1885.00,0.0034
1884.00,0.0034
1883.00,0.0033
1882.00,0.0033
1881.00,0.0032
1880.00,0.0032
1879.00,0.0032
1878.00,0.0032
1877.00,0.0032
1876.00,0.0031
1875.00,0.0031
1874.00,0.0032
1873.00,0.0033
1872.00,0.0034
1871.00,0.0036
1870.00,0.0037
1869.00,0.0037
1868.00,0.0036
1867.00,0.0035
1866.00,0.0034
1865.00,0.0033
1864.00,0.0033
1863.00,0.0034
1862.00,0.0034
1861.00,0.0034
1860.00,0.0033
1859.00,0.0033
1858.00,0.0033
1857.00,0.0033
1856.00,0.0033
1855.00,0.0034
1854.00,0.0034
1853.00,0.0035
1852.00,0.0036
1851.00,0.0036
1850.00,0.0037
1849.00,0.0038
1848.00,0.0038
1847.00,0.0038
1846.00,0.0037
1845.00,0.0036
1844.00,0.0035
1843.00,0.0034
1842.00,0.0034
1841.00,0.0033
1840.00,0.0033
1839.00,0.0033
1838.00,0.0033
1837.00,0.0033
1836.00,0.0033
1835.00,0.0032
1834.00,0.0032
1833.00,0.0032
1832.00,0.0033
1831.00,0.0034
1830.00,0.0034
1829.00,0.0034
1828.00,0.0034
1827.00,0.0034
1826.00,0.0034
1825.00,0.0034
1824.00,0.0034
1823.00,0.0033
1822.00,0.0032
1821.00,0.0031
1820.00,0.0031
1819.00,0.0031
1818.00,0.0031
1817.00,0.0031
1816.00,0.0031
1815.00,0.0031
1814.00,0.0031
1813.00,0.0032
1812.00,0.0033
1811.00,0.0033
1810.00,0.0033
1809.00,0.0033
1808.00,0.0033
1807.00,0.0033
1806.00,0.0033
1805.00,0.0034
1804.00,0.0035
1803.00,0.0037
1802.00,0.0038
1801.00,0.0037
1800.00,0.0036
1799.00,0.0035
1798.00,0.0035
1797.00,0.0036
1796.00,0.0036
1795.00,0.0037
1794.00,0.0036
1793.00,0.0036
1792.00,0.0037
1791.00,0.0037
1790.00,0.0036
1789.00,0.0035
1788.00,0.0035
1787.00,0.0035
1786.00,0.0036
1785.00,0.0036
1784.00,0.0036
1783.00,0.0036
1782.00,0.0036
1781.00,0.0036
1780.00,0.0036
1779.00,0.0035
1778.00,0.0035
1777.00,0.0035
1776.00,0.0036
1775.00,0.0037
1774.00,0.0036
1773.00,0.0036
1772.00,0.0036
1771.00,0.0037
1770.00,0.0038
1769.00,0.0039
1768.00,0.0039
1767.00,0.0038
1766.00,0.0037
1765.00,0.0037
1764.00,0.0038
1763.00,0.0039
1762.00,0.0039
1761.00,0.0040
1760.00,0.0041
1759.00,0.0042
1758.00,0.0043
1757.00,0.0043
1756.00,0.0043
1755.00,0.0044
1754.00,0.0044
1753.00,0.0046
1752.00,0.0048
1751.00,0.0050
1750.00,0.0051
1749.00,0.0052
1748.00,0.0052
1747.00,0.0052
1746.00,0.0053
1745.00,0.0054
1744.00,0.0056
1743.00,0.0057
1742.00,0.0057
1741.00,0.0057
1740.00,0.0058
1739.00,0.0061
1738.00,0.0063
1737.00,0.0066
1736.00,0.0069
1735.00,0.0072
1734.00,0.0075
1733.00,0.0078
1732.00,0.0081
1731.00,0.0082
1730.00,0.0083
1729.00,0.0083
1728.00,0.0084
1727.00,0.0086
1726.00,0.0087
1725.00,0.0089
1724.00,0.0090
1723.00,0.0091
1722.00,0.0090
1721.00,0.0089
1720.00,0.0089
1719.00,0.0088
1718.00,0.0087
1717.00,0.0087
1716.00,0.0088
1715.00,0.0090
1714.00,0.0091
1713.00,0.0093
1712.00,0.0097
1711.00,0.0102
1710.00,0.0107
1709.00,0.0113
1708.00,0.0120
1707.00,0.0127
1706.00,0.0134
1705.00,0.0141
1704.00,0.0149
1703.00,0.0154
1702.00,0.0159
1701.00,0.0168
1700.00,0.0182
1699.00,0.0197
1698.00,0.0212
1697.00,0.0234
1696.00,0.0270
1695.00,0.0318
1694.00,0.0369
1693.00,0.0423
1692.00,0.0482
1691.00,0.0545
1690.00,0.0602
1689.00,0.0643
1688.00,0.0663
1687.00,0.0665
1686.00,0.0658
1685.00,0.0656
1684.00,0.0669
1683.00,0.0693
1682.00,0.0721
1681.00,0.0752
1680.00,0.0784
1679.00,0.0810
1678.00,0.0821
1677.00,0.0815
1676.00,0.0789
1675.00,0.0747
1674.00,0.0695
1673.00,0.0643
1672.00,0.0591
1671.00,0.0539
1670.00,0.0487
1669.00,0.0441
1668.00,0.0403
1667.00,0.0374
1666.00,0.0350
1665.00,0.0330
1664.00,0.0311
1663.00,0.0295
1662.00,0.0282
1661.00,0.0271
1660.00,0.0261
1659.00,0.0254
1658.00,0.0248
1657.00,0.0245
1656.00,0.0244
1655.00,0.0245
1654.00,0.0257
1653.00,0.0282
1652.00,0.0311
1651.00,0.0335
1650.00,0.0354
1649.00,0.0372
1648.00,0.0387
1647.00,0.0397
1646.00,0.0397
1645.00,0.0387
1644.00,0.0370
1643.00,0.0350
1642.00,0.0330
1641.00,0.0310
1640.00,0.0293
1639.00,0.0278
1638.00,0.0266
1637.00,0.0256
1636.00,0.0249
1635.00,0.0248
1634.00,0.0252
1633.00,0.0259
1632.00,0.0268
1631.00,0.0278
1630.00,0.0289
1629.00,0.0299
1628.00,0.0307
1627.00,0.0312
1626.00,0.0314
1625.00,0.0314
1624.00,0.0314
1623.00,0.0314
1622.00,0.0314
1621.00,0.0313
1620.00,0.0311
1619.00,0.0307
1618.00,0.0301
1617.00,0.0294
1616.00,0.0286
1615.00,0.0278
1614.00,0.0270
1613.00,0.0260
1612.00,0.0251
1611.00,0.0242
1610.00,0.0236
1609.00,0.0232
1608.00,0.0231
1607.00,0.0234
1606.00,0.0240
1605.00,0.0248
1604.00,0.0251
1603.00,0.0247
1602.00,0.0236
1601.00,0.0220
1600.00,0.0202
1599.00,0.0185
1598.00,0.0172
1597.00,0.0162
1596.00,0.0154
1595.00,0.0148
1594.00,0.0142
1593.00,0.0137
1592.00,0.0132
1591.00,0.0127
1590.00,0.0121
1589.00,0.0116
1588.00,0.0112
1587.00,0.0107
1586.00,0.0104
1585.00,0.0102
1584.00,0.0100
1583.00,0.0099
1582.00,0.0098
1581.00,0.0099
1580.00,0.0102
1579.00,0.0105
1578.00,0.0109
1577.00,0.0116
1576.00,0.0125
1575.00,0.0132
1574.00,0.0134
1573.00,0.0131
1572.00,0.0126
1571.00,0.0119
1570.00,0.0113
1569.00,0.0108
1568.00,0.0105
1567.00,0.0103
1566.00,0.0101
1565.00,0.0101
1564.00,0.0101
1563.00,0.0101
1562.00,0.0101
1561.00,0.0102
1560.00,0.0103
1559.00,0.0103
1558.00,0.0103
1557.00,0.0104
1556.00,0.0104
1555.00,0.0104
1554.00,0.0104
1553.00,0.0105
1552.00,0.0106
1551.00,0.0108
1550.00,0.0109
1549.00,0.0110
1548.00,0.0111
1547.00,0.0113
1546.00,0.0117
1545.00,0.0123
1544.00,0.0127
1543.00,0.0131
1542.00,0.0134
1541.00,0.0142
1540.00,0.0157
1539.00,0.0177
1538.00,0.0201
1537.00,0.0227
1536.00,0.0259
1535.00,0.0303
1534.00,0.0368
1533.00,0.0444
1532.00,0.0516
1531.00,0.0577
1530.00,0.0629
1529.00,0.0672
1528.00,0.0703
1527.00,0.0715
1526.00,0.0707
1525.00,0.0681
1524.00,0.0645
1523.00,0.0604
1522.00,0.0556
1521.00,0.0506
1520.00,0.0463
1519.00,0.0429
1518.00,0.0401
1517.00,0.0374
1516.00,0.0350
1515.00,0.0329
1514.00,0.0312
1513.00,0.0297
1512.00,0.0285
1511.00,0.0279
1510.00,0.0276
1509.00,0.0277
1508.00,0.0282
1507.00,0.0296
1506.00,0.0315
1505.00,0.0337
1504.00,0.0362
1503.00,0.0390
1502.00,0.0421
1501.00,0.0457
1500.00,0.0494
1499.00,0.0531
1498.00,0.0566
1497.00,0.0596
1496.00,0.0616
1495.00,0.0627
1494.00,0.0629
1493.00,0.0625
1492.00,0.0618
1491.00,0.0609
1490.00,0.0597
1489.00,0.0579
1488.00,0.0557
1487.00,0.0534
1486.00,0.0511
1485.00,0.0488
1484.00,0.0467
1483.00,0.0447
1482.00,0.0429
1481.00,0.0412
1480.00,0.0397
1479.00,0.0384
1478.00,0.0373
1477.00,0.0362
1476.00,0.0352
1475.00,0.0340
1474.00,0.0329
1473.00,0.0318
1472.00,0.0307
1471.00,0.0298
1470.00,0.0292
1469.00,0.0287
1468.00,0.0285
1467.00,0.0283
1466.00,0.0281
1465.00,0.0278
1464.00,0.0275
1463.00,0.0270
1462.00,0.0266
1461.00,0.0264
1460.00,0.0262
1459.00,0.0261
1458.00,0.0260
1457.00,0.0259
1456.00,0.0256
1455.00,0.0252
1454.00,0.0248
1453.00,0.0246
1452.00,0.0244
1451.00,0.0245
1450.00,0.0248
1449.00,0.0254
1448.00,0.0264
1447.00,0.0277
1446.00,0.0291
1445.00,0.0305
1444.00,0.0317
1443.00,0.0326
1442.00,0.0333
1441.00,0.0342
1440.00,0.0354
1439.00,0.0373
1438.00,0.0403
1437.00,0.0447
1436.00,0.0496
1435.00,0.0539
1434.00,0.0573
1433.00,0.0599
1432.00,0.0615
1431.00,0.0612
1430.00,0.0588
1429.00,0.0550
1428.00,0.0507
1427.00,0.0465
1426.00,0.0427
1425.00,0.0394
1424.00,0.0364
1423.00,0.0339
1422.00,0.0318
1421.00,0.0300
1420.00,0.0285
1419.00,0.0271
1418.00,0.0256
1417.00,0.0242
1416.00,0.0229
1415.00,0.0216
1414.00,0.0206
1413.00,0.0197
1412.00,0.0190
1411.00,0.0183
1410.00,0.0177
1409.00,0.0171
1408.00,0.0166
1407.00,0.0162
1406.00,0.0159
1405.00,0.0155
1404.00,0.0151
1403.00,0.0147
1402.00,0.0145
1401.00,0.0143
1400.00,0.0142
1399.00,0.0142
1398.00,0.0142
1397.00,0.0142
1396.00,0.0142
1395.00,0.0142
1394.00,0.0143
1393.00,0.0145
1392.00,0.0148
1391.00,0.0153
1390.00,0.0160
1389.00,0.0168
1388.00,0.0176
1387.00,0.0182
1386.00,0.0186
1385.00,0.0189
1384.00,0.0194
1383.00,0.0202
1382.00,0.0211
1381.00,0.0220
1380.00,0.0226
1379.00,0.0227
1378.00,0.0222
1377.00,0.0212
1376.00,0.0200
1375.00,0.0187
1374.00,0.0175
1373.00,0.0164
1372.00,0.0155
1371.00,0.0148
1370.00,0.0144
1369.00,0.0142
1368.00,0.0141
1367.00,0.0142
1366.00,0.0145
1365.00,0.0151
1364.00,0.0161
1363.00,0.0172
1362.00,0.0184
1361.00,0.0196
1360.00,0.0210
1359.00,0.0225
1358.00,0.0244
1357.00,0.0268
1356.00,0.0298
1355.00,0.0338
1354.00,0.0388
1353.00,0.0449
1352.00,0.0517
1351.00,0.0584
1350.00,0.0637
1349.00,0.0666
1348.00,0.0668
1347.00,0.0648
1346.00,0.0616
1345.00,0.0583
1344.00,0.0559
1343.00,0.0545
1342.00,0.0539
1341.00,0.0536
1340.00,0.0530
1339.00,0.0516
1338.00,0.0493
1337.00,0.0465
1336.00,0.0433
1335.00,0.0401
1334.00,0.0370
1333.00,0.0342
1332.00,0.0318
1331.00,0.0299
1330.00,0.0285
1329.00,0.0275
1328.00,0.0270
1327.00,0.0269
1326.00,0.0273
1325.00,0.0284
1324.00,0.0302
1323.00,0.0329
1322.00,0.0360
1321.00,0.0392
1320.00,0.0421
1319.00,0.0445
1318.00,0.0462
1317.00,0.0478
1316.00,0.0494
1315.00,0.0513
1314.00,0.0533
1313.00,0.0553
1312.00,0.0571
1311.00,0.0585
1310.00,0.0594
1309.00,0.0597
1308.00,0.0591
1307.00,0.0577
1306.00,0.0555
1305.00,0.0530
1304.00,0.0504
1303.00,0.0477
1302.00,0.0452
1301.00,0.0429
1300.00,0.0408
1299.00,0.0390
1298.00,0.0373
1297.00,0.0360
1296.00,0.0350
1295.00,0.0344
1294.00,0.0341
1293.00,0.0342
1292.00,0.0345
1291.00,0.0347
1290.00,0.0345
1289.00,0.0340
1288.00,0.0332
1287.00,0.0321
1286.00,0.0311
1285.00,0.0302
1284.00,0.0294
1283.00,0.0288
1282.00,0.0284
1281.00,0.0280
1280.00,0.0278
1279.00,0.0277
1278.00,0.0278
1277.00,0.0279
1276.00,0.0282
1275.00,0.0285
1274.00,0.0289
1273.00,0.0294
1272.00,0.0299
1271.00,0.0303
1270.00,0.0304
1269.00,0.0302
1268.00,0.0294
1267.00,0.0282
1266.00,0.0268
1265.00,0.0253
1264.00,0.0238
1263.00,0.0226
1262.00,0.0216
1261.00,0.0208
1260.00,0.0202
1259.00,0.0197
1258.00,0.0193
1257.00,0.0190
1256.00,0.0188
1255.00,0.0188
1254.00,0.0188
1253.00,0.0189
1252.00,0.0190
1251.00,0.0193
1250.00,0.0196
1249.00,0.0200
1248.00,0.0204
1247.00,0.0209
1246.00,0.0215
1245.00,0.0224
1244.00,0.0234
1243.00,0.0248
1242.00,0.0267
1241.00,0.0291
1240.00,0.0319
1239.00,0.0349
1238.00,0.0379
1237.00,0.0411
1236.00,0.0446
1235.00,0.0491
1234.00,0.0546
1233.00,0.0612
1232.00,0.0687
1231.00,0.0766
1230.00,0.0847
1229.00,0.0926
1228.00,0.0999
1227.00,0.1061
1226.00,0.1105
1225.00,0.1128
1224.00,0.1130
1223.00,0.1113
1222.00,0.1081
1221.00,0.1040
1220.00,0.0995
1219.00,0.0948
1218.00,0.0902
1217.00,0.0858
1216.00,0.0816
1215.00,0.0776
1214.00,0.0737
1213.00,0.0699
1212.00,0.0661
1211.00,0.0625
1210.00,0.0591
1209.00,0.0558
1208.00,0.0528
1207.00,0.0499
1206.00,0.0473
1205.00,0.0450
1204.00,0.0428
1203.00,0.0409
1202.00,0.0393
1201.00,0.0379
1200.00,0.0370
1199.00,0.0366
1198.00,0.0369
1197.00,0.0381
1196.00,0.0405
1195.00,0.0441
1194.00,0.0488
1193.00,0.0543
1192.00,0.0599
1191.00,0.0645
1190.00,0.0674
1189.00,0.0681
1188.00,0.0666
1187.00,0.0634
1186.00,0.0593
1185.00,0.0551
1184.00,0.0511
1183.00,0.0474
1182.00,0.0442
1181.00,0.0413
1180.00,0.0385
1179.00,0.0361
1178.00,0.0339
1177.00,0.0320
1176.00,0.0305
1175.00,0.0293
1174.00,0.0285
1173.00,0.0280
1172.00,0.0278
1171.00,0.0280
1170.00,0.0287
1169.00,0.0301
1168.00,0.0321
1167.00,0.0347
1166.00,0.0374
1165.00,0.0395
1164.00,0.0404
1163.00,0.0396
1162.00,0.0376
1161.00,0.0348
1160.00,0.0320
1159.00,0.0299
1158.00,0.0288
1157.00,0.0290
1156.00,0.0308
1155.00,0.0340
1154.00,0.0380
1153.00,0.0417
1152.00,0.0438
1151.00,0.0436
1150.00,0.0414
1149.00,0.0380
1148.00,0.0345
1147.00,0.0314
1146.00,0.0288
1145.00,0.0268
1144.00,0.0252
1143.00,0.0239
1142.00,0.0231
1141.00,0.0226
1140.00,0.0224
1139.00,0.0225
1138.00,0.0227
1137.00,0.0231
1136.00,0.0234
1135.00,0.0236
1134.00,0.0240
1133.00,0.0245
1132.00,0.0254
1131.00,0.0267
1130.00,0.0289
1129.00,0.0320
1128.00,0.0364
1127.00,0.0422
1126.00,0.0495
1125.00,0.0580
1124.00,0.0670
1123.00,0.0756
1122.00,0.0827
1121.00,0.0875
1120.00,0.0896
1119.00,0.0891
1118.00,0.0866
1117.00,0.0827
1116.00,0.0780
1115.00,0.0730
1114.00,0.0682
1113.00,0.0638
1112.00,0.0601
1111.00,0.0570
1110.00,0.0549
1109.00,0.0538
1108.00,0.0540
1107.00,0.0555
1106.00,0.0582
1105.00,0.0620
1104.00,0.0662
1103.00,0.0702
1102.00,0.0730
1101.00,0.0743
1100.00,0.0737
1099.00,0.0716
1098.00,0.0683
1097.00,0.0645
1096.00,0.0605
1095.00,0.0567
1094.00,0.0530
1093.00,0.0496
1092.00,0.0465
1091.00,0.0436
1090.00,0.0410
1089.00,0.0386
1088.00,0.0365
1087.00,0.0346
1086.00,0.0330
1085.00,0.0316
1084.00,0.0303
1083.00,0.0293
1082.00,0.0284
1081.00,0.0276
1080.00,0.0269
1079.00,0.0263
1078.00,0.0258
1077.00,0.0255
1076.00,0.0253
1075.00,0.0252
1074.00,0.0254
1073.00,0.0257
1072.00,0.0260
1071.00,0.0262
1070.00,0.0261
1069.00,0.0257
1068.00,0.0251
1067.00,0.0244
1066.00,0.0238
1065.00,0.0235
1064.00,0.0235
1063.00,0.0239
1062.00,0.0248
1061.00,0.0262
1060.00,0.0284
1059.00,0.0311
1058.00,0.0342
1057.00,0.0373
1056.00,0.0398
1055.00,0.0414
1054.00,0.0419
1053.00,0.0414
1052.00,0.0403
1051.00,0.0390
1050.00,0.0378
1049.00,0.0366
1048.00,0.0354
1047.00,0.0340
1046.00,0.0327
1045.00,0.0315
1044.00,0.0307
1043.00,0.0302
1042.00,0.0299
1041.00,0.0298
1040.00,0.0299
1039.00,0.0300
1038.00,0.0302
1037.00,0.0305
1036.00,0.0308
1035.00,0.0311
1034.00,0.0316
1033.00,0.0322
1032.00,0.0330
1031.00,0.0343
1030.00,0.0360
1029.00,0.0383
1028.00,0.0411
1027.00,0.0445
1026.00,0.0483
1025.00,0.0521
1024.00,0.0557
1023.00,0.0585
1022.00,0.0601
1021.00,0.0606
1020.00,0.0598
1019.00,0.0581
1018.00,0.0556
1017.00,0.0527
1016.00,0.0495
1015.00,0.0464
1014.00,0.0435
1013.00,0.0408
1012.00,0.0383
1011.00,0.0362
1010.00,0.0342
1009.00,0.0325
1008.00,0.0309
1007.00,0.0296
1006.00,0.0284
1005.00,0.0276
1004.00,0.0270
1003.00,0.0266
1002.00,0.0261
1001.00,0.0255
1000.00,0.0247
999.00,0.0238
998.00,0.0230
997.00,0.0223
996.00,0.0217
995.00,0.0212
994.00,0.0207
993.00,0.0203
992.00,0.0200
991.00,0.0196
990.00,0.0193
989.00,0.0190
988.00,0.0188
987.00,0.0185
986.00,0.0183
985.00,0.0181
984.00,0.0179
983.00,0.0177
982.00,0.0174
981.00,0.0172
980.00,0.0170
979.00,0.0169
978.00,0.0167
977.00,0.0165
976.00,0.0163
975.00,0.0162
974.00,0.0162
973.00,0.0163
972.00,0.0165
971.00,0.0167
970.00,0.0170
969.00,0.0171
968.00,0.0170
967.00,0.0168
966.00,0.0169
965.00,0.0172
964.00,0.0179
963.00,0.0185
962.00,0.0187
961.00,0.0185
960.00,0.0181
959.00,0.0178
958.00,0.0180
957.00,0.0186
956.00,0.0194
955.00,0.0201
954.00,0.0204
953.00,0.0201
952.00,0.0195
951.00,0.0187
950.00,0.0178
949.00,0.0171
948.00,0.0164
947.00,0.0158
946.00,0.0153
945.00,0.0149
944.00,0.0146
943.00,0.0143
942.00,0.0140
941.00,0.0138
940.00,0.0136
939.00,0.0134
938.00,0.0132
937.00,0.0131
936.00,0.0129
935.00,0.0128
934.00,0.0128
933.00,0.0127
932.00,0.0126
931.00,0.0125
930.00,0.0124
929.00,0.0123
928.00,0.0123
927.00,0.0123
926.00,0.0124
925.00,0.0124
924.00,0.0125
923.00,0.0125
922.00,0.0125
921.00,0.0124
920.00,0.0123
919.00,0.0121
918.00,0.0119
917.00,0.0118
916.00,0.0117
915.00,0.0116
914.00,0.0116
913.00,0.0115
912.00,0.0114
911.00,0.0113
910.00,0.0112
909.00,0.0112
908.00,0.0111
907.00,0.0111
906.00,0.0111
905.00,0.0110
904.00,0.0110
903.00,0.0109
902.00,0.0109
901.00,0.0108
900.00,0.0107
899.00,0.0107
898.00,0.0107
897.00,0.0107
896.00,0.0106
895.00,0.0106
894.00,0.0105
893.00,0.0105
892.00,0.0105
891.00,0.0105
890.00,0.0104
889.00,0.0104
888.00,0.0104
887.00,0.0105
886.00,0.0107
885.00,0.0111
884.00,0.0113
883.00,0.0114
882.00,0.0111
881.00,0.0108
880.00,0.0104
879.00,0.0101
878.00,0.0099
877.00,0.0098
876.00,0.0098
875.00,0.0097
874.00,0.0097
873.00,0.0097
872.00,0.0098
871.00,0.0098
870.00,0.0099
869.00,0.0100
868.00,0.0101
867.00,0.0102
866.00,0.0104
865.00,0.0107
864.00,0.0113
863.00,0.0129
862.00,0.0162
861.00,0.0216
860.00,0.0282
859.00,0.0330
858.00,0.0337
857.00,0.0303
856.00,0.0249
855.00,0.0200
854.00,0.0165
853.00,0.0144
852.00,0.0131
851.00,0.0123
850.00,0.0118
849.00,0.0115
848.00,0.0112
847.00,0.0110
846.00,0.0109
845.00,0.0109
844.00,0.0110
843.00,0.0112
842.00,0.0115
841.00,0.0121
840.00,0.0131
839.00,0.0151
838.00,0.0182
837.00,0.0224
836.00,0.0271
835.00,0.0315
834.00,0.0353
833.00,0.0388
832.00,0.0424
831.00,0.0461
830.00,0.0488
829.00,0.0495
828.00,0.0479
827.00,0.0444
826.00,0.0400
825.00,0.0356
824.00,0.0317
823.00,0.0284
822.00,0.0257
821.00,0.0233
820.00,0.0212
819.00,0.0193
818.00,0.0177
817.00,0.0164
816.00,0.0152
815.00,0.0144
814.00,0.0137
813.00,0.0133
812.00,0.0133
811.00,0.0135
810.00,0.0139
809.00,0.0146
808.00,0.0153
807.00,0.0158
806.00,0.0159
805.00,0.0153
804.00,0.0145
803.00,0.0137
802.00,0.0133
801.00,0.0135
800.00,0.0146
799.00,0.0173
798.00,0.0227
797.00,0.0315
796.00,0.0428
795.00,0.0537
794.00,0.0603
793.00,0.0604
792.00,0.0553
791.00,0.0481
790.00,0.0414
789.00,0.0360
788.00,0.0316
787.00,0.0279
786.00,0.0248
785.00,0.0225
784.00,0.0206
783.00,0.0193
782.00,0.0183
781.00,0.0175
780.00,0.0169
779.00,0.0164
778.00,0.0160
777.00,0.0161
776.00,0.0166
775.00,0.0176
774.00,0.0189
773.00,0.0198
772.00,0.0200
771.00,0.0194
770.00,0.0186
769.00,0.0184
768.00,0.0196
767.00,0.0230
766.00,0.0286
765.00,0.0359
764.00,0.0429
763.00,0.0473
762.00,0.0477
761.00,0.0446
760.00,0.0397
759.00,0.0347
758.00,0.0307
757.00,0.0277
756.00,0.0256
755.00,0.0241
754.00,0.0232
753.00,0.0229
752.00,0.0234
751.00,0.0250
750.00,0.0280
749.00,0.0329
748.00,0.0397
747.00,0.0473
746.00,0.0539
745.00,0.0573
744.00,0.0564
743.00,0.0520
742.00,0.0460
741.00,0.0400
740.00,0.0348
739.00,0.0305
738.00,0.0270
737.00,0.0242
736.00,0.0220
735.00,0.0202
734.00,0.0189
733.00,0.0179
732.00,0.0171
731.00,0.0165
730.00,0.0160
729.00,0.0156
728.00,0.0152
727.00,0.0149
726.00,0.0146
725.00,0.0145
724.00,0.0145
723.00,0.0146
722.00,0.0149
721.00,0.0155
720.00,0.0165
719.00,0.0183
718.00,0.0213
717.00,0.0264
716.00,0.0341
715.00,0.0440
714.00,0.0538
713.00,0.0606
712.00,0.0622
711.00,0.0585
710.00,0.0518
709.00,0.0444
708.00,0.0380
707.00,0.0330
706.00,0.0295
705.00,0.0270
704.00,0.0252
703.00,0.0238
702.00,0.0227
701.00,0.0220
700.00,0.0216
699.00,0.0214
698.00,0.0216
697.00,0.0219
696.00,0.0226
695.00,0.0237
694.00,0.0253
693.00,0.0274
692.00,0.0302
691.00,0.0336
690.00,0.0374
689.00,0.0411
688.00,0.0443
687.00,0.0461
686.00,0.0461
685.00,0.0443
684.00,0.0411
683.00,0.0374
682.00,0.0340
681.00,0.0315
680.00,0.0299
679.00,0.0293
678.00,0.0297
677.00,0.0310
676.00,0.0328
675.00,0.0344
674.00,0.0353
673.00,0.0350
672.00,0.0337
671.00,0.0318
670.00,0.0301
669.00,0.0288
668.00,0.0282
667.00,0.0283
666.00,0.0286
665.00,0.0290
664.00,0.0293
663.00,0.0295
662.00,0.0295
661.00,0.0291
660.00,0.0284
659.00,0.0275
658.00,0.0264
657.00,0.0253
656.00,0.0242
655.00,0.0231
654.00,0.0221
653.00,0.0212
652.00,0.0203
651.00,0.0195
650.00,0.0188
649.00,0.0182
648.00,0.0175
647.00,0.0169
646.00,0.0165
645.00,0.0160
644.00,0.0157
643.00,0.0154
642.00,0.0151
641.00,0.0148
640.00,0.0144
639.00,0.0141
638.00,0.0138
637.00,0.0137
636.00,0.0136
635.00,0.0137
634.00,0.0139
633.00,0.0142
632.00,0.0147
631.00,0.0156
630.00,0.0169
629.00,0.0190
628.00,0.0220
627.00,0.0257
626.00,0.0300
625.00,0.0340
624.00,0.0369
623.00,0.0381
622.00,0.0378
621.00,0.0362
620.00,0.0338
619.00,0.0313
618.00,0.0289
617.00,0.0268
616.00,0.0251
615.00,0.0239
614.00,0.0231
613.00,0.0228
612.00,0.0229
611.00,0.0234
610.00,0.0242
609.00,0.0250
608.00,0.0253
607.00,0.0250
606.00,0.0240
605.00,0.0226
604.00,0.0213
603.00,0.0202
602.00,0.0192
601.00,0.0184
600.00,0.0176
599.00,0.0170
598.00,0.0166
597.00,0.0165
596.00,0.0166
595.00,0.0170
594.00,0.0180
593.00,0.0194
592.00,0.0211
591.00,0.0226
590.00,0.0232
589.00,0.0230
588.00,0.0227
587.00,0.0228
586.00,0.0236
585.00,0.0244
584.00,0.0246
583.00,0.0240
582.00,0.0226
581.00,0.0209
580.00,0.0193
579.00,0.0180
578.00,0.0172
577.00,0.0167
576.00,0.0165
575.00,0.0163
574.00,0.0162
573.00,0.0163
572.00,0.0165
571.00,0.0170
570.00,0.0175
569.00,0.0181
568.00,0.0186
567.00,0.0192
566.00,0.0198
565.00,0.0204
564.00,0.0206
563.00,0.0204
562.00,0.0197
561.00,0.0188
560.00,0.0178
559.00,0.0169
558.00,0.0161
557.00,0.0154
556.00,0.0149
555.00,0.0145
554.00,0.0143
553.00,0.0142
552.00,0.0142
551.00,0.0141
550.00,0.0139
549.00,0.0136
548.00,0.0132
547.00,0.0129
546.00,0.0128
545.00,0.0127
544.00,0.0126
543.00,0.0125
542.00,0.0124
541.00,0.0124
540.00,0.0123
539.00,0.0122
538.00,0.0121
537.00,0.0121
536.00,0.0120
535.00,0.0120
534.00,0.0119
533.00,0.0118
532.00,0.0117
531.00,0.0117
530.00,0.0117
529.00,0.0117
528.00,0.0116
527.00,0.0116
526.00,0.0115
525.00,0.0114
524.00,0.0112
523.00,0.0110
522.00,0.0109
521.00,0.0110
520.00,0.0110
519.00,0.0112
518.00,0.0114
517.00,0.0117
516.00,0.0121
515.00,0.0125
514.00,0.0130
513.00,0.0133
512.00,0.0133
511.00,0.0132
510.00,0.0128
509.00,0.0125
508.00,0.0121
507.00,0.0119
506.00,0.0117
505.00,0.0115
504.00,0.0113
503.00,0.0112
502.00,0.0112
501.00,0.0110
500.00,0.0108
499.00,0.0106
498.00,0.0105
497.00,0.0106
496.00,0.0107
495.00,0.0109
494.00,0.0111
493.00,0.0111
492.00,0.0111
491.00,0.0110
490.00,0.0111
489.00,0.0111
488.00,0.0111
487.00,0.0113
486.00,0.0114
485.00,0.0115
484.00,0.0115
483.00,0.0116
482.00,0.0117
481.00,0.0120
480.00,0.0123
479.00,0.0126
478.00,0.0132
477.00,0.0138
476.00,0.0145
475.00,0.0155
474.00,0.0168
473.00,0.0183
472.00,0.0200
471.00,0.0216
470.00,0.0232
469.00,0.0245
468.00,0.0254
467.00,0.0255
466.00,0.0248
465.00,0.0236
464.00,0.0223
463.00,0.0211
462.00,0.0200
461.00,0.0190
460.00,0.0181
459.00,0.0174
458.00,0.0169
457.00,0.0163
456.00,0.0155
455.00,0.0149
454.00,0.0144
453.00,0.0138
452.00,0.0133
451.00,0.0128
450.00,0.0128
449.00,0.0129
448.00,0.0130
447.00,0.0130
446.00,0.0130
445.00,0.0129
444.00,0.0128
443.00,0.0126
442.00,0.0124
441.00,0.0121
440.00,0.0117
439.00,0.0116
438.00,0.0117
437.00,0.0118
436.00,0.0119
435.00,0.0117
434.00,0.0114
433.00,0.0111
432.00,0.0109
431.00,0.0110
430.00,0.0112
429.00,0.0115
428.00,0.0118
427.00,0.0123
426.00,0.0129
425.00,0.0134
424.00,0.0136
423.00,0.0135
422.00,0.0137
421.00,0.0143
420.00,0.0154
419.00,0.0170
418.00,0.0184
417.00,0.0193
416.00,0.0197
415.00,0.0204
414.00,0.0216
413.00,0.0229
412.00,0.0237
411.00,0.0236
410.00,0.0232
409.00,0.0225
408.00,0.0219
407.00,0.0211
406.00,0.0203
405.00,0.0194
404.00,0.0184
403.00,0.0177
402.00,0.0173
401.00,0.0172
400.00,0.0172
