Created as New Dataset,Sample 776 By YargerLab Date Monday, July 07 2025
cm-1,A
4000.00,0.0078
3999.00,0.0078
3998.00,0.0078
3997.00,0.0078
3996.00,0.0078
3995.00,0.0078
3994.00,0.0078
3993.00,0.0078
3992.00,0.0078
3991.00,0.0078
3990.00,0.0078
3989.00,0.0078
3988.00,0.0078
3987.00,0.0078
3986.00,0.0078
3985.00,0.0078
3984.00,0.0078
3983.00,0.0078
3982.00,0.0078
3981.00,0.0079
3980.00,0.0079
3979.00,0.0079
3978.00,0.0079
3977.00,0.0079
3976.00,0.0079
3975.00,0.0079
3974.00,0.0079
3973.00,0.0079
3972.00,0.0079
3971.00,0.0079
3970.00,0.0079
3969.00,0.0079
3968.00,0.0079
3967.00,0.0079
3966.00,0.0079
3965.00,0.0079
3964.00,0.0079
3963.00,0.0079
3962.00,0.0079
3961.00,0.0080
3960.00,0.0080
3959.00,0.0080
3958.00,0.0080
3957.00,0.0080
3956.00,0.0080
3955.00,0.0080
3954.00,0.0080
3953.00,0.0080
3952.00,0.0080
3951.00,0.0080
3950.00,0.0080
3949.00,0.0079
3948.00,0.0079
3947.00,0.0079
3946.00,0.0079
3945.00,0.0079
3944.00,0.0079
3943.00,0.0079
3942.00,0.0079
3941.00,0.0079
3940.00,0.0079
3939.00,0.0080
3938.00,0.0080
3937.00,0.0080
3936.00,0.0080
3935.00,0.0080
3934.00,0.0080
3933.00,0.0080
3932.00,0.0080
3931.00,0.0080
3930.00,0.0080
3929.00,0.0080
3928.00,0.0080
3927.00,0.0080
3926.00,0.0080
3925.00,0.0080
3924.00,0.0080
3923.00,0.0081
3922.00,0.0081
3921.00,0.0081
3920.00,0.0081
3919.00,0.0081
3918.00,0.0081
3917.00,0.0081
3916.00,0.0081
3915.00,0.0080
3914.00,0.0080
3913.00,0.0079
3912.00,0.0079
3911.00,0.0079
3910.00,0.0079
3909.00,0.0079
3908.00,0.0080
3907.00,0.0080
3906.00,0.0080
3905.00,0.0080
3904.00,0.0080
3903.00,0.0081
3902.00,0.0081
3901.00,0.0081
3900.00,0.0081
3899.00,0.0080
3898.00,0.0080
3897.00,0.0079
3896.00,0.0079
3895.00,0.0079
3894.00,0.0079
3893.00,0.0079
3892.00,0.0079
3891.00,0.0079
3890.00,0.0079
3889.00,0.0079
3888.00,0.0079
3887.00,0.0079
3886.00,0.0079
3885.00,0.0079
3884.00,0.0079
3883.00,0.0078
3882.00,0.0078
3881.00,0.0078
3880.00,0.0078
3879.00,0.0079
3878.00,0.0079
3877.00,0.0079
3876.00,0.0079
3875.00,0.0079
3874.00,0.0079
3873.00,0.0079
3872.00,0.0079
3871.00,0.0079
3870.00,0.0079
3869.00,0.0079
3868.00,0.0079
3867.00,0.0079
3866.00,0.0079
3865.00,0.0078
3864.00,0.0078
3863.00,0.0078
3862.00,0.0078
3861.00,0.0078
3860.00,0.0078
3859.00,0.0078
3858.00,0.0078
3857.00,0.0079
3856.00,0.0079
3855.00,0.0080
3854.00,0.0079
3853.00,0.0079
3852.00,0.0079
3851.00,0.0079
3850.00,0.0078
3849.00,0.0077
3848.00,0.0077
3847.00,0.0077
3846.00,0.0078
3845.00,0.0078
3844.00,0.0078
3843.00,0.0079
3842.00,0.0079
3841.00,0.0079
3840.00,0.0079
3839.00,0.0079
3838.00,0.0078
3837.00,0.0078
3836.00,0.0078
3835.00,0.0077
3834.00,0.0077
3833.00,0.0077
3832.00,0.0077
3831.00,0.0076
3830.00,0.0076
3829.00,0.0076
3828.00,0.0076
3827.00,0.0076
3826.00,0.0077
3825.00,0.0077
3824.00,0.0078
3823.00,0.0078
3822.00,0.0078
3821.00,0.0078
3820.00,0.0078
3819.00,0.0078
3818.00,0.0078
3817.00,0.0077
3816.00,0.0077
3815.00,0.0076
3814.00,0.0076
3813.00,0.0076
3812.00,0.0076
3811.00,0.0077
3810.00,0.0077
3809.00,0.0077
3808.00,0.0077
3807.00,0.0077
3806.00,0.0077
3805.00,0.0077
3804.00,0.0077
3803.00,0.0077
3802.00,0.0076
3801.00,0.0076
3800.00,0.0076
3799.00,0.0077
3798.00,0.0077
3797.00,0.0076
3796.00,0.0076
3795.00,0.0076
3794.00,0.0076
3793.00,0.0076
3792.00,0.0076
3791.00,0.0076
3790.00,0.0076
3789.00,0.0076
3788.00,0.0076
3787.00,0.0076
3786.00,0.0076
3785.00,0.0076
3784.00,0.0076
3783.00,0.0076
3782.00,0.0076
3781.00,0.0076
3780.00,0.0076
3779.00,0.0076
3778.00,0.0076
3777.00,0.0075
3776.00,0.0075
3775.00,0.0075
3774.00,0.0076
3773.00,0.0076
3772.00,0.0076
3771.00,0.0076
3770.00,0.0076
3769.00,0.0076
3768.00,0.0076
3767.00,0.0076
3766.00,0.0076
3765.00,0.0076
3764.00,0.0076
3763.00,0.0077
3762.00,0.0077
3761.00,0.0077
3760.00,0.0077
3759.00,0.0077
3758.00,0.0077
3757.00,0.0077
3756.00,0.0077
3755.00,0.0077
3754.00,0.0077
3753.00,0.0077
3752.00,0.0077
3751.00,0.0077
3750.00,0.0077
3749.00,0.0077
3748.00,0.0077
3747.00,0.0077
3746.00,0.0077
3745.00,0.0076
3744.00,0.0076
3743.00,0.0076
3742.00,0.0076
3741.00,0.0075
3740.00,0.0075
3739.00,0.0075
3738.00,0.0075
3737.00,0.0075
3736.00,0.0075
3735.00,0.0075
3734.00,0.0075
3733.00,0.0074
3732.00,0.0074
3731.00,0.0074
3730.00,0.0074
3729.00,0.0074
3728.00,0.0073
3727.00,0.0073
3726.00,0.0073
3725.00,0.0073
3724.00,0.0073
3723.00,0.0073
3722.00,0.0073
3721.00,0.0073
3720.00,0.0072
3719.00,0.0072
3718.00,0.0073
3717.00,0.0073
3716.00,0.0073
3715.00,0.0073
3714.00,0.0073
3713.00,0.0073
3712.00,0.0073
3711.00,0.0073
3710.00,0.0073
3709.00,0.0073
3708.00,0.0073
3707.00,0.0073
3706.00,0.0072
3705.00,0.0072
3704.00,0.0072
3703.00,0.0072
3702.00,0.0072
3701.00,0.0072
3700.00,0.0072
3699.00,0.0072
3698.00,0.0072
3697.00,0.0072
3696.00,0.0072
3695.00,0.0072
3694.00,0.0072
3693.00,0.0073
3692.00,0.0073
3691.00,0.0073
3690.00,0.0072
3689.00,0.0072
3688.00,0.0072
3687.00,0.0072
3686.00,0.0072
3685.00,0.0071
3684.00,0.0071
3683.00,0.0071
3682.00,0.0072
3681.00,0.0072
3680.00,0.0072
3679.00,0.0073
3678.00,0.0074
3677.00,0.0074
3676.00,0.0074
3675.00,0.0074
3674.00,0.0074
3673.00,0.0074
3672.00,0.0074
3671.00,0.0073
3670.00,0.0073
3669.00,0.0072
3668.00,0.0072
3667.00,0.0072
3666.00,0.0071
3665.00,0.0071
3664.00,0.0071
3663.00,0.0070
3662.00,0.0070
3661.00,0.0071
3660.00,0.0071
3659.00,0.0071
3658.00,0.0071
3657.00,0.0071
3656.00,0.0072
3655.00,0.0072
3654.00,0.0072
3653.00,0.0072
3652.00,0.0073
3651.00,0.0073
3650.00,0.0073
3649.00,0.0073
3648.00,0.0073
3647.00,0.0072
3646.00,0.0072
3645.00,0.0071
3644.00,0.0071
3643.00,0.0071
3642.00,0.0070
3641.00,0.0070
3640.00,0.0070
3639.00,0.0071
3638.00,0.0071
3637.00,0.0071
3636.00,0.0071
3635.00,0.0071
3634.00,0.0071
3633.00,0.0071
3632.00,0.0071
3631.00,0.0071
3630.00,0.0071
3629.00,0.0071
3628.00,0.0071
3627.00,0.0071
3626.00,0.0071
3625.00,0.0070
3624.00,0.0070
3623.00,0.0071
3622.00,0.0071
3621.00,0.0071
3620.00,0.0071
3619.00,0.0071
3618.00,0.0071
3617.00,0.0072
3616.00,0.0072
3615.00,0.0072
3614.00,0.0072
3613.00,0.0072
3612.00,0.0072
3611.00,0.0072
3610.00,0.0072
3609.00,0.0072
3608.00,0.0072
3607.00,0.0072
3606.00,0.0072
3605.00,0.0072
3604.00,0.0072
3603.00,0.0072
3602.00,0.0072
3601.00,0.0072
3600.00,0.0071
3599.00,0.0071
3598.00,0.0072
3597.00,0.0072
3596.00,0.0072
3595.00,0.0072
3594.00,0.0072
3593.00,0.0073
3592.00,0.0073
3591.00,0.0074
3590.00,0.0074
3589.00,0.0074
3588.00,0.0074
3587.00,0.0074
3586.00,0.0075
3585.00,0.0075
3584.00,0.0075
3583.00,0.0075
3582.00,0.0075
3581.00,0.0075
3580.00,0.0075
3579.00,0.0075
3578.00,0.0075
3577.00,0.0076
3576.00,0.0076
3575.00,0.0076
3574.00,0.0077
3573.00,0.0077
3572.00,0.0078
3571.00,0.0079
3570.00,0.0080
3569.00,0.0081
3568.00,0.0082
3567.00,0.0082
3566.00,0.0082
3565.00,0.0083
3564.00,0.0083
3563.00,0.0083
3562.00,0.0084
3561.00,0.0085
3560.00,0.0086
3559.00,0.0087
3558.00,0.0088
3557.00,0.0089
3556.00,0.0090
3555.00,0.0091
3554.00,0.0093
3553.00,0.0094
3552.00,0.0096
3551.00,0.0098
3550.00,0.0099
3549.00,0.0102
3548.00,0.0104
3547.00,0.0107
3546.00,0.0110
3545.00,0.0113
3544.00,0.0116
3543.00,0.0120
3542.00,0.0124
3541.00,0.0128
3540.00,0.0132
3539.00,0.0138
3538.00,0.0144
3537.00,0.0151
3536.00,0.0159
3535.00,0.0168
3534.00,0.0179
3533.00,0.0190
3532.00,0.0205
3531.00,0.0222
3530.00,0.0242
3529.00,0.0265
3528.00,0.0292
3527.00,0.0320
3526.00,0.0349
3525.00,0.0377
3524.00,0.0404
3523.00,0.0428
3522.00,0.0446
3521.00,0.0459
3520.00,0.0466
3519.00,0.0466
3518.00,0.0462
3517.00,0.0452
3516.00,0.0439
3515.00,0.0423
3514.00,0.0405
3513.00,0.0386
3512.00,0.0367
3511.00,0.0348
3510.00,0.0330
3509.00,0.0314
3508.00,0.0300
3507.00,0.0287
3506.00,0.0276
3505.00,0.0267
3504.00,0.0259
3503.00,0.0252
3502.00,0.0247
3501.00,0.0242
3500.00,0.0239
3499.00,0.0236
3498.00,0.0234
3497.00,0.0232
3496.00,0.0231
3495.00,0.0231
3494.00,0.0231
3493.00,0.0231
3492.00,0.0232
3491.00,0.0233
3490.00,0.0234
3489.00,0.0235
3488.00,0.0237
3487.00,0.0239
3486.00,0.0241
3485.00,0.0243
3484.00,0.0245
3483.00,0.0248
3482.00,0.0251
3481.00,0.0254
3480.00,0.0258
3479.00,0.0261
3478.00,0.0265
3477.00,0.0269
3476.00,0.0272
3475.00,0.0276
3474.00,0.0281
3473.00,0.0285
3472.00,0.0290
3471.00,0.0295
3470.00,0.0300
3469.00,0.0305
3468.00,0.0311
3467.00,0.0317
3466.00,0.0322
3465.00,0.0328
3464.00,0.0334
3463.00,0.0340
3462.00,0.0346
3461.00,0.0352
3460.00,0.0358
3459.00,0.0364
3458.00,0.0371
3457.00,0.0377
3456.00,0.0383
3455.00,0.0389
3454.00,0.0395
3453.00,0.0401
3452.00,0.0406
3451.00,0.0412
3450.00,0.0418
3449.00,0.0424
3448.00,0.0430
3447.00,0.0436
3446.00,0.0442
3445.00,0.0448
3444.00,0.0453
3443.00,0.0459
3442.00,0.0464
3441.00,0.0470
3440.00,0.0476
3439.00,0.0482
3438.00,0.0487
3437.00,0.0492
3436.00,0.0498
3435.00,0.0503
3434.00,0.0508
3433.00,0.0514
3432.00,0.0519
3431.00,0.0525
3430.00,0.0530
3429.00,0.0535
3428.00,0.0540
3427.00,0.0546
3426.00,0.0551
3425.00,0.0557
3424.00,0.0564
3423.00,0.0570
3422.00,0.0578
3421.00,0.0587
3420.00,0.0596
3419.00,0.0605
3418.00,0.0615
3417.00,0.0624
3416.00,0.0634
3415.00,0.0643
3414.00,0.0653
3413.00,0.0662
3412.00,0.0670
3411.00,0.0677
3410.00,0.0683
3409.00,0.0687
3408.00,0.0690
3407.00,0.0690
3406.00,0.0688
3405.00,0.0684
3404.00,0.0678
3403.00,0.0669
3402.00,0.0658
3401.00,0.0646
3400.00,0.0631
3399.00,0.0614
3398.00,0.0596
3397.00,0.0578
3396.00,0.0560
3395.00,0.0542
3394.00,0.0524
3393.00,0.0506
3392.00,0.0489
3391.00,0.0473
3390.00,0.0457
3389.00,0.0442
3388.00,0.0429
3387.00,0.0416
3386.00,0.0404
3385.00,0.0392
3384.00,0.0382
3383.00,0.0372
3382.00,0.0363
3381.00,0.0354
3380.00,0.0346
3379.00,0.0338
3378.00,0.0331
3377.00,0.0324
3376.00,0.0317
3375.00,0.0311
3374.00,0.0304
3373.00,0.0299
3372.00,0.0293
3371.00,0.0288
3370.00,0.0283
3369.00,0.0277
3368.00,0.0272
3367.00,0.0267
3366.00,0.0262
3365.00,0.0258
3364.00,0.0254
3363.00,0.0249
3362.00,0.0245
3361.00,0.0241
3360.00,0.0237
3359.00,0.0233
3358.00,0.0230
3357.00,0.0226
3356.00,0.0223
3355.00,0.0220
3354.00,0.0217
3353.00,0.0214
3352.00,0.0211
3351.00,0.0208
3350.00,0.0205
3349.00,0.0202
3348.00,0.0200
3347.00,0.0197
3346.00,0.0195
3345.00,0.0192
3344.00,0.0190
3343.00,0.0188
3342.00,0.0186
3341.00,0.0184
3340.00,0.0182
3339.00,0.0180
3338.00,0.0178
3337.00,0.0176
3336.00,0.0174
3335.00,0.0172
3334.00,0.0170
3333.00,0.0168
3332.00,0.0167
3331.00,0.0165
3330.00,0.0164
3329.00,0.0163
3328.00,0.0162
3327.00,0.0160
3326.00,0.0159
3325.00,0.0158
3324.00,0.0157
3323.00,0.0155
3322.00,0.0154
3321.00,0.0152
3320.00,0.0151
3319.00,0.0149
3318.00,0.0148
3317.00,0.0147
3316.00,0.0147
3315.00,0.0146
3314.00,0.0145
3313.00,0.0144
3312.00,0.0143
3311.00,0.0142
3310.00,0.0141
3309.00,0.0140
3308.00,0.0139
3307.00,0.0138
3306.00,0.0137
3305.00,0.0136
3304.00,0.0135
3303.00,0.0134
3302.00,0.0133
3301.00,0.0132
3300.00,0.0131
3299.00,0.0130
3298.00,0.0129
3297.00,0.0128
3296.00,0.0127
3295.00,0.0127
3294.00,0.0126
3293.00,0.0125
3292.00,0.0125
3291.00,0.0124
3290.00,0.0124
3289.00,0.0123
3288.00,0.0123
3287.00,0.0122
3286.00,0.0122
3285.00,0.0121
3284.00,0.0120
3283.00,0.0120
3282.00,0.0119
3281.00,0.0118
3280.00,0.0118
3279.00,0.0117
3278.00,0.0116
3277.00,0.0116
3276.00,0.0115
3275.00,0.0114
3274.00,0.0113
3273.00,0.0113
3272.00,0.0112
3271.00,0.0112
3270.00,0.0112
3269.00,0.0112
3268.00,0.0112
3267.00,0.0112
3266.00,0.0112
3265.00,0.0112
3264.00,0.0112
3263.00,0.0112
3262.00,0.0112
3261.00,0.0112
3260.00,0.0111
3259.00,0.0111
3258.00,0.0110
3257.00,0.0109
3256.00,0.0109
3255.00,0.0109
3254.00,0.0109
3253.00,0.0110
3252.00,0.0109
3251.00,0.0109
3250.00,0.0108
3249.00,0.0107
3248.00,0.0107
3247.00,0.0106
3246.00,0.0107
3245.00,0.0107
3244.00,0.0107
3243.00,0.0107
3242.00,0.0107
3241.00,0.0106
3240.00,0.0106
3239.00,0.0105
3238.00,0.0104
3237.00,0.0103
3236.00,0.0102
3235.00,0.0102
3234.00,0.0101
3233.00,0.0101
3232.00,0.0101
3231.00,0.0102
3230.00,0.0102
3229.00,0.0101
3228.00,0.0101
3227.00,0.0101
3226.00,0.0100
3225.00,0.0100
3224.00,0.0100
3223.00,0.0100
3222.00,0.0100
3221.00,0.0099
3220.00,0.0099
3219.00,0.0099
3218.00,0.0099
3217.00,0.0099
3216.00,0.0099
3215.00,0.0099
3214.00,0.0099
3213.00,0.0098
3212.00,0.0098
3211.00,0.0098
3210.00,0.0098
3209.00,0.0098
3208.00,0.0098
3207.00,0.0098
3206.00,0.0098
3205.00,0.0098
3204.00,0.0098
3203.00,0.0098
3202.00,0.0098
3201.00,0.0098
3200.00,0.0098
3199.00,0.0098
3198.00,0.0097
3197.00,0.0097
3196.00,0.0097
3195.00,0.0096
3194.00,0.0096
3193.00,0.0096
3192.00,0.0095
3191.00,0.0095
3190.00,0.0095
3189.00,0.0095
3188.00,0.0095
3187.00,0.0095
3186.00,0.0095
3185.00,0.0095
3184.00,0.0095
3183.00,0.0096
3182.00,0.0096
3181.00,0.0096
3180.00,0.0096
3179.00,0.0096
3178.00,0.0096
3177.00,0.0097
3176.00,0.0097
3175.00,0.0097
3174.00,0.0097
3173.00,0.0097
3172.00,0.0098
3171.00,0.0098
3170.00,0.0098
3169.00,0.0098
3168.00,0.0098
3167.00,0.0098
3166.00,0.0098
3165.00,0.0098
3164.00,0.0098
3163.00,0.0098
3162.00,0.0098
3161.00,0.0098
3160.00,0.0098
3159.00,0.0097
3158.00,0.0097
3157.00,0.0096
3156.00,0.0095
3155.00,0.0095
3154.00,0.0094
3153.00,0.0093
3152.00,0.0093
3151.00,0.0093
3150.00,0.0094
3149.00,0.0094
3148.00,0.0094
3147.00,0.0094
3146.00,0.0094
3145.00,0.0094
3144.00,0.0094
3143.00,0.0093
3142.00,0.0093
3141.00,0.0093
3140.00,0.0093
3139.00,0.0093
3138.00,0.0093
3137.00,0.0093
3136.00,0.0093
3135.00,0.0092
3134.00,0.0092
3133.00,0.0092
3132.00,0.0093
3131.00,0.0092
3130.00,0.0092
3129.00,0.0092
3128.00,0.0092
3127.00,0.0092
3126.00,0.0092
3125.00,0.0092
3124.00,0.0092
3123.00,0.0092
3122.00,0.0091
3121.00,0.0091
3120.00,0.0091
3119.00,0.0091
3118.00,0.0091
3117.00,0.0091
3116.00,0.0091
3115.00,0.0091
3114.00,0.0091
3113.00,0.0091
3112.00,0.0091
3111.00,0.0091
3110.00,0.0091
3109.00,0.0091
3108.00,0.0091
3107.00,0.0091
3106.00,0.0091
3105.00,0.0091
3104.00,0.0091
3103.00,0.0091
3102.00,0.0091
3101.00,0.0091
3100.00,0.0092
3099.00,0.0092
3098.00,0.0092
3097.00,0.0092
3096.00,0.0093
3095.00,0.0093
3094.00,0.0093
3093.00,0.0094
3092.00,0.0094
3091.00,0.0095
3090.00,0.0095
3089.00,0.0096
3088.00,0.0097
3087.00,0.0099
3086.00,0.0100
3085.00,0.0103
3084.00,0.0106
3083.00,0.0110
3082.00,0.0116
3081.00,0.0123
3080.00,0.0132
3079.00,0.0143
3078.00,0.0154
3077.00,0.0164
3076.00,0.0172
3075.00,0.0175
3074.00,0.0173
3073.00,0.0167
3072.00,0.0158
3071.00,0.0147
3070.00,0.0137
3069.00,0.0129
3068.00,0.0122
3067.00,0.0117
3066.00,0.0113
3065.00,0.0110
3064.00,0.0108
3063.00,0.0106
3062.00,0.0104
3061.00,0.0103
3060.00,0.0102
3059.00,0.0101
3058.00,0.0100
3057.00,0.0100
3056.00,0.0099
3055.00,0.0099
3054.00,0.0099
3053.00,0.0099
3052.00,0.0099
3051.00,0.0099
3050.00,0.0100
3049.00,0.0101
3048.00,0.0102
3047.00,0.0103
3046.00,0.0104
3045.00,0.0105
3044.00,0.0106
3043.00,0.0107
3042.00,0.0108
3041.00,0.0109
3040.00,0.0110
3039.00,0.0112
3038.00,0.0113
3037.00,0.0115
3036.00,0.0116
3035.00,0.0118
3034.00,0.0119
3033.00,0.0120
3032.00,0.0120
3031.00,0.0119
3030.00,0.0118
3029.00,0.0116
3028.00,0.0114
3027.00,0.0113
3026.00,0.0111
3025.00,0.0110
3024.00,0.0109
3023.00,0.0108
3022.00,0.0107
3021.00,0.0107
3020.00,0.0107
3019.00,0.0107
3018.00,0.0107
3017.00,0.0107
3016.00,0.0108
3015.00,0.0108
3014.00,0.0109
3013.00,0.0110
3012.00,0.0110
3011.00,0.0112
3010.00,0.0113
3009.00,0.0114
3008.00,0.0115
3007.00,0.0116
3006.00,0.0117
3005.00,0.0118
3004.00,0.0119
3003.00,0.0120
3002.00,0.0121
3001.00,0.0123
3000.00,0.0124
2999.00,0.0126
2998.00,0.0127
2997.00,0.0129
2996.00,0.0131
2995.00,0.0133
2994.00,0.0136
2993.00,0.0139
2992.00,0.0142
2991.00,0.0146
2990.00,0.0149
2989.00,0.0152
2988.00,0.0155
2987.00,0.0157
2986.00,0.0160
2985.00,0.0163
2984.00,0.0166
2983.00,0.0171
2982.00,0.0177
2981.00,0.0184
2980.00,0.0193
2979.00,0.0203
2978.00,0.0215
2977.00,0.0228
2976.00,0.0244
2975.00,0.0262
2974.00,0.0281
2973.00,0.0302
2972.00,0.0323
2971.00,0.0345
2970.00,0.0367
2969.00,0.0386
2968.00,0.0403
2967.00,0.0416
2966.00,0.0424
2965.00,0.0428
2964.00,0.0428
2963.00,0.0426
2962.00,0.0423
2961.00,0.0418
2960.00,0.0411
2959.00,0.0403
2958.00,0.0393
2957.00,0.0382
2956.00,0.0371
2955.00,0.0360
2954.00,0.0351
2953.00,0.0344
2952.00,0.0338
2951.00,0.0336
2950.00,0.0338
2949.00,0.0343
2948.00,0.0353
2947.00,0.0367
2946.00,0.0383
2945.00,0.0402
2944.00,0.0421
2943.00,0.0440
2942.00,0.0457
2941.00,0.0474
2940.00,0.0489
2939.00,0.0506
2938.00,0.0523
2937.00,0.0542
2936.00,0.0562
2935.00,0.0583
2934.00,0.0606
2933.00,0.0629
2932.00,0.0653
2931.00,0.0676
2930.00,0.0699
2929.00,0.0721
2928.00,0.0740
2927.00,0.0756
2926.00,0.0767
2925.00,0.0773
2924.00,0.0773
2923.00,0.0769
2922.00,0.0763
2921.00,0.0757
2920.00,0.0750
2919.00,0.0744
2918.00,0.0739
2917.00,0.0733
2916.00,0.0725
2915.00,0.0715
2914.00,0.0702
2913.00,0.0685
2912.00,0.0667
2911.00,0.0646
2910.00,0.0624
2909.00,0.0603
2908.00,0.0582
2907.00,0.0562
2906.00,0.0543
2905.00,0.0526
2904.00,0.0512
2903.00,0.0499
2902.00,0.0488
2901.00,0.0477
2900.00,0.0466
2899.00,0.0454
2898.00,0.0441
2897.00,0.0428
2896.00,0.0414
2895.00,0.0401
2894.00,0.0389
2893.00,0.0379
2892.00,0.0371
2891.00,0.0364
2890.00,0.0358
2889.00,0.0354
2888.00,0.0350
2887.00,0.0348
2886.00,0.0346
2885.00,0.0344
2884.00,0.0343
2883.00,0.0343
2882.00,0.0343
2881.00,0.0345
2880.00,0.0347
2879.00,0.0350
2878.00,0.0354
2877.00,0.0360
2876.00,0.0365
2875.00,0.0372
2874.00,0.0378
2873.00,0.0383
2872.00,0.0386
2871.00,0.0387
2870.00,0.0385
2869.00,0.0381
2868.00,0.0377
2867.00,0.0375
2866.00,0.0376
2865.00,0.0381
2864.00,0.0392
2863.00,0.0409
2862.00,0.0431
2861.00,0.0459
2860.00,0.0492
2859.00,0.0525
2858.00,0.0555
2857.00,0.0578
2856.00,0.0588
2855.00,0.0584
2854.00,0.0567
2853.00,0.0540
2852.00,0.0507
2851.00,0.0472
2850.00,0.0437
2849.00,0.0404
2848.00,0.0374
2847.00,0.0347
2846.00,0.0323
2845.00,0.0302
2844.00,0.0285
2843.00,0.0271
2842.00,0.0259
2841.00,0.0250
2840.00,0.0243
2839.00,0.0239
2838.00,0.0239
2837.00,0.0241
2836.00,0.0247
2835.00,0.0258
2834.00,0.0272
2833.00,0.0290
2832.00,0.0309
2831.00,0.0326
2830.00,0.0336
2829.00,0.0337
2828.00,0.0328
2827.00,0.0311
2826.00,0.0289
2825.00,0.0266
2824.00,0.0244
2823.00,0.0226
2822.00,0.0211
2821.00,0.0199
2820.00,0.0189
2819.00,0.0182
2818.00,0.0176
2817.00,0.0171
2816.00,0.0166
2815.00,0.0162
2814.00,0.0159
2813.00,0.0156
2812.00,0.0153
2811.00,0.0151
2810.00,0.0149
2809.00,0.0147
2808.00,0.0145
2807.00,0.0144
2806.00,0.0142
2805.00,0.0140
2804.00,0.0139
2803.00,0.0137
2802.00,0.0136
2801.00,0.0134
2800.00,0.0133
2799.00,0.0131
2798.00,0.0130
2797.00,0.0129
2796.00,0.0128
2795.00,0.0127
2794.00,0.0126
2793.00,0.0125
2792.00,0.0125
2791.00,0.0124
2790.00,0.0123
2789.00,0.0123
2788.00,0.0122
2787.00,0.0121
2786.00,0.0120
2785.00,0.0119
2784.00,0.0119
2783.00,0.0118
2782.00,0.0117
2781.00,0.0117
2780.00,0.0116
2779.00,0.0115
2778.00,0.0114
2777.00,0.0114
2776.00,0.0113
2775.00,0.0113
2774.00,0.0113
2773.00,0.0112
2772.00,0.0112
2771.00,0.0112
2770.00,0.0111
2769.00,0.0111
2768.00,0.0110
2767.00,0.0110
2766.00,0.0109
2765.00,0.0109
2764.00,0.0109
2763.00,0.0108
2762.00,0.0108
2761.00,0.0107
2760.00,0.0107
2759.00,0.0107
2758.00,0.0106
2757.00,0.0106
2756.00,0.0106
2755.00,0.0106
2754.00,0.0106
2753.00,0.0106
2752.00,0.0106
2751.00,0.0106
2750.00,0.0106
2749.00,0.0106
2748.00,0.0106
2747.00,0.0106
2746.00,0.0106
2745.00,0.0107
2744.00,0.0107
2743.00,0.0108
2742.00,0.0108
2741.00,0.0109
2740.00,0.0109
2739.00,0.0109
2738.00,0.0110
2737.00,0.0111
2736.00,0.0112
2735.00,0.0113
2734.00,0.0114
2733.00,0.0116
2732.00,0.0118
2731.00,0.0120
2730.00,0.0121
2729.00,0.0122
2728.00,0.0121
2727.00,0.0120
2726.00,0.0119
2725.00,0.0117
2724.00,0.0116
2723.00,0.0114
2722.00,0.0112
2721.00,0.0111
2720.00,0.0110
2719.00,0.0109
2718.00,0.0108
2717.00,0.0107
2716.00,0.0107
2715.00,0.0106
2714.00,0.0105
2713.00,0.0104
2712.00,0.0104
2711.00,0.0103
2710.00,0.0103
2709.00,0.0102
2708.00,0.0102
2707.00,0.0102
2706.00,0.0102
2705.00,0.0101
2704.00,0.0101
2703.00,0.0100
2702.00,0.0100
2701.00,0.0100
2700.00,0.0100
2699.00,0.0100
2698.00,0.0099
2697.00,0.0099
2696.00,0.0099
2695.00,0.0099
2694.00,0.0099
2693.00,0.0099
2692.00,0.0099
2691.00,0.0099
2690.00,0.0099
2689.00,0.0099
2688.00,0.0100
2687.00,0.0100
2686.00,0.0100
2685.00,0.0100
2684.00,0.0101
2683.00,0.0101
2682.00,0.0101
2681.00,0.0102
2680.00,0.0102
2679.00,0.0102
2678.00,0.0103
2677.00,0.0103
2676.00,0.0103
2675.00,0.0104
2674.00,0.0104
2673.00,0.0104
2672.00,0.0105
2671.00,0.0105
2670.00,0.0105
2669.00,0.0105
2668.00,0.0106
2667.00,0.0106
2666.00,0.0106
2665.00,0.0107
2664.00,0.0107
2663.00,0.0108
2662.00,0.0108
2661.00,0.0108
2660.00,0.0108
2659.00,0.0108
2658.00,0.0108
2657.00,0.0108
2656.00,0.0108
2655.00,0.0108
2654.00,0.0108
2653.00,0.0108
2652.00,0.0107
2651.00,0.0107
2650.00,0.0107
2649.00,0.0107
2648.00,0.0106
2647.00,0.0106
2646.00,0.0106
2645.00,0.0105
2644.00,0.0105
2643.00,0.0105
2642.00,0.0104
2641.00,0.0104
2640.00,0.0104
2639.00,0.0103
2638.00,0.0103
2637.00,0.0103
2636.00,0.0103
2635.00,0.0103
2634.00,0.0103
2633.00,0.0104
2632.00,0.0104
2631.00,0.0104
2630.00,0.0104
2629.00,0.0104
2628.00,0.0104
2627.00,0.0103
2626.00,0.0103
2625.00,0.0103
2624.00,0.0103
2623.00,0.0103
2622.00,0.0103
2621.00,0.0103
2620.00,0.0103
2619.00,0.0102
2618.00,0.0102
2617.00,0.0102
2616.00,0.0102
2615.00,0.0102
2614.00,0.0102
2613.00,0.0102
2612.00,0.0101
2611.00,0.0101
2610.00,0.0102
2609.00,0.0102
2608.00,0.0102
2607.00,0.0102
2606.00,0.0102
2605.00,0.0101
2604.00,0.0101
2603.00,0.0101
2602.00,0.0100
2601.00,0.0100
2600.00,0.0100
2599.00,0.0099
2598.00,0.0099
2597.00,0.0099
2596.00,0.0099
2595.00,0.0099
2594.00,0.0099
2593.00,0.0099
2592.00,0.0099
2591.00,0.0099
2590.00,0.0099
2589.00,0.0099
2588.00,0.0098
2587.00,0.0098
2586.00,0.0098
2585.00,0.0098
2584.00,0.0098
2583.00,0.0098
2582.00,0.0098
2581.00,0.0098
2580.00,0.0098
2579.00,0.0098
2578.00,0.0097
2577.00,0.0097
2576.00,0.0096
2575.00,0.0096
2574.00,0.0096
2573.00,0.0096
2572.00,0.0097
2571.00,0.0097
2570.00,0.0097
2569.00,0.0097
2568.00,0.0097
2567.00,0.0097
2566.00,0.0097
2565.00,0.0097
2564.00,0.0097
2563.00,0.0096
2562.00,0.0096
2561.00,0.0097
2560.00,0.0097
2559.00,0.0097
2558.00,0.0097
2557.00,0.0097
2556.00,0.0096
2555.00,0.0096
2554.00,0.0095
2553.00,0.0095
2552.00,0.0095
2551.00,0.0095
2550.00,0.0095
2549.00,0.0095
2548.00,0.0094
2547.00,0.0094
2546.00,0.0094
2545.00,0.0094
2544.00,0.0094
2543.00,0.0094
2542.00,0.0094
2541.00,0.0094
2540.00,0.0094
2539.00,0.0094
2538.00,0.0094
2537.00,0.0094
2536.00,0.0094
2535.00,0.0094
2534.00,0.0094
2533.00,0.0093
2532.00,0.0093
2531.00,0.0093
2530.00,0.0093
2529.00,0.0093
2528.00,0.0093
2527.00,0.0093
2526.00,0.0093
2525.00,0.0092
2524.00,0.0092
2523.00,0.0092
2522.00,0.0093
2521.00,0.0093
2520.00,0.0093
2519.00,0.0093
2518.00,0.0093
2517.00,0.0093
2516.00,0.0093
2515.00,0.0093
2514.00,0.0093
2513.00,0.0093
2512.00,0.0093
2511.00,0.0092
2510.00,0.0092
2509.00,0.0092
2508.00,0.0092
2507.00,0.0092
2506.00,0.0093
2505.00,0.0093
2504.00,0.0093
2503.00,0.0092
2502.00,0.0092
2501.00,0.0092
2500.00,0.0092
2499.00,0.0092
2498.00,0.0092
2497.00,0.0092
2496.00,0.0092
2495.00,0.0092
2494.00,0.0092
2493.00,0.0092
2492.00,0.0092
2491.00,0.0092
2490.00,0.0092
2489.00,0.0092
2488.00,0.0092
2487.00,0.0092
2486.00,0.0092
2485.00,0.0092
2484.00,0.0092
2483.00,0.0093
2482.00,0.0093
2481.00,0.0093
2480.00,0.0094
2479.00,0.0094
2478.00,0.0094
2477.00,0.0094
2476.00,0.0095
2475.00,0.0095
2474.00,0.0095
2473.00,0.0094
2472.00,0.0094
2471.00,0.0094
2470.00,0.0094
2469.00,0.0094
2468.00,0.0094
2467.00,0.0094
2466.00,0.0094
2465.00,0.0094
2464.00,0.0094
2463.00,0.0094
2462.00,0.0095
2461.00,0.0095
2460.00,0.0096
2459.00,0.0096
2458.00,0.0096
2457.00,0.0097
2456.00,0.0097
2455.00,0.0096
2454.00,0.0096
2453.00,0.0096
2452.00,0.0096
2451.00,0.0096
2450.00,0.0096
2449.00,0.0095
2448.00,0.0095
2447.00,0.0094
2446.00,0.0094
2445.00,0.0093
2444.00,0.0093
2443.00,0.0092
2442.00,0.0092
2441.00,0.0091
2440.00,0.0090
2439.00,0.0089
2438.00,0.0089
2437.00,0.0088
2436.00,0.0088
2435.00,0.0087
2434.00,0.0087
2433.00,0.0087
2432.00,0.0086
2431.00,0.0086
2430.00,0.0086
2429.00,0.0086
2428.00,0.0086
2427.00,0.0086
2426.00,0.0086
2425.00,0.0086
2424.00,0.0085
2423.00,0.0085
2422.00,0.0085
2421.00,0.0084
2420.00,0.0084
2419.00,0.0083
2418.00,0.0083
2417.00,0.0084
2416.00,0.0084
2415.00,0.0084
2414.00,0.0084
2413.00,0.0084
2412.00,0.0083
2411.00,0.0083
2410.00,0.0083
2409.00,0.0082
2408.00,0.0081
2407.00,0.0081
2406.00,0.0080
2405.00,0.0080
2404.00,0.0080
2403.00,0.0080
2402.00,0.0080
2401.00,0.0080
2400.00,0.0080
2399.00,0.0080
2398.00,0.0080
2397.00,0.0080
2396.00,0.0080
2395.00,0.0080
2394.00,0.0080
2393.00,0.0080
2392.00,0.0080
2391.00,0.0080
2390.00,0.0081
2389.00,0.0081
2388.00,0.0080
2387.00,0.0080
2386.00,0.0079
2385.00,0.0079
2384.00,0.0078
2383.00,0.0078
2382.00,0.0077
2381.00,0.0077
2380.00,0.0076
2379.00,0.0076
2378.00,0.0076
2377.00,0.0076
2376.00,0.0076
2375.00,0.0076
2374.00,0.0076
2373.00,0.0076
2372.00,0.0076
2371.00,0.0075
2370.00,0.0075
2369.00,0.0075
2368.00,0.0075
2367.00,0.0075
2366.00,0.0074
2365.00,0.0075
2364.00,0.0075
2363.00,0.0075
2362.00,0.0076
2361.00,0.0076
2360.00,0.0076
2359.00,0.0075
2358.00,0.0075
2357.00,0.0076
2356.00,0.0076
2355.00,0.0077
2354.00,0.0077
2353.00,0.0077
2352.00,0.0077
2351.00,0.0076
2350.00,0.0076
2349.00,0.0077
2348.00,0.0077
2347.00,0.0078
2346.00,0.0079
2345.00,0.0079
2344.00,0.0079
2343.00,0.0079
2342.00,0.0078
2341.00,0.0078
2340.00,0.0078
2339.00,0.0079
2338.00,0.0079
2337.00,0.0080
2336.00,0.0081
2335.00,0.0081
2334.00,0.0081
2333.00,0.0081
2332.00,0.0081
2331.00,0.0081
2330.00,0.0081
2329.00,0.0083
2328.00,0.0087
2327.00,0.0091
2326.00,0.0094
2325.00,0.0095
2324.00,0.0093
2323.00,0.0091
2322.00,0.0089
2321.00,0.0087
2320.00,0.0086
2319.00,0.0086
2318.00,0.0085
2317.00,0.0084
2316.00,0.0084
2315.00,0.0083
2314.00,0.0082
2313.00,0.0082
2312.00,0.0081
2311.00,0.0081
2310.00,0.0080
2309.00,0.0079
2308.00,0.0079
2307.00,0.0079
2306.00,0.0079
2305.00,0.0080
2304.00,0.0080
2303.00,0.0080
2302.00,0.0080
2301.00,0.0080
2300.00,0.0080
2299.00,0.0081
2298.00,0.0082
2297.00,0.0083
2296.00,0.0084
2295.00,0.0086
2294.00,0.0087
2293.00,0.0088
2292.00,0.0089
2291.00,0.0090
2290.00,0.0090
2289.00,0.0091
2288.00,0.0092
2287.00,0.0093
2286.00,0.0092
2285.00,0.0092
2284.00,0.0091
2283.00,0.0090
2282.00,0.0089
2281.00,0.0088
2280.00,0.0087
2279.00,0.0086
2278.00,0.0086
2277.00,0.0085
2276.00,0.0085
2275.00,0.0085
2274.00,0.0085
2273.00,0.0084
2272.00,0.0084
2271.00,0.0084
2270.00,0.0084
2269.00,0.0083
2268.00,0.0083
2267.00,0.0082
2266.00,0.0081
2265.00,0.0081
2264.00,0.0082
2263.00,0.0082
2262.00,0.0082
2261.00,0.0082
2260.00,0.0083
2259.00,0.0082
2258.00,0.0081
2257.00,0.0080
2256.00,0.0080
2255.00,0.0079
2254.00,0.0079
2253.00,0.0079
2252.00,0.0079
2251.00,0.0080
2250.00,0.0080
2249.00,0.0081
2248.00,0.0081
2247.00,0.0080
2246.00,0.0080
2245.00,0.0080
2244.00,0.0080
2243.00,0.0080
2242.00,0.0081
2241.00,0.0081
2240.00,0.0082
2239.00,0.0082
2238.00,0.0082
2237.00,0.0082
2236.00,0.0082
2235.00,0.0082
2234.00,0.0082
2233.00,0.0081
2232.00,0.0081
2231.00,0.0081
2230.00,0.0080
2229.00,0.0080
2228.00,0.0080
2227.00,0.0080
2226.00,0.0079
2225.00,0.0079
2224.00,0.0079
2223.00,0.0079
2222.00,0.0079
2221.00,0.0080
2220.00,0.0079
2219.00,0.0078
2218.00,0.0077
2217.00,0.0076
2216.00,0.0077
2215.00,0.0077
2214.00,0.0077
2213.00,0.0078
2212.00,0.0078
2211.00,0.0077
2210.00,0.0077
2209.00,0.0078
2208.00,0.0079
2207.00,0.0079
2206.00,0.0079
2205.00,0.0079
2204.00,0.0079
2203.00,0.0079
2202.00,0.0078
2201.00,0.0077
2200.00,0.0076
2199.00,0.0076
2198.00,0.0076
2197.00,0.0077
2196.00,0.0078
2195.00,0.0079
2194.00,0.0078
2193.00,0.0078
2192.00,0.0078
2191.00,0.0079
2190.00,0.0081
2189.00,0.0083
2188.00,0.0085
2187.00,0.0085
2186.00,0.0083
2185.00,0.0080
2184.00,0.0078
2183.00,0.0075
2182.00,0.0073
2181.00,0.0073
2180.00,0.0074
2179.00,0.0075
2178.00,0.0074
2177.00,0.0072
2176.00,0.0072
2175.00,0.0073
2174.00,0.0075
2173.00,0.0078
2172.00,0.0081
2171.00,0.0084
2170.00,0.0087
2169.00,0.0089
2168.00,0.0090
2167.00,0.0091
2166.00,0.0092
2165.00,0.0093
2164.00,0.0095
2163.00,0.0095
2162.00,0.0089
2161.00,0.0075
2160.00,0.0057
2159.00,0.0043
2158.00,0.0037
2157.00,0.0037
2156.00,0.0040
2155.00,0.0043
2154.00,0.0045
2153.00,0.0048
2152.00,0.0052
2151.00,0.0055
2150.00,0.0055
2149.00,0.0054
2148.00,0.0053
2147.00,0.0051
2146.00,0.0051
2145.00,0.0052
2144.00,0.0053
2143.00,0.0054
2142.00,0.0055
2141.00,0.0055
2140.00,0.0055
2139.00,0.0054
2138.00,0.0052
2137.00,0.0049
2136.00,0.0047
2135.00,0.0045
2134.00,0.0046
2133.00,0.0048
2132.00,0.0051
2131.00,0.0053
2130.00,0.0054
2129.00,0.0055
2128.00,0.0057
2127.00,0.0058
2126.00,0.0060
2125.00,0.0062
2124.00,0.0063
2123.00,0.0063
2122.00,0.0063
2121.00,0.0063
2120.00,0.0064
2119.00,0.0066
2118.00,0.0068
2117.00,0.0070
2116.00,0.0072
2115.00,0.0073
2114.00,0.0072
2113.00,0.0072
2112.00,0.0071
2111.00,0.0070
2110.00,0.0069
2109.00,0.0069
2108.00,0.0069
2107.00,0.0068
2106.00,0.0068
2105.00,0.0068
2104.00,0.0068
2103.00,0.0068
2102.00,0.0067
2101.00,0.0067
2100.00,0.0067
2099.00,0.0066
2098.00,0.0065
2097.00,0.0063
2096.00,0.0062
2095.00,0.0061
2094.00,0.0062
2093.00,0.0064
2092.00,0.0066
2091.00,0.0068
2090.00,0.0070
2089.00,0.0070
2088.00,0.0071
2087.00,0.0071
2086.00,0.0070
2085.00,0.0071
2084.00,0.0072
2083.00,0.0073
2082.00,0.0073
2081.00,0.0074
2080.00,0.0074
2079.00,0.0074
2078.00,0.0073
2077.00,0.0073
2076.00,0.0072
2075.00,0.0071
2074.00,0.0070
2073.00,0.0069
2072.00,0.0068
2071.00,0.0067
2070.00,0.0066
2069.00,0.0065
2068.00,0.0064
2067.00,0.0063
2066.00,0.0063
2065.00,0.0063
2064.00,0.0063
2063.00,0.0063
2062.00,0.0063
2061.00,0.0063
2060.00,0.0064
2059.00,0.0065
2058.00,0.0066
2057.00,0.0067
2056.00,0.0067
2055.00,0.0068
2054.00,0.0071
2053.00,0.0075
2052.00,0.0078
2051.00,0.0077
2050.00,0.0072
2049.00,0.0067
2048.00,0.0064
2047.00,0.0062
2046.00,0.0061
2045.00,0.0061
2044.00,0.0061
2043.00,0.0062
2042.00,0.0063
2041.00,0.0064
2040.00,0.0064
2039.00,0.0064
2038.00,0.0062
2037.00,0.0061
2036.00,0.0058
2035.00,0.0054
2034.00,0.0051
2033.00,0.0049
2032.00,0.0050
2031.00,0.0051
2030.00,0.0053
2029.00,0.0055
2028.00,0.0056
2027.00,0.0055
2026.00,0.0054
2025.00,0.0054
2024.00,0.0053
2023.00,0.0052
2022.00,0.0052
2021.00,0.0052
2020.00,0.0054
2019.00,0.0055
2018.00,0.0055
2017.00,0.0055
2016.00,0.0054
2015.00,0.0053
2014.00,0.0052
2013.00,0.0052
2012.00,0.0053
2011.00,0.0053
2010.00,0.0052
2009.00,0.0049
2008.00,0.0045
2007.00,0.0041
2006.00,0.0039
2005.00,0.0041
2004.00,0.0044
2003.00,0.0047
2002.00,0.0049
2001.00,0.0050
2000.00,0.0053
1999.00,0.0055
1998.00,0.0057
1997.00,0.0057
1996.00,0.0057
1995.00,0.0057
1994.00,0.0058
1993.00,0.0061
1992.00,0.0063
1991.00,0.0065
1990.00,0.0064
1989.00,0.0064
1988.00,0.0065
1987.00,0.0066
1986.00,0.0067
1985.00,0.0069
1984.00,0.0072
1983.00,0.0075
1982.00,0.0077
1981.00,0.0078
1980.00,0.0075
1979.00,0.0067
1978.00,0.0058
1977.00,0.0051
1976.00,0.0049
1975.00,0.0048
1974.00,0.0048
1973.00,0.0049
1972.00,0.0050
1971.00,0.0050
1970.00,0.0050
1969.00,0.0051
1968.00,0.0051
1967.00,0.0051
1966.00,0.0051
1965.00,0.0052
1964.00,0.0053
1963.00,0.0052
1962.00,0.0050
1961.00,0.0048
1960.00,0.0047
1959.00,0.0047
1958.00,0.0047
1957.00,0.0049
1956.00,0.0050
1955.00,0.0051
1954.00,0.0051
1953.00,0.0052
1952.00,0.0052
1951.00,0.0053
1950.00,0.0053
1949.00,0.0054
1948.00,0.0054
1947.00,0.0054
1946.00,0.0053
1945.00,0.0054
1944.00,0.0055
1943.00,0.0056
1942.00,0.0055
1941.00,0.0055
1940.00,0.0055
1939.00,0.0055
1938.00,0.0054
1937.00,0.0055
1936.00,0.0056
1935.00,0.0056
1934.00,0.0057
1933.00,0.0057
1932.00,0.0057
1931.00,0.0056
1930.00,0.0055
1929.00,0.0055
1928.00,0.0056
1927.00,0.0056
1926.00,0.0057
1925.00,0.0057
1924.00,0.0057
1923.00,0.0058
1922.00,0.0059
1921.00,0.0061
1920.00,0.0062
1919.00,0.0062
1918.00,0.0061
1917.00,0.0061
1916.00,0.0061
1915.00,0.0062
1914.00,0.0062
1913.00,0.0062
1912.00,0.0063
1911.00,0.0063
1910.00,0.0063
1909.00,0.0063
1908.00,0.0063
1907.00,0.0063
1906.00,0.0063
1905.00,0.0063
1904.00,0.0063
1903.00,0.0063
1902.00,0.0063
1901.00,0.0064
1900.00,0.0064
1899.00,0.0064
1898.00,0.0064
1897.00,0.0064
1896.00,0.0064
1895.00,0.0065
1894.00,0.0065
1893.00,0.0065
1892.00,0.0065
1891.00,0.0065
1890.00,0.0065
1889.00,0.0066
1888.00,0.0066
1887.00,0.0065
1886.00,0.0065
1885.00,0.0065
1884.00,0.0065
1883.00,0.0065
1882.00,0.0065
1881.00,0.0065
1880.00,0.0066
1879.00,0.0066
1878.00,0.0066
1877.00,0.0066
1876.00,0.0066
1875.00,0.0066
1874.00,0.0066
1873.00,0.0066
1872.00,0.0066
1871.00,0.0066
1870.00,0.0066
1869.00,0.0066
1868.00,0.0066
1867.00,0.0066
1866.00,0.0065
1865.00,0.0065
1864.00,0.0065
1863.00,0.0065
1862.00,0.0065
1861.00,0.0065
1860.00,0.0065
1859.00,0.0065
1858.00,0.0064
1857.00,0.0064
1856.00,0.0065
1855.00,0.0065
1854.00,0.0065
1853.00,0.0065
1852.00,0.0065
1851.00,0.0065
1850.00,0.0066
1849.00,0.0066
1848.00,0.0066
1847.00,0.0066
1846.00,0.0066
1845.00,0.0066
1844.00,0.0066
1843.00,0.0066
1842.00,0.0066
1841.00,0.0066
1840.00,0.0066
1839.00,0.0067
1838.00,0.0067
1837.00,0.0067
1836.00,0.0068
1835.00,0.0068
1834.00,0.0067
1833.00,0.0067
1832.00,0.0068
1831.00,0.0068
1830.00,0.0068
1829.00,0.0068
1828.00,0.0068
1827.00,0.0068
1826.00,0.0068
1825.00,0.0068
1824.00,0.0069
1823.00,0.0069
1822.00,0.0068
1821.00,0.0068
1820.00,0.0067
1819.00,0.0066
1818.00,0.0065
1817.00,0.0065
1816.00,0.0066
1815.00,0.0068
1814.00,0.0069
1813.00,0.0069
1812.00,0.0070
1811.00,0.0071
1810.00,0.0072
1809.00,0.0073
1808.00,0.0074
1807.00,0.0075
1806.00,0.0076
1805.00,0.0077
1804.00,0.0078
1803.00,0.0078
1802.00,0.0078
1801.00,0.0078
1800.00,0.0078
1799.00,0.0078
1798.00,0.0077
1797.00,0.0077
1796.00,0.0077
1795.00,0.0076
1794.00,0.0075
1793.00,0.0074
1792.00,0.0073
1791.00,0.0073
1790.00,0.0073
1789.00,0.0073
1788.00,0.0073
1787.00,0.0074
1786.00,0.0074
1785.00,0.0074
1784.00,0.0074
1783.00,0.0075
1782.00,0.0075
1781.00,0.0075
1780.00,0.0075
1779.00,0.0076
1778.00,0.0076
1777.00,0.0077
1776.00,0.0078
1775.00,0.0079
1774.00,0.0080
1773.00,0.0081
1772.00,0.0082
1771.00,0.0082
1770.00,0.0082
1769.00,0.0081
1768.00,0.0080
1767.00,0.0079
1766.00,0.0078
1765.00,0.0077
1764.00,0.0076
1763.00,0.0076
1762.00,0.0075
1761.00,0.0075
1760.00,0.0075
1759.00,0.0075
1758.00,0.0074
1757.00,0.0074
1756.00,0.0074
1755.00,0.0074
1754.00,0.0074
1753.00,0.0074
1752.00,0.0074
1751.00,0.0074
1750.00,0.0074
1749.00,0.0074
1748.00,0.0074
1747.00,0.0074
1746.00,0.0074
1745.00,0.0074
1744.00,0.0074
1743.00,0.0075
1742.00,0.0074
1741.00,0.0074
1740.00,0.0075
1739.00,0.0075
1738.00,0.0075
1737.00,0.0075
1736.00,0.0075
1735.00,0.0076
1734.00,0.0075
1733.00,0.0076
1732.00,0.0076
1731.00,0.0076
1730.00,0.0077
1729.00,0.0077
1728.00,0.0078
1727.00,0.0078
1726.00,0.0078
1725.00,0.0079
1724.00,0.0079
1723.00,0.0080
1722.00,0.0080
1721.00,0.0080
1720.00,0.0081
1719.00,0.0081
1718.00,0.0080
1717.00,0.0080
1716.00,0.0081
1715.00,0.0081
1714.00,0.0082
1713.00,0.0082
1712.00,0.0083
1711.00,0.0084
1710.00,0.0085
1709.00,0.0085
1708.00,0.0086
1707.00,0.0086
1706.00,0.0087
1705.00,0.0088
1704.00,0.0089
1703.00,0.0089
1702.00,0.0089
1701.00,0.0089
1700.00,0.0090
1699.00,0.0090
1698.00,0.0090
1697.00,0.0090
1696.00,0.0091
1695.00,0.0091
1694.00,0.0091
1693.00,0.0091
1692.00,0.0091
1691.00,0.0091
1690.00,0.0090
1689.00,0.0090
1688.00,0.0090
1687.00,0.0090
1686.00,0.0090
1685.00,0.0089
1684.00,0.0089
1683.00,0.0089
1682.00,0.0090
1681.00,0.0090
1680.00,0.0092
1679.00,0.0093
1678.00,0.0093
1677.00,0.0094
1676.00,0.0094
1675.00,0.0095
1674.00,0.0096
1673.00,0.0097
1672.00,0.0099
1671.00,0.0101
1670.00,0.0103
1669.00,0.0106
1668.00,0.0109
1667.00,0.0113
1666.00,0.0115
1665.00,0.0118
1664.00,0.0121
1663.00,0.0124
1662.00,0.0126
1661.00,0.0126
1660.00,0.0127
1659.00,0.0127
1658.00,0.0126
1657.00,0.0127
1656.00,0.0128
1655.00,0.0130
1654.00,0.0137
1653.00,0.0150
1652.00,0.0165
1651.00,0.0176
1650.00,0.0186
1649.00,0.0203
1648.00,0.0235
1647.00,0.0288
1646.00,0.0345
1645.00,0.0386
1644.00,0.0405
1643.00,0.0406
1642.00,0.0394
1641.00,0.0377
1640.00,0.0364
1639.00,0.0358
1638.00,0.0362
1637.00,0.0385
1636.00,0.0435
1635.00,0.0495
1634.00,0.0543
1633.00,0.0574
1632.00,0.0597
1631.00,0.0614
1630.00,0.0630
1629.00,0.0647
1628.00,0.0670
1627.00,0.0698
1626.00,0.0727
1625.00,0.0757
1624.00,0.0785
1623.00,0.0798
1622.00,0.0784
1621.00,0.0745
1620.00,0.0691
1619.00,0.0631
1618.00,0.0564
1617.00,0.0495
1616.00,0.0436
1615.00,0.0392
1614.00,0.0361
1613.00,0.0335
1612.00,0.0311
1611.00,0.0291
1610.00,0.0273
1609.00,0.0258
1608.00,0.0245
1607.00,0.0235
1606.00,0.0227
1605.00,0.0221
1604.00,0.0217
1603.00,0.0215
1602.00,0.0214
1601.00,0.0216
1600.00,0.0220
1599.00,0.0226
1598.00,0.0234
1597.00,0.0246
1596.00,0.0262
1595.00,0.0283
1594.00,0.0312
1593.00,0.0349
1592.00,0.0396
1591.00,0.0454
1590.00,0.0522
1589.00,0.0596
1588.00,0.0671
1587.00,0.0743
1586.00,0.0808
1585.00,0.0866
1584.00,0.0915
1583.00,0.0952
1582.00,0.0970
1581.00,0.0964
1580.00,0.0938
1579.00,0.0894
1578.00,0.0834
1577.00,0.0759
1576.00,0.0679
1575.00,0.0610
1574.00,0.0555
1573.00,0.0510
1572.00,0.0469
1571.00,0.0428
1570.00,0.0386
1569.00,0.0348
1568.00,0.0318
1567.00,0.0294
1566.00,0.0272
1565.00,0.0253
1564.00,0.0236
1563.00,0.0223
1562.00,0.0213
1561.00,0.0204
1560.00,0.0194
1559.00,0.0185
1558.00,0.0179
1557.00,0.0175
1556.00,0.0171
1555.00,0.0167
1554.00,0.0164
1553.00,0.0160
1552.00,0.0157
1551.00,0.0154
1550.00,0.0151
1549.00,0.0148
1548.00,0.0145
1547.00,0.0143
1546.00,0.0141
1545.00,0.0139
1544.00,0.0138
1543.00,0.0136
1542.00,0.0134
1541.00,0.0133
1540.00,0.0132
1539.00,0.0132
1538.00,0.0132
1537.00,0.0132
1536.00,0.0132
1535.00,0.0132
1534.00,0.0132
1533.00,0.0132
1532.00,0.0133
1531.00,0.0133
1530.00,0.0133
1529.00,0.0134
1528.00,0.0136
1527.00,0.0138
1526.00,0.0141
1525.00,0.0145
1524.00,0.0149
1523.00,0.0157
1522.00,0.0171
1521.00,0.0190
1520.00,0.0209
1519.00,0.0224
1518.00,0.0240
1517.00,0.0257
1516.00,0.0273
1515.00,0.0281
1514.00,0.0281
1513.00,0.0276
1512.00,0.0266
1511.00,0.0253
1510.00,0.0240
1509.00,0.0227
1508.00,0.0214
1507.00,0.0202
1506.00,0.0194
1505.00,0.0188
1504.00,0.0185
1503.00,0.0182
1502.00,0.0178
1501.00,0.0175
1500.00,0.0171
1499.00,0.0167
1498.00,0.0162
1497.00,0.0157
1496.00,0.0152
1495.00,0.0147
1494.00,0.0143
1493.00,0.0140
1492.00,0.0137
1491.00,0.0134
1490.00,0.0131
1489.00,0.0129
1488.00,0.0128
1487.00,0.0127
1486.00,0.0126
1485.00,0.0126
1484.00,0.0126
1483.00,0.0127
1482.00,0.0128
1481.00,0.0130
1480.00,0.0132
1479.00,0.0134
1478.00,0.0136
1477.00,0.0140
1476.00,0.0145
1475.00,0.0150
1474.00,0.0158
1473.00,0.0173
1472.00,0.0195
1471.00,0.0221
1470.00,0.0249
1469.00,0.0279
1468.00,0.0308
1467.00,0.0333
1466.00,0.0352
1465.00,0.0369
1464.00,0.0384
1463.00,0.0396
1462.00,0.0407
1461.00,0.0416
1460.00,0.0423
1459.00,0.0431
1458.00,0.0445
1457.00,0.0470
1456.00,0.0502
1455.00,0.0530
1454.00,0.0560
1453.00,0.0600
1452.00,0.0651
1451.00,0.0710
1450.00,0.0778
1449.00,0.0857
1448.00,0.0945
1447.00,0.1028
1446.00,0.1092
1445.00,0.1136
1444.00,0.1162
1443.00,0.1171
1442.00,0.1168
1441.00,0.1157
1440.00,0.1139
1439.00,0.1115
1438.00,0.1089
1437.00,0.1063
1436.00,0.1034
1435.00,0.0998
1434.00,0.0959
1433.00,0.0919
1432.00,0.0875
1431.00,0.0825
1430.00,0.0767
1429.00,0.0702
1428.00,0.0633
1427.00,0.0565
1426.00,0.0503
1425.00,0.0445
1424.00,0.0395
1423.00,0.0355
1422.00,0.0326
1421.00,0.0301
1420.00,0.0280
1419.00,0.0261
1418.00,0.0247
1417.00,0.0235
1416.00,0.0225
1415.00,0.0217
1414.00,0.0209
1413.00,0.0203
1412.00,0.0197
1411.00,0.0192
1410.00,0.0188
1409.00,0.0185
1408.00,0.0182
1407.00,0.0180
1406.00,0.0178
1405.00,0.0177
1404.00,0.0174
1403.00,0.0173
1402.00,0.0171
1401.00,0.0169
1400.00,0.0166
1399.00,0.0165
1398.00,0.0165
1397.00,0.0164
1396.00,0.0162
1395.00,0.0161
1394.00,0.0160
1393.00,0.0159
1392.00,0.0158
1391.00,0.0158
1390.00,0.0158
1389.00,0.0160
1388.00,0.0163
1387.00,0.0169
1386.00,0.0177
1385.00,0.0187
1384.00,0.0200
1383.00,0.0219
1382.00,0.0244
1381.00,0.0278
1380.00,0.0320
1379.00,0.0372
1378.00,0.0427
1377.00,0.0478
1376.00,0.0516
1375.00,0.0534
1374.00,0.0528
1373.00,0.0505
1372.00,0.0474
1371.00,0.0443
1370.00,0.0413
1369.00,0.0386
1368.00,0.0363
1367.00,0.0344
1366.00,0.0327
1365.00,0.0311
1364.00,0.0296
1363.00,0.0282
1362.00,0.0271
1361.00,0.0262
1360.00,0.0255
1359.00,0.0250
1358.00,0.0247
1357.00,0.0244
1356.00,0.0243
1355.00,0.0244
1354.00,0.0244
1353.00,0.0246
1352.00,0.0247
1351.00,0.0249
1350.00,0.0252
1349.00,0.0257
1348.00,0.0263
1347.00,0.0271
1346.00,0.0279
1345.00,0.0286
1344.00,0.0293
1343.00,0.0298
1342.00,0.0300
1341.00,0.0299
1340.00,0.0293
1339.00,0.0285
1338.00,0.0275
1337.00,0.0266
1336.00,0.0261
1335.00,0.0261
1334.00,0.0264
1333.00,0.0271
1332.00,0.0280
1331.00,0.0292
1330.00,0.0303
1329.00,0.0314
1328.00,0.0325
1327.00,0.0336
1326.00,0.0347
1325.00,0.0356
1324.00,0.0360
1323.00,0.0358
1322.00,0.0349
1321.00,0.0336
1320.00,0.0325
1319.00,0.0321
1318.00,0.0326
1317.00,0.0342
1316.00,0.0369
1315.00,0.0405
1314.00,0.0444
1313.00,0.0480
1312.00,0.0505
1311.00,0.0515
1310.00,0.0511
1309.00,0.0499
1308.00,0.0487
1307.00,0.0479
1306.00,0.0479
1305.00,0.0486
1304.00,0.0497
1303.00,0.0508
1302.00,0.0516
1301.00,0.0518
1300.00,0.0516
1299.00,0.0510
1298.00,0.0502
1297.00,0.0492
1296.00,0.0480
1295.00,0.0467
1294.00,0.0453
1293.00,0.0439
1292.00,0.0425
1291.00,0.0413
1290.00,0.0403
1289.00,0.0398
1288.00,0.0398
1287.00,0.0405
1286.00,0.0418
1285.00,0.0436
1284.00,0.0456
1283.00,0.0477
1282.00,0.0496
1281.00,0.0511
1280.00,0.0521
1279.00,0.0527
1278.00,0.0527
1277.00,0.0521
1276.00,0.0509
1275.00,0.0492
1274.00,0.0471
1273.00,0.0445
1272.00,0.0416
1271.00,0.0386
1270.00,0.0356
1269.00,0.0327
1268.00,0.0301
1267.00,0.0279
1266.00,0.0260
1265.00,0.0245
1264.00,0.0232
1263.00,0.0221
1262.00,0.0213
1261.00,0.0206
1260.00,0.0200
1259.00,0.0195
1258.00,0.0191
1257.00,0.0189
1256.00,0.0189
1255.00,0.0190
1254.00,0.0194
1253.00,0.0200
1252.00,0.0210
1251.00,0.0222
1250.00,0.0235
1249.00,0.0247
1248.00,0.0255
1247.00,0.0262
1246.00,0.0270
1245.00,0.0282
1244.00,0.0303
1243.00,0.0334
1242.00,0.0376
1241.00,0.0427
1240.00,0.0482
1239.00,0.0535
1238.00,0.0578
1237.00,0.0606
1236.00,0.0618
1235.00,0.0618
1234.00,0.0608
1233.00,0.0592
1232.00,0.0571
1231.00,0.0550
1230.00,0.0535
1229.00,0.0534
1228.00,0.0550
1227.00,0.0581
1226.00,0.0623
1225.00,0.0671
1224.00,0.0723
1223.00,0.0779
1222.00,0.0841
1221.00,0.0914
1220.00,0.1001
1219.00,0.1101
1218.00,0.1207
1217.00,0.1308
1216.00,0.1390
1215.00,0.1440
1214.00,0.1451
1213.00,0.1425
1212.00,0.1368
1211.00,0.1292
1210.00,0.1205
1209.00,0.1120
1208.00,0.1041
1207.00,0.0971
1206.00,0.0908
1205.00,0.0849
1204.00,0.0791
1203.00,0.0732
1202.00,0.0672
1201.00,0.0615
1200.00,0.0561
1199.00,0.0514
1198.00,0.0474
1197.00,0.0442
1196.00,0.0416
1195.00,0.0398
1194.00,0.0386
1193.00,0.0380
1192.00,0.0379
1191.00,0.0382
1190.00,0.0388
1189.00,0.0396
1188.00,0.0405
1187.00,0.0415
1186.00,0.0426
1185.00,0.0437
1184.00,0.0449
1183.00,0.0458
1182.00,0.0466
1181.00,0.0472
1180.00,0.0477
1179.00,0.0481
1178.00,0.0485
1177.00,0.0489
1176.00,0.0494
1175.00,0.0507
1174.00,0.0526
1173.00,0.0547
1172.00,0.0557
1171.00,0.0544
1170.00,0.0509
1169.00,0.0459
1168.00,0.0408
1167.00,0.0364
1166.00,0.0329
1165.00,0.0301
1164.00,0.0281
1163.00,0.0266
1162.00,0.0255
1161.00,0.0248
1160.00,0.0244
1159.00,0.0245
1158.00,0.0251
1157.00,0.0263
1156.00,0.0285
1155.00,0.0323
1154.00,0.0378
1153.00,0.0447
1152.00,0.0516
1151.00,0.0564
1150.00,0.0571
1149.00,0.0535
1148.00,0.0470
1147.00,0.0399
1146.00,0.0339
1145.00,0.0294
1144.00,0.0264
1143.00,0.0245
1142.00,0.0232
1141.00,0.0226
1140.00,0.0223
1139.00,0.0225
1138.00,0.0230
1137.00,0.0236
1136.00,0.0241
1135.00,0.0243
1134.00,0.0242
1133.00,0.0236
1132.00,0.0227
1131.00,0.0216
1130.00,0.0205
1129.00,0.0196
1128.00,0.0187
1127.00,0.0180
1126.00,0.0175
1125.00,0.0171
1124.00,0.0168
1123.00,0.0166
1122.00,0.0164
1121.00,0.0163
1120.00,0.0163
1119.00,0.0163
1118.00,0.0164
1117.00,0.0166
1116.00,0.0168
1115.00,0.0171
1114.00,0.0173
1113.00,0.0175
1112.00,0.0178
1111.00,0.0182
1110.00,0.0187
1109.00,0.0193
1108.00,0.0200
1107.00,0.0208
1106.00,0.0217
1105.00,0.0227
1104.00,0.0238
1103.00,0.0250
1102.00,0.0265
1101.00,0.0281
1100.00,0.0294
1099.00,0.0301
1098.00,0.0299
1097.00,0.0288
1096.00,0.0271
1095.00,0.0253
1094.00,0.0238
1093.00,0.0225
1092.00,0.0216
1091.00,0.0209
1090.00,0.0203
1089.00,0.0199
1088.00,0.0197
1087.00,0.0198
1086.00,0.0204
1085.00,0.0213
1084.00,0.0228
1083.00,0.0247
1082.00,0.0268
1081.00,0.0287
1080.00,0.0301
1079.00,0.0304
1078.00,0.0298
1077.00,0.0284
1076.00,0.0267
1075.00,0.0251
1074.00,0.0237
1073.00,0.0226
1072.00,0.0217
1071.00,0.0211
1070.00,0.0205
1069.00,0.0201
1068.00,0.0198
1067.00,0.0196
1066.00,0.0196
1065.00,0.0198
1064.00,0.0201
1063.00,0.0207
1062.00,0.0215
1061.00,0.0226
1060.00,0.0242
1059.00,0.0266
1058.00,0.0300
1057.00,0.0349
1056.00,0.0412
1055.00,0.0484
1054.00,0.0553
1053.00,0.0607
1052.00,0.0640
1051.00,0.0650
1050.00,0.0639
1049.00,0.0608
1048.00,0.0560
1047.00,0.0505
1046.00,0.0453
1045.00,0.0413
1044.00,0.0388
1043.00,0.0378
1042.00,0.0377
1041.00,0.0384
1040.00,0.0396
1039.00,0.0415
1038.00,0.0442
1037.00,0.0481
1036.00,0.0534
1035.00,0.0597
1034.00,0.0660
1033.00,0.0711
1032.00,0.0737
1031.00,0.0733
1030.00,0.0704
1029.00,0.0663
1028.00,0.0623
1027.00,0.0594
1026.00,0.0583
1025.00,0.0594
1024.00,0.0628
1023.00,0.0684
1022.00,0.0756
1021.00,0.0832
1020.00,0.0895
1019.00,0.0927
1018.00,0.0922
1017.00,0.0885
1016.00,0.0827
1015.00,0.0762
1014.00,0.0698
1013.00,0.0641
1012.00,0.0595
1011.00,0.0561
1010.00,0.0542
1009.00,0.0535
1008.00,0.0539
1007.00,0.0552
1006.00,0.0573
1005.00,0.0600
1004.00,0.0627
1003.00,0.0647
1002.00,0.0654
1001.00,0.0643
1000.00,0.0615
999.00,0.0573
998.00,0.0522
997.00,0.0471
996.00,0.0426
995.00,0.0391
994.00,0.0366
993.00,0.0351
992.00,0.0343
991.00,0.0343
990.00,0.0350
989.00,0.0361
988.00,0.0372
987.00,0.0383
986.00,0.0391
985.00,0.0394
984.00,0.0389
983.00,0.0376
982.00,0.0357
981.00,0.0338
980.00,0.0321
979.00,0.0310
978.00,0.0302
977.00,0.0296
976.00,0.0291
975.00,0.0285
974.00,0.0281
973.00,0.0280
972.00,0.0282
971.00,0.0288
970.00,0.0298
969.00,0.0310
968.00,0.0323
967.00,0.0339
966.00,0.0357
965.00,0.0378
964.00,0.0402
963.00,0.0426
962.00,0.0443
961.00,0.0448
960.00,0.0437
959.00,0.0412
958.00,0.0378
957.00,0.0343
956.00,0.0310
955.00,0.0283
954.00,0.0262
953.00,0.0246
952.00,0.0234
951.00,0.0225
950.00,0.0218
949.00,0.0212
948.00,0.0207
947.00,0.0204
946.00,0.0200
945.00,0.0198
944.00,0.0195
943.00,0.0193
942.00,0.0191
941.00,0.0189
940.00,0.0187
939.00,0.0186
938.00,0.0185
937.00,0.0184
936.00,0.0184
935.00,0.0185
934.00,0.0187
933.00,0.0191
932.00,0.0196
931.00,0.0201
930.00,0.0205
929.00,0.0207
928.00,0.0208
927.00,0.0208
926.00,0.0207
925.00,0.0207
924.00,0.0206
923.00,0.0205
922.00,0.0206
921.00,0.0207
920.00,0.0211
919.00,0.0218
918.00,0.0227
917.00,0.0236
916.00,0.0244
915.00,0.0248
914.00,0.0248
913.00,0.0246
912.00,0.0243
911.00,0.0244
910.00,0.0248
909.00,0.0258
908.00,0.0273
907.00,0.0295
906.00,0.0322
905.00,0.0354
904.00,0.0391
903.00,0.0435
902.00,0.0488
901.00,0.0556
900.00,0.0639
899.00,0.0734
898.00,0.0824
897.00,0.0888
896.00,0.0907
895.00,0.0879
894.00,0.0816
893.00,0.0741
892.00,0.0669
891.00,0.0612
890.00,0.0578
889.00,0.0574
888.00,0.0604
887.00,0.0673
886.00,0.0776
885.00,0.0894
884.00,0.0993
883.00,0.1037
882.00,0.1008
881.00,0.0919
880.00,0.0802
879.00,0.0688
878.00,0.0594
877.00,0.0526
876.00,0.0480
875.00,0.0454
874.00,0.0444
873.00,0.0448
872.00,0.0463
871.00,0.0482
870.00,0.0495
869.00,0.0496
868.00,0.0487
867.00,0.0478
866.00,0.0480
865.00,0.0500
864.00,0.0534
863.00,0.0571
862.00,0.0600
861.00,0.0613
860.00,0.0612
859.00,0.0604
858.00,0.0601
857.00,0.0607
856.00,0.0622
855.00,0.0640
854.00,0.0657
853.00,0.0672
852.00,0.0683
851.00,0.0689
850.00,0.0685
849.00,0.0671
848.00,0.0647
847.00,0.0620
846.00,0.0597
845.00,0.0581
844.00,0.0571
843.00,0.0562
842.00,0.0551
841.00,0.0538
840.00,0.0525
839.00,0.0517
838.00,0.0514
837.00,0.0518
836.00,0.0528
835.00,0.0543
834.00,0.0563
833.00,0.0586
832.00,0.0611
831.00,0.0635
830.00,0.0657
829.00,0.0673
828.00,0.0683
827.00,0.0681
826.00,0.0666
825.00,0.0638
824.00,0.0601
823.00,0.0559
822.00,0.0515
821.00,0.0472
820.00,0.0430
819.00,0.0393
818.00,0.0363
817.00,0.0341
816.00,0.0325
815.00,0.0313
814.00,0.0303
813.00,0.0295
812.00,0.0290
811.00,0.0291
810.00,0.0302
809.00,0.0327
808.00,0.0373
807.00,0.0436
806.00,0.0505
805.00,0.0556
804.00,0.0572
803.00,0.0550
802.00,0.0505
801.00,0.0453
800.00,0.0406
799.00,0.0368
798.00,0.0339
797.00,0.0317
796.00,0.0302
795.00,0.0292
794.00,0.0287
793.00,0.0284
792.00,0.0282
791.00,0.0280
790.00,0.0277
789.00,0.0275
788.00,0.0274
787.00,0.0276
786.00,0.0277
785.00,0.0275
784.00,0.0270
783.00,0.0261
782.00,0.0253
781.00,0.0247
780.00,0.0244
779.00,0.0243
778.00,0.0242
777.00,0.0241
776.00,0.0238
775.00,0.0235
774.00,0.0234
773.00,0.0234
772.00,0.0236
771.00,0.0238
770.00,0.0238
769.00,0.0235
768.00,0.0229
767.00,0.0221
766.00,0.0212
765.00,0.0204
764.00,0.0197
763.00,0.0192
762.00,0.0189
761.00,0.0187
760.00,0.0187
759.00,0.0188
758.00,0.0191
757.00,0.0197
756.00,0.0207
755.00,0.0222
754.00,0.0241
753.00,0.0261
752.00,0.0277
751.00,0.0290
750.00,0.0300
749.00,0.0304
748.00,0.0302
747.00,0.0290
746.00,0.0270
745.00,0.0249
744.00,0.0230
743.00,0.0216
742.00,0.0205
741.00,0.0198
740.00,0.0194
739.00,0.0193
738.00,0.0194
737.00,0.0198
736.00,0.0205
735.00,0.0216
734.00,0.0232
733.00,0.0251
732.00,0.0270
731.00,0.0282
730.00,0.0282
729.00,0.0272
728.00,0.0257
727.00,0.0244
726.00,0.0235
725.00,0.0230
724.00,0.0227
723.00,0.0224
722.00,0.0221
721.00,0.0218
720.00,0.0214
719.00,0.0210
718.00,0.0204
717.00,0.0197
716.00,0.0190
715.00,0.0184
714.00,0.0181
713.00,0.0180
712.00,0.0180
711.00,0.0180
710.00,0.0179
709.00,0.0175
708.00,0.0170
707.00,0.0165
706.00,0.0161
705.00,0.0158
704.00,0.0156
703.00,0.0156
702.00,0.0155
701.00,0.0155
700.00,0.0154
699.00,0.0154
698.00,0.0153
697.00,0.0153
696.00,0.0153
695.00,0.0153
694.00,0.0153
693.00,0.0153
692.00,0.0153
691.00,0.0153
690.00,0.0154
689.00,0.0155
688.00,0.0156
687.00,0.0157
686.00,0.0158
685.00,0.0159
684.00,0.0161
683.00,0.0164
682.00,0.0167
681.00,0.0170
680.00,0.0173
679.00,0.0176
678.00,0.0180
677.00,0.0185
676.00,0.0191
675.00,0.0198
674.00,0.0207
673.00,0.0217
672.00,0.0230
671.00,0.0243
670.00,0.0257
669.00,0.0271
668.00,0.0285
667.00,0.0295
666.00,0.0299
665.00,0.0301
664.00,0.0303
663.00,0.0305
662.00,0.0306
661.00,0.0306
660.00,0.0306
659.00,0.0307
658.00,0.0306
657.00,0.0304
656.00,0.0301
655.00,0.0298
654.00,0.0297
653.00,0.0300
652.00,0.0307
651.00,0.0317
650.00,0.0327
649.00,0.0333
648.00,0.0333
647.00,0.0326
646.00,0.0314
645.00,0.0299
644.00,0.0284
643.00,0.0270
642.00,0.0259
641.00,0.0251
640.00,0.0246
639.00,0.0243
638.00,0.0242
637.00,0.0242
636.00,0.0244
635.00,0.0247
634.00,0.0250
633.00,0.0255
632.00,0.0259
631.00,0.0265
630.00,0.0271
629.00,0.0277
628.00,0.0284
627.00,0.0290
626.00,0.0295
625.00,0.0301
624.00,0.0304
623.00,0.0304
622.00,0.0300
621.00,0.0291
620.00,0.0277
619.00,0.0261
618.00,0.0247
617.00,0.0238
616.00,0.0239
615.00,0.0253
614.00,0.0277
613.00,0.0308
612.00,0.0336
611.00,0.0353
610.00,0.0356
609.00,0.0349
608.00,0.0340
607.00,0.0335
606.00,0.0336
605.00,0.0343
604.00,0.0351
603.00,0.0360
602.00,0.0371
601.00,0.0383
600.00,0.0397
599.00,0.0408
598.00,0.0413
597.00,0.0413
596.00,0.0410
595.00,0.0409
594.00,0.0414
593.00,0.0425
592.00,0.0442
591.00,0.0464
590.00,0.0490
589.00,0.0515
588.00,0.0537
587.00,0.0550
586.00,0.0551
585.00,0.0541
584.00,0.0522
583.00,0.0499
582.00,0.0475
581.00,0.0452
580.00,0.0432
579.00,0.0416
578.00,0.0406
577.00,0.0400
576.00,0.0399
575.00,0.0402
574.00,0.0407
573.00,0.0412
572.00,0.0418
571.00,0.0423
570.00,0.0429
569.00,0.0434
568.00,0.0439
567.00,0.0444
566.00,0.0448
565.00,0.0450
564.00,0.0452
563.00,0.0453
562.00,0.0453
561.00,0.0454
560.00,0.0453
559.00,0.0452
558.00,0.0450
557.00,0.0447
556.00,0.0444
555.00,0.0443
554.00,0.0447
553.00,0.0458
552.00,0.0474
551.00,0.0492
550.00,0.0507
549.00,0.0518
548.00,0.0528
547.00,0.0540
546.00,0.0556
545.00,0.0572
544.00,0.0585
543.00,0.0593
542.00,0.0599
541.00,0.0609
540.00,0.0629
539.00,0.0659
538.00,0.0694
537.00,0.0726
536.00,0.0746
535.00,0.0750
534.00,0.0741
533.00,0.0724
532.00,0.0708
531.00,0.0694
530.00,0.0684
529.00,0.0681
528.00,0.0691
527.00,0.0717
526.00,0.0756
525.00,0.0803
524.00,0.0852
523.00,0.0894
522.00,0.0916
521.00,0.0906
520.00,0.0860
519.00,0.0792
518.00,0.0719
517.00,0.0658
516.00,0.0614
515.00,0.0586
514.00,0.0571
513.00,0.0564
512.00,0.0563
511.00,0.0568
510.00,0.0578
509.00,0.0594
508.00,0.0616
507.00,0.0642
506.00,0.0671
505.00,0.0702
504.00,0.0736
503.00,0.0775
502.00,0.0816
501.00,0.0855
500.00,0.0890
499.00,0.0920
498.00,0.0944
497.00,0.0964
496.00,0.0979
495.00,0.0988
494.00,0.0991
493.00,0.0989
492.00,0.0985
491.00,0.0976
490.00,0.0966
489.00,0.0957
488.00,0.0953
487.00,0.0952
486.00,0.0950
485.00,0.0948
484.00,0.0944
483.00,0.0935
482.00,0.0920
481.00,0.0900
480.00,0.0878
479.00,0.0856
478.00,0.0835
477.00,0.0820
476.00,0.0813
475.00,0.0811
474.00,0.0815
473.00,0.0824
472.00,0.0836
471.00,0.0851
470.00,0.0866
469.00,0.0882
468.00,0.0897
467.00,0.0908
466.00,0.0913
465.00,0.0913
464.00,0.0911
463.00,0.0905
462.00,0.0898
461.00,0.0892
460.00,0.0889
459.00,0.0885
458.00,0.0879
457.00,0.0873
456.00,0.0868
455.00,0.0866
454.00,0.0866
453.00,0.0863
452.00,0.0857
451.00,0.0845
450.00,0.0831
449.00,0.0817
448.00,0.0805
447.00,0.0791
446.00,0.0777
445.00,0.0763
444.00,0.0750
443.00,0.0740
442.00,0.0730
441.00,0.0724
440.00,0.0719
439.00,0.0714
438.00,0.0711
437.00,0.0711
436.00,0.0715
435.00,0.0718
434.00,0.0719
433.00,0.0721
432.00,0.0728
431.00,0.0743
430.00,0.0766
429.00,0.0796
428.00,0.0834
427.00,0.0874
426.00,0.0908
425.00,0.0931
424.00,0.0939
423.00,0.0936
422.00,0.0925
421.00,0.0913
420.00,0.0902
419.00,0.0892
418.00,0.0882
417.00,0.0875
416.00,0.0873
415.00,0.0873
414.00,0.0875
413.00,0.0881
412.00,0.0894
411.00,0.0914
410.00,0.0939
409.00,0.0969
408.00,0.0999
407.00,0.1022
406.00,0.1035
405.00,0.1047
404.00,0.1066
403.00,0.1086
402.00,0.1102
401.00,0.1116
400.00,0.1132
