Created as New Dataset,Sample 712 By YargerLab Date Wednesday, June 18 2025
cm-1,A
4000.00,0.0011
3999.00,0.0011
3998.00,0.0012
3997.00,0.0012
3996.00,0.0012
3995.00,0.0012
3994.00,0.0012
3993.00,0.0012
3992.00,0.0011
3991.00,0.0011
3990.00,0.0011
3989.00,0.0011
3988.00,0.0011
3987.00,0.0011
3986.00,0.0011
3985.00,0.0011
3984.00,0.0011
3983.00,0.0011
3982.00,0.0011
3981.00,0.0011
3980.00,0.0011
3979.00,0.0011
3978.00,0.0011
3977.00,0.0011
3976.00,0.0011
3975.00,0.0011
3974.00,0.0011
3973.00,0.0011
3972.00,0.0012
3971.00,0.0012
3970.00,0.0012
3969.00,0.0012
3968.00,0.0011
3967.00,0.0011
3966.00,0.0011
3965.00,0.0011
3964.00,0.0011
3963.00,0.0011
3962.00,0.0012
3961.00,0.0012
3960.00,0.0012
3959.00,0.0012
3958.00,0.0011
3957.00,0.0011
3956.00,0.0011
3955.00,0.0011
3954.00,0.0011
3953.00,0.0011
3952.00,0.0011
3951.00,0.0011
3950.00,0.0011
3949.00,0.0011
3948.00,0.0011
3947.00,0.0011
3946.00,0.0011
3945.00,0.0011
3944.00,0.0011
3943.00,0.0011
3942.00,0.0011
3941.00,0.0011
3940.00,0.0011
3939.00,0.0011
3938.00,0.0011
3937.00,0.0011
3936.00,0.0011
3935.00,0.0011
3934.00,0.0011
3933.00,0.0011
3932.00,0.0011
3931.00,0.0011
3930.00,0.0011
3929.00,0.0011
3928.00,0.0011
3927.00,0.0011
3926.00,0.0011
3925.00,0.0011
3924.00,0.0011
3923.00,0.0011
3922.00,0.0011
3921.00,0.0011
3920.00,0.0011
3919.00,0.0011
3918.00,0.0011
3917.00,0.0011
3916.00,0.0012
3915.00,0.0012
3914.00,0.0011
3913.00,0.0011
3912.00,0.0011
3911.00,0.0011
3910.00,0.0011
3909.00,0.0011
3908.00,0.0011
3907.00,0.0011
3906.00,0.0011
3905.00,0.0011
3904.00,0.0011
3903.00,0.0011
3902.00,0.0011
3901.00,0.0011
3900.00,0.0011
3899.00,0.0011
3898.00,0.0011
3897.00,0.0011
3896.00,0.0010
3895.00,0.0010
3894.00,0.0010
3893.00,0.0010
3892.00,0.0010
3891.00,0.0011
3890.00,0.0011
3889.00,0.0011
3888.00,0.0011
3887.00,0.0010
3886.00,0.0010
3885.00,0.0010
3884.00,0.0010
3883.00,0.0010
3882.00,0.0010
3881.00,0.0010
3880.00,0.0010
3879.00,0.0010
3878.00,0.0010
3877.00,0.0010
3876.00,0.0010
3875.00,0.0010
3874.00,0.0010
3873.00,0.0010
3872.00,0.0010
3871.00,0.0010
3870.00,0.0010
3869.00,0.0010
3868.00,0.0010
3867.00,0.0010
3866.00,0.0009
3865.00,0.0009
3864.00,0.0010
3863.00,0.0010
3862.00,0.0010
3861.00,0.0010
3860.00,0.0010
3859.00,0.0010
3858.00,0.0010
3857.00,0.0011
3856.00,0.0011
3855.00,0.0010
3854.00,0.0010
3853.00,0.0010
3852.00,0.0010
3851.00,0.0010
3850.00,0.0010
3849.00,0.0009
3848.00,0.0010
3847.00,0.0010
3846.00,0.0010
3845.00,0.0010
3844.00,0.0010
3843.00,0.0010
3842.00,0.0010
3841.00,0.0010
3840.00,0.0010
3839.00,0.0010
3838.00,0.0010
3837.00,0.0009
3836.00,0.0009
3835.00,0.0009
3834.00,0.0009
3833.00,0.0009
3832.00,0.0010
3831.00,0.0010
3830.00,0.0010
3829.00,0.0010
3828.00,0.0010
3827.00,0.0010
3826.00,0.0010
3825.00,0.0010
3824.00,0.0010
3823.00,0.0010
3822.00,0.0009
3821.00,0.0009
3820.00,0.0010
3819.00,0.0010
3818.00,0.0010
3817.00,0.0010
3816.00,0.0010
3815.00,0.0010
3814.00,0.0010
3813.00,0.0009
3812.00,0.0009
3811.00,0.0009
3810.00,0.0010
3809.00,0.0010
3808.00,0.0010
3807.00,0.0010
3806.00,0.0010
3805.00,0.0010
3804.00,0.0009
3803.00,0.0009
3802.00,0.0008
3801.00,0.0009
3800.00,0.0009
3799.00,0.0009
3798.00,0.0009
3797.00,0.0010
3796.00,0.0010
3795.00,0.0010
3794.00,0.0010
3793.00,0.0010
3792.00,0.0010
3791.00,0.0010
3790.00,0.0010
3789.00,0.0010
3788.00,0.0011
3787.00,0.0010
3786.00,0.0010
3785.00,0.0010
3784.00,0.0010
3783.00,0.0010
3782.00,0.0010
3781.00,0.0010
3780.00,0.0010
3779.00,0.0010
3778.00,0.0011
3777.00,0.0011
3776.00,0.0011
3775.00,0.0011
3774.00,0.0011
3773.00,0.0011
3772.00,0.0011
3771.00,0.0010
3770.00,0.0010
3769.00,0.0010
3768.00,0.0010
3767.00,0.0010
3766.00,0.0010
3765.00,0.0011
3764.00,0.0011
3763.00,0.0010
3762.00,0.0010
3761.00,0.0010
3760.00,0.0010
3759.00,0.0010
3758.00,0.0010
3757.00,0.0010
3756.00,0.0010
3755.00,0.0010
3754.00,0.0010
3753.00,0.0010
3752.00,0.0010
3751.00,0.0010
3750.00,0.0010
3749.00,0.0010
3748.00,0.0010
3747.00,0.0010
3746.00,0.0010
3745.00,0.0010
3744.00,0.0010
3743.00,0.0010
3742.00,0.0009
3741.00,0.0009
3740.00,0.0009
3739.00,0.0009
3738.00,0.0009
3737.00,0.0009
3736.00,0.0009
3735.00,0.0009
3734.00,0.0009
3733.00,0.0009
3732.00,0.0009
3731.00,0.0009
3730.00,0.0009
3729.00,0.0009
3728.00,0.0009
3727.00,0.0009
3726.00,0.0009
3725.00,0.0009
3724.00,0.0009
3723.00,0.0009
3722.00,0.0009
3721.00,0.0009
3720.00,0.0010
3719.00,0.0009
3718.00,0.0009
3717.00,0.0009
3716.00,0.0008
3715.00,0.0008
3714.00,0.0008
3713.00,0.0008
3712.00,0.0008
3711.00,0.0008
3710.00,0.0009
3709.00,0.0009
3708.00,0.0009
3707.00,0.0009
3706.00,0.0009
3705.00,0.0009
3704.00,0.0009
3703.00,0.0009
3702.00,0.0009
3701.00,0.0009
3700.00,0.0009
3699.00,0.0009
3698.00,0.0009
3697.00,0.0009
3696.00,0.0009
3695.00,0.0009
3694.00,0.0009
3693.00,0.0009
3692.00,0.0008
3691.00,0.0008
3690.00,0.0008
3689.00,0.0008
3688.00,0.0008
3687.00,0.0008
3686.00,0.0007
3685.00,0.0007
3684.00,0.0007
3683.00,0.0008
3682.00,0.0008
3681.00,0.0008
3680.00,0.0008
3679.00,0.0008
3678.00,0.0008
3677.00,0.0007
3676.00,0.0007
3675.00,0.0007
3674.00,0.0007
3673.00,0.0007
3672.00,0.0006
3671.00,0.0006
3670.00,0.0006
3669.00,0.0006
3668.00,0.0007
3667.00,0.0007
3666.00,0.0007
3665.00,0.0007
3664.00,0.0007
3663.00,0.0007
3662.00,0.0007
3661.00,0.0007
3660.00,0.0006
3659.00,0.0006
3658.00,0.0006
3657.00,0.0006
3656.00,0.0007
3655.00,0.0007
3654.00,0.0007
3653.00,0.0007
3652.00,0.0007
3651.00,0.0006
3650.00,0.0006
3649.00,0.0006
3648.00,0.0006
3647.00,0.0006
3646.00,0.0006
3645.00,0.0006
3644.00,0.0006
3643.00,0.0007
3642.00,0.0007
3641.00,0.0007
3640.00,0.0006
3639.00,0.0006
3638.00,0.0006
3637.00,0.0006
3636.00,0.0007
3635.00,0.0007
3634.00,0.0007
3633.00,0.0008
3632.00,0.0008
3631.00,0.0008
3630.00,0.0008
3629.00,0.0008
3628.00,0.0008
3627.00,0.0008
3626.00,0.0007
3625.00,0.0007
3624.00,0.0007
3623.00,0.0007
3622.00,0.0008
3621.00,0.0008
3620.00,0.0008
3619.00,0.0008
3618.00,0.0008
3617.00,0.0008
3616.00,0.0007
3615.00,0.0007
3614.00,0.0007
3613.00,0.0008
3612.00,0.0008
3611.00,0.0008
3610.00,0.0008
3609.00,0.0008
3608.00,0.0008
3607.00,0.0008
3606.00,0.0008
3605.00,0.0009
3604.00,0.0008
3603.00,0.0008
3602.00,0.0008
3601.00,0.0008
3600.00,0.0008
3599.00,0.0008
3598.00,0.0008
3597.00,0.0008
3596.00,0.0008
3595.00,0.0008
3594.00,0.0008
3593.00,0.0008
3592.00,0.0008
3591.00,0.0009
3590.00,0.0009
3589.00,0.0009
3588.00,0.0009
3587.00,0.0009
3586.00,0.0009
3585.00,0.0009
3584.00,0.0009
3583.00,0.0009
3582.00,0.0008
3581.00,0.0008
3580.00,0.0008
3579.00,0.0008
3578.00,0.0008
3577.00,0.0008
3576.00,0.0008
3575.00,0.0008
3574.00,0.0008
3573.00,0.0009
3572.00,0.0009
3571.00,0.0010
3570.00,0.0010
3569.00,0.0010
3568.00,0.0010
3567.00,0.0009
3566.00,0.0009
3565.00,0.0009
3564.00,0.0009
3563.00,0.0009
3562.00,0.0009
3561.00,0.0009
3560.00,0.0010
3559.00,0.0010
3558.00,0.0010
3557.00,0.0010
3556.00,0.0010
3555.00,0.0011
3554.00,0.0011
3553.00,0.0011
3552.00,0.0011
3551.00,0.0011
3550.00,0.0011
3549.00,0.0011
3548.00,0.0011
3547.00,0.0011
3546.00,0.0011
3545.00,0.0011
3544.00,0.0012
3543.00,0.0012
3542.00,0.0012
3541.00,0.0012
3540.00,0.0012
3539.00,0.0012
3538.00,0.0013
3537.00,0.0013
3536.00,0.0013
3535.00,0.0013
3534.00,0.0013
3533.00,0.0014
3532.00,0.0014
3531.00,0.0014
3530.00,0.0014
3529.00,0.0014
3528.00,0.0014
3527.00,0.0014
3526.00,0.0014
3525.00,0.0014
3524.00,0.0014
3523.00,0.0015
3522.00,0.0015
3521.00,0.0016
3520.00,0.0016
3519.00,0.0016
3518.00,0.0017
3517.00,0.0017
3516.00,0.0017
3515.00,0.0018
3514.00,0.0018
3513.00,0.0019
3512.00,0.0019
3511.00,0.0019
3510.00,0.0019
3509.00,0.0020
3508.00,0.0020
3507.00,0.0020
3506.00,0.0020
3505.00,0.0020
3504.00,0.0021
3503.00,0.0021
3502.00,0.0022
3501.00,0.0023
3500.00,0.0024
3499.00,0.0024
3498.00,0.0025
3497.00,0.0025
3496.00,0.0026
3495.00,0.0027
3494.00,0.0027
3493.00,0.0028
3492.00,0.0029
3491.00,0.0030
3490.00,0.0031
3489.00,0.0031
3488.00,0.0032
3487.00,0.0033
3486.00,0.0034
3485.00,0.0035
3484.00,0.0036
3483.00,0.0037
3482.00,0.0038
3481.00,0.0038
3480.00,0.0039
3479.00,0.0041
3478.00,0.0042
3477.00,0.0043
3476.00,0.0044
3475.00,0.0046
3474.00,0.0047
3473.00,0.0049
3472.00,0.0051
3471.00,0.0053
3470.00,0.0055
3469.00,0.0057
3468.00,0.0059
3467.00,0.0062
3466.00,0.0065
3465.00,0.0069
3464.00,0.0073
3463.00,0.0078
3462.00,0.0083
3461.00,0.0088
3460.00,0.0095
3459.00,0.0101
3458.00,0.0109
3457.00,0.0116
3456.00,0.0125
3455.00,0.0133
3454.00,0.0141
3453.00,0.0149
3452.00,0.0155
3451.00,0.0161
3450.00,0.0165
3449.00,0.0167
3448.00,0.0167
3447.00,0.0166
3446.00,0.0163
3445.00,0.0160
3444.00,0.0156
3443.00,0.0152
3442.00,0.0148
3441.00,0.0143
3440.00,0.0138
3439.00,0.0134
3438.00,0.0130
3437.00,0.0126
3436.00,0.0122
3435.00,0.0118
3434.00,0.0114
3433.00,0.0110
3432.00,0.0106
3431.00,0.0103
3430.00,0.0100
3429.00,0.0097
3428.00,0.0094
3427.00,0.0091
3426.00,0.0088
3425.00,0.0085
3424.00,0.0083
3423.00,0.0080
3422.00,0.0077
3421.00,0.0075
3420.00,0.0072
3419.00,0.0070
3418.00,0.0067
3417.00,0.0066
3416.00,0.0064
3415.00,0.0063
3414.00,0.0061
3413.00,0.0060
3412.00,0.0058
3411.00,0.0057
3410.00,0.0055
3409.00,0.0054
3408.00,0.0052
3407.00,0.0051
3406.00,0.0050
3405.00,0.0049
3404.00,0.0049
3403.00,0.0048
3402.00,0.0047
3401.00,0.0047
3400.00,0.0046
3399.00,0.0046
3398.00,0.0045
3397.00,0.0045
3396.00,0.0044
3395.00,0.0044
3394.00,0.0044
3393.00,0.0043
3392.00,0.0043
3391.00,0.0043
3390.00,0.0042
3389.00,0.0042
3388.00,0.0042
3387.00,0.0042
3386.00,0.0041
3385.00,0.0041
3384.00,0.0041
3383.00,0.0041
3382.00,0.0041
3381.00,0.0041
3380.00,0.0041
3379.00,0.0041
3378.00,0.0040
3377.00,0.0040
3376.00,0.0040
3375.00,0.0040
3374.00,0.0041
3373.00,0.0041
3372.00,0.0041
3371.00,0.0041
3370.00,0.0041
3369.00,0.0041
3368.00,0.0041
3367.00,0.0041
3366.00,0.0041
3365.00,0.0041
3364.00,0.0040
3363.00,0.0040
3362.00,0.0040
3361.00,0.0040
3360.00,0.0041
3359.00,0.0041
3358.00,0.0041
3357.00,0.0041
3356.00,0.0041
3355.00,0.0041
3354.00,0.0041
3353.00,0.0041
3352.00,0.0042
3351.00,0.0042
3350.00,0.0042
3349.00,0.0042
3348.00,0.0042
3347.00,0.0042
3346.00,0.0042
3345.00,0.0042
3344.00,0.0042
3343.00,0.0043
3342.00,0.0043
3341.00,0.0043
3340.00,0.0043
3339.00,0.0043
3338.00,0.0043
3337.00,0.0044
3336.00,0.0044
3335.00,0.0044
3334.00,0.0044
3333.00,0.0044
3332.00,0.0044
3331.00,0.0044
3330.00,0.0044
3329.00,0.0045
3328.00,0.0045
3327.00,0.0045
3326.00,0.0046
3325.00,0.0046
3324.00,0.0046
3323.00,0.0046
3322.00,0.0046
3321.00,0.0046
3320.00,0.0046
3319.00,0.0047
3318.00,0.0047
3317.00,0.0047
3316.00,0.0047
3315.00,0.0048
3314.00,0.0048
3313.00,0.0048
3312.00,0.0048
3311.00,0.0049
3310.00,0.0049
3309.00,0.0050
3308.00,0.0050
3307.00,0.0050
3306.00,0.0050
3305.00,0.0050
3304.00,0.0051
3303.00,0.0051
3302.00,0.0051
3301.00,0.0052
3300.00,0.0052
3299.00,0.0052
3298.00,0.0052
3297.00,0.0053
3296.00,0.0053
3295.00,0.0054
3294.00,0.0054
3293.00,0.0055
3292.00,0.0055
3291.00,0.0055
3290.00,0.0056
3289.00,0.0056
3288.00,0.0056
3287.00,0.0057
3286.00,0.0057
3285.00,0.0058
3284.00,0.0058
3283.00,0.0059
3282.00,0.0059
3281.00,0.0059
3280.00,0.0059
3279.00,0.0060
3278.00,0.0060
3277.00,0.0060
3276.00,0.0061
3275.00,0.0061
3274.00,0.0062
3273.00,0.0062
3272.00,0.0062
3271.00,0.0063
3270.00,0.0063
3269.00,0.0063
3268.00,0.0064
3267.00,0.0065
3266.00,0.0065
3265.00,0.0065
3264.00,0.0066
3263.00,0.0066
3262.00,0.0066
3261.00,0.0067
3260.00,0.0067
3259.00,0.0068
3258.00,0.0068
3257.00,0.0068
3256.00,0.0068
3255.00,0.0069
3254.00,0.0069
3253.00,0.0070
3252.00,0.0070
3251.00,0.0070
3250.00,0.0071
3249.00,0.0071
3248.00,0.0071
3247.00,0.0072
3246.00,0.0072
3245.00,0.0072
3244.00,0.0073
3243.00,0.0073
3242.00,0.0074
3241.00,0.0074
3240.00,0.0075
3239.00,0.0075
3238.00,0.0075
3237.00,0.0076
3236.00,0.0076
3235.00,0.0076
3234.00,0.0077
3233.00,0.0077
3232.00,0.0078
3231.00,0.0078
3230.00,0.0079
3229.00,0.0079
3228.00,0.0079
3227.00,0.0079
3226.00,0.0080
3225.00,0.0080
3224.00,0.0081
3223.00,0.0082
3222.00,0.0082
3221.00,0.0082
3220.00,0.0083
3219.00,0.0083
3218.00,0.0083
3217.00,0.0083
3216.00,0.0084
3215.00,0.0084
3214.00,0.0084
3213.00,0.0085
3212.00,0.0085
3211.00,0.0085
3210.00,0.0086
3209.00,0.0086
3208.00,0.0087
3207.00,0.0087
3206.00,0.0088
3205.00,0.0088
3204.00,0.0089
3203.00,0.0089
3202.00,0.0090
3201.00,0.0090
3200.00,0.0090
3199.00,0.0091
3198.00,0.0091
3197.00,0.0091
3196.00,0.0092
3195.00,0.0092
3194.00,0.0092
3193.00,0.0093
3192.00,0.0093
3191.00,0.0094
3190.00,0.0094
3189.00,0.0094
3188.00,0.0094
3187.00,0.0094
3186.00,0.0095
3185.00,0.0095
3184.00,0.0095
3183.00,0.0095
3182.00,0.0096
3181.00,0.0096
3180.00,0.0096
3179.00,0.0097
3178.00,0.0097
3177.00,0.0097
3176.00,0.0097
3175.00,0.0097
3174.00,0.0097
3173.00,0.0097
3172.00,0.0097
3171.00,0.0097
3170.00,0.0098
3169.00,0.0098
3168.00,0.0098
3167.00,0.0098
3166.00,0.0098
3165.00,0.0099
3164.00,0.0099
3163.00,0.0099
3162.00,0.0100
3161.00,0.0100
3160.00,0.0100
3159.00,0.0100
3158.00,0.0100
3157.00,0.0100
3156.00,0.0100
3155.00,0.0100
3154.00,0.0100
3153.00,0.0100
3152.00,0.0100
3151.00,0.0101
3150.00,0.0101
3149.00,0.0102
3148.00,0.0103
3147.00,0.0103
3146.00,0.0103
3145.00,0.0104
3144.00,0.0104
3143.00,0.0104
3142.00,0.0105
3141.00,0.0105
3140.00,0.0105
3139.00,0.0106
3138.00,0.0106
3137.00,0.0106
3136.00,0.0107
3135.00,0.0107
3134.00,0.0108
3133.00,0.0108
3132.00,0.0108
3131.00,0.0108
3130.00,0.0108
3129.00,0.0109
3128.00,0.0109
3127.00,0.0109
3126.00,0.0110
3125.00,0.0110
3124.00,0.0110
3123.00,0.0110
3122.00,0.0110
3121.00,0.0111
3120.00,0.0111
3119.00,0.0111
3118.00,0.0111
3117.00,0.0112
3116.00,0.0112
3115.00,0.0112
3114.00,0.0112
3113.00,0.0113
3112.00,0.0113
3111.00,0.0114
3110.00,0.0114
3109.00,0.0115
3108.00,0.0115
3107.00,0.0115
3106.00,0.0116
3105.00,0.0116
3104.00,0.0116
3103.00,0.0117
3102.00,0.0117
3101.00,0.0117
3100.00,0.0117
3099.00,0.0118
3098.00,0.0118
3097.00,0.0118
3096.00,0.0118
3095.00,0.0118
3094.00,0.0118
3093.00,0.0118
3092.00,0.0118
3091.00,0.0118
3090.00,0.0119
3089.00,0.0119
3088.00,0.0120
3087.00,0.0120
3086.00,0.0120
3085.00,0.0121
3084.00,0.0121
3083.00,0.0121
3082.00,0.0122
3081.00,0.0122
3080.00,0.0122
3079.00,0.0123
3078.00,0.0123
3077.00,0.0124
3076.00,0.0125
3075.00,0.0125
3074.00,0.0126
3073.00,0.0127
3072.00,0.0128
3071.00,0.0129
3070.00,0.0129
3069.00,0.0130
3068.00,0.0129
3067.00,0.0128
3066.00,0.0127
3065.00,0.0126
3064.00,0.0124
3063.00,0.0123
3062.00,0.0122
3061.00,0.0120
3060.00,0.0119
3059.00,0.0117
3058.00,0.0116
3057.00,0.0115
3056.00,0.0114
3055.00,0.0113
3054.00,0.0112
3053.00,0.0112
3052.00,0.0111
3051.00,0.0110
3050.00,0.0110
3049.00,0.0110
3048.00,0.0109
3047.00,0.0109
3046.00,0.0108
3045.00,0.0108
3044.00,0.0108
3043.00,0.0107
3042.00,0.0107
3041.00,0.0107
3040.00,0.0107
3039.00,0.0107
3038.00,0.0107
3037.00,0.0106
3036.00,0.0106
3035.00,0.0106
3034.00,0.0105
3033.00,0.0105
3032.00,0.0104
3031.00,0.0104
3030.00,0.0104
3029.00,0.0103
3028.00,0.0103
3027.00,0.0103
3026.00,0.0102
3025.00,0.0102
3024.00,0.0102
3023.00,0.0101
3022.00,0.0101
3021.00,0.0100
3020.00,0.0100
3019.00,0.0100
3018.00,0.0099
3017.00,0.0099
3016.00,0.0098
3015.00,0.0098
3014.00,0.0097
3013.00,0.0097
3012.00,0.0097
3011.00,0.0097
3010.00,0.0097
3009.00,0.0097
3008.00,0.0096
3007.00,0.0096
3006.00,0.0096
3005.00,0.0095
3004.00,0.0095
3003.00,0.0095
3002.00,0.0095
3001.00,0.0095
3000.00,0.0095
2999.00,0.0096
2998.00,0.0096
2997.00,0.0097
2996.00,0.0097
2995.00,0.0098
2994.00,0.0099
2993.00,0.0101
2992.00,0.0102
2991.00,0.0103
2990.00,0.0104
2989.00,0.0105
2988.00,0.0106
2987.00,0.0107
2986.00,0.0107
2985.00,0.0107
2984.00,0.0107
2983.00,0.0107
2982.00,0.0108
2981.00,0.0109
2980.00,0.0111
2979.00,0.0113
2978.00,0.0116
2977.00,0.0118
2976.00,0.0120
2975.00,0.0122
2974.00,0.0123
2973.00,0.0124
2972.00,0.0124
2971.00,0.0125
2970.00,0.0126
2969.00,0.0127
2968.00,0.0129
2967.00,0.0131
2966.00,0.0134
2965.00,0.0137
2964.00,0.0140
2963.00,0.0144
2962.00,0.0149
2961.00,0.0153
2960.00,0.0158
2959.00,0.0163
2958.00,0.0168
2957.00,0.0172
2956.00,0.0175
2955.00,0.0178
2954.00,0.0179
2953.00,0.0180
2952.00,0.0179
2951.00,0.0178
2950.00,0.0176
2949.00,0.0173
2948.00,0.0171
2947.00,0.0169
2946.00,0.0167
2945.00,0.0167
2944.00,0.0167
2943.00,0.0169
2942.00,0.0172
2941.00,0.0175
2940.00,0.0179
2939.00,0.0184
2938.00,0.0189
2937.00,0.0194
2936.00,0.0200
2935.00,0.0206
2934.00,0.0213
2933.00,0.0220
2932.00,0.0228
2931.00,0.0236
2930.00,0.0243
2929.00,0.0251
2928.00,0.0257
2927.00,0.0262
2926.00,0.0265
2925.00,0.0267
2924.00,0.0267
2923.00,0.0266
2922.00,0.0263
2921.00,0.0259
2920.00,0.0255
2919.00,0.0250
2918.00,0.0245
2917.00,0.0239
2916.00,0.0234
2915.00,0.0228
2914.00,0.0222
2913.00,0.0215
2912.00,0.0209
2911.00,0.0203
2910.00,0.0196
2909.00,0.0190
2908.00,0.0184
2907.00,0.0178
2906.00,0.0173
2905.00,0.0168
2904.00,0.0164
2903.00,0.0160
2902.00,0.0157
2901.00,0.0154
2900.00,0.0151
2899.00,0.0149
2898.00,0.0146
2897.00,0.0145
2896.00,0.0143
2895.00,0.0141
2894.00,0.0140
2893.00,0.0138
2892.00,0.0137
2891.00,0.0136
2890.00,0.0135
2889.00,0.0134
2888.00,0.0134
2887.00,0.0134
2886.00,0.0134
2885.00,0.0133
2884.00,0.0133
2883.00,0.0133
2882.00,0.0133
2881.00,0.0133
2880.00,0.0134
2879.00,0.0135
2878.00,0.0136
2877.00,0.0138
2876.00,0.0140
2875.00,0.0143
2874.00,0.0146
2873.00,0.0149
2872.00,0.0151
2871.00,0.0152
2870.00,0.0153
2869.00,0.0152
2868.00,0.0150
2867.00,0.0148
2866.00,0.0146
2865.00,0.0145
2864.00,0.0146
2863.00,0.0147
2862.00,0.0150
2861.00,0.0153
2860.00,0.0157
2859.00,0.0160
2858.00,0.0163
2857.00,0.0164
2856.00,0.0164
2855.00,0.0163
2854.00,0.0160
2853.00,0.0156
2852.00,0.0152
2851.00,0.0147
2850.00,0.0142
2849.00,0.0138
2848.00,0.0134
2847.00,0.0130
2846.00,0.0127
2845.00,0.0125
2844.00,0.0123
2843.00,0.0122
2842.00,0.0121
2841.00,0.0120
2840.00,0.0119
2839.00,0.0118
2838.00,0.0117
2837.00,0.0116
2836.00,0.0116
2835.00,0.0116
2834.00,0.0116
2833.00,0.0116
2832.00,0.0114
2831.00,0.0112
2830.00,0.0109
2829.00,0.0106
2828.00,0.0103
2827.00,0.0099
2826.00,0.0096
2825.00,0.0093
2824.00,0.0091
2823.00,0.0088
2822.00,0.0086
2821.00,0.0085
2820.00,0.0083
2819.00,0.0082
2818.00,0.0081
2817.00,0.0080
2816.00,0.0080
2815.00,0.0079
2814.00,0.0078
2813.00,0.0077
2812.00,0.0077
2811.00,0.0076
2810.00,0.0075
2809.00,0.0075
2808.00,0.0074
2807.00,0.0074
2806.00,0.0074
2805.00,0.0073
2804.00,0.0073
2803.00,0.0073
2802.00,0.0072
2801.00,0.0072
2800.00,0.0072
2799.00,0.0072
2798.00,0.0071
2797.00,0.0071
2796.00,0.0071
2795.00,0.0071
2794.00,0.0071
2793.00,0.0071
2792.00,0.0070
2791.00,0.0070
2790.00,0.0070
2789.00,0.0070
2788.00,0.0070
2787.00,0.0070
2786.00,0.0070
2785.00,0.0070
2784.00,0.0070
2783.00,0.0070
2782.00,0.0070
2781.00,0.0071
2780.00,0.0071
2779.00,0.0071
2778.00,0.0071
2777.00,0.0071
2776.00,0.0072
2775.00,0.0072
2774.00,0.0073
2773.00,0.0073
2772.00,0.0073
2771.00,0.0073
2770.00,0.0073
2769.00,0.0074
2768.00,0.0074
2767.00,0.0074
2766.00,0.0075
2765.00,0.0075
2764.00,0.0075
2763.00,0.0075
2762.00,0.0075
2761.00,0.0075
2760.00,0.0075
2759.00,0.0075
2758.00,0.0075
2757.00,0.0075
2756.00,0.0075
2755.00,0.0075
2754.00,0.0076
2753.00,0.0076
2752.00,0.0076
2751.00,0.0076
2750.00,0.0076
2749.00,0.0076
2748.00,0.0076
2747.00,0.0076
2746.00,0.0076
2745.00,0.0076
2744.00,0.0076
2743.00,0.0076
2742.00,0.0076
2741.00,0.0076
2740.00,0.0076
2739.00,0.0077
2738.00,0.0077
2737.00,0.0077
2736.00,0.0077
2735.00,0.0078
2734.00,0.0078
2733.00,0.0078
2732.00,0.0078
2731.00,0.0079
2730.00,0.0079
2729.00,0.0079
2728.00,0.0079
2727.00,0.0079
2726.00,0.0079
2725.00,0.0080
2724.00,0.0080
2723.00,0.0080
2722.00,0.0079
2721.00,0.0079
2720.00,0.0079
2719.00,0.0079
2718.00,0.0079
2717.00,0.0079
2716.00,0.0079
2715.00,0.0079
2714.00,0.0079
2713.00,0.0079
2712.00,0.0079
2711.00,0.0079
2710.00,0.0079
2709.00,0.0079
2708.00,0.0080
2707.00,0.0080
2706.00,0.0080
2705.00,0.0080
2704.00,0.0080
2703.00,0.0080
2702.00,0.0080
2701.00,0.0080
2700.00,0.0080
2699.00,0.0080
2698.00,0.0080
2697.00,0.0080
2696.00,0.0080
2695.00,0.0080
2694.00,0.0080
2693.00,0.0080
2692.00,0.0080
2691.00,0.0080
2690.00,0.0080
2689.00,0.0080
2688.00,0.0080
2687.00,0.0080
2686.00,0.0080
2685.00,0.0080
2684.00,0.0080
2683.00,0.0080
2682.00,0.0080
2681.00,0.0079
2680.00,0.0079
2679.00,0.0079
2678.00,0.0079
2677.00,0.0079
2676.00,0.0079
2675.00,0.0079
2674.00,0.0079
2673.00,0.0080
2672.00,0.0080
2671.00,0.0080
2670.00,0.0080
2669.00,0.0080
2668.00,0.0080
2667.00,0.0080
2666.00,0.0081
2665.00,0.0081
2664.00,0.0082
2663.00,0.0082
2662.00,0.0083
2661.00,0.0083
2660.00,0.0084
2659.00,0.0084
2658.00,0.0084
2657.00,0.0084
2656.00,0.0084
2655.00,0.0084
2654.00,0.0084
2653.00,0.0084
2652.00,0.0084
2651.00,0.0083
2650.00,0.0083
2649.00,0.0083
2648.00,0.0083
2647.00,0.0083
2646.00,0.0083
2645.00,0.0083
2644.00,0.0083
2643.00,0.0083
2642.00,0.0083
2641.00,0.0083
2640.00,0.0082
2639.00,0.0082
2638.00,0.0082
2637.00,0.0082
2636.00,0.0082
2635.00,0.0081
2634.00,0.0081
2633.00,0.0081
2632.00,0.0080
2631.00,0.0080
2630.00,0.0080
2629.00,0.0080
2628.00,0.0080
2627.00,0.0080
2626.00,0.0080
2625.00,0.0080
2624.00,0.0080
2623.00,0.0080
2622.00,0.0079
2621.00,0.0079
2620.00,0.0079
2619.00,0.0079
2618.00,0.0079
2617.00,0.0078
2616.00,0.0078
2615.00,0.0078
2614.00,0.0077
2613.00,0.0077
2612.00,0.0077
2611.00,0.0077
2610.00,0.0077
2609.00,0.0077
2608.00,0.0077
2607.00,0.0077
2606.00,0.0076
2605.00,0.0076
2604.00,0.0076
2603.00,0.0076
2602.00,0.0075
2601.00,0.0075
2600.00,0.0075
2599.00,0.0074
2598.00,0.0074
2597.00,0.0073
2596.00,0.0073
2595.00,0.0073
2594.00,0.0073
2593.00,0.0073
2592.00,0.0073
2591.00,0.0073
2590.00,0.0073
2589.00,0.0073
2588.00,0.0072
2587.00,0.0072
2586.00,0.0071
2585.00,0.0070
2584.00,0.0070
2583.00,0.0070
2582.00,0.0070
2581.00,0.0070
2580.00,0.0070
2579.00,0.0070
2578.00,0.0070
2577.00,0.0069
2576.00,0.0069
2575.00,0.0069
2574.00,0.0069
2573.00,0.0069
2572.00,0.0069
2571.00,0.0069
2570.00,0.0069
2569.00,0.0070
2568.00,0.0070
2567.00,0.0070
2566.00,0.0069
2565.00,0.0069
2564.00,0.0069
2563.00,0.0069
2562.00,0.0069
2561.00,0.0069
2560.00,0.0069
2559.00,0.0069
2558.00,0.0069
2557.00,0.0069
2556.00,0.0069
2555.00,0.0069
2554.00,0.0070
2553.00,0.0070
2552.00,0.0070
2551.00,0.0069
2550.00,0.0069
2549.00,0.0069
2548.00,0.0068
2547.00,0.0068
2546.00,0.0068
2545.00,0.0068
2544.00,0.0067
2543.00,0.0067
2542.00,0.0066
2541.00,0.0066
2540.00,0.0066
2539.00,0.0066
2538.00,0.0066
2537.00,0.0065
2536.00,0.0065
2535.00,0.0065
2534.00,0.0064
2533.00,0.0064
2532.00,0.0064
2531.00,0.0064
2530.00,0.0064
2529.00,0.0063
2528.00,0.0063
2527.00,0.0063
2526.00,0.0063
2525.00,0.0062
2524.00,0.0062
2523.00,0.0062
2522.00,0.0062
2521.00,0.0061
2520.00,0.0061
2519.00,0.0061
2518.00,0.0061
2517.00,0.0060
2516.00,0.0060
2515.00,0.0060
2514.00,0.0060
2513.00,0.0060
2512.00,0.0059
2511.00,0.0059
2510.00,0.0059
2509.00,0.0058
2508.00,0.0058
2507.00,0.0057
2506.00,0.0057
2505.00,0.0057
2504.00,0.0057
2503.00,0.0057
2502.00,0.0057
2501.00,0.0057
2500.00,0.0056
2499.00,0.0056
2498.00,0.0056
2497.00,0.0056
2496.00,0.0056
2495.00,0.0057
2494.00,0.0057
2493.00,0.0057
2492.00,0.0056
2491.00,0.0056
2490.00,0.0056
2489.00,0.0055
2488.00,0.0055
2487.00,0.0055
2486.00,0.0056
2485.00,0.0056
2484.00,0.0056
2483.00,0.0056
2482.00,0.0056
2481.00,0.0056
2480.00,0.0056
2479.00,0.0055
2478.00,0.0056
2477.00,0.0056
2476.00,0.0056
2475.00,0.0056
2474.00,0.0056
2473.00,0.0055
2472.00,0.0055
2471.00,0.0055
2470.00,0.0055
2469.00,0.0055
2468.00,0.0055
2467.00,0.0055
2466.00,0.0055
2465.00,0.0055
2464.00,0.0055
2463.00,0.0056
2462.00,0.0056
2461.00,0.0056
2460.00,0.0056
2459.00,0.0056
2458.00,0.0056
2457.00,0.0057
2456.00,0.0057
2455.00,0.0057
2454.00,0.0057
2453.00,0.0057
2452.00,0.0057
2451.00,0.0057
2450.00,0.0057
2449.00,0.0057
2448.00,0.0057
2447.00,0.0057
2446.00,0.0057
2445.00,0.0056
2444.00,0.0056
2443.00,0.0056
2442.00,0.0055
2441.00,0.0055
2440.00,0.0055
2439.00,0.0055
2438.00,0.0055
2437.00,0.0055
2436.00,0.0055
2435.00,0.0055
2434.00,0.0055
2433.00,0.0055
2432.00,0.0054
2431.00,0.0054
2430.00,0.0054
2429.00,0.0054
2428.00,0.0054
2427.00,0.0054
2426.00,0.0054
2425.00,0.0054
2424.00,0.0054
2423.00,0.0054
2422.00,0.0053
2421.00,0.0053
2420.00,0.0053
2419.00,0.0053
2418.00,0.0053
2417.00,0.0053
2416.00,0.0053
2415.00,0.0053
2414.00,0.0052
2413.00,0.0052
2412.00,0.0051
2411.00,0.0051
2410.00,0.0051
2409.00,0.0050
2408.00,0.0049
2407.00,0.0048
2406.00,0.0048
2405.00,0.0047
2404.00,0.0047
2403.00,0.0047
2402.00,0.0047
2401.00,0.0047
2400.00,0.0046
2399.00,0.0046
2398.00,0.0046
2397.00,0.0045
2396.00,0.0044
2395.00,0.0044
2394.00,0.0044
2393.00,0.0043
2392.00,0.0043
2391.00,0.0043
2390.00,0.0043
2389.00,0.0042
2388.00,0.0042
2387.00,0.0042
2386.00,0.0041
2385.00,0.0040
2384.00,0.0039
2383.00,0.0038
2382.00,0.0038
2381.00,0.0037
2380.00,0.0037
2379.00,0.0037
2378.00,0.0037
2377.00,0.0037
2376.00,0.0036
2375.00,0.0036
2374.00,0.0035
2373.00,0.0035
2372.00,0.0034
2371.00,0.0034
2370.00,0.0034
2369.00,0.0033
2368.00,0.0032
2367.00,0.0031
2366.00,0.0031
2365.00,0.0032
2364.00,0.0032
2363.00,0.0033
2362.00,0.0033
2361.00,0.0032
2360.00,0.0032
2359.00,0.0032
2358.00,0.0031
2357.00,0.0031
2356.00,0.0031
2355.00,0.0031
2354.00,0.0031
2353.00,0.0030
2352.00,0.0030
2351.00,0.0029
2350.00,0.0029
2349.00,0.0030
2348.00,0.0032
2347.00,0.0033
2346.00,0.0034
2345.00,0.0033
2344.00,0.0033
2343.00,0.0032
2342.00,0.0032
2341.00,0.0031
2340.00,0.0031
2339.00,0.0031
2338.00,0.0031
2337.00,0.0031
2336.00,0.0031
2335.00,0.0030
2334.00,0.0030
2333.00,0.0029
2332.00,0.0029
2331.00,0.0029
2330.00,0.0029
2329.00,0.0031
2328.00,0.0034
2327.00,0.0038
2326.00,0.0041
2325.00,0.0042
2324.00,0.0041
2323.00,0.0039
2322.00,0.0036
2321.00,0.0034
2320.00,0.0033
2319.00,0.0032
2318.00,0.0031
2317.00,0.0030
2316.00,0.0030
2315.00,0.0030
2314.00,0.0031
2313.00,0.0031
2312.00,0.0031
2311.00,0.0030
2310.00,0.0029
2309.00,0.0029
2308.00,0.0029
2307.00,0.0028
2306.00,0.0028
2305.00,0.0029
2304.00,0.0029
2303.00,0.0029
2302.00,0.0029
2301.00,0.0029
2300.00,0.0030
2299.00,0.0030
2298.00,0.0030
2297.00,0.0030
2296.00,0.0031
2295.00,0.0031
2294.00,0.0032
2293.00,0.0033
2292.00,0.0035
2291.00,0.0035
2290.00,0.0036
2289.00,0.0036
2288.00,0.0036
2287.00,0.0036
2286.00,0.0036
2285.00,0.0035
2284.00,0.0034
2283.00,0.0033
2282.00,0.0033
2281.00,0.0032
2280.00,0.0032
2279.00,0.0031
2278.00,0.0031
2277.00,0.0030
2276.00,0.0030
2275.00,0.0030
2274.00,0.0029
2273.00,0.0029
2272.00,0.0029
2271.00,0.0028
2270.00,0.0028
2269.00,0.0027
2268.00,0.0027
2267.00,0.0027
2266.00,0.0027
2265.00,0.0026
2264.00,0.0026
2263.00,0.0026
2262.00,0.0025
2261.00,0.0025
2260.00,0.0026
2259.00,0.0027
2258.00,0.0027
2257.00,0.0025
2256.00,0.0024
2255.00,0.0023
2254.00,0.0023
2253.00,0.0023
2252.00,0.0024
2251.00,0.0023
2250.00,0.0023
2249.00,0.0022
2248.00,0.0022
2247.00,0.0021
2246.00,0.0021
2245.00,0.0021
2244.00,0.0021
2243.00,0.0021
2242.00,0.0022
2241.00,0.0022
2240.00,0.0023
2239.00,0.0023
2238.00,0.0024
2237.00,0.0024
2236.00,0.0024
2235.00,0.0023
2234.00,0.0023
2233.00,0.0022
2232.00,0.0022
2231.00,0.0022
2230.00,0.0022
2229.00,0.0023
2228.00,0.0023
2227.00,0.0022
2226.00,0.0022
2225.00,0.0022
2224.00,0.0022
2223.00,0.0021
2222.00,0.0021
2221.00,0.0020
2220.00,0.0019
2219.00,0.0020
2218.00,0.0020
2217.00,0.0021
2216.00,0.0021
2215.00,0.0020
2214.00,0.0020
2213.00,0.0018
2212.00,0.0017
2211.00,0.0017
2210.00,0.0017
2209.00,0.0018
2208.00,0.0019
2207.00,0.0019
2206.00,0.0019
2205.00,0.0019
2204.00,0.0019
2203.00,0.0018
2202.00,0.0018
2201.00,0.0018
2200.00,0.0018
2199.00,0.0018
2198.00,0.0019
2197.00,0.0019
2196.00,0.0020
2195.00,0.0021
2194.00,0.0021
2193.00,0.0022
2192.00,0.0023
2191.00,0.0023
2190.00,0.0023
2189.00,0.0023
2188.00,0.0023
2187.00,0.0022
2186.00,0.0021
2185.00,0.0019
2184.00,0.0017
2183.00,0.0015
2182.00,0.0014
2181.00,0.0015
2180.00,0.0016
2179.00,0.0016
2178.00,0.0015
2177.00,0.0013
2176.00,0.0012
2175.00,0.0012
2174.00,0.0013
2173.00,0.0016
2172.00,0.0019
2171.00,0.0023
2170.00,0.0026
2169.00,0.0029
2168.00,0.0030
2167.00,0.0032
2166.00,0.0032
2165.00,0.0033
2164.00,0.0032
2163.00,0.0030
2162.00,0.0023
2161.00,0.0012
2160.00,-0.0002
2159.00,-0.0013
2158.00,-0.0018
2157.00,-0.0019
2156.00,-0.0017
2155.00,-0.0015
2154.00,-0.0013
2153.00,-0.0010
2152.00,-0.0007
2151.00,-0.0005
2150.00,-0.0004
2149.00,-0.0004
2148.00,-0.0004
2147.00,-0.0004
2146.00,-0.0004
2145.00,-0.0005
2144.00,-0.0005
2143.00,-0.0005
2142.00,-0.0004
2141.00,-0.0003
2140.00,-0.0003
2139.00,-0.0003
2138.00,-0.0004
2137.00,-0.0006
2136.00,-0.0008
2135.00,-0.0010
2134.00,-0.0011
2133.00,-0.0010
2132.00,-0.0007
2131.00,-0.0005
2130.00,-0.0003
2129.00,-0.0002
2128.00,-0.0001
2127.00,-0.0000
2126.00,0.0001
2125.00,0.0001
2124.00,0.0003
2123.00,0.0004
2122.00,0.0005
2121.00,0.0006
2120.00,0.0007
2119.00,0.0008
2118.00,0.0009
2117.00,0.0011
2116.00,0.0011
2115.00,0.0012
2114.00,0.0012
2113.00,0.0012
2112.00,0.0011
2111.00,0.0011
2110.00,0.0010
2109.00,0.0010
2108.00,0.0010
2107.00,0.0010
2106.00,0.0011
2105.00,0.0011
2104.00,0.0010
2103.00,0.0010
2102.00,0.0009
2101.00,0.0009
2100.00,0.0009
2099.00,0.0009
2098.00,0.0008
2097.00,0.0008
2096.00,0.0007
2095.00,0.0007
2094.00,0.0007
2093.00,0.0008
2092.00,0.0008
2091.00,0.0008
2090.00,0.0009
2089.00,0.0009
2088.00,0.0009
2087.00,0.0010
2086.00,0.0010
2085.00,0.0010
2084.00,0.0010
2083.00,0.0010
2082.00,0.0011
2081.00,0.0011
2080.00,0.0012
2079.00,0.0012
2078.00,0.0012
2077.00,0.0011
2076.00,0.0011
2075.00,0.0010
2074.00,0.0010
2073.00,0.0010
2072.00,0.0010
2071.00,0.0010
2070.00,0.0010
2069.00,0.0010
2068.00,0.0010
2067.00,0.0009
2066.00,0.0009
2065.00,0.0008
2064.00,0.0008
2063.00,0.0009
2062.00,0.0009
2061.00,0.0010
2060.00,0.0010
2059.00,0.0011
2058.00,0.0011
2057.00,0.0011
2056.00,0.0011
2055.00,0.0012
2054.00,0.0014
2053.00,0.0017
2052.00,0.0020
2051.00,0.0021
2050.00,0.0019
2049.00,0.0016
2048.00,0.0014
2047.00,0.0013
2046.00,0.0012
2045.00,0.0011
2044.00,0.0010
2043.00,0.0010
2042.00,0.0011
2041.00,0.0012
2040.00,0.0013
2039.00,0.0013
2038.00,0.0013
2037.00,0.0012
2036.00,0.0011
2035.00,0.0011
2034.00,0.0009
2033.00,0.0008
2032.00,0.0007
2031.00,0.0007
2030.00,0.0006
2029.00,0.0005
2028.00,0.0004
2027.00,0.0004
2026.00,0.0004
2025.00,0.0004
2024.00,0.0003
2023.00,0.0002
2022.00,0.0000
2021.00,0.0000
2020.00,0.0001
2019.00,0.0003
2018.00,0.0004
2017.00,0.0004
2016.00,0.0003
2015.00,0.0003
2014.00,0.0004
2013.00,0.0005
2012.00,0.0007
2011.00,0.0008
2010.00,0.0007
2009.00,0.0004
2008.00,0.0001
2007.00,-0.0002
2006.00,-0.0003
2005.00,-0.0004
2004.00,-0.0003
2003.00,-0.0001
2002.00,0.0001
2001.00,0.0002
2000.00,0.0003
1999.00,0.0003
1998.00,0.0004
1997.00,0.0004
1996.00,0.0005
1995.00,0.0006
1994.00,0.0007
1993.00,0.0008
1992.00,0.0010
1991.00,0.0011
1990.00,0.0012
1989.00,0.0013
1988.00,0.0013
1987.00,0.0012
1986.00,0.0012
1985.00,0.0012
1984.00,0.0013
1983.00,0.0016
1982.00,0.0020
1981.00,0.0021
1980.00,0.0019
1979.00,0.0014
1978.00,0.0008
1977.00,0.0003
1976.00,0.0000
1975.00,-0.0000
1974.00,-0.0000
1973.00,-0.0000
1972.00,-0.0000
1971.00,-0.0001
1970.00,-0.0002
1969.00,-0.0003
1968.00,-0.0003
1967.00,-0.0003
1966.00,-0.0002
1965.00,-0.0001
1964.00,-0.0000
1963.00,-0.0000
1962.00,-0.0002
1961.00,-0.0004
1960.00,-0.0005
1959.00,-0.0005
1958.00,-0.0005
1957.00,-0.0003
1956.00,-0.0002
1955.00,-0.0001
1954.00,-0.0001
1953.00,0.0000
1952.00,0.0001
1951.00,0.0002
1950.00,0.0002
1949.00,0.0002
1948.00,0.0003
1947.00,0.0003
1946.00,0.0002
1945.00,0.0001
1944.00,0.0000
1943.00,-0.0000
1942.00,0.0000
1941.00,0.0001
1940.00,0.0001
1939.00,0.0002
1938.00,0.0002
1937.00,0.0002
1936.00,0.0002
1935.00,0.0002
1934.00,0.0002
1933.00,0.0002
1932.00,0.0002
1931.00,0.0002
1930.00,0.0002
1929.00,0.0002
1928.00,0.0003
1927.00,0.0002
1926.00,0.0002
1925.00,0.0002
1924.00,0.0002
1923.00,0.0003
1922.00,0.0004
1921.00,0.0004
1920.00,0.0005
1919.00,0.0005
1918.00,0.0005
1917.00,0.0004
1916.00,0.0004
1915.00,0.0005
1914.00,0.0004
1913.00,0.0004
1912.00,0.0004
1911.00,0.0004
1910.00,0.0004
1909.00,0.0004
1908.00,0.0004
1907.00,0.0004
1906.00,0.0004
1905.00,0.0004
1904.00,0.0004
1903.00,0.0004
1902.00,0.0004
1901.00,0.0003
1900.00,0.0003
1899.00,0.0003
1898.00,0.0003
1897.00,0.0003
1896.00,0.0004
1895.00,0.0004
1894.00,0.0004
1893.00,0.0004
1892.00,0.0004
1891.00,0.0004
1890.00,0.0003
1889.00,0.0003
1888.00,0.0004
1887.00,0.0004
1886.00,0.0004
1885.00,0.0005
1884.00,0.0005
1883.00,0.0005
1882.00,0.0005
1881.00,0.0005
1880.00,0.0005
1879.00,0.0005
1878.00,0.0005
1877.00,0.0005
1876.00,0.0005
1875.00,0.0005
1874.00,0.0006
1873.00,0.0006
1872.00,0.0006
1871.00,0.0006
1870.00,0.0007
1869.00,0.0007
1868.00,0.0007
1867.00,0.0007
1866.00,0.0007
1865.00,0.0007
1864.00,0.0007
1863.00,0.0006
1862.00,0.0006
1861.00,0.0006
1860.00,0.0006
1859.00,0.0005
1858.00,0.0005
1857.00,0.0005
1856.00,0.0006
1855.00,0.0006
1854.00,0.0005
1853.00,0.0005
1852.00,0.0005
1851.00,0.0005
1850.00,0.0005
1849.00,0.0005
1848.00,0.0005
1847.00,0.0005
1846.00,0.0006
1845.00,0.0006
1844.00,0.0007
1843.00,0.0007
1842.00,0.0007
1841.00,0.0007
1840.00,0.0006
1839.00,0.0006
1838.00,0.0006
1837.00,0.0006
1836.00,0.0006
1835.00,0.0006
1834.00,0.0006
1833.00,0.0006
1832.00,0.0006
1831.00,0.0006
1830.00,0.0007
1829.00,0.0007
1828.00,0.0007
1827.00,0.0007
1826.00,0.0007
1825.00,0.0007
1824.00,0.0007
1823.00,0.0007
1822.00,0.0007
1821.00,0.0007
1820.00,0.0006
1819.00,0.0005
1818.00,0.0004
1817.00,0.0003
1816.00,0.0004
1815.00,0.0004
1814.00,0.0004
1813.00,0.0005
1812.00,0.0005
1811.00,0.0006
1810.00,0.0006
1809.00,0.0007
1808.00,0.0007
1807.00,0.0008
1806.00,0.0008
1805.00,0.0008
1804.00,0.0008
1803.00,0.0008
1802.00,0.0009
1801.00,0.0009
1800.00,0.0009
1799.00,0.0009
1798.00,0.0009
1797.00,0.0009
1796.00,0.0009
1795.00,0.0010
1794.00,0.0010
1793.00,0.0010
1792.00,0.0011
1791.00,0.0011
1790.00,0.0012
1789.00,0.0012
1788.00,0.0012
1787.00,0.0013
1786.00,0.0013
1785.00,0.0013
1784.00,0.0014
1783.00,0.0014
1782.00,0.0014
1781.00,0.0013
1780.00,0.0013
1779.00,0.0013
1778.00,0.0013
1777.00,0.0013
1776.00,0.0013
1775.00,0.0013
1774.00,0.0013
1773.00,0.0013
1772.00,0.0013
1771.00,0.0013
1770.00,0.0013
1769.00,0.0014
1768.00,0.0014
1767.00,0.0014
1766.00,0.0013
1765.00,0.0013
1764.00,0.0013
1763.00,0.0013
1762.00,0.0013
1761.00,0.0013
1760.00,0.0013
1759.00,0.0012
1758.00,0.0012
1757.00,0.0012
1756.00,0.0012
1755.00,0.0012
1754.00,0.0012
1753.00,0.0012
1752.00,0.0013
1751.00,0.0013
1750.00,0.0013
1749.00,0.0014
1748.00,0.0014
1747.00,0.0014
1746.00,0.0014
1745.00,0.0014
1744.00,0.0014
1743.00,0.0014
1742.00,0.0015
1741.00,0.0015
1740.00,0.0015
1739.00,0.0015
1738.00,0.0015
1737.00,0.0014
1736.00,0.0014
1735.00,0.0014
1734.00,0.0015
1733.00,0.0015
1732.00,0.0015
1731.00,0.0015
1730.00,0.0016
1729.00,0.0016
1728.00,0.0017
1727.00,0.0017
1726.00,0.0017
1725.00,0.0017
1724.00,0.0017
1723.00,0.0017
1722.00,0.0017
1721.00,0.0017
1720.00,0.0018
1719.00,0.0018
1718.00,0.0018
1717.00,0.0019
1716.00,0.0019
1715.00,0.0019
1714.00,0.0019
1713.00,0.0019
1712.00,0.0019
1711.00,0.0020
1710.00,0.0020
1709.00,0.0020
1708.00,0.0020
1707.00,0.0021
1706.00,0.0021
1705.00,0.0021
1704.00,0.0022
1703.00,0.0022
1702.00,0.0022
1701.00,0.0022
1700.00,0.0022
1699.00,0.0022
1698.00,0.0022
1697.00,0.0022
1696.00,0.0023
1695.00,0.0023
1694.00,0.0023
1693.00,0.0023
1692.00,0.0023
1691.00,0.0024
1690.00,0.0024
1689.00,0.0024
1688.00,0.0025
1687.00,0.0025
1686.00,0.0026
1685.00,0.0026
1684.00,0.0027
1683.00,0.0028
1682.00,0.0028
1681.00,0.0029
1680.00,0.0029
1679.00,0.0030
1678.00,0.0031
1677.00,0.0032
1676.00,0.0033
1675.00,0.0034
1674.00,0.0035
1673.00,0.0036
1672.00,0.0038
1671.00,0.0040
1670.00,0.0042
1669.00,0.0044
1668.00,0.0046
1667.00,0.0048
1666.00,0.0050
1665.00,0.0052
1664.00,0.0055
1663.00,0.0058
1662.00,0.0060
1661.00,0.0064
1660.00,0.0067
1659.00,0.0071
1658.00,0.0076
1657.00,0.0081
1656.00,0.0087
1655.00,0.0094
1654.00,0.0100
1653.00,0.0106
1652.00,0.0113
1651.00,0.0121
1650.00,0.0132
1649.00,0.0144
1648.00,0.0158
1647.00,0.0174
1646.00,0.0192
1645.00,0.0211
1644.00,0.0232
1643.00,0.0254
1642.00,0.0275
1641.00,0.0294
1640.00,0.0313
1639.00,0.0331
1638.00,0.0349
1637.00,0.0364
1636.00,0.0374
1635.00,0.0381
1634.00,0.0386
1633.00,0.0393
1632.00,0.0398
1631.00,0.0399
1630.00,0.0394
1629.00,0.0381
1628.00,0.0363
1627.00,0.0343
1626.00,0.0325
1625.00,0.0308
1624.00,0.0288
1623.00,0.0267
1622.00,0.0248
1621.00,0.0234
1620.00,0.0226
1619.00,0.0219
1618.00,0.0209
1617.00,0.0196
1616.00,0.0182
1615.00,0.0172
1614.00,0.0166
1613.00,0.0163
1612.00,0.0159
1611.00,0.0155
1610.00,0.0151
1609.00,0.0148
1608.00,0.0145
1607.00,0.0143
1606.00,0.0141
1605.00,0.0141
1604.00,0.0141
1603.00,0.0142
1602.00,0.0143
1601.00,0.0146
1600.00,0.0150
1599.00,0.0155
1598.00,0.0161
1597.00,0.0169
1596.00,0.0180
1595.00,0.0192
1594.00,0.0207
1593.00,0.0224
1592.00,0.0243
1591.00,0.0263
1590.00,0.0284
1589.00,0.0303
1588.00,0.0322
1587.00,0.0338
1586.00,0.0353
1585.00,0.0366
1584.00,0.0379
1583.00,0.0390
1582.00,0.0400
1581.00,0.0410
1580.00,0.0420
1579.00,0.0431
1578.00,0.0438
1577.00,0.0439
1576.00,0.0432
1575.00,0.0425
1574.00,0.0424
1573.00,0.0427
1572.00,0.0431
1571.00,0.0430
1570.00,0.0420
1569.00,0.0406
1568.00,0.0396
1567.00,0.0389
1566.00,0.0382
1565.00,0.0374
1564.00,0.0364
1563.00,0.0358
1562.00,0.0356
1561.00,0.0353
1560.00,0.0338
1559.00,0.0307
1558.00,0.0276
1557.00,0.0259
1556.00,0.0252
1555.00,0.0246
1554.00,0.0237
1553.00,0.0227
1552.00,0.0219
1551.00,0.0211
1550.00,0.0203
1549.00,0.0194
1548.00,0.0187
1547.00,0.0182
1546.00,0.0178
1545.00,0.0172
1544.00,0.0168
1543.00,0.0164
1542.00,0.0159
1541.00,0.0153
1540.00,0.0145
1539.00,0.0138
1538.00,0.0135
1537.00,0.0135
1536.00,0.0137
1535.00,0.0138
1534.00,0.0137
1533.00,0.0136
1532.00,0.0136
1531.00,0.0138
1530.00,0.0141
1529.00,0.0145
1528.00,0.0149
1527.00,0.0152
1526.00,0.0153
1525.00,0.0154
1524.00,0.0155
1523.00,0.0154
1522.00,0.0149
1521.00,0.0141
1520.00,0.0133
1519.00,0.0127
1518.00,0.0121
1517.00,0.0115
1516.00,0.0108
1515.00,0.0102
1514.00,0.0099
1513.00,0.0096
1512.00,0.0093
1511.00,0.0091
1510.00,0.0090
1509.00,0.0090
1508.00,0.0088
1507.00,0.0085
1506.00,0.0080
1505.00,0.0077
1504.00,0.0075
1503.00,0.0075
1502.00,0.0075
1501.00,0.0074
1500.00,0.0073
1499.00,0.0072
1498.00,0.0071
1497.00,0.0069
1496.00,0.0068
1495.00,0.0067
1494.00,0.0066
1493.00,0.0066
1492.00,0.0066
1491.00,0.0066
1490.00,0.0066
1489.00,0.0065
1488.00,0.0065
1487.00,0.0066
1486.00,0.0066
1485.00,0.0067
1484.00,0.0068
1483.00,0.0070
1482.00,0.0072
1481.00,0.0075
1480.00,0.0078
1479.00,0.0081
1478.00,0.0085
1477.00,0.0090
1476.00,0.0095
1475.00,0.0100
1474.00,0.0105
1473.00,0.0111
1472.00,0.0119
1471.00,0.0129
1470.00,0.0138
1469.00,0.0147
1468.00,0.0153
1467.00,0.0156
1466.00,0.0155
1465.00,0.0153
1464.00,0.0152
1463.00,0.0156
1462.00,0.0163
1461.00,0.0174
1460.00,0.0188
1459.00,0.0202
1458.00,0.0217
1457.00,0.0232
1456.00,0.0247
1455.00,0.0264
1454.00,0.0283
1453.00,0.0305
1452.00,0.0328
1451.00,0.0351
1450.00,0.0374
1449.00,0.0393
1448.00,0.0409
1447.00,0.0421
1446.00,0.0430
1445.00,0.0438
1444.00,0.0442
1443.00,0.0440
1442.00,0.0433
1441.00,0.0423
1440.00,0.0412
1439.00,0.0399
1438.00,0.0384
1437.00,0.0363
1436.00,0.0341
1435.00,0.0324
1434.00,0.0314
1433.00,0.0307
1432.00,0.0297
1431.00,0.0285
1430.00,0.0270
1429.00,0.0256
1428.00,0.0243
1427.00,0.0233
1426.00,0.0225
1425.00,0.0218
1424.00,0.0210
1423.00,0.0205
1422.00,0.0202
1421.00,0.0200
1420.00,0.0197
1419.00,0.0194
1418.00,0.0191
1417.00,0.0190
1416.00,0.0191
1415.00,0.0192
1414.00,0.0193
1413.00,0.0195
1412.00,0.0196
1411.00,0.0197
1410.00,0.0198
1409.00,0.0200
1408.00,0.0202
1407.00,0.0204
1406.00,0.0206
1405.00,0.0207
1404.00,0.0208
1403.00,0.0209
1402.00,0.0211
1401.00,0.0212
1400.00,0.0212
1399.00,0.0211
1398.00,0.0209
1397.00,0.0207
1396.00,0.0204
1395.00,0.0201
1394.00,0.0196
1393.00,0.0192
1392.00,0.0188
1391.00,0.0186
1390.00,0.0184
1389.00,0.0182
1388.00,0.0179
1387.00,0.0176
1386.00,0.0174
1385.00,0.0175
1384.00,0.0178
1383.00,0.0184
1382.00,0.0193
1381.00,0.0205
1380.00,0.0217
1379.00,0.0228
1378.00,0.0236
1377.00,0.0240
1376.00,0.0240
1375.00,0.0236
1374.00,0.0228
1373.00,0.0220
1372.00,0.0214
1371.00,0.0212
1370.00,0.0214
1369.00,0.0217
1368.00,0.0220
1367.00,0.0222
1366.00,0.0222
1365.00,0.0221
1364.00,0.0217
1363.00,0.0212
1362.00,0.0208
1361.00,0.0206
1360.00,0.0206
1359.00,0.0208
1358.00,0.0212
1357.00,0.0217
1356.00,0.0225
1355.00,0.0234
1354.00,0.0244
1353.00,0.0253
1352.00,0.0261
1351.00,0.0268
1350.00,0.0272
1349.00,0.0272
1348.00,0.0270
1347.00,0.0265
1346.00,0.0258
1345.00,0.0250
1344.00,0.0243
1343.00,0.0238
1342.00,0.0235
1341.00,0.0234
1340.00,0.0235
1339.00,0.0238
1338.00,0.0242
1337.00,0.0246
1336.00,0.0249
1335.00,0.0249
1334.00,0.0246
1333.00,0.0240
1332.00,0.0232
1331.00,0.0225
1330.00,0.0221
1329.00,0.0220
1328.00,0.0224
1327.00,0.0230
1326.00,0.0240
1325.00,0.0253
1324.00,0.0268
1323.00,0.0285
1322.00,0.0302
1321.00,0.0318
1320.00,0.0330
1319.00,0.0335
1318.00,0.0331
1317.00,0.0321
1316.00,0.0306
1315.00,0.0288
1314.00,0.0269
1313.00,0.0253
1312.00,0.0238
1311.00,0.0228
1310.00,0.0220
1309.00,0.0217
1308.00,0.0217
1307.00,0.0219
1306.00,0.0222
1305.00,0.0224
1304.00,0.0223
1303.00,0.0220
1302.00,0.0215
1301.00,0.0209
1300.00,0.0205
1299.00,0.0201
1298.00,0.0200
1297.00,0.0200
1296.00,0.0202
1295.00,0.0204
1294.00,0.0206
1293.00,0.0211
1292.00,0.0217
1291.00,0.0225
1290.00,0.0235
1289.00,0.0245
1288.00,0.0254
1287.00,0.0263
1286.00,0.0271
1285.00,0.0279
1284.00,0.0289
1283.00,0.0298
1282.00,0.0306
1281.00,0.0312
1280.00,0.0312
1279.00,0.0307
1278.00,0.0296
1277.00,0.0281
1276.00,0.0263
1275.00,0.0245
1274.00,0.0227
1273.00,0.0211
1272.00,0.0196
1271.00,0.0183
1270.00,0.0171
1269.00,0.0162
1268.00,0.0153
1267.00,0.0145
1266.00,0.0139
1265.00,0.0134
1264.00,0.0129
1263.00,0.0126
1262.00,0.0124
1261.00,0.0124
1260.00,0.0124
1259.00,0.0127
1258.00,0.0132
1257.00,0.0139
1256.00,0.0148
1255.00,0.0159
1254.00,0.0169
1253.00,0.0178
1252.00,0.0184
1251.00,0.0188
1250.00,0.0192
1249.00,0.0199
1248.00,0.0208
1247.00,0.0220
1246.00,0.0232
1245.00,0.0242
1244.00,0.0248
1243.00,0.0247
1242.00,0.0241
1241.00,0.0229
1240.00,0.0214
1239.00,0.0199
1238.00,0.0184
1237.00,0.0172
1236.00,0.0161
1235.00,0.0154
1234.00,0.0149
1233.00,0.0148
1232.00,0.0150
1231.00,0.0155
1230.00,0.0160
1229.00,0.0164
1228.00,0.0166
1227.00,0.0164
1226.00,0.0159
1225.00,0.0153
1224.00,0.0147
1223.00,0.0145
1222.00,0.0145
1221.00,0.0149
1220.00,0.0153
1219.00,0.0156
1218.00,0.0157
1217.00,0.0154
1216.00,0.0149
1215.00,0.0143
1214.00,0.0138
1213.00,0.0138
1212.00,0.0141
1211.00,0.0151
1210.00,0.0167
1209.00,0.0189
1208.00,0.0213
1207.00,0.0236
1206.00,0.0252
1205.00,0.0257
1204.00,0.0249
1203.00,0.0233
1202.00,0.0211
1201.00,0.0189
1200.00,0.0168
1199.00,0.0150
1198.00,0.0136
1197.00,0.0125
1196.00,0.0117
1195.00,0.0112
1194.00,0.0109
1193.00,0.0109
1192.00,0.0110
1191.00,0.0111
1190.00,0.0113
1189.00,0.0114
1188.00,0.0113
1187.00,0.0112
1186.00,0.0111
1185.00,0.0110
1184.00,0.0109
1183.00,0.0109
1182.00,0.0111
1181.00,0.0115
1180.00,0.0123
1179.00,0.0134
1178.00,0.0148
1177.00,0.0165
1176.00,0.0183
1175.00,0.0201
1174.00,0.0219
1173.00,0.0234
1172.00,0.0243
1171.00,0.0245
1170.00,0.0238
1169.00,0.0224
1168.00,0.0206
1167.00,0.0187
1166.00,0.0170
1165.00,0.0154
1164.00,0.0141
1163.00,0.0131
1162.00,0.0123
1161.00,0.0117
1160.00,0.0114
1159.00,0.0111
1158.00,0.0110
1157.00,0.0111
1156.00,0.0112
1155.00,0.0116
1154.00,0.0123
1153.00,0.0135
1152.00,0.0152
1151.00,0.0173
1150.00,0.0193
1149.00,0.0206
1148.00,0.0205
1147.00,0.0191
1146.00,0.0168
1145.00,0.0142
1144.00,0.0119
1143.00,0.0102
1142.00,0.0090
1141.00,0.0083
1140.00,0.0078
1139.00,0.0076
1138.00,0.0075
1137.00,0.0074
1136.00,0.0073
1135.00,0.0071
1134.00,0.0069
1133.00,0.0066
1132.00,0.0063
1131.00,0.0060
1130.00,0.0057
1129.00,0.0055
1128.00,0.0053
1127.00,0.0051
1126.00,0.0050
1125.00,0.0049
1124.00,0.0048
1123.00,0.0047
1122.00,0.0047
1121.00,0.0047
1120.00,0.0046
1119.00,0.0046
1118.00,0.0047
1117.00,0.0047
1116.00,0.0048
1115.00,0.0049
1114.00,0.0050
1113.00,0.0051
1112.00,0.0053
1111.00,0.0055
1110.00,0.0058
1109.00,0.0061
1108.00,0.0064
1107.00,0.0067
1106.00,0.0070
1105.00,0.0074
1104.00,0.0078
1103.00,0.0082
1102.00,0.0087
1101.00,0.0091
1100.00,0.0093
1099.00,0.0093
1098.00,0.0091
1097.00,0.0087
1096.00,0.0083
1095.00,0.0078
1094.00,0.0074
1093.00,0.0071
1092.00,0.0068
1091.00,0.0066
1090.00,0.0064
1089.00,0.0063
1088.00,0.0062
1087.00,0.0062
1086.00,0.0062
1085.00,0.0063
1084.00,0.0065
1083.00,0.0065
1082.00,0.0066
1081.00,0.0067
1080.00,0.0066
1079.00,0.0065
1078.00,0.0064
1077.00,0.0062
1076.00,0.0060
1075.00,0.0058
1074.00,0.0057
1073.00,0.0056
1072.00,0.0056
1071.00,0.0056
1070.00,0.0056
1069.00,0.0057
1068.00,0.0060
1067.00,0.0063
1066.00,0.0068
1065.00,0.0074
1064.00,0.0081
1063.00,0.0090
1062.00,0.0101
1061.00,0.0114
1060.00,0.0129
1059.00,0.0147
1058.00,0.0168
1057.00,0.0192
1056.00,0.0216
1055.00,0.0237
1054.00,0.0249
1053.00,0.0248
1052.00,0.0235
1051.00,0.0215
1050.00,0.0192
1049.00,0.0173
1048.00,0.0159
1047.00,0.0151
1046.00,0.0148
1045.00,0.0150
1044.00,0.0154
1043.00,0.0161
1042.00,0.0171
1041.00,0.0183
1040.00,0.0197
1039.00,0.0215
1038.00,0.0235
1037.00,0.0257
1036.00,0.0279
1035.00,0.0299
1034.00,0.0313
1033.00,0.0321
1032.00,0.0322
1031.00,0.0316
1030.00,0.0303
1029.00,0.0286
1028.00,0.0264
1027.00,0.0241
1026.00,0.0217
1025.00,0.0195
1024.00,0.0177
1023.00,0.0162
1022.00,0.0151
1021.00,0.0142
1020.00,0.0134
1019.00,0.0127
1018.00,0.0121
1017.00,0.0115
1016.00,0.0111
1015.00,0.0106
1014.00,0.0103
1013.00,0.0101
1012.00,0.0099
1011.00,0.0097
1010.00,0.0095
1009.00,0.0093
1008.00,0.0091
1007.00,0.0088
1006.00,0.0085
1005.00,0.0084
1004.00,0.0085
1003.00,0.0089
1002.00,0.0095
1001.00,0.0104
1000.00,0.0112
999.00,0.0116
998.00,0.0115
997.00,0.0109
996.00,0.0101
995.00,0.0093
994.00,0.0087
993.00,0.0083
992.00,0.0081
991.00,0.0081
990.00,0.0082
989.00,0.0083
988.00,0.0084
987.00,0.0085
986.00,0.0085
985.00,0.0085
984.00,0.0084
983.00,0.0082
982.00,0.0079
981.00,0.0076
980.00,0.0073
979.00,0.0070
978.00,0.0068
977.00,0.0067
976.00,0.0066
975.00,0.0065
974.00,0.0065
973.00,0.0066
972.00,0.0067
971.00,0.0068
970.00,0.0069
969.00,0.0070
968.00,0.0072
967.00,0.0074
966.00,0.0076
965.00,0.0081
964.00,0.0087
963.00,0.0093
962.00,0.0100
961.00,0.0105
960.00,0.0108
959.00,0.0110
958.00,0.0110
957.00,0.0108
956.00,0.0106
955.00,0.0103
954.00,0.0100
953.00,0.0098
952.00,0.0095
951.00,0.0094
950.00,0.0093
949.00,0.0092
948.00,0.0092
947.00,0.0092
946.00,0.0092
945.00,0.0093
944.00,0.0094
943.00,0.0095
942.00,0.0096
941.00,0.0095
940.00,0.0094
939.00,0.0091
938.00,0.0088
937.00,0.0085
936.00,0.0082
935.00,0.0080
934.00,0.0079
933.00,0.0080
932.00,0.0081
931.00,0.0083
930.00,0.0085
929.00,0.0088
928.00,0.0091
927.00,0.0094
926.00,0.0096
925.00,0.0099
924.00,0.0102
923.00,0.0105
922.00,0.0108
921.00,0.0113
920.00,0.0119
919.00,0.0124
918.00,0.0130
917.00,0.0135
916.00,0.0139
915.00,0.0142
914.00,0.0143
913.00,0.0140
912.00,0.0135
911.00,0.0129
910.00,0.0123
909.00,0.0119
908.00,0.0118
907.00,0.0120
906.00,0.0125
905.00,0.0132
904.00,0.0140
903.00,0.0146
902.00,0.0150
901.00,0.0151
900.00,0.0150
899.00,0.0146
898.00,0.0141
897.00,0.0139
896.00,0.0140
895.00,0.0147
894.00,0.0162
893.00,0.0190
892.00,0.0228
891.00,0.0269
890.00,0.0301
889.00,0.0314
888.00,0.0311
887.00,0.0301
886.00,0.0293
885.00,0.0291
884.00,0.0287
883.00,0.0276
882.00,0.0257
881.00,0.0234
880.00,0.0213
879.00,0.0195
878.00,0.0182
877.00,0.0173
876.00,0.0166
875.00,0.0162
874.00,0.0159
873.00,0.0157
872.00,0.0157
871.00,0.0159
870.00,0.0161
869.00,0.0166
868.00,0.0173
867.00,0.0184
866.00,0.0198
865.00,0.0217
864.00,0.0238
863.00,0.0259
862.00,0.0276
861.00,0.0286
860.00,0.0289
859.00,0.0289
858.00,0.0288
857.00,0.0287
856.00,0.0285
855.00,0.0280
854.00,0.0271
853.00,0.0259
852.00,0.0247
851.00,0.0236
850.00,0.0228
849.00,0.0225
848.00,0.0224
847.00,0.0226
846.00,0.0230
845.00,0.0235
844.00,0.0240
843.00,0.0243
842.00,0.0244
841.00,0.0244
840.00,0.0244
839.00,0.0243
838.00,0.0240
837.00,0.0232
836.00,0.0220
835.00,0.0207
834.00,0.0195
833.00,0.0186
832.00,0.0180
831.00,0.0177
830.00,0.0177
829.00,0.0178
828.00,0.0177
827.00,0.0172
826.00,0.0164
825.00,0.0154
824.00,0.0143
823.00,0.0133
822.00,0.0126
821.00,0.0121
820.00,0.0116
819.00,0.0113
818.00,0.0109
817.00,0.0107
816.00,0.0106
815.00,0.0105
814.00,0.0106
813.00,0.0108
812.00,0.0111
811.00,0.0115
810.00,0.0120
809.00,0.0127
808.00,0.0138
807.00,0.0152
806.00,0.0167
805.00,0.0179
804.00,0.0186
803.00,0.0186
802.00,0.0183
801.00,0.0178
800.00,0.0176
799.00,0.0177
798.00,0.0181
797.00,0.0188
796.00,0.0194
795.00,0.0197
794.00,0.0195
793.00,0.0188
792.00,0.0178
791.00,0.0166
790.00,0.0155
789.00,0.0145
788.00,0.0138
787.00,0.0133
786.00,0.0129
785.00,0.0126
784.00,0.0124
783.00,0.0122
782.00,0.0120
781.00,0.0119
780.00,0.0119
779.00,0.0119
778.00,0.0120
777.00,0.0121
776.00,0.0123
775.00,0.0125
774.00,0.0128
773.00,0.0131
772.00,0.0134
771.00,0.0136
770.00,0.0137
769.00,0.0137
768.00,0.0136
767.00,0.0135
766.00,0.0133
765.00,0.0130
764.00,0.0127
763.00,0.0125
762.00,0.0123
761.00,0.0121
760.00,0.0120
759.00,0.0118
758.00,0.0117
757.00,0.0117
756.00,0.0117
755.00,0.0116
754.00,0.0115
753.00,0.0112
752.00,0.0108
751.00,0.0103
750.00,0.0098
749.00,0.0095
748.00,0.0093
747.00,0.0093
746.00,0.0094
745.00,0.0096
744.00,0.0098
743.00,0.0100
742.00,0.0103
741.00,0.0106
740.00,0.0110
739.00,0.0115
738.00,0.0120
737.00,0.0128
736.00,0.0136
735.00,0.0145
734.00,0.0153
733.00,0.0158
732.00,0.0157
731.00,0.0152
730.00,0.0143
729.00,0.0134
728.00,0.0126
727.00,0.0120
726.00,0.0115
725.00,0.0111
724.00,0.0109
723.00,0.0107
722.00,0.0105
721.00,0.0105
720.00,0.0105
719.00,0.0105
718.00,0.0105
717.00,0.0104
716.00,0.0104
715.00,0.0104
714.00,0.0105
713.00,0.0105
712.00,0.0105
711.00,0.0105
710.00,0.0104
709.00,0.0103
708.00,0.0102
707.00,0.0102
706.00,0.0101
705.00,0.0101
704.00,0.0101
703.00,0.0101
702.00,0.0101
701.00,0.0101
700.00,0.0102
699.00,0.0102
698.00,0.0102
697.00,0.0103
696.00,0.0103
695.00,0.0104
694.00,0.0105
693.00,0.0107
692.00,0.0109
691.00,0.0111
690.00,0.0114
689.00,0.0117
688.00,0.0120
687.00,0.0123
686.00,0.0127
685.00,0.0130
684.00,0.0134
683.00,0.0137
682.00,0.0141
681.00,0.0145
680.00,0.0148
679.00,0.0150
678.00,0.0150
677.00,0.0149
676.00,0.0147
675.00,0.0145
674.00,0.0144
673.00,0.0145
672.00,0.0146
671.00,0.0146
670.00,0.0146
669.00,0.0142
668.00,0.0135
667.00,0.0126
666.00,0.0118
665.00,0.0113
664.00,0.0108
663.00,0.0104
662.00,0.0101
661.00,0.0099
660.00,0.0098
659.00,0.0097
658.00,0.0095
657.00,0.0095
656.00,0.0094
655.00,0.0095
654.00,0.0096
653.00,0.0099
652.00,0.0101
651.00,0.0102
650.00,0.0102
649.00,0.0101
648.00,0.0099
647.00,0.0097
646.00,0.0095
645.00,0.0094
644.00,0.0094
643.00,0.0094
642.00,0.0095
641.00,0.0096
640.00,0.0097
639.00,0.0099
638.00,0.0101
637.00,0.0103
636.00,0.0104
635.00,0.0105
634.00,0.0105
633.00,0.0106
632.00,0.0106
631.00,0.0105
630.00,0.0104
629.00,0.0102
628.00,0.0100
627.00,0.0098
626.00,0.0096
625.00,0.0094
624.00,0.0092
623.00,0.0090
622.00,0.0090
621.00,0.0091
620.00,0.0093
619.00,0.0095
618.00,0.0099
617.00,0.0104
616.00,0.0108
615.00,0.0111
614.00,0.0111
613.00,0.0110
612.00,0.0109
611.00,0.0108
610.00,0.0106
609.00,0.0105
608.00,0.0103
607.00,0.0101
606.00,0.0100
605.00,0.0099
604.00,0.0098
603.00,0.0097
602.00,0.0096
601.00,0.0095
600.00,0.0094
599.00,0.0093
598.00,0.0094
597.00,0.0095
596.00,0.0096
595.00,0.0098
594.00,0.0099
593.00,0.0099
592.00,0.0099
591.00,0.0098
590.00,0.0097
589.00,0.0096
588.00,0.0095
587.00,0.0095
586.00,0.0096
585.00,0.0099
584.00,0.0105
583.00,0.0115
582.00,0.0130
581.00,0.0148
580.00,0.0167
579.00,0.0179
578.00,0.0180
577.00,0.0169
576.00,0.0150
575.00,0.0129
574.00,0.0110
573.00,0.0097
572.00,0.0087
571.00,0.0081
570.00,0.0077
569.00,0.0075
568.00,0.0073
567.00,0.0071
566.00,0.0070
565.00,0.0070
564.00,0.0072
563.00,0.0074
562.00,0.0078
561.00,0.0081
560.00,0.0085
559.00,0.0090
558.00,0.0097
557.00,0.0109
556.00,0.0125
555.00,0.0145
554.00,0.0165
553.00,0.0181
552.00,0.0189
551.00,0.0185
550.00,0.0172
549.00,0.0155
548.00,0.0141
547.00,0.0131
546.00,0.0126
545.00,0.0123
544.00,0.0122
543.00,0.0122
542.00,0.0124
541.00,0.0129
540.00,0.0136
539.00,0.0147
538.00,0.0161
537.00,0.0174
536.00,0.0185
535.00,0.0188
534.00,0.0183
533.00,0.0170
532.00,0.0154
531.00,0.0140
530.00,0.0132
529.00,0.0133
528.00,0.0142
527.00,0.0153
526.00,0.0160
525.00,0.0161
524.00,0.0158
523.00,0.0154
522.00,0.0149
521.00,0.0142
520.00,0.0131
519.00,0.0117
518.00,0.0105
517.00,0.0097
516.00,0.0093
515.00,0.0093
514.00,0.0094
513.00,0.0097
512.00,0.0101
511.00,0.0104
510.00,0.0109
509.00,0.0114
508.00,0.0119
507.00,0.0125
506.00,0.0131
505.00,0.0139
504.00,0.0149
503.00,0.0159
502.00,0.0170
501.00,0.0180
500.00,0.0190
499.00,0.0201
498.00,0.0213
497.00,0.0225
496.00,0.0237
495.00,0.0248
494.00,0.0258
493.00,0.0268
492.00,0.0276
491.00,0.0282
490.00,0.0287
489.00,0.0290
488.00,0.0293
487.00,0.0293
486.00,0.0293
485.00,0.0291
484.00,0.0290
483.00,0.0290
482.00,0.0290
481.00,0.0291
480.00,0.0293
479.00,0.0295
478.00,0.0295
477.00,0.0295
476.00,0.0293
475.00,0.0292
474.00,0.0292
473.00,0.0293
472.00,0.0291
471.00,0.0287
470.00,0.0282
469.00,0.0278
468.00,0.0276
467.00,0.0276
466.00,0.0277
465.00,0.0276
464.00,0.0273
463.00,0.0265
462.00,0.0255
461.00,0.0245
460.00,0.0235
459.00,0.0225
458.00,0.0216
457.00,0.0209
456.00,0.0204
455.00,0.0200
454.00,0.0197
453.00,0.0195
452.00,0.0193
451.00,0.0193
450.00,0.0194
449.00,0.0194
448.00,0.0192
447.00,0.0189
446.00,0.0185
445.00,0.0183
444.00,0.0182
443.00,0.0180
442.00,0.0177
441.00,0.0175
440.00,0.0173
439.00,0.0172
438.00,0.0170
437.00,0.0167
436.00,0.0164
435.00,0.0163
434.00,0.0160
433.00,0.0156
432.00,0.0151
431.00,0.0144
430.00,0.0137
429.00,0.0129
428.00,0.0124
427.00,0.0121
426.00,0.0120
425.00,0.0120
424.00,0.0120
423.00,0.0119
422.00,0.0119
421.00,0.0119
420.00,0.0117
419.00,0.0114
418.00,0.0112
417.00,0.0113
416.00,0.0115
415.00,0.0116
414.00,0.0117
413.00,0.0115
412.00,0.0110
411.00,0.0103
410.00,0.0098
409.00,0.0098
408.00,0.0101
407.00,0.0104
406.00,0.0106
405.00,0.0110
404.00,0.0114
403.00,0.0115
402.00,0.0111
401.00,0.0107
400.00,0.0107
