Created as New Dataset,Sample 010 By YargerLab Date Wednesday, August 06 2025
cm-1,A
4000.00,0.0023
3999.00,0.0023
3998.00,0.0023
3997.00,0.0023
3996.00,0.0023
3995.00,0.0023
3994.00,0.0023
3993.00,0.0023
3992.00,0.0024
3991.00,0.0024
3990.00,0.0023
3989.00,0.0023
3988.00,0.0023
3987.00,0.0023
3986.00,0.0023
3985.00,0.0023
3984.00,0.0023
3983.00,0.0023
3982.00,0.0023
3981.00,0.0023
3980.00,0.0023
3979.00,0.0023
3978.00,0.0023
3977.00,0.0023
3976.00,0.0023
3975.00,0.0023
3974.00,0.0023
3973.00,0.0023
3972.00,0.0023
3971.00,0.0023
3970.00,0.0023
3969.00,0.0023
3968.00,0.0023
3967.00,0.0023
3966.00,0.0023
3965.00,0.0023
3964.00,0.0023
3963.00,0.0023
3962.00,0.0023
3961.00,0.0023
3960.00,0.0023
3959.00,0.0023
3958.00,0.0023
3957.00,0.0023
3956.00,0.0023
3955.00,0.0023
3954.00,0.0023
3953.00,0.0023
3952.00,0.0024
3951.00,0.0024
3950.00,0.0024
3949.00,0.0024
3948.00,0.0023
3947.00,0.0023
3946.00,0.0023
3945.00,0.0023
3944.00,0.0023
3943.00,0.0023
3942.00,0.0023
3941.00,0.0023
3940.00,0.0023
3939.00,0.0023
3938.00,0.0023
3937.00,0.0024
3936.00,0.0024
3935.00,0.0024
3934.00,0.0024
3933.00,0.0023
3932.00,0.0023
3931.00,0.0023
3930.00,0.0023
3929.00,0.0023
3928.00,0.0023
3927.00,0.0023
3926.00,0.0024
3925.00,0.0024
3924.00,0.0024
3923.00,0.0024
3922.00,0.0024
3921.00,0.0023
3920.00,0.0023
3919.00,0.0023
3918.00,0.0023
3917.00,0.0023
3916.00,0.0023
3915.00,0.0023
3914.00,0.0023
3913.00,0.0023
3912.00,0.0023
3911.00,0.0023
3910.00,0.0023
3909.00,0.0023
3908.00,0.0024
3907.00,0.0024
3906.00,0.0024
3905.00,0.0024
3904.00,0.0024
3903.00,0.0024
3902.00,0.0024
3901.00,0.0023
3900.00,0.0023
3899.00,0.0023
3898.00,0.0023
3897.00,0.0023
3896.00,0.0023
3895.00,0.0023
3894.00,0.0023
3893.00,0.0023
3892.00,0.0023
3891.00,0.0023
3890.00,0.0023
3889.00,0.0023
3888.00,0.0023
3887.00,0.0023
3886.00,0.0024
3885.00,0.0024
3884.00,0.0023
3883.00,0.0023
3882.00,0.0022
3881.00,0.0022
3880.00,0.0023
3879.00,0.0023
3878.00,0.0023
3877.00,0.0023
3876.00,0.0023
3875.00,0.0023
3874.00,0.0023
3873.00,0.0023
3872.00,0.0023
3871.00,0.0023
3870.00,0.0023
3869.00,0.0023
3868.00,0.0022
3867.00,0.0022
3866.00,0.0022
3865.00,0.0022
3864.00,0.0022
3863.00,0.0023
3862.00,0.0023
3861.00,0.0023
3860.00,0.0023
3859.00,0.0023
3858.00,0.0023
3857.00,0.0023
3856.00,0.0023
3855.00,0.0023
3854.00,0.0023
3853.00,0.0023
3852.00,0.0022
3851.00,0.0022
3850.00,0.0022
3849.00,0.0022
3848.00,0.0023
3847.00,0.0023
3846.00,0.0023
3845.00,0.0023
3844.00,0.0023
3843.00,0.0023
3842.00,0.0023
3841.00,0.0023
3840.00,0.0023
3839.00,0.0023
3838.00,0.0023
3837.00,0.0023
3836.00,0.0023
3835.00,0.0023
3834.00,0.0023
3833.00,0.0023
3832.00,0.0022
3831.00,0.0022
3830.00,0.0022
3829.00,0.0022
3828.00,0.0022
3827.00,0.0023
3826.00,0.0023
3825.00,0.0024
3824.00,0.0024
3823.00,0.0024
3822.00,0.0024
3821.00,0.0024
3820.00,0.0023
3819.00,0.0022
3818.00,0.0022
3817.00,0.0022
3816.00,0.0022
3815.00,0.0023
3814.00,0.0023
3813.00,0.0023
3812.00,0.0023
3811.00,0.0023
3810.00,0.0024
3809.00,0.0024
3808.00,0.0024
3807.00,0.0024
3806.00,0.0024
3805.00,0.0023
3804.00,0.0022
3803.00,0.0022
3802.00,0.0022
3801.00,0.0022
3800.00,0.0023
3799.00,0.0023
3798.00,0.0022
3797.00,0.0023
3796.00,0.0023
3795.00,0.0023
3794.00,0.0023
3793.00,0.0023
3792.00,0.0023
3791.00,0.0023
3790.00,0.0023
3789.00,0.0023
3788.00,0.0024
3787.00,0.0024
3786.00,0.0024
3785.00,0.0023
3784.00,0.0023
3783.00,0.0023
3782.00,0.0023
3781.00,0.0023
3780.00,0.0023
3779.00,0.0023
3778.00,0.0023
3777.00,0.0023
3776.00,0.0023
3775.00,0.0023
3774.00,0.0024
3773.00,0.0024
3772.00,0.0024
3771.00,0.0024
3770.00,0.0024
3769.00,0.0024
3768.00,0.0024
3767.00,0.0024
3766.00,0.0023
3765.00,0.0023
3764.00,0.0023
3763.00,0.0024
3762.00,0.0024
3761.00,0.0024
3760.00,0.0024
3759.00,0.0024
3758.00,0.0024
3757.00,0.0023
3756.00,0.0023
3755.00,0.0023
3754.00,0.0023
3753.00,0.0023
3752.00,0.0023
3751.00,0.0023
3750.00,0.0023
3749.00,0.0023
3748.00,0.0023
3747.00,0.0023
3746.00,0.0022
3745.00,0.0023
3744.00,0.0023
3743.00,0.0023
3742.00,0.0023
3741.00,0.0023
3740.00,0.0023
3739.00,0.0024
3738.00,0.0023
3737.00,0.0023
3736.00,0.0022
3735.00,0.0022
3734.00,0.0021
3733.00,0.0021
3732.00,0.0021
3731.00,0.0022
3730.00,0.0022
3729.00,0.0022
3728.00,0.0023
3727.00,0.0023
3726.00,0.0024
3725.00,0.0024
3724.00,0.0023
3723.00,0.0023
3722.00,0.0023
3721.00,0.0023
3720.00,0.0023
3719.00,0.0023
3718.00,0.0023
3717.00,0.0023
3716.00,0.0023
3715.00,0.0023
3714.00,0.0022
3713.00,0.0022
3712.00,0.0022
3711.00,0.0022
3710.00,0.0022
3709.00,0.0022
3708.00,0.0022
3707.00,0.0022
3706.00,0.0022
3705.00,0.0022
3704.00,0.0022
3703.00,0.0022
3702.00,0.0023
3701.00,0.0023
3700.00,0.0023
3699.00,0.0022
3698.00,0.0022
3697.00,0.0023
3696.00,0.0023
3695.00,0.0022
3694.00,0.0022
3693.00,0.0022
3692.00,0.0022
3691.00,0.0022
3690.00,0.0022
3689.00,0.0022
3688.00,0.0022
3687.00,0.0022
3686.00,0.0022
3685.00,0.0022
3684.00,0.0022
3683.00,0.0023
3682.00,0.0023
3681.00,0.0023
3680.00,0.0023
3679.00,0.0023
3678.00,0.0023
3677.00,0.0023
3676.00,0.0023
3675.00,0.0023
3674.00,0.0023
3673.00,0.0022
3672.00,0.0021
3671.00,0.0021
3670.00,0.0021
3669.00,0.0021
3668.00,0.0021
3667.00,0.0021
3666.00,0.0021
3665.00,0.0021
3664.00,0.0022
3663.00,0.0022
3662.00,0.0022
3661.00,0.0022
3660.00,0.0022
3659.00,0.0022
3658.00,0.0022
3657.00,0.0022
3656.00,0.0022
3655.00,0.0023
3654.00,0.0023
3653.00,0.0023
3652.00,0.0023
3651.00,0.0023
3650.00,0.0023
3649.00,0.0023
3648.00,0.0022
3647.00,0.0022
3646.00,0.0022
3645.00,0.0022
3644.00,0.0022
3643.00,0.0023
3642.00,0.0023
3641.00,0.0023
3640.00,0.0024
3639.00,0.0024
3638.00,0.0024
3637.00,0.0024
3636.00,0.0023
3635.00,0.0023
3634.00,0.0024
3633.00,0.0024
3632.00,0.0023
3631.00,0.0023
3630.00,0.0023
3629.00,0.0023
3628.00,0.0024
3627.00,0.0024
3626.00,0.0024
3625.00,0.0024
3624.00,0.0024
3623.00,0.0025
3622.00,0.0025
3621.00,0.0025
3620.00,0.0025
3619.00,0.0025
3618.00,0.0025
3617.00,0.0025
3616.00,0.0026
3615.00,0.0026
3614.00,0.0026
3613.00,0.0026
3612.00,0.0026
3611.00,0.0026
3610.00,0.0026
3609.00,0.0026
3608.00,0.0026
3607.00,0.0027
3606.00,0.0027
3605.00,0.0027
3604.00,0.0027
3603.00,0.0026
3602.00,0.0026
3601.00,0.0026
3600.00,0.0026
3599.00,0.0027
3598.00,0.0027
3597.00,0.0027
3596.00,0.0028
3595.00,0.0029
3594.00,0.0029
3593.00,0.0029
3592.00,0.0029
3591.00,0.0029
3590.00,0.0028
3589.00,0.0029
3588.00,0.0029
3587.00,0.0029
3586.00,0.0029
3585.00,0.0030
3584.00,0.0030
3583.00,0.0030
3582.00,0.0030
3581.00,0.0030
3580.00,0.0030
3579.00,0.0030
3578.00,0.0031
3577.00,0.0031
3576.00,0.0031
3575.00,0.0032
3574.00,0.0032
3573.00,0.0032
3572.00,0.0032
3571.00,0.0033
3570.00,0.0033
3569.00,0.0033
3568.00,0.0033
3567.00,0.0033
3566.00,0.0033
3565.00,0.0033
3564.00,0.0033
3563.00,0.0033
3562.00,0.0034
3561.00,0.0034
3560.00,0.0034
3559.00,0.0035
3558.00,0.0035
3557.00,0.0035
3556.00,0.0035
3555.00,0.0036
3554.00,0.0036
3553.00,0.0036
3552.00,0.0037
3551.00,0.0037
3550.00,0.0037
3549.00,0.0038
3548.00,0.0038
3547.00,0.0038
3546.00,0.0038
3545.00,0.0038
3544.00,0.0038
3543.00,0.0038
3542.00,0.0038
3541.00,0.0038
3540.00,0.0039
3539.00,0.0039
3538.00,0.0040
3537.00,0.0040
3536.00,0.0040
3535.00,0.0040
3534.00,0.0041
3533.00,0.0041
3532.00,0.0041
3531.00,0.0042
3530.00,0.0042
3529.00,0.0042
3528.00,0.0042
3527.00,0.0042
3526.00,0.0042
3525.00,0.0043
3524.00,0.0043
3523.00,0.0043
3522.00,0.0044
3521.00,0.0044
3520.00,0.0045
3519.00,0.0045
3518.00,0.0045
3517.00,0.0045
3516.00,0.0045
3515.00,0.0045
3514.00,0.0045
3513.00,0.0046
3512.00,0.0046
3511.00,0.0046
3510.00,0.0047
3509.00,0.0047
3508.00,0.0047
3507.00,0.0047
3506.00,0.0047
3505.00,0.0048
3504.00,0.0048
3503.00,0.0048
3502.00,0.0048
3501.00,0.0049
3500.00,0.0049
3499.00,0.0049
3498.00,0.0049
3497.00,0.0049
3496.00,0.0050
3495.00,0.0050
3494.00,0.0050
3493.00,0.0051
3492.00,0.0051
3491.00,0.0051
3490.00,0.0051
3489.00,0.0052
3488.00,0.0052
3487.00,0.0052
3486.00,0.0053
3485.00,0.0053
3484.00,0.0053
3483.00,0.0053
3482.00,0.0054
3481.00,0.0054
3480.00,0.0054
3479.00,0.0054
3478.00,0.0055
3477.00,0.0055
3476.00,0.0056
3475.00,0.0056
3474.00,0.0056
3473.00,0.0057
3472.00,0.0057
3471.00,0.0057
3470.00,0.0058
3469.00,0.0058
3468.00,0.0059
3467.00,0.0059
3466.00,0.0059
3465.00,0.0060
3464.00,0.0060
3463.00,0.0060
3462.00,0.0060
3461.00,0.0061
3460.00,0.0061
3459.00,0.0061
3458.00,0.0062
3457.00,0.0062
3456.00,0.0062
3455.00,0.0063
3454.00,0.0063
3453.00,0.0063
3452.00,0.0064
3451.00,0.0064
3450.00,0.0064
3449.00,0.0065
3448.00,0.0065
3447.00,0.0066
3446.00,0.0066
3445.00,0.0066
3444.00,0.0067
3443.00,0.0067
3442.00,0.0068
3441.00,0.0068
3440.00,0.0069
3439.00,0.0069
3438.00,0.0070
3437.00,0.0070
3436.00,0.0071
3435.00,0.0071
3434.00,0.0072
3433.00,0.0072
3432.00,0.0073
3431.00,0.0073
3430.00,0.0073
3429.00,0.0073
3428.00,0.0074
3427.00,0.0074
3426.00,0.0075
3425.00,0.0075
3424.00,0.0076
3423.00,0.0076
3422.00,0.0077
3421.00,0.0078
3420.00,0.0078
3419.00,0.0079
3418.00,0.0079
3417.00,0.0080
3416.00,0.0081
3415.00,0.0082
3414.00,0.0082
3413.00,0.0083
3412.00,0.0083
3411.00,0.0084
3410.00,0.0084
3409.00,0.0085
3408.00,0.0086
3407.00,0.0087
3406.00,0.0087
3405.00,0.0088
3404.00,0.0088
3403.00,0.0088
3402.00,0.0089
3401.00,0.0089
3400.00,0.0090
3399.00,0.0091
3398.00,0.0091
3397.00,0.0092
3396.00,0.0092
3395.00,0.0092
3394.00,0.0092
3393.00,0.0092
3392.00,0.0093
3391.00,0.0093
3390.00,0.0093
3389.00,0.0093
3388.00,0.0093
3387.00,0.0093
3386.00,0.0092
3385.00,0.0092
3384.00,0.0091
3383.00,0.0091
3382.00,0.0091
3381.00,0.0090
3380.00,0.0090
3379.00,0.0090
3378.00,0.0090
3377.00,0.0090
3376.00,0.0090
3375.00,0.0089
3374.00,0.0089
3373.00,0.0089
3372.00,0.0089
3371.00,0.0088
3370.00,0.0088
3369.00,0.0088
3368.00,0.0088
3367.00,0.0087
3366.00,0.0087
3365.00,0.0087
3364.00,0.0087
3363.00,0.0087
3362.00,0.0086
3361.00,0.0086
3360.00,0.0086
3359.00,0.0086
3358.00,0.0086
3357.00,0.0086
3356.00,0.0085
3355.00,0.0085
3354.00,0.0085
3353.00,0.0085
3352.00,0.0085
3351.00,0.0085
3350.00,0.0085
3349.00,0.0085
3348.00,0.0085
3347.00,0.0084
3346.00,0.0084
3345.00,0.0084
3344.00,0.0084
3343.00,0.0084
3342.00,0.0084
3341.00,0.0084
3340.00,0.0084
3339.00,0.0084
3338.00,0.0084
3337.00,0.0084
3336.00,0.0084
3335.00,0.0084
3334.00,0.0084
3333.00,0.0084
3332.00,0.0084
3331.00,0.0084
3330.00,0.0084
3329.00,0.0084
3328.00,0.0084
3327.00,0.0083
3326.00,0.0083
3325.00,0.0083
3324.00,0.0083
3323.00,0.0084
3322.00,0.0084
3321.00,0.0084
3320.00,0.0084
3319.00,0.0084
3318.00,0.0084
3317.00,0.0084
3316.00,0.0084
3315.00,0.0085
3314.00,0.0085
3313.00,0.0085
3312.00,0.0085
3311.00,0.0085
3310.00,0.0085
3309.00,0.0084
3308.00,0.0084
3307.00,0.0085
3306.00,0.0085
3305.00,0.0085
3304.00,0.0086
3303.00,0.0086
3302.00,0.0087
3301.00,0.0087
3300.00,0.0087
3299.00,0.0087
3298.00,0.0087
3297.00,0.0087
3296.00,0.0087
3295.00,0.0088
3294.00,0.0088
3293.00,0.0088
3292.00,0.0088
3291.00,0.0089
3290.00,0.0089
3289.00,0.0089
3288.00,0.0090
3287.00,0.0090
3286.00,0.0091
3285.00,0.0091
3284.00,0.0091
3283.00,0.0091
3282.00,0.0091
3281.00,0.0091
3280.00,0.0092
3279.00,0.0092
3278.00,0.0092
3277.00,0.0092
3276.00,0.0092
3275.00,0.0092
3274.00,0.0092
3273.00,0.0093
3272.00,0.0093
3271.00,0.0093
3270.00,0.0093
3269.00,0.0093
3268.00,0.0093
3267.00,0.0094
3266.00,0.0094
3265.00,0.0094
3264.00,0.0094
3263.00,0.0095
3262.00,0.0095
3261.00,0.0096
3260.00,0.0096
3259.00,0.0096
3258.00,0.0096
3257.00,0.0097
3256.00,0.0097
3255.00,0.0097
3254.00,0.0097
3253.00,0.0097
3252.00,0.0098
3251.00,0.0098
3250.00,0.0098
3249.00,0.0098
3248.00,0.0098
3247.00,0.0098
3246.00,0.0099
3245.00,0.0099
3244.00,0.0100
3243.00,0.0100
3242.00,0.0100
3241.00,0.0100
3240.00,0.0100
3239.00,0.0100
3238.00,0.0100
3237.00,0.0100
3236.00,0.0100
3235.00,0.0100
3234.00,0.0100
3233.00,0.0100
3232.00,0.0100
3231.00,0.0101
3230.00,0.0101
3229.00,0.0101
3228.00,0.0101
3227.00,0.0102
3226.00,0.0101
3225.00,0.0101
3224.00,0.0101
3223.00,0.0101
3222.00,0.0102
3221.00,0.0102
3220.00,0.0102
3219.00,0.0102
3218.00,0.0102
3217.00,0.0102
3216.00,0.0102
3215.00,0.0102
3214.00,0.0102
3213.00,0.0102
3212.00,0.0102
3211.00,0.0101
3210.00,0.0101
3209.00,0.0101
3208.00,0.0100
3207.00,0.0100
3206.00,0.0100
3205.00,0.0100
3204.00,0.0100
3203.00,0.0100
3202.00,0.0099
3201.00,0.0099
3200.00,0.0098
3199.00,0.0098
3198.00,0.0097
3197.00,0.0097
3196.00,0.0097
3195.00,0.0097
3194.00,0.0097
3193.00,0.0097
3192.00,0.0097
3191.00,0.0097
3190.00,0.0096
3189.00,0.0096
3188.00,0.0095
3187.00,0.0095
3186.00,0.0094
3185.00,0.0094
3184.00,0.0094
3183.00,0.0094
3182.00,0.0093
3181.00,0.0093
3180.00,0.0093
3179.00,0.0093
3178.00,0.0093
3177.00,0.0092
3176.00,0.0092
3175.00,0.0092
3174.00,0.0092
3173.00,0.0091
3172.00,0.0091
3171.00,0.0091
3170.00,0.0090
3169.00,0.0090
3168.00,0.0089
3167.00,0.0089
3166.00,0.0088
3165.00,0.0088
3164.00,0.0087
3163.00,0.0087
3162.00,0.0087
3161.00,0.0087
3160.00,0.0086
3159.00,0.0086
3158.00,0.0085
3157.00,0.0084
3156.00,0.0084
3155.00,0.0083
3154.00,0.0083
3153.00,0.0083
3152.00,0.0083
3151.00,0.0083
3150.00,0.0082
3149.00,0.0082
3148.00,0.0082
3147.00,0.0081
3146.00,0.0081
3145.00,0.0081
3144.00,0.0080
3143.00,0.0080
3142.00,0.0079
3141.00,0.0079
3140.00,0.0078
3139.00,0.0078
3138.00,0.0077
3137.00,0.0077
3136.00,0.0077
3135.00,0.0077
3134.00,0.0076
3133.00,0.0076
3132.00,0.0076
3131.00,0.0075
3130.00,0.0075
3129.00,0.0075
3128.00,0.0074
3127.00,0.0074
3126.00,0.0074
3125.00,0.0074
3124.00,0.0074
3123.00,0.0074
3122.00,0.0074
3121.00,0.0074
3120.00,0.0073
3119.00,0.0073
3118.00,0.0073
3117.00,0.0072
3116.00,0.0072
3115.00,0.0071
3114.00,0.0071
3113.00,0.0070
3112.00,0.0070
3111.00,0.0070
3110.00,0.0070
3109.00,0.0070
3108.00,0.0069
3107.00,0.0069
3106.00,0.0069
3105.00,0.0068
3104.00,0.0068
3103.00,0.0068
3102.00,0.0067
3101.00,0.0067
3100.00,0.0067
3099.00,0.0067
3098.00,0.0067
3097.00,0.0066
3096.00,0.0066
3095.00,0.0066
3094.00,0.0067
3093.00,0.0067
3092.00,0.0067
3091.00,0.0067
3090.00,0.0067
3089.00,0.0067
3088.00,0.0067
3087.00,0.0067
3086.00,0.0067
3085.00,0.0067
3084.00,0.0067
3083.00,0.0067
3082.00,0.0066
3081.00,0.0066
3080.00,0.0066
3079.00,0.0066
3078.00,0.0066
3077.00,0.0065
3076.00,0.0065
3075.00,0.0065
3074.00,0.0064
3073.00,0.0064
3072.00,0.0064
3071.00,0.0064
3070.00,0.0064
3069.00,0.0064
3068.00,0.0064
3067.00,0.0063
3066.00,0.0063
3065.00,0.0063
3064.00,0.0063
3063.00,0.0063
3062.00,0.0062
3061.00,0.0062
3060.00,0.0062
3059.00,0.0062
3058.00,0.0062
3057.00,0.0062
3056.00,0.0062
3055.00,0.0062
3054.00,0.0062
3053.00,0.0061
3052.00,0.0061
3051.00,0.0061
3050.00,0.0061
3049.00,0.0061
3048.00,0.0061
3047.00,0.0060
3046.00,0.0060
3045.00,0.0060
3044.00,0.0060
3043.00,0.0060
3042.00,0.0060
3041.00,0.0060
3040.00,0.0060
3039.00,0.0060
3038.00,0.0060
3037.00,0.0060
3036.00,0.0060
3035.00,0.0060
3034.00,0.0060
3033.00,0.0060
3032.00,0.0060
3031.00,0.0060
3030.00,0.0060
3029.00,0.0059
3028.00,0.0059
3027.00,0.0059
3026.00,0.0058
3025.00,0.0058
3024.00,0.0058
3023.00,0.0057
3022.00,0.0057
3021.00,0.0057
3020.00,0.0057
3019.00,0.0057
3018.00,0.0057
3017.00,0.0057
3016.00,0.0057
3015.00,0.0057
3014.00,0.0057
3013.00,0.0057
3012.00,0.0057
3011.00,0.0057
3010.00,0.0058
3009.00,0.0058
3008.00,0.0058
3007.00,0.0059
3006.00,0.0060
3005.00,0.0061
3004.00,0.0062
3003.00,0.0063
3002.00,0.0064
3001.00,0.0066
3000.00,0.0067
2999.00,0.0069
2998.00,0.0071
2997.00,0.0073
2996.00,0.0075
2995.00,0.0077
2994.00,0.0079
2993.00,0.0080
2992.00,0.0082
2991.00,0.0084
2990.00,0.0086
2989.00,0.0088
2988.00,0.0090
2987.00,0.0092
2986.00,0.0094
2985.00,0.0096
2984.00,0.0098
2983.00,0.0101
2982.00,0.0103
2981.00,0.0106
2980.00,0.0110
2979.00,0.0113
2978.00,0.0115
2977.00,0.0118
2976.00,0.0120
2975.00,0.0123
2974.00,0.0126
2973.00,0.0130
2972.00,0.0133
2971.00,0.0136
2970.00,0.0139
2969.00,0.0142
2968.00,0.0144
2967.00,0.0146
2966.00,0.0148
2965.00,0.0150
2964.00,0.0152
2963.00,0.0154
2962.00,0.0156
2961.00,0.0157
2960.00,0.0156
2959.00,0.0155
2958.00,0.0153
2957.00,0.0151
2956.00,0.0149
2955.00,0.0147
2954.00,0.0145
2953.00,0.0142
2952.00,0.0141
2951.00,0.0139
2950.00,0.0138
2949.00,0.0138
2948.00,0.0138
2947.00,0.0138
2946.00,0.0138
2945.00,0.0140
2944.00,0.0142
2943.00,0.0144
2942.00,0.0146
2941.00,0.0149
2940.00,0.0152
2939.00,0.0156
2938.00,0.0161
2937.00,0.0165
2936.00,0.0171
2935.00,0.0176
2934.00,0.0181
2933.00,0.0187
2932.00,0.0192
2931.00,0.0198
2930.00,0.0202
2929.00,0.0206
2928.00,0.0208
2927.00,0.0209
2926.00,0.0209
2925.00,0.0208
2924.00,0.0205
2923.00,0.0202
2922.00,0.0198
2921.00,0.0194
2920.00,0.0190
2919.00,0.0186
2918.00,0.0181
2917.00,0.0177
2916.00,0.0172
2915.00,0.0168
2914.00,0.0164
2913.00,0.0160
2912.00,0.0156
2911.00,0.0153
2910.00,0.0150
2909.00,0.0147
2908.00,0.0144
2907.00,0.0141
2906.00,0.0139
2905.00,0.0136
2904.00,0.0134
2903.00,0.0132
2902.00,0.0130
2901.00,0.0129
2900.00,0.0127
2899.00,0.0126
2898.00,0.0124
2897.00,0.0123
2896.00,0.0122
2895.00,0.0121
2894.00,0.0120
2893.00,0.0120
2892.00,0.0119
2891.00,0.0118
2890.00,0.0117
2889.00,0.0116
2888.00,0.0115
2887.00,0.0114
2886.00,0.0114
2885.00,0.0113
2884.00,0.0113
2883.00,0.0113
2882.00,0.0113
2881.00,0.0114
2880.00,0.0116
2879.00,0.0117
2878.00,0.0119
2877.00,0.0120
2876.00,0.0122
2875.00,0.0124
2874.00,0.0125
2873.00,0.0126
2872.00,0.0127
2871.00,0.0127
2870.00,0.0127
2869.00,0.0127
2868.00,0.0127
2867.00,0.0127
2866.00,0.0127
2865.00,0.0128
2864.00,0.0130
2863.00,0.0133
2862.00,0.0137
2861.00,0.0141
2860.00,0.0144
2859.00,0.0148
2858.00,0.0150
2857.00,0.0151
2856.00,0.0151
2855.00,0.0150
2854.00,0.0148
2853.00,0.0146
2852.00,0.0143
2851.00,0.0140
2850.00,0.0136
2849.00,0.0131
2848.00,0.0125
2847.00,0.0120
2846.00,0.0115
2845.00,0.0110
2844.00,0.0105
2843.00,0.0101
2842.00,0.0098
2841.00,0.0094
2840.00,0.0091
2839.00,0.0088
2838.00,0.0086
2837.00,0.0083
2836.00,0.0082
2835.00,0.0080
2834.00,0.0078
2833.00,0.0077
2832.00,0.0075
2831.00,0.0074
2830.00,0.0073
2829.00,0.0072
2828.00,0.0071
2827.00,0.0070
2826.00,0.0069
2825.00,0.0068
2824.00,0.0067
2823.00,0.0066
2822.00,0.0065
2821.00,0.0064
2820.00,0.0063
2819.00,0.0063
2818.00,0.0062
2817.00,0.0061
2816.00,0.0061
2815.00,0.0060
2814.00,0.0060
2813.00,0.0059
2812.00,0.0059
2811.00,0.0058
2810.00,0.0058
2809.00,0.0058
2808.00,0.0057
2807.00,0.0057
2806.00,0.0056
2805.00,0.0056
2804.00,0.0056
2803.00,0.0055
2802.00,0.0055
2801.00,0.0055
2800.00,0.0055
2799.00,0.0054
2798.00,0.0054
2797.00,0.0054
2796.00,0.0053
2795.00,0.0053
2794.00,0.0053
2793.00,0.0052
2792.00,0.0052
2791.00,0.0052
2790.00,0.0051
2789.00,0.0051
2788.00,0.0051
2787.00,0.0051
2786.00,0.0051
2785.00,0.0051
2784.00,0.0051
2783.00,0.0050
2782.00,0.0050
2781.00,0.0050
2780.00,0.0050
2779.00,0.0050
2778.00,0.0049
2777.00,0.0049
2776.00,0.0049
2775.00,0.0049
2774.00,0.0048
2773.00,0.0048
2772.00,0.0048
2771.00,0.0048
2770.00,0.0048
2769.00,0.0048
2768.00,0.0048
2767.00,0.0048
2766.00,0.0048
2765.00,0.0048
2764.00,0.0048
2763.00,0.0047
2762.00,0.0047
2761.00,0.0048
2760.00,0.0048
2759.00,0.0048
2758.00,0.0048
2757.00,0.0048
2756.00,0.0048
2755.00,0.0047
2754.00,0.0047
2753.00,0.0047
2752.00,0.0047
2751.00,0.0047
2750.00,0.0047
2749.00,0.0047
2748.00,0.0048
2747.00,0.0048
2746.00,0.0048
2745.00,0.0048
2744.00,0.0048
2743.00,0.0048
2742.00,0.0048
2741.00,0.0048
2740.00,0.0048
2739.00,0.0048
2738.00,0.0048
2737.00,0.0049
2736.00,0.0049
2735.00,0.0049
2734.00,0.0049
2733.00,0.0049
2732.00,0.0049
2731.00,0.0049
2730.00,0.0049
2729.00,0.0049
2728.00,0.0049
2727.00,0.0049
2726.00,0.0048
2725.00,0.0048
2724.00,0.0048
2723.00,0.0048
2722.00,0.0048
2721.00,0.0048
2720.00,0.0048
2719.00,0.0048
2718.00,0.0048
2717.00,0.0048
2716.00,0.0048
2715.00,0.0048
2714.00,0.0047
2713.00,0.0047
2712.00,0.0047
2711.00,0.0047
2710.00,0.0047
2709.00,0.0047
2708.00,0.0047
2707.00,0.0046
2706.00,0.0046
2705.00,0.0046
2704.00,0.0046
2703.00,0.0046
2702.00,0.0046
2701.00,0.0046
2700.00,0.0046
2699.00,0.0045
2698.00,0.0045
2697.00,0.0045
2696.00,0.0045
2695.00,0.0045
2694.00,0.0045
2693.00,0.0045
2692.00,0.0045
2691.00,0.0045
2690.00,0.0044
2689.00,0.0044
2688.00,0.0044
2687.00,0.0044
2686.00,0.0044
2685.00,0.0044
2684.00,0.0043
2683.00,0.0043
2682.00,0.0043
2681.00,0.0043
2680.00,0.0043
2679.00,0.0043
2678.00,0.0043
2677.00,0.0043
2676.00,0.0043
2675.00,0.0043
2674.00,0.0043
2673.00,0.0043
2672.00,0.0043
2671.00,0.0043
2670.00,0.0044
2669.00,0.0044
2668.00,0.0044
2667.00,0.0044
2666.00,0.0044
2665.00,0.0045
2664.00,0.0045
2663.00,0.0046
2662.00,0.0046
2661.00,0.0047
2660.00,0.0047
2659.00,0.0047
2658.00,0.0048
2657.00,0.0048
2656.00,0.0048
2655.00,0.0048
2654.00,0.0048
2653.00,0.0048
2652.00,0.0048
2651.00,0.0048
2650.00,0.0048
2649.00,0.0048
2648.00,0.0048
2647.00,0.0048
2646.00,0.0048
2645.00,0.0047
2644.00,0.0047
2643.00,0.0047
2642.00,0.0047
2641.00,0.0047
2640.00,0.0047
2639.00,0.0047
2638.00,0.0047
2637.00,0.0047
2636.00,0.0046
2635.00,0.0046
2634.00,0.0046
2633.00,0.0046
2632.00,0.0046
2631.00,0.0046
2630.00,0.0045
2629.00,0.0045
2628.00,0.0045
2627.00,0.0045
2626.00,0.0045
2625.00,0.0045
2624.00,0.0044
2623.00,0.0044
2622.00,0.0044
2621.00,0.0044
2620.00,0.0044
2619.00,0.0044
2618.00,0.0044
2617.00,0.0044
2616.00,0.0044
2615.00,0.0043
2614.00,0.0043
2613.00,0.0043
2612.00,0.0044
2611.00,0.0044
2610.00,0.0043
2609.00,0.0043
2608.00,0.0043
2607.00,0.0043
2606.00,0.0043
2605.00,0.0043
2604.00,0.0043
2603.00,0.0043
2602.00,0.0042
2601.00,0.0042
2600.00,0.0042
2599.00,0.0042
2598.00,0.0042
2597.00,0.0042
2596.00,0.0042
2595.00,0.0042
2594.00,0.0042
2593.00,0.0042
2592.00,0.0042
2591.00,0.0042
2590.00,0.0042
2589.00,0.0042
2588.00,0.0042
2587.00,0.0042
2586.00,0.0042
2585.00,0.0042
2584.00,0.0042
2583.00,0.0042
2582.00,0.0042
2581.00,0.0041
2580.00,0.0041
2579.00,0.0041
2578.00,0.0041
2577.00,0.0041
2576.00,0.0041
2575.00,0.0041
2574.00,0.0041
2573.00,0.0041
2572.00,0.0041
2571.00,0.0041
2570.00,0.0041
2569.00,0.0041
2568.00,0.0040
2567.00,0.0040
2566.00,0.0040
2565.00,0.0040
2564.00,0.0039
2563.00,0.0039
2562.00,0.0039
2561.00,0.0039
2560.00,0.0039
2559.00,0.0039
2558.00,0.0038
2557.00,0.0038
2556.00,0.0038
2555.00,0.0038
2554.00,0.0038
2553.00,0.0038
2552.00,0.0038
2551.00,0.0039
2550.00,0.0038
2549.00,0.0038
2548.00,0.0038
2547.00,0.0038
2546.00,0.0037
2545.00,0.0037
2544.00,0.0037
2543.00,0.0037
2542.00,0.0037
2541.00,0.0037
2540.00,0.0037
2539.00,0.0037
2538.00,0.0037
2537.00,0.0037
2536.00,0.0037
2535.00,0.0037
2534.00,0.0037
2533.00,0.0037
2532.00,0.0037
2531.00,0.0037
2530.00,0.0037
2529.00,0.0037
2528.00,0.0036
2527.00,0.0036
2526.00,0.0036
2525.00,0.0036
2524.00,0.0036
2523.00,0.0036
2522.00,0.0036
2521.00,0.0035
2520.00,0.0035
2519.00,0.0035
2518.00,0.0035
2517.00,0.0035
2516.00,0.0035
2515.00,0.0035
2514.00,0.0034
2513.00,0.0034
2512.00,0.0034
2511.00,0.0033
2510.00,0.0033
2509.00,0.0033
2508.00,0.0033
2507.00,0.0033
2506.00,0.0033
2505.00,0.0033
2504.00,0.0033
2503.00,0.0033
2502.00,0.0033
2501.00,0.0033
2500.00,0.0033
2499.00,0.0033
2498.00,0.0033
2497.00,0.0033
2496.00,0.0033
2495.00,0.0033
2494.00,0.0032
2493.00,0.0032
2492.00,0.0032
2491.00,0.0032
2490.00,0.0032
2489.00,0.0032
2488.00,0.0032
2487.00,0.0033
2486.00,0.0033
2485.00,0.0033
2484.00,0.0033
2483.00,0.0033
2482.00,0.0033
2481.00,0.0033
2480.00,0.0033
2479.00,0.0032
2478.00,0.0032
2477.00,0.0032
2476.00,0.0032
2475.00,0.0032
2474.00,0.0032
2473.00,0.0032
2472.00,0.0032
2471.00,0.0032
2470.00,0.0032
2469.00,0.0032
2468.00,0.0032
2467.00,0.0032
2466.00,0.0032
2465.00,0.0032
2464.00,0.0032
2463.00,0.0032
2462.00,0.0032
2461.00,0.0033
2460.00,0.0033
2459.00,0.0033
2458.00,0.0033
2457.00,0.0033
2456.00,0.0034
2455.00,0.0034
2454.00,0.0034
2453.00,0.0033
2452.00,0.0033
2451.00,0.0032
2450.00,0.0032
2449.00,0.0032
2448.00,0.0032
2447.00,0.0032
2446.00,0.0032
2445.00,0.0032
2444.00,0.0032
2443.00,0.0032
2442.00,0.0032
2441.00,0.0032
2440.00,0.0032
2439.00,0.0032
2438.00,0.0032
2437.00,0.0032
2436.00,0.0032
2435.00,0.0032
2434.00,0.0032
2433.00,0.0031
2432.00,0.0031
2431.00,0.0031
2430.00,0.0031
2429.00,0.0031
2428.00,0.0031
2427.00,0.0031
2426.00,0.0031
2425.00,0.0031
2424.00,0.0030
2423.00,0.0030
2422.00,0.0030
2421.00,0.0030
2420.00,0.0030
2419.00,0.0030
2418.00,0.0030
2417.00,0.0030
2416.00,0.0030
2415.00,0.0030
2414.00,0.0030
2413.00,0.0030
2412.00,0.0030
2411.00,0.0030
2410.00,0.0030
2409.00,0.0029
2408.00,0.0029
2407.00,0.0029
2406.00,0.0029
2405.00,0.0029
2404.00,0.0029
2403.00,0.0029
2402.00,0.0029
2401.00,0.0028
2400.00,0.0028
2399.00,0.0028
2398.00,0.0028
2397.00,0.0028
2396.00,0.0028
2395.00,0.0028
2394.00,0.0028
2393.00,0.0028
2392.00,0.0027
2391.00,0.0027
2390.00,0.0027
2389.00,0.0027
2388.00,0.0027
2387.00,0.0027
2386.00,0.0027
2385.00,0.0026
2384.00,0.0026
2383.00,0.0026
2382.00,0.0026
2381.00,0.0026
2380.00,0.0026
2379.00,0.0026
2378.00,0.0026
2377.00,0.0026
2376.00,0.0026
2375.00,0.0027
2374.00,0.0027
2373.00,0.0027
2372.00,0.0027
2371.00,0.0027
2370.00,0.0027
2369.00,0.0027
2368.00,0.0027
2367.00,0.0026
2366.00,0.0026
2365.00,0.0027
2364.00,0.0027
2363.00,0.0028
2362.00,0.0028
2361.00,0.0028
2360.00,0.0029
2359.00,0.0029
2358.00,0.0029
2357.00,0.0029
2356.00,0.0028
2355.00,0.0028
2354.00,0.0027
2353.00,0.0027
2352.00,0.0028
2351.00,0.0029
2350.00,0.0029
2349.00,0.0030
2348.00,0.0030
2347.00,0.0030
2346.00,0.0030
2345.00,0.0031
2344.00,0.0031
2343.00,0.0031
2342.00,0.0031
2341.00,0.0032
2340.00,0.0032
2339.00,0.0032
2338.00,0.0031
2337.00,0.0031
2336.00,0.0032
2335.00,0.0032
2334.00,0.0032
2333.00,0.0031
2332.00,0.0031
2331.00,0.0031
2330.00,0.0032
2329.00,0.0033
2328.00,0.0037
2327.00,0.0041
2326.00,0.0044
2325.00,0.0044
2324.00,0.0043
2323.00,0.0041
2322.00,0.0039
2321.00,0.0038
2320.00,0.0037
2319.00,0.0037
2318.00,0.0036
2317.00,0.0036
2316.00,0.0035
2315.00,0.0034
2314.00,0.0033
2313.00,0.0033
2312.00,0.0032
2311.00,0.0032
2310.00,0.0033
2309.00,0.0033
2308.00,0.0033
2307.00,0.0033
2306.00,0.0033
2305.00,0.0033
2304.00,0.0033
2303.00,0.0033
2302.00,0.0033
2301.00,0.0034
2300.00,0.0035
2299.00,0.0035
2298.00,0.0036
2297.00,0.0036
2296.00,0.0037
2295.00,0.0037
2294.00,0.0038
2293.00,0.0039
2292.00,0.0040
2291.00,0.0040
2290.00,0.0041
2289.00,0.0041
2288.00,0.0042
2287.00,0.0042
2286.00,0.0042
2285.00,0.0042
2284.00,0.0041
2283.00,0.0040
2282.00,0.0039
2281.00,0.0038
2280.00,0.0038
2279.00,0.0038
2278.00,0.0038
2277.00,0.0038
2276.00,0.0037
2275.00,0.0037
2274.00,0.0037
2273.00,0.0036
2272.00,0.0036
2271.00,0.0036
2270.00,0.0035
2269.00,0.0034
2268.00,0.0033
2267.00,0.0032
2266.00,0.0031
2265.00,0.0031
2264.00,0.0031
2263.00,0.0032
2262.00,0.0032
2261.00,0.0033
2260.00,0.0033
2259.00,0.0033
2258.00,0.0032
2257.00,0.0031
2256.00,0.0030
2255.00,0.0030
2254.00,0.0030
2253.00,0.0030
2252.00,0.0031
2251.00,0.0031
2250.00,0.0032
2249.00,0.0032
2248.00,0.0033
2247.00,0.0033
2246.00,0.0033
2245.00,0.0033
2244.00,0.0033
2243.00,0.0034
2242.00,0.0034
2241.00,0.0034
2240.00,0.0033
2239.00,0.0033
2238.00,0.0032
2237.00,0.0032
2236.00,0.0032
2235.00,0.0032
2234.00,0.0032
2233.00,0.0032
2232.00,0.0032
2231.00,0.0032
2230.00,0.0032
2229.00,0.0032
2228.00,0.0033
2227.00,0.0034
2226.00,0.0034
2225.00,0.0033
2224.00,0.0032
2223.00,0.0031
2222.00,0.0031
2221.00,0.0030
2220.00,0.0030
2219.00,0.0031
2218.00,0.0031
2217.00,0.0032
2216.00,0.0032
2215.00,0.0032
2214.00,0.0031
2213.00,0.0031
2212.00,0.0032
2211.00,0.0032
2210.00,0.0033
2209.00,0.0034
2208.00,0.0035
2207.00,0.0035
2206.00,0.0034
2205.00,0.0033
2204.00,0.0032
2203.00,0.0031
2202.00,0.0030
2201.00,0.0030
2200.00,0.0029
2199.00,0.0028
2198.00,0.0028
2197.00,0.0029
2196.00,0.0030
2195.00,0.0032
2194.00,0.0034
2193.00,0.0035
2192.00,0.0037
2191.00,0.0037
2190.00,0.0036
2189.00,0.0036
2188.00,0.0036
2187.00,0.0037
2186.00,0.0036
2185.00,0.0035
2184.00,0.0033
2183.00,0.0032
2182.00,0.0030
2181.00,0.0030
2180.00,0.0030
2179.00,0.0031
2178.00,0.0030
2177.00,0.0028
2176.00,0.0028
2175.00,0.0028
2174.00,0.0029
2173.00,0.0030
2172.00,0.0032
2171.00,0.0034
2170.00,0.0037
2169.00,0.0038
2168.00,0.0039
2167.00,0.0039
2166.00,0.0040
2165.00,0.0041
2164.00,0.0044
2163.00,0.0045
2162.00,0.0040
2161.00,0.0029
2160.00,0.0015
2159.00,0.0004
2158.00,-0.0001
2157.00,-0.0000
2156.00,0.0003
2155.00,0.0005
2154.00,0.0007
2153.00,0.0008
2152.00,0.0010
2151.00,0.0012
2150.00,0.0013
2149.00,0.0013
2148.00,0.0014
2147.00,0.0014
2146.00,0.0014
2145.00,0.0015
2144.00,0.0015
2143.00,0.0015
2142.00,0.0015
2141.00,0.0016
2140.00,0.0016
2139.00,0.0015
2138.00,0.0013
2137.00,0.0010
2136.00,0.0008
2135.00,0.0006
2134.00,0.0005
2133.00,0.0006
2132.00,0.0008
2131.00,0.0011
2130.00,0.0013
2129.00,0.0015
2128.00,0.0017
2127.00,0.0018
2126.00,0.0019
2125.00,0.0020
2124.00,0.0020
2123.00,0.0020
2122.00,0.0020
2121.00,0.0021
2120.00,0.0021
2119.00,0.0022
2118.00,0.0023
2117.00,0.0025
2116.00,0.0026
2115.00,0.0028
2114.00,0.0028
2113.00,0.0028
2112.00,0.0028
2111.00,0.0027
2110.00,0.0026
2109.00,0.0026
2108.00,0.0026
2107.00,0.0026
2106.00,0.0026
2105.00,0.0026
2104.00,0.0026
2103.00,0.0027
2102.00,0.0027
2101.00,0.0028
2100.00,0.0028
2099.00,0.0027
2098.00,0.0026
2097.00,0.0025
2096.00,0.0023
2095.00,0.0022
2094.00,0.0022
2093.00,0.0022
2092.00,0.0024
2091.00,0.0025
2090.00,0.0026
2089.00,0.0027
2088.00,0.0028
2087.00,0.0028
2086.00,0.0028
2085.00,0.0028
2084.00,0.0028
2083.00,0.0029
2082.00,0.0030
2081.00,0.0031
2080.00,0.0032
2079.00,0.0032
2078.00,0.0032
2077.00,0.0031
2076.00,0.0031
2075.00,0.0030
2074.00,0.0030
2073.00,0.0030
2072.00,0.0029
2071.00,0.0029
2070.00,0.0028
2069.00,0.0028
2068.00,0.0029
2067.00,0.0030
2066.00,0.0030
2065.00,0.0031
2064.00,0.0030
2063.00,0.0030
2062.00,0.0029
2061.00,0.0028
2060.00,0.0028
2059.00,0.0028
2058.00,0.0028
2057.00,0.0028
2056.00,0.0029
2055.00,0.0029
2054.00,0.0032
2053.00,0.0036
2052.00,0.0039
2051.00,0.0039
2050.00,0.0036
2049.00,0.0031
2048.00,0.0028
2047.00,0.0026
2046.00,0.0026
2045.00,0.0028
2044.00,0.0029
2043.00,0.0031
2042.00,0.0032
2041.00,0.0032
2040.00,0.0033
2039.00,0.0033
2038.00,0.0033
2037.00,0.0031
2036.00,0.0029
2035.00,0.0027
2034.00,0.0024
2033.00,0.0022
2032.00,0.0022
2031.00,0.0022
2030.00,0.0022
2029.00,0.0021
2028.00,0.0021
2027.00,0.0021
2026.00,0.0021
2025.00,0.0022
2024.00,0.0023
2023.00,0.0025
2022.00,0.0026
2021.00,0.0026
2020.00,0.0027
2019.00,0.0027
2018.00,0.0026
2017.00,0.0024
2016.00,0.0021
2015.00,0.0019
2014.00,0.0018
2013.00,0.0018
2012.00,0.0019
2011.00,0.0019
2010.00,0.0019
2009.00,0.0019
2008.00,0.0018
2007.00,0.0017
2006.00,0.0015
2005.00,0.0015
2004.00,0.0017
2003.00,0.0019
2002.00,0.0020
2001.00,0.0020
2000.00,0.0019
1999.00,0.0018
1998.00,0.0018
1997.00,0.0018
1996.00,0.0019
1995.00,0.0021
1994.00,0.0023
1993.00,0.0026
1992.00,0.0028
1991.00,0.0028
1990.00,0.0028
1989.00,0.0028
1988.00,0.0028
1987.00,0.0029
1986.00,0.0031
1985.00,0.0033
1984.00,0.0035
1983.00,0.0038
1982.00,0.0041
1981.00,0.0042
1980.00,0.0039
1979.00,0.0034
1978.00,0.0027
1977.00,0.0022
1976.00,0.0020
1975.00,0.0020
1974.00,0.0020
1973.00,0.0019
1972.00,0.0018
1971.00,0.0017
1970.00,0.0017
1969.00,0.0017
1968.00,0.0018
1967.00,0.0018
1966.00,0.0017
1965.00,0.0016
1964.00,0.0015
1963.00,0.0015
1962.00,0.0014
1961.00,0.0013
1960.00,0.0012
1959.00,0.0012
1958.00,0.0013
1957.00,0.0015
1956.00,0.0017
1955.00,0.0018
1954.00,0.0018
1953.00,0.0019
1952.00,0.0020
1951.00,0.0021
1950.00,0.0021
1949.00,0.0021
1948.00,0.0021
1947.00,0.0020
1946.00,0.0019
1945.00,0.0018
1944.00,0.0018
1943.00,0.0019
1942.00,0.0019
1941.00,0.0020
1940.00,0.0020
1939.00,0.0020
1938.00,0.0019
1937.00,0.0019
1936.00,0.0020
1935.00,0.0020
1934.00,0.0021
1933.00,0.0021
1932.00,0.0020
1931.00,0.0020
1930.00,0.0019
1929.00,0.0019
1928.00,0.0020
1927.00,0.0021
1926.00,0.0021
1925.00,0.0021
1924.00,0.0022
1923.00,0.0022
1922.00,0.0023
1921.00,0.0024
1920.00,0.0025
1919.00,0.0025
1918.00,0.0025
1917.00,0.0024
1916.00,0.0023
1915.00,0.0023
1914.00,0.0023
1913.00,0.0023
1912.00,0.0023
1911.00,0.0023
1910.00,0.0024
1909.00,0.0025
1908.00,0.0026
1907.00,0.0026
1906.00,0.0026
1905.00,0.0026
1904.00,0.0025
1903.00,0.0025
1902.00,0.0025
1901.00,0.0025
1900.00,0.0025
1899.00,0.0025
1898.00,0.0025
1897.00,0.0026
1896.00,0.0026
1895.00,0.0027
1894.00,0.0027
1893.00,0.0027
1892.00,0.0026
1891.00,0.0026
1890.00,0.0026
1889.00,0.0025
1888.00,0.0025
1887.00,0.0025
1886.00,0.0025
1885.00,0.0025
1884.00,0.0026
1883.00,0.0027
1882.00,0.0027
1881.00,0.0027
1880.00,0.0026
1879.00,0.0026
1878.00,0.0025
1877.00,0.0025
1876.00,0.0025
1875.00,0.0025
1874.00,0.0024
1873.00,0.0024
1872.00,0.0024
1871.00,0.0025
1870.00,0.0025
1869.00,0.0025
1868.00,0.0025
1867.00,0.0025
1866.00,0.0026
1865.00,0.0026
1864.00,0.0026
1863.00,0.0026
1862.00,0.0025
1861.00,0.0025
1860.00,0.0025
1859.00,0.0025
1858.00,0.0025
1857.00,0.0026
1856.00,0.0026
1855.00,0.0027
1854.00,0.0027
1853.00,0.0026
1852.00,0.0026
1851.00,0.0026
1850.00,0.0026
1849.00,0.0026
1848.00,0.0026
1847.00,0.0027
1846.00,0.0027
1845.00,0.0027
1844.00,0.0026
1843.00,0.0026
1842.00,0.0026
1841.00,0.0027
1840.00,0.0027
1839.00,0.0028
1838.00,0.0028
1837.00,0.0027
1836.00,0.0027
1835.00,0.0027
1834.00,0.0026
1833.00,0.0026
1832.00,0.0026
1831.00,0.0027
1830.00,0.0026
1829.00,0.0026
1828.00,0.0025
1827.00,0.0026
1826.00,0.0026
1825.00,0.0026
1824.00,0.0027
1823.00,0.0027
1822.00,0.0027
1821.00,0.0027
1820.00,0.0026
1819.00,0.0025
1818.00,0.0025
1817.00,0.0024
1816.00,0.0024
1815.00,0.0025
1814.00,0.0025
1813.00,0.0025
1812.00,0.0025
1811.00,0.0026
1810.00,0.0026
1809.00,0.0026
1808.00,0.0026
1807.00,0.0026
1806.00,0.0026
1805.00,0.0027
1804.00,0.0027
1803.00,0.0027
1802.00,0.0028
1801.00,0.0028
1800.00,0.0028
1799.00,0.0028
1798.00,0.0028
1797.00,0.0029
1796.00,0.0029
1795.00,0.0029
1794.00,0.0029
1793.00,0.0029
1792.00,0.0029
1791.00,0.0029
1790.00,0.0028
1789.00,0.0028
1788.00,0.0029
1787.00,0.0029
1786.00,0.0030
1785.00,0.0030
1784.00,0.0030
1783.00,0.0030
1782.00,0.0030
1781.00,0.0030
1780.00,0.0030
1779.00,0.0030
1778.00,0.0030
1777.00,0.0029
1776.00,0.0029
1775.00,0.0030
1774.00,0.0030
1773.00,0.0030
1772.00,0.0030
1771.00,0.0030
1770.00,0.0030
1769.00,0.0030
1768.00,0.0031
1767.00,0.0031
1766.00,0.0030
1765.00,0.0030
1764.00,0.0031
1763.00,0.0031
1762.00,0.0031
1761.00,0.0031
1760.00,0.0031
1759.00,0.0032
1758.00,0.0032
1757.00,0.0032
1756.00,0.0031
1755.00,0.0031
1754.00,0.0031
1753.00,0.0031
1752.00,0.0032
1751.00,0.0032
1750.00,0.0032
1749.00,0.0032
1748.00,0.0032
1747.00,0.0032
1746.00,0.0032
1745.00,0.0033
1744.00,0.0033
1743.00,0.0033
1742.00,0.0033
1741.00,0.0033
1740.00,0.0033
1739.00,0.0034
1738.00,0.0034
1737.00,0.0034
1736.00,0.0035
1735.00,0.0035
1734.00,0.0035
1733.00,0.0035
1732.00,0.0035
1731.00,0.0036
1730.00,0.0037
1729.00,0.0037
1728.00,0.0038
1727.00,0.0039
1726.00,0.0039
1725.00,0.0040
1724.00,0.0041
1723.00,0.0042
1722.00,0.0042
1721.00,0.0042
1720.00,0.0042
1719.00,0.0043
1718.00,0.0044
1717.00,0.0045
1716.00,0.0046
1715.00,0.0047
1714.00,0.0048
1713.00,0.0049
1712.00,0.0051
1711.00,0.0052
1710.00,0.0054
1709.00,0.0055
1708.00,0.0057
1707.00,0.0060
1706.00,0.0063
1705.00,0.0065
1704.00,0.0067
1703.00,0.0070
1702.00,0.0073
1701.00,0.0080
1700.00,0.0089
1699.00,0.0098
1698.00,0.0104
1697.00,0.0113
1696.00,0.0126
1695.00,0.0139
1694.00,0.0151
1693.00,0.0161
1692.00,0.0171
1691.00,0.0183
1690.00,0.0195
1689.00,0.0208
1688.00,0.0218
1687.00,0.0226
1686.00,0.0235
1685.00,0.0251
1684.00,0.0273
1683.00,0.0291
1682.00,0.0300
1681.00,0.0306
1680.00,0.0311
1679.00,0.0316
1678.00,0.0320
1677.00,0.0324
1676.00,0.0332
1675.00,0.0343
1674.00,0.0352
1673.00,0.0357
1672.00,0.0361
1671.00,0.0368
1670.00,0.0381
1669.00,0.0397
1668.00,0.0410
1667.00,0.0418
1666.00,0.0423
1665.00,0.0428
1664.00,0.0437
1663.00,0.0450
1662.00,0.0464
1661.00,0.0474
1660.00,0.0480
1659.00,0.0483
1658.00,0.0484
1657.00,0.0482
1656.00,0.0476
1655.00,0.0472
1654.00,0.0476
1653.00,0.0488
1652.00,0.0494
1651.00,0.0487
1650.00,0.0474
1649.00,0.0460
1648.00,0.0447
1647.00,0.0437
1646.00,0.0426
1645.00,0.0414
1644.00,0.0400
1643.00,0.0385
1642.00,0.0370
1641.00,0.0354
1640.00,0.0339
1639.00,0.0325
1638.00,0.0311
1637.00,0.0298
1636.00,0.0285
1635.00,0.0275
1634.00,0.0267
1633.00,0.0261
1632.00,0.0258
1631.00,0.0257
1630.00,0.0260
1629.00,0.0267
1628.00,0.0278
1627.00,0.0290
1626.00,0.0302
1625.00,0.0314
1624.00,0.0327
1623.00,0.0342
1622.00,0.0352
1621.00,0.0356
1620.00,0.0355
1619.00,0.0350
1618.00,0.0341
1617.00,0.0328
1616.00,0.0316
1615.00,0.0306
1614.00,0.0299
1613.00,0.0294
1612.00,0.0291
1611.00,0.0288
1610.00,0.0283
1609.00,0.0275
1608.00,0.0264
1607.00,0.0251
1606.00,0.0236
1605.00,0.0220
1604.00,0.0204
1603.00,0.0190
1602.00,0.0177
1601.00,0.0166
1600.00,0.0158
1599.00,0.0151
1598.00,0.0146
1597.00,0.0143
1596.00,0.0142
1595.00,0.0144
1594.00,0.0149
1593.00,0.0157
1592.00,0.0167
1591.00,0.0181
1590.00,0.0196
1589.00,0.0212
1588.00,0.0226
1587.00,0.0237
1586.00,0.0245
1585.00,0.0247
1584.00,0.0246
1583.00,0.0241
1582.00,0.0234
1581.00,0.0225
1580.00,0.0216
1579.00,0.0207
1578.00,0.0198
1577.00,0.0188
1576.00,0.0179
1575.00,0.0171
1574.00,0.0164
1573.00,0.0159
1572.00,0.0153
1571.00,0.0149
1570.00,0.0145
1569.00,0.0141
1568.00,0.0138
1567.00,0.0134
1566.00,0.0129
1565.00,0.0124
1564.00,0.0118
1563.00,0.0112
1562.00,0.0107
1561.00,0.0103
1560.00,0.0099
1559.00,0.0094
1558.00,0.0091
1557.00,0.0089
1556.00,0.0088
1555.00,0.0087
1554.00,0.0086
1553.00,0.0085
1552.00,0.0084
1551.00,0.0083
1550.00,0.0082
1549.00,0.0080
1548.00,0.0079
1547.00,0.0078
1546.00,0.0077
1545.00,0.0076
1544.00,0.0074
1543.00,0.0073
1542.00,0.0072
1541.00,0.0072
1540.00,0.0072
1539.00,0.0072
1538.00,0.0072
1537.00,0.0072
1536.00,0.0072
1535.00,0.0071
1534.00,0.0071
1533.00,0.0071
1532.00,0.0071
1531.00,0.0071
1530.00,0.0071
1529.00,0.0071
1528.00,0.0072
1527.00,0.0072
1526.00,0.0073
1525.00,0.0073
1524.00,0.0074
1523.00,0.0075
1522.00,0.0078
1521.00,0.0080
1520.00,0.0082
1519.00,0.0084
1518.00,0.0086
1517.00,0.0089
1516.00,0.0092
1515.00,0.0094
1514.00,0.0095
1513.00,0.0096
1512.00,0.0097
1511.00,0.0097
1510.00,0.0097
1509.00,0.0097
1508.00,0.0098
1507.00,0.0100
1506.00,0.0104
1505.00,0.0109
1504.00,0.0113
1503.00,0.0118
1502.00,0.0124
1501.00,0.0132
1500.00,0.0142
1499.00,0.0156
1498.00,0.0171
1497.00,0.0186
1496.00,0.0194
1495.00,0.0196
1494.00,0.0192
1493.00,0.0185
1492.00,0.0176
1491.00,0.0166
1490.00,0.0155
1489.00,0.0144
1488.00,0.0135
1487.00,0.0127
1486.00,0.0119
1485.00,0.0113
1484.00,0.0108
1483.00,0.0104
1482.00,0.0101
1481.00,0.0098
1480.00,0.0097
1479.00,0.0096
1478.00,0.0097
1477.00,0.0098
1476.00,0.0100
1475.00,0.0104
1474.00,0.0110
1473.00,0.0120
1472.00,0.0134
1471.00,0.0149
1470.00,0.0164
1469.00,0.0180
1468.00,0.0196
1467.00,0.0213
1466.00,0.0231
1465.00,0.0247
1464.00,0.0259
1463.00,0.0266
1462.00,0.0269
1461.00,0.0269
1460.00,0.0268
1459.00,0.0265
1458.00,0.0261
1457.00,0.0255
1456.00,0.0246
1455.00,0.0237
1454.00,0.0230
1453.00,0.0225
1452.00,0.0221
1451.00,0.0220
1450.00,0.0222
1449.00,0.0227
1448.00,0.0234
1447.00,0.0243
1446.00,0.0253
1445.00,0.0263
1444.00,0.0275
1443.00,0.0286
1442.00,0.0297
1441.00,0.0306
1440.00,0.0314
1439.00,0.0320
1438.00,0.0327
1437.00,0.0336
1436.00,0.0347
1435.00,0.0355
1434.00,0.0360
1433.00,0.0363
1432.00,0.0368
1431.00,0.0372
1430.00,0.0377
1429.00,0.0383
1428.00,0.0387
1427.00,0.0391
1426.00,0.0394
1425.00,0.0397
1424.00,0.0400
1423.00,0.0399
1422.00,0.0395
1421.00,0.0387
1420.00,0.0376
1419.00,0.0361
1418.00,0.0344
1417.00,0.0327
1416.00,0.0311
1415.00,0.0295
1414.00,0.0282
1413.00,0.0271
1412.00,0.0264
1411.00,0.0259
1410.00,0.0258
1409.00,0.0259
1408.00,0.0263
1407.00,0.0269
1406.00,0.0278
1405.00,0.0289
1404.00,0.0298
1403.00,0.0306
1402.00,0.0310
1401.00,0.0310
1400.00,0.0307
1399.00,0.0300
1398.00,0.0291
1397.00,0.0278
1396.00,0.0264
1395.00,0.0248
1394.00,0.0233
1393.00,0.0220
1392.00,0.0210
1391.00,0.0202
1390.00,0.0197
1389.00,0.0197
1388.00,0.0201
1387.00,0.0206
1386.00,0.0210
1385.00,0.0211
1384.00,0.0210
1383.00,0.0211
1382.00,0.0214
1381.00,0.0219
1380.00,0.0223
1379.00,0.0226
1378.00,0.0228
1377.00,0.0228
1376.00,0.0225
1375.00,0.0220
1374.00,0.0213
1373.00,0.0206
1372.00,0.0199
1371.00,0.0196
1370.00,0.0195
1369.00,0.0197
1368.00,0.0202
1367.00,0.0209
1366.00,0.0216
1365.00,0.0221
1364.00,0.0226
1363.00,0.0233
1362.00,0.0241
1361.00,0.0249
1360.00,0.0252
1359.00,0.0249
1358.00,0.0239
1357.00,0.0225
1356.00,0.0211
1355.00,0.0200
1354.00,0.0191
1353.00,0.0185
1352.00,0.0181
1351.00,0.0178
1350.00,0.0177
1349.00,0.0177
1348.00,0.0177
1347.00,0.0176
1346.00,0.0175
1345.00,0.0173
1344.00,0.0171
1343.00,0.0168
1342.00,0.0166
1341.00,0.0163
1340.00,0.0160
1339.00,0.0158
1338.00,0.0156
1337.00,0.0155
1336.00,0.0155
1335.00,0.0156
1334.00,0.0159
1333.00,0.0161
1332.00,0.0163
1331.00,0.0165
1330.00,0.0168
1329.00,0.0170
1328.00,0.0171
1327.00,0.0172
1326.00,0.0174
1325.00,0.0175
1324.00,0.0177
1323.00,0.0180
1322.00,0.0183
1321.00,0.0186
1320.00,0.0188
1319.00,0.0189
1318.00,0.0189
1317.00,0.0188
1316.00,0.0186
1315.00,0.0183
1314.00,0.0180
1313.00,0.0178
1312.00,0.0177
1311.00,0.0177
1310.00,0.0179
1309.00,0.0182
1308.00,0.0186
1307.00,0.0192
1306.00,0.0200
1305.00,0.0210
1304.00,0.0221
1303.00,0.0233
1302.00,0.0245
1301.00,0.0256
1300.00,0.0266
1299.00,0.0276
1298.00,0.0287
1297.00,0.0301
1296.00,0.0317
1295.00,0.0336
1294.00,0.0355
1293.00,0.0372
1292.00,0.0388
1291.00,0.0401
1290.00,0.0413
1289.00,0.0423
1288.00,0.0431
1287.00,0.0439
1286.00,0.0444
1285.00,0.0446
1284.00,0.0444
1283.00,0.0439
1282.00,0.0430
1281.00,0.0418
1280.00,0.0406
1279.00,0.0393
1278.00,0.0383
1277.00,0.0374
1276.00,0.0367
1275.00,0.0362
1274.00,0.0358
1273.00,0.0352
1272.00,0.0346
1271.00,0.0338
1270.00,0.0328
1269.00,0.0318
1268.00,0.0306
1267.00,0.0294
1266.00,0.0282
1265.00,0.0270
1264.00,0.0257
1263.00,0.0245
1262.00,0.0234
1261.00,0.0223
1260.00,0.0213
1259.00,0.0204
1258.00,0.0196
1257.00,0.0189
1256.00,0.0183
1255.00,0.0178
1254.00,0.0174
1253.00,0.0171
1252.00,0.0169
1251.00,0.0170
1250.00,0.0172
1249.00,0.0176
1248.00,0.0181
1247.00,0.0188
1246.00,0.0196
1245.00,0.0204
1244.00,0.0212
1243.00,0.0220
1242.00,0.0226
1241.00,0.0232
1240.00,0.0238
1239.00,0.0244
1238.00,0.0252
1237.00,0.0260
1236.00,0.0267
1235.00,0.0272
1234.00,0.0275
1233.00,0.0275
1232.00,0.0273
1231.00,0.0268
1230.00,0.0262
1229.00,0.0256
1228.00,0.0249
1227.00,0.0244
1226.00,0.0240
1225.00,0.0236
1224.00,0.0233
1223.00,0.0231
1222.00,0.0231
1221.00,0.0231
1220.00,0.0232
1219.00,0.0234
1218.00,0.0236
1217.00,0.0238
1216.00,0.0239
1215.00,0.0238
1214.00,0.0235
1213.00,0.0229
1212.00,0.0221
1211.00,0.0212
1210.00,0.0202
1209.00,0.0193
1208.00,0.0186
1207.00,0.0180
1206.00,0.0177
1205.00,0.0176
1204.00,0.0178
1203.00,0.0182
1202.00,0.0189
1201.00,0.0197
1200.00,0.0207
1199.00,0.0219
1198.00,0.0232
1197.00,0.0246
1196.00,0.0258
1195.00,0.0265
1194.00,0.0268
1193.00,0.0266
1192.00,0.0259
1191.00,0.0248
1190.00,0.0236
1189.00,0.0222
1188.00,0.0209
1187.00,0.0196
1186.00,0.0185
1185.00,0.0175
1184.00,0.0167
1183.00,0.0160
1182.00,0.0156
1181.00,0.0152
1180.00,0.0149
1179.00,0.0147
1178.00,0.0145
1177.00,0.0145
1176.00,0.0144
1175.00,0.0144
1174.00,0.0145
1173.00,0.0146
1172.00,0.0147
1171.00,0.0148
1170.00,0.0149
1169.00,0.0150
1168.00,0.0152
1167.00,0.0154
1166.00,0.0158
1165.00,0.0161
1164.00,0.0166
1163.00,0.0172
1162.00,0.0179
1161.00,0.0189
1160.00,0.0200
1159.00,0.0213
1158.00,0.0229
1157.00,0.0245
1156.00,0.0258
1155.00,0.0266
1154.00,0.0267
1153.00,0.0258
1152.00,0.0241
1151.00,0.0221
1150.00,0.0201
1149.00,0.0183
1148.00,0.0168
1147.00,0.0157
1146.00,0.0148
1145.00,0.0142
1144.00,0.0138
1143.00,0.0135
1142.00,0.0134
1141.00,0.0134
1140.00,0.0135
1139.00,0.0138
1138.00,0.0143
1137.00,0.0150
1136.00,0.0161
1135.00,0.0175
1134.00,0.0194
1133.00,0.0217
1132.00,0.0242
1131.00,0.0266
1130.00,0.0285
1129.00,0.0296
1128.00,0.0296
1127.00,0.0289
1126.00,0.0276
1125.00,0.0259
1124.00,0.0241
1123.00,0.0222
1122.00,0.0204
1121.00,0.0190
1120.00,0.0178
1119.00,0.0170
1118.00,0.0165
1117.00,0.0162
1116.00,0.0160
1115.00,0.0160
1114.00,0.0160
1113.00,0.0159
1112.00,0.0157
1111.00,0.0155
1110.00,0.0154
1109.00,0.0153
1108.00,0.0153
1107.00,0.0154
1106.00,0.0157
1105.00,0.0163
1104.00,0.0171
1103.00,0.0182
1102.00,0.0194
1101.00,0.0205
1100.00,0.0212
1099.00,0.0213
1098.00,0.0208
1097.00,0.0199
1096.00,0.0186
1095.00,0.0173
1094.00,0.0161
1093.00,0.0150
1092.00,0.0141
1091.00,0.0134
1090.00,0.0128
1089.00,0.0124
1088.00,0.0120
1087.00,0.0118
1086.00,0.0116
1085.00,0.0114
1084.00,0.0112
1083.00,0.0111
1082.00,0.0111
1081.00,0.0112
1080.00,0.0112
1079.00,0.0113
1078.00,0.0115
1077.00,0.0117
1076.00,0.0118
1075.00,0.0120
1074.00,0.0123
1073.00,0.0126
1072.00,0.0129
1071.00,0.0133
1070.00,0.0139
1069.00,0.0146
1068.00,0.0153
1067.00,0.0161
1066.00,0.0171
1065.00,0.0183
1064.00,0.0196
1063.00,0.0210
1062.00,0.0226
1061.00,0.0244
1060.00,0.0263
1059.00,0.0284
1058.00,0.0307
1057.00,0.0328
1056.00,0.0345
1055.00,0.0356
1054.00,0.0362
1053.00,0.0362
1052.00,0.0359
1051.00,0.0353
1050.00,0.0346
1049.00,0.0337
1048.00,0.0324
1047.00,0.0308
1046.00,0.0290
1045.00,0.0272
1044.00,0.0253
1043.00,0.0237
1042.00,0.0223
1041.00,0.0212
1040.00,0.0203
1039.00,0.0198
1038.00,0.0195
1037.00,0.0195
1036.00,0.0197
1035.00,0.0198
1034.00,0.0201
1033.00,0.0206
1032.00,0.0213
1031.00,0.0225
1030.00,0.0242
1029.00,0.0261
1028.00,0.0279
1027.00,0.0290
1026.00,0.0293
1025.00,0.0286
1024.00,0.0271
1023.00,0.0255
1022.00,0.0238
1021.00,0.0224
1020.00,0.0211
1019.00,0.0199
1018.00,0.0190
1017.00,0.0182
1016.00,0.0174
1015.00,0.0167
1014.00,0.0161
1013.00,0.0156
1012.00,0.0152
1011.00,0.0150
1010.00,0.0152
1009.00,0.0156
1008.00,0.0162
1007.00,0.0169
1006.00,0.0177
1005.00,0.0185
1004.00,0.0191
1003.00,0.0193
1002.00,0.0193
1001.00,0.0190
1000.00,0.0185
999.00,0.0179
998.00,0.0175
997.00,0.0171
996.00,0.0168
995.00,0.0165
994.00,0.0163
993.00,0.0160
992.00,0.0156
991.00,0.0151
990.00,0.0146
989.00,0.0141
988.00,0.0136
987.00,0.0131
986.00,0.0127
985.00,0.0124
984.00,0.0121
983.00,0.0119
982.00,0.0118
981.00,0.0117
980.00,0.0116
979.00,0.0116
978.00,0.0115
977.00,0.0115
976.00,0.0115
975.00,0.0114
974.00,0.0113
973.00,0.0112
972.00,0.0111
971.00,0.0110
970.00,0.0110
969.00,0.0110
968.00,0.0110
967.00,0.0111
966.00,0.0113
965.00,0.0115
964.00,0.0117
963.00,0.0121
962.00,0.0126
961.00,0.0131
960.00,0.0134
959.00,0.0137
958.00,0.0140
957.00,0.0141
956.00,0.0142
955.00,0.0141
954.00,0.0138
953.00,0.0135
952.00,0.0130
951.00,0.0125
950.00,0.0121
949.00,0.0117
948.00,0.0113
947.00,0.0109
946.00,0.0106
945.00,0.0104
944.00,0.0103
943.00,0.0104
942.00,0.0106
941.00,0.0109
940.00,0.0113
939.00,0.0116
938.00,0.0119
937.00,0.0122
936.00,0.0125
935.00,0.0128
934.00,0.0131
933.00,0.0133
932.00,0.0133
931.00,0.0132
930.00,0.0130
929.00,0.0129
928.00,0.0127
927.00,0.0127
926.00,0.0128
925.00,0.0129
924.00,0.0131
923.00,0.0133
922.00,0.0134
921.00,0.0134
920.00,0.0131
919.00,0.0127
918.00,0.0123
917.00,0.0118
916.00,0.0113
915.00,0.0109
914.00,0.0105
913.00,0.0103
912.00,0.0101
911.00,0.0100
910.00,0.0100
909.00,0.0101
908.00,0.0101
907.00,0.0102
906.00,0.0105
905.00,0.0108
904.00,0.0113
903.00,0.0120
902.00,0.0128
901.00,0.0136
900.00,0.0141
899.00,0.0144
898.00,0.0143
897.00,0.0140
896.00,0.0135
895.00,0.0130
894.00,0.0127
893.00,0.0126
892.00,0.0129
891.00,0.0133
890.00,0.0137
889.00,0.0138
888.00,0.0133
887.00,0.0125
886.00,0.0119
885.00,0.0114
884.00,0.0112
883.00,0.0111
882.00,0.0113
881.00,0.0115
880.00,0.0118
879.00,0.0123
878.00,0.0130
877.00,0.0140
876.00,0.0152
875.00,0.0168
874.00,0.0187
873.00,0.0206
872.00,0.0225
871.00,0.0239
870.00,0.0247
869.00,0.0248
868.00,0.0242
867.00,0.0233
866.00,0.0224
865.00,0.0215
864.00,0.0206
863.00,0.0196
862.00,0.0188
861.00,0.0180
860.00,0.0174
859.00,0.0171
858.00,0.0172
857.00,0.0177
856.00,0.0184
855.00,0.0192
854.00,0.0201
853.00,0.0210
852.00,0.0219
851.00,0.0230
850.00,0.0241
849.00,0.0247
848.00,0.0247
847.00,0.0242
846.00,0.0235
845.00,0.0228
844.00,0.0220
843.00,0.0215
842.00,0.0211
841.00,0.0209
840.00,0.0209
839.00,0.0213
838.00,0.0221
837.00,0.0232
836.00,0.0242
835.00,0.0251
834.00,0.0256
833.00,0.0257
832.00,0.0253
831.00,0.0246
830.00,0.0236
829.00,0.0224
828.00,0.0212
827.00,0.0201
826.00,0.0193
825.00,0.0191
824.00,0.0195
823.00,0.0210
822.00,0.0236
821.00,0.0266
820.00,0.0291
819.00,0.0308
818.00,0.0322
817.00,0.0335
816.00,0.0343
815.00,0.0339
814.00,0.0319
813.00,0.0288
812.00,0.0256
811.00,0.0230
810.00,0.0209
809.00,0.0193
808.00,0.0180
807.00,0.0169
806.00,0.0161
805.00,0.0154
804.00,0.0148
803.00,0.0144
802.00,0.0142
801.00,0.0139
800.00,0.0136
799.00,0.0134
798.00,0.0133
797.00,0.0132
796.00,0.0131
795.00,0.0131
794.00,0.0131
793.00,0.0131
792.00,0.0131
791.00,0.0131
790.00,0.0130
789.00,0.0130
788.00,0.0129
787.00,0.0128
786.00,0.0128
785.00,0.0128
784.00,0.0127
783.00,0.0127
782.00,0.0128
781.00,0.0130
780.00,0.0131
779.00,0.0133
778.00,0.0136
777.00,0.0141
776.00,0.0145
775.00,0.0150
774.00,0.0152
773.00,0.0152
772.00,0.0148
771.00,0.0145
770.00,0.0143
769.00,0.0141
768.00,0.0140
767.00,0.0139
766.00,0.0139
765.00,0.0140
764.00,0.0142
763.00,0.0144
762.00,0.0149
761.00,0.0154
760.00,0.0157
759.00,0.0160
758.00,0.0162
757.00,0.0162
756.00,0.0161
755.00,0.0160
754.00,0.0161
753.00,0.0162
752.00,0.0162
751.00,0.0163
750.00,0.0165
749.00,0.0167
748.00,0.0170
747.00,0.0172
746.00,0.0175
745.00,0.0178
744.00,0.0181
743.00,0.0185
742.00,0.0190
741.00,0.0197
740.00,0.0205
739.00,0.0216
738.00,0.0229
737.00,0.0243
736.00,0.0255
735.00,0.0262
734.00,0.0263
733.00,0.0259
732.00,0.0253
731.00,0.0250
730.00,0.0251
729.00,0.0252
728.00,0.0249
727.00,0.0242
726.00,0.0231
725.00,0.0219
724.00,0.0208
723.00,0.0199
722.00,0.0193
721.00,0.0189
720.00,0.0187
719.00,0.0188
718.00,0.0191
717.00,0.0197
716.00,0.0202
715.00,0.0205
714.00,0.0206
713.00,0.0205
712.00,0.0202
711.00,0.0199
710.00,0.0196
709.00,0.0193
708.00,0.0190
707.00,0.0188
706.00,0.0189
705.00,0.0190
704.00,0.0192
703.00,0.0194
702.00,0.0197
701.00,0.0201
700.00,0.0204
699.00,0.0207
698.00,0.0210
697.00,0.0211
696.00,0.0211
695.00,0.0210
694.00,0.0210
693.00,0.0211
692.00,0.0214
691.00,0.0219
690.00,0.0226
689.00,0.0233
688.00,0.0237
687.00,0.0237
686.00,0.0235
685.00,0.0231
684.00,0.0227
683.00,0.0224
682.00,0.0223
681.00,0.0224
680.00,0.0225
679.00,0.0227
678.00,0.0232
677.00,0.0236
676.00,0.0240
675.00,0.0245
674.00,0.0251
673.00,0.0258
672.00,0.0263
671.00,0.0268
670.00,0.0273
669.00,0.0276
668.00,0.0277
667.00,0.0277
666.00,0.0278
665.00,0.0280
664.00,0.0284
663.00,0.0289
662.00,0.0295
661.00,0.0299
660.00,0.0300
659.00,0.0300
658.00,0.0300
657.00,0.0299
656.00,0.0297
655.00,0.0296
654.00,0.0295
653.00,0.0296
652.00,0.0296
651.00,0.0297
650.00,0.0298
649.00,0.0299
648.00,0.0298
647.00,0.0297
646.00,0.0296
645.00,0.0294
644.00,0.0291
643.00,0.0287
642.00,0.0285
641.00,0.0281
640.00,0.0277
639.00,0.0273
638.00,0.0270
637.00,0.0267
636.00,0.0263
635.00,0.0260
634.00,0.0258
633.00,0.0257
632.00,0.0255
631.00,0.0254
630.00,0.0255
629.00,0.0255
628.00,0.0256
627.00,0.0257
626.00,0.0259
625.00,0.0262
624.00,0.0264
623.00,0.0267
622.00,0.0271
621.00,0.0274
620.00,0.0275
619.00,0.0274
618.00,0.0273
617.00,0.0270
616.00,0.0264
615.00,0.0258
614.00,0.0254
613.00,0.0251
612.00,0.0248
611.00,0.0247
610.00,0.0250
609.00,0.0256
608.00,0.0263
607.00,0.0272
606.00,0.0284
605.00,0.0295
604.00,0.0304
603.00,0.0313
602.00,0.0321
601.00,0.0327
600.00,0.0329
599.00,0.0329
598.00,0.0330
597.00,0.0329
596.00,0.0328
595.00,0.0328
594.00,0.0329
593.00,0.0330
592.00,0.0328
591.00,0.0327
590.00,0.0326
589.00,0.0326
588.00,0.0325
587.00,0.0327
586.00,0.0332
585.00,0.0338
584.00,0.0342
583.00,0.0346
582.00,0.0352
581.00,0.0357
580.00,0.0362
579.00,0.0369
578.00,0.0380
577.00,0.0388
576.00,0.0391
575.00,0.0388
574.00,0.0382
573.00,0.0374
572.00,0.0364
571.00,0.0355
570.00,0.0349
569.00,0.0344
568.00,0.0338
567.00,0.0335
566.00,0.0336
565.00,0.0337
564.00,0.0339
563.00,0.0343
562.00,0.0352
561.00,0.0359
560.00,0.0362
559.00,0.0362
558.00,0.0359
557.00,0.0354
556.00,0.0345
555.00,0.0337
554.00,0.0331
553.00,0.0326
552.00,0.0322
551.00,0.0323
550.00,0.0329
549.00,0.0339
548.00,0.0347
547.00,0.0354
546.00,0.0359
545.00,0.0359
544.00,0.0354
543.00,0.0347
542.00,0.0341
541.00,0.0335
540.00,0.0328
539.00,0.0324
538.00,0.0323
537.00,0.0325
536.00,0.0327
535.00,0.0332
534.00,0.0342
533.00,0.0353
532.00,0.0358
531.00,0.0360
530.00,0.0359
529.00,0.0354
528.00,0.0345
527.00,0.0336
526.00,0.0328
525.00,0.0320
524.00,0.0309
523.00,0.0299
522.00,0.0293
521.00,0.0289
520.00,0.0284
519.00,0.0283
518.00,0.0285
517.00,0.0286
516.00,0.0282
515.00,0.0278
514.00,0.0277
513.00,0.0277
512.00,0.0275
511.00,0.0276
510.00,0.0280
509.00,0.0285
508.00,0.0286
507.00,0.0287
506.00,0.0289
505.00,0.0290
504.00,0.0286
503.00,0.0282
502.00,0.0278
501.00,0.0274
500.00,0.0269
499.00,0.0268
498.00,0.0271
497.00,0.0275
496.00,0.0275
495.00,0.0275
494.00,0.0279
493.00,0.0284
492.00,0.0285
491.00,0.0285
490.00,0.0286
489.00,0.0285
488.00,0.0281
487.00,0.0278
486.00,0.0279
485.00,0.0279
484.00,0.0274
483.00,0.0267
482.00,0.0265
481.00,0.0265
480.00,0.0262
479.00,0.0261
478.00,0.0263
477.00,0.0264
476.00,0.0261
475.00,0.0259
474.00,0.0261
473.00,0.0261
472.00,0.0258
471.00,0.0256
470.00,0.0257
469.00,0.0255
468.00,0.0249
467.00,0.0248
466.00,0.0254
465.00,0.0258
464.00,0.0256
463.00,0.0251
462.00,0.0250
461.00,0.0249
460.00,0.0242
459.00,0.0234
458.00,0.0233
457.00,0.0235
456.00,0.0235
455.00,0.0237
454.00,0.0243
453.00,0.0247
452.00,0.0245
451.00,0.0243
450.00,0.0246
449.00,0.0248
448.00,0.0245
447.00,0.0242
446.00,0.0244
445.00,0.0243
444.00,0.0237
443.00,0.0232
442.00,0.0236
441.00,0.0240
440.00,0.0239
439.00,0.0239
438.00,0.0244
437.00,0.0247
436.00,0.0243
435.00,0.0238
434.00,0.0240
433.00,0.0243
432.00,0.0240
431.00,0.0238
430.00,0.0240
429.00,0.0239
428.00,0.0231
427.00,0.0224
426.00,0.0227
425.00,0.0229
424.00,0.0221
423.00,0.0214
422.00,0.0216
421.00,0.0219
420.00,0.0214
419.00,0.0213
418.00,0.0224
417.00,0.0232
416.00,0.0230
415.00,0.0231
414.00,0.0244
413.00,0.0254
412.00,0.0254
411.00,0.0255
410.00,0.0265
409.00,0.0271
408.00,0.0259
407.00,0.0247
406.00,0.0250
405.00,0.0256
404.00,0.0256
403.00,0.0257
402.00,0.0266
401.00,0.0259
400.00,0.0227
