Created as New Dataset,Sample 972 By YargerLab Date Wednesday, July 30 2025
cm-1,A
4000.00,0.0009
3999.00,0.0009
3998.00,0.0009
3997.00,0.0009
3996.00,0.0009
3995.00,0.0009
3994.00,0.0009
3993.00,0.0009
3992.00,0.0009
3991.00,0.0010
3990.00,0.0010
3989.00,0.0010
3988.00,0.0010
3987.00,0.0010
3986.00,0.0010
3985.00,0.0010
3984.00,0.0010
3983.00,0.0009
3982.00,0.0009
3981.00,0.0009
3980.00,0.0009
3979.00,0.0009
3978.00,0.0009
3977.00,0.0009
3976.00,0.0009
3975.00,0.0009
3974.00,0.0009
3973.00,0.0009
3972.00,0.0009
3971.00,0.0009
3970.00,0.0009
3969.00,0.0009
3968.00,0.0009
3967.00,0.0009
3966.00,0.0009
3965.00,0.0009
3964.00,0.0009
3963.00,0.0009
3962.00,0.0009
3961.00,0.0009
3960.00,0.0009
3959.00,0.0009
3958.00,0.0009
3957.00,0.0009
3956.00,0.0009
3955.00,0.0009
3954.00,0.0009
3953.00,0.0009
3952.00,0.0009
3951.00,0.0009
3950.00,0.0009
3949.00,0.0009
3948.00,0.0009
3947.00,0.0009
3946.00,0.0009
3945.00,0.0009
3944.00,0.0009
3943.00,0.0009
3942.00,0.0009
3941.00,0.0009
3940.00,0.0009
3939.00,0.0009
3938.00,0.0009
3937.00,0.0009
3936.00,0.0009
3935.00,0.0009
3934.00,0.0009
3933.00,0.0009
3932.00,0.0009
3931.00,0.0009
3930.00,0.0009
3929.00,0.0009
3928.00,0.0009
3927.00,0.0009
3926.00,0.0009
3925.00,0.0009
3924.00,0.0009
3923.00,0.0009
3922.00,0.0009
3921.00,0.0009
3920.00,0.0009
3919.00,0.0009
3918.00,0.0008
3917.00,0.0008
3916.00,0.0008
3915.00,0.0009
3914.00,0.0009
3913.00,0.0009
3912.00,0.0009
3911.00,0.0009
3910.00,0.0009
3909.00,0.0009
3908.00,0.0009
3907.00,0.0009
3906.00,0.0009
3905.00,0.0009
3904.00,0.0009
3903.00,0.0008
3902.00,0.0008
3901.00,0.0008
3900.00,0.0007
3899.00,0.0008
3898.00,0.0008
3897.00,0.0008
3896.00,0.0008
3895.00,0.0008
3894.00,0.0009
3893.00,0.0009
3892.00,0.0009
3891.00,0.0009
3890.00,0.0009
3889.00,0.0009
3888.00,0.0009
3887.00,0.0009
3886.00,0.0009
3885.00,0.0009
3884.00,0.0009
3883.00,0.0008
3882.00,0.0008
3881.00,0.0008
3880.00,0.0008
3879.00,0.0008
3878.00,0.0008
3877.00,0.0009
3876.00,0.0008
3875.00,0.0009
3874.00,0.0009
3873.00,0.0009
3872.00,0.0009
3871.00,0.0009
3870.00,0.0008
3869.00,0.0008
3868.00,0.0008
3867.00,0.0008
3866.00,0.0007
3865.00,0.0007
3864.00,0.0008
3863.00,0.0008
3862.00,0.0008
3861.00,0.0008
3860.00,0.0008
3859.00,0.0008
3858.00,0.0009
3857.00,0.0009
3856.00,0.0009
3855.00,0.0008
3854.00,0.0008
3853.00,0.0008
3852.00,0.0008
3851.00,0.0008
3850.00,0.0008
3849.00,0.0008
3848.00,0.0008
3847.00,0.0008
3846.00,0.0009
3845.00,0.0009
3844.00,0.0009
3843.00,0.0009
3842.00,0.0009
3841.00,0.0008
3840.00,0.0008
3839.00,0.0008
3838.00,0.0008
3837.00,0.0008
3836.00,0.0008
3835.00,0.0008
3834.00,0.0008
3833.00,0.0008
3832.00,0.0008
3831.00,0.0008
3830.00,0.0008
3829.00,0.0008
3828.00,0.0008
3827.00,0.0009
3826.00,0.0009
3825.00,0.0009
3824.00,0.0009
3823.00,0.0008
3822.00,0.0008
3821.00,0.0008
3820.00,0.0008
3819.00,0.0008
3818.00,0.0007
3817.00,0.0007
3816.00,0.0007
3815.00,0.0007
3814.00,0.0008
3813.00,0.0008
3812.00,0.0008
3811.00,0.0008
3810.00,0.0008
3809.00,0.0008
3808.00,0.0008
3807.00,0.0009
3806.00,0.0009
3805.00,0.0009
3804.00,0.0008
3803.00,0.0007
3802.00,0.0007
3801.00,0.0007
3800.00,0.0008
3799.00,0.0008
3798.00,0.0008
3797.00,0.0008
3796.00,0.0008
3795.00,0.0008
3794.00,0.0009
3793.00,0.0009
3792.00,0.0009
3791.00,0.0009
3790.00,0.0009
3789.00,0.0009
3788.00,0.0009
3787.00,0.0009
3786.00,0.0008
3785.00,0.0008
3784.00,0.0008
3783.00,0.0008
3782.00,0.0008
3781.00,0.0009
3780.00,0.0009
3779.00,0.0009
3778.00,0.0009
3777.00,0.0008
3776.00,0.0008
3775.00,0.0008
3774.00,0.0009
3773.00,0.0009
3772.00,0.0009
3771.00,0.0009
3770.00,0.0009
3769.00,0.0009
3768.00,0.0009
3767.00,0.0009
3766.00,0.0009
3765.00,0.0008
3764.00,0.0008
3763.00,0.0008
3762.00,0.0008
3761.00,0.0008
3760.00,0.0008
3759.00,0.0008
3758.00,0.0008
3757.00,0.0008
3756.00,0.0008
3755.00,0.0008
3754.00,0.0008
3753.00,0.0008
3752.00,0.0008
3751.00,0.0008
3750.00,0.0008
3749.00,0.0008
3748.00,0.0008
3747.00,0.0008
3746.00,0.0008
3745.00,0.0008
3744.00,0.0008
3743.00,0.0008
3742.00,0.0008
3741.00,0.0008
3740.00,0.0007
3739.00,0.0007
3738.00,0.0007
3737.00,0.0007
3736.00,0.0007
3735.00,0.0006
3734.00,0.0005
3733.00,0.0005
3732.00,0.0005
3731.00,0.0006
3730.00,0.0006
3729.00,0.0007
3728.00,0.0007
3727.00,0.0007
3726.00,0.0007
3725.00,0.0008
3724.00,0.0008
3723.00,0.0008
3722.00,0.0008
3721.00,0.0007
3720.00,0.0007
3719.00,0.0007
3718.00,0.0007
3717.00,0.0007
3716.00,0.0007
3715.00,0.0007
3714.00,0.0007
3713.00,0.0007
3712.00,0.0007
3711.00,0.0007
3710.00,0.0007
3709.00,0.0007
3708.00,0.0007
3707.00,0.0007
3706.00,0.0007
3705.00,0.0007
3704.00,0.0007
3703.00,0.0007
3702.00,0.0007
3701.00,0.0007
3700.00,0.0007
3699.00,0.0007
3698.00,0.0007
3697.00,0.0007
3696.00,0.0007
3695.00,0.0008
3694.00,0.0008
3693.00,0.0008
3692.00,0.0008
3691.00,0.0008
3690.00,0.0008
3689.00,0.0008
3688.00,0.0008
3687.00,0.0008
3686.00,0.0008
3685.00,0.0008
3684.00,0.0008
3683.00,0.0008
3682.00,0.0009
3681.00,0.0009
3680.00,0.0009
3679.00,0.0010
3678.00,0.0010
3677.00,0.0010
3676.00,0.0009
3675.00,0.0010
3674.00,0.0010
3673.00,0.0010
3672.00,0.0009
3671.00,0.0009
3670.00,0.0009
3669.00,0.0009
3668.00,0.0009
3667.00,0.0009
3666.00,0.0009
3665.00,0.0010
3664.00,0.0010
3663.00,0.0010
3662.00,0.0011
3661.00,0.0011
3660.00,0.0011
3659.00,0.0011
3658.00,0.0011
3657.00,0.0011
3656.00,0.0012
3655.00,0.0012
3654.00,0.0013
3653.00,0.0013
3652.00,0.0013
3651.00,0.0013
3650.00,0.0013
3649.00,0.0012
3648.00,0.0012
3647.00,0.0012
3646.00,0.0012
3645.00,0.0013
3644.00,0.0013
3643.00,0.0013
3642.00,0.0014
3641.00,0.0014
3640.00,0.0014
3639.00,0.0014
3638.00,0.0014
3637.00,0.0015
3636.00,0.0015
3635.00,0.0015
3634.00,0.0015
3633.00,0.0016
3632.00,0.0016
3631.00,0.0016
3630.00,0.0015
3629.00,0.0015
3628.00,0.0015
3627.00,0.0016
3626.00,0.0016
3625.00,0.0016
3624.00,0.0016
3623.00,0.0017
3622.00,0.0017
3621.00,0.0017
3620.00,0.0017
3619.00,0.0017
3618.00,0.0017
3617.00,0.0018
3616.00,0.0018
3615.00,0.0019
3614.00,0.0019
3613.00,0.0020
3612.00,0.0020
3611.00,0.0021
3610.00,0.0021
3609.00,0.0021
3608.00,0.0021
3607.00,0.0022
3606.00,0.0022
3605.00,0.0022
3604.00,0.0022
3603.00,0.0022
3602.00,0.0023
3601.00,0.0023
3600.00,0.0023
3599.00,0.0024
3598.00,0.0024
3597.00,0.0024
3596.00,0.0025
3595.00,0.0025
3594.00,0.0026
3593.00,0.0026
3592.00,0.0027
3591.00,0.0027
3590.00,0.0027
3589.00,0.0027
3588.00,0.0028
3587.00,0.0028
3586.00,0.0029
3585.00,0.0030
3584.00,0.0030
3583.00,0.0031
3582.00,0.0031
3581.00,0.0032
3580.00,0.0032
3579.00,0.0033
3578.00,0.0033
3577.00,0.0033
3576.00,0.0033
3575.00,0.0034
3574.00,0.0034
3573.00,0.0035
3572.00,0.0035
3571.00,0.0036
3570.00,0.0036
3569.00,0.0037
3568.00,0.0037
3567.00,0.0037
3566.00,0.0038
3565.00,0.0038
3564.00,0.0038
3563.00,0.0039
3562.00,0.0039
3561.00,0.0039
3560.00,0.0040
3559.00,0.0040
3558.00,0.0040
3557.00,0.0041
3556.00,0.0042
3555.00,0.0042
3554.00,0.0043
3553.00,0.0043
3552.00,0.0044
3551.00,0.0044
3550.00,0.0044
3549.00,0.0045
3548.00,0.0045
3547.00,0.0046
3546.00,0.0046
3545.00,0.0046
3544.00,0.0046
3543.00,0.0046
3542.00,0.0046
3541.00,0.0046
3540.00,0.0046
3539.00,0.0047
3538.00,0.0047
3537.00,0.0048
3536.00,0.0048
3535.00,0.0049
3534.00,0.0049
3533.00,0.0050
3532.00,0.0050
3531.00,0.0050
3530.00,0.0050
3529.00,0.0050
3528.00,0.0051
3527.00,0.0051
3526.00,0.0051
3525.00,0.0051
3524.00,0.0052
3523.00,0.0052
3522.00,0.0052
3521.00,0.0053
3520.00,0.0053
3519.00,0.0053
3518.00,0.0053
3517.00,0.0054
3516.00,0.0054
3515.00,0.0055
3514.00,0.0055
3513.00,0.0055
3512.00,0.0055
3511.00,0.0055
3510.00,0.0055
3509.00,0.0055
3508.00,0.0055
3507.00,0.0056
3506.00,0.0056
3505.00,0.0056
3504.00,0.0057
3503.00,0.0057
3502.00,0.0057
3501.00,0.0057
3500.00,0.0058
3499.00,0.0058
3498.00,0.0058
3497.00,0.0058
3496.00,0.0058
3495.00,0.0058
3494.00,0.0059
3493.00,0.0059
3492.00,0.0059
3491.00,0.0059
3490.00,0.0059
3489.00,0.0059
3488.00,0.0060
3487.00,0.0060
3486.00,0.0060
3485.00,0.0060
3484.00,0.0060
3483.00,0.0060
3482.00,0.0061
3481.00,0.0061
3480.00,0.0061
3479.00,0.0062
3478.00,0.0062
3477.00,0.0062
3476.00,0.0062
3475.00,0.0062
3474.00,0.0062
3473.00,0.0062
3472.00,0.0063
3471.00,0.0063
3470.00,0.0063
3469.00,0.0064
3468.00,0.0064
3467.00,0.0064
3466.00,0.0064
3465.00,0.0064
3464.00,0.0064
3463.00,0.0064
3462.00,0.0064
3461.00,0.0064
3460.00,0.0065
3459.00,0.0065
3458.00,0.0065
3457.00,0.0065
3456.00,0.0065
3455.00,0.0065
3454.00,0.0065
3453.00,0.0065
3452.00,0.0065
3451.00,0.0065
3450.00,0.0065
3449.00,0.0065
3448.00,0.0065
3447.00,0.0066
3446.00,0.0066
3445.00,0.0066
3444.00,0.0066
3443.00,0.0066
3442.00,0.0065
3441.00,0.0065
3440.00,0.0065
3439.00,0.0065
3438.00,0.0066
3437.00,0.0066
3436.00,0.0066
3435.00,0.0066
3434.00,0.0065
3433.00,0.0065
3432.00,0.0065
3431.00,0.0066
3430.00,0.0066
3429.00,0.0066
3428.00,0.0066
3427.00,0.0066
3426.00,0.0066
3425.00,0.0065
3424.00,0.0065
3423.00,0.0065
3422.00,0.0065
3421.00,0.0065
3420.00,0.0065
3419.00,0.0065
3418.00,0.0065
3417.00,0.0065
3416.00,0.0065
3415.00,0.0065
3414.00,0.0065
3413.00,0.0065
3412.00,0.0065
3411.00,0.0065
3410.00,0.0064
3409.00,0.0064
3408.00,0.0064
3407.00,0.0064
3406.00,0.0064
3405.00,0.0064
3404.00,0.0064
3403.00,0.0064
3402.00,0.0064
3401.00,0.0064
3400.00,0.0064
3399.00,0.0064
3398.00,0.0064
3397.00,0.0064
3396.00,0.0064
3395.00,0.0063
3394.00,0.0063
3393.00,0.0063
3392.00,0.0063
3391.00,0.0064
3390.00,0.0064
3389.00,0.0064
3388.00,0.0064
3387.00,0.0064
3386.00,0.0064
3385.00,0.0064
3384.00,0.0064
3383.00,0.0064
3382.00,0.0063
3381.00,0.0063
3380.00,0.0063
3379.00,0.0063
3378.00,0.0063
3377.00,0.0063
3376.00,0.0063
3375.00,0.0063
3374.00,0.0063
3373.00,0.0063
3372.00,0.0063
3371.00,0.0062
3370.00,0.0062
3369.00,0.0061
3368.00,0.0061
3367.00,0.0061
3366.00,0.0062
3365.00,0.0062
3364.00,0.0062
3363.00,0.0062
3362.00,0.0062
3361.00,0.0062
3360.00,0.0062
3359.00,0.0062
3358.00,0.0062
3357.00,0.0062
3356.00,0.0062
3355.00,0.0062
3354.00,0.0061
3353.00,0.0061
3352.00,0.0061
3351.00,0.0061
3350.00,0.0061
3349.00,0.0061
3348.00,0.0061
3347.00,0.0061
3346.00,0.0061
3345.00,0.0060
3344.00,0.0060
3343.00,0.0060
3342.00,0.0060
3341.00,0.0060
3340.00,0.0060
3339.00,0.0060
3338.00,0.0060
3337.00,0.0060
3336.00,0.0060
3335.00,0.0061
3334.00,0.0061
3333.00,0.0060
3332.00,0.0060
3331.00,0.0060
3330.00,0.0060
3329.00,0.0060
3328.00,0.0060
3327.00,0.0059
3326.00,0.0059
3325.00,0.0059
3324.00,0.0060
3323.00,0.0060
3322.00,0.0060
3321.00,0.0060
3320.00,0.0060
3319.00,0.0059
3318.00,0.0059
3317.00,0.0060
3316.00,0.0060
3315.00,0.0060
3314.00,0.0059
3313.00,0.0059
3312.00,0.0059
3311.00,0.0058
3310.00,0.0058
3309.00,0.0057
3308.00,0.0056
3307.00,0.0056
3306.00,0.0056
3305.00,0.0056
3304.00,0.0057
3303.00,0.0057
3302.00,0.0058
3301.00,0.0058
3300.00,0.0058
3299.00,0.0058
3298.00,0.0057
3297.00,0.0057
3296.00,0.0057
3295.00,0.0057
3294.00,0.0057
3293.00,0.0057
3292.00,0.0057
3291.00,0.0057
3290.00,0.0057
3289.00,0.0058
3288.00,0.0058
3287.00,0.0057
3286.00,0.0057
3285.00,0.0057
3284.00,0.0057
3283.00,0.0057
3282.00,0.0057
3281.00,0.0057
3280.00,0.0057
3279.00,0.0057
3278.00,0.0057
3277.00,0.0056
3276.00,0.0056
3275.00,0.0056
3274.00,0.0056
3273.00,0.0056
3272.00,0.0055
3271.00,0.0055
3270.00,0.0055
3269.00,0.0055
3268.00,0.0055
3267.00,0.0056
3266.00,0.0056
3265.00,0.0056
3264.00,0.0056
3263.00,0.0056
3262.00,0.0055
3261.00,0.0055
3260.00,0.0055
3259.00,0.0055
3258.00,0.0055
3257.00,0.0054
3256.00,0.0054
3255.00,0.0054
3254.00,0.0054
3253.00,0.0054
3252.00,0.0054
3251.00,0.0054
3250.00,0.0054
3249.00,0.0054
3248.00,0.0053
3247.00,0.0053
3246.00,0.0053
3245.00,0.0053
3244.00,0.0053
3243.00,0.0053
3242.00,0.0053
3241.00,0.0052
3240.00,0.0052
3239.00,0.0052
3238.00,0.0052
3237.00,0.0052
3236.00,0.0052
3235.00,0.0052
3234.00,0.0052
3233.00,0.0052
3232.00,0.0052
3231.00,0.0052
3230.00,0.0052
3229.00,0.0052
3228.00,0.0052
3227.00,0.0051
3226.00,0.0051
3225.00,0.0051
3224.00,0.0051
3223.00,0.0051
3222.00,0.0051
3221.00,0.0050
3220.00,0.0050
3219.00,0.0050
3218.00,0.0050
3217.00,0.0050
3216.00,0.0050
3215.00,0.0051
3214.00,0.0050
3213.00,0.0050
3212.00,0.0050
3211.00,0.0050
3210.00,0.0050
3209.00,0.0049
3208.00,0.0049
3207.00,0.0049
3206.00,0.0049
3205.00,0.0048
3204.00,0.0048
3203.00,0.0048
3202.00,0.0048
3201.00,0.0048
3200.00,0.0048
3199.00,0.0048
3198.00,0.0048
3197.00,0.0048
3196.00,0.0048
3195.00,0.0048
3194.00,0.0048
3193.00,0.0048
3192.00,0.0048
3191.00,0.0048
3190.00,0.0047
3189.00,0.0047
3188.00,0.0047
3187.00,0.0047
3186.00,0.0047
3185.00,0.0047
3184.00,0.0047
3183.00,0.0047
3182.00,0.0047
3181.00,0.0046
3180.00,0.0046
3179.00,0.0046
3178.00,0.0046
3177.00,0.0046
3176.00,0.0046
3175.00,0.0046
3174.00,0.0046
3173.00,0.0046
3172.00,0.0046
3171.00,0.0045
3170.00,0.0045
3169.00,0.0045
3168.00,0.0045
3167.00,0.0045
3166.00,0.0045
3165.00,0.0045
3164.00,0.0045
3163.00,0.0045
3162.00,0.0045
3161.00,0.0044
3160.00,0.0044
3159.00,0.0044
3158.00,0.0044
3157.00,0.0044
3156.00,0.0044
3155.00,0.0044
3154.00,0.0044
3153.00,0.0044
3152.00,0.0044
3151.00,0.0043
3150.00,0.0043
3149.00,0.0043
3148.00,0.0043
3147.00,0.0043
3146.00,0.0043
3145.00,0.0043
3144.00,0.0043
3143.00,0.0043
3142.00,0.0042
3141.00,0.0042
3140.00,0.0042
3139.00,0.0042
3138.00,0.0042
3137.00,0.0042
3136.00,0.0042
3135.00,0.0042
3134.00,0.0041
3133.00,0.0041
3132.00,0.0041
3131.00,0.0041
3130.00,0.0041
3129.00,0.0041
3128.00,0.0041
3127.00,0.0041
3126.00,0.0041
3125.00,0.0041
3124.00,0.0041
3123.00,0.0041
3122.00,0.0041
3121.00,0.0041
3120.00,0.0041
3119.00,0.0041
3118.00,0.0041
3117.00,0.0041
3116.00,0.0041
3115.00,0.0041
3114.00,0.0041
3113.00,0.0041
3112.00,0.0041
3111.00,0.0040
3110.00,0.0040
3109.00,0.0040
3108.00,0.0040
3107.00,0.0040
3106.00,0.0040
3105.00,0.0040
3104.00,0.0039
3103.00,0.0039
3102.00,0.0039
3101.00,0.0039
3100.00,0.0039
3099.00,0.0039
3098.00,0.0039
3097.00,0.0039
3096.00,0.0039
3095.00,0.0039
3094.00,0.0039
3093.00,0.0039
3092.00,0.0039
3091.00,0.0039
3090.00,0.0039
3089.00,0.0039
3088.00,0.0039
3087.00,0.0039
3086.00,0.0039
3085.00,0.0039
3084.00,0.0039
3083.00,0.0039
3082.00,0.0039
3081.00,0.0039
3080.00,0.0039
3079.00,0.0038
3078.00,0.0038
3077.00,0.0038
3076.00,0.0038
3075.00,0.0038
3074.00,0.0038
3073.00,0.0038
3072.00,0.0038
3071.00,0.0038
3070.00,0.0038
3069.00,0.0038
3068.00,0.0038
3067.00,0.0037
3066.00,0.0037
3065.00,0.0037
3064.00,0.0037
3063.00,0.0037
3062.00,0.0037
3061.00,0.0037
3060.00,0.0037
3059.00,0.0037
3058.00,0.0037
3057.00,0.0037
3056.00,0.0037
3055.00,0.0037
3054.00,0.0037
3053.00,0.0037
3052.00,0.0037
3051.00,0.0037
3050.00,0.0037
3049.00,0.0036
3048.00,0.0036
3047.00,0.0036
3046.00,0.0036
3045.00,0.0036
3044.00,0.0036
3043.00,0.0036
3042.00,0.0036
3041.00,0.0036
3040.00,0.0036
3039.00,0.0036
3038.00,0.0036
3037.00,0.0035
3036.00,0.0035
3035.00,0.0036
3034.00,0.0036
3033.00,0.0036
3032.00,0.0036
3031.00,0.0036
3030.00,0.0036
3029.00,0.0036
3028.00,0.0036
3027.00,0.0036
3026.00,0.0036
3025.00,0.0036
3024.00,0.0036
3023.00,0.0036
3022.00,0.0036
3021.00,0.0036
3020.00,0.0037
3019.00,0.0037
3018.00,0.0037
3017.00,0.0037
3016.00,0.0038
3015.00,0.0038
3014.00,0.0039
3013.00,0.0039
3012.00,0.0039
3011.00,0.0040
3010.00,0.0041
3009.00,0.0042
3008.00,0.0042
3007.00,0.0043
3006.00,0.0044
3005.00,0.0045
3004.00,0.0047
3003.00,0.0048
3002.00,0.0049
3001.00,0.0050
3000.00,0.0052
2999.00,0.0054
2998.00,0.0055
2997.00,0.0057
2996.00,0.0059
2995.00,0.0061
2994.00,0.0063
2993.00,0.0066
2992.00,0.0068
2991.00,0.0070
2990.00,0.0072
2989.00,0.0075
2988.00,0.0077
2987.00,0.0079
2986.00,0.0081
2985.00,0.0083
2984.00,0.0085
2983.00,0.0087
2982.00,0.0088
2981.00,0.0090
2980.00,0.0091
2979.00,0.0093
2978.00,0.0094
2977.00,0.0095
2976.00,0.0096
2975.00,0.0097
2974.00,0.0098
2973.00,0.0099
2972.00,0.0100
2971.00,0.0101
2970.00,0.0103
2969.00,0.0104
2968.00,0.0105
2967.00,0.0106
2966.00,0.0108
2965.00,0.0109
2964.00,0.0111
2963.00,0.0112
2962.00,0.0113
2961.00,0.0115
2960.00,0.0116
2959.00,0.0117
2958.00,0.0119
2957.00,0.0120
2956.00,0.0121
2955.00,0.0122
2954.00,0.0123
2953.00,0.0123
2952.00,0.0124
2951.00,0.0124
2950.00,0.0124
2949.00,0.0124
2948.00,0.0123
2947.00,0.0123
2946.00,0.0123
2945.00,0.0122
2944.00,0.0122
2943.00,0.0122
2942.00,0.0122
2941.00,0.0122
2940.00,0.0122
2939.00,0.0122
2938.00,0.0123
2937.00,0.0123
2936.00,0.0124
2935.00,0.0125
2934.00,0.0126
2933.00,0.0127
2932.00,0.0128
2931.00,0.0128
2930.00,0.0129
2929.00,0.0130
2928.00,0.0130
2927.00,0.0131
2926.00,0.0131
2925.00,0.0131
2924.00,0.0131
2923.00,0.0131
2922.00,0.0130
2921.00,0.0130
2920.00,0.0129
2919.00,0.0128
2918.00,0.0126
2917.00,0.0125
2916.00,0.0124
2915.00,0.0122
2914.00,0.0120
2913.00,0.0118
2912.00,0.0116
2911.00,0.0114
2910.00,0.0112
2909.00,0.0110
2908.00,0.0108
2907.00,0.0107
2906.00,0.0105
2905.00,0.0104
2904.00,0.0103
2903.00,0.0102
2902.00,0.0101
2901.00,0.0101
2900.00,0.0100
2899.00,0.0100
2898.00,0.0100
2897.00,0.0100
2896.00,0.0100
2895.00,0.0100
2894.00,0.0100
2893.00,0.0100
2892.00,0.0100
2891.00,0.0100
2890.00,0.0100
2889.00,0.0100
2888.00,0.0100
2887.00,0.0099
2886.00,0.0099
2885.00,0.0099
2884.00,0.0099
2883.00,0.0099
2882.00,0.0099
2881.00,0.0099
2880.00,0.0099
2879.00,0.0099
2878.00,0.0100
2877.00,0.0100
2876.00,0.0100
2875.00,0.0100
2874.00,0.0100
2873.00,0.0101
2872.00,0.0101
2871.00,0.0101
2870.00,0.0100
2869.00,0.0100
2868.00,0.0099
2867.00,0.0098
2866.00,0.0098
2865.00,0.0098
2864.00,0.0097
2863.00,0.0097
2862.00,0.0097
2861.00,0.0096
2860.00,0.0096
2859.00,0.0096
2858.00,0.0095
2857.00,0.0094
2856.00,0.0093
2855.00,0.0091
2854.00,0.0089
2853.00,0.0087
2852.00,0.0085
2851.00,0.0083
2850.00,0.0081
2849.00,0.0078
2848.00,0.0076
2847.00,0.0073
2846.00,0.0071
2845.00,0.0069
2844.00,0.0067
2843.00,0.0065
2842.00,0.0063
2841.00,0.0062
2840.00,0.0060
2839.00,0.0059
2838.00,0.0057
2837.00,0.0056
2836.00,0.0055
2835.00,0.0054
2834.00,0.0053
2833.00,0.0052
2832.00,0.0051
2831.00,0.0050
2830.00,0.0049
2829.00,0.0048
2828.00,0.0047
2827.00,0.0046
2826.00,0.0046
2825.00,0.0045
2824.00,0.0044
2823.00,0.0043
2822.00,0.0042
2821.00,0.0041
2820.00,0.0041
2819.00,0.0040
2818.00,0.0039
2817.00,0.0039
2816.00,0.0038
2815.00,0.0038
2814.00,0.0037
2813.00,0.0037
2812.00,0.0036
2811.00,0.0035
2810.00,0.0035
2809.00,0.0034
2808.00,0.0034
2807.00,0.0034
2806.00,0.0033
2805.00,0.0033
2804.00,0.0032
2803.00,0.0032
2802.00,0.0031
2801.00,0.0031
2800.00,0.0030
2799.00,0.0030
2798.00,0.0030
2797.00,0.0030
2796.00,0.0030
2795.00,0.0030
2794.00,0.0029
2793.00,0.0029
2792.00,0.0029
2791.00,0.0028
2790.00,0.0028
2789.00,0.0028
2788.00,0.0027
2787.00,0.0027
2786.00,0.0027
2785.00,0.0027
2784.00,0.0027
2783.00,0.0027
2782.00,0.0026
2781.00,0.0026
2780.00,0.0026
2779.00,0.0026
2778.00,0.0026
2777.00,0.0026
2776.00,0.0025
2775.00,0.0025
2774.00,0.0025
2773.00,0.0025
2772.00,0.0025
2771.00,0.0025
2770.00,0.0024
2769.00,0.0024
2768.00,0.0024
2767.00,0.0024
2766.00,0.0024
2765.00,0.0024
2764.00,0.0024
2763.00,0.0024
2762.00,0.0024
2761.00,0.0024
2760.00,0.0024
2759.00,0.0024
2758.00,0.0024
2757.00,0.0024
2756.00,0.0023
2755.00,0.0023
2754.00,0.0023
2753.00,0.0023
2752.00,0.0024
2751.00,0.0024
2750.00,0.0024
2749.00,0.0024
2748.00,0.0023
2747.00,0.0023
2746.00,0.0023
2745.00,0.0023
2744.00,0.0024
2743.00,0.0024
2742.00,0.0024
2741.00,0.0024
2740.00,0.0024
2739.00,0.0024
2738.00,0.0024
2737.00,0.0024
2736.00,0.0024
2735.00,0.0024
2734.00,0.0024
2733.00,0.0024
2732.00,0.0024
2731.00,0.0024
2730.00,0.0024
2729.00,0.0023
2728.00,0.0023
2727.00,0.0023
2726.00,0.0023
2725.00,0.0023
2724.00,0.0023
2723.00,0.0023
2722.00,0.0023
2721.00,0.0023
2720.00,0.0023
2719.00,0.0023
2718.00,0.0023
2717.00,0.0023
2716.00,0.0023
2715.00,0.0022
2714.00,0.0022
2713.00,0.0022
2712.00,0.0022
2711.00,0.0022
2710.00,0.0022
2709.00,0.0022
2708.00,0.0022
2707.00,0.0022
2706.00,0.0021
2705.00,0.0021
2704.00,0.0021
2703.00,0.0021
2702.00,0.0021
2701.00,0.0021
2700.00,0.0021
2699.00,0.0021
2698.00,0.0021
2697.00,0.0021
2696.00,0.0021
2695.00,0.0021
2694.00,0.0021
2693.00,0.0021
2692.00,0.0020
2691.00,0.0020
2690.00,0.0020
2689.00,0.0020
2688.00,0.0020
2687.00,0.0020
2686.00,0.0020
2685.00,0.0020
2684.00,0.0020
2683.00,0.0020
2682.00,0.0020
2681.00,0.0020
2680.00,0.0020
2679.00,0.0020
2678.00,0.0020
2677.00,0.0020
2676.00,0.0020
2675.00,0.0020
2674.00,0.0020
2673.00,0.0020
2672.00,0.0020
2671.00,0.0020
2670.00,0.0020
2669.00,0.0020
2668.00,0.0020
2667.00,0.0020
2666.00,0.0021
2665.00,0.0021
2664.00,0.0021
2663.00,0.0021
2662.00,0.0021
2661.00,0.0022
2660.00,0.0022
2659.00,0.0022
2658.00,0.0023
2657.00,0.0023
2656.00,0.0023
2655.00,0.0023
2654.00,0.0023
2653.00,0.0023
2652.00,0.0023
2651.00,0.0023
2650.00,0.0023
2649.00,0.0023
2648.00,0.0023
2647.00,0.0023
2646.00,0.0023
2645.00,0.0022
2644.00,0.0022
2643.00,0.0022
2642.00,0.0022
2641.00,0.0022
2640.00,0.0022
2639.00,0.0022
2638.00,0.0022
2637.00,0.0021
2636.00,0.0021
2635.00,0.0021
2634.00,0.0021
2633.00,0.0021
2632.00,0.0021
2631.00,0.0021
2630.00,0.0021
2629.00,0.0021
2628.00,0.0021
2627.00,0.0021
2626.00,0.0021
2625.00,0.0021
2624.00,0.0020
2623.00,0.0020
2622.00,0.0020
2621.00,0.0020
2620.00,0.0020
2619.00,0.0020
2618.00,0.0020
2617.00,0.0019
2616.00,0.0019
2615.00,0.0019
2614.00,0.0019
2613.00,0.0019
2612.00,0.0019
2611.00,0.0019
2610.00,0.0019
2609.00,0.0018
2608.00,0.0018
2607.00,0.0018
2606.00,0.0018
2605.00,0.0018
2604.00,0.0018
2603.00,0.0018
2602.00,0.0018
2601.00,0.0018
2600.00,0.0018
2599.00,0.0018
2598.00,0.0018
2597.00,0.0018
2596.00,0.0018
2595.00,0.0018
2594.00,0.0017
2593.00,0.0017
2592.00,0.0018
2591.00,0.0018
2590.00,0.0018
2589.00,0.0018
2588.00,0.0018
2587.00,0.0017
2586.00,0.0017
2585.00,0.0017
2584.00,0.0017
2583.00,0.0017
2582.00,0.0017
2581.00,0.0017
2580.00,0.0017
2579.00,0.0017
2578.00,0.0017
2577.00,0.0017
2576.00,0.0017
2575.00,0.0017
2574.00,0.0017
2573.00,0.0017
2572.00,0.0017
2571.00,0.0017
2570.00,0.0017
2569.00,0.0017
2568.00,0.0016
2567.00,0.0016
2566.00,0.0016
2565.00,0.0016
2564.00,0.0015
2563.00,0.0016
2562.00,0.0016
2561.00,0.0016
2560.00,0.0015
2559.00,0.0015
2558.00,0.0015
2557.00,0.0014
2556.00,0.0014
2555.00,0.0014
2554.00,0.0014
2553.00,0.0014
2552.00,0.0014
2551.00,0.0014
2550.00,0.0014
2549.00,0.0014
2548.00,0.0014
2547.00,0.0014
2546.00,0.0014
2545.00,0.0013
2544.00,0.0013
2543.00,0.0013
2542.00,0.0013
2541.00,0.0013
2540.00,0.0013
2539.00,0.0013
2538.00,0.0013
2537.00,0.0013
2536.00,0.0013
2535.00,0.0013
2534.00,0.0013
2533.00,0.0013
2532.00,0.0013
2531.00,0.0013
2530.00,0.0013
2529.00,0.0013
2528.00,0.0012
2527.00,0.0012
2526.00,0.0012
2525.00,0.0012
2524.00,0.0012
2523.00,0.0012
2522.00,0.0012
2521.00,0.0012
2520.00,0.0012
2519.00,0.0012
2518.00,0.0012
2517.00,0.0012
2516.00,0.0011
2515.00,0.0011
2514.00,0.0010
2513.00,0.0010
2512.00,0.0010
2511.00,0.0010
2510.00,0.0011
2509.00,0.0011
2508.00,0.0011
2507.00,0.0011
2506.00,0.0011
2505.00,0.0010
2504.00,0.0010
2503.00,0.0010
2502.00,0.0010
2501.00,0.0010
2500.00,0.0011
2499.00,0.0011
2498.00,0.0011
2497.00,0.0011
2496.00,0.0011
2495.00,0.0010
2494.00,0.0010
2493.00,0.0010
2492.00,0.0010
2491.00,0.0011
2490.00,0.0011
2489.00,0.0011
2488.00,0.0011
2487.00,0.0010
2486.00,0.0010
2485.00,0.0010
2484.00,0.0010
2483.00,0.0010
2482.00,0.0010
2481.00,0.0010
2480.00,0.0010
2479.00,0.0009
2478.00,0.0009
2477.00,0.0009
2476.00,0.0010
2475.00,0.0010
2474.00,0.0010
2473.00,0.0010
2472.00,0.0009
2471.00,0.0009
2470.00,0.0009
2469.00,0.0009
2468.00,0.0009
2467.00,0.0009
2466.00,0.0010
2465.00,0.0010
2464.00,0.0010
2463.00,0.0010
2462.00,0.0011
2461.00,0.0011
2460.00,0.0011
2459.00,0.0011
2458.00,0.0011
2457.00,0.0011
2456.00,0.0011
2455.00,0.0012
2454.00,0.0012
2453.00,0.0012
2452.00,0.0011
2451.00,0.0011
2450.00,0.0011
2449.00,0.0010
2448.00,0.0010
2447.00,0.0011
2446.00,0.0011
2445.00,0.0011
2444.00,0.0010
2443.00,0.0010
2442.00,0.0010
2441.00,0.0010
2440.00,0.0010
2439.00,0.0010
2438.00,0.0009
2437.00,0.0009
2436.00,0.0009
2435.00,0.0009
2434.00,0.0009
2433.00,0.0009
2432.00,0.0009
2431.00,0.0009
2430.00,0.0009
2429.00,0.0009
2428.00,0.0009
2427.00,0.0009
2426.00,0.0009
2425.00,0.0009
2424.00,0.0008
2423.00,0.0008
2422.00,0.0008
2421.00,0.0007
2420.00,0.0008
2419.00,0.0008
2418.00,0.0008
2417.00,0.0009
2416.00,0.0009
2415.00,0.0009
2414.00,0.0009
2413.00,0.0009
2412.00,0.0009
2411.00,0.0008
2410.00,0.0008
2409.00,0.0008
2408.00,0.0008
2407.00,0.0008
2406.00,0.0007
2405.00,0.0007
2404.00,0.0007
2403.00,0.0007
2402.00,0.0007
2401.00,0.0007
2400.00,0.0007
2399.00,0.0007
2398.00,0.0007
2397.00,0.0007
2396.00,0.0007
2395.00,0.0007
2394.00,0.0007
2393.00,0.0007
2392.00,0.0007
2391.00,0.0007
2390.00,0.0007
2389.00,0.0006
2388.00,0.0006
2387.00,0.0006
2386.00,0.0005
2385.00,0.0005
2384.00,0.0005
2383.00,0.0005
2382.00,0.0004
2381.00,0.0004
2380.00,0.0004
2379.00,0.0004
2378.00,0.0004
2377.00,0.0004
2376.00,0.0004
2375.00,0.0005
2374.00,0.0005
2373.00,0.0005
2372.00,0.0005
2371.00,0.0005
2370.00,0.0004
2369.00,0.0004
2368.00,0.0004
2367.00,0.0005
2366.00,0.0005
2365.00,0.0005
2364.00,0.0005
2363.00,0.0006
2362.00,0.0006
2361.00,0.0006
2360.00,0.0006
2359.00,0.0006
2358.00,0.0006
2357.00,0.0006
2356.00,0.0006
2355.00,0.0006
2354.00,0.0007
2353.00,0.0006
2352.00,0.0006
2351.00,0.0007
2350.00,0.0007
2349.00,0.0007
2348.00,0.0008
2347.00,0.0008
2346.00,0.0008
2345.00,0.0009
2344.00,0.0009
2343.00,0.0009
2342.00,0.0009
2341.00,0.0010
2340.00,0.0010
2339.00,0.0010
2338.00,0.0010
2337.00,0.0011
2336.00,0.0011
2335.00,0.0010
2334.00,0.0010
2333.00,0.0010
2332.00,0.0009
2331.00,0.0010
2330.00,0.0010
2329.00,0.0012
2328.00,0.0016
2327.00,0.0019
2326.00,0.0022
2325.00,0.0023
2324.00,0.0022
2323.00,0.0020
2322.00,0.0018
2321.00,0.0017
2320.00,0.0016
2319.00,0.0016
2318.00,0.0015
2317.00,0.0015
2316.00,0.0014
2315.00,0.0013
2314.00,0.0013
2313.00,0.0013
2312.00,0.0012
2311.00,0.0012
2310.00,0.0012
2309.00,0.0012
2308.00,0.0012
2307.00,0.0012
2306.00,0.0012
2305.00,0.0013
2304.00,0.0013
2303.00,0.0013
2302.00,0.0013
2301.00,0.0013
2300.00,0.0014
2299.00,0.0014
2298.00,0.0014
2297.00,0.0015
2296.00,0.0015
2295.00,0.0016
2294.00,0.0017
2293.00,0.0017
2292.00,0.0018
2291.00,0.0018
2290.00,0.0019
2289.00,0.0019
2288.00,0.0019
2287.00,0.0019
2286.00,0.0019
2285.00,0.0018
2284.00,0.0017
2283.00,0.0017
2282.00,0.0016
2281.00,0.0017
2280.00,0.0017
2279.00,0.0017
2278.00,0.0016
2277.00,0.0015
2276.00,0.0015
2275.00,0.0015
2274.00,0.0015
2273.00,0.0015
2272.00,0.0016
2271.00,0.0016
2270.00,0.0015
2269.00,0.0014
2268.00,0.0013
2267.00,0.0013
2266.00,0.0012
2265.00,0.0012
2264.00,0.0011
2263.00,0.0011
2262.00,0.0011
2261.00,0.0011
2260.00,0.0012
2259.00,0.0012
2258.00,0.0012
2257.00,0.0012
2256.00,0.0012
2255.00,0.0011
2254.00,0.0010
2253.00,0.0010
2252.00,0.0010
2251.00,0.0011
2250.00,0.0012
2249.00,0.0012
2248.00,0.0013
2247.00,0.0013
2246.00,0.0012
2245.00,0.0012
2244.00,0.0012
2243.00,0.0013
2242.00,0.0013
2241.00,0.0012
2240.00,0.0012
2239.00,0.0011
2238.00,0.0010
2237.00,0.0010
2236.00,0.0010
2235.00,0.0010
2234.00,0.0010
2233.00,0.0011
2232.00,0.0011
2231.00,0.0011
2230.00,0.0011
2229.00,0.0011
2228.00,0.0011
2227.00,0.0011
2226.00,0.0011
2225.00,0.0012
2224.00,0.0012
2223.00,0.0012
2222.00,0.0012
2221.00,0.0011
2220.00,0.0011
2219.00,0.0011
2218.00,0.0011
2217.00,0.0011
2216.00,0.0011
2215.00,0.0011
2214.00,0.0011
2213.00,0.0011
2212.00,0.0012
2211.00,0.0012
2210.00,0.0011
2209.00,0.0011
2208.00,0.0010
2207.00,0.0010
2206.00,0.0011
2205.00,0.0012
2204.00,0.0012
2203.00,0.0012
2202.00,0.0012
2201.00,0.0012
2200.00,0.0012
2199.00,0.0012
2198.00,0.0012
2197.00,0.0012
2196.00,0.0012
2195.00,0.0013
2194.00,0.0013
2193.00,0.0013
2192.00,0.0014
2191.00,0.0015
2190.00,0.0015
2189.00,0.0014
2188.00,0.0013
2187.00,0.0011
2186.00,0.0009
2185.00,0.0008
2184.00,0.0007
2183.00,0.0007
2182.00,0.0007
2181.00,0.0008
2180.00,0.0008
2179.00,0.0008
2178.00,0.0007
2177.00,0.0005
2176.00,0.0004
2175.00,0.0004
2174.00,0.0005
2173.00,0.0008
2172.00,0.0011
2171.00,0.0013
2170.00,0.0015
2169.00,0.0017
2168.00,0.0018
2167.00,0.0019
2166.00,0.0019
2165.00,0.0020
2164.00,0.0022
2163.00,0.0022
2162.00,0.0018
2161.00,0.0008
2160.00,-0.0004
2159.00,-0.0014
2158.00,-0.0019
2157.00,-0.0019
2156.00,-0.0016
2155.00,-0.0012
2154.00,-0.0010
2153.00,-0.0007
2152.00,-0.0005
2151.00,-0.0004
2150.00,-0.0004
2149.00,-0.0004
2148.00,-0.0004
2147.00,-0.0004
2146.00,-0.0005
2145.00,-0.0005
2144.00,-0.0005
2143.00,-0.0004
2142.00,-0.0004
2141.00,-0.0003
2140.00,-0.0003
2139.00,-0.0003
2138.00,-0.0005
2137.00,-0.0007
2136.00,-0.0009
2135.00,-0.0010
2134.00,-0.0010
2133.00,-0.0009
2132.00,-0.0008
2131.00,-0.0007
2130.00,-0.0006
2129.00,-0.0005
2128.00,-0.0004
2127.00,-0.0002
2126.00,-0.0001
2125.00,-0.0000
2124.00,0.0001
2123.00,0.0002
2122.00,0.0002
2121.00,0.0003
2120.00,0.0004
2119.00,0.0005
2118.00,0.0007
2117.00,0.0008
2116.00,0.0009
2115.00,0.0009
2114.00,0.0009
2113.00,0.0008
2112.00,0.0007
2111.00,0.0007
2110.00,0.0007
2109.00,0.0008
2108.00,0.0008
2107.00,0.0009
2106.00,0.0009
2105.00,0.0009
2104.00,0.0009
2103.00,0.0009
2102.00,0.0009
2101.00,0.0009
2100.00,0.0008
2099.00,0.0008
2098.00,0.0007
2097.00,0.0006
2096.00,0.0004
2095.00,0.0003
2094.00,0.0003
2093.00,0.0003
2092.00,0.0005
2091.00,0.0006
2090.00,0.0007
2089.00,0.0008
2088.00,0.0008
2087.00,0.0009
2086.00,0.0009
2085.00,0.0010
2084.00,0.0010
2083.00,0.0010
2082.00,0.0011
2081.00,0.0012
2080.00,0.0012
2079.00,0.0012
2078.00,0.0012
2077.00,0.0012
2076.00,0.0011
2075.00,0.0011
2074.00,0.0010
2073.00,0.0010
2072.00,0.0009
2071.00,0.0009
2070.00,0.0009
2069.00,0.0008
2068.00,0.0008
2067.00,0.0008
2066.00,0.0007
2065.00,0.0007
2064.00,0.0007
2063.00,0.0007
2062.00,0.0007
2061.00,0.0007
2060.00,0.0008
2059.00,0.0008
2058.00,0.0009
2057.00,0.0008
2056.00,0.0008
2055.00,0.0008
2054.00,0.0010
2053.00,0.0014
2052.00,0.0018
2051.00,0.0020
2050.00,0.0018
2049.00,0.0015
2048.00,0.0013
2047.00,0.0011
2046.00,0.0010
2045.00,0.0009
2044.00,0.0010
2043.00,0.0010
2042.00,0.0011
2041.00,0.0010
2040.00,0.0009
2039.00,0.0009
2038.00,0.0008
2037.00,0.0008
2036.00,0.0008
2035.00,0.0008
2034.00,0.0007
2033.00,0.0007
2032.00,0.0006
2031.00,0.0004
2030.00,0.0002
2029.00,0.0000
2028.00,-0.0001
2027.00,-0.0000
2026.00,0.0001
2025.00,0.0003
2024.00,0.0005
2023.00,0.0006
2022.00,0.0006
2021.00,0.0005
2020.00,0.0003
2019.00,0.0001
2018.00,-0.0000
2017.00,-0.0001
2016.00,-0.0001
2015.00,0.0001
2014.00,0.0001
2013.00,0.0002
2012.00,0.0002
2011.00,0.0003
2010.00,0.0002
2009.00,0.0001
2008.00,-0.0001
2007.00,-0.0003
2006.00,-0.0003
2005.00,-0.0003
2004.00,-0.0002
2003.00,-0.0002
2002.00,-0.0002
2001.00,-0.0001
2000.00,0.0001
1999.00,0.0003
1998.00,0.0005
1997.00,0.0007
1996.00,0.0008
1995.00,0.0009
1994.00,0.0009
1993.00,0.0008
1992.00,0.0007
1991.00,0.0006
1990.00,0.0006
1989.00,0.0006
1988.00,0.0007
1987.00,0.0008
1986.00,0.0009
1985.00,0.0010
1984.00,0.0012
1983.00,0.0014
1982.00,0.0016
1981.00,0.0017
1980.00,0.0015
1979.00,0.0010
1978.00,0.0003
1977.00,-0.0002
1976.00,-0.0004
1975.00,-0.0004
1974.00,-0.0004
1973.00,-0.0003
1972.00,-0.0002
1971.00,-0.0002
1970.00,-0.0001
1969.00,-0.0001
1968.00,-0.0000
1967.00,-0.0001
1966.00,-0.0002
1965.00,-0.0004
1964.00,-0.0004
1963.00,-0.0004
1962.00,-0.0004
1961.00,-0.0004
1960.00,-0.0005
1959.00,-0.0006
1958.00,-0.0005
1957.00,-0.0004
1956.00,-0.0003
1955.00,-0.0003
1954.00,-0.0004
1953.00,-0.0004
1952.00,-0.0003
1951.00,-0.0003
1950.00,-0.0002
1949.00,-0.0001
1948.00,-0.0000
1947.00,0.0000
1946.00,-0.0000
1945.00,-0.0001
1944.00,-0.0001
1943.00,-0.0002
1942.00,-0.0002
1941.00,-0.0001
1940.00,-0.0000
1939.00,0.0000
1938.00,0.0000
1937.00,-0.0000
1936.00,0.0000
1935.00,0.0000
1934.00,0.0000
1933.00,0.0001
1932.00,0.0001
1931.00,0.0002
1930.00,0.0003
1929.00,0.0002
1928.00,0.0002
1927.00,0.0001
1926.00,0.0001
1925.00,0.0001
1924.00,0.0002
1923.00,0.0003
1922.00,0.0003
1921.00,0.0004
1920.00,0.0004
1919.00,0.0004
1918.00,0.0004
1917.00,0.0003
1916.00,0.0003
1915.00,0.0002
1914.00,0.0002
1913.00,0.0002
1912.00,0.0003
1911.00,0.0003
1910.00,0.0004
1909.00,0.0003
1908.00,0.0003
1907.00,0.0003
1906.00,0.0003
1905.00,0.0003
1904.00,0.0003
1903.00,0.0004
1902.00,0.0004
1901.00,0.0004
1900.00,0.0004
1899.00,0.0004
1898.00,0.0004
1897.00,0.0004
1896.00,0.0004
1895.00,0.0005
1894.00,0.0005
1893.00,0.0005
1892.00,0.0005
1891.00,0.0004
1890.00,0.0004
1889.00,0.0003
1888.00,0.0003
1887.00,0.0003
1886.00,0.0003
1885.00,0.0003
1884.00,0.0003
1883.00,0.0003
1882.00,0.0003
1881.00,0.0003
1880.00,0.0003
1879.00,0.0004
1878.00,0.0004
1877.00,0.0004
1876.00,0.0004
1875.00,0.0004
1874.00,0.0004
1873.00,0.0005
1872.00,0.0005
1871.00,0.0005
1870.00,0.0005
1869.00,0.0005
1868.00,0.0005
1867.00,0.0005
1866.00,0.0005
1865.00,0.0005
1864.00,0.0005
1863.00,0.0005
1862.00,0.0005
1861.00,0.0004
1860.00,0.0004
1859.00,0.0004
1858.00,0.0004
1857.00,0.0005
1856.00,0.0005
1855.00,0.0005
1854.00,0.0005
1853.00,0.0006
1852.00,0.0006
1851.00,0.0006
1850.00,0.0006
1849.00,0.0006
1848.00,0.0006
1847.00,0.0007
1846.00,0.0006
1845.00,0.0006
1844.00,0.0005
1843.00,0.0005
1842.00,0.0005
1841.00,0.0005
1840.00,0.0006
1839.00,0.0006
1838.00,0.0006
1837.00,0.0006
1836.00,0.0005
1835.00,0.0006
1834.00,0.0006
1833.00,0.0006
1832.00,0.0007
1831.00,0.0007
1830.00,0.0006
1829.00,0.0006
1828.00,0.0006
1827.00,0.0006
1826.00,0.0007
1825.00,0.0007
1824.00,0.0007
1823.00,0.0007
1822.00,0.0007
1821.00,0.0006
1820.00,0.0006
1819.00,0.0005
1818.00,0.0004
1817.00,0.0003
1816.00,0.0004
1815.00,0.0005
1814.00,0.0005
1813.00,0.0006
1812.00,0.0007
1811.00,0.0007
1810.00,0.0007
1809.00,0.0007
1808.00,0.0007
1807.00,0.0007
1806.00,0.0008
1805.00,0.0008
1804.00,0.0008
1803.00,0.0008
1802.00,0.0008
1801.00,0.0008
1800.00,0.0009
1799.00,0.0009
1798.00,0.0009
1797.00,0.0009
1796.00,0.0009
1795.00,0.0009
1794.00,0.0009
1793.00,0.0009
1792.00,0.0009
1791.00,0.0009
1790.00,0.0009
1789.00,0.0009
1788.00,0.0009
1787.00,0.0009
1786.00,0.0010
1785.00,0.0010
1784.00,0.0010
1783.00,0.0011
1782.00,0.0011
1781.00,0.0011
1780.00,0.0011
1779.00,0.0011
1778.00,0.0011
1777.00,0.0011
1776.00,0.0011
1775.00,0.0012
1774.00,0.0012
1773.00,0.0012
1772.00,0.0012
1771.00,0.0012
1770.00,0.0011
1769.00,0.0011
1768.00,0.0012
1767.00,0.0012
1766.00,0.0012
1765.00,0.0013
1764.00,0.0013
1763.00,0.0013
1762.00,0.0013
1761.00,0.0014
1760.00,0.0014
1759.00,0.0014
1758.00,0.0015
1757.00,0.0015
1756.00,0.0015
1755.00,0.0015
1754.00,0.0015
1753.00,0.0016
1752.00,0.0016
1751.00,0.0017
1750.00,0.0017
1749.00,0.0017
1748.00,0.0018
1747.00,0.0018
1746.00,0.0018
1745.00,0.0018
1744.00,0.0018
1743.00,0.0019
1742.00,0.0019
1741.00,0.0019
1740.00,0.0019
1739.00,0.0020
1738.00,0.0020
1737.00,0.0020
1736.00,0.0021
1735.00,0.0021
1734.00,0.0021
1733.00,0.0022
1732.00,0.0023
1731.00,0.0024
1730.00,0.0024
1729.00,0.0025
1728.00,0.0026
1727.00,0.0026
1726.00,0.0027
1725.00,0.0028
1724.00,0.0029
1723.00,0.0031
1722.00,0.0032
1721.00,0.0033
1720.00,0.0035
1719.00,0.0037
1718.00,0.0039
1717.00,0.0040
1716.00,0.0042
1715.00,0.0044
1714.00,0.0046
1713.00,0.0048
1712.00,0.0051
1711.00,0.0055
1710.00,0.0058
1709.00,0.0062
1708.00,0.0068
1707.00,0.0074
1706.00,0.0082
1705.00,0.0090
1704.00,0.0098
1703.00,0.0105
1702.00,0.0113
1701.00,0.0126
1700.00,0.0145
1699.00,0.0162
1698.00,0.0174
1697.00,0.0188
1696.00,0.0207
1695.00,0.0229
1694.00,0.0248
1693.00,0.0263
1692.00,0.0278
1691.00,0.0294
1690.00,0.0313
1689.00,0.0331
1688.00,0.0347
1687.00,0.0360
1686.00,0.0372
1685.00,0.0390
1684.00,0.0416
1683.00,0.0438
1682.00,0.0452
1681.00,0.0461
1680.00,0.0470
1679.00,0.0479
1678.00,0.0486
1677.00,0.0492
1676.00,0.0500
1675.00,0.0511
1674.00,0.0520
1673.00,0.0524
1672.00,0.0527
1671.00,0.0530
1670.00,0.0535
1669.00,0.0542
1668.00,0.0548
1667.00,0.0552
1666.00,0.0553
1665.00,0.0553
1664.00,0.0555
1663.00,0.0560
1662.00,0.0565
1661.00,0.0569
1660.00,0.0571
1659.00,0.0572
1658.00,0.0572
1657.00,0.0570
1656.00,0.0565
1655.00,0.0560
1654.00,0.0557
1653.00,0.0561
1652.00,0.0564
1651.00,0.0560
1650.00,0.0551
1649.00,0.0539
1648.00,0.0526
1647.00,0.0514
1646.00,0.0502
1645.00,0.0489
1644.00,0.0475
1643.00,0.0460
1642.00,0.0444
1641.00,0.0427
1640.00,0.0411
1639.00,0.0395
1638.00,0.0379
1637.00,0.0362
1636.00,0.0345
1635.00,0.0330
1634.00,0.0316
1633.00,0.0304
1632.00,0.0292
1631.00,0.0281
1630.00,0.0271
1629.00,0.0262
1628.00,0.0254
1627.00,0.0249
1626.00,0.0246
1625.00,0.0244
1624.00,0.0244
1623.00,0.0246
1622.00,0.0249
1621.00,0.0251
1620.00,0.0250
1619.00,0.0248
1618.00,0.0245
1617.00,0.0241
1616.00,0.0236
1615.00,0.0230
1614.00,0.0224
1613.00,0.0218
1612.00,0.0213
1611.00,0.0208
1610.00,0.0203
1609.00,0.0197
1608.00,0.0190
1607.00,0.0182
1606.00,0.0174
1605.00,0.0164
1604.00,0.0155
1603.00,0.0146
1602.00,0.0137
1601.00,0.0130
1600.00,0.0123
1599.00,0.0118
1598.00,0.0114
1597.00,0.0111
1596.00,0.0109
1595.00,0.0109
1594.00,0.0110
1593.00,0.0113
1592.00,0.0117
1591.00,0.0123
1590.00,0.0130
1589.00,0.0137
1588.00,0.0143
1587.00,0.0148
1586.00,0.0150
1585.00,0.0150
1584.00,0.0148
1583.00,0.0144
1582.00,0.0138
1581.00,0.0131
1580.00,0.0124
1579.00,0.0118
1578.00,0.0112
1577.00,0.0106
1576.00,0.0101
1575.00,0.0096
1574.00,0.0093
1573.00,0.0090
1572.00,0.0088
1571.00,0.0085
1570.00,0.0083
1569.00,0.0081
1568.00,0.0079
1567.00,0.0077
1566.00,0.0075
1565.00,0.0073
1564.00,0.0072
1563.00,0.0070
1562.00,0.0069
1561.00,0.0067
1560.00,0.0066
1559.00,0.0064
1558.00,0.0063
1557.00,0.0061
1556.00,0.0060
1555.00,0.0060
1554.00,0.0059
1553.00,0.0058
1552.00,0.0058
1551.00,0.0057
1550.00,0.0057
1549.00,0.0056
1548.00,0.0055
1547.00,0.0055
1546.00,0.0055
1545.00,0.0055
1544.00,0.0055
1543.00,0.0055
1542.00,0.0054
1541.00,0.0054
1540.00,0.0053
1539.00,0.0052
1538.00,0.0052
1537.00,0.0052
1536.00,0.0052
1535.00,0.0052
1534.00,0.0052
1533.00,0.0052
1532.00,0.0051
1531.00,0.0052
1530.00,0.0052
1529.00,0.0052
1528.00,0.0053
1527.00,0.0053
1526.00,0.0054
1525.00,0.0055
1524.00,0.0056
1523.00,0.0057
1522.00,0.0058
1521.00,0.0059
1520.00,0.0060
1519.00,0.0061
1518.00,0.0063
1517.00,0.0064
1516.00,0.0065
1515.00,0.0066
1514.00,0.0066
1513.00,0.0067
1512.00,0.0068
1511.00,0.0070
1510.00,0.0072
1509.00,0.0074
1508.00,0.0076
1507.00,0.0079
1506.00,0.0083
1505.00,0.0087
1504.00,0.0092
1503.00,0.0097
1502.00,0.0103
1501.00,0.0110
1500.00,0.0118
1499.00,0.0127
1498.00,0.0136
1497.00,0.0145
1496.00,0.0152
1495.00,0.0157
1494.00,0.0159
1493.00,0.0159
1492.00,0.0156
1491.00,0.0152
1490.00,0.0147
1489.00,0.0140
1488.00,0.0131
1487.00,0.0123
1486.00,0.0115
1485.00,0.0108
1484.00,0.0102
1483.00,0.0096
1482.00,0.0092
1481.00,0.0089
1480.00,0.0087
1479.00,0.0086
1478.00,0.0086
1477.00,0.0088
1476.00,0.0091
1475.00,0.0095
1474.00,0.0100
1473.00,0.0109
1472.00,0.0120
1471.00,0.0132
1470.00,0.0144
1469.00,0.0156
1468.00,0.0170
1467.00,0.0184
1466.00,0.0201
1465.00,0.0221
1464.00,0.0239
1463.00,0.0252
1462.00,0.0261
1461.00,0.0267
1460.00,0.0268
1459.00,0.0267
1458.00,0.0261
1457.00,0.0251
1456.00,0.0240
1455.00,0.0229
1454.00,0.0219
1453.00,0.0211
1452.00,0.0204
1451.00,0.0200
1450.00,0.0199
1449.00,0.0202
1448.00,0.0207
1447.00,0.0215
1446.00,0.0223
1445.00,0.0233
1444.00,0.0244
1443.00,0.0255
1442.00,0.0266
1441.00,0.0278
1440.00,0.0288
1439.00,0.0296
1438.00,0.0306
1437.00,0.0318
1436.00,0.0330
1435.00,0.0339
1434.00,0.0345
1433.00,0.0348
1432.00,0.0352
1431.00,0.0356
1430.00,0.0361
1429.00,0.0368
1428.00,0.0375
1427.00,0.0384
1426.00,0.0393
1425.00,0.0404
1424.00,0.0416
1423.00,0.0425
1422.00,0.0429
1421.00,0.0429
1420.00,0.0423
1419.00,0.0412
1418.00,0.0397
1417.00,0.0378
1416.00,0.0357
1415.00,0.0335
1414.00,0.0313
1413.00,0.0293
1412.00,0.0275
1411.00,0.0259
1410.00,0.0247
1409.00,0.0237
1408.00,0.0230
1407.00,0.0224
1406.00,0.0221
1405.00,0.0218
1404.00,0.0216
1403.00,0.0214
1402.00,0.0211
1401.00,0.0207
1400.00,0.0201
1399.00,0.0193
1398.00,0.0185
1397.00,0.0177
1396.00,0.0168
1395.00,0.0159
1394.00,0.0151
1393.00,0.0145
1392.00,0.0140
1391.00,0.0137
1390.00,0.0135
1389.00,0.0134
1388.00,0.0135
1387.00,0.0137
1386.00,0.0141
1385.00,0.0145
1384.00,0.0149
1383.00,0.0154
1382.00,0.0159
1381.00,0.0165
1380.00,0.0169
1379.00,0.0173
1378.00,0.0176
1377.00,0.0178
1376.00,0.0179
1375.00,0.0180
1374.00,0.0180
1373.00,0.0179
1372.00,0.0178
1371.00,0.0176
1370.00,0.0174
1369.00,0.0171
1368.00,0.0168
1367.00,0.0166
1366.00,0.0164
1365.00,0.0163
1364.00,0.0162
1363.00,0.0161
1362.00,0.0161
1361.00,0.0159
1360.00,0.0156
1359.00,0.0151
1358.00,0.0145
1357.00,0.0138
1356.00,0.0131
1355.00,0.0124
1354.00,0.0119
1353.00,0.0114
1352.00,0.0111
1351.00,0.0108
1350.00,0.0107
1349.00,0.0105
1348.00,0.0104
1347.00,0.0103
1346.00,0.0103
1345.00,0.0103
1344.00,0.0103
1343.00,0.0103
1342.00,0.0104
1341.00,0.0104
1340.00,0.0104
1339.00,0.0104
1338.00,0.0104
1337.00,0.0105
1336.00,0.0107
1335.00,0.0108
1334.00,0.0111
1333.00,0.0113
1332.00,0.0115
1331.00,0.0118
1330.00,0.0122
1329.00,0.0125
1328.00,0.0129
1327.00,0.0133
1326.00,0.0138
1325.00,0.0143
1324.00,0.0149
1323.00,0.0155
1322.00,0.0160
1321.00,0.0165
1320.00,0.0170
1319.00,0.0174
1318.00,0.0176
1317.00,0.0177
1316.00,0.0177
1315.00,0.0175
1314.00,0.0173
1313.00,0.0170
1312.00,0.0167
1311.00,0.0164
1310.00,0.0162
1309.00,0.0160
1308.00,0.0159
1307.00,0.0160
1306.00,0.0161
1305.00,0.0164
1304.00,0.0168
1303.00,0.0173
1302.00,0.0180
1301.00,0.0189
1300.00,0.0199
1299.00,0.0213
1298.00,0.0229
1297.00,0.0248
1296.00,0.0269
1295.00,0.0292
1294.00,0.0317
1293.00,0.0342
1292.00,0.0366
1291.00,0.0390
1290.00,0.0411
1289.00,0.0430
1288.00,0.0445
1287.00,0.0457
1286.00,0.0464
1285.00,0.0468
1284.00,0.0467
1283.00,0.0463
1282.00,0.0456
1281.00,0.0448
1280.00,0.0439
1279.00,0.0431
1278.00,0.0426
1277.00,0.0423
1276.00,0.0422
1275.00,0.0423
1274.00,0.0426
1273.00,0.0428
1272.00,0.0430
1271.00,0.0430
1270.00,0.0427
1269.00,0.0422
1268.00,0.0413
1267.00,0.0402
1266.00,0.0389
1265.00,0.0375
1264.00,0.0359
1263.00,0.0343
1262.00,0.0327
1261.00,0.0312
1260.00,0.0297
1259.00,0.0282
1258.00,0.0269
1257.00,0.0257
1256.00,0.0246
1255.00,0.0236
1254.00,0.0227
1253.00,0.0219
1252.00,0.0213
1251.00,0.0207
1250.00,0.0203
1249.00,0.0201
1248.00,0.0199
1247.00,0.0199
1246.00,0.0201
1245.00,0.0203
1244.00,0.0206
1243.00,0.0209
1242.00,0.0212
1241.00,0.0216
1240.00,0.0219
1239.00,0.0221
1238.00,0.0224
1237.00,0.0226
1236.00,0.0228
1235.00,0.0231
1234.00,0.0233
1233.00,0.0235
1232.00,0.0236
1231.00,0.0236
1230.00,0.0236
1229.00,0.0236
1228.00,0.0235
1227.00,0.0234
1226.00,0.0234
1225.00,0.0233
1224.00,0.0232
1223.00,0.0231
1222.00,0.0230
1221.00,0.0230
1220.00,0.0229
1219.00,0.0227
1218.00,0.0226
1217.00,0.0223
1216.00,0.0219
1215.00,0.0214
1214.00,0.0208
1213.00,0.0201
1212.00,0.0194
1211.00,0.0188
1210.00,0.0182
1209.00,0.0176
1208.00,0.0171
1207.00,0.0167
1206.00,0.0164
1205.00,0.0162
1204.00,0.0161
1203.00,0.0160
1202.00,0.0161
1201.00,0.0163
1200.00,0.0165
1199.00,0.0168
1198.00,0.0171
1197.00,0.0174
1196.00,0.0177
1195.00,0.0179
1194.00,0.0179
1193.00,0.0178
1192.00,0.0175
1191.00,0.0171
1190.00,0.0166
1189.00,0.0160
1188.00,0.0154
1187.00,0.0149
1186.00,0.0145
1185.00,0.0141
1184.00,0.0138
1183.00,0.0136
1182.00,0.0134
1181.00,0.0134
1180.00,0.0133
1179.00,0.0133
1178.00,0.0134
1177.00,0.0135
1176.00,0.0136
1175.00,0.0138
1174.00,0.0140
1173.00,0.0142
1172.00,0.0144
1171.00,0.0146
1170.00,0.0148
1169.00,0.0150
1168.00,0.0150
1167.00,0.0151
1166.00,0.0151
1165.00,0.0152
1164.00,0.0153
1163.00,0.0154
1162.00,0.0156
1161.00,0.0160
1160.00,0.0163
1159.00,0.0166
1158.00,0.0169
1157.00,0.0170
1156.00,0.0169
1155.00,0.0167
1154.00,0.0163
1153.00,0.0158
1152.00,0.0152
1151.00,0.0146
1150.00,0.0140
1149.00,0.0133
1148.00,0.0127
1147.00,0.0121
1146.00,0.0116
1145.00,0.0112
1144.00,0.0107
1143.00,0.0104
1142.00,0.0101
1141.00,0.0099
1140.00,0.0098
1139.00,0.0098
1138.00,0.0100
1137.00,0.0103
1136.00,0.0106
1135.00,0.0112
1134.00,0.0120
1133.00,0.0129
1132.00,0.0137
1131.00,0.0144
1130.00,0.0149
1129.00,0.0150
1128.00,0.0147
1127.00,0.0142
1126.00,0.0136
1125.00,0.0129
1124.00,0.0123
1123.00,0.0118
1122.00,0.0114
1121.00,0.0112
1120.00,0.0109
1119.00,0.0108
1118.00,0.0108
1117.00,0.0107
1116.00,0.0107
1115.00,0.0108
1114.00,0.0108
1113.00,0.0109
1112.00,0.0109
1111.00,0.0110
1110.00,0.0111
1109.00,0.0111
1108.00,0.0111
1107.00,0.0112
1106.00,0.0114
1105.00,0.0116
1104.00,0.0119
1103.00,0.0121
1102.00,0.0123
1101.00,0.0125
1100.00,0.0126
1099.00,0.0125
1098.00,0.0123
1097.00,0.0121
1096.00,0.0118
1095.00,0.0114
1094.00,0.0112
1093.00,0.0109
1092.00,0.0106
1091.00,0.0104
1090.00,0.0103
1089.00,0.0101
1088.00,0.0100
1087.00,0.0099
1086.00,0.0099
1085.00,0.0099
1084.00,0.0098
1083.00,0.0098
1082.00,0.0100
1081.00,0.0101
1080.00,0.0103
1079.00,0.0105
1078.00,0.0108
1077.00,0.0111
1076.00,0.0113
1075.00,0.0116
1074.00,0.0119
1073.00,0.0121
1072.00,0.0124
1071.00,0.0127
1070.00,0.0132
1069.00,0.0137
1068.00,0.0143
1067.00,0.0150
1066.00,0.0158
1065.00,0.0168
1064.00,0.0178
1063.00,0.0189
1062.00,0.0200
1061.00,0.0210
1060.00,0.0218
1059.00,0.0223
1058.00,0.0226
1057.00,0.0226
1056.00,0.0221
1055.00,0.0213
1054.00,0.0203
1053.00,0.0192
1052.00,0.0181
1051.00,0.0171
1050.00,0.0163
1049.00,0.0156
1048.00,0.0151
1047.00,0.0148
1046.00,0.0147
1045.00,0.0148
1044.00,0.0149
1043.00,0.0151
1042.00,0.0153
1041.00,0.0156
1040.00,0.0158
1039.00,0.0160
1038.00,0.0163
1037.00,0.0166
1036.00,0.0167
1035.00,0.0169
1034.00,0.0171
1033.00,0.0173
1032.00,0.0173
1031.00,0.0173
1030.00,0.0173
1029.00,0.0171
1028.00,0.0167
1027.00,0.0163
1026.00,0.0159
1025.00,0.0156
1024.00,0.0153
1023.00,0.0150
1022.00,0.0149
1021.00,0.0149
1020.00,0.0149
1019.00,0.0148
1018.00,0.0148
1017.00,0.0146
1016.00,0.0143
1015.00,0.0139
1014.00,0.0135
1013.00,0.0131
1012.00,0.0126
1011.00,0.0122
1010.00,0.0119
1009.00,0.0118
1008.00,0.0117
1007.00,0.0118
1006.00,0.0121
1005.00,0.0125
1004.00,0.0127
1003.00,0.0130
1002.00,0.0131
1001.00,0.0131
1000.00,0.0129
999.00,0.0126
998.00,0.0123
997.00,0.0119
996.00,0.0116
995.00,0.0113
994.00,0.0110
993.00,0.0107
992.00,0.0104
991.00,0.0101
990.00,0.0099
989.00,0.0097
988.00,0.0094
987.00,0.0092
986.00,0.0090
985.00,0.0088
984.00,0.0086
983.00,0.0085
982.00,0.0084
981.00,0.0084
980.00,0.0083
979.00,0.0083
978.00,0.0083
977.00,0.0082
976.00,0.0082
975.00,0.0081
974.00,0.0081
973.00,0.0080
972.00,0.0079
971.00,0.0078
970.00,0.0077
969.00,0.0076
968.00,0.0075
967.00,0.0074
966.00,0.0074
965.00,0.0073
964.00,0.0072
963.00,0.0072
962.00,0.0071
961.00,0.0070
960.00,0.0069
959.00,0.0068
958.00,0.0067
957.00,0.0067
956.00,0.0066
955.00,0.0065
954.00,0.0065
953.00,0.0064
952.00,0.0063
951.00,0.0063
950.00,0.0063
949.00,0.0064
948.00,0.0064
947.00,0.0064
946.00,0.0065
945.00,0.0065
944.00,0.0066
943.00,0.0068
942.00,0.0070
941.00,0.0073
940.00,0.0075
939.00,0.0079
938.00,0.0083
937.00,0.0087
936.00,0.0091
935.00,0.0095
934.00,0.0099
933.00,0.0100
932.00,0.0100
931.00,0.0099
930.00,0.0098
929.00,0.0096
928.00,0.0095
927.00,0.0094
926.00,0.0093
925.00,0.0093
924.00,0.0092
923.00,0.0090
922.00,0.0089
921.00,0.0088
920.00,0.0086
919.00,0.0084
918.00,0.0083
917.00,0.0082
916.00,0.0080
915.00,0.0078
914.00,0.0077
913.00,0.0076
912.00,0.0075
911.00,0.0075
910.00,0.0075
909.00,0.0076
908.00,0.0077
907.00,0.0078
906.00,0.0080
905.00,0.0083
904.00,0.0085
903.00,0.0088
902.00,0.0091
901.00,0.0095
900.00,0.0098
899.00,0.0100
898.00,0.0103
897.00,0.0104
896.00,0.0103
895.00,0.0102
894.00,0.0101
893.00,0.0099
892.00,0.0097
891.00,0.0094
890.00,0.0093
889.00,0.0091
888.00,0.0089
887.00,0.0088
886.00,0.0088
885.00,0.0088
884.00,0.0088
883.00,0.0088
882.00,0.0090
881.00,0.0091
880.00,0.0093
879.00,0.0096
878.00,0.0100
877.00,0.0103
876.00,0.0106
875.00,0.0109
874.00,0.0112
873.00,0.0115
872.00,0.0117
871.00,0.0119
870.00,0.0120
869.00,0.0121
868.00,0.0121
867.00,0.0121
866.00,0.0122
865.00,0.0122
864.00,0.0122
863.00,0.0122
862.00,0.0124
861.00,0.0125
860.00,0.0127
859.00,0.0129
858.00,0.0132
857.00,0.0135
856.00,0.0138
855.00,0.0141
854.00,0.0145
853.00,0.0149
852.00,0.0153
851.00,0.0156
850.00,0.0160
849.00,0.0164
848.00,0.0166
847.00,0.0169
846.00,0.0171
845.00,0.0173
844.00,0.0174
843.00,0.0174
842.00,0.0174
841.00,0.0174
840.00,0.0172
839.00,0.0170
838.00,0.0169
837.00,0.0167
836.00,0.0166
835.00,0.0165
834.00,0.0164
833.00,0.0163
832.00,0.0162
831.00,0.0161
830.00,0.0160
829.00,0.0159
828.00,0.0158
827.00,0.0157
826.00,0.0155
825.00,0.0154
824.00,0.0152
823.00,0.0151
822.00,0.0150
821.00,0.0150
820.00,0.0149
819.00,0.0149
818.00,0.0149
817.00,0.0150
816.00,0.0149
815.00,0.0147
814.00,0.0146
813.00,0.0143
812.00,0.0139
811.00,0.0135
810.00,0.0131
809.00,0.0125
808.00,0.0119
807.00,0.0113
806.00,0.0108
805.00,0.0104
804.00,0.0099
803.00,0.0096
802.00,0.0094
801.00,0.0092
800.00,0.0091
799.00,0.0090
798.00,0.0089
797.00,0.0089
796.00,0.0088
795.00,0.0088
794.00,0.0089
793.00,0.0090
792.00,0.0090
791.00,0.0090
790.00,0.0090
789.00,0.0090
788.00,0.0090
787.00,0.0090
786.00,0.0091
785.00,0.0091
784.00,0.0091
783.00,0.0092
782.00,0.0093
781.00,0.0094
780.00,0.0096
779.00,0.0097
778.00,0.0099
777.00,0.0100
776.00,0.0100
775.00,0.0099
774.00,0.0099
773.00,0.0099
772.00,0.0098
771.00,0.0098
770.00,0.0099
769.00,0.0100
768.00,0.0100
767.00,0.0102
766.00,0.0104
765.00,0.0106
764.00,0.0108
763.00,0.0109
762.00,0.0112
761.00,0.0115
760.00,0.0117
759.00,0.0119
758.00,0.0122
757.00,0.0126
756.00,0.0128
755.00,0.0131
754.00,0.0134
753.00,0.0136
752.00,0.0138
751.00,0.0141
750.00,0.0144
749.00,0.0147
748.00,0.0149
747.00,0.0151
746.00,0.0154
745.00,0.0157
744.00,0.0160
743.00,0.0163
742.00,0.0168
741.00,0.0172
740.00,0.0177
739.00,0.0181
738.00,0.0186
737.00,0.0190
736.00,0.0191
735.00,0.0191
734.00,0.0190
733.00,0.0187
732.00,0.0183
731.00,0.0179
730.00,0.0175
729.00,0.0171
728.00,0.0166
727.00,0.0162
726.00,0.0158
725.00,0.0155
724.00,0.0150
723.00,0.0146
722.00,0.0144
721.00,0.0141
720.00,0.0139
719.00,0.0137
718.00,0.0136
717.00,0.0135
716.00,0.0134
715.00,0.0133
714.00,0.0134
713.00,0.0135
712.00,0.0134
711.00,0.0133
710.00,0.0132
709.00,0.0132
708.00,0.0131
707.00,0.0131
706.00,0.0132
705.00,0.0132
704.00,0.0132
703.00,0.0131
702.00,0.0132
701.00,0.0132
700.00,0.0133
699.00,0.0135
698.00,0.0137
697.00,0.0140
696.00,0.0142
695.00,0.0145
694.00,0.0148
693.00,0.0152
692.00,0.0154
691.00,0.0156
690.00,0.0159
689.00,0.0161
688.00,0.0161
687.00,0.0162
686.00,0.0163
685.00,0.0164
684.00,0.0163
683.00,0.0164
682.00,0.0165
681.00,0.0167
680.00,0.0167
679.00,0.0168
678.00,0.0170
677.00,0.0172
676.00,0.0173
675.00,0.0176
674.00,0.0179
673.00,0.0182
672.00,0.0184
671.00,0.0186
670.00,0.0190
669.00,0.0195
668.00,0.0201
667.00,0.0207
666.00,0.0211
665.00,0.0213
664.00,0.0215
663.00,0.0219
662.00,0.0225
661.00,0.0230
660.00,0.0234
659.00,0.0238
658.00,0.0243
657.00,0.0248
656.00,0.0253
655.00,0.0259
654.00,0.0265
653.00,0.0270
652.00,0.0273
651.00,0.0276
650.00,0.0279
649.00,0.0282
648.00,0.0283
647.00,0.0282
646.00,0.0281
645.00,0.0278
644.00,0.0275
643.00,0.0273
642.00,0.0271
641.00,0.0268
640.00,0.0262
639.00,0.0257
638.00,0.0253
637.00,0.0249
636.00,0.0245
635.00,0.0242
634.00,0.0239
633.00,0.0235
632.00,0.0231
631.00,0.0228
630.00,0.0226
629.00,0.0225
628.00,0.0223
627.00,0.0221
626.00,0.0221
625.00,0.0221
624.00,0.0220
623.00,0.0219
622.00,0.0218
621.00,0.0218
620.00,0.0216
619.00,0.0215
618.00,0.0215
617.00,0.0214
616.00,0.0212
615.00,0.0210
614.00,0.0211
613.00,0.0212
612.00,0.0214
611.00,0.0216
610.00,0.0220
609.00,0.0222
608.00,0.0221
607.00,0.0220
606.00,0.0221
605.00,0.0222
604.00,0.0222
603.00,0.0223
602.00,0.0225
601.00,0.0226
600.00,0.0226
599.00,0.0226
598.00,0.0227
597.00,0.0228
596.00,0.0228
595.00,0.0228
594.00,0.0231
593.00,0.0233
592.00,0.0233
591.00,0.0235
590.00,0.0239
589.00,0.0243
588.00,0.0247
587.00,0.0252
586.00,0.0259
585.00,0.0267
584.00,0.0274
583.00,0.0280
582.00,0.0287
581.00,0.0292
580.00,0.0294
579.00,0.0296
578.00,0.0299
577.00,0.0303
576.00,0.0305
575.00,0.0306
574.00,0.0309
573.00,0.0311
572.00,0.0310
571.00,0.0310
570.00,0.0310
569.00,0.0309
568.00,0.0305
567.00,0.0301
566.00,0.0300
565.00,0.0298
564.00,0.0294
563.00,0.0291
562.00,0.0289
561.00,0.0287
560.00,0.0283
559.00,0.0280
558.00,0.0278
557.00,0.0276
556.00,0.0272
555.00,0.0268
554.00,0.0267
553.00,0.0266
552.00,0.0263
551.00,0.0260
550.00,0.0259
549.00,0.0257
548.00,0.0254
547.00,0.0251
546.00,0.0251
545.00,0.0250
544.00,0.0246
543.00,0.0244
542.00,0.0244
541.00,0.0245
540.00,0.0243
539.00,0.0242
538.00,0.0243
537.00,0.0244
536.00,0.0244
535.00,0.0246
534.00,0.0251
533.00,0.0255
532.00,0.0256
531.00,0.0256
530.00,0.0256
529.00,0.0255
528.00,0.0252
527.00,0.0250
526.00,0.0250
525.00,0.0249
524.00,0.0246
523.00,0.0242
522.00,0.0242
521.00,0.0241
520.00,0.0238
519.00,0.0236
518.00,0.0236
517.00,0.0237
516.00,0.0235
515.00,0.0234
514.00,0.0236
513.00,0.0237
512.00,0.0236
511.00,0.0235
510.00,0.0237
509.00,0.0239
508.00,0.0237
507.00,0.0237
506.00,0.0239
505.00,0.0241
504.00,0.0240
503.00,0.0238
502.00,0.0238
501.00,0.0236
500.00,0.0233
499.00,0.0233
498.00,0.0236
497.00,0.0239
496.00,0.0238
495.00,0.0237
494.00,0.0238
493.00,0.0239
492.00,0.0237
491.00,0.0236
490.00,0.0239
489.00,0.0242
488.00,0.0241
487.00,0.0240
486.00,0.0242
485.00,0.0243
484.00,0.0243
483.00,0.0243
482.00,0.0247
481.00,0.0251
480.00,0.0250
479.00,0.0248
478.00,0.0248
477.00,0.0248
476.00,0.0245
475.00,0.0242
474.00,0.0244
473.00,0.0245
472.00,0.0242
471.00,0.0241
470.00,0.0245
469.00,0.0246
468.00,0.0243
467.00,0.0241
466.00,0.0244
465.00,0.0249
464.00,0.0250
463.00,0.0251
462.00,0.0255
461.00,0.0255
460.00,0.0247
459.00,0.0240
458.00,0.0240
457.00,0.0241
456.00,0.0238
455.00,0.0237
454.00,0.0242
453.00,0.0245
452.00,0.0241
451.00,0.0237
450.00,0.0237
449.00,0.0238
448.00,0.0237
447.00,0.0237
446.00,0.0240
445.00,0.0242
444.00,0.0238
443.00,0.0235
442.00,0.0238
441.00,0.0239
440.00,0.0234
439.00,0.0229
438.00,0.0229
437.00,0.0228
436.00,0.0222
435.00,0.0218
434.00,0.0221
433.00,0.0223
432.00,0.0219
431.00,0.0214
430.00,0.0217
429.00,0.0218
428.00,0.0213
427.00,0.0210
426.00,0.0216
425.00,0.0222
424.00,0.0219
423.00,0.0215
422.00,0.0218
421.00,0.0224
420.00,0.0224
419.00,0.0226
418.00,0.0234
417.00,0.0232
416.00,0.0217
415.00,0.0207
414.00,0.0210
413.00,0.0214
412.00,0.0208
411.00,0.0202
410.00,0.0207
409.00,0.0213
408.00,0.0206
407.00,0.0200
406.00,0.0204
405.00,0.0204
404.00,0.0190
403.00,0.0180
402.00,0.0192
401.00,0.0209
400.00,0.0212
