Created as New Dataset,Sample 859 By YargerLab Date Monday, July 21 2025
cm-1,A
4000.00,0.0195
3999.00,0.0195
3998.00,0.0195
3997.00,0.0195
3996.00,0.0195
3995.00,0.0195
3994.00,0.0195
3993.00,0.0194
3992.00,0.0194
3991.00,0.0194
3990.00,0.0194
3989.00,0.0194
3988.00,0.0194
3987.00,0.0194
3986.00,0.0194
3985.00,0.0194
3984.00,0.0194
3983.00,0.0194
3982.00,0.0194
3981.00,0.0194
3980.00,0.0193
3979.00,0.0193
3978.00,0.0193
3977.00,0.0193
3976.00,0.0193
3975.00,0.0193
3974.00,0.0193
3973.00,0.0193
3972.00,0.0193
3971.00,0.0194
3970.00,0.0194
3969.00,0.0194
3968.00,0.0194
3967.00,0.0194
3966.00,0.0194
3965.00,0.0194
3964.00,0.0194
3963.00,0.0194
3962.00,0.0194
3961.00,0.0194
3960.00,0.0194
3959.00,0.0194
3958.00,0.0193
3957.00,0.0193
3956.00,0.0193
3955.00,0.0193
3954.00,0.0193
3953.00,0.0193
3952.00,0.0193
3951.00,0.0192
3950.00,0.0192
3949.00,0.0192
3948.00,0.0192
3947.00,0.0192
3946.00,0.0192
3945.00,0.0192
3944.00,0.0192
3943.00,0.0193
3942.00,0.0193
3941.00,0.0192
3940.00,0.0192
3939.00,0.0191
3938.00,0.0191
3937.00,0.0191
3936.00,0.0191
3935.00,0.0191
3934.00,0.0191
3933.00,0.0191
3932.00,0.0191
3931.00,0.0191
3930.00,0.0192
3929.00,0.0192
3928.00,0.0192
3927.00,0.0192
3926.00,0.0193
3925.00,0.0193
3924.00,0.0193
3923.00,0.0192
3922.00,0.0192
3921.00,0.0191
3920.00,0.0191
3919.00,0.0191
3918.00,0.0190
3917.00,0.0190
3916.00,0.0190
3915.00,0.0190
3914.00,0.0190
3913.00,0.0190
3912.00,0.0191
3911.00,0.0191
3910.00,0.0190
3909.00,0.0190
3908.00,0.0190
3907.00,0.0189
3906.00,0.0189
3905.00,0.0188
3904.00,0.0187
3903.00,0.0186
3902.00,0.0186
3901.00,0.0186
3900.00,0.0187
3899.00,0.0188
3898.00,0.0188
3897.00,0.0188
3896.00,0.0187
3895.00,0.0187
3894.00,0.0187
3893.00,0.0187
3892.00,0.0187
3891.00,0.0187
3890.00,0.0186
3889.00,0.0185
3888.00,0.0185
3887.00,0.0184
3886.00,0.0184
3885.00,0.0185
3884.00,0.0185
3883.00,0.0185
3882.00,0.0185
3881.00,0.0186
3880.00,0.0186
3879.00,0.0186
3878.00,0.0186
3877.00,0.0185
3876.00,0.0185
3875.00,0.0184
3874.00,0.0184
3873.00,0.0184
3872.00,0.0183
3871.00,0.0183
3870.00,0.0182
3869.00,0.0182
3868.00,0.0182
3867.00,0.0181
3866.00,0.0181
3865.00,0.0182
3864.00,0.0182
3863.00,0.0183
3862.00,0.0183
3861.00,0.0183
3860.00,0.0183
3859.00,0.0183
3858.00,0.0183
3857.00,0.0183
3856.00,0.0182
3855.00,0.0182
3854.00,0.0181
3853.00,0.0181
3852.00,0.0181
3851.00,0.0180
3850.00,0.0181
3849.00,0.0181
3848.00,0.0182
3847.00,0.0182
3846.00,0.0182
3845.00,0.0182
3844.00,0.0182
3843.00,0.0181
3842.00,0.0181
3841.00,0.0181
3840.00,0.0180
3839.00,0.0180
3838.00,0.0180
3837.00,0.0180
3836.00,0.0180
3835.00,0.0180
3834.00,0.0180
3833.00,0.0180
3832.00,0.0180
3831.00,0.0180
3830.00,0.0180
3829.00,0.0180
3828.00,0.0180
3827.00,0.0180
3826.00,0.0180
3825.00,0.0180
3824.00,0.0179
3823.00,0.0178
3822.00,0.0178
3821.00,0.0178
3820.00,0.0178
3819.00,0.0178
3818.00,0.0178
3817.00,0.0177
3816.00,0.0178
3815.00,0.0179
3814.00,0.0179
3813.00,0.0180
3812.00,0.0180
3811.00,0.0180
3810.00,0.0180
3809.00,0.0179
3808.00,0.0179
3807.00,0.0179
3806.00,0.0178
3805.00,0.0178
3804.00,0.0177
3803.00,0.0176
3802.00,0.0176
3801.00,0.0177
3800.00,0.0177
3799.00,0.0177
3798.00,0.0177
3797.00,0.0177
3796.00,0.0178
3795.00,0.0178
3794.00,0.0179
3793.00,0.0179
3792.00,0.0179
3791.00,0.0179
3790.00,0.0179
3789.00,0.0179
3788.00,0.0179
3787.00,0.0179
3786.00,0.0179
3785.00,0.0179
3784.00,0.0178
3783.00,0.0178
3782.00,0.0178
3781.00,0.0178
3780.00,0.0178
3779.00,0.0178
3778.00,0.0178
3777.00,0.0178
3776.00,0.0178
3775.00,0.0178
3774.00,0.0177
3773.00,0.0177
3772.00,0.0177
3771.00,0.0176
3770.00,0.0176
3769.00,0.0176
3768.00,0.0175
3767.00,0.0175
3766.00,0.0175
3765.00,0.0175
3764.00,0.0175
3763.00,0.0175
3762.00,0.0174
3761.00,0.0174
3760.00,0.0174
3759.00,0.0174
3758.00,0.0174
3757.00,0.0174
3756.00,0.0173
3755.00,0.0173
3754.00,0.0172
3753.00,0.0171
3752.00,0.0170
3751.00,0.0169
3750.00,0.0168
3749.00,0.0168
3748.00,0.0168
3747.00,0.0168
3746.00,0.0168
3745.00,0.0168
3744.00,0.0169
3743.00,0.0169
3742.00,0.0169
3741.00,0.0169
3740.00,0.0168
3739.00,0.0168
3738.00,0.0168
3737.00,0.0167
3736.00,0.0167
3735.00,0.0167
3734.00,0.0167
3733.00,0.0167
3732.00,0.0167
3731.00,0.0168
3730.00,0.0168
3729.00,0.0168
3728.00,0.0168
3727.00,0.0169
3726.00,0.0169
3725.00,0.0169
3724.00,0.0169
3723.00,0.0169
3722.00,0.0169
3721.00,0.0169
3720.00,0.0169
3719.00,0.0169
3718.00,0.0169
3717.00,0.0169
3716.00,0.0169
3715.00,0.0169
3714.00,0.0169
3713.00,0.0168
3712.00,0.0168
3711.00,0.0167
3710.00,0.0167
3709.00,0.0167
3708.00,0.0167
3707.00,0.0167
3706.00,0.0167
3705.00,0.0168
3704.00,0.0168
3703.00,0.0168
3702.00,0.0169
3701.00,0.0169
3700.00,0.0169
3699.00,0.0169
3698.00,0.0168
3697.00,0.0168
3696.00,0.0169
3695.00,0.0168
3694.00,0.0168
3693.00,0.0167
3692.00,0.0167
3691.00,0.0167
3690.00,0.0167
3689.00,0.0166
3688.00,0.0166
3687.00,0.0166
3686.00,0.0166
3685.00,0.0167
3684.00,0.0167
3683.00,0.0167
3682.00,0.0168
3681.00,0.0168
3680.00,0.0169
3679.00,0.0169
3678.00,0.0168
3677.00,0.0167
3676.00,0.0165
3675.00,0.0165
3674.00,0.0164
3673.00,0.0163
3672.00,0.0163
3671.00,0.0164
3670.00,0.0165
3669.00,0.0166
3668.00,0.0167
3667.00,0.0167
3666.00,0.0168
3665.00,0.0168
3664.00,0.0169
3663.00,0.0169
3662.00,0.0169
3661.00,0.0169
3660.00,0.0169
3659.00,0.0168
3658.00,0.0168
3657.00,0.0167
3656.00,0.0167
3655.00,0.0166
3654.00,0.0166
3653.00,0.0166
3652.00,0.0165
3651.00,0.0164
3650.00,0.0163
3649.00,0.0162
3648.00,0.0162
3647.00,0.0163
3646.00,0.0163
3645.00,0.0164
3644.00,0.0165
3643.00,0.0165
3642.00,0.0166
3641.00,0.0166
3640.00,0.0167
3639.00,0.0167
3638.00,0.0167
3637.00,0.0167
3636.00,0.0167
3635.00,0.0166
3634.00,0.0166
3633.00,0.0166
3632.00,0.0165
3631.00,0.0164
3630.00,0.0164
3629.00,0.0163
3628.00,0.0164
3627.00,0.0164
3626.00,0.0164
3625.00,0.0164
3624.00,0.0164
3623.00,0.0165
3622.00,0.0165
3621.00,0.0165
3620.00,0.0165
3619.00,0.0165
3618.00,0.0165
3617.00,0.0165
3616.00,0.0165
3615.00,0.0164
3614.00,0.0165
3613.00,0.0165
3612.00,0.0165
3611.00,0.0165
3610.00,0.0166
3609.00,0.0166
3608.00,0.0167
3607.00,0.0168
3606.00,0.0168
3605.00,0.0168
3604.00,0.0168
3603.00,0.0169
3602.00,0.0169
3601.00,0.0169
3600.00,0.0169
3599.00,0.0169
3598.00,0.0169
3597.00,0.0169
3596.00,0.0170
3595.00,0.0170
3594.00,0.0170
3593.00,0.0170
3592.00,0.0169
3591.00,0.0169
3590.00,0.0169
3589.00,0.0169
3588.00,0.0170
3587.00,0.0171
3586.00,0.0171
3585.00,0.0172
3584.00,0.0172
3583.00,0.0172
3582.00,0.0173
3581.00,0.0174
3580.00,0.0174
3579.00,0.0175
3578.00,0.0175
3577.00,0.0176
3576.00,0.0177
3575.00,0.0177
3574.00,0.0177
3573.00,0.0178
3572.00,0.0178
3571.00,0.0179
3570.00,0.0179
3569.00,0.0179
3568.00,0.0180
3567.00,0.0180
3566.00,0.0181
3565.00,0.0182
3564.00,0.0183
3563.00,0.0184
3562.00,0.0185
3561.00,0.0186
3560.00,0.0187
3559.00,0.0188
3558.00,0.0189
3557.00,0.0190
3556.00,0.0192
3555.00,0.0193
3554.00,0.0194
3553.00,0.0196
3552.00,0.0197
3551.00,0.0199
3550.00,0.0200
3549.00,0.0202
3548.00,0.0204
3547.00,0.0206
3546.00,0.0210
3545.00,0.0213
3544.00,0.0217
3543.00,0.0221
3542.00,0.0224
3541.00,0.0229
3540.00,0.0233
3539.00,0.0239
3538.00,0.0245
3537.00,0.0252
3536.00,0.0259
3535.00,0.0268
3534.00,0.0277
3533.00,0.0289
3532.00,0.0302
3531.00,0.0318
3530.00,0.0336
3529.00,0.0358
3528.00,0.0382
3527.00,0.0407
3526.00,0.0434
3525.00,0.0460
3524.00,0.0484
3523.00,0.0506
3522.00,0.0523
3521.00,0.0535
3520.00,0.0541
3519.00,0.0542
3518.00,0.0538
3517.00,0.0530
3516.00,0.0518
3515.00,0.0503
3514.00,0.0486
3513.00,0.0469
3512.00,0.0451
3511.00,0.0434
3510.00,0.0417
3509.00,0.0403
3508.00,0.0389
3507.00,0.0378
3506.00,0.0368
3505.00,0.0359
3504.00,0.0352
3503.00,0.0346
3502.00,0.0341
3501.00,0.0338
3500.00,0.0334
3499.00,0.0332
3498.00,0.0330
3497.00,0.0329
3496.00,0.0329
3495.00,0.0329
3494.00,0.0329
3493.00,0.0330
3492.00,0.0331
3491.00,0.0332
3490.00,0.0333
3489.00,0.0335
3488.00,0.0337
3487.00,0.0339
3486.00,0.0341
3485.00,0.0343
3484.00,0.0345
3483.00,0.0348
3482.00,0.0351
3481.00,0.0355
3480.00,0.0358
3479.00,0.0362
3478.00,0.0365
3477.00,0.0369
3476.00,0.0373
3475.00,0.0377
3474.00,0.0382
3473.00,0.0387
3472.00,0.0392
3471.00,0.0397
3470.00,0.0402
3469.00,0.0407
3468.00,0.0413
3467.00,0.0418
3466.00,0.0423
3465.00,0.0428
3464.00,0.0433
3463.00,0.0439
3462.00,0.0445
3461.00,0.0451
3460.00,0.0457
3459.00,0.0463
3458.00,0.0469
3457.00,0.0475
3456.00,0.0482
3455.00,0.0488
3454.00,0.0494
3453.00,0.0499
3452.00,0.0504
3451.00,0.0509
3450.00,0.0514
3449.00,0.0520
3448.00,0.0525
3447.00,0.0531
3446.00,0.0537
3445.00,0.0543
3444.00,0.0548
3443.00,0.0553
3442.00,0.0558
3441.00,0.0564
3440.00,0.0569
3439.00,0.0575
3438.00,0.0581
3437.00,0.0586
3436.00,0.0591
3435.00,0.0596
3434.00,0.0601
3433.00,0.0605
3432.00,0.0610
3431.00,0.0615
3430.00,0.0620
3429.00,0.0625
3428.00,0.0631
3427.00,0.0636
3426.00,0.0641
3425.00,0.0647
3424.00,0.0653
3423.00,0.0660
3422.00,0.0668
3421.00,0.0676
3420.00,0.0685
3419.00,0.0694
3418.00,0.0704
3417.00,0.0713
3416.00,0.0722
3415.00,0.0732
3414.00,0.0741
3413.00,0.0749
3412.00,0.0756
3411.00,0.0761
3410.00,0.0766
3409.00,0.0768
3408.00,0.0769
3407.00,0.0768
3406.00,0.0765
3405.00,0.0760
3404.00,0.0752
3403.00,0.0743
3402.00,0.0732
3401.00,0.0718
3400.00,0.0703
3399.00,0.0686
3398.00,0.0669
3397.00,0.0651
3396.00,0.0634
3395.00,0.0616
3394.00,0.0600
3393.00,0.0583
3392.00,0.0568
3391.00,0.0552
3390.00,0.0538
3389.00,0.0524
3388.00,0.0511
3387.00,0.0498
3386.00,0.0487
3385.00,0.0476
3384.00,0.0467
3383.00,0.0457
3382.00,0.0449
3381.00,0.0441
3380.00,0.0433
3379.00,0.0426
3378.00,0.0419
3377.00,0.0412
3376.00,0.0406
3375.00,0.0400
3374.00,0.0394
3373.00,0.0388
3372.00,0.0383
3371.00,0.0378
3370.00,0.0373
3369.00,0.0368
3368.00,0.0364
3367.00,0.0359
3366.00,0.0355
3365.00,0.0351
3364.00,0.0347
3363.00,0.0343
3362.00,0.0339
3361.00,0.0335
3360.00,0.0332
3359.00,0.0328
3358.00,0.0324
3357.00,0.0321
3356.00,0.0317
3355.00,0.0314
3354.00,0.0311
3353.00,0.0309
3352.00,0.0306
3351.00,0.0304
3350.00,0.0302
3349.00,0.0299
3348.00,0.0297
3347.00,0.0294
3346.00,0.0292
3345.00,0.0289
3344.00,0.0287
3343.00,0.0285
3342.00,0.0283
3341.00,0.0281
3340.00,0.0279
3339.00,0.0277
3338.00,0.0275
3337.00,0.0274
3336.00,0.0272
3335.00,0.0270
3334.00,0.0269
3333.00,0.0267
3332.00,0.0266
3331.00,0.0264
3330.00,0.0263
3329.00,0.0261
3328.00,0.0260
3327.00,0.0259
3326.00,0.0257
3325.00,0.0256
3324.00,0.0255
3323.00,0.0253
3322.00,0.0252
3321.00,0.0251
3320.00,0.0250
3319.00,0.0249
3318.00,0.0248
3317.00,0.0247
3316.00,0.0246
3315.00,0.0245
3314.00,0.0244
3313.00,0.0243
3312.00,0.0242
3311.00,0.0241
3310.00,0.0240
3309.00,0.0239
3308.00,0.0238
3307.00,0.0237
3306.00,0.0236
3305.00,0.0235
3304.00,0.0234
3303.00,0.0234
3302.00,0.0233
3301.00,0.0232
3300.00,0.0231
3299.00,0.0230
3298.00,0.0229
3297.00,0.0228
3296.00,0.0227
3295.00,0.0226
3294.00,0.0226
3293.00,0.0225
3292.00,0.0224
3291.00,0.0224
3290.00,0.0223
3289.00,0.0223
3288.00,0.0222
3287.00,0.0221
3286.00,0.0220
3285.00,0.0219
3284.00,0.0219
3283.00,0.0218
3282.00,0.0217
3281.00,0.0217
3280.00,0.0216
3279.00,0.0215
3278.00,0.0214
3277.00,0.0214
3276.00,0.0213
3275.00,0.0212
3274.00,0.0212
3273.00,0.0211
3272.00,0.0211
3271.00,0.0211
3270.00,0.0211
3269.00,0.0211
3268.00,0.0211
3267.00,0.0211
3266.00,0.0210
3265.00,0.0210
3264.00,0.0209
3263.00,0.0209
3262.00,0.0209
3261.00,0.0208
3260.00,0.0208
3259.00,0.0208
3258.00,0.0207
3257.00,0.0206
3256.00,0.0206
3255.00,0.0206
3254.00,0.0206
3253.00,0.0206
3252.00,0.0205
3251.00,0.0205
3250.00,0.0204
3249.00,0.0203
3248.00,0.0203
3247.00,0.0203
3246.00,0.0203
3245.00,0.0203
3244.00,0.0203
3243.00,0.0203
3242.00,0.0202
3241.00,0.0202
3240.00,0.0201
3239.00,0.0200
3238.00,0.0199
3237.00,0.0199
3236.00,0.0198
3235.00,0.0197
3234.00,0.0197
3233.00,0.0196
3232.00,0.0196
3231.00,0.0196
3230.00,0.0196
3229.00,0.0196
3228.00,0.0196
3227.00,0.0195
3226.00,0.0195
3225.00,0.0194
3224.00,0.0194
3223.00,0.0193
3222.00,0.0193
3221.00,0.0193
3220.00,0.0192
3219.00,0.0192
3218.00,0.0192
3217.00,0.0192
3216.00,0.0191
3215.00,0.0191
3214.00,0.0191
3213.00,0.0191
3212.00,0.0191
3211.00,0.0191
3210.00,0.0191
3209.00,0.0190
3208.00,0.0190
3207.00,0.0190
3206.00,0.0190
3205.00,0.0190
3204.00,0.0190
3203.00,0.0189
3202.00,0.0189
3201.00,0.0188
3200.00,0.0188
3199.00,0.0188
3198.00,0.0187
3197.00,0.0187
3196.00,0.0186
3195.00,0.0186
3194.00,0.0186
3193.00,0.0186
3192.00,0.0186
3191.00,0.0185
3190.00,0.0185
3189.00,0.0185
3188.00,0.0185
3187.00,0.0185
3186.00,0.0185
3185.00,0.0185
3184.00,0.0185
3183.00,0.0185
3182.00,0.0184
3181.00,0.0184
3180.00,0.0184
3179.00,0.0184
3178.00,0.0184
3177.00,0.0184
3176.00,0.0184
3175.00,0.0184
3174.00,0.0184
3173.00,0.0184
3172.00,0.0184
3171.00,0.0184
3170.00,0.0184
3169.00,0.0184
3168.00,0.0184
3167.00,0.0184
3166.00,0.0184
3165.00,0.0184
3164.00,0.0183
3163.00,0.0183
3162.00,0.0183
3161.00,0.0183
3160.00,0.0183
3159.00,0.0182
3158.00,0.0182
3157.00,0.0181
3156.00,0.0180
3155.00,0.0179
3154.00,0.0178
3153.00,0.0178
3152.00,0.0178
3151.00,0.0178
3150.00,0.0178
3149.00,0.0177
3148.00,0.0177
3147.00,0.0177
3146.00,0.0177
3145.00,0.0176
3144.00,0.0176
3143.00,0.0176
3142.00,0.0175
3141.00,0.0175
3140.00,0.0174
3139.00,0.0174
3138.00,0.0174
3137.00,0.0174
3136.00,0.0173
3135.00,0.0173
3134.00,0.0173
3133.00,0.0173
3132.00,0.0173
3131.00,0.0173
3130.00,0.0173
3129.00,0.0172
3128.00,0.0172
3127.00,0.0172
3126.00,0.0171
3125.00,0.0171
3124.00,0.0171
3123.00,0.0171
3122.00,0.0171
3121.00,0.0171
3120.00,0.0171
3119.00,0.0171
3118.00,0.0171
3117.00,0.0171
3116.00,0.0171
3115.00,0.0170
3114.00,0.0170
3113.00,0.0169
3112.00,0.0169
3111.00,0.0169
3110.00,0.0169
3109.00,0.0169
3108.00,0.0169
3107.00,0.0169
3106.00,0.0168
3105.00,0.0168
3104.00,0.0168
3103.00,0.0168
3102.00,0.0168
3101.00,0.0168
3100.00,0.0169
3099.00,0.0169
3098.00,0.0169
3097.00,0.0168
3096.00,0.0168
3095.00,0.0168
3094.00,0.0169
3093.00,0.0170
3092.00,0.0170
3091.00,0.0171
3090.00,0.0172
3089.00,0.0172
3088.00,0.0173
3087.00,0.0175
3086.00,0.0176
3085.00,0.0178
3084.00,0.0181
3083.00,0.0185
3082.00,0.0191
3081.00,0.0198
3080.00,0.0207
3079.00,0.0217
3078.00,0.0228
3077.00,0.0237
3076.00,0.0244
3075.00,0.0247
3074.00,0.0245
3073.00,0.0239
3072.00,0.0229
3071.00,0.0219
3070.00,0.0210
3069.00,0.0201
3068.00,0.0195
3067.00,0.0189
3066.00,0.0185
3065.00,0.0182
3064.00,0.0179
3063.00,0.0177
3062.00,0.0175
3061.00,0.0174
3060.00,0.0173
3059.00,0.0172
3058.00,0.0171
3057.00,0.0171
3056.00,0.0170
3055.00,0.0170
3054.00,0.0169
3053.00,0.0169
3052.00,0.0170
3051.00,0.0170
3050.00,0.0171
3049.00,0.0171
3048.00,0.0172
3047.00,0.0173
3046.00,0.0174
3045.00,0.0175
3044.00,0.0176
3043.00,0.0177
3042.00,0.0179
3041.00,0.0180
3040.00,0.0181
3039.00,0.0182
3038.00,0.0183
3037.00,0.0184
3036.00,0.0186
3035.00,0.0187
3034.00,0.0188
3033.00,0.0189
3032.00,0.0189
3031.00,0.0188
3030.00,0.0187
3029.00,0.0185
3028.00,0.0183
3027.00,0.0181
3026.00,0.0179
3025.00,0.0178
3024.00,0.0177
3023.00,0.0177
3022.00,0.0177
3021.00,0.0177
3020.00,0.0176
3019.00,0.0176
3018.00,0.0176
3017.00,0.0177
3016.00,0.0178
3015.00,0.0179
3014.00,0.0180
3013.00,0.0181
3012.00,0.0183
3011.00,0.0184
3010.00,0.0186
3009.00,0.0187
3008.00,0.0188
3007.00,0.0190
3006.00,0.0192
3005.00,0.0193
3004.00,0.0195
3003.00,0.0197
3002.00,0.0199
3001.00,0.0202
3000.00,0.0204
2999.00,0.0207
2998.00,0.0210
2997.00,0.0212
2996.00,0.0215
2995.00,0.0218
2994.00,0.0221
2993.00,0.0225
2992.00,0.0230
2991.00,0.0234
2990.00,0.0238
2989.00,0.0242
2988.00,0.0246
2987.00,0.0249
2986.00,0.0252
2985.00,0.0256
2984.00,0.0262
2983.00,0.0268
2982.00,0.0275
2981.00,0.0283
2980.00,0.0292
2979.00,0.0302
2978.00,0.0313
2977.00,0.0326
2976.00,0.0341
2975.00,0.0359
2974.00,0.0378
2973.00,0.0400
2972.00,0.0422
2971.00,0.0444
2970.00,0.0465
2969.00,0.0485
2968.00,0.0501
2967.00,0.0514
2966.00,0.0523
2965.00,0.0528
2964.00,0.0530
2963.00,0.0529
2962.00,0.0527
2961.00,0.0523
2960.00,0.0517
2959.00,0.0509
2958.00,0.0500
2957.00,0.0490
2956.00,0.0479
2955.00,0.0469
2954.00,0.0460
2953.00,0.0452
2952.00,0.0446
2951.00,0.0444
2950.00,0.0444
2949.00,0.0449
2948.00,0.0458
2947.00,0.0471
2946.00,0.0487
2945.00,0.0505
2944.00,0.0524
2943.00,0.0542
2942.00,0.0559
2941.00,0.0575
2940.00,0.0591
2939.00,0.0607
2938.00,0.0625
2937.00,0.0644
2936.00,0.0665
2935.00,0.0687
2934.00,0.0710
2933.00,0.0734
2932.00,0.0757
2931.00,0.0781
2930.00,0.0804
2929.00,0.0826
2928.00,0.0846
2927.00,0.0862
2926.00,0.0873
2925.00,0.0879
2924.00,0.0879
2923.00,0.0875
2922.00,0.0868
2921.00,0.0861
2920.00,0.0854
2919.00,0.0847
2918.00,0.0840
2917.00,0.0833
2916.00,0.0825
2915.00,0.0814
2914.00,0.0800
2913.00,0.0783
2912.00,0.0763
2911.00,0.0741
2910.00,0.0718
2909.00,0.0696
2908.00,0.0673
2907.00,0.0653
2906.00,0.0634
2905.00,0.0617
2904.00,0.0602
2903.00,0.0588
2902.00,0.0576
2901.00,0.0565
2900.00,0.0554
2899.00,0.0542
2898.00,0.0529
2897.00,0.0516
2896.00,0.0502
2895.00,0.0489
2894.00,0.0476
2893.00,0.0466
2892.00,0.0457
2891.00,0.0449
2890.00,0.0443
2889.00,0.0439
2888.00,0.0435
2887.00,0.0432
2886.00,0.0430
2885.00,0.0429
2884.00,0.0427
2883.00,0.0427
2882.00,0.0427
2881.00,0.0428
2880.00,0.0430
2879.00,0.0433
2878.00,0.0438
2877.00,0.0443
2876.00,0.0449
2875.00,0.0455
2874.00,0.0460
2873.00,0.0465
2872.00,0.0468
2871.00,0.0468
2870.00,0.0466
2869.00,0.0462
2868.00,0.0458
2867.00,0.0456
2866.00,0.0456
2865.00,0.0462
2864.00,0.0472
2863.00,0.0489
2862.00,0.0511
2861.00,0.0539
2860.00,0.0571
2859.00,0.0604
2858.00,0.0634
2857.00,0.0657
2856.00,0.0667
2855.00,0.0663
2854.00,0.0645
2853.00,0.0617
2852.00,0.0583
2851.00,0.0546
2850.00,0.0509
2849.00,0.0475
2848.00,0.0443
2847.00,0.0414
2846.00,0.0389
2845.00,0.0367
2844.00,0.0349
2843.00,0.0333
2842.00,0.0321
2841.00,0.0311
2840.00,0.0304
2839.00,0.0300
2838.00,0.0298
2837.00,0.0300
2836.00,0.0306
2835.00,0.0315
2834.00,0.0329
2833.00,0.0347
2832.00,0.0365
2831.00,0.0382
2830.00,0.0392
2829.00,0.0392
2828.00,0.0382
2827.00,0.0364
2826.00,0.0341
2825.00,0.0317
2824.00,0.0295
2823.00,0.0276
2822.00,0.0260
2821.00,0.0248
2820.00,0.0237
2819.00,0.0229
2818.00,0.0222
2817.00,0.0217
2816.00,0.0212
2815.00,0.0208
2814.00,0.0205
2813.00,0.0202
2812.00,0.0199
2811.00,0.0196
2810.00,0.0194
2809.00,0.0192
2808.00,0.0190
2807.00,0.0189
2806.00,0.0187
2805.00,0.0185
2804.00,0.0184
2803.00,0.0182
2802.00,0.0180
2801.00,0.0179
2800.00,0.0177
2799.00,0.0176
2798.00,0.0175
2797.00,0.0173
2796.00,0.0172
2795.00,0.0171
2794.00,0.0170
2793.00,0.0169
2792.00,0.0168
2791.00,0.0168
2790.00,0.0167
2789.00,0.0166
2788.00,0.0165
2787.00,0.0163
2786.00,0.0163
2785.00,0.0162
2784.00,0.0161
2783.00,0.0160
2782.00,0.0159
2781.00,0.0159
2780.00,0.0158
2779.00,0.0157
2778.00,0.0157
2777.00,0.0156
2776.00,0.0156
2775.00,0.0155
2774.00,0.0155
2773.00,0.0154
2772.00,0.0154
2771.00,0.0153
2770.00,0.0153
2769.00,0.0152
2768.00,0.0152
2767.00,0.0151
2766.00,0.0151
2765.00,0.0150
2764.00,0.0150
2763.00,0.0149
2762.00,0.0149
2761.00,0.0148
2760.00,0.0148
2759.00,0.0148
2758.00,0.0148
2757.00,0.0147
2756.00,0.0147
2755.00,0.0147
2754.00,0.0147
2753.00,0.0147
2752.00,0.0147
2751.00,0.0147
2750.00,0.0147
2749.00,0.0147
2748.00,0.0147
2747.00,0.0147
2746.00,0.0147
2745.00,0.0147
2744.00,0.0148
2743.00,0.0148
2742.00,0.0149
2741.00,0.0149
2740.00,0.0150
2739.00,0.0150
2738.00,0.0151
2737.00,0.0152
2736.00,0.0153
2735.00,0.0154
2734.00,0.0155
2733.00,0.0157
2732.00,0.0158
2731.00,0.0160
2730.00,0.0161
2729.00,0.0162
2728.00,0.0162
2727.00,0.0161
2726.00,0.0159
2725.00,0.0157
2724.00,0.0156
2723.00,0.0154
2722.00,0.0152
2721.00,0.0151
2720.00,0.0149
2719.00,0.0148
2718.00,0.0147
2717.00,0.0146
2716.00,0.0145
2715.00,0.0145
2714.00,0.0144
2713.00,0.0143
2712.00,0.0143
2711.00,0.0142
2710.00,0.0142
2709.00,0.0141
2708.00,0.0141
2707.00,0.0141
2706.00,0.0140
2705.00,0.0140
2704.00,0.0139
2703.00,0.0139
2702.00,0.0139
2701.00,0.0138
2700.00,0.0138
2699.00,0.0138
2698.00,0.0137
2697.00,0.0137
2696.00,0.0137
2695.00,0.0137
2694.00,0.0137
2693.00,0.0137
2692.00,0.0137
2691.00,0.0137
2690.00,0.0138
2689.00,0.0138
2688.00,0.0138
2687.00,0.0138
2686.00,0.0138
2685.00,0.0138
2684.00,0.0138
2683.00,0.0138
2682.00,0.0139
2681.00,0.0139
2680.00,0.0139
2679.00,0.0140
2678.00,0.0140
2677.00,0.0140
2676.00,0.0141
2675.00,0.0141
2674.00,0.0141
2673.00,0.0141
2672.00,0.0142
2671.00,0.0142
2670.00,0.0142
2669.00,0.0142
2668.00,0.0142
2667.00,0.0142
2666.00,0.0143
2665.00,0.0143
2664.00,0.0143
2663.00,0.0144
2662.00,0.0144
2661.00,0.0144
2660.00,0.0144
2659.00,0.0144
2658.00,0.0144
2657.00,0.0143
2656.00,0.0143
2655.00,0.0143
2654.00,0.0142
2653.00,0.0142
2652.00,0.0142
2651.00,0.0141
2650.00,0.0141
2649.00,0.0140
2648.00,0.0140
2647.00,0.0139
2646.00,0.0139
2645.00,0.0138
2644.00,0.0138
2643.00,0.0138
2642.00,0.0137
2641.00,0.0137
2640.00,0.0137
2639.00,0.0136
2638.00,0.0136
2637.00,0.0136
2636.00,0.0136
2635.00,0.0136
2634.00,0.0136
2633.00,0.0136
2632.00,0.0136
2631.00,0.0135
2630.00,0.0135
2629.00,0.0135
2628.00,0.0135
2627.00,0.0135
2626.00,0.0135
2625.00,0.0134
2624.00,0.0134
2623.00,0.0134
2622.00,0.0133
2621.00,0.0133
2620.00,0.0133
2619.00,0.0133
2618.00,0.0133
2617.00,0.0132
2616.00,0.0132
2615.00,0.0132
2614.00,0.0131
2613.00,0.0131
2612.00,0.0131
2611.00,0.0131
2610.00,0.0130
2609.00,0.0130
2608.00,0.0130
2607.00,0.0130
2606.00,0.0130
2605.00,0.0129
2604.00,0.0129
2603.00,0.0129
2602.00,0.0129
2601.00,0.0129
2600.00,0.0129
2599.00,0.0128
2598.00,0.0128
2597.00,0.0127
2596.00,0.0127
2595.00,0.0126
2594.00,0.0126
2593.00,0.0126
2592.00,0.0126
2591.00,0.0126
2590.00,0.0126
2589.00,0.0126
2588.00,0.0126
2587.00,0.0125
2586.00,0.0125
2585.00,0.0125
2584.00,0.0125
2583.00,0.0125
2582.00,0.0124
2581.00,0.0124
2580.00,0.0124
2579.00,0.0124
2578.00,0.0124
2577.00,0.0124
2576.00,0.0124
2575.00,0.0124
2574.00,0.0124
2573.00,0.0123
2572.00,0.0124
2571.00,0.0124
2570.00,0.0124
2569.00,0.0124
2568.00,0.0124
2567.00,0.0123
2566.00,0.0123
2565.00,0.0123
2564.00,0.0122
2563.00,0.0122
2562.00,0.0122
2561.00,0.0123
2560.00,0.0123
2559.00,0.0122
2558.00,0.0122
2557.00,0.0121
2556.00,0.0121
2555.00,0.0121
2554.00,0.0121
2553.00,0.0121
2552.00,0.0121
2551.00,0.0120
2550.00,0.0120
2549.00,0.0119
2548.00,0.0119
2547.00,0.0119
2546.00,0.0119
2545.00,0.0119
2544.00,0.0119
2543.00,0.0119
2542.00,0.0119
2541.00,0.0119
2540.00,0.0119
2539.00,0.0119
2538.00,0.0119
2537.00,0.0118
2536.00,0.0117
2535.00,0.0117
2534.00,0.0117
2533.00,0.0117
2532.00,0.0117
2531.00,0.0118
2530.00,0.0117
2529.00,0.0117
2528.00,0.0117
2527.00,0.0117
2526.00,0.0117
2525.00,0.0117
2524.00,0.0117
2523.00,0.0116
2522.00,0.0116
2521.00,0.0116
2520.00,0.0116
2519.00,0.0116
2518.00,0.0116
2517.00,0.0116
2516.00,0.0116
2515.00,0.0115
2514.00,0.0115
2513.00,0.0115
2512.00,0.0115
2511.00,0.0115
2510.00,0.0115
2509.00,0.0115
2508.00,0.0115
2507.00,0.0115
2506.00,0.0115
2505.00,0.0114
2504.00,0.0114
2503.00,0.0114
2502.00,0.0114
2501.00,0.0114
2500.00,0.0114
2499.00,0.0114
2498.00,0.0114
2497.00,0.0114
2496.00,0.0114
2495.00,0.0113
2494.00,0.0113
2493.00,0.0113
2492.00,0.0113
2491.00,0.0113
2490.00,0.0113
2489.00,0.0113
2488.00,0.0112
2487.00,0.0112
2486.00,0.0113
2485.00,0.0113
2484.00,0.0114
2483.00,0.0114
2482.00,0.0114
2481.00,0.0114
2480.00,0.0114
2479.00,0.0114
2478.00,0.0114
2477.00,0.0113
2476.00,0.0113
2475.00,0.0113
2474.00,0.0113
2473.00,0.0113
2472.00,0.0113
2471.00,0.0114
2470.00,0.0114
2469.00,0.0114
2468.00,0.0114
2467.00,0.0113
2466.00,0.0113
2465.00,0.0113
2464.00,0.0113
2463.00,0.0113
2462.00,0.0114
2461.00,0.0114
2460.00,0.0115
2459.00,0.0115
2458.00,0.0114
2457.00,0.0114
2456.00,0.0114
2455.00,0.0114
2454.00,0.0114
2453.00,0.0115
2452.00,0.0115
2451.00,0.0114
2450.00,0.0114
2449.00,0.0114
2448.00,0.0114
2447.00,0.0113
2446.00,0.0112
2445.00,0.0111
2444.00,0.0111
2443.00,0.0110
2442.00,0.0109
2441.00,0.0108
2440.00,0.0108
2439.00,0.0108
2438.00,0.0107
2437.00,0.0106
2436.00,0.0106
2435.00,0.0105
2434.00,0.0105
2433.00,0.0105
2432.00,0.0105
2431.00,0.0104
2430.00,0.0104
2429.00,0.0104
2428.00,0.0104
2427.00,0.0104
2426.00,0.0103
2425.00,0.0102
2424.00,0.0102
2423.00,0.0102
2422.00,0.0101
2421.00,0.0101
2420.00,0.0101
2419.00,0.0100
2418.00,0.0100
2417.00,0.0100
2416.00,0.0100
2415.00,0.0100
2414.00,0.0100
2413.00,0.0100
2412.00,0.0100
2411.00,0.0100
2410.00,0.0100
2409.00,0.0099
2408.00,0.0098
2407.00,0.0098
2406.00,0.0097
2405.00,0.0097
2404.00,0.0096
2403.00,0.0096
2402.00,0.0096
2401.00,0.0096
2400.00,0.0096
2399.00,0.0096
2398.00,0.0096
2397.00,0.0096
2396.00,0.0096
2395.00,0.0096
2394.00,0.0096
2393.00,0.0096
2392.00,0.0096
2391.00,0.0096
2390.00,0.0096
2389.00,0.0095
2388.00,0.0095
2387.00,0.0095
2386.00,0.0095
2385.00,0.0094
2384.00,0.0093
2383.00,0.0092
2382.00,0.0092
2381.00,0.0091
2380.00,0.0091
2379.00,0.0091
2378.00,0.0091
2377.00,0.0091
2376.00,0.0091
2375.00,0.0091
2374.00,0.0091
2373.00,0.0090
2372.00,0.0090
2371.00,0.0090
2370.00,0.0089
2369.00,0.0088
2368.00,0.0088
2367.00,0.0088
2366.00,0.0088
2365.00,0.0089
2364.00,0.0089
2363.00,0.0090
2362.00,0.0090
2361.00,0.0091
2360.00,0.0091
2359.00,0.0090
2358.00,0.0090
2357.00,0.0090
2356.00,0.0090
2355.00,0.0090
2354.00,0.0090
2353.00,0.0090
2352.00,0.0090
2351.00,0.0089
2350.00,0.0089
2349.00,0.0090
2348.00,0.0091
2347.00,0.0094
2346.00,0.0095
2345.00,0.0095
2344.00,0.0093
2343.00,0.0092
2342.00,0.0091
2341.00,0.0092
2340.00,0.0092
2339.00,0.0093
2338.00,0.0093
2337.00,0.0093
2336.00,0.0093
2335.00,0.0093
2334.00,0.0092
2333.00,0.0092
2332.00,0.0092
2331.00,0.0091
2330.00,0.0092
2329.00,0.0093
2328.00,0.0097
2327.00,0.0102
2326.00,0.0106
2325.00,0.0106
2324.00,0.0105
2323.00,0.0102
2322.00,0.0099
2321.00,0.0097
2320.00,0.0095
2319.00,0.0094
2318.00,0.0094
2317.00,0.0093
2316.00,0.0094
2315.00,0.0094
2314.00,0.0093
2313.00,0.0093
2312.00,0.0092
2311.00,0.0091
2310.00,0.0090
2309.00,0.0090
2308.00,0.0090
2307.00,0.0090
2306.00,0.0090
2305.00,0.0090
2304.00,0.0090
2303.00,0.0090
2302.00,0.0090
2301.00,0.0090
2300.00,0.0091
2299.00,0.0092
2298.00,0.0092
2297.00,0.0093
2296.00,0.0094
2295.00,0.0095
2294.00,0.0096
2293.00,0.0097
2292.00,0.0098
2291.00,0.0100
2290.00,0.0101
2289.00,0.0102
2288.00,0.0103
2287.00,0.0102
2286.00,0.0102
2285.00,0.0101
2284.00,0.0100
2283.00,0.0099
2282.00,0.0098
2281.00,0.0097
2280.00,0.0096
2279.00,0.0096
2278.00,0.0096
2277.00,0.0095
2276.00,0.0095
2275.00,0.0094
2274.00,0.0094
2273.00,0.0094
2272.00,0.0094
2271.00,0.0094
2270.00,0.0093
2269.00,0.0092
2268.00,0.0091
2267.00,0.0090
2266.00,0.0090
2265.00,0.0090
2264.00,0.0090
2263.00,0.0090
2262.00,0.0091
2261.00,0.0091
2260.00,0.0092
2259.00,0.0092
2258.00,0.0091
2257.00,0.0089
2256.00,0.0088
2255.00,0.0087
2254.00,0.0087
2253.00,0.0087
2252.00,0.0088
2251.00,0.0088
2250.00,0.0088
2249.00,0.0088
2248.00,0.0087
2247.00,0.0087
2246.00,0.0087
2245.00,0.0087
2244.00,0.0087
2243.00,0.0087
2242.00,0.0087
2241.00,0.0087
2240.00,0.0087
2239.00,0.0087
2238.00,0.0087
2237.00,0.0087
2236.00,0.0088
2235.00,0.0088
2234.00,0.0088
2233.00,0.0088
2232.00,0.0088
2231.00,0.0088
2230.00,0.0087
2229.00,0.0087
2228.00,0.0087
2227.00,0.0086
2226.00,0.0086
2225.00,0.0086
2224.00,0.0086
2223.00,0.0086
2222.00,0.0086
2221.00,0.0086
2220.00,0.0086
2219.00,0.0085
2218.00,0.0085
2217.00,0.0084
2216.00,0.0084
2215.00,0.0083
2214.00,0.0083
2213.00,0.0083
2212.00,0.0082
2211.00,0.0082
2210.00,0.0082
2209.00,0.0082
2208.00,0.0083
2207.00,0.0083
2206.00,0.0084
2205.00,0.0084
2204.00,0.0084
2203.00,0.0084
2202.00,0.0084
2201.00,0.0084
2200.00,0.0083
2199.00,0.0083
2198.00,0.0083
2197.00,0.0084
2196.00,0.0085
2195.00,0.0086
2194.00,0.0086
2193.00,0.0085
2192.00,0.0085
2191.00,0.0084
2190.00,0.0084
2189.00,0.0084
2188.00,0.0085
2187.00,0.0085
2186.00,0.0085
2185.00,0.0084
2184.00,0.0081
2183.00,0.0078
2182.00,0.0076
2181.00,0.0076
2180.00,0.0079
2179.00,0.0080
2178.00,0.0079
2177.00,0.0077
2176.00,0.0075
2175.00,0.0074
2174.00,0.0075
2173.00,0.0078
2172.00,0.0082
2171.00,0.0085
2170.00,0.0087
2169.00,0.0089
2168.00,0.0090
2167.00,0.0091
2166.00,0.0092
2165.00,0.0095
2164.00,0.0097
2163.00,0.0096
2162.00,0.0089
2161.00,0.0073
2160.00,0.0054
2159.00,0.0038
2158.00,0.0032
2157.00,0.0034
2156.00,0.0039
2155.00,0.0044
2154.00,0.0047
2153.00,0.0049
2152.00,0.0051
2151.00,0.0053
2150.00,0.0054
2149.00,0.0054
2148.00,0.0055
2147.00,0.0056
2146.00,0.0056
2145.00,0.0057
2144.00,0.0057
2143.00,0.0057
2142.00,0.0058
2141.00,0.0059
2140.00,0.0059
2139.00,0.0059
2138.00,0.0057
2137.00,0.0054
2136.00,0.0052
2135.00,0.0050
2134.00,0.0050
2133.00,0.0052
2132.00,0.0054
2131.00,0.0056
2130.00,0.0059
2129.00,0.0060
2128.00,0.0062
2127.00,0.0063
2126.00,0.0064
2125.00,0.0065
2124.00,0.0066
2123.00,0.0068
2122.00,0.0069
2121.00,0.0071
2120.00,0.0072
2119.00,0.0073
2118.00,0.0074
2117.00,0.0076
2116.00,0.0077
2115.00,0.0077
2114.00,0.0076
2113.00,0.0076
2112.00,0.0076
2111.00,0.0076
2110.00,0.0076
2109.00,0.0076
2108.00,0.0076
2107.00,0.0076
2106.00,0.0076
2105.00,0.0075
2104.00,0.0075
2103.00,0.0075
2102.00,0.0074
2101.00,0.0074
2100.00,0.0073
2099.00,0.0072
2098.00,0.0071
2097.00,0.0070
2096.00,0.0069
2095.00,0.0067
2094.00,0.0067
2093.00,0.0068
2092.00,0.0070
2091.00,0.0071
2090.00,0.0071
2089.00,0.0072
2088.00,0.0073
2087.00,0.0073
2086.00,0.0074
2085.00,0.0075
2084.00,0.0076
2083.00,0.0076
2082.00,0.0076
2081.00,0.0076
2080.00,0.0076
2079.00,0.0075
2078.00,0.0075
2077.00,0.0074
2076.00,0.0074
2075.00,0.0074
2074.00,0.0074
2073.00,0.0074
2072.00,0.0074
2071.00,0.0073
2070.00,0.0072
2069.00,0.0071
2068.00,0.0070
2067.00,0.0070
2066.00,0.0070
2065.00,0.0070
2064.00,0.0069
2063.00,0.0068
2062.00,0.0066
2061.00,0.0066
2060.00,0.0066
2059.00,0.0067
2058.00,0.0068
2057.00,0.0069
2056.00,0.0069
2055.00,0.0070
2054.00,0.0074
2053.00,0.0079
2052.00,0.0084
2051.00,0.0083
2050.00,0.0079
2049.00,0.0072
2048.00,0.0068
2047.00,0.0065
2046.00,0.0064
2045.00,0.0064
2044.00,0.0065
2043.00,0.0065
2042.00,0.0065
2041.00,0.0064
2040.00,0.0065
2039.00,0.0064
2038.00,0.0063
2037.00,0.0062
2036.00,0.0059
2035.00,0.0056
2034.00,0.0054
2033.00,0.0053
2032.00,0.0054
2031.00,0.0054
2030.00,0.0053
2029.00,0.0053
2028.00,0.0054
2027.00,0.0054
2026.00,0.0054
2025.00,0.0054
2024.00,0.0055
2023.00,0.0056
2022.00,0.0057
2021.00,0.0058
2020.00,0.0057
2019.00,0.0056
2018.00,0.0054
2017.00,0.0053
2016.00,0.0054
2015.00,0.0054
2014.00,0.0055
2013.00,0.0056
2012.00,0.0057
2011.00,0.0058
2010.00,0.0057
2009.00,0.0055
2008.00,0.0052
2007.00,0.0049
2006.00,0.0048
2005.00,0.0049
2004.00,0.0051
2003.00,0.0052
2002.00,0.0053
2001.00,0.0054
2000.00,0.0056
1999.00,0.0057
1998.00,0.0057
1997.00,0.0058
1996.00,0.0059
1995.00,0.0060
1994.00,0.0060
1993.00,0.0061
1992.00,0.0062
1991.00,0.0063
1990.00,0.0064
1989.00,0.0066
1988.00,0.0068
1987.00,0.0070
1986.00,0.0072
1985.00,0.0074
1984.00,0.0076
1983.00,0.0079
1982.00,0.0081
1981.00,0.0081
1980.00,0.0077
1979.00,0.0069
1978.00,0.0060
1977.00,0.0054
1976.00,0.0052
1975.00,0.0051
1974.00,0.0051
1973.00,0.0051
1972.00,0.0053
1971.00,0.0053
1970.00,0.0053
1969.00,0.0052
1968.00,0.0053
1967.00,0.0053
1966.00,0.0054
1965.00,0.0054
1964.00,0.0054
1963.00,0.0053
1962.00,0.0051
1961.00,0.0050
1960.00,0.0050
1959.00,0.0050
1958.00,0.0050
1957.00,0.0052
1956.00,0.0054
1955.00,0.0056
1954.00,0.0057
1953.00,0.0058
1952.00,0.0059
1951.00,0.0059
1950.00,0.0058
1949.00,0.0059
1948.00,0.0060
1947.00,0.0060
1946.00,0.0059
1945.00,0.0059
1944.00,0.0059
1943.00,0.0059
1942.00,0.0059
1941.00,0.0059
1940.00,0.0059
1939.00,0.0059
1938.00,0.0058
1937.00,0.0058
1936.00,0.0059
1935.00,0.0059
1934.00,0.0058
1933.00,0.0059
1932.00,0.0059
1931.00,0.0059
1930.00,0.0060
1929.00,0.0060
1928.00,0.0060
1927.00,0.0061
1926.00,0.0061
1925.00,0.0061
1924.00,0.0062
1923.00,0.0064
1922.00,0.0065
1921.00,0.0065
1920.00,0.0065
1919.00,0.0065
1918.00,0.0064
1917.00,0.0064
1916.00,0.0065
1915.00,0.0065
1914.00,0.0065
1913.00,0.0065
1912.00,0.0066
1911.00,0.0066
1910.00,0.0066
1909.00,0.0067
1908.00,0.0067
1907.00,0.0067
1906.00,0.0067
1905.00,0.0068
1904.00,0.0069
1903.00,0.0069
1902.00,0.0068
1901.00,0.0068
1900.00,0.0068
1899.00,0.0068
1898.00,0.0068
1897.00,0.0068
1896.00,0.0068
1895.00,0.0068
1894.00,0.0068
1893.00,0.0068
1892.00,0.0068
1891.00,0.0069
1890.00,0.0069
1889.00,0.0069
1888.00,0.0069
1887.00,0.0069
1886.00,0.0069
1885.00,0.0069
1884.00,0.0069
1883.00,0.0070
1882.00,0.0070
1881.00,0.0070
1880.00,0.0071
1879.00,0.0071
1878.00,0.0071
1877.00,0.0070
1876.00,0.0070
1875.00,0.0070
1874.00,0.0070
1873.00,0.0070
1872.00,0.0070
1871.00,0.0070
1870.00,0.0070
1869.00,0.0071
1868.00,0.0071
1867.00,0.0070
1866.00,0.0070
1865.00,0.0069
1864.00,0.0070
1863.00,0.0070
1862.00,0.0070
1861.00,0.0071
1860.00,0.0071
1859.00,0.0071
1858.00,0.0071
1857.00,0.0070
1856.00,0.0070
1855.00,0.0070
1854.00,0.0070
1853.00,0.0070
1852.00,0.0070
1851.00,0.0070
1850.00,0.0070
1849.00,0.0070
1848.00,0.0071
1847.00,0.0072
1846.00,0.0072
1845.00,0.0071
1844.00,0.0071
1843.00,0.0070
1842.00,0.0070
1841.00,0.0071
1840.00,0.0071
1839.00,0.0072
1838.00,0.0072
1837.00,0.0072
1836.00,0.0072
1835.00,0.0073
1834.00,0.0073
1833.00,0.0073
1832.00,0.0074
1831.00,0.0074
1830.00,0.0074
1829.00,0.0074
1828.00,0.0075
1827.00,0.0075
1826.00,0.0074
1825.00,0.0075
1824.00,0.0075
1823.00,0.0075
1822.00,0.0075
1821.00,0.0074
1820.00,0.0073
1819.00,0.0072
1818.00,0.0071
1817.00,0.0071
1816.00,0.0072
1815.00,0.0074
1814.00,0.0075
1813.00,0.0075
1812.00,0.0077
1811.00,0.0078
1810.00,0.0079
1809.00,0.0080
1808.00,0.0081
1807.00,0.0082
1806.00,0.0082
1805.00,0.0083
1804.00,0.0084
1803.00,0.0084
1802.00,0.0084
1801.00,0.0084
1800.00,0.0084
1799.00,0.0084
1798.00,0.0084
1797.00,0.0083
1796.00,0.0083
1795.00,0.0083
1794.00,0.0081
1793.00,0.0080
1792.00,0.0079
1791.00,0.0079
1790.00,0.0079
1789.00,0.0079
1788.00,0.0080
1787.00,0.0081
1786.00,0.0081
1785.00,0.0081
1784.00,0.0081
1783.00,0.0082
1782.00,0.0082
1781.00,0.0082
1780.00,0.0083
1779.00,0.0083
1778.00,0.0084
1777.00,0.0085
1776.00,0.0086
1775.00,0.0088
1774.00,0.0089
1773.00,0.0090
1772.00,0.0091
1771.00,0.0091
1770.00,0.0090
1769.00,0.0089
1768.00,0.0088
1767.00,0.0087
1766.00,0.0086
1765.00,0.0085
1764.00,0.0084
1763.00,0.0084
1762.00,0.0083
1761.00,0.0083
1760.00,0.0083
1759.00,0.0083
1758.00,0.0083
1757.00,0.0082
1756.00,0.0082
1755.00,0.0082
1754.00,0.0083
1753.00,0.0083
1752.00,0.0083
1751.00,0.0083
1750.00,0.0083
1749.00,0.0083
1748.00,0.0083
1747.00,0.0083
1746.00,0.0083
1745.00,0.0084
1744.00,0.0084
1743.00,0.0085
1742.00,0.0085
1741.00,0.0085
1740.00,0.0086
1739.00,0.0087
1738.00,0.0088
1737.00,0.0089
1736.00,0.0089
1735.00,0.0089
1734.00,0.0089
1733.00,0.0090
1732.00,0.0091
1731.00,0.0091
1730.00,0.0091
1729.00,0.0091
1728.00,0.0092
1727.00,0.0092
1726.00,0.0093
1725.00,0.0093
1724.00,0.0094
1723.00,0.0095
1722.00,0.0096
1721.00,0.0097
1720.00,0.0098
1719.00,0.0100
1718.00,0.0100
1717.00,0.0101
1716.00,0.0101
1715.00,0.0102
1714.00,0.0102
1713.00,0.0104
1712.00,0.0105
1711.00,0.0107
1710.00,0.0109
1709.00,0.0111
1708.00,0.0113
1707.00,0.0116
1706.00,0.0120
1705.00,0.0124
1704.00,0.0128
1703.00,0.0132
1702.00,0.0135
1701.00,0.0141
1700.00,0.0151
1699.00,0.0159
1698.00,0.0165
1697.00,0.0171
1696.00,0.0182
1695.00,0.0195
1694.00,0.0204
1693.00,0.0212
1692.00,0.0219
1691.00,0.0228
1690.00,0.0237
1689.00,0.0247
1688.00,0.0255
1687.00,0.0261
1686.00,0.0267
1685.00,0.0274
1684.00,0.0284
1683.00,0.0292
1682.00,0.0294
1681.00,0.0295
1680.00,0.0296
1679.00,0.0297
1678.00,0.0298
1677.00,0.0300
1676.00,0.0302
1675.00,0.0307
1674.00,0.0310
1673.00,0.0313
1672.00,0.0315
1671.00,0.0318
1670.00,0.0324
1669.00,0.0331
1668.00,0.0337
1667.00,0.0342
1666.00,0.0344
1665.00,0.0347
1664.00,0.0350
1663.00,0.0353
1662.00,0.0355
1661.00,0.0354
1660.00,0.0351
1659.00,0.0347
1658.00,0.0343
1657.00,0.0340
1656.00,0.0338
1655.00,0.0337
1654.00,0.0338
1653.00,0.0344
1652.00,0.0352
1651.00,0.0356
1650.00,0.0359
1649.00,0.0369
1648.00,0.0393
1647.00,0.0436
1646.00,0.0484
1645.00,0.0519
1644.00,0.0533
1643.00,0.0528
1642.00,0.0510
1641.00,0.0487
1640.00,0.0468
1639.00,0.0458
1638.00,0.0459
1637.00,0.0479
1636.00,0.0524
1635.00,0.0580
1634.00,0.0626
1633.00,0.0656
1632.00,0.0676
1631.00,0.0692
1630.00,0.0706
1629.00,0.0722
1628.00,0.0743
1627.00,0.0770
1626.00,0.0799
1625.00,0.0828
1624.00,0.0854
1623.00,0.0865
1622.00,0.0849
1621.00,0.0807
1620.00,0.0752
1619.00,0.0689
1618.00,0.0619
1617.00,0.0548
1616.00,0.0485
1615.00,0.0438
1614.00,0.0404
1613.00,0.0375
1612.00,0.0349
1611.00,0.0325
1610.00,0.0305
1609.00,0.0289
1608.00,0.0275
1607.00,0.0263
1606.00,0.0255
1605.00,0.0248
1604.00,0.0244
1603.00,0.0242
1602.00,0.0242
1601.00,0.0244
1600.00,0.0249
1599.00,0.0255
1598.00,0.0265
1597.00,0.0278
1596.00,0.0295
1595.00,0.0317
1594.00,0.0346
1593.00,0.0383
1592.00,0.0431
1591.00,0.0489
1590.00,0.0557
1589.00,0.0631
1588.00,0.0706
1587.00,0.0777
1586.00,0.0843
1585.00,0.0900
1584.00,0.0949
1583.00,0.0984
1582.00,0.1000
1581.00,0.0993
1580.00,0.0965
1579.00,0.0919
1578.00,0.0857
1577.00,0.0779
1576.00,0.0696
1575.00,0.0623
1574.00,0.0566
1573.00,0.0520
1572.00,0.0478
1571.00,0.0436
1570.00,0.0394
1569.00,0.0356
1568.00,0.0324
1567.00,0.0299
1566.00,0.0277
1565.00,0.0258
1564.00,0.0241
1563.00,0.0229
1562.00,0.0221
1561.00,0.0214
1560.00,0.0205
1559.00,0.0196
1558.00,0.0190
1557.00,0.0185
1556.00,0.0181
1555.00,0.0176
1554.00,0.0171
1553.00,0.0168
1552.00,0.0165
1551.00,0.0161
1550.00,0.0158
1549.00,0.0156
1548.00,0.0154
1547.00,0.0152
1546.00,0.0150
1545.00,0.0149
1544.00,0.0149
1543.00,0.0148
1542.00,0.0148
1541.00,0.0148
1540.00,0.0148
1539.00,0.0148
1538.00,0.0148
1537.00,0.0148
1536.00,0.0147
1535.00,0.0146
1534.00,0.0146
1533.00,0.0147
1532.00,0.0147
1531.00,0.0148
1530.00,0.0148
1529.00,0.0149
1528.00,0.0151
1527.00,0.0154
1526.00,0.0157
1525.00,0.0162
1524.00,0.0167
1523.00,0.0175
1522.00,0.0189
1521.00,0.0209
1520.00,0.0228
1519.00,0.0244
1518.00,0.0259
1517.00,0.0276
1516.00,0.0291
1515.00,0.0299
1514.00,0.0300
1513.00,0.0294
1512.00,0.0284
1511.00,0.0271
1510.00,0.0258
1509.00,0.0246
1508.00,0.0234
1507.00,0.0223
1506.00,0.0216
1505.00,0.0211
1504.00,0.0208
1503.00,0.0204
1502.00,0.0202
1501.00,0.0200
1500.00,0.0197
1499.00,0.0195
1498.00,0.0192
1497.00,0.0188
1496.00,0.0184
1495.00,0.0180
1494.00,0.0176
1493.00,0.0172
1492.00,0.0168
1491.00,0.0164
1490.00,0.0159
1489.00,0.0155
1488.00,0.0153
1487.00,0.0150
1486.00,0.0148
1485.00,0.0147
1484.00,0.0146
1483.00,0.0146
1482.00,0.0146
1481.00,0.0148
1480.00,0.0150
1479.00,0.0153
1478.00,0.0156
1477.00,0.0161
1476.00,0.0168
1475.00,0.0175
1474.00,0.0186
1473.00,0.0203
1472.00,0.0229
1471.00,0.0259
1470.00,0.0291
1469.00,0.0325
1468.00,0.0359
1467.00,0.0389
1466.00,0.0413
1465.00,0.0434
1464.00,0.0453
1463.00,0.0468
1462.00,0.0480
1461.00,0.0490
1460.00,0.0498
1459.00,0.0504
1458.00,0.0515
1457.00,0.0536
1456.00,0.0563
1455.00,0.0589
1454.00,0.0618
1453.00,0.0657
1452.00,0.0708
1451.00,0.0769
1450.00,0.0838
1449.00,0.0919
1448.00,0.1008
1447.00,0.1093
1446.00,0.1160
1445.00,0.1208
1444.00,0.1237
1443.00,0.1250
1442.00,0.1251
1441.00,0.1243
1440.00,0.1228
1439.00,0.1206
1438.00,0.1181
1437.00,0.1155
1436.00,0.1125
1435.00,0.1089
1434.00,0.1050
1433.00,0.1010
1432.00,0.0966
1431.00,0.0918
1430.00,0.0861
1429.00,0.0796
1428.00,0.0727
1427.00,0.0659
1426.00,0.0595
1425.00,0.0535
1424.00,0.0483
1423.00,0.0440
1422.00,0.0407
1421.00,0.0378
1420.00,0.0349
1419.00,0.0322
1418.00,0.0299
1417.00,0.0280
1416.00,0.0264
1415.00,0.0250
1414.00,0.0240
1413.00,0.0230
1412.00,0.0221
1411.00,0.0214
1410.00,0.0208
1409.00,0.0204
1408.00,0.0200
1407.00,0.0197
1406.00,0.0195
1405.00,0.0192
1404.00,0.0190
1403.00,0.0188
1402.00,0.0187
1401.00,0.0186
1400.00,0.0184
1399.00,0.0183
1398.00,0.0183
1397.00,0.0182
1396.00,0.0181
1395.00,0.0181
1394.00,0.0180
1393.00,0.0179
1392.00,0.0178
1391.00,0.0179
1390.00,0.0181
1389.00,0.0183
1388.00,0.0188
1387.00,0.0194
1386.00,0.0204
1385.00,0.0215
1384.00,0.0229
1383.00,0.0250
1382.00,0.0277
1381.00,0.0312
1380.00,0.0356
1379.00,0.0409
1378.00,0.0466
1377.00,0.0517
1376.00,0.0555
1375.00,0.0572
1374.00,0.0566
1373.00,0.0542
1372.00,0.0510
1371.00,0.0477
1370.00,0.0446
1369.00,0.0418
1368.00,0.0394
1367.00,0.0373
1366.00,0.0355
1365.00,0.0338
1364.00,0.0321
1363.00,0.0305
1362.00,0.0291
1361.00,0.0281
1360.00,0.0273
1359.00,0.0267
1358.00,0.0264
1357.00,0.0261
1356.00,0.0260
1355.00,0.0260
1354.00,0.0261
1353.00,0.0262
1352.00,0.0263
1351.00,0.0266
1350.00,0.0269
1349.00,0.0273
1348.00,0.0279
1347.00,0.0287
1346.00,0.0295
1345.00,0.0302
1344.00,0.0309
1343.00,0.0314
1342.00,0.0317
1341.00,0.0315
1340.00,0.0309
1339.00,0.0300
1338.00,0.0291
1337.00,0.0283
1336.00,0.0279
1335.00,0.0279
1334.00,0.0283
1333.00,0.0291
1332.00,0.0301
1331.00,0.0313
1330.00,0.0325
1329.00,0.0337
1328.00,0.0349
1327.00,0.0360
1326.00,0.0372
1325.00,0.0382
1324.00,0.0388
1323.00,0.0387
1322.00,0.0380
1321.00,0.0370
1320.00,0.0360
1319.00,0.0356
1318.00,0.0362
1317.00,0.0378
1316.00,0.0405
1315.00,0.0441
1314.00,0.0480
1313.00,0.0516
1312.00,0.0540
1311.00,0.0549
1310.00,0.0545
1309.00,0.0533
1308.00,0.0520
1307.00,0.0512
1306.00,0.0513
1305.00,0.0521
1304.00,0.0533
1303.00,0.0546
1302.00,0.0555
1301.00,0.0561
1300.00,0.0562
1299.00,0.0561
1298.00,0.0559
1297.00,0.0555
1296.00,0.0550
1295.00,0.0544
1294.00,0.0537
1293.00,0.0529
1292.00,0.0520
1291.00,0.0510
1290.00,0.0502
1289.00,0.0496
1288.00,0.0494
1287.00,0.0498
1286.00,0.0508
1285.00,0.0522
1284.00,0.0538
1283.00,0.0554
1282.00,0.0569
1281.00,0.0582
1280.00,0.0590
1279.00,0.0595
1278.00,0.0594
1277.00,0.0587
1276.00,0.0575
1275.00,0.0557
1274.00,0.0535
1273.00,0.0507
1272.00,0.0476
1271.00,0.0443
1270.00,0.0410
1269.00,0.0378
1268.00,0.0349
1267.00,0.0324
1266.00,0.0303
1265.00,0.0285
1264.00,0.0270
1263.00,0.0258
1262.00,0.0248
1261.00,0.0240
1260.00,0.0233
1259.00,0.0227
1258.00,0.0224
1257.00,0.0222
1256.00,0.0222
1255.00,0.0224
1254.00,0.0228
1253.00,0.0235
1252.00,0.0245
1251.00,0.0258
1250.00,0.0271
1249.00,0.0283
1248.00,0.0292
1247.00,0.0298
1246.00,0.0306
1245.00,0.0319
1244.00,0.0340
1243.00,0.0372
1242.00,0.0415
1241.00,0.0467
1240.00,0.0523
1239.00,0.0576
1238.00,0.0620
1237.00,0.0647
1236.00,0.0657
1235.00,0.0654
1234.00,0.0643
1233.00,0.0626
1232.00,0.0604
1231.00,0.0583
1230.00,0.0568
1229.00,0.0567
1228.00,0.0583
1227.00,0.0615
1226.00,0.0658
1225.00,0.0707
1224.00,0.0759
1223.00,0.0814
1222.00,0.0875
1221.00,0.0947
1220.00,0.1034
1219.00,0.1135
1218.00,0.1244
1217.00,0.1347
1216.00,0.1431
1215.00,0.1480
1214.00,0.1489
1213.00,0.1459
1212.00,0.1396
1211.00,0.1314
1210.00,0.1222
1209.00,0.1131
1208.00,0.1049
1207.00,0.0977
1206.00,0.0913
1205.00,0.0854
1204.00,0.0795
1203.00,0.0735
1202.00,0.0675
1201.00,0.0616
1200.00,0.0562
1199.00,0.0513
1198.00,0.0472
1197.00,0.0439
1196.00,0.0413
1195.00,0.0394
1194.00,0.0382
1193.00,0.0376
1192.00,0.0375
1191.00,0.0378
1190.00,0.0385
1189.00,0.0393
1188.00,0.0402
1187.00,0.0412
1186.00,0.0424
1185.00,0.0436
1184.00,0.0448
1183.00,0.0459
1182.00,0.0468
1181.00,0.0475
1180.00,0.0481
1179.00,0.0488
1178.00,0.0493
1177.00,0.0499
1176.00,0.0505
1175.00,0.0518
1174.00,0.0538
1173.00,0.0559
1172.00,0.0569
1171.00,0.0556
1170.00,0.0519
1169.00,0.0468
1168.00,0.0416
1167.00,0.0371
1166.00,0.0334
1165.00,0.0306
1164.00,0.0284
1163.00,0.0268
1162.00,0.0257
1161.00,0.0249
1160.00,0.0246
1159.00,0.0247
1158.00,0.0254
1157.00,0.0267
1156.00,0.0292
1155.00,0.0333
1154.00,0.0391
1153.00,0.0464
1152.00,0.0536
1151.00,0.0586
1150.00,0.0592
1149.00,0.0552
1148.00,0.0482
1147.00,0.0405
1146.00,0.0339
1145.00,0.0291
1144.00,0.0259
1143.00,0.0238
1142.00,0.0224
1141.00,0.0217
1140.00,0.0214
1139.00,0.0216
1138.00,0.0221
1137.00,0.0227
1136.00,0.0233
1135.00,0.0235
1134.00,0.0234
1133.00,0.0228
1132.00,0.0219
1131.00,0.0208
1130.00,0.0197
1129.00,0.0187
1128.00,0.0179
1127.00,0.0171
1126.00,0.0166
1125.00,0.0162
1124.00,0.0159
1123.00,0.0157
1122.00,0.0156
1121.00,0.0155
1120.00,0.0155
1119.00,0.0156
1118.00,0.0157
1117.00,0.0159
1116.00,0.0161
1115.00,0.0164
1114.00,0.0167
1113.00,0.0171
1112.00,0.0174
1111.00,0.0178
1110.00,0.0183
1109.00,0.0189
1108.00,0.0196
1107.00,0.0205
1106.00,0.0215
1105.00,0.0225
1104.00,0.0237
1103.00,0.0250
1102.00,0.0266
1101.00,0.0282
1100.00,0.0295
1099.00,0.0301
1098.00,0.0299
1097.00,0.0287
1096.00,0.0269
1095.00,0.0250
1094.00,0.0235
1093.00,0.0222
1092.00,0.0212
1091.00,0.0205
1090.00,0.0199
1089.00,0.0194
1088.00,0.0192
1087.00,0.0194
1086.00,0.0200
1085.00,0.0210
1084.00,0.0225
1083.00,0.0245
1082.00,0.0267
1081.00,0.0286
1080.00,0.0299
1079.00,0.0303
1078.00,0.0295
1077.00,0.0281
1076.00,0.0263
1075.00,0.0247
1074.00,0.0233
1073.00,0.0223
1072.00,0.0213
1071.00,0.0206
1070.00,0.0201
1069.00,0.0197
1068.00,0.0194
1067.00,0.0193
1066.00,0.0194
1065.00,0.0196
1064.00,0.0200
1063.00,0.0207
1062.00,0.0216
1061.00,0.0229
1060.00,0.0246
1059.00,0.0272
1058.00,0.0309
1057.00,0.0361
1056.00,0.0426
1055.00,0.0499
1054.00,0.0569
1053.00,0.0623
1052.00,0.0653
1051.00,0.0660
1050.00,0.0646
1049.00,0.0612
1048.00,0.0562
1047.00,0.0504
1046.00,0.0451
1045.00,0.0409
1044.00,0.0384
1043.00,0.0373
1042.00,0.0374
1041.00,0.0383
1040.00,0.0398
1039.00,0.0419
1038.00,0.0450
1037.00,0.0493
1036.00,0.0548
1035.00,0.0615
1034.00,0.0682
1033.00,0.0736
1032.00,0.0764
1031.00,0.0761
1030.00,0.0732
1029.00,0.0690
1028.00,0.0648
1027.00,0.0616
1026.00,0.0602
1025.00,0.0611
1024.00,0.0643
1023.00,0.0698
1022.00,0.0769
1021.00,0.0845
1020.00,0.0907
1019.00,0.0937
1018.00,0.0930
1017.00,0.0889
1016.00,0.0829
1015.00,0.0762
1014.00,0.0697
1013.00,0.0639
1012.00,0.0590
1011.00,0.0556
1010.00,0.0536
1009.00,0.0529
1008.00,0.0532
1007.00,0.0545
1006.00,0.0567
1005.00,0.0595
1004.00,0.0623
1003.00,0.0643
1002.00,0.0649
1001.00,0.0637
1000.00,0.0607
999.00,0.0563
998.00,0.0510
997.00,0.0456
996.00,0.0410
995.00,0.0374
994.00,0.0349
993.00,0.0334
992.00,0.0327
991.00,0.0329
990.00,0.0337
989.00,0.0349
988.00,0.0361
987.00,0.0372
986.00,0.0380
985.00,0.0383
984.00,0.0377
983.00,0.0363
982.00,0.0344
981.00,0.0324
980.00,0.0307
979.00,0.0295
978.00,0.0288
977.00,0.0282
976.00,0.0276
975.00,0.0271
974.00,0.0267
973.00,0.0266
972.00,0.0268
971.00,0.0275
970.00,0.0285
969.00,0.0298
968.00,0.0312
967.00,0.0328
966.00,0.0347
965.00,0.0368
964.00,0.0393
963.00,0.0417
962.00,0.0435
961.00,0.0440
960.00,0.0428
959.00,0.0402
958.00,0.0368
957.00,0.0331
956.00,0.0298
955.00,0.0270
954.00,0.0249
953.00,0.0232
952.00,0.0220
951.00,0.0211
950.00,0.0204
949.00,0.0198
948.00,0.0193
947.00,0.0188
946.00,0.0185
945.00,0.0182
944.00,0.0179
943.00,0.0177
942.00,0.0176
941.00,0.0174
940.00,0.0173
939.00,0.0172
938.00,0.0172
937.00,0.0172
936.00,0.0172
935.00,0.0173
934.00,0.0175
933.00,0.0179
932.00,0.0183
931.00,0.0188
930.00,0.0193
929.00,0.0196
928.00,0.0196
927.00,0.0195
926.00,0.0195
925.00,0.0194
924.00,0.0193
923.00,0.0192
922.00,0.0192
921.00,0.0194
920.00,0.0198
919.00,0.0205
918.00,0.0215
917.00,0.0225
916.00,0.0232
915.00,0.0237
914.00,0.0239
913.00,0.0237
912.00,0.0235
911.00,0.0235
910.00,0.0240
909.00,0.0250
908.00,0.0266
907.00,0.0288
906.00,0.0316
905.00,0.0349
904.00,0.0387
903.00,0.0432
902.00,0.0488
901.00,0.0558
900.00,0.0643
899.00,0.0739
898.00,0.0831
897.00,0.0896
896.00,0.0916
895.00,0.0887
894.00,0.0824
893.00,0.0747
892.00,0.0674
891.00,0.0617
890.00,0.0585
889.00,0.0584
888.00,0.0619
887.00,0.0695
886.00,0.0806
885.00,0.0928
884.00,0.1025
883.00,0.1060
882.00,0.1021
881.00,0.0922
880.00,0.0799
879.00,0.0681
878.00,0.0587
877.00,0.0517
876.00,0.0471
875.00,0.0444
874.00,0.0434
873.00,0.0439
872.00,0.0454
871.00,0.0474
870.00,0.0488
869.00,0.0490
868.00,0.0481
867.00,0.0472
866.00,0.0474
865.00,0.0494
864.00,0.0527
863.00,0.0563
862.00,0.0591
861.00,0.0603
860.00,0.0601
859.00,0.0594
858.00,0.0592
857.00,0.0600
856.00,0.0616
855.00,0.0635
854.00,0.0654
853.00,0.0671
852.00,0.0683
851.00,0.0689
850.00,0.0685
849.00,0.0670
848.00,0.0646
847.00,0.0619
846.00,0.0598
845.00,0.0583
844.00,0.0572
843.00,0.0562
842.00,0.0551
841.00,0.0537
840.00,0.0524
839.00,0.0516
838.00,0.0514
837.00,0.0519
836.00,0.0529
835.00,0.0545
834.00,0.0566
833.00,0.0590
832.00,0.0614
831.00,0.0638
830.00,0.0660
829.00,0.0677
828.00,0.0686
827.00,0.0684
826.00,0.0669
825.00,0.0641
824.00,0.0602
823.00,0.0559
822.00,0.0513
821.00,0.0468
820.00,0.0425
819.00,0.0388
818.00,0.0358
817.00,0.0335
816.00,0.0319
815.00,0.0306
814.00,0.0297
813.00,0.0289
812.00,0.0284
811.00,0.0284
810.00,0.0295
809.00,0.0321
808.00,0.0366
807.00,0.0431
806.00,0.0500
805.00,0.0551
804.00,0.0567
803.00,0.0544
802.00,0.0497
801.00,0.0443
800.00,0.0395
799.00,0.0356
798.00,0.0327
797.00,0.0304
796.00,0.0289
795.00,0.0279
794.00,0.0273
793.00,0.0271
792.00,0.0268
791.00,0.0265
790.00,0.0263
789.00,0.0260
788.00,0.0259
787.00,0.0261
786.00,0.0262
785.00,0.0261
784.00,0.0255
783.00,0.0246
782.00,0.0238
781.00,0.0232
780.00,0.0229
779.00,0.0229
778.00,0.0229
777.00,0.0229
776.00,0.0226
775.00,0.0223
774.00,0.0222
773.00,0.0222
772.00,0.0225
771.00,0.0227
770.00,0.0228
769.00,0.0225
768.00,0.0218
767.00,0.0209
766.00,0.0201
765.00,0.0193
764.00,0.0186
763.00,0.0181
762.00,0.0178
761.00,0.0177
760.00,0.0177
759.00,0.0179
758.00,0.0183
757.00,0.0189
756.00,0.0199
755.00,0.0214
754.00,0.0234
753.00,0.0255
752.00,0.0272
751.00,0.0284
750.00,0.0293
749.00,0.0298
748.00,0.0295
747.00,0.0283
746.00,0.0264
745.00,0.0243
744.00,0.0224
743.00,0.0210
742.00,0.0201
741.00,0.0195
740.00,0.0192
739.00,0.0191
738.00,0.0191
737.00,0.0195
736.00,0.0202
735.00,0.0213
734.00,0.0229
733.00,0.0249
732.00,0.0267
731.00,0.0278
730.00,0.0277
729.00,0.0266
728.00,0.0249
727.00,0.0236
726.00,0.0227
725.00,0.0222
724.00,0.0218
723.00,0.0215
722.00,0.0212
721.00,0.0210
720.00,0.0206
719.00,0.0202
718.00,0.0197
717.00,0.0190
716.00,0.0183
715.00,0.0177
714.00,0.0173
713.00,0.0172
712.00,0.0172
711.00,0.0171
710.00,0.0170
709.00,0.0167
708.00,0.0162
707.00,0.0157
706.00,0.0155
705.00,0.0153
704.00,0.0151
703.00,0.0150
702.00,0.0150
701.00,0.0149
700.00,0.0148
699.00,0.0148
698.00,0.0148
697.00,0.0148
696.00,0.0148
695.00,0.0148
694.00,0.0148
693.00,0.0149
692.00,0.0149
691.00,0.0150
690.00,0.0151
689.00,0.0153
688.00,0.0154
687.00,0.0156
686.00,0.0158
685.00,0.0160
684.00,0.0163
683.00,0.0165
682.00,0.0168
681.00,0.0171
680.00,0.0174
679.00,0.0178
678.00,0.0182
677.00,0.0188
676.00,0.0194
675.00,0.0201
674.00,0.0210
673.00,0.0221
672.00,0.0235
671.00,0.0249
670.00,0.0264
669.00,0.0278
668.00,0.0289
667.00,0.0296
666.00,0.0300
665.00,0.0304
664.00,0.0308
663.00,0.0312
662.00,0.0315
661.00,0.0316
660.00,0.0317
659.00,0.0318
658.00,0.0318
657.00,0.0316
656.00,0.0312
655.00,0.0308
654.00,0.0308
653.00,0.0311
652.00,0.0318
651.00,0.0327
650.00,0.0336
649.00,0.0341
648.00,0.0340
647.00,0.0333
646.00,0.0321
645.00,0.0306
644.00,0.0291
643.00,0.0277
642.00,0.0266
641.00,0.0257
640.00,0.0251
639.00,0.0247
638.00,0.0245
637.00,0.0245
636.00,0.0246
635.00,0.0247
634.00,0.0250
633.00,0.0254
632.00,0.0258
631.00,0.0263
630.00,0.0270
629.00,0.0277
628.00,0.0284
627.00,0.0290
626.00,0.0296
625.00,0.0301
624.00,0.0303
623.00,0.0303
622.00,0.0298
621.00,0.0290
620.00,0.0277
619.00,0.0262
618.00,0.0249
617.00,0.0242
616.00,0.0242
615.00,0.0254
614.00,0.0278
613.00,0.0307
612.00,0.0333
611.00,0.0349
610.00,0.0352
609.00,0.0346
608.00,0.0338
607.00,0.0334
606.00,0.0337
605.00,0.0344
604.00,0.0352
603.00,0.0360
602.00,0.0370
601.00,0.0382
600.00,0.0395
599.00,0.0406
598.00,0.0412
597.00,0.0413
596.00,0.0411
595.00,0.0411
594.00,0.0417
593.00,0.0428
592.00,0.0445
591.00,0.0468
590.00,0.0495
589.00,0.0521
588.00,0.0542
587.00,0.0555
586.00,0.0557
585.00,0.0549
584.00,0.0532
583.00,0.0509
582.00,0.0485
581.00,0.0461
580.00,0.0439
579.00,0.0422
578.00,0.0410
577.00,0.0403
576.00,0.0400
575.00,0.0402
574.00,0.0407
573.00,0.0414
572.00,0.0419
571.00,0.0425
570.00,0.0432
569.00,0.0438
568.00,0.0442
567.00,0.0445
566.00,0.0448
565.00,0.0451
564.00,0.0453
563.00,0.0454
562.00,0.0455
561.00,0.0456
560.00,0.0454
559.00,0.0453
558.00,0.0452
557.00,0.0451
556.00,0.0450
555.00,0.0452
554.00,0.0459
553.00,0.0469
552.00,0.0483
551.00,0.0497
550.00,0.0511
549.00,0.0521
548.00,0.0529
547.00,0.0540
546.00,0.0555
545.00,0.0570
544.00,0.0581
543.00,0.0587
542.00,0.0594
541.00,0.0604
540.00,0.0623
539.00,0.0651
538.00,0.0686
537.00,0.0719
536.00,0.0740
535.00,0.0747
534.00,0.0740
533.00,0.0726
532.00,0.0710
531.00,0.0695
530.00,0.0685
529.00,0.0682
528.00,0.0691
527.00,0.0716
526.00,0.0757
525.00,0.0806
524.00,0.0855
523.00,0.0896
522.00,0.0919
521.00,0.0909
520.00,0.0862
519.00,0.0791
518.00,0.0717
517.00,0.0656
516.00,0.0612
515.00,0.0583
514.00,0.0569
513.00,0.0563
512.00,0.0564
511.00,0.0570
510.00,0.0581
509.00,0.0596
508.00,0.0616
507.00,0.0642
506.00,0.0673
505.00,0.0706
504.00,0.0738
503.00,0.0774
502.00,0.0813
501.00,0.0853
500.00,0.0890
499.00,0.0923
498.00,0.0953
497.00,0.0977
496.00,0.0993
495.00,0.1002
494.00,0.1007
493.00,0.1007
492.00,0.1001
491.00,0.0992
490.00,0.0984
489.00,0.0979
488.00,0.0974
487.00,0.0971
486.00,0.0967
485.00,0.0962
484.00,0.0953
483.00,0.0940
482.00,0.0925
481.00,0.0906
480.00,0.0883
479.00,0.0860
478.00,0.0842
477.00,0.0829
476.00,0.0821
475.00,0.0820
474.00,0.0827
473.00,0.0838
472.00,0.0850
471.00,0.0863
470.00,0.0877
469.00,0.0890
468.00,0.0899
467.00,0.0906
466.00,0.0911
465.00,0.0913
464.00,0.0911
463.00,0.0907
462.00,0.0904
461.00,0.0900
460.00,0.0893
459.00,0.0886
458.00,0.0882
457.00,0.0878
456.00,0.0875
455.00,0.0872
454.00,0.0872
453.00,0.0869
452.00,0.0860
451.00,0.0848
450.00,0.0837
449.00,0.0826
448.00,0.0814
447.00,0.0800
446.00,0.0786
445.00,0.0770
444.00,0.0751
443.00,0.0735
442.00,0.0726
441.00,0.0721
440.00,0.0719
439.00,0.0719
438.00,0.0722
437.00,0.0724
436.00,0.0721
435.00,0.0716
434.00,0.0715
433.00,0.0715
432.00,0.0717
431.00,0.0725
430.00,0.0744
429.00,0.0773
428.00,0.0807
427.00,0.0846
426.00,0.0886
425.00,0.0914
424.00,0.0924
423.00,0.0919
422.00,0.0907
421.00,0.0893
420.00,0.0877
419.00,0.0865
418.00,0.0861
417.00,0.0861
416.00,0.0859
415.00,0.0860
414.00,0.0867
413.00,0.0874
412.00,0.0877
411.00,0.0883
410.00,0.0901
409.00,0.0927
408.00,0.0953
407.00,0.0975
406.00,0.0993
405.00,0.1005
404.00,0.1009
403.00,0.1017
402.00,0.1037
401.00,0.1066
400.00,0.1093
