Created as New Dataset,Sample 1072 By YargerLab Date Tuesday, August 05 2025
cm-1,A
4000.00,0.0009
3999.00,0.0009
3998.00,0.0009
3997.00,0.0009
3996.00,0.0009
3995.00,0.0009
3994.00,0.0009
3993.00,0.0009
3992.00,0.0009
3991.00,0.0009
3990.00,0.0009
3989.00,0.0009
3988.00,0.0009
3987.00,0.0009
3986.00,0.0008
3985.00,0.0008
3984.00,0.0008
3983.00,0.0008
3982.00,0.0008
3981.00,0.0008
3980.00,0.0008
3979.00,0.0008
3978.00,0.0008
3977.00,0.0008
3976.00,0.0008
3975.00,0.0008
3974.00,0.0008
3973.00,0.0008
3972.00,0.0008
3971.00,0.0008
3970.00,0.0008
3969.00,0.0008
3968.00,0.0008
3967.00,0.0009
3966.00,0.0009
3965.00,0.0008
3964.00,0.0008
3963.00,0.0008
3962.00,0.0009
3961.00,0.0009
3960.00,0.0009
3959.00,0.0009
3958.00,0.0009
3957.00,0.0009
3956.00,0.0009
3955.00,0.0009
3954.00,0.0009
3953.00,0.0009
3952.00,0.0008
3951.00,0.0008
3950.00,0.0008
3949.00,0.0008
3948.00,0.0008
3947.00,0.0008
3946.00,0.0008
3945.00,0.0008
3944.00,0.0008
3943.00,0.0008
3942.00,0.0008
3941.00,0.0008
3940.00,0.0008
3939.00,0.0008
3938.00,0.0008
3937.00,0.0008
3936.00,0.0008
3935.00,0.0008
3934.00,0.0008
3933.00,0.0008
3932.00,0.0008
3931.00,0.0008
3930.00,0.0008
3929.00,0.0008
3928.00,0.0008
3927.00,0.0008
3926.00,0.0008
3925.00,0.0008
3924.00,0.0008
3923.00,0.0008
3922.00,0.0008
3921.00,0.0008
3920.00,0.0008
3919.00,0.0008
3918.00,0.0008
3917.00,0.0008
3916.00,0.0008
3915.00,0.0008
3914.00,0.0008
3913.00,0.0008
3912.00,0.0008
3911.00,0.0008
3910.00,0.0008
3909.00,0.0008
3908.00,0.0008
3907.00,0.0008
3906.00,0.0008
3905.00,0.0008
3904.00,0.0008
3903.00,0.0008
3902.00,0.0008
3901.00,0.0008
3900.00,0.0007
3899.00,0.0008
3898.00,0.0008
3897.00,0.0008
3896.00,0.0008
3895.00,0.0008
3894.00,0.0008
3893.00,0.0009
3892.00,0.0009
3891.00,0.0008
3890.00,0.0008
3889.00,0.0008
3888.00,0.0008
3887.00,0.0008
3886.00,0.0008
3885.00,0.0008
3884.00,0.0008
3883.00,0.0008
3882.00,0.0007
3881.00,0.0007
3880.00,0.0007
3879.00,0.0007
3878.00,0.0008
3877.00,0.0008
3876.00,0.0008
3875.00,0.0008
3874.00,0.0008
3873.00,0.0008
3872.00,0.0008
3871.00,0.0008
3870.00,0.0007
3869.00,0.0007
3868.00,0.0007
3867.00,0.0007
3866.00,0.0007
3865.00,0.0007
3864.00,0.0007
3863.00,0.0008
3862.00,0.0008
3861.00,0.0008
3860.00,0.0008
3859.00,0.0008
3858.00,0.0008
3857.00,0.0008
3856.00,0.0008
3855.00,0.0008
3854.00,0.0008
3853.00,0.0007
3852.00,0.0007
3851.00,0.0007
3850.00,0.0007
3849.00,0.0008
3848.00,0.0008
3847.00,0.0008
3846.00,0.0009
3845.00,0.0009
3844.00,0.0009
3843.00,0.0009
3842.00,0.0008
3841.00,0.0008
3840.00,0.0008
3839.00,0.0008
3838.00,0.0008
3837.00,0.0008
3836.00,0.0008
3835.00,0.0008
3834.00,0.0008
3833.00,0.0008
3832.00,0.0008
3831.00,0.0008
3830.00,0.0008
3829.00,0.0008
3828.00,0.0008
3827.00,0.0009
3826.00,0.0009
3825.00,0.0009
3824.00,0.0009
3823.00,0.0009
3822.00,0.0009
3821.00,0.0008
3820.00,0.0008
3819.00,0.0008
3818.00,0.0008
3817.00,0.0008
3816.00,0.0008
3815.00,0.0008
3814.00,0.0008
3813.00,0.0008
3812.00,0.0009
3811.00,0.0009
3810.00,0.0009
3809.00,0.0009
3808.00,0.0009
3807.00,0.0009
3806.00,0.0009
3805.00,0.0009
3804.00,0.0009
3803.00,0.0009
3802.00,0.0009
3801.00,0.0009
3800.00,0.0009
3799.00,0.0008
3798.00,0.0008
3797.00,0.0009
3796.00,0.0009
3795.00,0.0010
3794.00,0.0010
3793.00,0.0011
3792.00,0.0011
3791.00,0.0011
3790.00,0.0012
3789.00,0.0012
3788.00,0.0012
3787.00,0.0012
3786.00,0.0012
3785.00,0.0012
3784.00,0.0012
3783.00,0.0012
3782.00,0.0012
3781.00,0.0012
3780.00,0.0012
3779.00,0.0013
3778.00,0.0013
3777.00,0.0013
3776.00,0.0014
3775.00,0.0014
3774.00,0.0014
3773.00,0.0014
3772.00,0.0014
3771.00,0.0014
3770.00,0.0014
3769.00,0.0013
3768.00,0.0013
3767.00,0.0013
3766.00,0.0013
3765.00,0.0013
3764.00,0.0013
3763.00,0.0013
3762.00,0.0013
3761.00,0.0014
3760.00,0.0014
3759.00,0.0014
3758.00,0.0014
3757.00,0.0014
3756.00,0.0014
3755.00,0.0014
3754.00,0.0013
3753.00,0.0013
3752.00,0.0013
3751.00,0.0013
3750.00,0.0012
3749.00,0.0012
3748.00,0.0012
3747.00,0.0012
3746.00,0.0012
3745.00,0.0012
3744.00,0.0012
3743.00,0.0012
3742.00,0.0012
3741.00,0.0012
3740.00,0.0012
3739.00,0.0012
3738.00,0.0012
3737.00,0.0012
3736.00,0.0012
3735.00,0.0013
3734.00,0.0013
3733.00,0.0013
3732.00,0.0013
3731.00,0.0013
3730.00,0.0013
3729.00,0.0013
3728.00,0.0014
3727.00,0.0014
3726.00,0.0014
3725.00,0.0015
3724.00,0.0015
3723.00,0.0016
3722.00,0.0016
3721.00,0.0016
3720.00,0.0017
3719.00,0.0017
3718.00,0.0017
3717.00,0.0018
3716.00,0.0018
3715.00,0.0018
3714.00,0.0018
3713.00,0.0018
3712.00,0.0019
3711.00,0.0019
3710.00,0.0019
3709.00,0.0020
3708.00,0.0020
3707.00,0.0021
3706.00,0.0021
3705.00,0.0022
3704.00,0.0022
3703.00,0.0023
3702.00,0.0024
3701.00,0.0025
3700.00,0.0025
3699.00,0.0026
3698.00,0.0026
3697.00,0.0026
3696.00,0.0027
3695.00,0.0027
3694.00,0.0027
3693.00,0.0027
3692.00,0.0027
3691.00,0.0027
3690.00,0.0028
3689.00,0.0028
3688.00,0.0029
3687.00,0.0030
3686.00,0.0031
3685.00,0.0032
3684.00,0.0033
3683.00,0.0033
3682.00,0.0034
3681.00,0.0034
3680.00,0.0035
3679.00,0.0035
3678.00,0.0036
3677.00,0.0036
3676.00,0.0037
3675.00,0.0038
3674.00,0.0039
3673.00,0.0040
3672.00,0.0041
3671.00,0.0041
3670.00,0.0042
3669.00,0.0043
3668.00,0.0044
3667.00,0.0045
3666.00,0.0046
3665.00,0.0047
3664.00,0.0048
3663.00,0.0048
3662.00,0.0049
3661.00,0.0050
3660.00,0.0050
3659.00,0.0051
3658.00,0.0051
3657.00,0.0052
3656.00,0.0052
3655.00,0.0053
3654.00,0.0053
3653.00,0.0053
3652.00,0.0054
3651.00,0.0054
3650.00,0.0054
3649.00,0.0054
3648.00,0.0053
3647.00,0.0054
3646.00,0.0054
3645.00,0.0055
3644.00,0.0056
3643.00,0.0057
3642.00,0.0057
3641.00,0.0058
3640.00,0.0058
3639.00,0.0058
3638.00,0.0058
3637.00,0.0058
3636.00,0.0058
3635.00,0.0058
3634.00,0.0058
3633.00,0.0058
3632.00,0.0057
3631.00,0.0058
3630.00,0.0058
3629.00,0.0059
3628.00,0.0059
3627.00,0.0059
3626.00,0.0059
3625.00,0.0059
3624.00,0.0059
3623.00,0.0059
3622.00,0.0059
3621.00,0.0059
3620.00,0.0059
3619.00,0.0059
3618.00,0.0059
3617.00,0.0059
3616.00,0.0059
3615.00,0.0059
3614.00,0.0059
3613.00,0.0059
3612.00,0.0059
3611.00,0.0059
3610.00,0.0060
3609.00,0.0060
3608.00,0.0060
3607.00,0.0061
3606.00,0.0061
3605.00,0.0061
3604.00,0.0062
3603.00,0.0062
3602.00,0.0062
3601.00,0.0062
3600.00,0.0062
3599.00,0.0062
3598.00,0.0062
3597.00,0.0063
3596.00,0.0063
3595.00,0.0064
3594.00,0.0064
3593.00,0.0065
3592.00,0.0065
3591.00,0.0065
3590.00,0.0065
3589.00,0.0065
3588.00,0.0065
3587.00,0.0065
3586.00,0.0065
3585.00,0.0065
3584.00,0.0066
3583.00,0.0066
3582.00,0.0066
3581.00,0.0067
3580.00,0.0067
3579.00,0.0067
3578.00,0.0067
3577.00,0.0067
3576.00,0.0067
3575.00,0.0067
3574.00,0.0067
3573.00,0.0068
3572.00,0.0068
3571.00,0.0068
3570.00,0.0068
3569.00,0.0068
3568.00,0.0069
3567.00,0.0069
3566.00,0.0069
3565.00,0.0070
3564.00,0.0070
3563.00,0.0071
3562.00,0.0071
3561.00,0.0071
3560.00,0.0071
3559.00,0.0071
3558.00,0.0072
3557.00,0.0072
3556.00,0.0072
3555.00,0.0073
3554.00,0.0073
3553.00,0.0074
3552.00,0.0074
3551.00,0.0074
3550.00,0.0075
3549.00,0.0075
3548.00,0.0075
3547.00,0.0076
3546.00,0.0076
3545.00,0.0077
3544.00,0.0077
3543.00,0.0078
3542.00,0.0078
3541.00,0.0079
3540.00,0.0079
3539.00,0.0080
3538.00,0.0080
3537.00,0.0081
3536.00,0.0081
3535.00,0.0081
3534.00,0.0082
3533.00,0.0082
3532.00,0.0083
3531.00,0.0083
3530.00,0.0083
3529.00,0.0084
3528.00,0.0084
3527.00,0.0084
3526.00,0.0085
3525.00,0.0085
3524.00,0.0086
3523.00,0.0086
3522.00,0.0087
3521.00,0.0087
3520.00,0.0087
3519.00,0.0088
3518.00,0.0088
3517.00,0.0088
3516.00,0.0088
3515.00,0.0089
3514.00,0.0089
3513.00,0.0090
3512.00,0.0090
3511.00,0.0091
3510.00,0.0091
3509.00,0.0092
3508.00,0.0092
3507.00,0.0092
3506.00,0.0093
3505.00,0.0093
3504.00,0.0093
3503.00,0.0093
3502.00,0.0094
3501.00,0.0094
3500.00,0.0095
3499.00,0.0095
3498.00,0.0096
3497.00,0.0096
3496.00,0.0096
3495.00,0.0097
3494.00,0.0097
3493.00,0.0097
3492.00,0.0097
3491.00,0.0098
3490.00,0.0098
3489.00,0.0098
3488.00,0.0099
3487.00,0.0099
3486.00,0.0100
3485.00,0.0100
3484.00,0.0100
3483.00,0.0100
3482.00,0.0100
3481.00,0.0101
3480.00,0.0101
3479.00,0.0102
3478.00,0.0102
3477.00,0.0103
3476.00,0.0103
3475.00,0.0103
3474.00,0.0104
3473.00,0.0104
3472.00,0.0104
3471.00,0.0104
3470.00,0.0104
3469.00,0.0105
3468.00,0.0105
3467.00,0.0105
3466.00,0.0105
3465.00,0.0105
3464.00,0.0106
3463.00,0.0106
3462.00,0.0107
3461.00,0.0107
3460.00,0.0107
3459.00,0.0107
3458.00,0.0107
3457.00,0.0108
3456.00,0.0108
3455.00,0.0108
3454.00,0.0109
3453.00,0.0109
3452.00,0.0109
3451.00,0.0109
3450.00,0.0109
3449.00,0.0109
3448.00,0.0109
3447.00,0.0110
3446.00,0.0110
3445.00,0.0110
3444.00,0.0111
3443.00,0.0111
3442.00,0.0111
3441.00,0.0111
3440.00,0.0111
3439.00,0.0112
3438.00,0.0112
3437.00,0.0112
3436.00,0.0112
3435.00,0.0112
3434.00,0.0112
3433.00,0.0112
3432.00,0.0112
3431.00,0.0112
3430.00,0.0112
3429.00,0.0113
3428.00,0.0113
3427.00,0.0113
3426.00,0.0113
3425.00,0.0113
3424.00,0.0113
3423.00,0.0113
3422.00,0.0113
3421.00,0.0113
3420.00,0.0113
3419.00,0.0114
3418.00,0.0114
3417.00,0.0114
3416.00,0.0115
3415.00,0.0115
3414.00,0.0115
3413.00,0.0115
3412.00,0.0114
3411.00,0.0114
3410.00,0.0114
3409.00,0.0114
3408.00,0.0114
3407.00,0.0115
3406.00,0.0115
3405.00,0.0115
3404.00,0.0115
3403.00,0.0115
3402.00,0.0115
3401.00,0.0115
3400.00,0.0115
3399.00,0.0115
3398.00,0.0115
3397.00,0.0115
3396.00,0.0115
3395.00,0.0115
3394.00,0.0116
3393.00,0.0116
3392.00,0.0116
3391.00,0.0116
3390.00,0.0116
3389.00,0.0116
3388.00,0.0116
3387.00,0.0116
3386.00,0.0115
3385.00,0.0115
3384.00,0.0115
3383.00,0.0115
3382.00,0.0115
3381.00,0.0115
3380.00,0.0115
3379.00,0.0115
3378.00,0.0115
3377.00,0.0115
3376.00,0.0115
3375.00,0.0115
3374.00,0.0115
3373.00,0.0116
3372.00,0.0116
3371.00,0.0116
3370.00,0.0116
3369.00,0.0115
3368.00,0.0115
3367.00,0.0115
3366.00,0.0115
3365.00,0.0115
3364.00,0.0115
3363.00,0.0115
3362.00,0.0115
3361.00,0.0114
3360.00,0.0114
3359.00,0.0114
3358.00,0.0115
3357.00,0.0115
3356.00,0.0114
3355.00,0.0114
3354.00,0.0114
3353.00,0.0114
3352.00,0.0114
3351.00,0.0114
3350.00,0.0113
3349.00,0.0113
3348.00,0.0114
3347.00,0.0114
3346.00,0.0114
3345.00,0.0113
3344.00,0.0113
3343.00,0.0113
3342.00,0.0113
3341.00,0.0113
3340.00,0.0113
3339.00,0.0113
3338.00,0.0113
3337.00,0.0113
3336.00,0.0113
3335.00,0.0113
3334.00,0.0113
3333.00,0.0113
3332.00,0.0113
3331.00,0.0113
3330.00,0.0112
3329.00,0.0112
3328.00,0.0112
3327.00,0.0112
3326.00,0.0111
3325.00,0.0111
3324.00,0.0111
3323.00,0.0111
3322.00,0.0111
3321.00,0.0111
3320.00,0.0111
3319.00,0.0111
3318.00,0.0111
3317.00,0.0111
3316.00,0.0111
3315.00,0.0111
3314.00,0.0111
3313.00,0.0111
3312.00,0.0111
3311.00,0.0111
3310.00,0.0110
3309.00,0.0110
3308.00,0.0110
3307.00,0.0110
3306.00,0.0110
3305.00,0.0110
3304.00,0.0110
3303.00,0.0110
3302.00,0.0110
3301.00,0.0109
3300.00,0.0109
3299.00,0.0109
3298.00,0.0109
3297.00,0.0109
3296.00,0.0109
3295.00,0.0109
3294.00,0.0109
3293.00,0.0109
3292.00,0.0109
3291.00,0.0109
3290.00,0.0109
3289.00,0.0109
3288.00,0.0109
3287.00,0.0108
3286.00,0.0108
3285.00,0.0108
3284.00,0.0108
3283.00,0.0108
3282.00,0.0108
3281.00,0.0108
3280.00,0.0108
3279.00,0.0107
3278.00,0.0107
3277.00,0.0107
3276.00,0.0107
3275.00,0.0107
3274.00,0.0107
3273.00,0.0107
3272.00,0.0107
3271.00,0.0107
3270.00,0.0107
3269.00,0.0107
3268.00,0.0107
3267.00,0.0107
3266.00,0.0106
3265.00,0.0106
3264.00,0.0106
3263.00,0.0106
3262.00,0.0107
3261.00,0.0107
3260.00,0.0107
3259.00,0.0106
3258.00,0.0106
3257.00,0.0105
3256.00,0.0105
3255.00,0.0105
3254.00,0.0105
3253.00,0.0105
3252.00,0.0105
3251.00,0.0105
3250.00,0.0105
3249.00,0.0104
3248.00,0.0104
3247.00,0.0104
3246.00,0.0104
3245.00,0.0104
3244.00,0.0104
3243.00,0.0104
3242.00,0.0104
3241.00,0.0104
3240.00,0.0104
3239.00,0.0104
3238.00,0.0104
3237.00,0.0104
3236.00,0.0104
3235.00,0.0103
3234.00,0.0103
3233.00,0.0103
3232.00,0.0103
3231.00,0.0103
3230.00,0.0103
3229.00,0.0103
3228.00,0.0103
3227.00,0.0102
3226.00,0.0102
3225.00,0.0102
3224.00,0.0102
3223.00,0.0101
3222.00,0.0101
3221.00,0.0101
3220.00,0.0101
3219.00,0.0101
3218.00,0.0101
3217.00,0.0100
3216.00,0.0100
3215.00,0.0099
3214.00,0.0099
3213.00,0.0099
3212.00,0.0099
3211.00,0.0099
3210.00,0.0099
3209.00,0.0099
3208.00,0.0099
3207.00,0.0098
3206.00,0.0098
3205.00,0.0098
3204.00,0.0098
3203.00,0.0097
3202.00,0.0097
3201.00,0.0097
3200.00,0.0097
3199.00,0.0097
3198.00,0.0097
3197.00,0.0097
3196.00,0.0096
3195.00,0.0096
3194.00,0.0096
3193.00,0.0095
3192.00,0.0095
3191.00,0.0095
3190.00,0.0095
3189.00,0.0094
3188.00,0.0094
3187.00,0.0094
3186.00,0.0094
3185.00,0.0094
3184.00,0.0094
3183.00,0.0094
3182.00,0.0094
3181.00,0.0094
3180.00,0.0094
3179.00,0.0093
3178.00,0.0093
3177.00,0.0093
3176.00,0.0092
3175.00,0.0092
3174.00,0.0092
3173.00,0.0092
3172.00,0.0092
3171.00,0.0092
3170.00,0.0091
3169.00,0.0091
3168.00,0.0091
3167.00,0.0091
3166.00,0.0090
3165.00,0.0090
3164.00,0.0090
3163.00,0.0090
3162.00,0.0090
3161.00,0.0090
3160.00,0.0089
3159.00,0.0089
3158.00,0.0089
3157.00,0.0089
3156.00,0.0089
3155.00,0.0089
3154.00,0.0088
3153.00,0.0088
3152.00,0.0088
3151.00,0.0088
3150.00,0.0088
3149.00,0.0088
3148.00,0.0088
3147.00,0.0088
3146.00,0.0088
3145.00,0.0087
3144.00,0.0087
3143.00,0.0087
3142.00,0.0087
3141.00,0.0087
3140.00,0.0087
3139.00,0.0087
3138.00,0.0087
3137.00,0.0086
3136.00,0.0086
3135.00,0.0086
3134.00,0.0086
3133.00,0.0086
3132.00,0.0085
3131.00,0.0085
3130.00,0.0085
3129.00,0.0085
3128.00,0.0085
3127.00,0.0085
3126.00,0.0085
3125.00,0.0085
3124.00,0.0085
3123.00,0.0085
3122.00,0.0085
3121.00,0.0085
3120.00,0.0085
3119.00,0.0085
3118.00,0.0085
3117.00,0.0085
3116.00,0.0085
3115.00,0.0085
3114.00,0.0084
3113.00,0.0084
3112.00,0.0084
3111.00,0.0084
3110.00,0.0084
3109.00,0.0083
3108.00,0.0083
3107.00,0.0083
3106.00,0.0083
3105.00,0.0083
3104.00,0.0083
3103.00,0.0082
3102.00,0.0082
3101.00,0.0082
3100.00,0.0082
3099.00,0.0081
3098.00,0.0081
3097.00,0.0081
3096.00,0.0081
3095.00,0.0081
3094.00,0.0080
3093.00,0.0080
3092.00,0.0080
3091.00,0.0080
3090.00,0.0079
3089.00,0.0079
3088.00,0.0079
3087.00,0.0079
3086.00,0.0078
3085.00,0.0078
3084.00,0.0078
3083.00,0.0078
3082.00,0.0078
3081.00,0.0078
3080.00,0.0078
3079.00,0.0078
3078.00,0.0078
3077.00,0.0077
3076.00,0.0077
3075.00,0.0077
3074.00,0.0077
3073.00,0.0077
3072.00,0.0076
3071.00,0.0076
3070.00,0.0076
3069.00,0.0076
3068.00,0.0076
3067.00,0.0076
3066.00,0.0076
3065.00,0.0076
3064.00,0.0076
3063.00,0.0076
3062.00,0.0075
3061.00,0.0075
3060.00,0.0075
3059.00,0.0075
3058.00,0.0075
3057.00,0.0074
3056.00,0.0074
3055.00,0.0074
3054.00,0.0074
3053.00,0.0074
3052.00,0.0074
3051.00,0.0073
3050.00,0.0073
3049.00,0.0073
3048.00,0.0073
3047.00,0.0073
3046.00,0.0073
3045.00,0.0072
3044.00,0.0072
3043.00,0.0072
3042.00,0.0072
3041.00,0.0072
3040.00,0.0072
3039.00,0.0072
3038.00,0.0071
3037.00,0.0071
3036.00,0.0071
3035.00,0.0071
3034.00,0.0071
3033.00,0.0070
3032.00,0.0070
3031.00,0.0070
3030.00,0.0069
3029.00,0.0069
3028.00,0.0069
3027.00,0.0069
3026.00,0.0070
3025.00,0.0070
3024.00,0.0070
3023.00,0.0070
3022.00,0.0069
3021.00,0.0069
3020.00,0.0069
3019.00,0.0069
3018.00,0.0069
3017.00,0.0069
3016.00,0.0069
3015.00,0.0069
3014.00,0.0069
3013.00,0.0070
3012.00,0.0070
3011.00,0.0070
3010.00,0.0070
3009.00,0.0070
3008.00,0.0071
3007.00,0.0071
3006.00,0.0071
3005.00,0.0072
3004.00,0.0072
3003.00,0.0073
3002.00,0.0073
3001.00,0.0074
3000.00,0.0075
2999.00,0.0076
2998.00,0.0077
2997.00,0.0078
2996.00,0.0080
2995.00,0.0081
2994.00,0.0083
2993.00,0.0085
2992.00,0.0087
2991.00,0.0090
2990.00,0.0092
2989.00,0.0096
2988.00,0.0100
2987.00,0.0104
2986.00,0.0109
2985.00,0.0114
2984.00,0.0120
2983.00,0.0126
2982.00,0.0135
2981.00,0.0144
2980.00,0.0156
2979.00,0.0170
2978.00,0.0186
2977.00,0.0204
2976.00,0.0225
2975.00,0.0249
2974.00,0.0277
2973.00,0.0309
2972.00,0.0345
2971.00,0.0384
2970.00,0.0427
2969.00,0.0472
2968.00,0.0518
2967.00,0.0562
2966.00,0.0602
2965.00,0.0634
2964.00,0.0655
2963.00,0.0662
2962.00,0.0653
2961.00,0.0630
2960.00,0.0594
2959.00,0.0549
2958.00,0.0499
2957.00,0.0449
2956.00,0.0401
2955.00,0.0357
2954.00,0.0318
2953.00,0.0284
2952.00,0.0255
2951.00,0.0230
2950.00,0.0209
2949.00,0.0192
2948.00,0.0177
2947.00,0.0163
2946.00,0.0152
2945.00,0.0142
2944.00,0.0134
2943.00,0.0126
2942.00,0.0120
2941.00,0.0114
2940.00,0.0108
2939.00,0.0103
2938.00,0.0099
2937.00,0.0094
2936.00,0.0091
2935.00,0.0087
2934.00,0.0084
2933.00,0.0081
2932.00,0.0078
2931.00,0.0075
2930.00,0.0073
2929.00,0.0070
2928.00,0.0068
2927.00,0.0066
2926.00,0.0064
2925.00,0.0063
2924.00,0.0061
2923.00,0.0060
2922.00,0.0059
2921.00,0.0059
2920.00,0.0059
2919.00,0.0060
2918.00,0.0061
2917.00,0.0063
2916.00,0.0066
2915.00,0.0070
2914.00,0.0075
2913.00,0.0081
2912.00,0.0087
2911.00,0.0093
2910.00,0.0098
2909.00,0.0103
2908.00,0.0107
2907.00,0.0110
2906.00,0.0111
2905.00,0.0111
2904.00,0.0110
2903.00,0.0108
2902.00,0.0104
2901.00,0.0101
2900.00,0.0096
2899.00,0.0092
2898.00,0.0088
2897.00,0.0084
2896.00,0.0081
2895.00,0.0078
2894.00,0.0075
2893.00,0.0072
2892.00,0.0070
2891.00,0.0068
2890.00,0.0066
2889.00,0.0065
2888.00,0.0064
2887.00,0.0062
2886.00,0.0062
2885.00,0.0061
2884.00,0.0060
2883.00,0.0059
2882.00,0.0057
2881.00,0.0057
2880.00,0.0056
2879.00,0.0055
2878.00,0.0054
2877.00,0.0054
2876.00,0.0053
2875.00,0.0052
2874.00,0.0051
2873.00,0.0050
2872.00,0.0050
2871.00,0.0049
2870.00,0.0048
2869.00,0.0047
2868.00,0.0046
2867.00,0.0046
2866.00,0.0045
2865.00,0.0044
2864.00,0.0043
2863.00,0.0042
2862.00,0.0042
2861.00,0.0041
2860.00,0.0040
2859.00,0.0039
2858.00,0.0038
2857.00,0.0037
2856.00,0.0035
2855.00,0.0034
2854.00,0.0032
2853.00,0.0031
2852.00,0.0029
2851.00,0.0028
2850.00,0.0027
2849.00,0.0027
2848.00,0.0028
2847.00,0.0030
2846.00,0.0032
2845.00,0.0034
2844.00,0.0036
2843.00,0.0037
2842.00,0.0038
2841.00,0.0038
2840.00,0.0039
2839.00,0.0039
2838.00,0.0039
2837.00,0.0040
2836.00,0.0040
2835.00,0.0040
2834.00,0.0040
2833.00,0.0040
2832.00,0.0040
2831.00,0.0040
2830.00,0.0040
2829.00,0.0040
2828.00,0.0040
2827.00,0.0040
2826.00,0.0040
2825.00,0.0040
2824.00,0.0040
2823.00,0.0040
2822.00,0.0040
2821.00,0.0040
2820.00,0.0040
2819.00,0.0040
2818.00,0.0040
2817.00,0.0040
2816.00,0.0040
2815.00,0.0040
2814.00,0.0040
2813.00,0.0040
2812.00,0.0040
2811.00,0.0040
2810.00,0.0040
2809.00,0.0040
2808.00,0.0040
2807.00,0.0040
2806.00,0.0040
2805.00,0.0039
2804.00,0.0039
2803.00,0.0039
2802.00,0.0039
2801.00,0.0039
2800.00,0.0039
2799.00,0.0039
2798.00,0.0039
2797.00,0.0039
2796.00,0.0038
2795.00,0.0038
2794.00,0.0038
2793.00,0.0038
2792.00,0.0037
2791.00,0.0037
2790.00,0.0036
2789.00,0.0036
2788.00,0.0035
2787.00,0.0034
2786.00,0.0034
2785.00,0.0033
2784.00,0.0032
2783.00,0.0032
2782.00,0.0031
2781.00,0.0031
2780.00,0.0030
2779.00,0.0030
2778.00,0.0029
2777.00,0.0029
2776.00,0.0029
2775.00,0.0028
2774.00,0.0028
2773.00,0.0028
2772.00,0.0027
2771.00,0.0027
2770.00,0.0027
2769.00,0.0026
2768.00,0.0026
2767.00,0.0026
2766.00,0.0026
2765.00,0.0026
2764.00,0.0025
2763.00,0.0025
2762.00,0.0025
2761.00,0.0025
2760.00,0.0025
2759.00,0.0024
2758.00,0.0024
2757.00,0.0024
2756.00,0.0024
2755.00,0.0024
2754.00,0.0023
2753.00,0.0023
2752.00,0.0023
2751.00,0.0023
2750.00,0.0023
2749.00,0.0023
2748.00,0.0023
2747.00,0.0023
2746.00,0.0023
2745.00,0.0023
2744.00,0.0023
2743.00,0.0023
2742.00,0.0022
2741.00,0.0022
2740.00,0.0022
2739.00,0.0022
2738.00,0.0022
2737.00,0.0022
2736.00,0.0021
2735.00,0.0021
2734.00,0.0021
2733.00,0.0021
2732.00,0.0021
2731.00,0.0021
2730.00,0.0021
2729.00,0.0021
2728.00,0.0021
2727.00,0.0021
2726.00,0.0021
2725.00,0.0021
2724.00,0.0021
2723.00,0.0020
2722.00,0.0020
2721.00,0.0020
2720.00,0.0020
2719.00,0.0021
2718.00,0.0021
2717.00,0.0021
2716.00,0.0020
2715.00,0.0020
2714.00,0.0020
2713.00,0.0020
2712.00,0.0020
2711.00,0.0020
2710.00,0.0020
2709.00,0.0020
2708.00,0.0020
2707.00,0.0020
2706.00,0.0020
2705.00,0.0020
2704.00,0.0020
2703.00,0.0020
2702.00,0.0020
2701.00,0.0020
2700.00,0.0020
2699.00,0.0020
2698.00,0.0020
2697.00,0.0020
2696.00,0.0020
2695.00,0.0019
2694.00,0.0019
2693.00,0.0019
2692.00,0.0019
2691.00,0.0019
2690.00,0.0019
2689.00,0.0019
2688.00,0.0019
2687.00,0.0019
2686.00,0.0019
2685.00,0.0019
2684.00,0.0019
2683.00,0.0019
2682.00,0.0019
2681.00,0.0019
2680.00,0.0019
2679.00,0.0020
2678.00,0.0020
2677.00,0.0020
2676.00,0.0020
2675.00,0.0020
2674.00,0.0020
2673.00,0.0020
2672.00,0.0020
2671.00,0.0020
2670.00,0.0020
2669.00,0.0020
2668.00,0.0020
2667.00,0.0020
2666.00,0.0020
2665.00,0.0020
2664.00,0.0020
2663.00,0.0020
2662.00,0.0020
2661.00,0.0020
2660.00,0.0020
2659.00,0.0020
2658.00,0.0020
2657.00,0.0020
2656.00,0.0020
2655.00,0.0019
2654.00,0.0019
2653.00,0.0019
2652.00,0.0019
2651.00,0.0018
2650.00,0.0018
2649.00,0.0018
2648.00,0.0018
2647.00,0.0018
2646.00,0.0017
2645.00,0.0017
2644.00,0.0017
2643.00,0.0016
2642.00,0.0016
2641.00,0.0016
2640.00,0.0016
2639.00,0.0016
2638.00,0.0016
2637.00,0.0016
2636.00,0.0016
2635.00,0.0015
2634.00,0.0015
2633.00,0.0015
2632.00,0.0015
2631.00,0.0015
2630.00,0.0015
2629.00,0.0015
2628.00,0.0015
2627.00,0.0014
2626.00,0.0014
2625.00,0.0014
2624.00,0.0014
2623.00,0.0014
2622.00,0.0014
2621.00,0.0014
2620.00,0.0014
2619.00,0.0013
2618.00,0.0013
2617.00,0.0014
2616.00,0.0014
2615.00,0.0014
2614.00,0.0014
2613.00,0.0013
2612.00,0.0013
2611.00,0.0013
2610.00,0.0013
2609.00,0.0013
2608.00,0.0013
2607.00,0.0013
2606.00,0.0013
2605.00,0.0013
2604.00,0.0012
2603.00,0.0012
2602.00,0.0012
2601.00,0.0012
2600.00,0.0012
2599.00,0.0012
2598.00,0.0012
2597.00,0.0012
2596.00,0.0012
2595.00,0.0012
2594.00,0.0012
2593.00,0.0012
2592.00,0.0012
2591.00,0.0012
2590.00,0.0013
2589.00,0.0013
2588.00,0.0012
2587.00,0.0012
2586.00,0.0012
2585.00,0.0012
2584.00,0.0012
2583.00,0.0012
2582.00,0.0012
2581.00,0.0012
2580.00,0.0011
2579.00,0.0011
2578.00,0.0011
2577.00,0.0011
2576.00,0.0011
2575.00,0.0011
2574.00,0.0011
2573.00,0.0011
2572.00,0.0011
2571.00,0.0011
2570.00,0.0011
2569.00,0.0011
2568.00,0.0011
2567.00,0.0011
2566.00,0.0011
2565.00,0.0011
2564.00,0.0011
2563.00,0.0011
2562.00,0.0011
2561.00,0.0011
2560.00,0.0011
2559.00,0.0011
2558.00,0.0011
2557.00,0.0011
2556.00,0.0011
2555.00,0.0011
2554.00,0.0011
2553.00,0.0011
2552.00,0.0011
2551.00,0.0011
2550.00,0.0011
2549.00,0.0011
2548.00,0.0011
2547.00,0.0011
2546.00,0.0012
2545.00,0.0011
2544.00,0.0011
2543.00,0.0011
2542.00,0.0011
2541.00,0.0011
2540.00,0.0011
2539.00,0.0012
2538.00,0.0012
2537.00,0.0012
2536.00,0.0012
2535.00,0.0012
2534.00,0.0012
2533.00,0.0012
2532.00,0.0012
2531.00,0.0012
2530.00,0.0012
2529.00,0.0012
2528.00,0.0012
2527.00,0.0013
2526.00,0.0013
2525.00,0.0014
2524.00,0.0014
2523.00,0.0014
2522.00,0.0014
2521.00,0.0014
2520.00,0.0014
2519.00,0.0014
2518.00,0.0014
2517.00,0.0014
2516.00,0.0014
2515.00,0.0014
2514.00,0.0014
2513.00,0.0014
2512.00,0.0014
2511.00,0.0014
2510.00,0.0014
2509.00,0.0014
2508.00,0.0014
2507.00,0.0014
2506.00,0.0014
2505.00,0.0015
2504.00,0.0015
2503.00,0.0015
2502.00,0.0015
2501.00,0.0015
2500.00,0.0015
2499.00,0.0015
2498.00,0.0015
2497.00,0.0015
2496.00,0.0014
2495.00,0.0014
2494.00,0.0013
2493.00,0.0013
2492.00,0.0013
2491.00,0.0012
2490.00,0.0012
2489.00,0.0012
2488.00,0.0012
2487.00,0.0012
2486.00,0.0011
2485.00,0.0011
2484.00,0.0012
2483.00,0.0012
2482.00,0.0012
2481.00,0.0011
2480.00,0.0011
2479.00,0.0011
2478.00,0.0011
2477.00,0.0011
2476.00,0.0011
2475.00,0.0011
2474.00,0.0012
2473.00,0.0012
2472.00,0.0011
2471.00,0.0011
2470.00,0.0011
2469.00,0.0010
2468.00,0.0010
2467.00,0.0010
2466.00,0.0010
2465.00,0.0010
2464.00,0.0010
2463.00,0.0010
2462.00,0.0010
2461.00,0.0010
2460.00,0.0010
2459.00,0.0011
2458.00,0.0011
2457.00,0.0011
2456.00,0.0011
2455.00,0.0011
2454.00,0.0010
2453.00,0.0010
2452.00,0.0010
2451.00,0.0010
2450.00,0.0010
2449.00,0.0010
2448.00,0.0011
2447.00,0.0011
2446.00,0.0011
2445.00,0.0010
2444.00,0.0010
2443.00,0.0010
2442.00,0.0010
2441.00,0.0010
2440.00,0.0010
2439.00,0.0010
2438.00,0.0010
2437.00,0.0010
2436.00,0.0010
2435.00,0.0010
2434.00,0.0010
2433.00,0.0010
2432.00,0.0010
2431.00,0.0010
2430.00,0.0010
2429.00,0.0010
2428.00,0.0010
2427.00,0.0010
2426.00,0.0010
2425.00,0.0010
2424.00,0.0010
2423.00,0.0010
2422.00,0.0010
2421.00,0.0010
2420.00,0.0010
2419.00,0.0010
2418.00,0.0010
2417.00,0.0010
2416.00,0.0010
2415.00,0.0010
2414.00,0.0009
2413.00,0.0009
2412.00,0.0009
2411.00,0.0009
2410.00,0.0009
2409.00,0.0009
2408.00,0.0009
2407.00,0.0009
2406.00,0.0009
2405.00,0.0009
2404.00,0.0009
2403.00,0.0009
2402.00,0.0009
2401.00,0.0009
2400.00,0.0010
2399.00,0.0010
2398.00,0.0009
2397.00,0.0009
2396.00,0.0009
2395.00,0.0010
2394.00,0.0010
2393.00,0.0010
2392.00,0.0010
2391.00,0.0010
2390.00,0.0010
2389.00,0.0010
2388.00,0.0010
2387.00,0.0009
2386.00,0.0009
2385.00,0.0009
2384.00,0.0009
2383.00,0.0009
2382.00,0.0009
2381.00,0.0010
2380.00,0.0010
2379.00,0.0009
2378.00,0.0009
2377.00,0.0009
2376.00,0.0010
2375.00,0.0010
2374.00,0.0010
2373.00,0.0010
2372.00,0.0010
2371.00,0.0010
2370.00,0.0010
2369.00,0.0010
2368.00,0.0011
2367.00,0.0011
2366.00,0.0011
2365.00,0.0010
2364.00,0.0010
2363.00,0.0010
2362.00,0.0010
2361.00,0.0010
2360.00,0.0011
2359.00,0.0011
2358.00,0.0012
2357.00,0.0012
2356.00,0.0012
2355.00,0.0012
2354.00,0.0011
2353.00,0.0011
2352.00,0.0011
2351.00,0.0011
2350.00,0.0012
2349.00,0.0012
2348.00,0.0012
2347.00,0.0012
2346.00,0.0012
2345.00,0.0012
2344.00,0.0013
2343.00,0.0012
2342.00,0.0012
2341.00,0.0012
2340.00,0.0012
2339.00,0.0012
2338.00,0.0012
2337.00,0.0012
2336.00,0.0012
2335.00,0.0012
2334.00,0.0012
2333.00,0.0012
2332.00,0.0012
2331.00,0.0012
2330.00,0.0012
2329.00,0.0012
2328.00,0.0012
2327.00,0.0013
2326.00,0.0014
2325.00,0.0014
2324.00,0.0014
2323.00,0.0013
2322.00,0.0013
2321.00,0.0013
2320.00,0.0013
2319.00,0.0013
2318.00,0.0012
2317.00,0.0012
2316.00,0.0012
2315.00,0.0012
2314.00,0.0012
2313.00,0.0011
2312.00,0.0011
2311.00,0.0011
2310.00,0.0011
2309.00,0.0011
2308.00,0.0011
2307.00,0.0011
2306.00,0.0011
2305.00,0.0011
2304.00,0.0011
2303.00,0.0011
2302.00,0.0011
2301.00,0.0011
2300.00,0.0011
2299.00,0.0010
2298.00,0.0010
2297.00,0.0010
2296.00,0.0010
2295.00,0.0011
2294.00,0.0011
2293.00,0.0011
2292.00,0.0011
2291.00,0.0010
2290.00,0.0010
2289.00,0.0010
2288.00,0.0010
2287.00,0.0009
2286.00,0.0009
2285.00,0.0009
2284.00,0.0009
2283.00,0.0009
2282.00,0.0009
2281.00,0.0009
2280.00,0.0008
2279.00,0.0008
2278.00,0.0007
2277.00,0.0007
2276.00,0.0007
2275.00,0.0007
2274.00,0.0008
2273.00,0.0008
2272.00,0.0008
2271.00,0.0008
2270.00,0.0008
2269.00,0.0008
2268.00,0.0007
2267.00,0.0007
2266.00,0.0006
2265.00,0.0006
2264.00,0.0005
2263.00,0.0005
2262.00,0.0006
2261.00,0.0006
2260.00,0.0007
2259.00,0.0007
2258.00,0.0006
2257.00,0.0006
2256.00,0.0005
2255.00,0.0005
2254.00,0.0005
2253.00,0.0005
2252.00,0.0005
2251.00,0.0004
2250.00,0.0003
2249.00,0.0003
2248.00,0.0003
2247.00,0.0004
2246.00,0.0004
2245.00,0.0004
2244.00,0.0004
2243.00,0.0004
2242.00,0.0004
2241.00,0.0004
2240.00,0.0004
2239.00,0.0004
2238.00,0.0004
2237.00,0.0003
2236.00,0.0003
2235.00,0.0003
2234.00,0.0002
2233.00,0.0001
2232.00,0.0001
2231.00,0.0001
2230.00,0.0000
2229.00,0.0000
2228.00,0.0000
2227.00,0.0001
2226.00,0.0001
2225.00,0.0001
2224.00,0.0001
2223.00,0.0001
2222.00,0.0001
2221.00,0.0000
2220.00,-0.0000
2219.00,-0.0001
2218.00,-0.0002
2217.00,-0.0003
2216.00,-0.0003
2215.00,-0.0003
2214.00,-0.0003
2213.00,-0.0003
2212.00,-0.0003
2211.00,-0.0003
2210.00,-0.0003
2209.00,-0.0003
2208.00,-0.0003
2207.00,-0.0004
2206.00,-0.0005
2205.00,-0.0005
2204.00,-0.0005
2203.00,-0.0005
2202.00,-0.0005
2201.00,-0.0005
2200.00,-0.0005
2199.00,-0.0005
2198.00,-0.0005
2197.00,-0.0006
2196.00,-0.0006
2195.00,-0.0007
2194.00,-0.0008
2193.00,-0.0009
2192.00,-0.0009
2191.00,-0.0010
2190.00,-0.0010
2189.00,-0.0012
2188.00,-0.0013
2187.00,-0.0014
2186.00,-0.0014
2185.00,-0.0014
2184.00,-0.0014
2183.00,-0.0013
2182.00,-0.0013
2181.00,-0.0013
2180.00,-0.0012
2179.00,-0.0012
2178.00,-0.0012
2177.00,-0.0013
2176.00,-0.0014
2175.00,-0.0014
2174.00,-0.0014
2173.00,-0.0013
2172.00,-0.0011
2171.00,-0.0011
2170.00,-0.0011
2169.00,-0.0012
2168.00,-0.0013
2167.00,-0.0015
2166.00,-0.0017
2165.00,-0.0018
2164.00,-0.0020
2163.00,-0.0021
2162.00,-0.0024
2161.00,-0.0027
2160.00,-0.0030
2159.00,-0.0032
2158.00,-0.0033
2157.00,-0.0031
2156.00,-0.0029
2155.00,-0.0026
2154.00,-0.0023
2153.00,-0.0020
2152.00,-0.0018
2151.00,-0.0017
2150.00,-0.0017
2149.00,-0.0017
2148.00,-0.0017
2147.00,-0.0017
2146.00,-0.0018
2145.00,-0.0018
2144.00,-0.0017
2143.00,-0.0016
2142.00,-0.0015
2141.00,-0.0014
2140.00,-0.0014
2139.00,-0.0013
2138.00,-0.0012
2137.00,-0.0011
2136.00,-0.0010
2135.00,-0.0009
2134.00,-0.0009
2133.00,-0.0008
2132.00,-0.0007
2131.00,-0.0006
2130.00,-0.0006
2129.00,-0.0007
2128.00,-0.0007
2127.00,-0.0007
2126.00,-0.0006
2125.00,-0.0006
2124.00,-0.0005
2123.00,-0.0004
2122.00,-0.0004
2121.00,-0.0004
2120.00,-0.0003
2119.00,-0.0003
2118.00,-0.0004
2117.00,-0.0004
2116.00,-0.0004
2115.00,-0.0005
2114.00,-0.0005
2113.00,-0.0005
2112.00,-0.0005
2111.00,-0.0005
2110.00,-0.0005
2109.00,-0.0006
2108.00,-0.0006
2107.00,-0.0006
2106.00,-0.0005
2105.00,-0.0005
2104.00,-0.0004
2103.00,-0.0004
2102.00,-0.0004
2101.00,-0.0004
2100.00,-0.0004
2099.00,-0.0004
2098.00,-0.0005
2097.00,-0.0005
2096.00,-0.0005
2095.00,-0.0005
2094.00,-0.0004
2093.00,-0.0004
2092.00,-0.0004
2091.00,-0.0005
2090.00,-0.0005
2089.00,-0.0006
2088.00,-0.0006
2087.00,-0.0006
2086.00,-0.0006
2085.00,-0.0006
2084.00,-0.0006
2083.00,-0.0006
2082.00,-0.0006
2081.00,-0.0007
2080.00,-0.0007
2079.00,-0.0007
2078.00,-0.0007
2077.00,-0.0008
2076.00,-0.0008
2075.00,-0.0008
2074.00,-0.0009
2073.00,-0.0009
2072.00,-0.0009
2071.00,-0.0009
2070.00,-0.0009
2069.00,-0.0009
2068.00,-0.0010
2067.00,-0.0012
2066.00,-0.0013
2065.00,-0.0014
2064.00,-0.0014
2063.00,-0.0013
2062.00,-0.0013
2061.00,-0.0013
2060.00,-0.0013
2059.00,-0.0013
2058.00,-0.0013
2057.00,-0.0013
2056.00,-0.0013
2055.00,-0.0013
2054.00,-0.0013
2053.00,-0.0013
2052.00,-0.0013
2051.00,-0.0014
2050.00,-0.0016
2049.00,-0.0019
2048.00,-0.0021
2047.00,-0.0023
2046.00,-0.0024
2045.00,-0.0025
2044.00,-0.0028
2043.00,-0.0030
2042.00,-0.0033
2041.00,-0.0034
2040.00,-0.0035
2039.00,-0.0036
2038.00,-0.0038
2037.00,-0.0040
2036.00,-0.0042
2035.00,-0.0045
2034.00,-0.0047
2033.00,-0.0047
2032.00,-0.0048
2031.00,-0.0048
2030.00,-0.0048
2029.00,-0.0049
2028.00,-0.0049
2027.00,-0.0050
2026.00,-0.0050
2025.00,-0.0052
2024.00,-0.0053
2023.00,-0.0053
2022.00,-0.0053
2021.00,-0.0052
2020.00,-0.0051
2019.00,-0.0052
2018.00,-0.0053
2017.00,-0.0054
2016.00,-0.0053
2015.00,-0.0052
2014.00,-0.0050
2013.00,-0.0050
2012.00,-0.0049
2011.00,-0.0048
2010.00,-0.0046
2009.00,-0.0046
2008.00,-0.0046
2007.00,-0.0045
2006.00,-0.0044
2005.00,-0.0042
2004.00,-0.0040
2003.00,-0.0038
2002.00,-0.0037
2001.00,-0.0037
2000.00,-0.0037
1999.00,-0.0037
1998.00,-0.0036
1997.00,-0.0035
1996.00,-0.0033
1995.00,-0.0033
1994.00,-0.0033
1993.00,-0.0034
1992.00,-0.0034
1991.00,-0.0034
1990.00,-0.0033
1989.00,-0.0032
1988.00,-0.0031
1987.00,-0.0030
1986.00,-0.0028
1985.00,-0.0027
1984.00,-0.0027
1983.00,-0.0028
1982.00,-0.0030
1981.00,-0.0033
1980.00,-0.0035
1979.00,-0.0036
1978.00,-0.0036
1977.00,-0.0035
1976.00,-0.0033
1975.00,-0.0032
1974.00,-0.0031
1973.00,-0.0028
1972.00,-0.0025
1971.00,-0.0022
1970.00,-0.0020
1969.00,-0.0018
1968.00,-0.0016
1967.00,-0.0014
1966.00,-0.0014
1965.00,-0.0013
1964.00,-0.0012
1963.00,-0.0010
1962.00,-0.0008
1961.00,-0.0005
1960.00,-0.0002
1959.00,0.0000
1958.00,0.0002
1957.00,0.0003
1956.00,0.0004
1955.00,0.0005
1954.00,0.0007
1953.00,0.0008
1952.00,0.0009
1951.00,0.0009
1950.00,0.0009
1949.00,0.0009
1948.00,0.0010
1947.00,0.0011
1946.00,0.0012
1945.00,0.0013
1944.00,0.0014
1943.00,0.0014
1942.00,0.0015
1941.00,0.0015
1940.00,0.0016
1939.00,0.0016
1938.00,0.0015
1937.00,0.0014
1936.00,0.0014
1935.00,0.0013
1934.00,0.0014
1933.00,0.0014
1932.00,0.0015
1931.00,0.0016
1930.00,0.0016
1929.00,0.0016
1928.00,0.0016
1927.00,0.0016
1926.00,0.0016
1925.00,0.0016
1924.00,0.0016
1923.00,0.0017
1922.00,0.0017
1921.00,0.0017
1920.00,0.0017
1919.00,0.0017
1918.00,0.0017
1917.00,0.0018
1916.00,0.0019
1915.00,0.0019
1914.00,0.0019
1913.00,0.0019
1912.00,0.0019
1911.00,0.0019
1910.00,0.0020
1909.00,0.0020
1908.00,0.0019
1907.00,0.0019
1906.00,0.0019
1905.00,0.0020
1904.00,0.0020
1903.00,0.0021
1902.00,0.0022
1901.00,0.0022
1900.00,0.0022
1899.00,0.0023
1898.00,0.0023
1897.00,0.0023
1896.00,0.0024
1895.00,0.0024
1894.00,0.0025
1893.00,0.0025
1892.00,0.0025
1891.00,0.0025
1890.00,0.0025
1889.00,0.0025
1888.00,0.0026
1887.00,0.0027
1886.00,0.0027
1885.00,0.0028
1884.00,0.0028
1883.00,0.0028
1882.00,0.0028
1881.00,0.0028
1880.00,0.0029
1879.00,0.0030
1878.00,0.0030
1877.00,0.0030
1876.00,0.0030
1875.00,0.0030
1874.00,0.0030
1873.00,0.0029
1872.00,0.0029
1871.00,0.0029
1870.00,0.0030
1869.00,0.0030
1868.00,0.0030
1867.00,0.0031
1866.00,0.0031
1865.00,0.0031
1864.00,0.0030
1863.00,0.0029
1862.00,0.0029
1861.00,0.0029
1860.00,0.0029
1859.00,0.0029
1858.00,0.0029
1857.00,0.0028
1856.00,0.0028
1855.00,0.0028
1854.00,0.0028
1853.00,0.0028
1852.00,0.0028
1851.00,0.0028
1850.00,0.0028
1849.00,0.0027
1848.00,0.0027
1847.00,0.0027
1846.00,0.0027
1845.00,0.0027
1844.00,0.0027
1843.00,0.0027
1842.00,0.0027
1841.00,0.0026
1840.00,0.0026
1839.00,0.0026
1838.00,0.0026
1837.00,0.0026
1836.00,0.0026
1835.00,0.0026
1834.00,0.0026
1833.00,0.0026
1832.00,0.0026
1831.00,0.0026
1830.00,0.0026
1829.00,0.0027
1828.00,0.0026
1827.00,0.0026
1826.00,0.0026
1825.00,0.0026
1824.00,0.0026
1823.00,0.0026
1822.00,0.0026
1821.00,0.0027
1820.00,0.0027
1819.00,0.0027
1818.00,0.0027
1817.00,0.0027
1816.00,0.0027
1815.00,0.0027
1814.00,0.0028
1813.00,0.0028
1812.00,0.0029
1811.00,0.0029
1810.00,0.0029
1809.00,0.0029
1808.00,0.0030
1807.00,0.0030
1806.00,0.0030
1805.00,0.0030
1804.00,0.0030
1803.00,0.0031
1802.00,0.0031
1801.00,0.0031
1800.00,0.0032
1799.00,0.0032
1798.00,0.0032
1797.00,0.0033
1796.00,0.0033
1795.00,0.0033
1794.00,0.0033
1793.00,0.0033
1792.00,0.0033
1791.00,0.0033
1790.00,0.0033
1789.00,0.0033
1788.00,0.0033
1787.00,0.0034
1786.00,0.0034
1785.00,0.0035
1784.00,0.0035
1783.00,0.0036
1782.00,0.0036
1781.00,0.0036
1780.00,0.0036
1779.00,0.0036
1778.00,0.0036
1777.00,0.0037
1776.00,0.0037
1775.00,0.0037
1774.00,0.0037
1773.00,0.0037
1772.00,0.0037
1771.00,0.0037
1770.00,0.0037
1769.00,0.0037
1768.00,0.0037
1767.00,0.0037
1766.00,0.0037
1765.00,0.0037
1764.00,0.0037
1763.00,0.0037
1762.00,0.0037
1761.00,0.0038
1760.00,0.0038
1759.00,0.0037
1758.00,0.0037
1757.00,0.0037
1756.00,0.0037
1755.00,0.0036
1754.00,0.0036
1753.00,0.0036
1752.00,0.0036
1751.00,0.0037
1750.00,0.0037
1749.00,0.0037
1748.00,0.0037
1747.00,0.0038
1746.00,0.0038
1745.00,0.0038
1744.00,0.0038
1743.00,0.0038
1742.00,0.0038
1741.00,0.0039
1740.00,0.0039
1739.00,0.0039
1738.00,0.0039
1737.00,0.0040
1736.00,0.0040
1735.00,0.0041
1734.00,0.0041
1733.00,0.0042
1732.00,0.0042
1731.00,0.0042
1730.00,0.0042
1729.00,0.0042
1728.00,0.0043
1727.00,0.0044
1726.00,0.0044
1725.00,0.0044
1724.00,0.0045
1723.00,0.0045
1722.00,0.0045
1721.00,0.0045
1720.00,0.0046
1719.00,0.0047
1718.00,0.0047
1717.00,0.0048
1716.00,0.0048
1715.00,0.0047
1714.00,0.0048
1713.00,0.0048
1712.00,0.0048
1711.00,0.0049
1710.00,0.0049
1709.00,0.0050
1708.00,0.0050
1707.00,0.0051
1706.00,0.0052
1705.00,0.0052
1704.00,0.0053
1703.00,0.0053
1702.00,0.0053
1701.00,0.0054
1700.00,0.0055
1699.00,0.0057
1698.00,0.0058
1697.00,0.0059
1696.00,0.0060
1695.00,0.0061
1694.00,0.0062
1693.00,0.0063
1692.00,0.0064
1691.00,0.0065
1690.00,0.0066
1689.00,0.0067
1688.00,0.0067
1687.00,0.0068
1686.00,0.0069
1685.00,0.0071
1684.00,0.0072
1683.00,0.0073
1682.00,0.0073
1681.00,0.0074
1680.00,0.0075
1679.00,0.0075
1678.00,0.0075
1677.00,0.0076
1676.00,0.0076
1675.00,0.0077
1674.00,0.0078
1673.00,0.0078
1672.00,0.0079
1671.00,0.0080
1670.00,0.0080
1669.00,0.0081
1668.00,0.0081
1667.00,0.0082
1666.00,0.0083
1665.00,0.0083
1664.00,0.0084
1663.00,0.0084
1662.00,0.0085
1661.00,0.0085
1660.00,0.0086
1659.00,0.0087
1658.00,0.0087
1657.00,0.0087
1656.00,0.0088
1655.00,0.0088
1654.00,0.0090
1653.00,0.0092
1652.00,0.0093
1651.00,0.0094
1650.00,0.0094
1649.00,0.0094
1648.00,0.0094
1647.00,0.0095
1646.00,0.0096
1645.00,0.0096
1644.00,0.0096
1643.00,0.0097
1642.00,0.0097
1641.00,0.0098
1640.00,0.0098
1639.00,0.0099
1638.00,0.0099
1637.00,0.0100
1636.00,0.0101
1635.00,0.0101
1634.00,0.0102
1633.00,0.0102
1632.00,0.0102
1631.00,0.0102
1630.00,0.0102
1629.00,0.0102
1628.00,0.0102
1627.00,0.0102
1626.00,0.0102
1625.00,0.0102
1624.00,0.0102
1623.00,0.0101
1622.00,0.0101
1621.00,0.0101
1620.00,0.0100
1619.00,0.0099
1618.00,0.0098
1617.00,0.0097
1616.00,0.0097
1615.00,0.0096
1614.00,0.0095
1613.00,0.0094
1612.00,0.0093
1611.00,0.0092
1610.00,0.0090
1609.00,0.0089
1608.00,0.0087
1607.00,0.0086
1606.00,0.0085
1605.00,0.0084
1604.00,0.0082
1603.00,0.0081
1602.00,0.0080
1601.00,0.0079
1600.00,0.0078
1599.00,0.0077
1598.00,0.0076
1597.00,0.0076
1596.00,0.0075
1595.00,0.0074
1594.00,0.0073
1593.00,0.0072
1592.00,0.0072
1591.00,0.0071
1590.00,0.0070
1589.00,0.0070
1588.00,0.0069
1587.00,0.0068
1586.00,0.0068
1585.00,0.0067
1584.00,0.0066
1583.00,0.0066
1582.00,0.0065
1581.00,0.0065
1580.00,0.0064
1579.00,0.0064
1578.00,0.0063
1577.00,0.0063
1576.00,0.0062
1575.00,0.0061
1574.00,0.0061
1573.00,0.0060
1572.00,0.0060
1571.00,0.0059
1570.00,0.0059
1569.00,0.0058
1568.00,0.0058
1567.00,0.0058
1566.00,0.0057
1565.00,0.0057
1564.00,0.0057
1563.00,0.0056
1562.00,0.0055
1561.00,0.0054
1560.00,0.0052
1559.00,0.0051
1558.00,0.0052
1557.00,0.0053
1556.00,0.0054
1555.00,0.0054
1554.00,0.0054
1553.00,0.0054
1552.00,0.0055
1551.00,0.0055
1550.00,0.0055
1549.00,0.0055
1548.00,0.0055
1547.00,0.0055
1546.00,0.0055
1545.00,0.0055
1544.00,0.0055
1543.00,0.0056
1542.00,0.0056
1541.00,0.0056
1540.00,0.0056
1539.00,0.0056
1538.00,0.0056
1537.00,0.0057
1536.00,0.0057
1535.00,0.0057
1534.00,0.0057
1533.00,0.0057
1532.00,0.0057
1531.00,0.0057
1530.00,0.0058
1529.00,0.0058
1528.00,0.0058
1527.00,0.0058
1526.00,0.0058
1525.00,0.0058
1524.00,0.0058
1523.00,0.0058
1522.00,0.0058
1521.00,0.0058
1520.00,0.0058
1519.00,0.0058
1518.00,0.0058
1517.00,0.0058
1516.00,0.0058
1515.00,0.0058
1514.00,0.0058
1513.00,0.0058
1512.00,0.0058
1511.00,0.0058
1510.00,0.0058
1509.00,0.0058
1508.00,0.0059
1507.00,0.0059
1506.00,0.0059
1505.00,0.0059
1504.00,0.0059
1503.00,0.0059
1502.00,0.0060
1501.00,0.0060
1500.00,0.0060
1499.00,0.0060
1498.00,0.0061
1497.00,0.0061
1496.00,0.0060
1495.00,0.0061
1494.00,0.0061
1493.00,0.0062
1492.00,0.0062
1491.00,0.0063
1490.00,0.0064
1489.00,0.0065
1488.00,0.0066
1487.00,0.0066
1486.00,0.0067
1485.00,0.0067
1484.00,0.0067
1483.00,0.0067
1482.00,0.0068
1481.00,0.0068
1480.00,0.0067
1479.00,0.0067
1478.00,0.0067
1477.00,0.0067
1476.00,0.0066
1475.00,0.0066
1474.00,0.0066
1473.00,0.0066
1472.00,0.0066
1471.00,0.0066
1470.00,0.0066
1469.00,0.0066
1468.00,0.0066
1467.00,0.0066
1466.00,0.0066
1465.00,0.0067
1464.00,0.0067
1463.00,0.0068
1462.00,0.0069
1461.00,0.0071
1460.00,0.0072
1459.00,0.0074
1458.00,0.0077
1457.00,0.0080
1456.00,0.0083
1455.00,0.0086
1454.00,0.0089
1453.00,0.0092
1452.00,0.0095
1451.00,0.0098
1450.00,0.0102
1449.00,0.0105
1448.00,0.0108
1447.00,0.0110
1446.00,0.0111
1445.00,0.0111
1444.00,0.0111
1443.00,0.0109
1442.00,0.0108
1441.00,0.0106
1440.00,0.0104
1439.00,0.0102
1438.00,0.0100
1437.00,0.0098
1436.00,0.0097
1435.00,0.0097
1434.00,0.0097
1433.00,0.0097
1432.00,0.0098
1431.00,0.0099
1430.00,0.0101
1429.00,0.0103
1428.00,0.0105
1427.00,0.0108
1426.00,0.0112
1425.00,0.0117
1424.00,0.0123
1423.00,0.0129
1422.00,0.0135
1421.00,0.0143
1420.00,0.0152
1419.00,0.0164
1418.00,0.0176
1417.00,0.0186
1416.00,0.0193
1415.00,0.0199
1414.00,0.0203
1413.00,0.0205
1412.00,0.0205
1411.00,0.0202
1410.00,0.0199
1409.00,0.0195
1408.00,0.0191
1407.00,0.0187
1406.00,0.0184
1405.00,0.0181
1404.00,0.0180
1403.00,0.0179
1402.00,0.0178
1401.00,0.0176
1400.00,0.0174
1399.00,0.0171
1398.00,0.0166
1397.00,0.0160
1396.00,0.0153
1395.00,0.0144
1394.00,0.0136
1393.00,0.0129
1392.00,0.0123
1391.00,0.0117
1390.00,0.0113
1389.00,0.0108
1388.00,0.0104
1387.00,0.0101
1386.00,0.0098
1385.00,0.0096
1384.00,0.0094
1383.00,0.0092
1382.00,0.0091
1381.00,0.0090
1380.00,0.0088
1379.00,0.0087
1378.00,0.0087
1377.00,0.0086
1376.00,0.0085
1375.00,0.0085
1374.00,0.0085
1373.00,0.0084
1372.00,0.0084
1371.00,0.0084
1370.00,0.0084
1369.00,0.0083
1368.00,0.0083
1367.00,0.0082
1366.00,0.0082
1365.00,0.0082
1364.00,0.0082
1363.00,0.0082
1362.00,0.0082
1361.00,0.0082
1360.00,0.0082
1359.00,0.0082
1358.00,0.0082
1357.00,0.0082
1356.00,0.0082
1355.00,0.0082
1354.00,0.0082
1353.00,0.0083
1352.00,0.0083
1351.00,0.0083
1350.00,0.0084
1349.00,0.0084
1348.00,0.0084
1347.00,0.0085
1346.00,0.0085
1345.00,0.0085
1344.00,0.0085
1343.00,0.0085
1342.00,0.0085
1341.00,0.0086
1340.00,0.0086
1339.00,0.0087
1338.00,0.0087
1337.00,0.0088
1336.00,0.0088
1335.00,0.0088
1334.00,0.0087
1333.00,0.0087
1332.00,0.0087
1331.00,0.0088
1330.00,0.0089
1329.00,0.0089
1328.00,0.0090
1327.00,0.0091
1326.00,0.0092
1325.00,0.0093
1324.00,0.0093
1323.00,0.0094
1322.00,0.0095
1321.00,0.0096
1320.00,0.0097
1319.00,0.0098
1318.00,0.0099
1317.00,0.0101
1316.00,0.0102
1315.00,0.0103
1314.00,0.0104
1313.00,0.0106
1312.00,0.0108
1311.00,0.0110
1310.00,0.0112
1309.00,0.0113
1308.00,0.0115
1307.00,0.0117
1306.00,0.0119
1305.00,0.0121
1304.00,0.0123
1303.00,0.0126
1302.00,0.0128
1301.00,0.0130
1300.00,0.0133
1299.00,0.0136
1298.00,0.0138
1297.00,0.0141
1296.00,0.0144
1295.00,0.0148
1294.00,0.0151
1293.00,0.0155
1292.00,0.0159
1291.00,0.0164
1290.00,0.0168
1289.00,0.0173
1288.00,0.0178
1287.00,0.0184
1286.00,0.0190
1285.00,0.0197
1284.00,0.0204
1283.00,0.0213
1282.00,0.0222
1281.00,0.0233
1280.00,0.0245
1279.00,0.0259
1278.00,0.0276
1277.00,0.0295
1276.00,0.0318
1275.00,0.0345
1274.00,0.0378
1273.00,0.0419
1272.00,0.0471
1271.00,0.0537
1270.00,0.0623
1269.00,0.0732
1268.00,0.0870
1267.00,0.1042
1266.00,0.1248
1265.00,0.1486
1264.00,0.1747
1263.00,0.2017
1262.00,0.2276
1261.00,0.2499
1260.00,0.2660
1259.00,0.2733
1258.00,0.2702
1257.00,0.2571
1256.00,0.2363
1255.00,0.2109
1254.00,0.1849
1253.00,0.1612
1252.00,0.1415
1251.00,0.1263
1250.00,0.1150
1249.00,0.1068
1248.00,0.1009
1247.00,0.0966
1246.00,0.0935
1245.00,0.0913
1244.00,0.0899
1243.00,0.0891
1242.00,0.0888
1241.00,0.0888
1240.00,0.0891
1239.00,0.0895
1238.00,0.0901
1237.00,0.0908
1236.00,0.0917
1235.00,0.0926
1234.00,0.0935
1233.00,0.0945
1232.00,0.0956
1231.00,0.0966
1230.00,0.0976
1229.00,0.0987
1228.00,0.0997
1227.00,0.1008
1226.00,0.1019
1225.00,0.1030
1224.00,0.1040
1223.00,0.1051
1222.00,0.1061
1221.00,0.1071
1220.00,0.1081
1219.00,0.1091
1218.00,0.1101
1217.00,0.1110
1216.00,0.1120
1215.00,0.1129
1214.00,0.1138
1213.00,0.1147
1212.00,0.1156
1211.00,0.1165
1210.00,0.1174
1209.00,0.1182
1208.00,0.1191
1207.00,0.1199
1206.00,0.1207
1205.00,0.1216
1204.00,0.1224
1203.00,0.1232
1202.00,0.1240
1201.00,0.1248
1200.00,0.1256
1199.00,0.1264
1198.00,0.1272
1197.00,0.1280
1196.00,0.1288
1195.00,0.1296
1194.00,0.1305
1193.00,0.1313
1192.00,0.1321
1191.00,0.1329
1190.00,0.1337
1189.00,0.1345
1188.00,0.1354
1187.00,0.1362
1186.00,0.1371
1185.00,0.1379
1184.00,0.1388
1183.00,0.1396
1182.00,0.1405
1181.00,0.1413
1180.00,0.1422
1179.00,0.1430
1178.00,0.1438
1177.00,0.1447
1176.00,0.1455
1175.00,0.1464
1174.00,0.1472
1173.00,0.1480
1172.00,0.1488
1171.00,0.1497
1170.00,0.1505
1169.00,0.1513
1168.00,0.1522
1167.00,0.1529
1166.00,0.1537
1165.00,0.1544
1164.00,0.1552
1163.00,0.1561
1162.00,0.1569
1161.00,0.1577
1160.00,0.1585
1159.00,0.1593
1158.00,0.1601
1157.00,0.1609
1156.00,0.1617
1155.00,0.1625
1154.00,0.1634
1153.00,0.1642
1152.00,0.1651
1151.00,0.1660
1150.00,0.1669
1149.00,0.1678
1148.00,0.1688
1147.00,0.1698
1146.00,0.1708
1145.00,0.1719
1144.00,0.1730
1143.00,0.1741
1142.00,0.1753
1141.00,0.1765
1140.00,0.1778
1139.00,0.1790
1138.00,0.1803
1137.00,0.1816
1136.00,0.1831
1135.00,0.1846
1134.00,0.1862
1133.00,0.1879
1132.00,0.1896
1131.00,0.1915
1130.00,0.1933
1129.00,0.1953
1128.00,0.1975
1127.00,0.1997
1126.00,0.2021
1125.00,0.2046
1124.00,0.2074
1123.00,0.2102
1122.00,0.2132
1121.00,0.2165
1120.00,0.2201
1119.00,0.2240
1118.00,0.2283
1117.00,0.2329
1116.00,0.2379
1115.00,0.2433
1114.00,0.2491
1113.00,0.2553
1112.00,0.2621
1111.00,0.2693
1110.00,0.2769
1109.00,0.2850
1108.00,0.2937
1107.00,0.3027
1106.00,0.3122
1105.00,0.3221
1104.00,0.3324
1103.00,0.3431
1102.00,0.3540
1101.00,0.3652
1100.00,0.3767
1099.00,0.3884
1098.00,0.4000
1097.00,0.4118
1096.00,0.4237
1095.00,0.4354
1094.00,0.4469
1093.00,0.4582
1092.00,0.4693
1091.00,0.4801
1090.00,0.4905
1089.00,0.5007
1088.00,0.5105
1087.00,0.5198
1086.00,0.5285
1085.00,0.5369
1084.00,0.5450
1083.00,0.5525
1082.00,0.5594
1081.00,0.5659
1080.00,0.5722
1079.00,0.5781
1078.00,0.5833
1077.00,0.5885
1076.00,0.5934
1075.00,0.5978
1074.00,0.6015
1073.00,0.6051
1072.00,0.6086
1071.00,0.6117
1070.00,0.6143
1069.00,0.6169
1068.00,0.6195
1067.00,0.6215
1066.00,0.6231
1065.00,0.6246
1064.00,0.6262
1063.00,0.6275
1062.00,0.6285
1061.00,0.6295
1060.00,0.6304
1059.00,0.6310
1058.00,0.6312
1057.00,0.6314
1056.00,0.6318
1055.00,0.6319
1054.00,0.6317
1053.00,0.6316
1052.00,0.6317
1051.00,0.6315
1050.00,0.6313
1049.00,0.6314
1048.00,0.6317
1047.00,0.6318
1046.00,0.6317
1045.00,0.6317
1044.00,0.6321
1043.00,0.6325
1042.00,0.6329
1041.00,0.6336
1040.00,0.6348
1039.00,0.6360
1038.00,0.6373
1037.00,0.6391
1036.00,0.6414
1035.00,0.6440
1034.00,0.6469
1033.00,0.6504
1032.00,0.6545
1031.00,0.6590
1030.00,0.6639
1029.00,0.6696
1028.00,0.6761
1027.00,0.6833
1026.00,0.6911
1025.00,0.7000
1024.00,0.7101
1023.00,0.7210
1022.00,0.7328
1021.00,0.7460
1020.00,0.7608
1019.00,0.7766
1018.00,0.7931
1017.00,0.8107
1016.00,0.8292
1015.00,0.8477
1014.00,0.8656
1013.00,0.8827
1012.00,0.8985
1011.00,0.9112
1010.00,0.9199
1009.00,0.9246
1008.00,0.9247
1007.00,0.9195
1006.00,0.9091
1005.00,0.8943
1004.00,0.8756
1003.00,0.8531
1002.00,0.8273
1001.00,0.7993
1000.00,0.7698
999.00,0.7390
998.00,0.7076
997.00,0.6764
996.00,0.6456
995.00,0.6153
994.00,0.5857
993.00,0.5572
992.00,0.5299
991.00,0.5039
990.00,0.4792
989.00,0.4559
988.00,0.4341
987.00,0.4135
986.00,0.3941
985.00,0.3759
984.00,0.3590
983.00,0.3432
982.00,0.3285
981.00,0.3149
980.00,0.3023
979.00,0.2905
978.00,0.2797
977.00,0.2697
976.00,0.2605
975.00,0.2518
974.00,0.2438
973.00,0.2364
972.00,0.2296
971.00,0.2231
970.00,0.2172
969.00,0.2116
968.00,0.2063
967.00,0.2014
966.00,0.1967
965.00,0.1922
964.00,0.1879
963.00,0.1838
962.00,0.1799
961.00,0.1761
960.00,0.1724
959.00,0.1689
958.00,0.1655
957.00,0.1621
956.00,0.1588
955.00,0.1556
954.00,0.1526
953.00,0.1496
952.00,0.1467
951.00,0.1439
950.00,0.1411
949.00,0.1384
948.00,0.1358
947.00,0.1331
946.00,0.1306
945.00,0.1281
944.00,0.1256
943.00,0.1232
942.00,0.1209
941.00,0.1186
940.00,0.1164
939.00,0.1142
938.00,0.1121
937.00,0.1100
936.00,0.1080
935.00,0.1060
934.00,0.1042
933.00,0.1023
932.00,0.1005
931.00,0.0987
930.00,0.0970
929.00,0.0953
928.00,0.0937
927.00,0.0922
926.00,0.0907
925.00,0.0893
924.00,0.0879
923.00,0.0867
922.00,0.0855
921.00,0.0844
920.00,0.0833
919.00,0.0823
918.00,0.0814
917.00,0.0806
916.00,0.0798
915.00,0.0790
914.00,0.0784
913.00,0.0778
912.00,0.0773
911.00,0.0769
910.00,0.0765
909.00,0.0762
908.00,0.0758
907.00,0.0755
906.00,0.0753
905.00,0.0752
904.00,0.0750
903.00,0.0750
902.00,0.0750
901.00,0.0751
900.00,0.0752
899.00,0.0754
898.00,0.0757
897.00,0.0762
896.00,0.0767
895.00,0.0773
894.00,0.0781
893.00,0.0789
892.00,0.0799
891.00,0.0810
890.00,0.0823
889.00,0.0839
888.00,0.0857
887.00,0.0877
886.00,0.0901
885.00,0.0927
884.00,0.0956
883.00,0.0988
882.00,0.1022
881.00,0.1058
880.00,0.1095
879.00,0.1132
878.00,0.1167
877.00,0.1201
876.00,0.1232
875.00,0.1260
874.00,0.1286
873.00,0.1309
872.00,0.1330
871.00,0.1349
870.00,0.1366
869.00,0.1382
868.00,0.1397
867.00,0.1410
866.00,0.1420
865.00,0.1426
864.00,0.1428
863.00,0.1423
862.00,0.1413
861.00,0.1396
860.00,0.1373
859.00,0.1344
858.00,0.1312
857.00,0.1278
856.00,0.1243
855.00,0.1209
854.00,0.1179
853.00,0.1152
852.00,0.1128
851.00,0.1108
850.00,0.1093
849.00,0.1080
848.00,0.1071
847.00,0.1065
846.00,0.1062
845.00,0.1062
844.00,0.1065
843.00,0.1070
842.00,0.1078
841.00,0.1089
840.00,0.1103
839.00,0.1121
838.00,0.1143
837.00,0.1167
836.00,0.1196
835.00,0.1228
834.00,0.1266
833.00,0.1309
832.00,0.1360
831.00,0.1419
830.00,0.1489
829.00,0.1569
828.00,0.1663
827.00,0.1770
826.00,0.1893
825.00,0.2030
824.00,0.2178
823.00,0.2333
822.00,0.2489
821.00,0.2642
820.00,0.2788
819.00,0.2923
818.00,0.3048
817.00,0.3163
816.00,0.3271
815.00,0.3377
814.00,0.3484
813.00,0.3597
812.00,0.3719
811.00,0.3854
810.00,0.4003
809.00,0.4169
808.00,0.4352
807.00,0.4552
806.00,0.4771
805.00,0.5009
804.00,0.5266
803.00,0.5540
802.00,0.5829
801.00,0.6131
800.00,0.6441
799.00,0.6757
798.00,0.7076
797.00,0.7396
796.00,0.7710
795.00,0.8015
794.00,0.8309
793.00,0.8591
792.00,0.8855
791.00,0.9090
790.00,0.9288
789.00,0.9436
788.00,0.9522
787.00,0.9538
786.00,0.9483
785.00,0.9356
784.00,0.9161
783.00,0.8906
782.00,0.8605
781.00,0.8269
780.00,0.7907
779.00,0.7527
778.00,0.7139
777.00,0.6751
776.00,0.6368
775.00,0.5997
774.00,0.5642
773.00,0.5307
772.00,0.4993
771.00,0.4701
770.00,0.4433
769.00,0.4188
768.00,0.3963
767.00,0.3759
766.00,0.3574
765.00,0.3405
764.00,0.3251
763.00,0.3110
762.00,0.2982
761.00,0.2864
760.00,0.2756
759.00,0.2656
758.00,0.2566
757.00,0.2482
756.00,0.2404
755.00,0.2331
754.00,0.2263
753.00,0.2200
752.00,0.2140
751.00,0.2085
750.00,0.2034
749.00,0.1986
748.00,0.1942
747.00,0.1900
746.00,0.1862
745.00,0.1828
744.00,0.1794
743.00,0.1762
742.00,0.1730
741.00,0.1698
740.00,0.1666
739.00,0.1633
738.00,0.1600
737.00,0.1568
736.00,0.1536
735.00,0.1506
734.00,0.1477
733.00,0.1450
732.00,0.1425
731.00,0.1401
730.00,0.1378
729.00,0.1357
728.00,0.1337
727.00,0.1319
726.00,0.1303
725.00,0.1289
724.00,0.1276
723.00,0.1264
722.00,0.1253
721.00,0.1245
720.00,0.1238
719.00,0.1236
718.00,0.1238
717.00,0.1245
716.00,0.1257
715.00,0.1275
714.00,0.1302
713.00,0.1338
712.00,0.1382
711.00,0.1434
710.00,0.1490
709.00,0.1548
708.00,0.1602
707.00,0.1651
706.00,0.1693
705.00,0.1726
704.00,0.1748
703.00,0.1763
702.00,0.1770
701.00,0.1771
700.00,0.1768
699.00,0.1761
698.00,0.1752
697.00,0.1742
696.00,0.1731
695.00,0.1721
694.00,0.1714
693.00,0.1708
692.00,0.1704
691.00,0.1703
690.00,0.1707
689.00,0.1714
688.00,0.1720
687.00,0.1725
686.00,0.1727
685.00,0.1722
684.00,0.1710
683.00,0.1693
682.00,0.1673
681.00,0.1652
680.00,0.1630
679.00,0.1608
678.00,0.1588
677.00,0.1570
676.00,0.1553
675.00,0.1537
674.00,0.1525
673.00,0.1516
672.00,0.1507
671.00,0.1500
670.00,0.1496
669.00,0.1498
668.00,0.1506
667.00,0.1519
666.00,0.1531
665.00,0.1544
664.00,0.1562
663.00,0.1586
662.00,0.1612
661.00,0.1626
660.00,0.1611
659.00,0.1561
658.00,0.1478
657.00,0.1378
656.00,0.1279
655.00,0.1195
654.00,0.1130
653.00,0.1082
652.00,0.1044
651.00,0.1016
650.00,0.0996
649.00,0.0980
648.00,0.0966
647.00,0.0955
646.00,0.0947
645.00,0.0941
644.00,0.0935
643.00,0.0930
642.00,0.0927
641.00,0.0925
640.00,0.0922
639.00,0.0921
638.00,0.0922
637.00,0.0923
636.00,0.0923
635.00,0.0923
634.00,0.0925
633.00,0.0927
632.00,0.0928
631.00,0.0929
630.00,0.0931
629.00,0.0932
628.00,0.0931
627.00,0.0931
626.00,0.0933
625.00,0.0935
624.00,0.0936
623.00,0.0937
622.00,0.0938
621.00,0.0939
620.00,0.0939
619.00,0.0939
618.00,0.0941
617.00,0.0944
616.00,0.0946
615.00,0.0948
614.00,0.0950
613.00,0.0953
612.00,0.0954
611.00,0.0956
610.00,0.0959
609.00,0.0962
608.00,0.0962
607.00,0.0963
606.00,0.0966
605.00,0.0970
604.00,0.0973
603.00,0.0977
602.00,0.0982
601.00,0.0988
600.00,0.0993
599.00,0.0997
598.00,0.1003
597.00,0.1008
596.00,0.1012
595.00,0.1017
594.00,0.1024
593.00,0.1030
592.00,0.1036
591.00,0.1042
590.00,0.1050
589.00,0.1057
588.00,0.1063
587.00,0.1069
586.00,0.1076
585.00,0.1084
584.00,0.1091
583.00,0.1097
582.00,0.1105
581.00,0.1113
580.00,0.1119
579.00,0.1126
578.00,0.1135
577.00,0.1143
576.00,0.1150
575.00,0.1157
574.00,0.1165
573.00,0.1172
572.00,0.1177
571.00,0.1182
570.00,0.1190
569.00,0.1199
568.00,0.1205
567.00,0.1213
566.00,0.1222
565.00,0.1232
564.00,0.1238
563.00,0.1244
562.00,0.1249
561.00,0.1254
560.00,0.1258
559.00,0.1263
558.00,0.1271
557.00,0.1278
556.00,0.1283
555.00,0.1286
554.00,0.1292
553.00,0.1297
552.00,0.1300
551.00,0.1304
550.00,0.1308
549.00,0.1312
548.00,0.1313
547.00,0.1316
546.00,0.1321
545.00,0.1326
544.00,0.1327
543.00,0.1328
542.00,0.1330
541.00,0.1332
540.00,0.1333
539.00,0.1334
538.00,0.1336
537.00,0.1337
536.00,0.1334
535.00,0.1332
534.00,0.1333
533.00,0.1334
532.00,0.1334
531.00,0.1335
530.00,0.1338
529.00,0.1340
528.00,0.1340
527.00,0.1340
526.00,0.1343
525.00,0.1347
524.00,0.1349
523.00,0.1351
522.00,0.1355
521.00,0.1360
520.00,0.1363
519.00,0.1369
518.00,0.1380
517.00,0.1392
516.00,0.1403
515.00,0.1414
514.00,0.1429
513.00,0.1444
512.00,0.1459
511.00,0.1476
510.00,0.1497
509.00,0.1521
508.00,0.1545
507.00,0.1570
506.00,0.1598
505.00,0.1627
504.00,0.1653
503.00,0.1683
502.00,0.1721
501.00,0.1764
500.00,0.1806
499.00,0.1850
498.00,0.1900
497.00,0.1954
496.00,0.2012
495.00,0.2074
494.00,0.2143
493.00,0.2220
492.00,0.2300
491.00,0.2385
490.00,0.2475
489.00,0.2568
488.00,0.2662
487.00,0.2760
486.00,0.2866
485.00,0.2978
484.00,0.3094
483.00,0.3212
482.00,0.3332
481.00,0.3451
480.00,0.3570
479.00,0.3691
478.00,0.3817
477.00,0.3946
476.00,0.4069
475.00,0.4185
474.00,0.4299
473.00,0.4417
472.00,0.4537
471.00,0.4651
470.00,0.4750
469.00,0.4839
468.00,0.4925
467.00,0.5005
466.00,0.5078
465.00,0.5144
464.00,0.5206
463.00,0.5264
462.00,0.5317
461.00,0.5363
460.00,0.5396
459.00,0.5413
458.00,0.5420
457.00,0.5421
456.00,0.5416
455.00,0.5401
454.00,0.5377
453.00,0.5348
452.00,0.5319
451.00,0.5287
450.00,0.5253
449.00,0.5213
448.00,0.5163
447.00,0.5101
446.00,0.5034
445.00,0.4969
444.00,0.4907
443.00,0.4838
442.00,0.4760
441.00,0.4679
440.00,0.4595
439.00,0.4510
438.00,0.4423
437.00,0.4337
436.00,0.4247
435.00,0.4157
434.00,0.4069
433.00,0.3984
432.00,0.3901
431.00,0.3818
430.00,0.3737
429.00,0.3657
428.00,0.3574
427.00,0.3491
426.00,0.3410
425.00,0.3331
424.00,0.3251
423.00,0.3179
422.00,0.3122
421.00,0.3077
420.00,0.3034
419.00,0.3001
418.00,0.2989
417.00,0.2996
416.00,0.3018
415.00,0.3065
414.00,0.3137
413.00,0.3220
412.00,0.3302
411.00,0.3391
410.00,0.3495
409.00,0.3612
408.00,0.3736
407.00,0.3867
406.00,0.4001
405.00,0.4122
404.00,0.4222
403.00,0.4309
402.00,0.4389
401.00,0.4464
400.00,0.4543
