Created as New Dataset,Sample 029 By YargerLab Date Saturday, August 09 2025
cm-1,A
4000.00,0.0012
3999.00,0.0012
3998.00,0.0012
3997.00,0.0012
3996.00,0.0013
3995.00,0.0013
3994.00,0.0013
3993.00,0.0012
3992.00,0.0012
3991.00,0.0012
3990.00,0.0012
3989.00,0.0012
3988.00,0.0012
3987.00,0.0012
3986.00,0.0012
3985.00,0.0012
3984.00,0.0012
3983.00,0.0013
3982.00,0.0013
3981.00,0.0013
3980.00,0.0013
3979.00,0.0013
3978.00,0.0013
3977.00,0.0013
3976.00,0.0013
3975.00,0.0013
3974.00,0.0013
3973.00,0.0013
3972.00,0.0013
3971.00,0.0012
3970.00,0.0012
3969.00,0.0012
3968.00,0.0012
3967.00,0.0012
3966.00,0.0012
3965.00,0.0012
3964.00,0.0012
3963.00,0.0012
3962.00,0.0011
3961.00,0.0011
3960.00,0.0011
3959.00,0.0011
3958.00,0.0011
3957.00,0.0011
3956.00,0.0011
3955.00,0.0011
3954.00,0.0011
3953.00,0.0011
3952.00,0.0011
3951.00,0.0010
3950.00,0.0010
3949.00,0.0010
3948.00,0.0010
3947.00,0.0009
3946.00,0.0009
3945.00,0.0009
3944.00,0.0010
3943.00,0.0010
3942.00,0.0010
3941.00,0.0009
3940.00,0.0009
3939.00,0.0009
3938.00,0.0009
3937.00,0.0009
3936.00,0.0009
3935.00,0.0009
3934.00,0.0009
3933.00,0.0009
3932.00,0.0009
3931.00,0.0009
3930.00,0.0009
3929.00,0.0008
3928.00,0.0008
3927.00,0.0008
3926.00,0.0008
3925.00,0.0008
3924.00,0.0008
3923.00,0.0008
3922.00,0.0008
3921.00,0.0007
3920.00,0.0007
3919.00,0.0007
3918.00,0.0007
3917.00,0.0007
3916.00,0.0007
3915.00,0.0007
3914.00,0.0007
3913.00,0.0007
3912.00,0.0007
3911.00,0.0007
3910.00,0.0007
3909.00,0.0007
3908.00,0.0007
3907.00,0.0007
3906.00,0.0007
3905.00,0.0007
3904.00,0.0007
3903.00,0.0007
3902.00,0.0006
3901.00,0.0006
3900.00,0.0006
3899.00,0.0006
3898.00,0.0006
3897.00,0.0006
3896.00,0.0007
3895.00,0.0007
3894.00,0.0006
3893.00,0.0006
3892.00,0.0006
3891.00,0.0007
3890.00,0.0007
3889.00,0.0007
3888.00,0.0007
3887.00,0.0006
3886.00,0.0007
3885.00,0.0007
3884.00,0.0007
3883.00,0.0006
3882.00,0.0006
3881.00,0.0006
3880.00,0.0006
3879.00,0.0007
3878.00,0.0007
3877.00,0.0007
3876.00,0.0007
3875.00,0.0007
3874.00,0.0008
3873.00,0.0008
3872.00,0.0008
3871.00,0.0008
3870.00,0.0008
3869.00,0.0008
3868.00,0.0008
3867.00,0.0008
3866.00,0.0008
3865.00,0.0008
3864.00,0.0008
3863.00,0.0009
3862.00,0.0009
3861.00,0.0009
3860.00,0.0009
3859.00,0.0009
3858.00,0.0009
3857.00,0.0009
3856.00,0.0008
3855.00,0.0008
3854.00,0.0008
3853.00,0.0008
3852.00,0.0007
3851.00,0.0007
3850.00,0.0007
3849.00,0.0007
3848.00,0.0007
3847.00,0.0007
3846.00,0.0007
3845.00,0.0008
3844.00,0.0008
3843.00,0.0008
3842.00,0.0007
3841.00,0.0007
3840.00,0.0007
3839.00,0.0006
3838.00,0.0006
3837.00,0.0006
3836.00,0.0006
3835.00,0.0006
3834.00,0.0005
3833.00,0.0005
3832.00,0.0006
3831.00,0.0006
3830.00,0.0006
3829.00,0.0005
3828.00,0.0005
3827.00,0.0005
3826.00,0.0006
3825.00,0.0006
3824.00,0.0006
3823.00,0.0006
3822.00,0.0006
3821.00,0.0006
3820.00,0.0006
3819.00,0.0006
3818.00,0.0006
3817.00,0.0005
3816.00,0.0005
3815.00,0.0005
3814.00,0.0005
3813.00,0.0004
3812.00,0.0004
3811.00,0.0004
3810.00,0.0005
3809.00,0.0005
3808.00,0.0005
3807.00,0.0005
3806.00,0.0005
3805.00,0.0005
3804.00,0.0005
3803.00,0.0005
3802.00,0.0005
3801.00,0.0005
3800.00,0.0006
3799.00,0.0006
3798.00,0.0006
3797.00,0.0005
3796.00,0.0005
3795.00,0.0005
3794.00,0.0005
3793.00,0.0005
3792.00,0.0005
3791.00,0.0005
3790.00,0.0006
3789.00,0.0006
3788.00,0.0006
3787.00,0.0006
3786.00,0.0006
3785.00,0.0006
3784.00,0.0006
3783.00,0.0006
3782.00,0.0006
3781.00,0.0006
3780.00,0.0006
3779.00,0.0006
3778.00,0.0006
3777.00,0.0006
3776.00,0.0006
3775.00,0.0006
3774.00,0.0006
3773.00,0.0006
3772.00,0.0006
3771.00,0.0006
3770.00,0.0006
3769.00,0.0006
3768.00,0.0006
3767.00,0.0006
3766.00,0.0006
3765.00,0.0006
3764.00,0.0007
3763.00,0.0007
3762.00,0.0007
3761.00,0.0007
3760.00,0.0007
3759.00,0.0007
3758.00,0.0007
3757.00,0.0007
3756.00,0.0006
3755.00,0.0006
3754.00,0.0006
3753.00,0.0006
3752.00,0.0006
3751.00,0.0006
3750.00,0.0006
3749.00,0.0006
3748.00,0.0007
3747.00,0.0007
3746.00,0.0007
3745.00,0.0007
3744.00,0.0007
3743.00,0.0008
3742.00,0.0008
3741.00,0.0008
3740.00,0.0008
3739.00,0.0008
3738.00,0.0008
3737.00,0.0008
3736.00,0.0008
3735.00,0.0008
3734.00,0.0008
3733.00,0.0008
3732.00,0.0008
3731.00,0.0008
3730.00,0.0008
3729.00,0.0008
3728.00,0.0008
3727.00,0.0008
3726.00,0.0008
3725.00,0.0008
3724.00,0.0008
3723.00,0.0008
3722.00,0.0008
3721.00,0.0008
3720.00,0.0008
3719.00,0.0008
3718.00,0.0009
3717.00,0.0009
3716.00,0.0010
3715.00,0.0010
3714.00,0.0010
3713.00,0.0010
3712.00,0.0010
3711.00,0.0010
3710.00,0.0010
3709.00,0.0010
3708.00,0.0010
3707.00,0.0010
3706.00,0.0010
3705.00,0.0010
3704.00,0.0010
3703.00,0.0011
3702.00,0.0011
3701.00,0.0011
3700.00,0.0012
3699.00,0.0012
3698.00,0.0012
3697.00,0.0013
3696.00,0.0013
3695.00,0.0013
3694.00,0.0013
3693.00,0.0014
3692.00,0.0014
3691.00,0.0014
3690.00,0.0014
3689.00,0.0013
3688.00,0.0013
3687.00,0.0013
3686.00,0.0014
3685.00,0.0014
3684.00,0.0014
3683.00,0.0015
3682.00,0.0016
3681.00,0.0016
3680.00,0.0016
3679.00,0.0016
3678.00,0.0017
3677.00,0.0017
3676.00,0.0017
3675.00,0.0018
3674.00,0.0018
3673.00,0.0019
3672.00,0.0019
3671.00,0.0019
3670.00,0.0019
3669.00,0.0019
3668.00,0.0020
3667.00,0.0020
3666.00,0.0020
3665.00,0.0021
3664.00,0.0022
3663.00,0.0022
3662.00,0.0023
3661.00,0.0023
3660.00,0.0024
3659.00,0.0025
3658.00,0.0025
3657.00,0.0026
3656.00,0.0027
3655.00,0.0027
3654.00,0.0028
3653.00,0.0028
3652.00,0.0028
3651.00,0.0029
3650.00,0.0030
3649.00,0.0030
3648.00,0.0030
3647.00,0.0031
3646.00,0.0031
3645.00,0.0032
3644.00,0.0032
3643.00,0.0033
3642.00,0.0034
3641.00,0.0034
3640.00,0.0035
3639.00,0.0036
3638.00,0.0037
3637.00,0.0038
3636.00,0.0039
3635.00,0.0040
3634.00,0.0040
3633.00,0.0041
3632.00,0.0042
3631.00,0.0043
3630.00,0.0044
3629.00,0.0045
3628.00,0.0047
3627.00,0.0048
3626.00,0.0049
3625.00,0.0050
3624.00,0.0051
3623.00,0.0052
3622.00,0.0053
3621.00,0.0054
3620.00,0.0056
3619.00,0.0057
3618.00,0.0059
3617.00,0.0061
3616.00,0.0062
3615.00,0.0063
3614.00,0.0064
3613.00,0.0065
3612.00,0.0067
3611.00,0.0068
3610.00,0.0070
3609.00,0.0071
3608.00,0.0073
3607.00,0.0074
3606.00,0.0076
3605.00,0.0077
3604.00,0.0079
3603.00,0.0080
3602.00,0.0082
3601.00,0.0084
3600.00,0.0085
3599.00,0.0087
3598.00,0.0088
3597.00,0.0090
3596.00,0.0092
3595.00,0.0094
3594.00,0.0096
3593.00,0.0098
3592.00,0.0099
3591.00,0.0101
3590.00,0.0103
3589.00,0.0105
3588.00,0.0107
3587.00,0.0109
3586.00,0.0112
3585.00,0.0114
3584.00,0.0116
3583.00,0.0118
3582.00,0.0121
3581.00,0.0123
3580.00,0.0126
3579.00,0.0128
3578.00,0.0130
3577.00,0.0132
3576.00,0.0135
3575.00,0.0137
3574.00,0.0140
3573.00,0.0142
3572.00,0.0145
3571.00,0.0147
3570.00,0.0150
3569.00,0.0152
3568.00,0.0155
3567.00,0.0159
3566.00,0.0162
3565.00,0.0165
3564.00,0.0168
3563.00,0.0170
3562.00,0.0173
3561.00,0.0176
3560.00,0.0180
3559.00,0.0183
3558.00,0.0186
3557.00,0.0189
3556.00,0.0193
3555.00,0.0196
3554.00,0.0199
3553.00,0.0203
3552.00,0.0206
3551.00,0.0210
3550.00,0.0213
3549.00,0.0217
3548.00,0.0220
3547.00,0.0224
3546.00,0.0228
3545.00,0.0232
3544.00,0.0236
3543.00,0.0239
3542.00,0.0243
3541.00,0.0247
3540.00,0.0250
3539.00,0.0254
3538.00,0.0258
3537.00,0.0262
3536.00,0.0267
3535.00,0.0271
3534.00,0.0275
3533.00,0.0279
3532.00,0.0283
3531.00,0.0287
3530.00,0.0291
3529.00,0.0295
3528.00,0.0300
3527.00,0.0304
3526.00,0.0308
3525.00,0.0313
3524.00,0.0318
3523.00,0.0322
3522.00,0.0327
3521.00,0.0331
3520.00,0.0335
3519.00,0.0340
3518.00,0.0344
3517.00,0.0348
3516.00,0.0353
3515.00,0.0357
3514.00,0.0362
3513.00,0.0366
3512.00,0.0371
3511.00,0.0376
3510.00,0.0380
3509.00,0.0385
3508.00,0.0390
3507.00,0.0395
3506.00,0.0399
3505.00,0.0404
3504.00,0.0409
3503.00,0.0414
3502.00,0.0419
3501.00,0.0424
3500.00,0.0429
3499.00,0.0434
3498.00,0.0439
3497.00,0.0444
3496.00,0.0449
3495.00,0.0454
3494.00,0.0459
3493.00,0.0464
3492.00,0.0469
3491.00,0.0474
3490.00,0.0479
3489.00,0.0485
3488.00,0.0490
3487.00,0.0496
3486.00,0.0501
3485.00,0.0506
3484.00,0.0512
3483.00,0.0517
3482.00,0.0523
3481.00,0.0529
3480.00,0.0535
3479.00,0.0540
3478.00,0.0545
3477.00,0.0551
3476.00,0.0556
3475.00,0.0562
3474.00,0.0568
3473.00,0.0573
3472.00,0.0579
3471.00,0.0585
3470.00,0.0591
3469.00,0.0597
3468.00,0.0603
3467.00,0.0608
3466.00,0.0614
3465.00,0.0620
3464.00,0.0625
3463.00,0.0631
3462.00,0.0638
3461.00,0.0643
3460.00,0.0649
3459.00,0.0654
3458.00,0.0660
3457.00,0.0666
3456.00,0.0671
3455.00,0.0678
3454.00,0.0684
3453.00,0.0690
3452.00,0.0695
3451.00,0.0701
3450.00,0.0707
3449.00,0.0713
3448.00,0.0719
3447.00,0.0725
3446.00,0.0732
3445.00,0.0738
3444.00,0.0744
3443.00,0.0750
3442.00,0.0757
3441.00,0.0763
3440.00,0.0769
3439.00,0.0776
3438.00,0.0782
3437.00,0.0788
3436.00,0.0795
3435.00,0.0801
3434.00,0.0807
3433.00,0.0813
3432.00,0.0819
3431.00,0.0825
3430.00,0.0831
3429.00,0.0837
3428.00,0.0843
3427.00,0.0848
3426.00,0.0854
3425.00,0.0860
3424.00,0.0866
3423.00,0.0873
3422.00,0.0880
3421.00,0.0886
3420.00,0.0893
3419.00,0.0899
3418.00,0.0906
3417.00,0.0912
3416.00,0.0919
3415.00,0.0926
3414.00,0.0933
3413.00,0.0940
3412.00,0.0947
3411.00,0.0953
3410.00,0.0960
3409.00,0.0966
3408.00,0.0972
3407.00,0.0978
3406.00,0.0985
3405.00,0.0992
3404.00,0.0999
3403.00,0.1006
3402.00,0.1014
3401.00,0.1020
3400.00,0.1026
3399.00,0.1032
3398.00,0.1037
3397.00,0.1043
3396.00,0.1050
3395.00,0.1057
3394.00,0.1064
3393.00,0.1071
3392.00,0.1078
3391.00,0.1084
3390.00,0.1089
3389.00,0.1094
3388.00,0.1100
3387.00,0.1105
3386.00,0.1111
3385.00,0.1118
3384.00,0.1124
3383.00,0.1130
3382.00,0.1136
3381.00,0.1142
3380.00,0.1148
3379.00,0.1154
3378.00,0.1160
3377.00,0.1165
3376.00,0.1170
3375.00,0.1176
3374.00,0.1181
3373.00,0.1187
3372.00,0.1194
3371.00,0.1200
3370.00,0.1206
3369.00,0.1211
3368.00,0.1216
3367.00,0.1220
3366.00,0.1224
3365.00,0.1228
3364.00,0.1232
3363.00,0.1236
3362.00,0.1241
3361.00,0.1245
3360.00,0.1249
3359.00,0.1253
3358.00,0.1256
3357.00,0.1260
3356.00,0.1263
3355.00,0.1267
3354.00,0.1272
3353.00,0.1276
3352.00,0.1280
3351.00,0.1284
3350.00,0.1287
3349.00,0.1289
3348.00,0.1291
3347.00,0.1293
3346.00,0.1297
3345.00,0.1300
3344.00,0.1303
3343.00,0.1306
3342.00,0.1308
3341.00,0.1311
3340.00,0.1313
3339.00,0.1316
3338.00,0.1317
3337.00,0.1318
3336.00,0.1319
3335.00,0.1320
3334.00,0.1321
3333.00,0.1322
3332.00,0.1324
3331.00,0.1325
3330.00,0.1326
3329.00,0.1328
3328.00,0.1330
3327.00,0.1331
3326.00,0.1333
3325.00,0.1333
3324.00,0.1333
3323.00,0.1333
3322.00,0.1332
3321.00,0.1332
3320.00,0.1332
3319.00,0.1332
3318.00,0.1332
3317.00,0.1332
3316.00,0.1332
3315.00,0.1332
3314.00,0.1332
3313.00,0.1332
3312.00,0.1332
3311.00,0.1332
3310.00,0.1332
3309.00,0.1333
3308.00,0.1333
3307.00,0.1333
3306.00,0.1331
3305.00,0.1329
3304.00,0.1327
3303.00,0.1324
3302.00,0.1321
3301.00,0.1319
3300.00,0.1318
3299.00,0.1316
3298.00,0.1315
3297.00,0.1314
3296.00,0.1313
3295.00,0.1312
3294.00,0.1310
3293.00,0.1308
3292.00,0.1305
3291.00,0.1301
3290.00,0.1297
3289.00,0.1293
3288.00,0.1290
3287.00,0.1287
3286.00,0.1284
3285.00,0.1281
3284.00,0.1278
3283.00,0.1274
3282.00,0.1271
3281.00,0.1267
3280.00,0.1264
3279.00,0.1261
3278.00,0.1259
3277.00,0.1256
3276.00,0.1253
3275.00,0.1251
3274.00,0.1247
3273.00,0.1244
3272.00,0.1240
3271.00,0.1236
3270.00,0.1231
3269.00,0.1225
3268.00,0.1219
3267.00,0.1214
3266.00,0.1209
3265.00,0.1204
3264.00,0.1199
3263.00,0.1195
3262.00,0.1190
3261.00,0.1185
3260.00,0.1180
3259.00,0.1175
3258.00,0.1171
3257.00,0.1166
3256.00,0.1161
3255.00,0.1155
3254.00,0.1149
3253.00,0.1143
3252.00,0.1138
3251.00,0.1133
3250.00,0.1128
3249.00,0.1122
3248.00,0.1117
3247.00,0.1111
3246.00,0.1105
3245.00,0.1099
3244.00,0.1092
3243.00,0.1085
3242.00,0.1079
3241.00,0.1073
3240.00,0.1066
3239.00,0.1060
3238.00,0.1054
3237.00,0.1049
3236.00,0.1043
3235.00,0.1038
3234.00,0.1032
3233.00,0.1025
3232.00,0.1018
3231.00,0.1011
3230.00,0.1004
3229.00,0.0996
3228.00,0.0989
3227.00,0.0982
3226.00,0.0975
3225.00,0.0968
3224.00,0.0962
3223.00,0.0955
3222.00,0.0949
3221.00,0.0942
3220.00,0.0936
3219.00,0.0929
3218.00,0.0922
3217.00,0.0915
3216.00,0.0908
3215.00,0.0901
3214.00,0.0894
3213.00,0.0888
3212.00,0.0881
3211.00,0.0874
3210.00,0.0867
3209.00,0.0861
3208.00,0.0854
3207.00,0.0847
3206.00,0.0841
3205.00,0.0834
3204.00,0.0827
3203.00,0.0820
3202.00,0.0813
3201.00,0.0806
3200.00,0.0800
3199.00,0.0793
3198.00,0.0787
3197.00,0.0780
3196.00,0.0773
3195.00,0.0767
3194.00,0.0760
3193.00,0.0754
3192.00,0.0748
3191.00,0.0741
3190.00,0.0735
3189.00,0.0729
3188.00,0.0722
3187.00,0.0716
3186.00,0.0709
3185.00,0.0703
3184.00,0.0697
3183.00,0.0691
3182.00,0.0685
3181.00,0.0679
3180.00,0.0673
3179.00,0.0667
3178.00,0.0661
3177.00,0.0655
3176.00,0.0649
3175.00,0.0643
3174.00,0.0638
3173.00,0.0632
3172.00,0.0626
3171.00,0.0620
3170.00,0.0615
3169.00,0.0609
3168.00,0.0604
3167.00,0.0598
3166.00,0.0593
3165.00,0.0588
3164.00,0.0583
3163.00,0.0577
3162.00,0.0572
3161.00,0.0567
3160.00,0.0562
3159.00,0.0557
3158.00,0.0552
3157.00,0.0547
3156.00,0.0543
3155.00,0.0538
3154.00,0.0534
3153.00,0.0529
3152.00,0.0524
3151.00,0.0519
3150.00,0.0514
3149.00,0.0509
3148.00,0.0505
3147.00,0.0500
3146.00,0.0496
3145.00,0.0491
3144.00,0.0487
3143.00,0.0483
3142.00,0.0479
3141.00,0.0475
3140.00,0.0471
3139.00,0.0467
3138.00,0.0463
3137.00,0.0458
3136.00,0.0454
3135.00,0.0450
3134.00,0.0446
3133.00,0.0442
3132.00,0.0438
3131.00,0.0434
3130.00,0.0431
3129.00,0.0427
3128.00,0.0423
3127.00,0.0420
3126.00,0.0416
3125.00,0.0413
3124.00,0.0410
3123.00,0.0407
3122.00,0.0404
3121.00,0.0401
3120.00,0.0398
3119.00,0.0395
3118.00,0.0392
3117.00,0.0389
3116.00,0.0385
3115.00,0.0382
3114.00,0.0379
3113.00,0.0376
3112.00,0.0373
3111.00,0.0370
3110.00,0.0367
3109.00,0.0365
3108.00,0.0362
3107.00,0.0359
3106.00,0.0356
3105.00,0.0354
3104.00,0.0351
3103.00,0.0349
3102.00,0.0347
3101.00,0.0345
3100.00,0.0342
3099.00,0.0340
3098.00,0.0338
3097.00,0.0335
3096.00,0.0333
3095.00,0.0331
3094.00,0.0329
3093.00,0.0327
3092.00,0.0325
3091.00,0.0323
3090.00,0.0321
3089.00,0.0319
3088.00,0.0318
3087.00,0.0316
3086.00,0.0314
3085.00,0.0313
3084.00,0.0311
3083.00,0.0310
3082.00,0.0309
3081.00,0.0307
3080.00,0.0306
3079.00,0.0305
3078.00,0.0303
3077.00,0.0302
3076.00,0.0301
3075.00,0.0300
3074.00,0.0299
3073.00,0.0297
3072.00,0.0296
3071.00,0.0295
3070.00,0.0294
3069.00,0.0293
3068.00,0.0293
3067.00,0.0292
3066.00,0.0291
3065.00,0.0291
3064.00,0.0290
3063.00,0.0289
3062.00,0.0289
3061.00,0.0288
3060.00,0.0288
3059.00,0.0288
3058.00,0.0288
3057.00,0.0287
3056.00,0.0287
3055.00,0.0287
3054.00,0.0287
3053.00,0.0287
3052.00,0.0286
3051.00,0.0286
3050.00,0.0286
3049.00,0.0286
3048.00,0.0287
3047.00,0.0287
3046.00,0.0287
3045.00,0.0287
3044.00,0.0288
3043.00,0.0288
3042.00,0.0288
3041.00,0.0289
3040.00,0.0290
3039.00,0.0290
3038.00,0.0291
3037.00,0.0292
3036.00,0.0293
3035.00,0.0293
3034.00,0.0294
3033.00,0.0295
3032.00,0.0296
3031.00,0.0297
3030.00,0.0298
3029.00,0.0299
3028.00,0.0301
3027.00,0.0302
3026.00,0.0304
3025.00,0.0306
3024.00,0.0308
3023.00,0.0310
3022.00,0.0312
3021.00,0.0314
3020.00,0.0316
3019.00,0.0318
3018.00,0.0321
3017.00,0.0324
3016.00,0.0328
3015.00,0.0331
3014.00,0.0335
3013.00,0.0339
3012.00,0.0343
3011.00,0.0348
3010.00,0.0353
3009.00,0.0358
3008.00,0.0364
3007.00,0.0370
3006.00,0.0376
3005.00,0.0383
3004.00,0.0390
3003.00,0.0398
3002.00,0.0406
3001.00,0.0414
3000.00,0.0423
2999.00,0.0432
2998.00,0.0441
2997.00,0.0451
2996.00,0.0461
2995.00,0.0472
2994.00,0.0482
2993.00,0.0493
2992.00,0.0503
2991.00,0.0512
2990.00,0.0522
2989.00,0.0531
2988.00,0.0540
2987.00,0.0548
2986.00,0.0555
2985.00,0.0562
2984.00,0.0568
2983.00,0.0573
2982.00,0.0578
2981.00,0.0582
2980.00,0.0585
2979.00,0.0588
2978.00,0.0591
2977.00,0.0593
2976.00,0.0596
2975.00,0.0598
2974.00,0.0601
2973.00,0.0604
2972.00,0.0607
2971.00,0.0611
2970.00,0.0615
2969.00,0.0620
2968.00,0.0626
2967.00,0.0632
2966.00,0.0639
2965.00,0.0647
2964.00,0.0656
2963.00,0.0666
2962.00,0.0677
2961.00,0.0689
2960.00,0.0702
2959.00,0.0716
2958.00,0.0731
2957.00,0.0747
2956.00,0.0764
2955.00,0.0781
2954.00,0.0800
2953.00,0.0818
2952.00,0.0836
2951.00,0.0855
2950.00,0.0872
2949.00,0.0887
2948.00,0.0901
2947.00,0.0912
2946.00,0.0920
2945.00,0.0925
2944.00,0.0927
2943.00,0.0926
2942.00,0.0922
2941.00,0.0915
2940.00,0.0906
2939.00,0.0896
2938.00,0.0883
2937.00,0.0870
2936.00,0.0857
2935.00,0.0843
2934.00,0.0830
2933.00,0.0818
2932.00,0.0807
2931.00,0.0796
2930.00,0.0787
2929.00,0.0778
2928.00,0.0770
2927.00,0.0764
2926.00,0.0759
2925.00,0.0755
2924.00,0.0752
2923.00,0.0750
2922.00,0.0748
2921.00,0.0746
2920.00,0.0744
2919.00,0.0742
2918.00,0.0740
2917.00,0.0738
2916.00,0.0735
2915.00,0.0731
2914.00,0.0727
2913.00,0.0721
2912.00,0.0714
2911.00,0.0706
2910.00,0.0697
2909.00,0.0687
2908.00,0.0676
2907.00,0.0664
2906.00,0.0653
2905.00,0.0641
2904.00,0.0630
2903.00,0.0619
2902.00,0.0608
2901.00,0.0597
2900.00,0.0588
2899.00,0.0578
2898.00,0.0569
2897.00,0.0560
2896.00,0.0552
2895.00,0.0544
2894.00,0.0536
2893.00,0.0529
2892.00,0.0522
2891.00,0.0515
2890.00,0.0508
2889.00,0.0502
2888.00,0.0495
2887.00,0.0489
2886.00,0.0483
2885.00,0.0478
2884.00,0.0473
2883.00,0.0468
2882.00,0.0464
2881.00,0.0459
2880.00,0.0455
2879.00,0.0451
2878.00,0.0447
2877.00,0.0443
2876.00,0.0439
2875.00,0.0436
2874.00,0.0432
2873.00,0.0430
2872.00,0.0427
2871.00,0.0425
2870.00,0.0423
2869.00,0.0421
2868.00,0.0419
2867.00,0.0417
2866.00,0.0416
2865.00,0.0415
2864.00,0.0414
2863.00,0.0413
2862.00,0.0412
2861.00,0.0411
2860.00,0.0411
2859.00,0.0411
2858.00,0.0412
2857.00,0.0413
2856.00,0.0416
2855.00,0.0419
2854.00,0.0424
2853.00,0.0430
2852.00,0.0437
2851.00,0.0446
2850.00,0.0457
2849.00,0.0470
2848.00,0.0485
2847.00,0.0504
2846.00,0.0524
2845.00,0.0547
2844.00,0.0573
2843.00,0.0600
2842.00,0.0631
2841.00,0.0663
2840.00,0.0698
2839.00,0.0733
2838.00,0.0768
2837.00,0.0801
2836.00,0.0831
2835.00,0.0856
2834.00,0.0875
2833.00,0.0887
2832.00,0.0892
2831.00,0.0889
2830.00,0.0879
2829.00,0.0863
2828.00,0.0843
2827.00,0.0820
2826.00,0.0794
2825.00,0.0767
2824.00,0.0740
2823.00,0.0714
2822.00,0.0688
2821.00,0.0663
2820.00,0.0639
2819.00,0.0616
2818.00,0.0595
2817.00,0.0575
2816.00,0.0556
2815.00,0.0539
2814.00,0.0523
2813.00,0.0507
2812.00,0.0493
2811.00,0.0479
2810.00,0.0466
2809.00,0.0454
2808.00,0.0442
2807.00,0.0431
2806.00,0.0421
2805.00,0.0411
2804.00,0.0401
2803.00,0.0392
2802.00,0.0383
2801.00,0.0375
2800.00,0.0367
2799.00,0.0359
2798.00,0.0351
2797.00,0.0344
2796.00,0.0336
2795.00,0.0329
2794.00,0.0322
2793.00,0.0315
2792.00,0.0309
2791.00,0.0302
2790.00,0.0295
2789.00,0.0289
2788.00,0.0283
2787.00,0.0277
2786.00,0.0272
2785.00,0.0266
2784.00,0.0260
2783.00,0.0254
2782.00,0.0249
2781.00,0.0243
2780.00,0.0238
2779.00,0.0233
2778.00,0.0228
2777.00,0.0222
2776.00,0.0217
2775.00,0.0213
2774.00,0.0208
2773.00,0.0203
2772.00,0.0199
2771.00,0.0194
2770.00,0.0190
2769.00,0.0185
2768.00,0.0181
2767.00,0.0177
2766.00,0.0173
2765.00,0.0169
2764.00,0.0165
2763.00,0.0162
2762.00,0.0158
2761.00,0.0155
2760.00,0.0151
2759.00,0.0148
2758.00,0.0145
2757.00,0.0141
2756.00,0.0138
2755.00,0.0135
2754.00,0.0133
2753.00,0.0130
2752.00,0.0127
2751.00,0.0124
2750.00,0.0122
2749.00,0.0119
2748.00,0.0117
2747.00,0.0114
2746.00,0.0112
2745.00,0.0110
2744.00,0.0108
2743.00,0.0106
2742.00,0.0104
2741.00,0.0102
2740.00,0.0100
2739.00,0.0098
2738.00,0.0096
2737.00,0.0094
2736.00,0.0093
2735.00,0.0091
2734.00,0.0090
2733.00,0.0088
2732.00,0.0087
2731.00,0.0086
2730.00,0.0084
2729.00,0.0083
2728.00,0.0081
2727.00,0.0080
2726.00,0.0078
2725.00,0.0077
2724.00,0.0076
2723.00,0.0075
2722.00,0.0074
2721.00,0.0073
2720.00,0.0072
2719.00,0.0071
2718.00,0.0071
2717.00,0.0070
2716.00,0.0069
2715.00,0.0068
2714.00,0.0067
2713.00,0.0067
2712.00,0.0066
2711.00,0.0065
2710.00,0.0064
2709.00,0.0063
2708.00,0.0063
2707.00,0.0062
2706.00,0.0062
2705.00,0.0061
2704.00,0.0060
2703.00,0.0060
2702.00,0.0059
2701.00,0.0059
2700.00,0.0058
2699.00,0.0058
2698.00,0.0057
2697.00,0.0057
2696.00,0.0057
2695.00,0.0056
2694.00,0.0055
2693.00,0.0055
2692.00,0.0055
2691.00,0.0054
2690.00,0.0054
2689.00,0.0053
2688.00,0.0053
2687.00,0.0053
2686.00,0.0053
2685.00,0.0052
2684.00,0.0052
2683.00,0.0052
2682.00,0.0052
2681.00,0.0051
2680.00,0.0051
2679.00,0.0051
2678.00,0.0051
2677.00,0.0051
2676.00,0.0051
2675.00,0.0051
2674.00,0.0051
2673.00,0.0051
2672.00,0.0050
2671.00,0.0050
2670.00,0.0050
2669.00,0.0050
2668.00,0.0050
2667.00,0.0051
2666.00,0.0051
2665.00,0.0051
2664.00,0.0051
2663.00,0.0051
2662.00,0.0052
2661.00,0.0052
2660.00,0.0052
2659.00,0.0052
2658.00,0.0052
2657.00,0.0052
2656.00,0.0052
2655.00,0.0052
2654.00,0.0052
2653.00,0.0052
2652.00,0.0052
2651.00,0.0052
2650.00,0.0053
2649.00,0.0053
2648.00,0.0053
2647.00,0.0053
2646.00,0.0054
2645.00,0.0054
2644.00,0.0054
2643.00,0.0054
2642.00,0.0055
2641.00,0.0055
2640.00,0.0055
2639.00,0.0056
2638.00,0.0056
2637.00,0.0056
2636.00,0.0056
2635.00,0.0056
2634.00,0.0056
2633.00,0.0057
2632.00,0.0057
2631.00,0.0058
2630.00,0.0058
2629.00,0.0058
2628.00,0.0059
2627.00,0.0059
2626.00,0.0060
2625.00,0.0061
2624.00,0.0061
2623.00,0.0062
2622.00,0.0063
2621.00,0.0063
2620.00,0.0064
2619.00,0.0065
2618.00,0.0065
2617.00,0.0066
2616.00,0.0067
2615.00,0.0068
2614.00,0.0068
2613.00,0.0069
2612.00,0.0069
2611.00,0.0070
2610.00,0.0070
2609.00,0.0071
2608.00,0.0071
2607.00,0.0071
2606.00,0.0071
2605.00,0.0071
2604.00,0.0072
2603.00,0.0072
2602.00,0.0072
2601.00,0.0072
2600.00,0.0073
2599.00,0.0073
2598.00,0.0073
2597.00,0.0073
2596.00,0.0073
2595.00,0.0073
2594.00,0.0073
2593.00,0.0073
2592.00,0.0073
2591.00,0.0073
2590.00,0.0073
2589.00,0.0072
2588.00,0.0072
2587.00,0.0072
2586.00,0.0072
2585.00,0.0071
2584.00,0.0071
2583.00,0.0071
2582.00,0.0071
2581.00,0.0070
2580.00,0.0070
2579.00,0.0070
2578.00,0.0070
2577.00,0.0070
2576.00,0.0069
2575.00,0.0069
2574.00,0.0069
2573.00,0.0069
2572.00,0.0069
2571.00,0.0069
2570.00,0.0069
2569.00,0.0069
2568.00,0.0069
2567.00,0.0069
2566.00,0.0069
2565.00,0.0070
2564.00,0.0070
2563.00,0.0070
2562.00,0.0070
2561.00,0.0070
2560.00,0.0070
2559.00,0.0071
2558.00,0.0071
2557.00,0.0072
2556.00,0.0072
2555.00,0.0073
2554.00,0.0073
2553.00,0.0073
2552.00,0.0073
2551.00,0.0074
2550.00,0.0074
2549.00,0.0074
2548.00,0.0075
2547.00,0.0075
2546.00,0.0075
2545.00,0.0076
2544.00,0.0076
2543.00,0.0077
2542.00,0.0077
2541.00,0.0078
2540.00,0.0079
2539.00,0.0079
2538.00,0.0079
2537.00,0.0079
2536.00,0.0080
2535.00,0.0080
2534.00,0.0080
2533.00,0.0081
2532.00,0.0081
2531.00,0.0082
2530.00,0.0082
2529.00,0.0083
2528.00,0.0083
2527.00,0.0083
2526.00,0.0083
2525.00,0.0082
2524.00,0.0083
2523.00,0.0083
2522.00,0.0083
2521.00,0.0083
2520.00,0.0083
2519.00,0.0083
2518.00,0.0082
2517.00,0.0082
2516.00,0.0082
2515.00,0.0081
2514.00,0.0081
2513.00,0.0081
2512.00,0.0080
2511.00,0.0080
2510.00,0.0079
2509.00,0.0078
2508.00,0.0077
2507.00,0.0077
2506.00,0.0076
2505.00,0.0075
2504.00,0.0074
2503.00,0.0073
2502.00,0.0072
2501.00,0.0072
2500.00,0.0071
2499.00,0.0071
2498.00,0.0070
2497.00,0.0069
2496.00,0.0068
2495.00,0.0067
2494.00,0.0066
2493.00,0.0065
2492.00,0.0064
2491.00,0.0063
2490.00,0.0062
2489.00,0.0061
2488.00,0.0061
2487.00,0.0060
2486.00,0.0059
2485.00,0.0057
2484.00,0.0056
2483.00,0.0055
2482.00,0.0054
2481.00,0.0053
2480.00,0.0052
2479.00,0.0051
2478.00,0.0050
2477.00,0.0049
2476.00,0.0049
2475.00,0.0048
2474.00,0.0048
2473.00,0.0047
2472.00,0.0046
2471.00,0.0046
2470.00,0.0045
2469.00,0.0045
2468.00,0.0044
2467.00,0.0044
2466.00,0.0043
2465.00,0.0043
2464.00,0.0043
2463.00,0.0042
2462.00,0.0042
2461.00,0.0042
2460.00,0.0041
2459.00,0.0041
2458.00,0.0041
2457.00,0.0041
2456.00,0.0041
2455.00,0.0040
2454.00,0.0040
2453.00,0.0040
2452.00,0.0039
2451.00,0.0039
2450.00,0.0038
2449.00,0.0038
2448.00,0.0037
2447.00,0.0037
2446.00,0.0036
2445.00,0.0036
2444.00,0.0036
2443.00,0.0035
2442.00,0.0035
2441.00,0.0035
2440.00,0.0035
2439.00,0.0035
2438.00,0.0035
2437.00,0.0034
2436.00,0.0034
2435.00,0.0033
2434.00,0.0033
2433.00,0.0032
2432.00,0.0032
2431.00,0.0031
2430.00,0.0031
2429.00,0.0030
2428.00,0.0030
2427.00,0.0030
2426.00,0.0030
2425.00,0.0029
2424.00,0.0029
2423.00,0.0028
2422.00,0.0028
2421.00,0.0027
2420.00,0.0027
2419.00,0.0026
2418.00,0.0026
2417.00,0.0025
2416.00,0.0025
2415.00,0.0024
2414.00,0.0024
2413.00,0.0024
2412.00,0.0023
2411.00,0.0023
2410.00,0.0022
2409.00,0.0022
2408.00,0.0021
2407.00,0.0021
2406.00,0.0020
2405.00,0.0020
2404.00,0.0019
2403.00,0.0019
2402.00,0.0019
2401.00,0.0019
2400.00,0.0019
2399.00,0.0018
2398.00,0.0018
2397.00,0.0017
2396.00,0.0016
2395.00,0.0016
2394.00,0.0015
2393.00,0.0015
2392.00,0.0015
2391.00,0.0015
2390.00,0.0014
2389.00,0.0014
2388.00,0.0014
2387.00,0.0014
2386.00,0.0013
2385.00,0.0013
2384.00,0.0013
2383.00,0.0013
2382.00,0.0013
2381.00,0.0013
2380.00,0.0012
2379.00,0.0012
2378.00,0.0012
2377.00,0.0012
2376.00,0.0011
2375.00,0.0011
2374.00,0.0011
2373.00,0.0011
2372.00,0.0011
2371.00,0.0010
2370.00,0.0010
2369.00,0.0010
2368.00,0.0010
2367.00,0.0009
2366.00,0.0009
2365.00,0.0009
2364.00,0.0010
2363.00,0.0010
2362.00,0.0010
2361.00,0.0010
2360.00,0.0010
2359.00,0.0010
2358.00,0.0009
2357.00,0.0009
2356.00,0.0009
2355.00,0.0009
2354.00,0.0009
2353.00,0.0008
2352.00,0.0008
2351.00,0.0009
2350.00,0.0009
2349.00,0.0010
2348.00,0.0010
2347.00,0.0010
2346.00,0.0010
2345.00,0.0010
2344.00,0.0011
2343.00,0.0011
2342.00,0.0011
2341.00,0.0011
2340.00,0.0011
2339.00,0.0011
2338.00,0.0011
2337.00,0.0011
2336.00,0.0011
2335.00,0.0011
2334.00,0.0011
2333.00,0.0011
2332.00,0.0011
2331.00,0.0011
2330.00,0.0011
2329.00,0.0012
2328.00,0.0013
2327.00,0.0014
2326.00,0.0016
2325.00,0.0017
2324.00,0.0017
2323.00,0.0017
2322.00,0.0016
2321.00,0.0015
2320.00,0.0014
2319.00,0.0013
2318.00,0.0013
2317.00,0.0013
2316.00,0.0012
2315.00,0.0012
2314.00,0.0012
2313.00,0.0011
2312.00,0.0011
2311.00,0.0011
2310.00,0.0011
2309.00,0.0011
2308.00,0.0011
2307.00,0.0011
2306.00,0.0011
2305.00,0.0011
2304.00,0.0012
2303.00,0.0012
2302.00,0.0012
2301.00,0.0012
2300.00,0.0012
2299.00,0.0012
2298.00,0.0012
2297.00,0.0012
2296.00,0.0012
2295.00,0.0012
2294.00,0.0012
2293.00,0.0013
2292.00,0.0013
2291.00,0.0014
2290.00,0.0014
2289.00,0.0015
2288.00,0.0015
2287.00,0.0016
2286.00,0.0016
2285.00,0.0016
2284.00,0.0016
2283.00,0.0016
2282.00,0.0015
2281.00,0.0015
2280.00,0.0015
2279.00,0.0015
2278.00,0.0015
2277.00,0.0015
2276.00,0.0016
2275.00,0.0016
2274.00,0.0016
2273.00,0.0016
2272.00,0.0016
2271.00,0.0016
2270.00,0.0016
2269.00,0.0017
2268.00,0.0017
2267.00,0.0016
2266.00,0.0016
2265.00,0.0015
2264.00,0.0015
2263.00,0.0015
2262.00,0.0016
2261.00,0.0017
2260.00,0.0018
2259.00,0.0018
2258.00,0.0017
2257.00,0.0017
2256.00,0.0017
2255.00,0.0017
2254.00,0.0017
2253.00,0.0017
2252.00,0.0017
2251.00,0.0018
2250.00,0.0018
2249.00,0.0018
2248.00,0.0018
2247.00,0.0018
2246.00,0.0018
2245.00,0.0019
2244.00,0.0019
2243.00,0.0020
2242.00,0.0020
2241.00,0.0020
2240.00,0.0020
2239.00,0.0020
2238.00,0.0020
2237.00,0.0020
2236.00,0.0021
2235.00,0.0022
2234.00,0.0022
2233.00,0.0022
2232.00,0.0022
2231.00,0.0022
2230.00,0.0022
2229.00,0.0021
2228.00,0.0020
2227.00,0.0020
2226.00,0.0019
2225.00,0.0019
2224.00,0.0020
2223.00,0.0020
2222.00,0.0020
2221.00,0.0020
2220.00,0.0020
2219.00,0.0020
2218.00,0.0019
2217.00,0.0018
2216.00,0.0018
2215.00,0.0019
2214.00,0.0019
2213.00,0.0020
2212.00,0.0020
2211.00,0.0019
2210.00,0.0018
2209.00,0.0016
2208.00,0.0015
2207.00,0.0015
2206.00,0.0015
2205.00,0.0015
2204.00,0.0015
2203.00,0.0015
2202.00,0.0015
2201.00,0.0014
2200.00,0.0014
2199.00,0.0014
2198.00,0.0013
2197.00,0.0012
2196.00,0.0012
2195.00,0.0012
2194.00,0.0012
2193.00,0.0012
2192.00,0.0012
2191.00,0.0013
2190.00,0.0012
2189.00,0.0012
2188.00,0.0012
2187.00,0.0012
2186.00,0.0011
2185.00,0.0010
2184.00,0.0010
2183.00,0.0010
2182.00,0.0010
2181.00,0.0010
2180.00,0.0009
2179.00,0.0009
2178.00,0.0008
2177.00,0.0007
2176.00,0.0007
2175.00,0.0007
2174.00,0.0007
2173.00,0.0008
2172.00,0.0009
2171.00,0.0010
2170.00,0.0010
2169.00,0.0010
2168.00,0.0010
2167.00,0.0010
2166.00,0.0008
2165.00,0.0008
2164.00,0.0008
2163.00,0.0008
2162.00,0.0007
2161.00,0.0004
2160.00,-0.0000
2159.00,-0.0006
2158.00,-0.0010
2157.00,-0.0011
2156.00,-0.0010
2155.00,-0.0008
2154.00,-0.0007
2153.00,-0.0006
2152.00,-0.0005
2151.00,-0.0004
2150.00,-0.0003
2149.00,-0.0002
2148.00,-0.0001
2147.00,-0.0001
2146.00,-0.0000
2145.00,-0.0000
2144.00,-0.0000
2143.00,-0.0000
2142.00,0.0000
2141.00,0.0001
2140.00,0.0003
2139.00,0.0003
2138.00,0.0003
2137.00,0.0002
2136.00,0.0001
2135.00,-0.0000
2134.00,-0.0001
2133.00,-0.0001
2132.00,-0.0000
2131.00,0.0000
2130.00,0.0001
2129.00,0.0002
2128.00,0.0002
2127.00,0.0003
2126.00,0.0004
2125.00,0.0004
2124.00,0.0004
2123.00,0.0004
2122.00,0.0004
2121.00,0.0005
2120.00,0.0005
2119.00,0.0006
2118.00,0.0006
2117.00,0.0006
2116.00,0.0007
2115.00,0.0007
2114.00,0.0007
2113.00,0.0007
2112.00,0.0006
2111.00,0.0006
2110.00,0.0006
2109.00,0.0006
2108.00,0.0006
2107.00,0.0005
2106.00,0.0005
2105.00,0.0004
2104.00,0.0004
2103.00,0.0003
2102.00,0.0003
2101.00,0.0004
2100.00,0.0004
2099.00,0.0004
2098.00,0.0004
2097.00,0.0004
2096.00,0.0004
2095.00,0.0004
2094.00,0.0003
2093.00,0.0003
2092.00,0.0003
2091.00,0.0003
2090.00,0.0003
2089.00,0.0003
2088.00,0.0002
2087.00,0.0002
2086.00,0.0001
2085.00,0.0001
2084.00,0.0002
2083.00,0.0002
2082.00,0.0002
2081.00,0.0003
2080.00,0.0003
2079.00,0.0003
2078.00,0.0003
2077.00,0.0004
2076.00,0.0004
2075.00,0.0003
2074.00,0.0003
2073.00,0.0002
2072.00,0.0002
2071.00,0.0001
2070.00,0.0000
2069.00,0.0000
2068.00,0.0000
2067.00,0.0001
2066.00,0.0001
2065.00,0.0001
2064.00,0.0002
2063.00,0.0001
2062.00,0.0001
2061.00,0.0001
2060.00,0.0001
2059.00,0.0001
2058.00,0.0002
2057.00,0.0003
2056.00,0.0003
2055.00,0.0004
2054.00,0.0005
2053.00,0.0007
2052.00,0.0008
2051.00,0.0007
2050.00,0.0004
2049.00,0.0001
2048.00,-0.0002
2047.00,-0.0004
2046.00,-0.0006
2045.00,-0.0008
2044.00,-0.0010
2043.00,-0.0011
2042.00,-0.0012
2041.00,-0.0012
2040.00,-0.0011
2039.00,-0.0012
2038.00,-0.0015
2037.00,-0.0018
2036.00,-0.0020
2035.00,-0.0022
2034.00,-0.0024
2033.00,-0.0026
2032.00,-0.0029
2031.00,-0.0031
2030.00,-0.0033
2029.00,-0.0033
2028.00,-0.0032
2027.00,-0.0031
2026.00,-0.0032
2025.00,-0.0033
2024.00,-0.0034
2023.00,-0.0034
2022.00,-0.0034
2021.00,-0.0033
2020.00,-0.0032
2019.00,-0.0032
2018.00,-0.0032
2017.00,-0.0033
2016.00,-0.0033
2015.00,-0.0034
2014.00,-0.0035
2013.00,-0.0035
2012.00,-0.0034
2011.00,-0.0033
2010.00,-0.0033
2009.00,-0.0033
2008.00,-0.0032
2007.00,-0.0032
2006.00,-0.0031
2005.00,-0.0029
2004.00,-0.0027
2003.00,-0.0025
2002.00,-0.0024
2001.00,-0.0023
2000.00,-0.0021
1999.00,-0.0020
1998.00,-0.0018
1997.00,-0.0017
1996.00,-0.0016
1995.00,-0.0015
1994.00,-0.0015
1993.00,-0.0015
1992.00,-0.0015
1991.00,-0.0015
1990.00,-0.0016
1989.00,-0.0016
1988.00,-0.0016
1987.00,-0.0016
1986.00,-0.0016
1985.00,-0.0015
1984.00,-0.0013
1983.00,-0.0012
1982.00,-0.0010
1981.00,-0.0010
1980.00,-0.0011
1979.00,-0.0013
1978.00,-0.0016
1977.00,-0.0018
1976.00,-0.0020
1975.00,-0.0020
1974.00,-0.0021
1973.00,-0.0021
1972.00,-0.0021
1971.00,-0.0020
1970.00,-0.0020
1969.00,-0.0019
1968.00,-0.0017
1967.00,-0.0016
1966.00,-0.0015
1965.00,-0.0014
1964.00,-0.0013
1963.00,-0.0012
1962.00,-0.0011
1961.00,-0.0011
1960.00,-0.0011
1959.00,-0.0012
1958.00,-0.0013
1957.00,-0.0013
1956.00,-0.0012
1955.00,-0.0011
1954.00,-0.0011
1953.00,-0.0011
1952.00,-0.0010
1951.00,-0.0009
1950.00,-0.0009
1949.00,-0.0008
1948.00,-0.0008
1947.00,-0.0008
1946.00,-0.0009
1945.00,-0.0009
1944.00,-0.0009
1943.00,-0.0008
1942.00,-0.0007
1941.00,-0.0006
1940.00,-0.0006
1939.00,-0.0006
1938.00,-0.0006
1937.00,-0.0007
1936.00,-0.0007
1935.00,-0.0007
1934.00,-0.0008
1933.00,-0.0007
1932.00,-0.0006
1931.00,-0.0005
1930.00,-0.0004
1929.00,-0.0004
1928.00,-0.0004
1927.00,-0.0004
1926.00,-0.0005
1925.00,-0.0005
1924.00,-0.0004
1923.00,-0.0004
1922.00,-0.0003
1921.00,-0.0003
1920.00,-0.0002
1919.00,-0.0002
1918.00,-0.0002
1917.00,-0.0002
1916.00,-0.0001
1915.00,-0.0000
1914.00,-0.0000
1913.00,-0.0000
1912.00,-0.0001
1911.00,-0.0002
1910.00,-0.0002
1909.00,-0.0002
1908.00,-0.0001
1907.00,-0.0001
1906.00,-0.0001
1905.00,-0.0000
1904.00,-0.0000
1903.00,-0.0000
1902.00,-0.0001
1901.00,-0.0000
1900.00,0.0000
1899.00,0.0001
1898.00,0.0002
1897.00,0.0002
1896.00,0.0001
1895.00,0.0001
1894.00,0.0001
1893.00,0.0001
1892.00,0.0001
1891.00,0.0001
1890.00,0.0001
1889.00,0.0001
1888.00,0.0001
1887.00,0.0002
1886.00,0.0002
1885.00,0.0003
1884.00,0.0003
1883.00,0.0003
1882.00,0.0003
1881.00,0.0003
1880.00,0.0003
1879.00,0.0003
1878.00,0.0003
1877.00,0.0004
1876.00,0.0004
1875.00,0.0004
1874.00,0.0004
1873.00,0.0004
1872.00,0.0004
1871.00,0.0004
1870.00,0.0003
1869.00,0.0003
1868.00,0.0003
1867.00,0.0004
1866.00,0.0004
1865.00,0.0005
1864.00,0.0006
1863.00,0.0006
1862.00,0.0006
1861.00,0.0006
1860.00,0.0006
1859.00,0.0006
1858.00,0.0006
1857.00,0.0005
1856.00,0.0006
1855.00,0.0006
1854.00,0.0006
1853.00,0.0006
1852.00,0.0006
1851.00,0.0006
1850.00,0.0006
1849.00,0.0006
1848.00,0.0006
1847.00,0.0007
1846.00,0.0007
1845.00,0.0007
1844.00,0.0008
1843.00,0.0008
1842.00,0.0008
1841.00,0.0008
1840.00,0.0009
1839.00,0.0009
1838.00,0.0009
1837.00,0.0009
1836.00,0.0009
1835.00,0.0009
1834.00,0.0009
1833.00,0.0009
1832.00,0.0009
1831.00,0.0009
1830.00,0.0009
1829.00,0.0010
1828.00,0.0010
1827.00,0.0010
1826.00,0.0010
1825.00,0.0011
1824.00,0.0011
1823.00,0.0011
1822.00,0.0011
1821.00,0.0011
1820.00,0.0011
1819.00,0.0011
1818.00,0.0010
1817.00,0.0010
1816.00,0.0011
1815.00,0.0012
1814.00,0.0012
1813.00,0.0013
1812.00,0.0013
1811.00,0.0014
1810.00,0.0014
1809.00,0.0014
1808.00,0.0015
1807.00,0.0015
1806.00,0.0016
1805.00,0.0016
1804.00,0.0016
1803.00,0.0016
1802.00,0.0016
1801.00,0.0016
1800.00,0.0016
1799.00,0.0017
1798.00,0.0017
1797.00,0.0017
1796.00,0.0017
1795.00,0.0017
1794.00,0.0017
1793.00,0.0017
1792.00,0.0017
1791.00,0.0017
1790.00,0.0018
1789.00,0.0018
1788.00,0.0018
1787.00,0.0018
1786.00,0.0019
1785.00,0.0018
1784.00,0.0019
1783.00,0.0019
1782.00,0.0019
1781.00,0.0019
1780.00,0.0019
1779.00,0.0020
1778.00,0.0020
1777.00,0.0020
1776.00,0.0020
1775.00,0.0020
1774.00,0.0021
1773.00,0.0021
1772.00,0.0021
1771.00,0.0021
1770.00,0.0021
1769.00,0.0021
1768.00,0.0022
1767.00,0.0022
1766.00,0.0022
1765.00,0.0022
1764.00,0.0023
1763.00,0.0023
1762.00,0.0022
1761.00,0.0022
1760.00,0.0022
1759.00,0.0022
1758.00,0.0021
1757.00,0.0021
1756.00,0.0020
1755.00,0.0020
1754.00,0.0019
1753.00,0.0018
1752.00,0.0017
1751.00,0.0017
1750.00,0.0016
1749.00,0.0015
1748.00,0.0015
1747.00,0.0015
1746.00,0.0015
1745.00,0.0014
1744.00,0.0014
1743.00,0.0014
1742.00,0.0015
1741.00,0.0015
1740.00,0.0016
1739.00,0.0017
1738.00,0.0017
1737.00,0.0018
1736.00,0.0019
1735.00,0.0020
1734.00,0.0020
1733.00,0.0021
1732.00,0.0021
1731.00,0.0022
1730.00,0.0024
1729.00,0.0025
1728.00,0.0027
1727.00,0.0029
1726.00,0.0030
1725.00,0.0031
1724.00,0.0032
1723.00,0.0033
1722.00,0.0034
1721.00,0.0035
1720.00,0.0035
1719.00,0.0036
1718.00,0.0036
1717.00,0.0037
1716.00,0.0038
1715.00,0.0039
1714.00,0.0040
1713.00,0.0041
1712.00,0.0042
1711.00,0.0043
1710.00,0.0043
1709.00,0.0044
1708.00,0.0045
1707.00,0.0046
1706.00,0.0046
1705.00,0.0047
1704.00,0.0048
1703.00,0.0049
1702.00,0.0050
1701.00,0.0051
1700.00,0.0052
1699.00,0.0053
1698.00,0.0053
1697.00,0.0055
1696.00,0.0056
1695.00,0.0058
1694.00,0.0058
1693.00,0.0059
1692.00,0.0059
1691.00,0.0060
1690.00,0.0061
1689.00,0.0062
1688.00,0.0063
1687.00,0.0065
1686.00,0.0066
1685.00,0.0067
1684.00,0.0068
1683.00,0.0069
1682.00,0.0069
1681.00,0.0071
1680.00,0.0072
1679.00,0.0074
1678.00,0.0075
1677.00,0.0077
1676.00,0.0079
1675.00,0.0080
1674.00,0.0081
1673.00,0.0081
1672.00,0.0082
1671.00,0.0083
1670.00,0.0085
1669.00,0.0086
1668.00,0.0087
1667.00,0.0088
1666.00,0.0089
1665.00,0.0089
1664.00,0.0090
1663.00,0.0090
1662.00,0.0091
1661.00,0.0091
1660.00,0.0091
1659.00,0.0091
1658.00,0.0091
1657.00,0.0091
1656.00,0.0091
1655.00,0.0092
1654.00,0.0092
1653.00,0.0093
1652.00,0.0092
1651.00,0.0091
1650.00,0.0090
1649.00,0.0090
1648.00,0.0090
1647.00,0.0090
1646.00,0.0089
1645.00,0.0089
1644.00,0.0089
1643.00,0.0088
1642.00,0.0088
1641.00,0.0088
1640.00,0.0087
1639.00,0.0087
1638.00,0.0087
1637.00,0.0087
1636.00,0.0088
1635.00,0.0087
1634.00,0.0086
1633.00,0.0086
1632.00,0.0086
1631.00,0.0086
1630.00,0.0085
1629.00,0.0085
1628.00,0.0085
1627.00,0.0084
1626.00,0.0084
1625.00,0.0084
1624.00,0.0084
1623.00,0.0084
1622.00,0.0084
1621.00,0.0084
1620.00,0.0084
1619.00,0.0084
1618.00,0.0085
1617.00,0.0085
1616.00,0.0085
1615.00,0.0085
1614.00,0.0085
1613.00,0.0085
1612.00,0.0085
1611.00,0.0086
1610.00,0.0086
1609.00,0.0086
1608.00,0.0087
1607.00,0.0087
1606.00,0.0088
1605.00,0.0088
1604.00,0.0089
1603.00,0.0089
1602.00,0.0089
1601.00,0.0089
1600.00,0.0090
1599.00,0.0090
1598.00,0.0091
1597.00,0.0092
1596.00,0.0092
1595.00,0.0093
1594.00,0.0094
1593.00,0.0094
1592.00,0.0095
1591.00,0.0096
1590.00,0.0097
1589.00,0.0097
1588.00,0.0098
1587.00,0.0099
1586.00,0.0100
1585.00,0.0100
1584.00,0.0101
1583.00,0.0102
1582.00,0.0103
1581.00,0.0103
1580.00,0.0104
1579.00,0.0106
1578.00,0.0107
1577.00,0.0108
1576.00,0.0110
1575.00,0.0111
1574.00,0.0111
1573.00,0.0111
1572.00,0.0112
1571.00,0.0113
1570.00,0.0114
1569.00,0.0116
1568.00,0.0117
1567.00,0.0118
1566.00,0.0119
1565.00,0.0120
1564.00,0.0121
1563.00,0.0122
1562.00,0.0123
1561.00,0.0123
1560.00,0.0124
1559.00,0.0126
1558.00,0.0128
1557.00,0.0129
1556.00,0.0130
1555.00,0.0131
1554.00,0.0133
1553.00,0.0134
1552.00,0.0135
1551.00,0.0136
1550.00,0.0137
1549.00,0.0139
1548.00,0.0140
1547.00,0.0141
1546.00,0.0142
1545.00,0.0142
1544.00,0.0144
1543.00,0.0146
1542.00,0.0147
1541.00,0.0150
1540.00,0.0153
1539.00,0.0156
1538.00,0.0157
1537.00,0.0157
1536.00,0.0158
1535.00,0.0159
1534.00,0.0161
1533.00,0.0163
1532.00,0.0165
1531.00,0.0167
1530.00,0.0169
1529.00,0.0170
1528.00,0.0172
1527.00,0.0174
1526.00,0.0176
1525.00,0.0178
1524.00,0.0180
1523.00,0.0182
1522.00,0.0184
1521.00,0.0188
1520.00,0.0191
1519.00,0.0193
1518.00,0.0195
1517.00,0.0198
1516.00,0.0202
1515.00,0.0206
1514.00,0.0209
1513.00,0.0211
1512.00,0.0214
1511.00,0.0216
1510.00,0.0218
1509.00,0.0220
1508.00,0.0224
1507.00,0.0232
1506.00,0.0241
1505.00,0.0247
1504.00,0.0251
1503.00,0.0254
1502.00,0.0257
1501.00,0.0262
1500.00,0.0267
1499.00,0.0272
1498.00,0.0278
1497.00,0.0286
1496.00,0.0295
1495.00,0.0302
1494.00,0.0308
1493.00,0.0313
1492.00,0.0319
1491.00,0.0326
1490.00,0.0335
1489.00,0.0346
1488.00,0.0356
1487.00,0.0365
1486.00,0.0374
1485.00,0.0383
1484.00,0.0392
1483.00,0.0400
1482.00,0.0409
1481.00,0.0419
1480.00,0.0429
1479.00,0.0437
1478.00,0.0444
1477.00,0.0452
1476.00,0.0460
1475.00,0.0467
1474.00,0.0474
1473.00,0.0483
1472.00,0.0493
1471.00,0.0501
1470.00,0.0506
1469.00,0.0511
1468.00,0.0516
1467.00,0.0520
1466.00,0.0527
1465.00,0.0535
1464.00,0.0544
1463.00,0.0552
1462.00,0.0558
1461.00,0.0563
1460.00,0.0569
1459.00,0.0575
1458.00,0.0586
1457.00,0.0603
1456.00,0.0620
1455.00,0.0632
1454.00,0.0641
1453.00,0.0650
1452.00,0.0659
1451.00,0.0667
1450.00,0.0672
1449.00,0.0675
1448.00,0.0673
1447.00,0.0666
1446.00,0.0655
1445.00,0.0642
1444.00,0.0627
1443.00,0.0611
1442.00,0.0597
1441.00,0.0586
1440.00,0.0577
1439.00,0.0571
1438.00,0.0566
1437.00,0.0565
1436.00,0.0566
1435.00,0.0568
1434.00,0.0570
1433.00,0.0572
1432.00,0.0575
1431.00,0.0578
1430.00,0.0581
1429.00,0.0585
1428.00,0.0589
1427.00,0.0591
1426.00,0.0593
1425.00,0.0595
1424.00,0.0598
1423.00,0.0600
1422.00,0.0601
1421.00,0.0602
1420.00,0.0603
1419.00,0.0604
1418.00,0.0606
1417.00,0.0607
1416.00,0.0608
1415.00,0.0607
1414.00,0.0606
1413.00,0.0605
1412.00,0.0604
1411.00,0.0602
1410.00,0.0600
1409.00,0.0597
1408.00,0.0594
1407.00,0.0589
1406.00,0.0585
1405.00,0.0581
1404.00,0.0577
1403.00,0.0572
1402.00,0.0567
1401.00,0.0561
1400.00,0.0554
1399.00,0.0548
1398.00,0.0541
1397.00,0.0534
1396.00,0.0528
1395.00,0.0520
1394.00,0.0513
1393.00,0.0506
1392.00,0.0499
1391.00,0.0491
1390.00,0.0484
1389.00,0.0476
1388.00,0.0467
1387.00,0.0459
1386.00,0.0450
1385.00,0.0443
1384.00,0.0436
1383.00,0.0428
1382.00,0.0421
1381.00,0.0413
1380.00,0.0406
1379.00,0.0399
1378.00,0.0392
1377.00,0.0386
1376.00,0.0380
1375.00,0.0373
1374.00,0.0367
1373.00,0.0361
1372.00,0.0355
1371.00,0.0350
1370.00,0.0345
1369.00,0.0339
1368.00,0.0334
1367.00,0.0329
1366.00,0.0324
1365.00,0.0320
1364.00,0.0315
1363.00,0.0310
1362.00,0.0306
1361.00,0.0302
1360.00,0.0299
1359.00,0.0295
1358.00,0.0292
1357.00,0.0288
1356.00,0.0285
1355.00,0.0281
1354.00,0.0278
1353.00,0.0275
1352.00,0.0272
1351.00,0.0269
1350.00,0.0266
1349.00,0.0263
1348.00,0.0261
1347.00,0.0258
1346.00,0.0256
1345.00,0.0254
1344.00,0.0251
1343.00,0.0248
1342.00,0.0246
1341.00,0.0243
1340.00,0.0240
1339.00,0.0238
1338.00,0.0237
1337.00,0.0236
1336.00,0.0235
1335.00,0.0233
1334.00,0.0232
1333.00,0.0230
1332.00,0.0228
1331.00,0.0226
1330.00,0.0225
1329.00,0.0223
1328.00,0.0222
1327.00,0.0220
1326.00,0.0219
1325.00,0.0217
1324.00,0.0216
1323.00,0.0215
1322.00,0.0214
1321.00,0.0213
1320.00,0.0211
1319.00,0.0210
1318.00,0.0208
1317.00,0.0207
1316.00,0.0206
1315.00,0.0205
1314.00,0.0204
1313.00,0.0203
1312.00,0.0202
1311.00,0.0201
1310.00,0.0200
1309.00,0.0200
1308.00,0.0199
1307.00,0.0198
1306.00,0.0197
1305.00,0.0196
1304.00,0.0195
1303.00,0.0194
1302.00,0.0193
1301.00,0.0193
1300.00,0.0192
1299.00,0.0191
1298.00,0.0191
1297.00,0.0190
1296.00,0.0189
1295.00,0.0188
1294.00,0.0188
1293.00,0.0187
1292.00,0.0186
1291.00,0.0185
1290.00,0.0184
1289.00,0.0183
1288.00,0.0182
1287.00,0.0182
1286.00,0.0181
1285.00,0.0180
1284.00,0.0179
1283.00,0.0179
1282.00,0.0178
1281.00,0.0177
1280.00,0.0176
1279.00,0.0176
1278.00,0.0176
1277.00,0.0175
1276.00,0.0174
1275.00,0.0174
1274.00,0.0173
1273.00,0.0172
1272.00,0.0172
1271.00,0.0171
1270.00,0.0170
1269.00,0.0169
1268.00,0.0169
1267.00,0.0168
1266.00,0.0168
1265.00,0.0167
1264.00,0.0167
1263.00,0.0166
1262.00,0.0166
1261.00,0.0165
1260.00,0.0164
1259.00,0.0164
1258.00,0.0164
1257.00,0.0163
1256.00,0.0163
1255.00,0.0163
1254.00,0.0162
1253.00,0.0162
1252.00,0.0162
1251.00,0.0162
1250.00,0.0161
1249.00,0.0161
1248.00,0.0161
1247.00,0.0161
1246.00,0.0161
1245.00,0.0161
1244.00,0.0161
1243.00,0.0161
1242.00,0.0161
1241.00,0.0161
1240.00,0.0161
1239.00,0.0161
1238.00,0.0162
1237.00,0.0162
1236.00,0.0162
1235.00,0.0162
1234.00,0.0162
1233.00,0.0162
1232.00,0.0162
1231.00,0.0162
1230.00,0.0162
1229.00,0.0162
1228.00,0.0163
1227.00,0.0163
1226.00,0.0163
1225.00,0.0164
1224.00,0.0164
1223.00,0.0164
1222.00,0.0164
1221.00,0.0164
1220.00,0.0164
1219.00,0.0165
1218.00,0.0165
1217.00,0.0165
1216.00,0.0166
1215.00,0.0166
1214.00,0.0166
1213.00,0.0166
1212.00,0.0166
1211.00,0.0166
1210.00,0.0167
1209.00,0.0167
1208.00,0.0167
1207.00,0.0168
1206.00,0.0168
1205.00,0.0168
1204.00,0.0168
1203.00,0.0168
1202.00,0.0169
1201.00,0.0169
1200.00,0.0169
1199.00,0.0168
1198.00,0.0168
1197.00,0.0168
1196.00,0.0168
1195.00,0.0168
1194.00,0.0168
1193.00,0.0168
1192.00,0.0168
1191.00,0.0168
1190.00,0.0168
1189.00,0.0168
1188.00,0.0168
1187.00,0.0169
1186.00,0.0169
1185.00,0.0169
1184.00,0.0169
1183.00,0.0169
1182.00,0.0169
1181.00,0.0169
1180.00,0.0169
1179.00,0.0170
1178.00,0.0170
1177.00,0.0170
1176.00,0.0170
1175.00,0.0171
1174.00,0.0171
1173.00,0.0172
1172.00,0.0172
1171.00,0.0173
1170.00,0.0173
1169.00,0.0174
1168.00,0.0175
1167.00,0.0175
1166.00,0.0177
1165.00,0.0178
1164.00,0.0179
1163.00,0.0180
1162.00,0.0181
1161.00,0.0182
1160.00,0.0184
1159.00,0.0185
1158.00,0.0186
1157.00,0.0188
1156.00,0.0190
1155.00,0.0192
1154.00,0.0195
1153.00,0.0197
1152.00,0.0200
1151.00,0.0203
1150.00,0.0206
1149.00,0.0209
1148.00,0.0213
1147.00,0.0217
1146.00,0.0221
1145.00,0.0225
1144.00,0.0230
1143.00,0.0236
1142.00,0.0241
1141.00,0.0248
1140.00,0.0255
1139.00,0.0263
1138.00,0.0272
1137.00,0.0281
1136.00,0.0292
1135.00,0.0302
1134.00,0.0313
1133.00,0.0324
1132.00,0.0336
1131.00,0.0349
1130.00,0.0361
1129.00,0.0374
1128.00,0.0386
1127.00,0.0398
1126.00,0.0410
1125.00,0.0420
1124.00,0.0431
1123.00,0.0440
1122.00,0.0448
1121.00,0.0455
1120.00,0.0462
1119.00,0.0467
1118.00,0.0471
1117.00,0.0475
1116.00,0.0477
1115.00,0.0477
1114.00,0.0477
1113.00,0.0475
1112.00,0.0473
1111.00,0.0470
1110.00,0.0466
1109.00,0.0461
1108.00,0.0455
1107.00,0.0449
1106.00,0.0442
1105.00,0.0435
1104.00,0.0428
1103.00,0.0421
1102.00,0.0413
1101.00,0.0406
1100.00,0.0399
1099.00,0.0392
1098.00,0.0385
1097.00,0.0379
1096.00,0.0373
1095.00,0.0367
1094.00,0.0361
1093.00,0.0356
1092.00,0.0351
1091.00,0.0347
1090.00,0.0344
1089.00,0.0341
1088.00,0.0338
1087.00,0.0336
1086.00,0.0334
1085.00,0.0332
1084.00,0.0331
1083.00,0.0330
1082.00,0.0330
1081.00,0.0330
1080.00,0.0331
1079.00,0.0332
1078.00,0.0333
1077.00,0.0334
1076.00,0.0336
1075.00,0.0339
1074.00,0.0343
1073.00,0.0347
1072.00,0.0352
1071.00,0.0357
1070.00,0.0363
1069.00,0.0370
1068.00,0.0377
1067.00,0.0385
1066.00,0.0394
1065.00,0.0404
1064.00,0.0414
1063.00,0.0426
1062.00,0.0438
1061.00,0.0453
1060.00,0.0468
1059.00,0.0486
1058.00,0.0505
1057.00,0.0527
1056.00,0.0552
1055.00,0.0580
1054.00,0.0611
1053.00,0.0647
1052.00,0.0689
1051.00,0.0737
1050.00,0.0793
1049.00,0.0859
1048.00,0.0936
1047.00,0.1025
1046.00,0.1127
1045.00,0.1244
1044.00,0.1377
1043.00,0.1525
1042.00,0.1687
1041.00,0.1862
1040.00,0.2049
1039.00,0.2246
1038.00,0.2452
1037.00,0.2668
1036.00,0.2896
1035.00,0.3135
1034.00,0.3383
1033.00,0.3641
1032.00,0.3909
1031.00,0.4186
1030.00,0.4474
1029.00,0.4773
1028.00,0.5079
1027.00,0.5376
1026.00,0.5648
1025.00,0.5879
1024.00,0.6053
1023.00,0.6148
1022.00,0.6158
1021.00,0.6090
1020.00,0.5958
1019.00,0.5774
1018.00,0.5554
1017.00,0.5317
1016.00,0.5072
1015.00,0.4823
1014.00,0.4570
1013.00,0.4318
1012.00,0.4065
1011.00,0.3808
1010.00,0.3548
1009.00,0.3288
1008.00,0.3033
1007.00,0.2784
1006.00,0.2545
1005.00,0.2321
1004.00,0.2114
1003.00,0.1924
1002.00,0.1752
1001.00,0.1598
1000.00,0.1462
999.00,0.1341
998.00,0.1234
997.00,0.1139
996.00,0.1056
995.00,0.0982
994.00,0.0916
993.00,0.0859
992.00,0.0807
991.00,0.0762
990.00,0.0721
989.00,0.0684
988.00,0.0651
987.00,0.0620
986.00,0.0593
985.00,0.0567
984.00,0.0544
983.00,0.0524
982.00,0.0505
981.00,0.0487
980.00,0.0471
979.00,0.0456
978.00,0.0442
977.00,0.0428
976.00,0.0416
975.00,0.0405
974.00,0.0394
973.00,0.0384
972.00,0.0375
971.00,0.0367
970.00,0.0358
969.00,0.0350
968.00,0.0343
967.00,0.0335
966.00,0.0329
965.00,0.0323
964.00,0.0317
963.00,0.0312
962.00,0.0307
961.00,0.0302
960.00,0.0297
959.00,0.0292
958.00,0.0288
957.00,0.0283
956.00,0.0279
955.00,0.0275
954.00,0.0272
953.00,0.0269
952.00,0.0266
951.00,0.0263
950.00,0.0259
949.00,0.0257
948.00,0.0254
947.00,0.0252
946.00,0.0250
945.00,0.0248
944.00,0.0247
943.00,0.0245
942.00,0.0243
941.00,0.0241
940.00,0.0239
939.00,0.0237
938.00,0.0235
937.00,0.0234
936.00,0.0233
935.00,0.0232
934.00,0.0230
933.00,0.0229
932.00,0.0228
931.00,0.0228
930.00,0.0227
929.00,0.0226
928.00,0.0226
927.00,0.0226
926.00,0.0225
925.00,0.0225
924.00,0.0224
923.00,0.0223
922.00,0.0223
921.00,0.0222
920.00,0.0222
919.00,0.0223
918.00,0.0223
917.00,0.0223
916.00,0.0223
915.00,0.0222
914.00,0.0222
913.00,0.0222
912.00,0.0222
911.00,0.0223
910.00,0.0223
909.00,0.0224
908.00,0.0224
907.00,0.0225
906.00,0.0226
905.00,0.0226
904.00,0.0227
903.00,0.0227
902.00,0.0228
901.00,0.0229
900.00,0.0230
899.00,0.0230
898.00,0.0231
897.00,0.0232
896.00,0.0233
895.00,0.0234
894.00,0.0236
893.00,0.0237
892.00,0.0238
891.00,0.0239
890.00,0.0241
889.00,0.0242
888.00,0.0244
887.00,0.0245
886.00,0.0247
885.00,0.0249
884.00,0.0250
883.00,0.0252
882.00,0.0254
881.00,0.0255
880.00,0.0257
879.00,0.0259
878.00,0.0261
877.00,0.0263
876.00,0.0265
875.00,0.0267
874.00,0.0269
873.00,0.0271
872.00,0.0274
871.00,0.0276
870.00,0.0279
869.00,0.0281
868.00,0.0283
867.00,0.0285
866.00,0.0287
865.00,0.0290
864.00,0.0292
863.00,0.0295
862.00,0.0297
861.00,0.0301
860.00,0.0304
859.00,0.0307
858.00,0.0310
857.00,0.0313
856.00,0.0316
855.00,0.0319
854.00,0.0322
853.00,0.0325
852.00,0.0329
851.00,0.0332
850.00,0.0335
849.00,0.0339
848.00,0.0342
847.00,0.0346
846.00,0.0349
845.00,0.0353
844.00,0.0356
843.00,0.0359
842.00,0.0362
841.00,0.0365
840.00,0.0369
839.00,0.0373
838.00,0.0377
837.00,0.0381
836.00,0.0385
835.00,0.0389
834.00,0.0393
833.00,0.0396
832.00,0.0400
831.00,0.0404
830.00,0.0408
829.00,0.0412
828.00,0.0416
827.00,0.0420
826.00,0.0425
825.00,0.0429
824.00,0.0434
823.00,0.0438
822.00,0.0442
821.00,0.0447
820.00,0.0451
819.00,0.0456
818.00,0.0460
817.00,0.0465
816.00,0.0469
815.00,0.0474
814.00,0.0477
813.00,0.0481
812.00,0.0486
811.00,0.0490
810.00,0.0495
809.00,0.0499
808.00,0.0504
807.00,0.0509
806.00,0.0514
805.00,0.0519
804.00,0.0524
803.00,0.0529
802.00,0.0533
801.00,0.0538
800.00,0.0542
799.00,0.0547
798.00,0.0552
797.00,0.0557
796.00,0.0562
795.00,0.0568
794.00,0.0572
793.00,0.0577
792.00,0.0581
791.00,0.0587
790.00,0.0592
789.00,0.0597
788.00,0.0601
787.00,0.0606
786.00,0.0611
785.00,0.0616
784.00,0.0622
783.00,0.0627
782.00,0.0632
781.00,0.0637
780.00,0.0642
779.00,0.0648
778.00,0.0653
777.00,0.0658
776.00,0.0663
775.00,0.0668
774.00,0.0673
773.00,0.0677
772.00,0.0683
771.00,0.0688
770.00,0.0693
769.00,0.0699
768.00,0.0704
767.00,0.0709
766.00,0.0714
765.00,0.0719
764.00,0.0724
763.00,0.0729
762.00,0.0734
761.00,0.0738
760.00,0.0744
759.00,0.0749
758.00,0.0755
757.00,0.0760
756.00,0.0766
755.00,0.0771
754.00,0.0776
753.00,0.0782
752.00,0.0787
751.00,0.0792
750.00,0.0797
749.00,0.0802
748.00,0.0808
747.00,0.0814
746.00,0.0820
745.00,0.0825
744.00,0.0831
743.00,0.0837
742.00,0.0842
741.00,0.0847
740.00,0.0853
739.00,0.0858
738.00,0.0863
737.00,0.0868
736.00,0.0874
735.00,0.0880
734.00,0.0886
733.00,0.0892
732.00,0.0899
731.00,0.0904
730.00,0.0909
729.00,0.0914
728.00,0.0919
727.00,0.0925
726.00,0.0930
725.00,0.0935
724.00,0.0941
723.00,0.0947
722.00,0.0953
721.00,0.0959
720.00,0.0965
719.00,0.0970
718.00,0.0976
717.00,0.0981
716.00,0.0987
715.00,0.0993
714.00,0.0998
713.00,0.1004
712.00,0.1010
711.00,0.1016
710.00,0.1021
709.00,0.1026
708.00,0.1032
707.00,0.1037
706.00,0.1043
705.00,0.1049
704.00,0.1055
703.00,0.1061
702.00,0.1067
701.00,0.1073
700.00,0.1078
699.00,0.1084
698.00,0.1089
697.00,0.1094
696.00,0.1100
695.00,0.1105
694.00,0.1110
693.00,0.1115
692.00,0.1120
691.00,0.1126
690.00,0.1131
689.00,0.1137
688.00,0.1143
687.00,0.1149
686.00,0.1153
685.00,0.1158
684.00,0.1163
683.00,0.1168
682.00,0.1174
681.00,0.1179
680.00,0.1185
679.00,0.1190
678.00,0.1195
677.00,0.1199
676.00,0.1204
675.00,0.1209
674.00,0.1213
673.00,0.1218
672.00,0.1222
671.00,0.1225
670.00,0.1228
669.00,0.1233
668.00,0.1242
667.00,0.1250
666.00,0.1254
665.00,0.1255
664.00,0.1257
663.00,0.1261
662.00,0.1264
661.00,0.1268
660.00,0.1271
659.00,0.1274
658.00,0.1277
657.00,0.1281
656.00,0.1285
655.00,0.1288
654.00,0.1290
653.00,0.1292
652.00,0.1295
651.00,0.1298
650.00,0.1300
649.00,0.1302
648.00,0.1304
647.00,0.1306
646.00,0.1308
645.00,0.1311
644.00,0.1314
643.00,0.1317
642.00,0.1319
641.00,0.1320
640.00,0.1322
639.00,0.1323
638.00,0.1324
637.00,0.1324
636.00,0.1325
635.00,0.1326
634.00,0.1326
633.00,0.1327
632.00,0.1329
631.00,0.1331
630.00,0.1332
629.00,0.1332
628.00,0.1332
627.00,0.1332
626.00,0.1331
625.00,0.1330
624.00,0.1331
623.00,0.1332
622.00,0.1332
621.00,0.1331
620.00,0.1330
619.00,0.1328
618.00,0.1326
617.00,0.1325
616.00,0.1324
615.00,0.1323
614.00,0.1321
613.00,0.1318
612.00,0.1315
611.00,0.1311
610.00,0.1307
609.00,0.1305
608.00,0.1304
607.00,0.1304
606.00,0.1303
605.00,0.1302
604.00,0.1300
603.00,0.1298
602.00,0.1295
601.00,0.1291
600.00,0.1288
599.00,0.1285
598.00,0.1282
597.00,0.1280
596.00,0.1279
595.00,0.1276
594.00,0.1272
593.00,0.1267
592.00,0.1263
591.00,0.1259
590.00,0.1254
589.00,0.1250
588.00,0.1247
587.00,0.1244
586.00,0.1239
585.00,0.1234
584.00,0.1229
583.00,0.1225
582.00,0.1220
581.00,0.1216
580.00,0.1213
579.00,0.1210
578.00,0.1205
577.00,0.1200
576.00,0.1196
575.00,0.1192
574.00,0.1187
573.00,0.1182
572.00,0.1177
571.00,0.1173
570.00,0.1168
569.00,0.1162
568.00,0.1158
567.00,0.1154
566.00,0.1149
565.00,0.1144
564.00,0.1140
563.00,0.1135
562.00,0.1130
561.00,0.1124
560.00,0.1118
559.00,0.1113
558.00,0.1107
557.00,0.1101
556.00,0.1096
555.00,0.1090
554.00,0.1085
553.00,0.1081
552.00,0.1077
551.00,0.1072
550.00,0.1067
549.00,0.1062
548.00,0.1058
547.00,0.1053
546.00,0.1048
545.00,0.1041
544.00,0.1035
543.00,0.1029
542.00,0.1023
541.00,0.1018
540.00,0.1014
539.00,0.1009
538.00,0.1003
537.00,0.0998
536.00,0.0994
535.00,0.0990
534.00,0.0983
533.00,0.0976
532.00,0.0970
531.00,0.0964
530.00,0.0958
529.00,0.0954
528.00,0.0949
527.00,0.0943
526.00,0.0936
525.00,0.0930
524.00,0.0925
523.00,0.0920
522.00,0.0913
521.00,0.0906
520.00,0.0900
519.00,0.0894
518.00,0.0887
517.00,0.0882
516.00,0.0878
515.00,0.0875
514.00,0.0871
513.00,0.0867
512.00,0.0864
511.00,0.0859
510.00,0.0854
509.00,0.0849
508.00,0.0844
507.00,0.0840
506.00,0.0835
505.00,0.0829
504.00,0.0823
503.00,0.0818
502.00,0.0813
501.00,0.0809
500.00,0.0805
499.00,0.0800
498.00,0.0794
497.00,0.0788
496.00,0.0782
495.00,0.0778
494.00,0.0773
493.00,0.0770
492.00,0.0767
491.00,0.0763
490.00,0.0757
489.00,0.0751
488.00,0.0747
487.00,0.0743
486.00,0.0738
485.00,0.0733
484.00,0.0729
483.00,0.0725
482.00,0.0722
481.00,0.0718
480.00,0.0713
479.00,0.0706
478.00,0.0700
477.00,0.0694
476.00,0.0691
475.00,0.0689
474.00,0.0686
473.00,0.0683
472.00,0.0679
471.00,0.0675
470.00,0.0671
469.00,0.0667
468.00,0.0663
467.00,0.0658
466.00,0.0652
465.00,0.0646
464.00,0.0641
463.00,0.0636
462.00,0.0631
461.00,0.0627
460.00,0.0624
459.00,0.0620
458.00,0.0616
457.00,0.0614
456.00,0.0615
455.00,0.0615
454.00,0.0613
453.00,0.0609
452.00,0.0604
451.00,0.0597
450.00,0.0590
449.00,0.0585
448.00,0.0581
447.00,0.0579
446.00,0.0576
445.00,0.0574
444.00,0.0572
443.00,0.0570
442.00,0.0567
441.00,0.0563
440.00,0.0559
439.00,0.0555
438.00,0.0551
437.00,0.0550
436.00,0.0552
435.00,0.0552
434.00,0.0548
433.00,0.0542
432.00,0.0538
431.00,0.0538
430.00,0.0537
429.00,0.0535
428.00,0.0532
427.00,0.0528
426.00,0.0523
425.00,0.0517
424.00,0.0511
423.00,0.0503
422.00,0.0496
421.00,0.0492
420.00,0.0492
419.00,0.0496
418.00,0.0499
417.00,0.0499
416.00,0.0499
415.00,0.0498
414.00,0.0498
413.00,0.0499
412.00,0.0498
411.00,0.0491
410.00,0.0478
409.00,0.0464
408.00,0.0456
407.00,0.0456
406.00,0.0459
405.00,0.0459
404.00,0.0456
403.00,0.0452
402.00,0.0450
401.00,0.0451
400.00,0.0458
