Created as New Dataset,Sample 877 By YargerLab Date Monday, July 21 2025
cm-1,A
4000.00,0.0038
3999.00,0.0038
3998.00,0.0038
3997.00,0.0038
3996.00,0.0038
3995.00,0.0038
3994.00,0.0038
3993.00,0.0037
3992.00,0.0037
3991.00,0.0037
3990.00,0.0037
3989.00,0.0038
3988.00,0.0038
3987.00,0.0038
3986.00,0.0038
3985.00,0.0038
3984.00,0.0038
3983.00,0.0037
3982.00,0.0037
3981.00,0.0037
3980.00,0.0037
3979.00,0.0037
3978.00,0.0037
3977.00,0.0037
3976.00,0.0037
3975.00,0.0037
3974.00,0.0037
3973.00,0.0037
3972.00,0.0037
3971.00,0.0037
3970.00,0.0038
3969.00,0.0038
3968.00,0.0038
3967.00,0.0038
3966.00,0.0038
3965.00,0.0038
3964.00,0.0038
3963.00,0.0038
3962.00,0.0038
3961.00,0.0038
3960.00,0.0037
3959.00,0.0038
3958.00,0.0038
3957.00,0.0038
3956.00,0.0038
3955.00,0.0038
3954.00,0.0038
3953.00,0.0038
3952.00,0.0038
3951.00,0.0038
3950.00,0.0038
3949.00,0.0038
3948.00,0.0038
3947.00,0.0038
3946.00,0.0038
3945.00,0.0038
3944.00,0.0038
3943.00,0.0038
3942.00,0.0038
3941.00,0.0038
3940.00,0.0038
3939.00,0.0038
3938.00,0.0038
3937.00,0.0038
3936.00,0.0038
3935.00,0.0038
3934.00,0.0038
3933.00,0.0038
3932.00,0.0038
3931.00,0.0038
3930.00,0.0038
3929.00,0.0038
3928.00,0.0038
3927.00,0.0038
3926.00,0.0038
3925.00,0.0038
3924.00,0.0038
3923.00,0.0038
3922.00,0.0039
3921.00,0.0039
3920.00,0.0039
3919.00,0.0039
3918.00,0.0039
3917.00,0.0038
3916.00,0.0038
3915.00,0.0038
3914.00,0.0037
3913.00,0.0037
3912.00,0.0037
3911.00,0.0037
3910.00,0.0038
3909.00,0.0038
3908.00,0.0038
3907.00,0.0038
3906.00,0.0038
3905.00,0.0038
3904.00,0.0038
3903.00,0.0038
3902.00,0.0038
3901.00,0.0038
3900.00,0.0037
3899.00,0.0037
3898.00,0.0037
3897.00,0.0037
3896.00,0.0037
3895.00,0.0037
3894.00,0.0037
3893.00,0.0037
3892.00,0.0037
3891.00,0.0037
3890.00,0.0037
3889.00,0.0037
3888.00,0.0037
3887.00,0.0037
3886.00,0.0037
3885.00,0.0037
3884.00,0.0037
3883.00,0.0037
3882.00,0.0036
3881.00,0.0036
3880.00,0.0037
3879.00,0.0037
3878.00,0.0037
3877.00,0.0037
3876.00,0.0037
3875.00,0.0037
3874.00,0.0037
3873.00,0.0037
3872.00,0.0037
3871.00,0.0037
3870.00,0.0036
3869.00,0.0036
3868.00,0.0036
3867.00,0.0036
3866.00,0.0037
3865.00,0.0037
3864.00,0.0037
3863.00,0.0037
3862.00,0.0037
3861.00,0.0036
3860.00,0.0036
3859.00,0.0036
3858.00,0.0036
3857.00,0.0036
3856.00,0.0036
3855.00,0.0036
3854.00,0.0036
3853.00,0.0036
3852.00,0.0036
3851.00,0.0036
3850.00,0.0036
3849.00,0.0036
3848.00,0.0037
3847.00,0.0037
3846.00,0.0037
3845.00,0.0037
3844.00,0.0037
3843.00,0.0038
3842.00,0.0038
3841.00,0.0037
3840.00,0.0037
3839.00,0.0036
3838.00,0.0036
3837.00,0.0036
3836.00,0.0036
3835.00,0.0036
3834.00,0.0036
3833.00,0.0036
3832.00,0.0036
3831.00,0.0036
3830.00,0.0036
3829.00,0.0036
3828.00,0.0036
3827.00,0.0036
3826.00,0.0037
3825.00,0.0037
3824.00,0.0037
3823.00,0.0037
3822.00,0.0037
3821.00,0.0036
3820.00,0.0036
3819.00,0.0036
3818.00,0.0036
3817.00,0.0036
3816.00,0.0036
3815.00,0.0036
3814.00,0.0036
3813.00,0.0036
3812.00,0.0036
3811.00,0.0036
3810.00,0.0037
3809.00,0.0037
3808.00,0.0037
3807.00,0.0036
3806.00,0.0036
3805.00,0.0037
3804.00,0.0036
3803.00,0.0036
3802.00,0.0036
3801.00,0.0036
3800.00,0.0036
3799.00,0.0036
3798.00,0.0036
3797.00,0.0036
3796.00,0.0036
3795.00,0.0036
3794.00,0.0036
3793.00,0.0036
3792.00,0.0036
3791.00,0.0036
3790.00,0.0036
3789.00,0.0036
3788.00,0.0036
3787.00,0.0036
3786.00,0.0036
3785.00,0.0037
3784.00,0.0037
3783.00,0.0037
3782.00,0.0037
3781.00,0.0037
3780.00,0.0036
3779.00,0.0036
3778.00,0.0036
3777.00,0.0037
3776.00,0.0037
3775.00,0.0037
3774.00,0.0037
3773.00,0.0037
3772.00,0.0037
3771.00,0.0037
3770.00,0.0037
3769.00,0.0037
3768.00,0.0037
3767.00,0.0037
3766.00,0.0037
3765.00,0.0037
3764.00,0.0037
3763.00,0.0037
3762.00,0.0037
3761.00,0.0037
3760.00,0.0037
3759.00,0.0037
3758.00,0.0037
3757.00,0.0038
3756.00,0.0038
3755.00,0.0037
3754.00,0.0037
3753.00,0.0036
3752.00,0.0036
3751.00,0.0036
3750.00,0.0036
3749.00,0.0037
3748.00,0.0037
3747.00,0.0037
3746.00,0.0037
3745.00,0.0037
3744.00,0.0036
3743.00,0.0036
3742.00,0.0036
3741.00,0.0036
3740.00,0.0037
3739.00,0.0037
3738.00,0.0037
3737.00,0.0036
3736.00,0.0036
3735.00,0.0036
3734.00,0.0035
3733.00,0.0035
3732.00,0.0035
3731.00,0.0035
3730.00,0.0035
3729.00,0.0035
3728.00,0.0035
3727.00,0.0035
3726.00,0.0035
3725.00,0.0035
3724.00,0.0035
3723.00,0.0036
3722.00,0.0036
3721.00,0.0036
3720.00,0.0037
3719.00,0.0036
3718.00,0.0036
3717.00,0.0036
3716.00,0.0036
3715.00,0.0036
3714.00,0.0036
3713.00,0.0036
3712.00,0.0035
3711.00,0.0035
3710.00,0.0035
3709.00,0.0035
3708.00,0.0035
3707.00,0.0035
3706.00,0.0035
3705.00,0.0035
3704.00,0.0035
3703.00,0.0035
3702.00,0.0035
3701.00,0.0035
3700.00,0.0036
3699.00,0.0036
3698.00,0.0036
3697.00,0.0036
3696.00,0.0036
3695.00,0.0036
3694.00,0.0036
3693.00,0.0036
3692.00,0.0036
3691.00,0.0035
3690.00,0.0035
3689.00,0.0035
3688.00,0.0035
3687.00,0.0036
3686.00,0.0036
3685.00,0.0036
3684.00,0.0037
3683.00,0.0037
3682.00,0.0037
3681.00,0.0037
3680.00,0.0037
3679.00,0.0037
3678.00,0.0037
3677.00,0.0038
3676.00,0.0038
3675.00,0.0038
3674.00,0.0038
3673.00,0.0038
3672.00,0.0038
3671.00,0.0038
3670.00,0.0038
3669.00,0.0038
3668.00,0.0039
3667.00,0.0039
3666.00,0.0040
3665.00,0.0040
3664.00,0.0040
3663.00,0.0040
3662.00,0.0040
3661.00,0.0040
3660.00,0.0041
3659.00,0.0041
3658.00,0.0041
3657.00,0.0042
3656.00,0.0042
3655.00,0.0042
3654.00,0.0042
3653.00,0.0042
3652.00,0.0042
3651.00,0.0042
3650.00,0.0043
3649.00,0.0043
3648.00,0.0044
3647.00,0.0045
3646.00,0.0045
3645.00,0.0045
3644.00,0.0046
3643.00,0.0046
3642.00,0.0046
3641.00,0.0046
3640.00,0.0046
3639.00,0.0047
3638.00,0.0047
3637.00,0.0047
3636.00,0.0048
3635.00,0.0048
3634.00,0.0049
3633.00,0.0049
3632.00,0.0049
3631.00,0.0049
3630.00,0.0049
3629.00,0.0050
3628.00,0.0052
3627.00,0.0052
3626.00,0.0053
3625.00,0.0053
3624.00,0.0053
3623.00,0.0053
3622.00,0.0053
3621.00,0.0054
3620.00,0.0054
3619.00,0.0055
3618.00,0.0056
3617.00,0.0057
3616.00,0.0057
3615.00,0.0058
3614.00,0.0058
3613.00,0.0059
3612.00,0.0060
3611.00,0.0061
3610.00,0.0062
3609.00,0.0063
3608.00,0.0064
3607.00,0.0064
3606.00,0.0065
3605.00,0.0065
3604.00,0.0065
3603.00,0.0065
3602.00,0.0065
3601.00,0.0066
3600.00,0.0066
3599.00,0.0067
3598.00,0.0068
3597.00,0.0069
3596.00,0.0070
3595.00,0.0071
3594.00,0.0072
3593.00,0.0073
3592.00,0.0073
3591.00,0.0073
3590.00,0.0074
3589.00,0.0075
3588.00,0.0077
3587.00,0.0079
3586.00,0.0080
3585.00,0.0081
3584.00,0.0081
3583.00,0.0082
3582.00,0.0082
3581.00,0.0083
3580.00,0.0083
3579.00,0.0084
3578.00,0.0085
3577.00,0.0086
3576.00,0.0087
3575.00,0.0088
3574.00,0.0089
3573.00,0.0090
3572.00,0.0090
3571.00,0.0091
3570.00,0.0091
3569.00,0.0092
3568.00,0.0095
3567.00,0.0097
3566.00,0.0099
3565.00,0.0100
3564.00,0.0101
3563.00,0.0101
3562.00,0.0102
3561.00,0.0103
3560.00,0.0104
3559.00,0.0105
3558.00,0.0106
3557.00,0.0107
3556.00,0.0108
3555.00,0.0109
3554.00,0.0110
3553.00,0.0112
3552.00,0.0114
3551.00,0.0115
3550.00,0.0116
3549.00,0.0117
3548.00,0.0118
3547.00,0.0120
3546.00,0.0122
3545.00,0.0125
3544.00,0.0127
3543.00,0.0129
3542.00,0.0130
3541.00,0.0132
3540.00,0.0134
3539.00,0.0136
3538.00,0.0139
3537.00,0.0142
3536.00,0.0145
3535.00,0.0149
3534.00,0.0153
3533.00,0.0157
3532.00,0.0162
3531.00,0.0168
3530.00,0.0175
3529.00,0.0183
3528.00,0.0193
3527.00,0.0203
3526.00,0.0212
3525.00,0.0222
3524.00,0.0231
3523.00,0.0239
3522.00,0.0244
3521.00,0.0248
3520.00,0.0250
3519.00,0.0249
3518.00,0.0248
3517.00,0.0245
3516.00,0.0240
3515.00,0.0236
3514.00,0.0230
3513.00,0.0224
3512.00,0.0219
3511.00,0.0214
3510.00,0.0209
3509.00,0.0205
3508.00,0.0201
3507.00,0.0197
3506.00,0.0193
3505.00,0.0190
3504.00,0.0188
3503.00,0.0187
3502.00,0.0186
3501.00,0.0186
3500.00,0.0185
3499.00,0.0184
3498.00,0.0184
3497.00,0.0184
3496.00,0.0185
3495.00,0.0185
3494.00,0.0185
3493.00,0.0185
3492.00,0.0185
3491.00,0.0185
3490.00,0.0186
3489.00,0.0187
3488.00,0.0188
3487.00,0.0189
3486.00,0.0189
3485.00,0.0190
3484.00,0.0191
3483.00,0.0192
3482.00,0.0193
3481.00,0.0195
3480.00,0.0196
3479.00,0.0197
3478.00,0.0198
3477.00,0.0199
3476.00,0.0201
3475.00,0.0202
3474.00,0.0204
3473.00,0.0206
3472.00,0.0207
3471.00,0.0209
3470.00,0.0211
3469.00,0.0213
3468.00,0.0215
3467.00,0.0217
3466.00,0.0218
3465.00,0.0220
3464.00,0.0221
3463.00,0.0223
3462.00,0.0226
3461.00,0.0228
3460.00,0.0230
3459.00,0.0232
3458.00,0.0234
3457.00,0.0236
3456.00,0.0238
3455.00,0.0240
3454.00,0.0242
3453.00,0.0244
3452.00,0.0245
3451.00,0.0247
3450.00,0.0248
3449.00,0.0250
3448.00,0.0253
3447.00,0.0255
3446.00,0.0257
3445.00,0.0259
3444.00,0.0261
3443.00,0.0263
3442.00,0.0264
3441.00,0.0266
3440.00,0.0268
3439.00,0.0270
3438.00,0.0271
3437.00,0.0273
3436.00,0.0275
3435.00,0.0276
3434.00,0.0277
3433.00,0.0278
3432.00,0.0280
3431.00,0.0281
3430.00,0.0283
3429.00,0.0284
3428.00,0.0286
3427.00,0.0287
3426.00,0.0289
3425.00,0.0290
3424.00,0.0292
3423.00,0.0294
3422.00,0.0296
3421.00,0.0299
3420.00,0.0301
3419.00,0.0304
3418.00,0.0307
3417.00,0.0310
3416.00,0.0312
3415.00,0.0315
3414.00,0.0317
3413.00,0.0320
3412.00,0.0322
3411.00,0.0323
3410.00,0.0324
3409.00,0.0325
3408.00,0.0325
3407.00,0.0324
3406.00,0.0323
3405.00,0.0321
3404.00,0.0318
3403.00,0.0314
3402.00,0.0310
3401.00,0.0306
3400.00,0.0301
3399.00,0.0296
3398.00,0.0291
3397.00,0.0285
3396.00,0.0279
3395.00,0.0273
3394.00,0.0268
3393.00,0.0262
3392.00,0.0257
3391.00,0.0253
3390.00,0.0248
3389.00,0.0244
3388.00,0.0240
3387.00,0.0236
3386.00,0.0232
3385.00,0.0228
3384.00,0.0225
3383.00,0.0222
3382.00,0.0218
3381.00,0.0215
3380.00,0.0212
3379.00,0.0209
3378.00,0.0207
3377.00,0.0204
3376.00,0.0202
3375.00,0.0200
3374.00,0.0197
3373.00,0.0195
3372.00,0.0192
3371.00,0.0190
3370.00,0.0187
3369.00,0.0186
3368.00,0.0184
3367.00,0.0183
3366.00,0.0182
3365.00,0.0181
3364.00,0.0179
3363.00,0.0177
3362.00,0.0175
3361.00,0.0174
3360.00,0.0172
3359.00,0.0171
3358.00,0.0170
3357.00,0.0168
3356.00,0.0167
3355.00,0.0165
3354.00,0.0163
3353.00,0.0162
3352.00,0.0160
3351.00,0.0159
3350.00,0.0158
3349.00,0.0157
3348.00,0.0156
3347.00,0.0155
3346.00,0.0154
3345.00,0.0153
3344.00,0.0151
3343.00,0.0150
3342.00,0.0149
3341.00,0.0148
3340.00,0.0147
3339.00,0.0146
3338.00,0.0146
3337.00,0.0145
3336.00,0.0145
3335.00,0.0144
3334.00,0.0144
3333.00,0.0143
3332.00,0.0143
3331.00,0.0142
3330.00,0.0141
3329.00,0.0139
3328.00,0.0138
3327.00,0.0137
3326.00,0.0136
3325.00,0.0136
3324.00,0.0136
3323.00,0.0136
3322.00,0.0136
3321.00,0.0135
3320.00,0.0135
3319.00,0.0135
3318.00,0.0134
3317.00,0.0133
3316.00,0.0132
3315.00,0.0132
3314.00,0.0131
3313.00,0.0131
3312.00,0.0130
3311.00,0.0129
3310.00,0.0127
3309.00,0.0126
3308.00,0.0125
3307.00,0.0124
3306.00,0.0124
3305.00,0.0124
3304.00,0.0125
3303.00,0.0126
3302.00,0.0126
3301.00,0.0126
3300.00,0.0125
3299.00,0.0124
3298.00,0.0123
3297.00,0.0122
3296.00,0.0121
3295.00,0.0120
3294.00,0.0120
3293.00,0.0120
3292.00,0.0120
3291.00,0.0120
3290.00,0.0121
3289.00,0.0121
3288.00,0.0121
3287.00,0.0121
3286.00,0.0120
3285.00,0.0120
3284.00,0.0119
3283.00,0.0119
3282.00,0.0118
3281.00,0.0118
3280.00,0.0118
3279.00,0.0117
3278.00,0.0116
3277.00,0.0115
3276.00,0.0114
3275.00,0.0113
3274.00,0.0112
3273.00,0.0111
3272.00,0.0110
3271.00,0.0110
3270.00,0.0110
3269.00,0.0111
3268.00,0.0111
3267.00,0.0112
3266.00,0.0112
3265.00,0.0112
3264.00,0.0111
3263.00,0.0111
3262.00,0.0110
3261.00,0.0110
3260.00,0.0109
3259.00,0.0108
3258.00,0.0107
3257.00,0.0106
3256.00,0.0106
3255.00,0.0106
3254.00,0.0106
3253.00,0.0105
3252.00,0.0105
3251.00,0.0104
3250.00,0.0103
3249.00,0.0102
3248.00,0.0101
3247.00,0.0100
3246.00,0.0100
3245.00,0.0100
3244.00,0.0100
3243.00,0.0100
3242.00,0.0100
3241.00,0.0099
3240.00,0.0099
3239.00,0.0098
3238.00,0.0097
3237.00,0.0096
3236.00,0.0095
3235.00,0.0094
3234.00,0.0093
3233.00,0.0093
3232.00,0.0093
3231.00,0.0093
3230.00,0.0092
3229.00,0.0092
3228.00,0.0092
3227.00,0.0091
3226.00,0.0091
3225.00,0.0091
3224.00,0.0090
3223.00,0.0090
3222.00,0.0089
3221.00,0.0088
3220.00,0.0088
3219.00,0.0087
3218.00,0.0087
3217.00,0.0087
3216.00,0.0086
3215.00,0.0086
3214.00,0.0085
3213.00,0.0084
3212.00,0.0084
3211.00,0.0083
3210.00,0.0082
3209.00,0.0082
3208.00,0.0082
3207.00,0.0081
3206.00,0.0081
3205.00,0.0081
3204.00,0.0080
3203.00,0.0080
3202.00,0.0080
3201.00,0.0079
3200.00,0.0079
3199.00,0.0078
3198.00,0.0078
3197.00,0.0077
3196.00,0.0077
3195.00,0.0077
3194.00,0.0076
3193.00,0.0075
3192.00,0.0075
3191.00,0.0075
3190.00,0.0074
3189.00,0.0074
3188.00,0.0074
3187.00,0.0073
3186.00,0.0073
3185.00,0.0072
3184.00,0.0072
3183.00,0.0072
3182.00,0.0072
3181.00,0.0072
3180.00,0.0071
3179.00,0.0071
3178.00,0.0071
3177.00,0.0070
3176.00,0.0070
3175.00,0.0070
3174.00,0.0069
3173.00,0.0069
3172.00,0.0069
3171.00,0.0069
3170.00,0.0069
3169.00,0.0069
3168.00,0.0069
3167.00,0.0069
3166.00,0.0069
3165.00,0.0069
3164.00,0.0068
3163.00,0.0068
3162.00,0.0067
3161.00,0.0066
3160.00,0.0066
3159.00,0.0066
3158.00,0.0065
3157.00,0.0065
3156.00,0.0065
3155.00,0.0064
3154.00,0.0064
3153.00,0.0064
3152.00,0.0064
3151.00,0.0064
3150.00,0.0063
3149.00,0.0063
3148.00,0.0063
3147.00,0.0063
3146.00,0.0063
3145.00,0.0062
3144.00,0.0062
3143.00,0.0062
3142.00,0.0061
3141.00,0.0061
3140.00,0.0061
3139.00,0.0061
3138.00,0.0061
3137.00,0.0061
3136.00,0.0061
3135.00,0.0061
3134.00,0.0060
3133.00,0.0060
3132.00,0.0060
3131.00,0.0059
3130.00,0.0059
3129.00,0.0059
3128.00,0.0058
3127.00,0.0058
3126.00,0.0058
3125.00,0.0058
3124.00,0.0057
3123.00,0.0057
3122.00,0.0057
3121.00,0.0057
3120.00,0.0057
3119.00,0.0057
3118.00,0.0057
3117.00,0.0057
3116.00,0.0057
3115.00,0.0057
3114.00,0.0057
3113.00,0.0056
3112.00,0.0056
3111.00,0.0056
3110.00,0.0056
3109.00,0.0056
3108.00,0.0057
3107.00,0.0057
3106.00,0.0056
3105.00,0.0056
3104.00,0.0056
3103.00,0.0055
3102.00,0.0055
3101.00,0.0055
3100.00,0.0056
3099.00,0.0056
3098.00,0.0056
3097.00,0.0055
3096.00,0.0055
3095.00,0.0055
3094.00,0.0055
3093.00,0.0055
3092.00,0.0055
3091.00,0.0055
3090.00,0.0055
3089.00,0.0056
3088.00,0.0056
3087.00,0.0056
3086.00,0.0056
3085.00,0.0057
3084.00,0.0057
3083.00,0.0059
3082.00,0.0060
3081.00,0.0062
3080.00,0.0065
3079.00,0.0068
3078.00,0.0072
3077.00,0.0075
3076.00,0.0077
3075.00,0.0078
3074.00,0.0078
3073.00,0.0076
3072.00,0.0073
3071.00,0.0069
3070.00,0.0066
3069.00,0.0063
3068.00,0.0061
3067.00,0.0060
3066.00,0.0059
3065.00,0.0058
3064.00,0.0057
3063.00,0.0056
3062.00,0.0056
3061.00,0.0055
3060.00,0.0055
3059.00,0.0055
3058.00,0.0054
3057.00,0.0054
3056.00,0.0054
3055.00,0.0054
3054.00,0.0054
3053.00,0.0054
3052.00,0.0053
3051.00,0.0053
3050.00,0.0053
3049.00,0.0054
3048.00,0.0054
3047.00,0.0055
3046.00,0.0055
3045.00,0.0055
3044.00,0.0055
3043.00,0.0056
3042.00,0.0056
3041.00,0.0056
3040.00,0.0057
3039.00,0.0057
3038.00,0.0058
3037.00,0.0058
3036.00,0.0059
3035.00,0.0059
3034.00,0.0060
3033.00,0.0060
3032.00,0.0061
3031.00,0.0061
3030.00,0.0061
3029.00,0.0060
3028.00,0.0060
3027.00,0.0059
3026.00,0.0059
3025.00,0.0058
3024.00,0.0058
3023.00,0.0058
3022.00,0.0058
3021.00,0.0058
3020.00,0.0058
3019.00,0.0059
3018.00,0.0059
3017.00,0.0060
3016.00,0.0060
3015.00,0.0061
3014.00,0.0062
3013.00,0.0063
3012.00,0.0064
3011.00,0.0065
3010.00,0.0066
3009.00,0.0068
3008.00,0.0069
3007.00,0.0070
3006.00,0.0071
3005.00,0.0073
3004.00,0.0074
3003.00,0.0076
3002.00,0.0077
3001.00,0.0079
3000.00,0.0081
2999.00,0.0083
2998.00,0.0085
2997.00,0.0087
2996.00,0.0089
2995.00,0.0092
2994.00,0.0094
2993.00,0.0096
2992.00,0.0098
2991.00,0.0101
2990.00,0.0104
2989.00,0.0106
2988.00,0.0108
2987.00,0.0110
2986.00,0.0111
2985.00,0.0113
2984.00,0.0114
2983.00,0.0116
2982.00,0.0118
2981.00,0.0121
2980.00,0.0124
2979.00,0.0128
2978.00,0.0132
2977.00,0.0136
2976.00,0.0142
2975.00,0.0148
2974.00,0.0154
2973.00,0.0161
2972.00,0.0168
2971.00,0.0175
2970.00,0.0182
2969.00,0.0188
2968.00,0.0193
2967.00,0.0198
2966.00,0.0201
2965.00,0.0203
2964.00,0.0204
2963.00,0.0204
2962.00,0.0204
2961.00,0.0204
2960.00,0.0203
2959.00,0.0201
2958.00,0.0200
2957.00,0.0197
2956.00,0.0195
2955.00,0.0192
2954.00,0.0190
2953.00,0.0188
2952.00,0.0188
2951.00,0.0187
2950.00,0.0188
2949.00,0.0190
2948.00,0.0192
2947.00,0.0196
2946.00,0.0201
2945.00,0.0206
2944.00,0.0211
2943.00,0.0216
2942.00,0.0220
2941.00,0.0224
2940.00,0.0228
2939.00,0.0231
2938.00,0.0235
2937.00,0.0239
2936.00,0.0243
2935.00,0.0249
2934.00,0.0254
2933.00,0.0260
2932.00,0.0266
2931.00,0.0272
2930.00,0.0277
2929.00,0.0283
2928.00,0.0289
2927.00,0.0293
2926.00,0.0296
2925.00,0.0297
2924.00,0.0296
2923.00,0.0295
2922.00,0.0293
2921.00,0.0291
2920.00,0.0289
2919.00,0.0287
2918.00,0.0285
2917.00,0.0283
2916.00,0.0281
2915.00,0.0278
2914.00,0.0274
2913.00,0.0270
2912.00,0.0264
2911.00,0.0258
2910.00,0.0252
2909.00,0.0246
2908.00,0.0240
2907.00,0.0234
2906.00,0.0229
2905.00,0.0224
2904.00,0.0220
2903.00,0.0217
2902.00,0.0214
2901.00,0.0211
2900.00,0.0209
2899.00,0.0206
2898.00,0.0203
2897.00,0.0200
2896.00,0.0196
2895.00,0.0193
2894.00,0.0190
2893.00,0.0188
2892.00,0.0186
2891.00,0.0184
2890.00,0.0182
2889.00,0.0181
2888.00,0.0181
2887.00,0.0180
2886.00,0.0179
2885.00,0.0179
2884.00,0.0179
2883.00,0.0178
2882.00,0.0178
2881.00,0.0178
2880.00,0.0179
2879.00,0.0179
2878.00,0.0180
2877.00,0.0180
2876.00,0.0181
2875.00,0.0182
2874.00,0.0183
2873.00,0.0183
2872.00,0.0184
2871.00,0.0183
2870.00,0.0182
2869.00,0.0180
2868.00,0.0179
2867.00,0.0177
2866.00,0.0177
2865.00,0.0178
2864.00,0.0180
2863.00,0.0183
2862.00,0.0189
2861.00,0.0196
2860.00,0.0204
2859.00,0.0212
2858.00,0.0219
2857.00,0.0224
2856.00,0.0225
2855.00,0.0222
2854.00,0.0216
2853.00,0.0206
2852.00,0.0195
2851.00,0.0184
2850.00,0.0172
2849.00,0.0162
2848.00,0.0153
2847.00,0.0145
2846.00,0.0138
2845.00,0.0132
2844.00,0.0127
2843.00,0.0122
2842.00,0.0118
2841.00,0.0114
2840.00,0.0112
2839.00,0.0110
2838.00,0.0109
2837.00,0.0110
2836.00,0.0111
2835.00,0.0114
2834.00,0.0118
2833.00,0.0123
2832.00,0.0128
2831.00,0.0132
2830.00,0.0133
2829.00,0.0133
2828.00,0.0129
2827.00,0.0123
2826.00,0.0116
2825.00,0.0109
2824.00,0.0102
2823.00,0.0096
2822.00,0.0091
2821.00,0.0087
2820.00,0.0084
2819.00,0.0081
2818.00,0.0079
2817.00,0.0078
2816.00,0.0076
2815.00,0.0075
2814.00,0.0074
2813.00,0.0072
2812.00,0.0071
2811.00,0.0070
2810.00,0.0069
2809.00,0.0069
2808.00,0.0068
2807.00,0.0067
2806.00,0.0067
2805.00,0.0066
2804.00,0.0066
2803.00,0.0065
2802.00,0.0065
2801.00,0.0064
2800.00,0.0063
2799.00,0.0063
2798.00,0.0062
2797.00,0.0062
2796.00,0.0061
2795.00,0.0061
2794.00,0.0060
2793.00,0.0060
2792.00,0.0060
2791.00,0.0059
2790.00,0.0059
2789.00,0.0059
2788.00,0.0058
2787.00,0.0058
2786.00,0.0058
2785.00,0.0058
2784.00,0.0058
2783.00,0.0057
2782.00,0.0057
2781.00,0.0057
2780.00,0.0056
2779.00,0.0056
2778.00,0.0056
2777.00,0.0055
2776.00,0.0055
2775.00,0.0055
2774.00,0.0055
2773.00,0.0054
2772.00,0.0054
2771.00,0.0054
2770.00,0.0054
2769.00,0.0054
2768.00,0.0054
2767.00,0.0054
2766.00,0.0053
2765.00,0.0053
2764.00,0.0053
2763.00,0.0053
2762.00,0.0053
2761.00,0.0053
2760.00,0.0053
2759.00,0.0053
2758.00,0.0053
2757.00,0.0053
2756.00,0.0053
2755.00,0.0053
2754.00,0.0053
2753.00,0.0053
2752.00,0.0052
2751.00,0.0052
2750.00,0.0052
2749.00,0.0052
2748.00,0.0052
2747.00,0.0052
2746.00,0.0052
2745.00,0.0053
2744.00,0.0053
2743.00,0.0053
2742.00,0.0053
2741.00,0.0053
2740.00,0.0053
2739.00,0.0053
2738.00,0.0053
2737.00,0.0053
2736.00,0.0053
2735.00,0.0054
2734.00,0.0054
2733.00,0.0055
2732.00,0.0055
2731.00,0.0056
2730.00,0.0056
2729.00,0.0056
2728.00,0.0056
2727.00,0.0055
2726.00,0.0055
2725.00,0.0054
2724.00,0.0054
2723.00,0.0053
2722.00,0.0053
2721.00,0.0053
2720.00,0.0052
2719.00,0.0052
2718.00,0.0052
2717.00,0.0051
2716.00,0.0051
2715.00,0.0051
2714.00,0.0051
2713.00,0.0050
2712.00,0.0050
2711.00,0.0050
2710.00,0.0050
2709.00,0.0049
2708.00,0.0049
2707.00,0.0049
2706.00,0.0049
2705.00,0.0049
2704.00,0.0049
2703.00,0.0049
2702.00,0.0049
2701.00,0.0049
2700.00,0.0049
2699.00,0.0048
2698.00,0.0048
2697.00,0.0048
2696.00,0.0048
2695.00,0.0048
2694.00,0.0048
2693.00,0.0048
2692.00,0.0048
2691.00,0.0048
2690.00,0.0048
2689.00,0.0048
2688.00,0.0048
2687.00,0.0048
2686.00,0.0048
2685.00,0.0048
2684.00,0.0048
2683.00,0.0048
2682.00,0.0048
2681.00,0.0048
2680.00,0.0048
2679.00,0.0048
2678.00,0.0048
2677.00,0.0048
2676.00,0.0049
2675.00,0.0049
2674.00,0.0049
2673.00,0.0049
2672.00,0.0049
2671.00,0.0050
2670.00,0.0050
2669.00,0.0050
2668.00,0.0050
2667.00,0.0050
2666.00,0.0051
2665.00,0.0051
2664.00,0.0052
2663.00,0.0052
2662.00,0.0053
2661.00,0.0053
2660.00,0.0053
2659.00,0.0053
2658.00,0.0053
2657.00,0.0053
2656.00,0.0054
2655.00,0.0054
2654.00,0.0054
2653.00,0.0054
2652.00,0.0054
2651.00,0.0054
2650.00,0.0054
2649.00,0.0054
2648.00,0.0054
2647.00,0.0053
2646.00,0.0053
2645.00,0.0053
2644.00,0.0053
2643.00,0.0053
2642.00,0.0053
2641.00,0.0053
2640.00,0.0053
2639.00,0.0053
2638.00,0.0052
2637.00,0.0052
2636.00,0.0052
2635.00,0.0052
2634.00,0.0052
2633.00,0.0052
2632.00,0.0052
2631.00,0.0052
2630.00,0.0052
2629.00,0.0052
2628.00,0.0052
2627.00,0.0052
2626.00,0.0052
2625.00,0.0052
2624.00,0.0051
2623.00,0.0051
2622.00,0.0051
2621.00,0.0051
2620.00,0.0051
2619.00,0.0051
2618.00,0.0051
2617.00,0.0051
2616.00,0.0051
2615.00,0.0051
2614.00,0.0051
2613.00,0.0051
2612.00,0.0051
2611.00,0.0051
2610.00,0.0051
2609.00,0.0051
2608.00,0.0051
2607.00,0.0051
2606.00,0.0051
2605.00,0.0051
2604.00,0.0050
2603.00,0.0050
2602.00,0.0050
2601.00,0.0050
2600.00,0.0050
2599.00,0.0050
2598.00,0.0050
2597.00,0.0050
2596.00,0.0050
2595.00,0.0050
2594.00,0.0050
2593.00,0.0050
2592.00,0.0049
2591.00,0.0049
2590.00,0.0049
2589.00,0.0049
2588.00,0.0049
2587.00,0.0049
2586.00,0.0049
2585.00,0.0049
2584.00,0.0049
2583.00,0.0049
2582.00,0.0049
2581.00,0.0049
2580.00,0.0049
2579.00,0.0049
2578.00,0.0049
2577.00,0.0049
2576.00,0.0049
2575.00,0.0049
2574.00,0.0049
2573.00,0.0049
2572.00,0.0049
2571.00,0.0049
2570.00,0.0048
2569.00,0.0048
2568.00,0.0048
2567.00,0.0048
2566.00,0.0048
2565.00,0.0048
2564.00,0.0048
2563.00,0.0048
2562.00,0.0048
2561.00,0.0048
2560.00,0.0048
2559.00,0.0048
2558.00,0.0048
2557.00,0.0048
2556.00,0.0047
2555.00,0.0047
2554.00,0.0047
2553.00,0.0047
2552.00,0.0047
2551.00,0.0047
2550.00,0.0047
2549.00,0.0047
2548.00,0.0047
2547.00,0.0047
2546.00,0.0046
2545.00,0.0046
2544.00,0.0046
2543.00,0.0046
2542.00,0.0046
2541.00,0.0046
2540.00,0.0046
2539.00,0.0046
2538.00,0.0046
2537.00,0.0046
2536.00,0.0046
2535.00,0.0045
2534.00,0.0045
2533.00,0.0045
2532.00,0.0045
2531.00,0.0045
2530.00,0.0045
2529.00,0.0045
2528.00,0.0045
2527.00,0.0045
2526.00,0.0045
2525.00,0.0045
2524.00,0.0046
2523.00,0.0046
2522.00,0.0045
2521.00,0.0045
2520.00,0.0045
2519.00,0.0045
2518.00,0.0045
2517.00,0.0045
2516.00,0.0045
2515.00,0.0045
2514.00,0.0045
2513.00,0.0045
2512.00,0.0045
2511.00,0.0045
2510.00,0.0045
2509.00,0.0045
2508.00,0.0045
2507.00,0.0045
2506.00,0.0045
2505.00,0.0045
2504.00,0.0044
2503.00,0.0044
2502.00,0.0044
2501.00,0.0044
2500.00,0.0044
2499.00,0.0044
2498.00,0.0044
2497.00,0.0044
2496.00,0.0045
2495.00,0.0045
2494.00,0.0045
2493.00,0.0045
2492.00,0.0045
2491.00,0.0044
2490.00,0.0044
2489.00,0.0044
2488.00,0.0044
2487.00,0.0044
2486.00,0.0044
2485.00,0.0044
2484.00,0.0044
2483.00,0.0044
2482.00,0.0044
2481.00,0.0044
2480.00,0.0044
2479.00,0.0044
2478.00,0.0044
2477.00,0.0044
2476.00,0.0044
2475.00,0.0044
2474.00,0.0044
2473.00,0.0044
2472.00,0.0044
2471.00,0.0044
2470.00,0.0044
2469.00,0.0044
2468.00,0.0044
2467.00,0.0044
2466.00,0.0044
2465.00,0.0045
2464.00,0.0045
2463.00,0.0045
2462.00,0.0045
2461.00,0.0045
2460.00,0.0045
2459.00,0.0045
2458.00,0.0046
2457.00,0.0046
2456.00,0.0046
2455.00,0.0046
2454.00,0.0046
2453.00,0.0046
2452.00,0.0046
2451.00,0.0046
2450.00,0.0046
2449.00,0.0046
2448.00,0.0046
2447.00,0.0045
2446.00,0.0045
2445.00,0.0045
2444.00,0.0044
2443.00,0.0044
2442.00,0.0043
2441.00,0.0043
2440.00,0.0043
2439.00,0.0043
2438.00,0.0043
2437.00,0.0043
2436.00,0.0042
2435.00,0.0042
2434.00,0.0042
2433.00,0.0042
2432.00,0.0042
2431.00,0.0042
2430.00,0.0042
2429.00,0.0042
2428.00,0.0042
2427.00,0.0042
2426.00,0.0042
2425.00,0.0042
2424.00,0.0042
2423.00,0.0042
2422.00,0.0042
2421.00,0.0042
2420.00,0.0042
2419.00,0.0042
2418.00,0.0041
2417.00,0.0041
2416.00,0.0041
2415.00,0.0041
2414.00,0.0041
2413.00,0.0041
2412.00,0.0041
2411.00,0.0041
2410.00,0.0041
2409.00,0.0040
2408.00,0.0040
2407.00,0.0039
2406.00,0.0039
2405.00,0.0039
2404.00,0.0040
2403.00,0.0040
2402.00,0.0040
2401.00,0.0040
2400.00,0.0039
2399.00,0.0039
2398.00,0.0039
2397.00,0.0038
2396.00,0.0039
2395.00,0.0039
2394.00,0.0039
2393.00,0.0039
2392.00,0.0039
2391.00,0.0039
2390.00,0.0038
2389.00,0.0038
2388.00,0.0038
2387.00,0.0038
2386.00,0.0037
2385.00,0.0037
2384.00,0.0037
2383.00,0.0036
2382.00,0.0036
2381.00,0.0035
2380.00,0.0035
2379.00,0.0035
2378.00,0.0035
2377.00,0.0035
2376.00,0.0036
2375.00,0.0036
2374.00,0.0036
2373.00,0.0037
2372.00,0.0037
2371.00,0.0037
2370.00,0.0036
2369.00,0.0036
2368.00,0.0036
2367.00,0.0036
2366.00,0.0036
2365.00,0.0036
2364.00,0.0036
2363.00,0.0037
2362.00,0.0037
2361.00,0.0037
2360.00,0.0037
2359.00,0.0038
2358.00,0.0038
2357.00,0.0039
2356.00,0.0039
2355.00,0.0039
2354.00,0.0039
2353.00,0.0038
2352.00,0.0038
2351.00,0.0039
2350.00,0.0039
2349.00,0.0039
2348.00,0.0039
2347.00,0.0039
2346.00,0.0039
2345.00,0.0039
2344.00,0.0040
2343.00,0.0040
2342.00,0.0041
2341.00,0.0042
2340.00,0.0042
2339.00,0.0043
2338.00,0.0043
2337.00,0.0043
2336.00,0.0043
2335.00,0.0043
2334.00,0.0043
2333.00,0.0042
2332.00,0.0042
2331.00,0.0042
2330.00,0.0043
2329.00,0.0045
2328.00,0.0049
2327.00,0.0053
2326.00,0.0056
2325.00,0.0057
2324.00,0.0056
2323.00,0.0053
2322.00,0.0051
2321.00,0.0050
2320.00,0.0049
2319.00,0.0048
2318.00,0.0048
2317.00,0.0048
2316.00,0.0047
2315.00,0.0047
2314.00,0.0046
2313.00,0.0046
2312.00,0.0045
2311.00,0.0045
2310.00,0.0045
2309.00,0.0045
2308.00,0.0045
2307.00,0.0046
2306.00,0.0046
2305.00,0.0046
2304.00,0.0046
2303.00,0.0046
2302.00,0.0045
2301.00,0.0046
2300.00,0.0046
2299.00,0.0046
2298.00,0.0047
2297.00,0.0047
2296.00,0.0048
2295.00,0.0049
2294.00,0.0050
2293.00,0.0051
2292.00,0.0052
2291.00,0.0052
2290.00,0.0052
2289.00,0.0053
2288.00,0.0053
2287.00,0.0053
2286.00,0.0053
2285.00,0.0053
2284.00,0.0052
2283.00,0.0051
2282.00,0.0051
2281.00,0.0050
2280.00,0.0049
2279.00,0.0048
2278.00,0.0048
2277.00,0.0047
2276.00,0.0047
2275.00,0.0047
2274.00,0.0047
2273.00,0.0047
2272.00,0.0047
2271.00,0.0046
2270.00,0.0045
2269.00,0.0044
2268.00,0.0045
2267.00,0.0045
2266.00,0.0045
2265.00,0.0045
2264.00,0.0045
2263.00,0.0045
2262.00,0.0045
2261.00,0.0045
2260.00,0.0046
2259.00,0.0047
2258.00,0.0047
2257.00,0.0046
2256.00,0.0044
2255.00,0.0043
2254.00,0.0043
2253.00,0.0044
2252.00,0.0045
2251.00,0.0045
2250.00,0.0045
2249.00,0.0044
2248.00,0.0044
2247.00,0.0043
2246.00,0.0043
2245.00,0.0043
2244.00,0.0043
2243.00,0.0044
2242.00,0.0044
2241.00,0.0044
2240.00,0.0044
2239.00,0.0045
2238.00,0.0045
2237.00,0.0045
2236.00,0.0045
2235.00,0.0045
2234.00,0.0045
2233.00,0.0045
2232.00,0.0044
2231.00,0.0044
2230.00,0.0043
2229.00,0.0043
2228.00,0.0044
2227.00,0.0044
2226.00,0.0043
2225.00,0.0043
2224.00,0.0043
2223.00,0.0044
2222.00,0.0044
2221.00,0.0043
2220.00,0.0042
2219.00,0.0042
2218.00,0.0042
2217.00,0.0043
2216.00,0.0043
2215.00,0.0043
2214.00,0.0042
2213.00,0.0042
2212.00,0.0042
2211.00,0.0041
2210.00,0.0041
2209.00,0.0041
2208.00,0.0041
2207.00,0.0042
2206.00,0.0043
2205.00,0.0044
2204.00,0.0044
2203.00,0.0044
2202.00,0.0043
2201.00,0.0043
2200.00,0.0043
2199.00,0.0043
2198.00,0.0043
2197.00,0.0043
2196.00,0.0044
2195.00,0.0044
2194.00,0.0045
2193.00,0.0046
2192.00,0.0047
2191.00,0.0048
2190.00,0.0048
2189.00,0.0048
2188.00,0.0049
2187.00,0.0048
2186.00,0.0047
2185.00,0.0045
2184.00,0.0043
2183.00,0.0042
2182.00,0.0041
2181.00,0.0042
2180.00,0.0043
2179.00,0.0043
2178.00,0.0042
2177.00,0.0040
2176.00,0.0039
2175.00,0.0039
2174.00,0.0040
2173.00,0.0042
2172.00,0.0045
2171.00,0.0049
2170.00,0.0051
2169.00,0.0054
2168.00,0.0055
2167.00,0.0056
2166.00,0.0057
2165.00,0.0059
2164.00,0.0061
2163.00,0.0060
2162.00,0.0054
2161.00,0.0041
2160.00,0.0025
2159.00,0.0013
2158.00,0.0007
2157.00,0.0007
2156.00,0.0012
2155.00,0.0017
2154.00,0.0022
2153.00,0.0026
2152.00,0.0027
2151.00,0.0026
2150.00,0.0024
2149.00,0.0023
2148.00,0.0023
2147.00,0.0024
2146.00,0.0024
2145.00,0.0025
2144.00,0.0026
2143.00,0.0027
2142.00,0.0027
2141.00,0.0027
2140.00,0.0027
2139.00,0.0027
2138.00,0.0026
2137.00,0.0025
2136.00,0.0023
2135.00,0.0022
2134.00,0.0021
2133.00,0.0022
2132.00,0.0024
2131.00,0.0026
2130.00,0.0028
2129.00,0.0030
2128.00,0.0031
2127.00,0.0033
2126.00,0.0033
2125.00,0.0034
2124.00,0.0034
2123.00,0.0035
2122.00,0.0035
2121.00,0.0036
2120.00,0.0038
2119.00,0.0039
2118.00,0.0040
2117.00,0.0041
2116.00,0.0042
2115.00,0.0043
2114.00,0.0043
2113.00,0.0043
2112.00,0.0042
2111.00,0.0041
2110.00,0.0040
2109.00,0.0040
2108.00,0.0040
2107.00,0.0040
2106.00,0.0040
2105.00,0.0040
2104.00,0.0040
2103.00,0.0040
2102.00,0.0039
2101.00,0.0039
2100.00,0.0039
2099.00,0.0038
2098.00,0.0038
2097.00,0.0036
2096.00,0.0035
2095.00,0.0035
2094.00,0.0035
2093.00,0.0036
2092.00,0.0038
2091.00,0.0039
2090.00,0.0040
2089.00,0.0041
2088.00,0.0042
2087.00,0.0042
2086.00,0.0041
2085.00,0.0041
2084.00,0.0040
2083.00,0.0040
2082.00,0.0041
2081.00,0.0042
2080.00,0.0043
2079.00,0.0044
2078.00,0.0045
2077.00,0.0044
2076.00,0.0044
2075.00,0.0043
2074.00,0.0042
2073.00,0.0041
2072.00,0.0040
2071.00,0.0039
2070.00,0.0037
2069.00,0.0037
2068.00,0.0037
2067.00,0.0037
2066.00,0.0038
2065.00,0.0038
2064.00,0.0038
2063.00,0.0037
2062.00,0.0036
2061.00,0.0036
2060.00,0.0036
2059.00,0.0037
2058.00,0.0037
2057.00,0.0037
2056.00,0.0036
2055.00,0.0036
2054.00,0.0039
2053.00,0.0043
2052.00,0.0047
2051.00,0.0048
2050.00,0.0045
2049.00,0.0042
2048.00,0.0040
2047.00,0.0038
2046.00,0.0037
2045.00,0.0036
2044.00,0.0036
2043.00,0.0036
2042.00,0.0035
2041.00,0.0034
2040.00,0.0034
2039.00,0.0035
2038.00,0.0035
2037.00,0.0035
2036.00,0.0034
2035.00,0.0032
2034.00,0.0029
2033.00,0.0028
2032.00,0.0027
2031.00,0.0026
2030.00,0.0026
2029.00,0.0027
2028.00,0.0028
2027.00,0.0028
2026.00,0.0027
2025.00,0.0027
2024.00,0.0027
2023.00,0.0028
2022.00,0.0027
2021.00,0.0027
2020.00,0.0027
2019.00,0.0027
2018.00,0.0027
2017.00,0.0028
2016.00,0.0028
2015.00,0.0027
2014.00,0.0026
2013.00,0.0026
2012.00,0.0026
2011.00,0.0027
2010.00,0.0027
2009.00,0.0025
2008.00,0.0024
2007.00,0.0022
2006.00,0.0021
2005.00,0.0022
2004.00,0.0023
2003.00,0.0023
2002.00,0.0023
2001.00,0.0024
2000.00,0.0026
1999.00,0.0028
1998.00,0.0030
1997.00,0.0031
1996.00,0.0031
1995.00,0.0030
1994.00,0.0029
1993.00,0.0029
1992.00,0.0030
1991.00,0.0031
1990.00,0.0032
1989.00,0.0033
1988.00,0.0035
1987.00,0.0037
1986.00,0.0038
1985.00,0.0039
1984.00,0.0041
1983.00,0.0045
1982.00,0.0048
1981.00,0.0048
1980.00,0.0045
1979.00,0.0038
1978.00,0.0030
1977.00,0.0024
1976.00,0.0021
1975.00,0.0021
1974.00,0.0021
1973.00,0.0022
1972.00,0.0024
1971.00,0.0026
1970.00,0.0026
1969.00,0.0026
1968.00,0.0026
1967.00,0.0026
1966.00,0.0025
1965.00,0.0024
1964.00,0.0023
1963.00,0.0022
1962.00,0.0020
1961.00,0.0019
1960.00,0.0020
1959.00,0.0022
1958.00,0.0023
1957.00,0.0024
1956.00,0.0025
1955.00,0.0025
1954.00,0.0024
1953.00,0.0024
1952.00,0.0024
1951.00,0.0024
1950.00,0.0024
1949.00,0.0023
1948.00,0.0024
1947.00,0.0024
1946.00,0.0025
1945.00,0.0026
1944.00,0.0026
1943.00,0.0026
1942.00,0.0025
1941.00,0.0025
1940.00,0.0026
1939.00,0.0026
1938.00,0.0026
1937.00,0.0026
1936.00,0.0025
1935.00,0.0024
1934.00,0.0024
1933.00,0.0024
1932.00,0.0024
1931.00,0.0025
1930.00,0.0025
1929.00,0.0025
1928.00,0.0025
1927.00,0.0026
1926.00,0.0026
1925.00,0.0028
1924.00,0.0029
1923.00,0.0031
1922.00,0.0031
1921.00,0.0031
1920.00,0.0031
1919.00,0.0030
1918.00,0.0029
1917.00,0.0029
1916.00,0.0029
1915.00,0.0030
1914.00,0.0030
1913.00,0.0030
1912.00,0.0031
1911.00,0.0031
1910.00,0.0032
1909.00,0.0031
1908.00,0.0031
1907.00,0.0031
1906.00,0.0031
1905.00,0.0031
1904.00,0.0031
1903.00,0.0031
1902.00,0.0031
1901.00,0.0030
1900.00,0.0031
1899.00,0.0031
1898.00,0.0031
1897.00,0.0031
1896.00,0.0032
1895.00,0.0032
1894.00,0.0032
1893.00,0.0032
1892.00,0.0032
1891.00,0.0032
1890.00,0.0032
1889.00,0.0032
1888.00,0.0032
1887.00,0.0033
1886.00,0.0033
1885.00,0.0032
1884.00,0.0033
1883.00,0.0033
1882.00,0.0033
1881.00,0.0033
1880.00,0.0033
1879.00,0.0033
1878.00,0.0032
1877.00,0.0032
1876.00,0.0032
1875.00,0.0032
1874.00,0.0032
1873.00,0.0032
1872.00,0.0033
1871.00,0.0033
1870.00,0.0034
1869.00,0.0034
1868.00,0.0034
1867.00,0.0034
1866.00,0.0033
1865.00,0.0033
1864.00,0.0033
1863.00,0.0033
1862.00,0.0033
1861.00,0.0033
1860.00,0.0033
1859.00,0.0033
1858.00,0.0033
1857.00,0.0033
1856.00,0.0033
1855.00,0.0033
1854.00,0.0033
1853.00,0.0033
1852.00,0.0033
1851.00,0.0034
1850.00,0.0034
1849.00,0.0035
1848.00,0.0035
1847.00,0.0036
1846.00,0.0035
1845.00,0.0034
1844.00,0.0033
1843.00,0.0032
1842.00,0.0033
1841.00,0.0033
1840.00,0.0034
1839.00,0.0035
1838.00,0.0035
1837.00,0.0034
1836.00,0.0034
1835.00,0.0034
1834.00,0.0034
1833.00,0.0035
1832.00,0.0036
1831.00,0.0036
1830.00,0.0036
1829.00,0.0035
1828.00,0.0035
1827.00,0.0036
1826.00,0.0036
1825.00,0.0036
1824.00,0.0036
1823.00,0.0036
1822.00,0.0035
1821.00,0.0035
1820.00,0.0034
1819.00,0.0033
1818.00,0.0032
1817.00,0.0032
1816.00,0.0033
1815.00,0.0034
1814.00,0.0035
1813.00,0.0036
1812.00,0.0037
1811.00,0.0037
1810.00,0.0037
1809.00,0.0037
1808.00,0.0038
1807.00,0.0038
1806.00,0.0038
1805.00,0.0038
1804.00,0.0039
1803.00,0.0040
1802.00,0.0040
1801.00,0.0040
1800.00,0.0040
1799.00,0.0039
1798.00,0.0039
1797.00,0.0040
1796.00,0.0040
1795.00,0.0041
1794.00,0.0041
1793.00,0.0040
1792.00,0.0039
1791.00,0.0039
1790.00,0.0038
1789.00,0.0039
1788.00,0.0039
1787.00,0.0039
1786.00,0.0039
1785.00,0.0039
1784.00,0.0040
1783.00,0.0040
1782.00,0.0041
1781.00,0.0041
1780.00,0.0041
1779.00,0.0041
1778.00,0.0041
1777.00,0.0042
1776.00,0.0044
1775.00,0.0045
1774.00,0.0046
1773.00,0.0046
1772.00,0.0046
1771.00,0.0045
1770.00,0.0044
1769.00,0.0044
1768.00,0.0043
1767.00,0.0043
1766.00,0.0043
1765.00,0.0044
1764.00,0.0044
1763.00,0.0044
1762.00,0.0044
1761.00,0.0043
1760.00,0.0044
1759.00,0.0044
1758.00,0.0044
1757.00,0.0044
1756.00,0.0045
1755.00,0.0045
1754.00,0.0046
1753.00,0.0047
1752.00,0.0048
1751.00,0.0049
1750.00,0.0050
1749.00,0.0051
1748.00,0.0051
1747.00,0.0051
1746.00,0.0051
1745.00,0.0051
1744.00,0.0052
1743.00,0.0052
1742.00,0.0052
1741.00,0.0052
1740.00,0.0052
1739.00,0.0053
1738.00,0.0053
1737.00,0.0054
1736.00,0.0055
1735.00,0.0055
1734.00,0.0055
1733.00,0.0055
1732.00,0.0057
1731.00,0.0058
1730.00,0.0058
1729.00,0.0059
1728.00,0.0059
1727.00,0.0060
1726.00,0.0061
1725.00,0.0062
1724.00,0.0064
1723.00,0.0065
1722.00,0.0066
1721.00,0.0067
1720.00,0.0069
1719.00,0.0071
1718.00,0.0073
1717.00,0.0076
1716.00,0.0078
1715.00,0.0080
1714.00,0.0081
1713.00,0.0083
1712.00,0.0085
1711.00,0.0088
1710.00,0.0091
1709.00,0.0095
1708.00,0.0100
1707.00,0.0105
1706.00,0.0111
1705.00,0.0117
1704.00,0.0123
1703.00,0.0127
1702.00,0.0131
1701.00,0.0140
1700.00,0.0155
1699.00,0.0168
1698.00,0.0177
1697.00,0.0186
1696.00,0.0200
1695.00,0.0216
1694.00,0.0228
1693.00,0.0237
1692.00,0.0247
1691.00,0.0259
1690.00,0.0274
1689.00,0.0289
1688.00,0.0301
1687.00,0.0310
1686.00,0.0320
1685.00,0.0343
1684.00,0.0378
1683.00,0.0406
1682.00,0.0420
1681.00,0.0429
1680.00,0.0439
1679.00,0.0448
1678.00,0.0455
1677.00,0.0464
1676.00,0.0481
1675.00,0.0504
1674.00,0.0521
1673.00,0.0528
1672.00,0.0533
1671.00,0.0542
1670.00,0.0561
1669.00,0.0583
1668.00,0.0599
1667.00,0.0606
1666.00,0.0606
1665.00,0.0607
1664.00,0.0616
1663.00,0.0635
1662.00,0.0655
1661.00,0.0668
1660.00,0.0676
1659.00,0.0680
1658.00,0.0682
1657.00,0.0679
1656.00,0.0672
1655.00,0.0670
1654.00,0.0699
1653.00,0.0759
1652.00,0.0801
1651.00,0.0802
1650.00,0.0787
1649.00,0.0776
1648.00,0.0786
1647.00,0.0819
1646.00,0.0854
1645.00,0.0872
1644.00,0.0870
1643.00,0.0857
1642.00,0.0840
1641.00,0.0821
1640.00,0.0803
1639.00,0.0785
1638.00,0.0769
1637.00,0.0764
1636.00,0.0776
1635.00,0.0793
1634.00,0.0797
1633.00,0.0786
1632.00,0.0769
1631.00,0.0750
1630.00,0.0734
1629.00,0.0720
1628.00,0.0711
1627.00,0.0703
1626.00,0.0694
1625.00,0.0685
1624.00,0.0678
1623.00,0.0669
1622.00,0.0651
1621.00,0.0624
1620.00,0.0590
1619.00,0.0555
1618.00,0.0521
1617.00,0.0491
1616.00,0.0465
1615.00,0.0443
1614.00,0.0422
1613.00,0.0402
1612.00,0.0382
1611.00,0.0366
1610.00,0.0351
1609.00,0.0338
1608.00,0.0325
1607.00,0.0313
1606.00,0.0303
1605.00,0.0293
1604.00,0.0283
1603.00,0.0275
1602.00,0.0268
1601.00,0.0262
1600.00,0.0256
1599.00,0.0251
1598.00,0.0247
1597.00,0.0245
1596.00,0.0244
1595.00,0.0245
1594.00,0.0249
1593.00,0.0255
1592.00,0.0265
1591.00,0.0278
1590.00,0.0295
1589.00,0.0314
1588.00,0.0333
1587.00,0.0351
1586.00,0.0367
1585.00,0.0380
1584.00,0.0390
1583.00,0.0397
1582.00,0.0398
1581.00,0.0393
1580.00,0.0382
1579.00,0.0366
1578.00,0.0346
1577.00,0.0322
1576.00,0.0297
1575.00,0.0275
1574.00,0.0257
1573.00,0.0242
1572.00,0.0227
1571.00,0.0213
1570.00,0.0200
1569.00,0.0188
1568.00,0.0178
1567.00,0.0170
1566.00,0.0162
1565.00,0.0155
1564.00,0.0149
1563.00,0.0144
1562.00,0.0140
1561.00,0.0136
1560.00,0.0133
1559.00,0.0131
1558.00,0.0129
1557.00,0.0127
1556.00,0.0124
1555.00,0.0122
1554.00,0.0119
1553.00,0.0117
1552.00,0.0116
1551.00,0.0114
1550.00,0.0112
1549.00,0.0110
1548.00,0.0108
1547.00,0.0107
1546.00,0.0107
1545.00,0.0107
1544.00,0.0107
1543.00,0.0106
1542.00,0.0106
1541.00,0.0105
1540.00,0.0103
1539.00,0.0101
1538.00,0.0100
1537.00,0.0100
1536.00,0.0099
1535.00,0.0099
1534.00,0.0099
1533.00,0.0099
1532.00,0.0099
1531.00,0.0098
1530.00,0.0098
1529.00,0.0099
1528.00,0.0100
1527.00,0.0101
1526.00,0.0102
1525.00,0.0103
1524.00,0.0105
1523.00,0.0107
1522.00,0.0111
1521.00,0.0117
1520.00,0.0122
1519.00,0.0127
1518.00,0.0132
1517.00,0.0137
1516.00,0.0142
1515.00,0.0144
1514.00,0.0145
1513.00,0.0145
1512.00,0.0144
1511.00,0.0144
1510.00,0.0144
1509.00,0.0145
1508.00,0.0147
1507.00,0.0151
1506.00,0.0156
1505.00,0.0160
1504.00,0.0165
1503.00,0.0170
1502.00,0.0175
1501.00,0.0182
1500.00,0.0189
1499.00,0.0197
1498.00,0.0204
1497.00,0.0212
1496.00,0.0218
1495.00,0.0221
1494.00,0.0221
1493.00,0.0219
1492.00,0.0216
1491.00,0.0211
1490.00,0.0206
1489.00,0.0199
1488.00,0.0189
1487.00,0.0179
1486.00,0.0169
1485.00,0.0160
1484.00,0.0153
1483.00,0.0146
1482.00,0.0142
1481.00,0.0139
1480.00,0.0137
1479.00,0.0137
1478.00,0.0139
1477.00,0.0143
1476.00,0.0149
1475.00,0.0156
1474.00,0.0167
1473.00,0.0184
1472.00,0.0207
1471.00,0.0230
1470.00,0.0252
1469.00,0.0275
1468.00,0.0298
1467.00,0.0322
1466.00,0.0347
1465.00,0.0374
1464.00,0.0398
1463.00,0.0414
1462.00,0.0421
1461.00,0.0423
1460.00,0.0421
1459.00,0.0417
1458.00,0.0413
1457.00,0.0410
1456.00,0.0407
1455.00,0.0403
1454.00,0.0400
1453.00,0.0403
1452.00,0.0412
1451.00,0.0427
1450.00,0.0448
1449.00,0.0476
1448.00,0.0512
1447.00,0.0549
1446.00,0.0580
1445.00,0.0606
1444.00,0.0627
1443.00,0.0645
1442.00,0.0659
1441.00,0.0669
1440.00,0.0674
1439.00,0.0674
1438.00,0.0676
1437.00,0.0681
1436.00,0.0686
1435.00,0.0682
1434.00,0.0669
1433.00,0.0653
1432.00,0.0639
1431.00,0.0627
1430.00,0.0618
1429.00,0.0610
1428.00,0.0602
1427.00,0.0594
1426.00,0.0588
1425.00,0.0587
1424.00,0.0588
1423.00,0.0587
1422.00,0.0580
1421.00,0.0569
1420.00,0.0556
1419.00,0.0541
1418.00,0.0521
1417.00,0.0494
1416.00,0.0462
1415.00,0.0429
1414.00,0.0397
1413.00,0.0366
1412.00,0.0338
1411.00,0.0312
1410.00,0.0290
1409.00,0.0270
1408.00,0.0253
1407.00,0.0238
1406.00,0.0225
1405.00,0.0214
1404.00,0.0204
1403.00,0.0195
1402.00,0.0188
1401.00,0.0182
1400.00,0.0176
1399.00,0.0172
1398.00,0.0169
1397.00,0.0167
1396.00,0.0164
1395.00,0.0163
1394.00,0.0162
1393.00,0.0161
1392.00,0.0161
1391.00,0.0161
1390.00,0.0163
1389.00,0.0166
1388.00,0.0170
1387.00,0.0176
1386.00,0.0182
1385.00,0.0189
1384.00,0.0196
1383.00,0.0205
1382.00,0.0217
1381.00,0.0232
1380.00,0.0249
1379.00,0.0269
1378.00,0.0289
1377.00,0.0307
1376.00,0.0321
1375.00,0.0329
1374.00,0.0330
1373.00,0.0324
1372.00,0.0314
1371.00,0.0303
1370.00,0.0293
1369.00,0.0282
1368.00,0.0271
1367.00,0.0260
1366.00,0.0250
1365.00,0.0240
1364.00,0.0230
1363.00,0.0221
1362.00,0.0212
1361.00,0.0204
1360.00,0.0197
1359.00,0.0190
1358.00,0.0185
1357.00,0.0181
1356.00,0.0177
1355.00,0.0175
1354.00,0.0173
1353.00,0.0171
1352.00,0.0169
1351.00,0.0168
1350.00,0.0167
1349.00,0.0168
1348.00,0.0168
1347.00,0.0169
1346.00,0.0171
1345.00,0.0173
1344.00,0.0174
1343.00,0.0176
1342.00,0.0178
1341.00,0.0179
1340.00,0.0178
1339.00,0.0177
1338.00,0.0175
1337.00,0.0174
1336.00,0.0174
1335.00,0.0175
1334.00,0.0179
1333.00,0.0184
1332.00,0.0190
1331.00,0.0198
1330.00,0.0207
1329.00,0.0216
1328.00,0.0225
1327.00,0.0236
1326.00,0.0246
1325.00,0.0257
1324.00,0.0266
1323.00,0.0274
1322.00,0.0279
1321.00,0.0283
1320.00,0.0286
1319.00,0.0290
1318.00,0.0295
1317.00,0.0301
1316.00,0.0309
1315.00,0.0317
1314.00,0.0326
1313.00,0.0332
1312.00,0.0335
1311.00,0.0333
1310.00,0.0328
1309.00,0.0322
1308.00,0.0316
1307.00,0.0314
1306.00,0.0315
1305.00,0.0320
1304.00,0.0328
1303.00,0.0338
1302.00,0.0351
1301.00,0.0365
1300.00,0.0381
1299.00,0.0399
1298.00,0.0419
1297.00,0.0442
1296.00,0.0465
1295.00,0.0488
1294.00,0.0512
1293.00,0.0536
1292.00,0.0559
1291.00,0.0580
1290.00,0.0599
1289.00,0.0616
1288.00,0.0631
1287.00,0.0643
1286.00,0.0652
1285.00,0.0658
1284.00,0.0661
1283.00,0.0661
1282.00,0.0660
1281.00,0.0657
1280.00,0.0655
1279.00,0.0653
1278.00,0.0652
1277.00,0.0652
1276.00,0.0652
1275.00,0.0651
1274.00,0.0649
1273.00,0.0645
1272.00,0.0638
1271.00,0.0628
1270.00,0.0615
1269.00,0.0598
1268.00,0.0580
1267.00,0.0560
1266.00,0.0539
1265.00,0.0517
1264.00,0.0495
1263.00,0.0473
1262.00,0.0453
1261.00,0.0433
1260.00,0.0415
1259.00,0.0399
1258.00,0.0384
1257.00,0.0370
1256.00,0.0358
1255.00,0.0348
1254.00,0.0339
1253.00,0.0332
1252.00,0.0327
1251.00,0.0324
1250.00,0.0322
1249.00,0.0320
1248.00,0.0318
1247.00,0.0316
1246.00,0.0316
1245.00,0.0318
1244.00,0.0322
1243.00,0.0331
1242.00,0.0343
1241.00,0.0359
1240.00,0.0377
1239.00,0.0395
1238.00,0.0411
1237.00,0.0422
1236.00,0.0428
1235.00,0.0431
1234.00,0.0432
1233.00,0.0430
1232.00,0.0427
1231.00,0.0422
1230.00,0.0419
1229.00,0.0419
1228.00,0.0423
1227.00,0.0432
1226.00,0.0444
1225.00,0.0457
1224.00,0.0471
1223.00,0.0486
1222.00,0.0503
1221.00,0.0523
1220.00,0.0547
1219.00,0.0575
1218.00,0.0605
1217.00,0.0632
1216.00,0.0653
1215.00,0.0663
1214.00,0.0661
1213.00,0.0647
1212.00,0.0625
1211.00,0.0597
1210.00,0.0567
1209.00,0.0537
1208.00,0.0509
1207.00,0.0484
1206.00,0.0461
1205.00,0.0440
1204.00,0.0420
1203.00,0.0399
1202.00,0.0380
1201.00,0.0360
1200.00,0.0342
1199.00,0.0326
1198.00,0.0313
1197.00,0.0302
1196.00,0.0292
1195.00,0.0285
1194.00,0.0280
1193.00,0.0276
1192.00,0.0273
1191.00,0.0272
1190.00,0.0273
1189.00,0.0275
1188.00,0.0277
1187.00,0.0279
1186.00,0.0282
1185.00,0.0285
1184.00,0.0288
1183.00,0.0291
1182.00,0.0294
1181.00,0.0296
1180.00,0.0298
1179.00,0.0301
1178.00,0.0304
1177.00,0.0307
1176.00,0.0311
1175.00,0.0317
1174.00,0.0325
1173.00,0.0333
1172.00,0.0337
1171.00,0.0335
1170.00,0.0326
1169.00,0.0312
1168.00,0.0296
1167.00,0.0282
1166.00,0.0270
1165.00,0.0259
1164.00,0.0250
1163.00,0.0242
1162.00,0.0235
1161.00,0.0229
1160.00,0.0224
1159.00,0.0220
1158.00,0.0218
1157.00,0.0218
1156.00,0.0221
1155.00,0.0228
1154.00,0.0240
1153.00,0.0257
1152.00,0.0273
1151.00,0.0284
1150.00,0.0284
1149.00,0.0271
1148.00,0.0251
1147.00,0.0230
1146.00,0.0212
1145.00,0.0198
1144.00,0.0187
1143.00,0.0179
1142.00,0.0174
1141.00,0.0170
1140.00,0.0167
1139.00,0.0165
1138.00,0.0165
1137.00,0.0166
1136.00,0.0166
1135.00,0.0165
1134.00,0.0165
1133.00,0.0163
1132.00,0.0159
1131.00,0.0156
1130.00,0.0154
1129.00,0.0151
1128.00,0.0150
1127.00,0.0148
1126.00,0.0148
1125.00,0.0148
1124.00,0.0147
1123.00,0.0147
1122.00,0.0147
1121.00,0.0147
1120.00,0.0146
1119.00,0.0146
1118.00,0.0147
1117.00,0.0148
1116.00,0.0148
1115.00,0.0148
1114.00,0.0149
1113.00,0.0149
1112.00,0.0150
1111.00,0.0151
1110.00,0.0152
1109.00,0.0154
1108.00,0.0155
1107.00,0.0157
1106.00,0.0160
1105.00,0.0162
1104.00,0.0165
1103.00,0.0169
1102.00,0.0173
1101.00,0.0178
1100.00,0.0181
1099.00,0.0183
1098.00,0.0182
1097.00,0.0179
1096.00,0.0174
1095.00,0.0169
1094.00,0.0165
1093.00,0.0162
1092.00,0.0160
1091.00,0.0158
1090.00,0.0157
1089.00,0.0156
1088.00,0.0156
1087.00,0.0157
1086.00,0.0160
1085.00,0.0163
1084.00,0.0167
1083.00,0.0173
1082.00,0.0180
1081.00,0.0187
1080.00,0.0192
1079.00,0.0194
1078.00,0.0194
1077.00,0.0192
1076.00,0.0188
1075.00,0.0184
1074.00,0.0181
1073.00,0.0179
1072.00,0.0176
1071.00,0.0173
1070.00,0.0170
1069.00,0.0168
1068.00,0.0165
1067.00,0.0164
1066.00,0.0162
1065.00,0.0162
1064.00,0.0161
1063.00,0.0162
1062.00,0.0164
1061.00,0.0166
1060.00,0.0170
1059.00,0.0176
1058.00,0.0185
1057.00,0.0198
1056.00,0.0214
1055.00,0.0233
1054.00,0.0252
1053.00,0.0267
1052.00,0.0275
1051.00,0.0278
1050.00,0.0275
1049.00,0.0266
1048.00,0.0252
1047.00,0.0236
1046.00,0.0222
1045.00,0.0210
1044.00,0.0203
1043.00,0.0199
1042.00,0.0200
1041.00,0.0203
1040.00,0.0207
1039.00,0.0212
1038.00,0.0220
1037.00,0.0231
1036.00,0.0245
1035.00,0.0262
1034.00,0.0279
1033.00,0.0293
1032.00,0.0300
1031.00,0.0299
1030.00,0.0293
1029.00,0.0284
1028.00,0.0275
1027.00,0.0270
1026.00,0.0272
1025.00,0.0279
1024.00,0.0292
1023.00,0.0311
1022.00,0.0334
1021.00,0.0358
1020.00,0.0377
1019.00,0.0386
1018.00,0.0384
1017.00,0.0372
1016.00,0.0352
1015.00,0.0331
1014.00,0.0310
1013.00,0.0291
1012.00,0.0275
1011.00,0.0264
1010.00,0.0258
1009.00,0.0255
1008.00,0.0256
1007.00,0.0261
1006.00,0.0269
1005.00,0.0280
1004.00,0.0291
1003.00,0.0299
1002.00,0.0303
1001.00,0.0300
1000.00,0.0290
999.00,0.0277
998.00,0.0261
997.00,0.0244
996.00,0.0229
995.00,0.0217
994.00,0.0208
993.00,0.0201
992.00,0.0196
991.00,0.0194
990.00,0.0195
989.00,0.0196
988.00,0.0197
987.00,0.0199
986.00,0.0200
985.00,0.0199
984.00,0.0197
983.00,0.0193
982.00,0.0187
981.00,0.0181
980.00,0.0175
979.00,0.0171
978.00,0.0169
977.00,0.0167
976.00,0.0165
975.00,0.0163
974.00,0.0161
973.00,0.0160
972.00,0.0160
971.00,0.0160
970.00,0.0162
969.00,0.0165
968.00,0.0168
967.00,0.0172
966.00,0.0177
965.00,0.0183
964.00,0.0189
963.00,0.0195
962.00,0.0199
961.00,0.0200
960.00,0.0196
959.00,0.0188
958.00,0.0178
957.00,0.0167
956.00,0.0157
955.00,0.0149
954.00,0.0143
953.00,0.0139
952.00,0.0136
951.00,0.0133
950.00,0.0132
949.00,0.0131
948.00,0.0130
947.00,0.0130
946.00,0.0130
945.00,0.0131
944.00,0.0131
943.00,0.0132
942.00,0.0134
941.00,0.0137
940.00,0.0139
939.00,0.0141
938.00,0.0145
937.00,0.0149
936.00,0.0152
935.00,0.0154
934.00,0.0156
933.00,0.0157
932.00,0.0156
931.00,0.0155
930.00,0.0154
929.00,0.0153
928.00,0.0152
927.00,0.0151
926.00,0.0150
925.00,0.0149
924.00,0.0147
923.00,0.0146
922.00,0.0145
921.00,0.0145
920.00,0.0145
919.00,0.0146
918.00,0.0147
917.00,0.0149
916.00,0.0150
915.00,0.0150
914.00,0.0150
913.00,0.0150
912.00,0.0149
911.00,0.0149
910.00,0.0151
909.00,0.0154
908.00,0.0158
907.00,0.0165
906.00,0.0174
905.00,0.0185
904.00,0.0196
903.00,0.0210
902.00,0.0227
901.00,0.0248
900.00,0.0273
899.00,0.0301
898.00,0.0327
897.00,0.0344
896.00,0.0347
895.00,0.0338
894.00,0.0320
893.00,0.0299
892.00,0.0278
891.00,0.0262
890.00,0.0253
889.00,0.0251
888.00,0.0258
887.00,0.0277
886.00,0.0305
885.00,0.0337
884.00,0.0361
883.00,0.0368
882.00,0.0357
881.00,0.0330
880.00,0.0297
879.00,0.0267
878.00,0.0243
877.00,0.0226
876.00,0.0215
875.00,0.0208
874.00,0.0207
873.00,0.0209
872.00,0.0213
871.00,0.0219
870.00,0.0224
869.00,0.0226
868.00,0.0225
867.00,0.0224
866.00,0.0227
865.00,0.0234
864.00,0.0245
863.00,0.0257
862.00,0.0268
861.00,0.0275
860.00,0.0278
859.00,0.0281
858.00,0.0285
857.00,0.0291
856.00,0.0301
855.00,0.0311
854.00,0.0322
853.00,0.0332
852.00,0.0339
851.00,0.0345
850.00,0.0348
849.00,0.0347
848.00,0.0343
847.00,0.0337
846.00,0.0333
845.00,0.0329
844.00,0.0326
843.00,0.0323
842.00,0.0320
841.00,0.0315
840.00,0.0309
839.00,0.0305
838.00,0.0303
837.00,0.0302
836.00,0.0302
835.00,0.0303
834.00,0.0306
833.00,0.0309
832.00,0.0313
831.00,0.0316
830.00,0.0320
829.00,0.0322
828.00,0.0321
827.00,0.0317
826.00,0.0311
825.00,0.0301
824.00,0.0288
823.00,0.0274
822.00,0.0260
821.00,0.0247
820.00,0.0234
819.00,0.0223
818.00,0.0213
817.00,0.0206
816.00,0.0200
815.00,0.0196
814.00,0.0193
813.00,0.0190
812.00,0.0188
811.00,0.0187
810.00,0.0189
809.00,0.0195
808.00,0.0206
807.00,0.0223
806.00,0.0241
805.00,0.0254
804.00,0.0258
803.00,0.0252
802.00,0.0241
801.00,0.0228
800.00,0.0216
799.00,0.0207
798.00,0.0200
797.00,0.0195
796.00,0.0191
795.00,0.0190
794.00,0.0189
793.00,0.0190
792.00,0.0190
791.00,0.0191
790.00,0.0193
789.00,0.0194
788.00,0.0196
787.00,0.0198
786.00,0.0201
785.00,0.0203
784.00,0.0202
783.00,0.0200
782.00,0.0200
781.00,0.0200
780.00,0.0200
779.00,0.0201
778.00,0.0202
777.00,0.0203
776.00,0.0203
775.00,0.0204
774.00,0.0206
773.00,0.0208
772.00,0.0210
771.00,0.0212
770.00,0.0214
769.00,0.0215
768.00,0.0215
767.00,0.0215
766.00,0.0216
765.00,0.0218
764.00,0.0219
763.00,0.0221
762.00,0.0224
761.00,0.0227
760.00,0.0230
759.00,0.0233
758.00,0.0238
757.00,0.0243
756.00,0.0248
755.00,0.0256
754.00,0.0265
753.00,0.0275
752.00,0.0283
751.00,0.0290
750.00,0.0296
749.00,0.0300
748.00,0.0303
747.00,0.0303
746.00,0.0302
745.00,0.0300
744.00,0.0298
743.00,0.0297
742.00,0.0298
741.00,0.0301
740.00,0.0303
739.00,0.0306
738.00,0.0310
737.00,0.0314
736.00,0.0318
735.00,0.0321
734.00,0.0326
733.00,0.0331
732.00,0.0334
731.00,0.0335
730.00,0.0333
729.00,0.0328
728.00,0.0320
727.00,0.0313
726.00,0.0308
725.00,0.0304
724.00,0.0300
723.00,0.0296
722.00,0.0294
721.00,0.0291
720.00,0.0288
719.00,0.0286
718.00,0.0285
717.00,0.0283
716.00,0.0280
715.00,0.0279
714.00,0.0278
713.00,0.0278
712.00,0.0278
711.00,0.0278
710.00,0.0279
709.00,0.0280
708.00,0.0279
707.00,0.0279
706.00,0.0279
705.00,0.0280
704.00,0.0280
703.00,0.0281
702.00,0.0282
701.00,0.0284
700.00,0.0285
699.00,0.0286
698.00,0.0289
697.00,0.0291
696.00,0.0292
695.00,0.0294
694.00,0.0296
693.00,0.0299
692.00,0.0301
691.00,0.0303
690.00,0.0306
689.00,0.0309
688.00,0.0311
687.00,0.0314
686.00,0.0318
685.00,0.0321
684.00,0.0324
683.00,0.0327
682.00,0.0331
681.00,0.0335
680.00,0.0338
679.00,0.0341
678.00,0.0345
677.00,0.0349
676.00,0.0353
675.00,0.0358
674.00,0.0364
673.00,0.0371
672.00,0.0377
671.00,0.0382
670.00,0.0390
669.00,0.0401
668.00,0.0414
667.00,0.0425
666.00,0.0430
665.00,0.0432
664.00,0.0435
663.00,0.0440
662.00,0.0448
661.00,0.0454
660.00,0.0460
659.00,0.0467
658.00,0.0474
657.00,0.0480
656.00,0.0486
655.00,0.0491
654.00,0.0498
653.00,0.0505
652.00,0.0512
651.00,0.0519
650.00,0.0526
649.00,0.0531
648.00,0.0533
647.00,0.0533
646.00,0.0532
645.00,0.0529
644.00,0.0523
643.00,0.0517
642.00,0.0512
641.00,0.0507
640.00,0.0502
639.00,0.0497
638.00,0.0495
637.00,0.0492
636.00,0.0489
635.00,0.0486
634.00,0.0485
633.00,0.0484
632.00,0.0482
631.00,0.0481
630.00,0.0482
629.00,0.0483
628.00,0.0483
627.00,0.0483
626.00,0.0485
625.00,0.0486
624.00,0.0485
623.00,0.0484
622.00,0.0482
621.00,0.0479
620.00,0.0473
619.00,0.0468
618.00,0.0465
617.00,0.0462
616.00,0.0461
615.00,0.0463
614.00,0.0471
613.00,0.0481
612.00,0.0489
611.00,0.0495
610.00,0.0498
609.00,0.0497
608.00,0.0494
607.00,0.0492
606.00,0.0493
605.00,0.0497
604.00,0.0500
603.00,0.0502
602.00,0.0506
601.00,0.0511
600.00,0.0514
599.00,0.0518
598.00,0.0522
597.00,0.0525
596.00,0.0527
595.00,0.0529
594.00,0.0533
593.00,0.0539
592.00,0.0545
591.00,0.0554
590.00,0.0566
589.00,0.0578
588.00,0.0587
587.00,0.0594
586.00,0.0601
585.00,0.0605
584.00,0.0605
583.00,0.0605
582.00,0.0605
581.00,0.0604
580.00,0.0603
579.00,0.0603
578.00,0.0606
577.00,0.0609
576.00,0.0613
575.00,0.0618
574.00,0.0623
573.00,0.0628
572.00,0.0629
571.00,0.0630
570.00,0.0632
569.00,0.0633
568.00,0.0632
567.00,0.0631
566.00,0.0630
565.00,0.0629
564.00,0.0626
563.00,0.0623
562.00,0.0621
561.00,0.0617
560.00,0.0612
559.00,0.0609
558.00,0.0607
557.00,0.0605
556.00,0.0602
555.00,0.0600
554.00,0.0601
553.00,0.0602
552.00,0.0601
551.00,0.0602
550.00,0.0604
549.00,0.0605
548.00,0.0604
547.00,0.0604
546.00,0.0608
545.00,0.0611
544.00,0.0613
543.00,0.0614
542.00,0.0618
541.00,0.0622
540.00,0.0625
539.00,0.0631
538.00,0.0640
537.00,0.0649
536.00,0.0654
535.00,0.0656
534.00,0.0656
533.00,0.0652
532.00,0.0646
531.00,0.0641
530.00,0.0639
529.00,0.0638
528.00,0.0638
527.00,0.0642
526.00,0.0652
525.00,0.0665
524.00,0.0675
523.00,0.0684
522.00,0.0691
521.00,0.0689
520.00,0.0676
519.00,0.0659
518.00,0.0643
517.00,0.0628
516.00,0.0612
515.00,0.0602
514.00,0.0598
513.00,0.0597
512.00,0.0596
511.00,0.0596
510.00,0.0598
509.00,0.0602
508.00,0.0606
507.00,0.0613
506.00,0.0625
505.00,0.0637
504.00,0.0645
503.00,0.0653
502.00,0.0664
501.00,0.0674
500.00,0.0679
499.00,0.0684
498.00,0.0691
497.00,0.0698
496.00,0.0701
495.00,0.0704
494.00,0.0707
493.00,0.0708
492.00,0.0703
491.00,0.0699
490.00,0.0699
489.00,0.0699
488.00,0.0697
487.00,0.0695
486.00,0.0696
485.00,0.0695
484.00,0.0691
483.00,0.0686
482.00,0.0684
481.00,0.0681
480.00,0.0672
479.00,0.0664
478.00,0.0661
477.00,0.0658
476.00,0.0654
475.00,0.0652
474.00,0.0656
473.00,0.0662
472.00,0.0666
471.00,0.0670
470.00,0.0678
469.00,0.0684
468.00,0.0684
467.00,0.0682
466.00,0.0681
465.00,0.0679
464.00,0.0674
463.00,0.0672
462.00,0.0675
461.00,0.0676
460.00,0.0670
459.00,0.0664
458.00,0.0664
457.00,0.0664
456.00,0.0659
455.00,0.0655
454.00,0.0656
453.00,0.0655
452.00,0.0649
451.00,0.0643
450.00,0.0642
449.00,0.0641
448.00,0.0637
447.00,0.0633
446.00,0.0634
445.00,0.0634
444.00,0.0627
443.00,0.0624
442.00,0.0629
441.00,0.0634
440.00,0.0633
439.00,0.0631
438.00,0.0634
437.00,0.0635
436.00,0.0630
435.00,0.0624
434.00,0.0623
433.00,0.0622
432.00,0.0618
431.00,0.0618
430.00,0.0625
429.00,0.0634
428.00,0.0641
427.00,0.0652
426.00,0.0670
425.00,0.0682
424.00,0.0678
423.00,0.0669
422.00,0.0667
421.00,0.0667
420.00,0.0663
419.00,0.0666
418.00,0.0678
417.00,0.0680
416.00,0.0666
415.00,0.0655
414.00,0.0657
413.00,0.0662
412.00,0.0657
411.00,0.0654
410.00,0.0665
409.00,0.0677
408.00,0.0678
407.00,0.0680
406.00,0.0690
405.00,0.0694
404.00,0.0683
403.00,0.0675
402.00,0.0686
401.00,0.0698
400.00,0.0694
