Created as New Dataset,Sample 876 By YargerLab Date Monday, July 21 2025
cm-1,A
4000.00,0.0046
3999.00,0.0046
3998.00,0.0046
3997.00,0.0046
3996.00,0.0046
3995.00,0.0046
3994.00,0.0045
3993.00,0.0045
3992.00,0.0045
3991.00,0.0045
3990.00,0.0045
3989.00,0.0045
3988.00,0.0046
3987.00,0.0046
3986.00,0.0045
3985.00,0.0045
3984.00,0.0045
3983.00,0.0045
3982.00,0.0045
3981.00,0.0045
3980.00,0.0045
3979.00,0.0046
3978.00,0.0045
3977.00,0.0045
3976.00,0.0045
3975.00,0.0045
3974.00,0.0045
3973.00,0.0045
3972.00,0.0045
3971.00,0.0045
3970.00,0.0046
3969.00,0.0046
3968.00,0.0046
3967.00,0.0046
3966.00,0.0046
3965.00,0.0046
3964.00,0.0046
3963.00,0.0046
3962.00,0.0046
3961.00,0.0046
3960.00,0.0046
3959.00,0.0046
3958.00,0.0046
3957.00,0.0046
3956.00,0.0046
3955.00,0.0046
3954.00,0.0046
3953.00,0.0046
3952.00,0.0046
3951.00,0.0046
3950.00,0.0046
3949.00,0.0046
3948.00,0.0046
3947.00,0.0046
3946.00,0.0046
3945.00,0.0046
3944.00,0.0046
3943.00,0.0046
3942.00,0.0046
3941.00,0.0046
3940.00,0.0046
3939.00,0.0045
3938.00,0.0045
3937.00,0.0045
3936.00,0.0045
3935.00,0.0045
3934.00,0.0045
3933.00,0.0045
3932.00,0.0046
3931.00,0.0046
3930.00,0.0046
3929.00,0.0046
3928.00,0.0046
3927.00,0.0046
3926.00,0.0046
3925.00,0.0046
3924.00,0.0046
3923.00,0.0046
3922.00,0.0046
3921.00,0.0046
3920.00,0.0046
3919.00,0.0046
3918.00,0.0046
3917.00,0.0046
3916.00,0.0046
3915.00,0.0046
3914.00,0.0045
3913.00,0.0045
3912.00,0.0045
3911.00,0.0046
3910.00,0.0046
3909.00,0.0046
3908.00,0.0046
3907.00,0.0045
3906.00,0.0045
3905.00,0.0045
3904.00,0.0045
3903.00,0.0046
3902.00,0.0046
3901.00,0.0045
3900.00,0.0045
3899.00,0.0045
3898.00,0.0045
3897.00,0.0045
3896.00,0.0045
3895.00,0.0045
3894.00,0.0045
3893.00,0.0045
3892.00,0.0045
3891.00,0.0045
3890.00,0.0045
3889.00,0.0045
3888.00,0.0045
3887.00,0.0045
3886.00,0.0045
3885.00,0.0045
3884.00,0.0045
3883.00,0.0044
3882.00,0.0044
3881.00,0.0044
3880.00,0.0044
3879.00,0.0044
3878.00,0.0044
3877.00,0.0045
3876.00,0.0044
3875.00,0.0044
3874.00,0.0045
3873.00,0.0045
3872.00,0.0045
3871.00,0.0045
3870.00,0.0045
3869.00,0.0045
3868.00,0.0045
3867.00,0.0045
3866.00,0.0045
3865.00,0.0045
3864.00,0.0045
3863.00,0.0045
3862.00,0.0045
3861.00,0.0045
3860.00,0.0044
3859.00,0.0044
3858.00,0.0045
3857.00,0.0045
3856.00,0.0045
3855.00,0.0045
3854.00,0.0045
3853.00,0.0045
3852.00,0.0044
3851.00,0.0044
3850.00,0.0044
3849.00,0.0044
3848.00,0.0044
3847.00,0.0045
3846.00,0.0045
3845.00,0.0045
3844.00,0.0045
3843.00,0.0045
3842.00,0.0045
3841.00,0.0045
3840.00,0.0045
3839.00,0.0045
3838.00,0.0045
3837.00,0.0045
3836.00,0.0045
3835.00,0.0045
3834.00,0.0045
3833.00,0.0045
3832.00,0.0045
3831.00,0.0045
3830.00,0.0045
3829.00,0.0044
3828.00,0.0044
3827.00,0.0044
3826.00,0.0045
3825.00,0.0045
3824.00,0.0045
3823.00,0.0045
3822.00,0.0045
3821.00,0.0045
3820.00,0.0045
3819.00,0.0045
3818.00,0.0045
3817.00,0.0045
3816.00,0.0045
3815.00,0.0045
3814.00,0.0045
3813.00,0.0045
3812.00,0.0045
3811.00,0.0045
3810.00,0.0045
3809.00,0.0045
3808.00,0.0045
3807.00,0.0045
3806.00,0.0045
3805.00,0.0045
3804.00,0.0045
3803.00,0.0045
3802.00,0.0044
3801.00,0.0044
3800.00,0.0044
3799.00,0.0044
3798.00,0.0044
3797.00,0.0044
3796.00,0.0044
3795.00,0.0044
3794.00,0.0044
3793.00,0.0044
3792.00,0.0044
3791.00,0.0044
3790.00,0.0044
3789.00,0.0044
3788.00,0.0044
3787.00,0.0044
3786.00,0.0044
3785.00,0.0044
3784.00,0.0044
3783.00,0.0045
3782.00,0.0045
3781.00,0.0045
3780.00,0.0044
3779.00,0.0044
3778.00,0.0044
3777.00,0.0044
3776.00,0.0045
3775.00,0.0045
3774.00,0.0045
3773.00,0.0045
3772.00,0.0045
3771.00,0.0045
3770.00,0.0045
3769.00,0.0045
3768.00,0.0045
3767.00,0.0045
3766.00,0.0045
3765.00,0.0044
3764.00,0.0044
3763.00,0.0044
3762.00,0.0045
3761.00,0.0045
3760.00,0.0045
3759.00,0.0045
3758.00,0.0045
3757.00,0.0045
3756.00,0.0045
3755.00,0.0045
3754.00,0.0044
3753.00,0.0044
3752.00,0.0044
3751.00,0.0045
3750.00,0.0045
3749.00,0.0045
3748.00,0.0046
3747.00,0.0046
3746.00,0.0045
3745.00,0.0045
3744.00,0.0045
3743.00,0.0045
3742.00,0.0044
3741.00,0.0044
3740.00,0.0044
3739.00,0.0044
3738.00,0.0044
3737.00,0.0043
3736.00,0.0043
3735.00,0.0043
3734.00,0.0042
3733.00,0.0042
3732.00,0.0042
3731.00,0.0043
3730.00,0.0043
3729.00,0.0043
3728.00,0.0043
3727.00,0.0042
3726.00,0.0042
3725.00,0.0042
3724.00,0.0042
3723.00,0.0042
3722.00,0.0043
3721.00,0.0043
3720.00,0.0043
3719.00,0.0043
3718.00,0.0044
3717.00,0.0044
3716.00,0.0044
3715.00,0.0044
3714.00,0.0044
3713.00,0.0043
3712.00,0.0043
3711.00,0.0043
3710.00,0.0043
3709.00,0.0042
3708.00,0.0042
3707.00,0.0042
3706.00,0.0042
3705.00,0.0042
3704.00,0.0043
3703.00,0.0043
3702.00,0.0043
3701.00,0.0043
3700.00,0.0043
3699.00,0.0043
3698.00,0.0042
3697.00,0.0042
3696.00,0.0042
3695.00,0.0043
3694.00,0.0043
3693.00,0.0043
3692.00,0.0043
3691.00,0.0043
3690.00,0.0043
3689.00,0.0043
3688.00,0.0044
3687.00,0.0044
3686.00,0.0044
3685.00,0.0044
3684.00,0.0045
3683.00,0.0045
3682.00,0.0046
3681.00,0.0046
3680.00,0.0046
3679.00,0.0047
3678.00,0.0047
3677.00,0.0047
3676.00,0.0047
3675.00,0.0047
3674.00,0.0048
3673.00,0.0048
3672.00,0.0048
3671.00,0.0048
3670.00,0.0048
3669.00,0.0048
3668.00,0.0048
3667.00,0.0048
3666.00,0.0048
3665.00,0.0048
3664.00,0.0048
3663.00,0.0048
3662.00,0.0048
3661.00,0.0049
3660.00,0.0049
3659.00,0.0050
3658.00,0.0050
3657.00,0.0050
3656.00,0.0051
3655.00,0.0051
3654.00,0.0051
3653.00,0.0051
3652.00,0.0051
3651.00,0.0051
3650.00,0.0052
3649.00,0.0053
3648.00,0.0053
3647.00,0.0054
3646.00,0.0054
3645.00,0.0054
3644.00,0.0055
3643.00,0.0055
3642.00,0.0056
3641.00,0.0056
3640.00,0.0056
3639.00,0.0056
3638.00,0.0056
3637.00,0.0057
3636.00,0.0057
3635.00,0.0057
3634.00,0.0058
3633.00,0.0059
3632.00,0.0059
3631.00,0.0059
3630.00,0.0060
3629.00,0.0061
3628.00,0.0062
3627.00,0.0063
3626.00,0.0063
3625.00,0.0063
3624.00,0.0063
3623.00,0.0063
3622.00,0.0063
3621.00,0.0064
3620.00,0.0065
3619.00,0.0066
3618.00,0.0067
3617.00,0.0068
3616.00,0.0069
3615.00,0.0070
3614.00,0.0070
3613.00,0.0071
3612.00,0.0072
3611.00,0.0073
3610.00,0.0074
3609.00,0.0075
3608.00,0.0076
3607.00,0.0077
3606.00,0.0077
3605.00,0.0078
3604.00,0.0078
3603.00,0.0078
3602.00,0.0079
3601.00,0.0080
3600.00,0.0080
3599.00,0.0081
3598.00,0.0082
3597.00,0.0083
3596.00,0.0084
3595.00,0.0086
3594.00,0.0087
3593.00,0.0088
3592.00,0.0089
3591.00,0.0089
3590.00,0.0089
3589.00,0.0090
3588.00,0.0091
3587.00,0.0094
3586.00,0.0095
3585.00,0.0097
3584.00,0.0098
3583.00,0.0098
3582.00,0.0099
3581.00,0.0100
3580.00,0.0101
3579.00,0.0102
3578.00,0.0103
3577.00,0.0104
3576.00,0.0105
3575.00,0.0107
3574.00,0.0108
3573.00,0.0109
3572.00,0.0110
3571.00,0.0110
3570.00,0.0111
3569.00,0.0112
3568.00,0.0114
3567.00,0.0117
3566.00,0.0119
3565.00,0.0121
3564.00,0.0122
3563.00,0.0123
3562.00,0.0124
3561.00,0.0125
3560.00,0.0127
3559.00,0.0128
3558.00,0.0129
3557.00,0.0130
3556.00,0.0131
3555.00,0.0132
3554.00,0.0133
3553.00,0.0135
3552.00,0.0137
3551.00,0.0139
3550.00,0.0141
3549.00,0.0142
3548.00,0.0144
3547.00,0.0146
3546.00,0.0149
3545.00,0.0151
3544.00,0.0154
3543.00,0.0157
3542.00,0.0159
3541.00,0.0161
3540.00,0.0163
3539.00,0.0166
3538.00,0.0169
3537.00,0.0173
3536.00,0.0177
3535.00,0.0181
3534.00,0.0186
3533.00,0.0191
3532.00,0.0198
3531.00,0.0205
3530.00,0.0214
3529.00,0.0224
3528.00,0.0236
3527.00,0.0248
3526.00,0.0260
3525.00,0.0273
3524.00,0.0284
3523.00,0.0294
3522.00,0.0302
3521.00,0.0307
3520.00,0.0309
3519.00,0.0309
3518.00,0.0306
3517.00,0.0302
3516.00,0.0297
3515.00,0.0291
3514.00,0.0284
3513.00,0.0277
3512.00,0.0269
3511.00,0.0263
3510.00,0.0256
3509.00,0.0251
3508.00,0.0246
3507.00,0.0241
3506.00,0.0236
3505.00,0.0233
3504.00,0.0231
3503.00,0.0229
3502.00,0.0228
3501.00,0.0228
3500.00,0.0227
3499.00,0.0226
3498.00,0.0225
3497.00,0.0225
3496.00,0.0225
3495.00,0.0226
3494.00,0.0226
3493.00,0.0227
3492.00,0.0227
3491.00,0.0228
3490.00,0.0228
3489.00,0.0230
3488.00,0.0231
3487.00,0.0232
3486.00,0.0233
3485.00,0.0234
3484.00,0.0235
3483.00,0.0237
3482.00,0.0238
3481.00,0.0240
3480.00,0.0242
3479.00,0.0244
3478.00,0.0245
3477.00,0.0247
3476.00,0.0249
3475.00,0.0251
3474.00,0.0253
3473.00,0.0256
3472.00,0.0258
3471.00,0.0260
3470.00,0.0263
3469.00,0.0265
3468.00,0.0268
3467.00,0.0270
3466.00,0.0272
3465.00,0.0275
3464.00,0.0277
3463.00,0.0280
3462.00,0.0283
3461.00,0.0286
3460.00,0.0288
3459.00,0.0291
3458.00,0.0294
3457.00,0.0296
3456.00,0.0299
3455.00,0.0301
3454.00,0.0304
3453.00,0.0306
3452.00,0.0308
3451.00,0.0310
3450.00,0.0312
3449.00,0.0315
3448.00,0.0318
3447.00,0.0321
3446.00,0.0324
3445.00,0.0327
3444.00,0.0329
3443.00,0.0331
3442.00,0.0334
3441.00,0.0336
3440.00,0.0339
3439.00,0.0341
3438.00,0.0343
3437.00,0.0345
3436.00,0.0347
3435.00,0.0349
3434.00,0.0351
3433.00,0.0353
3432.00,0.0355
3431.00,0.0357
3430.00,0.0359
3429.00,0.0361
3428.00,0.0363
3427.00,0.0365
3426.00,0.0367
3425.00,0.0369
3424.00,0.0371
3423.00,0.0374
3422.00,0.0377
3421.00,0.0380
3420.00,0.0384
3419.00,0.0388
3418.00,0.0391
3417.00,0.0395
3416.00,0.0398
3415.00,0.0402
3414.00,0.0406
3413.00,0.0409
3412.00,0.0413
3411.00,0.0415
3410.00,0.0417
3409.00,0.0419
3408.00,0.0419
3407.00,0.0419
3406.00,0.0418
3405.00,0.0416
3404.00,0.0413
3403.00,0.0409
3402.00,0.0404
3401.00,0.0399
3400.00,0.0392
3399.00,0.0385
3398.00,0.0378
3397.00,0.0370
3396.00,0.0363
3395.00,0.0355
3394.00,0.0347
3393.00,0.0339
3392.00,0.0333
3391.00,0.0326
3390.00,0.0320
3389.00,0.0314
3388.00,0.0308
3387.00,0.0303
3386.00,0.0297
3385.00,0.0292
3384.00,0.0288
3383.00,0.0283
3382.00,0.0279
3381.00,0.0276
3380.00,0.0272
3379.00,0.0268
3378.00,0.0265
3377.00,0.0261
3376.00,0.0258
3375.00,0.0255
3374.00,0.0252
3373.00,0.0249
3372.00,0.0245
3371.00,0.0242
3370.00,0.0240
3369.00,0.0237
3368.00,0.0235
3367.00,0.0233
3366.00,0.0232
3365.00,0.0230
3364.00,0.0228
3363.00,0.0225
3362.00,0.0223
3361.00,0.0221
3360.00,0.0219
3359.00,0.0217
3358.00,0.0216
3357.00,0.0214
3356.00,0.0212
3355.00,0.0211
3354.00,0.0209
3353.00,0.0206
3352.00,0.0204
3351.00,0.0202
3350.00,0.0201
3349.00,0.0200
3348.00,0.0199
3347.00,0.0198
3346.00,0.0196
3345.00,0.0195
3344.00,0.0193
3343.00,0.0192
3342.00,0.0190
3341.00,0.0189
3340.00,0.0188
3339.00,0.0187
3338.00,0.0186
3337.00,0.0185
3336.00,0.0185
3335.00,0.0184
3334.00,0.0183
3333.00,0.0183
3332.00,0.0182
3331.00,0.0181
3330.00,0.0180
3329.00,0.0178
3328.00,0.0177
3327.00,0.0175
3326.00,0.0175
3325.00,0.0174
3324.00,0.0174
3323.00,0.0174
3322.00,0.0174
3321.00,0.0173
3320.00,0.0173
3319.00,0.0172
3318.00,0.0171
3317.00,0.0170
3316.00,0.0169
3315.00,0.0169
3314.00,0.0168
3313.00,0.0167
3312.00,0.0166
3311.00,0.0164
3310.00,0.0163
3309.00,0.0161
3308.00,0.0160
3307.00,0.0159
3306.00,0.0159
3305.00,0.0159
3304.00,0.0160
3303.00,0.0161
3302.00,0.0161
3301.00,0.0161
3300.00,0.0160
3299.00,0.0159
3298.00,0.0158
3297.00,0.0157
3296.00,0.0156
3295.00,0.0155
3294.00,0.0154
3293.00,0.0154
3292.00,0.0154
3291.00,0.0154
3290.00,0.0155
3289.00,0.0155
3288.00,0.0155
3287.00,0.0154
3286.00,0.0154
3285.00,0.0153
3284.00,0.0153
3283.00,0.0152
3282.00,0.0152
3281.00,0.0151
3280.00,0.0151
3279.00,0.0150
3278.00,0.0149
3277.00,0.0148
3276.00,0.0147
3275.00,0.0146
3274.00,0.0145
3273.00,0.0143
3272.00,0.0143
3271.00,0.0142
3270.00,0.0142
3269.00,0.0143
3268.00,0.0143
3267.00,0.0143
3266.00,0.0143
3265.00,0.0143
3264.00,0.0143
3263.00,0.0142
3262.00,0.0141
3261.00,0.0141
3260.00,0.0140
3259.00,0.0139
3258.00,0.0138
3257.00,0.0137
3256.00,0.0137
3255.00,0.0136
3254.00,0.0136
3253.00,0.0136
3252.00,0.0136
3251.00,0.0135
3250.00,0.0134
3249.00,0.0132
3248.00,0.0131
3247.00,0.0131
3246.00,0.0130
3245.00,0.0130
3244.00,0.0130
3243.00,0.0130
3242.00,0.0130
3241.00,0.0129
3240.00,0.0128
3239.00,0.0127
3238.00,0.0127
3237.00,0.0126
3236.00,0.0125
3235.00,0.0123
3234.00,0.0123
3233.00,0.0122
3232.00,0.0122
3231.00,0.0122
3230.00,0.0122
3229.00,0.0121
3228.00,0.0121
3227.00,0.0120
3226.00,0.0120
3225.00,0.0119
3224.00,0.0119
3223.00,0.0118
3222.00,0.0118
3221.00,0.0117
3220.00,0.0116
3219.00,0.0116
3218.00,0.0115
3217.00,0.0115
3216.00,0.0114
3215.00,0.0114
3214.00,0.0113
3213.00,0.0112
3212.00,0.0112
3211.00,0.0111
3210.00,0.0111
3209.00,0.0110
3208.00,0.0110
3207.00,0.0109
3206.00,0.0109
3205.00,0.0108
3204.00,0.0108
3203.00,0.0108
3202.00,0.0107
3201.00,0.0106
3200.00,0.0106
3199.00,0.0105
3198.00,0.0105
3197.00,0.0104
3196.00,0.0104
3195.00,0.0103
3194.00,0.0103
3193.00,0.0102
3192.00,0.0102
3191.00,0.0101
3190.00,0.0101
3189.00,0.0100
3188.00,0.0100
3187.00,0.0099
3186.00,0.0099
3185.00,0.0098
3184.00,0.0098
3183.00,0.0098
3182.00,0.0098
3181.00,0.0098
3180.00,0.0098
3179.00,0.0097
3178.00,0.0097
3177.00,0.0097
3176.00,0.0096
3175.00,0.0096
3174.00,0.0096
3173.00,0.0096
3172.00,0.0096
3171.00,0.0095
3170.00,0.0095
3169.00,0.0095
3168.00,0.0095
3167.00,0.0094
3166.00,0.0094
3165.00,0.0094
3164.00,0.0094
3163.00,0.0093
3162.00,0.0093
3161.00,0.0092
3160.00,0.0092
3159.00,0.0091
3158.00,0.0091
3157.00,0.0090
3156.00,0.0090
3155.00,0.0089
3154.00,0.0088
3153.00,0.0088
3152.00,0.0088
3151.00,0.0088
3150.00,0.0088
3149.00,0.0088
3148.00,0.0088
3147.00,0.0087
3146.00,0.0087
3145.00,0.0086
3144.00,0.0086
3143.00,0.0086
3142.00,0.0085
3141.00,0.0085
3140.00,0.0084
3139.00,0.0084
3138.00,0.0084
3137.00,0.0084
3136.00,0.0084
3135.00,0.0084
3134.00,0.0084
3133.00,0.0084
3132.00,0.0083
3131.00,0.0083
3130.00,0.0083
3129.00,0.0082
3128.00,0.0082
3127.00,0.0082
3126.00,0.0081
3125.00,0.0081
3124.00,0.0081
3123.00,0.0081
3122.00,0.0080
3121.00,0.0080
3120.00,0.0080
3119.00,0.0080
3118.00,0.0080
3117.00,0.0080
3116.00,0.0079
3115.00,0.0079
3114.00,0.0079
3113.00,0.0079
3112.00,0.0079
3111.00,0.0079
3110.00,0.0079
3109.00,0.0079
3108.00,0.0079
3107.00,0.0079
3106.00,0.0078
3105.00,0.0078
3104.00,0.0078
3103.00,0.0078
3102.00,0.0078
3101.00,0.0078
3100.00,0.0078
3099.00,0.0078
3098.00,0.0078
3097.00,0.0078
3096.00,0.0078
3095.00,0.0078
3094.00,0.0077
3093.00,0.0077
3092.00,0.0078
3091.00,0.0078
3090.00,0.0078
3089.00,0.0078
3088.00,0.0078
3087.00,0.0079
3086.00,0.0079
3085.00,0.0080
3084.00,0.0081
3083.00,0.0083
3082.00,0.0084
3081.00,0.0087
3080.00,0.0090
3079.00,0.0094
3078.00,0.0099
3077.00,0.0103
3076.00,0.0106
3075.00,0.0108
3074.00,0.0107
3073.00,0.0104
3072.00,0.0100
3071.00,0.0096
3070.00,0.0092
3069.00,0.0088
3068.00,0.0085
3067.00,0.0083
3066.00,0.0081
3065.00,0.0080
3064.00,0.0079
3063.00,0.0078
3062.00,0.0077
3061.00,0.0077
3060.00,0.0076
3059.00,0.0076
3058.00,0.0075
3057.00,0.0075
3056.00,0.0075
3055.00,0.0075
3054.00,0.0075
3053.00,0.0075
3052.00,0.0075
3051.00,0.0075
3050.00,0.0075
3049.00,0.0076
3048.00,0.0076
3047.00,0.0077
3046.00,0.0077
3045.00,0.0077
3044.00,0.0078
3043.00,0.0078
3042.00,0.0078
3041.00,0.0079
3040.00,0.0079
3039.00,0.0080
3038.00,0.0080
3037.00,0.0081
3036.00,0.0082
3035.00,0.0082
3034.00,0.0083
3033.00,0.0083
3032.00,0.0084
3031.00,0.0084
3030.00,0.0084
3029.00,0.0083
3028.00,0.0083
3027.00,0.0082
3026.00,0.0081
3025.00,0.0080
3024.00,0.0080
3023.00,0.0080
3022.00,0.0080
3021.00,0.0080
3020.00,0.0080
3019.00,0.0081
3018.00,0.0081
3017.00,0.0082
3016.00,0.0083
3015.00,0.0084
3014.00,0.0085
3013.00,0.0086
3012.00,0.0087
3011.00,0.0089
3010.00,0.0091
3009.00,0.0092
3008.00,0.0094
3007.00,0.0096
3006.00,0.0097
3005.00,0.0099
3004.00,0.0101
3003.00,0.0103
3002.00,0.0105
3001.00,0.0108
3000.00,0.0110
2999.00,0.0113
2998.00,0.0116
2997.00,0.0119
2996.00,0.0122
2995.00,0.0125
2994.00,0.0128
2993.00,0.0132
2992.00,0.0135
2991.00,0.0139
2990.00,0.0143
2989.00,0.0147
2988.00,0.0150
2987.00,0.0152
2986.00,0.0155
2985.00,0.0157
2984.00,0.0160
2983.00,0.0163
2982.00,0.0167
2981.00,0.0171
2980.00,0.0176
2979.00,0.0181
2978.00,0.0187
2977.00,0.0194
2976.00,0.0202
2975.00,0.0210
2974.00,0.0219
2973.00,0.0229
2972.00,0.0239
2971.00,0.0249
2970.00,0.0259
2969.00,0.0268
2968.00,0.0276
2967.00,0.0283
2966.00,0.0288
2965.00,0.0292
2964.00,0.0294
2963.00,0.0295
2962.00,0.0296
2961.00,0.0296
2960.00,0.0296
2959.00,0.0294
2958.00,0.0292
2957.00,0.0289
2956.00,0.0286
2955.00,0.0283
2954.00,0.0280
2953.00,0.0278
2952.00,0.0276
2951.00,0.0276
2950.00,0.0277
2949.00,0.0279
2948.00,0.0283
2947.00,0.0288
2946.00,0.0295
2945.00,0.0302
2944.00,0.0309
2943.00,0.0315
2942.00,0.0321
2941.00,0.0327
2940.00,0.0332
2939.00,0.0337
2938.00,0.0343
2937.00,0.0350
2936.00,0.0358
2935.00,0.0367
2934.00,0.0375
2933.00,0.0384
2932.00,0.0393
2931.00,0.0403
2930.00,0.0412
2929.00,0.0421
2928.00,0.0429
2927.00,0.0436
2926.00,0.0440
2925.00,0.0443
2924.00,0.0443
2923.00,0.0441
2922.00,0.0438
2921.00,0.0435
2920.00,0.0432
2919.00,0.0429
2918.00,0.0426
2917.00,0.0422
2916.00,0.0418
2915.00,0.0413
2914.00,0.0406
2913.00,0.0398
2912.00,0.0389
2911.00,0.0379
2910.00,0.0370
2909.00,0.0360
2908.00,0.0351
2907.00,0.0342
2906.00,0.0333
2905.00,0.0326
2904.00,0.0320
2903.00,0.0315
2902.00,0.0310
2901.00,0.0306
2900.00,0.0301
2899.00,0.0297
2898.00,0.0292
2897.00,0.0287
2896.00,0.0282
2895.00,0.0278
2894.00,0.0273
2893.00,0.0269
2892.00,0.0266
2891.00,0.0264
2890.00,0.0262
2889.00,0.0260
2888.00,0.0259
2887.00,0.0258
2886.00,0.0257
2885.00,0.0257
2884.00,0.0256
2883.00,0.0256
2882.00,0.0256
2881.00,0.0256
2880.00,0.0257
2879.00,0.0257
2878.00,0.0259
2877.00,0.0260
2876.00,0.0261
2875.00,0.0263
2874.00,0.0264
2873.00,0.0266
2872.00,0.0266
2871.00,0.0266
2870.00,0.0264
2869.00,0.0262
2868.00,0.0260
2867.00,0.0258
2866.00,0.0258
2865.00,0.0259
2864.00,0.0263
2863.00,0.0268
2862.00,0.0277
2861.00,0.0287
2860.00,0.0299
2859.00,0.0311
2858.00,0.0321
2857.00,0.0328
2856.00,0.0330
2855.00,0.0325
2854.00,0.0316
2853.00,0.0303
2852.00,0.0287
2851.00,0.0271
2850.00,0.0255
2849.00,0.0240
2848.00,0.0226
2847.00,0.0213
2846.00,0.0202
2845.00,0.0193
2844.00,0.0185
2843.00,0.0177
2842.00,0.0171
2841.00,0.0165
2840.00,0.0161
2839.00,0.0158
2838.00,0.0157
2837.00,0.0158
2836.00,0.0160
2835.00,0.0163
2834.00,0.0168
2833.00,0.0174
2832.00,0.0180
2831.00,0.0186
2830.00,0.0188
2829.00,0.0187
2828.00,0.0182
2827.00,0.0174
2826.00,0.0164
2825.00,0.0154
2824.00,0.0144
2823.00,0.0136
2822.00,0.0129
2821.00,0.0123
2820.00,0.0119
2819.00,0.0115
2818.00,0.0112
2817.00,0.0109
2816.00,0.0107
2815.00,0.0105
2814.00,0.0103
2813.00,0.0102
2812.00,0.0100
2811.00,0.0099
2810.00,0.0097
2809.00,0.0096
2808.00,0.0095
2807.00,0.0094
2806.00,0.0093
2805.00,0.0093
2804.00,0.0092
2803.00,0.0091
2802.00,0.0090
2801.00,0.0089
2800.00,0.0088
2799.00,0.0088
2798.00,0.0087
2797.00,0.0086
2796.00,0.0086
2795.00,0.0085
2794.00,0.0085
2793.00,0.0084
2792.00,0.0084
2791.00,0.0083
2790.00,0.0083
2789.00,0.0082
2788.00,0.0082
2787.00,0.0081
2786.00,0.0081
2785.00,0.0080
2784.00,0.0080
2783.00,0.0080
2782.00,0.0080
2781.00,0.0079
2780.00,0.0079
2779.00,0.0078
2778.00,0.0078
2777.00,0.0077
2776.00,0.0077
2775.00,0.0077
2774.00,0.0076
2773.00,0.0076
2772.00,0.0076
2771.00,0.0076
2770.00,0.0076
2769.00,0.0075
2768.00,0.0075
2767.00,0.0075
2766.00,0.0074
2765.00,0.0074
2764.00,0.0074
2763.00,0.0074
2762.00,0.0073
2761.00,0.0073
2760.00,0.0073
2759.00,0.0073
2758.00,0.0073
2757.00,0.0073
2756.00,0.0073
2755.00,0.0073
2754.00,0.0073
2753.00,0.0073
2752.00,0.0073
2751.00,0.0073
2750.00,0.0073
2749.00,0.0073
2748.00,0.0073
2747.00,0.0073
2746.00,0.0073
2745.00,0.0073
2744.00,0.0073
2743.00,0.0073
2742.00,0.0073
2741.00,0.0074
2740.00,0.0074
2739.00,0.0074
2738.00,0.0074
2737.00,0.0075
2736.00,0.0075
2735.00,0.0075
2734.00,0.0076
2733.00,0.0077
2732.00,0.0077
2731.00,0.0078
2730.00,0.0078
2729.00,0.0078
2728.00,0.0078
2727.00,0.0077
2726.00,0.0077
2725.00,0.0076
2724.00,0.0075
2723.00,0.0075
2722.00,0.0074
2721.00,0.0073
2720.00,0.0073
2719.00,0.0073
2718.00,0.0072
2717.00,0.0072
2716.00,0.0072
2715.00,0.0071
2714.00,0.0071
2713.00,0.0070
2712.00,0.0070
2711.00,0.0070
2710.00,0.0069
2709.00,0.0069
2708.00,0.0069
2707.00,0.0069
2706.00,0.0069
2705.00,0.0069
2704.00,0.0069
2703.00,0.0068
2702.00,0.0068
2701.00,0.0068
2700.00,0.0068
2699.00,0.0068
2698.00,0.0068
2697.00,0.0068
2696.00,0.0068
2695.00,0.0068
2694.00,0.0068
2693.00,0.0068
2692.00,0.0067
2691.00,0.0067
2690.00,0.0067
2689.00,0.0067
2688.00,0.0067
2687.00,0.0067
2686.00,0.0068
2685.00,0.0068
2684.00,0.0068
2683.00,0.0068
2682.00,0.0068
2681.00,0.0068
2680.00,0.0068
2679.00,0.0068
2678.00,0.0068
2677.00,0.0068
2676.00,0.0068
2675.00,0.0068
2674.00,0.0069
2673.00,0.0069
2672.00,0.0069
2671.00,0.0069
2670.00,0.0070
2669.00,0.0070
2668.00,0.0070
2667.00,0.0070
2666.00,0.0071
2665.00,0.0071
2664.00,0.0072
2663.00,0.0072
2662.00,0.0072
2661.00,0.0073
2660.00,0.0073
2659.00,0.0073
2658.00,0.0073
2657.00,0.0073
2656.00,0.0073
2655.00,0.0073
2654.00,0.0073
2653.00,0.0073
2652.00,0.0073
2651.00,0.0073
2650.00,0.0073
2649.00,0.0073
2648.00,0.0073
2647.00,0.0072
2646.00,0.0072
2645.00,0.0072
2644.00,0.0072
2643.00,0.0072
2642.00,0.0072
2641.00,0.0072
2640.00,0.0072
2639.00,0.0072
2638.00,0.0072
2637.00,0.0072
2636.00,0.0071
2635.00,0.0071
2634.00,0.0071
2633.00,0.0071
2632.00,0.0071
2631.00,0.0071
2630.00,0.0071
2629.00,0.0070
2628.00,0.0070
2627.00,0.0070
2626.00,0.0070
2625.00,0.0070
2624.00,0.0070
2623.00,0.0070
2622.00,0.0070
2621.00,0.0070
2620.00,0.0070
2619.00,0.0069
2618.00,0.0069
2617.00,0.0069
2616.00,0.0069
2615.00,0.0069
2614.00,0.0069
2613.00,0.0069
2612.00,0.0069
2611.00,0.0069
2610.00,0.0069
2609.00,0.0069
2608.00,0.0069
2607.00,0.0069
2606.00,0.0069
2605.00,0.0069
2604.00,0.0068
2603.00,0.0068
2602.00,0.0068
2601.00,0.0068
2600.00,0.0067
2599.00,0.0067
2598.00,0.0067
2597.00,0.0067
2596.00,0.0068
2595.00,0.0068
2594.00,0.0067
2593.00,0.0067
2592.00,0.0068
2591.00,0.0068
2590.00,0.0067
2589.00,0.0067
2588.00,0.0067
2587.00,0.0067
2586.00,0.0067
2585.00,0.0067
2584.00,0.0067
2583.00,0.0067
2582.00,0.0067
2581.00,0.0067
2580.00,0.0067
2579.00,0.0067
2578.00,0.0067
2577.00,0.0067
2576.00,0.0067
2575.00,0.0067
2574.00,0.0067
2573.00,0.0067
2572.00,0.0067
2571.00,0.0066
2570.00,0.0066
2569.00,0.0066
2568.00,0.0066
2567.00,0.0066
2566.00,0.0066
2565.00,0.0066
2564.00,0.0066
2563.00,0.0066
2562.00,0.0066
2561.00,0.0066
2560.00,0.0066
2559.00,0.0066
2558.00,0.0065
2557.00,0.0065
2556.00,0.0065
2555.00,0.0065
2554.00,0.0065
2553.00,0.0065
2552.00,0.0065
2551.00,0.0065
2550.00,0.0065
2549.00,0.0064
2548.00,0.0064
2547.00,0.0063
2546.00,0.0063
2545.00,0.0063
2544.00,0.0063
2543.00,0.0063
2542.00,0.0063
2541.00,0.0063
2540.00,0.0063
2539.00,0.0063
2538.00,0.0063
2537.00,0.0063
2536.00,0.0063
2535.00,0.0063
2534.00,0.0062
2533.00,0.0062
2532.00,0.0062
2531.00,0.0062
2530.00,0.0062
2529.00,0.0063
2528.00,0.0063
2527.00,0.0063
2526.00,0.0063
2525.00,0.0063
2524.00,0.0063
2523.00,0.0063
2522.00,0.0063
2521.00,0.0062
2520.00,0.0063
2519.00,0.0063
2518.00,0.0062
2517.00,0.0063
2516.00,0.0063
2515.00,0.0062
2514.00,0.0062
2513.00,0.0062
2512.00,0.0062
2511.00,0.0062
2510.00,0.0062
2509.00,0.0062
2508.00,0.0062
2507.00,0.0062
2506.00,0.0062
2505.00,0.0061
2504.00,0.0061
2503.00,0.0061
2502.00,0.0061
2501.00,0.0061
2500.00,0.0061
2499.00,0.0061
2498.00,0.0061
2497.00,0.0061
2496.00,0.0062
2495.00,0.0062
2494.00,0.0062
2493.00,0.0062
2492.00,0.0062
2491.00,0.0061
2490.00,0.0061
2489.00,0.0061
2488.00,0.0061
2487.00,0.0061
2486.00,0.0061
2485.00,0.0061
2484.00,0.0061
2483.00,0.0061
2482.00,0.0062
2481.00,0.0062
2480.00,0.0062
2479.00,0.0062
2478.00,0.0061
2477.00,0.0061
2476.00,0.0061
2475.00,0.0061
2474.00,0.0061
2473.00,0.0062
2472.00,0.0062
2471.00,0.0062
2470.00,0.0062
2469.00,0.0062
2468.00,0.0062
2467.00,0.0061
2466.00,0.0061
2465.00,0.0062
2464.00,0.0062
2463.00,0.0062
2462.00,0.0062
2461.00,0.0062
2460.00,0.0062
2459.00,0.0063
2458.00,0.0063
2457.00,0.0063
2456.00,0.0063
2455.00,0.0064
2454.00,0.0063
2453.00,0.0063
2452.00,0.0063
2451.00,0.0063
2450.00,0.0063
2449.00,0.0063
2448.00,0.0063
2447.00,0.0063
2446.00,0.0063
2445.00,0.0062
2444.00,0.0061
2443.00,0.0061
2442.00,0.0060
2441.00,0.0060
2440.00,0.0060
2439.00,0.0060
2438.00,0.0059
2437.00,0.0059
2436.00,0.0059
2435.00,0.0059
2434.00,0.0058
2433.00,0.0059
2432.00,0.0059
2431.00,0.0059
2430.00,0.0059
2429.00,0.0058
2428.00,0.0058
2427.00,0.0058
2426.00,0.0058
2425.00,0.0058
2424.00,0.0058
2423.00,0.0058
2422.00,0.0058
2421.00,0.0058
2420.00,0.0058
2419.00,0.0058
2418.00,0.0058
2417.00,0.0058
2416.00,0.0058
2415.00,0.0057
2414.00,0.0057
2413.00,0.0057
2412.00,0.0057
2411.00,0.0057
2410.00,0.0057
2409.00,0.0056
2408.00,0.0056
2407.00,0.0055
2406.00,0.0055
2405.00,0.0056
2404.00,0.0056
2403.00,0.0056
2402.00,0.0056
2401.00,0.0056
2400.00,0.0056
2399.00,0.0056
2398.00,0.0056
2397.00,0.0056
2396.00,0.0056
2395.00,0.0055
2394.00,0.0055
2393.00,0.0055
2392.00,0.0055
2391.00,0.0055
2390.00,0.0055
2389.00,0.0055
2388.00,0.0055
2387.00,0.0055
2386.00,0.0054
2385.00,0.0053
2384.00,0.0053
2383.00,0.0052
2382.00,0.0051
2381.00,0.0051
2380.00,0.0050
2379.00,0.0050
2378.00,0.0050
2377.00,0.0051
2376.00,0.0051
2375.00,0.0051
2374.00,0.0051
2373.00,0.0051
2372.00,0.0051
2371.00,0.0051
2370.00,0.0050
2369.00,0.0050
2368.00,0.0050
2367.00,0.0050
2366.00,0.0050
2365.00,0.0050
2364.00,0.0051
2363.00,0.0051
2362.00,0.0051
2361.00,0.0051
2360.00,0.0051
2359.00,0.0051
2358.00,0.0051
2357.00,0.0051
2356.00,0.0052
2355.00,0.0053
2354.00,0.0053
2353.00,0.0053
2352.00,0.0053
2351.00,0.0053
2350.00,0.0053
2349.00,0.0053
2348.00,0.0053
2347.00,0.0054
2346.00,0.0054
2345.00,0.0053
2344.00,0.0053
2343.00,0.0054
2342.00,0.0055
2341.00,0.0055
2340.00,0.0056
2339.00,0.0057
2338.00,0.0057
2337.00,0.0057
2336.00,0.0057
2335.00,0.0057
2334.00,0.0057
2333.00,0.0057
2332.00,0.0057
2331.00,0.0057
2330.00,0.0058
2329.00,0.0060
2328.00,0.0064
2327.00,0.0069
2326.00,0.0072
2325.00,0.0072
2324.00,0.0071
2323.00,0.0068
2322.00,0.0066
2321.00,0.0064
2320.00,0.0064
2319.00,0.0063
2318.00,0.0063
2317.00,0.0063
2316.00,0.0063
2315.00,0.0063
2314.00,0.0062
2313.00,0.0061
2312.00,0.0060
2311.00,0.0059
2310.00,0.0059
2309.00,0.0059
2308.00,0.0059
2307.00,0.0059
2306.00,0.0060
2305.00,0.0061
2304.00,0.0061
2303.00,0.0061
2302.00,0.0061
2301.00,0.0061
2300.00,0.0061
2299.00,0.0061
2298.00,0.0062
2297.00,0.0062
2296.00,0.0063
2295.00,0.0065
2294.00,0.0066
2293.00,0.0066
2292.00,0.0067
2291.00,0.0067
2290.00,0.0068
2289.00,0.0069
2288.00,0.0070
2287.00,0.0070
2286.00,0.0069
2285.00,0.0069
2284.00,0.0068
2283.00,0.0068
2282.00,0.0067
2281.00,0.0066
2280.00,0.0065
2279.00,0.0064
2278.00,0.0063
2277.00,0.0063
2276.00,0.0063
2275.00,0.0063
2274.00,0.0063
2273.00,0.0063
2272.00,0.0063
2271.00,0.0063
2270.00,0.0062
2269.00,0.0061
2268.00,0.0061
2267.00,0.0061
2266.00,0.0061
2265.00,0.0061
2264.00,0.0061
2263.00,0.0061
2262.00,0.0061
2261.00,0.0061
2260.00,0.0062
2259.00,0.0062
2258.00,0.0062
2257.00,0.0061
2256.00,0.0060
2255.00,0.0059
2254.00,0.0059
2253.00,0.0059
2252.00,0.0060
2251.00,0.0060
2250.00,0.0060
2249.00,0.0059
2248.00,0.0058
2247.00,0.0058
2246.00,0.0058
2245.00,0.0058
2244.00,0.0059
2243.00,0.0060
2242.00,0.0060
2241.00,0.0061
2240.00,0.0062
2239.00,0.0062
2238.00,0.0061
2237.00,0.0061
2236.00,0.0061
2235.00,0.0060
2234.00,0.0060
2233.00,0.0060
2232.00,0.0060
2231.00,0.0060
2230.00,0.0060
2229.00,0.0060
2228.00,0.0061
2227.00,0.0060
2226.00,0.0059
2225.00,0.0059
2224.00,0.0059
2223.00,0.0059
2222.00,0.0059
2221.00,0.0059
2220.00,0.0059
2219.00,0.0059
2218.00,0.0059
2217.00,0.0060
2216.00,0.0059
2215.00,0.0059
2214.00,0.0058
2213.00,0.0058
2212.00,0.0058
2211.00,0.0058
2210.00,0.0058
2209.00,0.0058
2208.00,0.0058
2207.00,0.0058
2206.00,0.0058
2205.00,0.0059
2204.00,0.0059
2203.00,0.0059
2202.00,0.0059
2201.00,0.0059
2200.00,0.0059
2199.00,0.0059
2198.00,0.0059
2197.00,0.0059
2196.00,0.0060
2195.00,0.0061
2194.00,0.0063
2193.00,0.0064
2192.00,0.0065
2191.00,0.0066
2190.00,0.0066
2189.00,0.0067
2188.00,0.0068
2187.00,0.0068
2186.00,0.0065
2185.00,0.0062
2184.00,0.0058
2183.00,0.0055
2182.00,0.0054
2181.00,0.0054
2180.00,0.0055
2179.00,0.0056
2178.00,0.0056
2177.00,0.0055
2176.00,0.0055
2175.00,0.0055
2174.00,0.0057
2173.00,0.0060
2172.00,0.0063
2171.00,0.0067
2170.00,0.0069
2169.00,0.0071
2168.00,0.0072
2167.00,0.0073
2166.00,0.0073
2165.00,0.0075
2164.00,0.0078
2163.00,0.0078
2162.00,0.0071
2161.00,0.0056
2160.00,0.0038
2159.00,0.0025
2158.00,0.0019
2157.00,0.0020
2156.00,0.0025
2155.00,0.0030
2154.00,0.0034
2153.00,0.0038
2152.00,0.0040
2151.00,0.0041
2150.00,0.0040
2149.00,0.0039
2148.00,0.0038
2147.00,0.0038
2146.00,0.0039
2145.00,0.0041
2144.00,0.0042
2143.00,0.0042
2142.00,0.0042
2141.00,0.0042
2140.00,0.0043
2139.00,0.0043
2138.00,0.0042
2137.00,0.0040
2136.00,0.0037
2135.00,0.0035
2134.00,0.0034
2133.00,0.0035
2132.00,0.0038
2131.00,0.0040
2130.00,0.0042
2129.00,0.0045
2128.00,0.0047
2127.00,0.0049
2126.00,0.0049
2125.00,0.0050
2124.00,0.0051
2123.00,0.0051
2122.00,0.0051
2121.00,0.0052
2120.00,0.0053
2119.00,0.0055
2118.00,0.0056
2117.00,0.0057
2116.00,0.0058
2115.00,0.0059
2114.00,0.0058
2113.00,0.0058
2112.00,0.0058
2111.00,0.0058
2110.00,0.0057
2109.00,0.0057
2108.00,0.0057
2107.00,0.0057
2106.00,0.0057
2105.00,0.0057
2104.00,0.0058
2103.00,0.0057
2102.00,0.0057
2101.00,0.0056
2100.00,0.0056
2099.00,0.0055
2098.00,0.0053
2097.00,0.0052
2096.00,0.0051
2095.00,0.0050
2094.00,0.0050
2093.00,0.0052
2092.00,0.0054
2091.00,0.0055
2090.00,0.0056
2089.00,0.0056
2088.00,0.0057
2087.00,0.0057
2086.00,0.0056
2085.00,0.0056
2084.00,0.0057
2083.00,0.0057
2082.00,0.0057
2081.00,0.0058
2080.00,0.0059
2079.00,0.0059
2078.00,0.0059
2077.00,0.0059
2076.00,0.0058
2075.00,0.0057
2074.00,0.0057
2073.00,0.0056
2072.00,0.0056
2071.00,0.0056
2070.00,0.0055
2069.00,0.0055
2068.00,0.0055
2067.00,0.0055
2066.00,0.0055
2065.00,0.0054
2064.00,0.0054
2063.00,0.0053
2062.00,0.0052
2061.00,0.0051
2060.00,0.0051
2059.00,0.0052
2058.00,0.0052
2057.00,0.0052
2056.00,0.0052
2055.00,0.0053
2054.00,0.0055
2053.00,0.0060
2052.00,0.0064
2051.00,0.0064
2050.00,0.0061
2049.00,0.0058
2048.00,0.0057
2047.00,0.0056
2046.00,0.0054
2045.00,0.0053
2044.00,0.0052
2043.00,0.0052
2042.00,0.0052
2041.00,0.0052
2040.00,0.0052
2039.00,0.0051
2038.00,0.0050
2037.00,0.0049
2036.00,0.0047
2035.00,0.0045
2034.00,0.0043
2033.00,0.0043
2032.00,0.0042
2031.00,0.0041
2030.00,0.0040
2029.00,0.0040
2028.00,0.0040
2027.00,0.0041
2026.00,0.0040
2025.00,0.0040
2024.00,0.0041
2023.00,0.0042
2022.00,0.0042
2021.00,0.0042
2020.00,0.0042
2019.00,0.0043
2018.00,0.0042
2017.00,0.0042
2016.00,0.0042
2015.00,0.0041
2014.00,0.0040
2013.00,0.0040
2012.00,0.0040
2011.00,0.0041
2010.00,0.0041
2009.00,0.0040
2008.00,0.0039
2007.00,0.0037
2006.00,0.0034
2005.00,0.0034
2004.00,0.0035
2003.00,0.0036
2002.00,0.0037
2001.00,0.0039
2000.00,0.0041
1999.00,0.0042
1998.00,0.0043
1997.00,0.0044
1996.00,0.0045
1995.00,0.0045
1994.00,0.0045
1993.00,0.0046
1992.00,0.0047
1991.00,0.0047
1990.00,0.0047
1989.00,0.0048
1988.00,0.0050
1987.00,0.0052
1986.00,0.0053
1985.00,0.0054
1984.00,0.0057
1983.00,0.0060
1982.00,0.0062
1981.00,0.0062
1980.00,0.0059
1979.00,0.0051
1978.00,0.0042
1977.00,0.0036
1976.00,0.0035
1975.00,0.0035
1974.00,0.0035
1973.00,0.0036
1972.00,0.0037
1971.00,0.0038
1970.00,0.0038
1969.00,0.0039
1968.00,0.0040
1967.00,0.0041
1966.00,0.0040
1965.00,0.0039
1964.00,0.0037
1963.00,0.0035
1962.00,0.0033
1961.00,0.0032
1960.00,0.0033
1959.00,0.0034
1958.00,0.0035
1957.00,0.0037
1956.00,0.0038
1955.00,0.0038
1954.00,0.0038
1953.00,0.0038
1952.00,0.0038
1951.00,0.0038
1950.00,0.0037
1949.00,0.0038
1948.00,0.0039
1947.00,0.0040
1946.00,0.0040
1945.00,0.0041
1944.00,0.0041
1943.00,0.0041
1942.00,0.0039
1941.00,0.0039
1940.00,0.0040
1939.00,0.0040
1938.00,0.0040
1937.00,0.0040
1936.00,0.0040
1935.00,0.0040
1934.00,0.0040
1933.00,0.0040
1932.00,0.0040
1931.00,0.0041
1930.00,0.0041
1929.00,0.0041
1928.00,0.0042
1927.00,0.0042
1926.00,0.0042
1925.00,0.0043
1924.00,0.0045
1923.00,0.0046
1922.00,0.0045
1921.00,0.0045
1920.00,0.0045
1919.00,0.0044
1918.00,0.0043
1917.00,0.0043
1916.00,0.0044
1915.00,0.0045
1914.00,0.0045
1913.00,0.0046
1912.00,0.0047
1911.00,0.0047
1910.00,0.0047
1909.00,0.0047
1908.00,0.0046
1907.00,0.0046
1906.00,0.0045
1905.00,0.0045
1904.00,0.0046
1903.00,0.0046
1902.00,0.0046
1901.00,0.0045
1900.00,0.0046
1899.00,0.0046
1898.00,0.0046
1897.00,0.0046
1896.00,0.0047
1895.00,0.0047
1894.00,0.0046
1893.00,0.0046
1892.00,0.0046
1891.00,0.0047
1890.00,0.0047
1889.00,0.0046
1888.00,0.0046
1887.00,0.0046
1886.00,0.0046
1885.00,0.0047
1884.00,0.0047
1883.00,0.0047
1882.00,0.0047
1881.00,0.0047
1880.00,0.0048
1879.00,0.0047
1878.00,0.0047
1877.00,0.0047
1876.00,0.0047
1875.00,0.0047
1874.00,0.0046
1873.00,0.0046
1872.00,0.0047
1871.00,0.0048
1870.00,0.0049
1869.00,0.0049
1868.00,0.0049
1867.00,0.0049
1866.00,0.0048
1865.00,0.0047
1864.00,0.0047
1863.00,0.0048
1862.00,0.0048
1861.00,0.0048
1860.00,0.0048
1859.00,0.0048
1858.00,0.0047
1857.00,0.0047
1856.00,0.0047
1855.00,0.0047
1854.00,0.0047
1853.00,0.0047
1852.00,0.0048
1851.00,0.0048
1850.00,0.0049
1849.00,0.0050
1848.00,0.0050
1847.00,0.0050
1846.00,0.0048
1845.00,0.0047
1844.00,0.0046
1843.00,0.0045
1842.00,0.0046
1841.00,0.0047
1840.00,0.0048
1839.00,0.0049
1838.00,0.0049
1837.00,0.0049
1836.00,0.0049
1835.00,0.0048
1834.00,0.0048
1833.00,0.0048
1832.00,0.0049
1831.00,0.0050
1830.00,0.0050
1829.00,0.0050
1828.00,0.0050
1827.00,0.0051
1826.00,0.0051
1825.00,0.0051
1824.00,0.0050
1823.00,0.0050
1822.00,0.0049
1821.00,0.0049
1820.00,0.0048
1819.00,0.0047
1818.00,0.0046
1817.00,0.0046
1816.00,0.0047
1815.00,0.0048
1814.00,0.0049
1813.00,0.0051
1812.00,0.0052
1811.00,0.0053
1810.00,0.0053
1809.00,0.0053
1808.00,0.0053
1807.00,0.0053
1806.00,0.0053
1805.00,0.0053
1804.00,0.0054
1803.00,0.0056
1802.00,0.0056
1801.00,0.0056
1800.00,0.0055
1799.00,0.0055
1798.00,0.0055
1797.00,0.0055
1796.00,0.0056
1795.00,0.0055
1794.00,0.0054
1793.00,0.0053
1792.00,0.0052
1791.00,0.0052
1790.00,0.0051
1789.00,0.0052
1788.00,0.0053
1787.00,0.0053
1786.00,0.0053
1785.00,0.0054
1784.00,0.0054
1783.00,0.0055
1782.00,0.0056
1781.00,0.0057
1780.00,0.0057
1779.00,0.0056
1778.00,0.0056
1777.00,0.0057
1776.00,0.0058
1775.00,0.0059
1774.00,0.0060
1773.00,0.0060
1772.00,0.0059
1771.00,0.0058
1770.00,0.0057
1769.00,0.0057
1768.00,0.0057
1767.00,0.0057
1766.00,0.0057
1765.00,0.0057
1764.00,0.0058
1763.00,0.0058
1762.00,0.0057
1761.00,0.0057
1760.00,0.0058
1759.00,0.0059
1758.00,0.0059
1757.00,0.0059
1756.00,0.0059
1755.00,0.0059
1754.00,0.0060
1753.00,0.0061
1752.00,0.0064
1751.00,0.0066
1750.00,0.0067
1749.00,0.0069
1748.00,0.0069
1747.00,0.0069
1746.00,0.0069
1745.00,0.0070
1744.00,0.0070
1743.00,0.0070
1742.00,0.0069
1741.00,0.0068
1740.00,0.0068
1739.00,0.0069
1738.00,0.0069
1737.00,0.0070
1736.00,0.0071
1735.00,0.0071
1734.00,0.0072
1733.00,0.0073
1732.00,0.0076
1731.00,0.0079
1730.00,0.0080
1729.00,0.0080
1728.00,0.0080
1727.00,0.0081
1726.00,0.0083
1725.00,0.0085
1724.00,0.0088
1723.00,0.0089
1722.00,0.0090
1721.00,0.0090
1720.00,0.0092
1719.00,0.0096
1718.00,0.0100
1717.00,0.0103
1716.00,0.0106
1715.00,0.0108
1714.00,0.0110
1713.00,0.0113
1712.00,0.0118
1711.00,0.0122
1710.00,0.0126
1709.00,0.0131
1708.00,0.0137
1707.00,0.0144
1706.00,0.0153
1705.00,0.0161
1704.00,0.0168
1703.00,0.0172
1702.00,0.0176
1701.00,0.0188
1700.00,0.0211
1699.00,0.0232
1698.00,0.0249
1697.00,0.0267
1696.00,0.0290
1695.00,0.0314
1694.00,0.0334
1693.00,0.0352
1692.00,0.0371
1691.00,0.0393
1690.00,0.0418
1689.00,0.0443
1688.00,0.0464
1687.00,0.0479
1686.00,0.0496
1685.00,0.0530
1684.00,0.0580
1683.00,0.0621
1682.00,0.0646
1681.00,0.0664
1680.00,0.0683
1679.00,0.0699
1678.00,0.0711
1677.00,0.0725
1676.00,0.0750
1675.00,0.0783
1674.00,0.0811
1673.00,0.0828
1672.00,0.0839
1671.00,0.0856
1670.00,0.0884
1669.00,0.0917
1668.00,0.0945
1667.00,0.0960
1666.00,0.0966
1665.00,0.0972
1664.00,0.0987
1663.00,0.1012
1662.00,0.1040
1661.00,0.1061
1660.00,0.1074
1659.00,0.1082
1658.00,0.1085
1657.00,0.1080
1656.00,0.1071
1655.00,0.1065
1654.00,0.1092
1653.00,0.1156
1652.00,0.1205
1651.00,0.1210
1650.00,0.1193
1649.00,0.1179
1648.00,0.1185
1647.00,0.1217
1646.00,0.1252
1645.00,0.1268
1644.00,0.1261
1643.00,0.1238
1642.00,0.1207
1641.00,0.1174
1640.00,0.1141
1639.00,0.1109
1638.00,0.1080
1637.00,0.1064
1636.00,0.1068
1635.00,0.1080
1634.00,0.1082
1633.00,0.1068
1632.00,0.1047
1631.00,0.1022
1630.00,0.0999
1629.00,0.0980
1628.00,0.0967
1627.00,0.0957
1626.00,0.0946
1625.00,0.0935
1624.00,0.0925
1623.00,0.0913
1622.00,0.0889
1621.00,0.0852
1620.00,0.0807
1619.00,0.0759
1618.00,0.0711
1617.00,0.0667
1616.00,0.0629
1615.00,0.0598
1614.00,0.0569
1613.00,0.0542
1612.00,0.0517
1611.00,0.0494
1610.00,0.0474
1609.00,0.0456
1608.00,0.0439
1607.00,0.0423
1606.00,0.0409
1605.00,0.0396
1604.00,0.0384
1603.00,0.0374
1602.00,0.0365
1601.00,0.0357
1600.00,0.0350
1599.00,0.0345
1598.00,0.0342
1597.00,0.0341
1596.00,0.0341
1595.00,0.0344
1594.00,0.0351
1593.00,0.0360
1592.00,0.0375
1591.00,0.0394
1590.00,0.0417
1589.00,0.0443
1588.00,0.0469
1587.00,0.0493
1586.00,0.0514
1585.00,0.0532
1584.00,0.0546
1583.00,0.0555
1582.00,0.0557
1581.00,0.0549
1580.00,0.0533
1579.00,0.0511
1578.00,0.0482
1577.00,0.0449
1576.00,0.0414
1575.00,0.0384
1574.00,0.0360
1573.00,0.0339
1572.00,0.0319
1571.00,0.0299
1570.00,0.0281
1569.00,0.0264
1568.00,0.0251
1567.00,0.0240
1566.00,0.0230
1565.00,0.0220
1564.00,0.0211
1563.00,0.0203
1562.00,0.0195
1561.00,0.0186
1560.00,0.0181
1559.00,0.0178
1558.00,0.0174
1557.00,0.0172
1556.00,0.0172
1555.00,0.0171
1554.00,0.0169
1553.00,0.0167
1552.00,0.0166
1551.00,0.0164
1550.00,0.0162
1549.00,0.0159
1548.00,0.0156
1547.00,0.0154
1546.00,0.0154
1545.00,0.0153
1544.00,0.0153
1543.00,0.0150
1542.00,0.0149
1541.00,0.0149
1540.00,0.0147
1539.00,0.0144
1538.00,0.0143
1537.00,0.0143
1536.00,0.0143
1535.00,0.0142
1534.00,0.0143
1533.00,0.0142
1532.00,0.0142
1531.00,0.0142
1530.00,0.0143
1529.00,0.0144
1528.00,0.0145
1527.00,0.0146
1526.00,0.0147
1525.00,0.0148
1524.00,0.0149
1523.00,0.0153
1522.00,0.0158
1521.00,0.0165
1520.00,0.0172
1519.00,0.0179
1518.00,0.0187
1517.00,0.0196
1516.00,0.0203
1515.00,0.0206
1514.00,0.0206
1513.00,0.0206
1512.00,0.0204
1511.00,0.0203
1510.00,0.0201
1509.00,0.0201
1508.00,0.0203
1507.00,0.0205
1506.00,0.0207
1505.00,0.0212
1504.00,0.0220
1503.00,0.0229
1502.00,0.0237
1501.00,0.0246
1500.00,0.0255
1499.00,0.0265
1498.00,0.0276
1497.00,0.0287
1496.00,0.0296
1495.00,0.0300
1494.00,0.0301
1493.00,0.0299
1492.00,0.0295
1491.00,0.0290
1490.00,0.0283
1489.00,0.0273
1488.00,0.0260
1487.00,0.0246
1486.00,0.0232
1485.00,0.0221
1484.00,0.0212
1483.00,0.0204
1482.00,0.0197
1481.00,0.0193
1480.00,0.0191
1479.00,0.0189
1478.00,0.0191
1477.00,0.0195
1476.00,0.0202
1475.00,0.0211
1474.00,0.0225
1473.00,0.0247
1472.00,0.0277
1471.00,0.0308
1470.00,0.0340
1469.00,0.0374
1468.00,0.0408
1467.00,0.0442
1466.00,0.0479
1465.00,0.0519
1464.00,0.0556
1463.00,0.0582
1462.00,0.0596
1461.00,0.0602
1460.00,0.0601
1459.00,0.0594
1458.00,0.0587
1457.00,0.0580
1456.00,0.0574
1455.00,0.0569
1454.00,0.0566
1453.00,0.0570
1452.00,0.0582
1451.00,0.0601
1450.00,0.0628
1449.00,0.0667
1448.00,0.0716
1447.00,0.0766
1446.00,0.0811
1445.00,0.0848
1444.00,0.0881
1443.00,0.0908
1442.00,0.0931
1441.00,0.0948
1440.00,0.0958
1439.00,0.0961
1438.00,0.0964
1437.00,0.0974
1436.00,0.0985
1435.00,0.0983
1434.00,0.0969
1433.00,0.0950
1432.00,0.0932
1431.00,0.0916
1430.00,0.0904
1429.00,0.0893
1428.00,0.0883
1427.00,0.0873
1426.00,0.0867
1425.00,0.0867
1424.00,0.0869
1423.00,0.0867
1422.00,0.0856
1421.00,0.0838
1420.00,0.0816
1419.00,0.0789
1418.00,0.0754
1417.00,0.0713
1416.00,0.0666
1415.00,0.0618
1414.00,0.0572
1413.00,0.0528
1412.00,0.0488
1411.00,0.0451
1410.00,0.0419
1409.00,0.0391
1408.00,0.0367
1407.00,0.0346
1406.00,0.0329
1405.00,0.0313
1404.00,0.0299
1403.00,0.0287
1402.00,0.0277
1401.00,0.0268
1400.00,0.0260
1399.00,0.0255
1398.00,0.0251
1397.00,0.0247
1396.00,0.0243
1395.00,0.0240
1394.00,0.0238
1393.00,0.0237
1392.00,0.0236
1391.00,0.0237
1390.00,0.0239
1389.00,0.0243
1388.00,0.0248
1387.00,0.0256
1386.00,0.0265
1385.00,0.0274
1384.00,0.0284
1383.00,0.0298
1382.00,0.0315
1381.00,0.0336
1380.00,0.0361
1379.00,0.0389
1378.00,0.0418
1377.00,0.0444
1376.00,0.0464
1375.00,0.0476
1374.00,0.0477
1373.00,0.0468
1372.00,0.0454
1371.00,0.0438
1370.00,0.0423
1369.00,0.0408
1368.00,0.0392
1367.00,0.0378
1366.00,0.0364
1365.00,0.0350
1364.00,0.0337
1363.00,0.0323
1362.00,0.0311
1361.00,0.0299
1360.00,0.0288
1359.00,0.0279
1358.00,0.0272
1357.00,0.0267
1356.00,0.0262
1355.00,0.0259
1354.00,0.0256
1353.00,0.0253
1352.00,0.0250
1351.00,0.0249
1350.00,0.0248
1349.00,0.0249
1348.00,0.0249
1347.00,0.0250
1346.00,0.0252
1345.00,0.0254
1344.00,0.0256
1343.00,0.0259
1342.00,0.0261
1341.00,0.0262
1340.00,0.0262
1339.00,0.0260
1338.00,0.0256
1337.00,0.0254
1336.00,0.0253
1335.00,0.0255
1334.00,0.0259
1333.00,0.0266
1332.00,0.0274
1331.00,0.0285
1330.00,0.0296
1329.00,0.0308
1328.00,0.0321
1327.00,0.0334
1326.00,0.0349
1325.00,0.0363
1324.00,0.0376
1323.00,0.0387
1322.00,0.0394
1321.00,0.0400
1320.00,0.0405
1319.00,0.0411
1318.00,0.0419
1317.00,0.0428
1316.00,0.0439
1315.00,0.0452
1314.00,0.0464
1313.00,0.0473
1312.00,0.0476
1311.00,0.0473
1310.00,0.0465
1309.00,0.0455
1308.00,0.0446
1307.00,0.0441
1306.00,0.0441
1305.00,0.0447
1304.00,0.0457
1303.00,0.0471
1302.00,0.0487
1301.00,0.0506
1300.00,0.0528
1299.00,0.0554
1298.00,0.0584
1297.00,0.0618
1296.00,0.0656
1295.00,0.0695
1294.00,0.0735
1293.00,0.0775
1292.00,0.0814
1291.00,0.0850
1290.00,0.0882
1289.00,0.0911
1288.00,0.0934
1287.00,0.0953
1286.00,0.0967
1285.00,0.0975
1284.00,0.0977
1283.00,0.0975
1282.00,0.0970
1281.00,0.0963
1280.00,0.0957
1279.00,0.0952
1278.00,0.0949
1277.00,0.0949
1276.00,0.0949
1275.00,0.0949
1274.00,0.0947
1273.00,0.0943
1272.00,0.0934
1271.00,0.0920
1270.00,0.0901
1269.00,0.0878
1268.00,0.0851
1267.00,0.0821
1266.00,0.0790
1265.00,0.0758
1264.00,0.0725
1263.00,0.0694
1262.00,0.0664
1261.00,0.0635
1260.00,0.0609
1259.00,0.0585
1258.00,0.0562
1257.00,0.0543
1256.00,0.0525
1255.00,0.0511
1254.00,0.0498
1253.00,0.0488
1252.00,0.0481
1251.00,0.0476
1250.00,0.0472
1249.00,0.0470
1248.00,0.0467
1247.00,0.0464
1246.00,0.0463
1245.00,0.0465
1244.00,0.0472
1243.00,0.0483
1242.00,0.0500
1241.00,0.0522
1240.00,0.0547
1239.00,0.0571
1238.00,0.0592
1237.00,0.0607
1236.00,0.0615
1235.00,0.0619
1234.00,0.0620
1233.00,0.0618
1232.00,0.0613
1231.00,0.0607
1230.00,0.0603
1229.00,0.0603
1228.00,0.0610
1227.00,0.0622
1226.00,0.0638
1225.00,0.0657
1224.00,0.0676
1223.00,0.0696
1222.00,0.0719
1221.00,0.0747
1220.00,0.0780
1219.00,0.0817
1218.00,0.0857
1217.00,0.0893
1216.00,0.0920
1215.00,0.0932
1214.00,0.0929
1213.00,0.0910
1212.00,0.0880
1211.00,0.0843
1210.00,0.0802
1209.00,0.0763
1208.00,0.0725
1207.00,0.0692
1206.00,0.0662
1205.00,0.0634
1204.00,0.0606
1203.00,0.0578
1202.00,0.0550
1201.00,0.0523
1200.00,0.0498
1199.00,0.0476
1198.00,0.0456
1197.00,0.0440
1196.00,0.0426
1195.00,0.0416
1194.00,0.0408
1193.00,0.0402
1192.00,0.0399
1191.00,0.0398
1190.00,0.0399
1189.00,0.0401
1188.00,0.0403
1187.00,0.0406
1186.00,0.0409
1185.00,0.0414
1184.00,0.0418
1183.00,0.0422
1182.00,0.0426
1181.00,0.0430
1180.00,0.0433
1179.00,0.0437
1178.00,0.0442
1177.00,0.0447
1176.00,0.0453
1175.00,0.0462
1174.00,0.0474
1173.00,0.0486
1172.00,0.0493
1171.00,0.0490
1170.00,0.0477
1169.00,0.0457
1168.00,0.0436
1167.00,0.0416
1166.00,0.0399
1165.00,0.0384
1164.00,0.0371
1163.00,0.0360
1162.00,0.0350
1161.00,0.0342
1160.00,0.0335
1159.00,0.0329
1158.00,0.0327
1157.00,0.0328
1156.00,0.0333
1155.00,0.0346
1154.00,0.0365
1153.00,0.0390
1152.00,0.0415
1151.00,0.0431
1150.00,0.0431
1149.00,0.0412
1148.00,0.0382
1147.00,0.0350
1146.00,0.0322
1145.00,0.0301
1144.00,0.0285
1143.00,0.0273
1142.00,0.0265
1141.00,0.0259
1140.00,0.0256
1139.00,0.0254
1138.00,0.0253
1137.00,0.0254
1136.00,0.0254
1135.00,0.0254
1134.00,0.0252
1133.00,0.0249
1132.00,0.0245
1131.00,0.0241
1130.00,0.0237
1129.00,0.0234
1128.00,0.0231
1127.00,0.0229
1126.00,0.0228
1125.00,0.0228
1124.00,0.0227
1123.00,0.0227
1122.00,0.0228
1121.00,0.0228
1120.00,0.0228
1119.00,0.0229
1118.00,0.0230
1117.00,0.0231
1116.00,0.0232
1115.00,0.0234
1114.00,0.0235
1113.00,0.0235
1112.00,0.0236
1111.00,0.0237
1110.00,0.0239
1109.00,0.0242
1108.00,0.0245
1107.00,0.0249
1106.00,0.0253
1105.00,0.0258
1104.00,0.0263
1103.00,0.0268
1102.00,0.0274
1101.00,0.0281
1100.00,0.0286
1099.00,0.0289
1098.00,0.0288
1097.00,0.0284
1096.00,0.0276
1095.00,0.0269
1094.00,0.0263
1093.00,0.0258
1092.00,0.0254
1091.00,0.0251
1090.00,0.0249
1089.00,0.0247
1088.00,0.0247
1087.00,0.0248
1086.00,0.0251
1085.00,0.0255
1084.00,0.0262
1083.00,0.0271
1082.00,0.0281
1081.00,0.0291
1080.00,0.0298
1079.00,0.0302
1078.00,0.0301
1077.00,0.0297
1076.00,0.0292
1075.00,0.0286
1074.00,0.0281
1073.00,0.0277
1072.00,0.0273
1071.00,0.0269
1070.00,0.0266
1069.00,0.0263
1068.00,0.0260
1067.00,0.0257
1066.00,0.0255
1065.00,0.0254
1064.00,0.0254
1063.00,0.0255
1062.00,0.0258
1061.00,0.0262
1060.00,0.0268
1059.00,0.0278
1058.00,0.0293
1057.00,0.0314
1056.00,0.0339
1055.00,0.0368
1054.00,0.0395
1053.00,0.0415
1052.00,0.0427
1051.00,0.0429
1050.00,0.0422
1049.00,0.0408
1048.00,0.0387
1047.00,0.0363
1046.00,0.0342
1045.00,0.0326
1044.00,0.0316
1043.00,0.0312
1042.00,0.0312
1041.00,0.0315
1040.00,0.0321
1039.00,0.0329
1038.00,0.0341
1037.00,0.0358
1036.00,0.0380
1035.00,0.0406
1034.00,0.0432
1033.00,0.0453
1032.00,0.0463
1031.00,0.0461
1030.00,0.0451
1029.00,0.0437
1028.00,0.0423
1027.00,0.0415
1026.00,0.0414
1025.00,0.0423
1024.00,0.0440
1023.00,0.0467
1022.00,0.0499
1021.00,0.0533
1020.00,0.0559
1019.00,0.0572
1018.00,0.0570
1017.00,0.0553
1016.00,0.0527
1015.00,0.0498
1014.00,0.0468
1013.00,0.0441
1012.00,0.0418
1011.00,0.0400
1010.00,0.0390
1009.00,0.0385
1008.00,0.0386
1007.00,0.0392
1006.00,0.0403
1005.00,0.0417
1004.00,0.0432
1003.00,0.0443
1002.00,0.0448
1001.00,0.0445
1000.00,0.0433
999.00,0.0415
998.00,0.0392
997.00,0.0368
996.00,0.0347
995.00,0.0329
994.00,0.0315
993.00,0.0305
992.00,0.0299
991.00,0.0297
990.00,0.0297
989.00,0.0299
988.00,0.0301
987.00,0.0304
986.00,0.0305
985.00,0.0305
984.00,0.0302
983.00,0.0295
982.00,0.0286
981.00,0.0277
980.00,0.0270
979.00,0.0264
978.00,0.0260
977.00,0.0257
976.00,0.0253
975.00,0.0250
974.00,0.0247
973.00,0.0246
972.00,0.0246
971.00,0.0247
970.00,0.0250
969.00,0.0254
968.00,0.0258
967.00,0.0264
966.00,0.0270
965.00,0.0278
964.00,0.0286
963.00,0.0295
962.00,0.0300
961.00,0.0301
960.00,0.0295
959.00,0.0283
958.00,0.0269
957.00,0.0254
956.00,0.0241
955.00,0.0230
954.00,0.0221
953.00,0.0214
952.00,0.0209
951.00,0.0206
950.00,0.0203
949.00,0.0202
948.00,0.0200
947.00,0.0200
946.00,0.0200
945.00,0.0200
944.00,0.0201
943.00,0.0202
942.00,0.0204
941.00,0.0207
940.00,0.0210
939.00,0.0214
938.00,0.0219
937.00,0.0224
936.00,0.0229
935.00,0.0233
934.00,0.0236
933.00,0.0238
932.00,0.0238
931.00,0.0237
930.00,0.0235
929.00,0.0233
928.00,0.0232
927.00,0.0230
926.00,0.0228
925.00,0.0226
924.00,0.0224
923.00,0.0223
922.00,0.0221
921.00,0.0220
920.00,0.0220
919.00,0.0222
918.00,0.0225
917.00,0.0228
916.00,0.0230
915.00,0.0231
914.00,0.0230
913.00,0.0229
912.00,0.0227
911.00,0.0227
910.00,0.0230
909.00,0.0234
908.00,0.0241
907.00,0.0251
906.00,0.0264
905.00,0.0279
904.00,0.0296
903.00,0.0316
902.00,0.0341
901.00,0.0371
900.00,0.0407
899.00,0.0446
898.00,0.0482
897.00,0.0505
896.00,0.0510
895.00,0.0496
894.00,0.0469
893.00,0.0439
892.00,0.0411
891.00,0.0389
890.00,0.0375
889.00,0.0373
888.00,0.0385
887.00,0.0413
886.00,0.0454
885.00,0.0500
884.00,0.0536
883.00,0.0550
882.00,0.0536
881.00,0.0499
880.00,0.0453
879.00,0.0408
878.00,0.0372
877.00,0.0345
876.00,0.0328
875.00,0.0317
874.00,0.0314
873.00,0.0315
872.00,0.0321
871.00,0.0329
870.00,0.0334
869.00,0.0335
868.00,0.0334
867.00,0.0332
866.00,0.0336
865.00,0.0346
864.00,0.0362
863.00,0.0379
862.00,0.0394
861.00,0.0403
860.00,0.0408
859.00,0.0410
858.00,0.0415
857.00,0.0423
856.00,0.0435
855.00,0.0449
854.00,0.0464
853.00,0.0477
852.00,0.0488
851.00,0.0497
850.00,0.0502
849.00,0.0503
848.00,0.0498
847.00,0.0491
846.00,0.0485
845.00,0.0480
844.00,0.0476
843.00,0.0472
842.00,0.0466
841.00,0.0459
840.00,0.0452
839.00,0.0445
838.00,0.0441
837.00,0.0438
836.00,0.0438
835.00,0.0440
834.00,0.0443
833.00,0.0447
832.00,0.0451
831.00,0.0455
830.00,0.0459
829.00,0.0461
828.00,0.0461
827.00,0.0456
826.00,0.0446
825.00,0.0432
824.00,0.0414
823.00,0.0394
822.00,0.0375
821.00,0.0356
820.00,0.0339
819.00,0.0323
818.00,0.0310
817.00,0.0300
816.00,0.0293
815.00,0.0287
814.00,0.0282
813.00,0.0278
812.00,0.0275
811.00,0.0274
810.00,0.0278
809.00,0.0287
808.00,0.0304
807.00,0.0328
806.00,0.0353
805.00,0.0372
804.00,0.0377
803.00,0.0368
802.00,0.0351
801.00,0.0331
800.00,0.0314
799.00,0.0301
798.00,0.0290
797.00,0.0283
796.00,0.0278
795.00,0.0276
794.00,0.0275
793.00,0.0276
792.00,0.0276
791.00,0.0276
790.00,0.0277
789.00,0.0277
788.00,0.0279
787.00,0.0281
786.00,0.0282
785.00,0.0283
784.00,0.0282
783.00,0.0279
782.00,0.0278
781.00,0.0277
780.00,0.0278
779.00,0.0279
778.00,0.0280
777.00,0.0280
776.00,0.0281
775.00,0.0282
774.00,0.0284
773.00,0.0286
772.00,0.0289
771.00,0.0292
770.00,0.0294
769.00,0.0295
768.00,0.0295
767.00,0.0296
766.00,0.0297
765.00,0.0298
764.00,0.0300
763.00,0.0303
762.00,0.0307
761.00,0.0311
760.00,0.0315
759.00,0.0320
758.00,0.0326
757.00,0.0333
756.00,0.0341
755.00,0.0351
754.00,0.0363
753.00,0.0375
752.00,0.0386
751.00,0.0395
750.00,0.0404
749.00,0.0410
748.00,0.0414
747.00,0.0415
746.00,0.0413
745.00,0.0410
744.00,0.0408
743.00,0.0407
742.00,0.0408
741.00,0.0410
740.00,0.0414
739.00,0.0418
738.00,0.0423
737.00,0.0429
736.00,0.0435
735.00,0.0442
734.00,0.0449
733.00,0.0456
732.00,0.0463
731.00,0.0465
730.00,0.0462
729.00,0.0453
728.00,0.0442
727.00,0.0431
726.00,0.0423
725.00,0.0416
724.00,0.0410
723.00,0.0405
722.00,0.0401
721.00,0.0396
720.00,0.0393
719.00,0.0390
718.00,0.0387
717.00,0.0383
716.00,0.0380
715.00,0.0377
714.00,0.0375
713.00,0.0375
712.00,0.0375
711.00,0.0375
710.00,0.0375
709.00,0.0375
708.00,0.0374
707.00,0.0373
706.00,0.0373
705.00,0.0374
704.00,0.0375
703.00,0.0376
702.00,0.0377
701.00,0.0378
700.00,0.0380
699.00,0.0382
698.00,0.0385
697.00,0.0388
696.00,0.0391
695.00,0.0394
694.00,0.0397
693.00,0.0400
692.00,0.0404
691.00,0.0408
690.00,0.0411
689.00,0.0414
688.00,0.0418
687.00,0.0422
686.00,0.0427
685.00,0.0432
684.00,0.0437
683.00,0.0441
682.00,0.0446
681.00,0.0450
680.00,0.0455
679.00,0.0460
678.00,0.0465
677.00,0.0470
676.00,0.0476
675.00,0.0483
674.00,0.0492
673.00,0.0501
672.00,0.0510
671.00,0.0518
670.00,0.0528
669.00,0.0542
668.00,0.0562
667.00,0.0577
666.00,0.0583
665.00,0.0586
664.00,0.0590
663.00,0.0598
662.00,0.0609
661.00,0.0619
660.00,0.0629
659.00,0.0639
658.00,0.0648
657.00,0.0657
656.00,0.0666
655.00,0.0675
654.00,0.0685
653.00,0.0695
652.00,0.0707
651.00,0.0718
650.00,0.0728
649.00,0.0736
648.00,0.0739
647.00,0.0739
646.00,0.0735
645.00,0.0728
644.00,0.0720
643.00,0.0711
642.00,0.0703
641.00,0.0694
640.00,0.0687
639.00,0.0681
638.00,0.0675
637.00,0.0670
636.00,0.0666
635.00,0.0663
634.00,0.0661
633.00,0.0658
632.00,0.0656
631.00,0.0655
630.00,0.0655
629.00,0.0655
628.00,0.0655
627.00,0.0656
626.00,0.0657
625.00,0.0657
624.00,0.0656
623.00,0.0654
622.00,0.0652
621.00,0.0647
620.00,0.0641
619.00,0.0634
618.00,0.0628
617.00,0.0624
616.00,0.0624
615.00,0.0628
614.00,0.0638
613.00,0.0650
612.00,0.0663
611.00,0.0671
610.00,0.0674
609.00,0.0672
608.00,0.0669
607.00,0.0668
606.00,0.0670
605.00,0.0674
604.00,0.0678
603.00,0.0683
602.00,0.0687
601.00,0.0692
600.00,0.0698
599.00,0.0705
598.00,0.0709
597.00,0.0712
596.00,0.0715
595.00,0.0718
594.00,0.0724
593.00,0.0734
592.00,0.0746
591.00,0.0760
590.00,0.0776
589.00,0.0792
588.00,0.0807
587.00,0.0820
586.00,0.0829
585.00,0.0834
584.00,0.0837
583.00,0.0838
582.00,0.0839
581.00,0.0840
580.00,0.0842
579.00,0.0844
578.00,0.0848
577.00,0.0852
576.00,0.0857
575.00,0.0863
574.00,0.0869
573.00,0.0873
572.00,0.0876
571.00,0.0879
570.00,0.0881
569.00,0.0882
568.00,0.0883
567.00,0.0882
566.00,0.0879
565.00,0.0875
564.00,0.0871
563.00,0.0867
562.00,0.0863
561.00,0.0858
560.00,0.0853
559.00,0.0849
558.00,0.0846
557.00,0.0843
556.00,0.0842
555.00,0.0840
554.00,0.0839
553.00,0.0839
552.00,0.0840
551.00,0.0843
550.00,0.0846
549.00,0.0849
548.00,0.0850
547.00,0.0852
546.00,0.0853
545.00,0.0855
544.00,0.0857
543.00,0.0857
542.00,0.0859
541.00,0.0861
540.00,0.0867
539.00,0.0877
538.00,0.0889
537.00,0.0902
536.00,0.0912
535.00,0.0916
534.00,0.0914
533.00,0.0909
532.00,0.0902
531.00,0.0895
530.00,0.0890
529.00,0.0889
528.00,0.0894
527.00,0.0905
526.00,0.0921
525.00,0.0941
524.00,0.0960
523.00,0.0977
522.00,0.0986
521.00,0.0982
520.00,0.0965
519.00,0.0940
518.00,0.0913
517.00,0.0889
516.00,0.0871
515.00,0.0858
514.00,0.0849
513.00,0.0844
512.00,0.0842
511.00,0.0843
510.00,0.0848
509.00,0.0855
508.00,0.0865
507.00,0.0876
506.00,0.0887
505.00,0.0900
504.00,0.0914
503.00,0.0930
502.00,0.0946
501.00,0.0960
500.00,0.0973
499.00,0.0983
498.00,0.0993
497.00,0.1002
496.00,0.1011
495.00,0.1016
494.00,0.1017
493.00,0.1015
492.00,0.1014
491.00,0.1011
490.00,0.1008
489.00,0.1006
488.00,0.1005
487.00,0.1004
486.00,0.1004
485.00,0.1005
484.00,0.1006
483.00,0.1005
482.00,0.1000
481.00,0.0992
480.00,0.0984
479.00,0.0977
478.00,0.0973
477.00,0.0972
476.00,0.0974
475.00,0.0978
474.00,0.0982
473.00,0.0986
472.00,0.0991
471.00,0.0995
470.00,0.0999
469.00,0.1003
468.00,0.1009
467.00,0.1012
466.00,0.1011
465.00,0.1009
464.00,0.1006
463.00,0.1003
462.00,0.0999
461.00,0.0993
460.00,0.0988
459.00,0.0986
458.00,0.0985
457.00,0.0984
456.00,0.0982
455.00,0.0978
454.00,0.0972
453.00,0.0967
452.00,0.0960
451.00,0.0954
450.00,0.0947
449.00,0.0941
448.00,0.0938
447.00,0.0935
446.00,0.0931
445.00,0.0925
444.00,0.0918
443.00,0.0911
442.00,0.0904
441.00,0.0900
440.00,0.0899
439.00,0.0897
438.00,0.0895
437.00,0.0894
436.00,0.0895
435.00,0.0895
434.00,0.0892
433.00,0.0886
432.00,0.0881
431.00,0.0882
430.00,0.0888
429.00,0.0900
428.00,0.0915
427.00,0.0930
426.00,0.0943
425.00,0.0952
424.00,0.0954
423.00,0.0950
422.00,0.0943
421.00,0.0937
420.00,0.0938
419.00,0.0942
418.00,0.0941
417.00,0.0934
416.00,0.0923
415.00,0.0913
414.00,0.0906
413.00,0.0905
412.00,0.0912
411.00,0.0924
410.00,0.0940
409.00,0.0958
408.00,0.0973
407.00,0.0982
406.00,0.0986
405.00,0.0987
404.00,0.0986
403.00,0.0983
402.00,0.0980
401.00,0.0985
400.00,0.0997
