Created as New Dataset,Sample 1069 By YargerLab Date Tuesday, August 05 2025
cm-1,A
4000.00,0.0011
3999.00,0.0011
3998.00,0.0011
3997.00,0.0011
3996.00,0.0011
3995.00,0.0011
3994.00,0.0011
3993.00,0.0011
3992.00,0.0011
3991.00,0.0011
3990.00,0.0011
3989.00,0.0010
3988.00,0.0010
3987.00,0.0010
3986.00,0.0010
3985.00,0.0010
3984.00,0.0011
3983.00,0.0011
3982.00,0.0011
3981.00,0.0011
3980.00,0.0011
3979.00,0.0011
3978.00,0.0011
3977.00,0.0011
3976.00,0.0011
3975.00,0.0011
3974.00,0.0011
3973.00,0.0011
3972.00,0.0011
3971.00,0.0011
3970.00,0.0011
3969.00,0.0011
3968.00,0.0011
3967.00,0.0011
3966.00,0.0010
3965.00,0.0010
3964.00,0.0010
3963.00,0.0011
3962.00,0.0011
3961.00,0.0011
3960.00,0.0011
3959.00,0.0011
3958.00,0.0010
3957.00,0.0010
3956.00,0.0010
3955.00,0.0010
3954.00,0.0010
3953.00,0.0010
3952.00,0.0011
3951.00,0.0010
3950.00,0.0010
3949.00,0.0010
3948.00,0.0010
3947.00,0.0010
3946.00,0.0010
3945.00,0.0010
3944.00,0.0010
3943.00,0.0010
3942.00,0.0010
3941.00,0.0010
3940.00,0.0010
3939.00,0.0010
3938.00,0.0010
3937.00,0.0010
3936.00,0.0010
3935.00,0.0010
3934.00,0.0010
3933.00,0.0010
3932.00,0.0010
3931.00,0.0010
3930.00,0.0010
3929.00,0.0010
3928.00,0.0010
3927.00,0.0010
3926.00,0.0010
3925.00,0.0010
3924.00,0.0010
3923.00,0.0010
3922.00,0.0010
3921.00,0.0009
3920.00,0.0009
3919.00,0.0009
3918.00,0.0009
3917.00,0.0009
3916.00,0.0009
3915.00,0.0009
3914.00,0.0009
3913.00,0.0010
3912.00,0.0010
3911.00,0.0010
3910.00,0.0010
3909.00,0.0010
3908.00,0.0010
3907.00,0.0010
3906.00,0.0009
3905.00,0.0009
3904.00,0.0009
3903.00,0.0009
3902.00,0.0009
3901.00,0.0009
3900.00,0.0008
3899.00,0.0009
3898.00,0.0009
3897.00,0.0009
3896.00,0.0009
3895.00,0.0010
3894.00,0.0010
3893.00,0.0010
3892.00,0.0010
3891.00,0.0010
3890.00,0.0010
3889.00,0.0010
3888.00,0.0009
3887.00,0.0009
3886.00,0.0009
3885.00,0.0009
3884.00,0.0009
3883.00,0.0009
3882.00,0.0009
3881.00,0.0009
3880.00,0.0009
3879.00,0.0009
3878.00,0.0009
3877.00,0.0009
3876.00,0.0009
3875.00,0.0009
3874.00,0.0010
3873.00,0.0009
3872.00,0.0009
3871.00,0.0009
3870.00,0.0009
3869.00,0.0009
3868.00,0.0008
3867.00,0.0008
3866.00,0.0008
3865.00,0.0009
3864.00,0.0009
3863.00,0.0008
3862.00,0.0008
3861.00,0.0008
3860.00,0.0008
3859.00,0.0009
3858.00,0.0009
3857.00,0.0008
3856.00,0.0008
3855.00,0.0007
3854.00,0.0007
3853.00,0.0007
3852.00,0.0006
3851.00,0.0006
3850.00,0.0007
3849.00,0.0008
3848.00,0.0008
3847.00,0.0009
3846.00,0.0009
3845.00,0.0010
3844.00,0.0010
3843.00,0.0009
3842.00,0.0009
3841.00,0.0009
3840.00,0.0008
3839.00,0.0008
3838.00,0.0008
3837.00,0.0008
3836.00,0.0008
3835.00,0.0008
3834.00,0.0008
3833.00,0.0008
3832.00,0.0009
3831.00,0.0009
3830.00,0.0010
3829.00,0.0010
3828.00,0.0010
3827.00,0.0010
3826.00,0.0010
3825.00,0.0010
3824.00,0.0010
3823.00,0.0009
3822.00,0.0009
3821.00,0.0009
3820.00,0.0009
3819.00,0.0008
3818.00,0.0008
3817.00,0.0008
3816.00,0.0009
3815.00,0.0009
3814.00,0.0009
3813.00,0.0009
3812.00,0.0010
3811.00,0.0010
3810.00,0.0010
3809.00,0.0010
3808.00,0.0010
3807.00,0.0010
3806.00,0.0010
3805.00,0.0010
3804.00,0.0009
3803.00,0.0009
3802.00,0.0009
3801.00,0.0009
3800.00,0.0009
3799.00,0.0008
3798.00,0.0008
3797.00,0.0009
3796.00,0.0009
3795.00,0.0009
3794.00,0.0009
3793.00,0.0009
3792.00,0.0010
3791.00,0.0010
3790.00,0.0010
3789.00,0.0010
3788.00,0.0010
3787.00,0.0010
3786.00,0.0010
3785.00,0.0010
3784.00,0.0010
3783.00,0.0010
3782.00,0.0010
3781.00,0.0010
3780.00,0.0010
3779.00,0.0010
3778.00,0.0009
3777.00,0.0009
3776.00,0.0010
3775.00,0.0010
3774.00,0.0010
3773.00,0.0010
3772.00,0.0010
3771.00,0.0010
3770.00,0.0010
3769.00,0.0010
3768.00,0.0009
3767.00,0.0009
3766.00,0.0010
3765.00,0.0010
3764.00,0.0010
3763.00,0.0010
3762.00,0.0010
3761.00,0.0010
3760.00,0.0010
3759.00,0.0011
3758.00,0.0011
3757.00,0.0011
3756.00,0.0011
3755.00,0.0011
3754.00,0.0010
3753.00,0.0010
3752.00,0.0010
3751.00,0.0009
3750.00,0.0009
3749.00,0.0009
3748.00,0.0009
3747.00,0.0008
3746.00,0.0008
3745.00,0.0008
3744.00,0.0009
3743.00,0.0008
3742.00,0.0008
3741.00,0.0008
3740.00,0.0008
3739.00,0.0008
3738.00,0.0008
3737.00,0.0009
3736.00,0.0008
3735.00,0.0008
3734.00,0.0007
3733.00,0.0007
3732.00,0.0008
3731.00,0.0008
3730.00,0.0008
3729.00,0.0009
3728.00,0.0009
3727.00,0.0010
3726.00,0.0010
3725.00,0.0010
3724.00,0.0010
3723.00,0.0010
3722.00,0.0010
3721.00,0.0010
3720.00,0.0009
3719.00,0.0009
3718.00,0.0009
3717.00,0.0010
3716.00,0.0010
3715.00,0.0010
3714.00,0.0010
3713.00,0.0010
3712.00,0.0009
3711.00,0.0009
3710.00,0.0008
3709.00,0.0008
3708.00,0.0008
3707.00,0.0009
3706.00,0.0009
3705.00,0.0009
3704.00,0.0010
3703.00,0.0010
3702.00,0.0010
3701.00,0.0010
3700.00,0.0010
3699.00,0.0010
3698.00,0.0010
3697.00,0.0011
3696.00,0.0011
3695.00,0.0011
3694.00,0.0011
3693.00,0.0012
3692.00,0.0012
3691.00,0.0012
3690.00,0.0013
3689.00,0.0013
3688.00,0.0014
3687.00,0.0014
3686.00,0.0015
3685.00,0.0015
3684.00,0.0016
3683.00,0.0017
3682.00,0.0018
3681.00,0.0018
3680.00,0.0018
3679.00,0.0018
3678.00,0.0018
3677.00,0.0018
3676.00,0.0018
3675.00,0.0018
3674.00,0.0017
3673.00,0.0017
3672.00,0.0018
3671.00,0.0018
3670.00,0.0019
3669.00,0.0019
3668.00,0.0019
3667.00,0.0019
3666.00,0.0020
3665.00,0.0021
3664.00,0.0022
3663.00,0.0022
3662.00,0.0023
3661.00,0.0024
3660.00,0.0024
3659.00,0.0024
3658.00,0.0024
3657.00,0.0025
3656.00,0.0025
3655.00,0.0026
3654.00,0.0026
3653.00,0.0026
3652.00,0.0026
3651.00,0.0027
3650.00,0.0027
3649.00,0.0028
3648.00,0.0028
3647.00,0.0029
3646.00,0.0030
3645.00,0.0030
3644.00,0.0031
3643.00,0.0032
3642.00,0.0032
3641.00,0.0033
3640.00,0.0034
3639.00,0.0035
3638.00,0.0036
3637.00,0.0036
3636.00,0.0037
3635.00,0.0037
3634.00,0.0038
3633.00,0.0038
3632.00,0.0037
3631.00,0.0037
3630.00,0.0038
3629.00,0.0039
3628.00,0.0040
3627.00,0.0042
3626.00,0.0043
3625.00,0.0044
3624.00,0.0045
3623.00,0.0045
3622.00,0.0046
3621.00,0.0046
3620.00,0.0047
3619.00,0.0048
3618.00,0.0049
3617.00,0.0050
3616.00,0.0050
3615.00,0.0051
3614.00,0.0051
3613.00,0.0052
3612.00,0.0053
3611.00,0.0054
3610.00,0.0056
3609.00,0.0057
3608.00,0.0058
3607.00,0.0059
3606.00,0.0060
3605.00,0.0061
3604.00,0.0062
3603.00,0.0062
3602.00,0.0064
3601.00,0.0065
3600.00,0.0066
3599.00,0.0067
3598.00,0.0068
3597.00,0.0069
3596.00,0.0071
3595.00,0.0072
3594.00,0.0073
3593.00,0.0075
3592.00,0.0076
3591.00,0.0077
3590.00,0.0078
3589.00,0.0080
3588.00,0.0081
3587.00,0.0082
3586.00,0.0083
3585.00,0.0085
3584.00,0.0086
3583.00,0.0087
3582.00,0.0088
3581.00,0.0089
3580.00,0.0090
3579.00,0.0091
3578.00,0.0093
3577.00,0.0094
3576.00,0.0095
3575.00,0.0097
3574.00,0.0098
3573.00,0.0099
3572.00,0.0100
3571.00,0.0100
3570.00,0.0101
3569.00,0.0102
3568.00,0.0104
3567.00,0.0106
3566.00,0.0108
3565.00,0.0110
3564.00,0.0111
3563.00,0.0112
3562.00,0.0113
3561.00,0.0115
3560.00,0.0116
3559.00,0.0117
3558.00,0.0118
3557.00,0.0119
3556.00,0.0120
3555.00,0.0121
3554.00,0.0122
3553.00,0.0123
3552.00,0.0125
3551.00,0.0126
3550.00,0.0127
3549.00,0.0127
3548.00,0.0128
3547.00,0.0129
3546.00,0.0131
3545.00,0.0132
3544.00,0.0133
3543.00,0.0134
3542.00,0.0135
3541.00,0.0136
3540.00,0.0136
3539.00,0.0137
3538.00,0.0138
3537.00,0.0139
3536.00,0.0140
3535.00,0.0141
3534.00,0.0142
3533.00,0.0142
3532.00,0.0143
3531.00,0.0143
3530.00,0.0144
3529.00,0.0145
3528.00,0.0146
3527.00,0.0147
3526.00,0.0148
3525.00,0.0149
3524.00,0.0150
3523.00,0.0151
3522.00,0.0152
3521.00,0.0152
3520.00,0.0153
3519.00,0.0153
3518.00,0.0154
3517.00,0.0155
3516.00,0.0156
3515.00,0.0156
3514.00,0.0157
3513.00,0.0157
3512.00,0.0158
3511.00,0.0158
3510.00,0.0159
3509.00,0.0160
3508.00,0.0161
3507.00,0.0162
3506.00,0.0163
3505.00,0.0163
3504.00,0.0164
3503.00,0.0166
3502.00,0.0167
3501.00,0.0168
3500.00,0.0168
3499.00,0.0169
3498.00,0.0169
3497.00,0.0170
3496.00,0.0171
3495.00,0.0171
3494.00,0.0172
3493.00,0.0173
3492.00,0.0173
3491.00,0.0174
3490.00,0.0174
3489.00,0.0175
3488.00,0.0176
3487.00,0.0176
3486.00,0.0177
3485.00,0.0178
3484.00,0.0178
3483.00,0.0179
3482.00,0.0180
3481.00,0.0180
3480.00,0.0181
3479.00,0.0182
3478.00,0.0182
3477.00,0.0183
3476.00,0.0183
3475.00,0.0184
3474.00,0.0184
3473.00,0.0185
3472.00,0.0185
3471.00,0.0186
3470.00,0.0186
3469.00,0.0187
3468.00,0.0188
3467.00,0.0188
3466.00,0.0189
3465.00,0.0189
3464.00,0.0189
3463.00,0.0190
3462.00,0.0190
3461.00,0.0191
3460.00,0.0191
3459.00,0.0191
3458.00,0.0191
3457.00,0.0192
3456.00,0.0192
3455.00,0.0192
3454.00,0.0193
3453.00,0.0193
3452.00,0.0193
3451.00,0.0194
3450.00,0.0194
3449.00,0.0194
3448.00,0.0194
3447.00,0.0195
3446.00,0.0195
3445.00,0.0195
3444.00,0.0195
3443.00,0.0195
3442.00,0.0196
3441.00,0.0196
3440.00,0.0196
3439.00,0.0196
3438.00,0.0196
3437.00,0.0196
3436.00,0.0196
3435.00,0.0196
3434.00,0.0196
3433.00,0.0196
3432.00,0.0196
3431.00,0.0196
3430.00,0.0196
3429.00,0.0196
3428.00,0.0196
3427.00,0.0196
3426.00,0.0196
3425.00,0.0196
3424.00,0.0196
3423.00,0.0196
3422.00,0.0196
3421.00,0.0196
3420.00,0.0196
3419.00,0.0196
3418.00,0.0196
3417.00,0.0196
3416.00,0.0196
3415.00,0.0196
3414.00,0.0196
3413.00,0.0196
3412.00,0.0196
3411.00,0.0195
3410.00,0.0195
3409.00,0.0195
3408.00,0.0195
3407.00,0.0195
3406.00,0.0195
3405.00,0.0195
3404.00,0.0195
3403.00,0.0194
3402.00,0.0194
3401.00,0.0194
3400.00,0.0194
3399.00,0.0193
3398.00,0.0193
3397.00,0.0193
3396.00,0.0193
3395.00,0.0192
3394.00,0.0192
3393.00,0.0192
3392.00,0.0192
3391.00,0.0192
3390.00,0.0193
3389.00,0.0193
3388.00,0.0193
3387.00,0.0193
3386.00,0.0192
3385.00,0.0192
3384.00,0.0192
3383.00,0.0191
3382.00,0.0191
3381.00,0.0191
3380.00,0.0191
3379.00,0.0190
3378.00,0.0190
3377.00,0.0190
3376.00,0.0190
3375.00,0.0190
3374.00,0.0189
3373.00,0.0189
3372.00,0.0187
3371.00,0.0186
3370.00,0.0185
3369.00,0.0185
3368.00,0.0185
3367.00,0.0185
3366.00,0.0186
3365.00,0.0187
3364.00,0.0187
3363.00,0.0187
3362.00,0.0187
3361.00,0.0187
3360.00,0.0187
3359.00,0.0187
3358.00,0.0187
3357.00,0.0187
3356.00,0.0187
3355.00,0.0186
3354.00,0.0185
3353.00,0.0184
3352.00,0.0183
3351.00,0.0182
3350.00,0.0183
3349.00,0.0183
3348.00,0.0184
3347.00,0.0184
3346.00,0.0184
3345.00,0.0183
3344.00,0.0183
3343.00,0.0182
3342.00,0.0182
3341.00,0.0181
3340.00,0.0180
3339.00,0.0180
3338.00,0.0180
3337.00,0.0181
3336.00,0.0182
3335.00,0.0182
3334.00,0.0183
3333.00,0.0183
3332.00,0.0182
3331.00,0.0182
3330.00,0.0182
3329.00,0.0181
3328.00,0.0180
3327.00,0.0179
3326.00,0.0178
3325.00,0.0178
3324.00,0.0179
3323.00,0.0179
3322.00,0.0180
3321.00,0.0180
3320.00,0.0180
3319.00,0.0180
3318.00,0.0180
3317.00,0.0180
3316.00,0.0180
3315.00,0.0179
3314.00,0.0179
3313.00,0.0178
3312.00,0.0177
3311.00,0.0175
3310.00,0.0173
3309.00,0.0172
3308.00,0.0170
3307.00,0.0170
3306.00,0.0170
3305.00,0.0171
3304.00,0.0173
3303.00,0.0174
3302.00,0.0175
3301.00,0.0176
3300.00,0.0176
3299.00,0.0175
3298.00,0.0174
3297.00,0.0173
3296.00,0.0172
3295.00,0.0172
3294.00,0.0171
3293.00,0.0171
3292.00,0.0172
3291.00,0.0173
3290.00,0.0174
3289.00,0.0175
3288.00,0.0175
3287.00,0.0175
3286.00,0.0175
3285.00,0.0174
3284.00,0.0174
3283.00,0.0174
3282.00,0.0174
3281.00,0.0173
3280.00,0.0173
3279.00,0.0172
3278.00,0.0172
3277.00,0.0171
3276.00,0.0170
3275.00,0.0169
3274.00,0.0168
3273.00,0.0168
3272.00,0.0167
3271.00,0.0167
3270.00,0.0167
3269.00,0.0168
3268.00,0.0168
3267.00,0.0169
3266.00,0.0168
3265.00,0.0168
3264.00,0.0168
3263.00,0.0167
3262.00,0.0167
3261.00,0.0167
3260.00,0.0166
3259.00,0.0166
3258.00,0.0165
3257.00,0.0165
3256.00,0.0165
3255.00,0.0164
3254.00,0.0164
3253.00,0.0164
3252.00,0.0164
3251.00,0.0163
3250.00,0.0163
3249.00,0.0162
3248.00,0.0162
3247.00,0.0161
3246.00,0.0161
3245.00,0.0162
3244.00,0.0162
3243.00,0.0162
3242.00,0.0162
3241.00,0.0162
3240.00,0.0161
3239.00,0.0161
3238.00,0.0161
3237.00,0.0160
3236.00,0.0159
3235.00,0.0159
3234.00,0.0158
3233.00,0.0158
3232.00,0.0158
3231.00,0.0158
3230.00,0.0158
3229.00,0.0157
3228.00,0.0157
3227.00,0.0157
3226.00,0.0157
3225.00,0.0156
3224.00,0.0156
3223.00,0.0156
3222.00,0.0156
3221.00,0.0155
3220.00,0.0155
3219.00,0.0154
3218.00,0.0154
3217.00,0.0153
3216.00,0.0153
3215.00,0.0153
3214.00,0.0152
3213.00,0.0152
3212.00,0.0152
3211.00,0.0151
3210.00,0.0151
3209.00,0.0150
3208.00,0.0150
3207.00,0.0150
3206.00,0.0149
3205.00,0.0149
3204.00,0.0149
3203.00,0.0148
3202.00,0.0148
3201.00,0.0147
3200.00,0.0147
3199.00,0.0146
3198.00,0.0146
3197.00,0.0145
3196.00,0.0145
3195.00,0.0145
3194.00,0.0144
3193.00,0.0144
3192.00,0.0144
3191.00,0.0144
3190.00,0.0143
3189.00,0.0143
3188.00,0.0143
3187.00,0.0143
3186.00,0.0142
3185.00,0.0142
3184.00,0.0142
3183.00,0.0142
3182.00,0.0141
3181.00,0.0141
3180.00,0.0141
3179.00,0.0141
3178.00,0.0141
3177.00,0.0141
3176.00,0.0140
3175.00,0.0140
3174.00,0.0140
3173.00,0.0139
3172.00,0.0139
3171.00,0.0139
3170.00,0.0139
3169.00,0.0138
3168.00,0.0138
3167.00,0.0137
3166.00,0.0137
3165.00,0.0137
3164.00,0.0136
3163.00,0.0136
3162.00,0.0136
3161.00,0.0135
3160.00,0.0135
3159.00,0.0134
3158.00,0.0134
3157.00,0.0133
3156.00,0.0133
3155.00,0.0132
3154.00,0.0132
3153.00,0.0132
3152.00,0.0131
3151.00,0.0131
3150.00,0.0131
3149.00,0.0131
3148.00,0.0130
3147.00,0.0130
3146.00,0.0129
3145.00,0.0129
3144.00,0.0128
3143.00,0.0128
3142.00,0.0128
3141.00,0.0128
3140.00,0.0127
3139.00,0.0127
3138.00,0.0127
3137.00,0.0126
3136.00,0.0126
3135.00,0.0126
3134.00,0.0126
3133.00,0.0126
3132.00,0.0125
3131.00,0.0125
3130.00,0.0125
3129.00,0.0125
3128.00,0.0125
3127.00,0.0124
3126.00,0.0124
3125.00,0.0124
3124.00,0.0123
3123.00,0.0123
3122.00,0.0123
3121.00,0.0123
3120.00,0.0123
3119.00,0.0123
3118.00,0.0122
3117.00,0.0122
3116.00,0.0122
3115.00,0.0122
3114.00,0.0122
3113.00,0.0121
3112.00,0.0121
3111.00,0.0120
3110.00,0.0120
3109.00,0.0119
3108.00,0.0119
3107.00,0.0118
3106.00,0.0118
3105.00,0.0118
3104.00,0.0117
3103.00,0.0117
3102.00,0.0117
3101.00,0.0116
3100.00,0.0116
3099.00,0.0116
3098.00,0.0116
3097.00,0.0116
3096.00,0.0116
3095.00,0.0116
3094.00,0.0116
3093.00,0.0116
3092.00,0.0115
3091.00,0.0115
3090.00,0.0115
3089.00,0.0115
3088.00,0.0115
3087.00,0.0115
3086.00,0.0115
3085.00,0.0115
3084.00,0.0115
3083.00,0.0116
3082.00,0.0116
3081.00,0.0116
3080.00,0.0115
3079.00,0.0115
3078.00,0.0115
3077.00,0.0115
3076.00,0.0115
3075.00,0.0115
3074.00,0.0115
3073.00,0.0115
3072.00,0.0114
3071.00,0.0114
3070.00,0.0113
3069.00,0.0113
3068.00,0.0112
3067.00,0.0112
3066.00,0.0112
3065.00,0.0111
3064.00,0.0111
3063.00,0.0111
3062.00,0.0110
3061.00,0.0110
3060.00,0.0109
3059.00,0.0109
3058.00,0.0109
3057.00,0.0109
3056.00,0.0109
3055.00,0.0109
3054.00,0.0109
3053.00,0.0108
3052.00,0.0108
3051.00,0.0108
3050.00,0.0107
3049.00,0.0107
3048.00,0.0107
3047.00,0.0107
3046.00,0.0107
3045.00,0.0107
3044.00,0.0107
3043.00,0.0107
3042.00,0.0107
3041.00,0.0107
3040.00,0.0107
3039.00,0.0107
3038.00,0.0106
3037.00,0.0106
3036.00,0.0106
3035.00,0.0105
3034.00,0.0105
3033.00,0.0105
3032.00,0.0105
3031.00,0.0106
3030.00,0.0106
3029.00,0.0106
3028.00,0.0106
3027.00,0.0105
3026.00,0.0105
3025.00,0.0105
3024.00,0.0105
3023.00,0.0105
3022.00,0.0106
3021.00,0.0106
3020.00,0.0106
3019.00,0.0106
3018.00,0.0107
3017.00,0.0107
3016.00,0.0108
3015.00,0.0109
3014.00,0.0110
3013.00,0.0112
3012.00,0.0113
3011.00,0.0115
3010.00,0.0117
3009.00,0.0119
3008.00,0.0122
3007.00,0.0125
3006.00,0.0128
3005.00,0.0131
3004.00,0.0135
3003.00,0.0139
3002.00,0.0143
3001.00,0.0147
3000.00,0.0151
2999.00,0.0156
2998.00,0.0162
2997.00,0.0168
2996.00,0.0174
2995.00,0.0180
2994.00,0.0187
2993.00,0.0193
2992.00,0.0201
2991.00,0.0208
2990.00,0.0215
2989.00,0.0222
2988.00,0.0229
2987.00,0.0236
2986.00,0.0243
2985.00,0.0249
2984.00,0.0255
2983.00,0.0261
2982.00,0.0266
2981.00,0.0271
2980.00,0.0275
2979.00,0.0279
2978.00,0.0283
2977.00,0.0287
2976.00,0.0290
2975.00,0.0293
2974.00,0.0295
2973.00,0.0298
2972.00,0.0301
2971.00,0.0305
2970.00,0.0308
2969.00,0.0312
2968.00,0.0317
2967.00,0.0321
2966.00,0.0326
2965.00,0.0331
2964.00,0.0336
2963.00,0.0342
2962.00,0.0347
2961.00,0.0352
2960.00,0.0357
2959.00,0.0362
2958.00,0.0366
2957.00,0.0370
2956.00,0.0373
2955.00,0.0375
2954.00,0.0377
2953.00,0.0378
2952.00,0.0378
2951.00,0.0378
2950.00,0.0377
2949.00,0.0376
2948.00,0.0374
2947.00,0.0373
2946.00,0.0371
2945.00,0.0370
2944.00,0.0370
2943.00,0.0369
2942.00,0.0369
2941.00,0.0370
2940.00,0.0371
2939.00,0.0372
2938.00,0.0374
2937.00,0.0377
2936.00,0.0380
2935.00,0.0383
2934.00,0.0387
2933.00,0.0390
2932.00,0.0393
2931.00,0.0397
2930.00,0.0400
2929.00,0.0403
2928.00,0.0405
2927.00,0.0407
2926.00,0.0408
2925.00,0.0408
2924.00,0.0407
2923.00,0.0406
2922.00,0.0404
2921.00,0.0401
2920.00,0.0396
2919.00,0.0392
2918.00,0.0386
2917.00,0.0380
2916.00,0.0373
2915.00,0.0367
2914.00,0.0360
2913.00,0.0353
2912.00,0.0346
2911.00,0.0340
2910.00,0.0333
2909.00,0.0326
2908.00,0.0320
2907.00,0.0314
2906.00,0.0309
2905.00,0.0305
2904.00,0.0301
2903.00,0.0298
2902.00,0.0296
2901.00,0.0294
2900.00,0.0293
2899.00,0.0291
2898.00,0.0290
2897.00,0.0290
2896.00,0.0289
2895.00,0.0289
2894.00,0.0289
2893.00,0.0289
2892.00,0.0288
2891.00,0.0288
2890.00,0.0287
2889.00,0.0286
2888.00,0.0286
2887.00,0.0285
2886.00,0.0285
2885.00,0.0285
2884.00,0.0285
2883.00,0.0284
2882.00,0.0284
2881.00,0.0284
2880.00,0.0285
2879.00,0.0286
2878.00,0.0287
2877.00,0.0288
2876.00,0.0289
2875.00,0.0290
2874.00,0.0291
2873.00,0.0291
2872.00,0.0292
2871.00,0.0292
2870.00,0.0292
2869.00,0.0291
2868.00,0.0290
2867.00,0.0288
2866.00,0.0287
2865.00,0.0286
2864.00,0.0286
2863.00,0.0285
2862.00,0.0285
2861.00,0.0285
2860.00,0.0285
2859.00,0.0284
2858.00,0.0283
2857.00,0.0280
2856.00,0.0277
2855.00,0.0272
2854.00,0.0266
2853.00,0.0259
2852.00,0.0252
2851.00,0.0244
2850.00,0.0236
2849.00,0.0227
2848.00,0.0220
2847.00,0.0212
2846.00,0.0205
2845.00,0.0199
2844.00,0.0192
2843.00,0.0186
2842.00,0.0180
2841.00,0.0173
2840.00,0.0168
2839.00,0.0162
2838.00,0.0158
2837.00,0.0155
2836.00,0.0152
2835.00,0.0149
2834.00,0.0146
2833.00,0.0143
2832.00,0.0140
2831.00,0.0138
2830.00,0.0135
2829.00,0.0133
2828.00,0.0130
2827.00,0.0128
2826.00,0.0126
2825.00,0.0123
2824.00,0.0121
2823.00,0.0119
2822.00,0.0117
2821.00,0.0115
2820.00,0.0113
2819.00,0.0111
2818.00,0.0109
2817.00,0.0107
2816.00,0.0105
2815.00,0.0104
2814.00,0.0102
2813.00,0.0100
2812.00,0.0098
2811.00,0.0097
2810.00,0.0095
2809.00,0.0093
2808.00,0.0092
2807.00,0.0090
2806.00,0.0089
2805.00,0.0088
2804.00,0.0086
2803.00,0.0085
2802.00,0.0084
2801.00,0.0083
2800.00,0.0081
2799.00,0.0080
2798.00,0.0079
2797.00,0.0078
2796.00,0.0078
2795.00,0.0077
2794.00,0.0076
2793.00,0.0075
2792.00,0.0074
2791.00,0.0074
2790.00,0.0073
2789.00,0.0072
2788.00,0.0072
2787.00,0.0071
2786.00,0.0071
2785.00,0.0070
2784.00,0.0069
2783.00,0.0069
2782.00,0.0068
2781.00,0.0068
2780.00,0.0067
2779.00,0.0067
2778.00,0.0066
2777.00,0.0065
2776.00,0.0065
2775.00,0.0064
2774.00,0.0064
2773.00,0.0063
2772.00,0.0063
2771.00,0.0063
2770.00,0.0062
2769.00,0.0062
2768.00,0.0062
2767.00,0.0061
2766.00,0.0061
2765.00,0.0061
2764.00,0.0060
2763.00,0.0060
2762.00,0.0060
2761.00,0.0060
2760.00,0.0060
2759.00,0.0060
2758.00,0.0059
2757.00,0.0059
2756.00,0.0059
2755.00,0.0059
2754.00,0.0059
2753.00,0.0059
2752.00,0.0059
2751.00,0.0059
2750.00,0.0059
2749.00,0.0059
2748.00,0.0059
2747.00,0.0060
2746.00,0.0060
2745.00,0.0060
2744.00,0.0060
2743.00,0.0061
2742.00,0.0061
2741.00,0.0061
2740.00,0.0061
2739.00,0.0061
2738.00,0.0061
2737.00,0.0061
2736.00,0.0061
2735.00,0.0061
2734.00,0.0061
2733.00,0.0061
2732.00,0.0060
2731.00,0.0060
2730.00,0.0060
2729.00,0.0060
2728.00,0.0059
2727.00,0.0059
2726.00,0.0059
2725.00,0.0058
2724.00,0.0058
2723.00,0.0058
2722.00,0.0057
2721.00,0.0057
2720.00,0.0057
2719.00,0.0057
2718.00,0.0056
2717.00,0.0056
2716.00,0.0056
2715.00,0.0056
2714.00,0.0056
2713.00,0.0055
2712.00,0.0055
2711.00,0.0055
2710.00,0.0055
2709.00,0.0055
2708.00,0.0054
2707.00,0.0054
2706.00,0.0054
2705.00,0.0053
2704.00,0.0053
2703.00,0.0053
2702.00,0.0052
2701.00,0.0052
2700.00,0.0052
2699.00,0.0052
2698.00,0.0051
2697.00,0.0051
2696.00,0.0051
2695.00,0.0051
2694.00,0.0050
2693.00,0.0050
2692.00,0.0050
2691.00,0.0050
2690.00,0.0049
2689.00,0.0049
2688.00,0.0049
2687.00,0.0049
2686.00,0.0049
2685.00,0.0049
2684.00,0.0049
2683.00,0.0048
2682.00,0.0048
2681.00,0.0048
2680.00,0.0048
2679.00,0.0047
2678.00,0.0047
2677.00,0.0047
2676.00,0.0048
2675.00,0.0048
2674.00,0.0048
2673.00,0.0047
2672.00,0.0047
2671.00,0.0047
2670.00,0.0047
2669.00,0.0047
2668.00,0.0047
2667.00,0.0047
2666.00,0.0047
2665.00,0.0048
2664.00,0.0048
2663.00,0.0049
2662.00,0.0049
2661.00,0.0049
2660.00,0.0049
2659.00,0.0049
2658.00,0.0049
2657.00,0.0049
2656.00,0.0049
2655.00,0.0049
2654.00,0.0049
2653.00,0.0049
2652.00,0.0049
2651.00,0.0049
2650.00,0.0048
2649.00,0.0048
2648.00,0.0048
2647.00,0.0048
2646.00,0.0048
2645.00,0.0048
2644.00,0.0048
2643.00,0.0048
2642.00,0.0048
2641.00,0.0047
2640.00,0.0047
2639.00,0.0047
2638.00,0.0047
2637.00,0.0046
2636.00,0.0046
2635.00,0.0046
2634.00,0.0046
2633.00,0.0045
2632.00,0.0045
2631.00,0.0045
2630.00,0.0045
2629.00,0.0045
2628.00,0.0045
2627.00,0.0045
2626.00,0.0045
2625.00,0.0044
2624.00,0.0044
2623.00,0.0044
2622.00,0.0044
2621.00,0.0044
2620.00,0.0044
2619.00,0.0044
2618.00,0.0043
2617.00,0.0043
2616.00,0.0043
2615.00,0.0043
2614.00,0.0043
2613.00,0.0042
2612.00,0.0042
2611.00,0.0042
2610.00,0.0042
2609.00,0.0042
2608.00,0.0042
2607.00,0.0042
2606.00,0.0042
2605.00,0.0042
2604.00,0.0041
2603.00,0.0041
2602.00,0.0041
2601.00,0.0040
2600.00,0.0040
2599.00,0.0040
2598.00,0.0039
2597.00,0.0039
2596.00,0.0039
2595.00,0.0039
2594.00,0.0039
2593.00,0.0039
2592.00,0.0039
2591.00,0.0039
2590.00,0.0039
2589.00,0.0039
2588.00,0.0040
2587.00,0.0040
2586.00,0.0040
2585.00,0.0040
2584.00,0.0039
2583.00,0.0039
2582.00,0.0039
2581.00,0.0039
2580.00,0.0039
2579.00,0.0039
2578.00,0.0038
2577.00,0.0038
2576.00,0.0038
2575.00,0.0038
2574.00,0.0038
2573.00,0.0038
2572.00,0.0038
2571.00,0.0038
2570.00,0.0038
2569.00,0.0037
2568.00,0.0037
2567.00,0.0036
2566.00,0.0036
2565.00,0.0036
2564.00,0.0036
2563.00,0.0036
2562.00,0.0035
2561.00,0.0035
2560.00,0.0035
2559.00,0.0035
2558.00,0.0035
2557.00,0.0034
2556.00,0.0034
2555.00,0.0034
2554.00,0.0034
2553.00,0.0034
2552.00,0.0034
2551.00,0.0034
2550.00,0.0034
2549.00,0.0033
2548.00,0.0033
2547.00,0.0033
2546.00,0.0033
2545.00,0.0033
2544.00,0.0033
2543.00,0.0032
2542.00,0.0032
2541.00,0.0032
2540.00,0.0032
2539.00,0.0031
2538.00,0.0031
2537.00,0.0031
2536.00,0.0030
2535.00,0.0030
2534.00,0.0030
2533.00,0.0030
2532.00,0.0030
2531.00,0.0030
2530.00,0.0029
2529.00,0.0029
2528.00,0.0028
2527.00,0.0028
2526.00,0.0028
2525.00,0.0028
2524.00,0.0028
2523.00,0.0028
2522.00,0.0027
2521.00,0.0027
2520.00,0.0027
2519.00,0.0026
2518.00,0.0026
2517.00,0.0027
2516.00,0.0026
2515.00,0.0026
2514.00,0.0026
2513.00,0.0025
2512.00,0.0025
2511.00,0.0025
2510.00,0.0024
2509.00,0.0024
2508.00,0.0024
2507.00,0.0024
2506.00,0.0024
2505.00,0.0024
2504.00,0.0024
2503.00,0.0024
2502.00,0.0023
2501.00,0.0023
2500.00,0.0023
2499.00,0.0023
2498.00,0.0023
2497.00,0.0023
2496.00,0.0023
2495.00,0.0023
2494.00,0.0022
2493.00,0.0022
2492.00,0.0022
2491.00,0.0022
2490.00,0.0022
2489.00,0.0022
2488.00,0.0023
2487.00,0.0023
2486.00,0.0023
2485.00,0.0022
2484.00,0.0022
2483.00,0.0022
2482.00,0.0021
2481.00,0.0021
2480.00,0.0021
2479.00,0.0021
2478.00,0.0020
2477.00,0.0020
2476.00,0.0020
2475.00,0.0021
2474.00,0.0021
2473.00,0.0021
2472.00,0.0021
2471.00,0.0021
2470.00,0.0021
2469.00,0.0021
2468.00,0.0021
2467.00,0.0021
2466.00,0.0021
2465.00,0.0021
2464.00,0.0021
2463.00,0.0021
2462.00,0.0021
2461.00,0.0021
2460.00,0.0022
2459.00,0.0022
2458.00,0.0022
2457.00,0.0022
2456.00,0.0022
2455.00,0.0022
2454.00,0.0022
2453.00,0.0022
2452.00,0.0022
2451.00,0.0022
2450.00,0.0022
2449.00,0.0022
2448.00,0.0022
2447.00,0.0022
2446.00,0.0022
2445.00,0.0022
2444.00,0.0022
2443.00,0.0021
2442.00,0.0021
2441.00,0.0021
2440.00,0.0021
2439.00,0.0021
2438.00,0.0020
2437.00,0.0020
2436.00,0.0020
2435.00,0.0020
2434.00,0.0020
2433.00,0.0020
2432.00,0.0021
2431.00,0.0021
2430.00,0.0021
2429.00,0.0021
2428.00,0.0021
2427.00,0.0020
2426.00,0.0020
2425.00,0.0020
2424.00,0.0021
2423.00,0.0021
2422.00,0.0021
2421.00,0.0021
2420.00,0.0021
2419.00,0.0020
2418.00,0.0020
2417.00,0.0020
2416.00,0.0019
2415.00,0.0020
2414.00,0.0020
2413.00,0.0020
2412.00,0.0021
2411.00,0.0021
2410.00,0.0020
2409.00,0.0020
2408.00,0.0019
2407.00,0.0018
2406.00,0.0018
2405.00,0.0017
2404.00,0.0018
2403.00,0.0018
2402.00,0.0018
2401.00,0.0018
2400.00,0.0018
2399.00,0.0018
2398.00,0.0018
2397.00,0.0018
2396.00,0.0018
2395.00,0.0018
2394.00,0.0018
2393.00,0.0018
2392.00,0.0017
2391.00,0.0017
2390.00,0.0016
2389.00,0.0016
2388.00,0.0016
2387.00,0.0015
2386.00,0.0015
2385.00,0.0015
2384.00,0.0014
2383.00,0.0014
2382.00,0.0013
2381.00,0.0012
2380.00,0.0011
2379.00,0.0011
2378.00,0.0011
2377.00,0.0012
2376.00,0.0012
2375.00,0.0012
2374.00,0.0012
2373.00,0.0011
2372.00,0.0011
2371.00,0.0010
2370.00,0.0009
2369.00,0.0009
2368.00,0.0008
2367.00,0.0009
2366.00,0.0009
2365.00,0.0009
2364.00,0.0009
2363.00,0.0010
2362.00,0.0010
2361.00,0.0010
2360.00,0.0010
2359.00,0.0011
2358.00,0.0011
2357.00,0.0012
2356.00,0.0012
2355.00,0.0012
2354.00,0.0012
2353.00,0.0012
2352.00,0.0012
2351.00,0.0012
2350.00,0.0012
2349.00,0.0013
2348.00,0.0014
2347.00,0.0014
2346.00,0.0014
2345.00,0.0014
2344.00,0.0014
2343.00,0.0014
2342.00,0.0015
2341.00,0.0016
2340.00,0.0017
2339.00,0.0017
2338.00,0.0017
2337.00,0.0017
2336.00,0.0017
2335.00,0.0017
2334.00,0.0017
2333.00,0.0016
2332.00,0.0016
2331.00,0.0016
2330.00,0.0017
2329.00,0.0019
2328.00,0.0023
2327.00,0.0028
2326.00,0.0031
2325.00,0.0032
2324.00,0.0031
2323.00,0.0029
2322.00,0.0027
2321.00,0.0025
2320.00,0.0025
2319.00,0.0024
2318.00,0.0024
2317.00,0.0024
2316.00,0.0024
2315.00,0.0023
2314.00,0.0022
2313.00,0.0021
2312.00,0.0021
2311.00,0.0021
2310.00,0.0021
2309.00,0.0021
2308.00,0.0022
2307.00,0.0022
2306.00,0.0022
2305.00,0.0022
2304.00,0.0023
2303.00,0.0023
2302.00,0.0023
2301.00,0.0023
2300.00,0.0024
2299.00,0.0024
2298.00,0.0025
2297.00,0.0026
2296.00,0.0027
2295.00,0.0027
2294.00,0.0028
2293.00,0.0028
2292.00,0.0029
2291.00,0.0029
2290.00,0.0030
2289.00,0.0031
2288.00,0.0031
2287.00,0.0031
2286.00,0.0031
2285.00,0.0030
2284.00,0.0029
2283.00,0.0028
2282.00,0.0027
2281.00,0.0027
2280.00,0.0026
2279.00,0.0026
2278.00,0.0025
2277.00,0.0025
2276.00,0.0025
2275.00,0.0025
2274.00,0.0025
2273.00,0.0025
2272.00,0.0025
2271.00,0.0025
2270.00,0.0025
2269.00,0.0025
2268.00,0.0024
2267.00,0.0022
2266.00,0.0021
2265.00,0.0021
2264.00,0.0021
2263.00,0.0021
2262.00,0.0022
2261.00,0.0022
2260.00,0.0023
2259.00,0.0023
2258.00,0.0022
2257.00,0.0021
2256.00,0.0020
2255.00,0.0018
2254.00,0.0017
2253.00,0.0018
2252.00,0.0019
2251.00,0.0019
2250.00,0.0020
2249.00,0.0020
2248.00,0.0021
2247.00,0.0021
2246.00,0.0021
2245.00,0.0021
2244.00,0.0022
2243.00,0.0023
2242.00,0.0023
2241.00,0.0023
2240.00,0.0023
2239.00,0.0023
2238.00,0.0022
2237.00,0.0022
2236.00,0.0021
2235.00,0.0021
2234.00,0.0020
2233.00,0.0020
2232.00,0.0020
2231.00,0.0020
2230.00,0.0020
2229.00,0.0020
2228.00,0.0020
2227.00,0.0020
2226.00,0.0020
2225.00,0.0020
2224.00,0.0020
2223.00,0.0020
2222.00,0.0020
2221.00,0.0021
2220.00,0.0021
2219.00,0.0021
2218.00,0.0022
2217.00,0.0022
2216.00,0.0023
2215.00,0.0022
2214.00,0.0021
2213.00,0.0021
2212.00,0.0020
2211.00,0.0020
2210.00,0.0020
2209.00,0.0020
2208.00,0.0019
2207.00,0.0019
2206.00,0.0019
2205.00,0.0019
2204.00,0.0020
2203.00,0.0020
2202.00,0.0020
2201.00,0.0020
2200.00,0.0020
2199.00,0.0021
2198.00,0.0021
2197.00,0.0021
2196.00,0.0022
2195.00,0.0023
2194.00,0.0024
2193.00,0.0025
2192.00,0.0026
2191.00,0.0026
2190.00,0.0026
2189.00,0.0026
2188.00,0.0026
2187.00,0.0025
2186.00,0.0022
2185.00,0.0019
2184.00,0.0018
2183.00,0.0016
2182.00,0.0016
2181.00,0.0017
2180.00,0.0018
2179.00,0.0018
2178.00,0.0017
2177.00,0.0016
2176.00,0.0016
2175.00,0.0015
2174.00,0.0016
2173.00,0.0019
2172.00,0.0022
2171.00,0.0026
2170.00,0.0028
2169.00,0.0031
2168.00,0.0033
2167.00,0.0034
2166.00,0.0034
2165.00,0.0035
2164.00,0.0037
2163.00,0.0037
2162.00,0.0030
2161.00,0.0018
2160.00,0.0002
2159.00,-0.0011
2158.00,-0.0017
2157.00,-0.0016
2156.00,-0.0011
2155.00,-0.0008
2154.00,-0.0005
2153.00,-0.0002
2152.00,0.0001
2151.00,0.0003
2150.00,0.0003
2149.00,0.0002
2148.00,0.0002
2147.00,0.0001
2146.00,0.0001
2145.00,0.0001
2144.00,0.0002
2143.00,0.0003
2142.00,0.0003
2141.00,0.0004
2140.00,0.0005
2139.00,0.0005
2138.00,0.0003
2137.00,0.0001
2136.00,-0.0002
2135.00,-0.0004
2134.00,-0.0004
2133.00,-0.0004
2132.00,-0.0001
2131.00,0.0001
2130.00,0.0003
2129.00,0.0004
2128.00,0.0006
2127.00,0.0007
2126.00,0.0008
2125.00,0.0009
2124.00,0.0010
2123.00,0.0010
2122.00,0.0011
2121.00,0.0012
2120.00,0.0013
2119.00,0.0014
2118.00,0.0015
2117.00,0.0016
2116.00,0.0018
2115.00,0.0018
2114.00,0.0018
2113.00,0.0018
2112.00,0.0018
2111.00,0.0017
2110.00,0.0017
2109.00,0.0017
2108.00,0.0017
2107.00,0.0017
2106.00,0.0017
2105.00,0.0017
2104.00,0.0017
2103.00,0.0017
2102.00,0.0016
2101.00,0.0016
2100.00,0.0016
2099.00,0.0016
2098.00,0.0015
2097.00,0.0014
2096.00,0.0013
2095.00,0.0012
2094.00,0.0012
2093.00,0.0012
2092.00,0.0013
2091.00,0.0014
2090.00,0.0014
2089.00,0.0015
2088.00,0.0016
2087.00,0.0017
2086.00,0.0017
2085.00,0.0018
2084.00,0.0019
2083.00,0.0020
2082.00,0.0020
2081.00,0.0020
2080.00,0.0020
2079.00,0.0020
2078.00,0.0019
2077.00,0.0018
2076.00,0.0018
2075.00,0.0017
2074.00,0.0017
2073.00,0.0018
2072.00,0.0018
2071.00,0.0017
2070.00,0.0016
2069.00,0.0015
2068.00,0.0015
2067.00,0.0015
2066.00,0.0015
2065.00,0.0016
2064.00,0.0016
2063.00,0.0016
2062.00,0.0015
2061.00,0.0014
2060.00,0.0016
2059.00,0.0017
2058.00,0.0018
2057.00,0.0018
2056.00,0.0019
2055.00,0.0019
2054.00,0.0021
2053.00,0.0024
2052.00,0.0027
2051.00,0.0027
2050.00,0.0024
2049.00,0.0020
2048.00,0.0019
2047.00,0.0018
2046.00,0.0017
2045.00,0.0016
2044.00,0.0016
2043.00,0.0014
2042.00,0.0013
2041.00,0.0012
2040.00,0.0013
2039.00,0.0015
2038.00,0.0015
2037.00,0.0016
2036.00,0.0016
2035.00,0.0014
2034.00,0.0012
2033.00,0.0011
2032.00,0.0011
2031.00,0.0011
2030.00,0.0009
2029.00,0.0009
2028.00,0.0011
2027.00,0.0011
2026.00,0.0010
2025.00,0.0009
2024.00,0.0008
2023.00,0.0007
2022.00,0.0005
2021.00,0.0004
2020.00,0.0005
2019.00,0.0005
2018.00,0.0006
2017.00,0.0008
2016.00,0.0010
2015.00,0.0011
2014.00,0.0010
2013.00,0.0010
2012.00,0.0010
2011.00,0.0009
2010.00,0.0006
2009.00,0.0003
2008.00,0.0001
2007.00,-0.0001
2006.00,-0.0002
2005.00,-0.0000
2004.00,0.0003
2003.00,0.0004
2002.00,0.0004
2001.00,0.0004
2000.00,0.0005
1999.00,0.0006
1998.00,0.0006
1997.00,0.0007
1996.00,0.0008
1995.00,0.0009
1994.00,0.0009
1993.00,0.0010
1992.00,0.0010
1991.00,0.0010
1990.00,0.0010
1989.00,0.0011
1988.00,0.0014
1987.00,0.0016
1986.00,0.0017
1985.00,0.0020
1984.00,0.0024
1983.00,0.0027
1982.00,0.0028
1981.00,0.0028
1980.00,0.0024
1979.00,0.0018
1978.00,0.0010
1977.00,0.0005
1976.00,0.0004
1975.00,0.0004
1974.00,0.0003
1973.00,0.0003
1972.00,0.0003
1971.00,0.0003
1970.00,0.0002
1969.00,0.0001
1968.00,0.0002
1967.00,0.0002
1966.00,0.0001
1965.00,0.0001
1964.00,0.0001
1963.00,0.0001
1962.00,-0.0001
1961.00,-0.0003
1960.00,-0.0004
1959.00,-0.0003
1958.00,-0.0002
1957.00,0.0001
1956.00,0.0004
1955.00,0.0005
1954.00,0.0004
1953.00,0.0004
1952.00,0.0005
1951.00,0.0006
1950.00,0.0006
1949.00,0.0006
1948.00,0.0007
1947.00,0.0007
1946.00,0.0006
1945.00,0.0007
1944.00,0.0008
1943.00,0.0008
1942.00,0.0007
1941.00,0.0006
1940.00,0.0006
1939.00,0.0006
1938.00,0.0005
1937.00,0.0006
1936.00,0.0007
1935.00,0.0008
1934.00,0.0008
1933.00,0.0008
1932.00,0.0009
1931.00,0.0009
1930.00,0.0008
1929.00,0.0008
1928.00,0.0008
1927.00,0.0008
1926.00,0.0008
1925.00,0.0009
1924.00,0.0010
1923.00,0.0010
1922.00,0.0011
1921.00,0.0011
1920.00,0.0012
1919.00,0.0012
1918.00,0.0011
1917.00,0.0011
1916.00,0.0012
1915.00,0.0013
1914.00,0.0013
1913.00,0.0013
1912.00,0.0014
1911.00,0.0014
1910.00,0.0013
1909.00,0.0013
1908.00,0.0013
1907.00,0.0012
1906.00,0.0012
1905.00,0.0012
1904.00,0.0013
1903.00,0.0013
1902.00,0.0012
1901.00,0.0012
1900.00,0.0013
1899.00,0.0013
1898.00,0.0014
1897.00,0.0014
1896.00,0.0014
1895.00,0.0014
1894.00,0.0013
1893.00,0.0013
1892.00,0.0013
1891.00,0.0014
1890.00,0.0013
1889.00,0.0013
1888.00,0.0013
1887.00,0.0013
1886.00,0.0012
1885.00,0.0012
1884.00,0.0013
1883.00,0.0013
1882.00,0.0013
1881.00,0.0013
1880.00,0.0014
1879.00,0.0014
1878.00,0.0014
1877.00,0.0013
1876.00,0.0013
1875.00,0.0013
1874.00,0.0012
1873.00,0.0012
1872.00,0.0013
1871.00,0.0014
1870.00,0.0014
1869.00,0.0015
1868.00,0.0015
1867.00,0.0015
1866.00,0.0014
1865.00,0.0014
1864.00,0.0015
1863.00,0.0015
1862.00,0.0015
1861.00,0.0015
1860.00,0.0016
1859.00,0.0016
1858.00,0.0015
1857.00,0.0016
1856.00,0.0016
1855.00,0.0016
1854.00,0.0016
1853.00,0.0016
1852.00,0.0016
1851.00,0.0017
1850.00,0.0017
1849.00,0.0017
1848.00,0.0018
1847.00,0.0018
1846.00,0.0018
1845.00,0.0018
1844.00,0.0018
1843.00,0.0017
1842.00,0.0016
1841.00,0.0016
1840.00,0.0017
1839.00,0.0017
1838.00,0.0017
1837.00,0.0017
1836.00,0.0017
1835.00,0.0018
1834.00,0.0018
1833.00,0.0018
1832.00,0.0019
1831.00,0.0020
1830.00,0.0019
1829.00,0.0019
1828.00,0.0019
1827.00,0.0019
1826.00,0.0019
1825.00,0.0019
1824.00,0.0019
1823.00,0.0019
1822.00,0.0018
1821.00,0.0018
1820.00,0.0018
1819.00,0.0017
1818.00,0.0015
1817.00,0.0015
1816.00,0.0015
1815.00,0.0016
1814.00,0.0017
1813.00,0.0018
1812.00,0.0019
1811.00,0.0019
1810.00,0.0019
1809.00,0.0019
1808.00,0.0020
1807.00,0.0020
1806.00,0.0020
1805.00,0.0020
1804.00,0.0021
1803.00,0.0022
1802.00,0.0022
1801.00,0.0022
1800.00,0.0022
1799.00,0.0022
1798.00,0.0022
1797.00,0.0022
1796.00,0.0023
1795.00,0.0024
1794.00,0.0024
1793.00,0.0024
1792.00,0.0024
1791.00,0.0023
1790.00,0.0023
1789.00,0.0023
1788.00,0.0024
1787.00,0.0024
1786.00,0.0024
1785.00,0.0024
1784.00,0.0025
1783.00,0.0026
1782.00,0.0027
1781.00,0.0027
1780.00,0.0027
1779.00,0.0027
1778.00,0.0027
1777.00,0.0027
1776.00,0.0029
1775.00,0.0030
1774.00,0.0031
1773.00,0.0031
1772.00,0.0032
1771.00,0.0031
1770.00,0.0031
1769.00,0.0031
1768.00,0.0032
1767.00,0.0032
1766.00,0.0032
1765.00,0.0033
1764.00,0.0034
1763.00,0.0035
1762.00,0.0035
1761.00,0.0035
1760.00,0.0036
1759.00,0.0036
1758.00,0.0036
1757.00,0.0037
1756.00,0.0038
1755.00,0.0039
1754.00,0.0039
1753.00,0.0040
1752.00,0.0042
1751.00,0.0043
1750.00,0.0044
1749.00,0.0044
1748.00,0.0045
1747.00,0.0046
1746.00,0.0046
1745.00,0.0047
1744.00,0.0049
1743.00,0.0049
1742.00,0.0049
1741.00,0.0050
1740.00,0.0051
1739.00,0.0053
1738.00,0.0053
1737.00,0.0054
1736.00,0.0056
1735.00,0.0058
1734.00,0.0059
1733.00,0.0061
1732.00,0.0064
1731.00,0.0066
1730.00,0.0067
1729.00,0.0068
1728.00,0.0071
1727.00,0.0073
1726.00,0.0075
1725.00,0.0077
1724.00,0.0081
1723.00,0.0084
1722.00,0.0086
1721.00,0.0089
1720.00,0.0093
1719.00,0.0098
1718.00,0.0102
1717.00,0.0107
1716.00,0.0114
1715.00,0.0120
1714.00,0.0125
1713.00,0.0131
1712.00,0.0140
1711.00,0.0149
1710.00,0.0158
1709.00,0.0169
1708.00,0.0183
1707.00,0.0199
1706.00,0.0217
1705.00,0.0239
1704.00,0.0259
1703.00,0.0277
1702.00,0.0298
1701.00,0.0336
1700.00,0.0391
1699.00,0.0439
1698.00,0.0475
1697.00,0.0517
1696.00,0.0579
1695.00,0.0648
1694.00,0.0706
1693.00,0.0753
1692.00,0.0800
1691.00,0.0854
1690.00,0.0915
1689.00,0.0976
1688.00,0.1029
1687.00,0.1070
1686.00,0.1112
1685.00,0.1181
1684.00,0.1279
1683.00,0.1363
1682.00,0.1411
1681.00,0.1441
1680.00,0.1470
1679.00,0.1497
1678.00,0.1518
1677.00,0.1539
1676.00,0.1571
1675.00,0.1614
1674.00,0.1649
1673.00,0.1666
1672.00,0.1673
1671.00,0.1686
1670.00,0.1713
1669.00,0.1750
1668.00,0.1780
1667.00,0.1795
1666.00,0.1798
1665.00,0.1800
1664.00,0.1811
1663.00,0.1835
1662.00,0.1864
1661.00,0.1885
1660.00,0.1894
1659.00,0.1896
1658.00,0.1891
1657.00,0.1878
1656.00,0.1856
1655.00,0.1833
1654.00,0.1832
1653.00,0.1866
1652.00,0.1890
1651.00,0.1872
1650.00,0.1826
1649.00,0.1772
1648.00,0.1721
1647.00,0.1680
1646.00,0.1642
1645.00,0.1599
1644.00,0.1546
1643.00,0.1487
1642.00,0.1424
1641.00,0.1363
1640.00,0.1303
1639.00,0.1245
1638.00,0.1188
1637.00,0.1130
1636.00,0.1075
1635.00,0.1026
1634.00,0.0982
1633.00,0.0939
1632.00,0.0896
1631.00,0.0856
1630.00,0.0820
1629.00,0.0790
1628.00,0.0767
1627.00,0.0750
1626.00,0.0738
1625.00,0.0733
1624.00,0.0737
1623.00,0.0748
1622.00,0.0760
1621.00,0.0766
1620.00,0.0765
1619.00,0.0759
1618.00,0.0750
1617.00,0.0739
1616.00,0.0726
1615.00,0.0711
1614.00,0.0692
1613.00,0.0672
1612.00,0.0653
1611.00,0.0636
1610.00,0.0620
1609.00,0.0601
1608.00,0.0578
1607.00,0.0552
1606.00,0.0523
1605.00,0.0492
1604.00,0.0460
1603.00,0.0430
1602.00,0.0403
1601.00,0.0379
1600.00,0.0358
1599.00,0.0341
1598.00,0.0328
1597.00,0.0319
1596.00,0.0313
1595.00,0.0312
1594.00,0.0317
1593.00,0.0327
1592.00,0.0342
1591.00,0.0361
1590.00,0.0385
1589.00,0.0409
1588.00,0.0431
1587.00,0.0448
1586.00,0.0458
1585.00,0.0459
1584.00,0.0451
1583.00,0.0437
1582.00,0.0417
1581.00,0.0394
1580.00,0.0371
1579.00,0.0350
1578.00,0.0330
1577.00,0.0311
1576.00,0.0294
1575.00,0.0281
1574.00,0.0271
1573.00,0.0262
1572.00,0.0253
1571.00,0.0245
1570.00,0.0237
1569.00,0.0229
1568.00,0.0222
1567.00,0.0216
1566.00,0.0210
1565.00,0.0203
1564.00,0.0198
1563.00,0.0192
1562.00,0.0187
1561.00,0.0182
1560.00,0.0179
1559.00,0.0174
1558.00,0.0171
1557.00,0.0168
1556.00,0.0165
1555.00,0.0162
1554.00,0.0159
1553.00,0.0157
1552.00,0.0155
1551.00,0.0153
1550.00,0.0151
1549.00,0.0149
1548.00,0.0147
1547.00,0.0146
1546.00,0.0145
1545.00,0.0145
1544.00,0.0144
1543.00,0.0143
1542.00,0.0142
1541.00,0.0141
1540.00,0.0139
1539.00,0.0137
1538.00,0.0137
1537.00,0.0137
1536.00,0.0136
1535.00,0.0136
1534.00,0.0137
1533.00,0.0137
1532.00,0.0137
1531.00,0.0138
1530.00,0.0139
1529.00,0.0140
1528.00,0.0142
1527.00,0.0143
1526.00,0.0146
1525.00,0.0148
1524.00,0.0151
1523.00,0.0154
1522.00,0.0158
1521.00,0.0163
1520.00,0.0167
1519.00,0.0171
1518.00,0.0175
1517.00,0.0179
1516.00,0.0182
1515.00,0.0184
1514.00,0.0186
1513.00,0.0189
1512.00,0.0191
1511.00,0.0195
1510.00,0.0198
1509.00,0.0201
1508.00,0.0208
1507.00,0.0218
1506.00,0.0232
1505.00,0.0247
1504.00,0.0260
1503.00,0.0275
1502.00,0.0293
1501.00,0.0315
1500.00,0.0340
1499.00,0.0368
1498.00,0.0398
1497.00,0.0427
1496.00,0.0450
1495.00,0.0463
1494.00,0.0467
1493.00,0.0464
1492.00,0.0454
1491.00,0.0439
1490.00,0.0420
1489.00,0.0397
1488.00,0.0371
1487.00,0.0344
1486.00,0.0319
1485.00,0.0298
1484.00,0.0279
1483.00,0.0264
1482.00,0.0251
1481.00,0.0242
1480.00,0.0237
1479.00,0.0235
1478.00,0.0235
1477.00,0.0241
1476.00,0.0249
1475.00,0.0260
1474.00,0.0277
1473.00,0.0305
1472.00,0.0342
1471.00,0.0381
1470.00,0.0418
1469.00,0.0457
1468.00,0.0499
1467.00,0.0546
1466.00,0.0601
1465.00,0.0666
1464.00,0.0727
1463.00,0.0773
1462.00,0.0801
1461.00,0.0815
1460.00,0.0819
1459.00,0.0810
1458.00,0.0789
1457.00,0.0758
1456.00,0.0721
1455.00,0.0685
1454.00,0.0652
1453.00,0.0625
1452.00,0.0605
1451.00,0.0593
1450.00,0.0592
1449.00,0.0603
1448.00,0.0625
1447.00,0.0654
1446.00,0.0686
1445.00,0.0720
1444.00,0.0756
1443.00,0.0793
1442.00,0.0831
1441.00,0.0866
1440.00,0.0896
1439.00,0.0921
1438.00,0.0949
1437.00,0.0986
1436.00,0.1025
1435.00,0.1051
1434.00,0.1064
1433.00,0.1070
1432.00,0.1076
1431.00,0.1086
1430.00,0.1100
1429.00,0.1120
1428.00,0.1144
1427.00,0.1169
1426.00,0.1199
1425.00,0.1235
1424.00,0.1272
1423.00,0.1299
1422.00,0.1307
1421.00,0.1297
1420.00,0.1270
1419.00,0.1226
1418.00,0.1167
1417.00,0.1099
1416.00,0.1026
1415.00,0.0952
1414.00,0.0884
1413.00,0.0823
1412.00,0.0771
1411.00,0.0729
1410.00,0.0696
1409.00,0.0673
1408.00,0.0656
1407.00,0.0644
1406.00,0.0638
1405.00,0.0635
1404.00,0.0634
1403.00,0.0630
1402.00,0.0622
1401.00,0.0610
1400.00,0.0592
1399.00,0.0570
1398.00,0.0544
1397.00,0.0517
1396.00,0.0488
1395.00,0.0459
1394.00,0.0433
1393.00,0.0413
1392.00,0.0397
1391.00,0.0385
1390.00,0.0377
1389.00,0.0374
1388.00,0.0376
1387.00,0.0382
1386.00,0.0393
1385.00,0.0405
1384.00,0.0418
1383.00,0.0433
1382.00,0.0449
1381.00,0.0465
1380.00,0.0478
1379.00,0.0489
1378.00,0.0497
1377.00,0.0501
1376.00,0.0503
1375.00,0.0504
1374.00,0.0503
1373.00,0.0500
1372.00,0.0495
1371.00,0.0487
1370.00,0.0479
1369.00,0.0471
1368.00,0.0463
1367.00,0.0456
1366.00,0.0450
1365.00,0.0447
1364.00,0.0446
1363.00,0.0446
1362.00,0.0446
1361.00,0.0442
1360.00,0.0432
1359.00,0.0417
1358.00,0.0399
1357.00,0.0377
1356.00,0.0355
1355.00,0.0336
1354.00,0.0320
1353.00,0.0308
1352.00,0.0298
1351.00,0.0291
1350.00,0.0286
1349.00,0.0282
1348.00,0.0279
1347.00,0.0277
1346.00,0.0275
1345.00,0.0275
1344.00,0.0274
1343.00,0.0274
1342.00,0.0276
1341.00,0.0278
1340.00,0.0280
1339.00,0.0284
1338.00,0.0289
1337.00,0.0294
1336.00,0.0299
1335.00,0.0305
1334.00,0.0312
1333.00,0.0320
1332.00,0.0329
1331.00,0.0338
1330.00,0.0348
1329.00,0.0359
1328.00,0.0371
1327.00,0.0385
1326.00,0.0399
1325.00,0.0415
1324.00,0.0431
1323.00,0.0447
1322.00,0.0463
1321.00,0.0477
1320.00,0.0489
1319.00,0.0497
1318.00,0.0502
1317.00,0.0503
1316.00,0.0499
1315.00,0.0492
1314.00,0.0483
1313.00,0.0472
1312.00,0.0462
1311.00,0.0453
1310.00,0.0446
1309.00,0.0442
1308.00,0.0441
1307.00,0.0444
1306.00,0.0450
1305.00,0.0460
1304.00,0.0474
1303.00,0.0492
1302.00,0.0515
1301.00,0.0545
1300.00,0.0583
1299.00,0.0629
1298.00,0.0685
1297.00,0.0751
1296.00,0.0825
1295.00,0.0906
1294.00,0.0989
1293.00,0.1073
1292.00,0.1155
1291.00,0.1231
1290.00,0.1299
1289.00,0.1357
1288.00,0.1403
1287.00,0.1435
1286.00,0.1451
1285.00,0.1452
1284.00,0.1439
1283.00,0.1415
1282.00,0.1383
1281.00,0.1350
1280.00,0.1318
1279.00,0.1293
1278.00,0.1276
1277.00,0.1267
1276.00,0.1266
1275.00,0.1270
1274.00,0.1275
1273.00,0.1279
1272.00,0.1277
1271.00,0.1268
1270.00,0.1250
1269.00,0.1221
1268.00,0.1185
1267.00,0.1141
1266.00,0.1091
1265.00,0.1039
1264.00,0.0986
1263.00,0.0933
1262.00,0.0883
1261.00,0.0835
1260.00,0.0789
1259.00,0.0748
1258.00,0.0710
1257.00,0.0675
1256.00,0.0643
1255.00,0.0615
1254.00,0.0590
1253.00,0.0570
1252.00,0.0552
1251.00,0.0539
1250.00,0.0530
1249.00,0.0525
1248.00,0.0523
1247.00,0.0526
1246.00,0.0532
1245.00,0.0541
1244.00,0.0552
1243.00,0.0565
1242.00,0.0577
1241.00,0.0588
1240.00,0.0599
1239.00,0.0608
1238.00,0.0617
1237.00,0.0625
1236.00,0.0633
1235.00,0.0640
1234.00,0.0645
1233.00,0.0650
1232.00,0.0652
1231.00,0.0653
1230.00,0.0652
1229.00,0.0650
1228.00,0.0647
1227.00,0.0644
1226.00,0.0640
1225.00,0.0638
1224.00,0.0635
1223.00,0.0634
1222.00,0.0633
1221.00,0.0633
1220.00,0.0631
1219.00,0.0628
1218.00,0.0622
1217.00,0.0613
1216.00,0.0601
1215.00,0.0584
1214.00,0.0565
1213.00,0.0544
1212.00,0.0522
1211.00,0.0500
1210.00,0.0481
1209.00,0.0463
1208.00,0.0448
1207.00,0.0435
1206.00,0.0426
1205.00,0.0420
1204.00,0.0417
1203.00,0.0417
1202.00,0.0420
1201.00,0.0427
1200.00,0.0436
1199.00,0.0447
1198.00,0.0459
1197.00,0.0470
1196.00,0.0480
1195.00,0.0487
1194.00,0.0490
1193.00,0.0487
1192.00,0.0478
1191.00,0.0464
1190.00,0.0447
1189.00,0.0428
1188.00,0.0409
1187.00,0.0392
1186.00,0.0377
1185.00,0.0364
1184.00,0.0354
1183.00,0.0347
1182.00,0.0342
1181.00,0.0338
1180.00,0.0336
1179.00,0.0336
1178.00,0.0338
1177.00,0.0341
1176.00,0.0346
1175.00,0.0351
1174.00,0.0357
1173.00,0.0363
1172.00,0.0369
1171.00,0.0374
1170.00,0.0377
1169.00,0.0380
1168.00,0.0381
1167.00,0.0382
1166.00,0.0383
1165.00,0.0384
1164.00,0.0388
1163.00,0.0394
1162.00,0.0403
1161.00,0.0414
1160.00,0.0426
1159.00,0.0437
1158.00,0.0446
1157.00,0.0451
1156.00,0.0449
1155.00,0.0442
1154.00,0.0430
1153.00,0.0415
1152.00,0.0396
1151.00,0.0376
1150.00,0.0355
1149.00,0.0334
1148.00,0.0314
1147.00,0.0296
1146.00,0.0281
1145.00,0.0268
1144.00,0.0256
1143.00,0.0248
1142.00,0.0241
1141.00,0.0237
1140.00,0.0235
1139.00,0.0236
1138.00,0.0240
1137.00,0.0250
1136.00,0.0264
1135.00,0.0284
1134.00,0.0309
1133.00,0.0337
1132.00,0.0363
1131.00,0.0385
1130.00,0.0399
1129.00,0.0401
1128.00,0.0391
1127.00,0.0372
1126.00,0.0348
1125.00,0.0323
1124.00,0.0301
1123.00,0.0283
1122.00,0.0269
1121.00,0.0259
1120.00,0.0251
1119.00,0.0246
1118.00,0.0243
1117.00,0.0242
1116.00,0.0241
1115.00,0.0241
1114.00,0.0242
1113.00,0.0244
1112.00,0.0246
1111.00,0.0248
1110.00,0.0251
1109.00,0.0254
1108.00,0.0257
1107.00,0.0262
1106.00,0.0269
1105.00,0.0277
1104.00,0.0285
1103.00,0.0294
1102.00,0.0302
1101.00,0.0308
1100.00,0.0310
1099.00,0.0308
1098.00,0.0303
1097.00,0.0296
1096.00,0.0287
1095.00,0.0277
1094.00,0.0269
1093.00,0.0260
1092.00,0.0253
1091.00,0.0246
1090.00,0.0241
1089.00,0.0237
1088.00,0.0234
1087.00,0.0232
1086.00,0.0231
1085.00,0.0231
1084.00,0.0231
1083.00,0.0233
1082.00,0.0236
1081.00,0.0239
1080.00,0.0244
1079.00,0.0250
1078.00,0.0257
1077.00,0.0265
1076.00,0.0273
1075.00,0.0281
1074.00,0.0290
1073.00,0.0299
1072.00,0.0308
1071.00,0.0319
1070.00,0.0333
1069.00,0.0349
1068.00,0.0369
1067.00,0.0392
1066.00,0.0420
1065.00,0.0451
1064.00,0.0485
1063.00,0.0520
1062.00,0.0556
1061.00,0.0590
1060.00,0.0618
1059.00,0.0638
1058.00,0.0647
1057.00,0.0644
1056.00,0.0628
1055.00,0.0602
1054.00,0.0569
1053.00,0.0531
1052.00,0.0493
1051.00,0.0459
1050.00,0.0430
1049.00,0.0409
1048.00,0.0395
1047.00,0.0388
1046.00,0.0386
1045.00,0.0389
1044.00,0.0395
1043.00,0.0403
1042.00,0.0413
1041.00,0.0422
1040.00,0.0431
1039.00,0.0439
1038.00,0.0447
1037.00,0.0454
1036.00,0.0460
1035.00,0.0465
1034.00,0.0470
1033.00,0.0474
1032.00,0.0476
1031.00,0.0474
1030.00,0.0470
1029.00,0.0461
1028.00,0.0448
1027.00,0.0434
1026.00,0.0419
1025.00,0.0405
1024.00,0.0394
1023.00,0.0386
1022.00,0.0381
1021.00,0.0378
1020.00,0.0377
1019.00,0.0375
1018.00,0.0373
1017.00,0.0368
1016.00,0.0360
1015.00,0.0348
1014.00,0.0334
1013.00,0.0320
1012.00,0.0306
1011.00,0.0295
1010.00,0.0288
1009.00,0.0285
1008.00,0.0286
1007.00,0.0292
1006.00,0.0301
1005.00,0.0312
1004.00,0.0322
1003.00,0.0328
1002.00,0.0330
1001.00,0.0327
1000.00,0.0320
999.00,0.0309
998.00,0.0298
997.00,0.0287
996.00,0.0276
995.00,0.0267
994.00,0.0258
993.00,0.0250
992.00,0.0242
991.00,0.0235
990.00,0.0228
989.00,0.0222
988.00,0.0215
987.00,0.0209
986.00,0.0204
985.00,0.0199
984.00,0.0195
983.00,0.0191
982.00,0.0189
981.00,0.0188
980.00,0.0187
979.00,0.0188
978.00,0.0188
977.00,0.0188
976.00,0.0188
975.00,0.0186
974.00,0.0184
973.00,0.0182
972.00,0.0179
971.00,0.0176
970.00,0.0174
969.00,0.0172
968.00,0.0169
967.00,0.0166
966.00,0.0164
965.00,0.0161
964.00,0.0159
963.00,0.0157
962.00,0.0155
961.00,0.0153
960.00,0.0150
959.00,0.0148
958.00,0.0146
957.00,0.0144
956.00,0.0143
955.00,0.0141
954.00,0.0140
953.00,0.0139
952.00,0.0139
951.00,0.0139
950.00,0.0139
949.00,0.0140
948.00,0.0140
947.00,0.0141
946.00,0.0143
945.00,0.0146
944.00,0.0149
943.00,0.0153
942.00,0.0159
941.00,0.0166
940.00,0.0176
939.00,0.0186
938.00,0.0199
937.00,0.0212
936.00,0.0224
935.00,0.0235
934.00,0.0244
933.00,0.0248
932.00,0.0248
931.00,0.0245
930.00,0.0240
929.00,0.0235
928.00,0.0231
927.00,0.0229
926.00,0.0227
925.00,0.0225
924.00,0.0222
923.00,0.0218
922.00,0.0214
921.00,0.0209
920.00,0.0204
919.00,0.0200
918.00,0.0196
917.00,0.0192
916.00,0.0188
915.00,0.0184
914.00,0.0181
913.00,0.0179
912.00,0.0177
911.00,0.0177
910.00,0.0178
909.00,0.0181
908.00,0.0184
907.00,0.0188
906.00,0.0194
905.00,0.0200
904.00,0.0208
903.00,0.0217
902.00,0.0227
901.00,0.0237
900.00,0.0246
899.00,0.0254
898.00,0.0260
897.00,0.0263
896.00,0.0264
895.00,0.0261
894.00,0.0257
893.00,0.0252
892.00,0.0245
891.00,0.0238
890.00,0.0231
889.00,0.0226
888.00,0.0222
887.00,0.0220
886.00,0.0220
885.00,0.0220
884.00,0.0222
883.00,0.0225
882.00,0.0229
881.00,0.0235
880.00,0.0241
879.00,0.0249
878.00,0.0258
877.00,0.0269
876.00,0.0279
875.00,0.0289
874.00,0.0300
873.00,0.0309
872.00,0.0316
871.00,0.0322
870.00,0.0326
869.00,0.0329
868.00,0.0330
867.00,0.0330
866.00,0.0331
865.00,0.0333
864.00,0.0335
863.00,0.0338
862.00,0.0341
861.00,0.0344
860.00,0.0348
859.00,0.0353
858.00,0.0359
857.00,0.0367
856.00,0.0375
855.00,0.0384
854.00,0.0393
853.00,0.0404
852.00,0.0415
851.00,0.0425
850.00,0.0436
849.00,0.0445
848.00,0.0452
847.00,0.0459
846.00,0.0464
845.00,0.0468
844.00,0.0470
843.00,0.0471
842.00,0.0471
841.00,0.0469
840.00,0.0467
839.00,0.0465
838.00,0.0462
837.00,0.0460
836.00,0.0458
835.00,0.0457
834.00,0.0455
833.00,0.0454
832.00,0.0452
831.00,0.0450
830.00,0.0448
829.00,0.0444
828.00,0.0440
827.00,0.0436
826.00,0.0432
825.00,0.0428
824.00,0.0425
823.00,0.0423
822.00,0.0422
821.00,0.0421
820.00,0.0421
819.00,0.0420
818.00,0.0418
817.00,0.0416
816.00,0.0413
815.00,0.0409
814.00,0.0405
813.00,0.0398
812.00,0.0387
811.00,0.0374
810.00,0.0358
809.00,0.0340
808.00,0.0321
807.00,0.0302
806.00,0.0286
805.00,0.0272
804.00,0.0261
803.00,0.0252
802.00,0.0246
801.00,0.0241
800.00,0.0238
799.00,0.0236
798.00,0.0235
797.00,0.0234
796.00,0.0234
795.00,0.0234
794.00,0.0235
793.00,0.0237
792.00,0.0238
791.00,0.0240
790.00,0.0241
789.00,0.0242
788.00,0.0242
787.00,0.0242
786.00,0.0242
785.00,0.0242
784.00,0.0243
783.00,0.0246
782.00,0.0249
781.00,0.0253
780.00,0.0257
779.00,0.0261
778.00,0.0265
777.00,0.0267
776.00,0.0267
775.00,0.0266
774.00,0.0264
773.00,0.0263
772.00,0.0263
771.00,0.0265
770.00,0.0268
769.00,0.0271
768.00,0.0275
767.00,0.0280
766.00,0.0285
765.00,0.0291
764.00,0.0297
763.00,0.0304
762.00,0.0311
761.00,0.0318
760.00,0.0325
759.00,0.0333
758.00,0.0341
757.00,0.0349
756.00,0.0357
755.00,0.0365
754.00,0.0372
753.00,0.0379
752.00,0.0387
751.00,0.0394
750.00,0.0402
749.00,0.0410
748.00,0.0418
747.00,0.0426
746.00,0.0435
745.00,0.0445
744.00,0.0455
743.00,0.0466
742.00,0.0479
741.00,0.0493
740.00,0.0508
739.00,0.0523
738.00,0.0535
737.00,0.0544
736.00,0.0547
735.00,0.0545
734.00,0.0539
733.00,0.0530
732.00,0.0518
731.00,0.0506
730.00,0.0492
729.00,0.0478
728.00,0.0464
727.00,0.0451
726.00,0.0438
725.00,0.0427
724.00,0.0417
723.00,0.0408
722.00,0.0399
721.00,0.0392
720.00,0.0387
719.00,0.0383
718.00,0.0380
717.00,0.0378
716.00,0.0377
715.00,0.0376
714.00,0.0375
713.00,0.0374
712.00,0.0373
711.00,0.0371
710.00,0.0369
709.00,0.0368
708.00,0.0366
707.00,0.0366
706.00,0.0366
705.00,0.0367
704.00,0.0369
703.00,0.0370
702.00,0.0371
701.00,0.0373
700.00,0.0375
699.00,0.0379
698.00,0.0385
697.00,0.0393
696.00,0.0402
695.00,0.0411
694.00,0.0421
693.00,0.0430
692.00,0.0438
691.00,0.0446
690.00,0.0452
689.00,0.0457
688.00,0.0459
687.00,0.0461
686.00,0.0462
685.00,0.0463
684.00,0.0464
683.00,0.0466
682.00,0.0469
681.00,0.0471
680.00,0.0474
679.00,0.0478
678.00,0.0481
677.00,0.0485
676.00,0.0491
675.00,0.0498
674.00,0.0506
673.00,0.0514
672.00,0.0522
671.00,0.0529
670.00,0.0536
669.00,0.0548
668.00,0.0567
667.00,0.0585
666.00,0.0596
665.00,0.0604
664.00,0.0613
663.00,0.0624
662.00,0.0639
661.00,0.0654
660.00,0.0670
659.00,0.0686
658.00,0.0702
657.00,0.0718
656.00,0.0735
655.00,0.0751
654.00,0.0767
653.00,0.0781
652.00,0.0793
651.00,0.0804
650.00,0.0813
649.00,0.0820
648.00,0.0823
647.00,0.0823
646.00,0.0818
645.00,0.0811
644.00,0.0801
643.00,0.0790
642.00,0.0777
641.00,0.0763
640.00,0.0749
639.00,0.0735
638.00,0.0722
637.00,0.0709
636.00,0.0698
635.00,0.0688
634.00,0.0679
633.00,0.0670
632.00,0.0662
631.00,0.0654
630.00,0.0648
629.00,0.0643
628.00,0.0639
627.00,0.0636
626.00,0.0633
625.00,0.0631
624.00,0.0628
623.00,0.0625
622.00,0.0622
621.00,0.0619
620.00,0.0616
619.00,0.0613
618.00,0.0611
617.00,0.0610
616.00,0.0609
615.00,0.0607
614.00,0.0606
613.00,0.0606
612.00,0.0606
611.00,0.0608
610.00,0.0611
609.00,0.0614
608.00,0.0618
607.00,0.0623
606.00,0.0627
605.00,0.0630
604.00,0.0633
603.00,0.0636
602.00,0.0640
601.00,0.0643
600.00,0.0645
599.00,0.0647
598.00,0.0649
597.00,0.0650
596.00,0.0651
595.00,0.0652
594.00,0.0654
593.00,0.0656
592.00,0.0660
591.00,0.0667
590.00,0.0677
589.00,0.0691
588.00,0.0709
587.00,0.0730
586.00,0.0754
585.00,0.0779
584.00,0.0802
583.00,0.0822
582.00,0.0839
581.00,0.0851
580.00,0.0861
579.00,0.0869
578.00,0.0875
577.00,0.0879
576.00,0.0883
575.00,0.0885
574.00,0.0886
573.00,0.0887
572.00,0.0887
571.00,0.0886
570.00,0.0884
569.00,0.0882
568.00,0.0880
567.00,0.0877
566.00,0.0872
565.00,0.0864
564.00,0.0855
563.00,0.0844
562.00,0.0833
561.00,0.0822
560.00,0.0810
559.00,0.0801
558.00,0.0793
557.00,0.0788
556.00,0.0781
555.00,0.0774
554.00,0.0767
553.00,0.0759
552.00,0.0752
551.00,0.0745
550.00,0.0738
549.00,0.0732
548.00,0.0726
547.00,0.0720
546.00,0.0713
545.00,0.0706
544.00,0.0700
543.00,0.0695
542.00,0.0691
541.00,0.0688
540.00,0.0685
539.00,0.0684
538.00,0.0684
537.00,0.0686
536.00,0.0691
535.00,0.0698
534.00,0.0705
533.00,0.0711
532.00,0.0715
531.00,0.0716
530.00,0.0715
529.00,0.0711
528.00,0.0706
527.00,0.0699
526.00,0.0692
525.00,0.0683
524.00,0.0675
523.00,0.0669
522.00,0.0666
521.00,0.0663
520.00,0.0661
519.00,0.0659
518.00,0.0656
517.00,0.0655
516.00,0.0653
515.00,0.0651
514.00,0.0650
513.00,0.0649
512.00,0.0649
511.00,0.0650
510.00,0.0652
509.00,0.0654
508.00,0.0655
507.00,0.0656
506.00,0.0655
505.00,0.0653
504.00,0.0650
503.00,0.0648
502.00,0.0647
501.00,0.0646
500.00,0.0645
499.00,0.0643
498.00,0.0643
497.00,0.0643
496.00,0.0643
495.00,0.0643
494.00,0.0643
493.00,0.0645
492.00,0.0647
491.00,0.0651
490.00,0.0654
489.00,0.0657
488.00,0.0659
487.00,0.0660
486.00,0.0661
485.00,0.0661
484.00,0.0660
483.00,0.0658
482.00,0.0657
481.00,0.0656
480.00,0.0654
479.00,0.0652
478.00,0.0650
477.00,0.0649
476.00,0.0650
475.00,0.0652
474.00,0.0655
473.00,0.0658
472.00,0.0659
471.00,0.0660
470.00,0.0662
469.00,0.0664
468.00,0.0664
467.00,0.0662
466.00,0.0659
465.00,0.0655
464.00,0.0651
463.00,0.0649
462.00,0.0649
461.00,0.0648
460.00,0.0646
459.00,0.0644
458.00,0.0643
457.00,0.0642
456.00,0.0641
455.00,0.0639
454.00,0.0637
453.00,0.0635
452.00,0.0634
451.00,0.0632
450.00,0.0631
449.00,0.0630
448.00,0.0629
447.00,0.0627
446.00,0.0626
445.00,0.0624
444.00,0.0622
443.00,0.0621
442.00,0.0621
441.00,0.0621
440.00,0.0620
439.00,0.0618
438.00,0.0613
437.00,0.0605
436.00,0.0595
435.00,0.0589
434.00,0.0590
433.00,0.0595
432.00,0.0599
431.00,0.0601
430.00,0.0601
429.00,0.0600
428.00,0.0598
427.00,0.0595
426.00,0.0591
425.00,0.0586
424.00,0.0581
423.00,0.0575
422.00,0.0571
421.00,0.0571
420.00,0.0574
419.00,0.0578
418.00,0.0584
417.00,0.0590
416.00,0.0595
415.00,0.0600
414.00,0.0603
413.00,0.0603
412.00,0.0599
411.00,0.0597
410.00,0.0598
409.00,0.0599
408.00,0.0598
407.00,0.0595
406.00,0.0592
405.00,0.0587
404.00,0.0577
403.00,0.0568
402.00,0.0563
401.00,0.0565
400.00,0.0572
