Created as New Dataset,Sample 617 By YargerLab Date Friday, June 06 2025
cm-1,A
4000.00,0.0053
3999.00,0.0053
3998.00,0.0053
3997.00,0.0053
3996.00,0.0053
3995.00,0.0053
3994.00,0.0053
3993.00,0.0053
3992.00,0.0053
3991.00,0.0053
3990.00,0.0053
3989.00,0.0053
3988.00,0.0052
3987.00,0.0052
3986.00,0.0052
3985.00,0.0052
3984.00,0.0052
3983.00,0.0052
3982.00,0.0053
3981.00,0.0053
3980.00,0.0053
3979.00,0.0053
3978.00,0.0053
3977.00,0.0053
3976.00,0.0053
3975.00,0.0053
3974.00,0.0053
3973.00,0.0053
3972.00,0.0053
3971.00,0.0053
3970.00,0.0053
3969.00,0.0053
3968.00,0.0053
3967.00,0.0053
3966.00,0.0053
3965.00,0.0053
3964.00,0.0053
3963.00,0.0053
3962.00,0.0053
3961.00,0.0053
3960.00,0.0053
3959.00,0.0053
3958.00,0.0053
3957.00,0.0053
3956.00,0.0053
3955.00,0.0053
3954.00,0.0053
3953.00,0.0053
3952.00,0.0053
3951.00,0.0053
3950.00,0.0053
3949.00,0.0053
3948.00,0.0053
3947.00,0.0053
3946.00,0.0053
3945.00,0.0054
3944.00,0.0053
3943.00,0.0053
3942.00,0.0053
3941.00,0.0053
3940.00,0.0053
3939.00,0.0053
3938.00,0.0053
3937.00,0.0053
3936.00,0.0053
3935.00,0.0053
3934.00,0.0053
3933.00,0.0053
3932.00,0.0054
3931.00,0.0054
3930.00,0.0054
3929.00,0.0054
3928.00,0.0054
3927.00,0.0054
3926.00,0.0054
3925.00,0.0053
3924.00,0.0053
3923.00,0.0053
3922.00,0.0053
3921.00,0.0053
3920.00,0.0053
3919.00,0.0053
3918.00,0.0053
3917.00,0.0053
3916.00,0.0053
3915.00,0.0053
3914.00,0.0053
3913.00,0.0053
3912.00,0.0052
3911.00,0.0052
3910.00,0.0052
3909.00,0.0053
3908.00,0.0053
3907.00,0.0053
3906.00,0.0053
3905.00,0.0053
3904.00,0.0053
3903.00,0.0054
3902.00,0.0054
3901.00,0.0054
3900.00,0.0053
3899.00,0.0053
3898.00,0.0053
3897.00,0.0052
3896.00,0.0052
3895.00,0.0052
3894.00,0.0052
3893.00,0.0052
3892.00,0.0053
3891.00,0.0053
3890.00,0.0053
3889.00,0.0053
3888.00,0.0053
3887.00,0.0053
3886.00,0.0052
3885.00,0.0052
3884.00,0.0052
3883.00,0.0053
3882.00,0.0053
3881.00,0.0053
3880.00,0.0052
3879.00,0.0052
3878.00,0.0052
3877.00,0.0052
3876.00,0.0052
3875.00,0.0052
3874.00,0.0053
3873.00,0.0053
3872.00,0.0054
3871.00,0.0054
3870.00,0.0053
3869.00,0.0053
3868.00,0.0053
3867.00,0.0053
3866.00,0.0053
3865.00,0.0053
3864.00,0.0053
3863.00,0.0053
3862.00,0.0053
3861.00,0.0053
3860.00,0.0053
3859.00,0.0053
3858.00,0.0053
3857.00,0.0053
3856.00,0.0053
3855.00,0.0053
3854.00,0.0053
3853.00,0.0052
3852.00,0.0053
3851.00,0.0053
3850.00,0.0053
3849.00,0.0053
3848.00,0.0052
3847.00,0.0052
3846.00,0.0052
3845.00,0.0052
3844.00,0.0052
3843.00,0.0052
3842.00,0.0052
3841.00,0.0053
3840.00,0.0053
3839.00,0.0052
3838.00,0.0052
3837.00,0.0052
3836.00,0.0052
3835.00,0.0052
3834.00,0.0052
3833.00,0.0052
3832.00,0.0052
3831.00,0.0052
3830.00,0.0052
3829.00,0.0052
3828.00,0.0052
3827.00,0.0051
3826.00,0.0051
3825.00,0.0052
3824.00,0.0052
3823.00,0.0052
3822.00,0.0052
3821.00,0.0052
3820.00,0.0052
3819.00,0.0053
3818.00,0.0053
3817.00,0.0053
3816.00,0.0052
3815.00,0.0052
3814.00,0.0052
3813.00,0.0052
3812.00,0.0052
3811.00,0.0052
3810.00,0.0052
3809.00,0.0052
3808.00,0.0053
3807.00,0.0053
3806.00,0.0053
3805.00,0.0053
3804.00,0.0054
3803.00,0.0053
3802.00,0.0053
3801.00,0.0052
3800.00,0.0052
3799.00,0.0053
3798.00,0.0052
3797.00,0.0052
3796.00,0.0052
3795.00,0.0051
3794.00,0.0052
3793.00,0.0051
3792.00,0.0051
3791.00,0.0051
3790.00,0.0051
3789.00,0.0051
3788.00,0.0051
3787.00,0.0052
3786.00,0.0052
3785.00,0.0052
3784.00,0.0052
3783.00,0.0052
3782.00,0.0052
3781.00,0.0052
3780.00,0.0052
3779.00,0.0052
3778.00,0.0052
3777.00,0.0052
3776.00,0.0052
3775.00,0.0052
3774.00,0.0052
3773.00,0.0052
3772.00,0.0052
3771.00,0.0052
3770.00,0.0052
3769.00,0.0052
3768.00,0.0052
3767.00,0.0052
3766.00,0.0052
3765.00,0.0052
3764.00,0.0052
3763.00,0.0052
3762.00,0.0052
3761.00,0.0052
3760.00,0.0052
3759.00,0.0052
3758.00,0.0052
3757.00,0.0053
3756.00,0.0053
3755.00,0.0053
3754.00,0.0054
3753.00,0.0054
3752.00,0.0054
3751.00,0.0053
3750.00,0.0053
3749.00,0.0053
3748.00,0.0053
3747.00,0.0053
3746.00,0.0053
3745.00,0.0053
3744.00,0.0053
3743.00,0.0053
3742.00,0.0054
3741.00,0.0054
3740.00,0.0053
3739.00,0.0053
3738.00,0.0053
3737.00,0.0053
3736.00,0.0052
3735.00,0.0052
3734.00,0.0052
3733.00,0.0052
3732.00,0.0051
3731.00,0.0051
3730.00,0.0052
3729.00,0.0052
3728.00,0.0052
3727.00,0.0052
3726.00,0.0052
3725.00,0.0052
3724.00,0.0051
3723.00,0.0051
3722.00,0.0051
3721.00,0.0051
3720.00,0.0051
3719.00,0.0051
3718.00,0.0050
3717.00,0.0050
3716.00,0.0051
3715.00,0.0051
3714.00,0.0051
3713.00,0.0052
3712.00,0.0052
3711.00,0.0052
3710.00,0.0052
3709.00,0.0051
3708.00,0.0051
3707.00,0.0051
3706.00,0.0051
3705.00,0.0051
3704.00,0.0051
3703.00,0.0051
3702.00,0.0050
3701.00,0.0050
3700.00,0.0050
3699.00,0.0050
3698.00,0.0050
3697.00,0.0050
3696.00,0.0049
3695.00,0.0050
3694.00,0.0050
3693.00,0.0050
3692.00,0.0050
3691.00,0.0051
3690.00,0.0051
3689.00,0.0050
3688.00,0.0050
3687.00,0.0050
3686.00,0.0050
3685.00,0.0050
3684.00,0.0050
3683.00,0.0050
3682.00,0.0050
3681.00,0.0050
3680.00,0.0050
3679.00,0.0050
3678.00,0.0051
3677.00,0.0051
3676.00,0.0051
3675.00,0.0050
3674.00,0.0051
3673.00,0.0051
3672.00,0.0051
3671.00,0.0051
3670.00,0.0051
3669.00,0.0051
3668.00,0.0051
3667.00,0.0051
3666.00,0.0050
3665.00,0.0050
3664.00,0.0050
3663.00,0.0050
3662.00,0.0050
3661.00,0.0050
3660.00,0.0050
3659.00,0.0050
3658.00,0.0050
3657.00,0.0050
3656.00,0.0050
3655.00,0.0050
3654.00,0.0050
3653.00,0.0051
3652.00,0.0051
3651.00,0.0051
3650.00,0.0051
3649.00,0.0052
3648.00,0.0052
3647.00,0.0052
3646.00,0.0052
3645.00,0.0051
3644.00,0.0051
3643.00,0.0051
3642.00,0.0050
3641.00,0.0050
3640.00,0.0049
3639.00,0.0049
3638.00,0.0049
3637.00,0.0049
3636.00,0.0050
3635.00,0.0050
3634.00,0.0050
3633.00,0.0050
3632.00,0.0050
3631.00,0.0050
3630.00,0.0051
3629.00,0.0051
3628.00,0.0051
3627.00,0.0051
3626.00,0.0051
3625.00,0.0050
3624.00,0.0050
3623.00,0.0050
3622.00,0.0050
3621.00,0.0051
3620.00,0.0051
3619.00,0.0051
3618.00,0.0051
3617.00,0.0051
3616.00,0.0051
3615.00,0.0051
3614.00,0.0050
3613.00,0.0050
3612.00,0.0050
3611.00,0.0051
3610.00,0.0051
3609.00,0.0051
3608.00,0.0051
3607.00,0.0051
3606.00,0.0051
3605.00,0.0051
3604.00,0.0051
3603.00,0.0051
3602.00,0.0051
3601.00,0.0051
3600.00,0.0051
3599.00,0.0051
3598.00,0.0051
3597.00,0.0051
3596.00,0.0051
3595.00,0.0051
3594.00,0.0051
3593.00,0.0051
3592.00,0.0051
3591.00,0.0051
3590.00,0.0051
3589.00,0.0051
3588.00,0.0050
3587.00,0.0050
3586.00,0.0050
3585.00,0.0050
3584.00,0.0050
3583.00,0.0050
3582.00,0.0050
3581.00,0.0050
3580.00,0.0050
3579.00,0.0050
3578.00,0.0050
3577.00,0.0050
3576.00,0.0050
3575.00,0.0050
3574.00,0.0050
3573.00,0.0050
3572.00,0.0050
3571.00,0.0050
3570.00,0.0050
3569.00,0.0050
3568.00,0.0051
3567.00,0.0051
3566.00,0.0051
3565.00,0.0051
3564.00,0.0051
3563.00,0.0051
3562.00,0.0051
3561.00,0.0050
3560.00,0.0050
3559.00,0.0050
3558.00,0.0050
3557.00,0.0051
3556.00,0.0051
3555.00,0.0051
3554.00,0.0051
3553.00,0.0051
3552.00,0.0051
3551.00,0.0051
3550.00,0.0051
3549.00,0.0051
3548.00,0.0051
3547.00,0.0051
3546.00,0.0051
3545.00,0.0051
3544.00,0.0051
3543.00,0.0051
3542.00,0.0051
3541.00,0.0051
3540.00,0.0051
3539.00,0.0051
3538.00,0.0052
3537.00,0.0052
3536.00,0.0052
3535.00,0.0052
3534.00,0.0052
3533.00,0.0052
3532.00,0.0052
3531.00,0.0051
3530.00,0.0051
3529.00,0.0051
3528.00,0.0051
3527.00,0.0051
3526.00,0.0051
3525.00,0.0051
3524.00,0.0051
3523.00,0.0051
3522.00,0.0051
3521.00,0.0052
3520.00,0.0052
3519.00,0.0052
3518.00,0.0052
3517.00,0.0052
3516.00,0.0052
3515.00,0.0051
3514.00,0.0051
3513.00,0.0051
3512.00,0.0052
3511.00,0.0052
3510.00,0.0051
3509.00,0.0051
3508.00,0.0051
3507.00,0.0051
3506.00,0.0051
3505.00,0.0051
3504.00,0.0051
3503.00,0.0051
3502.00,0.0051
3501.00,0.0051
3500.00,0.0051
3499.00,0.0051
3498.00,0.0051
3497.00,0.0051
3496.00,0.0051
3495.00,0.0051
3494.00,0.0051
3493.00,0.0051
3492.00,0.0051
3491.00,0.0051
3490.00,0.0051
3489.00,0.0051
3488.00,0.0051
3487.00,0.0051
3486.00,0.0051
3485.00,0.0050
3484.00,0.0050
3483.00,0.0050
3482.00,0.0050
3481.00,0.0051
3480.00,0.0051
3479.00,0.0051
3478.00,0.0050
3477.00,0.0050
3476.00,0.0050
3475.00,0.0050
3474.00,0.0050
3473.00,0.0050
3472.00,0.0050
3471.00,0.0050
3470.00,0.0050
3469.00,0.0050
3468.00,0.0050
3467.00,0.0050
3466.00,0.0050
3465.00,0.0050
3464.00,0.0050
3463.00,0.0050
3462.00,0.0050
3461.00,0.0050
3460.00,0.0050
3459.00,0.0050
3458.00,0.0050
3457.00,0.0050
3456.00,0.0050
3455.00,0.0050
3454.00,0.0050
3453.00,0.0050
3452.00,0.0050
3451.00,0.0050
3450.00,0.0051
3449.00,0.0051
3448.00,0.0051
3447.00,0.0052
3446.00,0.0052
3445.00,0.0052
3444.00,0.0052
3443.00,0.0052
3442.00,0.0052
3441.00,0.0052
3440.00,0.0052
3439.00,0.0052
3438.00,0.0052
3437.00,0.0052
3436.00,0.0052
3435.00,0.0052
3434.00,0.0052
3433.00,0.0053
3432.00,0.0053
3431.00,0.0053
3430.00,0.0053
3429.00,0.0053
3428.00,0.0054
3427.00,0.0054
3426.00,0.0054
3425.00,0.0054
3424.00,0.0054
3423.00,0.0054
3422.00,0.0055
3421.00,0.0056
3420.00,0.0056
3419.00,0.0057
3418.00,0.0057
3417.00,0.0058
3416.00,0.0058
3415.00,0.0059
3414.00,0.0059
3413.00,0.0060
3412.00,0.0060
3411.00,0.0061
3410.00,0.0061
3409.00,0.0062
3408.00,0.0063
3407.00,0.0064
3406.00,0.0065
3405.00,0.0066
3404.00,0.0066
3403.00,0.0066
3402.00,0.0067
3401.00,0.0067
3400.00,0.0069
3399.00,0.0070
3398.00,0.0071
3397.00,0.0072
3396.00,0.0073
3395.00,0.0074
3394.00,0.0074
3393.00,0.0075
3392.00,0.0076
3391.00,0.0077
3390.00,0.0079
3389.00,0.0081
3388.00,0.0082
3387.00,0.0084
3386.00,0.0086
3385.00,0.0087
3384.00,0.0089
3383.00,0.0091
3382.00,0.0092
3381.00,0.0094
3380.00,0.0097
3379.00,0.0100
3378.00,0.0103
3377.00,0.0107
3376.00,0.0111
3375.00,0.0115
3374.00,0.0120
3373.00,0.0126
3372.00,0.0132
3371.00,0.0139
3370.00,0.0148
3369.00,0.0158
3368.00,0.0170
3367.00,0.0183
3366.00,0.0198
3365.00,0.0213
3364.00,0.0229
3363.00,0.0244
3362.00,0.0258
3361.00,0.0271
3360.00,0.0281
3359.00,0.0289
3358.00,0.0294
3357.00,0.0296
3356.00,0.0295
3355.00,0.0292
3354.00,0.0286
3353.00,0.0280
3352.00,0.0272
3351.00,0.0264
3350.00,0.0255
3349.00,0.0247
3348.00,0.0239
3347.00,0.0231
3346.00,0.0224
3345.00,0.0217
3344.00,0.0211
3343.00,0.0205
3342.00,0.0200
3341.00,0.0196
3340.00,0.0192
3339.00,0.0188
3338.00,0.0185
3337.00,0.0183
3336.00,0.0180
3335.00,0.0178
3334.00,0.0176
3333.00,0.0174
3332.00,0.0172
3331.00,0.0170
3330.00,0.0168
3329.00,0.0166
3328.00,0.0164
3327.00,0.0163
3326.00,0.0161
3325.00,0.0160
3324.00,0.0158
3323.00,0.0157
3322.00,0.0156
3321.00,0.0154
3320.00,0.0153
3319.00,0.0152
3318.00,0.0150
3317.00,0.0149
3316.00,0.0147
3315.00,0.0145
3314.00,0.0143
3313.00,0.0141
3312.00,0.0139
3311.00,0.0138
3310.00,0.0136
3309.00,0.0134
3308.00,0.0133
3307.00,0.0131
3306.00,0.0130
3305.00,0.0129
3304.00,0.0128
3303.00,0.0127
3302.00,0.0126
3301.00,0.0124
3300.00,0.0123
3299.00,0.0122
3298.00,0.0120
3297.00,0.0119
3296.00,0.0117
3295.00,0.0116
3294.00,0.0114
3293.00,0.0113
3292.00,0.0111
3291.00,0.0110
3290.00,0.0109
3289.00,0.0108
3288.00,0.0106
3287.00,0.0105
3286.00,0.0103
3285.00,0.0102
3284.00,0.0100
3283.00,0.0099
3282.00,0.0098
3281.00,0.0097
3280.00,0.0096
3279.00,0.0095
3278.00,0.0095
3277.00,0.0094
3276.00,0.0094
3275.00,0.0093
3274.00,0.0092
3273.00,0.0091
3272.00,0.0090
3271.00,0.0090
3270.00,0.0089
3269.00,0.0089
3268.00,0.0089
3267.00,0.0089
3266.00,0.0089
3265.00,0.0089
3264.00,0.0089
3263.00,0.0088
3262.00,0.0088
3261.00,0.0088
3260.00,0.0087
3259.00,0.0087
3258.00,0.0086
3257.00,0.0086
3256.00,0.0086
3255.00,0.0087
3254.00,0.0087
3253.00,0.0087
3252.00,0.0086
3251.00,0.0086
3250.00,0.0085
3249.00,0.0085
3248.00,0.0085
3247.00,0.0086
3246.00,0.0086
3245.00,0.0087
3244.00,0.0087
3243.00,0.0088
3242.00,0.0088
3241.00,0.0088
3240.00,0.0088
3239.00,0.0088
3238.00,0.0088
3237.00,0.0088
3236.00,0.0087
3235.00,0.0087
3234.00,0.0087
3233.00,0.0087
3232.00,0.0087
3231.00,0.0088
3230.00,0.0087
3229.00,0.0087
3228.00,0.0086
3227.00,0.0085
3226.00,0.0085
3225.00,0.0084
3224.00,0.0083
3223.00,0.0082
3222.00,0.0081
3221.00,0.0081
3220.00,0.0080
3219.00,0.0080
3218.00,0.0079
3217.00,0.0079
3216.00,0.0078
3215.00,0.0078
3214.00,0.0077
3213.00,0.0077
3212.00,0.0077
3211.00,0.0076
3210.00,0.0076
3209.00,0.0075
3208.00,0.0075
3207.00,0.0074
3206.00,0.0073
3205.00,0.0073
3204.00,0.0072
3203.00,0.0072
3202.00,0.0072
3201.00,0.0071
3200.00,0.0071
3199.00,0.0071
3198.00,0.0071
3197.00,0.0070
3196.00,0.0070
3195.00,0.0070
3194.00,0.0069
3193.00,0.0069
3192.00,0.0069
3191.00,0.0068
3190.00,0.0068
3189.00,0.0068
3188.00,0.0068
3187.00,0.0068
3186.00,0.0068
3185.00,0.0068
3184.00,0.0067
3183.00,0.0067
3182.00,0.0067
3181.00,0.0067
3180.00,0.0067
3179.00,0.0067
3178.00,0.0067
3177.00,0.0067
3176.00,0.0067
3175.00,0.0066
3174.00,0.0066
3173.00,0.0066
3172.00,0.0066
3171.00,0.0066
3170.00,0.0066
3169.00,0.0066
3168.00,0.0066
3167.00,0.0066
3166.00,0.0065
3165.00,0.0065
3164.00,0.0065
3163.00,0.0066
3162.00,0.0065
3161.00,0.0065
3160.00,0.0065
3159.00,0.0065
3158.00,0.0065
3157.00,0.0066
3156.00,0.0066
3155.00,0.0066
3154.00,0.0065
3153.00,0.0065
3152.00,0.0065
3151.00,0.0065
3150.00,0.0065
3149.00,0.0065
3148.00,0.0065
3147.00,0.0065
3146.00,0.0065
3145.00,0.0065
3144.00,0.0065
3143.00,0.0065
3142.00,0.0065
3141.00,0.0065
3140.00,0.0065
3139.00,0.0065
3138.00,0.0065
3137.00,0.0066
3136.00,0.0066
3135.00,0.0066
3134.00,0.0066
3133.00,0.0067
3132.00,0.0067
3131.00,0.0067
3130.00,0.0067
3129.00,0.0067
3128.00,0.0067
3127.00,0.0068
3126.00,0.0068
3125.00,0.0069
3124.00,0.0069
3123.00,0.0069
3122.00,0.0069
3121.00,0.0070
3120.00,0.0070
3119.00,0.0071
3118.00,0.0072
3117.00,0.0073
3116.00,0.0073
3115.00,0.0074
3114.00,0.0074
3113.00,0.0075
3112.00,0.0076
3111.00,0.0077
3110.00,0.0078
3109.00,0.0079
3108.00,0.0080
3107.00,0.0080
3106.00,0.0081
3105.00,0.0082
3104.00,0.0082
3103.00,0.0082
3102.00,0.0083
3101.00,0.0083
3100.00,0.0083
3099.00,0.0082
3098.00,0.0082
3097.00,0.0082
3096.00,0.0082
3095.00,0.0081
3094.00,0.0080
3093.00,0.0080
3092.00,0.0079
3091.00,0.0079
3090.00,0.0078
3089.00,0.0078
3088.00,0.0078
3087.00,0.0077
3086.00,0.0077
3085.00,0.0077
3084.00,0.0077
3083.00,0.0077
3082.00,0.0077
3081.00,0.0077
3080.00,0.0077
3079.00,0.0076
3078.00,0.0076
3077.00,0.0076
3076.00,0.0075
3075.00,0.0075
3074.00,0.0075
3073.00,0.0075
3072.00,0.0074
3071.00,0.0074
3070.00,0.0074
3069.00,0.0073
3068.00,0.0073
3067.00,0.0073
3066.00,0.0073
3065.00,0.0072
3064.00,0.0072
3063.00,0.0072
3062.00,0.0072
3061.00,0.0072
3060.00,0.0072
3059.00,0.0071
3058.00,0.0071
3057.00,0.0071
3056.00,0.0071
3055.00,0.0071
3054.00,0.0070
3053.00,0.0070
3052.00,0.0070
3051.00,0.0070
3050.00,0.0070
3049.00,0.0070
3048.00,0.0070
3047.00,0.0070
3046.00,0.0070
3045.00,0.0070
3044.00,0.0069
3043.00,0.0069
3042.00,0.0070
3041.00,0.0070
3040.00,0.0071
3039.00,0.0072
3038.00,0.0072
3037.00,0.0072
3036.00,0.0072
3035.00,0.0072
3034.00,0.0072
3033.00,0.0073
3032.00,0.0074
3031.00,0.0074
3030.00,0.0075
3029.00,0.0075
3028.00,0.0075
3027.00,0.0075
3026.00,0.0075
3025.00,0.0075
3024.00,0.0076
3023.00,0.0077
3022.00,0.0077
3021.00,0.0078
3020.00,0.0079
3019.00,0.0079
3018.00,0.0079
3017.00,0.0079
3016.00,0.0079
3015.00,0.0079
3014.00,0.0079
3013.00,0.0079
3012.00,0.0080
3011.00,0.0080
3010.00,0.0080
3009.00,0.0081
3008.00,0.0082
3007.00,0.0083
3006.00,0.0083
3005.00,0.0084
3004.00,0.0085
3003.00,0.0087
3002.00,0.0088
3001.00,0.0089
3000.00,0.0090
2999.00,0.0092
2998.00,0.0093
2997.00,0.0095
2996.00,0.0096
2995.00,0.0098
2994.00,0.0099
2993.00,0.0100
2992.00,0.0101
2991.00,0.0102
2990.00,0.0104
2989.00,0.0105
2988.00,0.0106
2987.00,0.0106
2986.00,0.0105
2985.00,0.0104
2984.00,0.0101
2983.00,0.0099
2982.00,0.0096
2981.00,0.0093
2980.00,0.0092
2979.00,0.0090
2978.00,0.0089
2977.00,0.0088
2976.00,0.0088
2975.00,0.0087
2974.00,0.0086
2973.00,0.0086
2972.00,0.0086
2971.00,0.0086
2970.00,0.0086
2969.00,0.0087
2968.00,0.0087
2967.00,0.0088
2966.00,0.0088
2965.00,0.0089
2964.00,0.0091
2963.00,0.0093
2962.00,0.0096
2961.00,0.0099
2960.00,0.0102
2959.00,0.0106
2958.00,0.0111
2957.00,0.0116
2956.00,0.0121
2955.00,0.0127
2954.00,0.0132
2953.00,0.0136
2952.00,0.0139
2951.00,0.0141
2950.00,0.0140
2949.00,0.0138
2948.00,0.0134
2947.00,0.0130
2946.00,0.0126
2945.00,0.0122
2944.00,0.0118
2943.00,0.0114
2942.00,0.0111
2941.00,0.0108
2940.00,0.0105
2939.00,0.0103
2938.00,0.0101
2937.00,0.0099
2936.00,0.0098
2935.00,0.0097
2934.00,0.0096
2933.00,0.0096
2932.00,0.0095
2931.00,0.0094
2930.00,0.0094
2929.00,0.0093
2928.00,0.0093
2927.00,0.0093
2926.00,0.0092
2925.00,0.0091
2924.00,0.0090
2923.00,0.0089
2922.00,0.0088
2921.00,0.0087
2920.00,0.0087
2919.00,0.0086
2918.00,0.0085
2917.00,0.0084
2916.00,0.0084
2915.00,0.0084
2914.00,0.0083
2913.00,0.0083
2912.00,0.0083
2911.00,0.0083
2910.00,0.0083
2909.00,0.0083
2908.00,0.0083
2907.00,0.0083
2906.00,0.0083
2905.00,0.0082
2904.00,0.0082
2903.00,0.0081
2902.00,0.0081
2901.00,0.0080
2900.00,0.0079
2899.00,0.0079
2898.00,0.0078
2897.00,0.0077
2896.00,0.0077
2895.00,0.0077
2894.00,0.0077
2893.00,0.0077
2892.00,0.0077
2891.00,0.0076
2890.00,0.0076
2889.00,0.0076
2888.00,0.0076
2887.00,0.0076
2886.00,0.0076
2885.00,0.0076
2884.00,0.0076
2883.00,0.0076
2882.00,0.0076
2881.00,0.0076
2880.00,0.0076
2879.00,0.0076
2878.00,0.0076
2877.00,0.0075
2876.00,0.0075
2875.00,0.0075
2874.00,0.0075
2873.00,0.0075
2872.00,0.0076
2871.00,0.0076
2870.00,0.0076
2869.00,0.0076
2868.00,0.0076
2867.00,0.0076
2866.00,0.0077
2865.00,0.0077
2864.00,0.0077
2863.00,0.0077
2862.00,0.0077
2861.00,0.0077
2860.00,0.0077
2859.00,0.0077
2858.00,0.0077
2857.00,0.0077
2856.00,0.0077
2855.00,0.0076
2854.00,0.0076
2853.00,0.0076
2852.00,0.0076
2851.00,0.0076
2850.00,0.0076
2849.00,0.0076
2848.00,0.0076
2847.00,0.0077
2846.00,0.0077
2845.00,0.0078
2844.00,0.0079
2843.00,0.0080
2842.00,0.0081
2841.00,0.0081
2840.00,0.0082
2839.00,0.0082
2838.00,0.0082
2837.00,0.0081
2836.00,0.0080
2835.00,0.0079
2834.00,0.0077
2833.00,0.0076
2832.00,0.0074
2831.00,0.0073
2830.00,0.0072
2829.00,0.0072
2828.00,0.0071
2827.00,0.0071
2826.00,0.0070
2825.00,0.0070
2824.00,0.0070
2823.00,0.0070
2822.00,0.0070
2821.00,0.0070
2820.00,0.0071
2819.00,0.0071
2818.00,0.0071
2817.00,0.0071
2816.00,0.0071
2815.00,0.0071
2814.00,0.0071
2813.00,0.0071
2812.00,0.0071
2811.00,0.0071
2810.00,0.0071
2809.00,0.0071
2808.00,0.0071
2807.00,0.0071
2806.00,0.0071
2805.00,0.0071
2804.00,0.0070
2803.00,0.0070
2802.00,0.0070
2801.00,0.0069
2800.00,0.0069
2799.00,0.0068
2798.00,0.0068
2797.00,0.0068
2796.00,0.0068
2795.00,0.0067
2794.00,0.0067
2793.00,0.0067
2792.00,0.0066
2791.00,0.0066
2790.00,0.0066
2789.00,0.0066
2788.00,0.0066
2787.00,0.0065
2786.00,0.0065
2785.00,0.0065
2784.00,0.0064
2783.00,0.0064
2782.00,0.0064
2781.00,0.0063
2780.00,0.0063
2779.00,0.0063
2778.00,0.0063
2777.00,0.0062
2776.00,0.0062
2775.00,0.0062
2774.00,0.0062
2773.00,0.0062
2772.00,0.0062
2771.00,0.0062
2770.00,0.0062
2769.00,0.0062
2768.00,0.0062
2767.00,0.0062
2766.00,0.0062
2765.00,0.0062
2764.00,0.0062
2763.00,0.0062
2762.00,0.0062
2761.00,0.0062
2760.00,0.0061
2759.00,0.0061
2758.00,0.0061
2757.00,0.0061
2756.00,0.0061
2755.00,0.0061
2754.00,0.0061
2753.00,0.0061
2752.00,0.0061
2751.00,0.0061
2750.00,0.0061
2749.00,0.0061
2748.00,0.0061
2747.00,0.0060
2746.00,0.0060
2745.00,0.0060
2744.00,0.0060
2743.00,0.0060
2742.00,0.0060
2741.00,0.0060
2740.00,0.0060
2739.00,0.0060
2738.00,0.0060
2737.00,0.0060
2736.00,0.0060
2735.00,0.0060
2734.00,0.0060
2733.00,0.0059
2732.00,0.0059
2731.00,0.0059
2730.00,0.0059
2729.00,0.0059
2728.00,0.0059
2727.00,0.0059
2726.00,0.0059
2725.00,0.0059
2724.00,0.0059
2723.00,0.0058
2722.00,0.0058
2721.00,0.0059
2720.00,0.0059
2719.00,0.0059
2718.00,0.0059
2717.00,0.0059
2716.00,0.0059
2715.00,0.0059
2714.00,0.0059
2713.00,0.0060
2712.00,0.0060
2711.00,0.0060
2710.00,0.0060
2709.00,0.0060
2708.00,0.0060
2707.00,0.0060
2706.00,0.0060
2705.00,0.0060
2704.00,0.0060
2703.00,0.0060
2702.00,0.0060
2701.00,0.0060
2700.00,0.0060
2699.00,0.0059
2698.00,0.0059
2697.00,0.0060
2696.00,0.0060
2695.00,0.0060
2694.00,0.0060
2693.00,0.0059
2692.00,0.0059
2691.00,0.0059
2690.00,0.0059
2689.00,0.0059
2688.00,0.0059
2687.00,0.0060
2686.00,0.0060
2685.00,0.0060
2684.00,0.0060
2683.00,0.0060
2682.00,0.0060
2681.00,0.0059
2680.00,0.0059
2679.00,0.0059
2678.00,0.0059
2677.00,0.0059
2676.00,0.0059
2675.00,0.0059
2674.00,0.0059
2673.00,0.0059
2672.00,0.0059
2671.00,0.0059
2670.00,0.0059
2669.00,0.0058
2668.00,0.0059
2667.00,0.0059
2666.00,0.0059
2665.00,0.0060
2664.00,0.0060
2663.00,0.0060
2662.00,0.0061
2661.00,0.0061
2660.00,0.0061
2659.00,0.0062
2658.00,0.0062
2657.00,0.0062
2656.00,0.0062
2655.00,0.0062
2654.00,0.0062
2653.00,0.0062
2652.00,0.0062
2651.00,0.0062
2650.00,0.0062
2649.00,0.0062
2648.00,0.0062
2647.00,0.0062
2646.00,0.0062
2645.00,0.0062
2644.00,0.0062
2643.00,0.0062
2642.00,0.0062
2641.00,0.0062
2640.00,0.0062
2639.00,0.0061
2638.00,0.0061
2637.00,0.0061
2636.00,0.0061
2635.00,0.0062
2634.00,0.0062
2633.00,0.0062
2632.00,0.0062
2631.00,0.0062
2630.00,0.0061
2629.00,0.0061
2628.00,0.0061
2627.00,0.0061
2626.00,0.0061
2625.00,0.0061
2624.00,0.0061
2623.00,0.0061
2622.00,0.0061
2621.00,0.0061
2620.00,0.0061
2619.00,0.0061
2618.00,0.0061
2617.00,0.0061
2616.00,0.0061
2615.00,0.0062
2614.00,0.0062
2613.00,0.0062
2612.00,0.0062
2611.00,0.0062
2610.00,0.0062
2609.00,0.0061
2608.00,0.0061
2607.00,0.0061
2606.00,0.0061
2605.00,0.0061
2604.00,0.0061
2603.00,0.0061
2602.00,0.0061
2601.00,0.0061
2600.00,0.0061
2599.00,0.0061
2598.00,0.0061
2597.00,0.0060
2596.00,0.0060
2595.00,0.0060
2594.00,0.0060
2593.00,0.0060
2592.00,0.0060
2591.00,0.0060
2590.00,0.0060
2589.00,0.0060
2588.00,0.0059
2587.00,0.0059
2586.00,0.0059
2585.00,0.0058
2584.00,0.0059
2583.00,0.0059
2582.00,0.0058
2581.00,0.0058
2580.00,0.0058
2579.00,0.0058
2578.00,0.0057
2577.00,0.0057
2576.00,0.0057
2575.00,0.0057
2574.00,0.0057
2573.00,0.0057
2572.00,0.0057
2571.00,0.0057
2570.00,0.0057
2569.00,0.0057
2568.00,0.0057
2567.00,0.0056
2566.00,0.0056
2565.00,0.0057
2564.00,0.0057
2563.00,0.0057
2562.00,0.0057
2561.00,0.0057
2560.00,0.0057
2559.00,0.0057
2558.00,0.0056
2557.00,0.0056
2556.00,0.0056
2555.00,0.0055
2554.00,0.0055
2553.00,0.0055
2552.00,0.0055
2551.00,0.0055
2550.00,0.0055
2549.00,0.0055
2548.00,0.0055
2547.00,0.0054
2546.00,0.0054
2545.00,0.0055
2544.00,0.0055
2543.00,0.0055
2542.00,0.0055
2541.00,0.0055
2540.00,0.0055
2539.00,0.0055
2538.00,0.0054
2537.00,0.0054
2536.00,0.0055
2535.00,0.0054
2534.00,0.0054
2533.00,0.0054
2532.00,0.0054
2531.00,0.0054
2530.00,0.0054
2529.00,0.0054
2528.00,0.0053
2527.00,0.0053
2526.00,0.0053
2525.00,0.0054
2524.00,0.0054
2523.00,0.0055
2522.00,0.0055
2521.00,0.0055
2520.00,0.0055
2519.00,0.0054
2518.00,0.0055
2517.00,0.0055
2516.00,0.0055
2515.00,0.0055
2514.00,0.0055
2513.00,0.0055
2512.00,0.0055
2511.00,0.0055
2510.00,0.0054
2509.00,0.0054
2508.00,0.0054
2507.00,0.0054
2506.00,0.0054
2505.00,0.0054
2504.00,0.0054
2503.00,0.0054
2502.00,0.0054
2501.00,0.0054
2500.00,0.0055
2499.00,0.0055
2498.00,0.0055
2497.00,0.0055
2496.00,0.0055
2495.00,0.0055
2494.00,0.0055
2493.00,0.0056
2492.00,0.0056
2491.00,0.0056
2490.00,0.0056
2489.00,0.0056
2488.00,0.0056
2487.00,0.0056
2486.00,0.0056
2485.00,0.0056
2484.00,0.0056
2483.00,0.0056
2482.00,0.0055
2481.00,0.0055
2480.00,0.0054
2479.00,0.0054
2478.00,0.0054
2477.00,0.0054
2476.00,0.0055
2475.00,0.0055
2474.00,0.0055
2473.00,0.0054
2472.00,0.0054
2471.00,0.0054
2470.00,0.0054
2469.00,0.0054
2468.00,0.0054
2467.00,0.0054
2466.00,0.0054
2465.00,0.0054
2464.00,0.0054
2463.00,0.0054
2462.00,0.0054
2461.00,0.0055
2460.00,0.0055
2459.00,0.0055
2458.00,0.0055
2457.00,0.0054
2456.00,0.0054
2455.00,0.0054
2454.00,0.0054
2453.00,0.0054
2452.00,0.0054
2451.00,0.0054
2450.00,0.0054
2449.00,0.0054
2448.00,0.0054
2447.00,0.0054
2446.00,0.0054
2445.00,0.0053
2444.00,0.0053
2443.00,0.0053
2442.00,0.0053
2441.00,0.0053
2440.00,0.0053
2439.00,0.0053
2438.00,0.0053
2437.00,0.0053
2436.00,0.0053
2435.00,0.0053
2434.00,0.0052
2433.00,0.0052
2432.00,0.0052
2431.00,0.0052
2430.00,0.0052
2429.00,0.0052
2428.00,0.0053
2427.00,0.0053
2426.00,0.0053
2425.00,0.0053
2424.00,0.0053
2423.00,0.0053
2422.00,0.0053
2421.00,0.0053
2420.00,0.0053
2419.00,0.0053
2418.00,0.0053
2417.00,0.0053
2416.00,0.0053
2415.00,0.0052
2414.00,0.0052
2413.00,0.0052
2412.00,0.0052
2411.00,0.0052
2410.00,0.0052
2409.00,0.0052
2408.00,0.0051
2407.00,0.0051
2406.00,0.0051
2405.00,0.0050
2404.00,0.0050
2403.00,0.0050
2402.00,0.0050
2401.00,0.0050
2400.00,0.0050
2399.00,0.0050
2398.00,0.0050
2397.00,0.0050
2396.00,0.0050
2395.00,0.0050
2394.00,0.0050
2393.00,0.0050
2392.00,0.0050
2391.00,0.0050
2390.00,0.0050
2389.00,0.0050
2388.00,0.0050
2387.00,0.0050
2386.00,0.0050
2385.00,0.0049
2384.00,0.0049
2383.00,0.0049
2382.00,0.0049
2381.00,0.0049
2380.00,0.0049
2379.00,0.0049
2378.00,0.0049
2377.00,0.0049
2376.00,0.0049
2375.00,0.0049
2374.00,0.0049
2373.00,0.0049
2372.00,0.0048
2371.00,0.0048
2370.00,0.0048
2369.00,0.0047
2368.00,0.0047
2367.00,0.0048
2366.00,0.0048
2365.00,0.0048
2364.00,0.0049
2363.00,0.0049
2362.00,0.0049
2361.00,0.0049
2360.00,0.0049
2359.00,0.0049
2358.00,0.0048
2357.00,0.0047
2356.00,0.0047
2355.00,0.0047
2354.00,0.0046
2353.00,0.0046
2352.00,0.0046
2351.00,0.0046
2350.00,0.0046
2349.00,0.0048
2348.00,0.0050
2347.00,0.0051
2346.00,0.0052
2345.00,0.0052
2344.00,0.0051
2343.00,0.0050
2342.00,0.0050
2341.00,0.0050
2340.00,0.0050
2339.00,0.0051
2338.00,0.0051
2337.00,0.0051
2336.00,0.0051
2335.00,0.0051
2334.00,0.0051
2333.00,0.0051
2332.00,0.0050
2331.00,0.0050
2330.00,0.0050
2329.00,0.0052
2328.00,0.0054
2327.00,0.0057
2326.00,0.0060
2325.00,0.0061
2324.00,0.0060
2323.00,0.0058
2322.00,0.0057
2321.00,0.0055
2320.00,0.0054
2319.00,0.0053
2318.00,0.0052
2317.00,0.0051
2316.00,0.0051
2315.00,0.0051
2314.00,0.0051
2313.00,0.0051
2312.00,0.0051
2311.00,0.0050
2310.00,0.0050
2309.00,0.0050
2308.00,0.0049
2307.00,0.0049
2306.00,0.0050
2305.00,0.0050
2304.00,0.0050
2303.00,0.0051
2302.00,0.0051
2301.00,0.0051
2300.00,0.0052
2299.00,0.0052
2298.00,0.0052
2297.00,0.0053
2296.00,0.0054
2295.00,0.0054
2294.00,0.0055
2293.00,0.0055
2292.00,0.0056
2291.00,0.0056
2290.00,0.0057
2289.00,0.0057
2288.00,0.0057
2287.00,0.0057
2286.00,0.0056
2285.00,0.0056
2284.00,0.0056
2283.00,0.0055
2282.00,0.0055
2281.00,0.0055
2280.00,0.0054
2279.00,0.0055
2278.00,0.0054
2277.00,0.0054
2276.00,0.0054
2275.00,0.0054
2274.00,0.0054
2273.00,0.0053
2272.00,0.0053
2271.00,0.0053
2270.00,0.0053
2269.00,0.0052
2268.00,0.0052
2267.00,0.0051
2266.00,0.0050
2265.00,0.0051
2264.00,0.0051
2263.00,0.0052
2262.00,0.0052
2261.00,0.0052
2260.00,0.0053
2259.00,0.0052
2258.00,0.0052
2257.00,0.0051
2256.00,0.0050
2255.00,0.0050
2254.00,0.0049
2253.00,0.0049
2252.00,0.0049
2251.00,0.0048
2250.00,0.0048
2249.00,0.0048
2248.00,0.0048
2247.00,0.0048
2246.00,0.0047
2245.00,0.0048
2244.00,0.0048
2243.00,0.0048
2242.00,0.0048
2241.00,0.0048
2240.00,0.0048
2239.00,0.0048
2238.00,0.0047
2237.00,0.0047
2236.00,0.0047
2235.00,0.0048
2234.00,0.0048
2233.00,0.0048
2232.00,0.0048
2231.00,0.0047
2230.00,0.0046
2229.00,0.0045
2228.00,0.0046
2227.00,0.0046
2226.00,0.0047
2225.00,0.0048
2224.00,0.0048
2223.00,0.0048
2222.00,0.0048
2221.00,0.0048
2220.00,0.0047
2219.00,0.0046
2218.00,0.0045
2217.00,0.0045
2216.00,0.0044
2215.00,0.0043
2214.00,0.0043
2213.00,0.0044
2212.00,0.0045
2211.00,0.0045
2210.00,0.0045
2209.00,0.0046
2208.00,0.0046
2207.00,0.0046
2206.00,0.0046
2205.00,0.0046
2204.00,0.0046
2203.00,0.0046
2202.00,0.0046
2201.00,0.0046
2200.00,0.0046
2199.00,0.0045
2198.00,0.0046
2197.00,0.0046
2196.00,0.0046
2195.00,0.0045
2194.00,0.0045
2193.00,0.0045
2192.00,0.0046
2191.00,0.0047
2190.00,0.0047
2189.00,0.0047
2188.00,0.0048
2187.00,0.0048
2186.00,0.0047
2185.00,0.0046
2184.00,0.0044
2183.00,0.0041
2182.00,0.0040
2181.00,0.0041
2180.00,0.0043
2179.00,0.0044
2178.00,0.0043
2177.00,0.0041
2176.00,0.0040
2175.00,0.0040
2174.00,0.0041
2173.00,0.0044
2172.00,0.0047
2171.00,0.0049
2170.00,0.0051
2169.00,0.0052
2168.00,0.0052
2167.00,0.0052
2166.00,0.0051
2165.00,0.0053
2164.00,0.0057
2163.00,0.0059
2162.00,0.0058
2161.00,0.0051
2160.00,0.0040
2159.00,0.0030
2158.00,0.0024
2157.00,0.0023
2156.00,0.0025
2155.00,0.0027
2154.00,0.0029
2153.00,0.0030
2152.00,0.0031
2151.00,0.0031
2150.00,0.0031
2149.00,0.0031
2148.00,0.0032
2147.00,0.0033
2146.00,0.0032
2145.00,0.0032
2144.00,0.0032
2143.00,0.0032
2142.00,0.0032
2141.00,0.0032
2140.00,0.0032
2139.00,0.0032
2138.00,0.0031
2137.00,0.0030
2136.00,0.0030
2135.00,0.0029
2134.00,0.0029
2133.00,0.0029
2132.00,0.0030
2131.00,0.0031
2130.00,0.0032
2129.00,0.0033
2128.00,0.0034
2127.00,0.0035
2126.00,0.0036
2125.00,0.0036
2124.00,0.0037
2123.00,0.0037
2122.00,0.0038
2121.00,0.0039
2120.00,0.0040
2119.00,0.0041
2118.00,0.0042
2117.00,0.0043
2116.00,0.0044
2115.00,0.0044
2114.00,0.0044
2113.00,0.0044
2112.00,0.0044
2111.00,0.0044
2110.00,0.0043
2109.00,0.0043
2108.00,0.0043
2107.00,0.0043
2106.00,0.0042
2105.00,0.0042
2104.00,0.0043
2103.00,0.0044
2102.00,0.0044
2101.00,0.0044
2100.00,0.0044
2099.00,0.0043
2098.00,0.0042
2097.00,0.0040
2096.00,0.0040
2095.00,0.0040
2094.00,0.0040
2093.00,0.0042
2092.00,0.0043
2091.00,0.0043
2090.00,0.0044
2089.00,0.0045
2088.00,0.0046
2087.00,0.0047
2086.00,0.0047
2085.00,0.0047
2084.00,0.0047
2083.00,0.0047
2082.00,0.0046
2081.00,0.0046
2080.00,0.0045
2079.00,0.0044
2078.00,0.0044
2077.00,0.0044
2076.00,0.0044
2075.00,0.0044
2074.00,0.0044
2073.00,0.0044
2072.00,0.0045
2071.00,0.0045
2070.00,0.0045
2069.00,0.0045
2068.00,0.0044
2067.00,0.0043
2066.00,0.0041
2065.00,0.0041
2064.00,0.0041
2063.00,0.0042
2062.00,0.0043
2061.00,0.0043
2060.00,0.0043
2059.00,0.0042
2058.00,0.0041
2057.00,0.0041
2056.00,0.0041
2055.00,0.0042
2054.00,0.0044
2053.00,0.0047
2052.00,0.0050
2051.00,0.0049
2050.00,0.0047
2049.00,0.0044
2048.00,0.0042
2047.00,0.0041
2046.00,0.0040
2045.00,0.0039
2044.00,0.0039
2043.00,0.0038
2042.00,0.0036
2041.00,0.0036
2040.00,0.0036
2039.00,0.0037
2038.00,0.0038
2037.00,0.0038
2036.00,0.0037
2035.00,0.0034
2034.00,0.0031
2033.00,0.0030
2032.00,0.0030
2031.00,0.0030
2030.00,0.0030
2029.00,0.0031
2028.00,0.0032
2027.00,0.0033
2026.00,0.0033
2025.00,0.0033
2024.00,0.0034
2023.00,0.0034
2022.00,0.0034
2021.00,0.0034
2020.00,0.0034
2019.00,0.0033
2018.00,0.0032
2017.00,0.0033
2016.00,0.0035
2015.00,0.0036
2014.00,0.0036
2013.00,0.0036
2012.00,0.0037
2011.00,0.0038
2010.00,0.0038
2009.00,0.0037
2008.00,0.0034
2007.00,0.0031
2006.00,0.0029
2005.00,0.0028
2004.00,0.0029
2003.00,0.0030
2002.00,0.0031
2001.00,0.0032
2000.00,0.0034
1999.00,0.0035
1998.00,0.0036
1997.00,0.0037
1996.00,0.0038
1995.00,0.0040
1994.00,0.0040
1993.00,0.0040
1992.00,0.0040
1991.00,0.0039
1990.00,0.0039
1989.00,0.0040
1988.00,0.0042
1987.00,0.0043
1986.00,0.0044
1985.00,0.0046
1984.00,0.0048
1983.00,0.0049
1982.00,0.0050
1981.00,0.0049
1980.00,0.0046
1979.00,0.0041
1978.00,0.0035
1977.00,0.0030
1976.00,0.0029
1975.00,0.0029
1974.00,0.0030
1973.00,0.0032
1972.00,0.0033
1971.00,0.0033
1970.00,0.0032
1969.00,0.0031
1968.00,0.0032
1967.00,0.0032
1966.00,0.0031
1965.00,0.0030
1964.00,0.0030
1963.00,0.0030
1962.00,0.0029
1961.00,0.0030
1960.00,0.0030
1959.00,0.0031
1958.00,0.0031
1957.00,0.0032
1956.00,0.0034
1955.00,0.0034
1954.00,0.0034
1953.00,0.0034
1952.00,0.0033
1951.00,0.0033
1950.00,0.0032
1949.00,0.0032
1948.00,0.0033
1947.00,0.0034
1946.00,0.0033
1945.00,0.0032
1944.00,0.0032
1943.00,0.0031
1942.00,0.0032
1941.00,0.0033
1940.00,0.0035
1939.00,0.0035
1938.00,0.0035
1937.00,0.0035
1936.00,0.0035
1935.00,0.0034
1934.00,0.0034
1933.00,0.0033
1932.00,0.0034
1931.00,0.0034
1930.00,0.0035
1929.00,0.0035
1928.00,0.0036
1927.00,0.0036
1926.00,0.0035
1925.00,0.0035
1924.00,0.0036
1923.00,0.0037
1922.00,0.0038
1921.00,0.0039
1920.00,0.0039
1919.00,0.0039
1918.00,0.0038
1917.00,0.0038
1916.00,0.0039
1915.00,0.0038
1914.00,0.0038
1913.00,0.0038
1912.00,0.0039
1911.00,0.0039
1910.00,0.0039
1909.00,0.0039
1908.00,0.0040
1907.00,0.0040
1906.00,0.0040
1905.00,0.0041
1904.00,0.0041
1903.00,0.0041
1902.00,0.0040
1901.00,0.0040
1900.00,0.0040
1899.00,0.0040
1898.00,0.0040
1897.00,0.0040
1896.00,0.0039
1895.00,0.0039
1894.00,0.0038
1893.00,0.0038
1892.00,0.0037
1891.00,0.0036
1890.00,0.0035
1889.00,0.0035
1888.00,0.0035
1887.00,0.0035
1886.00,0.0035
1885.00,0.0035
1884.00,0.0036
1883.00,0.0036
1882.00,0.0036
1881.00,0.0036
1880.00,0.0036
1879.00,0.0036
1878.00,0.0036
1877.00,0.0035
1876.00,0.0035
1875.00,0.0035
1874.00,0.0035
1873.00,0.0035
1872.00,0.0035
1871.00,0.0035
1870.00,0.0035
1869.00,0.0034
1868.00,0.0035
1867.00,0.0035
1866.00,0.0035
1865.00,0.0036
1864.00,0.0036
1863.00,0.0036
1862.00,0.0035
1861.00,0.0035
1860.00,0.0036
1859.00,0.0036
1858.00,0.0036
1857.00,0.0035
1856.00,0.0035
1855.00,0.0035
1854.00,0.0035
1853.00,0.0034
1852.00,0.0034
1851.00,0.0034
1850.00,0.0033
1849.00,0.0033
1848.00,0.0034
1847.00,0.0034
1846.00,0.0033
1845.00,0.0033
1844.00,0.0033
1843.00,0.0034
1842.00,0.0034
1841.00,0.0034
1840.00,0.0034
1839.00,0.0033
1838.00,0.0033
1837.00,0.0032
1836.00,0.0033
1835.00,0.0033
1834.00,0.0033
1833.00,0.0033
1832.00,0.0033
1831.00,0.0033
1830.00,0.0033
1829.00,0.0033
1828.00,0.0033
1827.00,0.0034
1826.00,0.0034
1825.00,0.0034
1824.00,0.0035
1823.00,0.0036
1822.00,0.0036
1821.00,0.0035
1820.00,0.0035
1819.00,0.0033
1818.00,0.0032
1817.00,0.0032
1816.00,0.0032
1815.00,0.0033
1814.00,0.0033
1813.00,0.0033
1812.00,0.0033
1811.00,0.0033
1810.00,0.0033
1809.00,0.0033
1808.00,0.0033
1807.00,0.0034
1806.00,0.0034
1805.00,0.0034
1804.00,0.0034
1803.00,0.0034
1802.00,0.0034
1801.00,0.0034
1800.00,0.0034
1799.00,0.0034
1798.00,0.0034
1797.00,0.0035
1796.00,0.0035
1795.00,0.0035
1794.00,0.0035
1793.00,0.0035
1792.00,0.0035
1791.00,0.0036
1790.00,0.0036
1789.00,0.0036
1788.00,0.0036
1787.00,0.0036
1786.00,0.0036
1785.00,0.0036
1784.00,0.0036
1783.00,0.0036
1782.00,0.0036
1781.00,0.0036
1780.00,0.0036
1779.00,0.0036
1778.00,0.0036
1777.00,0.0036
1776.00,0.0036
1775.00,0.0036
1774.00,0.0036
1773.00,0.0036
1772.00,0.0037
1771.00,0.0037
1770.00,0.0037
1769.00,0.0037
1768.00,0.0037
1767.00,0.0038
1766.00,0.0038
1765.00,0.0038
1764.00,0.0038
1763.00,0.0038
1762.00,0.0038
1761.00,0.0039
1760.00,0.0039
1759.00,0.0039
1758.00,0.0039
1757.00,0.0039
1756.00,0.0039
1755.00,0.0040
1754.00,0.0040
1753.00,0.0041
1752.00,0.0041
1751.00,0.0042
1750.00,0.0042
1749.00,0.0043
1748.00,0.0044
1747.00,0.0045
1746.00,0.0046
1745.00,0.0047
1744.00,0.0049
1743.00,0.0051
1742.00,0.0052
1741.00,0.0054
1740.00,0.0056
1739.00,0.0058
1738.00,0.0060
1737.00,0.0061
1736.00,0.0063
1735.00,0.0065
1734.00,0.0067
1733.00,0.0070
1732.00,0.0073
1731.00,0.0074
1730.00,0.0074
1729.00,0.0073
1728.00,0.0074
1727.00,0.0074
1726.00,0.0074
1725.00,0.0074
1724.00,0.0076
1723.00,0.0078
1722.00,0.0079
1721.00,0.0081
1720.00,0.0085
1719.00,0.0091
1718.00,0.0098
1717.00,0.0109
1716.00,0.0122
1715.00,0.0135
1714.00,0.0147
1713.00,0.0162
1712.00,0.0180
1711.00,0.0203
1710.00,0.0231
1709.00,0.0266
1708.00,0.0307
1707.00,0.0357
1706.00,0.0414
1705.00,0.0470
1704.00,0.0513
1703.00,0.0543
1702.00,0.0562
1701.00,0.0570
1700.00,0.0565
1699.00,0.0549
1698.00,0.0529
1697.00,0.0509
1696.00,0.0492
1695.00,0.0485
1694.00,0.0488
1693.00,0.0498
1692.00,0.0514
1691.00,0.0538
1690.00,0.0566
1689.00,0.0592
1688.00,0.0612
1687.00,0.0623
1686.00,0.0629
1685.00,0.0629
1684.00,0.0622
1683.00,0.0609
1682.00,0.0592
1681.00,0.0572
1680.00,0.0551
1679.00,0.0531
1678.00,0.0511
1677.00,0.0490
1676.00,0.0469
1675.00,0.0450
1674.00,0.0434
1673.00,0.0421
1672.00,0.0410
1671.00,0.0399
1670.00,0.0390
1669.00,0.0380
1668.00,0.0369
1667.00,0.0358
1666.00,0.0347
1665.00,0.0335
1664.00,0.0324
1663.00,0.0313
1662.00,0.0305
1661.00,0.0299
1660.00,0.0293
1659.00,0.0290
1658.00,0.0287
1657.00,0.0286
1656.00,0.0284
1655.00,0.0286
1654.00,0.0295
1653.00,0.0311
1652.00,0.0326
1651.00,0.0335
1650.00,0.0339
1649.00,0.0343
1648.00,0.0350
1647.00,0.0362
1646.00,0.0371
1645.00,0.0374
1644.00,0.0370
1643.00,0.0360
1642.00,0.0347
1641.00,0.0332
1640.00,0.0317
1639.00,0.0304
1638.00,0.0292
1637.00,0.0282
1636.00,0.0276
1635.00,0.0273
1634.00,0.0274
1633.00,0.0277
1632.00,0.0281
1631.00,0.0288
1630.00,0.0297
1629.00,0.0309
1628.00,0.0322
1627.00,0.0335
1626.00,0.0347
1625.00,0.0358
1624.00,0.0370
1623.00,0.0382
1622.00,0.0392
1621.00,0.0398
1620.00,0.0401
1619.00,0.0403
1618.00,0.0404
1617.00,0.0404
1616.00,0.0402
1615.00,0.0395
1614.00,0.0385
1613.00,0.0373
1612.00,0.0359
1611.00,0.0347
1610.00,0.0335
1609.00,0.0326
1608.00,0.0320
1607.00,0.0316
1606.00,0.0315
1605.00,0.0312
1604.00,0.0306
1603.00,0.0295
1602.00,0.0281
1601.00,0.0263
1600.00,0.0245
1599.00,0.0227
1598.00,0.0212
1597.00,0.0198
1596.00,0.0187
1595.00,0.0177
1594.00,0.0168
1593.00,0.0160
1592.00,0.0153
1591.00,0.0147
1590.00,0.0141
1589.00,0.0136
1588.00,0.0131
1587.00,0.0127
1586.00,0.0124
1585.00,0.0122
1584.00,0.0120
1583.00,0.0120
1582.00,0.0122
1581.00,0.0126
1580.00,0.0131
1579.00,0.0136
1578.00,0.0140
1577.00,0.0141
1576.00,0.0139
1575.00,0.0134
1574.00,0.0130
1573.00,0.0124
1572.00,0.0119
1571.00,0.0114
1570.00,0.0111
1569.00,0.0108
1568.00,0.0106
1567.00,0.0105
1566.00,0.0103
1565.00,0.0102
1564.00,0.0101
1563.00,0.0100
1562.00,0.0099
1561.00,0.0099
1560.00,0.0099
1559.00,0.0098
1558.00,0.0098
1557.00,0.0098
1556.00,0.0098
1555.00,0.0096
1554.00,0.0096
1553.00,0.0097
1552.00,0.0097
1551.00,0.0097
1550.00,0.0098
1549.00,0.0100
1548.00,0.0102
1547.00,0.0104
1546.00,0.0108
1545.00,0.0114
1544.00,0.0119
1543.00,0.0126
1542.00,0.0134
1541.00,0.0148
1540.00,0.0167
1539.00,0.0190
1538.00,0.0210
1537.00,0.0228
1536.00,0.0244
1535.00,0.0268
1534.00,0.0303
1533.00,0.0349
1532.00,0.0395
1531.00,0.0440
1530.00,0.0486
1529.00,0.0536
1528.00,0.0585
1527.00,0.0629
1526.00,0.0660
1525.00,0.0672
1524.00,0.0666
1523.00,0.0643
1522.00,0.0605
1521.00,0.0557
1520.00,0.0512
1519.00,0.0476
1518.00,0.0445
1517.00,0.0416
1516.00,0.0393
1515.00,0.0379
1514.00,0.0372
1513.00,0.0370
1512.00,0.0374
1511.00,0.0383
1510.00,0.0395
1509.00,0.0410
1508.00,0.0434
1507.00,0.0469
1506.00,0.0506
1505.00,0.0533
1504.00,0.0551
1503.00,0.0565
1502.00,0.0582
1501.00,0.0601
1500.00,0.0622
1499.00,0.0643
1498.00,0.0664
1497.00,0.0683
1496.00,0.0695
1495.00,0.0700
1494.00,0.0698
1493.00,0.0691
1492.00,0.0682
1491.00,0.0671
1490.00,0.0659
1489.00,0.0646
1488.00,0.0630
1487.00,0.0613
1486.00,0.0595
1485.00,0.0577
1484.00,0.0558
1483.00,0.0539
1482.00,0.0519
1481.00,0.0501
1480.00,0.0483
1479.00,0.0468
1478.00,0.0454
1477.00,0.0443
1476.00,0.0433
1475.00,0.0425
1474.00,0.0416
1473.00,0.0406
1472.00,0.0394
1471.00,0.0383
1470.00,0.0373
1469.00,0.0363
1468.00,0.0354
1467.00,0.0347
1466.00,0.0340
1465.00,0.0334
1464.00,0.0328
1463.00,0.0322
1462.00,0.0317
1461.00,0.0312
1460.00,0.0306
1459.00,0.0302
1458.00,0.0299
1457.00,0.0299
1456.00,0.0300
1455.00,0.0300
1454.00,0.0299
1453.00,0.0298
1452.00,0.0299
1451.00,0.0302
1450.00,0.0307
1449.00,0.0314
1448.00,0.0322
1447.00,0.0333
1446.00,0.0343
1445.00,0.0353
1444.00,0.0362
1443.00,0.0372
1442.00,0.0380
1441.00,0.0388
1440.00,0.0394
1439.00,0.0402
1438.00,0.0418
1437.00,0.0449
1436.00,0.0493
1435.00,0.0539
1434.00,0.0582
1433.00,0.0621
1432.00,0.0655
1431.00,0.0679
1430.00,0.0690
1429.00,0.0684
1428.00,0.0664
1427.00,0.0633
1426.00,0.0595
1425.00,0.0556
1424.00,0.0517
1423.00,0.0481
1422.00,0.0451
1421.00,0.0425
1420.00,0.0399
1419.00,0.0374
1418.00,0.0352
1417.00,0.0333
1416.00,0.0317
1415.00,0.0301
1414.00,0.0287
1413.00,0.0274
1412.00,0.0262
1411.00,0.0251
1410.00,0.0242
1409.00,0.0234
1408.00,0.0226
1407.00,0.0219
1406.00,0.0213
1405.00,0.0208
1404.00,0.0203
1403.00,0.0199
1402.00,0.0196
1401.00,0.0193
1400.00,0.0190
1399.00,0.0189
1398.00,0.0188
1397.00,0.0188
1396.00,0.0190
1395.00,0.0193
1394.00,0.0199
1393.00,0.0206
1392.00,0.0213
1391.00,0.0220
1390.00,0.0230
1389.00,0.0241
1388.00,0.0254
1387.00,0.0270
1386.00,0.0284
1385.00,0.0296
1384.00,0.0305
1383.00,0.0311
1382.00,0.0316
1381.00,0.0320
1380.00,0.0324
1379.00,0.0328
1378.00,0.0330
1377.00,0.0328
1376.00,0.0320
1375.00,0.0305
1374.00,0.0285
1373.00,0.0264
1372.00,0.0246
1371.00,0.0232
1370.00,0.0221
1369.00,0.0214
1368.00,0.0209
1367.00,0.0208
1366.00,0.0208
1365.00,0.0211
1364.00,0.0215
1363.00,0.0222
1362.00,0.0231
1361.00,0.0241
1360.00,0.0251
1359.00,0.0261
1358.00,0.0273
1357.00,0.0285
1356.00,0.0299
1355.00,0.0316
1354.00,0.0336
1353.00,0.0359
1352.00,0.0387
1351.00,0.0420
1350.00,0.0456
1349.00,0.0492
1348.00,0.0524
1347.00,0.0550
1346.00,0.0566
1345.00,0.0572
1344.00,0.0571
1343.00,0.0563
1342.00,0.0549
1341.00,0.0527
1340.00,0.0500
1339.00,0.0468
1338.00,0.0436
1337.00,0.0407
1336.00,0.0384
1335.00,0.0369
1334.00,0.0363
1333.00,0.0368
1332.00,0.0383
1331.00,0.0404
1330.00,0.0423
1329.00,0.0434
1328.00,0.0430
1327.00,0.0415
1326.00,0.0394
1325.00,0.0372
1324.00,0.0355
1323.00,0.0343
1322.00,0.0338
1321.00,0.0336
1320.00,0.0337
1319.00,0.0339
1318.00,0.0344
1317.00,0.0351
1316.00,0.0360
1315.00,0.0371
1314.00,0.0386
1313.00,0.0405
1312.00,0.0429
1311.00,0.0457
1310.00,0.0487
1309.00,0.0516
1308.00,0.0537
1307.00,0.0550
1306.00,0.0551
1305.00,0.0544
1304.00,0.0530
1303.00,0.0512
1302.00,0.0491
1301.00,0.0469
1300.00,0.0447
1299.00,0.0426
1298.00,0.0408
1297.00,0.0394
1296.00,0.0385
1295.00,0.0381
1294.00,0.0382
1293.00,0.0391
1292.00,0.0406
1291.00,0.0430
1290.00,0.0461
1289.00,0.0498
1288.00,0.0538
1287.00,0.0578
1286.00,0.0614
1285.00,0.0644
1284.00,0.0667
1283.00,0.0682
1282.00,0.0688
1281.00,0.0687
1280.00,0.0678
1279.00,0.0664
1278.00,0.0645
1277.00,0.0623
1276.00,0.0600
1275.00,0.0575
1274.00,0.0550
1273.00,0.0526
1272.00,0.0503
1271.00,0.0482
1270.00,0.0462
1269.00,0.0443
1268.00,0.0425
1267.00,0.0407
1266.00,0.0389
1265.00,0.0373
1264.00,0.0356
1263.00,0.0341
1262.00,0.0326
1261.00,0.0312
1260.00,0.0300
1259.00,0.0289
1258.00,0.0280
1257.00,0.0272
1256.00,0.0266
1255.00,0.0260
1254.00,0.0256
1253.00,0.0253
1252.00,0.0251
1251.00,0.0251
1250.00,0.0252
1249.00,0.0255
1248.00,0.0260
1247.00,0.0267
1246.00,0.0275
1245.00,0.0284
1244.00,0.0294
1243.00,0.0304
1242.00,0.0315
1241.00,0.0327
1240.00,0.0338
1239.00,0.0349
1238.00,0.0360
1237.00,0.0370
1236.00,0.0378
1235.00,0.0383
1234.00,0.0385
1233.00,0.0386
1232.00,0.0385
1231.00,0.0386
1230.00,0.0389
1229.00,0.0394
1228.00,0.0402
1227.00,0.0411
1226.00,0.0420
1225.00,0.0431
1224.00,0.0441
1223.00,0.0452
1222.00,0.0464
1221.00,0.0475
1220.00,0.0487
1219.00,0.0499
1218.00,0.0511
1217.00,0.0525
1216.00,0.0540
1215.00,0.0557
1214.00,0.0578
1213.00,0.0604
1212.00,0.0633
1211.00,0.0667
1210.00,0.0701
1209.00,0.0735
1208.00,0.0764
1207.00,0.0787
1206.00,0.0799
1205.00,0.0800
1204.00,0.0790
1203.00,0.0769
1202.00,0.0739
1201.00,0.0704
1200.00,0.0666
1199.00,0.0629
1198.00,0.0595
1197.00,0.0567
1196.00,0.0547
1195.00,0.0537
1194.00,0.0537
1193.00,0.0547
1192.00,0.0566
1191.00,0.0592
1190.00,0.0622
1189.00,0.0653
1188.00,0.0681
1187.00,0.0703
1186.00,0.0721
1185.00,0.0734
1184.00,0.0742
1183.00,0.0742
1182.00,0.0734
1181.00,0.0719
1180.00,0.0697
1179.00,0.0672
1178.00,0.0642
1177.00,0.0610
1176.00,0.0575
1175.00,0.0539
1174.00,0.0503
1173.00,0.0469
1172.00,0.0439
1171.00,0.0413
1170.00,0.0391
1169.00,0.0374
1168.00,0.0363
1167.00,0.0356
1166.00,0.0352
1165.00,0.0352
1164.00,0.0351
1163.00,0.0350
1162.00,0.0345
1161.00,0.0338
1160.00,0.0329
1159.00,0.0319
1158.00,0.0310
1157.00,0.0301
1156.00,0.0293
1155.00,0.0287
1154.00,0.0285
1153.00,0.0286
1152.00,0.0290
1151.00,0.0297
1150.00,0.0306
1149.00,0.0318
1148.00,0.0331
1147.00,0.0348
1146.00,0.0368
1145.00,0.0395
1144.00,0.0424
1143.00,0.0450
1142.00,0.0466
1141.00,0.0468
1140.00,0.0456
1139.00,0.0437
1138.00,0.0420
1137.00,0.0413
1136.00,0.0420
1135.00,0.0438
1134.00,0.0464
1133.00,0.0489
1132.00,0.0505
1131.00,0.0508
1130.00,0.0500
1129.00,0.0486
1128.00,0.0472
1127.00,0.0464
1126.00,0.0464
1125.00,0.0472
1124.00,0.0489
1123.00,0.0515
1122.00,0.0548
1121.00,0.0588
1120.00,0.0636
1119.00,0.0687
1118.00,0.0739
1117.00,0.0784
1116.00,0.0815
1115.00,0.0828
1114.00,0.0823
1113.00,0.0801
1112.00,0.0769
1111.00,0.0732
1110.00,0.0694
1109.00,0.0661
1108.00,0.0634
1107.00,0.0616
1106.00,0.0608
1105.00,0.0611
1104.00,0.0623
1103.00,0.0644
1102.00,0.0673
1101.00,0.0706
1100.00,0.0742
1099.00,0.0775
1098.00,0.0801
1097.00,0.0818
1096.00,0.0824
1095.00,0.0819
1094.00,0.0806
1093.00,0.0786
1092.00,0.0762
1091.00,0.0735
1090.00,0.0705
1089.00,0.0673
1088.00,0.0641
1087.00,0.0610
1086.00,0.0580
1085.00,0.0552
1084.00,0.0526
1083.00,0.0502
1082.00,0.0480
1081.00,0.0460
1080.00,0.0443
1079.00,0.0426
1078.00,0.0411
1077.00,0.0398
1076.00,0.0386
1075.00,0.0375
1074.00,0.0366
1073.00,0.0357
1072.00,0.0350
1071.00,0.0344
1070.00,0.0338
1069.00,0.0333
1068.00,0.0328
1067.00,0.0323
1066.00,0.0320
1065.00,0.0319
1064.00,0.0324
1063.00,0.0335
1062.00,0.0352
1061.00,0.0373
1060.00,0.0395
1059.00,0.0416
1058.00,0.0432
1057.00,0.0444
1056.00,0.0451
1055.00,0.0454
1054.00,0.0454
1053.00,0.0453
1052.00,0.0450
1051.00,0.0446
1050.00,0.0443
1049.00,0.0438
1048.00,0.0432
1047.00,0.0423
1046.00,0.0413
1045.00,0.0401
1044.00,0.0390
1043.00,0.0380
1042.00,0.0372
1041.00,0.0365
1040.00,0.0361
1039.00,0.0359
1038.00,0.0360
1037.00,0.0363
1036.00,0.0370
1035.00,0.0380
1034.00,0.0394
1033.00,0.0413
1032.00,0.0436
1031.00,0.0464
1030.00,0.0494
1029.00,0.0525
1028.00,0.0554
1027.00,0.0580
1026.00,0.0600
1025.00,0.0615
1024.00,0.0625
1023.00,0.0630
1022.00,0.0631
1021.00,0.0626
1020.00,0.0617
1019.00,0.0603
1018.00,0.0585
1017.00,0.0564
1016.00,0.0540
1015.00,0.0516
1014.00,0.0491
1013.00,0.0468
1012.00,0.0447
1011.00,0.0427
1010.00,0.0408
1009.00,0.0391
1008.00,0.0376
1007.00,0.0362
1006.00,0.0350
1005.00,0.0340
1004.00,0.0331
1003.00,0.0322
1002.00,0.0313
1001.00,0.0306
1000.00,0.0299
999.00,0.0293
998.00,0.0288
997.00,0.0284
996.00,0.0280
995.00,0.0275
994.00,0.0271
993.00,0.0268
992.00,0.0265
991.00,0.0263
990.00,0.0262
989.00,0.0261
988.00,0.0260
987.00,0.0260
986.00,0.0261
985.00,0.0261
984.00,0.0262
983.00,0.0262
982.00,0.0262
981.00,0.0261
980.00,0.0260
979.00,0.0257
978.00,0.0254
977.00,0.0249
976.00,0.0245
975.00,0.0240
974.00,0.0236
973.00,0.0232
972.00,0.0229
971.00,0.0227
970.00,0.0225
969.00,0.0224
968.00,0.0224
967.00,0.0224
966.00,0.0225
965.00,0.0227
964.00,0.0229
963.00,0.0230
962.00,0.0231
961.00,0.0231
960.00,0.0230
959.00,0.0229
958.00,0.0228
957.00,0.0227
956.00,0.0227
955.00,0.0229
954.00,0.0231
953.00,0.0235
952.00,0.0238
951.00,0.0241
950.00,0.0242
949.00,0.0241
948.00,0.0238
947.00,0.0234
946.00,0.0229
945.00,0.0224
944.00,0.0218
943.00,0.0213
942.00,0.0208
941.00,0.0204
940.00,0.0199
939.00,0.0196
938.00,0.0193
937.00,0.0190
936.00,0.0187
935.00,0.0185
934.00,0.0183
933.00,0.0181
932.00,0.0179
931.00,0.0178
930.00,0.0176
929.00,0.0175
928.00,0.0173
927.00,0.0172
926.00,0.0171
925.00,0.0171
924.00,0.0170
923.00,0.0170
922.00,0.0169
921.00,0.0168
920.00,0.0167
919.00,0.0166
918.00,0.0165
917.00,0.0164
916.00,0.0163
915.00,0.0162
914.00,0.0161
913.00,0.0160
912.00,0.0159
911.00,0.0157
910.00,0.0156
909.00,0.0155
908.00,0.0155
907.00,0.0154
906.00,0.0153
905.00,0.0153
904.00,0.0152
903.00,0.0150
902.00,0.0149
901.00,0.0149
900.00,0.0148
899.00,0.0148
898.00,0.0147
897.00,0.0147
896.00,0.0146
895.00,0.0145
894.00,0.0145
893.00,0.0144
892.00,0.0144
891.00,0.0143
890.00,0.0143
889.00,0.0142
888.00,0.0141
887.00,0.0140
886.00,0.0140
885.00,0.0139
884.00,0.0140
883.00,0.0140
882.00,0.0140
881.00,0.0141
880.00,0.0141
879.00,0.0141
878.00,0.0141
877.00,0.0142
876.00,0.0143
875.00,0.0145
874.00,0.0147
873.00,0.0147
872.00,0.0146
871.00,0.0144
870.00,0.0142
869.00,0.0141
868.00,0.0140
867.00,0.0141
866.00,0.0147
865.00,0.0158
864.00,0.0179
863.00,0.0210
862.00,0.0252
861.00,0.0294
860.00,0.0326
859.00,0.0335
858.00,0.0322
857.00,0.0293
856.00,0.0258
855.00,0.0226
854.00,0.0202
853.00,0.0185
852.00,0.0173
851.00,0.0167
850.00,0.0164
849.00,0.0164
848.00,0.0168
847.00,0.0176
846.00,0.0189
845.00,0.0202
844.00,0.0214
843.00,0.0221
842.00,0.0223
841.00,0.0221
840.00,0.0219
839.00,0.0221
838.00,0.0230
837.00,0.0247
836.00,0.0275
835.00,0.0315
834.00,0.0369
833.00,0.0434
832.00,0.0501
831.00,0.0552
830.00,0.0571
829.00,0.0553
828.00,0.0508
827.00,0.0452
826.00,0.0398
825.00,0.0353
824.00,0.0317
823.00,0.0290
822.00,0.0268
821.00,0.0251
820.00,0.0236
819.00,0.0224
818.00,0.0214
817.00,0.0205
816.00,0.0199
815.00,0.0193
814.00,0.0189
813.00,0.0186
812.00,0.0184
811.00,0.0184
810.00,0.0186
809.00,0.0190
808.00,0.0195
807.00,0.0203
806.00,0.0211
805.00,0.0220
804.00,0.0227
803.00,0.0229
802.00,0.0225
801.00,0.0216
800.00,0.0205
799.00,0.0196
798.00,0.0193
797.00,0.0195
796.00,0.0202
795.00,0.0212
794.00,0.0223
793.00,0.0233
792.00,0.0239
791.00,0.0242
790.00,0.0247
789.00,0.0255
788.00,0.0267
787.00,0.0280
786.00,0.0293
785.00,0.0303
784.00,0.0311
783.00,0.0320
782.00,0.0334
781.00,0.0357
780.00,0.0384
779.00,0.0405
778.00,0.0409
777.00,0.0393
776.00,0.0364
775.00,0.0330
774.00,0.0300
773.00,0.0275
772.00,0.0254
771.00,0.0237
770.00,0.0224
769.00,0.0213
768.00,0.0206
767.00,0.0202
766.00,0.0203
765.00,0.0206
764.00,0.0211
763.00,0.0218
762.00,0.0226
761.00,0.0235
760.00,0.0248
759.00,0.0263
758.00,0.0282
757.00,0.0308
756.00,0.0342
755.00,0.0383
754.00,0.0423
753.00,0.0452
752.00,0.0461
751.00,0.0452
750.00,0.0434
749.00,0.0417
748.00,0.0407
747.00,0.0404
746.00,0.0403
745.00,0.0400
744.00,0.0393
743.00,0.0387
742.00,0.0385
741.00,0.0390
740.00,0.0403
739.00,0.0421
738.00,0.0434
737.00,0.0436
736.00,0.0422
735.00,0.0394
734.00,0.0360
733.00,0.0327
732.00,0.0297
731.00,0.0273
730.00,0.0254
729.00,0.0237
728.00,0.0224
727.00,0.0213
726.00,0.0206
725.00,0.0200
724.00,0.0197
723.00,0.0196
722.00,0.0197
721.00,0.0203
720.00,0.0213
719.00,0.0230
718.00,0.0253
717.00,0.0281
716.00,0.0314
715.00,0.0352
714.00,0.0397
713.00,0.0453
712.00,0.0521
711.00,0.0590
710.00,0.0643
709.00,0.0663
708.00,0.0644
707.00,0.0593
706.00,0.0527
705.00,0.0463
704.00,0.0409
703.00,0.0367
702.00,0.0336
701.00,0.0312
700.00,0.0294
699.00,0.0280
698.00,0.0269
697.00,0.0262
696.00,0.0257
695.00,0.0254
694.00,0.0254
693.00,0.0256
692.00,0.0261
691.00,0.0269
690.00,0.0281
689.00,0.0297
688.00,0.0321
687.00,0.0354
686.00,0.0397
685.00,0.0446
684.00,0.0491
683.00,0.0519
682.00,0.0528
681.00,0.0521
680.00,0.0509
679.00,0.0496
678.00,0.0484
677.00,0.0470
676.00,0.0452
675.00,0.0431
674.00,0.0410
673.00,0.0390
672.00,0.0372
671.00,0.0357
670.00,0.0343
669.00,0.0328
668.00,0.0314
667.00,0.0302
666.00,0.0295
665.00,0.0291
664.00,0.0290
663.00,0.0289
662.00,0.0290
661.00,0.0292
660.00,0.0294
659.00,0.0298
658.00,0.0302
657.00,0.0308
656.00,0.0314
655.00,0.0321
654.00,0.0329
653.00,0.0338
652.00,0.0348
651.00,0.0358
650.00,0.0368
649.00,0.0377
648.00,0.0383
647.00,0.0387
646.00,0.0387
645.00,0.0383
644.00,0.0375
643.00,0.0364
642.00,0.0348
641.00,0.0331
640.00,0.0311
639.00,0.0292
638.00,0.0275
637.00,0.0261
636.00,0.0249
635.00,0.0239
634.00,0.0232
633.00,0.0228
632.00,0.0226
631.00,0.0227
630.00,0.0230
629.00,0.0235
628.00,0.0242
627.00,0.0251
626.00,0.0262
625.00,0.0274
624.00,0.0287
623.00,0.0301
622.00,0.0315
621.00,0.0330
620.00,0.0348
619.00,0.0366
618.00,0.0386
617.00,0.0405
616.00,0.0422
615.00,0.0437
614.00,0.0447
613.00,0.0449
612.00,0.0442
611.00,0.0428
610.00,0.0414
609.00,0.0405
608.00,0.0402
607.00,0.0399
606.00,0.0391
605.00,0.0380
604.00,0.0368
603.00,0.0358
602.00,0.0353
601.00,0.0356
600.00,0.0366
599.00,0.0381
598.00,0.0395
597.00,0.0400
596.00,0.0396
595.00,0.0384
594.00,0.0369
593.00,0.0353
592.00,0.0337
591.00,0.0322
590.00,0.0308
589.00,0.0297
588.00,0.0290
587.00,0.0291
586.00,0.0300
585.00,0.0317
584.00,0.0339
583.00,0.0363
582.00,0.0384
581.00,0.0397
580.00,0.0402
579.00,0.0400
578.00,0.0392
577.00,0.0382
576.00,0.0372
575.00,0.0364
574.00,0.0357
573.00,0.0352
572.00,0.0348
571.00,0.0344
570.00,0.0339
569.00,0.0333
568.00,0.0329
567.00,0.0325
566.00,0.0321
565.00,0.0319
564.00,0.0318
563.00,0.0317
562.00,0.0315
561.00,0.0311
560.00,0.0305
559.00,0.0299
558.00,0.0291
557.00,0.0283
556.00,0.0275
555.00,0.0269
554.00,0.0264
553.00,0.0259
552.00,0.0255
551.00,0.0251
550.00,0.0247
549.00,0.0243
548.00,0.0240
547.00,0.0238
546.00,0.0237
545.00,0.0235
544.00,0.0233
543.00,0.0231
542.00,0.0229
541.00,0.0227
540.00,0.0225
539.00,0.0223
538.00,0.0221
537.00,0.0220
536.00,0.0219
535.00,0.0218
534.00,0.0217
533.00,0.0216
532.00,0.0215
531.00,0.0213
530.00,0.0211
529.00,0.0210
528.00,0.0209
527.00,0.0209
526.00,0.0207
525.00,0.0205
524.00,0.0203
523.00,0.0201
522.00,0.0199
521.00,0.0198
520.00,0.0197
519.00,0.0197
518.00,0.0198
517.00,0.0197
516.00,0.0197
515.00,0.0197
514.00,0.0199
513.00,0.0203
512.00,0.0208
511.00,0.0212
510.00,0.0215
509.00,0.0216
508.00,0.0216
507.00,0.0215
506.00,0.0213
505.00,0.0211
504.00,0.0209
503.00,0.0206
502.00,0.0203
501.00,0.0199
500.00,0.0194
499.00,0.0189
498.00,0.0186
497.00,0.0185
496.00,0.0185
495.00,0.0185
494.00,0.0183
493.00,0.0180
492.00,0.0178
491.00,0.0178
490.00,0.0179
489.00,0.0181
488.00,0.0181
487.00,0.0180
486.00,0.0181
485.00,0.0182
484.00,0.0184
483.00,0.0186
482.00,0.0187
481.00,0.0187
480.00,0.0187
479.00,0.0188
478.00,0.0191
477.00,0.0194
476.00,0.0196
475.00,0.0197
474.00,0.0198
473.00,0.0200
472.00,0.0203
471.00,0.0205
470.00,0.0208
469.00,0.0209
468.00,0.0210
467.00,0.0209
466.00,0.0208
465.00,0.0206
464.00,0.0203
463.00,0.0201
462.00,0.0199
461.00,0.0196
460.00,0.0193
459.00,0.0190
458.00,0.0187
457.00,0.0187
456.00,0.0190
455.00,0.0195
454.00,0.0201
453.00,0.0207
452.00,0.0210
451.00,0.0213
450.00,0.0215
449.00,0.0217
448.00,0.0216
447.00,0.0211
446.00,0.0204
445.00,0.0196
444.00,0.0191
443.00,0.0189
442.00,0.0188
441.00,0.0187
440.00,0.0185
439.00,0.0183
438.00,0.0181
437.00,0.0179
436.00,0.0176
435.00,0.0175
434.00,0.0176
433.00,0.0178
432.00,0.0178
431.00,0.0177
430.00,0.0176
429.00,0.0175
428.00,0.0176
427.00,0.0176
426.00,0.0176
425.00,0.0176
424.00,0.0174
423.00,0.0174
422.00,0.0173
421.00,0.0174
420.00,0.0179
419.00,0.0190
418.00,0.0203
417.00,0.0213
416.00,0.0219
415.00,0.0226
414.00,0.0235
413.00,0.0246
412.00,0.0258
411.00,0.0273
410.00,0.0289
409.00,0.0304
408.00,0.0315
407.00,0.0320
406.00,0.0319
405.00,0.0315
404.00,0.0308
403.00,0.0302
402.00,0.0295
401.00,0.0288
400.00,0.0284
