Created as New Dataset,Sample 901 By YargerLab Date Wednesday, July 23 2025
cm-1,A
4000.00,0.0016
3999.00,0.0015
3998.00,0.0015
3997.00,0.0015
3996.00,0.0015
3995.00,0.0015
3994.00,0.0015
3993.00,0.0015
3992.00,0.0015
3991.00,0.0015
3990.00,0.0016
3989.00,0.0016
3988.00,0.0016
3987.00,0.0016
3986.00,0.0016
3985.00,0.0016
3984.00,0.0016
3983.00,0.0016
3982.00,0.0016
3981.00,0.0016
3980.00,0.0015
3979.00,0.0015
3978.00,0.0015
3977.00,0.0015
3976.00,0.0015
3975.00,0.0015
3974.00,0.0015
3973.00,0.0015
3972.00,0.0015
3971.00,0.0016
3970.00,0.0016
3969.00,0.0016
3968.00,0.0016
3967.00,0.0016
3966.00,0.0016
3965.00,0.0016
3964.00,0.0016
3963.00,0.0016
3962.00,0.0016
3961.00,0.0016
3960.00,0.0016
3959.00,0.0016
3958.00,0.0016
3957.00,0.0016
3956.00,0.0016
3955.00,0.0016
3954.00,0.0015
3953.00,0.0015
3952.00,0.0015
3951.00,0.0015
3950.00,0.0015
3949.00,0.0015
3948.00,0.0014
3947.00,0.0014
3946.00,0.0014
3945.00,0.0014
3944.00,0.0014
3943.00,0.0015
3942.00,0.0015
3941.00,0.0015
3940.00,0.0015
3939.00,0.0015
3938.00,0.0015
3937.00,0.0015
3936.00,0.0014
3935.00,0.0014
3934.00,0.0014
3933.00,0.0013
3932.00,0.0013
3931.00,0.0014
3930.00,0.0014
3929.00,0.0014
3928.00,0.0014
3927.00,0.0014
3926.00,0.0014
3925.00,0.0014
3924.00,0.0014
3923.00,0.0014
3922.00,0.0013
3921.00,0.0013
3920.00,0.0013
3919.00,0.0013
3918.00,0.0013
3917.00,0.0013
3916.00,0.0014
3915.00,0.0014
3914.00,0.0015
3913.00,0.0015
3912.00,0.0015
3911.00,0.0015
3910.00,0.0015
3909.00,0.0015
3908.00,0.0014
3907.00,0.0014
3906.00,0.0014
3905.00,0.0013
3904.00,0.0012
3903.00,0.0010
3902.00,0.0010
3901.00,0.0009
3900.00,0.0010
3899.00,0.0011
3898.00,0.0012
3897.00,0.0013
3896.00,0.0013
3895.00,0.0013
3894.00,0.0013
3893.00,0.0013
3892.00,0.0014
3891.00,0.0014
3890.00,0.0014
3889.00,0.0013
3888.00,0.0012
3887.00,0.0012
3886.00,0.0012
3885.00,0.0012
3884.00,0.0012
3883.00,0.0012
3882.00,0.0012
3881.00,0.0012
3880.00,0.0012
3879.00,0.0013
3878.00,0.0013
3877.00,0.0012
3876.00,0.0012
3875.00,0.0013
3874.00,0.0013
3873.00,0.0013
3872.00,0.0012
3871.00,0.0011
3870.00,0.0010
3869.00,0.0011
3868.00,0.0011
3867.00,0.0011
3866.00,0.0010
3865.00,0.0010
3864.00,0.0011
3863.00,0.0011
3862.00,0.0011
3861.00,0.0010
3860.00,0.0010
3859.00,0.0011
3858.00,0.0012
3857.00,0.0013
3856.00,0.0013
3855.00,0.0013
3854.00,0.0012
3853.00,0.0012
3852.00,0.0011
3851.00,0.0011
3850.00,0.0011
3849.00,0.0011
3848.00,0.0011
3847.00,0.0011
3846.00,0.0012
3845.00,0.0012
3844.00,0.0011
3843.00,0.0011
3842.00,0.0011
3841.00,0.0011
3840.00,0.0011
3839.00,0.0011
3838.00,0.0011
3837.00,0.0011
3836.00,0.0011
3835.00,0.0011
3834.00,0.0011
3833.00,0.0011
3832.00,0.0011
3831.00,0.0012
3830.00,0.0012
3829.00,0.0012
3828.00,0.0012
3827.00,0.0012
3826.00,0.0013
3825.00,0.0012
3824.00,0.0012
3823.00,0.0010
3822.00,0.0010
3821.00,0.0011
3820.00,0.0011
3819.00,0.0011
3818.00,0.0011
3817.00,0.0010
3816.00,0.0011
3815.00,0.0012
3814.00,0.0013
3813.00,0.0013
3812.00,0.0013
3811.00,0.0013
3810.00,0.0014
3809.00,0.0013
3808.00,0.0013
3807.00,0.0012
3806.00,0.0012
3805.00,0.0012
3804.00,0.0011
3803.00,0.0010
3802.00,0.0010
3801.00,0.0011
3800.00,0.0011
3799.00,0.0011
3798.00,0.0011
3797.00,0.0011
3796.00,0.0012
3795.00,0.0012
3794.00,0.0013
3793.00,0.0014
3792.00,0.0014
3791.00,0.0015
3790.00,0.0015
3789.00,0.0015
3788.00,0.0015
3787.00,0.0015
3786.00,0.0015
3785.00,0.0015
3784.00,0.0015
3783.00,0.0014
3782.00,0.0014
3781.00,0.0014
3780.00,0.0014
3779.00,0.0014
3778.00,0.0015
3777.00,0.0015
3776.00,0.0015
3775.00,0.0015
3774.00,0.0015
3773.00,0.0014
3772.00,0.0014
3771.00,0.0014
3770.00,0.0013
3769.00,0.0013
3768.00,0.0013
3767.00,0.0013
3766.00,0.0012
3765.00,0.0012
3764.00,0.0012
3763.00,0.0012
3762.00,0.0012
3761.00,0.0012
3760.00,0.0012
3759.00,0.0012
3758.00,0.0011
3757.00,0.0011
3756.00,0.0011
3755.00,0.0011
3754.00,0.0010
3753.00,0.0010
3752.00,0.0009
3751.00,0.0009
3750.00,0.0008
3749.00,0.0007
3748.00,0.0007
3747.00,0.0008
3746.00,0.0007
3745.00,0.0007
3744.00,0.0008
3743.00,0.0009
3742.00,0.0009
3741.00,0.0008
3740.00,0.0007
3739.00,0.0007
3738.00,0.0006
3737.00,0.0006
3736.00,0.0006
3735.00,0.0007
3734.00,0.0007
3733.00,0.0007
3732.00,0.0008
3731.00,0.0008
3730.00,0.0009
3729.00,0.0010
3728.00,0.0010
3727.00,0.0010
3726.00,0.0010
3725.00,0.0011
3724.00,0.0011
3723.00,0.0011
3722.00,0.0011
3721.00,0.0011
3720.00,0.0012
3719.00,0.0012
3718.00,0.0012
3717.00,0.0012
3716.00,0.0012
3715.00,0.0012
3714.00,0.0011
3713.00,0.0010
3712.00,0.0010
3711.00,0.0010
3710.00,0.0010
3709.00,0.0010
3708.00,0.0010
3707.00,0.0011
3706.00,0.0011
3705.00,0.0012
3704.00,0.0012
3703.00,0.0013
3702.00,0.0013
3701.00,0.0013
3700.00,0.0013
3699.00,0.0013
3698.00,0.0013
3697.00,0.0013
3696.00,0.0013
3695.00,0.0013
3694.00,0.0013
3693.00,0.0013
3692.00,0.0013
3691.00,0.0013
3690.00,0.0012
3689.00,0.0012
3688.00,0.0011
3687.00,0.0011
3686.00,0.0011
3685.00,0.0012
3684.00,0.0012
3683.00,0.0012
3682.00,0.0012
3681.00,0.0012
3680.00,0.0012
3679.00,0.0012
3678.00,0.0011
3677.00,0.0009
3676.00,0.0008
3675.00,0.0008
3674.00,0.0008
3673.00,0.0008
3672.00,0.0008
3671.00,0.0008
3670.00,0.0009
3669.00,0.0010
3668.00,0.0011
3667.00,0.0012
3666.00,0.0012
3665.00,0.0013
3664.00,0.0014
3663.00,0.0014
3662.00,0.0014
3661.00,0.0015
3660.00,0.0015
3659.00,0.0015
3658.00,0.0014
3657.00,0.0014
3656.00,0.0014
3655.00,0.0013
3654.00,0.0013
3653.00,0.0012
3652.00,0.0011
3651.00,0.0010
3650.00,0.0010
3649.00,0.0011
3648.00,0.0011
3647.00,0.0011
3646.00,0.0012
3645.00,0.0013
3644.00,0.0014
3643.00,0.0015
3642.00,0.0017
3641.00,0.0018
3640.00,0.0019
3639.00,0.0019
3638.00,0.0019
3637.00,0.0019
3636.00,0.0019
3635.00,0.0020
3634.00,0.0020
3633.00,0.0020
3632.00,0.0020
3631.00,0.0020
3630.00,0.0019
3629.00,0.0019
3628.00,0.0019
3627.00,0.0019
3626.00,0.0020
3625.00,0.0020
3624.00,0.0021
3623.00,0.0022
3622.00,0.0022
3621.00,0.0023
3620.00,0.0023
3619.00,0.0024
3618.00,0.0023
3617.00,0.0023
3616.00,0.0023
3615.00,0.0023
3614.00,0.0023
3613.00,0.0024
3612.00,0.0025
3611.00,0.0025
3610.00,0.0025
3609.00,0.0025
3608.00,0.0026
3607.00,0.0027
3606.00,0.0028
3605.00,0.0029
3604.00,0.0030
3603.00,0.0031
3602.00,0.0031
3601.00,0.0032
3600.00,0.0032
3599.00,0.0032
3598.00,0.0032
3597.00,0.0032
3596.00,0.0032
3595.00,0.0033
3594.00,0.0033
3593.00,0.0034
3592.00,0.0034
3591.00,0.0035
3590.00,0.0035
3589.00,0.0035
3588.00,0.0036
3587.00,0.0036
3586.00,0.0037
3585.00,0.0037
3584.00,0.0038
3583.00,0.0039
3582.00,0.0040
3581.00,0.0041
3580.00,0.0042
3579.00,0.0042
3578.00,0.0043
3577.00,0.0043
3576.00,0.0044
3575.00,0.0044
3574.00,0.0045
3573.00,0.0045
3572.00,0.0045
3571.00,0.0045
3570.00,0.0045
3569.00,0.0045
3568.00,0.0045
3567.00,0.0045
3566.00,0.0046
3565.00,0.0046
3564.00,0.0047
3563.00,0.0048
3562.00,0.0049
3561.00,0.0051
3560.00,0.0052
3559.00,0.0052
3558.00,0.0053
3557.00,0.0054
3556.00,0.0054
3555.00,0.0055
3554.00,0.0056
3553.00,0.0056
3552.00,0.0057
3551.00,0.0057
3550.00,0.0057
3549.00,0.0057
3548.00,0.0057
3547.00,0.0057
3546.00,0.0058
3545.00,0.0059
3544.00,0.0060
3543.00,0.0060
3542.00,0.0061
3541.00,0.0062
3540.00,0.0063
3539.00,0.0064
3538.00,0.0064
3537.00,0.0065
3536.00,0.0065
3535.00,0.0066
3534.00,0.0066
3533.00,0.0066
3532.00,0.0066
3531.00,0.0066
3530.00,0.0067
3529.00,0.0067
3528.00,0.0067
3527.00,0.0068
3526.00,0.0068
3525.00,0.0069
3524.00,0.0069
3523.00,0.0070
3522.00,0.0070
3521.00,0.0071
3520.00,0.0072
3519.00,0.0072
3518.00,0.0073
3517.00,0.0074
3516.00,0.0074
3515.00,0.0075
3514.00,0.0076
3513.00,0.0076
3512.00,0.0077
3511.00,0.0077
3510.00,0.0077
3509.00,0.0078
3508.00,0.0078
3507.00,0.0079
3506.00,0.0079
3505.00,0.0080
3504.00,0.0081
3503.00,0.0081
3502.00,0.0081
3501.00,0.0082
3500.00,0.0082
3499.00,0.0083
3498.00,0.0083
3497.00,0.0084
3496.00,0.0085
3495.00,0.0086
3494.00,0.0086
3493.00,0.0087
3492.00,0.0088
3491.00,0.0088
3490.00,0.0089
3489.00,0.0089
3488.00,0.0089
3487.00,0.0090
3486.00,0.0091
3485.00,0.0091
3484.00,0.0092
3483.00,0.0092
3482.00,0.0093
3481.00,0.0093
3480.00,0.0094
3479.00,0.0094
3478.00,0.0095
3477.00,0.0096
3476.00,0.0096
3475.00,0.0097
3474.00,0.0097
3473.00,0.0098
3472.00,0.0099
3471.00,0.0099
3470.00,0.0100
3469.00,0.0100
3468.00,0.0101
3467.00,0.0101
3466.00,0.0101
3465.00,0.0101
3464.00,0.0102
3463.00,0.0102
3462.00,0.0103
3461.00,0.0103
3460.00,0.0104
3459.00,0.0104
3458.00,0.0105
3457.00,0.0105
3456.00,0.0106
3455.00,0.0106
3454.00,0.0106
3453.00,0.0107
3452.00,0.0107
3451.00,0.0108
3450.00,0.0108
3449.00,0.0109
3448.00,0.0109
3447.00,0.0109
3446.00,0.0109
3445.00,0.0110
3444.00,0.0110
3443.00,0.0111
3442.00,0.0111
3441.00,0.0112
3440.00,0.0112
3439.00,0.0112
3438.00,0.0113
3437.00,0.0113
3436.00,0.0113
3435.00,0.0114
3434.00,0.0114
3433.00,0.0114
3432.00,0.0115
3431.00,0.0115
3430.00,0.0116
3429.00,0.0116
3428.00,0.0116
3427.00,0.0117
3426.00,0.0117
3425.00,0.0117
3424.00,0.0118
3423.00,0.0118
3422.00,0.0118
3421.00,0.0119
3420.00,0.0119
3419.00,0.0119
3418.00,0.0120
3417.00,0.0120
3416.00,0.0121
3415.00,0.0121
3414.00,0.0121
3413.00,0.0121
3412.00,0.0122
3411.00,0.0122
3410.00,0.0122
3409.00,0.0123
3408.00,0.0123
3407.00,0.0123
3406.00,0.0123
3405.00,0.0123
3404.00,0.0124
3403.00,0.0124
3402.00,0.0124
3401.00,0.0125
3400.00,0.0125
3399.00,0.0126
3398.00,0.0126
3397.00,0.0127
3396.00,0.0127
3395.00,0.0127
3394.00,0.0127
3393.00,0.0128
3392.00,0.0128
3391.00,0.0129
3390.00,0.0129
3389.00,0.0129
3388.00,0.0130
3387.00,0.0130
3386.00,0.0131
3385.00,0.0131
3384.00,0.0132
3383.00,0.0132
3382.00,0.0132
3381.00,0.0133
3380.00,0.0133
3379.00,0.0134
3378.00,0.0134
3377.00,0.0135
3376.00,0.0136
3375.00,0.0136
3374.00,0.0136
3373.00,0.0136
3372.00,0.0137
3371.00,0.0137
3370.00,0.0137
3369.00,0.0138
3368.00,0.0138
3367.00,0.0139
3366.00,0.0140
3365.00,0.0140
3364.00,0.0141
3363.00,0.0142
3362.00,0.0143
3361.00,0.0143
3360.00,0.0144
3359.00,0.0145
3358.00,0.0145
3357.00,0.0146
3356.00,0.0147
3355.00,0.0148
3354.00,0.0148
3353.00,0.0148
3352.00,0.0148
3351.00,0.0148
3350.00,0.0149
3349.00,0.0150
3348.00,0.0150
3347.00,0.0151
3346.00,0.0151
3345.00,0.0152
3344.00,0.0152
3343.00,0.0152
3342.00,0.0153
3341.00,0.0153
3340.00,0.0153
3339.00,0.0154
3338.00,0.0154
3337.00,0.0155
3336.00,0.0156
3335.00,0.0157
3334.00,0.0158
3333.00,0.0159
3332.00,0.0159
3331.00,0.0160
3330.00,0.0160
3329.00,0.0160
3328.00,0.0160
3327.00,0.0160
3326.00,0.0160
3325.00,0.0160
3324.00,0.0161
3323.00,0.0162
3322.00,0.0162
3321.00,0.0163
3320.00,0.0163
3319.00,0.0164
3318.00,0.0164
3317.00,0.0165
3316.00,0.0165
3315.00,0.0166
3314.00,0.0166
3313.00,0.0167
3312.00,0.0166
3311.00,0.0166
3310.00,0.0166
3309.00,0.0167
3308.00,0.0167
3307.00,0.0168
3306.00,0.0168
3305.00,0.0169
3304.00,0.0170
3303.00,0.0171
3302.00,0.0172
3301.00,0.0173
3300.00,0.0173
3299.00,0.0173
3298.00,0.0173
3297.00,0.0173
3296.00,0.0173
3295.00,0.0173
3294.00,0.0174
3293.00,0.0174
3292.00,0.0175
3291.00,0.0175
3290.00,0.0176
3289.00,0.0176
3288.00,0.0177
3287.00,0.0177
3286.00,0.0177
3285.00,0.0177
3284.00,0.0177
3283.00,0.0177
3282.00,0.0177
3281.00,0.0177
3280.00,0.0177
3279.00,0.0177
3278.00,0.0177
3277.00,0.0177
3276.00,0.0177
3275.00,0.0176
3274.00,0.0176
3273.00,0.0175
3272.00,0.0175
3271.00,0.0174
3270.00,0.0174
3269.00,0.0174
3268.00,0.0175
3267.00,0.0175
3266.00,0.0175
3265.00,0.0174
3264.00,0.0174
3263.00,0.0173
3262.00,0.0172
3261.00,0.0171
3260.00,0.0171
3259.00,0.0170
3258.00,0.0169
3257.00,0.0169
3256.00,0.0168
3255.00,0.0167
3254.00,0.0166
3253.00,0.0166
3252.00,0.0165
3251.00,0.0164
3250.00,0.0163
3249.00,0.0163
3248.00,0.0162
3247.00,0.0161
3246.00,0.0161
3245.00,0.0160
3244.00,0.0160
3243.00,0.0159
3242.00,0.0159
3241.00,0.0158
3240.00,0.0158
3239.00,0.0157
3238.00,0.0157
3237.00,0.0156
3236.00,0.0155
3235.00,0.0155
3234.00,0.0154
3233.00,0.0153
3232.00,0.0153
3231.00,0.0153
3230.00,0.0152
3229.00,0.0152
3228.00,0.0152
3227.00,0.0152
3226.00,0.0151
3225.00,0.0151
3224.00,0.0151
3223.00,0.0150
3222.00,0.0150
3221.00,0.0150
3220.00,0.0149
3219.00,0.0149
3218.00,0.0148
3217.00,0.0148
3216.00,0.0148
3215.00,0.0147
3214.00,0.0147
3213.00,0.0146
3212.00,0.0146
3211.00,0.0145
3210.00,0.0145
3209.00,0.0145
3208.00,0.0145
3207.00,0.0144
3206.00,0.0144
3205.00,0.0144
3204.00,0.0144
3203.00,0.0143
3202.00,0.0143
3201.00,0.0142
3200.00,0.0142
3199.00,0.0142
3198.00,0.0141
3197.00,0.0141
3196.00,0.0140
3195.00,0.0140
3194.00,0.0139
3193.00,0.0139
3192.00,0.0138
3191.00,0.0138
3190.00,0.0137
3189.00,0.0137
3188.00,0.0136
3187.00,0.0136
3186.00,0.0136
3185.00,0.0135
3184.00,0.0134
3183.00,0.0134
3182.00,0.0133
3181.00,0.0132
3180.00,0.0132
3179.00,0.0131
3178.00,0.0130
3177.00,0.0130
3176.00,0.0129
3175.00,0.0129
3174.00,0.0129
3173.00,0.0128
3172.00,0.0128
3171.00,0.0128
3170.00,0.0127
3169.00,0.0127
3168.00,0.0126
3167.00,0.0125
3166.00,0.0125
3165.00,0.0124
3164.00,0.0123
3163.00,0.0123
3162.00,0.0122
3161.00,0.0122
3160.00,0.0121
3159.00,0.0120
3158.00,0.0120
3157.00,0.0119
3156.00,0.0118
3155.00,0.0118
3154.00,0.0117
3153.00,0.0117
3152.00,0.0116
3151.00,0.0116
3150.00,0.0115
3149.00,0.0115
3148.00,0.0114
3147.00,0.0114
3146.00,0.0113
3145.00,0.0113
3144.00,0.0112
3143.00,0.0112
3142.00,0.0112
3141.00,0.0111
3140.00,0.0111
3139.00,0.0110
3138.00,0.0110
3137.00,0.0109
3136.00,0.0109
3135.00,0.0109
3134.00,0.0108
3133.00,0.0108
3132.00,0.0107
3131.00,0.0107
3130.00,0.0107
3129.00,0.0106
3128.00,0.0106
3127.00,0.0106
3126.00,0.0105
3125.00,0.0105
3124.00,0.0105
3123.00,0.0105
3122.00,0.0104
3121.00,0.0104
3120.00,0.0104
3119.00,0.0104
3118.00,0.0103
3117.00,0.0103
3116.00,0.0102
3115.00,0.0102
3114.00,0.0102
3113.00,0.0102
3112.00,0.0102
3111.00,0.0102
3110.00,0.0102
3109.00,0.0102
3108.00,0.0102
3107.00,0.0102
3106.00,0.0102
3105.00,0.0102
3104.00,0.0102
3103.00,0.0102
3102.00,0.0102
3101.00,0.0102
3100.00,0.0102
3099.00,0.0102
3098.00,0.0102
3097.00,0.0102
3096.00,0.0102
3095.00,0.0102
3094.00,0.0102
3093.00,0.0102
3092.00,0.0102
3091.00,0.0102
3090.00,0.0102
3089.00,0.0102
3088.00,0.0102
3087.00,0.0102
3086.00,0.0102
3085.00,0.0102
3084.00,0.0101
3083.00,0.0101
3082.00,0.0101
3081.00,0.0101
3080.00,0.0100
3079.00,0.0100
3078.00,0.0101
3077.00,0.0101
3076.00,0.0101
3075.00,0.0102
3074.00,0.0102
3073.00,0.0102
3072.00,0.0102
3071.00,0.0102
3070.00,0.0101
3069.00,0.0101
3068.00,0.0101
3067.00,0.0101
3066.00,0.0101
3065.00,0.0101
3064.00,0.0101
3063.00,0.0101
3062.00,0.0101
3061.00,0.0100
3060.00,0.0100
3059.00,0.0100
3058.00,0.0100
3057.00,0.0100
3056.00,0.0099
3055.00,0.0099
3054.00,0.0099
3053.00,0.0099
3052.00,0.0098
3051.00,0.0098
3050.00,0.0097
3049.00,0.0097
3048.00,0.0097
3047.00,0.0096
3046.00,0.0096
3045.00,0.0095
3044.00,0.0095
3043.00,0.0094
3042.00,0.0094
3041.00,0.0093
3040.00,0.0093
3039.00,0.0093
3038.00,0.0093
3037.00,0.0093
3036.00,0.0092
3035.00,0.0092
3034.00,0.0091
3033.00,0.0091
3032.00,0.0091
3031.00,0.0091
3030.00,0.0091
3029.00,0.0091
3028.00,0.0091
3027.00,0.0090
3026.00,0.0089
3025.00,0.0089
3024.00,0.0089
3023.00,0.0089
3022.00,0.0088
3021.00,0.0088
3020.00,0.0087
3019.00,0.0087
3018.00,0.0086
3017.00,0.0086
3016.00,0.0085
3015.00,0.0085
3014.00,0.0084
3013.00,0.0084
3012.00,0.0083
3011.00,0.0083
3010.00,0.0083
3009.00,0.0082
3008.00,0.0082
3007.00,0.0082
3006.00,0.0081
3005.00,0.0081
3004.00,0.0080
3003.00,0.0080
3002.00,0.0080
3001.00,0.0079
3000.00,0.0079
2999.00,0.0079
2998.00,0.0079
2997.00,0.0079
2996.00,0.0079
2995.00,0.0080
2994.00,0.0080
2993.00,0.0080
2992.00,0.0081
2991.00,0.0082
2990.00,0.0082
2989.00,0.0083
2988.00,0.0084
2987.00,0.0085
2986.00,0.0085
2985.00,0.0084
2984.00,0.0083
2983.00,0.0081
2982.00,0.0081
2981.00,0.0081
2980.00,0.0083
2979.00,0.0085
2978.00,0.0088
2977.00,0.0091
2976.00,0.0093
2975.00,0.0094
2974.00,0.0096
2973.00,0.0097
2972.00,0.0097
2971.00,0.0099
2970.00,0.0100
2969.00,0.0102
2968.00,0.0104
2967.00,0.0105
2966.00,0.0107
2965.00,0.0108
2964.00,0.0109
2963.00,0.0110
2962.00,0.0111
2961.00,0.0111
2960.00,0.0112
2959.00,0.0112
2958.00,0.0113
2957.00,0.0113
2956.00,0.0113
2955.00,0.0113
2954.00,0.0114
2953.00,0.0114
2952.00,0.0114
2951.00,0.0115
2950.00,0.0115
2949.00,0.0115
2948.00,0.0115
2947.00,0.0115
2946.00,0.0115
2945.00,0.0115
2944.00,0.0116
2943.00,0.0116
2942.00,0.0116
2941.00,0.0116
2940.00,0.0117
2939.00,0.0116
2938.00,0.0116
2937.00,0.0116
2936.00,0.0116
2935.00,0.0115
2934.00,0.0115
2933.00,0.0114
2932.00,0.0114
2931.00,0.0114
2930.00,0.0113
2929.00,0.0113
2928.00,0.0113
2927.00,0.0113
2926.00,0.0113
2925.00,0.0113
2924.00,0.0113
2923.00,0.0113
2922.00,0.0113
2921.00,0.0113
2920.00,0.0112
2919.00,0.0112
2918.00,0.0111
2917.00,0.0111
2916.00,0.0110
2915.00,0.0110
2914.00,0.0109
2913.00,0.0108
2912.00,0.0107
2911.00,0.0106
2910.00,0.0105
2909.00,0.0104
2908.00,0.0104
2907.00,0.0103
2906.00,0.0102
2905.00,0.0102
2904.00,0.0101
2903.00,0.0101
2902.00,0.0100
2901.00,0.0100
2900.00,0.0100
2899.00,0.0099
2898.00,0.0099
2897.00,0.0098
2896.00,0.0098
2895.00,0.0097
2894.00,0.0097
2893.00,0.0097
2892.00,0.0097
2891.00,0.0097
2890.00,0.0096
2889.00,0.0096
2888.00,0.0096
2887.00,0.0097
2886.00,0.0097
2885.00,0.0097
2884.00,0.0097
2883.00,0.0098
2882.00,0.0098
2881.00,0.0099
2880.00,0.0100
2879.00,0.0100
2878.00,0.0100
2877.00,0.0101
2876.00,0.0101
2875.00,0.0101
2874.00,0.0100
2873.00,0.0100
2872.00,0.0099
2871.00,0.0098
2870.00,0.0098
2869.00,0.0097
2868.00,0.0096
2867.00,0.0095
2866.00,0.0094
2865.00,0.0094
2864.00,0.0093
2863.00,0.0092
2862.00,0.0091
2861.00,0.0090
2860.00,0.0089
2859.00,0.0088
2858.00,0.0088
2857.00,0.0087
2856.00,0.0086
2855.00,0.0086
2854.00,0.0085
2853.00,0.0085
2852.00,0.0084
2851.00,0.0084
2850.00,0.0083
2849.00,0.0083
2848.00,0.0082
2847.00,0.0082
2846.00,0.0081
2845.00,0.0081
2844.00,0.0080
2843.00,0.0079
2842.00,0.0078
2841.00,0.0078
2840.00,0.0077
2839.00,0.0076
2838.00,0.0076
2837.00,0.0075
2836.00,0.0075
2835.00,0.0075
2834.00,0.0074
2833.00,0.0074
2832.00,0.0073
2831.00,0.0073
2830.00,0.0072
2829.00,0.0072
2828.00,0.0072
2827.00,0.0071
2826.00,0.0070
2825.00,0.0070
2824.00,0.0070
2823.00,0.0069
2822.00,0.0069
2821.00,0.0069
2820.00,0.0068
2819.00,0.0068
2818.00,0.0068
2817.00,0.0067
2816.00,0.0067
2815.00,0.0067
2814.00,0.0067
2813.00,0.0066
2812.00,0.0066
2811.00,0.0066
2810.00,0.0065
2809.00,0.0065
2808.00,0.0065
2807.00,0.0064
2806.00,0.0064
2805.00,0.0064
2804.00,0.0064
2803.00,0.0064
2802.00,0.0064
2801.00,0.0063
2800.00,0.0063
2799.00,0.0063
2798.00,0.0063
2797.00,0.0062
2796.00,0.0062
2795.00,0.0062
2794.00,0.0062
2793.00,0.0062
2792.00,0.0062
2791.00,0.0061
2790.00,0.0061
2789.00,0.0061
2788.00,0.0061
2787.00,0.0061
2786.00,0.0061
2785.00,0.0061
2784.00,0.0060
2783.00,0.0060
2782.00,0.0060
2781.00,0.0060
2780.00,0.0060
2779.00,0.0060
2778.00,0.0059
2777.00,0.0059
2776.00,0.0059
2775.00,0.0058
2774.00,0.0058
2773.00,0.0058
2772.00,0.0058
2771.00,0.0058
2770.00,0.0057
2769.00,0.0057
2768.00,0.0057
2767.00,0.0057
2766.00,0.0057
2765.00,0.0057
2764.00,0.0057
2763.00,0.0057
2762.00,0.0056
2761.00,0.0056
2760.00,0.0056
2759.00,0.0056
2758.00,0.0056
2757.00,0.0055
2756.00,0.0055
2755.00,0.0055
2754.00,0.0056
2753.00,0.0056
2752.00,0.0055
2751.00,0.0055
2750.00,0.0055
2749.00,0.0055
2748.00,0.0055
2747.00,0.0055
2746.00,0.0055
2745.00,0.0055
2744.00,0.0054
2743.00,0.0054
2742.00,0.0054
2741.00,0.0054
2740.00,0.0054
2739.00,0.0053
2738.00,0.0053
2737.00,0.0053
2736.00,0.0053
2735.00,0.0053
2734.00,0.0053
2733.00,0.0053
2732.00,0.0053
2731.00,0.0053
2730.00,0.0052
2729.00,0.0052
2728.00,0.0052
2727.00,0.0052
2726.00,0.0051
2725.00,0.0051
2724.00,0.0051
2723.00,0.0051
2722.00,0.0051
2721.00,0.0051
2720.00,0.0051
2719.00,0.0051
2718.00,0.0051
2717.00,0.0051
2716.00,0.0051
2715.00,0.0051
2714.00,0.0051
2713.00,0.0050
2712.00,0.0050
2711.00,0.0050
2710.00,0.0050
2709.00,0.0049
2708.00,0.0049
2707.00,0.0049
2706.00,0.0049
2705.00,0.0049
2704.00,0.0049
2703.00,0.0049
2702.00,0.0048
2701.00,0.0048
2700.00,0.0048
2699.00,0.0048
2698.00,0.0048
2697.00,0.0048
2696.00,0.0048
2695.00,0.0048
2694.00,0.0048
2693.00,0.0048
2692.00,0.0048
2691.00,0.0048
2690.00,0.0048
2689.00,0.0047
2688.00,0.0047
2687.00,0.0047
2686.00,0.0047
2685.00,0.0047
2684.00,0.0047
2683.00,0.0047
2682.00,0.0047
2681.00,0.0047
2680.00,0.0046
2679.00,0.0046
2678.00,0.0047
2677.00,0.0046
2676.00,0.0046
2675.00,0.0046
2674.00,0.0046
2673.00,0.0046
2672.00,0.0046
2671.00,0.0046
2670.00,0.0046
2669.00,0.0046
2668.00,0.0046
2667.00,0.0046
2666.00,0.0047
2665.00,0.0047
2664.00,0.0047
2663.00,0.0048
2662.00,0.0048
2661.00,0.0049
2660.00,0.0049
2659.00,0.0049
2658.00,0.0049
2657.00,0.0049
2656.00,0.0050
2655.00,0.0050
2654.00,0.0050
2653.00,0.0050
2652.00,0.0050
2651.00,0.0050
2650.00,0.0050
2649.00,0.0050
2648.00,0.0050
2647.00,0.0050
2646.00,0.0049
2645.00,0.0049
2644.00,0.0049
2643.00,0.0049
2642.00,0.0049
2641.00,0.0049
2640.00,0.0049
2639.00,0.0049
2638.00,0.0049
2637.00,0.0049
2636.00,0.0049
2635.00,0.0048
2634.00,0.0048
2633.00,0.0048
2632.00,0.0048
2631.00,0.0048
2630.00,0.0048
2629.00,0.0047
2628.00,0.0047
2627.00,0.0047
2626.00,0.0047
2625.00,0.0048
2624.00,0.0047
2623.00,0.0047
2622.00,0.0047
2621.00,0.0047
2620.00,0.0047
2619.00,0.0047
2618.00,0.0047
2617.00,0.0047
2616.00,0.0047
2615.00,0.0046
2614.00,0.0046
2613.00,0.0046
2612.00,0.0046
2611.00,0.0046
2610.00,0.0046
2609.00,0.0046
2608.00,0.0046
2607.00,0.0046
2606.00,0.0045
2605.00,0.0045
2604.00,0.0045
2603.00,0.0045
2602.00,0.0045
2601.00,0.0045
2600.00,0.0045
2599.00,0.0045
2598.00,0.0045
2597.00,0.0045
2596.00,0.0044
2595.00,0.0044
2594.00,0.0044
2593.00,0.0044
2592.00,0.0043
2591.00,0.0043
2590.00,0.0043
2589.00,0.0043
2588.00,0.0043
2587.00,0.0042
2586.00,0.0042
2585.00,0.0042
2584.00,0.0042
2583.00,0.0042
2582.00,0.0042
2581.00,0.0042
2580.00,0.0042
2579.00,0.0042
2578.00,0.0042
2577.00,0.0042
2576.00,0.0041
2575.00,0.0041
2574.00,0.0041
2573.00,0.0041
2572.00,0.0041
2571.00,0.0041
2570.00,0.0041
2569.00,0.0040
2568.00,0.0040
2567.00,0.0040
2566.00,0.0040
2565.00,0.0040
2564.00,0.0040
2563.00,0.0040
2562.00,0.0040
2561.00,0.0040
2560.00,0.0040
2559.00,0.0040
2558.00,0.0040
2557.00,0.0039
2556.00,0.0039
2555.00,0.0039
2554.00,0.0038
2553.00,0.0038
2552.00,0.0038
2551.00,0.0039
2550.00,0.0039
2549.00,0.0039
2548.00,0.0039
2547.00,0.0039
2546.00,0.0039
2545.00,0.0038
2544.00,0.0038
2543.00,0.0039
2542.00,0.0039
2541.00,0.0039
2540.00,0.0039
2539.00,0.0038
2538.00,0.0038
2537.00,0.0038
2536.00,0.0037
2535.00,0.0037
2534.00,0.0037
2533.00,0.0037
2532.00,0.0037
2531.00,0.0037
2530.00,0.0037
2529.00,0.0036
2528.00,0.0036
2527.00,0.0036
2526.00,0.0036
2525.00,0.0036
2524.00,0.0036
2523.00,0.0036
2522.00,0.0036
2521.00,0.0036
2520.00,0.0036
2519.00,0.0036
2518.00,0.0036
2517.00,0.0036
2516.00,0.0036
2515.00,0.0036
2514.00,0.0036
2513.00,0.0036
2512.00,0.0036
2511.00,0.0036
2510.00,0.0035
2509.00,0.0035
2508.00,0.0035
2507.00,0.0036
2506.00,0.0036
2505.00,0.0036
2504.00,0.0036
2503.00,0.0035
2502.00,0.0035
2501.00,0.0035
2500.00,0.0035
2499.00,0.0034
2498.00,0.0034
2497.00,0.0034
2496.00,0.0034
2495.00,0.0034
2494.00,0.0035
2493.00,0.0035
2492.00,0.0034
2491.00,0.0034
2490.00,0.0034
2489.00,0.0034
2488.00,0.0034
2487.00,0.0035
2486.00,0.0035
2485.00,0.0034
2484.00,0.0034
2483.00,0.0034
2482.00,0.0034
2481.00,0.0034
2480.00,0.0034
2479.00,0.0034
2478.00,0.0034
2477.00,0.0034
2476.00,0.0034
2475.00,0.0034
2474.00,0.0034
2473.00,0.0034
2472.00,0.0034
2471.00,0.0033
2470.00,0.0033
2469.00,0.0033
2468.00,0.0034
2467.00,0.0034
2466.00,0.0034
2465.00,0.0034
2464.00,0.0034
2463.00,0.0034
2462.00,0.0034
2461.00,0.0034
2460.00,0.0034
2459.00,0.0035
2458.00,0.0035
2457.00,0.0035
2456.00,0.0035
2455.00,0.0035
2454.00,0.0034
2453.00,0.0034
2452.00,0.0034
2451.00,0.0034
2450.00,0.0034
2449.00,0.0034
2448.00,0.0034
2447.00,0.0034
2446.00,0.0034
2445.00,0.0033
2444.00,0.0033
2443.00,0.0033
2442.00,0.0032
2441.00,0.0032
2440.00,0.0032
2439.00,0.0032
2438.00,0.0032
2437.00,0.0032
2436.00,0.0032
2435.00,0.0032
2434.00,0.0032
2433.00,0.0032
2432.00,0.0031
2431.00,0.0031
2430.00,0.0031
2429.00,0.0031
2428.00,0.0031
2427.00,0.0031
2426.00,0.0031
2425.00,0.0031
2424.00,0.0031
2423.00,0.0031
2422.00,0.0031
2421.00,0.0030
2420.00,0.0030
2419.00,0.0030
2418.00,0.0030
2417.00,0.0030
2416.00,0.0030
2415.00,0.0030
2414.00,0.0030
2413.00,0.0030
2412.00,0.0030
2411.00,0.0030
2410.00,0.0030
2409.00,0.0030
2408.00,0.0029
2407.00,0.0028
2406.00,0.0028
2405.00,0.0027
2404.00,0.0027
2403.00,0.0027
2402.00,0.0028
2401.00,0.0028
2400.00,0.0028
2399.00,0.0028
2398.00,0.0028
2397.00,0.0028
2396.00,0.0028
2395.00,0.0028
2394.00,0.0028
2393.00,0.0027
2392.00,0.0027
2391.00,0.0027
2390.00,0.0027
2389.00,0.0027
2388.00,0.0026
2387.00,0.0026
2386.00,0.0026
2385.00,0.0026
2384.00,0.0026
2383.00,0.0026
2382.00,0.0026
2381.00,0.0025
2380.00,0.0025
2379.00,0.0025
2378.00,0.0025
2377.00,0.0025
2376.00,0.0025
2375.00,0.0025
2374.00,0.0025
2373.00,0.0025
2372.00,0.0025
2371.00,0.0025
2370.00,0.0024
2369.00,0.0024
2368.00,0.0025
2367.00,0.0025
2366.00,0.0025
2365.00,0.0026
2364.00,0.0027
2363.00,0.0027
2362.00,0.0026
2361.00,0.0026
2360.00,0.0026
2359.00,0.0026
2358.00,0.0026
2357.00,0.0026
2356.00,0.0026
2355.00,0.0026
2354.00,0.0026
2353.00,0.0026
2352.00,0.0025
2351.00,0.0025
2350.00,0.0025
2349.00,0.0027
2348.00,0.0029
2347.00,0.0030
2346.00,0.0031
2345.00,0.0030
2344.00,0.0029
2343.00,0.0029
2342.00,0.0029
2341.00,0.0029
2340.00,0.0029
2339.00,0.0030
2338.00,0.0029
2337.00,0.0029
2336.00,0.0028
2335.00,0.0028
2334.00,0.0028
2333.00,0.0028
2332.00,0.0029
2331.00,0.0029
2330.00,0.0029
2329.00,0.0031
2328.00,0.0034
2327.00,0.0038
2326.00,0.0042
2325.00,0.0043
2324.00,0.0042
2323.00,0.0040
2322.00,0.0038
2321.00,0.0036
2320.00,0.0036
2319.00,0.0035
2318.00,0.0035
2317.00,0.0034
2316.00,0.0034
2315.00,0.0033
2314.00,0.0033
2313.00,0.0032
2312.00,0.0032
2311.00,0.0032
2310.00,0.0032
2309.00,0.0032
2308.00,0.0032
2307.00,0.0032
2306.00,0.0032
2305.00,0.0032
2304.00,0.0032
2303.00,0.0032
2302.00,0.0032
2301.00,0.0033
2300.00,0.0033
2299.00,0.0034
2298.00,0.0035
2297.00,0.0035
2296.00,0.0035
2295.00,0.0036
2294.00,0.0036
2293.00,0.0037
2292.00,0.0038
2291.00,0.0039
2290.00,0.0040
2289.00,0.0040
2288.00,0.0041
2287.00,0.0040
2286.00,0.0040
2285.00,0.0039
2284.00,0.0039
2283.00,0.0038
2282.00,0.0038
2281.00,0.0037
2280.00,0.0037
2279.00,0.0036
2278.00,0.0035
2277.00,0.0035
2276.00,0.0036
2275.00,0.0036
2274.00,0.0036
2273.00,0.0035
2272.00,0.0035
2271.00,0.0035
2270.00,0.0034
2269.00,0.0033
2268.00,0.0032
2267.00,0.0032
2266.00,0.0032
2265.00,0.0032
2264.00,0.0033
2263.00,0.0034
2262.00,0.0034
2261.00,0.0034
2260.00,0.0034
2259.00,0.0033
2258.00,0.0032
2257.00,0.0030
2256.00,0.0029
2255.00,0.0029
2254.00,0.0028
2253.00,0.0029
2252.00,0.0029
2251.00,0.0030
2250.00,0.0030
2249.00,0.0030
2248.00,0.0030
2247.00,0.0030
2246.00,0.0030
2245.00,0.0030
2244.00,0.0030
2243.00,0.0030
2242.00,0.0030
2241.00,0.0030
2240.00,0.0031
2239.00,0.0031
2238.00,0.0031
2237.00,0.0031
2236.00,0.0031
2235.00,0.0031
2234.00,0.0031
2233.00,0.0032
2232.00,0.0032
2231.00,0.0033
2230.00,0.0033
2229.00,0.0032
2228.00,0.0032
2227.00,0.0032
2226.00,0.0031
2225.00,0.0031
2224.00,0.0030
2223.00,0.0030
2222.00,0.0029
2221.00,0.0029
2220.00,0.0029
2219.00,0.0028
2218.00,0.0028
2217.00,0.0027
2216.00,0.0028
2215.00,0.0028
2214.00,0.0028
2213.00,0.0029
2212.00,0.0029
2211.00,0.0029
2210.00,0.0028
2209.00,0.0028
2208.00,0.0028
2207.00,0.0029
2206.00,0.0029
2205.00,0.0030
2204.00,0.0031
2203.00,0.0031
2202.00,0.0031
2201.00,0.0031
2200.00,0.0031
2199.00,0.0031
2198.00,0.0031
2197.00,0.0031
2196.00,0.0031
2195.00,0.0031
2194.00,0.0031
2193.00,0.0031
2192.00,0.0032
2191.00,0.0032
2190.00,0.0032
2189.00,0.0033
2188.00,0.0033
2187.00,0.0034
2186.00,0.0033
2185.00,0.0032
2184.00,0.0030
2183.00,0.0028
2182.00,0.0026
2181.00,0.0025
2180.00,0.0025
2179.00,0.0026
2178.00,0.0026
2177.00,0.0027
2176.00,0.0028
2175.00,0.0029
2174.00,0.0030
2173.00,0.0031
2172.00,0.0034
2171.00,0.0037
2170.00,0.0041
2169.00,0.0043
2168.00,0.0043
2167.00,0.0043
2166.00,0.0042
2165.00,0.0042
2164.00,0.0042
2163.00,0.0041
2162.00,0.0035
2161.00,0.0025
2160.00,0.0012
2159.00,0.0003
2158.00,-0.0000
2157.00,0.0001
2156.00,0.0003
2155.00,0.0006
2154.00,0.0008
2153.00,0.0010
2152.00,0.0011
2151.00,0.0011
2150.00,0.0010
2149.00,0.0010
2148.00,0.0011
2147.00,0.0013
2146.00,0.0013
2145.00,0.0013
2144.00,0.0013
2143.00,0.0013
2142.00,0.0012
2141.00,0.0012
2140.00,0.0012
2139.00,0.0012
2138.00,0.0011
2137.00,0.0009
2136.00,0.0008
2135.00,0.0006
2134.00,0.0006
2133.00,0.0007
2132.00,0.0009
2131.00,0.0011
2130.00,0.0013
2129.00,0.0015
2128.00,0.0017
2127.00,0.0018
2126.00,0.0019
2125.00,0.0020
2124.00,0.0021
2123.00,0.0022
2122.00,0.0022
2121.00,0.0022
2120.00,0.0022
2119.00,0.0023
2118.00,0.0024
2117.00,0.0025
2116.00,0.0027
2115.00,0.0028
2114.00,0.0028
2113.00,0.0028
2112.00,0.0028
2111.00,0.0028
2110.00,0.0028
2109.00,0.0027
2108.00,0.0027
2107.00,0.0027
2106.00,0.0026
2105.00,0.0026
2104.00,0.0026
2103.00,0.0026
2102.00,0.0026
2101.00,0.0026
2100.00,0.0026
2099.00,0.0025
2098.00,0.0024
2097.00,0.0022
2096.00,0.0021
2095.00,0.0021
2094.00,0.0022
2093.00,0.0022
2092.00,0.0024
2091.00,0.0025
2090.00,0.0026
2089.00,0.0026
2088.00,0.0027
2087.00,0.0027
2086.00,0.0027
2085.00,0.0027
2084.00,0.0027
2083.00,0.0028
2082.00,0.0028
2081.00,0.0029
2080.00,0.0029
2079.00,0.0029
2078.00,0.0029
2077.00,0.0028
2076.00,0.0028
2075.00,0.0028
2074.00,0.0027
2073.00,0.0027
2072.00,0.0026
2071.00,0.0026
2070.00,0.0026
2069.00,0.0025
2068.00,0.0025
2067.00,0.0025
2066.00,0.0024
2065.00,0.0024
2064.00,0.0024
2063.00,0.0023
2062.00,0.0023
2061.00,0.0023
2060.00,0.0024
2059.00,0.0024
2058.00,0.0025
2057.00,0.0024
2056.00,0.0024
2055.00,0.0024
2054.00,0.0026
2053.00,0.0030
2052.00,0.0033
2051.00,0.0034
2050.00,0.0031
2049.00,0.0028
2048.00,0.0025
2047.00,0.0024
2046.00,0.0024
2045.00,0.0025
2044.00,0.0026
2043.00,0.0026
2042.00,0.0025
2041.00,0.0025
2040.00,0.0026
2039.00,0.0027
2038.00,0.0027
2037.00,0.0026
2036.00,0.0024
2035.00,0.0022
2034.00,0.0021
2033.00,0.0021
2032.00,0.0021
2031.00,0.0020
2030.00,0.0018
2029.00,0.0015
2028.00,0.0015
2027.00,0.0015
2026.00,0.0015
2025.00,0.0015
2024.00,0.0015
2023.00,0.0015
2022.00,0.0015
2021.00,0.0015
2020.00,0.0017
2019.00,0.0019
2018.00,0.0020
2017.00,0.0021
2016.00,0.0021
2015.00,0.0020
2014.00,0.0019
2013.00,0.0018
2012.00,0.0018
2011.00,0.0017
2010.00,0.0015
2009.00,0.0012
2008.00,0.0010
2007.00,0.0010
2006.00,0.0010
2005.00,0.0011
2004.00,0.0012
2003.00,0.0013
2002.00,0.0014
2001.00,0.0014
2000.00,0.0016
1999.00,0.0018
1998.00,0.0020
1997.00,0.0021
1996.00,0.0023
1995.00,0.0023
1994.00,0.0022
1993.00,0.0021
1992.00,0.0021
1991.00,0.0021
1990.00,0.0022
1989.00,0.0022
1988.00,0.0023
1987.00,0.0025
1986.00,0.0026
1985.00,0.0027
1984.00,0.0029
1983.00,0.0032
1982.00,0.0034
1981.00,0.0034
1980.00,0.0032
1979.00,0.0028
1978.00,0.0022
1977.00,0.0018
1976.00,0.0016
1975.00,0.0015
1974.00,0.0013
1973.00,0.0011
1972.00,0.0010
1971.00,0.0010
1970.00,0.0010
1969.00,0.0012
1968.00,0.0013
1967.00,0.0014
1966.00,0.0014
1965.00,0.0014
1964.00,0.0013
1963.00,0.0013
1962.00,0.0012
1961.00,0.0011
1960.00,0.0010
1959.00,0.0010
1958.00,0.0010
1957.00,0.0012
1956.00,0.0013
1955.00,0.0014
1954.00,0.0014
1953.00,0.0013
1952.00,0.0013
1951.00,0.0014
1950.00,0.0014
1949.00,0.0014
1948.00,0.0014
1947.00,0.0014
1946.00,0.0014
1945.00,0.0013
1944.00,0.0014
1943.00,0.0014
1942.00,0.0015
1941.00,0.0015
1940.00,0.0015
1939.00,0.0015
1938.00,0.0014
1937.00,0.0014
1936.00,0.0014
1935.00,0.0015
1934.00,0.0014
1933.00,0.0014
1932.00,0.0014
1931.00,0.0014
1930.00,0.0013
1929.00,0.0013
1928.00,0.0013
1927.00,0.0013
1926.00,0.0013
1925.00,0.0013
1924.00,0.0014
1923.00,0.0015
1922.00,0.0016
1921.00,0.0016
1920.00,0.0016
1919.00,0.0016
1918.00,0.0016
1917.00,0.0016
1916.00,0.0017
1915.00,0.0017
1914.00,0.0017
1913.00,0.0018
1912.00,0.0017
1911.00,0.0017
1910.00,0.0016
1909.00,0.0016
1908.00,0.0016
1907.00,0.0017
1906.00,0.0016
1905.00,0.0016
1904.00,0.0017
1903.00,0.0017
1902.00,0.0017
1901.00,0.0017
1900.00,0.0017
1899.00,0.0017
1898.00,0.0016
1897.00,0.0016
1896.00,0.0017
1895.00,0.0018
1894.00,0.0018
1893.00,0.0017
1892.00,0.0017
1891.00,0.0016
1890.00,0.0017
1889.00,0.0017
1888.00,0.0018
1887.00,0.0019
1886.00,0.0018
1885.00,0.0018
1884.00,0.0018
1883.00,0.0018
1882.00,0.0018
1881.00,0.0018
1880.00,0.0018
1879.00,0.0018
1878.00,0.0017
1877.00,0.0017
1876.00,0.0017
1875.00,0.0017
1874.00,0.0017
1873.00,0.0016
1872.00,0.0016
1871.00,0.0015
1870.00,0.0014
1869.00,0.0015
1868.00,0.0016
1867.00,0.0017
1866.00,0.0018
1865.00,0.0017
1864.00,0.0017
1863.00,0.0018
1862.00,0.0018
1861.00,0.0018
1860.00,0.0018
1859.00,0.0017
1858.00,0.0017
1857.00,0.0017
1856.00,0.0017
1855.00,0.0018
1854.00,0.0017
1853.00,0.0017
1852.00,0.0017
1851.00,0.0017
1850.00,0.0016
1849.00,0.0016
1848.00,0.0016
1847.00,0.0016
1846.00,0.0016
1845.00,0.0016
1844.00,0.0017
1843.00,0.0018
1842.00,0.0018
1841.00,0.0017
1840.00,0.0016
1839.00,0.0016
1838.00,0.0017
1837.00,0.0017
1836.00,0.0017
1835.00,0.0018
1834.00,0.0017
1833.00,0.0017
1832.00,0.0016
1831.00,0.0016
1830.00,0.0017
1829.00,0.0017
1828.00,0.0018
1827.00,0.0017
1826.00,0.0017
1825.00,0.0017
1824.00,0.0018
1823.00,0.0018
1822.00,0.0017
1821.00,0.0017
1820.00,0.0016
1819.00,0.0015
1818.00,0.0015
1817.00,0.0014
1816.00,0.0015
1815.00,0.0016
1814.00,0.0016
1813.00,0.0016
1812.00,0.0016
1811.00,0.0016
1810.00,0.0017
1809.00,0.0017
1808.00,0.0018
1807.00,0.0018
1806.00,0.0018
1805.00,0.0018
1804.00,0.0017
1803.00,0.0017
1802.00,0.0017
1801.00,0.0017
1800.00,0.0017
1799.00,0.0018
1798.00,0.0017
1797.00,0.0017
1796.00,0.0017
1795.00,0.0016
1794.00,0.0016
1793.00,0.0016
1792.00,0.0018
1791.00,0.0019
1790.00,0.0020
1789.00,0.0019
1788.00,0.0019
1787.00,0.0018
1786.00,0.0018
1785.00,0.0019
1784.00,0.0019
1783.00,0.0019
1782.00,0.0018
1781.00,0.0018
1780.00,0.0018
1779.00,0.0018
1778.00,0.0017
1777.00,0.0017
1776.00,0.0017
1775.00,0.0016
1774.00,0.0016
1773.00,0.0016
1772.00,0.0017
1771.00,0.0019
1770.00,0.0019
1769.00,0.0019
1768.00,0.0020
1767.00,0.0020
1766.00,0.0020
1765.00,0.0020
1764.00,0.0019
1763.00,0.0020
1762.00,0.0020
1761.00,0.0021
1760.00,0.0021
1759.00,0.0021
1758.00,0.0021
1757.00,0.0021
1756.00,0.0022
1755.00,0.0022
1754.00,0.0021
1753.00,0.0020
1752.00,0.0019
1751.00,0.0019
1750.00,0.0019
1749.00,0.0020
1748.00,0.0020
1747.00,0.0021
1746.00,0.0022
1745.00,0.0022
1744.00,0.0023
1743.00,0.0023
1742.00,0.0023
1741.00,0.0023
1740.00,0.0024
1739.00,0.0025
1738.00,0.0026
1737.00,0.0026
1736.00,0.0026
1735.00,0.0027
1734.00,0.0029
1733.00,0.0031
1732.00,0.0032
1731.00,0.0032
1730.00,0.0032
1729.00,0.0033
1728.00,0.0034
1727.00,0.0035
1726.00,0.0036
1725.00,0.0036
1724.00,0.0037
1723.00,0.0039
1722.00,0.0039
1721.00,0.0040
1720.00,0.0040
1719.00,0.0041
1718.00,0.0043
1717.00,0.0046
1716.00,0.0049
1715.00,0.0052
1714.00,0.0054
1713.00,0.0057
1712.00,0.0060
1711.00,0.0063
1710.00,0.0067
1709.00,0.0070
1708.00,0.0074
1707.00,0.0079
1706.00,0.0085
1705.00,0.0092
1704.00,0.0100
1703.00,0.0107
1702.00,0.0114
1701.00,0.0123
1700.00,0.0136
1699.00,0.0148
1698.00,0.0158
1697.00,0.0168
1696.00,0.0182
1695.00,0.0196
1694.00,0.0208
1693.00,0.0217
1692.00,0.0227
1691.00,0.0238
1690.00,0.0250
1689.00,0.0261
1688.00,0.0273
1687.00,0.0286
1686.00,0.0297
1685.00,0.0308
1684.00,0.0319
1683.00,0.0330
1682.00,0.0340
1681.00,0.0351
1680.00,0.0362
1679.00,0.0374
1678.00,0.0385
1677.00,0.0396
1676.00,0.0406
1675.00,0.0413
1674.00,0.0421
1673.00,0.0429
1672.00,0.0439
1671.00,0.0447
1670.00,0.0454
1669.00,0.0460
1668.00,0.0467
1667.00,0.0476
1666.00,0.0485
1665.00,0.0495
1664.00,0.0503
1663.00,0.0509
1662.00,0.0513
1661.00,0.0519
1660.00,0.0526
1659.00,0.0534
1658.00,0.0543
1657.00,0.0553
1656.00,0.0565
1655.00,0.0576
1654.00,0.0577
1653.00,0.0566
1652.00,0.0557
1651.00,0.0557
1650.00,0.0563
1649.00,0.0568
1648.00,0.0570
1647.00,0.0565
1646.00,0.0557
1645.00,0.0551
1644.00,0.0550
1643.00,0.0550
1642.00,0.0550
1641.00,0.0548
1640.00,0.0546
1639.00,0.0544
1638.00,0.0543
1637.00,0.0538
1636.00,0.0527
1635.00,0.0514
1634.00,0.0506
1633.00,0.0504
1632.00,0.0504
1631.00,0.0504
1630.00,0.0501
1629.00,0.0497
1628.00,0.0492
1627.00,0.0487
1626.00,0.0483
1625.00,0.0480
1624.00,0.0474
1623.00,0.0466
1622.00,0.0458
1621.00,0.0453
1620.00,0.0451
1619.00,0.0449
1618.00,0.0443
1617.00,0.0432
1616.00,0.0419
1615.00,0.0408
1614.00,0.0401
1613.00,0.0396
1612.00,0.0390
1611.00,0.0382
1610.00,0.0374
1609.00,0.0366
1608.00,0.0358
1607.00,0.0350
1606.00,0.0343
1605.00,0.0337
1604.00,0.0331
1603.00,0.0325
1602.00,0.0320
1601.00,0.0315
1600.00,0.0310
1599.00,0.0305
1598.00,0.0301
1597.00,0.0297
1596.00,0.0293
1595.00,0.0288
1594.00,0.0284
1593.00,0.0280
1592.00,0.0277
1591.00,0.0273
1590.00,0.0270
1589.00,0.0267
1588.00,0.0264
1587.00,0.0261
1586.00,0.0259
1585.00,0.0258
1584.00,0.0256
1583.00,0.0255
1582.00,0.0254
1581.00,0.0254
1580.00,0.0254
1579.00,0.0254
1578.00,0.0255
1577.00,0.0255
1576.00,0.0253
1575.00,0.0252
1574.00,0.0253
1573.00,0.0254
1572.00,0.0256
1571.00,0.0256
1570.00,0.0257
1569.00,0.0257
1568.00,0.0258
1567.00,0.0260
1566.00,0.0262
1565.00,0.0264
1564.00,0.0267
1563.00,0.0271
1562.00,0.0276
1561.00,0.0281
1560.00,0.0281
1559.00,0.0277
1558.00,0.0277
1557.00,0.0281
1556.00,0.0285
1555.00,0.0290
1554.00,0.0294
1553.00,0.0297
1552.00,0.0301
1551.00,0.0304
1550.00,0.0307
1549.00,0.0311
1548.00,0.0314
1547.00,0.0318
1546.00,0.0322
1545.00,0.0325
1544.00,0.0328
1543.00,0.0330
1542.00,0.0332
1541.00,0.0333
1540.00,0.0332
1539.00,0.0332
1538.00,0.0334
1537.00,0.0338
1536.00,0.0342
1535.00,0.0345
1534.00,0.0346
1533.00,0.0346
1532.00,0.0346
1531.00,0.0348
1530.00,0.0350
1529.00,0.0352
1528.00,0.0354
1527.00,0.0354
1526.00,0.0353
1525.00,0.0353
1524.00,0.0354
1523.00,0.0355
1522.00,0.0355
1521.00,0.0353
1520.00,0.0352
1519.00,0.0353
1518.00,0.0354
1517.00,0.0354
1516.00,0.0353
1515.00,0.0354
1514.00,0.0354
1513.00,0.0354
1512.00,0.0353
1511.00,0.0352
1510.00,0.0351
1509.00,0.0349
1508.00,0.0345
1507.00,0.0338
1506.00,0.0331
1505.00,0.0328
1504.00,0.0327
1503.00,0.0328
1502.00,0.0329
1501.00,0.0329
1500.00,0.0328
1499.00,0.0326
1498.00,0.0324
1497.00,0.0320
1496.00,0.0316
1495.00,0.0312
1494.00,0.0308
1493.00,0.0305
1492.00,0.0300
1491.00,0.0293
1490.00,0.0285
1489.00,0.0276
1488.00,0.0269
1487.00,0.0263
1486.00,0.0258
1485.00,0.0252
1484.00,0.0247
1483.00,0.0242
1482.00,0.0238
1481.00,0.0234
1480.00,0.0230
1479.00,0.0228
1478.00,0.0226
1477.00,0.0225
1476.00,0.0225
1475.00,0.0226
1474.00,0.0227
1473.00,0.0230
1472.00,0.0234
1471.00,0.0240
1470.00,0.0246
1469.00,0.0253
1468.00,0.0259
1467.00,0.0266
1466.00,0.0272
1465.00,0.0277
1464.00,0.0282
1463.00,0.0287
1462.00,0.0291
1461.00,0.0295
1460.00,0.0298
1459.00,0.0299
1458.00,0.0298
1457.00,0.0293
1456.00,0.0288
1455.00,0.0285
1454.00,0.0282
1453.00,0.0281
1452.00,0.0280
1451.00,0.0279
1450.00,0.0279
1449.00,0.0279
1448.00,0.0280
1447.00,0.0281
1446.00,0.0284
1445.00,0.0288
1444.00,0.0292
1443.00,0.0296
1442.00,0.0300
1441.00,0.0304
1440.00,0.0309
1439.00,0.0313
1438.00,0.0317
1437.00,0.0318
1436.00,0.0317
1435.00,0.0317
1434.00,0.0317
1433.00,0.0317
1432.00,0.0317
1431.00,0.0317
1430.00,0.0317
1429.00,0.0318
1428.00,0.0320
1427.00,0.0324
1426.00,0.0327
1425.00,0.0331
1424.00,0.0334
1423.00,0.0337
1422.00,0.0341
1421.00,0.0343
1420.00,0.0342
1419.00,0.0337
1418.00,0.0330
1417.00,0.0323
1416.00,0.0316
1415.00,0.0310
1414.00,0.0303
1413.00,0.0297
1412.00,0.0289
1411.00,0.0283
1410.00,0.0277
1409.00,0.0273
1408.00,0.0269
1407.00,0.0265
1406.00,0.0262
1405.00,0.0259
1404.00,0.0256
1403.00,0.0255
1402.00,0.0254
1401.00,0.0253
1400.00,0.0251
1399.00,0.0249
1398.00,0.0248
1397.00,0.0248
1396.00,0.0248
1395.00,0.0248
1394.00,0.0248
1393.00,0.0249
1392.00,0.0249
1391.00,0.0250
1390.00,0.0251
1389.00,0.0252
1388.00,0.0252
1387.00,0.0251
1386.00,0.0251
1385.00,0.0250
1384.00,0.0250
1383.00,0.0249
1382.00,0.0249
1381.00,0.0248
1380.00,0.0247
1379.00,0.0246
1378.00,0.0246
1377.00,0.0245
1376.00,0.0244
1375.00,0.0244
1374.00,0.0243
1373.00,0.0243
1372.00,0.0242
1371.00,0.0242
1370.00,0.0241
1369.00,0.0239
1368.00,0.0237
1367.00,0.0234
1366.00,0.0232
1365.00,0.0229
1364.00,0.0225
1363.00,0.0222
1362.00,0.0218
1361.00,0.0215
1360.00,0.0212
1359.00,0.0210
1358.00,0.0207
1357.00,0.0205
1356.00,0.0203
1355.00,0.0201
1354.00,0.0200
1353.00,0.0199
1352.00,0.0198
1351.00,0.0196
1350.00,0.0195
1349.00,0.0194
1348.00,0.0194
1347.00,0.0193
1346.00,0.0193
1345.00,0.0192
1344.00,0.0192
1343.00,0.0192
1342.00,0.0192
1341.00,0.0192
1340.00,0.0192
1339.00,0.0192
1338.00,0.0192
1337.00,0.0193
1336.00,0.0193
1335.00,0.0194
1334.00,0.0195
1333.00,0.0195
1332.00,0.0196
1331.00,0.0197
1330.00,0.0198
1329.00,0.0200
1328.00,0.0201
1327.00,0.0203
1326.00,0.0205
1325.00,0.0208
1324.00,0.0210
1323.00,0.0212
1322.00,0.0215
1321.00,0.0217
1320.00,0.0219
1319.00,0.0222
1318.00,0.0224
1317.00,0.0225
1316.00,0.0226
1315.00,0.0227
1314.00,0.0227
1313.00,0.0226
1312.00,0.0225
1311.00,0.0224
1310.00,0.0223
1309.00,0.0222
1308.00,0.0221
1307.00,0.0220
1306.00,0.0220
1305.00,0.0220
1304.00,0.0221
1303.00,0.0222
1302.00,0.0224
1301.00,0.0227
1300.00,0.0231
1299.00,0.0235
1298.00,0.0241
1297.00,0.0248
1296.00,0.0256
1295.00,0.0264
1294.00,0.0273
1293.00,0.0282
1292.00,0.0291
1291.00,0.0300
1290.00,0.0308
1289.00,0.0316
1288.00,0.0321
1287.00,0.0326
1286.00,0.0329
1285.00,0.0331
1284.00,0.0331
1283.00,0.0330
1282.00,0.0327
1281.00,0.0325
1280.00,0.0322
1279.00,0.0320
1278.00,0.0318
1277.00,0.0318
1276.00,0.0319
1275.00,0.0320
1274.00,0.0321
1273.00,0.0323
1272.00,0.0324
1271.00,0.0325
1270.00,0.0325
1269.00,0.0324
1268.00,0.0322
1267.00,0.0320
1266.00,0.0317
1265.00,0.0314
1264.00,0.0309
1263.00,0.0305
1262.00,0.0301
1261.00,0.0297
1260.00,0.0293
1259.00,0.0289
1258.00,0.0286
1257.00,0.0282
1256.00,0.0279
1255.00,0.0276
1254.00,0.0274
1253.00,0.0272
1252.00,0.0271
1251.00,0.0270
1250.00,0.0270
1249.00,0.0269
1248.00,0.0269
1247.00,0.0269
1246.00,0.0270
1245.00,0.0271
1244.00,0.0271
1243.00,0.0272
1242.00,0.0273
1241.00,0.0274
1240.00,0.0275
1239.00,0.0277
1238.00,0.0279
1237.00,0.0281
1236.00,0.0282
1235.00,0.0284
1234.00,0.0286
1233.00,0.0287
1232.00,0.0288
1231.00,0.0288
1230.00,0.0289
1229.00,0.0289
1228.00,0.0289
1227.00,0.0288
1226.00,0.0287
1225.00,0.0286
1224.00,0.0285
1223.00,0.0283
1222.00,0.0281
1221.00,0.0279
1220.00,0.0277
1219.00,0.0275
1218.00,0.0273
1217.00,0.0270
1216.00,0.0268
1215.00,0.0265
1214.00,0.0262
1213.00,0.0258
1212.00,0.0255
1211.00,0.0252
1210.00,0.0249
1209.00,0.0246
1208.00,0.0243
1207.00,0.0239
1206.00,0.0236
1205.00,0.0233
1204.00,0.0230
1203.00,0.0226
1202.00,0.0224
1201.00,0.0221
1200.00,0.0218
1199.00,0.0216
1198.00,0.0214
1197.00,0.0212
1196.00,0.0210
1195.00,0.0207
1194.00,0.0205
1193.00,0.0203
1192.00,0.0202
1191.00,0.0200
1190.00,0.0199
1189.00,0.0197
1188.00,0.0196
1187.00,0.0195
1186.00,0.0194
1185.00,0.0193
1184.00,0.0192
1183.00,0.0191
1182.00,0.0191
1181.00,0.0192
1180.00,0.0192
1179.00,0.0192
1178.00,0.0193
1177.00,0.0194
1176.00,0.0196
1175.00,0.0198
1174.00,0.0200
1173.00,0.0202
1172.00,0.0204
1171.00,0.0206
1170.00,0.0208
1169.00,0.0209
1168.00,0.0210
1167.00,0.0211
1166.00,0.0212
1165.00,0.0213
1164.00,0.0214
1163.00,0.0214
1162.00,0.0215
1161.00,0.0215
1160.00,0.0215
1159.00,0.0215
1158.00,0.0216
1157.00,0.0216
1156.00,0.0216
1155.00,0.0215
1154.00,0.0215
1153.00,0.0214
1152.00,0.0213
1151.00,0.0211
1150.00,0.0209
1149.00,0.0207
1148.00,0.0206
1147.00,0.0204
1146.00,0.0203
1145.00,0.0202
1144.00,0.0200
1143.00,0.0198
1142.00,0.0197
1141.00,0.0195
1140.00,0.0193
1139.00,0.0192
1138.00,0.0191
1137.00,0.0190
1136.00,0.0190
1135.00,0.0189
1134.00,0.0189
1133.00,0.0189
1132.00,0.0190
1131.00,0.0190
1130.00,0.0191
1129.00,0.0192
1128.00,0.0193
1127.00,0.0194
1126.00,0.0195
1125.00,0.0197
1124.00,0.0198
1123.00,0.0199
1122.00,0.0200
1121.00,0.0201
1120.00,0.0202
1119.00,0.0203
1118.00,0.0204
1117.00,0.0205
1116.00,0.0206
1115.00,0.0208
1114.00,0.0209
1113.00,0.0211
1112.00,0.0212
1111.00,0.0213
1110.00,0.0213
1109.00,0.0214
1108.00,0.0215
1107.00,0.0216
1106.00,0.0218
1105.00,0.0219
1104.00,0.0220
1103.00,0.0220
1102.00,0.0221
1101.00,0.0222
1100.00,0.0222
1099.00,0.0223
1098.00,0.0224
1097.00,0.0225
1096.00,0.0226
1095.00,0.0227
1094.00,0.0229
1093.00,0.0230
1092.00,0.0231
1091.00,0.0232
1090.00,0.0234
1089.00,0.0236
1088.00,0.0237
1087.00,0.0240
1086.00,0.0242
1085.00,0.0244
1084.00,0.0246
1083.00,0.0248
1082.00,0.0250
1081.00,0.0251
1080.00,0.0252
1079.00,0.0253
1078.00,0.0254
1077.00,0.0254
1076.00,0.0253
1075.00,0.0252
1074.00,0.0252
1073.00,0.0251
1072.00,0.0249
1071.00,0.0248
1070.00,0.0248
1069.00,0.0247
1068.00,0.0246
1067.00,0.0245
1066.00,0.0245
1065.00,0.0245
1064.00,0.0245
1063.00,0.0245
1062.00,0.0246
1061.00,0.0248
1060.00,0.0249
1059.00,0.0250
1058.00,0.0251
1057.00,0.0252
1056.00,0.0252
1055.00,0.0253
1054.00,0.0253
1053.00,0.0254
1052.00,0.0254
1051.00,0.0254
1050.00,0.0255
1049.00,0.0256
1048.00,0.0256
1047.00,0.0256
1046.00,0.0257
1045.00,0.0257
1044.00,0.0257
1043.00,0.0257
1042.00,0.0257
1041.00,0.0258
1040.00,0.0257
1039.00,0.0257
1038.00,0.0257
1037.00,0.0257
1036.00,0.0257
1035.00,0.0257
1034.00,0.0257
1033.00,0.0257
1032.00,0.0257
1031.00,0.0258
1030.00,0.0259
1029.00,0.0260
1028.00,0.0260
1027.00,0.0261
1026.00,0.0262
1025.00,0.0263
1024.00,0.0263
1023.00,0.0263
1022.00,0.0264
1021.00,0.0264
1020.00,0.0263
1019.00,0.0261
1018.00,0.0259
1017.00,0.0257
1016.00,0.0254
1015.00,0.0251
1014.00,0.0248
1013.00,0.0245
1012.00,0.0241
1011.00,0.0238
1010.00,0.0236
1009.00,0.0234
1008.00,0.0231
1007.00,0.0229
1006.00,0.0228
1005.00,0.0227
1004.00,0.0226
1003.00,0.0224
1002.00,0.0223
1001.00,0.0221
1000.00,0.0219
999.00,0.0217
998.00,0.0214
997.00,0.0212
996.00,0.0209
995.00,0.0206
994.00,0.0204
993.00,0.0201
992.00,0.0198
991.00,0.0195
990.00,0.0192
989.00,0.0190
988.00,0.0187
987.00,0.0184
986.00,0.0182
985.00,0.0179
984.00,0.0177
983.00,0.0174
982.00,0.0172
981.00,0.0170
980.00,0.0168
979.00,0.0166
978.00,0.0165
977.00,0.0164
976.00,0.0163
975.00,0.0161
974.00,0.0161
973.00,0.0160
972.00,0.0159
971.00,0.0159
970.00,0.0158
969.00,0.0158
968.00,0.0157
967.00,0.0156
966.00,0.0156
965.00,0.0156
964.00,0.0155
963.00,0.0154
962.00,0.0154
961.00,0.0154
960.00,0.0153
959.00,0.0152
958.00,0.0151
957.00,0.0150
956.00,0.0149
955.00,0.0148
954.00,0.0148
953.00,0.0148
952.00,0.0147
951.00,0.0146
950.00,0.0145
949.00,0.0145
948.00,0.0144
947.00,0.0144
946.00,0.0145
945.00,0.0146
944.00,0.0146
943.00,0.0147
942.00,0.0148
941.00,0.0149
940.00,0.0151
939.00,0.0153
938.00,0.0155
937.00,0.0156
936.00,0.0158
935.00,0.0160
934.00,0.0162
933.00,0.0163
932.00,0.0163
931.00,0.0163
930.00,0.0163
929.00,0.0162
928.00,0.0162
927.00,0.0162
926.00,0.0162
925.00,0.0162
924.00,0.0161
923.00,0.0160
922.00,0.0159
921.00,0.0159
920.00,0.0157
919.00,0.0156
918.00,0.0155
917.00,0.0155
916.00,0.0154
915.00,0.0153
914.00,0.0152
913.00,0.0152
912.00,0.0151
911.00,0.0150
910.00,0.0149
909.00,0.0149
908.00,0.0148
907.00,0.0147
906.00,0.0147
905.00,0.0147
904.00,0.0147
903.00,0.0147
902.00,0.0148
901.00,0.0148
900.00,0.0149
899.00,0.0149
898.00,0.0150
897.00,0.0150
896.00,0.0150
895.00,0.0151
894.00,0.0151
893.00,0.0151
892.00,0.0150
891.00,0.0149
890.00,0.0148
889.00,0.0148
888.00,0.0147
887.00,0.0146
886.00,0.0146
885.00,0.0146
884.00,0.0146
883.00,0.0146
882.00,0.0147
881.00,0.0147
880.00,0.0146
879.00,0.0146
878.00,0.0145
877.00,0.0145
876.00,0.0144
875.00,0.0144
874.00,0.0144
873.00,0.0144
872.00,0.0144
871.00,0.0144
870.00,0.0145
869.00,0.0146
868.00,0.0146
867.00,0.0147
866.00,0.0149
865.00,0.0150
864.00,0.0151
863.00,0.0152
862.00,0.0153
861.00,0.0155
860.00,0.0155
859.00,0.0156
858.00,0.0158
857.00,0.0160
856.00,0.0161
855.00,0.0163
854.00,0.0165
853.00,0.0168
852.00,0.0169
851.00,0.0171
850.00,0.0173
849.00,0.0174
848.00,0.0175
847.00,0.0176
846.00,0.0177
845.00,0.0178
844.00,0.0178
843.00,0.0178
842.00,0.0178
841.00,0.0179
840.00,0.0179
839.00,0.0179
838.00,0.0179
837.00,0.0179
836.00,0.0178
835.00,0.0177
834.00,0.0177
833.00,0.0177
832.00,0.0177
831.00,0.0176
830.00,0.0176
829.00,0.0176
828.00,0.0175
827.00,0.0174
826.00,0.0175
825.00,0.0174
824.00,0.0174
823.00,0.0173
822.00,0.0173
821.00,0.0172
820.00,0.0172
819.00,0.0172
818.00,0.0172
817.00,0.0173
816.00,0.0173
815.00,0.0172
814.00,0.0173
813.00,0.0173
812.00,0.0173
811.00,0.0173
810.00,0.0174
809.00,0.0175
808.00,0.0176
807.00,0.0176
806.00,0.0177
805.00,0.0178
804.00,0.0178
803.00,0.0179
802.00,0.0180
801.00,0.0181
800.00,0.0182
799.00,0.0182
798.00,0.0183
797.00,0.0184
796.00,0.0185
795.00,0.0186
794.00,0.0187
793.00,0.0189
792.00,0.0190
791.00,0.0191
790.00,0.0194
789.00,0.0196
788.00,0.0197
787.00,0.0198
786.00,0.0200
785.00,0.0202
784.00,0.0203
783.00,0.0204
782.00,0.0205
781.00,0.0207
780.00,0.0207
779.00,0.0208
778.00,0.0208
777.00,0.0208
776.00,0.0207
775.00,0.0207
774.00,0.0207
773.00,0.0208
772.00,0.0208
771.00,0.0209
770.00,0.0210
769.00,0.0213
768.00,0.0214
767.00,0.0215
766.00,0.0217
765.00,0.0218
764.00,0.0219
763.00,0.0220
762.00,0.0221
761.00,0.0222
760.00,0.0222
759.00,0.0223
758.00,0.0226
757.00,0.0228
756.00,0.0229
755.00,0.0231
754.00,0.0233
753.00,0.0234
752.00,0.0236
751.00,0.0238
750.00,0.0240
749.00,0.0243
748.00,0.0245
747.00,0.0246
746.00,0.0248
745.00,0.0249
744.00,0.0250
743.00,0.0252
742.00,0.0254
741.00,0.0255
740.00,0.0256
739.00,0.0256
738.00,0.0258
737.00,0.0260
736.00,0.0260
735.00,0.0261
734.00,0.0262
733.00,0.0263
732.00,0.0264
731.00,0.0264
730.00,0.0265
729.00,0.0266
728.00,0.0265
727.00,0.0265
726.00,0.0265
725.00,0.0266
724.00,0.0266
723.00,0.0267
722.00,0.0269
721.00,0.0270
720.00,0.0270
719.00,0.0271
718.00,0.0272
717.00,0.0274
716.00,0.0275
715.00,0.0276
714.00,0.0277
713.00,0.0278
712.00,0.0279
711.00,0.0281
710.00,0.0284
709.00,0.0286
708.00,0.0288
707.00,0.0290
706.00,0.0293
705.00,0.0296
704.00,0.0297
703.00,0.0299
702.00,0.0301
701.00,0.0303
700.00,0.0304
699.00,0.0305
698.00,0.0307
697.00,0.0309
696.00,0.0310
695.00,0.0311
694.00,0.0312
693.00,0.0312
692.00,0.0311
691.00,0.0311
690.00,0.0313
689.00,0.0314
688.00,0.0315
687.00,0.0316
686.00,0.0318
685.00,0.0320
684.00,0.0321
683.00,0.0322
682.00,0.0324
681.00,0.0325
680.00,0.0326
679.00,0.0327
678.00,0.0330
677.00,0.0332
676.00,0.0334
675.00,0.0335
674.00,0.0337
673.00,0.0339
672.00,0.0341
671.00,0.0344
670.00,0.0348
669.00,0.0351
668.00,0.0351
667.00,0.0351
666.00,0.0353
665.00,0.0356
664.00,0.0358
663.00,0.0361
662.00,0.0365
661.00,0.0368
660.00,0.0371
659.00,0.0373
658.00,0.0375
657.00,0.0378
656.00,0.0379
655.00,0.0382
654.00,0.0385
653.00,0.0388
652.00,0.0389
651.00,0.0390
650.00,0.0391
649.00,0.0392
648.00,0.0392
647.00,0.0393
646.00,0.0394
645.00,0.0394
644.00,0.0393
643.00,0.0392
642.00,0.0393
641.00,0.0393
640.00,0.0393
639.00,0.0393
638.00,0.0394
637.00,0.0394
636.00,0.0393
635.00,0.0391
634.00,0.0390
633.00,0.0390
632.00,0.0389
631.00,0.0388
630.00,0.0389
629.00,0.0390
628.00,0.0390
627.00,0.0390
626.00,0.0392
625.00,0.0393
624.00,0.0394
623.00,0.0394
622.00,0.0396
621.00,0.0398
620.00,0.0398
619.00,0.0399
618.00,0.0401
617.00,0.0403
616.00,0.0403
615.00,0.0402
614.00,0.0403
613.00,0.0405
612.00,0.0406
611.00,0.0407
610.00,0.0408
609.00,0.0408
608.00,0.0408
607.00,0.0408
606.00,0.0410
605.00,0.0411
604.00,0.0411
603.00,0.0412
602.00,0.0414
601.00,0.0417
600.00,0.0418
599.00,0.0419
598.00,0.0421
597.00,0.0423
596.00,0.0424
595.00,0.0426
594.00,0.0429
593.00,0.0432
592.00,0.0433
591.00,0.0434
590.00,0.0436
589.00,0.0438
588.00,0.0440
587.00,0.0442
586.00,0.0445
585.00,0.0448
584.00,0.0450
583.00,0.0451
582.00,0.0454
581.00,0.0457
580.00,0.0458
579.00,0.0458
578.00,0.0461
577.00,0.0463
576.00,0.0464
575.00,0.0464
574.00,0.0467
573.00,0.0469
572.00,0.0469
571.00,0.0469
570.00,0.0469
569.00,0.0469
568.00,0.0467
567.00,0.0466
566.00,0.0467
565.00,0.0468
564.00,0.0467
563.00,0.0467
562.00,0.0467
561.00,0.0467
560.00,0.0465
559.00,0.0464
558.00,0.0465
557.00,0.0465
556.00,0.0464
555.00,0.0463
554.00,0.0464
553.00,0.0465
552.00,0.0464
551.00,0.0463
550.00,0.0464
549.00,0.0465
548.00,0.0464
547.00,0.0463
546.00,0.0465
545.00,0.0467
544.00,0.0467
543.00,0.0469
542.00,0.0472
541.00,0.0474
540.00,0.0473
539.00,0.0473
538.00,0.0476
537.00,0.0477
536.00,0.0477
535.00,0.0476
534.00,0.0476
533.00,0.0477
532.00,0.0475
531.00,0.0474
530.00,0.0476
529.00,0.0478
528.00,0.0476
527.00,0.0475
526.00,0.0476
525.00,0.0477
524.00,0.0477
523.00,0.0479
522.00,0.0483
521.00,0.0485
520.00,0.0483
519.00,0.0481
518.00,0.0481
517.00,0.0481
516.00,0.0480
515.00,0.0479
514.00,0.0482
513.00,0.0483
512.00,0.0481
511.00,0.0478
510.00,0.0479
509.00,0.0479
508.00,0.0477
507.00,0.0476
506.00,0.0477
505.00,0.0478
504.00,0.0476
503.00,0.0474
502.00,0.0475
501.00,0.0475
500.00,0.0472
499.00,0.0470
498.00,0.0472
497.00,0.0475
496.00,0.0475
495.00,0.0475
494.00,0.0476
493.00,0.0478
492.00,0.0477
491.00,0.0478
490.00,0.0479
489.00,0.0478
488.00,0.0473
487.00,0.0470
486.00,0.0473
485.00,0.0476
484.00,0.0476
483.00,0.0475
482.00,0.0475
481.00,0.0474
480.00,0.0470
479.00,0.0467
478.00,0.0470
477.00,0.0471
476.00,0.0469
475.00,0.0467
474.00,0.0468
473.00,0.0468
472.00,0.0464
471.00,0.0463
470.00,0.0468
469.00,0.0472
468.00,0.0470
467.00,0.0467
466.00,0.0469
465.00,0.0472
464.00,0.0471
463.00,0.0471
462.00,0.0474
461.00,0.0475
460.00,0.0471
459.00,0.0469
458.00,0.0471
457.00,0.0472
456.00,0.0467
455.00,0.0463
454.00,0.0466
453.00,0.0470
452.00,0.0468
451.00,0.0465
450.00,0.0467
449.00,0.0467
448.00,0.0463
447.00,0.0458
446.00,0.0459
445.00,0.0458
444.00,0.0454
443.00,0.0450
442.00,0.0452
441.00,0.0454
440.00,0.0450
439.00,0.0446
438.00,0.0449
437.00,0.0452
436.00,0.0450
435.00,0.0450
434.00,0.0454
433.00,0.0457
432.00,0.0455
431.00,0.0455
430.00,0.0460
429.00,0.0462
428.00,0.0455
427.00,0.0449
426.00,0.0452
425.00,0.0456
424.00,0.0451
423.00,0.0446
422.00,0.0449
421.00,0.0450
420.00,0.0440
419.00,0.0430
418.00,0.0435
417.00,0.0444
416.00,0.0444
415.00,0.0444
414.00,0.0451
413.00,0.0455
412.00,0.0450
411.00,0.0448
410.00,0.0456
409.00,0.0460
408.00,0.0451
407.00,0.0445
406.00,0.0455
405.00,0.0465
404.00,0.0457
403.00,0.0445
402.00,0.0445
401.00,0.0449
400.00,0.0440
