Created as New Dataset,Sample 945 By YargerLab Date Monday, July 28 2025
cm-1,A
4000.00,0.0046
3999.00,0.0046
3998.00,0.0047
3997.00,0.0047
3996.00,0.0047
3995.00,0.0047
3994.00,0.0047
3993.00,0.0047
3992.00,0.0047
3991.00,0.0047
3990.00,0.0047
3989.00,0.0047
3988.00,0.0047
3987.00,0.0047
3986.00,0.0047
3985.00,0.0047
3984.00,0.0047
3983.00,0.0047
3982.00,0.0047
3981.00,0.0047
3980.00,0.0047
3979.00,0.0047
3978.00,0.0047
3977.00,0.0047
3976.00,0.0047
3975.00,0.0047
3974.00,0.0047
3973.00,0.0047
3972.00,0.0047
3971.00,0.0047
3970.00,0.0047
3969.00,0.0047
3968.00,0.0047
3967.00,0.0047
3966.00,0.0047
3965.00,0.0047
3964.00,0.0047
3963.00,0.0047
3962.00,0.0047
3961.00,0.0047
3960.00,0.0047
3959.00,0.0047
3958.00,0.0046
3957.00,0.0046
3956.00,0.0047
3955.00,0.0047
3954.00,0.0047
3953.00,0.0047
3952.00,0.0047
3951.00,0.0047
3950.00,0.0046
3949.00,0.0047
3948.00,0.0047
3947.00,0.0047
3946.00,0.0047
3945.00,0.0047
3944.00,0.0047
3943.00,0.0047
3942.00,0.0047
3941.00,0.0047
3940.00,0.0047
3939.00,0.0047
3938.00,0.0047
3937.00,0.0046
3936.00,0.0046
3935.00,0.0046
3934.00,0.0046
3933.00,0.0046
3932.00,0.0046
3931.00,0.0046
3930.00,0.0046
3929.00,0.0046
3928.00,0.0046
3927.00,0.0046
3926.00,0.0046
3925.00,0.0045
3924.00,0.0045
3923.00,0.0045
3922.00,0.0046
3921.00,0.0046
3920.00,0.0046
3919.00,0.0047
3918.00,0.0047
3917.00,0.0047
3916.00,0.0047
3915.00,0.0047
3914.00,0.0047
3913.00,0.0047
3912.00,0.0047
3911.00,0.0047
3910.00,0.0047
3909.00,0.0046
3908.00,0.0046
3907.00,0.0046
3906.00,0.0046
3905.00,0.0046
3904.00,0.0046
3903.00,0.0046
3902.00,0.0046
3901.00,0.0045
3900.00,0.0045
3899.00,0.0045
3898.00,0.0046
3897.00,0.0046
3896.00,0.0046
3895.00,0.0046
3894.00,0.0046
3893.00,0.0046
3892.00,0.0046
3891.00,0.0046
3890.00,0.0046
3889.00,0.0046
3888.00,0.0046
3887.00,0.0046
3886.00,0.0045
3885.00,0.0045
3884.00,0.0045
3883.00,0.0045
3882.00,0.0045
3881.00,0.0046
3880.00,0.0046
3879.00,0.0046
3878.00,0.0046
3877.00,0.0046
3876.00,0.0046
3875.00,0.0046
3874.00,0.0046
3873.00,0.0046
3872.00,0.0046
3871.00,0.0046
3870.00,0.0046
3869.00,0.0046
3868.00,0.0045
3867.00,0.0045
3866.00,0.0045
3865.00,0.0045
3864.00,0.0045
3863.00,0.0046
3862.00,0.0046
3861.00,0.0046
3860.00,0.0046
3859.00,0.0046
3858.00,0.0046
3857.00,0.0046
3856.00,0.0046
3855.00,0.0045
3854.00,0.0045
3853.00,0.0045
3852.00,0.0045
3851.00,0.0045
3850.00,0.0045
3849.00,0.0045
3848.00,0.0045
3847.00,0.0045
3846.00,0.0045
3845.00,0.0045
3844.00,0.0045
3843.00,0.0045
3842.00,0.0046
3841.00,0.0046
3840.00,0.0046
3839.00,0.0046
3838.00,0.0046
3837.00,0.0046
3836.00,0.0045
3835.00,0.0045
3834.00,0.0045
3833.00,0.0045
3832.00,0.0045
3831.00,0.0046
3830.00,0.0046
3829.00,0.0046
3828.00,0.0046
3827.00,0.0046
3826.00,0.0046
3825.00,0.0046
3824.00,0.0046
3823.00,0.0045
3822.00,0.0045
3821.00,0.0045
3820.00,0.0045
3819.00,0.0045
3818.00,0.0045
3817.00,0.0045
3816.00,0.0045
3815.00,0.0045
3814.00,0.0045
3813.00,0.0046
3812.00,0.0046
3811.00,0.0046
3810.00,0.0046
3809.00,0.0046
3808.00,0.0046
3807.00,0.0046
3806.00,0.0046
3805.00,0.0045
3804.00,0.0045
3803.00,0.0045
3802.00,0.0045
3801.00,0.0045
3800.00,0.0045
3799.00,0.0045
3798.00,0.0045
3797.00,0.0045
3796.00,0.0046
3795.00,0.0046
3794.00,0.0046
3793.00,0.0047
3792.00,0.0047
3791.00,0.0047
3790.00,0.0047
3789.00,0.0047
3788.00,0.0046
3787.00,0.0046
3786.00,0.0046
3785.00,0.0046
3784.00,0.0046
3783.00,0.0046
3782.00,0.0046
3781.00,0.0047
3780.00,0.0047
3779.00,0.0046
3778.00,0.0046
3777.00,0.0046
3776.00,0.0046
3775.00,0.0046
3774.00,0.0046
3773.00,0.0046
3772.00,0.0047
3771.00,0.0047
3770.00,0.0047
3769.00,0.0047
3768.00,0.0047
3767.00,0.0047
3766.00,0.0047
3765.00,0.0047
3764.00,0.0047
3763.00,0.0047
3762.00,0.0047
3761.00,0.0047
3760.00,0.0047
3759.00,0.0047
3758.00,0.0047
3757.00,0.0047
3756.00,0.0047
3755.00,0.0047
3754.00,0.0047
3753.00,0.0047
3752.00,0.0047
3751.00,0.0047
3750.00,0.0047
3749.00,0.0046
3748.00,0.0046
3747.00,0.0046
3746.00,0.0045
3745.00,0.0045
3744.00,0.0045
3743.00,0.0045
3742.00,0.0045
3741.00,0.0045
3740.00,0.0045
3739.00,0.0046
3738.00,0.0046
3737.00,0.0046
3736.00,0.0046
3735.00,0.0045
3734.00,0.0045
3733.00,0.0045
3732.00,0.0045
3731.00,0.0044
3730.00,0.0044
3729.00,0.0044
3728.00,0.0044
3727.00,0.0045
3726.00,0.0045
3725.00,0.0045
3724.00,0.0045
3723.00,0.0045
3722.00,0.0045
3721.00,0.0045
3720.00,0.0045
3719.00,0.0045
3718.00,0.0045
3717.00,0.0045
3716.00,0.0045
3715.00,0.0045
3714.00,0.0045
3713.00,0.0045
3712.00,0.0045
3711.00,0.0045
3710.00,0.0045
3709.00,0.0045
3708.00,0.0044
3707.00,0.0044
3706.00,0.0044
3705.00,0.0044
3704.00,0.0044
3703.00,0.0044
3702.00,0.0044
3701.00,0.0044
3700.00,0.0044
3699.00,0.0044
3698.00,0.0044
3697.00,0.0045
3696.00,0.0045
3695.00,0.0044
3694.00,0.0044
3693.00,0.0044
3692.00,0.0044
3691.00,0.0044
3690.00,0.0045
3689.00,0.0045
3688.00,0.0045
3687.00,0.0045
3686.00,0.0045
3685.00,0.0046
3684.00,0.0046
3683.00,0.0047
3682.00,0.0047
3681.00,0.0047
3680.00,0.0047
3679.00,0.0047
3678.00,0.0047
3677.00,0.0047
3676.00,0.0047
3675.00,0.0047
3674.00,0.0047
3673.00,0.0047
3672.00,0.0047
3671.00,0.0047
3670.00,0.0047
3669.00,0.0047
3668.00,0.0047
3667.00,0.0048
3666.00,0.0048
3665.00,0.0048
3664.00,0.0049
3663.00,0.0049
3662.00,0.0049
3661.00,0.0049
3660.00,0.0049
3659.00,0.0048
3658.00,0.0048
3657.00,0.0048
3656.00,0.0048
3655.00,0.0048
3654.00,0.0048
3653.00,0.0048
3652.00,0.0049
3651.00,0.0049
3650.00,0.0049
3649.00,0.0050
3648.00,0.0050
3647.00,0.0050
3646.00,0.0050
3645.00,0.0051
3644.00,0.0051
3643.00,0.0051
3642.00,0.0052
3641.00,0.0052
3640.00,0.0053
3639.00,0.0053
3638.00,0.0053
3637.00,0.0053
3636.00,0.0054
3635.00,0.0054
3634.00,0.0054
3633.00,0.0055
3632.00,0.0055
3631.00,0.0055
3630.00,0.0055
3629.00,0.0055
3628.00,0.0055
3627.00,0.0055
3626.00,0.0055
3625.00,0.0056
3624.00,0.0057
3623.00,0.0058
3622.00,0.0058
3621.00,0.0059
3620.00,0.0059
3619.00,0.0059
3618.00,0.0060
3617.00,0.0060
3616.00,0.0060
3615.00,0.0060
3614.00,0.0061
3613.00,0.0062
3612.00,0.0062
3611.00,0.0063
3610.00,0.0064
3609.00,0.0064
3608.00,0.0065
3607.00,0.0065
3606.00,0.0066
3605.00,0.0066
3604.00,0.0067
3603.00,0.0067
3602.00,0.0068
3601.00,0.0068
3600.00,0.0069
3599.00,0.0069
3598.00,0.0070
3597.00,0.0070
3596.00,0.0071
3595.00,0.0072
3594.00,0.0072
3593.00,0.0073
3592.00,0.0074
3591.00,0.0074
3590.00,0.0075
3589.00,0.0075
3588.00,0.0076
3587.00,0.0077
3586.00,0.0077
3585.00,0.0078
3584.00,0.0079
3583.00,0.0079
3582.00,0.0080
3581.00,0.0080
3580.00,0.0081
3579.00,0.0082
3578.00,0.0083
3577.00,0.0084
3576.00,0.0085
3575.00,0.0086
3574.00,0.0086
3573.00,0.0087
3572.00,0.0088
3571.00,0.0088
3570.00,0.0089
3569.00,0.0089
3568.00,0.0090
3567.00,0.0091
3566.00,0.0092
3565.00,0.0093
3564.00,0.0093
3563.00,0.0094
3562.00,0.0095
3561.00,0.0096
3560.00,0.0097
3559.00,0.0098
3558.00,0.0099
3557.00,0.0099
3556.00,0.0100
3555.00,0.0101
3554.00,0.0101
3553.00,0.0102
3552.00,0.0103
3551.00,0.0104
3550.00,0.0105
3549.00,0.0106
3548.00,0.0107
3547.00,0.0107
3546.00,0.0108
3545.00,0.0109
3544.00,0.0110
3543.00,0.0111
3542.00,0.0112
3541.00,0.0112
3540.00,0.0113
3539.00,0.0113
3538.00,0.0113
3537.00,0.0114
3536.00,0.0115
3535.00,0.0116
3534.00,0.0116
3533.00,0.0116
3532.00,0.0117
3531.00,0.0117
3530.00,0.0118
3529.00,0.0119
3528.00,0.0120
3527.00,0.0121
3526.00,0.0121
3525.00,0.0122
3524.00,0.0123
3523.00,0.0123
3522.00,0.0124
3521.00,0.0124
3520.00,0.0125
3519.00,0.0125
3518.00,0.0125
3517.00,0.0126
3516.00,0.0126
3515.00,0.0127
3514.00,0.0127
3513.00,0.0128
3512.00,0.0128
3511.00,0.0128
3510.00,0.0129
3509.00,0.0129
3508.00,0.0130
3507.00,0.0131
3506.00,0.0131
3505.00,0.0132
3504.00,0.0133
3503.00,0.0133
3502.00,0.0134
3501.00,0.0134
3500.00,0.0135
3499.00,0.0135
3498.00,0.0135
3497.00,0.0136
3496.00,0.0137
3495.00,0.0137
3494.00,0.0138
3493.00,0.0138
3492.00,0.0139
3491.00,0.0139
3490.00,0.0140
3489.00,0.0141
3488.00,0.0141
3487.00,0.0142
3486.00,0.0143
3485.00,0.0143
3484.00,0.0144
3483.00,0.0145
3482.00,0.0146
3481.00,0.0147
3480.00,0.0147
3479.00,0.0148
3478.00,0.0148
3477.00,0.0149
3476.00,0.0150
3475.00,0.0151
3474.00,0.0152
3473.00,0.0153
3472.00,0.0154
3471.00,0.0155
3470.00,0.0156
3469.00,0.0157
3468.00,0.0158
3467.00,0.0159
3466.00,0.0160
3465.00,0.0161
3464.00,0.0162
3463.00,0.0163
3462.00,0.0164
3461.00,0.0165
3460.00,0.0166
3459.00,0.0167
3458.00,0.0167
3457.00,0.0168
3456.00,0.0169
3455.00,0.0170
3454.00,0.0172
3453.00,0.0173
3452.00,0.0174
3451.00,0.0175
3450.00,0.0176
3449.00,0.0177
3448.00,0.0178
3447.00,0.0179
3446.00,0.0181
3445.00,0.0182
3444.00,0.0183
3443.00,0.0184
3442.00,0.0185
3441.00,0.0186
3440.00,0.0187
3439.00,0.0188
3438.00,0.0190
3437.00,0.0191
3436.00,0.0192
3435.00,0.0193
3434.00,0.0194
3433.00,0.0196
3432.00,0.0197
3431.00,0.0199
3430.00,0.0200
3429.00,0.0201
3428.00,0.0203
3427.00,0.0204
3426.00,0.0206
3425.00,0.0207
3424.00,0.0209
3423.00,0.0211
3422.00,0.0212
3421.00,0.0214
3420.00,0.0216
3419.00,0.0217
3418.00,0.0219
3417.00,0.0221
3416.00,0.0222
3415.00,0.0223
3414.00,0.0225
3413.00,0.0226
3412.00,0.0227
3411.00,0.0228
3410.00,0.0229
3409.00,0.0231
3408.00,0.0232
3407.00,0.0232
3406.00,0.0233
3405.00,0.0233
3404.00,0.0234
3403.00,0.0234
3402.00,0.0234
3401.00,0.0235
3400.00,0.0235
3399.00,0.0235
3398.00,0.0235
3397.00,0.0235
3396.00,0.0235
3395.00,0.0234
3394.00,0.0234
3393.00,0.0233
3392.00,0.0232
3391.00,0.0232
3390.00,0.0231
3389.00,0.0230
3388.00,0.0229
3387.00,0.0228
3386.00,0.0227
3385.00,0.0226
3384.00,0.0225
3383.00,0.0224
3382.00,0.0222
3381.00,0.0221
3380.00,0.0220
3379.00,0.0219
3378.00,0.0217
3377.00,0.0216
3376.00,0.0215
3375.00,0.0214
3374.00,0.0213
3373.00,0.0211
3372.00,0.0210
3371.00,0.0208
3370.00,0.0206
3369.00,0.0205
3368.00,0.0204
3367.00,0.0203
3366.00,0.0202
3365.00,0.0201
3364.00,0.0201
3363.00,0.0200
3362.00,0.0199
3361.00,0.0198
3360.00,0.0197
3359.00,0.0196
3358.00,0.0196
3357.00,0.0195
3356.00,0.0194
3355.00,0.0193
3354.00,0.0192
3353.00,0.0191
3352.00,0.0190
3351.00,0.0189
3350.00,0.0188
3349.00,0.0188
3348.00,0.0188
3347.00,0.0188
3346.00,0.0187
3345.00,0.0186
3344.00,0.0185
3343.00,0.0184
3342.00,0.0184
3341.00,0.0183
3340.00,0.0183
3339.00,0.0182
3338.00,0.0182
3337.00,0.0182
3336.00,0.0182
3335.00,0.0183
3334.00,0.0183
3333.00,0.0183
3332.00,0.0182
3331.00,0.0182
3330.00,0.0181
3329.00,0.0181
3328.00,0.0180
3327.00,0.0179
3326.00,0.0179
3325.00,0.0179
3324.00,0.0180
3323.00,0.0180
3322.00,0.0181
3321.00,0.0181
3320.00,0.0181
3319.00,0.0181
3318.00,0.0181
3317.00,0.0181
3316.00,0.0181
3315.00,0.0182
3314.00,0.0182
3313.00,0.0182
3312.00,0.0182
3311.00,0.0181
3310.00,0.0180
3309.00,0.0179
3308.00,0.0178
3307.00,0.0178
3306.00,0.0178
3305.00,0.0180
3304.00,0.0181
3303.00,0.0183
3302.00,0.0184
3301.00,0.0185
3300.00,0.0185
3299.00,0.0185
3298.00,0.0185
3297.00,0.0184
3296.00,0.0184
3295.00,0.0184
3294.00,0.0184
3293.00,0.0185
3292.00,0.0185
3291.00,0.0187
3290.00,0.0188
3289.00,0.0189
3288.00,0.0189
3287.00,0.0190
3286.00,0.0190
3285.00,0.0190
3284.00,0.0191
3283.00,0.0191
3282.00,0.0192
3281.00,0.0192
3280.00,0.0192
3279.00,0.0192
3278.00,0.0192
3277.00,0.0192
3276.00,0.0193
3275.00,0.0193
3274.00,0.0193
3273.00,0.0193
3272.00,0.0193
3271.00,0.0194
3270.00,0.0194
3269.00,0.0195
3268.00,0.0196
3267.00,0.0197
3266.00,0.0197
3265.00,0.0198
3264.00,0.0198
3263.00,0.0198
3262.00,0.0198
3261.00,0.0199
3260.00,0.0199
3259.00,0.0199
3258.00,0.0200
3257.00,0.0200
3256.00,0.0200
3255.00,0.0201
3254.00,0.0201
3253.00,0.0202
3252.00,0.0203
3251.00,0.0203
3250.00,0.0203
3249.00,0.0203
3248.00,0.0203
3247.00,0.0203
3246.00,0.0203
3245.00,0.0204
3244.00,0.0205
3243.00,0.0205
3242.00,0.0205
3241.00,0.0206
3240.00,0.0205
3239.00,0.0205
3238.00,0.0205
3237.00,0.0204
3236.00,0.0204
3235.00,0.0203
3234.00,0.0203
3233.00,0.0202
3232.00,0.0202
3231.00,0.0203
3230.00,0.0203
3229.00,0.0203
3228.00,0.0203
3227.00,0.0203
3226.00,0.0202
3225.00,0.0202
3224.00,0.0202
3223.00,0.0201
3222.00,0.0201
3221.00,0.0201
3220.00,0.0200
3219.00,0.0199
3218.00,0.0199
3217.00,0.0198
3216.00,0.0197
3215.00,0.0197
3214.00,0.0196
3213.00,0.0195
3212.00,0.0195
3211.00,0.0194
3210.00,0.0193
3209.00,0.0192
3208.00,0.0191
3207.00,0.0190
3206.00,0.0188
3205.00,0.0187
3204.00,0.0186
3203.00,0.0185
3202.00,0.0184
3201.00,0.0183
3200.00,0.0182
3199.00,0.0181
3198.00,0.0180
3197.00,0.0179
3196.00,0.0178
3195.00,0.0177
3194.00,0.0176
3193.00,0.0175
3192.00,0.0174
3191.00,0.0173
3190.00,0.0172
3189.00,0.0171
3188.00,0.0169
3187.00,0.0168
3186.00,0.0167
3185.00,0.0166
3184.00,0.0165
3183.00,0.0164
3182.00,0.0164
3181.00,0.0162
3180.00,0.0161
3179.00,0.0160
3178.00,0.0159
3177.00,0.0158
3176.00,0.0157
3175.00,0.0156
3174.00,0.0154
3173.00,0.0153
3172.00,0.0152
3171.00,0.0151
3170.00,0.0150
3169.00,0.0149
3168.00,0.0148
3167.00,0.0147
3166.00,0.0146
3165.00,0.0144
3164.00,0.0143
3163.00,0.0142
3162.00,0.0141
3161.00,0.0140
3160.00,0.0139
3159.00,0.0137
3158.00,0.0136
3157.00,0.0135
3156.00,0.0134
3155.00,0.0132
3154.00,0.0131
3153.00,0.0130
3152.00,0.0129
3151.00,0.0128
3150.00,0.0127
3149.00,0.0126
3148.00,0.0125
3147.00,0.0124
3146.00,0.0123
3145.00,0.0122
3144.00,0.0121
3143.00,0.0120
3142.00,0.0119
3141.00,0.0118
3140.00,0.0117
3139.00,0.0116
3138.00,0.0116
3137.00,0.0115
3136.00,0.0114
3135.00,0.0114
3134.00,0.0113
3133.00,0.0112
3132.00,0.0111
3131.00,0.0111
3130.00,0.0110
3129.00,0.0109
3128.00,0.0108
3127.00,0.0108
3126.00,0.0107
3125.00,0.0107
3124.00,0.0106
3123.00,0.0106
3122.00,0.0106
3121.00,0.0105
3120.00,0.0105
3119.00,0.0104
3118.00,0.0103
3117.00,0.0102
3116.00,0.0102
3115.00,0.0101
3114.00,0.0100
3113.00,0.0100
3112.00,0.0100
3111.00,0.0099
3110.00,0.0098
3109.00,0.0098
3108.00,0.0097
3107.00,0.0096
3106.00,0.0095
3105.00,0.0095
3104.00,0.0094
3103.00,0.0094
3102.00,0.0093
3101.00,0.0093
3100.00,0.0093
3099.00,0.0092
3098.00,0.0092
3097.00,0.0092
3096.00,0.0091
3095.00,0.0091
3094.00,0.0091
3093.00,0.0091
3092.00,0.0092
3091.00,0.0092
3090.00,0.0092
3089.00,0.0092
3088.00,0.0092
3087.00,0.0092
3086.00,0.0092
3085.00,0.0092
3084.00,0.0092
3083.00,0.0092
3082.00,0.0092
3081.00,0.0092
3080.00,0.0091
3079.00,0.0091
3078.00,0.0091
3077.00,0.0091
3076.00,0.0091
3075.00,0.0090
3074.00,0.0090
3073.00,0.0090
3072.00,0.0089
3071.00,0.0089
3070.00,0.0089
3069.00,0.0088
3068.00,0.0088
3067.00,0.0088
3066.00,0.0088
3065.00,0.0088
3064.00,0.0088
3063.00,0.0088
3062.00,0.0088
3061.00,0.0088
3060.00,0.0089
3059.00,0.0089
3058.00,0.0089
3057.00,0.0089
3056.00,0.0090
3055.00,0.0090
3054.00,0.0090
3053.00,0.0090
3052.00,0.0090
3051.00,0.0090
3050.00,0.0089
3049.00,0.0089
3048.00,0.0089
3047.00,0.0088
3046.00,0.0088
3045.00,0.0088
3044.00,0.0088
3043.00,0.0088
3042.00,0.0088
3041.00,0.0089
3040.00,0.0089
3039.00,0.0090
3038.00,0.0091
3037.00,0.0092
3036.00,0.0093
3035.00,0.0094
3034.00,0.0094
3033.00,0.0094
3032.00,0.0094
3031.00,0.0094
3030.00,0.0094
3029.00,0.0093
3028.00,0.0092
3027.00,0.0091
3026.00,0.0091
3025.00,0.0090
3024.00,0.0090
3023.00,0.0090
3022.00,0.0089
3021.00,0.0089
3020.00,0.0089
3019.00,0.0089
3018.00,0.0088
3017.00,0.0088
3016.00,0.0088
3015.00,0.0089
3014.00,0.0089
3013.00,0.0090
3012.00,0.0091
3011.00,0.0092
3010.00,0.0094
3009.00,0.0096
3008.00,0.0098
3007.00,0.0100
3006.00,0.0102
3005.00,0.0105
3004.00,0.0108
3003.00,0.0111
3002.00,0.0114
3001.00,0.0118
3000.00,0.0122
2999.00,0.0126
2998.00,0.0131
2997.00,0.0136
2996.00,0.0141
2995.00,0.0145
2994.00,0.0150
2993.00,0.0154
2992.00,0.0158
2991.00,0.0162
2990.00,0.0166
2989.00,0.0170
2988.00,0.0174
2987.00,0.0179
2986.00,0.0184
2985.00,0.0190
2984.00,0.0197
2983.00,0.0204
2982.00,0.0212
2981.00,0.0220
2980.00,0.0227
2979.00,0.0232
2978.00,0.0235
2977.00,0.0238
2976.00,0.0241
2975.00,0.0246
2974.00,0.0253
2973.00,0.0262
2972.00,0.0271
2971.00,0.0279
2970.00,0.0286
2969.00,0.0291
2968.00,0.0295
2967.00,0.0299
2966.00,0.0303
2965.00,0.0307
2964.00,0.0313
2963.00,0.0318
2962.00,0.0322
2961.00,0.0325
2960.00,0.0326
2959.00,0.0325
2958.00,0.0321
2957.00,0.0316
2956.00,0.0310
2955.00,0.0304
2954.00,0.0297
2953.00,0.0291
2952.00,0.0286
2951.00,0.0282
2950.00,0.0278
2949.00,0.0276
2948.00,0.0276
2947.00,0.0276
2946.00,0.0278
2945.00,0.0281
2944.00,0.0285
2943.00,0.0290
2942.00,0.0296
2941.00,0.0302
2940.00,0.0309
2939.00,0.0318
2938.00,0.0328
2937.00,0.0340
2936.00,0.0354
2935.00,0.0368
2934.00,0.0384
2933.00,0.0399
2932.00,0.0414
2931.00,0.0428
2930.00,0.0440
2929.00,0.0449
2928.00,0.0455
2927.00,0.0458
2926.00,0.0457
2925.00,0.0453
2924.00,0.0447
2923.00,0.0438
2922.00,0.0428
2921.00,0.0417
2920.00,0.0405
2919.00,0.0393
2918.00,0.0381
2917.00,0.0369
2916.00,0.0358
2915.00,0.0348
2914.00,0.0339
2913.00,0.0330
2912.00,0.0322
2911.00,0.0314
2910.00,0.0307
2909.00,0.0300
2908.00,0.0294
2907.00,0.0288
2906.00,0.0282
2905.00,0.0276
2904.00,0.0271
2903.00,0.0266
2902.00,0.0262
2901.00,0.0258
2900.00,0.0254
2899.00,0.0250
2898.00,0.0247
2897.00,0.0244
2896.00,0.0241
2895.00,0.0239
2894.00,0.0236
2893.00,0.0234
2892.00,0.0232
2891.00,0.0230
2890.00,0.0228
2889.00,0.0226
2888.00,0.0225
2887.00,0.0223
2886.00,0.0221
2885.00,0.0220
2884.00,0.0220
2883.00,0.0220
2882.00,0.0221
2881.00,0.0222
2880.00,0.0225
2879.00,0.0228
2878.00,0.0233
2877.00,0.0238
2876.00,0.0242
2875.00,0.0247
2874.00,0.0250
2873.00,0.0253
2872.00,0.0254
2871.00,0.0254
2870.00,0.0252
2869.00,0.0251
2868.00,0.0249
2867.00,0.0249
2866.00,0.0251
2865.00,0.0254
2864.00,0.0260
2863.00,0.0268
2862.00,0.0278
2861.00,0.0289
2860.00,0.0300
2859.00,0.0310
2858.00,0.0317
2857.00,0.0321
2856.00,0.0323
2855.00,0.0321
2854.00,0.0318
2853.00,0.0313
2852.00,0.0305
2851.00,0.0296
2850.00,0.0284
2849.00,0.0270
2848.00,0.0256
2847.00,0.0242
2846.00,0.0229
2845.00,0.0217
2844.00,0.0206
2843.00,0.0196
2842.00,0.0187
2841.00,0.0178
2840.00,0.0171
2839.00,0.0165
2838.00,0.0160
2837.00,0.0155
2836.00,0.0151
2835.00,0.0147
2834.00,0.0144
2833.00,0.0140
2832.00,0.0137
2831.00,0.0134
2830.00,0.0131
2829.00,0.0128
2828.00,0.0125
2827.00,0.0123
2826.00,0.0120
2825.00,0.0118
2824.00,0.0116
2823.00,0.0114
2822.00,0.0112
2821.00,0.0110
2820.00,0.0108
2819.00,0.0107
2818.00,0.0106
2817.00,0.0104
2816.00,0.0103
2815.00,0.0102
2814.00,0.0101
2813.00,0.0100
2812.00,0.0099
2811.00,0.0098
2810.00,0.0097
2809.00,0.0097
2808.00,0.0096
2807.00,0.0095
2806.00,0.0095
2805.00,0.0094
2804.00,0.0093
2803.00,0.0092
2802.00,0.0092
2801.00,0.0091
2800.00,0.0091
2799.00,0.0090
2798.00,0.0090
2797.00,0.0089
2796.00,0.0089
2795.00,0.0088
2794.00,0.0087
2793.00,0.0087
2792.00,0.0086
2791.00,0.0086
2790.00,0.0085
2789.00,0.0085
2788.00,0.0084
2787.00,0.0084
2786.00,0.0084
2785.00,0.0083
2784.00,0.0083
2783.00,0.0082
2782.00,0.0082
2781.00,0.0081
2780.00,0.0081
2779.00,0.0081
2778.00,0.0080
2777.00,0.0080
2776.00,0.0079
2775.00,0.0079
2774.00,0.0079
2773.00,0.0079
2772.00,0.0079
2771.00,0.0079
2770.00,0.0078
2769.00,0.0078
2768.00,0.0078
2767.00,0.0078
2766.00,0.0077
2765.00,0.0077
2764.00,0.0077
2763.00,0.0077
2762.00,0.0077
2761.00,0.0077
2760.00,0.0077
2759.00,0.0077
2758.00,0.0077
2757.00,0.0077
2756.00,0.0077
2755.00,0.0077
2754.00,0.0078
2753.00,0.0078
2752.00,0.0077
2751.00,0.0077
2750.00,0.0077
2749.00,0.0077
2748.00,0.0077
2747.00,0.0078
2746.00,0.0078
2745.00,0.0078
2744.00,0.0078
2743.00,0.0078
2742.00,0.0078
2741.00,0.0078
2740.00,0.0079
2739.00,0.0079
2738.00,0.0079
2737.00,0.0080
2736.00,0.0080
2735.00,0.0081
2734.00,0.0081
2733.00,0.0081
2732.00,0.0082
2731.00,0.0082
2730.00,0.0082
2729.00,0.0082
2728.00,0.0082
2727.00,0.0081
2726.00,0.0081
2725.00,0.0081
2724.00,0.0080
2723.00,0.0080
2722.00,0.0079
2721.00,0.0079
2720.00,0.0079
2719.00,0.0079
2718.00,0.0078
2717.00,0.0078
2716.00,0.0078
2715.00,0.0078
2714.00,0.0078
2713.00,0.0078
2712.00,0.0077
2711.00,0.0077
2710.00,0.0077
2709.00,0.0077
2708.00,0.0077
2707.00,0.0076
2706.00,0.0076
2705.00,0.0076
2704.00,0.0076
2703.00,0.0076
2702.00,0.0076
2701.00,0.0076
2700.00,0.0075
2699.00,0.0075
2698.00,0.0075
2697.00,0.0074
2696.00,0.0074
2695.00,0.0074
2694.00,0.0074
2693.00,0.0074
2692.00,0.0074
2691.00,0.0073
2690.00,0.0073
2689.00,0.0073
2688.00,0.0073
2687.00,0.0073
2686.00,0.0073
2685.00,0.0072
2684.00,0.0072
2683.00,0.0072
2682.00,0.0072
2681.00,0.0072
2680.00,0.0072
2679.00,0.0072
2678.00,0.0072
2677.00,0.0072
2676.00,0.0072
2675.00,0.0072
2674.00,0.0072
2673.00,0.0072
2672.00,0.0073
2671.00,0.0073
2670.00,0.0073
2669.00,0.0073
2668.00,0.0073
2667.00,0.0074
2666.00,0.0074
2665.00,0.0075
2664.00,0.0076
2663.00,0.0076
2662.00,0.0077
2661.00,0.0077
2660.00,0.0078
2659.00,0.0078
2658.00,0.0078
2657.00,0.0078
2656.00,0.0079
2655.00,0.0079
2654.00,0.0079
2653.00,0.0079
2652.00,0.0078
2651.00,0.0078
2650.00,0.0079
2649.00,0.0079
2648.00,0.0079
2647.00,0.0079
2646.00,0.0079
2645.00,0.0078
2644.00,0.0078
2643.00,0.0078
2642.00,0.0078
2641.00,0.0078
2640.00,0.0078
2639.00,0.0078
2638.00,0.0077
2637.00,0.0077
2636.00,0.0077
2635.00,0.0076
2634.00,0.0076
2633.00,0.0075
2632.00,0.0075
2631.00,0.0075
2630.00,0.0075
2629.00,0.0075
2628.00,0.0074
2627.00,0.0074
2626.00,0.0074
2625.00,0.0074
2624.00,0.0074
2623.00,0.0074
2622.00,0.0073
2621.00,0.0073
2620.00,0.0073
2619.00,0.0072
2618.00,0.0072
2617.00,0.0072
2616.00,0.0072
2615.00,0.0072
2614.00,0.0072
2613.00,0.0072
2612.00,0.0072
2611.00,0.0072
2610.00,0.0072
2609.00,0.0072
2608.00,0.0072
2607.00,0.0072
2606.00,0.0072
2605.00,0.0072
2604.00,0.0072
2603.00,0.0072
2602.00,0.0072
2601.00,0.0073
2600.00,0.0072
2599.00,0.0072
2598.00,0.0072
2597.00,0.0072
2596.00,0.0072
2595.00,0.0073
2594.00,0.0073
2593.00,0.0073
2592.00,0.0073
2591.00,0.0073
2590.00,0.0073
2589.00,0.0073
2588.00,0.0073
2587.00,0.0073
2586.00,0.0073
2585.00,0.0073
2584.00,0.0073
2583.00,0.0073
2582.00,0.0073
2581.00,0.0073
2580.00,0.0072
2579.00,0.0072
2578.00,0.0072
2577.00,0.0072
2576.00,0.0072
2575.00,0.0072
2574.00,0.0072
2573.00,0.0072
2572.00,0.0071
2571.00,0.0071
2570.00,0.0071
2569.00,0.0071
2568.00,0.0071
2567.00,0.0071
2566.00,0.0071
2565.00,0.0071
2564.00,0.0071
2563.00,0.0071
2562.00,0.0071
2561.00,0.0070
2560.00,0.0070
2559.00,0.0069
2558.00,0.0069
2557.00,0.0069
2556.00,0.0068
2555.00,0.0068
2554.00,0.0068
2553.00,0.0068
2552.00,0.0068
2551.00,0.0068
2550.00,0.0068
2549.00,0.0068
2548.00,0.0068
2547.00,0.0068
2546.00,0.0068
2545.00,0.0068
2544.00,0.0067
2543.00,0.0067
2542.00,0.0067
2541.00,0.0067
2540.00,0.0067
2539.00,0.0067
2538.00,0.0067
2537.00,0.0067
2536.00,0.0067
2535.00,0.0067
2534.00,0.0068
2533.00,0.0068
2532.00,0.0067
2531.00,0.0067
2530.00,0.0066
2529.00,0.0066
2528.00,0.0065
2527.00,0.0065
2526.00,0.0065
2525.00,0.0065
2524.00,0.0065
2523.00,0.0064
2522.00,0.0064
2521.00,0.0064
2520.00,0.0064
2519.00,0.0064
2518.00,0.0064
2517.00,0.0064
2516.00,0.0064
2515.00,0.0064
2514.00,0.0063
2513.00,0.0063
2512.00,0.0063
2511.00,0.0063
2510.00,0.0063
2509.00,0.0063
2508.00,0.0062
2507.00,0.0062
2506.00,0.0062
2505.00,0.0061
2504.00,0.0061
2503.00,0.0062
2502.00,0.0062
2501.00,0.0062
2500.00,0.0062
2499.00,0.0062
2498.00,0.0062
2497.00,0.0061
2496.00,0.0061
2495.00,0.0061
2494.00,0.0061
2493.00,0.0061
2492.00,0.0061
2491.00,0.0061
2490.00,0.0061
2489.00,0.0061
2488.00,0.0061
2487.00,0.0061
2486.00,0.0061
2485.00,0.0060
2484.00,0.0060
2483.00,0.0060
2482.00,0.0060
2481.00,0.0060
2480.00,0.0060
2479.00,0.0060
2478.00,0.0060
2477.00,0.0059
2476.00,0.0059
2475.00,0.0059
2474.00,0.0059
2473.00,0.0059
2472.00,0.0059
2471.00,0.0059
2470.00,0.0059
2469.00,0.0059
2468.00,0.0059
2467.00,0.0059
2466.00,0.0059
2465.00,0.0059
2464.00,0.0060
2463.00,0.0060
2462.00,0.0060
2461.00,0.0060
2460.00,0.0060
2459.00,0.0061
2458.00,0.0061
2457.00,0.0061
2456.00,0.0061
2455.00,0.0061
2454.00,0.0060
2453.00,0.0060
2452.00,0.0060
2451.00,0.0060
2450.00,0.0061
2449.00,0.0060
2448.00,0.0060
2447.00,0.0060
2446.00,0.0060
2445.00,0.0060
2444.00,0.0060
2443.00,0.0060
2442.00,0.0060
2441.00,0.0059
2440.00,0.0059
2439.00,0.0058
2438.00,0.0058
2437.00,0.0058
2436.00,0.0058
2435.00,0.0058
2434.00,0.0058
2433.00,0.0058
2432.00,0.0058
2431.00,0.0058
2430.00,0.0058
2429.00,0.0058
2428.00,0.0058
2427.00,0.0057
2426.00,0.0057
2425.00,0.0057
2424.00,0.0057
2423.00,0.0057
2422.00,0.0057
2421.00,0.0057
2420.00,0.0057
2419.00,0.0056
2418.00,0.0056
2417.00,0.0056
2416.00,0.0057
2415.00,0.0057
2414.00,0.0056
2413.00,0.0056
2412.00,0.0057
2411.00,0.0057
2410.00,0.0057
2409.00,0.0057
2408.00,0.0057
2407.00,0.0057
2406.00,0.0056
2405.00,0.0056
2404.00,0.0056
2403.00,0.0056
2402.00,0.0056
2401.00,0.0056
2400.00,0.0056
2399.00,0.0056
2398.00,0.0056
2397.00,0.0056
2396.00,0.0056
2395.00,0.0056
2394.00,0.0055
2393.00,0.0055
2392.00,0.0055
2391.00,0.0055
2390.00,0.0055
2389.00,0.0055
2388.00,0.0054
2387.00,0.0054
2386.00,0.0054
2385.00,0.0053
2384.00,0.0052
2383.00,0.0052
2382.00,0.0052
2381.00,0.0052
2380.00,0.0051
2379.00,0.0051
2378.00,0.0051
2377.00,0.0051
2376.00,0.0051
2375.00,0.0051
2374.00,0.0051
2373.00,0.0051
2372.00,0.0051
2371.00,0.0051
2370.00,0.0051
2369.00,0.0050
2368.00,0.0050
2367.00,0.0050
2366.00,0.0049
2365.00,0.0050
2364.00,0.0050
2363.00,0.0050
2362.00,0.0050
2361.00,0.0051
2360.00,0.0051
2359.00,0.0051
2358.00,0.0051
2357.00,0.0051
2356.00,0.0051
2355.00,0.0051
2354.00,0.0051
2353.00,0.0051
2352.00,0.0051
2351.00,0.0051
2350.00,0.0052
2349.00,0.0052
2348.00,0.0052
2347.00,0.0053
2346.00,0.0053
2345.00,0.0053
2344.00,0.0053
2343.00,0.0054
2342.00,0.0054
2341.00,0.0054
2340.00,0.0055
2339.00,0.0056
2338.00,0.0056
2337.00,0.0056
2336.00,0.0055
2335.00,0.0055
2334.00,0.0055
2333.00,0.0054
2332.00,0.0054
2331.00,0.0055
2330.00,0.0056
2329.00,0.0058
2328.00,0.0062
2327.00,0.0066
2326.00,0.0069
2325.00,0.0070
2324.00,0.0069
2323.00,0.0068
2322.00,0.0066
2321.00,0.0065
2320.00,0.0064
2319.00,0.0064
2318.00,0.0063
2317.00,0.0062
2316.00,0.0061
2315.00,0.0060
2314.00,0.0060
2313.00,0.0060
2312.00,0.0060
2311.00,0.0060
2310.00,0.0060
2309.00,0.0060
2308.00,0.0060
2307.00,0.0060
2306.00,0.0061
2305.00,0.0061
2304.00,0.0062
2303.00,0.0062
2302.00,0.0062
2301.00,0.0061
2300.00,0.0061
2299.00,0.0061
2298.00,0.0062
2297.00,0.0063
2296.00,0.0064
2295.00,0.0065
2294.00,0.0066
2293.00,0.0066
2292.00,0.0067
2291.00,0.0068
2290.00,0.0068
2289.00,0.0069
2288.00,0.0069
2287.00,0.0069
2286.00,0.0069
2285.00,0.0068
2284.00,0.0067
2283.00,0.0066
2282.00,0.0066
2281.00,0.0065
2280.00,0.0064
2279.00,0.0063
2278.00,0.0062
2277.00,0.0062
2276.00,0.0061
2275.00,0.0061
2274.00,0.0061
2273.00,0.0060
2272.00,0.0060
2271.00,0.0060
2270.00,0.0059
2269.00,0.0059
2268.00,0.0058
2267.00,0.0057
2266.00,0.0056
2265.00,0.0056
2264.00,0.0056
2263.00,0.0056
2262.00,0.0056
2261.00,0.0057
2260.00,0.0058
2259.00,0.0058
2258.00,0.0058
2257.00,0.0057
2256.00,0.0055
2255.00,0.0054
2254.00,0.0054
2253.00,0.0054
2252.00,0.0055
2251.00,0.0055
2250.00,0.0055
2249.00,0.0056
2248.00,0.0056
2247.00,0.0056
2246.00,0.0055
2245.00,0.0054
2244.00,0.0054
2243.00,0.0055
2242.00,0.0055
2241.00,0.0055
2240.00,0.0055
2239.00,0.0055
2238.00,0.0056
2237.00,0.0057
2236.00,0.0058
2235.00,0.0059
2234.00,0.0059
2233.00,0.0058
2232.00,0.0057
2231.00,0.0057
2230.00,0.0056
2229.00,0.0056
2228.00,0.0056
2227.00,0.0057
2226.00,0.0057
2225.00,0.0057
2224.00,0.0057
2223.00,0.0057
2222.00,0.0056
2221.00,0.0055
2220.00,0.0055
2219.00,0.0055
2218.00,0.0056
2217.00,0.0056
2216.00,0.0056
2215.00,0.0055
2214.00,0.0055
2213.00,0.0054
2212.00,0.0055
2211.00,0.0055
2210.00,0.0055
2209.00,0.0056
2208.00,0.0057
2207.00,0.0057
2206.00,0.0057
2205.00,0.0056
2204.00,0.0056
2203.00,0.0055
2202.00,0.0055
2201.00,0.0054
2200.00,0.0055
2199.00,0.0055
2198.00,0.0055
2197.00,0.0056
2196.00,0.0057
2195.00,0.0058
2194.00,0.0058
2193.00,0.0057
2192.00,0.0056
2191.00,0.0056
2190.00,0.0056
2189.00,0.0058
2188.00,0.0059
2187.00,0.0060
2186.00,0.0059
2185.00,0.0057
2184.00,0.0054
2183.00,0.0052
2182.00,0.0051
2181.00,0.0051
2180.00,0.0053
2179.00,0.0053
2178.00,0.0052
2177.00,0.0051
2176.00,0.0050
2175.00,0.0051
2174.00,0.0052
2173.00,0.0053
2172.00,0.0055
2171.00,0.0058
2170.00,0.0060
2169.00,0.0063
2168.00,0.0065
2167.00,0.0066
2166.00,0.0066
2165.00,0.0066
2164.00,0.0067
2163.00,0.0067
2162.00,0.0062
2161.00,0.0051
2160.00,0.0037
2159.00,0.0025
2158.00,0.0019
2157.00,0.0019
2156.00,0.0023
2155.00,0.0028
2154.00,0.0031
2153.00,0.0033
2152.00,0.0034
2151.00,0.0035
2150.00,0.0036
2149.00,0.0036
2148.00,0.0035
2147.00,0.0035
2146.00,0.0034
2145.00,0.0035
2144.00,0.0036
2143.00,0.0036
2142.00,0.0036
2141.00,0.0036
2140.00,0.0037
2139.00,0.0037
2138.00,0.0037
2137.00,0.0035
2136.00,0.0032
2135.00,0.0031
2134.00,0.0031
2133.00,0.0032
2132.00,0.0035
2131.00,0.0037
2130.00,0.0039
2129.00,0.0040
2128.00,0.0042
2127.00,0.0043
2126.00,0.0044
2125.00,0.0044
2124.00,0.0045
2123.00,0.0046
2122.00,0.0046
2121.00,0.0047
2120.00,0.0048
2119.00,0.0049
2118.00,0.0051
2117.00,0.0052
2116.00,0.0052
2115.00,0.0052
2114.00,0.0052
2113.00,0.0051
2112.00,0.0050
2111.00,0.0050
2110.00,0.0050
2109.00,0.0050
2108.00,0.0050
2107.00,0.0050
2106.00,0.0049
2105.00,0.0049
2104.00,0.0050
2103.00,0.0050
2102.00,0.0050
2101.00,0.0050
2100.00,0.0049
2099.00,0.0049
2098.00,0.0047
2097.00,0.0045
2096.00,0.0044
2095.00,0.0043
2094.00,0.0044
2093.00,0.0046
2092.00,0.0047
2091.00,0.0048
2090.00,0.0049
2089.00,0.0049
2088.00,0.0050
2087.00,0.0051
2086.00,0.0051
2085.00,0.0051
2084.00,0.0051
2083.00,0.0052
2082.00,0.0052
2081.00,0.0052
2080.00,0.0053
2079.00,0.0053
2078.00,0.0053
2077.00,0.0053
2076.00,0.0053
2075.00,0.0053
2074.00,0.0052
2073.00,0.0050
2072.00,0.0050
2071.00,0.0049
2070.00,0.0049
2069.00,0.0050
2068.00,0.0050
2067.00,0.0050
2066.00,0.0049
2065.00,0.0048
2064.00,0.0047
2063.00,0.0047
2062.00,0.0047
2061.00,0.0047
2060.00,0.0047
2059.00,0.0047
2058.00,0.0047
2057.00,0.0046
2056.00,0.0045
2055.00,0.0046
2054.00,0.0048
2053.00,0.0053
2052.00,0.0057
2051.00,0.0057
2050.00,0.0054
2049.00,0.0050
2048.00,0.0047
2047.00,0.0047
2046.00,0.0047
2045.00,0.0047
2044.00,0.0047
2043.00,0.0046
2042.00,0.0046
2041.00,0.0046
2040.00,0.0048
2039.00,0.0049
2038.00,0.0049
2037.00,0.0048
2036.00,0.0047
2035.00,0.0045
2034.00,0.0044
2033.00,0.0043
2032.00,0.0042
2031.00,0.0041
2030.00,0.0039
2029.00,0.0039
2028.00,0.0040
2027.00,0.0041
2026.00,0.0041
2025.00,0.0041
2024.00,0.0041
2023.00,0.0041
2022.00,0.0041
2021.00,0.0042
2020.00,0.0043
2019.00,0.0043
2018.00,0.0042
2017.00,0.0041
2016.00,0.0040
2015.00,0.0039
2014.00,0.0038
2013.00,0.0038
2012.00,0.0040
2011.00,0.0041
2010.00,0.0040
2009.00,0.0038
2008.00,0.0036
2007.00,0.0034
2006.00,0.0034
2005.00,0.0035
2004.00,0.0036
2003.00,0.0036
2002.00,0.0036
2001.00,0.0037
2000.00,0.0039
1999.00,0.0042
1998.00,0.0043
1997.00,0.0044
1996.00,0.0045
1995.00,0.0046
1994.00,0.0047
1993.00,0.0047
1992.00,0.0047
1991.00,0.0047
1990.00,0.0046
1989.00,0.0047
1988.00,0.0048
1987.00,0.0049
1986.00,0.0051
1985.00,0.0052
1984.00,0.0055
1983.00,0.0057
1982.00,0.0059
1981.00,0.0059
1980.00,0.0057
1979.00,0.0051
1978.00,0.0043
1977.00,0.0036
1976.00,0.0032
1975.00,0.0031
1974.00,0.0031
1973.00,0.0033
1972.00,0.0035
1971.00,0.0036
1970.00,0.0035
1969.00,0.0035
1968.00,0.0035
1967.00,0.0035
1966.00,0.0035
1965.00,0.0035
1964.00,0.0036
1963.00,0.0036
1962.00,0.0035
1961.00,0.0034
1960.00,0.0033
1959.00,0.0033
1958.00,0.0033
1957.00,0.0034
1956.00,0.0035
1955.00,0.0035
1954.00,0.0035
1953.00,0.0036
1952.00,0.0037
1951.00,0.0038
1950.00,0.0038
1949.00,0.0038
1948.00,0.0037
1947.00,0.0036
1946.00,0.0035
1945.00,0.0036
1944.00,0.0038
1943.00,0.0040
1942.00,0.0040
1941.00,0.0040
1940.00,0.0040
1939.00,0.0040
1938.00,0.0040
1937.00,0.0039
1936.00,0.0039
1935.00,0.0039
1934.00,0.0040
1933.00,0.0041
1932.00,0.0041
1931.00,0.0042
1930.00,0.0041
1929.00,0.0040
1928.00,0.0040
1927.00,0.0040
1926.00,0.0041
1925.00,0.0043
1924.00,0.0045
1923.00,0.0046
1922.00,0.0046
1921.00,0.0045
1920.00,0.0045
1919.00,0.0045
1918.00,0.0045
1917.00,0.0045
1916.00,0.0045
1915.00,0.0046
1914.00,0.0047
1913.00,0.0048
1912.00,0.0050
1911.00,0.0053
1910.00,0.0055
1909.00,0.0056
1908.00,0.0056
1907.00,0.0055
1906.00,0.0053
1905.00,0.0051
1904.00,0.0050
1903.00,0.0049
1902.00,0.0048
1901.00,0.0048
1900.00,0.0048
1899.00,0.0048
1898.00,0.0048
1897.00,0.0049
1896.00,0.0050
1895.00,0.0051
1894.00,0.0051
1893.00,0.0051
1892.00,0.0051
1891.00,0.0051
1890.00,0.0050
1889.00,0.0048
1888.00,0.0047
1887.00,0.0047
1886.00,0.0047
1885.00,0.0047
1884.00,0.0047
1883.00,0.0047
1882.00,0.0046
1881.00,0.0046
1880.00,0.0046
1879.00,0.0047
1878.00,0.0047
1877.00,0.0047
1876.00,0.0047
1875.00,0.0047
1874.00,0.0047
1873.00,0.0047
1872.00,0.0048
1871.00,0.0048
1870.00,0.0049
1869.00,0.0049
1868.00,0.0048
1867.00,0.0048
1866.00,0.0047
1865.00,0.0047
1864.00,0.0048
1863.00,0.0048
1862.00,0.0048
1861.00,0.0048
1860.00,0.0048
1859.00,0.0048
1858.00,0.0048
1857.00,0.0048
1856.00,0.0048
1855.00,0.0048
1854.00,0.0048
1853.00,0.0048
1852.00,0.0049
1851.00,0.0051
1850.00,0.0052
1849.00,0.0053
1848.00,0.0053
1847.00,0.0053
1846.00,0.0052
1845.00,0.0051
1844.00,0.0050
1843.00,0.0050
1842.00,0.0050
1841.00,0.0050
1840.00,0.0051
1839.00,0.0051
1838.00,0.0051
1837.00,0.0050
1836.00,0.0050
1835.00,0.0050
1834.00,0.0050
1833.00,0.0050
1832.00,0.0050
1831.00,0.0050
1830.00,0.0049
1829.00,0.0048
1828.00,0.0048
1827.00,0.0049
1826.00,0.0050
1825.00,0.0050
1824.00,0.0050
1823.00,0.0050
1822.00,0.0049
1821.00,0.0049
1820.00,0.0049
1819.00,0.0048
1818.00,0.0047
1817.00,0.0047
1816.00,0.0047
1815.00,0.0048
1814.00,0.0049
1813.00,0.0051
1812.00,0.0051
1811.00,0.0051
1810.00,0.0050
1809.00,0.0050
1808.00,0.0050
1807.00,0.0050
1806.00,0.0051
1805.00,0.0051
1804.00,0.0052
1803.00,0.0053
1802.00,0.0053
1801.00,0.0053
1800.00,0.0053
1799.00,0.0053
1798.00,0.0054
1797.00,0.0054
1796.00,0.0055
1795.00,0.0054
1794.00,0.0053
1793.00,0.0053
1792.00,0.0053
1791.00,0.0053
1790.00,0.0053
1789.00,0.0054
1788.00,0.0055
1787.00,0.0055
1786.00,0.0055
1785.00,0.0055
1784.00,0.0055
1783.00,0.0056
1782.00,0.0056
1781.00,0.0057
1780.00,0.0057
1779.00,0.0057
1778.00,0.0057
1777.00,0.0058
1776.00,0.0059
1775.00,0.0059
1774.00,0.0059
1773.00,0.0058
1772.00,0.0058
1771.00,0.0058
1770.00,0.0058
1769.00,0.0058
1768.00,0.0058
1767.00,0.0058
1766.00,0.0058
1765.00,0.0059
1764.00,0.0059
1763.00,0.0060
1762.00,0.0060
1761.00,0.0061
1760.00,0.0062
1759.00,0.0063
1758.00,0.0063
1757.00,0.0062
1756.00,0.0062
1755.00,0.0062
1754.00,0.0063
1753.00,0.0063
1752.00,0.0065
1751.00,0.0065
1750.00,0.0066
1749.00,0.0066
1748.00,0.0067
1747.00,0.0068
1746.00,0.0068
1745.00,0.0069
1744.00,0.0069
1743.00,0.0068
1742.00,0.0066
1741.00,0.0066
1740.00,0.0066
1739.00,0.0066
1738.00,0.0067
1737.00,0.0067
1736.00,0.0067
1735.00,0.0068
1734.00,0.0069
1733.00,0.0072
1732.00,0.0075
1731.00,0.0078
1730.00,0.0079
1729.00,0.0080
1728.00,0.0081
1727.00,0.0083
1726.00,0.0085
1725.00,0.0087
1724.00,0.0090
1723.00,0.0091
1722.00,0.0091
1721.00,0.0092
1720.00,0.0093
1719.00,0.0096
1718.00,0.0098
1717.00,0.0101
1716.00,0.0104
1715.00,0.0107
1714.00,0.0110
1713.00,0.0114
1712.00,0.0119
1711.00,0.0123
1710.00,0.0128
1709.00,0.0132
1708.00,0.0138
1707.00,0.0145
1706.00,0.0153
1705.00,0.0161
1704.00,0.0168
1703.00,0.0173
1702.00,0.0179
1701.00,0.0193
1700.00,0.0214
1699.00,0.0236
1698.00,0.0254
1697.00,0.0271
1696.00,0.0292
1695.00,0.0315
1694.00,0.0337
1693.00,0.0357
1692.00,0.0377
1691.00,0.0400
1690.00,0.0423
1689.00,0.0445
1688.00,0.0465
1687.00,0.0483
1686.00,0.0501
1685.00,0.0528
1684.00,0.0560
1683.00,0.0589
1682.00,0.0612
1681.00,0.0631
1680.00,0.0648
1679.00,0.0664
1678.00,0.0677
1677.00,0.0691
1676.00,0.0709
1675.00,0.0731
1674.00,0.0750
1673.00,0.0765
1672.00,0.0778
1671.00,0.0791
1670.00,0.0805
1669.00,0.0820
1668.00,0.0834
1667.00,0.0845
1666.00,0.0852
1665.00,0.0859
1664.00,0.0867
1663.00,0.0878
1662.00,0.0888
1661.00,0.0896
1660.00,0.0902
1659.00,0.0907
1658.00,0.0909
1657.00,0.0909
1656.00,0.0907
1655.00,0.0904
1654.00,0.0903
1653.00,0.0903
1652.00,0.0903
1651.00,0.0900
1650.00,0.0892
1649.00,0.0882
1648.00,0.0868
1647.00,0.0851
1646.00,0.0831
1645.00,0.0812
1644.00,0.0795
1643.00,0.0777
1642.00,0.0757
1641.00,0.0735
1640.00,0.0713
1639.00,0.0692
1638.00,0.0670
1637.00,0.0647
1636.00,0.0624
1635.00,0.0606
1634.00,0.0595
1633.00,0.0589
1632.00,0.0589
1631.00,0.0592
1630.00,0.0601
1629.00,0.0618
1628.00,0.0641
1627.00,0.0665
1626.00,0.0686
1625.00,0.0705
1624.00,0.0721
1623.00,0.0733
1622.00,0.0736
1621.00,0.0729
1620.00,0.0714
1619.00,0.0691
1618.00,0.0661
1617.00,0.0625
1616.00,0.0593
1615.00,0.0572
1614.00,0.0560
1613.00,0.0554
1612.00,0.0550
1611.00,0.0546
1610.00,0.0537
1609.00,0.0521
1608.00,0.0500
1607.00,0.0474
1606.00,0.0447
1605.00,0.0419
1604.00,0.0393
1603.00,0.0368
1602.00,0.0346
1601.00,0.0327
1600.00,0.0311
1599.00,0.0298
1598.00,0.0288
1597.00,0.0282
1596.00,0.0278
1595.00,0.0279
1594.00,0.0283
1593.00,0.0292
1592.00,0.0306
1591.00,0.0325
1590.00,0.0348
1589.00,0.0372
1588.00,0.0396
1587.00,0.0417
1586.00,0.0434
1585.00,0.0444
1584.00,0.0448
1583.00,0.0447
1582.00,0.0440
1581.00,0.0429
1580.00,0.0416
1579.00,0.0402
1578.00,0.0385
1577.00,0.0367
1576.00,0.0347
1575.00,0.0329
1574.00,0.0316
1573.00,0.0305
1572.00,0.0296
1571.00,0.0288
1570.00,0.0281
1569.00,0.0274
1568.00,0.0267
1567.00,0.0259
1566.00,0.0249
1565.00,0.0237
1564.00,0.0224
1563.00,0.0211
1562.00,0.0198
1561.00,0.0185
1560.00,0.0175
1559.00,0.0164
1558.00,0.0156
1557.00,0.0154
1556.00,0.0154
1555.00,0.0153
1554.00,0.0151
1553.00,0.0149
1552.00,0.0148
1551.00,0.0147
1550.00,0.0145
1549.00,0.0142
1548.00,0.0140
1547.00,0.0138
1546.00,0.0138
1545.00,0.0137
1544.00,0.0134
1543.00,0.0131
1542.00,0.0129
1541.00,0.0128
1540.00,0.0125
1539.00,0.0123
1538.00,0.0123
1537.00,0.0124
1536.00,0.0124
1535.00,0.0124
1534.00,0.0124
1533.00,0.0123
1532.00,0.0122
1531.00,0.0123
1530.00,0.0124
1529.00,0.0125
1528.00,0.0125
1527.00,0.0126
1526.00,0.0126
1525.00,0.0126
1524.00,0.0127
1523.00,0.0129
1522.00,0.0131
1521.00,0.0133
1520.00,0.0135
1519.00,0.0140
1518.00,0.0146
1517.00,0.0151
1516.00,0.0155
1515.00,0.0159
1514.00,0.0164
1513.00,0.0169
1512.00,0.0174
1511.00,0.0180
1510.00,0.0185
1509.00,0.0190
1508.00,0.0193
1507.00,0.0195
1506.00,0.0198
1505.00,0.0206
1504.00,0.0217
1503.00,0.0229
1502.00,0.0242
1501.00,0.0260
1500.00,0.0282
1499.00,0.0310
1498.00,0.0342
1497.00,0.0371
1496.00,0.0390
1495.00,0.0394
1494.00,0.0387
1493.00,0.0373
1492.00,0.0355
1491.00,0.0336
1490.00,0.0314
1489.00,0.0293
1488.00,0.0272
1487.00,0.0254
1486.00,0.0239
1485.00,0.0226
1484.00,0.0216
1483.00,0.0207
1482.00,0.0200
1481.00,0.0195
1480.00,0.0192
1479.00,0.0190
1478.00,0.0191
1477.00,0.0195
1476.00,0.0200
1475.00,0.0208
1474.00,0.0219
1473.00,0.0237
1472.00,0.0261
1471.00,0.0291
1470.00,0.0324
1469.00,0.0359
1468.00,0.0394
1467.00,0.0428
1466.00,0.0459
1465.00,0.0485
1464.00,0.0504
1463.00,0.0516
1462.00,0.0524
1461.00,0.0528
1460.00,0.0529
1459.00,0.0525
1458.00,0.0516
1457.00,0.0499
1456.00,0.0480
1455.00,0.0462
1454.00,0.0448
1453.00,0.0437
1452.00,0.0429
1451.00,0.0426
1450.00,0.0427
1449.00,0.0433
1448.00,0.0443
1447.00,0.0456
1446.00,0.0473
1445.00,0.0493
1444.00,0.0516
1443.00,0.0540
1442.00,0.0564
1441.00,0.0587
1440.00,0.0607
1439.00,0.0623
1438.00,0.0641
1437.00,0.0663
1436.00,0.0687
1435.00,0.0707
1434.00,0.0723
1433.00,0.0736
1432.00,0.0749
1431.00,0.0762
1430.00,0.0774
1429.00,0.0786
1428.00,0.0796
1427.00,0.0806
1426.00,0.0815
1425.00,0.0824
1424.00,0.0831
1423.00,0.0833
1422.00,0.0829
1421.00,0.0820
1420.00,0.0804
1419.00,0.0781
1418.00,0.0750
1417.00,0.0717
1416.00,0.0682
1415.00,0.0646
1414.00,0.0612
1413.00,0.0581
1412.00,0.0555
1411.00,0.0535
1410.00,0.0521
1409.00,0.0513
1408.00,0.0511
1407.00,0.0514
1406.00,0.0523
1405.00,0.0535
1404.00,0.0548
1403.00,0.0558
1402.00,0.0565
1401.00,0.0567
1400.00,0.0565
1399.00,0.0556
1398.00,0.0541
1397.00,0.0520
1396.00,0.0496
1395.00,0.0469
1394.00,0.0443
1393.00,0.0421
1392.00,0.0403
1391.00,0.0392
1390.00,0.0388
1389.00,0.0392
1388.00,0.0404
1387.00,0.0416
1386.00,0.0422
1385.00,0.0420
1384.00,0.0414
1383.00,0.0411
1382.00,0.0413
1381.00,0.0419
1380.00,0.0425
1379.00,0.0431
1378.00,0.0434
1377.00,0.0433
1376.00,0.0427
1375.00,0.0417
1374.00,0.0404
1373.00,0.0392
1372.00,0.0383
1371.00,0.0380
1370.00,0.0384
1369.00,0.0394
1368.00,0.0408
1367.00,0.0425
1366.00,0.0438
1365.00,0.0447
1364.00,0.0451
1363.00,0.0457
1362.00,0.0467
1361.00,0.0478
1360.00,0.0484
1359.00,0.0476
1358.00,0.0457
1357.00,0.0432
1356.00,0.0408
1355.00,0.0389
1354.00,0.0375
1353.00,0.0365
1352.00,0.0359
1351.00,0.0355
1350.00,0.0354
1349.00,0.0353
1348.00,0.0353
1347.00,0.0351
1346.00,0.0348
1345.00,0.0342
1344.00,0.0335
1343.00,0.0328
1342.00,0.0320
1341.00,0.0312
1340.00,0.0303
1339.00,0.0295
1338.00,0.0288
1337.00,0.0285
1336.00,0.0284
1335.00,0.0287
1334.00,0.0292
1333.00,0.0299
1332.00,0.0307
1331.00,0.0313
1330.00,0.0319
1329.00,0.0324
1328.00,0.0329
1327.00,0.0332
1326.00,0.0336
1325.00,0.0340
1324.00,0.0344
1323.00,0.0350
1322.00,0.0356
1321.00,0.0362
1320.00,0.0368
1319.00,0.0372
1318.00,0.0374
1317.00,0.0373
1316.00,0.0370
1315.00,0.0366
1314.00,0.0361
1313.00,0.0357
1312.00,0.0353
1311.00,0.0351
1310.00,0.0352
1309.00,0.0356
1308.00,0.0363
1307.00,0.0374
1306.00,0.0390
1305.00,0.0411
1304.00,0.0435
1303.00,0.0461
1302.00,0.0486
1301.00,0.0507
1300.00,0.0523
1299.00,0.0536
1298.00,0.0549
1297.00,0.0567
1296.00,0.0590
1295.00,0.0617
1294.00,0.0647
1293.00,0.0677
1292.00,0.0706
1291.00,0.0733
1290.00,0.0760
1289.00,0.0787
1288.00,0.0813
1287.00,0.0837
1286.00,0.0859
1285.00,0.0874
1284.00,0.0881
1283.00,0.0879
1282.00,0.0868
1281.00,0.0850
1280.00,0.0827
1279.00,0.0804
1278.00,0.0782
1277.00,0.0766
1276.00,0.0754
1275.00,0.0748
1274.00,0.0745
1273.00,0.0743
1272.00,0.0740
1271.00,0.0736
1270.00,0.0728
1269.00,0.0718
1268.00,0.0705
1267.00,0.0689
1266.00,0.0670
1265.00,0.0649
1264.00,0.0626
1263.00,0.0601
1262.00,0.0577
1261.00,0.0552
1260.00,0.0529
1259.00,0.0507
1258.00,0.0487
1257.00,0.0469
1256.00,0.0453
1255.00,0.0439
1254.00,0.0428
1253.00,0.0419
1252.00,0.0412
1251.00,0.0409
1250.00,0.0409
1249.00,0.0413
1248.00,0.0419
1247.00,0.0428
1246.00,0.0439
1245.00,0.0449
1244.00,0.0459
1243.00,0.0468
1242.00,0.0475
1241.00,0.0483
1240.00,0.0493
1239.00,0.0507
1238.00,0.0523
1237.00,0.0542
1236.00,0.0561
1235.00,0.0577
1234.00,0.0589
1233.00,0.0593
1232.00,0.0591
1231.00,0.0582
1230.00,0.0570
1229.00,0.0555
1228.00,0.0540
1227.00,0.0526
1226.00,0.0513
1225.00,0.0502
1224.00,0.0492
1223.00,0.0484
1222.00,0.0479
1221.00,0.0476
1220.00,0.0476
1219.00,0.0478
1218.00,0.0482
1217.00,0.0486
1216.00,0.0491
1215.00,0.0493
1214.00,0.0491
1213.00,0.0483
1212.00,0.0470
1211.00,0.0453
1210.00,0.0435
1209.00,0.0418
1208.00,0.0403
1207.00,0.0392
1206.00,0.0385
1205.00,0.0382
1204.00,0.0385
1203.00,0.0392
1202.00,0.0404
1201.00,0.0419
1200.00,0.0437
1199.00,0.0457
1198.00,0.0479
1197.00,0.0501
1196.00,0.0519
1195.00,0.0531
1194.00,0.0533
1193.00,0.0527
1192.00,0.0513
1191.00,0.0493
1190.00,0.0470
1189.00,0.0445
1188.00,0.0420
1187.00,0.0396
1186.00,0.0375
1185.00,0.0357
1184.00,0.0341
1183.00,0.0329
1182.00,0.0319
1181.00,0.0312
1180.00,0.0307
1179.00,0.0303
1178.00,0.0301
1177.00,0.0300
1176.00,0.0300
1175.00,0.0300
1174.00,0.0302
1173.00,0.0304
1172.00,0.0305
1171.00,0.0307
1170.00,0.0309
1169.00,0.0310
1168.00,0.0310
1167.00,0.0311
1166.00,0.0313
1165.00,0.0315
1164.00,0.0318
1163.00,0.0323
1162.00,0.0332
1161.00,0.0346
1160.00,0.0365
1159.00,0.0391
1158.00,0.0424
1157.00,0.0459
1156.00,0.0489
1155.00,0.0507
1154.00,0.0508
1153.00,0.0489
1152.00,0.0454
1151.00,0.0412
1150.00,0.0371
1149.00,0.0336
1148.00,0.0308
1147.00,0.0289
1146.00,0.0275
1145.00,0.0266
1144.00,0.0258
1143.00,0.0253
1142.00,0.0249
1141.00,0.0248
1140.00,0.0247
1139.00,0.0250
1138.00,0.0256
1137.00,0.0266
1136.00,0.0280
1135.00,0.0302
1134.00,0.0332
1133.00,0.0371
1132.00,0.0416
1131.00,0.0462
1130.00,0.0502
1129.00,0.0529
1128.00,0.0539
1127.00,0.0534
1126.00,0.0518
1125.00,0.0493
1124.00,0.0463
1123.00,0.0430
1122.00,0.0397
1121.00,0.0367
1120.00,0.0342
1119.00,0.0324
1118.00,0.0311
1117.00,0.0304
1116.00,0.0299
1115.00,0.0296
1114.00,0.0294
1113.00,0.0291
1112.00,0.0285
1111.00,0.0279
1110.00,0.0273
1109.00,0.0268
1108.00,0.0266
1107.00,0.0267
1106.00,0.0272
1105.00,0.0283
1104.00,0.0299
1103.00,0.0322
1102.00,0.0348
1101.00,0.0372
1100.00,0.0387
1099.00,0.0390
1098.00,0.0381
1097.00,0.0361
1096.00,0.0336
1095.00,0.0310
1094.00,0.0287
1093.00,0.0268
1092.00,0.0252
1091.00,0.0241
1090.00,0.0232
1089.00,0.0226
1088.00,0.0221
1087.00,0.0218
1086.00,0.0216
1085.00,0.0215
1084.00,0.0213
1083.00,0.0213
1082.00,0.0213
1081.00,0.0213
1080.00,0.0214
1079.00,0.0216
1078.00,0.0219
1077.00,0.0221
1076.00,0.0223
1075.00,0.0225
1074.00,0.0228
1073.00,0.0231
1072.00,0.0233
1071.00,0.0237
1070.00,0.0240
1069.00,0.0245
1068.00,0.0249
1067.00,0.0255
1066.00,0.0263
1065.00,0.0273
1064.00,0.0286
1063.00,0.0302
1062.00,0.0324
1061.00,0.0353
1060.00,0.0388
1059.00,0.0430
1058.00,0.0479
1057.00,0.0530
1056.00,0.0578
1055.00,0.0617
1054.00,0.0646
1053.00,0.0664
1052.00,0.0675
1051.00,0.0679
1050.00,0.0679
1049.00,0.0672
1048.00,0.0656
1047.00,0.0631
1046.00,0.0600
1045.00,0.0564
1044.00,0.0525
1043.00,0.0488
1042.00,0.0454
1041.00,0.0424
1040.00,0.0401
1039.00,0.0386
1038.00,0.0378
1037.00,0.0376
1036.00,0.0378
1035.00,0.0382
1034.00,0.0390
1033.00,0.0402
1032.00,0.0422
1031.00,0.0453
1030.00,0.0493
1029.00,0.0539
1028.00,0.0579
1027.00,0.0605
1026.00,0.0611
1025.00,0.0594
1024.00,0.0562
1023.00,0.0522
1022.00,0.0482
1021.00,0.0446
1020.00,0.0415
1019.00,0.0389
1018.00,0.0367
1017.00,0.0348
1016.00,0.0331
1015.00,0.0316
1014.00,0.0302
1013.00,0.0291
1012.00,0.0283
1011.00,0.0279
1010.00,0.0281
1009.00,0.0288
1008.00,0.0299
1007.00,0.0315
1006.00,0.0332
1005.00,0.0348
1004.00,0.0359
1003.00,0.0365
1002.00,0.0365
1001.00,0.0359
1000.00,0.0350
999.00,0.0340
998.00,0.0330
997.00,0.0321
996.00,0.0312
995.00,0.0304
994.00,0.0298
993.00,0.0290
992.00,0.0280
991.00,0.0269
990.00,0.0258
989.00,0.0248
988.00,0.0238
987.00,0.0230
986.00,0.0223
985.00,0.0217
984.00,0.0212
983.00,0.0207
982.00,0.0205
981.00,0.0203
980.00,0.0202
979.00,0.0201
978.00,0.0200
977.00,0.0200
976.00,0.0199
975.00,0.0198
974.00,0.0198
973.00,0.0197
972.00,0.0196
971.00,0.0194
970.00,0.0193
969.00,0.0192
968.00,0.0191
967.00,0.0191
966.00,0.0192
965.00,0.0194
964.00,0.0197
963.00,0.0199
962.00,0.0201
961.00,0.0199
960.00,0.0194
959.00,0.0187
958.00,0.0181
957.00,0.0175
956.00,0.0170
955.00,0.0166
954.00,0.0163
953.00,0.0161
952.00,0.0159
951.00,0.0159
950.00,0.0162
949.00,0.0165
948.00,0.0168
947.00,0.0169
946.00,0.0169
945.00,0.0169
944.00,0.0171
943.00,0.0175
942.00,0.0181
941.00,0.0188
940.00,0.0195
939.00,0.0202
938.00,0.0209
937.00,0.0216
936.00,0.0222
935.00,0.0229
934.00,0.0235
933.00,0.0239
932.00,0.0239
931.00,0.0236
930.00,0.0231
929.00,0.0225
928.00,0.0221
927.00,0.0219
926.00,0.0220
925.00,0.0224
924.00,0.0229
923.00,0.0235
922.00,0.0239
921.00,0.0238
920.00,0.0232
919.00,0.0222
918.00,0.0210
917.00,0.0199
916.00,0.0190
915.00,0.0183
914.00,0.0178
913.00,0.0174
912.00,0.0171
911.00,0.0169
910.00,0.0169
909.00,0.0169
908.00,0.0170
907.00,0.0173
906.00,0.0177
905.00,0.0184
904.00,0.0193
903.00,0.0206
902.00,0.0221
901.00,0.0237
900.00,0.0248
899.00,0.0254
898.00,0.0254
897.00,0.0247
896.00,0.0237
895.00,0.0228
894.00,0.0225
893.00,0.0228
892.00,0.0237
891.00,0.0248
890.00,0.0254
889.00,0.0249
888.00,0.0234
887.00,0.0216
886.00,0.0200
885.00,0.0190
884.00,0.0184
883.00,0.0182
882.00,0.0183
881.00,0.0186
880.00,0.0192
879.00,0.0201
878.00,0.0217
877.00,0.0238
876.00,0.0265
875.00,0.0297
874.00,0.0333
873.00,0.0371
872.00,0.0407
871.00,0.0435
870.00,0.0451
869.00,0.0451
868.00,0.0439
867.00,0.0419
866.00,0.0397
865.00,0.0376
864.00,0.0355
863.00,0.0335
862.00,0.0317
861.00,0.0301
860.00,0.0290
859.00,0.0285
858.00,0.0289
857.00,0.0301
856.00,0.0319
855.00,0.0341
854.00,0.0363
853.00,0.0385
852.00,0.0407
851.00,0.0430
850.00,0.0451
849.00,0.0463
848.00,0.0463
847.00,0.0452
846.00,0.0435
845.00,0.0416
844.00,0.0398
843.00,0.0384
842.00,0.0373
841.00,0.0367
840.00,0.0366
839.00,0.0372
838.00,0.0386
837.00,0.0405
836.00,0.0425
835.00,0.0441
834.00,0.0451
833.00,0.0453
832.00,0.0444
831.00,0.0427
830.00,0.0402
829.00,0.0372
828.00,0.0341
827.00,0.0313
826.00,0.0294
825.00,0.0288
824.00,0.0300
823.00,0.0334
822.00,0.0387
821.00,0.0441
820.00,0.0480
819.00,0.0501
818.00,0.0517
817.00,0.0537
816.00,0.0551
815.00,0.0540
814.00,0.0497
813.00,0.0434
812.00,0.0371
811.00,0.0321
810.00,0.0285
809.00,0.0260
808.00,0.0241
807.00,0.0227
806.00,0.0216
805.00,0.0207
804.00,0.0201
803.00,0.0196
802.00,0.0192
801.00,0.0189
800.00,0.0186
799.00,0.0184
798.00,0.0183
797.00,0.0182
796.00,0.0180
795.00,0.0179
794.00,0.0179
793.00,0.0179
792.00,0.0178
791.00,0.0177
790.00,0.0177
789.00,0.0177
788.00,0.0177
787.00,0.0177
786.00,0.0178
785.00,0.0178
784.00,0.0179
783.00,0.0180
782.00,0.0182
781.00,0.0184
780.00,0.0186
779.00,0.0189
778.00,0.0197
777.00,0.0207
776.00,0.0220
775.00,0.0231
774.00,0.0237
773.00,0.0235
772.00,0.0228
771.00,0.0219
770.00,0.0214
769.00,0.0210
768.00,0.0209
767.00,0.0209
766.00,0.0210
765.00,0.0213
764.00,0.0218
763.00,0.0224
762.00,0.0232
761.00,0.0240
760.00,0.0247
759.00,0.0251
758.00,0.0253
757.00,0.0254
756.00,0.0252
755.00,0.0252
754.00,0.0253
753.00,0.0255
752.00,0.0257
751.00,0.0259
750.00,0.0263
749.00,0.0267
748.00,0.0270
747.00,0.0274
746.00,0.0278
745.00,0.0284
744.00,0.0290
743.00,0.0297
742.00,0.0306
741.00,0.0318
740.00,0.0332
739.00,0.0352
738.00,0.0379
737.00,0.0410
736.00,0.0438
735.00,0.0457
734.00,0.0464
733.00,0.0459
732.00,0.0448
731.00,0.0441
730.00,0.0439
729.00,0.0438
728.00,0.0431
727.00,0.0417
726.00,0.0396
725.00,0.0372
724.00,0.0349
723.00,0.0331
722.00,0.0320
721.00,0.0314
720.00,0.0312
719.00,0.0316
718.00,0.0324
717.00,0.0334
716.00,0.0343
715.00,0.0348
714.00,0.0349
713.00,0.0345
712.00,0.0338
711.00,0.0330
710.00,0.0325
709.00,0.0320
708.00,0.0316
707.00,0.0315
706.00,0.0315
705.00,0.0318
704.00,0.0322
703.00,0.0327
702.00,0.0334
701.00,0.0341
700.00,0.0348
699.00,0.0354
698.00,0.0358
697.00,0.0360
696.00,0.0358
695.00,0.0355
694.00,0.0353
693.00,0.0353
692.00,0.0358
691.00,0.0367
690.00,0.0380
689.00,0.0393
688.00,0.0401
687.00,0.0403
686.00,0.0401
685.00,0.0396
684.00,0.0390
683.00,0.0386
682.00,0.0386
681.00,0.0389
680.00,0.0393
679.00,0.0399
678.00,0.0408
677.00,0.0419
676.00,0.0430
675.00,0.0443
674.00,0.0458
673.00,0.0472
672.00,0.0482
671.00,0.0490
670.00,0.0495
669.00,0.0497
668.00,0.0499
667.00,0.0502
666.00,0.0506
665.00,0.0510
664.00,0.0517
663.00,0.0526
662.00,0.0537
661.00,0.0544
660.00,0.0548
659.00,0.0548
658.00,0.0546
657.00,0.0544
656.00,0.0542
655.00,0.0543
654.00,0.0545
653.00,0.0549
652.00,0.0552
651.00,0.0555
650.00,0.0557
649.00,0.0558
648.00,0.0556
647.00,0.0554
646.00,0.0552
645.00,0.0550
644.00,0.0545
643.00,0.0541
642.00,0.0536
641.00,0.0531
640.00,0.0525
639.00,0.0518
638.00,0.0513
637.00,0.0509
636.00,0.0505
635.00,0.0501
634.00,0.0498
633.00,0.0494
632.00,0.0490
631.00,0.0486
630.00,0.0485
629.00,0.0484
628.00,0.0484
627.00,0.0485
626.00,0.0489
625.00,0.0493
624.00,0.0497
623.00,0.0502
622.00,0.0510
621.00,0.0517
620.00,0.0521
619.00,0.0521
618.00,0.0518
617.00,0.0511
616.00,0.0501
615.00,0.0490
614.00,0.0481
613.00,0.0475
612.00,0.0470
611.00,0.0469
610.00,0.0475
609.00,0.0486
608.00,0.0501
607.00,0.0519
606.00,0.0540
605.00,0.0561
604.00,0.0578
603.00,0.0592
602.00,0.0602
601.00,0.0608
600.00,0.0609
599.00,0.0609
598.00,0.0609
597.00,0.0610
596.00,0.0611
595.00,0.0613
594.00,0.0616
593.00,0.0617
592.00,0.0616
591.00,0.0614
590.00,0.0613
589.00,0.0612
588.00,0.0611
587.00,0.0613
586.00,0.0618
585.00,0.0625
584.00,0.0633
583.00,0.0641
582.00,0.0651
581.00,0.0662
580.00,0.0674
579.00,0.0691
578.00,0.0713
577.00,0.0732
576.00,0.0742
575.00,0.0741
574.00,0.0730
573.00,0.0714
572.00,0.0697
571.00,0.0682
570.00,0.0672
569.00,0.0664
568.00,0.0658
567.00,0.0655
566.00,0.0656
565.00,0.0660
564.00,0.0664
563.00,0.0671
562.00,0.0682
561.00,0.0692
560.00,0.0696
559.00,0.0694
558.00,0.0687
557.00,0.0675
556.00,0.0661
555.00,0.0648
554.00,0.0639
553.00,0.0634
552.00,0.0633
551.00,0.0637
550.00,0.0647
549.00,0.0658
548.00,0.0669
547.00,0.0678
546.00,0.0684
545.00,0.0684
544.00,0.0675
543.00,0.0661
542.00,0.0647
541.00,0.0634
540.00,0.0621
539.00,0.0613
538.00,0.0610
537.00,0.0611
536.00,0.0613
535.00,0.0618
534.00,0.0630
533.00,0.0642
532.00,0.0649
531.00,0.0652
530.00,0.0651
529.00,0.0645
528.00,0.0634
527.00,0.0622
526.00,0.0610
525.00,0.0597
524.00,0.0581
523.00,0.0568
522.00,0.0561
521.00,0.0557
520.00,0.0554
519.00,0.0553
518.00,0.0553
517.00,0.0552
516.00,0.0547
515.00,0.0541
514.00,0.0539
513.00,0.0537
512.00,0.0534
511.00,0.0534
510.00,0.0537
509.00,0.0540
508.00,0.0541
507.00,0.0542
506.00,0.0546
505.00,0.0548
504.00,0.0545
503.00,0.0541
502.00,0.0540
501.00,0.0538
500.00,0.0534
499.00,0.0532
498.00,0.0532
497.00,0.0533
496.00,0.0533
495.00,0.0535
494.00,0.0542
493.00,0.0548
492.00,0.0549
491.00,0.0547
490.00,0.0545
489.00,0.0542
488.00,0.0536
487.00,0.0533
486.00,0.0533
485.00,0.0533
484.00,0.0531
483.00,0.0529
482.00,0.0528
481.00,0.0526
480.00,0.0521
479.00,0.0518
478.00,0.0518
477.00,0.0518
476.00,0.0514
475.00,0.0511
474.00,0.0513
473.00,0.0515
472.00,0.0512
471.00,0.0511
470.00,0.0515
469.00,0.0519
468.00,0.0519
467.00,0.0518
466.00,0.0519
465.00,0.0519
464.00,0.0513
463.00,0.0509
462.00,0.0511
461.00,0.0514
460.00,0.0515
459.00,0.0515
458.00,0.0519
457.00,0.0518
456.00,0.0509
455.00,0.0502
454.00,0.0503
453.00,0.0505
452.00,0.0504
451.00,0.0502
450.00,0.0503
449.00,0.0502
448.00,0.0495
447.00,0.0488
446.00,0.0488
445.00,0.0488
444.00,0.0483
443.00,0.0479
442.00,0.0482
441.00,0.0486
440.00,0.0485
439.00,0.0483
438.00,0.0485
437.00,0.0486
436.00,0.0481
435.00,0.0478
434.00,0.0480
433.00,0.0479
432.00,0.0470
431.00,0.0460
430.00,0.0459
429.00,0.0460
428.00,0.0457
427.00,0.0456
426.00,0.0461
425.00,0.0464
424.00,0.0456
423.00,0.0447
422.00,0.0446
421.00,0.0447
420.00,0.0443
419.00,0.0441
418.00,0.0451
417.00,0.0460
416.00,0.0458
415.00,0.0457
414.00,0.0466
413.00,0.0478
412.00,0.0483
411.00,0.0488
410.00,0.0499
409.00,0.0506
408.00,0.0497
407.00,0.0482
406.00,0.0471
405.00,0.0460
404.00,0.0446
403.00,0.0442
402.00,0.0456
401.00,0.0467
400.00,0.0460
