Created as New Dataset,Sample 590 By YargerLab Date Thursday, June 05 2025
cm-1,A
4000.00,0.0028
3999.00,0.0028
3998.00,0.0028
3997.00,0.0028
3996.00,0.0028
3995.00,0.0028
3994.00,0.0027
3993.00,0.0027
3992.00,0.0027
3991.00,0.0027
3990.00,0.0027
3989.00,0.0027
3988.00,0.0027
3987.00,0.0028
3986.00,0.0028
3985.00,0.0028
3984.00,0.0028
3983.00,0.0028
3982.00,0.0028
3981.00,0.0028
3980.00,0.0028
3979.00,0.0028
3978.00,0.0028
3977.00,0.0028
3976.00,0.0028
3975.00,0.0028
3974.00,0.0028
3973.00,0.0027
3972.00,0.0027
3971.00,0.0027
3970.00,0.0028
3969.00,0.0028
3968.00,0.0028
3967.00,0.0028
3966.00,0.0028
3965.00,0.0028
3964.00,0.0028
3963.00,0.0028
3962.00,0.0027
3961.00,0.0027
3960.00,0.0028
3959.00,0.0028
3958.00,0.0028
3957.00,0.0028
3956.00,0.0028
3955.00,0.0028
3954.00,0.0028
3953.00,0.0028
3952.00,0.0028
3951.00,0.0028
3950.00,0.0028
3949.00,0.0028
3948.00,0.0027
3947.00,0.0027
3946.00,0.0027
3945.00,0.0027
3944.00,0.0027
3943.00,0.0027
3942.00,0.0027
3941.00,0.0027
3940.00,0.0027
3939.00,0.0027
3938.00,0.0027
3937.00,0.0027
3936.00,0.0027
3935.00,0.0026
3934.00,0.0026
3933.00,0.0026
3932.00,0.0026
3931.00,0.0026
3930.00,0.0026
3929.00,0.0026
3928.00,0.0026
3927.00,0.0026
3926.00,0.0026
3925.00,0.0026
3924.00,0.0027
3923.00,0.0027
3922.00,0.0026
3921.00,0.0026
3920.00,0.0026
3919.00,0.0026
3918.00,0.0026
3917.00,0.0026
3916.00,0.0026
3915.00,0.0026
3914.00,0.0026
3913.00,0.0026
3912.00,0.0026
3911.00,0.0027
3910.00,0.0027
3909.00,0.0027
3908.00,0.0027
3907.00,0.0026
3906.00,0.0026
3905.00,0.0025
3904.00,0.0025
3903.00,0.0025
3902.00,0.0024
3901.00,0.0024
3900.00,0.0025
3899.00,0.0025
3898.00,0.0025
3897.00,0.0025
3896.00,0.0025
3895.00,0.0025
3894.00,0.0026
3893.00,0.0026
3892.00,0.0026
3891.00,0.0026
3890.00,0.0026
3889.00,0.0026
3888.00,0.0025
3887.00,0.0025
3886.00,0.0025
3885.00,0.0025
3884.00,0.0025
3883.00,0.0025
3882.00,0.0024
3881.00,0.0024
3880.00,0.0025
3879.00,0.0025
3878.00,0.0025
3877.00,0.0025
3876.00,0.0024
3875.00,0.0024
3874.00,0.0024
3873.00,0.0025
3872.00,0.0025
3871.00,0.0024
3870.00,0.0024
3869.00,0.0024
3868.00,0.0024
3867.00,0.0023
3866.00,0.0023
3865.00,0.0023
3864.00,0.0024
3863.00,0.0024
3862.00,0.0024
3861.00,0.0024
3860.00,0.0024
3859.00,0.0024
3858.00,0.0025
3857.00,0.0025
3856.00,0.0024
3855.00,0.0024
3854.00,0.0023
3853.00,0.0023
3852.00,0.0023
3851.00,0.0024
3850.00,0.0024
3849.00,0.0024
3848.00,0.0024
3847.00,0.0024
3846.00,0.0025
3845.00,0.0025
3844.00,0.0025
3843.00,0.0024
3842.00,0.0024
3841.00,0.0024
3840.00,0.0023
3839.00,0.0023
3838.00,0.0023
3837.00,0.0023
3836.00,0.0024
3835.00,0.0024
3834.00,0.0024
3833.00,0.0024
3832.00,0.0024
3831.00,0.0024
3830.00,0.0024
3829.00,0.0024
3828.00,0.0024
3827.00,0.0024
3826.00,0.0024
3825.00,0.0024
3824.00,0.0024
3823.00,0.0024
3822.00,0.0023
3821.00,0.0024
3820.00,0.0024
3819.00,0.0024
3818.00,0.0023
3817.00,0.0023
3816.00,0.0023
3815.00,0.0023
3814.00,0.0023
3813.00,0.0024
3812.00,0.0024
3811.00,0.0024
3810.00,0.0024
3809.00,0.0024
3808.00,0.0024
3807.00,0.0024
3806.00,0.0024
3805.00,0.0024
3804.00,0.0024
3803.00,0.0023
3802.00,0.0023
3801.00,0.0023
3800.00,0.0023
3799.00,0.0023
3798.00,0.0023
3797.00,0.0023
3796.00,0.0023
3795.00,0.0024
3794.00,0.0024
3793.00,0.0024
3792.00,0.0024
3791.00,0.0024
3790.00,0.0024
3789.00,0.0025
3788.00,0.0025
3787.00,0.0025
3786.00,0.0025
3785.00,0.0024
3784.00,0.0024
3783.00,0.0024
3782.00,0.0024
3781.00,0.0024
3780.00,0.0024
3779.00,0.0024
3778.00,0.0024
3777.00,0.0024
3776.00,0.0024
3775.00,0.0024
3774.00,0.0024
3773.00,0.0024
3772.00,0.0024
3771.00,0.0024
3770.00,0.0024
3769.00,0.0024
3768.00,0.0024
3767.00,0.0023
3766.00,0.0023
3765.00,0.0023
3764.00,0.0024
3763.00,0.0024
3762.00,0.0024
3761.00,0.0024
3760.00,0.0024
3759.00,0.0024
3758.00,0.0024
3757.00,0.0023
3756.00,0.0023
3755.00,0.0023
3754.00,0.0023
3753.00,0.0022
3752.00,0.0022
3751.00,0.0022
3750.00,0.0021
3749.00,0.0021
3748.00,0.0021
3747.00,0.0022
3746.00,0.0022
3745.00,0.0022
3744.00,0.0022
3743.00,0.0022
3742.00,0.0022
3741.00,0.0022
3740.00,0.0021
3739.00,0.0021
3738.00,0.0021
3737.00,0.0020
3736.00,0.0020
3735.00,0.0021
3734.00,0.0021
3733.00,0.0021
3732.00,0.0021
3731.00,0.0021
3730.00,0.0022
3729.00,0.0022
3728.00,0.0022
3727.00,0.0022
3726.00,0.0022
3725.00,0.0022
3724.00,0.0022
3723.00,0.0022
3722.00,0.0022
3721.00,0.0022
3720.00,0.0021
3719.00,0.0021
3718.00,0.0022
3717.00,0.0022
3716.00,0.0022
3715.00,0.0022
3714.00,0.0022
3713.00,0.0022
3712.00,0.0022
3711.00,0.0022
3710.00,0.0022
3709.00,0.0022
3708.00,0.0022
3707.00,0.0022
3706.00,0.0022
3705.00,0.0022
3704.00,0.0021
3703.00,0.0021
3702.00,0.0021
3701.00,0.0021
3700.00,0.0022
3699.00,0.0022
3698.00,0.0022
3697.00,0.0022
3696.00,0.0022
3695.00,0.0022
3694.00,0.0022
3693.00,0.0022
3692.00,0.0022
3691.00,0.0021
3690.00,0.0021
3689.00,0.0020
3688.00,0.0019
3687.00,0.0019
3686.00,0.0020
3685.00,0.0020
3684.00,0.0020
3683.00,0.0021
3682.00,0.0021
3681.00,0.0021
3680.00,0.0020
3679.00,0.0020
3678.00,0.0019
3677.00,0.0019
3676.00,0.0018
3675.00,0.0018
3674.00,0.0018
3673.00,0.0018
3672.00,0.0018
3671.00,0.0017
3670.00,0.0018
3669.00,0.0018
3668.00,0.0018
3667.00,0.0018
3666.00,0.0018
3665.00,0.0018
3664.00,0.0019
3663.00,0.0019
3662.00,0.0019
3661.00,0.0019
3660.00,0.0019
3659.00,0.0019
3658.00,0.0019
3657.00,0.0018
3656.00,0.0018
3655.00,0.0018
3654.00,0.0017
3653.00,0.0017
3652.00,0.0017
3651.00,0.0017
3650.00,0.0017
3649.00,0.0017
3648.00,0.0017
3647.00,0.0017
3646.00,0.0017
3645.00,0.0018
3644.00,0.0018
3643.00,0.0018
3642.00,0.0018
3641.00,0.0019
3640.00,0.0019
3639.00,0.0019
3638.00,0.0019
3637.00,0.0019
3636.00,0.0019
3635.00,0.0020
3634.00,0.0020
3633.00,0.0020
3632.00,0.0020
3631.00,0.0019
3630.00,0.0019
3629.00,0.0019
3628.00,0.0019
3627.00,0.0020
3626.00,0.0020
3625.00,0.0020
3624.00,0.0020
3623.00,0.0020
3622.00,0.0020
3621.00,0.0020
3620.00,0.0020
3619.00,0.0020
3618.00,0.0020
3617.00,0.0020
3616.00,0.0021
3615.00,0.0021
3614.00,0.0021
3613.00,0.0022
3612.00,0.0022
3611.00,0.0021
3610.00,0.0021
3609.00,0.0020
3608.00,0.0020
3607.00,0.0021
3606.00,0.0021
3605.00,0.0021
3604.00,0.0021
3603.00,0.0021
3602.00,0.0021
3601.00,0.0022
3600.00,0.0022
3599.00,0.0022
3598.00,0.0022
3597.00,0.0022
3596.00,0.0022
3595.00,0.0022
3594.00,0.0022
3593.00,0.0022
3592.00,0.0022
3591.00,0.0022
3590.00,0.0022
3589.00,0.0022
3588.00,0.0022
3587.00,0.0022
3586.00,0.0023
3585.00,0.0023
3584.00,0.0023
3583.00,0.0023
3582.00,0.0023
3581.00,0.0023
3580.00,0.0023
3579.00,0.0023
3578.00,0.0024
3577.00,0.0024
3576.00,0.0025
3575.00,0.0025
3574.00,0.0025
3573.00,0.0025
3572.00,0.0025
3571.00,0.0025
3570.00,0.0024
3569.00,0.0024
3568.00,0.0024
3567.00,0.0025
3566.00,0.0025
3565.00,0.0025
3564.00,0.0025
3563.00,0.0026
3562.00,0.0026
3561.00,0.0027
3560.00,0.0027
3559.00,0.0027
3558.00,0.0028
3557.00,0.0028
3556.00,0.0028
3555.00,0.0028
3554.00,0.0029
3553.00,0.0029
3552.00,0.0029
3551.00,0.0029
3550.00,0.0029
3549.00,0.0029
3548.00,0.0029
3547.00,0.0029
3546.00,0.0030
3545.00,0.0030
3544.00,0.0031
3543.00,0.0032
3542.00,0.0032
3541.00,0.0033
3540.00,0.0033
3539.00,0.0033
3538.00,0.0033
3537.00,0.0034
3536.00,0.0034
3535.00,0.0034
3534.00,0.0035
3533.00,0.0036
3532.00,0.0036
3531.00,0.0037
3530.00,0.0037
3529.00,0.0037
3528.00,0.0037
3527.00,0.0038
3526.00,0.0038
3525.00,0.0039
3524.00,0.0040
3523.00,0.0041
3522.00,0.0042
3521.00,0.0043
3520.00,0.0044
3519.00,0.0045
3518.00,0.0045
3517.00,0.0046
3516.00,0.0047
3515.00,0.0047
3514.00,0.0048
3513.00,0.0049
3512.00,0.0050
3511.00,0.0051
3510.00,0.0053
3509.00,0.0054
3508.00,0.0055
3507.00,0.0056
3506.00,0.0057
3505.00,0.0058
3504.00,0.0060
3503.00,0.0061
3502.00,0.0063
3501.00,0.0064
3500.00,0.0066
3499.00,0.0068
3498.00,0.0070
3497.00,0.0071
3496.00,0.0074
3495.00,0.0076
3494.00,0.0078
3493.00,0.0080
3492.00,0.0083
3491.00,0.0085
3490.00,0.0087
3489.00,0.0090
3488.00,0.0093
3487.00,0.0095
3486.00,0.0098
3485.00,0.0101
3484.00,0.0104
3483.00,0.0108
3482.00,0.0111
3481.00,0.0114
3480.00,0.0118
3479.00,0.0121
3478.00,0.0124
3477.00,0.0128
3476.00,0.0132
3475.00,0.0136
3474.00,0.0141
3473.00,0.0146
3472.00,0.0152
3471.00,0.0159
3470.00,0.0166
3469.00,0.0175
3468.00,0.0184
3467.00,0.0194
3466.00,0.0206
3465.00,0.0219
3464.00,0.0234
3463.00,0.0251
3462.00,0.0270
3461.00,0.0291
3460.00,0.0315
3459.00,0.0340
3458.00,0.0367
3457.00,0.0396
3456.00,0.0425
3455.00,0.0452
3454.00,0.0478
3453.00,0.0499
3452.00,0.0515
3451.00,0.0525
3450.00,0.0528
3449.00,0.0525
3448.00,0.0516
3447.00,0.0501
3446.00,0.0483
3445.00,0.0463
3444.00,0.0441
3443.00,0.0418
3442.00,0.0395
3441.00,0.0373
3440.00,0.0351
3439.00,0.0331
3438.00,0.0311
3437.00,0.0294
3436.00,0.0277
3435.00,0.0262
3434.00,0.0248
3433.00,0.0235
3432.00,0.0223
3431.00,0.0212
3430.00,0.0203
3429.00,0.0193
3428.00,0.0185
3427.00,0.0178
3426.00,0.0171
3425.00,0.0165
3424.00,0.0159
3423.00,0.0154
3422.00,0.0149
3421.00,0.0145
3420.00,0.0141
3419.00,0.0137
3418.00,0.0134
3417.00,0.0132
3416.00,0.0129
3415.00,0.0127
3414.00,0.0126
3413.00,0.0124
3412.00,0.0122
3411.00,0.0120
3410.00,0.0119
3409.00,0.0117
3408.00,0.0116
3407.00,0.0115
3406.00,0.0114
3405.00,0.0113
3404.00,0.0112
3403.00,0.0111
3402.00,0.0111
3401.00,0.0110
3400.00,0.0109
3399.00,0.0109
3398.00,0.0108
3397.00,0.0108
3396.00,0.0107
3395.00,0.0107
3394.00,0.0107
3393.00,0.0106
3392.00,0.0106
3391.00,0.0106
3390.00,0.0106
3389.00,0.0106
3388.00,0.0105
3387.00,0.0105
3386.00,0.0105
3385.00,0.0105
3384.00,0.0105
3383.00,0.0105
3382.00,0.0105
3381.00,0.0105
3380.00,0.0105
3379.00,0.0105
3378.00,0.0105
3377.00,0.0105
3376.00,0.0106
3375.00,0.0106
3374.00,0.0106
3373.00,0.0106
3372.00,0.0106
3371.00,0.0105
3370.00,0.0105
3369.00,0.0106
3368.00,0.0106
3367.00,0.0106
3366.00,0.0106
3365.00,0.0106
3364.00,0.0107
3363.00,0.0107
3362.00,0.0107
3361.00,0.0107
3360.00,0.0108
3359.00,0.0108
3358.00,0.0108
3357.00,0.0109
3356.00,0.0109
3355.00,0.0110
3354.00,0.0110
3353.00,0.0110
3352.00,0.0111
3351.00,0.0111
3350.00,0.0112
3349.00,0.0112
3348.00,0.0113
3347.00,0.0113
3346.00,0.0113
3345.00,0.0113
3344.00,0.0114
3343.00,0.0114
3342.00,0.0115
3341.00,0.0115
3340.00,0.0115
3339.00,0.0116
3338.00,0.0116
3337.00,0.0117
3336.00,0.0117
3335.00,0.0118
3334.00,0.0118
3333.00,0.0119
3332.00,0.0120
3331.00,0.0120
3330.00,0.0121
3329.00,0.0121
3328.00,0.0122
3327.00,0.0122
3326.00,0.0123
3325.00,0.0123
3324.00,0.0124
3323.00,0.0125
3322.00,0.0126
3321.00,0.0127
3320.00,0.0127
3319.00,0.0128
3318.00,0.0128
3317.00,0.0129
3316.00,0.0130
3315.00,0.0131
3314.00,0.0132
3313.00,0.0132
3312.00,0.0133
3311.00,0.0134
3310.00,0.0135
3309.00,0.0135
3308.00,0.0136
3307.00,0.0137
3306.00,0.0138
3305.00,0.0139
3304.00,0.0140
3303.00,0.0141
3302.00,0.0142
3301.00,0.0143
3300.00,0.0144
3299.00,0.0144
3298.00,0.0145
3297.00,0.0146
3296.00,0.0147
3295.00,0.0148
3294.00,0.0149
3293.00,0.0150
3292.00,0.0151
3291.00,0.0152
3290.00,0.0154
3289.00,0.0155
3288.00,0.0157
3287.00,0.0158
3286.00,0.0160
3285.00,0.0161
3284.00,0.0162
3283.00,0.0164
3282.00,0.0165
3281.00,0.0166
3280.00,0.0167
3279.00,0.0168
3278.00,0.0169
3277.00,0.0170
3276.00,0.0171
3275.00,0.0171
3274.00,0.0172
3273.00,0.0173
3272.00,0.0174
3271.00,0.0175
3270.00,0.0177
3269.00,0.0179
3268.00,0.0181
3267.00,0.0183
3266.00,0.0185
3265.00,0.0186
3264.00,0.0187
3263.00,0.0188
3262.00,0.0189
3261.00,0.0190
3260.00,0.0190
3259.00,0.0191
3258.00,0.0192
3257.00,0.0192
3256.00,0.0193
3255.00,0.0194
3254.00,0.0195
3253.00,0.0196
3252.00,0.0197
3251.00,0.0197
3250.00,0.0198
3249.00,0.0198
3248.00,0.0199
3247.00,0.0200
3246.00,0.0201
3245.00,0.0202
3244.00,0.0204
3243.00,0.0205
3242.00,0.0207
3241.00,0.0208
3240.00,0.0209
3239.00,0.0210
3238.00,0.0211
3237.00,0.0212
3236.00,0.0213
3235.00,0.0214
3234.00,0.0215
3233.00,0.0216
3232.00,0.0217
3231.00,0.0219
3230.00,0.0220
3229.00,0.0221
3228.00,0.0222
3227.00,0.0223
3226.00,0.0224
3225.00,0.0225
3224.00,0.0226
3223.00,0.0227
3222.00,0.0228
3221.00,0.0228
3220.00,0.0229
3219.00,0.0230
3218.00,0.0231
3217.00,0.0232
3216.00,0.0233
3215.00,0.0234
3214.00,0.0235
3213.00,0.0236
3212.00,0.0238
3211.00,0.0239
3210.00,0.0240
3209.00,0.0242
3208.00,0.0243
3207.00,0.0244
3206.00,0.0245
3205.00,0.0246
3204.00,0.0247
3203.00,0.0248
3202.00,0.0249
3201.00,0.0250
3200.00,0.0252
3199.00,0.0252
3198.00,0.0253
3197.00,0.0254
3196.00,0.0255
3195.00,0.0255
3194.00,0.0256
3193.00,0.0256
3192.00,0.0257
3191.00,0.0258
3190.00,0.0259
3189.00,0.0259
3188.00,0.0260
3187.00,0.0261
3186.00,0.0261
3185.00,0.0262
3184.00,0.0263
3183.00,0.0263
3182.00,0.0264
3181.00,0.0265
3180.00,0.0265
3179.00,0.0266
3178.00,0.0266
3177.00,0.0267
3176.00,0.0268
3175.00,0.0268
3174.00,0.0269
3173.00,0.0269
3172.00,0.0269
3171.00,0.0270
3170.00,0.0270
3169.00,0.0270
3168.00,0.0270
3167.00,0.0271
3166.00,0.0271
3165.00,0.0271
3164.00,0.0272
3163.00,0.0272
3162.00,0.0272
3161.00,0.0273
3160.00,0.0273
3159.00,0.0273
3158.00,0.0273
3157.00,0.0273
3156.00,0.0273
3155.00,0.0272
3154.00,0.0272
3153.00,0.0272
3152.00,0.0274
3151.00,0.0276
3150.00,0.0278
3149.00,0.0279
3148.00,0.0281
3147.00,0.0282
3146.00,0.0284
3145.00,0.0285
3144.00,0.0286
3143.00,0.0286
3142.00,0.0286
3141.00,0.0286
3140.00,0.0287
3139.00,0.0289
3138.00,0.0290
3137.00,0.0292
3136.00,0.0294
3135.00,0.0295
3134.00,0.0295
3133.00,0.0296
3132.00,0.0296
3131.00,0.0297
3130.00,0.0297
3129.00,0.0298
3128.00,0.0299
3127.00,0.0300
3126.00,0.0300
3125.00,0.0301
3124.00,0.0301
3123.00,0.0301
3122.00,0.0300
3121.00,0.0300
3120.00,0.0301
3119.00,0.0301
3118.00,0.0302
3117.00,0.0303
3116.00,0.0304
3115.00,0.0306
3114.00,0.0307
3113.00,0.0308
3112.00,0.0309
3111.00,0.0310
3110.00,0.0311
3109.00,0.0312
3108.00,0.0313
3107.00,0.0314
3106.00,0.0315
3105.00,0.0316
3104.00,0.0317
3103.00,0.0317
3102.00,0.0318
3101.00,0.0318
3100.00,0.0319
3099.00,0.0319
3098.00,0.0319
3097.00,0.0320
3096.00,0.0320
3095.00,0.0320
3094.00,0.0320
3093.00,0.0320
3092.00,0.0320
3091.00,0.0320
3090.00,0.0320
3089.00,0.0321
3088.00,0.0321
3087.00,0.0321
3086.00,0.0322
3085.00,0.0322
3084.00,0.0322
3083.00,0.0323
3082.00,0.0323
3081.00,0.0325
3080.00,0.0326
3079.00,0.0328
3078.00,0.0331
3077.00,0.0333
3076.00,0.0336
3075.00,0.0340
3074.00,0.0343
3073.00,0.0346
3072.00,0.0348
3071.00,0.0349
3070.00,0.0350
3069.00,0.0349
3068.00,0.0348
3067.00,0.0345
3066.00,0.0342
3065.00,0.0338
3064.00,0.0334
3063.00,0.0330
3062.00,0.0325
3061.00,0.0320
3060.00,0.0316
3059.00,0.0311
3058.00,0.0308
3057.00,0.0304
3056.00,0.0302
3055.00,0.0299
3054.00,0.0297
3053.00,0.0295
3052.00,0.0293
3051.00,0.0292
3050.00,0.0290
3049.00,0.0288
3048.00,0.0287
3047.00,0.0285
3046.00,0.0284
3045.00,0.0283
3044.00,0.0282
3043.00,0.0282
3042.00,0.0281
3041.00,0.0281
3040.00,0.0280
3039.00,0.0280
3038.00,0.0279
3037.00,0.0278
3036.00,0.0278
3035.00,0.0277
3034.00,0.0277
3033.00,0.0276
3032.00,0.0275
3031.00,0.0274
3030.00,0.0273
3029.00,0.0272
3028.00,0.0271
3027.00,0.0269
3026.00,0.0268
3025.00,0.0267
3024.00,0.0265
3023.00,0.0264
3022.00,0.0263
3021.00,0.0261
3020.00,0.0260
3019.00,0.0259
3018.00,0.0258
3017.00,0.0257
3016.00,0.0256
3015.00,0.0255
3014.00,0.0254
3013.00,0.0254
3012.00,0.0253
3011.00,0.0253
3010.00,0.0253
3009.00,0.0252
3008.00,0.0252
3007.00,0.0252
3006.00,0.0252
3005.00,0.0251
3004.00,0.0251
3003.00,0.0252
3002.00,0.0252
3001.00,0.0253
3000.00,0.0253
2999.00,0.0254
2998.00,0.0256
2997.00,0.0257
2996.00,0.0260
2995.00,0.0263
2994.00,0.0266
2993.00,0.0270
2992.00,0.0274
2991.00,0.0277
2990.00,0.0281
2989.00,0.0283
2988.00,0.0285
2987.00,0.0286
2986.00,0.0287
2985.00,0.0287
2984.00,0.0287
2983.00,0.0288
2982.00,0.0290
2981.00,0.0294
2980.00,0.0300
2979.00,0.0307
2978.00,0.0313
2977.00,0.0320
2976.00,0.0325
2975.00,0.0329
2974.00,0.0331
2973.00,0.0333
2972.00,0.0335
2971.00,0.0337
2970.00,0.0339
2969.00,0.0343
2968.00,0.0347
2967.00,0.0352
2966.00,0.0358
2965.00,0.0366
2964.00,0.0376
2963.00,0.0388
2962.00,0.0402
2961.00,0.0418
2960.00,0.0434
2959.00,0.0449
2958.00,0.0463
2957.00,0.0475
2956.00,0.0485
2955.00,0.0493
2954.00,0.0498
2953.00,0.0500
2952.00,0.0499
2951.00,0.0495
2950.00,0.0487
2949.00,0.0476
2948.00,0.0465
2947.00,0.0456
2946.00,0.0450
2945.00,0.0448
2944.00,0.0450
2943.00,0.0457
2942.00,0.0466
2941.00,0.0478
2940.00,0.0491
2939.00,0.0506
2938.00,0.0522
2937.00,0.0538
2936.00,0.0556
2935.00,0.0576
2934.00,0.0598
2933.00,0.0622
2932.00,0.0648
2931.00,0.0676
2930.00,0.0703
2929.00,0.0728
2928.00,0.0750
2927.00,0.0765
2926.00,0.0775
2925.00,0.0779
2924.00,0.0778
2923.00,0.0773
2922.00,0.0763
2921.00,0.0750
2920.00,0.0734
2919.00,0.0716
2918.00,0.0697
2917.00,0.0678
2916.00,0.0659
2915.00,0.0640
2914.00,0.0620
2913.00,0.0600
2912.00,0.0580
2911.00,0.0560
2910.00,0.0540
2909.00,0.0520
2908.00,0.0501
2907.00,0.0483
2906.00,0.0467
2905.00,0.0454
2904.00,0.0442
2903.00,0.0432
2902.00,0.0424
2901.00,0.0416
2900.00,0.0409
2899.00,0.0402
2898.00,0.0396
2897.00,0.0390
2896.00,0.0385
2895.00,0.0380
2894.00,0.0376
2893.00,0.0372
2892.00,0.0369
2891.00,0.0365
2890.00,0.0363
2889.00,0.0361
2888.00,0.0360
2887.00,0.0359
2886.00,0.0358
2885.00,0.0357
2884.00,0.0357
2883.00,0.0356
2882.00,0.0356
2881.00,0.0357
2880.00,0.0358
2879.00,0.0361
2878.00,0.0365
2877.00,0.0370
2876.00,0.0376
2875.00,0.0384
2874.00,0.0393
2873.00,0.0402
2872.00,0.0409
2871.00,0.0414
2870.00,0.0414
2869.00,0.0410
2868.00,0.0403
2867.00,0.0396
2866.00,0.0390
2865.00,0.0388
2864.00,0.0391
2863.00,0.0398
2862.00,0.0408
2861.00,0.0420
2860.00,0.0432
2859.00,0.0443
2858.00,0.0451
2857.00,0.0454
2856.00,0.0453
2855.00,0.0448
2854.00,0.0439
2853.00,0.0427
2852.00,0.0413
2851.00,0.0398
2850.00,0.0384
2849.00,0.0370
2848.00,0.0357
2847.00,0.0347
2846.00,0.0338
2845.00,0.0332
2844.00,0.0327
2843.00,0.0323
2842.00,0.0319
2841.00,0.0314
2840.00,0.0310
2839.00,0.0307
2838.00,0.0305
2837.00,0.0306
2836.00,0.0308
2835.00,0.0310
2834.00,0.0310
2833.00,0.0308
2832.00,0.0304
2831.00,0.0297
2830.00,0.0287
2829.00,0.0277
2828.00,0.0267
2827.00,0.0256
2826.00,0.0247
2825.00,0.0240
2824.00,0.0233
2823.00,0.0227
2822.00,0.0222
2821.00,0.0218
2820.00,0.0214
2819.00,0.0211
2818.00,0.0208
2817.00,0.0206
2816.00,0.0203
2815.00,0.0201
2814.00,0.0199
2813.00,0.0197
2812.00,0.0196
2811.00,0.0194
2810.00,0.0193
2809.00,0.0192
2808.00,0.0191
2807.00,0.0190
2806.00,0.0189
2805.00,0.0188
2804.00,0.0187
2803.00,0.0186
2802.00,0.0185
2801.00,0.0185
2800.00,0.0184
2799.00,0.0184
2798.00,0.0183
2797.00,0.0183
2796.00,0.0183
2795.00,0.0182
2794.00,0.0181
2793.00,0.0181
2792.00,0.0181
2791.00,0.0180
2790.00,0.0180
2789.00,0.0180
2788.00,0.0180
2787.00,0.0180
2786.00,0.0180
2785.00,0.0181
2784.00,0.0181
2783.00,0.0181
2782.00,0.0181
2781.00,0.0181
2780.00,0.0182
2779.00,0.0182
2778.00,0.0183
2777.00,0.0183
2776.00,0.0184
2775.00,0.0184
2774.00,0.0185
2773.00,0.0186
2772.00,0.0187
2771.00,0.0188
2770.00,0.0189
2769.00,0.0190
2768.00,0.0190
2767.00,0.0191
2766.00,0.0191
2765.00,0.0192
2764.00,0.0192
2763.00,0.0193
2762.00,0.0193
2761.00,0.0194
2760.00,0.0195
2759.00,0.0195
2758.00,0.0196
2757.00,0.0196
2756.00,0.0197
2755.00,0.0197
2754.00,0.0197
2753.00,0.0197
2752.00,0.0198
2751.00,0.0198
2750.00,0.0198
2749.00,0.0198
2748.00,0.0198
2747.00,0.0198
2746.00,0.0198
2745.00,0.0199
2744.00,0.0199
2743.00,0.0199
2742.00,0.0199
2741.00,0.0200
2740.00,0.0200
2739.00,0.0201
2738.00,0.0202
2737.00,0.0202
2736.00,0.0203
2735.00,0.0204
2734.00,0.0205
2733.00,0.0205
2732.00,0.0206
2731.00,0.0206
2730.00,0.0206
2729.00,0.0206
2728.00,0.0206
2727.00,0.0206
2726.00,0.0206
2725.00,0.0207
2724.00,0.0207
2723.00,0.0207
2722.00,0.0207
2721.00,0.0207
2720.00,0.0207
2719.00,0.0207
2718.00,0.0207
2717.00,0.0206
2716.00,0.0206
2715.00,0.0207
2714.00,0.0207
2713.00,0.0207
2712.00,0.0207
2711.00,0.0207
2710.00,0.0207
2709.00,0.0208
2708.00,0.0208
2707.00,0.0208
2706.00,0.0208
2705.00,0.0209
2704.00,0.0209
2703.00,0.0209
2702.00,0.0209
2701.00,0.0209
2700.00,0.0210
2699.00,0.0210
2698.00,0.0210
2697.00,0.0210
2696.00,0.0210
2695.00,0.0211
2694.00,0.0211
2693.00,0.0211
2692.00,0.0211
2691.00,0.0211
2690.00,0.0211
2689.00,0.0211
2688.00,0.0211
2687.00,0.0211
2686.00,0.0210
2685.00,0.0210
2684.00,0.0210
2683.00,0.0210
2682.00,0.0210
2681.00,0.0210
2680.00,0.0210
2679.00,0.0209
2678.00,0.0209
2677.00,0.0209
2676.00,0.0209
2675.00,0.0209
2674.00,0.0209
2673.00,0.0209
2672.00,0.0209
2671.00,0.0210
2670.00,0.0210
2669.00,0.0210
2668.00,0.0211
2667.00,0.0211
2666.00,0.0212
2665.00,0.0212
2664.00,0.0212
2663.00,0.0213
2662.00,0.0213
2661.00,0.0213
2660.00,0.0212
2659.00,0.0212
2658.00,0.0212
2657.00,0.0211
2656.00,0.0211
2655.00,0.0210
2654.00,0.0210
2653.00,0.0210
2652.00,0.0209
2651.00,0.0208
2650.00,0.0208
2649.00,0.0207
2648.00,0.0207
2647.00,0.0207
2646.00,0.0207
2645.00,0.0207
2644.00,0.0206
2643.00,0.0206
2642.00,0.0206
2641.00,0.0205
2640.00,0.0205
2639.00,0.0204
2638.00,0.0204
2637.00,0.0203
2636.00,0.0203
2635.00,0.0203
2634.00,0.0202
2633.00,0.0202
2632.00,0.0202
2631.00,0.0201
2630.00,0.0201
2629.00,0.0201
2628.00,0.0201
2627.00,0.0200
2626.00,0.0200
2625.00,0.0200
2624.00,0.0200
2623.00,0.0199
2622.00,0.0199
2621.00,0.0198
2620.00,0.0198
2619.00,0.0198
2618.00,0.0197
2617.00,0.0197
2616.00,0.0197
2615.00,0.0197
2614.00,0.0196
2613.00,0.0196
2612.00,0.0195
2611.00,0.0195
2610.00,0.0195
2609.00,0.0194
2608.00,0.0194
2607.00,0.0193
2606.00,0.0193
2605.00,0.0192
2604.00,0.0192
2603.00,0.0192
2602.00,0.0191
2601.00,0.0190
2600.00,0.0190
2599.00,0.0189
2598.00,0.0188
2597.00,0.0187
2596.00,0.0187
2595.00,0.0186
2594.00,0.0185
2593.00,0.0185
2592.00,0.0184
2591.00,0.0184
2590.00,0.0184
2589.00,0.0183
2588.00,0.0182
2587.00,0.0182
2586.00,0.0181
2585.00,0.0181
2584.00,0.0180
2583.00,0.0180
2582.00,0.0180
2581.00,0.0180
2580.00,0.0180
2579.00,0.0180
2578.00,0.0179
2577.00,0.0179
2576.00,0.0179
2575.00,0.0178
2574.00,0.0178
2573.00,0.0177
2572.00,0.0177
2571.00,0.0177
2570.00,0.0178
2569.00,0.0178
2568.00,0.0178
2567.00,0.0179
2566.00,0.0179
2565.00,0.0179
2564.00,0.0180
2563.00,0.0181
2562.00,0.0181
2561.00,0.0182
2560.00,0.0182
2559.00,0.0182
2558.00,0.0182
2557.00,0.0182
2556.00,0.0183
2555.00,0.0183
2554.00,0.0183
2553.00,0.0183
2552.00,0.0182
2551.00,0.0182
2550.00,0.0181
2549.00,0.0180
2548.00,0.0180
2547.00,0.0179
2546.00,0.0179
2545.00,0.0178
2544.00,0.0177
2543.00,0.0177
2542.00,0.0176
2541.00,0.0175
2540.00,0.0174
2539.00,0.0173
2538.00,0.0172
2537.00,0.0172
2536.00,0.0171
2535.00,0.0170
2534.00,0.0169
2533.00,0.0168
2532.00,0.0168
2531.00,0.0167
2530.00,0.0167
2529.00,0.0167
2528.00,0.0167
2527.00,0.0167
2526.00,0.0167
2525.00,0.0166
2524.00,0.0165
2523.00,0.0165
2522.00,0.0164
2521.00,0.0164
2520.00,0.0163
2519.00,0.0163
2518.00,0.0162
2517.00,0.0161
2516.00,0.0160
2515.00,0.0159
2514.00,0.0158
2513.00,0.0158
2512.00,0.0158
2511.00,0.0157
2510.00,0.0157
2509.00,0.0156
2508.00,0.0155
2507.00,0.0155
2506.00,0.0154
2505.00,0.0153
2504.00,0.0153
2503.00,0.0152
2502.00,0.0152
2501.00,0.0152
2500.00,0.0152
2499.00,0.0152
2498.00,0.0151
2497.00,0.0151
2496.00,0.0150
2495.00,0.0150
2494.00,0.0150
2493.00,0.0150
2492.00,0.0150
2491.00,0.0149
2490.00,0.0149
2489.00,0.0149
2488.00,0.0149
2487.00,0.0149
2486.00,0.0149
2485.00,0.0149
2484.00,0.0149
2483.00,0.0148
2482.00,0.0148
2481.00,0.0148
2480.00,0.0148
2479.00,0.0147
2478.00,0.0147
2477.00,0.0147
2476.00,0.0147
2475.00,0.0147
2474.00,0.0147
2473.00,0.0147
2472.00,0.0148
2471.00,0.0147
2470.00,0.0147
2469.00,0.0146
2468.00,0.0146
2467.00,0.0146
2466.00,0.0146
2465.00,0.0146
2464.00,0.0146
2463.00,0.0147
2462.00,0.0147
2461.00,0.0147
2460.00,0.0148
2459.00,0.0148
2458.00,0.0148
2457.00,0.0149
2456.00,0.0149
2455.00,0.0150
2454.00,0.0150
2453.00,0.0150
2452.00,0.0151
2451.00,0.0151
2450.00,0.0151
2449.00,0.0152
2448.00,0.0151
2447.00,0.0151
2446.00,0.0151
2445.00,0.0150
2444.00,0.0150
2443.00,0.0150
2442.00,0.0150
2441.00,0.0150
2440.00,0.0150
2439.00,0.0150
2438.00,0.0150
2437.00,0.0150
2436.00,0.0150
2435.00,0.0150
2434.00,0.0149
2433.00,0.0149
2432.00,0.0149
2431.00,0.0149
2430.00,0.0148
2429.00,0.0148
2428.00,0.0148
2427.00,0.0147
2426.00,0.0147
2425.00,0.0147
2424.00,0.0146
2423.00,0.0145
2422.00,0.0145
2421.00,0.0144
2420.00,0.0144
2419.00,0.0144
2418.00,0.0143
2417.00,0.0143
2416.00,0.0143
2415.00,0.0142
2414.00,0.0141
2413.00,0.0141
2412.00,0.0140
2411.00,0.0139
2410.00,0.0138
2409.00,0.0136
2408.00,0.0135
2407.00,0.0134
2406.00,0.0132
2405.00,0.0131
2404.00,0.0130
2403.00,0.0130
2402.00,0.0129
2401.00,0.0128
2400.00,0.0127
2399.00,0.0126
2398.00,0.0125
2397.00,0.0124
2396.00,0.0124
2395.00,0.0123
2394.00,0.0122
2393.00,0.0121
2392.00,0.0120
2391.00,0.0119
2390.00,0.0119
2389.00,0.0118
2388.00,0.0117
2387.00,0.0116
2386.00,0.0115
2385.00,0.0114
2384.00,0.0113
2383.00,0.0111
2382.00,0.0110
2381.00,0.0109
2380.00,0.0108
2379.00,0.0107
2378.00,0.0107
2377.00,0.0107
2376.00,0.0107
2375.00,0.0106
2374.00,0.0105
2373.00,0.0104
2372.00,0.0103
2371.00,0.0102
2370.00,0.0101
2369.00,0.0100
2368.00,0.0099
2367.00,0.0098
2366.00,0.0098
2365.00,0.0099
2364.00,0.0099
2363.00,0.0099
2362.00,0.0098
2361.00,0.0097
2360.00,0.0096
2359.00,0.0096
2358.00,0.0095
2357.00,0.0094
2356.00,0.0094
2355.00,0.0094
2354.00,0.0093
2353.00,0.0092
2352.00,0.0090
2351.00,0.0089
2350.00,0.0089
2349.00,0.0091
2348.00,0.0092
2347.00,0.0092
2346.00,0.0092
2345.00,0.0090
2344.00,0.0089
2343.00,0.0089
2342.00,0.0088
2341.00,0.0088
2340.00,0.0087
2339.00,0.0087
2338.00,0.0087
2337.00,0.0086
2336.00,0.0085
2335.00,0.0085
2334.00,0.0083
2333.00,0.0082
2332.00,0.0081
2331.00,0.0080
2330.00,0.0080
2329.00,0.0081
2328.00,0.0084
2327.00,0.0088
2326.00,0.0091
2325.00,0.0091
2324.00,0.0089
2323.00,0.0086
2322.00,0.0084
2321.00,0.0082
2320.00,0.0081
2319.00,0.0081
2318.00,0.0080
2317.00,0.0080
2316.00,0.0079
2315.00,0.0078
2314.00,0.0077
2313.00,0.0076
2312.00,0.0075
2311.00,0.0074
2310.00,0.0074
2309.00,0.0073
2308.00,0.0073
2307.00,0.0072
2306.00,0.0072
2305.00,0.0071
2304.00,0.0071
2303.00,0.0071
2302.00,0.0070
2301.00,0.0070
2300.00,0.0070
2299.00,0.0070
2298.00,0.0070
2297.00,0.0070
2296.00,0.0070
2295.00,0.0071
2294.00,0.0071
2293.00,0.0072
2292.00,0.0073
2291.00,0.0074
2290.00,0.0074
2289.00,0.0074
2288.00,0.0074
2287.00,0.0074
2286.00,0.0073
2285.00,0.0072
2284.00,0.0071
2283.00,0.0070
2282.00,0.0069
2281.00,0.0068
2280.00,0.0067
2279.00,0.0067
2278.00,0.0066
2277.00,0.0066
2276.00,0.0065
2275.00,0.0065
2274.00,0.0064
2273.00,0.0064
2272.00,0.0064
2271.00,0.0063
2270.00,0.0063
2269.00,0.0062
2268.00,0.0061
2267.00,0.0061
2266.00,0.0060
2265.00,0.0060
2264.00,0.0060
2263.00,0.0060
2262.00,0.0060
2261.00,0.0060
2260.00,0.0060
2259.00,0.0060
2258.00,0.0059
2257.00,0.0057
2256.00,0.0056
2255.00,0.0055
2254.00,0.0054
2253.00,0.0054
2252.00,0.0054
2251.00,0.0055
2250.00,0.0055
2249.00,0.0055
2248.00,0.0054
2247.00,0.0054
2246.00,0.0053
2245.00,0.0053
2244.00,0.0053
2243.00,0.0053
2242.00,0.0053
2241.00,0.0053
2240.00,0.0054
2239.00,0.0054
2238.00,0.0053
2237.00,0.0053
2236.00,0.0053
2235.00,0.0053
2234.00,0.0053
2233.00,0.0053
2232.00,0.0053
2231.00,0.0053
2230.00,0.0052
2229.00,0.0052
2228.00,0.0052
2227.00,0.0053
2226.00,0.0052
2225.00,0.0052
2224.00,0.0051
2223.00,0.0050
2222.00,0.0049
2221.00,0.0048
2220.00,0.0047
2219.00,0.0046
2218.00,0.0046
2217.00,0.0046
2216.00,0.0047
2215.00,0.0048
2214.00,0.0049
2213.00,0.0049
2212.00,0.0049
2211.00,0.0049
2210.00,0.0047
2209.00,0.0046
2208.00,0.0046
2207.00,0.0047
2206.00,0.0047
2205.00,0.0048
2204.00,0.0047
2203.00,0.0046
2202.00,0.0045
2201.00,0.0044
2200.00,0.0044
2199.00,0.0044
2198.00,0.0044
2197.00,0.0044
2196.00,0.0044
2195.00,0.0043
2194.00,0.0043
2193.00,0.0044
2192.00,0.0045
2191.00,0.0045
2190.00,0.0046
2189.00,0.0046
2188.00,0.0045
2187.00,0.0045
2186.00,0.0044
2185.00,0.0043
2184.00,0.0041
2183.00,0.0040
2182.00,0.0039
2181.00,0.0039
2180.00,0.0040
2179.00,0.0041
2178.00,0.0040
2177.00,0.0040
2176.00,0.0039
2175.00,0.0040
2174.00,0.0041
2173.00,0.0042
2172.00,0.0043
2171.00,0.0044
2170.00,0.0046
2169.00,0.0047
2168.00,0.0049
2167.00,0.0050
2166.00,0.0051
2165.00,0.0053
2164.00,0.0055
2163.00,0.0055
2162.00,0.0051
2161.00,0.0041
2160.00,0.0026
2159.00,0.0013
2158.00,0.0005
2157.00,0.0004
2156.00,0.0006
2155.00,0.0009
2154.00,0.0011
2153.00,0.0014
2152.00,0.0017
2151.00,0.0019
2150.00,0.0020
2149.00,0.0020
2148.00,0.0019
2147.00,0.0018
2146.00,0.0017
2145.00,0.0017
2144.00,0.0018
2143.00,0.0018
2142.00,0.0019
2141.00,0.0019
2140.00,0.0020
2139.00,0.0019
2138.00,0.0017
2137.00,0.0014
2136.00,0.0012
2135.00,0.0010
2134.00,0.0010
2133.00,0.0011
2132.00,0.0013
2131.00,0.0016
2130.00,0.0017
2129.00,0.0019
2128.00,0.0020
2127.00,0.0021
2126.00,0.0021
2125.00,0.0022
2124.00,0.0023
2123.00,0.0024
2122.00,0.0025
2121.00,0.0026
2120.00,0.0026
2119.00,0.0027
2118.00,0.0028
2117.00,0.0029
2116.00,0.0029
2115.00,0.0029
2114.00,0.0028
2113.00,0.0027
2112.00,0.0027
2111.00,0.0027
2110.00,0.0027
2109.00,0.0027
2108.00,0.0027
2107.00,0.0027
2106.00,0.0027
2105.00,0.0027
2104.00,0.0027
2103.00,0.0027
2102.00,0.0026
2101.00,0.0026
2100.00,0.0026
2099.00,0.0025
2098.00,0.0024
2097.00,0.0022
2096.00,0.0020
2095.00,0.0019
2094.00,0.0020
2093.00,0.0021
2092.00,0.0023
2091.00,0.0025
2090.00,0.0026
2089.00,0.0026
2088.00,0.0026
2087.00,0.0026
2086.00,0.0026
2085.00,0.0026
2084.00,0.0026
2083.00,0.0026
2082.00,0.0025
2081.00,0.0025
2080.00,0.0025
2079.00,0.0025
2078.00,0.0025
2077.00,0.0026
2076.00,0.0026
2075.00,0.0026
2074.00,0.0026
2073.00,0.0025
2072.00,0.0025
2071.00,0.0024
2070.00,0.0022
2069.00,0.0021
2068.00,0.0020
2067.00,0.0020
2066.00,0.0020
2065.00,0.0020
2064.00,0.0021
2063.00,0.0021
2062.00,0.0020
2061.00,0.0020
2060.00,0.0020
2059.00,0.0020
2058.00,0.0021
2057.00,0.0021
2056.00,0.0022
2055.00,0.0023
2054.00,0.0026
2053.00,0.0031
2052.00,0.0034
2051.00,0.0035
2050.00,0.0032
2049.00,0.0027
2048.00,0.0024
2047.00,0.0022
2046.00,0.0022
2045.00,0.0022
2044.00,0.0023
2043.00,0.0023
2042.00,0.0024
2041.00,0.0024
2040.00,0.0025
2039.00,0.0025
2038.00,0.0025
2037.00,0.0025
2036.00,0.0025
2035.00,0.0023
2034.00,0.0020
2033.00,0.0018
2032.00,0.0017
2031.00,0.0017
2030.00,0.0017
2029.00,0.0016
2028.00,0.0016
2027.00,0.0016
2026.00,0.0016
2025.00,0.0018
2024.00,0.0019
2023.00,0.0020
2022.00,0.0019
2021.00,0.0019
2020.00,0.0018
2019.00,0.0018
2018.00,0.0017
2017.00,0.0018
2016.00,0.0019
2015.00,0.0020
2014.00,0.0020
2013.00,0.0019
2012.00,0.0019
2011.00,0.0019
2010.00,0.0020
2009.00,0.0020
2008.00,0.0018
2007.00,0.0014
2006.00,0.0011
2005.00,0.0011
2004.00,0.0012
2003.00,0.0013
2002.00,0.0014
2001.00,0.0014
2000.00,0.0016
1999.00,0.0018
1998.00,0.0019
1997.00,0.0021
1996.00,0.0021
1995.00,0.0021
1994.00,0.0021
1993.00,0.0023
1992.00,0.0025
1991.00,0.0026
1990.00,0.0027
1989.00,0.0027
1988.00,0.0028
1987.00,0.0029
1986.00,0.0031
1985.00,0.0033
1984.00,0.0036
1983.00,0.0038
1982.00,0.0040
1981.00,0.0040
1980.00,0.0037
1979.00,0.0031
1978.00,0.0024
1977.00,0.0019
1976.00,0.0016
1975.00,0.0015
1974.00,0.0015
1973.00,0.0016
1972.00,0.0017
1971.00,0.0018
1970.00,0.0018
1969.00,0.0017
1968.00,0.0017
1967.00,0.0016
1966.00,0.0014
1965.00,0.0014
1964.00,0.0014
1963.00,0.0013
1962.00,0.0013
1961.00,0.0013
1960.00,0.0013
1959.00,0.0014
1958.00,0.0015
1957.00,0.0016
1956.00,0.0016
1955.00,0.0017
1954.00,0.0017
1953.00,0.0018
1952.00,0.0018
1951.00,0.0017
1950.00,0.0016
1949.00,0.0016
1948.00,0.0016
1947.00,0.0016
1946.00,0.0017
1945.00,0.0018
1944.00,0.0019
1943.00,0.0020
1942.00,0.0020
1941.00,0.0020
1940.00,0.0020
1939.00,0.0020
1938.00,0.0020
1937.00,0.0019
1936.00,0.0019
1935.00,0.0018
1934.00,0.0018
1933.00,0.0018
1932.00,0.0018
1931.00,0.0018
1930.00,0.0018
1929.00,0.0019
1928.00,0.0019
1927.00,0.0020
1926.00,0.0019
1925.00,0.0019
1924.00,0.0019
1923.00,0.0020
1922.00,0.0021
1921.00,0.0021
1920.00,0.0021
1919.00,0.0021
1918.00,0.0021
1917.00,0.0021
1916.00,0.0020
1915.00,0.0020
1914.00,0.0019
1913.00,0.0020
1912.00,0.0021
1911.00,0.0022
1910.00,0.0022
1909.00,0.0021
1908.00,0.0021
1907.00,0.0021
1906.00,0.0021
1905.00,0.0021
1904.00,0.0021
1903.00,0.0021
1902.00,0.0021
1901.00,0.0020
1900.00,0.0020
1899.00,0.0021
1898.00,0.0021
1897.00,0.0021
1896.00,0.0021
1895.00,0.0022
1894.00,0.0021
1893.00,0.0021
1892.00,0.0021
1891.00,0.0021
1890.00,0.0020
1889.00,0.0020
1888.00,0.0020
1887.00,0.0020
1886.00,0.0020
1885.00,0.0020
1884.00,0.0020
1883.00,0.0020
1882.00,0.0020
1881.00,0.0020
1880.00,0.0021
1879.00,0.0021
1878.00,0.0021
1877.00,0.0021
1876.00,0.0021
1875.00,0.0022
1874.00,0.0022
1873.00,0.0022
1872.00,0.0022
1871.00,0.0023
1870.00,0.0023
1869.00,0.0024
1868.00,0.0024
1867.00,0.0023
1866.00,0.0023
1865.00,0.0022
1864.00,0.0023
1863.00,0.0023
1862.00,0.0023
1861.00,0.0023
1860.00,0.0022
1859.00,0.0022
1858.00,0.0022
1857.00,0.0022
1856.00,0.0022
1855.00,0.0022
1854.00,0.0022
1853.00,0.0022
1852.00,0.0022
1851.00,0.0023
1850.00,0.0023
1849.00,0.0024
1848.00,0.0024
1847.00,0.0024
1846.00,0.0024
1845.00,0.0024
1844.00,0.0024
1843.00,0.0024
1842.00,0.0024
1841.00,0.0023
1840.00,0.0024
1839.00,0.0024
1838.00,0.0024
1837.00,0.0024
1836.00,0.0024
1835.00,0.0024
1834.00,0.0023
1833.00,0.0024
1832.00,0.0024
1831.00,0.0024
1830.00,0.0024
1829.00,0.0024
1828.00,0.0024
1827.00,0.0024
1826.00,0.0025
1825.00,0.0025
1824.00,0.0026
1823.00,0.0025
1822.00,0.0025
1821.00,0.0024
1820.00,0.0023
1819.00,0.0022
1818.00,0.0021
1817.00,0.0021
1816.00,0.0021
1815.00,0.0022
1814.00,0.0022
1813.00,0.0023
1812.00,0.0024
1811.00,0.0025
1810.00,0.0025
1809.00,0.0025
1808.00,0.0026
1807.00,0.0026
1806.00,0.0026
1805.00,0.0027
1804.00,0.0028
1803.00,0.0029
1802.00,0.0029
1801.00,0.0029
1800.00,0.0029
1799.00,0.0029
1798.00,0.0029
1797.00,0.0030
1796.00,0.0030
1795.00,0.0031
1794.00,0.0031
1793.00,0.0032
1792.00,0.0033
1791.00,0.0034
1790.00,0.0035
1789.00,0.0036
1788.00,0.0037
1787.00,0.0039
1786.00,0.0040
1785.00,0.0041
1784.00,0.0041
1783.00,0.0041
1782.00,0.0040
1781.00,0.0039
1780.00,0.0039
1779.00,0.0038
1778.00,0.0038
1777.00,0.0038
1776.00,0.0039
1775.00,0.0040
1774.00,0.0040
1773.00,0.0039
1772.00,0.0039
1771.00,0.0038
1770.00,0.0038
1769.00,0.0038
1768.00,0.0038
1767.00,0.0037
1766.00,0.0036
1765.00,0.0036
1764.00,0.0036
1763.00,0.0037
1762.00,0.0037
1761.00,0.0037
1760.00,0.0037
1759.00,0.0037
1758.00,0.0037
1757.00,0.0037
1756.00,0.0037
1755.00,0.0036
1754.00,0.0036
1753.00,0.0036
1752.00,0.0037
1751.00,0.0037
1750.00,0.0037
1749.00,0.0036
1748.00,0.0036
1747.00,0.0037
1746.00,0.0037
1745.00,0.0038
1744.00,0.0038
1743.00,0.0038
1742.00,0.0037
1741.00,0.0036
1740.00,0.0036
1739.00,0.0037
1738.00,0.0037
1737.00,0.0037
1736.00,0.0037
1735.00,0.0037
1734.00,0.0037
1733.00,0.0037
1732.00,0.0038
1731.00,0.0039
1730.00,0.0039
1729.00,0.0039
1728.00,0.0039
1727.00,0.0039
1726.00,0.0040
1725.00,0.0040
1724.00,0.0041
1723.00,0.0042
1722.00,0.0042
1721.00,0.0043
1720.00,0.0044
1719.00,0.0044
1718.00,0.0045
1717.00,0.0046
1716.00,0.0048
1715.00,0.0049
1714.00,0.0050
1713.00,0.0051
1712.00,0.0052
1711.00,0.0052
1710.00,0.0053
1709.00,0.0054
1708.00,0.0055
1707.00,0.0056
1706.00,0.0057
1705.00,0.0058
1704.00,0.0059
1703.00,0.0059
1702.00,0.0059
1701.00,0.0060
1700.00,0.0060
1699.00,0.0061
1698.00,0.0061
1697.00,0.0062
1696.00,0.0063
1695.00,0.0064
1694.00,0.0064
1693.00,0.0065
1692.00,0.0066
1691.00,0.0068
1690.00,0.0069
1689.00,0.0070
1688.00,0.0071
1687.00,0.0071
1686.00,0.0071
1685.00,0.0073
1684.00,0.0075
1683.00,0.0078
1682.00,0.0079
1681.00,0.0081
1680.00,0.0083
1679.00,0.0084
1678.00,0.0086
1677.00,0.0088
1676.00,0.0091
1675.00,0.0094
1674.00,0.0096
1673.00,0.0099
1672.00,0.0103
1671.00,0.0107
1670.00,0.0112
1669.00,0.0118
1668.00,0.0124
1667.00,0.0130
1666.00,0.0135
1665.00,0.0141
1664.00,0.0148
1663.00,0.0156
1662.00,0.0164
1661.00,0.0172
1660.00,0.0182
1659.00,0.0192
1658.00,0.0203
1657.00,0.0214
1656.00,0.0225
1655.00,0.0239
1654.00,0.0259
1653.00,0.0288
1652.00,0.0316
1651.00,0.0339
1650.00,0.0360
1649.00,0.0387
1648.00,0.0425
1647.00,0.0479
1646.00,0.0544
1645.00,0.0610
1644.00,0.0675
1643.00,0.0738
1642.00,0.0799
1641.00,0.0856
1640.00,0.0907
1639.00,0.0954
1638.00,0.0998
1637.00,0.1049
1636.00,0.1108
1635.00,0.1162
1634.00,0.1196
1633.00,0.1210
1632.00,0.1209
1631.00,0.1195
1630.00,0.1166
1629.00,0.1121
1628.00,0.1063
1627.00,0.1001
1626.00,0.0941
1625.00,0.0884
1624.00,0.0825
1623.00,0.0765
1622.00,0.0711
1621.00,0.0669
1620.00,0.0635
1619.00,0.0605
1618.00,0.0574
1617.00,0.0542
1616.00,0.0513
1615.00,0.0489
1614.00,0.0472
1613.00,0.0458
1612.00,0.0445
1611.00,0.0432
1610.00,0.0421
1609.00,0.0412
1608.00,0.0404
1607.00,0.0398
1606.00,0.0394
1605.00,0.0393
1604.00,0.0394
1603.00,0.0396
1602.00,0.0400
1601.00,0.0408
1600.00,0.0418
1599.00,0.0431
1598.00,0.0447
1597.00,0.0469
1596.00,0.0497
1595.00,0.0532
1594.00,0.0575
1593.00,0.0627
1592.00,0.0686
1591.00,0.0751
1590.00,0.0818
1589.00,0.0885
1588.00,0.0948
1587.00,0.1005
1586.00,0.1057
1585.00,0.1104
1584.00,0.1148
1583.00,0.1187
1582.00,0.1221
1581.00,0.1250
1580.00,0.1274
1579.00,0.1292
1578.00,0.1304
1577.00,0.1311
1576.00,0.1314
1575.00,0.1309
1574.00,0.1299
1573.00,0.1286
1572.00,0.1272
1571.00,0.1254
1570.00,0.1226
1569.00,0.1194
1568.00,0.1162
1567.00,0.1132
1566.00,0.1099
1565.00,0.1063
1564.00,0.1026
1563.00,0.0993
1562.00,0.0963
1561.00,0.0932
1560.00,0.0890
1559.00,0.0828
1558.00,0.0768
1557.00,0.0728
1556.00,0.0700
1555.00,0.0673
1554.00,0.0643
1553.00,0.0614
1552.00,0.0588
1551.00,0.0565
1550.00,0.0540
1549.00,0.0516
1548.00,0.0496
1547.00,0.0479
1546.00,0.0464
1545.00,0.0449
1544.00,0.0434
1543.00,0.0420
1542.00,0.0407
1541.00,0.0394
1540.00,0.0381
1539.00,0.0370
1538.00,0.0363
1537.00,0.0360
1536.00,0.0358
1535.00,0.0357
1534.00,0.0356
1533.00,0.0357
1532.00,0.0360
1531.00,0.0365
1530.00,0.0372
1529.00,0.0382
1528.00,0.0394
1527.00,0.0406
1526.00,0.0416
1525.00,0.0421
1524.00,0.0421
1523.00,0.0418
1522.00,0.0408
1521.00,0.0392
1520.00,0.0374
1519.00,0.0356
1518.00,0.0337
1517.00,0.0316
1516.00,0.0296
1515.00,0.0280
1514.00,0.0268
1513.00,0.0259
1512.00,0.0251
1511.00,0.0246
1510.00,0.0241
1509.00,0.0236
1508.00,0.0231
1507.00,0.0224
1506.00,0.0216
1505.00,0.0210
1504.00,0.0207
1503.00,0.0205
1502.00,0.0202
1501.00,0.0199
1500.00,0.0195
1499.00,0.0192
1498.00,0.0188
1497.00,0.0185
1496.00,0.0183
1495.00,0.0181
1494.00,0.0180
1493.00,0.0179
1492.00,0.0179
1491.00,0.0180
1490.00,0.0179
1489.00,0.0179
1488.00,0.0179
1487.00,0.0180
1486.00,0.0181
1485.00,0.0183
1484.00,0.0187
1483.00,0.0191
1482.00,0.0197
1481.00,0.0204
1480.00,0.0212
1479.00,0.0221
1478.00,0.0232
1477.00,0.0243
1476.00,0.0255
1475.00,0.0267
1474.00,0.0280
1473.00,0.0299
1472.00,0.0327
1471.00,0.0357
1470.00,0.0385
1469.00,0.0407
1468.00,0.0421
1467.00,0.0425
1466.00,0.0421
1465.00,0.0415
1464.00,0.0417
1463.00,0.0427
1462.00,0.0446
1461.00,0.0472
1460.00,0.0505
1459.00,0.0545
1458.00,0.0597
1457.00,0.0661
1456.00,0.0723
1455.00,0.0776
1454.00,0.0827
1453.00,0.0886
1452.00,0.0953
1451.00,0.1024
1450.00,0.1093
1449.00,0.1160
1448.00,0.1219
1447.00,0.1264
1446.00,0.1297
1445.00,0.1317
1444.00,0.1325
1443.00,0.1316
1442.00,0.1290
1441.00,0.1251
1440.00,0.1203
1439.00,0.1152
1438.00,0.1098
1437.00,0.1040
1436.00,0.0985
1435.00,0.0939
1434.00,0.0903
1433.00,0.0869
1432.00,0.0832
1431.00,0.0789
1430.00,0.0745
1429.00,0.0703
1428.00,0.0665
1427.00,0.0635
1426.00,0.0610
1425.00,0.0588
1424.00,0.0568
1423.00,0.0552
1422.00,0.0541
1421.00,0.0534
1420.00,0.0529
1419.00,0.0525
1418.00,0.0523
1417.00,0.0522
1416.00,0.0521
1415.00,0.0523
1414.00,0.0525
1413.00,0.0528
1412.00,0.0531
1411.00,0.0535
1410.00,0.0539
1409.00,0.0543
1408.00,0.0548
1407.00,0.0554
1406.00,0.0562
1405.00,0.0569
1404.00,0.0574
1403.00,0.0579
1402.00,0.0584
1401.00,0.0587
1400.00,0.0589
1399.00,0.0589
1398.00,0.0586
1397.00,0.0582
1396.00,0.0575
1395.00,0.0566
1394.00,0.0554
1393.00,0.0542
1392.00,0.0531
1391.00,0.0521
1390.00,0.0513
1389.00,0.0504
1388.00,0.0496
1387.00,0.0490
1386.00,0.0486
1385.00,0.0487
1384.00,0.0495
1383.00,0.0513
1382.00,0.0540
1381.00,0.0575
1380.00,0.0613
1379.00,0.0646
1378.00,0.0669
1377.00,0.0678
1376.00,0.0673
1375.00,0.0656
1374.00,0.0631
1373.00,0.0607
1372.00,0.0591
1371.00,0.0586
1370.00,0.0591
1369.00,0.0602
1368.00,0.0612
1367.00,0.0619
1366.00,0.0618
1365.00,0.0611
1364.00,0.0599
1363.00,0.0587
1362.00,0.0576
1361.00,0.0569
1360.00,0.0567
1359.00,0.0569
1358.00,0.0578
1357.00,0.0592
1356.00,0.0613
1355.00,0.0640
1354.00,0.0670
1353.00,0.0700
1352.00,0.0726
1351.00,0.0746
1350.00,0.0759
1349.00,0.0763
1348.00,0.0755
1347.00,0.0737
1346.00,0.0714
1345.00,0.0690
1344.00,0.0668
1343.00,0.0651
1342.00,0.0642
1341.00,0.0639
1340.00,0.0643
1339.00,0.0653
1338.00,0.0666
1337.00,0.0678
1336.00,0.0686
1335.00,0.0685
1334.00,0.0673
1333.00,0.0654
1332.00,0.0631
1331.00,0.0611
1330.00,0.0599
1329.00,0.0597
1328.00,0.0607
1327.00,0.0628
1326.00,0.0660
1325.00,0.0700
1324.00,0.0747
1323.00,0.0799
1322.00,0.0853
1321.00,0.0902
1320.00,0.0938
1319.00,0.0954
1318.00,0.0945
1317.00,0.0913
1316.00,0.0864
1315.00,0.0808
1314.00,0.0752
1313.00,0.0701
1312.00,0.0658
1311.00,0.0626
1310.00,0.0606
1309.00,0.0596
1308.00,0.0597
1307.00,0.0604
1306.00,0.0613
1305.00,0.0617
1304.00,0.0612
1303.00,0.0598
1302.00,0.0580
1301.00,0.0562
1300.00,0.0548
1299.00,0.0541
1298.00,0.0539
1297.00,0.0542
1296.00,0.0545
1295.00,0.0550
1294.00,0.0558
1293.00,0.0571
1292.00,0.0589
1291.00,0.0613
1290.00,0.0641
1289.00,0.0671
1288.00,0.0699
1287.00,0.0725
1286.00,0.0751
1285.00,0.0778
1284.00,0.0808
1283.00,0.0839
1282.00,0.0865
1281.00,0.0882
1280.00,0.0882
1279.00,0.0863
1278.00,0.0827
1277.00,0.0778
1276.00,0.0722
1275.00,0.0664
1274.00,0.0610
1273.00,0.0561
1272.00,0.0518
1271.00,0.0481
1270.00,0.0449
1269.00,0.0422
1268.00,0.0397
1267.00,0.0376
1266.00,0.0358
1265.00,0.0343
1264.00,0.0330
1263.00,0.0321
1262.00,0.0315
1261.00,0.0313
1260.00,0.0314
1259.00,0.0320
1258.00,0.0332
1257.00,0.0351
1256.00,0.0377
1255.00,0.0407
1254.00,0.0439
1253.00,0.0466
1252.00,0.0487
1251.00,0.0503
1250.00,0.0519
1249.00,0.0541
1248.00,0.0575
1247.00,0.0617
1246.00,0.0660
1245.00,0.0696
1244.00,0.0715
1243.00,0.0714
1242.00,0.0691
1241.00,0.0652
1240.00,0.0603
1239.00,0.0553
1238.00,0.0507
1237.00,0.0467
1236.00,0.0435
1235.00,0.0412
1234.00,0.0398
1233.00,0.0394
1232.00,0.0401
1231.00,0.0417
1230.00,0.0437
1229.00,0.0453
1228.00,0.0459
1227.00,0.0453
1226.00,0.0437
1225.00,0.0417
1224.00,0.0399
1223.00,0.0388
1222.00,0.0386
1221.00,0.0391
1220.00,0.0398
1219.00,0.0404
1218.00,0.0403
1217.00,0.0394
1216.00,0.0379
1215.00,0.0363
1214.00,0.0352
1213.00,0.0348
1212.00,0.0357
1211.00,0.0382
1210.00,0.0426
1209.00,0.0489
1208.00,0.0564
1207.00,0.0637
1206.00,0.0689
1205.00,0.0705
1204.00,0.0684
1203.00,0.0635
1202.00,0.0571
1201.00,0.0504
1200.00,0.0442
1199.00,0.0390
1198.00,0.0349
1197.00,0.0317
1196.00,0.0295
1195.00,0.0280
1194.00,0.0272
1193.00,0.0270
1192.00,0.0272
1191.00,0.0277
1190.00,0.0282
1189.00,0.0285
1188.00,0.0284
1187.00,0.0282
1186.00,0.0279
1185.00,0.0275
1184.00,0.0273
1183.00,0.0273
1182.00,0.0277
1181.00,0.0286
1180.00,0.0305
1179.00,0.0333
1178.00,0.0373
1177.00,0.0420
1176.00,0.0471
1175.00,0.0524
1174.00,0.0578
1173.00,0.0625
1172.00,0.0657
1171.00,0.0664
1170.00,0.0645
1169.00,0.0603
1168.00,0.0549
1167.00,0.0494
1166.00,0.0443
1165.00,0.0398
1164.00,0.0360
1163.00,0.0331
1162.00,0.0309
1161.00,0.0293
1160.00,0.0281
1159.00,0.0274
1158.00,0.0271
1157.00,0.0270
1156.00,0.0272
1155.00,0.0280
1154.00,0.0297
1153.00,0.0327
1152.00,0.0374
1151.00,0.0436
1150.00,0.0499
1149.00,0.0541
1148.00,0.0544
1147.00,0.0504
1146.00,0.0436
1145.00,0.0360
1144.00,0.0294
1143.00,0.0246
1142.00,0.0214
1141.00,0.0194
1140.00,0.0183
1139.00,0.0178
1138.00,0.0176
1137.00,0.0174
1136.00,0.0171
1135.00,0.0167
1134.00,0.0161
1133.00,0.0154
1132.00,0.0146
1131.00,0.0137
1130.00,0.0130
1129.00,0.0123
1128.00,0.0117
1127.00,0.0112
1126.00,0.0108
1125.00,0.0105
1124.00,0.0102
1123.00,0.0099
1122.00,0.0098
1121.00,0.0097
1120.00,0.0096
1119.00,0.0096
1118.00,0.0096
1117.00,0.0097
1116.00,0.0098
1115.00,0.0101
1114.00,0.0104
1113.00,0.0107
1112.00,0.0112
1111.00,0.0117
1110.00,0.0125
1109.00,0.0133
1108.00,0.0140
1107.00,0.0149
1106.00,0.0158
1105.00,0.0168
1104.00,0.0179
1103.00,0.0192
1102.00,0.0205
1101.00,0.0216
1100.00,0.0223
1099.00,0.0224
1098.00,0.0219
1097.00,0.0209
1096.00,0.0196
1095.00,0.0185
1094.00,0.0176
1093.00,0.0168
1092.00,0.0161
1091.00,0.0156
1090.00,0.0152
1089.00,0.0149
1088.00,0.0147
1087.00,0.0147
1086.00,0.0150
1085.00,0.0154
1084.00,0.0157
1083.00,0.0161
1082.00,0.0164
1081.00,0.0165
1080.00,0.0164
1079.00,0.0161
1078.00,0.0157
1077.00,0.0151
1076.00,0.0144
1075.00,0.0139
1074.00,0.0135
1073.00,0.0132
1072.00,0.0131
1071.00,0.0130
1070.00,0.0132
1069.00,0.0136
1068.00,0.0141
1067.00,0.0149
1066.00,0.0160
1065.00,0.0173
1064.00,0.0189
1063.00,0.0210
1062.00,0.0238
1061.00,0.0271
1060.00,0.0311
1059.00,0.0360
1058.00,0.0420
1057.00,0.0489
1056.00,0.0562
1055.00,0.0626
1054.00,0.0666
1053.00,0.0667
1052.00,0.0630
1051.00,0.0571
1050.00,0.0507
1049.00,0.0451
1048.00,0.0409
1047.00,0.0385
1046.00,0.0377
1045.00,0.0379
1044.00,0.0390
1043.00,0.0407
1042.00,0.0431
1041.00,0.0463
1040.00,0.0503
1039.00,0.0552
1038.00,0.0612
1037.00,0.0678
1036.00,0.0744
1035.00,0.0804
1034.00,0.0848
1033.00,0.0871
1032.00,0.0872
1031.00,0.0853
1030.00,0.0816
1029.00,0.0763
1028.00,0.0698
1027.00,0.0630
1026.00,0.0563
1025.00,0.0503
1024.00,0.0452
1023.00,0.0412
1022.00,0.0381
1021.00,0.0356
1020.00,0.0336
1019.00,0.0318
1018.00,0.0301
1017.00,0.0287
1016.00,0.0273
1015.00,0.0262
1014.00,0.0254
1013.00,0.0247
1012.00,0.0242
1011.00,0.0237
1010.00,0.0233
1009.00,0.0227
1008.00,0.0220
1007.00,0.0212
1006.00,0.0204
1005.00,0.0200
1004.00,0.0202
1003.00,0.0211
1002.00,0.0230
1001.00,0.0255
1000.00,0.0278
999.00,0.0292
998.00,0.0291
997.00,0.0275
996.00,0.0252
995.00,0.0229
994.00,0.0212
993.00,0.0201
992.00,0.0195
991.00,0.0193
990.00,0.0194
989.00,0.0197
988.00,0.0199
987.00,0.0203
986.00,0.0205
985.00,0.0205
984.00,0.0202
983.00,0.0195
982.00,0.0187
981.00,0.0178
980.00,0.0169
979.00,0.0162
978.00,0.0157
977.00,0.0152
976.00,0.0149
975.00,0.0148
974.00,0.0149
973.00,0.0152
972.00,0.0155
971.00,0.0159
970.00,0.0163
969.00,0.0166
968.00,0.0169
967.00,0.0173
966.00,0.0180
965.00,0.0191
964.00,0.0205
963.00,0.0223
962.00,0.0241
961.00,0.0257
960.00,0.0266
959.00,0.0271
958.00,0.0271
957.00,0.0267
956.00,0.0260
955.00,0.0253
954.00,0.0246
953.00,0.0241
952.00,0.0237
951.00,0.0234
950.00,0.0232
949.00,0.0231
948.00,0.0229
947.00,0.0229
946.00,0.0230
945.00,0.0232
944.00,0.0235
943.00,0.0239
942.00,0.0240
941.00,0.0239
940.00,0.0234
939.00,0.0227
938.00,0.0219
937.00,0.0211
936.00,0.0204
935.00,0.0200
934.00,0.0199
933.00,0.0201
932.00,0.0204
931.00,0.0209
930.00,0.0217
929.00,0.0225
928.00,0.0234
927.00,0.0242
926.00,0.0250
925.00,0.0257
924.00,0.0263
923.00,0.0269
922.00,0.0279
921.00,0.0292
920.00,0.0307
919.00,0.0322
918.00,0.0337
917.00,0.0350
916.00,0.0362
915.00,0.0371
914.00,0.0374
913.00,0.0368
912.00,0.0353
911.00,0.0333
910.00,0.0314
909.00,0.0301
908.00,0.0295
907.00,0.0299
906.00,0.0311
905.00,0.0330
904.00,0.0352
903.00,0.0372
902.00,0.0385
901.00,0.0390
900.00,0.0385
899.00,0.0375
898.00,0.0364
897.00,0.0358
896.00,0.0362
895.00,0.0385
894.00,0.0436
893.00,0.0519
892.00,0.0631
891.00,0.0750
890.00,0.0839
889.00,0.0872
888.00,0.0856
887.00,0.0829
886.00,0.0816
885.00,0.0816
884.00,0.0801
883.00,0.0755
882.00,0.0684
881.00,0.0607
880.00,0.0541
879.00,0.0494
878.00,0.0463
877.00,0.0443
876.00,0.0427
875.00,0.0416
874.00,0.0409
873.00,0.0405
872.00,0.0404
871.00,0.0406
870.00,0.0413
869.00,0.0424
868.00,0.0441
867.00,0.0468
866.00,0.0507
865.00,0.0561
864.00,0.0624
863.00,0.0689
862.00,0.0744
861.00,0.0778
860.00,0.0790
859.00,0.0790
858.00,0.0787
857.00,0.0784
856.00,0.0777
855.00,0.0761
854.00,0.0734
853.00,0.0700
852.00,0.0664
851.00,0.0634
850.00,0.0613
849.00,0.0602
848.00,0.0598
847.00,0.0601
846.00,0.0609
845.00,0.0620
844.00,0.0630
843.00,0.0636
842.00,0.0641
841.00,0.0645
840.00,0.0651
839.00,0.0655
838.00,0.0647
837.00,0.0622
836.00,0.0584
835.00,0.0542
834.00,0.0505
833.00,0.0478
832.00,0.0463
831.00,0.0459
830.00,0.0463
829.00,0.0468
828.00,0.0467
827.00,0.0454
826.00,0.0429
825.00,0.0397
824.00,0.0365
823.00,0.0337
822.00,0.0317
821.00,0.0303
820.00,0.0290
819.00,0.0281
818.00,0.0273
817.00,0.0267
816.00,0.0263
815.00,0.0263
814.00,0.0266
813.00,0.0272
812.00,0.0279
811.00,0.0288
810.00,0.0300
809.00,0.0319
808.00,0.0346
807.00,0.0384
806.00,0.0429
805.00,0.0470
804.00,0.0494
803.00,0.0498
802.00,0.0486
801.00,0.0471
800.00,0.0461
799.00,0.0465
798.00,0.0480
797.00,0.0502
796.00,0.0521
795.00,0.0531
794.00,0.0526
793.00,0.0505
792.00,0.0473
791.00,0.0437
790.00,0.0404
789.00,0.0377
788.00,0.0357
787.00,0.0344
786.00,0.0335
785.00,0.0328
784.00,0.0322
783.00,0.0317
782.00,0.0312
781.00,0.0309
780.00,0.0308
779.00,0.0308
778.00,0.0311
777.00,0.0316
776.00,0.0322
775.00,0.0330
774.00,0.0340
773.00,0.0349
772.00,0.0356
771.00,0.0361
770.00,0.0364
769.00,0.0364
768.00,0.0361
767.00,0.0357
766.00,0.0351
765.00,0.0344
764.00,0.0337
763.00,0.0330
762.00,0.0325
761.00,0.0320
760.00,0.0316
759.00,0.0314
758.00,0.0313
757.00,0.0314
756.00,0.0314
755.00,0.0312
754.00,0.0308
753.00,0.0299
752.00,0.0284
751.00,0.0269
750.00,0.0256
749.00,0.0249
748.00,0.0245
747.00,0.0245
746.00,0.0247
745.00,0.0251
744.00,0.0255
743.00,0.0261
742.00,0.0268
741.00,0.0277
740.00,0.0288
739.00,0.0301
738.00,0.0319
737.00,0.0339
736.00,0.0362
735.00,0.0386
734.00,0.0407
733.00,0.0418
732.00,0.0415
731.00,0.0399
730.00,0.0375
729.00,0.0350
728.00,0.0329
727.00,0.0314
726.00,0.0305
725.00,0.0298
724.00,0.0293
723.00,0.0289
722.00,0.0286
721.00,0.0284
720.00,0.0282
719.00,0.0281
718.00,0.0281
717.00,0.0282
716.00,0.0282
715.00,0.0282
714.00,0.0284
713.00,0.0286
712.00,0.0286
711.00,0.0285
710.00,0.0284
709.00,0.0281
708.00,0.0279
707.00,0.0277
706.00,0.0276
705.00,0.0276
704.00,0.0276
703.00,0.0276
702.00,0.0277
701.00,0.0278
700.00,0.0279
699.00,0.0280
698.00,0.0282
697.00,0.0284
696.00,0.0286
695.00,0.0288
694.00,0.0292
693.00,0.0295
692.00,0.0299
691.00,0.0304
690.00,0.0311
689.00,0.0319
688.00,0.0326
687.00,0.0335
686.00,0.0345
685.00,0.0357
684.00,0.0367
683.00,0.0379
682.00,0.0390
681.00,0.0401
680.00,0.0408
679.00,0.0412
678.00,0.0415
677.00,0.0414
676.00,0.0409
675.00,0.0404
674.00,0.0401
673.00,0.0398
672.00,0.0395
671.00,0.0394
670.00,0.0392
669.00,0.0384
668.00,0.0365
667.00,0.0342
666.00,0.0324
665.00,0.0308
664.00,0.0295
663.00,0.0283
662.00,0.0276
661.00,0.0273
660.00,0.0270
659.00,0.0269
658.00,0.0267
657.00,0.0265
656.00,0.0262
655.00,0.0261
654.00,0.0263
653.00,0.0267
652.00,0.0271
651.00,0.0276
650.00,0.0280
649.00,0.0281
648.00,0.0278
647.00,0.0273
646.00,0.0269
645.00,0.0266
644.00,0.0263
643.00,0.0262
642.00,0.0264
641.00,0.0267
640.00,0.0271
639.00,0.0276
638.00,0.0283
637.00,0.0289
636.00,0.0294
635.00,0.0298
634.00,0.0301
633.00,0.0302
632.00,0.0301
631.00,0.0298
630.00,0.0295
629.00,0.0290
628.00,0.0283
627.00,0.0275
626.00,0.0269
625.00,0.0264
624.00,0.0259
623.00,0.0255
622.00,0.0254
621.00,0.0254
620.00,0.0256
619.00,0.0262
618.00,0.0272
617.00,0.0286
616.00,0.0298
615.00,0.0307
614.00,0.0311
613.00,0.0308
612.00,0.0302
611.00,0.0295
610.00,0.0290
609.00,0.0287
608.00,0.0284
607.00,0.0282
606.00,0.0280
605.00,0.0277
604.00,0.0273
603.00,0.0268
602.00,0.0265
601.00,0.0262
600.00,0.0259
599.00,0.0258
598.00,0.0261
597.00,0.0265
596.00,0.0269
595.00,0.0273
594.00,0.0276
593.00,0.0277
592.00,0.0274
591.00,0.0269
590.00,0.0267
589.00,0.0265
588.00,0.0262
587.00,0.0261
586.00,0.0264
585.00,0.0271
584.00,0.0284
583.00,0.0308
582.00,0.0349
581.00,0.0404
580.00,0.0462
579.00,0.0506
578.00,0.0520
577.00,0.0494
576.00,0.0438
575.00,0.0373
574.00,0.0317
573.00,0.0276
572.00,0.0246
571.00,0.0225
570.00,0.0213
569.00,0.0206
568.00,0.0199
567.00,0.0196
566.00,0.0196
565.00,0.0198
564.00,0.0200
563.00,0.0204
562.00,0.0212
561.00,0.0221
560.00,0.0232
559.00,0.0246
558.00,0.0267
557.00,0.0297
556.00,0.0337
555.00,0.0391
554.00,0.0452
553.00,0.0502
552.00,0.0525
551.00,0.0514
550.00,0.0477
549.00,0.0426
548.00,0.0378
547.00,0.0344
546.00,0.0328
545.00,0.0323
544.00,0.0322
543.00,0.0323
542.00,0.0328
541.00,0.0335
540.00,0.0348
539.00,0.0372
538.00,0.0411
537.00,0.0457
536.00,0.0495
535.00,0.0515
534.00,0.0507
533.00,0.0472
532.00,0.0421
531.00,0.0374
530.00,0.0349
529.00,0.0348
528.00,0.0367
527.00,0.0395
526.00,0.0417
525.00,0.0422
524.00,0.0413
523.00,0.0403
522.00,0.0394
521.00,0.0378
520.00,0.0349
519.00,0.0314
518.00,0.0284
517.00,0.0262
516.00,0.0246
515.00,0.0238
514.00,0.0237
513.00,0.0238
512.00,0.0238
511.00,0.0242
510.00,0.0251
509.00,0.0262
508.00,0.0271
507.00,0.0282
506.00,0.0297
505.00,0.0313
504.00,0.0332
503.00,0.0355
502.00,0.0386
501.00,0.0418
500.00,0.0449
499.00,0.0482
498.00,0.0522
497.00,0.0563
496.00,0.0604
495.00,0.0644
494.00,0.0685
493.00,0.0723
492.00,0.0752
491.00,0.0777
490.00,0.0800
489.00,0.0817
488.00,0.0824
487.00,0.0825
486.00,0.0824
485.00,0.0817
484.00,0.0805
483.00,0.0795
482.00,0.0793
481.00,0.0794
480.00,0.0794
479.00,0.0796
478.00,0.0800
477.00,0.0803
476.00,0.0799
475.00,0.0794
474.00,0.0792
473.00,0.0787
472.00,0.0777
471.00,0.0768
470.00,0.0763
469.00,0.0760
468.00,0.0753
467.00,0.0747
466.00,0.0746
465.00,0.0739
464.00,0.0720
463.00,0.0692
462.00,0.0662
461.00,0.0630
460.00,0.0598
459.00,0.0574
458.00,0.0563
457.00,0.0557
456.00,0.0549
455.00,0.0543
454.00,0.0541
453.00,0.0537
452.00,0.0528
451.00,0.0521
450.00,0.0519
449.00,0.0515
448.00,0.0505
447.00,0.0496
446.00,0.0493
445.00,0.0489
444.00,0.0480
443.00,0.0472
442.00,0.0470
441.00,0.0468
440.00,0.0461
439.00,0.0457
438.00,0.0461
437.00,0.0466
436.00,0.0464
435.00,0.0457
434.00,0.0450
433.00,0.0437
432.00,0.0416
431.00,0.0395
430.00,0.0383
429.00,0.0372
428.00,0.0358
427.00,0.0348
426.00,0.0346
425.00,0.0343
424.00,0.0332
423.00,0.0325
422.00,0.0330
421.00,0.0333
420.00,0.0323
419.00,0.0312
418.00,0.0312
417.00,0.0311
416.00,0.0301
415.00,0.0297
414.00,0.0305
413.00,0.0312
412.00,0.0304
411.00,0.0293
410.00,0.0293
409.00,0.0293
408.00,0.0283
407.00,0.0279
406.00,0.0291
405.00,0.0302
404.00,0.0299
403.00,0.0295
402.00,0.0306
401.00,0.0315
400.00,0.0307
