Created as New Dataset,Sample 004 By YargerLab Date Wednesday, August 06 2025
cm-1,A
4000.00,0.0039
3999.00,0.0039
3998.00,0.0039
3997.00,0.0038
3996.00,0.0038
3995.00,0.0038
3994.00,0.0039
3993.00,0.0039
3992.00,0.0039
3991.00,0.0039
3990.00,0.0039
3989.00,0.0039
3988.00,0.0039
3987.00,0.0039
3986.00,0.0039
3985.00,0.0039
3984.00,0.0039
3983.00,0.0039
3982.00,0.0039
3981.00,0.0039
3980.00,0.0039
3979.00,0.0039
3978.00,0.0039
3977.00,0.0039
3976.00,0.0039
3975.00,0.0039
3974.00,0.0040
3973.00,0.0040
3972.00,0.0040
3971.00,0.0040
3970.00,0.0040
3969.00,0.0040
3968.00,0.0040
3967.00,0.0039
3966.00,0.0039
3965.00,0.0039
3964.00,0.0039
3963.00,0.0039
3962.00,0.0039
3961.00,0.0039
3960.00,0.0039
3959.00,0.0039
3958.00,0.0039
3957.00,0.0039
3956.00,0.0039
3955.00,0.0039
3954.00,0.0038
3953.00,0.0038
3952.00,0.0038
3951.00,0.0038
3950.00,0.0038
3949.00,0.0038
3948.00,0.0038
3947.00,0.0039
3946.00,0.0039
3945.00,0.0039
3944.00,0.0039
3943.00,0.0039
3942.00,0.0038
3941.00,0.0038
3940.00,0.0038
3939.00,0.0039
3938.00,0.0039
3937.00,0.0039
3936.00,0.0039
3935.00,0.0039
3934.00,0.0039
3933.00,0.0038
3932.00,0.0038
3931.00,0.0039
3930.00,0.0039
3929.00,0.0039
3928.00,0.0039
3927.00,0.0039
3926.00,0.0039
3925.00,0.0039
3924.00,0.0039
3923.00,0.0039
3922.00,0.0039
3921.00,0.0039
3920.00,0.0039
3919.00,0.0039
3918.00,0.0039
3917.00,0.0039
3916.00,0.0038
3915.00,0.0039
3914.00,0.0039
3913.00,0.0039
3912.00,0.0039
3911.00,0.0039
3910.00,0.0039
3909.00,0.0039
3908.00,0.0039
3907.00,0.0039
3906.00,0.0038
3905.00,0.0038
3904.00,0.0038
3903.00,0.0038
3902.00,0.0038
3901.00,0.0038
3900.00,0.0038
3899.00,0.0038
3898.00,0.0038
3897.00,0.0038
3896.00,0.0038
3895.00,0.0038
3894.00,0.0038
3893.00,0.0038
3892.00,0.0038
3891.00,0.0038
3890.00,0.0038
3889.00,0.0038
3888.00,0.0037
3887.00,0.0037
3886.00,0.0037
3885.00,0.0037
3884.00,0.0037
3883.00,0.0037
3882.00,0.0037
3881.00,0.0038
3880.00,0.0038
3879.00,0.0038
3878.00,0.0038
3877.00,0.0038
3876.00,0.0038
3875.00,0.0038
3874.00,0.0038
3873.00,0.0038
3872.00,0.0038
3871.00,0.0038
3870.00,0.0038
3869.00,0.0037
3868.00,0.0037
3867.00,0.0037
3866.00,0.0037
3865.00,0.0037
3864.00,0.0037
3863.00,0.0037
3862.00,0.0037
3861.00,0.0037
3860.00,0.0038
3859.00,0.0038
3858.00,0.0037
3857.00,0.0037
3856.00,0.0037
3855.00,0.0037
3854.00,0.0037
3853.00,0.0037
3852.00,0.0037
3851.00,0.0037
3850.00,0.0038
3849.00,0.0038
3848.00,0.0038
3847.00,0.0038
3846.00,0.0038
3845.00,0.0038
3844.00,0.0038
3843.00,0.0038
3842.00,0.0037
3841.00,0.0037
3840.00,0.0037
3839.00,0.0037
3838.00,0.0037
3837.00,0.0037
3836.00,0.0037
3835.00,0.0037
3834.00,0.0037
3833.00,0.0037
3832.00,0.0038
3831.00,0.0038
3830.00,0.0038
3829.00,0.0038
3828.00,0.0038
3827.00,0.0038
3826.00,0.0038
3825.00,0.0038
3824.00,0.0038
3823.00,0.0038
3822.00,0.0038
3821.00,0.0038
3820.00,0.0038
3819.00,0.0038
3818.00,0.0038
3817.00,0.0038
3816.00,0.0038
3815.00,0.0038
3814.00,0.0038
3813.00,0.0038
3812.00,0.0038
3811.00,0.0038
3810.00,0.0038
3809.00,0.0038
3808.00,0.0037
3807.00,0.0037
3806.00,0.0037
3805.00,0.0037
3804.00,0.0037
3803.00,0.0037
3802.00,0.0037
3801.00,0.0037
3800.00,0.0037
3799.00,0.0037
3798.00,0.0037
3797.00,0.0037
3796.00,0.0038
3795.00,0.0038
3794.00,0.0038
3793.00,0.0038
3792.00,0.0038
3791.00,0.0038
3790.00,0.0038
3789.00,0.0038
3788.00,0.0038
3787.00,0.0037
3786.00,0.0037
3785.00,0.0037
3784.00,0.0037
3783.00,0.0037
3782.00,0.0038
3781.00,0.0038
3780.00,0.0038
3779.00,0.0038
3778.00,0.0038
3777.00,0.0038
3776.00,0.0038
3775.00,0.0038
3774.00,0.0038
3773.00,0.0037
3772.00,0.0037
3771.00,0.0038
3770.00,0.0038
3769.00,0.0038
3768.00,0.0038
3767.00,0.0038
3766.00,0.0038
3765.00,0.0038
3764.00,0.0038
3763.00,0.0038
3762.00,0.0038
3761.00,0.0038
3760.00,0.0038
3759.00,0.0038
3758.00,0.0038
3757.00,0.0038
3756.00,0.0038
3755.00,0.0037
3754.00,0.0037
3753.00,0.0037
3752.00,0.0037
3751.00,0.0037
3750.00,0.0037
3749.00,0.0037
3748.00,0.0036
3747.00,0.0036
3746.00,0.0036
3745.00,0.0036
3744.00,0.0037
3743.00,0.0037
3742.00,0.0037
3741.00,0.0037
3740.00,0.0036
3739.00,0.0036
3738.00,0.0036
3737.00,0.0036
3736.00,0.0036
3735.00,0.0036
3734.00,0.0035
3733.00,0.0035
3732.00,0.0036
3731.00,0.0036
3730.00,0.0036
3729.00,0.0036
3728.00,0.0036
3727.00,0.0035
3726.00,0.0035
3725.00,0.0035
3724.00,0.0035
3723.00,0.0035
3722.00,0.0036
3721.00,0.0036
3720.00,0.0036
3719.00,0.0036
3718.00,0.0036
3717.00,0.0036
3716.00,0.0035
3715.00,0.0035
3714.00,0.0035
3713.00,0.0035
3712.00,0.0035
3711.00,0.0035
3710.00,0.0035
3709.00,0.0035
3708.00,0.0035
3707.00,0.0035
3706.00,0.0035
3705.00,0.0035
3704.00,0.0035
3703.00,0.0035
3702.00,0.0035
3701.00,0.0035
3700.00,0.0035
3699.00,0.0035
3698.00,0.0035
3697.00,0.0035
3696.00,0.0035
3695.00,0.0035
3694.00,0.0035
3693.00,0.0034
3692.00,0.0034
3691.00,0.0034
3690.00,0.0034
3689.00,0.0034
3688.00,0.0034
3687.00,0.0034
3686.00,0.0034
3685.00,0.0035
3684.00,0.0035
3683.00,0.0035
3682.00,0.0034
3681.00,0.0034
3680.00,0.0034
3679.00,0.0034
3678.00,0.0034
3677.00,0.0034
3676.00,0.0033
3675.00,0.0033
3674.00,0.0033
3673.00,0.0033
3672.00,0.0033
3671.00,0.0033
3670.00,0.0033
3669.00,0.0033
3668.00,0.0033
3667.00,0.0033
3666.00,0.0033
3665.00,0.0033
3664.00,0.0033
3663.00,0.0034
3662.00,0.0034
3661.00,0.0034
3660.00,0.0034
3659.00,0.0034
3658.00,0.0034
3657.00,0.0034
3656.00,0.0034
3655.00,0.0034
3654.00,0.0033
3653.00,0.0033
3652.00,0.0033
3651.00,0.0032
3650.00,0.0032
3649.00,0.0032
3648.00,0.0032
3647.00,0.0032
3646.00,0.0033
3645.00,0.0033
3644.00,0.0032
3643.00,0.0032
3642.00,0.0032
3641.00,0.0032
3640.00,0.0032
3639.00,0.0032
3638.00,0.0032
3637.00,0.0032
3636.00,0.0032
3635.00,0.0032
3634.00,0.0033
3633.00,0.0033
3632.00,0.0032
3631.00,0.0032
3630.00,0.0031
3629.00,0.0031
3628.00,0.0031
3627.00,0.0031
3626.00,0.0032
3625.00,0.0032
3624.00,0.0032
3623.00,0.0032
3622.00,0.0031
3621.00,0.0031
3620.00,0.0031
3619.00,0.0031
3618.00,0.0031
3617.00,0.0031
3616.00,0.0031
3615.00,0.0031
3614.00,0.0031
3613.00,0.0032
3612.00,0.0032
3611.00,0.0032
3610.00,0.0032
3609.00,0.0032
3608.00,0.0032
3607.00,0.0032
3606.00,0.0031
3605.00,0.0031
3604.00,0.0031
3603.00,0.0031
3602.00,0.0031
3601.00,0.0031
3600.00,0.0031
3599.00,0.0031
3598.00,0.0031
3597.00,0.0031
3596.00,0.0031
3595.00,0.0030
3594.00,0.0030
3593.00,0.0031
3592.00,0.0031
3591.00,0.0031
3590.00,0.0031
3589.00,0.0030
3588.00,0.0030
3587.00,0.0029
3586.00,0.0029
3585.00,0.0029
3584.00,0.0029
3583.00,0.0030
3582.00,0.0030
3581.00,0.0030
3580.00,0.0030
3579.00,0.0030
3578.00,0.0030
3577.00,0.0030
3576.00,0.0030
3575.00,0.0030
3574.00,0.0030
3573.00,0.0029
3572.00,0.0029
3571.00,0.0029
3570.00,0.0029
3569.00,0.0030
3568.00,0.0030
3567.00,0.0030
3566.00,0.0030
3565.00,0.0029
3564.00,0.0029
3563.00,0.0030
3562.00,0.0030
3561.00,0.0030
3560.00,0.0031
3559.00,0.0031
3558.00,0.0031
3557.00,0.0031
3556.00,0.0031
3555.00,0.0031
3554.00,0.0031
3553.00,0.0031
3552.00,0.0031
3551.00,0.0031
3550.00,0.0032
3549.00,0.0032
3548.00,0.0032
3547.00,0.0033
3546.00,0.0033
3545.00,0.0033
3544.00,0.0033
3543.00,0.0033
3542.00,0.0034
3541.00,0.0034
3540.00,0.0034
3539.00,0.0034
3538.00,0.0035
3537.00,0.0035
3536.00,0.0035
3535.00,0.0035
3534.00,0.0035
3533.00,0.0035
3532.00,0.0036
3531.00,0.0036
3530.00,0.0037
3529.00,0.0037
3528.00,0.0037
3527.00,0.0037
3526.00,0.0037
3525.00,0.0037
3524.00,0.0038
3523.00,0.0038
3522.00,0.0038
3521.00,0.0038
3520.00,0.0039
3519.00,0.0039
3518.00,0.0039
3517.00,0.0039
3516.00,0.0040
3515.00,0.0040
3514.00,0.0040
3513.00,0.0040
3512.00,0.0040
3511.00,0.0041
3510.00,0.0041
3509.00,0.0041
3508.00,0.0041
3507.00,0.0042
3506.00,0.0042
3505.00,0.0042
3504.00,0.0043
3503.00,0.0043
3502.00,0.0043
3501.00,0.0043
3500.00,0.0044
3499.00,0.0044
3498.00,0.0045
3497.00,0.0045
3496.00,0.0046
3495.00,0.0046
3494.00,0.0047
3493.00,0.0047
3492.00,0.0048
3491.00,0.0048
3490.00,0.0049
3489.00,0.0049
3488.00,0.0049
3487.00,0.0049
3486.00,0.0050
3485.00,0.0050
3484.00,0.0051
3483.00,0.0051
3482.00,0.0052
3481.00,0.0053
3480.00,0.0054
3479.00,0.0054
3478.00,0.0055
3477.00,0.0055
3476.00,0.0056
3475.00,0.0057
3474.00,0.0057
3473.00,0.0058
3472.00,0.0059
3471.00,0.0060
3470.00,0.0061
3469.00,0.0062
3468.00,0.0063
3467.00,0.0064
3466.00,0.0065
3465.00,0.0066
3464.00,0.0066
3463.00,0.0067
3462.00,0.0068
3461.00,0.0069
3460.00,0.0070
3459.00,0.0070
3458.00,0.0071
3457.00,0.0072
3456.00,0.0073
3455.00,0.0074
3454.00,0.0076
3453.00,0.0077
3452.00,0.0078
3451.00,0.0079
3450.00,0.0080
3449.00,0.0081
3448.00,0.0082
3447.00,0.0083
3446.00,0.0084
3445.00,0.0085
3444.00,0.0086
3443.00,0.0087
3442.00,0.0089
3441.00,0.0090
3440.00,0.0092
3439.00,0.0093
3438.00,0.0095
3437.00,0.0096
3436.00,0.0097
3435.00,0.0098
3434.00,0.0100
3433.00,0.0101
3432.00,0.0103
3431.00,0.0104
3430.00,0.0106
3429.00,0.0108
3428.00,0.0109
3427.00,0.0111
3426.00,0.0113
3425.00,0.0114
3424.00,0.0117
3423.00,0.0119
3422.00,0.0121
3421.00,0.0123
3420.00,0.0124
3419.00,0.0126
3418.00,0.0128
3417.00,0.0130
3416.00,0.0132
3415.00,0.0133
3414.00,0.0135
3413.00,0.0137
3412.00,0.0138
3411.00,0.0140
3410.00,0.0142
3409.00,0.0143
3408.00,0.0145
3407.00,0.0146
3406.00,0.0148
3405.00,0.0149
3404.00,0.0150
3403.00,0.0151
3402.00,0.0152
3401.00,0.0152
3400.00,0.0153
3399.00,0.0153
3398.00,0.0154
3397.00,0.0154
3396.00,0.0154
3395.00,0.0154
3394.00,0.0154
3393.00,0.0153
3392.00,0.0153
3391.00,0.0153
3390.00,0.0153
3389.00,0.0152
3388.00,0.0151
3387.00,0.0151
3386.00,0.0150
3385.00,0.0149
3384.00,0.0148
3383.00,0.0147
3382.00,0.0146
3381.00,0.0145
3380.00,0.0144
3379.00,0.0143
3378.00,0.0141
3377.00,0.0140
3376.00,0.0139
3375.00,0.0138
3374.00,0.0137
3373.00,0.0136
3372.00,0.0135
3371.00,0.0134
3370.00,0.0134
3369.00,0.0133
3368.00,0.0132
3367.00,0.0131
3366.00,0.0130
3365.00,0.0128
3364.00,0.0127
3363.00,0.0127
3362.00,0.0126
3361.00,0.0125
3360.00,0.0125
3359.00,0.0124
3358.00,0.0124
3357.00,0.0123
3356.00,0.0122
3355.00,0.0122
3354.00,0.0121
3353.00,0.0120
3352.00,0.0119
3351.00,0.0119
3350.00,0.0118
3349.00,0.0117
3348.00,0.0117
3347.00,0.0117
3346.00,0.0116
3345.00,0.0116
3344.00,0.0116
3343.00,0.0115
3342.00,0.0115
3341.00,0.0115
3340.00,0.0114
3339.00,0.0114
3338.00,0.0114
3337.00,0.0114
3336.00,0.0114
3335.00,0.0114
3334.00,0.0113
3333.00,0.0113
3332.00,0.0113
3331.00,0.0113
3330.00,0.0113
3329.00,0.0113
3328.00,0.0113
3327.00,0.0113
3326.00,0.0113
3325.00,0.0113
3324.00,0.0113
3323.00,0.0113
3322.00,0.0113
3321.00,0.0114
3320.00,0.0114
3319.00,0.0114
3318.00,0.0114
3317.00,0.0115
3316.00,0.0115
3315.00,0.0115
3314.00,0.0115
3313.00,0.0116
3312.00,0.0116
3311.00,0.0117
3310.00,0.0117
3309.00,0.0118
3308.00,0.0118
3307.00,0.0119
3306.00,0.0119
3305.00,0.0120
3304.00,0.0120
3303.00,0.0121
3302.00,0.0121
3301.00,0.0121
3300.00,0.0122
3299.00,0.0123
3298.00,0.0123
3297.00,0.0124
3296.00,0.0125
3295.00,0.0125
3294.00,0.0126
3293.00,0.0127
3292.00,0.0127
3291.00,0.0128
3290.00,0.0128
3289.00,0.0129
3288.00,0.0129
3287.00,0.0130
3286.00,0.0131
3285.00,0.0132
3284.00,0.0133
3283.00,0.0134
3282.00,0.0134
3281.00,0.0135
3280.00,0.0136
3279.00,0.0137
3278.00,0.0138
3277.00,0.0138
3276.00,0.0139
3275.00,0.0140
3274.00,0.0141
3273.00,0.0141
3272.00,0.0142
3271.00,0.0143
3270.00,0.0144
3269.00,0.0145
3268.00,0.0146
3267.00,0.0147
3266.00,0.0148
3265.00,0.0148
3264.00,0.0149
3263.00,0.0150
3262.00,0.0151
3261.00,0.0151
3260.00,0.0152
3259.00,0.0153
3258.00,0.0153
3257.00,0.0154
3256.00,0.0155
3255.00,0.0157
3254.00,0.0158
3253.00,0.0158
3252.00,0.0159
3251.00,0.0160
3250.00,0.0160
3249.00,0.0161
3248.00,0.0162
3247.00,0.0162
3246.00,0.0163
3245.00,0.0164
3244.00,0.0165
3243.00,0.0166
3242.00,0.0166
3241.00,0.0167
3240.00,0.0168
3239.00,0.0168
3238.00,0.0168
3237.00,0.0168
3236.00,0.0168
3235.00,0.0169
3234.00,0.0169
3233.00,0.0169
3232.00,0.0170
3231.00,0.0170
3230.00,0.0170
3229.00,0.0171
3228.00,0.0171
3227.00,0.0171
3226.00,0.0172
3225.00,0.0172
3224.00,0.0172
3223.00,0.0172
3222.00,0.0172
3221.00,0.0172
3220.00,0.0171
3219.00,0.0171
3218.00,0.0171
3217.00,0.0170
3216.00,0.0170
3215.00,0.0169
3214.00,0.0169
3213.00,0.0169
3212.00,0.0168
3211.00,0.0168
3210.00,0.0167
3209.00,0.0166
3208.00,0.0166
3207.00,0.0165
3206.00,0.0165
3205.00,0.0164
3204.00,0.0163
3203.00,0.0162
3202.00,0.0162
3201.00,0.0161
3200.00,0.0160
3199.00,0.0160
3198.00,0.0159
3197.00,0.0158
3196.00,0.0157
3195.00,0.0156
3194.00,0.0155
3193.00,0.0153
3192.00,0.0152
3191.00,0.0151
3190.00,0.0150
3189.00,0.0150
3188.00,0.0149
3187.00,0.0148
3186.00,0.0148
3185.00,0.0147
3184.00,0.0146
3183.00,0.0145
3182.00,0.0144
3181.00,0.0143
3180.00,0.0142
3179.00,0.0141
3178.00,0.0140
3177.00,0.0139
3176.00,0.0138
3175.00,0.0137
3174.00,0.0136
3173.00,0.0135
3172.00,0.0134
3171.00,0.0132
3170.00,0.0131
3169.00,0.0130
3168.00,0.0129
3167.00,0.0128
3166.00,0.0127
3165.00,0.0126
3164.00,0.0125
3163.00,0.0124
3162.00,0.0122
3161.00,0.0121
3160.00,0.0120
3159.00,0.0119
3158.00,0.0118
3157.00,0.0117
3156.00,0.0116
3155.00,0.0114
3154.00,0.0113
3153.00,0.0112
3152.00,0.0111
3151.00,0.0110
3150.00,0.0109
3149.00,0.0108
3148.00,0.0108
3147.00,0.0107
3146.00,0.0106
3145.00,0.0105
3144.00,0.0104
3143.00,0.0103
3142.00,0.0102
3141.00,0.0101
3140.00,0.0100
3139.00,0.0100
3138.00,0.0099
3137.00,0.0099
3136.00,0.0098
3135.00,0.0097
3134.00,0.0096
3133.00,0.0095
3132.00,0.0095
3131.00,0.0094
3130.00,0.0093
3129.00,0.0093
3128.00,0.0092
3127.00,0.0092
3126.00,0.0091
3125.00,0.0091
3124.00,0.0090
3123.00,0.0090
3122.00,0.0089
3121.00,0.0088
3120.00,0.0088
3119.00,0.0087
3118.00,0.0087
3117.00,0.0086
3116.00,0.0086
3115.00,0.0085
3114.00,0.0084
3113.00,0.0083
3112.00,0.0082
3111.00,0.0082
3110.00,0.0081
3109.00,0.0080
3108.00,0.0080
3107.00,0.0079
3106.00,0.0079
3105.00,0.0078
3104.00,0.0078
3103.00,0.0077
3102.00,0.0077
3101.00,0.0076
3100.00,0.0076
3099.00,0.0076
3098.00,0.0076
3097.00,0.0075
3096.00,0.0075
3095.00,0.0075
3094.00,0.0075
3093.00,0.0075
3092.00,0.0075
3091.00,0.0076
3090.00,0.0076
3089.00,0.0076
3088.00,0.0077
3087.00,0.0077
3086.00,0.0077
3085.00,0.0077
3084.00,0.0077
3083.00,0.0077
3082.00,0.0077
3081.00,0.0076
3080.00,0.0076
3079.00,0.0076
3078.00,0.0076
3077.00,0.0076
3076.00,0.0075
3075.00,0.0074
3074.00,0.0074
3073.00,0.0074
3072.00,0.0074
3071.00,0.0073
3070.00,0.0073
3069.00,0.0073
3068.00,0.0073
3067.00,0.0073
3066.00,0.0073
3065.00,0.0073
3064.00,0.0073
3063.00,0.0073
3062.00,0.0073
3061.00,0.0073
3060.00,0.0073
3059.00,0.0074
3058.00,0.0074
3057.00,0.0074
3056.00,0.0074
3055.00,0.0074
3054.00,0.0074
3053.00,0.0074
3052.00,0.0074
3051.00,0.0074
3050.00,0.0073
3049.00,0.0073
3048.00,0.0073
3047.00,0.0073
3046.00,0.0073
3045.00,0.0073
3044.00,0.0073
3043.00,0.0073
3042.00,0.0073
3041.00,0.0073
3040.00,0.0074
3039.00,0.0075
3038.00,0.0076
3037.00,0.0076
3036.00,0.0077
3035.00,0.0077
3034.00,0.0077
3033.00,0.0078
3032.00,0.0078
3031.00,0.0077
3030.00,0.0077
3029.00,0.0076
3028.00,0.0076
3027.00,0.0075
3026.00,0.0074
3025.00,0.0073
3024.00,0.0072
3023.00,0.0071
3022.00,0.0070
3021.00,0.0069
3020.00,0.0069
3019.00,0.0068
3018.00,0.0068
3017.00,0.0067
3016.00,0.0067
3015.00,0.0067
3014.00,0.0066
3013.00,0.0067
3012.00,0.0067
3011.00,0.0067
3010.00,0.0068
3009.00,0.0069
3008.00,0.0070
3007.00,0.0071
3006.00,0.0072
3005.00,0.0074
3004.00,0.0075
3003.00,0.0077
3002.00,0.0079
3001.00,0.0081
3000.00,0.0084
2999.00,0.0087
2998.00,0.0090
2997.00,0.0093
2996.00,0.0096
2995.00,0.0099
2994.00,0.0101
2993.00,0.0103
2992.00,0.0105
2991.00,0.0107
2990.00,0.0108
2989.00,0.0110
2988.00,0.0112
2987.00,0.0114
2986.00,0.0118
2985.00,0.0121
2984.00,0.0126
2983.00,0.0132
2982.00,0.0139
2981.00,0.0145
2980.00,0.0151
2979.00,0.0156
2978.00,0.0159
2977.00,0.0162
2976.00,0.0165
2975.00,0.0169
2974.00,0.0175
2973.00,0.0182
2972.00,0.0190
2971.00,0.0197
2970.00,0.0204
2969.00,0.0208
2968.00,0.0212
2967.00,0.0215
2966.00,0.0218
2965.00,0.0222
2964.00,0.0226
2963.00,0.0231
2962.00,0.0234
2961.00,0.0236
2960.00,0.0236
2959.00,0.0234
2958.00,0.0230
2957.00,0.0225
2956.00,0.0218
2955.00,0.0211
2954.00,0.0203
2953.00,0.0197
2952.00,0.0191
2951.00,0.0187
2950.00,0.0183
2949.00,0.0182
2948.00,0.0182
2947.00,0.0183
2946.00,0.0186
2945.00,0.0190
2944.00,0.0195
2943.00,0.0201
2942.00,0.0208
2941.00,0.0215
2940.00,0.0224
2939.00,0.0234
2938.00,0.0245
2937.00,0.0258
2936.00,0.0273
2935.00,0.0289
2934.00,0.0306
2933.00,0.0323
2932.00,0.0340
2931.00,0.0357
2930.00,0.0371
2929.00,0.0383
2928.00,0.0392
2927.00,0.0397
2926.00,0.0398
2925.00,0.0396
2924.00,0.0390
2923.00,0.0382
2922.00,0.0372
2921.00,0.0361
2920.00,0.0349
2919.00,0.0337
2918.00,0.0324
2917.00,0.0312
2916.00,0.0301
2915.00,0.0290
2914.00,0.0279
2913.00,0.0270
2912.00,0.0261
2911.00,0.0253
2910.00,0.0245
2909.00,0.0238
2908.00,0.0231
2907.00,0.0225
2906.00,0.0219
2905.00,0.0213
2904.00,0.0208
2903.00,0.0202
2902.00,0.0197
2901.00,0.0193
2900.00,0.0188
2899.00,0.0184
2898.00,0.0180
2897.00,0.0176
2896.00,0.0173
2895.00,0.0169
2894.00,0.0166
2893.00,0.0163
2892.00,0.0160
2891.00,0.0158
2890.00,0.0155
2889.00,0.0153
2888.00,0.0151
2887.00,0.0149
2886.00,0.0148
2885.00,0.0146
2884.00,0.0145
2883.00,0.0145
2882.00,0.0146
2881.00,0.0147
2880.00,0.0150
2879.00,0.0154
2878.00,0.0158
2877.00,0.0164
2876.00,0.0169
2875.00,0.0175
2874.00,0.0180
2873.00,0.0183
2872.00,0.0185
2871.00,0.0186
2870.00,0.0186
2869.00,0.0185
2868.00,0.0185
2867.00,0.0186
2866.00,0.0188
2865.00,0.0193
2864.00,0.0199
2863.00,0.0209
2862.00,0.0221
2861.00,0.0234
2860.00,0.0247
2859.00,0.0260
2858.00,0.0270
2857.00,0.0278
2856.00,0.0283
2855.00,0.0285
2854.00,0.0285
2853.00,0.0282
2852.00,0.0278
2851.00,0.0270
2850.00,0.0260
2849.00,0.0247
2848.00,0.0233
2847.00,0.0218
2846.00,0.0204
2845.00,0.0191
2844.00,0.0179
2843.00,0.0168
2842.00,0.0158
2841.00,0.0149
2840.00,0.0142
2839.00,0.0135
2838.00,0.0130
2837.00,0.0125
2836.00,0.0121
2835.00,0.0117
2834.00,0.0114
2833.00,0.0111
2832.00,0.0109
2831.00,0.0107
2830.00,0.0104
2829.00,0.0102
2828.00,0.0100
2827.00,0.0098
2826.00,0.0096
2825.00,0.0095
2824.00,0.0093
2823.00,0.0092
2822.00,0.0090
2821.00,0.0089
2820.00,0.0088
2819.00,0.0087
2818.00,0.0086
2817.00,0.0085
2816.00,0.0084
2815.00,0.0083
2814.00,0.0083
2813.00,0.0082
2812.00,0.0081
2811.00,0.0080
2810.00,0.0080
2809.00,0.0079
2808.00,0.0078
2807.00,0.0078
2806.00,0.0077
2805.00,0.0077
2804.00,0.0076
2803.00,0.0076
2802.00,0.0076
2801.00,0.0075
2800.00,0.0075
2799.00,0.0075
2798.00,0.0074
2797.00,0.0074
2796.00,0.0073
2795.00,0.0073
2794.00,0.0072
2793.00,0.0072
2792.00,0.0071
2791.00,0.0071
2790.00,0.0070
2789.00,0.0070
2788.00,0.0069
2787.00,0.0069
2786.00,0.0068
2785.00,0.0068
2784.00,0.0068
2783.00,0.0067
2782.00,0.0067
2781.00,0.0067
2780.00,0.0066
2779.00,0.0066
2778.00,0.0066
2777.00,0.0065
2776.00,0.0065
2775.00,0.0065
2774.00,0.0065
2773.00,0.0065
2772.00,0.0065
2771.00,0.0065
2770.00,0.0064
2769.00,0.0064
2768.00,0.0064
2767.00,0.0064
2766.00,0.0064
2765.00,0.0064
2764.00,0.0064
2763.00,0.0064
2762.00,0.0064
2761.00,0.0064
2760.00,0.0064
2759.00,0.0064
2758.00,0.0064
2757.00,0.0064
2756.00,0.0064
2755.00,0.0064
2754.00,0.0064
2753.00,0.0064
2752.00,0.0064
2751.00,0.0064
2750.00,0.0064
2749.00,0.0064
2748.00,0.0064
2747.00,0.0064
2746.00,0.0064
2745.00,0.0064
2744.00,0.0065
2743.00,0.0065
2742.00,0.0065
2741.00,0.0065
2740.00,0.0066
2739.00,0.0066
2738.00,0.0066
2737.00,0.0067
2736.00,0.0068
2735.00,0.0068
2734.00,0.0069
2733.00,0.0069
2732.00,0.0069
2731.00,0.0069
2730.00,0.0070
2729.00,0.0070
2728.00,0.0070
2727.00,0.0069
2726.00,0.0069
2725.00,0.0069
2724.00,0.0068
2723.00,0.0068
2722.00,0.0068
2721.00,0.0067
2720.00,0.0067
2719.00,0.0067
2718.00,0.0066
2717.00,0.0066
2716.00,0.0066
2715.00,0.0066
2714.00,0.0066
2713.00,0.0065
2712.00,0.0065
2711.00,0.0065
2710.00,0.0065
2709.00,0.0065
2708.00,0.0065
2707.00,0.0065
2706.00,0.0065
2705.00,0.0065
2704.00,0.0065
2703.00,0.0064
2702.00,0.0064
2701.00,0.0064
2700.00,0.0064
2699.00,0.0064
2698.00,0.0063
2697.00,0.0063
2696.00,0.0063
2695.00,0.0063
2694.00,0.0063
2693.00,0.0062
2692.00,0.0062
2691.00,0.0062
2690.00,0.0062
2689.00,0.0062
2688.00,0.0062
2687.00,0.0062
2686.00,0.0061
2685.00,0.0061
2684.00,0.0061
2683.00,0.0061
2682.00,0.0061
2681.00,0.0061
2680.00,0.0060
2679.00,0.0060
2678.00,0.0060
2677.00,0.0060
2676.00,0.0060
2675.00,0.0060
2674.00,0.0060
2673.00,0.0061
2672.00,0.0061
2671.00,0.0061
2670.00,0.0061
2669.00,0.0062
2668.00,0.0062
2667.00,0.0062
2666.00,0.0063
2665.00,0.0064
2664.00,0.0064
2663.00,0.0065
2662.00,0.0066
2661.00,0.0066
2660.00,0.0066
2659.00,0.0067
2658.00,0.0067
2657.00,0.0067
2656.00,0.0067
2655.00,0.0067
2654.00,0.0067
2653.00,0.0067
2652.00,0.0067
2651.00,0.0067
2650.00,0.0067
2649.00,0.0067
2648.00,0.0067
2647.00,0.0067
2646.00,0.0067
2645.00,0.0067
2644.00,0.0067
2643.00,0.0066
2642.00,0.0066
2641.00,0.0066
2640.00,0.0066
2639.00,0.0066
2638.00,0.0066
2637.00,0.0065
2636.00,0.0065
2635.00,0.0065
2634.00,0.0065
2633.00,0.0064
2632.00,0.0064
2631.00,0.0064
2630.00,0.0063
2629.00,0.0063
2628.00,0.0063
2627.00,0.0062
2626.00,0.0062
2625.00,0.0062
2624.00,0.0062
2623.00,0.0062
2622.00,0.0062
2621.00,0.0061
2620.00,0.0061
2619.00,0.0061
2618.00,0.0060
2617.00,0.0060
2616.00,0.0060
2615.00,0.0060
2614.00,0.0060
2613.00,0.0060
2612.00,0.0060
2611.00,0.0060
2610.00,0.0060
2609.00,0.0060
2608.00,0.0060
2607.00,0.0060
2606.00,0.0060
2605.00,0.0060
2604.00,0.0060
2603.00,0.0060
2602.00,0.0060
2601.00,0.0061
2600.00,0.0061
2599.00,0.0061
2598.00,0.0061
2597.00,0.0061
2596.00,0.0061
2595.00,0.0061
2594.00,0.0061
2593.00,0.0061
2592.00,0.0060
2591.00,0.0060
2590.00,0.0060
2589.00,0.0061
2588.00,0.0061
2587.00,0.0061
2586.00,0.0061
2585.00,0.0061
2584.00,0.0061
2583.00,0.0060
2582.00,0.0060
2581.00,0.0060
2580.00,0.0060
2579.00,0.0059
2578.00,0.0059
2577.00,0.0059
2576.00,0.0059
2575.00,0.0059
2574.00,0.0059
2573.00,0.0059
2572.00,0.0059
2571.00,0.0058
2570.00,0.0058
2569.00,0.0058
2568.00,0.0058
2567.00,0.0058
2566.00,0.0058
2565.00,0.0058
2564.00,0.0058
2563.00,0.0058
2562.00,0.0058
2561.00,0.0058
2560.00,0.0057
2559.00,0.0057
2558.00,0.0057
2557.00,0.0056
2556.00,0.0056
2555.00,0.0055
2554.00,0.0055
2553.00,0.0055
2552.00,0.0055
2551.00,0.0055
2550.00,0.0055
2549.00,0.0055
2548.00,0.0055
2547.00,0.0056
2546.00,0.0056
2545.00,0.0055
2544.00,0.0055
2543.00,0.0055
2542.00,0.0055
2541.00,0.0055
2540.00,0.0055
2539.00,0.0055
2538.00,0.0055
2537.00,0.0055
2536.00,0.0055
2535.00,0.0055
2534.00,0.0055
2533.00,0.0055
2532.00,0.0055
2531.00,0.0055
2530.00,0.0055
2529.00,0.0055
2528.00,0.0055
2527.00,0.0055
2526.00,0.0055
2525.00,0.0055
2524.00,0.0054
2523.00,0.0054
2522.00,0.0053
2521.00,0.0053
2520.00,0.0052
2519.00,0.0052
2518.00,0.0052
2517.00,0.0051
2516.00,0.0051
2515.00,0.0051
2514.00,0.0051
2513.00,0.0052
2512.00,0.0052
2511.00,0.0052
2510.00,0.0052
2509.00,0.0051
2508.00,0.0051
2507.00,0.0051
2506.00,0.0051
2505.00,0.0051
2504.00,0.0051
2503.00,0.0051
2502.00,0.0051
2501.00,0.0050
2500.00,0.0050
2499.00,0.0050
2498.00,0.0050
2497.00,0.0050
2496.00,0.0050
2495.00,0.0050
2494.00,0.0049
2493.00,0.0049
2492.00,0.0049
2491.00,0.0049
2490.00,0.0049
2489.00,0.0049
2488.00,0.0049
2487.00,0.0049
2486.00,0.0049
2485.00,0.0049
2484.00,0.0049
2483.00,0.0049
2482.00,0.0048
2481.00,0.0048
2480.00,0.0048
2479.00,0.0048
2478.00,0.0048
2477.00,0.0048
2476.00,0.0048
2475.00,0.0048
2474.00,0.0048
2473.00,0.0048
2472.00,0.0048
2471.00,0.0048
2470.00,0.0048
2469.00,0.0048
2468.00,0.0048
2467.00,0.0048
2466.00,0.0048
2465.00,0.0048
2464.00,0.0048
2463.00,0.0048
2462.00,0.0048
2461.00,0.0049
2460.00,0.0049
2459.00,0.0049
2458.00,0.0050
2457.00,0.0049
2456.00,0.0049
2455.00,0.0049
2454.00,0.0049
2453.00,0.0048
2452.00,0.0048
2451.00,0.0048
2450.00,0.0048
2449.00,0.0048
2448.00,0.0048
2447.00,0.0048
2446.00,0.0048
2445.00,0.0048
2444.00,0.0048
2443.00,0.0047
2442.00,0.0047
2441.00,0.0047
2440.00,0.0047
2439.00,0.0048
2438.00,0.0047
2437.00,0.0047
2436.00,0.0047
2435.00,0.0047
2434.00,0.0047
2433.00,0.0047
2432.00,0.0046
2431.00,0.0046
2430.00,0.0046
2429.00,0.0046
2428.00,0.0045
2427.00,0.0045
2426.00,0.0045
2425.00,0.0045
2424.00,0.0045
2423.00,0.0046
2422.00,0.0046
2421.00,0.0046
2420.00,0.0045
2419.00,0.0045
2418.00,0.0045
2417.00,0.0045
2416.00,0.0045
2415.00,0.0045
2414.00,0.0045
2413.00,0.0045
2412.00,0.0045
2411.00,0.0045
2410.00,0.0045
2409.00,0.0044
2408.00,0.0044
2407.00,0.0043
2406.00,0.0043
2405.00,0.0043
2404.00,0.0043
2403.00,0.0043
2402.00,0.0043
2401.00,0.0043
2400.00,0.0043
2399.00,0.0043
2398.00,0.0043
2397.00,0.0043
2396.00,0.0043
2395.00,0.0043
2394.00,0.0043
2393.00,0.0043
2392.00,0.0043
2391.00,0.0043
2390.00,0.0043
2389.00,0.0042
2388.00,0.0042
2387.00,0.0042
2386.00,0.0041
2385.00,0.0041
2384.00,0.0040
2383.00,0.0039
2382.00,0.0038
2381.00,0.0037
2380.00,0.0037
2379.00,0.0036
2378.00,0.0036
2377.00,0.0036
2376.00,0.0037
2375.00,0.0037
2374.00,0.0037
2373.00,0.0037
2372.00,0.0037
2371.00,0.0037
2370.00,0.0037
2369.00,0.0036
2368.00,0.0036
2367.00,0.0036
2366.00,0.0036
2365.00,0.0037
2364.00,0.0037
2363.00,0.0037
2362.00,0.0037
2361.00,0.0037
2360.00,0.0036
2359.00,0.0036
2358.00,0.0036
2357.00,0.0036
2356.00,0.0037
2355.00,0.0038
2354.00,0.0039
2353.00,0.0039
2352.00,0.0039
2351.00,0.0039
2350.00,0.0038
2349.00,0.0038
2348.00,0.0039
2347.00,0.0040
2346.00,0.0040
2345.00,0.0040
2344.00,0.0039
2343.00,0.0039
2342.00,0.0039
2341.00,0.0039
2340.00,0.0040
2339.00,0.0041
2338.00,0.0042
2337.00,0.0042
2336.00,0.0042
2335.00,0.0042
2334.00,0.0042
2333.00,0.0042
2332.00,0.0042
2331.00,0.0042
2330.00,0.0043
2329.00,0.0044
2328.00,0.0048
2327.00,0.0051
2326.00,0.0054
2325.00,0.0055
2324.00,0.0053
2323.00,0.0051
2322.00,0.0049
2321.00,0.0048
2320.00,0.0047
2319.00,0.0046
2318.00,0.0046
2317.00,0.0045
2316.00,0.0045
2315.00,0.0045
2314.00,0.0044
2313.00,0.0044
2312.00,0.0043
2311.00,0.0042
2310.00,0.0041
2309.00,0.0041
2308.00,0.0040
2307.00,0.0040
2306.00,0.0041
2305.00,0.0041
2304.00,0.0042
2303.00,0.0042
2302.00,0.0043
2301.00,0.0043
2300.00,0.0043
2299.00,0.0044
2298.00,0.0044
2297.00,0.0045
2296.00,0.0046
2295.00,0.0047
2294.00,0.0048
2293.00,0.0049
2292.00,0.0050
2291.00,0.0051
2290.00,0.0052
2289.00,0.0052
2288.00,0.0053
2287.00,0.0053
2286.00,0.0053
2285.00,0.0052
2284.00,0.0052
2283.00,0.0051
2282.00,0.0051
2281.00,0.0050
2280.00,0.0050
2279.00,0.0049
2278.00,0.0049
2277.00,0.0048
2276.00,0.0048
2275.00,0.0048
2274.00,0.0047
2273.00,0.0047
2272.00,0.0047
2271.00,0.0047
2270.00,0.0047
2269.00,0.0047
2268.00,0.0046
2267.00,0.0046
2266.00,0.0045
2265.00,0.0045
2264.00,0.0044
2263.00,0.0044
2262.00,0.0044
2261.00,0.0044
2260.00,0.0044
2259.00,0.0044
2258.00,0.0043
2257.00,0.0042
2256.00,0.0041
2255.00,0.0039
2254.00,0.0039
2253.00,0.0039
2252.00,0.0040
2251.00,0.0041
2250.00,0.0042
2249.00,0.0042
2248.00,0.0043
2247.00,0.0043
2246.00,0.0043
2245.00,0.0043
2244.00,0.0043
2243.00,0.0043
2242.00,0.0043
2241.00,0.0043
2240.00,0.0043
2239.00,0.0043
2238.00,0.0043
2237.00,0.0043
2236.00,0.0042
2235.00,0.0042
2234.00,0.0043
2233.00,0.0043
2232.00,0.0043
2231.00,0.0043
2230.00,0.0043
2229.00,0.0043
2228.00,0.0043
2227.00,0.0044
2226.00,0.0044
2225.00,0.0044
2224.00,0.0045
2223.00,0.0044
2222.00,0.0043
2221.00,0.0043
2220.00,0.0043
2219.00,0.0044
2218.00,0.0044
2217.00,0.0045
2216.00,0.0044
2215.00,0.0043
2214.00,0.0043
2213.00,0.0042
2212.00,0.0042
2211.00,0.0043
2210.00,0.0043
2209.00,0.0044
2208.00,0.0044
2207.00,0.0044
2206.00,0.0043
2205.00,0.0043
2204.00,0.0043
2203.00,0.0043
2202.00,0.0042
2201.00,0.0042
2200.00,0.0041
2199.00,0.0041
2198.00,0.0041
2197.00,0.0042
2196.00,0.0042
2195.00,0.0042
2194.00,0.0042
2193.00,0.0041
2192.00,0.0041
2191.00,0.0041
2190.00,0.0042
2189.00,0.0043
2188.00,0.0045
2187.00,0.0046
2186.00,0.0046
2185.00,0.0045
2184.00,0.0043
2183.00,0.0041
2182.00,0.0040
2181.00,0.0041
2180.00,0.0042
2179.00,0.0042
2178.00,0.0040
2177.00,0.0038
2176.00,0.0037
2175.00,0.0037
2174.00,0.0039
2173.00,0.0041
2172.00,0.0044
2171.00,0.0047
2170.00,0.0050
2169.00,0.0052
2168.00,0.0052
2167.00,0.0052
2166.00,0.0051
2165.00,0.0052
2164.00,0.0054
2163.00,0.0054
2162.00,0.0048
2161.00,0.0035
2160.00,0.0021
2159.00,0.0010
2158.00,0.0005
2157.00,0.0007
2156.00,0.0011
2155.00,0.0016
2154.00,0.0019
2153.00,0.0021
2152.00,0.0022
2151.00,0.0023
2150.00,0.0023
2149.00,0.0023
2148.00,0.0023
2147.00,0.0021
2146.00,0.0020
2145.00,0.0019
2144.00,0.0020
2143.00,0.0021
2142.00,0.0022
2141.00,0.0023
2140.00,0.0023
2139.00,0.0022
2138.00,0.0021
2137.00,0.0020
2136.00,0.0019
2135.00,0.0017
2134.00,0.0017
2133.00,0.0018
2132.00,0.0020
2131.00,0.0021
2130.00,0.0023
2129.00,0.0024
2128.00,0.0025
2127.00,0.0026
2126.00,0.0027
2125.00,0.0028
2124.00,0.0029
2123.00,0.0030
2122.00,0.0031
2121.00,0.0032
2120.00,0.0033
2119.00,0.0034
2118.00,0.0036
2117.00,0.0037
2116.00,0.0038
2115.00,0.0038
2114.00,0.0037
2113.00,0.0037
2112.00,0.0036
2111.00,0.0036
2110.00,0.0036
2109.00,0.0037
2108.00,0.0037
2107.00,0.0037
2106.00,0.0036
2105.00,0.0036
2104.00,0.0036
2103.00,0.0035
2102.00,0.0035
2101.00,0.0035
2100.00,0.0034
2099.00,0.0034
2098.00,0.0033
2097.00,0.0031
2096.00,0.0030
2095.00,0.0030
2094.00,0.0030
2093.00,0.0031
2092.00,0.0032
2091.00,0.0034
2090.00,0.0035
2089.00,0.0036
2088.00,0.0036
2087.00,0.0037
2086.00,0.0037
2085.00,0.0038
2084.00,0.0038
2083.00,0.0039
2082.00,0.0040
2081.00,0.0041
2080.00,0.0042
2079.00,0.0042
2078.00,0.0042
2077.00,0.0041
2076.00,0.0040
2075.00,0.0039
2074.00,0.0038
2073.00,0.0038
2072.00,0.0039
2071.00,0.0039
2070.00,0.0039
2069.00,0.0038
2068.00,0.0037
2067.00,0.0036
2066.00,0.0035
2065.00,0.0034
2064.00,0.0035
2063.00,0.0035
2062.00,0.0036
2061.00,0.0036
2060.00,0.0035
2059.00,0.0035
2058.00,0.0034
2057.00,0.0034
2056.00,0.0034
2055.00,0.0035
2054.00,0.0037
2053.00,0.0041
2052.00,0.0045
2051.00,0.0046
2050.00,0.0045
2049.00,0.0042
2048.00,0.0039
2047.00,0.0037
2046.00,0.0035
2045.00,0.0033
2044.00,0.0034
2043.00,0.0035
2042.00,0.0036
2041.00,0.0037
2040.00,0.0038
2039.00,0.0039
2038.00,0.0040
2037.00,0.0039
2036.00,0.0038
2035.00,0.0035
2034.00,0.0032
2033.00,0.0030
2032.00,0.0030
2031.00,0.0030
2030.00,0.0030
2029.00,0.0031
2028.00,0.0031
2027.00,0.0031
2026.00,0.0031
2025.00,0.0030
2024.00,0.0030
2023.00,0.0031
2022.00,0.0033
2021.00,0.0034
2020.00,0.0034
2019.00,0.0034
2018.00,0.0032
2017.00,0.0031
2016.00,0.0030
2015.00,0.0030
2014.00,0.0031
2013.00,0.0031
2012.00,0.0032
2011.00,0.0033
2010.00,0.0033
2009.00,0.0030
2008.00,0.0026
2007.00,0.0023
2006.00,0.0021
2005.00,0.0022
2004.00,0.0024
2003.00,0.0025
2002.00,0.0026
2001.00,0.0027
2000.00,0.0028
1999.00,0.0030
1998.00,0.0031
1997.00,0.0033
1996.00,0.0034
1995.00,0.0036
1994.00,0.0036
1993.00,0.0036
1992.00,0.0035
1991.00,0.0034
1990.00,0.0034
1989.00,0.0035
1988.00,0.0037
1987.00,0.0039
1986.00,0.0040
1985.00,0.0042
1984.00,0.0044
1983.00,0.0047
1982.00,0.0049
1981.00,0.0049
1980.00,0.0046
1979.00,0.0040
1978.00,0.0034
1977.00,0.0030
1976.00,0.0028
1975.00,0.0027
1974.00,0.0026
1973.00,0.0026
1972.00,0.0026
1971.00,0.0026
1970.00,0.0026
1969.00,0.0026
1968.00,0.0026
1967.00,0.0026
1966.00,0.0026
1965.00,0.0026
1964.00,0.0026
1963.00,0.0026
1962.00,0.0025
1961.00,0.0023
1960.00,0.0022
1959.00,0.0021
1958.00,0.0021
1957.00,0.0023
1956.00,0.0025
1955.00,0.0027
1954.00,0.0028
1953.00,0.0028
1952.00,0.0028
1951.00,0.0028
1950.00,0.0027
1949.00,0.0027
1948.00,0.0027
1947.00,0.0027
1946.00,0.0028
1945.00,0.0028
1944.00,0.0028
1943.00,0.0028
1942.00,0.0028
1941.00,0.0028
1940.00,0.0029
1939.00,0.0031
1938.00,0.0031
1937.00,0.0031
1936.00,0.0030
1935.00,0.0030
1934.00,0.0030
1933.00,0.0030
1932.00,0.0031
1931.00,0.0031
1930.00,0.0031
1929.00,0.0031
1928.00,0.0030
1927.00,0.0030
1926.00,0.0031
1925.00,0.0031
1924.00,0.0031
1923.00,0.0031
1922.00,0.0032
1921.00,0.0032
1920.00,0.0033
1919.00,0.0033
1918.00,0.0033
1917.00,0.0033
1916.00,0.0034
1915.00,0.0035
1914.00,0.0036
1913.00,0.0037
1912.00,0.0039
1911.00,0.0040
1910.00,0.0042
1909.00,0.0043
1908.00,0.0044
1907.00,0.0045
1906.00,0.0044
1905.00,0.0042
1904.00,0.0040
1903.00,0.0039
1902.00,0.0038
1901.00,0.0037
1900.00,0.0037
1899.00,0.0037
1898.00,0.0037
1897.00,0.0038
1896.00,0.0039
1895.00,0.0040
1894.00,0.0040
1893.00,0.0040
1892.00,0.0039
1891.00,0.0038
1890.00,0.0037
1889.00,0.0037
1888.00,0.0036
1887.00,0.0036
1886.00,0.0036
1885.00,0.0035
1884.00,0.0035
1883.00,0.0035
1882.00,0.0035
1881.00,0.0035
1880.00,0.0035
1879.00,0.0035
1878.00,0.0035
1877.00,0.0035
1876.00,0.0035
1875.00,0.0035
1874.00,0.0034
1873.00,0.0034
1872.00,0.0034
1871.00,0.0034
1870.00,0.0034
1869.00,0.0034
1868.00,0.0034
1867.00,0.0035
1866.00,0.0035
1865.00,0.0035
1864.00,0.0035
1863.00,0.0036
1862.00,0.0036
1861.00,0.0036
1860.00,0.0036
1859.00,0.0035
1858.00,0.0035
1857.00,0.0035
1856.00,0.0036
1855.00,0.0036
1854.00,0.0037
1853.00,0.0037
1852.00,0.0037
1851.00,0.0037
1850.00,0.0037
1849.00,0.0038
1848.00,0.0038
1847.00,0.0039
1846.00,0.0039
1845.00,0.0039
1844.00,0.0039
1843.00,0.0039
1842.00,0.0038
1841.00,0.0037
1840.00,0.0036
1839.00,0.0035
1838.00,0.0035
1837.00,0.0035
1836.00,0.0035
1835.00,0.0035
1834.00,0.0035
1833.00,0.0035
1832.00,0.0034
1831.00,0.0034
1830.00,0.0034
1829.00,0.0034
1828.00,0.0034
1827.00,0.0034
1826.00,0.0035
1825.00,0.0035
1824.00,0.0035
1823.00,0.0036
1822.00,0.0035
1821.00,0.0035
1820.00,0.0034
1819.00,0.0033
1818.00,0.0033
1817.00,0.0032
1816.00,0.0033
1815.00,0.0033
1814.00,0.0034
1813.00,0.0035
1812.00,0.0035
1811.00,0.0035
1810.00,0.0035
1809.00,0.0035
1808.00,0.0035
1807.00,0.0035
1806.00,0.0036
1805.00,0.0036
1804.00,0.0036
1803.00,0.0036
1802.00,0.0036
1801.00,0.0036
1800.00,0.0036
1799.00,0.0037
1798.00,0.0037
1797.00,0.0038
1796.00,0.0038
1795.00,0.0037
1794.00,0.0037
1793.00,0.0038
1792.00,0.0038
1791.00,0.0039
1790.00,0.0039
1789.00,0.0038
1788.00,0.0038
1787.00,0.0038
1786.00,0.0038
1785.00,0.0038
1784.00,0.0037
1783.00,0.0037
1782.00,0.0037
1781.00,0.0037
1780.00,0.0037
1779.00,0.0038
1778.00,0.0038
1777.00,0.0039
1776.00,0.0039
1775.00,0.0039
1774.00,0.0040
1773.00,0.0040
1772.00,0.0040
1771.00,0.0041
1770.00,0.0040
1769.00,0.0040
1768.00,0.0039
1767.00,0.0039
1766.00,0.0040
1765.00,0.0040
1764.00,0.0039
1763.00,0.0040
1762.00,0.0040
1761.00,0.0041
1760.00,0.0041
1759.00,0.0041
1758.00,0.0040
1757.00,0.0040
1756.00,0.0039
1755.00,0.0039
1754.00,0.0038
1753.00,0.0038
1752.00,0.0037
1751.00,0.0037
1750.00,0.0037
1749.00,0.0036
1748.00,0.0036
1747.00,0.0036
1746.00,0.0036
1745.00,0.0037
1744.00,0.0037
1743.00,0.0037
1742.00,0.0037
1741.00,0.0037
1740.00,0.0038
1739.00,0.0039
1738.00,0.0039
1737.00,0.0039
1736.00,0.0038
1735.00,0.0039
1734.00,0.0040
1733.00,0.0041
1732.00,0.0041
1731.00,0.0041
1730.00,0.0041
1729.00,0.0041
1728.00,0.0042
1727.00,0.0043
1726.00,0.0043
1725.00,0.0044
1724.00,0.0044
1723.00,0.0044
1722.00,0.0045
1721.00,0.0044
1720.00,0.0044
1719.00,0.0044
1718.00,0.0045
1717.00,0.0045
1716.00,0.0046
1715.00,0.0047
1714.00,0.0048
1713.00,0.0049
1712.00,0.0050
1711.00,0.0051
1710.00,0.0052
1709.00,0.0053
1708.00,0.0054
1707.00,0.0055
1706.00,0.0056
1705.00,0.0057
1704.00,0.0059
1703.00,0.0060
1702.00,0.0063
1701.00,0.0066
1700.00,0.0071
1699.00,0.0075
1698.00,0.0077
1697.00,0.0080
1696.00,0.0084
1695.00,0.0089
1694.00,0.0094
1693.00,0.0098
1692.00,0.0102
1691.00,0.0105
1690.00,0.0108
1689.00,0.0111
1688.00,0.0114
1687.00,0.0117
1686.00,0.0120
1685.00,0.0121
1684.00,0.0121
1683.00,0.0120
1682.00,0.0120
1681.00,0.0120
1680.00,0.0120
1679.00,0.0120
1678.00,0.0121
1677.00,0.0121
1676.00,0.0120
1675.00,0.0117
1674.00,0.0115
1673.00,0.0113
1672.00,0.0112
1671.00,0.0110
1670.00,0.0106
1669.00,0.0102
1668.00,0.0100
1667.00,0.0099
1666.00,0.0099
1665.00,0.0099
1664.00,0.0098
1663.00,0.0096
1662.00,0.0093
1661.00,0.0091
1660.00,0.0090
1659.00,0.0090
1658.00,0.0090
1657.00,0.0090
1656.00,0.0091
1655.00,0.0092
1654.00,0.0088
1653.00,0.0078
1652.00,0.0072
1651.00,0.0072
1650.00,0.0073
1649.00,0.0073
1648.00,0.0071
1647.00,0.0067
1646.00,0.0063
1645.00,0.0062
1644.00,0.0063
1643.00,0.0065
1642.00,0.0067
1641.00,0.0068
1640.00,0.0070
1639.00,0.0072
1638.00,0.0074
1637.00,0.0077
1636.00,0.0081
1635.00,0.0088
1634.00,0.0099
1633.00,0.0113
1632.00,0.0131
1631.00,0.0154
1630.00,0.0183
1629.00,0.0221
1628.00,0.0265
1627.00,0.0310
1626.00,0.0351
1625.00,0.0388
1624.00,0.0422
1623.00,0.0451
1622.00,0.0470
1621.00,0.0477
1620.00,0.0477
1619.00,0.0469
1618.00,0.0450
1617.00,0.0421
1616.00,0.0393
1615.00,0.0375
1614.00,0.0369
1613.00,0.0372
1612.00,0.0378
1611.00,0.0383
1610.00,0.0383
1609.00,0.0374
1608.00,0.0359
1607.00,0.0338
1606.00,0.0314
1605.00,0.0289
1604.00,0.0266
1603.00,0.0244
1602.00,0.0224
1601.00,0.0208
1600.00,0.0194
1599.00,0.0185
1598.00,0.0178
1597.00,0.0174
1596.00,0.0174
1595.00,0.0177
1594.00,0.0185
1593.00,0.0198
1592.00,0.0216
1591.00,0.0239
1590.00,0.0266
1589.00,0.0296
1588.00,0.0326
1587.00,0.0354
1586.00,0.0376
1585.00,0.0393
1584.00,0.0403
1583.00,0.0407
1582.00,0.0405
1581.00,0.0398
1580.00,0.0388
1579.00,0.0377
1578.00,0.0363
1577.00,0.0344
1576.00,0.0322
1575.00,0.0301
1574.00,0.0286
1573.00,0.0274
1572.00,0.0266
1571.00,0.0258
1570.00,0.0251
1569.00,0.0243
1568.00,0.0235
1567.00,0.0227
1566.00,0.0217
1565.00,0.0204
1564.00,0.0190
1563.00,0.0177
1562.00,0.0167
1561.00,0.0158
1560.00,0.0148
1559.00,0.0135
1558.00,0.0125
1557.00,0.0120
1556.00,0.0116
1555.00,0.0112
1554.00,0.0109
1553.00,0.0106
1552.00,0.0103
1551.00,0.0101
1550.00,0.0099
1549.00,0.0097
1548.00,0.0096
1547.00,0.0095
1546.00,0.0094
1545.00,0.0092
1544.00,0.0091
1543.00,0.0089
1542.00,0.0088
1541.00,0.0087
1540.00,0.0086
1539.00,0.0087
1538.00,0.0087
1537.00,0.0086
1536.00,0.0084
1535.00,0.0083
1534.00,0.0081
1533.00,0.0080
1532.00,0.0080
1531.00,0.0080
1530.00,0.0080
1529.00,0.0079
1528.00,0.0079
1527.00,0.0080
1526.00,0.0081
1525.00,0.0082
1524.00,0.0083
1523.00,0.0084
1522.00,0.0087
1521.00,0.0090
1520.00,0.0093
1519.00,0.0096
1518.00,0.0099
1517.00,0.0102
1516.00,0.0107
1515.00,0.0112
1514.00,0.0116
1513.00,0.0120
1512.00,0.0123
1511.00,0.0125
1510.00,0.0125
1509.00,0.0125
1508.00,0.0125
1507.00,0.0126
1506.00,0.0128
1505.00,0.0132
1504.00,0.0135
1503.00,0.0139
1502.00,0.0145
1501.00,0.0155
1500.00,0.0172
1499.00,0.0195
1498.00,0.0222
1497.00,0.0246
1496.00,0.0260
1495.00,0.0260
1494.00,0.0251
1493.00,0.0236
1492.00,0.0217
1491.00,0.0196
1490.00,0.0176
1489.00,0.0158
1488.00,0.0145
1487.00,0.0135
1486.00,0.0128
1485.00,0.0122
1484.00,0.0118
1483.00,0.0113
1482.00,0.0110
1481.00,0.0107
1480.00,0.0106
1479.00,0.0105
1478.00,0.0105
1477.00,0.0105
1476.00,0.0107
1475.00,0.0109
1474.00,0.0113
1473.00,0.0121
1472.00,0.0135
1471.00,0.0153
1470.00,0.0174
1469.00,0.0197
1468.00,0.0220
1467.00,0.0240
1466.00,0.0254
1465.00,0.0259
1464.00,0.0257
1463.00,0.0253
1462.00,0.0251
1461.00,0.0252
1460.00,0.0255
1459.00,0.0258
1458.00,0.0259
1457.00,0.0255
1456.00,0.0249
1455.00,0.0243
1454.00,0.0239
1453.00,0.0236
1452.00,0.0234
1451.00,0.0235
1450.00,0.0237
1449.00,0.0240
1448.00,0.0243
1447.00,0.0247
1446.00,0.0253
1445.00,0.0262
1444.00,0.0272
1443.00,0.0283
1442.00,0.0294
1441.00,0.0305
1440.00,0.0314
1439.00,0.0323
1438.00,0.0332
1437.00,0.0343
1436.00,0.0354
1435.00,0.0367
1434.00,0.0380
1433.00,0.0393
1432.00,0.0406
1431.00,0.0416
1430.00,0.0422
1429.00,0.0424
1428.00,0.0422
1427.00,0.0417
1426.00,0.0411
1425.00,0.0402
1424.00,0.0392
1423.00,0.0383
1422.00,0.0376
1421.00,0.0370
1420.00,0.0361
1419.00,0.0349
1418.00,0.0336
1417.00,0.0325
1416.00,0.0317
1415.00,0.0311
1414.00,0.0306
1413.00,0.0304
1412.00,0.0304
1411.00,0.0309
1410.00,0.0317
1409.00,0.0330
1408.00,0.0346
1407.00,0.0367
1406.00,0.0391
1405.00,0.0420
1404.00,0.0448
1403.00,0.0472
1402.00,0.0492
1401.00,0.0506
1400.00,0.0512
1399.00,0.0508
1398.00,0.0496
1397.00,0.0477
1396.00,0.0453
1395.00,0.0422
1394.00,0.0391
1393.00,0.0364
1392.00,0.0343
1391.00,0.0328
1390.00,0.0319
1389.00,0.0319
1388.00,0.0326
1387.00,0.0334
1386.00,0.0335
1385.00,0.0328
1384.00,0.0316
1383.00,0.0305
1382.00,0.0299
1381.00,0.0298
1380.00,0.0300
1379.00,0.0300
1378.00,0.0299
1377.00,0.0295
1376.00,0.0286
1375.00,0.0271
1374.00,0.0253
1373.00,0.0237
1372.00,0.0227
1371.00,0.0225
1370.00,0.0231
1369.00,0.0245
1368.00,0.0266
1367.00,0.0291
1366.00,0.0313
1365.00,0.0330
1364.00,0.0341
1363.00,0.0353
1362.00,0.0373
1361.00,0.0396
1360.00,0.0412
1359.00,0.0414
1358.00,0.0399
1357.00,0.0374
1356.00,0.0350
1355.00,0.0329
1354.00,0.0316
1353.00,0.0307
1352.00,0.0302
1351.00,0.0300
1350.00,0.0301
1349.00,0.0303
1348.00,0.0304
1347.00,0.0304
1346.00,0.0301
1345.00,0.0296
1344.00,0.0287
1343.00,0.0278
1342.00,0.0266
1341.00,0.0254
1340.00,0.0240
1339.00,0.0228
1338.00,0.0219
1337.00,0.0214
1336.00,0.0213
1335.00,0.0214
1334.00,0.0218
1333.00,0.0223
1332.00,0.0228
1331.00,0.0232
1330.00,0.0234
1329.00,0.0233
1328.00,0.0231
1327.00,0.0227
1326.00,0.0222
1325.00,0.0217
1324.00,0.0212
1323.00,0.0208
1322.00,0.0206
1321.00,0.0204
1320.00,0.0201
1319.00,0.0198
1318.00,0.0195
1317.00,0.0190
1316.00,0.0186
1315.00,0.0182
1314.00,0.0179
1313.00,0.0179
1312.00,0.0180
1311.00,0.0184
1310.00,0.0192
1309.00,0.0202
1308.00,0.0215
1307.00,0.0230
1306.00,0.0250
1305.00,0.0273
1304.00,0.0300
1303.00,0.0325
1302.00,0.0347
1301.00,0.0360
1300.00,0.0362
1299.00,0.0355
1298.00,0.0344
1297.00,0.0334
1296.00,0.0327
1295.00,0.0322
1294.00,0.0319
1293.00,0.0316
1292.00,0.0312
1291.00,0.0309
1290.00,0.0309
1289.00,0.0314
1288.00,0.0325
1287.00,0.0341
1286.00,0.0360
1285.00,0.0378
1284.00,0.0391
1283.00,0.0396
1282.00,0.0392
1281.00,0.0379
1280.00,0.0358
1279.00,0.0333
1278.00,0.0308
1277.00,0.0285
1276.00,0.0266
1275.00,0.0250
1274.00,0.0239
1273.00,0.0229
1272.00,0.0221
1271.00,0.0214
1270.00,0.0209
1269.00,0.0205
1268.00,0.0201
1267.00,0.0198
1266.00,0.0196
1265.00,0.0193
1264.00,0.0189
1263.00,0.0185
1262.00,0.0180
1261.00,0.0175
1260.00,0.0170
1259.00,0.0166
1258.00,0.0163
1257.00,0.0161
1256.00,0.0159
1255.00,0.0159
1254.00,0.0159
1253.00,0.0161
1252.00,0.0165
1251.00,0.0171
1250.00,0.0181
1249.00,0.0193
1248.00,0.0207
1247.00,0.0223
1246.00,0.0240
1245.00,0.0256
1244.00,0.0270
1243.00,0.0281
1242.00,0.0291
1241.00,0.0299
1240.00,0.0309
1239.00,0.0321
1238.00,0.0338
1237.00,0.0357
1236.00,0.0376
1235.00,0.0392
1234.00,0.0403
1233.00,0.0405
1232.00,0.0399
1231.00,0.0386
1230.00,0.0368
1229.00,0.0349
1228.00,0.0330
1227.00,0.0312
1226.00,0.0297
1225.00,0.0283
1224.00,0.0273
1223.00,0.0265
1222.00,0.0260
1221.00,0.0258
1220.00,0.0259
1219.00,0.0264
1218.00,0.0272
1217.00,0.0281
1216.00,0.0291
1215.00,0.0298
1214.00,0.0301
1213.00,0.0298
1212.00,0.0288
1211.00,0.0274
1210.00,0.0258
1209.00,0.0242
1208.00,0.0229
1207.00,0.0220
1206.00,0.0216
1205.00,0.0217
1204.00,0.0225
1203.00,0.0238
1202.00,0.0256
1201.00,0.0278
1200.00,0.0304
1199.00,0.0333
1198.00,0.0364
1197.00,0.0396
1196.00,0.0423
1195.00,0.0442
1194.00,0.0450
1193.00,0.0446
1192.00,0.0431
1191.00,0.0409
1190.00,0.0381
1189.00,0.0351
1188.00,0.0321
1187.00,0.0292
1186.00,0.0266
1185.00,0.0243
1184.00,0.0224
1183.00,0.0208
1182.00,0.0196
1181.00,0.0186
1180.00,0.0177
1179.00,0.0170
1178.00,0.0165
1177.00,0.0160
1176.00,0.0156
1175.00,0.0153
1174.00,0.0150
1173.00,0.0148
1172.00,0.0147
1171.00,0.0146
1170.00,0.0146
1169.00,0.0146
1168.00,0.0146
1167.00,0.0147
1166.00,0.0150
1165.00,0.0155
1164.00,0.0161
1163.00,0.0171
1162.00,0.0185
1161.00,0.0205
1160.00,0.0232
1159.00,0.0269
1158.00,0.0313
1157.00,0.0362
1156.00,0.0406
1155.00,0.0436
1154.00,0.0444
1153.00,0.0426
1152.00,0.0387
1151.00,0.0338
1150.00,0.0289
1149.00,0.0247
1148.00,0.0215
1147.00,0.0192
1146.00,0.0178
1145.00,0.0168
1144.00,0.0162
1143.00,0.0158
1142.00,0.0156
1141.00,0.0157
1140.00,0.0158
1139.00,0.0163
1138.00,0.0172
1137.00,0.0185
1136.00,0.0203
1135.00,0.0230
1134.00,0.0267
1133.00,0.0314
1132.00,0.0371
1131.00,0.0430
1130.00,0.0484
1129.00,0.0521
1128.00,0.0539
1127.00,0.0536
1126.00,0.0518
1125.00,0.0488
1124.00,0.0450
1123.00,0.0407
1122.00,0.0364
1121.00,0.0325
1120.00,0.0292
1119.00,0.0268
1118.00,0.0252
1117.00,0.0242
1116.00,0.0237
1115.00,0.0233
1114.00,0.0230
1113.00,0.0226
1112.00,0.0219
1111.00,0.0212
1110.00,0.0204
1109.00,0.0198
1108.00,0.0194
1107.00,0.0195
1106.00,0.0201
1105.00,0.0214
1104.00,0.0234
1103.00,0.0262
1102.00,0.0295
1101.00,0.0326
1100.00,0.0348
1099.00,0.0355
1098.00,0.0345
1097.00,0.0321
1096.00,0.0289
1095.00,0.0255
1094.00,0.0225
1093.00,0.0199
1092.00,0.0179
1091.00,0.0164
1090.00,0.0153
1089.00,0.0146
1088.00,0.0139
1087.00,0.0135
1086.00,0.0132
1085.00,0.0129
1084.00,0.0127
1083.00,0.0125
1082.00,0.0125
1081.00,0.0125
1080.00,0.0126
1079.00,0.0126
1078.00,0.0128
1077.00,0.0130
1076.00,0.0131
1075.00,0.0133
1074.00,0.0136
1073.00,0.0140
1072.00,0.0144
1071.00,0.0150
1070.00,0.0156
1069.00,0.0164
1068.00,0.0171
1067.00,0.0179
1066.00,0.0189
1065.00,0.0201
1064.00,0.0216
1063.00,0.0237
1062.00,0.0263
1061.00,0.0297
1060.00,0.0339
1059.00,0.0390
1058.00,0.0451
1057.00,0.0517
1056.00,0.0581
1055.00,0.0637
1054.00,0.0679
1053.00,0.0709
1052.00,0.0728
1051.00,0.0741
1050.00,0.0748
1049.00,0.0746
1048.00,0.0731
1047.00,0.0703
1046.00,0.0663
1045.00,0.0616
1044.00,0.0565
1043.00,0.0514
1042.00,0.0467
1041.00,0.0426
1040.00,0.0393
1039.00,0.0371
1038.00,0.0359
1037.00,0.0354
1036.00,0.0355
1035.00,0.0360
1034.00,0.0367
1033.00,0.0381
1032.00,0.0403
1031.00,0.0439
1030.00,0.0490
1029.00,0.0549
1028.00,0.0606
1027.00,0.0647
1026.00,0.0660
1025.00,0.0640
1024.00,0.0595
1023.00,0.0538
1022.00,0.0478
1021.00,0.0424
1020.00,0.0377
1019.00,0.0338
1018.00,0.0307
1017.00,0.0281
1016.00,0.0260
1015.00,0.0244
1014.00,0.0231
1013.00,0.0222
1012.00,0.0217
1011.00,0.0216
1010.00,0.0222
1009.00,0.0232
1008.00,0.0247
1007.00,0.0266
1006.00,0.0286
1005.00,0.0304
1004.00,0.0317
1003.00,0.0322
1002.00,0.0320
1001.00,0.0313
1000.00,0.0302
999.00,0.0292
998.00,0.0282
997.00,0.0274
996.00,0.0266
995.00,0.0260
994.00,0.0254
993.00,0.0248
992.00,0.0238
991.00,0.0225
990.00,0.0213
989.00,0.0200
988.00,0.0188
987.00,0.0178
986.00,0.0171
985.00,0.0164
984.00,0.0158
983.00,0.0154
982.00,0.0151
981.00,0.0149
980.00,0.0147
979.00,0.0147
978.00,0.0148
977.00,0.0149
976.00,0.0149
975.00,0.0149
974.00,0.0149
973.00,0.0148
972.00,0.0146
971.00,0.0145
970.00,0.0144
969.00,0.0143
968.00,0.0143
967.00,0.0144
966.00,0.0145
965.00,0.0148
964.00,0.0152
963.00,0.0155
962.00,0.0156
961.00,0.0154
960.00,0.0149
959.00,0.0140
958.00,0.0132
957.00,0.0124
956.00,0.0117
955.00,0.0111
954.00,0.0107
953.00,0.0104
952.00,0.0101
951.00,0.0101
950.00,0.0104
949.00,0.0108
948.00,0.0111
947.00,0.0111
946.00,0.0111
945.00,0.0111
944.00,0.0112
943.00,0.0116
942.00,0.0121
941.00,0.0127
940.00,0.0133
939.00,0.0137
938.00,0.0142
937.00,0.0146
936.00,0.0149
935.00,0.0153
934.00,0.0158
933.00,0.0162
932.00,0.0164
931.00,0.0163
930.00,0.0161
929.00,0.0157
928.00,0.0155
927.00,0.0155
926.00,0.0159
925.00,0.0165
924.00,0.0173
923.00,0.0181
922.00,0.0186
921.00,0.0186
920.00,0.0179
919.00,0.0168
918.00,0.0155
917.00,0.0142
916.00,0.0131
915.00,0.0122
914.00,0.0115
913.00,0.0111
912.00,0.0107
911.00,0.0105
910.00,0.0105
909.00,0.0105
908.00,0.0106
907.00,0.0108
906.00,0.0113
905.00,0.0120
904.00,0.0130
903.00,0.0144
902.00,0.0160
901.00,0.0177
900.00,0.0190
899.00,0.0197
898.00,0.0195
897.00,0.0185
896.00,0.0173
895.00,0.0162
894.00,0.0157
893.00,0.0161
892.00,0.0173
891.00,0.0187
890.00,0.0197
889.00,0.0195
888.00,0.0180
887.00,0.0160
886.00,0.0142
885.00,0.0130
884.00,0.0125
883.00,0.0124
882.00,0.0127
881.00,0.0132
880.00,0.0139
879.00,0.0151
878.00,0.0169
877.00,0.0194
876.00,0.0224
875.00,0.0261
874.00,0.0304
873.00,0.0350
872.00,0.0394
871.00,0.0430
870.00,0.0452
869.00,0.0453
868.00,0.0436
867.00,0.0409
866.00,0.0379
865.00,0.0349
864.00,0.0321
863.00,0.0293
862.00,0.0268
861.00,0.0245
860.00,0.0228
859.00,0.0218
858.00,0.0217
857.00,0.0226
856.00,0.0242
855.00,0.0261
854.00,0.0282
853.00,0.0302
852.00,0.0323
851.00,0.0347
850.00,0.0368
849.00,0.0380
848.00,0.0377
847.00,0.0361
846.00,0.0337
845.00,0.0312
844.00,0.0290
843.00,0.0272
842.00,0.0261
841.00,0.0256
840.00,0.0258
839.00,0.0269
838.00,0.0290
837.00,0.0318
836.00,0.0349
835.00,0.0375
834.00,0.0393
833.00,0.0400
832.00,0.0394
831.00,0.0377
830.00,0.0351
829.00,0.0318
828.00,0.0283
827.00,0.0252
826.00,0.0232
825.00,0.0226
824.00,0.0241
823.00,0.0281
822.00,0.0345
821.00,0.0416
820.00,0.0472
819.00,0.0505
818.00,0.0531
817.00,0.0560
816.00,0.0583
815.00,0.0573
814.00,0.0519
813.00,0.0436
812.00,0.0353
811.00,0.0287
810.00,0.0241
809.00,0.0209
808.00,0.0187
807.00,0.0170
806.00,0.0157
805.00,0.0147
804.00,0.0139
803.00,0.0133
802.00,0.0128
801.00,0.0125
800.00,0.0121
799.00,0.0119
798.00,0.0117
797.00,0.0115
796.00,0.0113
795.00,0.0112
794.00,0.0111
793.00,0.0110
792.00,0.0109
791.00,0.0108
790.00,0.0107
789.00,0.0107
788.00,0.0106
787.00,0.0105
786.00,0.0104
785.00,0.0104
784.00,0.0103
783.00,0.0103
782.00,0.0104
781.00,0.0105
780.00,0.0106
779.00,0.0110
778.00,0.0118
777.00,0.0130
776.00,0.0145
775.00,0.0157
774.00,0.0164
773.00,0.0160
772.00,0.0149
771.00,0.0136
770.00,0.0126
769.00,0.0120
768.00,0.0117
767.00,0.0115
766.00,0.0115
765.00,0.0117
764.00,0.0119
763.00,0.0124
762.00,0.0131
761.00,0.0137
760.00,0.0142
759.00,0.0144
758.00,0.0142
757.00,0.0138
756.00,0.0133
755.00,0.0128
754.00,0.0125
753.00,0.0122
752.00,0.0121
751.00,0.0120
750.00,0.0121
749.00,0.0123
748.00,0.0124
747.00,0.0125
746.00,0.0127
745.00,0.0130
744.00,0.0133
743.00,0.0138
742.00,0.0146
741.00,0.0156
740.00,0.0169
739.00,0.0190
738.00,0.0219
737.00,0.0253
736.00,0.0285
735.00,0.0306
734.00,0.0313
733.00,0.0308
732.00,0.0298
731.00,0.0294
730.00,0.0297
729.00,0.0300
728.00,0.0297
727.00,0.0284
726.00,0.0263
725.00,0.0237
724.00,0.0212
723.00,0.0194
722.00,0.0183
721.00,0.0178
720.00,0.0177
719.00,0.0183
718.00,0.0194
717.00,0.0208
716.00,0.0220
715.00,0.0228
714.00,0.0230
713.00,0.0226
712.00,0.0217
711.00,0.0208
710.00,0.0199
709.00,0.0192
708.00,0.0186
707.00,0.0184
706.00,0.0185
705.00,0.0187
704.00,0.0191
703.00,0.0197
702.00,0.0204
701.00,0.0212
700.00,0.0219
699.00,0.0225
698.00,0.0229
697.00,0.0228
696.00,0.0223
695.00,0.0215
694.00,0.0209
693.00,0.0206
692.00,0.0209
691.00,0.0218
690.00,0.0232
689.00,0.0245
688.00,0.0251
687.00,0.0250
686.00,0.0242
685.00,0.0232
684.00,0.0222
683.00,0.0216
682.00,0.0214
681.00,0.0215
680.00,0.0216
679.00,0.0221
678.00,0.0227
677.00,0.0236
676.00,0.0247
675.00,0.0260
674.00,0.0274
673.00,0.0287
672.00,0.0296
671.00,0.0302
670.00,0.0305
669.00,0.0304
668.00,0.0297
667.00,0.0291
666.00,0.0286
665.00,0.0283
664.00,0.0285
663.00,0.0290
662.00,0.0295
661.00,0.0296
660.00,0.0291
659.00,0.0281
658.00,0.0270
657.00,0.0259
656.00,0.0248
655.00,0.0239
654.00,0.0233
653.00,0.0228
652.00,0.0224
651.00,0.0221
650.00,0.0220
649.00,0.0219
648.00,0.0218
647.00,0.0217
646.00,0.0216
645.00,0.0215
644.00,0.0213
643.00,0.0211
642.00,0.0210
641.00,0.0209
640.00,0.0207
639.00,0.0205
638.00,0.0204
637.00,0.0203
636.00,0.0201
635.00,0.0200
634.00,0.0200
633.00,0.0201
632.00,0.0201
631.00,0.0202
630.00,0.0204
629.00,0.0207
628.00,0.0209
627.00,0.0212
626.00,0.0219
625.00,0.0227
624.00,0.0235
623.00,0.0244
622.00,0.0254
621.00,0.0262
620.00,0.0266
619.00,0.0266
618.00,0.0261
617.00,0.0251
616.00,0.0237
615.00,0.0224
614.00,0.0214
613.00,0.0206
612.00,0.0200
611.00,0.0199
610.00,0.0205
609.00,0.0218
608.00,0.0236
607.00,0.0259
606.00,0.0285
605.00,0.0310
604.00,0.0331
603.00,0.0347
602.00,0.0358
601.00,0.0363
600.00,0.0363
599.00,0.0361
598.00,0.0361
597.00,0.0359
596.00,0.0357
595.00,0.0354
594.00,0.0351
593.00,0.0347
592.00,0.0339
591.00,0.0331
590.00,0.0324
589.00,0.0318
588.00,0.0312
587.00,0.0307
586.00,0.0306
585.00,0.0306
584.00,0.0306
583.00,0.0308
582.00,0.0314
581.00,0.0321
580.00,0.0330
579.00,0.0346
578.00,0.0368
577.00,0.0386
576.00,0.0393
575.00,0.0386
574.00,0.0371
573.00,0.0351
572.00,0.0330
571.00,0.0312
570.00,0.0299
569.00,0.0289
568.00,0.0281
567.00,0.0278
566.00,0.0284
565.00,0.0294
564.00,0.0307
563.00,0.0323
562.00,0.0342
561.00,0.0360
560.00,0.0370
559.00,0.0373
558.00,0.0368
557.00,0.0357
556.00,0.0341
555.00,0.0326
554.00,0.0317
553.00,0.0314
552.00,0.0315
551.00,0.0323
550.00,0.0339
549.00,0.0358
548.00,0.0376
547.00,0.0390
546.00,0.0400
545.00,0.0401
544.00,0.0391
543.00,0.0377
542.00,0.0362
541.00,0.0348
540.00,0.0334
539.00,0.0324
538.00,0.0318
537.00,0.0316
536.00,0.0317
535.00,0.0325
534.00,0.0341
533.00,0.0358
532.00,0.0371
531.00,0.0378
530.00,0.0379
529.00,0.0371
528.00,0.0352
527.00,0.0331
526.00,0.0312
525.00,0.0296
524.00,0.0281
523.00,0.0269
522.00,0.0262
521.00,0.0255
520.00,0.0245
519.00,0.0236
518.00,0.0232
517.00,0.0229
516.00,0.0225
515.00,0.0224
514.00,0.0226
513.00,0.0228
512.00,0.0228
511.00,0.0229
510.00,0.0233
509.00,0.0238
508.00,0.0241
507.00,0.0243
506.00,0.0245
505.00,0.0244
504.00,0.0241
503.00,0.0236
502.00,0.0233
501.00,0.0227
500.00,0.0219
499.00,0.0214
498.00,0.0215
497.00,0.0218
496.00,0.0221
495.00,0.0225
494.00,0.0231
493.00,0.0237
492.00,0.0237
491.00,0.0237
490.00,0.0238
489.00,0.0235
488.00,0.0229
487.00,0.0222
486.00,0.0219
485.00,0.0218
484.00,0.0213
483.00,0.0208
482.00,0.0207
481.00,0.0207
480.00,0.0202
479.00,0.0197
478.00,0.0196
477.00,0.0193
476.00,0.0189
475.00,0.0187
474.00,0.0190
473.00,0.0192
472.00,0.0190
471.00,0.0189
470.00,0.0191
469.00,0.0193
468.00,0.0190
467.00,0.0188
466.00,0.0190
465.00,0.0190
464.00,0.0186
463.00,0.0184
462.00,0.0186
461.00,0.0188
460.00,0.0184
459.00,0.0181
458.00,0.0185
457.00,0.0187
456.00,0.0184
455.00,0.0181
454.00,0.0184
453.00,0.0189
452.00,0.0189
451.00,0.0187
450.00,0.0187
449.00,0.0184
448.00,0.0178
447.00,0.0175
446.00,0.0180
445.00,0.0184
444.00,0.0181
443.00,0.0177
442.00,0.0180
441.00,0.0184
440.00,0.0183
439.00,0.0182
438.00,0.0184
437.00,0.0185
436.00,0.0183
435.00,0.0183
434.00,0.0188
433.00,0.0189
432.00,0.0184
431.00,0.0180
430.00,0.0181
429.00,0.0177
428.00,0.0165
427.00,0.0156
426.00,0.0160
425.00,0.0167
424.00,0.0167
423.00,0.0164
422.00,0.0163
421.00,0.0159
420.00,0.0148
419.00,0.0147
418.00,0.0165
417.00,0.0177
416.00,0.0172
415.00,0.0169
414.00,0.0179
413.00,0.0195
412.00,0.0203
411.00,0.0210
410.00,0.0222
409.00,0.0227
408.00,0.0214
407.00,0.0199
406.00,0.0195
405.00,0.0195
404.00,0.0186
403.00,0.0178
402.00,0.0178
401.00,0.0169
400.00,0.0148
