Created as New Dataset,Sample 865 By YargerLab Date Monday, July 21 2025
cm-1,A
4000.00,0.0048
3999.00,0.0048
3998.00,0.0048
3997.00,0.0048
3996.00,0.0048
3995.00,0.0048
3994.00,0.0048
3993.00,0.0048
3992.00,0.0048
3991.00,0.0048
3990.00,0.0048
3989.00,0.0048
3988.00,0.0048
3987.00,0.0048
3986.00,0.0047
3985.00,0.0047
3984.00,0.0047
3983.00,0.0047
3982.00,0.0047
3981.00,0.0048
3980.00,0.0048
3979.00,0.0048
3978.00,0.0047
3977.00,0.0047
3976.00,0.0047
3975.00,0.0047
3974.00,0.0047
3973.00,0.0047
3972.00,0.0047
3971.00,0.0047
3970.00,0.0047
3969.00,0.0047
3968.00,0.0047
3967.00,0.0047
3966.00,0.0047
3965.00,0.0047
3964.00,0.0047
3963.00,0.0047
3962.00,0.0047
3961.00,0.0047
3960.00,0.0047
3959.00,0.0047
3958.00,0.0048
3957.00,0.0048
3956.00,0.0048
3955.00,0.0048
3954.00,0.0048
3953.00,0.0048
3952.00,0.0048
3951.00,0.0048
3950.00,0.0047
3949.00,0.0047
3948.00,0.0047
3947.00,0.0047
3946.00,0.0047
3945.00,0.0047
3944.00,0.0047
3943.00,0.0047
3942.00,0.0047
3941.00,0.0047
3940.00,0.0047
3939.00,0.0047
3938.00,0.0047
3937.00,0.0047
3936.00,0.0047
3935.00,0.0047
3934.00,0.0047
3933.00,0.0047
3932.00,0.0047
3931.00,0.0047
3930.00,0.0047
3929.00,0.0047
3928.00,0.0047
3927.00,0.0047
3926.00,0.0047
3925.00,0.0047
3924.00,0.0047
3923.00,0.0048
3922.00,0.0047
3921.00,0.0047
3920.00,0.0047
3919.00,0.0047
3918.00,0.0047
3917.00,0.0047
3916.00,0.0047
3915.00,0.0047
3914.00,0.0047
3913.00,0.0047
3912.00,0.0047
3911.00,0.0047
3910.00,0.0047
3909.00,0.0047
3908.00,0.0047
3907.00,0.0047
3906.00,0.0047
3905.00,0.0047
3904.00,0.0047
3903.00,0.0047
3902.00,0.0046
3901.00,0.0046
3900.00,0.0046
3899.00,0.0046
3898.00,0.0046
3897.00,0.0046
3896.00,0.0046
3895.00,0.0046
3894.00,0.0046
3893.00,0.0046
3892.00,0.0046
3891.00,0.0047
3890.00,0.0047
3889.00,0.0047
3888.00,0.0047
3887.00,0.0047
3886.00,0.0047
3885.00,0.0047
3884.00,0.0046
3883.00,0.0046
3882.00,0.0046
3881.00,0.0047
3880.00,0.0047
3879.00,0.0047
3878.00,0.0047
3877.00,0.0047
3876.00,0.0047
3875.00,0.0047
3874.00,0.0047
3873.00,0.0047
3872.00,0.0047
3871.00,0.0046
3870.00,0.0046
3869.00,0.0046
3868.00,0.0046
3867.00,0.0045
3866.00,0.0045
3865.00,0.0045
3864.00,0.0046
3863.00,0.0046
3862.00,0.0046
3861.00,0.0046
3860.00,0.0046
3859.00,0.0046
3858.00,0.0047
3857.00,0.0047
3856.00,0.0047
3855.00,0.0047
3854.00,0.0046
3853.00,0.0046
3852.00,0.0045
3851.00,0.0045
3850.00,0.0045
3849.00,0.0045
3848.00,0.0046
3847.00,0.0046
3846.00,0.0046
3845.00,0.0047
3844.00,0.0047
3843.00,0.0047
3842.00,0.0047
3841.00,0.0047
3840.00,0.0046
3839.00,0.0046
3838.00,0.0046
3837.00,0.0046
3836.00,0.0047
3835.00,0.0047
3834.00,0.0047
3833.00,0.0047
3832.00,0.0047
3831.00,0.0047
3830.00,0.0047
3829.00,0.0047
3828.00,0.0047
3827.00,0.0047
3826.00,0.0047
3825.00,0.0047
3824.00,0.0047
3823.00,0.0046
3822.00,0.0046
3821.00,0.0046
3820.00,0.0046
3819.00,0.0046
3818.00,0.0045
3817.00,0.0045
3816.00,0.0046
3815.00,0.0046
3814.00,0.0046
3813.00,0.0046
3812.00,0.0046
3811.00,0.0047
3810.00,0.0047
3809.00,0.0047
3808.00,0.0047
3807.00,0.0047
3806.00,0.0047
3805.00,0.0046
3804.00,0.0046
3803.00,0.0046
3802.00,0.0046
3801.00,0.0046
3800.00,0.0046
3799.00,0.0046
3798.00,0.0046
3797.00,0.0046
3796.00,0.0046
3795.00,0.0046
3794.00,0.0046
3793.00,0.0046
3792.00,0.0047
3791.00,0.0047
3790.00,0.0047
3789.00,0.0047
3788.00,0.0047
3787.00,0.0047
3786.00,0.0047
3785.00,0.0047
3784.00,0.0047
3783.00,0.0047
3782.00,0.0047
3781.00,0.0047
3780.00,0.0047
3779.00,0.0047
3778.00,0.0047
3777.00,0.0047
3776.00,0.0047
3775.00,0.0047
3774.00,0.0047
3773.00,0.0047
3772.00,0.0047
3771.00,0.0047
3770.00,0.0047
3769.00,0.0047
3768.00,0.0047
3767.00,0.0047
3766.00,0.0046
3765.00,0.0046
3764.00,0.0046
3763.00,0.0046
3762.00,0.0046
3761.00,0.0046
3760.00,0.0046
3759.00,0.0047
3758.00,0.0047
3757.00,0.0047
3756.00,0.0046
3755.00,0.0046
3754.00,0.0046
3753.00,0.0045
3752.00,0.0045
3751.00,0.0045
3750.00,0.0045
3749.00,0.0045
3748.00,0.0045
3747.00,0.0045
3746.00,0.0046
3745.00,0.0046
3744.00,0.0046
3743.00,0.0046
3742.00,0.0045
3741.00,0.0045
3740.00,0.0045
3739.00,0.0045
3738.00,0.0045
3737.00,0.0044
3736.00,0.0044
3735.00,0.0044
3734.00,0.0044
3733.00,0.0044
3732.00,0.0044
3731.00,0.0044
3730.00,0.0045
3729.00,0.0045
3728.00,0.0045
3727.00,0.0045
3726.00,0.0045
3725.00,0.0045
3724.00,0.0045
3723.00,0.0045
3722.00,0.0045
3721.00,0.0046
3720.00,0.0046
3719.00,0.0045
3718.00,0.0045
3717.00,0.0045
3716.00,0.0045
3715.00,0.0045
3714.00,0.0045
3713.00,0.0045
3712.00,0.0045
3711.00,0.0045
3710.00,0.0045
3709.00,0.0045
3708.00,0.0045
3707.00,0.0045
3706.00,0.0045
3705.00,0.0045
3704.00,0.0045
3703.00,0.0045
3702.00,0.0045
3701.00,0.0045
3700.00,0.0045
3699.00,0.0045
3698.00,0.0045
3697.00,0.0045
3696.00,0.0045
3695.00,0.0045
3694.00,0.0045
3693.00,0.0045
3692.00,0.0045
3691.00,0.0045
3690.00,0.0045
3689.00,0.0045
3688.00,0.0045
3687.00,0.0045
3686.00,0.0046
3685.00,0.0046
3684.00,0.0046
3683.00,0.0046
3682.00,0.0047
3681.00,0.0047
3680.00,0.0047
3679.00,0.0047
3678.00,0.0047
3677.00,0.0047
3676.00,0.0046
3675.00,0.0046
3674.00,0.0046
3673.00,0.0045
3672.00,0.0045
3671.00,0.0045
3670.00,0.0045
3669.00,0.0045
3668.00,0.0046
3667.00,0.0046
3666.00,0.0046
3665.00,0.0046
3664.00,0.0047
3663.00,0.0047
3662.00,0.0048
3661.00,0.0048
3660.00,0.0048
3659.00,0.0048
3658.00,0.0048
3657.00,0.0048
3656.00,0.0048
3655.00,0.0048
3654.00,0.0048
3653.00,0.0049
3652.00,0.0049
3651.00,0.0049
3650.00,0.0048
3649.00,0.0048
3648.00,0.0048
3647.00,0.0049
3646.00,0.0049
3645.00,0.0049
3644.00,0.0050
3643.00,0.0050
3642.00,0.0051
3641.00,0.0052
3640.00,0.0052
3639.00,0.0053
3638.00,0.0053
3637.00,0.0053
3636.00,0.0054
3635.00,0.0054
3634.00,0.0054
3633.00,0.0055
3632.00,0.0055
3631.00,0.0055
3630.00,0.0055
3629.00,0.0056
3628.00,0.0057
3627.00,0.0057
3626.00,0.0057
3625.00,0.0057
3624.00,0.0058
3623.00,0.0058
3622.00,0.0059
3621.00,0.0059
3620.00,0.0059
3619.00,0.0059
3618.00,0.0059
3617.00,0.0059
3616.00,0.0059
3615.00,0.0060
3614.00,0.0060
3613.00,0.0061
3612.00,0.0061
3611.00,0.0061
3610.00,0.0061
3609.00,0.0062
3608.00,0.0062
3607.00,0.0063
3606.00,0.0064
3605.00,0.0065
3604.00,0.0066
3603.00,0.0066
3602.00,0.0067
3601.00,0.0067
3600.00,0.0068
3599.00,0.0068
3598.00,0.0069
3597.00,0.0069
3596.00,0.0069
3595.00,0.0069
3594.00,0.0070
3593.00,0.0070
3592.00,0.0071
3591.00,0.0071
3590.00,0.0072
3589.00,0.0072
3588.00,0.0072
3587.00,0.0073
3586.00,0.0073
3585.00,0.0074
3584.00,0.0074
3583.00,0.0075
3582.00,0.0075
3581.00,0.0076
3580.00,0.0077
3579.00,0.0078
3578.00,0.0078
3577.00,0.0079
3576.00,0.0080
3575.00,0.0080
3574.00,0.0080
3573.00,0.0081
3572.00,0.0081
3571.00,0.0081
3570.00,0.0081
3569.00,0.0081
3568.00,0.0081
3567.00,0.0082
3566.00,0.0083
3565.00,0.0084
3564.00,0.0085
3563.00,0.0086
3562.00,0.0087
3561.00,0.0088
3560.00,0.0089
3559.00,0.0089
3558.00,0.0090
3557.00,0.0090
3556.00,0.0091
3555.00,0.0091
3554.00,0.0091
3553.00,0.0091
3552.00,0.0092
3551.00,0.0092
3550.00,0.0093
3549.00,0.0093
3548.00,0.0093
3547.00,0.0094
3546.00,0.0095
3545.00,0.0095
3544.00,0.0096
3543.00,0.0096
3542.00,0.0097
3541.00,0.0097
3540.00,0.0098
3539.00,0.0098
3538.00,0.0099
3537.00,0.0099
3536.00,0.0100
3535.00,0.0100
3534.00,0.0100
3533.00,0.0101
3532.00,0.0101
3531.00,0.0101
3530.00,0.0102
3529.00,0.0102
3528.00,0.0103
3527.00,0.0103
3526.00,0.0104
3525.00,0.0104
3524.00,0.0104
3523.00,0.0105
3522.00,0.0105
3521.00,0.0106
3520.00,0.0106
3519.00,0.0107
3518.00,0.0107
3517.00,0.0108
3516.00,0.0108
3515.00,0.0108
3514.00,0.0108
3513.00,0.0109
3512.00,0.0109
3511.00,0.0109
3510.00,0.0110
3509.00,0.0110
3508.00,0.0111
3507.00,0.0111
3506.00,0.0111
3505.00,0.0112
3504.00,0.0112
3503.00,0.0113
3502.00,0.0113
3501.00,0.0113
3500.00,0.0114
3499.00,0.0114
3498.00,0.0115
3497.00,0.0115
3496.00,0.0115
3495.00,0.0116
3494.00,0.0117
3493.00,0.0117
3492.00,0.0117
3491.00,0.0118
3490.00,0.0118
3489.00,0.0119
3488.00,0.0120
3487.00,0.0120
3486.00,0.0120
3485.00,0.0120
3484.00,0.0121
3483.00,0.0121
3482.00,0.0122
3481.00,0.0122
3480.00,0.0123
3479.00,0.0123
3478.00,0.0123
3477.00,0.0123
3476.00,0.0124
3475.00,0.0124
3474.00,0.0124
3473.00,0.0125
3472.00,0.0125
3471.00,0.0126
3470.00,0.0126
3469.00,0.0127
3468.00,0.0127
3467.00,0.0128
3466.00,0.0128
3465.00,0.0128
3464.00,0.0128
3463.00,0.0129
3462.00,0.0129
3461.00,0.0130
3460.00,0.0130
3459.00,0.0130
3458.00,0.0130
3457.00,0.0130
3456.00,0.0131
3455.00,0.0131
3454.00,0.0131
3453.00,0.0132
3452.00,0.0132
3451.00,0.0132
3450.00,0.0132
3449.00,0.0133
3448.00,0.0133
3447.00,0.0133
3446.00,0.0133
3445.00,0.0133
3444.00,0.0134
3443.00,0.0134
3442.00,0.0134
3441.00,0.0135
3440.00,0.0135
3439.00,0.0136
3438.00,0.0136
3437.00,0.0136
3436.00,0.0136
3435.00,0.0136
3434.00,0.0136
3433.00,0.0136
3432.00,0.0136
3431.00,0.0136
3430.00,0.0137
3429.00,0.0137
3428.00,0.0137
3427.00,0.0137
3426.00,0.0137
3425.00,0.0137
3424.00,0.0137
3423.00,0.0138
3422.00,0.0138
3421.00,0.0138
3420.00,0.0138
3419.00,0.0138
3418.00,0.0138
3417.00,0.0138
3416.00,0.0138
3415.00,0.0138
3414.00,0.0138
3413.00,0.0139
3412.00,0.0139
3411.00,0.0139
3410.00,0.0139
3409.00,0.0139
3408.00,0.0139
3407.00,0.0139
3406.00,0.0139
3405.00,0.0139
3404.00,0.0139
3403.00,0.0140
3402.00,0.0140
3401.00,0.0139
3400.00,0.0139
3399.00,0.0139
3398.00,0.0140
3397.00,0.0140
3396.00,0.0140
3395.00,0.0140
3394.00,0.0140
3393.00,0.0140
3392.00,0.0140
3391.00,0.0141
3390.00,0.0141
3389.00,0.0142
3388.00,0.0142
3387.00,0.0142
3386.00,0.0142
3385.00,0.0142
3384.00,0.0142
3383.00,0.0142
3382.00,0.0142
3381.00,0.0142
3380.00,0.0143
3379.00,0.0143
3378.00,0.0143
3377.00,0.0143
3376.00,0.0143
3375.00,0.0143
3374.00,0.0143
3373.00,0.0143
3372.00,0.0142
3371.00,0.0142
3370.00,0.0141
3369.00,0.0142
3368.00,0.0142
3367.00,0.0143
3366.00,0.0143
3365.00,0.0144
3364.00,0.0144
3363.00,0.0145
3362.00,0.0145
3361.00,0.0145
3360.00,0.0145
3359.00,0.0145
3358.00,0.0146
3357.00,0.0146
3356.00,0.0146
3355.00,0.0146
3354.00,0.0146
3353.00,0.0145
3352.00,0.0145
3351.00,0.0145
3350.00,0.0145
3349.00,0.0146
3348.00,0.0147
3347.00,0.0147
3346.00,0.0147
3345.00,0.0147
3344.00,0.0146
3343.00,0.0146
3342.00,0.0146
3341.00,0.0146
3340.00,0.0145
3339.00,0.0145
3338.00,0.0145
3337.00,0.0146
3336.00,0.0147
3335.00,0.0147
3334.00,0.0148
3333.00,0.0148
3332.00,0.0148
3331.00,0.0148
3330.00,0.0148
3329.00,0.0148
3328.00,0.0148
3327.00,0.0147
3326.00,0.0147
3325.00,0.0147
3324.00,0.0147
3323.00,0.0148
3322.00,0.0148
3321.00,0.0149
3320.00,0.0149
3319.00,0.0150
3318.00,0.0150
3317.00,0.0150
3316.00,0.0150
3315.00,0.0150
3314.00,0.0150
3313.00,0.0149
3312.00,0.0148
3311.00,0.0147
3310.00,0.0146
3309.00,0.0145
3308.00,0.0145
3307.00,0.0144
3306.00,0.0144
3305.00,0.0145
3304.00,0.0147
3303.00,0.0148
3302.00,0.0149
3301.00,0.0150
3300.00,0.0150
3299.00,0.0150
3298.00,0.0149
3297.00,0.0148
3296.00,0.0148
3295.00,0.0147
3294.00,0.0147
3293.00,0.0147
3292.00,0.0148
3291.00,0.0148
3290.00,0.0149
3289.00,0.0150
3288.00,0.0150
3287.00,0.0150
3286.00,0.0150
3285.00,0.0150
3284.00,0.0149
3283.00,0.0149
3282.00,0.0149
3281.00,0.0149
3280.00,0.0149
3279.00,0.0149
3278.00,0.0149
3277.00,0.0148
3276.00,0.0148
3275.00,0.0148
3274.00,0.0147
3273.00,0.0147
3272.00,0.0146
3271.00,0.0146
3270.00,0.0146
3269.00,0.0147
3268.00,0.0147
3267.00,0.0148
3266.00,0.0147
3265.00,0.0147
3264.00,0.0147
3263.00,0.0147
3262.00,0.0147
3261.00,0.0147
3260.00,0.0146
3259.00,0.0146
3258.00,0.0146
3257.00,0.0146
3256.00,0.0146
3255.00,0.0146
3254.00,0.0146
3253.00,0.0146
3252.00,0.0146
3251.00,0.0145
3250.00,0.0145
3249.00,0.0144
3248.00,0.0144
3247.00,0.0144
3246.00,0.0144
3245.00,0.0145
3244.00,0.0145
3243.00,0.0145
3242.00,0.0145
3241.00,0.0145
3240.00,0.0145
3239.00,0.0144
3238.00,0.0144
3237.00,0.0144
3236.00,0.0143
3235.00,0.0143
3234.00,0.0143
3233.00,0.0143
3232.00,0.0143
3231.00,0.0143
3230.00,0.0143
3229.00,0.0142
3228.00,0.0142
3227.00,0.0142
3226.00,0.0142
3225.00,0.0142
3224.00,0.0142
3223.00,0.0141
3222.00,0.0141
3221.00,0.0141
3220.00,0.0140
3219.00,0.0140
3218.00,0.0140
3217.00,0.0140
3216.00,0.0139
3215.00,0.0139
3214.00,0.0139
3213.00,0.0139
3212.00,0.0139
3211.00,0.0139
3210.00,0.0138
3209.00,0.0138
3208.00,0.0138
3207.00,0.0138
3206.00,0.0138
3205.00,0.0138
3204.00,0.0138
3203.00,0.0138
3202.00,0.0138
3201.00,0.0138
3200.00,0.0138
3199.00,0.0137
3198.00,0.0137
3197.00,0.0137
3196.00,0.0137
3195.00,0.0136
3194.00,0.0136
3193.00,0.0136
3192.00,0.0136
3191.00,0.0136
3190.00,0.0135
3189.00,0.0135
3188.00,0.0135
3187.00,0.0135
3186.00,0.0135
3185.00,0.0135
3184.00,0.0134
3183.00,0.0134
3182.00,0.0133
3181.00,0.0133
3180.00,0.0132
3179.00,0.0132
3178.00,0.0132
3177.00,0.0132
3176.00,0.0132
3175.00,0.0132
3174.00,0.0132
3173.00,0.0131
3172.00,0.0131
3171.00,0.0130
3170.00,0.0130
3169.00,0.0129
3168.00,0.0129
3167.00,0.0128
3166.00,0.0128
3165.00,0.0128
3164.00,0.0128
3163.00,0.0128
3162.00,0.0127
3161.00,0.0127
3160.00,0.0126
3159.00,0.0126
3158.00,0.0126
3157.00,0.0125
3156.00,0.0125
3155.00,0.0125
3154.00,0.0124
3153.00,0.0123
3152.00,0.0123
3151.00,0.0122
3150.00,0.0122
3149.00,0.0122
3148.00,0.0121
3147.00,0.0121
3146.00,0.0121
3145.00,0.0121
3144.00,0.0121
3143.00,0.0120
3142.00,0.0120
3141.00,0.0120
3140.00,0.0119
3139.00,0.0119
3138.00,0.0119
3137.00,0.0118
3136.00,0.0118
3135.00,0.0118
3134.00,0.0117
3133.00,0.0117
3132.00,0.0117
3131.00,0.0117
3130.00,0.0116
3129.00,0.0116
3128.00,0.0116
3127.00,0.0116
3126.00,0.0116
3125.00,0.0115
3124.00,0.0115
3123.00,0.0115
3122.00,0.0115
3121.00,0.0114
3120.00,0.0114
3119.00,0.0114
3118.00,0.0114
3117.00,0.0113
3116.00,0.0113
3115.00,0.0113
3114.00,0.0112
3113.00,0.0112
3112.00,0.0111
3111.00,0.0111
3110.00,0.0111
3109.00,0.0111
3108.00,0.0110
3107.00,0.0110
3106.00,0.0110
3105.00,0.0109
3104.00,0.0109
3103.00,0.0108
3102.00,0.0108
3101.00,0.0107
3100.00,0.0107
3099.00,0.0107
3098.00,0.0107
3097.00,0.0106
3096.00,0.0106
3095.00,0.0106
3094.00,0.0106
3093.00,0.0105
3092.00,0.0105
3091.00,0.0105
3090.00,0.0105
3089.00,0.0105
3088.00,0.0104
3087.00,0.0104
3086.00,0.0104
3085.00,0.0103
3084.00,0.0103
3083.00,0.0103
3082.00,0.0103
3081.00,0.0103
3080.00,0.0103
3079.00,0.0103
3078.00,0.0103
3077.00,0.0103
3076.00,0.0103
3075.00,0.0103
3074.00,0.0102
3073.00,0.0102
3072.00,0.0102
3071.00,0.0102
3070.00,0.0102
3069.00,0.0102
3068.00,0.0102
3067.00,0.0101
3066.00,0.0101
3065.00,0.0100
3064.00,0.0099
3063.00,0.0098
3062.00,0.0098
3061.00,0.0097
3060.00,0.0097
3059.00,0.0096
3058.00,0.0096
3057.00,0.0095
3056.00,0.0095
3055.00,0.0095
3054.00,0.0095
3053.00,0.0094
3052.00,0.0094
3051.00,0.0094
3050.00,0.0094
3049.00,0.0093
3048.00,0.0093
3047.00,0.0093
3046.00,0.0092
3045.00,0.0092
3044.00,0.0092
3043.00,0.0091
3042.00,0.0091
3041.00,0.0091
3040.00,0.0091
3039.00,0.0090
3038.00,0.0090
3037.00,0.0090
3036.00,0.0090
3035.00,0.0089
3034.00,0.0089
3033.00,0.0089
3032.00,0.0089
3031.00,0.0089
3030.00,0.0089
3029.00,0.0089
3028.00,0.0089
3027.00,0.0089
3026.00,0.0089
3025.00,0.0089
3024.00,0.0089
3023.00,0.0089
3022.00,0.0089
3021.00,0.0089
3020.00,0.0089
3019.00,0.0090
3018.00,0.0090
3017.00,0.0090
3016.00,0.0090
3015.00,0.0091
3014.00,0.0091
3013.00,0.0091
3012.00,0.0091
3011.00,0.0092
3010.00,0.0092
3009.00,0.0093
3008.00,0.0093
3007.00,0.0094
3006.00,0.0094
3005.00,0.0095
3004.00,0.0095
3003.00,0.0096
3002.00,0.0097
3001.00,0.0098
3000.00,0.0099
2999.00,0.0100
2998.00,0.0102
2997.00,0.0104
2996.00,0.0106
2995.00,0.0108
2994.00,0.0110
2993.00,0.0112
2992.00,0.0115
2991.00,0.0118
2990.00,0.0120
2989.00,0.0123
2988.00,0.0126
2987.00,0.0128
2986.00,0.0130
2985.00,0.0131
2984.00,0.0132
2983.00,0.0133
2982.00,0.0134
2981.00,0.0136
2980.00,0.0139
2979.00,0.0143
2978.00,0.0146
2977.00,0.0150
2976.00,0.0154
2975.00,0.0157
2974.00,0.0160
2973.00,0.0163
2972.00,0.0165
2971.00,0.0169
2970.00,0.0172
2969.00,0.0176
2968.00,0.0180
2967.00,0.0184
2966.00,0.0188
2965.00,0.0192
2964.00,0.0196
2963.00,0.0200
2962.00,0.0203
2961.00,0.0206
2960.00,0.0209
2959.00,0.0212
2958.00,0.0214
2957.00,0.0216
2956.00,0.0218
2955.00,0.0219
2954.00,0.0220
2953.00,0.0220
2952.00,0.0221
2951.00,0.0221
2950.00,0.0220
2949.00,0.0220
2948.00,0.0219
2947.00,0.0218
2946.00,0.0218
2945.00,0.0218
2944.00,0.0218
2943.00,0.0218
2942.00,0.0218
2941.00,0.0219
2940.00,0.0220
2939.00,0.0221
2938.00,0.0223
2937.00,0.0226
2936.00,0.0228
2935.00,0.0231
2934.00,0.0235
2933.00,0.0238
2932.00,0.0241
2931.00,0.0244
2930.00,0.0247
2929.00,0.0250
2928.00,0.0253
2927.00,0.0256
2926.00,0.0258
2925.00,0.0260
2924.00,0.0262
2923.00,0.0263
2922.00,0.0263
2921.00,0.0263
2920.00,0.0262
2919.00,0.0261
2918.00,0.0260
2917.00,0.0257
2916.00,0.0255
2915.00,0.0252
2914.00,0.0248
2913.00,0.0245
2912.00,0.0241
2911.00,0.0238
2910.00,0.0234
2909.00,0.0231
2908.00,0.0228
2907.00,0.0224
2906.00,0.0221
2905.00,0.0218
2904.00,0.0215
2903.00,0.0213
2902.00,0.0212
2901.00,0.0210
2900.00,0.0209
2899.00,0.0208
2898.00,0.0207
2897.00,0.0206
2896.00,0.0205
2895.00,0.0204
2894.00,0.0203
2893.00,0.0203
2892.00,0.0202
2891.00,0.0201
2890.00,0.0200
2889.00,0.0200
2888.00,0.0199
2887.00,0.0199
2886.00,0.0198
2885.00,0.0198
2884.00,0.0198
2883.00,0.0198
2882.00,0.0198
2881.00,0.0198
2880.00,0.0198
2879.00,0.0199
2878.00,0.0199
2877.00,0.0199
2876.00,0.0199
2875.00,0.0199
2874.00,0.0199
2873.00,0.0199
2872.00,0.0199
2871.00,0.0199
2870.00,0.0199
2869.00,0.0199
2868.00,0.0198
2867.00,0.0197
2866.00,0.0197
2865.00,0.0196
2864.00,0.0196
2863.00,0.0197
2862.00,0.0197
2861.00,0.0198
2860.00,0.0198
2859.00,0.0199
2858.00,0.0200
2857.00,0.0200
2856.00,0.0199
2855.00,0.0198
2854.00,0.0197
2853.00,0.0195
2852.00,0.0192
2851.00,0.0188
2850.00,0.0184
2849.00,0.0180
2848.00,0.0175
2847.00,0.0170
2846.00,0.0165
2845.00,0.0161
2844.00,0.0156
2843.00,0.0152
2842.00,0.0148
2841.00,0.0145
2840.00,0.0142
2839.00,0.0139
2838.00,0.0137
2837.00,0.0135
2836.00,0.0134
2835.00,0.0133
2834.00,0.0132
2833.00,0.0131
2832.00,0.0130
2831.00,0.0128
2830.00,0.0127
2829.00,0.0125
2828.00,0.0124
2827.00,0.0122
2826.00,0.0120
2825.00,0.0117
2824.00,0.0115
2823.00,0.0113
2822.00,0.0110
2821.00,0.0108
2820.00,0.0106
2819.00,0.0104
2818.00,0.0102
2817.00,0.0100
2816.00,0.0099
2815.00,0.0097
2814.00,0.0096
2813.00,0.0095
2812.00,0.0094
2811.00,0.0093
2810.00,0.0093
2809.00,0.0092
2808.00,0.0091
2807.00,0.0091
2806.00,0.0090
2805.00,0.0090
2804.00,0.0089
2803.00,0.0089
2802.00,0.0088
2801.00,0.0087
2800.00,0.0087
2799.00,0.0086
2798.00,0.0086
2797.00,0.0086
2796.00,0.0085
2795.00,0.0085
2794.00,0.0084
2793.00,0.0084
2792.00,0.0084
2791.00,0.0083
2790.00,0.0083
2789.00,0.0083
2788.00,0.0083
2787.00,0.0082
2786.00,0.0082
2785.00,0.0082
2784.00,0.0082
2783.00,0.0082
2782.00,0.0081
2781.00,0.0081
2780.00,0.0081
2779.00,0.0081
2778.00,0.0080
2777.00,0.0080
2776.00,0.0080
2775.00,0.0080
2774.00,0.0080
2773.00,0.0079
2772.00,0.0079
2771.00,0.0079
2770.00,0.0079
2769.00,0.0079
2768.00,0.0078
2767.00,0.0078
2766.00,0.0078
2765.00,0.0078
2764.00,0.0078
2763.00,0.0078
2762.00,0.0078
2761.00,0.0078
2760.00,0.0077
2759.00,0.0077
2758.00,0.0077
2757.00,0.0077
2756.00,0.0078
2755.00,0.0078
2754.00,0.0078
2753.00,0.0078
2752.00,0.0077
2751.00,0.0077
2750.00,0.0077
2749.00,0.0077
2748.00,0.0077
2747.00,0.0077
2746.00,0.0077
2745.00,0.0077
2744.00,0.0077
2743.00,0.0077
2742.00,0.0077
2741.00,0.0077
2740.00,0.0077
2739.00,0.0077
2738.00,0.0077
2737.00,0.0077
2736.00,0.0077
2735.00,0.0077
2734.00,0.0078
2733.00,0.0078
2732.00,0.0078
2731.00,0.0078
2730.00,0.0078
2729.00,0.0078
2728.00,0.0078
2727.00,0.0078
2726.00,0.0078
2725.00,0.0078
2724.00,0.0078
2723.00,0.0078
2722.00,0.0078
2721.00,0.0078
2720.00,0.0078
2719.00,0.0077
2718.00,0.0077
2717.00,0.0077
2716.00,0.0077
2715.00,0.0077
2714.00,0.0077
2713.00,0.0076
2712.00,0.0076
2711.00,0.0076
2710.00,0.0076
2709.00,0.0076
2708.00,0.0076
2707.00,0.0076
2706.00,0.0075
2705.00,0.0075
2704.00,0.0075
2703.00,0.0075
2702.00,0.0075
2701.00,0.0075
2700.00,0.0075
2699.00,0.0075
2698.00,0.0075
2697.00,0.0075
2696.00,0.0075
2695.00,0.0075
2694.00,0.0075
2693.00,0.0075
2692.00,0.0075
2691.00,0.0075
2690.00,0.0075
2689.00,0.0074
2688.00,0.0074
2687.00,0.0074
2686.00,0.0074
2685.00,0.0074
2684.00,0.0074
2683.00,0.0074
2682.00,0.0073
2681.00,0.0073
2680.00,0.0073
2679.00,0.0073
2678.00,0.0073
2677.00,0.0073
2676.00,0.0073
2675.00,0.0073
2674.00,0.0073
2673.00,0.0074
2672.00,0.0074
2671.00,0.0073
2670.00,0.0073
2669.00,0.0073
2668.00,0.0073
2667.00,0.0074
2666.00,0.0074
2665.00,0.0074
2664.00,0.0075
2663.00,0.0075
2662.00,0.0075
2661.00,0.0075
2660.00,0.0076
2659.00,0.0076
2658.00,0.0076
2657.00,0.0076
2656.00,0.0076
2655.00,0.0076
2654.00,0.0076
2653.00,0.0076
2652.00,0.0076
2651.00,0.0076
2650.00,0.0075
2649.00,0.0075
2648.00,0.0075
2647.00,0.0075
2646.00,0.0074
2645.00,0.0074
2644.00,0.0074
2643.00,0.0074
2642.00,0.0074
2641.00,0.0074
2640.00,0.0074
2639.00,0.0073
2638.00,0.0073
2637.00,0.0073
2636.00,0.0073
2635.00,0.0073
2634.00,0.0072
2633.00,0.0072
2632.00,0.0072
2631.00,0.0072
2630.00,0.0072
2629.00,0.0072
2628.00,0.0072
2627.00,0.0072
2626.00,0.0072
2625.00,0.0072
2624.00,0.0072
2623.00,0.0071
2622.00,0.0071
2621.00,0.0071
2620.00,0.0070
2619.00,0.0070
2618.00,0.0070
2617.00,0.0070
2616.00,0.0070
2615.00,0.0070
2614.00,0.0070
2613.00,0.0070
2612.00,0.0070
2611.00,0.0070
2610.00,0.0069
2609.00,0.0069
2608.00,0.0069
2607.00,0.0069
2606.00,0.0068
2605.00,0.0068
2604.00,0.0068
2603.00,0.0069
2602.00,0.0069
2601.00,0.0069
2600.00,0.0068
2599.00,0.0068
2598.00,0.0068
2597.00,0.0067
2596.00,0.0067
2595.00,0.0067
2594.00,0.0068
2593.00,0.0068
2592.00,0.0068
2591.00,0.0068
2590.00,0.0067
2589.00,0.0067
2588.00,0.0067
2587.00,0.0067
2586.00,0.0067
2585.00,0.0068
2584.00,0.0068
2583.00,0.0068
2582.00,0.0067
2581.00,0.0067
2580.00,0.0067
2579.00,0.0066
2578.00,0.0066
2577.00,0.0066
2576.00,0.0066
2575.00,0.0067
2574.00,0.0066
2573.00,0.0066
2572.00,0.0066
2571.00,0.0066
2570.00,0.0066
2569.00,0.0066
2568.00,0.0066
2567.00,0.0065
2566.00,0.0065
2565.00,0.0065
2564.00,0.0065
2563.00,0.0065
2562.00,0.0065
2561.00,0.0065
2560.00,0.0065
2559.00,0.0065
2558.00,0.0064
2557.00,0.0064
2556.00,0.0064
2555.00,0.0064
2554.00,0.0064
2553.00,0.0064
2552.00,0.0064
2551.00,0.0064
2550.00,0.0064
2549.00,0.0064
2548.00,0.0064
2547.00,0.0063
2546.00,0.0063
2545.00,0.0063
2544.00,0.0063
2543.00,0.0063
2542.00,0.0063
2541.00,0.0063
2540.00,0.0063
2539.00,0.0063
2538.00,0.0063
2537.00,0.0063
2536.00,0.0063
2535.00,0.0063
2534.00,0.0063
2533.00,0.0063
2532.00,0.0063
2531.00,0.0063
2530.00,0.0063
2529.00,0.0062
2528.00,0.0062
2527.00,0.0061
2526.00,0.0061
2525.00,0.0061
2524.00,0.0061
2523.00,0.0061
2522.00,0.0061
2521.00,0.0061
2520.00,0.0061
2519.00,0.0061
2518.00,0.0060
2517.00,0.0060
2516.00,0.0059
2515.00,0.0059
2514.00,0.0060
2513.00,0.0060
2512.00,0.0060
2511.00,0.0060
2510.00,0.0060
2509.00,0.0060
2508.00,0.0060
2507.00,0.0060
2506.00,0.0059
2505.00,0.0059
2504.00,0.0059
2503.00,0.0059
2502.00,0.0059
2501.00,0.0059
2500.00,0.0059
2499.00,0.0059
2498.00,0.0059
2497.00,0.0059
2496.00,0.0059
2495.00,0.0059
2494.00,0.0059
2493.00,0.0059
2492.00,0.0059
2491.00,0.0059
2490.00,0.0059
2489.00,0.0058
2488.00,0.0058
2487.00,0.0058
2486.00,0.0058
2485.00,0.0058
2484.00,0.0058
2483.00,0.0058
2482.00,0.0058
2481.00,0.0058
2480.00,0.0058
2479.00,0.0058
2478.00,0.0057
2477.00,0.0057
2476.00,0.0057
2475.00,0.0058
2474.00,0.0058
2473.00,0.0059
2472.00,0.0059
2471.00,0.0059
2470.00,0.0059
2469.00,0.0059
2468.00,0.0058
2467.00,0.0058
2466.00,0.0058
2465.00,0.0058
2464.00,0.0058
2463.00,0.0058
2462.00,0.0058
2461.00,0.0059
2460.00,0.0059
2459.00,0.0059
2458.00,0.0059
2457.00,0.0059
2456.00,0.0059
2455.00,0.0058
2454.00,0.0058
2453.00,0.0058
2452.00,0.0058
2451.00,0.0058
2450.00,0.0058
2449.00,0.0058
2448.00,0.0058
2447.00,0.0058
2446.00,0.0058
2445.00,0.0058
2444.00,0.0058
2443.00,0.0058
2442.00,0.0058
2441.00,0.0058
2440.00,0.0058
2439.00,0.0058
2438.00,0.0057
2437.00,0.0057
2436.00,0.0056
2435.00,0.0056
2434.00,0.0056
2433.00,0.0056
2432.00,0.0056
2431.00,0.0056
2430.00,0.0056
2429.00,0.0056
2428.00,0.0056
2427.00,0.0057
2426.00,0.0057
2425.00,0.0057
2424.00,0.0056
2423.00,0.0056
2422.00,0.0056
2421.00,0.0056
2420.00,0.0056
2419.00,0.0056
2418.00,0.0056
2417.00,0.0056
2416.00,0.0056
2415.00,0.0056
2414.00,0.0056
2413.00,0.0056
2412.00,0.0056
2411.00,0.0056
2410.00,0.0055
2409.00,0.0055
2408.00,0.0055
2407.00,0.0054
2406.00,0.0054
2405.00,0.0053
2404.00,0.0053
2403.00,0.0054
2402.00,0.0054
2401.00,0.0054
2400.00,0.0054
2399.00,0.0054
2398.00,0.0054
2397.00,0.0054
2396.00,0.0054
2395.00,0.0054
2394.00,0.0054
2393.00,0.0054
2392.00,0.0053
2391.00,0.0053
2390.00,0.0054
2389.00,0.0054
2388.00,0.0054
2387.00,0.0054
2386.00,0.0054
2385.00,0.0053
2384.00,0.0053
2383.00,0.0053
2382.00,0.0053
2381.00,0.0053
2380.00,0.0053
2379.00,0.0053
2378.00,0.0053
2377.00,0.0053
2376.00,0.0053
2375.00,0.0053
2374.00,0.0053
2373.00,0.0053
2372.00,0.0053
2371.00,0.0053
2370.00,0.0053
2369.00,0.0054
2368.00,0.0054
2367.00,0.0054
2366.00,0.0054
2365.00,0.0053
2364.00,0.0053
2363.00,0.0054
2362.00,0.0054
2361.00,0.0054
2360.00,0.0055
2359.00,0.0055
2358.00,0.0055
2357.00,0.0055
2356.00,0.0054
2355.00,0.0054
2354.00,0.0053
2353.00,0.0052
2352.00,0.0052
2351.00,0.0052
2350.00,0.0053
2349.00,0.0055
2348.00,0.0057
2347.00,0.0057
2346.00,0.0057
2345.00,0.0057
2344.00,0.0057
2343.00,0.0057
2342.00,0.0058
2341.00,0.0058
2340.00,0.0058
2339.00,0.0058
2338.00,0.0058
2337.00,0.0058
2336.00,0.0058
2335.00,0.0058
2334.00,0.0058
2333.00,0.0058
2332.00,0.0057
2331.00,0.0057
2330.00,0.0057
2329.00,0.0059
2328.00,0.0062
2327.00,0.0065
2326.00,0.0068
2325.00,0.0068
2324.00,0.0067
2323.00,0.0065
2322.00,0.0064
2321.00,0.0063
2320.00,0.0062
2319.00,0.0062
2318.00,0.0062
2317.00,0.0061
2316.00,0.0061
2315.00,0.0060
2314.00,0.0060
2313.00,0.0059
2312.00,0.0059
2311.00,0.0059
2310.00,0.0059
2309.00,0.0059
2308.00,0.0059
2307.00,0.0059
2306.00,0.0059
2305.00,0.0059
2304.00,0.0059
2303.00,0.0059
2302.00,0.0059
2301.00,0.0060
2300.00,0.0060
2299.00,0.0060
2298.00,0.0060
2297.00,0.0060
2296.00,0.0061
2295.00,0.0061
2294.00,0.0061
2293.00,0.0062
2292.00,0.0062
2291.00,0.0063
2290.00,0.0064
2289.00,0.0065
2288.00,0.0065
2287.00,0.0065
2286.00,0.0065
2285.00,0.0064
2284.00,0.0064
2283.00,0.0063
2282.00,0.0062
2281.00,0.0062
2280.00,0.0062
2279.00,0.0061
2278.00,0.0061
2277.00,0.0061
2276.00,0.0060
2275.00,0.0060
2274.00,0.0060
2273.00,0.0059
2272.00,0.0059
2271.00,0.0060
2270.00,0.0060
2269.00,0.0060
2268.00,0.0059
2267.00,0.0058
2266.00,0.0058
2265.00,0.0057
2264.00,0.0057
2263.00,0.0058
2262.00,0.0058
2261.00,0.0058
2260.00,0.0059
2259.00,0.0060
2258.00,0.0060
2257.00,0.0059
2256.00,0.0058
2255.00,0.0057
2254.00,0.0056
2253.00,0.0056
2252.00,0.0056
2251.00,0.0056
2250.00,0.0056
2249.00,0.0057
2248.00,0.0057
2247.00,0.0056
2246.00,0.0056
2245.00,0.0057
2244.00,0.0057
2243.00,0.0058
2242.00,0.0058
2241.00,0.0057
2240.00,0.0057
2239.00,0.0057
2238.00,0.0058
2237.00,0.0058
2236.00,0.0058
2235.00,0.0058
2234.00,0.0058
2233.00,0.0057
2232.00,0.0057
2231.00,0.0057
2230.00,0.0057
2229.00,0.0057
2228.00,0.0057
2227.00,0.0057
2226.00,0.0056
2225.00,0.0056
2224.00,0.0056
2223.00,0.0055
2222.00,0.0055
2221.00,0.0055
2220.00,0.0055
2219.00,0.0056
2218.00,0.0056
2217.00,0.0055
2216.00,0.0055
2215.00,0.0054
2214.00,0.0054
2213.00,0.0054
2212.00,0.0055
2211.00,0.0056
2210.00,0.0056
2209.00,0.0056
2208.00,0.0055
2207.00,0.0055
2206.00,0.0055
2205.00,0.0055
2204.00,0.0055
2203.00,0.0055
2202.00,0.0055
2201.00,0.0055
2200.00,0.0056
2199.00,0.0056
2198.00,0.0056
2197.00,0.0056
2196.00,0.0056
2195.00,0.0056
2194.00,0.0056
2193.00,0.0056
2192.00,0.0056
2191.00,0.0055
2190.00,0.0055
2189.00,0.0055
2188.00,0.0056
2187.00,0.0057
2186.00,0.0056
2185.00,0.0055
2184.00,0.0053
2183.00,0.0051
2182.00,0.0050
2181.00,0.0051
2180.00,0.0052
2179.00,0.0053
2178.00,0.0053
2177.00,0.0051
2176.00,0.0049
2175.00,0.0049
2174.00,0.0049
2173.00,0.0052
2172.00,0.0055
2171.00,0.0057
2170.00,0.0060
2169.00,0.0062
2168.00,0.0064
2167.00,0.0065
2166.00,0.0066
2165.00,0.0067
2164.00,0.0068
2163.00,0.0068
2162.00,0.0063
2161.00,0.0053
2160.00,0.0040
2159.00,0.0029
2158.00,0.0023
2157.00,0.0023
2156.00,0.0026
2155.00,0.0030
2154.00,0.0034
2153.00,0.0037
2152.00,0.0039
2151.00,0.0040
2150.00,0.0041
2149.00,0.0041
2148.00,0.0040
2147.00,0.0038
2146.00,0.0037
2145.00,0.0036
2144.00,0.0036
2143.00,0.0037
2142.00,0.0039
2141.00,0.0040
2140.00,0.0041
2139.00,0.0040
2138.00,0.0039
2137.00,0.0037
2136.00,0.0036
2135.00,0.0034
2134.00,0.0034
2133.00,0.0035
2132.00,0.0037
2131.00,0.0038
2130.00,0.0039
2129.00,0.0040
2128.00,0.0042
2127.00,0.0043
2126.00,0.0044
2125.00,0.0045
2124.00,0.0046
2123.00,0.0046
2122.00,0.0047
2121.00,0.0047
2120.00,0.0048
2119.00,0.0050
2118.00,0.0051
2117.00,0.0052
2116.00,0.0053
2115.00,0.0053
2114.00,0.0052
2113.00,0.0052
2112.00,0.0051
2111.00,0.0051
2110.00,0.0051
2109.00,0.0051
2108.00,0.0050
2107.00,0.0050
2106.00,0.0050
2105.00,0.0050
2104.00,0.0051
2103.00,0.0051
2102.00,0.0051
2101.00,0.0051
2100.00,0.0051
2099.00,0.0050
2098.00,0.0049
2097.00,0.0049
2096.00,0.0048
2095.00,0.0047
2094.00,0.0046
2093.00,0.0047
2092.00,0.0049
2091.00,0.0050
2090.00,0.0052
2089.00,0.0052
2088.00,0.0053
2087.00,0.0053
2086.00,0.0052
2085.00,0.0052
2084.00,0.0052
2083.00,0.0052
2082.00,0.0052
2081.00,0.0052
2080.00,0.0052
2079.00,0.0052
2078.00,0.0052
2077.00,0.0051
2076.00,0.0051
2075.00,0.0051
2074.00,0.0051
2073.00,0.0050
2072.00,0.0050
2071.00,0.0050
2070.00,0.0049
2069.00,0.0050
2068.00,0.0050
2067.00,0.0051
2066.00,0.0051
2065.00,0.0051
2064.00,0.0051
2063.00,0.0050
2062.00,0.0049
2061.00,0.0049
2060.00,0.0049
2059.00,0.0049
2058.00,0.0050
2057.00,0.0049
2056.00,0.0049
2055.00,0.0049
2054.00,0.0051
2053.00,0.0055
2052.00,0.0058
2051.00,0.0059
2050.00,0.0057
2049.00,0.0054
2048.00,0.0052
2047.00,0.0051
2046.00,0.0051
2045.00,0.0051
2044.00,0.0051
2043.00,0.0052
2042.00,0.0052
2041.00,0.0051
2040.00,0.0050
2039.00,0.0048
2038.00,0.0047
2037.00,0.0047
2036.00,0.0047
2035.00,0.0046
2034.00,0.0044
2033.00,0.0043
2032.00,0.0042
2031.00,0.0042
2030.00,0.0042
2029.00,0.0042
2028.00,0.0044
2027.00,0.0045
2026.00,0.0046
2025.00,0.0047
2024.00,0.0048
2023.00,0.0048
2022.00,0.0047
2021.00,0.0045
2020.00,0.0044
2019.00,0.0043
2018.00,0.0041
2017.00,0.0041
2016.00,0.0043
2015.00,0.0044
2014.00,0.0045
2013.00,0.0045
2012.00,0.0045
2011.00,0.0045
2010.00,0.0044
2009.00,0.0043
2008.00,0.0041
2007.00,0.0039
2006.00,0.0036
2005.00,0.0034
2004.00,0.0035
2003.00,0.0037
2002.00,0.0039
2001.00,0.0041
2000.00,0.0042
1999.00,0.0041
1998.00,0.0041
1997.00,0.0041
1996.00,0.0042
1995.00,0.0044
1994.00,0.0046
1993.00,0.0047
1992.00,0.0048
1991.00,0.0048
1990.00,0.0048
1989.00,0.0047
1988.00,0.0047
1987.00,0.0047
1986.00,0.0047
1985.00,0.0048
1984.00,0.0052
1983.00,0.0055
1982.00,0.0057
1981.00,0.0056
1980.00,0.0054
1979.00,0.0049
1978.00,0.0044
1977.00,0.0040
1976.00,0.0039
1975.00,0.0039
1974.00,0.0039
1973.00,0.0038
1972.00,0.0038
1971.00,0.0038
1970.00,0.0038
1969.00,0.0039
1968.00,0.0040
1967.00,0.0040
1966.00,0.0039
1965.00,0.0038
1964.00,0.0037
1963.00,0.0037
1962.00,0.0037
1961.00,0.0036
1960.00,0.0036
1959.00,0.0036
1958.00,0.0036
1957.00,0.0037
1956.00,0.0038
1955.00,0.0039
1954.00,0.0039
1953.00,0.0039
1952.00,0.0039
1951.00,0.0039
1950.00,0.0039
1949.00,0.0038
1948.00,0.0039
1947.00,0.0039
1946.00,0.0039
1945.00,0.0039
1944.00,0.0040
1943.00,0.0040
1942.00,0.0040
1941.00,0.0039
1940.00,0.0039
1939.00,0.0039
1938.00,0.0039
1937.00,0.0039
1936.00,0.0040
1935.00,0.0039
1934.00,0.0039
1933.00,0.0038
1932.00,0.0039
1931.00,0.0040
1930.00,0.0040
1929.00,0.0041
1928.00,0.0041
1927.00,0.0040
1926.00,0.0039
1925.00,0.0039
1924.00,0.0040
1923.00,0.0042
1922.00,0.0042
1921.00,0.0043
1920.00,0.0043
1919.00,0.0043
1918.00,0.0043
1917.00,0.0043
1916.00,0.0043
1915.00,0.0043
1914.00,0.0043
1913.00,0.0043
1912.00,0.0043
1911.00,0.0043
1910.00,0.0043
1909.00,0.0043
1908.00,0.0043
1907.00,0.0043
1906.00,0.0043
1905.00,0.0042
1904.00,0.0042
1903.00,0.0043
1902.00,0.0043
1901.00,0.0043
1900.00,0.0044
1899.00,0.0044
1898.00,0.0043
1897.00,0.0043
1896.00,0.0043
1895.00,0.0043
1894.00,0.0043
1893.00,0.0043
1892.00,0.0043
1891.00,0.0043
1890.00,0.0043
1889.00,0.0042
1888.00,0.0042
1887.00,0.0042
1886.00,0.0041
1885.00,0.0041
1884.00,0.0041
1883.00,0.0041
1882.00,0.0041
1881.00,0.0041
1880.00,0.0041
1879.00,0.0042
1878.00,0.0042
1877.00,0.0042
1876.00,0.0043
1875.00,0.0043
1874.00,0.0043
1873.00,0.0043
1872.00,0.0043
1871.00,0.0043
1870.00,0.0042
1869.00,0.0042
1868.00,0.0042
1867.00,0.0042
1866.00,0.0042
1865.00,0.0042
1864.00,0.0042
1863.00,0.0042
1862.00,0.0042
1861.00,0.0042
1860.00,0.0042
1859.00,0.0042
1858.00,0.0042
1857.00,0.0042
1856.00,0.0042
1855.00,0.0042
1854.00,0.0042
1853.00,0.0042
1852.00,0.0042
1851.00,0.0043
1850.00,0.0043
1849.00,0.0043
1848.00,0.0043
1847.00,0.0043
1846.00,0.0042
1845.00,0.0041
1844.00,0.0041
1843.00,0.0042
1842.00,0.0042
1841.00,0.0043
1840.00,0.0043
1839.00,0.0043
1838.00,0.0043
1837.00,0.0043
1836.00,0.0043
1835.00,0.0042
1834.00,0.0042
1833.00,0.0042
1832.00,0.0041
1831.00,0.0041
1830.00,0.0041
1829.00,0.0042
1828.00,0.0043
1827.00,0.0043
1826.00,0.0043
1825.00,0.0043
1824.00,0.0043
1823.00,0.0043
1822.00,0.0043
1821.00,0.0042
1820.00,0.0041
1819.00,0.0040
1818.00,0.0040
1817.00,0.0039
1816.00,0.0040
1815.00,0.0041
1814.00,0.0041
1813.00,0.0042
1812.00,0.0042
1811.00,0.0042
1810.00,0.0042
1809.00,0.0042
1808.00,0.0042
1807.00,0.0042
1806.00,0.0041
1805.00,0.0041
1804.00,0.0042
1803.00,0.0042
1802.00,0.0042
1801.00,0.0042
1800.00,0.0042
1799.00,0.0042
1798.00,0.0042
1797.00,0.0042
1796.00,0.0042
1795.00,0.0042
1794.00,0.0042
1793.00,0.0041
1792.00,0.0041
1791.00,0.0042
1790.00,0.0042
1789.00,0.0042
1788.00,0.0042
1787.00,0.0043
1786.00,0.0042
1785.00,0.0042
1784.00,0.0043
1783.00,0.0043
1782.00,0.0043
1781.00,0.0043
1780.00,0.0044
1779.00,0.0044
1778.00,0.0043
1777.00,0.0043
1776.00,0.0043
1775.00,0.0043
1774.00,0.0043
1773.00,0.0043
1772.00,0.0044
1771.00,0.0044
1770.00,0.0044
1769.00,0.0044
1768.00,0.0044
1767.00,0.0044
1766.00,0.0044
1765.00,0.0044
1764.00,0.0044
1763.00,0.0044
1762.00,0.0044
1761.00,0.0044
1760.00,0.0044
1759.00,0.0045
1758.00,0.0045
1757.00,0.0045
1756.00,0.0045
1755.00,0.0045
1754.00,0.0045
1753.00,0.0045
1752.00,0.0045
1751.00,0.0046
1750.00,0.0046
1749.00,0.0046
1748.00,0.0047
1747.00,0.0047
1746.00,0.0048
1745.00,0.0048
1744.00,0.0048
1743.00,0.0049
1742.00,0.0048
1741.00,0.0048
1740.00,0.0048
1739.00,0.0049
1738.00,0.0049
1737.00,0.0049
1736.00,0.0050
1735.00,0.0050
1734.00,0.0050
1733.00,0.0050
1732.00,0.0052
1731.00,0.0053
1730.00,0.0054
1729.00,0.0054
1728.00,0.0055
1727.00,0.0056
1726.00,0.0056
1725.00,0.0057
1724.00,0.0058
1723.00,0.0060
1722.00,0.0060
1721.00,0.0061
1720.00,0.0063
1719.00,0.0066
1718.00,0.0068
1717.00,0.0070
1716.00,0.0073
1715.00,0.0075
1714.00,0.0077
1713.00,0.0079
1712.00,0.0083
1711.00,0.0088
1710.00,0.0092
1709.00,0.0097
1708.00,0.0103
1707.00,0.0111
1706.00,0.0119
1705.00,0.0130
1704.00,0.0141
1703.00,0.0151
1702.00,0.0161
1701.00,0.0178
1700.00,0.0204
1699.00,0.0230
1698.00,0.0251
1697.00,0.0275
1696.00,0.0307
1695.00,0.0343
1694.00,0.0373
1693.00,0.0400
1692.00,0.0428
1691.00,0.0458
1690.00,0.0491
1689.00,0.0524
1688.00,0.0554
1687.00,0.0581
1686.00,0.0605
1685.00,0.0637
1684.00,0.0677
1683.00,0.0712
1682.00,0.0737
1681.00,0.0756
1680.00,0.0775
1679.00,0.0792
1678.00,0.0806
1677.00,0.0818
1676.00,0.0832
1675.00,0.0848
1674.00,0.0864
1673.00,0.0876
1672.00,0.0886
1671.00,0.0896
1670.00,0.0907
1669.00,0.0922
1668.00,0.0937
1667.00,0.0950
1666.00,0.0961
1665.00,0.0970
1664.00,0.0981
1663.00,0.0994
1662.00,0.1008
1661.00,0.1020
1660.00,0.1031
1659.00,0.1040
1658.00,0.1046
1657.00,0.1051
1656.00,0.1053
1655.00,0.1051
1654.00,0.1046
1653.00,0.1041
1652.00,0.1039
1651.00,0.1035
1650.00,0.1026
1649.00,0.1011
1648.00,0.0990
1647.00,0.0964
1646.00,0.0936
1645.00,0.0911
1644.00,0.0886
1643.00,0.0860
1642.00,0.0831
1641.00,0.0800
1640.00,0.0770
1639.00,0.0740
1638.00,0.0709
1637.00,0.0675
1636.00,0.0636
1635.00,0.0600
1634.00,0.0573
1633.00,0.0551
1632.00,0.0531
1631.00,0.0512
1630.00,0.0493
1629.00,0.0476
1628.00,0.0460
1627.00,0.0447
1626.00,0.0437
1625.00,0.0427
1624.00,0.0418
1623.00,0.0410
1622.00,0.0405
1621.00,0.0400
1620.00,0.0396
1619.00,0.0391
1618.00,0.0384
1617.00,0.0377
1616.00,0.0369
1615.00,0.0360
1614.00,0.0351
1613.00,0.0340
1612.00,0.0328
1611.00,0.0316
1610.00,0.0304
1609.00,0.0292
1608.00,0.0281
1607.00,0.0272
1606.00,0.0264
1605.00,0.0257
1604.00,0.0252
1603.00,0.0249
1602.00,0.0248
1601.00,0.0248
1600.00,0.0251
1599.00,0.0254
1598.00,0.0259
1597.00,0.0264
1596.00,0.0269
1595.00,0.0274
1594.00,0.0277
1593.00,0.0278
1592.00,0.0278
1591.00,0.0277
1590.00,0.0274
1589.00,0.0270
1588.00,0.0266
1587.00,0.0260
1586.00,0.0255
1585.00,0.0249
1584.00,0.0243
1583.00,0.0236
1582.00,0.0229
1581.00,0.0222
1580.00,0.0216
1579.00,0.0210
1578.00,0.0203
1577.00,0.0196
1576.00,0.0189
1575.00,0.0183
1574.00,0.0177
1573.00,0.0173
1572.00,0.0169
1571.00,0.0164
1570.00,0.0159
1569.00,0.0156
1568.00,0.0153
1567.00,0.0150
1566.00,0.0148
1565.00,0.0146
1564.00,0.0143
1563.00,0.0141
1562.00,0.0140
1561.00,0.0137
1560.00,0.0133
1559.00,0.0131
1558.00,0.0129
1557.00,0.0129
1556.00,0.0129
1555.00,0.0128
1554.00,0.0127
1553.00,0.0126
1552.00,0.0126
1551.00,0.0125
1550.00,0.0125
1549.00,0.0124
1548.00,0.0123
1547.00,0.0123
1546.00,0.0122
1545.00,0.0122
1544.00,0.0122
1543.00,0.0122
1542.00,0.0121
1541.00,0.0120
1540.00,0.0120
1539.00,0.0120
1538.00,0.0120
1537.00,0.0120
1536.00,0.0119
1535.00,0.0118
1534.00,0.0117
1533.00,0.0117
1532.00,0.0117
1531.00,0.0117
1530.00,0.0117
1529.00,0.0117
1528.00,0.0117
1527.00,0.0117
1526.00,0.0116
1525.00,0.0116
1524.00,0.0116
1523.00,0.0116
1522.00,0.0117
1521.00,0.0117
1520.00,0.0117
1519.00,0.0118
1518.00,0.0118
1517.00,0.0118
1516.00,0.0119
1515.00,0.0119
1514.00,0.0119
1513.00,0.0120
1512.00,0.0121
1511.00,0.0122
1510.00,0.0124
1509.00,0.0126
1508.00,0.0130
1507.00,0.0135
1506.00,0.0140
1505.00,0.0147
1504.00,0.0153
1503.00,0.0161
1502.00,0.0169
1501.00,0.0178
1500.00,0.0188
1499.00,0.0199
1498.00,0.0211
1497.00,0.0223
1496.00,0.0234
1495.00,0.0241
1494.00,0.0245
1493.00,0.0245
1492.00,0.0243
1491.00,0.0237
1490.00,0.0229
1489.00,0.0219
1488.00,0.0207
1487.00,0.0196
1486.00,0.0185
1485.00,0.0176
1484.00,0.0168
1483.00,0.0161
1482.00,0.0156
1481.00,0.0152
1480.00,0.0150
1479.00,0.0149
1478.00,0.0149
1477.00,0.0152
1476.00,0.0156
1475.00,0.0162
1474.00,0.0170
1473.00,0.0183
1472.00,0.0201
1471.00,0.0220
1470.00,0.0240
1469.00,0.0261
1468.00,0.0283
1467.00,0.0308
1466.00,0.0335
1465.00,0.0365
1464.00,0.0394
1463.00,0.0417
1462.00,0.0431
1461.00,0.0440
1460.00,0.0443
1459.00,0.0439
1458.00,0.0428
1457.00,0.0410
1456.00,0.0391
1455.00,0.0377
1454.00,0.0368
1453.00,0.0360
1452.00,0.0356
1451.00,0.0355
1450.00,0.0358
1449.00,0.0365
1448.00,0.0377
1447.00,0.0392
1446.00,0.0409
1445.00,0.0428
1444.00,0.0448
1443.00,0.0468
1442.00,0.0490
1441.00,0.0510
1440.00,0.0529
1439.00,0.0545
1438.00,0.0561
1437.00,0.0579
1436.00,0.0598
1435.00,0.0614
1434.00,0.0628
1433.00,0.0640
1432.00,0.0654
1431.00,0.0670
1430.00,0.0686
1429.00,0.0704
1428.00,0.0721
1427.00,0.0736
1426.00,0.0750
1425.00,0.0763
1424.00,0.0775
1423.00,0.0782
1422.00,0.0782
1421.00,0.0773
1420.00,0.0752
1419.00,0.0718
1418.00,0.0678
1417.00,0.0637
1416.00,0.0595
1415.00,0.0553
1414.00,0.0513
1413.00,0.0476
1412.00,0.0442
1411.00,0.0412
1410.00,0.0386
1409.00,0.0365
1408.00,0.0347
1407.00,0.0332
1406.00,0.0319
1405.00,0.0308
1404.00,0.0298
1403.00,0.0290
1402.00,0.0284
1401.00,0.0279
1400.00,0.0273
1399.00,0.0269
1398.00,0.0266
1397.00,0.0264
1396.00,0.0262
1395.00,0.0260
1394.00,0.0259
1393.00,0.0260
1392.00,0.0260
1391.00,0.0261
1390.00,0.0262
1389.00,0.0265
1388.00,0.0268
1387.00,0.0272
1386.00,0.0278
1385.00,0.0283
1384.00,0.0289
1383.00,0.0296
1382.00,0.0305
1381.00,0.0315
1380.00,0.0325
1379.00,0.0335
1378.00,0.0344
1377.00,0.0352
1376.00,0.0358
1375.00,0.0361
1374.00,0.0362
1373.00,0.0360
1372.00,0.0356
1371.00,0.0351
1370.00,0.0345
1369.00,0.0339
1368.00,0.0332
1367.00,0.0325
1366.00,0.0318
1365.00,0.0311
1364.00,0.0302
1363.00,0.0294
1362.00,0.0285
1361.00,0.0277
1360.00,0.0269
1359.00,0.0263
1358.00,0.0257
1357.00,0.0252
1356.00,0.0247
1355.00,0.0243
1354.00,0.0239
1353.00,0.0235
1352.00,0.0231
1351.00,0.0227
1350.00,0.0224
1349.00,0.0221
1348.00,0.0219
1347.00,0.0216
1346.00,0.0214
1345.00,0.0212
1344.00,0.0211
1343.00,0.0210
1342.00,0.0210
1341.00,0.0210
1340.00,0.0210
1339.00,0.0211
1338.00,0.0211
1337.00,0.0212
1336.00,0.0213
1335.00,0.0214
1334.00,0.0215
1333.00,0.0217
1332.00,0.0220
1331.00,0.0223
1330.00,0.0227
1329.00,0.0232
1328.00,0.0238
1327.00,0.0245
1326.00,0.0254
1325.00,0.0263
1324.00,0.0272
1323.00,0.0283
1322.00,0.0293
1321.00,0.0302
1320.00,0.0311
1319.00,0.0317
1318.00,0.0322
1317.00,0.0325
1316.00,0.0325
1315.00,0.0323
1314.00,0.0319
1313.00,0.0314
1312.00,0.0307
1311.00,0.0301
1310.00,0.0295
1309.00,0.0290
1308.00,0.0286
1307.00,0.0283
1306.00,0.0283
1305.00,0.0284
1304.00,0.0288
1303.00,0.0294
1302.00,0.0304
1301.00,0.0317
1300.00,0.0335
1299.00,0.0358
1298.00,0.0386
1297.00,0.0420
1296.00,0.0457
1295.00,0.0499
1294.00,0.0543
1293.00,0.0587
1292.00,0.0630
1291.00,0.0670
1290.00,0.0705
1289.00,0.0735
1288.00,0.0757
1287.00,0.0772
1286.00,0.0778
1285.00,0.0777
1284.00,0.0768
1283.00,0.0754
1282.00,0.0736
1281.00,0.0717
1280.00,0.0701
1279.00,0.0688
1278.00,0.0680
1277.00,0.0677
1276.00,0.0678
1275.00,0.0683
1274.00,0.0689
1273.00,0.0694
1272.00,0.0697
1271.00,0.0696
1270.00,0.0690
1269.00,0.0680
1268.00,0.0665
1267.00,0.0646
1266.00,0.0625
1265.00,0.0603
1264.00,0.0580
1263.00,0.0558
1262.00,0.0538
1261.00,0.0520
1260.00,0.0505
1259.00,0.0493
1258.00,0.0483
1257.00,0.0477
1256.00,0.0472
1255.00,0.0469
1254.00,0.0466
1253.00,0.0464
1252.00,0.0461
1251.00,0.0457
1250.00,0.0453
1249.00,0.0449
1248.00,0.0444
1247.00,0.0438
1246.00,0.0432
1245.00,0.0426
1244.00,0.0419
1243.00,0.0413
1242.00,0.0406
1241.00,0.0401
1240.00,0.0396
1239.00,0.0392
1238.00,0.0390
1237.00,0.0388
1236.00,0.0387
1235.00,0.0388
1234.00,0.0389
1233.00,0.0390
1232.00,0.0391
1231.00,0.0392
1230.00,0.0393
1229.00,0.0394
1228.00,0.0395
1227.00,0.0395
1226.00,0.0395
1225.00,0.0394
1224.00,0.0393
1223.00,0.0391
1222.00,0.0388
1221.00,0.0385
1220.00,0.0382
1219.00,0.0379
1218.00,0.0376
1217.00,0.0372
1216.00,0.0368
1215.00,0.0363
1214.00,0.0357
1213.00,0.0351
1212.00,0.0345
1211.00,0.0339
1210.00,0.0332
1209.00,0.0326
1208.00,0.0320
1207.00,0.0315
1206.00,0.0311
1205.00,0.0307
1204.00,0.0303
1203.00,0.0299
1202.00,0.0295
1201.00,0.0292
1200.00,0.0288
1199.00,0.0284
1198.00,0.0280
1197.00,0.0277
1196.00,0.0274
1195.00,0.0271
1194.00,0.0270
1193.00,0.0269
1192.00,0.0268
1191.00,0.0267
1190.00,0.0267
1189.00,0.0266
1188.00,0.0265
1187.00,0.0263
1186.00,0.0262
1185.00,0.0260
1184.00,0.0258
1183.00,0.0256
1182.00,0.0255
1181.00,0.0255
1180.00,0.0255
1179.00,0.0256
1178.00,0.0258
1177.00,0.0262
1176.00,0.0266
1175.00,0.0272
1174.00,0.0277
1173.00,0.0282
1172.00,0.0286
1171.00,0.0289
1170.00,0.0289
1169.00,0.0288
1168.00,0.0286
1167.00,0.0282
1166.00,0.0278
1165.00,0.0273
1164.00,0.0268
1163.00,0.0263
1162.00,0.0259
1161.00,0.0256
1160.00,0.0254
1159.00,0.0253
1158.00,0.0255
1157.00,0.0259
1156.00,0.0263
1155.00,0.0267
1154.00,0.0270
1153.00,0.0271
1152.00,0.0268
1151.00,0.0263
1150.00,0.0257
1149.00,0.0248
1148.00,0.0240
1147.00,0.0231
1146.00,0.0223
1145.00,0.0216
1144.00,0.0210
1143.00,0.0204
1142.00,0.0200
1141.00,0.0196
1140.00,0.0194
1139.00,0.0192
1138.00,0.0190
1137.00,0.0189
1136.00,0.0188
1135.00,0.0187
1134.00,0.0186
1133.00,0.0185
1132.00,0.0184
1131.00,0.0182
1130.00,0.0181
1129.00,0.0180
1128.00,0.0179
1127.00,0.0178
1126.00,0.0177
1125.00,0.0176
1124.00,0.0176
1123.00,0.0176
1122.00,0.0176
1121.00,0.0177
1120.00,0.0177
1119.00,0.0178
1118.00,0.0178
1117.00,0.0179
1116.00,0.0179
1115.00,0.0180
1114.00,0.0181
1113.00,0.0182
1112.00,0.0183
1111.00,0.0184
1110.00,0.0184
1109.00,0.0185
1108.00,0.0185
1107.00,0.0185
1106.00,0.0185
1105.00,0.0185
1104.00,0.0186
1103.00,0.0186
1102.00,0.0187
1101.00,0.0188
1100.00,0.0188
1099.00,0.0189
1098.00,0.0190
1097.00,0.0191
1096.00,0.0190
1095.00,0.0190
1094.00,0.0189
1093.00,0.0188
1092.00,0.0186
1091.00,0.0184
1090.00,0.0182
1089.00,0.0181
1088.00,0.0179
1087.00,0.0179
1086.00,0.0178
1085.00,0.0178
1084.00,0.0178
1083.00,0.0179
1082.00,0.0181
1081.00,0.0183
1080.00,0.0186
1079.00,0.0189
1078.00,0.0191
1077.00,0.0192
1076.00,0.0193
1075.00,0.0193
1074.00,0.0192
1073.00,0.0190
1072.00,0.0188
1071.00,0.0186
1070.00,0.0183
1069.00,0.0181
1068.00,0.0179
1067.00,0.0178
1066.00,0.0178
1065.00,0.0180
1064.00,0.0182
1063.00,0.0187
1062.00,0.0194
1061.00,0.0204
1060.00,0.0216
1059.00,0.0230
1058.00,0.0244
1057.00,0.0256
1056.00,0.0264
1055.00,0.0265
1054.00,0.0261
1053.00,0.0252
1052.00,0.0241
1051.00,0.0229
1050.00,0.0218
1049.00,0.0210
1048.00,0.0205
1047.00,0.0202
1046.00,0.0201
1045.00,0.0202
1044.00,0.0205
1043.00,0.0209
1042.00,0.0215
1041.00,0.0223
1040.00,0.0233
1039.00,0.0245
1038.00,0.0258
1037.00,0.0274
1036.00,0.0291
1035.00,0.0308
1034.00,0.0323
1033.00,0.0335
1032.00,0.0343
1031.00,0.0347
1030.00,0.0345
1029.00,0.0339
1028.00,0.0330
1027.00,0.0319
1026.00,0.0307
1025.00,0.0296
1024.00,0.0287
1023.00,0.0280
1022.00,0.0276
1021.00,0.0273
1020.00,0.0271
1019.00,0.0270
1018.00,0.0267
1017.00,0.0264
1016.00,0.0259
1015.00,0.0251
1014.00,0.0243
1013.00,0.0235
1012.00,0.0227
1011.00,0.0221
1010.00,0.0215
1009.00,0.0211
1008.00,0.0209
1007.00,0.0208
1006.00,0.0209
1005.00,0.0211
1004.00,0.0213
1003.00,0.0215
1002.00,0.0216
1001.00,0.0215
1000.00,0.0214
999.00,0.0210
998.00,0.0206
997.00,0.0202
996.00,0.0197
995.00,0.0193
994.00,0.0190
993.00,0.0187
992.00,0.0185
991.00,0.0184
990.00,0.0183
989.00,0.0183
988.00,0.0182
987.00,0.0181
986.00,0.0179
985.00,0.0178
984.00,0.0175
983.00,0.0173
982.00,0.0170
981.00,0.0168
980.00,0.0165
979.00,0.0163
978.00,0.0162
977.00,0.0161
976.00,0.0160
975.00,0.0159
974.00,0.0158
973.00,0.0157
972.00,0.0156
971.00,0.0155
970.00,0.0155
969.00,0.0154
968.00,0.0154
967.00,0.0153
966.00,0.0154
965.00,0.0154
964.00,0.0154
963.00,0.0154
962.00,0.0154
961.00,0.0154
960.00,0.0153
959.00,0.0153
958.00,0.0152
957.00,0.0151
956.00,0.0149
955.00,0.0147
954.00,0.0145
953.00,0.0143
952.00,0.0142
951.00,0.0140
950.00,0.0138
949.00,0.0137
948.00,0.0135
947.00,0.0134
946.00,0.0133
945.00,0.0132
944.00,0.0132
943.00,0.0132
942.00,0.0134
941.00,0.0136
940.00,0.0139
939.00,0.0142
938.00,0.0146
937.00,0.0151
936.00,0.0157
935.00,0.0162
934.00,0.0167
933.00,0.0170
932.00,0.0170
931.00,0.0169
930.00,0.0167
929.00,0.0165
928.00,0.0162
927.00,0.0160
926.00,0.0158
925.00,0.0155
924.00,0.0153
923.00,0.0151
922.00,0.0150
921.00,0.0149
920.00,0.0149
919.00,0.0149
918.00,0.0149
917.00,0.0150
916.00,0.0151
915.00,0.0152
914.00,0.0153
913.00,0.0154
912.00,0.0155
911.00,0.0155
910.00,0.0157
909.00,0.0159
908.00,0.0161
907.00,0.0164
906.00,0.0168
905.00,0.0172
904.00,0.0177
903.00,0.0182
902.00,0.0187
901.00,0.0192
900.00,0.0196
899.00,0.0200
898.00,0.0204
897.00,0.0207
896.00,0.0209
895.00,0.0211
894.00,0.0212
893.00,0.0213
892.00,0.0213
891.00,0.0214
890.00,0.0215
889.00,0.0215
888.00,0.0216
887.00,0.0217
886.00,0.0219
885.00,0.0220
884.00,0.0221
883.00,0.0221
882.00,0.0221
881.00,0.0220
880.00,0.0218
879.00,0.0216
878.00,0.0214
877.00,0.0211
876.00,0.0208
875.00,0.0204
874.00,0.0201
873.00,0.0199
872.00,0.0196
871.00,0.0194
870.00,0.0192
869.00,0.0192
868.00,0.0192
867.00,0.0192
866.00,0.0193
865.00,0.0195
864.00,0.0197
863.00,0.0200
862.00,0.0204
861.00,0.0208
860.00,0.0213
859.00,0.0218
858.00,0.0224
857.00,0.0231
856.00,0.0238
855.00,0.0246
854.00,0.0253
853.00,0.0259
852.00,0.0265
851.00,0.0270
850.00,0.0275
849.00,0.0279
848.00,0.0283
847.00,0.0286
846.00,0.0289
845.00,0.0290
844.00,0.0291
843.00,0.0291
842.00,0.0291
841.00,0.0291
840.00,0.0289
839.00,0.0288
838.00,0.0287
837.00,0.0286
836.00,0.0286
835.00,0.0285
834.00,0.0285
833.00,0.0284
832.00,0.0284
831.00,0.0283
830.00,0.0281
829.00,0.0279
828.00,0.0275
827.00,0.0270
826.00,0.0265
825.00,0.0259
824.00,0.0252
823.00,0.0245
822.00,0.0238
821.00,0.0232
820.00,0.0226
819.00,0.0221
818.00,0.0216
817.00,0.0213
816.00,0.0209
815.00,0.0206
814.00,0.0204
813.00,0.0202
812.00,0.0200
811.00,0.0200
810.00,0.0199
809.00,0.0199
808.00,0.0200
807.00,0.0201
806.00,0.0201
805.00,0.0201
804.00,0.0200
803.00,0.0197
802.00,0.0195
801.00,0.0192
800.00,0.0190
799.00,0.0190
798.00,0.0190
797.00,0.0190
796.00,0.0191
795.00,0.0192
794.00,0.0193
793.00,0.0194
792.00,0.0194
791.00,0.0194
790.00,0.0192
789.00,0.0191
788.00,0.0190
787.00,0.0189
786.00,0.0187
785.00,0.0187
784.00,0.0186
783.00,0.0186
782.00,0.0187
781.00,0.0188
780.00,0.0190
779.00,0.0192
778.00,0.0195
777.00,0.0199
776.00,0.0202
775.00,0.0205
774.00,0.0207
773.00,0.0208
772.00,0.0210
771.00,0.0211
770.00,0.0213
769.00,0.0214
768.00,0.0215
767.00,0.0216
766.00,0.0218
765.00,0.0220
764.00,0.0222
763.00,0.0224
762.00,0.0226
761.00,0.0229
760.00,0.0233
759.00,0.0237
758.00,0.0241
757.00,0.0244
756.00,0.0246
755.00,0.0247
754.00,0.0248
753.00,0.0249
752.00,0.0251
751.00,0.0252
750.00,0.0253
749.00,0.0255
748.00,0.0258
747.00,0.0261
746.00,0.0265
745.00,0.0269
744.00,0.0272
743.00,0.0276
742.00,0.0279
741.00,0.0284
740.00,0.0288
739.00,0.0293
738.00,0.0297
737.00,0.0301
736.00,0.0304
735.00,0.0307
734.00,0.0308
733.00,0.0309
732.00,0.0309
731.00,0.0307
730.00,0.0303
729.00,0.0298
728.00,0.0293
727.00,0.0288
726.00,0.0283
725.00,0.0278
724.00,0.0273
723.00,0.0268
722.00,0.0264
721.00,0.0260
720.00,0.0257
719.00,0.0254
718.00,0.0252
717.00,0.0251
716.00,0.0249
715.00,0.0248
714.00,0.0247
713.00,0.0246
712.00,0.0245
711.00,0.0244
710.00,0.0244
709.00,0.0244
708.00,0.0245
707.00,0.0246
706.00,0.0246
705.00,0.0247
704.00,0.0248
703.00,0.0248
702.00,0.0249
701.00,0.0250
700.00,0.0251
699.00,0.0253
698.00,0.0254
697.00,0.0255
696.00,0.0256
695.00,0.0258
694.00,0.0260
693.00,0.0263
692.00,0.0265
691.00,0.0268
690.00,0.0271
689.00,0.0273
688.00,0.0276
687.00,0.0280
686.00,0.0283
685.00,0.0287
684.00,0.0290
683.00,0.0293
682.00,0.0297
681.00,0.0300
680.00,0.0303
679.00,0.0306
678.00,0.0310
677.00,0.0314
676.00,0.0318
675.00,0.0322
674.00,0.0325
673.00,0.0328
672.00,0.0332
671.00,0.0335
670.00,0.0339
669.00,0.0344
668.00,0.0351
667.00,0.0357
666.00,0.0362
665.00,0.0367
664.00,0.0372
663.00,0.0378
662.00,0.0385
661.00,0.0391
660.00,0.0398
659.00,0.0405
658.00,0.0413
657.00,0.0421
656.00,0.0429
655.00,0.0438
654.00,0.0446
653.00,0.0453
652.00,0.0459
651.00,0.0464
650.00,0.0469
649.00,0.0472
648.00,0.0474
647.00,0.0475
646.00,0.0473
645.00,0.0471
644.00,0.0466
643.00,0.0460
642.00,0.0453
641.00,0.0445
640.00,0.0437
639.00,0.0429
638.00,0.0422
637.00,0.0416
636.00,0.0410
635.00,0.0403
634.00,0.0397
633.00,0.0392
632.00,0.0387
631.00,0.0382
630.00,0.0378
629.00,0.0374
628.00,0.0370
627.00,0.0366
626.00,0.0362
625.00,0.0360
624.00,0.0358
623.00,0.0356
622.00,0.0355
621.00,0.0354
620.00,0.0353
619.00,0.0353
618.00,0.0353
617.00,0.0353
616.00,0.0353
615.00,0.0353
614.00,0.0354
613.00,0.0354
612.00,0.0355
611.00,0.0356
610.00,0.0357
609.00,0.0357
608.00,0.0358
607.00,0.0359
606.00,0.0360
605.00,0.0361
604.00,0.0362
603.00,0.0362
602.00,0.0362
601.00,0.0362
600.00,0.0364
599.00,0.0365
598.00,0.0367
597.00,0.0369
596.00,0.0371
595.00,0.0373
594.00,0.0376
593.00,0.0379
592.00,0.0382
591.00,0.0386
590.00,0.0390
589.00,0.0394
588.00,0.0399
587.00,0.0405
586.00,0.0411
585.00,0.0420
584.00,0.0429
583.00,0.0438
582.00,0.0448
581.00,0.0457
580.00,0.0465
579.00,0.0470
578.00,0.0474
577.00,0.0477
576.00,0.0480
575.00,0.0483
574.00,0.0485
573.00,0.0486
572.00,0.0485
571.00,0.0482
570.00,0.0479
569.00,0.0476
568.00,0.0473
567.00,0.0470
566.00,0.0466
565.00,0.0460
564.00,0.0454
563.00,0.0447
562.00,0.0442
561.00,0.0439
560.00,0.0437
559.00,0.0436
558.00,0.0434
557.00,0.0433
556.00,0.0432
555.00,0.0431
554.00,0.0429
553.00,0.0427
552.00,0.0427
551.00,0.0427
550.00,0.0426
549.00,0.0423
548.00,0.0419
547.00,0.0415
546.00,0.0411
545.00,0.0407
544.00,0.0403
543.00,0.0398
542.00,0.0394
541.00,0.0390
540.00,0.0388
539.00,0.0388
538.00,0.0387
537.00,0.0386
536.00,0.0386
535.00,0.0385
534.00,0.0386
533.00,0.0386
532.00,0.0386
531.00,0.0385
530.00,0.0385
529.00,0.0386
528.00,0.0388
527.00,0.0392
526.00,0.0395
525.00,0.0398
524.00,0.0399
523.00,0.0399
522.00,0.0398
521.00,0.0395
520.00,0.0391
519.00,0.0387
518.00,0.0383
517.00,0.0379
516.00,0.0376
515.00,0.0372
514.00,0.0368
513.00,0.0365
512.00,0.0363
511.00,0.0362
510.00,0.0362
509.00,0.0363
508.00,0.0364
507.00,0.0364
506.00,0.0364
505.00,0.0363
504.00,0.0362
503.00,0.0362
502.00,0.0363
501.00,0.0364
500.00,0.0365
499.00,0.0366
498.00,0.0367
497.00,0.0368
496.00,0.0368
495.00,0.0367
494.00,0.0367
493.00,0.0369
492.00,0.0372
491.00,0.0375
490.00,0.0375
489.00,0.0376
488.00,0.0376
487.00,0.0378
486.00,0.0381
485.00,0.0383
484.00,0.0385
483.00,0.0386
482.00,0.0387
481.00,0.0387
480.00,0.0386
479.00,0.0384
478.00,0.0384
477.00,0.0384
476.00,0.0384
475.00,0.0382
474.00,0.0380
473.00,0.0381
472.00,0.0382
471.00,0.0384
470.00,0.0386
469.00,0.0387
468.00,0.0386
467.00,0.0386
466.00,0.0386
465.00,0.0387
464.00,0.0390
463.00,0.0391
462.00,0.0390
461.00,0.0386
460.00,0.0382
459.00,0.0379
458.00,0.0375
457.00,0.0372
456.00,0.0370
455.00,0.0370
454.00,0.0370
453.00,0.0370
452.00,0.0371
451.00,0.0371
450.00,0.0372
449.00,0.0372
448.00,0.0370
447.00,0.0365
446.00,0.0360
445.00,0.0356
444.00,0.0355
443.00,0.0356
442.00,0.0357
441.00,0.0357
440.00,0.0358
439.00,0.0357
438.00,0.0356
437.00,0.0355
436.00,0.0354
435.00,0.0353
434.00,0.0351
433.00,0.0351
432.00,0.0352
431.00,0.0354
430.00,0.0354
429.00,0.0354
428.00,0.0358
427.00,0.0364
426.00,0.0370
425.00,0.0374
424.00,0.0375
423.00,0.0375
422.00,0.0375
421.00,0.0375
420.00,0.0374
419.00,0.0370
418.00,0.0366
417.00,0.0362
416.00,0.0360
415.00,0.0359
414.00,0.0359
413.00,0.0359
412.00,0.0357
411.00,0.0352
410.00,0.0346
409.00,0.0345
408.00,0.0349
407.00,0.0354
406.00,0.0357
405.00,0.0358
404.00,0.0357
403.00,0.0352
402.00,0.0343
401.00,0.0332
400.00,0.0327
