Created as New Dataset,Sample 866 By YargerLab Date Monday, July 21 2025
cm-1,A
4000.00,0.0042
3999.00,0.0042
3998.00,0.0042
3997.00,0.0042
3996.00,0.0042
3995.00,0.0042
3994.00,0.0042
3993.00,0.0042
3992.00,0.0042
3991.00,0.0042
3990.00,0.0042
3989.00,0.0042
3988.00,0.0041
3987.00,0.0042
3986.00,0.0042
3985.00,0.0042
3984.00,0.0042
3983.00,0.0042
3982.00,0.0042
3981.00,0.0042
3980.00,0.0042
3979.00,0.0042
3978.00,0.0042
3977.00,0.0042
3976.00,0.0042
3975.00,0.0042
3974.00,0.0042
3973.00,0.0042
3972.00,0.0042
3971.00,0.0043
3970.00,0.0043
3969.00,0.0043
3968.00,0.0042
3967.00,0.0042
3966.00,0.0042
3965.00,0.0042
3964.00,0.0042
3963.00,0.0043
3962.00,0.0043
3961.00,0.0043
3960.00,0.0043
3959.00,0.0043
3958.00,0.0043
3957.00,0.0043
3956.00,0.0043
3955.00,0.0043
3954.00,0.0043
3953.00,0.0043
3952.00,0.0043
3951.00,0.0043
3950.00,0.0043
3949.00,0.0043
3948.00,0.0042
3947.00,0.0042
3946.00,0.0042
3945.00,0.0042
3944.00,0.0042
3943.00,0.0042
3942.00,0.0042
3941.00,0.0043
3940.00,0.0043
3939.00,0.0043
3938.00,0.0043
3937.00,0.0043
3936.00,0.0043
3935.00,0.0043
3934.00,0.0043
3933.00,0.0043
3932.00,0.0043
3931.00,0.0043
3930.00,0.0043
3929.00,0.0043
3928.00,0.0043
3927.00,0.0043
3926.00,0.0043
3925.00,0.0043
3924.00,0.0043
3923.00,0.0043
3922.00,0.0043
3921.00,0.0043
3920.00,0.0043
3919.00,0.0043
3918.00,0.0043
3917.00,0.0042
3916.00,0.0042
3915.00,0.0043
3914.00,0.0043
3913.00,0.0043
3912.00,0.0043
3911.00,0.0043
3910.00,0.0043
3909.00,0.0042
3908.00,0.0042
3907.00,0.0042
3906.00,0.0042
3905.00,0.0042
3904.00,0.0042
3903.00,0.0041
3902.00,0.0041
3901.00,0.0041
3900.00,0.0040
3899.00,0.0040
3898.00,0.0041
3897.00,0.0041
3896.00,0.0041
3895.00,0.0041
3894.00,0.0041
3893.00,0.0041
3892.00,0.0041
3891.00,0.0041
3890.00,0.0041
3889.00,0.0041
3888.00,0.0041
3887.00,0.0041
3886.00,0.0041
3885.00,0.0041
3884.00,0.0041
3883.00,0.0040
3882.00,0.0040
3881.00,0.0040
3880.00,0.0040
3879.00,0.0040
3878.00,0.0040
3877.00,0.0040
3876.00,0.0040
3875.00,0.0041
3874.00,0.0041
3873.00,0.0041
3872.00,0.0041
3871.00,0.0040
3870.00,0.0040
3869.00,0.0041
3868.00,0.0041
3867.00,0.0040
3866.00,0.0040
3865.00,0.0040
3864.00,0.0040
3863.00,0.0040
3862.00,0.0040
3861.00,0.0040
3860.00,0.0040
3859.00,0.0041
3858.00,0.0040
3857.00,0.0040
3856.00,0.0040
3855.00,0.0039
3854.00,0.0039
3853.00,0.0040
3852.00,0.0040
3851.00,0.0039
3850.00,0.0039
3849.00,0.0039
3848.00,0.0040
3847.00,0.0040
3846.00,0.0040
3845.00,0.0041
3844.00,0.0041
3843.00,0.0041
3842.00,0.0041
3841.00,0.0041
3840.00,0.0040
3839.00,0.0040
3838.00,0.0040
3837.00,0.0040
3836.00,0.0039
3835.00,0.0039
3834.00,0.0039
3833.00,0.0039
3832.00,0.0040
3831.00,0.0040
3830.00,0.0040
3829.00,0.0040
3828.00,0.0040
3827.00,0.0040
3826.00,0.0040
3825.00,0.0040
3824.00,0.0040
3823.00,0.0039
3822.00,0.0039
3821.00,0.0039
3820.00,0.0039
3819.00,0.0039
3818.00,0.0039
3817.00,0.0039
3816.00,0.0040
3815.00,0.0040
3814.00,0.0040
3813.00,0.0040
3812.00,0.0040
3811.00,0.0040
3810.00,0.0040
3809.00,0.0040
3808.00,0.0040
3807.00,0.0040
3806.00,0.0040
3805.00,0.0039
3804.00,0.0039
3803.00,0.0038
3802.00,0.0039
3801.00,0.0039
3800.00,0.0039
3799.00,0.0039
3798.00,0.0039
3797.00,0.0040
3796.00,0.0040
3795.00,0.0040
3794.00,0.0040
3793.00,0.0040
3792.00,0.0040
3791.00,0.0040
3790.00,0.0040
3789.00,0.0040
3788.00,0.0041
3787.00,0.0041
3786.00,0.0040
3785.00,0.0040
3784.00,0.0040
3783.00,0.0040
3782.00,0.0040
3781.00,0.0040
3780.00,0.0040
3779.00,0.0040
3778.00,0.0040
3777.00,0.0040
3776.00,0.0040
3775.00,0.0040
3774.00,0.0040
3773.00,0.0040
3772.00,0.0040
3771.00,0.0040
3770.00,0.0040
3769.00,0.0040
3768.00,0.0040
3767.00,0.0039
3766.00,0.0039
3765.00,0.0040
3764.00,0.0040
3763.00,0.0040
3762.00,0.0040
3761.00,0.0040
3760.00,0.0040
3759.00,0.0040
3758.00,0.0040
3757.00,0.0039
3756.00,0.0039
3755.00,0.0039
3754.00,0.0039
3753.00,0.0039
3752.00,0.0039
3751.00,0.0039
3750.00,0.0039
3749.00,0.0039
3748.00,0.0039
3747.00,0.0038
3746.00,0.0038
3745.00,0.0038
3744.00,0.0038
3743.00,0.0038
3742.00,0.0037
3741.00,0.0037
3740.00,0.0037
3739.00,0.0037
3738.00,0.0037
3737.00,0.0038
3736.00,0.0038
3735.00,0.0037
3734.00,0.0037
3733.00,0.0037
3732.00,0.0037
3731.00,0.0037
3730.00,0.0037
3729.00,0.0037
3728.00,0.0037
3727.00,0.0037
3726.00,0.0038
3725.00,0.0037
3724.00,0.0037
3723.00,0.0037
3722.00,0.0037
3721.00,0.0037
3720.00,0.0038
3719.00,0.0038
3718.00,0.0038
3717.00,0.0038
3716.00,0.0038
3715.00,0.0038
3714.00,0.0038
3713.00,0.0038
3712.00,0.0038
3711.00,0.0038
3710.00,0.0038
3709.00,0.0037
3708.00,0.0037
3707.00,0.0037
3706.00,0.0037
3705.00,0.0037
3704.00,0.0036
3703.00,0.0036
3702.00,0.0036
3701.00,0.0036
3700.00,0.0036
3699.00,0.0037
3698.00,0.0037
3697.00,0.0037
3696.00,0.0037
3695.00,0.0037
3694.00,0.0037
3693.00,0.0037
3692.00,0.0037
3691.00,0.0037
3690.00,0.0036
3689.00,0.0036
3688.00,0.0036
3687.00,0.0036
3686.00,0.0036
3685.00,0.0037
3684.00,0.0037
3683.00,0.0038
3682.00,0.0038
3681.00,0.0038
3680.00,0.0038
3679.00,0.0038
3678.00,0.0038
3677.00,0.0037
3676.00,0.0037
3675.00,0.0037
3674.00,0.0037
3673.00,0.0037
3672.00,0.0036
3671.00,0.0037
3670.00,0.0037
3669.00,0.0038
3668.00,0.0038
3667.00,0.0038
3666.00,0.0038
3665.00,0.0038
3664.00,0.0038
3663.00,0.0039
3662.00,0.0039
3661.00,0.0039
3660.00,0.0039
3659.00,0.0039
3658.00,0.0038
3657.00,0.0038
3656.00,0.0038
3655.00,0.0038
3654.00,0.0038
3653.00,0.0038
3652.00,0.0037
3651.00,0.0037
3650.00,0.0038
3649.00,0.0038
3648.00,0.0038
3647.00,0.0038
3646.00,0.0038
3645.00,0.0039
3644.00,0.0038
3643.00,0.0038
3642.00,0.0039
3641.00,0.0039
3640.00,0.0039
3639.00,0.0039
3638.00,0.0039
3637.00,0.0039
3636.00,0.0039
3635.00,0.0039
3634.00,0.0039
3633.00,0.0039
3632.00,0.0039
3631.00,0.0039
3630.00,0.0039
3629.00,0.0039
3628.00,0.0039
3627.00,0.0039
3626.00,0.0040
3625.00,0.0040
3624.00,0.0041
3623.00,0.0041
3622.00,0.0041
3621.00,0.0041
3620.00,0.0041
3619.00,0.0041
3618.00,0.0042
3617.00,0.0042
3616.00,0.0042
3615.00,0.0043
3614.00,0.0043
3613.00,0.0043
3612.00,0.0044
3611.00,0.0044
3610.00,0.0044
3609.00,0.0044
3608.00,0.0044
3607.00,0.0044
3606.00,0.0044
3605.00,0.0044
3604.00,0.0045
3603.00,0.0045
3602.00,0.0046
3601.00,0.0046
3600.00,0.0046
3599.00,0.0046
3598.00,0.0047
3597.00,0.0047
3596.00,0.0047
3595.00,0.0047
3594.00,0.0047
3593.00,0.0048
3592.00,0.0048
3591.00,0.0048
3590.00,0.0048
3589.00,0.0049
3588.00,0.0049
3587.00,0.0049
3586.00,0.0050
3585.00,0.0050
3584.00,0.0050
3583.00,0.0051
3582.00,0.0052
3581.00,0.0053
3580.00,0.0053
3579.00,0.0054
3578.00,0.0054
3577.00,0.0054
3576.00,0.0055
3575.00,0.0055
3574.00,0.0056
3573.00,0.0056
3572.00,0.0057
3571.00,0.0057
3570.00,0.0057
3569.00,0.0058
3568.00,0.0058
3567.00,0.0059
3566.00,0.0059
3565.00,0.0060
3564.00,0.0061
3563.00,0.0062
3562.00,0.0064
3561.00,0.0065
3560.00,0.0066
3559.00,0.0067
3558.00,0.0067
3557.00,0.0068
3556.00,0.0069
3555.00,0.0070
3554.00,0.0071
3553.00,0.0072
3552.00,0.0074
3551.00,0.0075
3550.00,0.0077
3549.00,0.0078
3548.00,0.0080
3547.00,0.0082
3546.00,0.0084
3545.00,0.0087
3544.00,0.0090
3543.00,0.0092
3542.00,0.0095
3541.00,0.0098
3540.00,0.0101
3539.00,0.0105
3538.00,0.0110
3537.00,0.0115
3536.00,0.0121
3535.00,0.0128
3534.00,0.0135
3533.00,0.0144
3532.00,0.0153
3531.00,0.0165
3530.00,0.0179
3529.00,0.0195
3528.00,0.0213
3527.00,0.0232
3526.00,0.0252
3525.00,0.0271
3524.00,0.0288
3523.00,0.0304
3522.00,0.0316
3521.00,0.0324
3520.00,0.0328
3519.00,0.0329
3518.00,0.0325
3517.00,0.0319
3516.00,0.0310
3515.00,0.0299
3514.00,0.0287
3513.00,0.0275
3512.00,0.0262
3511.00,0.0250
3510.00,0.0238
3509.00,0.0228
3508.00,0.0218
3507.00,0.0210
3506.00,0.0203
3505.00,0.0197
3504.00,0.0192
3503.00,0.0188
3502.00,0.0184
3501.00,0.0182
3500.00,0.0179
3499.00,0.0178
3498.00,0.0177
3497.00,0.0176
3496.00,0.0176
3495.00,0.0176
3494.00,0.0176
3493.00,0.0177
3492.00,0.0178
3491.00,0.0179
3490.00,0.0180
3489.00,0.0181
3488.00,0.0182
3487.00,0.0184
3486.00,0.0185
3485.00,0.0187
3484.00,0.0189
3483.00,0.0191
3482.00,0.0194
3481.00,0.0196
3480.00,0.0199
3479.00,0.0202
3478.00,0.0204
3477.00,0.0207
3476.00,0.0210
3475.00,0.0213
3474.00,0.0217
3473.00,0.0220
3472.00,0.0223
3471.00,0.0227
3470.00,0.0230
3469.00,0.0234
3468.00,0.0238
3467.00,0.0242
3466.00,0.0246
3465.00,0.0250
3464.00,0.0255
3463.00,0.0259
3462.00,0.0263
3461.00,0.0268
3460.00,0.0272
3459.00,0.0277
3458.00,0.0281
3457.00,0.0286
3456.00,0.0290
3455.00,0.0294
3454.00,0.0299
3453.00,0.0303
3452.00,0.0307
3451.00,0.0311
3450.00,0.0315
3449.00,0.0319
3448.00,0.0323
3447.00,0.0327
3446.00,0.0331
3445.00,0.0335
3444.00,0.0339
3443.00,0.0343
3442.00,0.0347
3441.00,0.0351
3440.00,0.0355
3439.00,0.0359
3438.00,0.0363
3437.00,0.0367
3436.00,0.0371
3435.00,0.0375
3434.00,0.0379
3433.00,0.0382
3432.00,0.0386
3431.00,0.0389
3430.00,0.0393
3429.00,0.0396
3428.00,0.0400
3427.00,0.0404
3426.00,0.0408
3425.00,0.0412
3424.00,0.0417
3423.00,0.0421
3422.00,0.0427
3421.00,0.0433
3420.00,0.0439
3419.00,0.0445
3418.00,0.0451
3417.00,0.0458
3416.00,0.0464
3415.00,0.0471
3414.00,0.0478
3413.00,0.0484
3412.00,0.0489
3411.00,0.0494
3410.00,0.0497
3409.00,0.0500
3408.00,0.0501
3407.00,0.0501
3406.00,0.0499
3405.00,0.0496
3404.00,0.0491
3403.00,0.0485
3402.00,0.0477
3401.00,0.0467
3400.00,0.0456
3399.00,0.0445
3398.00,0.0432
3397.00,0.0420
3396.00,0.0407
3395.00,0.0395
3394.00,0.0382
3393.00,0.0370
3392.00,0.0359
3391.00,0.0347
3390.00,0.0336
3389.00,0.0326
3388.00,0.0317
3387.00,0.0308
3386.00,0.0300
3385.00,0.0292
3384.00,0.0285
3383.00,0.0278
3382.00,0.0271
3381.00,0.0265
3380.00,0.0259
3379.00,0.0254
3378.00,0.0248
3377.00,0.0243
3376.00,0.0238
3375.00,0.0233
3374.00,0.0229
3373.00,0.0225
3372.00,0.0221
3371.00,0.0217
3370.00,0.0214
3369.00,0.0210
3368.00,0.0206
3367.00,0.0202
3366.00,0.0199
3365.00,0.0196
3364.00,0.0193
3363.00,0.0190
3362.00,0.0188
3361.00,0.0185
3360.00,0.0182
3359.00,0.0179
3358.00,0.0177
3357.00,0.0174
3356.00,0.0172
3355.00,0.0169
3354.00,0.0167
3353.00,0.0164
3352.00,0.0162
3351.00,0.0160
3350.00,0.0158
3349.00,0.0156
3348.00,0.0155
3347.00,0.0153
3346.00,0.0151
3345.00,0.0149
3344.00,0.0147
3343.00,0.0146
3342.00,0.0144
3341.00,0.0142
3340.00,0.0141
3339.00,0.0139
3338.00,0.0138
3337.00,0.0137
3336.00,0.0136
3335.00,0.0135
3334.00,0.0134
3333.00,0.0133
3332.00,0.0132
3331.00,0.0131
3330.00,0.0129
3329.00,0.0128
3328.00,0.0127
3327.00,0.0125
3326.00,0.0124
3325.00,0.0123
3324.00,0.0122
3323.00,0.0122
3322.00,0.0121
3321.00,0.0121
3320.00,0.0120
3319.00,0.0119
3318.00,0.0119
3317.00,0.0118
3316.00,0.0117
3315.00,0.0116
3314.00,0.0115
3313.00,0.0114
3312.00,0.0113
3311.00,0.0112
3310.00,0.0111
3309.00,0.0109
3308.00,0.0109
3307.00,0.0108
3306.00,0.0107
3305.00,0.0107
3304.00,0.0107
3303.00,0.0106
3302.00,0.0106
3301.00,0.0106
3300.00,0.0106
3299.00,0.0105
3298.00,0.0104
3297.00,0.0103
3296.00,0.0102
3295.00,0.0101
3294.00,0.0101
3293.00,0.0100
3292.00,0.0100
3291.00,0.0099
3290.00,0.0099
3289.00,0.0099
3288.00,0.0099
3287.00,0.0099
3286.00,0.0098
3285.00,0.0097
3284.00,0.0097
3283.00,0.0096
3282.00,0.0096
3281.00,0.0095
3280.00,0.0095
3279.00,0.0094
3278.00,0.0094
3277.00,0.0093
3276.00,0.0092
3275.00,0.0091
3274.00,0.0090
3273.00,0.0090
3272.00,0.0089
3271.00,0.0089
3270.00,0.0089
3269.00,0.0090
3268.00,0.0090
3267.00,0.0091
3266.00,0.0091
3265.00,0.0090
3264.00,0.0090
3263.00,0.0090
3262.00,0.0090
3261.00,0.0089
3260.00,0.0089
3259.00,0.0088
3258.00,0.0087
3257.00,0.0087
3256.00,0.0087
3255.00,0.0087
3254.00,0.0087
3253.00,0.0087
3252.00,0.0087
3251.00,0.0086
3250.00,0.0086
3249.00,0.0085
3248.00,0.0084
3247.00,0.0084
3246.00,0.0084
3245.00,0.0084
3244.00,0.0084
3243.00,0.0084
3242.00,0.0084
3241.00,0.0083
3240.00,0.0083
3239.00,0.0083
3238.00,0.0082
3237.00,0.0081
3236.00,0.0080
3235.00,0.0079
3234.00,0.0079
3233.00,0.0079
3232.00,0.0079
3231.00,0.0079
3230.00,0.0079
3229.00,0.0079
3228.00,0.0079
3227.00,0.0078
3226.00,0.0078
3225.00,0.0078
3224.00,0.0078
3223.00,0.0078
3222.00,0.0077
3221.00,0.0077
3220.00,0.0077
3219.00,0.0076
3218.00,0.0076
3217.00,0.0076
3216.00,0.0076
3215.00,0.0075
3214.00,0.0075
3213.00,0.0075
3212.00,0.0075
3211.00,0.0075
3210.00,0.0075
3209.00,0.0075
3208.00,0.0075
3207.00,0.0074
3206.00,0.0074
3205.00,0.0074
3204.00,0.0074
3203.00,0.0074
3202.00,0.0074
3201.00,0.0074
3200.00,0.0074
3199.00,0.0074
3198.00,0.0074
3197.00,0.0073
3196.00,0.0073
3195.00,0.0072
3194.00,0.0072
3193.00,0.0071
3192.00,0.0071
3191.00,0.0071
3190.00,0.0071
3189.00,0.0071
3188.00,0.0071
3187.00,0.0071
3186.00,0.0071
3185.00,0.0071
3184.00,0.0071
3183.00,0.0071
3182.00,0.0071
3181.00,0.0071
3180.00,0.0071
3179.00,0.0071
3178.00,0.0072
3177.00,0.0072
3176.00,0.0072
3175.00,0.0072
3174.00,0.0071
3173.00,0.0071
3172.00,0.0071
3171.00,0.0071
3170.00,0.0072
3169.00,0.0072
3168.00,0.0072
3167.00,0.0072
3166.00,0.0072
3165.00,0.0072
3164.00,0.0072
3163.00,0.0072
3162.00,0.0071
3161.00,0.0071
3160.00,0.0071
3159.00,0.0071
3158.00,0.0071
3157.00,0.0070
3156.00,0.0070
3155.00,0.0069
3154.00,0.0068
3153.00,0.0067
3152.00,0.0067
3151.00,0.0067
3150.00,0.0067
3149.00,0.0067
3148.00,0.0067
3147.00,0.0067
3146.00,0.0067
3145.00,0.0067
3144.00,0.0067
3143.00,0.0066
3142.00,0.0066
3141.00,0.0066
3140.00,0.0066
3139.00,0.0065
3138.00,0.0065
3137.00,0.0065
3136.00,0.0065
3135.00,0.0065
3134.00,0.0065
3133.00,0.0065
3132.00,0.0065
3131.00,0.0065
3130.00,0.0064
3129.00,0.0064
3128.00,0.0064
3127.00,0.0064
3126.00,0.0064
3125.00,0.0064
3124.00,0.0064
3123.00,0.0064
3122.00,0.0064
3121.00,0.0063
3120.00,0.0063
3119.00,0.0063
3118.00,0.0063
3117.00,0.0063
3116.00,0.0063
3115.00,0.0063
3114.00,0.0063
3113.00,0.0063
3112.00,0.0063
3111.00,0.0062
3110.00,0.0062
3109.00,0.0062
3108.00,0.0062
3107.00,0.0062
3106.00,0.0063
3105.00,0.0063
3104.00,0.0063
3103.00,0.0063
3102.00,0.0063
3101.00,0.0063
3100.00,0.0063
3099.00,0.0063
3098.00,0.0063
3097.00,0.0063
3096.00,0.0064
3095.00,0.0064
3094.00,0.0064
3093.00,0.0064
3092.00,0.0064
3091.00,0.0065
3090.00,0.0065
3089.00,0.0066
3088.00,0.0067
3087.00,0.0068
3086.00,0.0069
3085.00,0.0070
3084.00,0.0072
3083.00,0.0074
3082.00,0.0078
3081.00,0.0082
3080.00,0.0088
3079.00,0.0095
3078.00,0.0103
3077.00,0.0111
3076.00,0.0117
3075.00,0.0120
3074.00,0.0120
3073.00,0.0116
3072.00,0.0111
3071.00,0.0104
3070.00,0.0096
3069.00,0.0090
3068.00,0.0084
3067.00,0.0080
3066.00,0.0077
3065.00,0.0075
3064.00,0.0073
3063.00,0.0072
3062.00,0.0071
3061.00,0.0070
3060.00,0.0069
3059.00,0.0068
3058.00,0.0068
3057.00,0.0068
3056.00,0.0067
3055.00,0.0067
3054.00,0.0067
3053.00,0.0067
3052.00,0.0067
3051.00,0.0067
3050.00,0.0067
3049.00,0.0068
3048.00,0.0068
3047.00,0.0069
3046.00,0.0070
3045.00,0.0070
3044.00,0.0071
3043.00,0.0072
3042.00,0.0073
3041.00,0.0074
3040.00,0.0075
3039.00,0.0076
3038.00,0.0077
3037.00,0.0078
3036.00,0.0079
3035.00,0.0080
3034.00,0.0081
3033.00,0.0082
3032.00,0.0082
3031.00,0.0082
3030.00,0.0081
3029.00,0.0080
3028.00,0.0079
3027.00,0.0077
3026.00,0.0076
3025.00,0.0075
3024.00,0.0075
3023.00,0.0074
3022.00,0.0073
3021.00,0.0073
3020.00,0.0073
3019.00,0.0073
3018.00,0.0073
3017.00,0.0073
3016.00,0.0074
3015.00,0.0074
3014.00,0.0075
3013.00,0.0076
3012.00,0.0077
3011.00,0.0078
3010.00,0.0079
3009.00,0.0080
3008.00,0.0082
3007.00,0.0083
3006.00,0.0084
3005.00,0.0085
3004.00,0.0086
3003.00,0.0087
3002.00,0.0089
3001.00,0.0090
3000.00,0.0092
2999.00,0.0093
2998.00,0.0095
2997.00,0.0097
2996.00,0.0099
2995.00,0.0102
2994.00,0.0104
2993.00,0.0107
2992.00,0.0110
2991.00,0.0113
2990.00,0.0117
2989.00,0.0120
2988.00,0.0122
2987.00,0.0124
2986.00,0.0127
2985.00,0.0129
2984.00,0.0132
2983.00,0.0136
2982.00,0.0140
2981.00,0.0145
2980.00,0.0152
2979.00,0.0159
2978.00,0.0167
2977.00,0.0177
2976.00,0.0188
2975.00,0.0201
2974.00,0.0215
2973.00,0.0230
2972.00,0.0246
2971.00,0.0262
2970.00,0.0278
2969.00,0.0292
2968.00,0.0305
2967.00,0.0316
2966.00,0.0323
2965.00,0.0327
2964.00,0.0329
2963.00,0.0330
2962.00,0.0328
2961.00,0.0326
2960.00,0.0323
2959.00,0.0318
2958.00,0.0312
2957.00,0.0304
2956.00,0.0297
2955.00,0.0289
2954.00,0.0282
2953.00,0.0276
2952.00,0.0271
2951.00,0.0268
2950.00,0.0268
2949.00,0.0271
2948.00,0.0276
2947.00,0.0285
2946.00,0.0297
2945.00,0.0310
2944.00,0.0324
2943.00,0.0337
2942.00,0.0350
2941.00,0.0361
2940.00,0.0372
2939.00,0.0383
2938.00,0.0395
2937.00,0.0407
2936.00,0.0421
2935.00,0.0436
2934.00,0.0452
2933.00,0.0469
2932.00,0.0485
2931.00,0.0502
2930.00,0.0518
2929.00,0.0534
2928.00,0.0548
2927.00,0.0560
2926.00,0.0568
2925.00,0.0573
2924.00,0.0574
2923.00,0.0572
2922.00,0.0569
2921.00,0.0564
2920.00,0.0560
2919.00,0.0555
2918.00,0.0551
2917.00,0.0546
2916.00,0.0540
2915.00,0.0533
2914.00,0.0524
2913.00,0.0513
2912.00,0.0500
2911.00,0.0485
2910.00,0.0470
2909.00,0.0455
2908.00,0.0440
2907.00,0.0425
2906.00,0.0411
2905.00,0.0399
2904.00,0.0388
2903.00,0.0379
2902.00,0.0370
2901.00,0.0363
2900.00,0.0355
2899.00,0.0346
2898.00,0.0338
2897.00,0.0328
2896.00,0.0319
2895.00,0.0310
2894.00,0.0301
2893.00,0.0294
2892.00,0.0287
2891.00,0.0282
2890.00,0.0278
2889.00,0.0275
2888.00,0.0272
2887.00,0.0270
2886.00,0.0269
2885.00,0.0267
2884.00,0.0267
2883.00,0.0267
2882.00,0.0267
2881.00,0.0268
2880.00,0.0269
2879.00,0.0271
2878.00,0.0274
2877.00,0.0277
2876.00,0.0281
2875.00,0.0285
2874.00,0.0289
2873.00,0.0292
2872.00,0.0294
2871.00,0.0295
2870.00,0.0294
2869.00,0.0291
2868.00,0.0288
2867.00,0.0286
2866.00,0.0286
2865.00,0.0289
2864.00,0.0296
2863.00,0.0307
2862.00,0.0322
2861.00,0.0340
2860.00,0.0362
2859.00,0.0386
2858.00,0.0408
2857.00,0.0424
2856.00,0.0432
2855.00,0.0431
2854.00,0.0419
2853.00,0.0401
2852.00,0.0377
2851.00,0.0352
2850.00,0.0326
2849.00,0.0302
2848.00,0.0279
2847.00,0.0259
2846.00,0.0241
2845.00,0.0225
2844.00,0.0212
2843.00,0.0201
2842.00,0.0192
2841.00,0.0185
2840.00,0.0179
2839.00,0.0176
2838.00,0.0175
2837.00,0.0176
2836.00,0.0180
2835.00,0.0186
2834.00,0.0196
2833.00,0.0208
2832.00,0.0221
2831.00,0.0232
2830.00,0.0240
2829.00,0.0240
2828.00,0.0234
2827.00,0.0222
2826.00,0.0206
2825.00,0.0189
2824.00,0.0174
2823.00,0.0160
2822.00,0.0149
2821.00,0.0140
2820.00,0.0133
2819.00,0.0127
2818.00,0.0122
2817.00,0.0118
2816.00,0.0114
2815.00,0.0111
2814.00,0.0109
2813.00,0.0107
2812.00,0.0105
2811.00,0.0103
2810.00,0.0101
2809.00,0.0100
2808.00,0.0098
2807.00,0.0097
2806.00,0.0095
2805.00,0.0094
2804.00,0.0093
2803.00,0.0092
2802.00,0.0091
2801.00,0.0090
2800.00,0.0089
2799.00,0.0088
2798.00,0.0087
2797.00,0.0086
2796.00,0.0085
2795.00,0.0084
2794.00,0.0084
2793.00,0.0083
2792.00,0.0082
2791.00,0.0082
2790.00,0.0081
2789.00,0.0080
2788.00,0.0080
2787.00,0.0079
2786.00,0.0079
2785.00,0.0078
2784.00,0.0078
2783.00,0.0078
2782.00,0.0077
2781.00,0.0076
2780.00,0.0076
2779.00,0.0075
2778.00,0.0075
2777.00,0.0074
2776.00,0.0074
2775.00,0.0074
2774.00,0.0073
2773.00,0.0073
2772.00,0.0073
2771.00,0.0072
2770.00,0.0072
2769.00,0.0072
2768.00,0.0071
2767.00,0.0071
2766.00,0.0071
2765.00,0.0070
2764.00,0.0070
2763.00,0.0070
2762.00,0.0070
2761.00,0.0069
2760.00,0.0069
2759.00,0.0069
2758.00,0.0069
2757.00,0.0069
2756.00,0.0069
2755.00,0.0068
2754.00,0.0068
2753.00,0.0068
2752.00,0.0068
2751.00,0.0068
2750.00,0.0068
2749.00,0.0068
2748.00,0.0068
2747.00,0.0069
2746.00,0.0069
2745.00,0.0069
2744.00,0.0069
2743.00,0.0070
2742.00,0.0070
2741.00,0.0070
2740.00,0.0070
2739.00,0.0071
2738.00,0.0071
2737.00,0.0072
2736.00,0.0073
2735.00,0.0073
2734.00,0.0075
2733.00,0.0076
2732.00,0.0077
2731.00,0.0079
2730.00,0.0080
2729.00,0.0080
2728.00,0.0080
2727.00,0.0079
2726.00,0.0078
2725.00,0.0077
2724.00,0.0076
2723.00,0.0075
2722.00,0.0073
2721.00,0.0072
2720.00,0.0072
2719.00,0.0071
2718.00,0.0070
2717.00,0.0070
2716.00,0.0069
2715.00,0.0068
2714.00,0.0068
2713.00,0.0067
2712.00,0.0067
2711.00,0.0066
2710.00,0.0066
2709.00,0.0066
2708.00,0.0066
2707.00,0.0066
2706.00,0.0065
2705.00,0.0065
2704.00,0.0064
2703.00,0.0064
2702.00,0.0064
2701.00,0.0064
2700.00,0.0064
2699.00,0.0064
2698.00,0.0064
2697.00,0.0064
2696.00,0.0064
2695.00,0.0064
2694.00,0.0064
2693.00,0.0064
2692.00,0.0064
2691.00,0.0064
2690.00,0.0064
2689.00,0.0064
2688.00,0.0064
2687.00,0.0064
2686.00,0.0064
2685.00,0.0064
2684.00,0.0064
2683.00,0.0065
2682.00,0.0065
2681.00,0.0065
2680.00,0.0065
2679.00,0.0066
2678.00,0.0066
2677.00,0.0066
2676.00,0.0066
2675.00,0.0067
2674.00,0.0067
2673.00,0.0067
2672.00,0.0067
2671.00,0.0067
2670.00,0.0068
2669.00,0.0068
2668.00,0.0068
2667.00,0.0068
2666.00,0.0069
2665.00,0.0069
2664.00,0.0069
2663.00,0.0070
2662.00,0.0070
2661.00,0.0070
2660.00,0.0070
2659.00,0.0070
2658.00,0.0070
2657.00,0.0070
2656.00,0.0070
2655.00,0.0070
2654.00,0.0070
2653.00,0.0070
2652.00,0.0070
2651.00,0.0070
2650.00,0.0069
2649.00,0.0069
2648.00,0.0069
2647.00,0.0068
2646.00,0.0068
2645.00,0.0068
2644.00,0.0068
2643.00,0.0068
2642.00,0.0067
2641.00,0.0067
2640.00,0.0067
2639.00,0.0067
2638.00,0.0067
2637.00,0.0067
2636.00,0.0067
2635.00,0.0067
2634.00,0.0067
2633.00,0.0067
2632.00,0.0067
2631.00,0.0067
2630.00,0.0067
2629.00,0.0067
2628.00,0.0067
2627.00,0.0066
2626.00,0.0066
2625.00,0.0066
2624.00,0.0066
2623.00,0.0066
2622.00,0.0066
2621.00,0.0066
2620.00,0.0066
2619.00,0.0066
2618.00,0.0066
2617.00,0.0065
2616.00,0.0065
2615.00,0.0065
2614.00,0.0065
2613.00,0.0065
2612.00,0.0065
2611.00,0.0065
2610.00,0.0065
2609.00,0.0065
2608.00,0.0065
2607.00,0.0065
2606.00,0.0064
2605.00,0.0064
2604.00,0.0064
2603.00,0.0064
2602.00,0.0064
2601.00,0.0064
2600.00,0.0064
2599.00,0.0064
2598.00,0.0064
2597.00,0.0063
2596.00,0.0063
2595.00,0.0063
2594.00,0.0063
2593.00,0.0063
2592.00,0.0063
2591.00,0.0063
2590.00,0.0063
2589.00,0.0063
2588.00,0.0063
2587.00,0.0062
2586.00,0.0062
2585.00,0.0062
2584.00,0.0062
2583.00,0.0062
2582.00,0.0062
2581.00,0.0062
2580.00,0.0062
2579.00,0.0062
2578.00,0.0062
2577.00,0.0062
2576.00,0.0061
2575.00,0.0061
2574.00,0.0061
2573.00,0.0061
2572.00,0.0061
2571.00,0.0061
2570.00,0.0061
2569.00,0.0061
2568.00,0.0061
2567.00,0.0061
2566.00,0.0061
2565.00,0.0061
2564.00,0.0061
2563.00,0.0061
2562.00,0.0061
2561.00,0.0061
2560.00,0.0061
2559.00,0.0061
2558.00,0.0061
2557.00,0.0060
2556.00,0.0060
2555.00,0.0060
2554.00,0.0060
2553.00,0.0060
2552.00,0.0060
2551.00,0.0060
2550.00,0.0060
2549.00,0.0060
2548.00,0.0060
2547.00,0.0060
2546.00,0.0060
2545.00,0.0059
2544.00,0.0059
2543.00,0.0059
2542.00,0.0059
2541.00,0.0058
2540.00,0.0058
2539.00,0.0058
2538.00,0.0059
2537.00,0.0059
2536.00,0.0059
2535.00,0.0059
2534.00,0.0059
2533.00,0.0059
2532.00,0.0059
2531.00,0.0059
2530.00,0.0059
2529.00,0.0059
2528.00,0.0059
2527.00,0.0059
2526.00,0.0059
2525.00,0.0058
2524.00,0.0058
2523.00,0.0058
2522.00,0.0058
2521.00,0.0058
2520.00,0.0058
2519.00,0.0058
2518.00,0.0058
2517.00,0.0058
2516.00,0.0058
2515.00,0.0057
2514.00,0.0057
2513.00,0.0057
2512.00,0.0058
2511.00,0.0058
2510.00,0.0058
2509.00,0.0058
2508.00,0.0058
2507.00,0.0059
2506.00,0.0058
2505.00,0.0058
2504.00,0.0058
2503.00,0.0058
2502.00,0.0058
2501.00,0.0058
2500.00,0.0057
2499.00,0.0057
2498.00,0.0057
2497.00,0.0057
2496.00,0.0057
2495.00,0.0057
2494.00,0.0057
2493.00,0.0057
2492.00,0.0057
2491.00,0.0058
2490.00,0.0058
2489.00,0.0058
2488.00,0.0058
2487.00,0.0058
2486.00,0.0058
2485.00,0.0058
2484.00,0.0058
2483.00,0.0058
2482.00,0.0058
2481.00,0.0058
2480.00,0.0058
2479.00,0.0058
2478.00,0.0058
2477.00,0.0058
2476.00,0.0059
2475.00,0.0059
2474.00,0.0059
2473.00,0.0058
2472.00,0.0058
2471.00,0.0058
2470.00,0.0058
2469.00,0.0058
2468.00,0.0058
2467.00,0.0058
2466.00,0.0058
2465.00,0.0058
2464.00,0.0058
2463.00,0.0058
2462.00,0.0059
2461.00,0.0059
2460.00,0.0059
2459.00,0.0059
2458.00,0.0060
2457.00,0.0060
2456.00,0.0060
2455.00,0.0060
2454.00,0.0060
2453.00,0.0060
2452.00,0.0060
2451.00,0.0061
2450.00,0.0060
2449.00,0.0060
2448.00,0.0060
2447.00,0.0059
2446.00,0.0059
2445.00,0.0058
2444.00,0.0058
2443.00,0.0058
2442.00,0.0057
2441.00,0.0057
2440.00,0.0056
2439.00,0.0056
2438.00,0.0055
2437.00,0.0055
2436.00,0.0054
2435.00,0.0054
2434.00,0.0054
2433.00,0.0053
2432.00,0.0053
2431.00,0.0053
2430.00,0.0053
2429.00,0.0053
2428.00,0.0053
2427.00,0.0053
2426.00,0.0053
2425.00,0.0053
2424.00,0.0053
2423.00,0.0052
2422.00,0.0052
2421.00,0.0051
2420.00,0.0051
2419.00,0.0051
2418.00,0.0051
2417.00,0.0051
2416.00,0.0051
2415.00,0.0051
2414.00,0.0051
2413.00,0.0051
2412.00,0.0051
2411.00,0.0051
2410.00,0.0051
2409.00,0.0050
2408.00,0.0050
2407.00,0.0049
2406.00,0.0049
2405.00,0.0049
2404.00,0.0049
2403.00,0.0049
2402.00,0.0050
2401.00,0.0050
2400.00,0.0050
2399.00,0.0050
2398.00,0.0049
2397.00,0.0049
2396.00,0.0049
2395.00,0.0049
2394.00,0.0049
2393.00,0.0049
2392.00,0.0049
2391.00,0.0049
2390.00,0.0049
2389.00,0.0048
2388.00,0.0048
2387.00,0.0047
2386.00,0.0046
2385.00,0.0045
2384.00,0.0044
2383.00,0.0043
2382.00,0.0042
2381.00,0.0042
2380.00,0.0041
2379.00,0.0042
2378.00,0.0042
2377.00,0.0043
2376.00,0.0044
2375.00,0.0045
2374.00,0.0045
2373.00,0.0045
2372.00,0.0045
2371.00,0.0045
2370.00,0.0045
2369.00,0.0044
2368.00,0.0043
2367.00,0.0043
2366.00,0.0043
2365.00,0.0043
2364.00,0.0044
2363.00,0.0044
2362.00,0.0045
2361.00,0.0045
2360.00,0.0045
2359.00,0.0045
2358.00,0.0046
2357.00,0.0046
2356.00,0.0047
2355.00,0.0048
2354.00,0.0048
2353.00,0.0047
2352.00,0.0046
2351.00,0.0046
2350.00,0.0045
2349.00,0.0045
2348.00,0.0046
2347.00,0.0047
2346.00,0.0048
2345.00,0.0048
2344.00,0.0048
2343.00,0.0047
2342.00,0.0048
2341.00,0.0048
2340.00,0.0050
2339.00,0.0051
2338.00,0.0051
2337.00,0.0051
2336.00,0.0050
2335.00,0.0050
2334.00,0.0050
2333.00,0.0050
2332.00,0.0050
2331.00,0.0049
2330.00,0.0049
2329.00,0.0050
2328.00,0.0052
2327.00,0.0056
2326.00,0.0059
2325.00,0.0060
2324.00,0.0060
2323.00,0.0058
2322.00,0.0056
2321.00,0.0054
2320.00,0.0052
2319.00,0.0051
2318.00,0.0051
2317.00,0.0051
2316.00,0.0051
2315.00,0.0050
2314.00,0.0050
2313.00,0.0049
2312.00,0.0048
2311.00,0.0047
2310.00,0.0046
2309.00,0.0046
2308.00,0.0046
2307.00,0.0047
2306.00,0.0047
2305.00,0.0047
2304.00,0.0048
2303.00,0.0047
2302.00,0.0047
2301.00,0.0047
2300.00,0.0048
2299.00,0.0049
2298.00,0.0049
2297.00,0.0050
2296.00,0.0051
2295.00,0.0052
2294.00,0.0053
2293.00,0.0054
2292.00,0.0055
2291.00,0.0056
2290.00,0.0056
2289.00,0.0057
2288.00,0.0058
2287.00,0.0058
2286.00,0.0058
2285.00,0.0058
2284.00,0.0057
2283.00,0.0056
2282.00,0.0056
2281.00,0.0055
2280.00,0.0055
2279.00,0.0055
2278.00,0.0055
2277.00,0.0055
2276.00,0.0054
2275.00,0.0053
2274.00,0.0053
2273.00,0.0052
2272.00,0.0052
2271.00,0.0052
2270.00,0.0051
2269.00,0.0051
2268.00,0.0050
2267.00,0.0050
2266.00,0.0049
2265.00,0.0050
2264.00,0.0050
2263.00,0.0050
2262.00,0.0050
2261.00,0.0051
2260.00,0.0051
2259.00,0.0051
2258.00,0.0051
2257.00,0.0050
2256.00,0.0049
2255.00,0.0048
2254.00,0.0048
2253.00,0.0048
2252.00,0.0048
2251.00,0.0048
2250.00,0.0049
2249.00,0.0049
2248.00,0.0049
2247.00,0.0050
2246.00,0.0051
2245.00,0.0051
2244.00,0.0051
2243.00,0.0051
2242.00,0.0051
2241.00,0.0051
2240.00,0.0052
2239.00,0.0051
2238.00,0.0051
2237.00,0.0051
2236.00,0.0051
2235.00,0.0050
2234.00,0.0050
2233.00,0.0050
2232.00,0.0050
2231.00,0.0050
2230.00,0.0050
2229.00,0.0050
2228.00,0.0050
2227.00,0.0050
2226.00,0.0049
2225.00,0.0049
2224.00,0.0049
2223.00,0.0049
2222.00,0.0049
2221.00,0.0050
2220.00,0.0050
2219.00,0.0050
2218.00,0.0049
2217.00,0.0049
2216.00,0.0048
2215.00,0.0047
2214.00,0.0046
2213.00,0.0047
2212.00,0.0047
2211.00,0.0047
2210.00,0.0048
2209.00,0.0048
2208.00,0.0048
2207.00,0.0049
2206.00,0.0050
2205.00,0.0051
2204.00,0.0051
2203.00,0.0050
2202.00,0.0048
2201.00,0.0048
2200.00,0.0049
2199.00,0.0050
2198.00,0.0050
2197.00,0.0050
2196.00,0.0050
2195.00,0.0050
2194.00,0.0050
2193.00,0.0050
2192.00,0.0050
2191.00,0.0049
2190.00,0.0049
2189.00,0.0050
2188.00,0.0050
2187.00,0.0051
2186.00,0.0051
2185.00,0.0050
2184.00,0.0048
2183.00,0.0047
2182.00,0.0046
2181.00,0.0047
2180.00,0.0047
2179.00,0.0047
2178.00,0.0046
2177.00,0.0044
2176.00,0.0043
2175.00,0.0043
2174.00,0.0043
2173.00,0.0045
2172.00,0.0047
2171.00,0.0049
2170.00,0.0051
2169.00,0.0053
2168.00,0.0055
2167.00,0.0057
2166.00,0.0059
2165.00,0.0062
2164.00,0.0064
2163.00,0.0063
2162.00,0.0057
2161.00,0.0045
2160.00,0.0031
2159.00,0.0020
2158.00,0.0014
2157.00,0.0014
2156.00,0.0017
2155.00,0.0021
2154.00,0.0023
2153.00,0.0026
2152.00,0.0028
2151.00,0.0029
2150.00,0.0030
2149.00,0.0029
2148.00,0.0028
2147.00,0.0028
2146.00,0.0028
2145.00,0.0029
2144.00,0.0029
2143.00,0.0030
2142.00,0.0029
2141.00,0.0030
2140.00,0.0030
2139.00,0.0029
2138.00,0.0028
2137.00,0.0026
2136.00,0.0025
2135.00,0.0024
2134.00,0.0024
2133.00,0.0025
2132.00,0.0027
2131.00,0.0029
2130.00,0.0031
2129.00,0.0032
2128.00,0.0033
2127.00,0.0035
2126.00,0.0035
2125.00,0.0036
2124.00,0.0037
2123.00,0.0038
2122.00,0.0039
2121.00,0.0040
2120.00,0.0042
2119.00,0.0043
2118.00,0.0043
2117.00,0.0044
2116.00,0.0045
2115.00,0.0046
2114.00,0.0045
2113.00,0.0045
2112.00,0.0044
2111.00,0.0043
2110.00,0.0042
2109.00,0.0041
2108.00,0.0041
2107.00,0.0041
2106.00,0.0041
2105.00,0.0041
2104.00,0.0041
2103.00,0.0041
2102.00,0.0041
2101.00,0.0041
2100.00,0.0041
2099.00,0.0041
2098.00,0.0039
2097.00,0.0038
2096.00,0.0037
2095.00,0.0036
2094.00,0.0037
2093.00,0.0038
2092.00,0.0039
2091.00,0.0040
2090.00,0.0042
2089.00,0.0043
2088.00,0.0045
2087.00,0.0045
2086.00,0.0045
2085.00,0.0045
2084.00,0.0045
2083.00,0.0044
2082.00,0.0044
2081.00,0.0045
2080.00,0.0045
2079.00,0.0044
2078.00,0.0044
2077.00,0.0043
2076.00,0.0043
2075.00,0.0042
2074.00,0.0040
2073.00,0.0039
2072.00,0.0039
2071.00,0.0039
2070.00,0.0039
2069.00,0.0040
2068.00,0.0040
2067.00,0.0039
2066.00,0.0038
2065.00,0.0037
2064.00,0.0036
2063.00,0.0036
2062.00,0.0036
2061.00,0.0037
2060.00,0.0037
2059.00,0.0038
2058.00,0.0039
2057.00,0.0040
2056.00,0.0040
2055.00,0.0041
2054.00,0.0043
2053.00,0.0046
2052.00,0.0048
2051.00,0.0048
2050.00,0.0044
2049.00,0.0041
2048.00,0.0039
2047.00,0.0037
2046.00,0.0037
2045.00,0.0037
2044.00,0.0037
2043.00,0.0037
2042.00,0.0036
2041.00,0.0035
2040.00,0.0034
2039.00,0.0033
2038.00,0.0033
2037.00,0.0033
2036.00,0.0033
2035.00,0.0031
2034.00,0.0029
2033.00,0.0027
2032.00,0.0026
2031.00,0.0026
2030.00,0.0026
2029.00,0.0027
2028.00,0.0028
2027.00,0.0028
2026.00,0.0029
2025.00,0.0030
2024.00,0.0031
2023.00,0.0032
2022.00,0.0032
2021.00,0.0032
2020.00,0.0033
2019.00,0.0032
2018.00,0.0032
2017.00,0.0032
2016.00,0.0031
2015.00,0.0030
2014.00,0.0028
2013.00,0.0027
2012.00,0.0028
2011.00,0.0028
2010.00,0.0027
2009.00,0.0026
2008.00,0.0025
2007.00,0.0024
2006.00,0.0023
2005.00,0.0024
2004.00,0.0026
2003.00,0.0028
2002.00,0.0030
2001.00,0.0031
2000.00,0.0032
1999.00,0.0033
1998.00,0.0034
1997.00,0.0034
1996.00,0.0035
1995.00,0.0035
1994.00,0.0035
1993.00,0.0036
1992.00,0.0036
1991.00,0.0037
1990.00,0.0037
1989.00,0.0039
1988.00,0.0041
1987.00,0.0042
1986.00,0.0043
1985.00,0.0043
1984.00,0.0045
1983.00,0.0047
1982.00,0.0049
1981.00,0.0050
1980.00,0.0048
1979.00,0.0043
1978.00,0.0036
1977.00,0.0031
1976.00,0.0030
1975.00,0.0029
1974.00,0.0027
1973.00,0.0027
1972.00,0.0027
1971.00,0.0026
1970.00,0.0026
1969.00,0.0026
1968.00,0.0027
1967.00,0.0028
1966.00,0.0028
1965.00,0.0029
1964.00,0.0030
1963.00,0.0029
1962.00,0.0027
1961.00,0.0025
1960.00,0.0023
1959.00,0.0022
1958.00,0.0023
1957.00,0.0025
1956.00,0.0027
1955.00,0.0029
1954.00,0.0029
1953.00,0.0029
1952.00,0.0030
1951.00,0.0030
1950.00,0.0030
1949.00,0.0030
1948.00,0.0031
1947.00,0.0031
1946.00,0.0031
1945.00,0.0031
1944.00,0.0032
1943.00,0.0033
1942.00,0.0032
1941.00,0.0032
1940.00,0.0032
1939.00,0.0033
1938.00,0.0033
1937.00,0.0033
1936.00,0.0034
1935.00,0.0033
1934.00,0.0032
1933.00,0.0032
1932.00,0.0032
1931.00,0.0032
1930.00,0.0032
1929.00,0.0031
1928.00,0.0032
1927.00,0.0032
1926.00,0.0033
1925.00,0.0033
1924.00,0.0034
1923.00,0.0034
1922.00,0.0035
1921.00,0.0035
1920.00,0.0035
1919.00,0.0035
1918.00,0.0035
1917.00,0.0035
1916.00,0.0035
1915.00,0.0035
1914.00,0.0035
1913.00,0.0035
1912.00,0.0036
1911.00,0.0037
1910.00,0.0037
1909.00,0.0037
1908.00,0.0038
1907.00,0.0038
1906.00,0.0038
1905.00,0.0038
1904.00,0.0038
1903.00,0.0038
1902.00,0.0038
1901.00,0.0038
1900.00,0.0038
1899.00,0.0038
1898.00,0.0038
1897.00,0.0038
1896.00,0.0038
1895.00,0.0038
1894.00,0.0038
1893.00,0.0038
1892.00,0.0038
1891.00,0.0038
1890.00,0.0039
1889.00,0.0039
1888.00,0.0039
1887.00,0.0039
1886.00,0.0039
1885.00,0.0039
1884.00,0.0039
1883.00,0.0040
1882.00,0.0040
1881.00,0.0040
1880.00,0.0041
1879.00,0.0041
1878.00,0.0041
1877.00,0.0040
1876.00,0.0040
1875.00,0.0040
1874.00,0.0040
1873.00,0.0039
1872.00,0.0039
1871.00,0.0038
1870.00,0.0038
1869.00,0.0039
1868.00,0.0039
1867.00,0.0040
1866.00,0.0040
1865.00,0.0040
1864.00,0.0040
1863.00,0.0040
1862.00,0.0040
1861.00,0.0040
1860.00,0.0041
1859.00,0.0040
1858.00,0.0040
1857.00,0.0040
1856.00,0.0040
1855.00,0.0041
1854.00,0.0040
1853.00,0.0040
1852.00,0.0040
1851.00,0.0040
1850.00,0.0040
1849.00,0.0041
1848.00,0.0042
1847.00,0.0042
1846.00,0.0041
1845.00,0.0040
1844.00,0.0040
1843.00,0.0040
1842.00,0.0040
1841.00,0.0040
1840.00,0.0041
1839.00,0.0042
1838.00,0.0042
1837.00,0.0042
1836.00,0.0042
1835.00,0.0042
1834.00,0.0042
1833.00,0.0041
1832.00,0.0041
1831.00,0.0042
1830.00,0.0041
1829.00,0.0042
1828.00,0.0042
1827.00,0.0042
1826.00,0.0042
1825.00,0.0042
1824.00,0.0043
1823.00,0.0043
1822.00,0.0043
1821.00,0.0043
1820.00,0.0042
1819.00,0.0042
1818.00,0.0041
1817.00,0.0041
1816.00,0.0041
1815.00,0.0042
1814.00,0.0043
1813.00,0.0043
1812.00,0.0044
1811.00,0.0045
1810.00,0.0046
1809.00,0.0046
1808.00,0.0047
1807.00,0.0048
1806.00,0.0049
1805.00,0.0049
1804.00,0.0049
1803.00,0.0049
1802.00,0.0049
1801.00,0.0049
1800.00,0.0050
1799.00,0.0050
1798.00,0.0050
1797.00,0.0050
1796.00,0.0049
1795.00,0.0048
1794.00,0.0047
1793.00,0.0046
1792.00,0.0046
1791.00,0.0046
1790.00,0.0046
1789.00,0.0047
1788.00,0.0047
1787.00,0.0047
1786.00,0.0047
1785.00,0.0047
1784.00,0.0047
1783.00,0.0047
1782.00,0.0047
1781.00,0.0048
1780.00,0.0048
1779.00,0.0049
1778.00,0.0049
1777.00,0.0049
1776.00,0.0050
1775.00,0.0051
1774.00,0.0052
1773.00,0.0052
1772.00,0.0052
1771.00,0.0052
1770.00,0.0052
1769.00,0.0052
1768.00,0.0052
1767.00,0.0051
1766.00,0.0050
1765.00,0.0049
1764.00,0.0049
1763.00,0.0049
1762.00,0.0048
1761.00,0.0048
1760.00,0.0048
1759.00,0.0048
1758.00,0.0048
1757.00,0.0048
1756.00,0.0049
1755.00,0.0049
1754.00,0.0049
1753.00,0.0049
1752.00,0.0049
1751.00,0.0049
1750.00,0.0048
1749.00,0.0048
1748.00,0.0049
1747.00,0.0049
1746.00,0.0049
1745.00,0.0049
1744.00,0.0050
1743.00,0.0050
1742.00,0.0050
1741.00,0.0050
1740.00,0.0050
1739.00,0.0051
1738.00,0.0051
1737.00,0.0051
1736.00,0.0052
1735.00,0.0053
1734.00,0.0053
1733.00,0.0053
1732.00,0.0053
1731.00,0.0054
1730.00,0.0054
1729.00,0.0055
1728.00,0.0056
1727.00,0.0057
1726.00,0.0058
1725.00,0.0058
1724.00,0.0059
1723.00,0.0060
1722.00,0.0060
1721.00,0.0060
1720.00,0.0060
1719.00,0.0061
1718.00,0.0061
1717.00,0.0062
1716.00,0.0063
1715.00,0.0064
1714.00,0.0066
1713.00,0.0067
1712.00,0.0069
1711.00,0.0071
1710.00,0.0072
1709.00,0.0073
1708.00,0.0075
1707.00,0.0078
1706.00,0.0080
1705.00,0.0083
1704.00,0.0087
1703.00,0.0089
1702.00,0.0092
1701.00,0.0097
1700.00,0.0104
1699.00,0.0111
1698.00,0.0117
1697.00,0.0123
1696.00,0.0132
1695.00,0.0141
1694.00,0.0149
1693.00,0.0155
1692.00,0.0163
1691.00,0.0171
1690.00,0.0179
1689.00,0.0187
1688.00,0.0195
1687.00,0.0201
1686.00,0.0206
1685.00,0.0214
1684.00,0.0224
1683.00,0.0234
1682.00,0.0241
1681.00,0.0247
1680.00,0.0253
1679.00,0.0258
1678.00,0.0263
1677.00,0.0267
1676.00,0.0273
1675.00,0.0281
1674.00,0.0287
1673.00,0.0292
1672.00,0.0297
1671.00,0.0303
1670.00,0.0310
1669.00,0.0317
1668.00,0.0325
1667.00,0.0331
1666.00,0.0335
1665.00,0.0339
1664.00,0.0344
1663.00,0.0349
1662.00,0.0353
1661.00,0.0355
1660.00,0.0357
1659.00,0.0357
1658.00,0.0357
1657.00,0.0356
1656.00,0.0356
1655.00,0.0357
1654.00,0.0361
1653.00,0.0368
1652.00,0.0377
1651.00,0.0382
1650.00,0.0387
1649.00,0.0396
1648.00,0.0416
1647.00,0.0448
1646.00,0.0485
1645.00,0.0511
1644.00,0.0522
1643.00,0.0519
1642.00,0.0505
1641.00,0.0486
1640.00,0.0468
1639.00,0.0456
1638.00,0.0452
1637.00,0.0461
1636.00,0.0486
1635.00,0.0520
1634.00,0.0549
1633.00,0.0568
1632.00,0.0582
1631.00,0.0592
1630.00,0.0599
1629.00,0.0607
1628.00,0.0617
1627.00,0.0632
1626.00,0.0649
1625.00,0.0668
1624.00,0.0685
1623.00,0.0692
1622.00,0.0680
1621.00,0.0651
1620.00,0.0611
1619.00,0.0566
1618.00,0.0514
1617.00,0.0458
1616.00,0.0407
1615.00,0.0369
1614.00,0.0341
1613.00,0.0319
1612.00,0.0299
1611.00,0.0280
1610.00,0.0263
1609.00,0.0249
1608.00,0.0237
1607.00,0.0226
1606.00,0.0218
1605.00,0.0211
1604.00,0.0206
1603.00,0.0202
1602.00,0.0200
1601.00,0.0200
1600.00,0.0201
1599.00,0.0204
1598.00,0.0209
1597.00,0.0217
1596.00,0.0227
1595.00,0.0241
1594.00,0.0259
1593.00,0.0284
1592.00,0.0316
1591.00,0.0356
1590.00,0.0403
1589.00,0.0454
1588.00,0.0507
1587.00,0.0558
1586.00,0.0604
1585.00,0.0645
1584.00,0.0680
1583.00,0.0707
1582.00,0.0721
1581.00,0.0719
1580.00,0.0702
1579.00,0.0674
1578.00,0.0633
1577.00,0.0579
1576.00,0.0519
1575.00,0.0465
1574.00,0.0423
1573.00,0.0390
1572.00,0.0360
1571.00,0.0330
1570.00,0.0299
1569.00,0.0270
1568.00,0.0247
1567.00,0.0228
1566.00,0.0213
1565.00,0.0198
1564.00,0.0185
1563.00,0.0175
1562.00,0.0167
1561.00,0.0160
1560.00,0.0152
1559.00,0.0145
1558.00,0.0140
1557.00,0.0136
1556.00,0.0134
1555.00,0.0131
1554.00,0.0129
1553.00,0.0126
1552.00,0.0124
1551.00,0.0121
1550.00,0.0119
1549.00,0.0116
1548.00,0.0115
1547.00,0.0113
1546.00,0.0111
1545.00,0.0110
1544.00,0.0108
1543.00,0.0107
1542.00,0.0105
1541.00,0.0105
1540.00,0.0105
1539.00,0.0105
1538.00,0.0105
1537.00,0.0105
1536.00,0.0105
1535.00,0.0104
1534.00,0.0104
1533.00,0.0105
1532.00,0.0105
1531.00,0.0106
1530.00,0.0106
1529.00,0.0107
1528.00,0.0108
1527.00,0.0109
1526.00,0.0111
1525.00,0.0114
1524.00,0.0118
1523.00,0.0123
1522.00,0.0133
1521.00,0.0145
1520.00,0.0158
1519.00,0.0169
1518.00,0.0181
1517.00,0.0195
1516.00,0.0207
1515.00,0.0215
1514.00,0.0218
1513.00,0.0215
1512.00,0.0209
1511.00,0.0199
1510.00,0.0190
1509.00,0.0181
1508.00,0.0173
1507.00,0.0165
1506.00,0.0161
1505.00,0.0160
1504.00,0.0160
1503.00,0.0160
1502.00,0.0161
1501.00,0.0161
1500.00,0.0161
1499.00,0.0161
1498.00,0.0160
1497.00,0.0160
1496.00,0.0158
1495.00,0.0156
1494.00,0.0154
1493.00,0.0151
1492.00,0.0148
1491.00,0.0144
1490.00,0.0139
1489.00,0.0135
1488.00,0.0131
1487.00,0.0128
1486.00,0.0125
1485.00,0.0123
1484.00,0.0121
1483.00,0.0120
1482.00,0.0119
1481.00,0.0119
1480.00,0.0119
1479.00,0.0120
1478.00,0.0122
1477.00,0.0125
1476.00,0.0129
1475.00,0.0135
1474.00,0.0143
1473.00,0.0157
1472.00,0.0178
1471.00,0.0201
1470.00,0.0227
1469.00,0.0254
1468.00,0.0281
1467.00,0.0306
1466.00,0.0327
1465.00,0.0346
1464.00,0.0363
1463.00,0.0377
1462.00,0.0388
1461.00,0.0397
1460.00,0.0404
1459.00,0.0408
1458.00,0.0414
1457.00,0.0424
1456.00,0.0438
1455.00,0.0453
1454.00,0.0471
1453.00,0.0498
1452.00,0.0533
1451.00,0.0574
1450.00,0.0622
1449.00,0.0679
1448.00,0.0742
1447.00,0.0803
1446.00,0.0853
1445.00,0.0891
1444.00,0.0917
1443.00,0.0932
1442.00,0.0939
1441.00,0.0940
1440.00,0.0935
1439.00,0.0926
1438.00,0.0914
1437.00,0.0899
1436.00,0.0879
1435.00,0.0855
1434.00,0.0829
1433.00,0.0802
1432.00,0.0772
1431.00,0.0737
1430.00,0.0697
1429.00,0.0653
1428.00,0.0607
1427.00,0.0563
1426.00,0.0522
1425.00,0.0484
1424.00,0.0451
1423.00,0.0424
1422.00,0.0403
1421.00,0.0383
1420.00,0.0361
1419.00,0.0339
1418.00,0.0319
1417.00,0.0300
1416.00,0.0284
1415.00,0.0268
1414.00,0.0253
1413.00,0.0240
1412.00,0.0227
1411.00,0.0215
1410.00,0.0206
1409.00,0.0197
1408.00,0.0190
1407.00,0.0184
1406.00,0.0179
1405.00,0.0174
1404.00,0.0170
1403.00,0.0166
1402.00,0.0163
1401.00,0.0160
1400.00,0.0157
1399.00,0.0155
1398.00,0.0153
1397.00,0.0152
1396.00,0.0150
1395.00,0.0148
1394.00,0.0148
1393.00,0.0147
1392.00,0.0147
1391.00,0.0147
1390.00,0.0148
1389.00,0.0150
1388.00,0.0153
1387.00,0.0158
1386.00,0.0165
1385.00,0.0174
1384.00,0.0185
1383.00,0.0200
1382.00,0.0220
1381.00,0.0246
1380.00,0.0278
1379.00,0.0316
1378.00,0.0358
1377.00,0.0396
1376.00,0.0425
1375.00,0.0439
1374.00,0.0436
1373.00,0.0419
1372.00,0.0396
1371.00,0.0373
1370.00,0.0352
1369.00,0.0333
1368.00,0.0315
1367.00,0.0300
1366.00,0.0287
1365.00,0.0274
1364.00,0.0261
1363.00,0.0249
1362.00,0.0238
1361.00,0.0230
1360.00,0.0223
1359.00,0.0218
1358.00,0.0214
1357.00,0.0212
1356.00,0.0210
1355.00,0.0209
1354.00,0.0209
1353.00,0.0208
1352.00,0.0209
1351.00,0.0210
1350.00,0.0211
1349.00,0.0214
1348.00,0.0218
1347.00,0.0223
1346.00,0.0229
1345.00,0.0234
1344.00,0.0238
1343.00,0.0242
1342.00,0.0243
1341.00,0.0242
1340.00,0.0238
1339.00,0.0232
1338.00,0.0225
1337.00,0.0219
1336.00,0.0216
1335.00,0.0217
1334.00,0.0220
1333.00,0.0226
1332.00,0.0234
1331.00,0.0244
1330.00,0.0253
1329.00,0.0263
1328.00,0.0273
1327.00,0.0282
1326.00,0.0292
1325.00,0.0301
1324.00,0.0307
1323.00,0.0308
1322.00,0.0305
1321.00,0.0299
1320.00,0.0293
1319.00,0.0291
1318.00,0.0295
1317.00,0.0307
1316.00,0.0327
1315.00,0.0352
1314.00,0.0381
1313.00,0.0407
1312.00,0.0424
1311.00,0.0430
1310.00,0.0426
1309.00,0.0416
1308.00,0.0405
1307.00,0.0397
1306.00,0.0395
1305.00,0.0399
1304.00,0.0408
1303.00,0.0417
1302.00,0.0427
1301.00,0.0434
1300.00,0.0439
1299.00,0.0444
1298.00,0.0448
1297.00,0.0451
1296.00,0.0454
1295.00,0.0456
1294.00,0.0458
1293.00,0.0459
1292.00,0.0460
1291.00,0.0461
1290.00,0.0461
1289.00,0.0462
1288.00,0.0466
1287.00,0.0472
1286.00,0.0481
1285.00,0.0492
1284.00,0.0504
1283.00,0.0516
1282.00,0.0525
1281.00,0.0533
1280.00,0.0538
1279.00,0.0540
1278.00,0.0539
1277.00,0.0536
1276.00,0.0529
1275.00,0.0519
1274.00,0.0506
1273.00,0.0490
1272.00,0.0470
1271.00,0.0448
1270.00,0.0424
1269.00,0.0400
1268.00,0.0377
1267.00,0.0355
1266.00,0.0336
1265.00,0.0319
1264.00,0.0303
1263.00,0.0290
1262.00,0.0277
1261.00,0.0266
1260.00,0.0256
1259.00,0.0247
1258.00,0.0240
1257.00,0.0235
1256.00,0.0231
1255.00,0.0228
1254.00,0.0228
1253.00,0.0230
1252.00,0.0234
1251.00,0.0241
1250.00,0.0248
1249.00,0.0255
1248.00,0.0260
1247.00,0.0264
1246.00,0.0268
1245.00,0.0276
1244.00,0.0290
1243.00,0.0312
1242.00,0.0341
1241.00,0.0376
1240.00,0.0415
1239.00,0.0453
1238.00,0.0484
1237.00,0.0505
1236.00,0.0515
1235.00,0.0517
1234.00,0.0512
1233.00,0.0502
1232.00,0.0489
1231.00,0.0475
1230.00,0.0465
1229.00,0.0463
1228.00,0.0472
1227.00,0.0494
1226.00,0.0523
1225.00,0.0556
1224.00,0.0592
1223.00,0.0631
1222.00,0.0673
1221.00,0.0723
1220.00,0.0782
1219.00,0.0851
1218.00,0.0925
1217.00,0.0997
1216.00,0.1055
1215.00,0.1092
1214.00,0.1101
1213.00,0.1084
1212.00,0.1044
1211.00,0.0990
1210.00,0.0929
1209.00,0.0867
1208.00,0.0810
1207.00,0.0758
1206.00,0.0712
1205.00,0.0668
1204.00,0.0626
1203.00,0.0583
1202.00,0.0540
1201.00,0.0499
1200.00,0.0459
1199.00,0.0424
1198.00,0.0394
1197.00,0.0369
1196.00,0.0350
1195.00,0.0335
1194.00,0.0326
1193.00,0.0320
1192.00,0.0318
1191.00,0.0319
1190.00,0.0323
1189.00,0.0329
1188.00,0.0335
1187.00,0.0341
1186.00,0.0348
1185.00,0.0356
1184.00,0.0364
1183.00,0.0370
1182.00,0.0376
1181.00,0.0381
1180.00,0.0385
1179.00,0.0390
1178.00,0.0395
1177.00,0.0400
1176.00,0.0406
1175.00,0.0416
1174.00,0.0431
1173.00,0.0447
1172.00,0.0455
1171.00,0.0447
1170.00,0.0422
1169.00,0.0387
1168.00,0.0350
1167.00,0.0317
1166.00,0.0290
1165.00,0.0269
1164.00,0.0253
1163.00,0.0241
1162.00,0.0231
1161.00,0.0225
1160.00,0.0221
1159.00,0.0221
1158.00,0.0223
1157.00,0.0231
1156.00,0.0246
1155.00,0.0272
1154.00,0.0310
1153.00,0.0360
1152.00,0.0411
1151.00,0.0449
1150.00,0.0458
1149.00,0.0435
1148.00,0.0389
1147.00,0.0336
1146.00,0.0289
1145.00,0.0253
1144.00,0.0228
1143.00,0.0212
1142.00,0.0201
1141.00,0.0195
1140.00,0.0192
1139.00,0.0192
1138.00,0.0195
1137.00,0.0198
1136.00,0.0202
1135.00,0.0203
1134.00,0.0203
1133.00,0.0199
1132.00,0.0192
1131.00,0.0184
1130.00,0.0177
1129.00,0.0169
1128.00,0.0163
1127.00,0.0158
1126.00,0.0154
1125.00,0.0151
1124.00,0.0149
1123.00,0.0147
1122.00,0.0145
1121.00,0.0144
1120.00,0.0144
1119.00,0.0145
1118.00,0.0146
1117.00,0.0147
1116.00,0.0148
1115.00,0.0150
1114.00,0.0152
1113.00,0.0154
1112.00,0.0156
1111.00,0.0158
1110.00,0.0161
1109.00,0.0166
1108.00,0.0171
1107.00,0.0177
1106.00,0.0185
1105.00,0.0192
1104.00,0.0200
1103.00,0.0209
1102.00,0.0219
1101.00,0.0230
1100.00,0.0240
1099.00,0.0245
1098.00,0.0245
1097.00,0.0237
1096.00,0.0225
1095.00,0.0212
1094.00,0.0200
1093.00,0.0191
1092.00,0.0184
1091.00,0.0178
1090.00,0.0174
1089.00,0.0171
1088.00,0.0169
1087.00,0.0170
1086.00,0.0174
1085.00,0.0181
1084.00,0.0191
1083.00,0.0205
1082.00,0.0221
1081.00,0.0235
1080.00,0.0246
1079.00,0.0250
1078.00,0.0246
1077.00,0.0237
1076.00,0.0225
1075.00,0.0212
1074.00,0.0202
1073.00,0.0194
1072.00,0.0187
1071.00,0.0182
1070.00,0.0177
1069.00,0.0174
1068.00,0.0171
1067.00,0.0170
1066.00,0.0170
1065.00,0.0171
1064.00,0.0173
1063.00,0.0177
1062.00,0.0182
1061.00,0.0190
1060.00,0.0202
1059.00,0.0219
1058.00,0.0245
1057.00,0.0280
1056.00,0.0325
1055.00,0.0377
1054.00,0.0428
1053.00,0.0468
1052.00,0.0492
1051.00,0.0499
1050.00,0.0489
1049.00,0.0465
1048.00,0.0429
1047.00,0.0389
1046.00,0.0351
1045.00,0.0321
1044.00,0.0302
1043.00,0.0294
1042.00,0.0294
1041.00,0.0299
1040.00,0.0309
1039.00,0.0322
1038.00,0.0341
1037.00,0.0368
1036.00,0.0406
1035.00,0.0450
1034.00,0.0497
1033.00,0.0535
1032.00,0.0556
1031.00,0.0556
1030.00,0.0538
1029.00,0.0509
1028.00,0.0481
1027.00,0.0459
1026.00,0.0451
1025.00,0.0457
1024.00,0.0481
1023.00,0.0520
1022.00,0.0572
1021.00,0.0626
1020.00,0.0672
1019.00,0.0698
1018.00,0.0696
1017.00,0.0670
1016.00,0.0629
1015.00,0.0582
1014.00,0.0536
1013.00,0.0494
1012.00,0.0459
1011.00,0.0434
1010.00,0.0419
1009.00,0.0412
1008.00,0.0413
1007.00,0.0421
1006.00,0.0435
1005.00,0.0454
1004.00,0.0475
1003.00,0.0491
1002.00,0.0499
1001.00,0.0494
1000.00,0.0477
999.00,0.0448
998.00,0.0411
997.00,0.0373
996.00,0.0338
995.00,0.0311
994.00,0.0291
993.00,0.0279
992.00,0.0273
991.00,0.0272
990.00,0.0277
989.00,0.0284
988.00,0.0292
987.00,0.0300
986.00,0.0306
985.00,0.0308
984.00,0.0305
983.00,0.0296
982.00,0.0283
981.00,0.0268
980.00,0.0256
979.00,0.0247
978.00,0.0241
977.00,0.0237
976.00,0.0233
975.00,0.0229
974.00,0.0225
973.00,0.0223
972.00,0.0224
971.00,0.0228
970.00,0.0234
969.00,0.0243
968.00,0.0252
967.00,0.0263
966.00,0.0275
965.00,0.0290
964.00,0.0306
963.00,0.0323
962.00,0.0336
961.00,0.0340
960.00,0.0333
959.00,0.0315
958.00,0.0292
957.00,0.0267
956.00,0.0244
955.00,0.0225
954.00,0.0210
953.00,0.0199
952.00,0.0190
951.00,0.0184
950.00,0.0178
949.00,0.0174
948.00,0.0171
947.00,0.0168
946.00,0.0166
945.00,0.0164
944.00,0.0163
943.00,0.0162
942.00,0.0161
941.00,0.0160
940.00,0.0160
939.00,0.0160
938.00,0.0160
937.00,0.0161
936.00,0.0163
935.00,0.0166
934.00,0.0168
933.00,0.0170
932.00,0.0173
931.00,0.0176
930.00,0.0178
929.00,0.0180
928.00,0.0181
927.00,0.0180
926.00,0.0179
925.00,0.0178
924.00,0.0177
923.00,0.0176
922.00,0.0175
921.00,0.0177
920.00,0.0180
919.00,0.0184
918.00,0.0191
917.00,0.0198
916.00,0.0203
915.00,0.0207
914.00,0.0207
913.00,0.0206
912.00,0.0204
911.00,0.0203
910.00,0.0206
909.00,0.0212
908.00,0.0223
907.00,0.0238
906.00,0.0257
905.00,0.0280
904.00,0.0306
903.00,0.0336
902.00,0.0373
901.00,0.0419
900.00,0.0478
899.00,0.0544
898.00,0.0608
897.00,0.0654
896.00,0.0668
895.00,0.0649
894.00,0.0606
893.00,0.0553
892.00,0.0503
891.00,0.0463
890.00,0.0441
889.00,0.0440
888.00,0.0465
887.00,0.0518
886.00,0.0595
885.00,0.0682
884.00,0.0753
883.00,0.0786
882.00,0.0766
881.00,0.0704
880.00,0.0621
879.00,0.0538
878.00,0.0469
877.00,0.0417
876.00,0.0382
875.00,0.0361
874.00,0.0351
873.00,0.0352
872.00,0.0360
871.00,0.0372
870.00,0.0381
869.00,0.0381
868.00,0.0376
867.00,0.0370
866.00,0.0372
865.00,0.0387
864.00,0.0413
863.00,0.0441
862.00,0.0464
861.00,0.0475
860.00,0.0476
859.00,0.0471
858.00,0.0469
857.00,0.0474
856.00,0.0485
855.00,0.0499
854.00,0.0513
853.00,0.0526
852.00,0.0537
851.00,0.0543
850.00,0.0543
849.00,0.0534
848.00,0.0518
847.00,0.0499
846.00,0.0483
845.00,0.0472
844.00,0.0463
843.00,0.0456
842.00,0.0447
841.00,0.0437
840.00,0.0427
839.00,0.0421
838.00,0.0418
837.00,0.0421
836.00,0.0427
835.00,0.0437
834.00,0.0450
833.00,0.0465
832.00,0.0481
831.00,0.0497
830.00,0.0511
829.00,0.0522
828.00,0.0527
827.00,0.0525
826.00,0.0514
825.00,0.0494
824.00,0.0467
823.00,0.0436
822.00,0.0404
821.00,0.0372
820.00,0.0342
819.00,0.0316
818.00,0.0294
817.00,0.0277
816.00,0.0265
815.00,0.0256
814.00,0.0249
813.00,0.0244
812.00,0.0240
811.00,0.0239
810.00,0.0245
809.00,0.0261
808.00,0.0292
807.00,0.0337
806.00,0.0387
805.00,0.0427
804.00,0.0442
803.00,0.0430
802.00,0.0398
801.00,0.0361
800.00,0.0326
799.00,0.0297
798.00,0.0275
797.00,0.0259
796.00,0.0247
795.00,0.0241
794.00,0.0237
793.00,0.0236
792.00,0.0235
791.00,0.0233
790.00,0.0231
789.00,0.0228
788.00,0.0228
787.00,0.0229
786.00,0.0230
785.00,0.0230
784.00,0.0226
783.00,0.0219
782.00,0.0213
781.00,0.0209
780.00,0.0207
779.00,0.0207
778.00,0.0208
777.00,0.0207
776.00,0.0206
775.00,0.0204
774.00,0.0203
773.00,0.0203
772.00,0.0204
771.00,0.0206
770.00,0.0207
769.00,0.0206
768.00,0.0202
767.00,0.0197
766.00,0.0192
765.00,0.0187
764.00,0.0183
763.00,0.0180
762.00,0.0179
761.00,0.0178
760.00,0.0179
759.00,0.0180
758.00,0.0184
757.00,0.0189
756.00,0.0196
755.00,0.0207
754.00,0.0221
753.00,0.0236
752.00,0.0250
751.00,0.0260
750.00,0.0267
749.00,0.0271
748.00,0.0270
747.00,0.0263
746.00,0.0251
745.00,0.0238
744.00,0.0226
743.00,0.0217
742.00,0.0211
741.00,0.0208
740.00,0.0206
739.00,0.0206
738.00,0.0208
737.00,0.0211
736.00,0.0217
735.00,0.0225
734.00,0.0237
733.00,0.0251
732.00,0.0264
731.00,0.0273
730.00,0.0273
729.00,0.0265
728.00,0.0253
727.00,0.0241
726.00,0.0233
725.00,0.0227
724.00,0.0222
723.00,0.0219
722.00,0.0216
721.00,0.0213
720.00,0.0211
719.00,0.0208
718.00,0.0204
717.00,0.0199
716.00,0.0193
715.00,0.0189
714.00,0.0186
713.00,0.0185
712.00,0.0184
711.00,0.0184
710.00,0.0183
709.00,0.0181
708.00,0.0178
707.00,0.0175
706.00,0.0173
705.00,0.0171
704.00,0.0169
703.00,0.0169
702.00,0.0168
701.00,0.0168
700.00,0.0169
699.00,0.0169
698.00,0.0170
697.00,0.0170
696.00,0.0171
695.00,0.0171
694.00,0.0172
693.00,0.0173
692.00,0.0174
691.00,0.0175
690.00,0.0176
689.00,0.0177
688.00,0.0179
687.00,0.0181
686.00,0.0183
685.00,0.0185
684.00,0.0187
683.00,0.0190
682.00,0.0192
681.00,0.0194
680.00,0.0198
679.00,0.0201
678.00,0.0205
677.00,0.0209
676.00,0.0214
675.00,0.0220
674.00,0.0228
673.00,0.0236
672.00,0.0246
671.00,0.0257
670.00,0.0269
669.00,0.0282
668.00,0.0296
667.00,0.0304
666.00,0.0307
665.00,0.0309
664.00,0.0312
663.00,0.0316
662.00,0.0319
661.00,0.0321
660.00,0.0323
659.00,0.0324
658.00,0.0326
657.00,0.0326
656.00,0.0326
655.00,0.0327
654.00,0.0328
653.00,0.0332
652.00,0.0339
651.00,0.0348
650.00,0.0357
649.00,0.0362
648.00,0.0362
647.00,0.0356
646.00,0.0347
645.00,0.0335
644.00,0.0323
643.00,0.0311
642.00,0.0301
641.00,0.0293
640.00,0.0287
639.00,0.0284
638.00,0.0282
637.00,0.0281
636.00,0.0281
635.00,0.0281
634.00,0.0283
633.00,0.0285
632.00,0.0287
631.00,0.0290
630.00,0.0294
629.00,0.0298
628.00,0.0303
627.00,0.0307
626.00,0.0311
625.00,0.0314
624.00,0.0316
623.00,0.0316
622.00,0.0313
621.00,0.0307
620.00,0.0298
619.00,0.0287
618.00,0.0277
617.00,0.0270
616.00,0.0269
615.00,0.0277
614.00,0.0294
613.00,0.0316
612.00,0.0338
611.00,0.0352
610.00,0.0357
609.00,0.0353
608.00,0.0346
607.00,0.0342
606.00,0.0343
605.00,0.0347
604.00,0.0353
603.00,0.0359
602.00,0.0365
601.00,0.0373
600.00,0.0381
599.00,0.0388
598.00,0.0392
597.00,0.0393
596.00,0.0393
595.00,0.0395
594.00,0.0400
593.00,0.0409
592.00,0.0423
591.00,0.0441
590.00,0.0462
589.00,0.0482
588.00,0.0499
587.00,0.0511
586.00,0.0515
585.00,0.0512
584.00,0.0503
583.00,0.0490
582.00,0.0475
581.00,0.0460
580.00,0.0446
579.00,0.0436
578.00,0.0429
577.00,0.0425
576.00,0.0424
575.00,0.0425
574.00,0.0427
573.00,0.0430
572.00,0.0433
571.00,0.0437
570.00,0.0441
569.00,0.0446
568.00,0.0449
567.00,0.0452
566.00,0.0453
565.00,0.0453
564.00,0.0453
563.00,0.0452
562.00,0.0451
561.00,0.0450
560.00,0.0449
559.00,0.0449
558.00,0.0448
557.00,0.0447
556.00,0.0447
555.00,0.0449
554.00,0.0453
553.00,0.0458
552.00,0.0466
551.00,0.0475
550.00,0.0484
549.00,0.0491
548.00,0.0497
547.00,0.0505
546.00,0.0514
545.00,0.0523
544.00,0.0529
543.00,0.0532
542.00,0.0535
541.00,0.0541
540.00,0.0554
539.00,0.0573
538.00,0.0597
537.00,0.0621
536.00,0.0639
535.00,0.0645
534.00,0.0641
533.00,0.0631
532.00,0.0619
531.00,0.0609
530.00,0.0600
529.00,0.0597
528.00,0.0602
527.00,0.0620
526.00,0.0648
525.00,0.0684
524.00,0.0721
523.00,0.0754
522.00,0.0773
521.00,0.0770
520.00,0.0741
519.00,0.0692
518.00,0.0638
517.00,0.0593
516.00,0.0561
515.00,0.0540
514.00,0.0527
513.00,0.0520
512.00,0.0517
511.00,0.0519
510.00,0.0527
509.00,0.0538
508.00,0.0554
507.00,0.0572
506.00,0.0591
505.00,0.0612
504.00,0.0636
503.00,0.0662
502.00,0.0690
501.00,0.0717
500.00,0.0743
499.00,0.0765
498.00,0.0784
497.00,0.0800
496.00,0.0811
495.00,0.0817
494.00,0.0818
493.00,0.0815
492.00,0.0812
491.00,0.0808
490.00,0.0804
489.00,0.0801
488.00,0.0799
487.00,0.0797
486.00,0.0795
485.00,0.0793
484.00,0.0790
483.00,0.0785
482.00,0.0776
481.00,0.0761
480.00,0.0744
479.00,0.0725
478.00,0.0708
477.00,0.0696
476.00,0.0689
475.00,0.0686
474.00,0.0688
473.00,0.0695
472.00,0.0707
471.00,0.0720
470.00,0.0731
469.00,0.0741
468.00,0.0749
467.00,0.0753
466.00,0.0754
465.00,0.0753
464.00,0.0751
463.00,0.0749
462.00,0.0747
461.00,0.0744
460.00,0.0742
459.00,0.0740
458.00,0.0737
457.00,0.0734
456.00,0.0731
455.00,0.0726
454.00,0.0721
453.00,0.0716
452.00,0.0711
451.00,0.0704
450.00,0.0696
449.00,0.0687
448.00,0.0678
447.00,0.0668
446.00,0.0656
445.00,0.0645
444.00,0.0638
443.00,0.0634
442.00,0.0630
441.00,0.0627
440.00,0.0624
439.00,0.0623
438.00,0.0621
437.00,0.0620
436.00,0.0619
435.00,0.0617
434.00,0.0616
433.00,0.0617
432.00,0.0623
431.00,0.0633
430.00,0.0650
429.00,0.0674
428.00,0.0706
427.00,0.0741
426.00,0.0771
425.00,0.0793
424.00,0.0803
423.00,0.0800
422.00,0.0786
421.00,0.0766
420.00,0.0747
419.00,0.0734
418.00,0.0729
417.00,0.0730
416.00,0.0731
415.00,0.0731
414.00,0.0733
413.00,0.0740
412.00,0.0751
411.00,0.0764
410.00,0.0776
409.00,0.0793
408.00,0.0816
407.00,0.0837
406.00,0.0848
405.00,0.0853
404.00,0.0856
403.00,0.0859
402.00,0.0857
401.00,0.0854
400.00,0.0854
