Created as New Dataset,Sample 936 By YargerLab Date Monday, July 28 2025
cm-1,A
4000.00,0.0071
3999.00,0.0071
3998.00,0.0071
3997.00,0.0071
3996.00,0.0071
3995.00,0.0071
3994.00,0.0070
3993.00,0.0070
3992.00,0.0070
3991.00,0.0070
3990.00,0.0071
3989.00,0.0071
3988.00,0.0071
3987.00,0.0071
3986.00,0.0070
3985.00,0.0070
3984.00,0.0070
3983.00,0.0070
3982.00,0.0070
3981.00,0.0070
3980.00,0.0070
3979.00,0.0070
3978.00,0.0070
3977.00,0.0070
3976.00,0.0070
3975.00,0.0070
3974.00,0.0070
3973.00,0.0070
3972.00,0.0070
3971.00,0.0070
3970.00,0.0070
3969.00,0.0070
3968.00,0.0070
3967.00,0.0070
3966.00,0.0071
3965.00,0.0071
3964.00,0.0071
3963.00,0.0070
3962.00,0.0070
3961.00,0.0070
3960.00,0.0070
3959.00,0.0070
3958.00,0.0070
3957.00,0.0070
3956.00,0.0070
3955.00,0.0070
3954.00,0.0070
3953.00,0.0070
3952.00,0.0070
3951.00,0.0070
3950.00,0.0070
3949.00,0.0069
3948.00,0.0069
3947.00,0.0069
3946.00,0.0069
3945.00,0.0069
3944.00,0.0070
3943.00,0.0070
3942.00,0.0070
3941.00,0.0070
3940.00,0.0070
3939.00,0.0070
3938.00,0.0070
3937.00,0.0070
3936.00,0.0070
3935.00,0.0070
3934.00,0.0070
3933.00,0.0070
3932.00,0.0070
3931.00,0.0070
3930.00,0.0070
3929.00,0.0070
3928.00,0.0070
3927.00,0.0070
3926.00,0.0070
3925.00,0.0069
3924.00,0.0069
3923.00,0.0069
3922.00,0.0069
3921.00,0.0069
3920.00,0.0069
3919.00,0.0069
3918.00,0.0069
3917.00,0.0069
3916.00,0.0069
3915.00,0.0069
3914.00,0.0069
3913.00,0.0069
3912.00,0.0069
3911.00,0.0069
3910.00,0.0069
3909.00,0.0069
3908.00,0.0069
3907.00,0.0069
3906.00,0.0069
3905.00,0.0069
3904.00,0.0069
3903.00,0.0068
3902.00,0.0068
3901.00,0.0068
3900.00,0.0068
3899.00,0.0068
3898.00,0.0068
3897.00,0.0069
3896.00,0.0069
3895.00,0.0069
3894.00,0.0069
3893.00,0.0069
3892.00,0.0069
3891.00,0.0069
3890.00,0.0069
3889.00,0.0068
3888.00,0.0068
3887.00,0.0068
3886.00,0.0068
3885.00,0.0068
3884.00,0.0069
3883.00,0.0069
3882.00,0.0069
3881.00,0.0069
3880.00,0.0069
3879.00,0.0069
3878.00,0.0069
3877.00,0.0069
3876.00,0.0069
3875.00,0.0069
3874.00,0.0069
3873.00,0.0069
3872.00,0.0068
3871.00,0.0068
3870.00,0.0068
3869.00,0.0068
3868.00,0.0068
3867.00,0.0068
3866.00,0.0068
3865.00,0.0069
3864.00,0.0069
3863.00,0.0069
3862.00,0.0069
3861.00,0.0069
3860.00,0.0069
3859.00,0.0069
3858.00,0.0069
3857.00,0.0069
3856.00,0.0069
3855.00,0.0069
3854.00,0.0068
3853.00,0.0068
3852.00,0.0068
3851.00,0.0068
3850.00,0.0068
3849.00,0.0068
3848.00,0.0068
3847.00,0.0068
3846.00,0.0069
3845.00,0.0069
3844.00,0.0069
3843.00,0.0069
3842.00,0.0069
3841.00,0.0069
3840.00,0.0068
3839.00,0.0068
3838.00,0.0068
3837.00,0.0068
3836.00,0.0068
3835.00,0.0069
3834.00,0.0069
3833.00,0.0069
3832.00,0.0069
3831.00,0.0069
3830.00,0.0070
3829.00,0.0070
3828.00,0.0070
3827.00,0.0069
3826.00,0.0069
3825.00,0.0069
3824.00,0.0069
3823.00,0.0069
3822.00,0.0068
3821.00,0.0069
3820.00,0.0069
3819.00,0.0069
3818.00,0.0068
3817.00,0.0068
3816.00,0.0068
3815.00,0.0068
3814.00,0.0068
3813.00,0.0069
3812.00,0.0069
3811.00,0.0069
3810.00,0.0070
3809.00,0.0069
3808.00,0.0069
3807.00,0.0068
3806.00,0.0068
3805.00,0.0068
3804.00,0.0068
3803.00,0.0068
3802.00,0.0068
3801.00,0.0069
3800.00,0.0069
3799.00,0.0069
3798.00,0.0069
3797.00,0.0069
3796.00,0.0069
3795.00,0.0069
3794.00,0.0069
3793.00,0.0070
3792.00,0.0070
3791.00,0.0070
3790.00,0.0070
3789.00,0.0070
3788.00,0.0070
3787.00,0.0070
3786.00,0.0070
3785.00,0.0070
3784.00,0.0070
3783.00,0.0070
3782.00,0.0069
3781.00,0.0069
3780.00,0.0069
3779.00,0.0069
3778.00,0.0069
3777.00,0.0069
3776.00,0.0069
3775.00,0.0069
3774.00,0.0069
3773.00,0.0069
3772.00,0.0069
3771.00,0.0069
3770.00,0.0070
3769.00,0.0070
3768.00,0.0069
3767.00,0.0069
3766.00,0.0069
3765.00,0.0069
3764.00,0.0069
3763.00,0.0069
3762.00,0.0069
3761.00,0.0069
3760.00,0.0069
3759.00,0.0069
3758.00,0.0069
3757.00,0.0069
3756.00,0.0069
3755.00,0.0069
3754.00,0.0068
3753.00,0.0068
3752.00,0.0067
3751.00,0.0067
3750.00,0.0067
3749.00,0.0067
3748.00,0.0067
3747.00,0.0067
3746.00,0.0067
3745.00,0.0066
3744.00,0.0066
3743.00,0.0066
3742.00,0.0066
3741.00,0.0066
3740.00,0.0066
3739.00,0.0066
3738.00,0.0066
3737.00,0.0066
3736.00,0.0066
3735.00,0.0066
3734.00,0.0065
3733.00,0.0065
3732.00,0.0065
3731.00,0.0066
3730.00,0.0066
3729.00,0.0066
3728.00,0.0066
3727.00,0.0066
3726.00,0.0067
3725.00,0.0067
3724.00,0.0067
3723.00,0.0068
3722.00,0.0068
3721.00,0.0068
3720.00,0.0068
3719.00,0.0068
3718.00,0.0068
3717.00,0.0068
3716.00,0.0068
3715.00,0.0067
3714.00,0.0067
3713.00,0.0067
3712.00,0.0067
3711.00,0.0067
3710.00,0.0067
3709.00,0.0066
3708.00,0.0066
3707.00,0.0066
3706.00,0.0066
3705.00,0.0066
3704.00,0.0066
3703.00,0.0067
3702.00,0.0067
3701.00,0.0067
3700.00,0.0067
3699.00,0.0067
3698.00,0.0067
3697.00,0.0067
3696.00,0.0067
3695.00,0.0067
3694.00,0.0067
3693.00,0.0067
3692.00,0.0067
3691.00,0.0067
3690.00,0.0067
3689.00,0.0068
3688.00,0.0068
3687.00,0.0068
3686.00,0.0069
3685.00,0.0069
3684.00,0.0070
3683.00,0.0070
3682.00,0.0070
3681.00,0.0070
3680.00,0.0070
3679.00,0.0069
3678.00,0.0069
3677.00,0.0069
3676.00,0.0069
3675.00,0.0070
3674.00,0.0069
3673.00,0.0069
3672.00,0.0069
3671.00,0.0070
3670.00,0.0070
3669.00,0.0070
3668.00,0.0070
3667.00,0.0070
3666.00,0.0071
3665.00,0.0071
3664.00,0.0071
3663.00,0.0072
3662.00,0.0072
3661.00,0.0072
3660.00,0.0072
3659.00,0.0072
3658.00,0.0072
3657.00,0.0072
3656.00,0.0072
3655.00,0.0072
3654.00,0.0072
3653.00,0.0072
3652.00,0.0072
3651.00,0.0073
3650.00,0.0073
3649.00,0.0073
3648.00,0.0073
3647.00,0.0074
3646.00,0.0074
3645.00,0.0074
3644.00,0.0075
3643.00,0.0075
3642.00,0.0076
3641.00,0.0076
3640.00,0.0077
3639.00,0.0077
3638.00,0.0077
3637.00,0.0078
3636.00,0.0078
3635.00,0.0078
3634.00,0.0079
3633.00,0.0079
3632.00,0.0080
3631.00,0.0080
3630.00,0.0080
3629.00,0.0081
3628.00,0.0081
3627.00,0.0082
3626.00,0.0082
3625.00,0.0083
3624.00,0.0084
3623.00,0.0084
3622.00,0.0085
3621.00,0.0085
3620.00,0.0086
3619.00,0.0086
3618.00,0.0087
3617.00,0.0087
3616.00,0.0088
3615.00,0.0088
3614.00,0.0089
3613.00,0.0090
3612.00,0.0091
3611.00,0.0092
3610.00,0.0092
3609.00,0.0092
3608.00,0.0093
3607.00,0.0094
3606.00,0.0095
3605.00,0.0096
3604.00,0.0097
3603.00,0.0097
3602.00,0.0098
3601.00,0.0099
3600.00,0.0099
3599.00,0.0100
3598.00,0.0101
3597.00,0.0102
3596.00,0.0103
3595.00,0.0104
3594.00,0.0105
3593.00,0.0106
3592.00,0.0107
3591.00,0.0107
3590.00,0.0108
3589.00,0.0109
3588.00,0.0110
3587.00,0.0111
3586.00,0.0112
3585.00,0.0113
3584.00,0.0114
3583.00,0.0115
3582.00,0.0116
3581.00,0.0117
3580.00,0.0118
3579.00,0.0119
3578.00,0.0120
3577.00,0.0121
3576.00,0.0123
3575.00,0.0124
3574.00,0.0125
3573.00,0.0126
3572.00,0.0127
3571.00,0.0128
3570.00,0.0129
3569.00,0.0129
3568.00,0.0130
3567.00,0.0131
3566.00,0.0132
3565.00,0.0133
3564.00,0.0134
3563.00,0.0135
3562.00,0.0136
3561.00,0.0137
3560.00,0.0138
3559.00,0.0139
3558.00,0.0140
3557.00,0.0141
3556.00,0.0142
3555.00,0.0143
3554.00,0.0144
3553.00,0.0145
3552.00,0.0146
3551.00,0.0146
3550.00,0.0147
3549.00,0.0148
3548.00,0.0149
3547.00,0.0149
3546.00,0.0150
3545.00,0.0151
3544.00,0.0152
3543.00,0.0152
3542.00,0.0153
3541.00,0.0153
3540.00,0.0154
3539.00,0.0154
3538.00,0.0155
3537.00,0.0155
3536.00,0.0156
3535.00,0.0156
3534.00,0.0157
3533.00,0.0157
3532.00,0.0157
3531.00,0.0157
3530.00,0.0158
3529.00,0.0158
3528.00,0.0158
3527.00,0.0158
3526.00,0.0158
3525.00,0.0158
3524.00,0.0159
3523.00,0.0159
3522.00,0.0160
3521.00,0.0160
3520.00,0.0160
3519.00,0.0160
3518.00,0.0160
3517.00,0.0161
3516.00,0.0161
3515.00,0.0161
3514.00,0.0161
3513.00,0.0161
3512.00,0.0161
3511.00,0.0161
3510.00,0.0161
3509.00,0.0161
3508.00,0.0161
3507.00,0.0161
3506.00,0.0161
3505.00,0.0161
3504.00,0.0161
3503.00,0.0162
3502.00,0.0162
3501.00,0.0162
3500.00,0.0162
3499.00,0.0162
3498.00,0.0162
3497.00,0.0162
3496.00,0.0162
3495.00,0.0162
3494.00,0.0162
3493.00,0.0162
3492.00,0.0162
3491.00,0.0162
3490.00,0.0162
3489.00,0.0163
3488.00,0.0163
3487.00,0.0163
3486.00,0.0163
3485.00,0.0163
3484.00,0.0163
3483.00,0.0163
3482.00,0.0163
3481.00,0.0163
3480.00,0.0163
3479.00,0.0163
3478.00,0.0163
3477.00,0.0164
3476.00,0.0164
3475.00,0.0164
3474.00,0.0164
3473.00,0.0164
3472.00,0.0164
3471.00,0.0165
3470.00,0.0165
3469.00,0.0165
3468.00,0.0165
3467.00,0.0164
3466.00,0.0164
3465.00,0.0164
3464.00,0.0164
3463.00,0.0164
3462.00,0.0164
3461.00,0.0164
3460.00,0.0164
3459.00,0.0164
3458.00,0.0164
3457.00,0.0163
3456.00,0.0163
3455.00,0.0163
3454.00,0.0163
3453.00,0.0163
3452.00,0.0163
3451.00,0.0163
3450.00,0.0163
3449.00,0.0162
3448.00,0.0162
3447.00,0.0162
3446.00,0.0162
3445.00,0.0162
3444.00,0.0162
3443.00,0.0161
3442.00,0.0161
3441.00,0.0160
3440.00,0.0160
3439.00,0.0159
3438.00,0.0159
3437.00,0.0159
3436.00,0.0159
3435.00,0.0159
3434.00,0.0158
3433.00,0.0158
3432.00,0.0157
3431.00,0.0157
3430.00,0.0157
3429.00,0.0156
3428.00,0.0156
3427.00,0.0155
3426.00,0.0155
3425.00,0.0154
3424.00,0.0153
3423.00,0.0153
3422.00,0.0153
3421.00,0.0152
3420.00,0.0152
3419.00,0.0152
3418.00,0.0151
3417.00,0.0151
3416.00,0.0150
3415.00,0.0150
3414.00,0.0149
3413.00,0.0148
3412.00,0.0148
3411.00,0.0148
3410.00,0.0147
3409.00,0.0147
3408.00,0.0146
3407.00,0.0146
3406.00,0.0146
3405.00,0.0145
3404.00,0.0145
3403.00,0.0144
3402.00,0.0143
3401.00,0.0142
3400.00,0.0142
3399.00,0.0142
3398.00,0.0142
3397.00,0.0142
3396.00,0.0142
3395.00,0.0141
3394.00,0.0140
3393.00,0.0139
3392.00,0.0139
3391.00,0.0138
3390.00,0.0139
3389.00,0.0139
3388.00,0.0139
3387.00,0.0139
3386.00,0.0139
3385.00,0.0138
3384.00,0.0138
3383.00,0.0137
3382.00,0.0137
3381.00,0.0137
3380.00,0.0136
3379.00,0.0136
3378.00,0.0136
3377.00,0.0136
3376.00,0.0136
3375.00,0.0135
3374.00,0.0135
3373.00,0.0134
3372.00,0.0133
3371.00,0.0131
3370.00,0.0131
3369.00,0.0130
3368.00,0.0130
3367.00,0.0131
3366.00,0.0132
3365.00,0.0133
3364.00,0.0133
3363.00,0.0133
3362.00,0.0133
3361.00,0.0133
3360.00,0.0133
3359.00,0.0133
3358.00,0.0134
3357.00,0.0134
3356.00,0.0134
3355.00,0.0134
3354.00,0.0133
3353.00,0.0132
3352.00,0.0131
3351.00,0.0130
3350.00,0.0130
3349.00,0.0131
3348.00,0.0132
3347.00,0.0133
3346.00,0.0133
3345.00,0.0132
3344.00,0.0131
3343.00,0.0131
3342.00,0.0130
3341.00,0.0130
3340.00,0.0129
3339.00,0.0129
3338.00,0.0129
3337.00,0.0130
3336.00,0.0130
3335.00,0.0131
3334.00,0.0131
3333.00,0.0131
3332.00,0.0131
3331.00,0.0131
3330.00,0.0130
3329.00,0.0129
3328.00,0.0128
3327.00,0.0127
3326.00,0.0126
3325.00,0.0126
3324.00,0.0126
3323.00,0.0126
3322.00,0.0127
3321.00,0.0127
3320.00,0.0127
3319.00,0.0126
3318.00,0.0126
3317.00,0.0125
3316.00,0.0125
3315.00,0.0124
3314.00,0.0124
3313.00,0.0123
3312.00,0.0122
3311.00,0.0120
3310.00,0.0118
3309.00,0.0116
3308.00,0.0115
3307.00,0.0114
3306.00,0.0114
3305.00,0.0115
3304.00,0.0116
3303.00,0.0117
3302.00,0.0118
3301.00,0.0118
3300.00,0.0118
3299.00,0.0117
3298.00,0.0116
3297.00,0.0115
3296.00,0.0114
3295.00,0.0113
3294.00,0.0113
3293.00,0.0113
3292.00,0.0113
3291.00,0.0113
3290.00,0.0114
3289.00,0.0114
3288.00,0.0114
3287.00,0.0114
3286.00,0.0114
3285.00,0.0113
3284.00,0.0113
3283.00,0.0112
3282.00,0.0112
3281.00,0.0111
3280.00,0.0111
3279.00,0.0111
3278.00,0.0110
3277.00,0.0109
3276.00,0.0109
3275.00,0.0108
3274.00,0.0107
3273.00,0.0106
3272.00,0.0106
3271.00,0.0106
3270.00,0.0106
3269.00,0.0106
3268.00,0.0106
3267.00,0.0107
3266.00,0.0106
3265.00,0.0106
3264.00,0.0105
3263.00,0.0105
3262.00,0.0105
3261.00,0.0105
3260.00,0.0105
3259.00,0.0104
3258.00,0.0104
3257.00,0.0103
3256.00,0.0103
3255.00,0.0103
3254.00,0.0103
3253.00,0.0102
3252.00,0.0102
3251.00,0.0101
3250.00,0.0101
3249.00,0.0100
3248.00,0.0099
3247.00,0.0099
3246.00,0.0099
3245.00,0.0099
3244.00,0.0099
3243.00,0.0099
3242.00,0.0099
3241.00,0.0099
3240.00,0.0098
3239.00,0.0098
3238.00,0.0098
3237.00,0.0097
3236.00,0.0096
3235.00,0.0096
3234.00,0.0095
3233.00,0.0095
3232.00,0.0095
3231.00,0.0095
3230.00,0.0095
3229.00,0.0095
3228.00,0.0095
3227.00,0.0095
3226.00,0.0094
3225.00,0.0094
3224.00,0.0094
3223.00,0.0094
3222.00,0.0093
3221.00,0.0093
3220.00,0.0093
3219.00,0.0093
3218.00,0.0092
3217.00,0.0092
3216.00,0.0092
3215.00,0.0091
3214.00,0.0091
3213.00,0.0091
3212.00,0.0091
3211.00,0.0091
3210.00,0.0091
3209.00,0.0091
3208.00,0.0090
3207.00,0.0090
3206.00,0.0090
3205.00,0.0090
3204.00,0.0089
3203.00,0.0089
3202.00,0.0089
3201.00,0.0089
3200.00,0.0089
3199.00,0.0089
3198.00,0.0089
3197.00,0.0089
3196.00,0.0088
3195.00,0.0088
3194.00,0.0088
3193.00,0.0087
3192.00,0.0087
3191.00,0.0087
3190.00,0.0087
3189.00,0.0087
3188.00,0.0087
3187.00,0.0087
3186.00,0.0087
3185.00,0.0087
3184.00,0.0087
3183.00,0.0087
3182.00,0.0086
3181.00,0.0086
3180.00,0.0086
3179.00,0.0085
3178.00,0.0085
3177.00,0.0085
3176.00,0.0085
3175.00,0.0085
3174.00,0.0085
3173.00,0.0085
3172.00,0.0085
3171.00,0.0085
3170.00,0.0085
3169.00,0.0085
3168.00,0.0085
3167.00,0.0085
3166.00,0.0085
3165.00,0.0085
3164.00,0.0085
3163.00,0.0084
3162.00,0.0084
3161.00,0.0084
3160.00,0.0084
3159.00,0.0084
3158.00,0.0084
3157.00,0.0083
3156.00,0.0083
3155.00,0.0083
3154.00,0.0082
3153.00,0.0082
3152.00,0.0082
3151.00,0.0082
3150.00,0.0082
3149.00,0.0082
3148.00,0.0082
3147.00,0.0082
3146.00,0.0082
3145.00,0.0082
3144.00,0.0082
3143.00,0.0082
3142.00,0.0082
3141.00,0.0082
3140.00,0.0082
3139.00,0.0082
3138.00,0.0082
3137.00,0.0082
3136.00,0.0082
3135.00,0.0082
3134.00,0.0082
3133.00,0.0082
3132.00,0.0082
3131.00,0.0082
3130.00,0.0082
3129.00,0.0082
3128.00,0.0082
3127.00,0.0082
3126.00,0.0082
3125.00,0.0082
3124.00,0.0082
3123.00,0.0081
3122.00,0.0081
3121.00,0.0081
3120.00,0.0081
3119.00,0.0081
3118.00,0.0081
3117.00,0.0081
3116.00,0.0081
3115.00,0.0082
3114.00,0.0082
3113.00,0.0082
3112.00,0.0082
3111.00,0.0082
3110.00,0.0081
3109.00,0.0081
3108.00,0.0081
3107.00,0.0081
3106.00,0.0081
3105.00,0.0081
3104.00,0.0081
3103.00,0.0081
3102.00,0.0081
3101.00,0.0081
3100.00,0.0081
3099.00,0.0081
3098.00,0.0081
3097.00,0.0081
3096.00,0.0081
3095.00,0.0081
3094.00,0.0081
3093.00,0.0081
3092.00,0.0081
3091.00,0.0081
3090.00,0.0081
3089.00,0.0080
3088.00,0.0080
3087.00,0.0080
3086.00,0.0080
3085.00,0.0080
3084.00,0.0080
3083.00,0.0080
3082.00,0.0080
3081.00,0.0080
3080.00,0.0080
3079.00,0.0081
3078.00,0.0081
3077.00,0.0081
3076.00,0.0081
3075.00,0.0081
3074.00,0.0081
3073.00,0.0081
3072.00,0.0081
3071.00,0.0081
3070.00,0.0081
3069.00,0.0081
3068.00,0.0081
3067.00,0.0081
3066.00,0.0081
3065.00,0.0081
3064.00,0.0081
3063.00,0.0081
3062.00,0.0081
3061.00,0.0081
3060.00,0.0081
3059.00,0.0081
3058.00,0.0081
3057.00,0.0081
3056.00,0.0081
3055.00,0.0081
3054.00,0.0081
3053.00,0.0081
3052.00,0.0081
3051.00,0.0081
3050.00,0.0081
3049.00,0.0081
3048.00,0.0081
3047.00,0.0081
3046.00,0.0081
3045.00,0.0081
3044.00,0.0081
3043.00,0.0081
3042.00,0.0081
3041.00,0.0081
3040.00,0.0082
3039.00,0.0082
3038.00,0.0082
3037.00,0.0082
3036.00,0.0082
3035.00,0.0082
3034.00,0.0083
3033.00,0.0083
3032.00,0.0083
3031.00,0.0083
3030.00,0.0084
3029.00,0.0084
3028.00,0.0085
3027.00,0.0085
3026.00,0.0086
3025.00,0.0086
3024.00,0.0087
3023.00,0.0087
3022.00,0.0088
3021.00,0.0088
3020.00,0.0089
3019.00,0.0090
3018.00,0.0090
3017.00,0.0091
3016.00,0.0092
3015.00,0.0093
3014.00,0.0094
3013.00,0.0096
3012.00,0.0098
3011.00,0.0099
3010.00,0.0101
3009.00,0.0103
3008.00,0.0106
3007.00,0.0108
3006.00,0.0111
3005.00,0.0113
3004.00,0.0116
3003.00,0.0119
3002.00,0.0122
3001.00,0.0125
3000.00,0.0129
2999.00,0.0132
2998.00,0.0136
2997.00,0.0140
2996.00,0.0144
2995.00,0.0148
2994.00,0.0153
2993.00,0.0157
2992.00,0.0162
2991.00,0.0167
2990.00,0.0172
2989.00,0.0177
2988.00,0.0182
2987.00,0.0186
2986.00,0.0191
2985.00,0.0195
2984.00,0.0200
2983.00,0.0204
2982.00,0.0208
2981.00,0.0212
2980.00,0.0215
2979.00,0.0219
2978.00,0.0222
2977.00,0.0225
2976.00,0.0229
2975.00,0.0232
2974.00,0.0234
2973.00,0.0237
2972.00,0.0240
2971.00,0.0242
2970.00,0.0245
2969.00,0.0247
2968.00,0.0249
2967.00,0.0251
2966.00,0.0254
2965.00,0.0256
2964.00,0.0258
2963.00,0.0261
2962.00,0.0263
2961.00,0.0266
2960.00,0.0268
2959.00,0.0271
2958.00,0.0273
2957.00,0.0276
2956.00,0.0278
2955.00,0.0280
2954.00,0.0282
2953.00,0.0284
2952.00,0.0285
2951.00,0.0286
2950.00,0.0287
2949.00,0.0287
2948.00,0.0287
2947.00,0.0287
2946.00,0.0286
2945.00,0.0285
2944.00,0.0284
2943.00,0.0282
2942.00,0.0280
2941.00,0.0278
2940.00,0.0277
2939.00,0.0275
2938.00,0.0274
2937.00,0.0273
2936.00,0.0272
2935.00,0.0271
2934.00,0.0270
2933.00,0.0270
2932.00,0.0270
2931.00,0.0270
2930.00,0.0271
2929.00,0.0272
2928.00,0.0273
2927.00,0.0274
2926.00,0.0275
2925.00,0.0276
2924.00,0.0277
2923.00,0.0278
2922.00,0.0279
2921.00,0.0279
2920.00,0.0279
2919.00,0.0279
2918.00,0.0278
2917.00,0.0277
2916.00,0.0275
2915.00,0.0273
2914.00,0.0272
2913.00,0.0269
2912.00,0.0267
2911.00,0.0264
2910.00,0.0261
2909.00,0.0258
2908.00,0.0254
2907.00,0.0251
2906.00,0.0249
2905.00,0.0246
2904.00,0.0244
2903.00,0.0243
2902.00,0.0242
2901.00,0.0241
2900.00,0.0241
2899.00,0.0241
2898.00,0.0241
2897.00,0.0241
2896.00,0.0242
2895.00,0.0243
2894.00,0.0244
2893.00,0.0245
2892.00,0.0245
2891.00,0.0246
2890.00,0.0247
2889.00,0.0247
2888.00,0.0248
2887.00,0.0248
2886.00,0.0249
2885.00,0.0249
2884.00,0.0250
2883.00,0.0250
2882.00,0.0250
2881.00,0.0250
2880.00,0.0250
2879.00,0.0250
2878.00,0.0249
2877.00,0.0249
2876.00,0.0248
2875.00,0.0246
2874.00,0.0245
2873.00,0.0244
2872.00,0.0243
2871.00,0.0242
2870.00,0.0240
2869.00,0.0239
2868.00,0.0237
2867.00,0.0235
2866.00,0.0233
2865.00,0.0231
2864.00,0.0229
2863.00,0.0227
2862.00,0.0225
2861.00,0.0222
2860.00,0.0220
2859.00,0.0218
2858.00,0.0216
2857.00,0.0214
2856.00,0.0211
2855.00,0.0208
2854.00,0.0206
2853.00,0.0203
2852.00,0.0199
2851.00,0.0196
2850.00,0.0193
2849.00,0.0189
2848.00,0.0186
2847.00,0.0183
2846.00,0.0181
2845.00,0.0179
2844.00,0.0176
2843.00,0.0174
2842.00,0.0171
2841.00,0.0168
2840.00,0.0165
2839.00,0.0163
2838.00,0.0161
2837.00,0.0159
2836.00,0.0156
2835.00,0.0154
2834.00,0.0152
2833.00,0.0150
2832.00,0.0147
2831.00,0.0144
2830.00,0.0142
2829.00,0.0139
2828.00,0.0136
2827.00,0.0134
2826.00,0.0131
2825.00,0.0129
2824.00,0.0127
2823.00,0.0124
2822.00,0.0122
2821.00,0.0120
2820.00,0.0118
2819.00,0.0117
2818.00,0.0115
2817.00,0.0114
2816.00,0.0112
2815.00,0.0111
2814.00,0.0109
2813.00,0.0108
2812.00,0.0107
2811.00,0.0106
2810.00,0.0106
2809.00,0.0105
2808.00,0.0104
2807.00,0.0104
2806.00,0.0103
2805.00,0.0103
2804.00,0.0102
2803.00,0.0102
2802.00,0.0101
2801.00,0.0101
2800.00,0.0100
2799.00,0.0100
2798.00,0.0100
2797.00,0.0099
2796.00,0.0099
2795.00,0.0099
2794.00,0.0098
2793.00,0.0098
2792.00,0.0098
2791.00,0.0097
2790.00,0.0097
2789.00,0.0096
2788.00,0.0096
2787.00,0.0096
2786.00,0.0096
2785.00,0.0096
2784.00,0.0095
2783.00,0.0095
2782.00,0.0095
2781.00,0.0095
2780.00,0.0094
2779.00,0.0094
2778.00,0.0094
2777.00,0.0093
2776.00,0.0093
2775.00,0.0093
2774.00,0.0092
2773.00,0.0092
2772.00,0.0092
2771.00,0.0092
2770.00,0.0091
2769.00,0.0091
2768.00,0.0091
2767.00,0.0090
2766.00,0.0090
2765.00,0.0090
2764.00,0.0090
2763.00,0.0090
2762.00,0.0090
2761.00,0.0090
2760.00,0.0090
2759.00,0.0089
2758.00,0.0089
2757.00,0.0089
2756.00,0.0089
2755.00,0.0089
2754.00,0.0089
2753.00,0.0089
2752.00,0.0089
2751.00,0.0089
2750.00,0.0089
2749.00,0.0089
2748.00,0.0089
2747.00,0.0088
2746.00,0.0088
2745.00,0.0089
2744.00,0.0089
2743.00,0.0089
2742.00,0.0089
2741.00,0.0089
2740.00,0.0088
2739.00,0.0088
2738.00,0.0088
2737.00,0.0088
2736.00,0.0088
2735.00,0.0088
2734.00,0.0088
2733.00,0.0088
2732.00,0.0088
2731.00,0.0088
2730.00,0.0088
2729.00,0.0088
2728.00,0.0088
2727.00,0.0087
2726.00,0.0087
2725.00,0.0087
2724.00,0.0087
2723.00,0.0087
2722.00,0.0087
2721.00,0.0087
2720.00,0.0087
2719.00,0.0087
2718.00,0.0087
2717.00,0.0086
2716.00,0.0086
2715.00,0.0086
2714.00,0.0086
2713.00,0.0086
2712.00,0.0085
2711.00,0.0085
2710.00,0.0085
2709.00,0.0085
2708.00,0.0085
2707.00,0.0085
2706.00,0.0085
2705.00,0.0085
2704.00,0.0085
2703.00,0.0084
2702.00,0.0084
2701.00,0.0085
2700.00,0.0085
2699.00,0.0085
2698.00,0.0084
2697.00,0.0084
2696.00,0.0084
2695.00,0.0084
2694.00,0.0084
2693.00,0.0084
2692.00,0.0083
2691.00,0.0083
2690.00,0.0083
2689.00,0.0083
2688.00,0.0083
2687.00,0.0083
2686.00,0.0083
2685.00,0.0083
2684.00,0.0083
2683.00,0.0083
2682.00,0.0083
2681.00,0.0083
2680.00,0.0083
2679.00,0.0083
2678.00,0.0083
2677.00,0.0083
2676.00,0.0083
2675.00,0.0083
2674.00,0.0082
2673.00,0.0082
2672.00,0.0083
2671.00,0.0083
2670.00,0.0083
2669.00,0.0083
2668.00,0.0083
2667.00,0.0083
2666.00,0.0084
2665.00,0.0084
2664.00,0.0085
2663.00,0.0085
2662.00,0.0086
2661.00,0.0086
2660.00,0.0087
2659.00,0.0087
2658.00,0.0087
2657.00,0.0087
2656.00,0.0088
2655.00,0.0088
2654.00,0.0087
2653.00,0.0087
2652.00,0.0087
2651.00,0.0087
2650.00,0.0087
2649.00,0.0087
2648.00,0.0087
2647.00,0.0088
2646.00,0.0088
2645.00,0.0088
2644.00,0.0088
2643.00,0.0088
2642.00,0.0087
2641.00,0.0087
2640.00,0.0087
2639.00,0.0087
2638.00,0.0087
2637.00,0.0087
2636.00,0.0087
2635.00,0.0087
2634.00,0.0087
2633.00,0.0086
2632.00,0.0086
2631.00,0.0086
2630.00,0.0086
2629.00,0.0086
2628.00,0.0086
2627.00,0.0086
2626.00,0.0086
2625.00,0.0086
2624.00,0.0085
2623.00,0.0085
2622.00,0.0085
2621.00,0.0085
2620.00,0.0085
2619.00,0.0085
2618.00,0.0085
2617.00,0.0085
2616.00,0.0085
2615.00,0.0085
2614.00,0.0084
2613.00,0.0084
2612.00,0.0084
2611.00,0.0084
2610.00,0.0084
2609.00,0.0084
2608.00,0.0084
2607.00,0.0084
2606.00,0.0084
2605.00,0.0084
2604.00,0.0083
2603.00,0.0083
2602.00,0.0083
2601.00,0.0083
2600.00,0.0083
2599.00,0.0083
2598.00,0.0083
2597.00,0.0082
2596.00,0.0082
2595.00,0.0082
2594.00,0.0083
2593.00,0.0083
2592.00,0.0083
2591.00,0.0084
2590.00,0.0084
2589.00,0.0084
2588.00,0.0084
2587.00,0.0084
2586.00,0.0084
2585.00,0.0084
2584.00,0.0084
2583.00,0.0084
2582.00,0.0084
2581.00,0.0084
2580.00,0.0084
2579.00,0.0084
2578.00,0.0083
2577.00,0.0083
2576.00,0.0083
2575.00,0.0084
2574.00,0.0084
2573.00,0.0083
2572.00,0.0083
2571.00,0.0083
2570.00,0.0083
2569.00,0.0083
2568.00,0.0083
2567.00,0.0083
2566.00,0.0083
2565.00,0.0083
2564.00,0.0083
2563.00,0.0083
2562.00,0.0083
2561.00,0.0082
2560.00,0.0082
2559.00,0.0082
2558.00,0.0082
2557.00,0.0082
2556.00,0.0082
2555.00,0.0082
2554.00,0.0082
2553.00,0.0082
2552.00,0.0082
2551.00,0.0081
2550.00,0.0081
2549.00,0.0081
2548.00,0.0081
2547.00,0.0081
2546.00,0.0081
2545.00,0.0080
2544.00,0.0080
2543.00,0.0080
2542.00,0.0080
2541.00,0.0080
2540.00,0.0080
2539.00,0.0080
2538.00,0.0080
2537.00,0.0080
2536.00,0.0080
2535.00,0.0080
2534.00,0.0080
2533.00,0.0080
2532.00,0.0079
2531.00,0.0079
2530.00,0.0079
2529.00,0.0079
2528.00,0.0079
2527.00,0.0078
2526.00,0.0078
2525.00,0.0078
2524.00,0.0078
2523.00,0.0078
2522.00,0.0077
2521.00,0.0077
2520.00,0.0077
2519.00,0.0077
2518.00,0.0077
2517.00,0.0077
2516.00,0.0077
2515.00,0.0077
2514.00,0.0077
2513.00,0.0077
2512.00,0.0077
2511.00,0.0077
2510.00,0.0077
2509.00,0.0077
2508.00,0.0077
2507.00,0.0077
2506.00,0.0077
2505.00,0.0077
2504.00,0.0077
2503.00,0.0077
2502.00,0.0077
2501.00,0.0076
2500.00,0.0076
2499.00,0.0076
2498.00,0.0077
2497.00,0.0077
2496.00,0.0077
2495.00,0.0077
2494.00,0.0077
2493.00,0.0077
2492.00,0.0077
2491.00,0.0077
2490.00,0.0076
2489.00,0.0076
2488.00,0.0077
2487.00,0.0077
2486.00,0.0076
2485.00,0.0076
2484.00,0.0076
2483.00,0.0076
2482.00,0.0076
2481.00,0.0076
2480.00,0.0076
2479.00,0.0076
2478.00,0.0076
2477.00,0.0075
2476.00,0.0076
2475.00,0.0075
2474.00,0.0075
2473.00,0.0075
2472.00,0.0075
2471.00,0.0075
2470.00,0.0075
2469.00,0.0075
2468.00,0.0075
2467.00,0.0075
2466.00,0.0075
2465.00,0.0075
2464.00,0.0075
2463.00,0.0076
2462.00,0.0076
2461.00,0.0076
2460.00,0.0077
2459.00,0.0077
2458.00,0.0077
2457.00,0.0078
2456.00,0.0078
2455.00,0.0078
2454.00,0.0078
2453.00,0.0077
2452.00,0.0077
2451.00,0.0077
2450.00,0.0077
2449.00,0.0077
2448.00,0.0077
2447.00,0.0076
2446.00,0.0076
2445.00,0.0076
2444.00,0.0075
2443.00,0.0076
2442.00,0.0076
2441.00,0.0076
2440.00,0.0076
2439.00,0.0076
2438.00,0.0076
2437.00,0.0076
2436.00,0.0076
2435.00,0.0075
2434.00,0.0075
2433.00,0.0075
2432.00,0.0076
2431.00,0.0076
2430.00,0.0076
2429.00,0.0076
2428.00,0.0076
2427.00,0.0076
2426.00,0.0076
2425.00,0.0076
2424.00,0.0076
2423.00,0.0076
2422.00,0.0075
2421.00,0.0075
2420.00,0.0075
2419.00,0.0075
2418.00,0.0076
2417.00,0.0076
2416.00,0.0076
2415.00,0.0076
2414.00,0.0076
2413.00,0.0075
2412.00,0.0076
2411.00,0.0076
2410.00,0.0075
2409.00,0.0075
2408.00,0.0075
2407.00,0.0074
2406.00,0.0074
2405.00,0.0074
2404.00,0.0074
2403.00,0.0074
2402.00,0.0074
2401.00,0.0074
2400.00,0.0074
2399.00,0.0073
2398.00,0.0073
2397.00,0.0073
2396.00,0.0073
2395.00,0.0073
2394.00,0.0073
2393.00,0.0073
2392.00,0.0073
2391.00,0.0073
2390.00,0.0073
2389.00,0.0072
2388.00,0.0072
2387.00,0.0071
2386.00,0.0070
2385.00,0.0069
2384.00,0.0069
2383.00,0.0068
2382.00,0.0067
2381.00,0.0067
2380.00,0.0066
2379.00,0.0066
2378.00,0.0067
2377.00,0.0067
2376.00,0.0067
2375.00,0.0068
2374.00,0.0068
2373.00,0.0068
2372.00,0.0068
2371.00,0.0067
2370.00,0.0067
2369.00,0.0066
2368.00,0.0066
2367.00,0.0066
2366.00,0.0066
2365.00,0.0067
2364.00,0.0067
2363.00,0.0068
2362.00,0.0068
2361.00,0.0068
2360.00,0.0068
2359.00,0.0068
2358.00,0.0069
2357.00,0.0069
2356.00,0.0070
2355.00,0.0070
2354.00,0.0070
2353.00,0.0070
2352.00,0.0070
2351.00,0.0070
2350.00,0.0070
2349.00,0.0071
2348.00,0.0072
2347.00,0.0073
2346.00,0.0073
2345.00,0.0073
2344.00,0.0072
2343.00,0.0072
2342.00,0.0072
2341.00,0.0073
2340.00,0.0074
2339.00,0.0075
2338.00,0.0075
2337.00,0.0075
2336.00,0.0075
2335.00,0.0075
2334.00,0.0074
2333.00,0.0074
2332.00,0.0074
2331.00,0.0074
2330.00,0.0075
2329.00,0.0077
2328.00,0.0080
2327.00,0.0084
2326.00,0.0088
2325.00,0.0089
2324.00,0.0087
2323.00,0.0085
2322.00,0.0083
2321.00,0.0082
2320.00,0.0081
2319.00,0.0080
2318.00,0.0079
2317.00,0.0079
2316.00,0.0078
2315.00,0.0078
2314.00,0.0077
2313.00,0.0076
2312.00,0.0076
2311.00,0.0075
2310.00,0.0075
2309.00,0.0075
2308.00,0.0075
2307.00,0.0075
2306.00,0.0075
2305.00,0.0075
2304.00,0.0075
2303.00,0.0076
2302.00,0.0076
2301.00,0.0076
2300.00,0.0077
2299.00,0.0078
2298.00,0.0078
2297.00,0.0079
2296.00,0.0080
2295.00,0.0080
2294.00,0.0081
2293.00,0.0082
2292.00,0.0083
2291.00,0.0084
2290.00,0.0085
2289.00,0.0086
2288.00,0.0086
2287.00,0.0087
2286.00,0.0087
2285.00,0.0086
2284.00,0.0085
2283.00,0.0085
2282.00,0.0084
2281.00,0.0084
2280.00,0.0083
2279.00,0.0082
2278.00,0.0082
2277.00,0.0081
2276.00,0.0081
2275.00,0.0081
2274.00,0.0081
2273.00,0.0081
2272.00,0.0082
2271.00,0.0081
2270.00,0.0081
2269.00,0.0079
2268.00,0.0078
2267.00,0.0077
2266.00,0.0077
2265.00,0.0076
2264.00,0.0077
2263.00,0.0078
2262.00,0.0078
2261.00,0.0079
2260.00,0.0079
2259.00,0.0079
2258.00,0.0078
2257.00,0.0077
2256.00,0.0075
2255.00,0.0074
2254.00,0.0073
2253.00,0.0074
2252.00,0.0076
2251.00,0.0077
2250.00,0.0078
2249.00,0.0078
2248.00,0.0077
2247.00,0.0077
2246.00,0.0077
2245.00,0.0077
2244.00,0.0077
2243.00,0.0077
2242.00,0.0077
2241.00,0.0076
2240.00,0.0076
2239.00,0.0077
2238.00,0.0077
2237.00,0.0077
2236.00,0.0078
2235.00,0.0077
2234.00,0.0077
2233.00,0.0076
2232.00,0.0076
2231.00,0.0076
2230.00,0.0076
2229.00,0.0076
2228.00,0.0076
2227.00,0.0077
2226.00,0.0078
2225.00,0.0078
2224.00,0.0078
2223.00,0.0077
2222.00,0.0077
2221.00,0.0077
2220.00,0.0077
2219.00,0.0077
2218.00,0.0077
2217.00,0.0078
2216.00,0.0078
2215.00,0.0077
2214.00,0.0076
2213.00,0.0076
2212.00,0.0076
2211.00,0.0077
2210.00,0.0077
2209.00,0.0077
2208.00,0.0077
2207.00,0.0078
2206.00,0.0077
2205.00,0.0077
2204.00,0.0077
2203.00,0.0077
2202.00,0.0076
2201.00,0.0075
2200.00,0.0075
2199.00,0.0076
2198.00,0.0076
2197.00,0.0077
2196.00,0.0078
2195.00,0.0078
2194.00,0.0078
2193.00,0.0078
2192.00,0.0078
2191.00,0.0078
2190.00,0.0078
2189.00,0.0079
2188.00,0.0081
2187.00,0.0082
2186.00,0.0081
2185.00,0.0080
2184.00,0.0078
2183.00,0.0075
2182.00,0.0074
2181.00,0.0074
2180.00,0.0075
2179.00,0.0075
2178.00,0.0073
2177.00,0.0070
2176.00,0.0068
2175.00,0.0067
2174.00,0.0069
2173.00,0.0072
2172.00,0.0075
2171.00,0.0078
2170.00,0.0080
2169.00,0.0083
2168.00,0.0086
2167.00,0.0088
2166.00,0.0088
2165.00,0.0089
2164.00,0.0091
2163.00,0.0090
2162.00,0.0085
2161.00,0.0073
2160.00,0.0057
2159.00,0.0044
2158.00,0.0037
2157.00,0.0036
2156.00,0.0040
2155.00,0.0045
2154.00,0.0049
2153.00,0.0052
2152.00,0.0053
2151.00,0.0054
2150.00,0.0055
2149.00,0.0055
2148.00,0.0056
2147.00,0.0056
2146.00,0.0055
2145.00,0.0053
2144.00,0.0053
2143.00,0.0054
2142.00,0.0055
2141.00,0.0057
2140.00,0.0058
2139.00,0.0058
2138.00,0.0056
2137.00,0.0054
2136.00,0.0051
2135.00,0.0050
2134.00,0.0049
2133.00,0.0050
2132.00,0.0053
2131.00,0.0056
2130.00,0.0058
2129.00,0.0060
2128.00,0.0063
2127.00,0.0064
2126.00,0.0065
2125.00,0.0066
2124.00,0.0066
2123.00,0.0067
2122.00,0.0067
2121.00,0.0068
2120.00,0.0069
2119.00,0.0070
2118.00,0.0071
2117.00,0.0072
2116.00,0.0074
2115.00,0.0075
2114.00,0.0075
2113.00,0.0075
2112.00,0.0075
2111.00,0.0075
2110.00,0.0074
2109.00,0.0074
2108.00,0.0073
2107.00,0.0073
2106.00,0.0072
2105.00,0.0072
2104.00,0.0072
2103.00,0.0072
2102.00,0.0072
2101.00,0.0073
2100.00,0.0074
2099.00,0.0074
2098.00,0.0072
2097.00,0.0070
2096.00,0.0068
2095.00,0.0067
2094.00,0.0067
2093.00,0.0068
2092.00,0.0069
2091.00,0.0070
2090.00,0.0070
2089.00,0.0070
2088.00,0.0071
2087.00,0.0071
2086.00,0.0071
2085.00,0.0072
2084.00,0.0073
2083.00,0.0074
2082.00,0.0074
2081.00,0.0074
2080.00,0.0073
2079.00,0.0073
2078.00,0.0073
2077.00,0.0072
2076.00,0.0072
2075.00,0.0072
2074.00,0.0071
2073.00,0.0072
2072.00,0.0072
2071.00,0.0072
2070.00,0.0072
2069.00,0.0072
2068.00,0.0072
2067.00,0.0072
2066.00,0.0071
2065.00,0.0070
2064.00,0.0070
2063.00,0.0069
2062.00,0.0069
2061.00,0.0069
2060.00,0.0069
2059.00,0.0070
2058.00,0.0070
2057.00,0.0070
2056.00,0.0070
2055.00,0.0070
2054.00,0.0073
2053.00,0.0076
2052.00,0.0080
2051.00,0.0080
2050.00,0.0077
2049.00,0.0074
2048.00,0.0073
2047.00,0.0073
2046.00,0.0073
2045.00,0.0073
2044.00,0.0073
2043.00,0.0073
2042.00,0.0072
2041.00,0.0071
2040.00,0.0071
2039.00,0.0072
2038.00,0.0070
2037.00,0.0069
2036.00,0.0067
2035.00,0.0065
2034.00,0.0063
2033.00,0.0062
2032.00,0.0062
2031.00,0.0063
2030.00,0.0063
2029.00,0.0063
2028.00,0.0062
2027.00,0.0062
2026.00,0.0061
2025.00,0.0061
2024.00,0.0062
2023.00,0.0063
2022.00,0.0063
2021.00,0.0062
2020.00,0.0062
2019.00,0.0062
2018.00,0.0062
2017.00,0.0062
2016.00,0.0063
2015.00,0.0063
2014.00,0.0063
2013.00,0.0064
2012.00,0.0066
2011.00,0.0067
2010.00,0.0065
2009.00,0.0063
2008.00,0.0060
2007.00,0.0056
2006.00,0.0054
2005.00,0.0054
2004.00,0.0056
2003.00,0.0058
2002.00,0.0059
2001.00,0.0060
2000.00,0.0062
1999.00,0.0063
1998.00,0.0063
1997.00,0.0063
1996.00,0.0063
1995.00,0.0064
1994.00,0.0065
1993.00,0.0066
1992.00,0.0066
1991.00,0.0066
1990.00,0.0065
1989.00,0.0066
1988.00,0.0067
1987.00,0.0068
1986.00,0.0069
1985.00,0.0070
1984.00,0.0072
1983.00,0.0075
1982.00,0.0078
1981.00,0.0078
1980.00,0.0075
1979.00,0.0069
1978.00,0.0061
1977.00,0.0055
1976.00,0.0054
1975.00,0.0054
1974.00,0.0055
1973.00,0.0056
1972.00,0.0057
1971.00,0.0056
1970.00,0.0053
1969.00,0.0052
1968.00,0.0053
1967.00,0.0054
1966.00,0.0055
1965.00,0.0056
1964.00,0.0055
1963.00,0.0054
1962.00,0.0052
1961.00,0.0050
1960.00,0.0050
1959.00,0.0050
1958.00,0.0050
1957.00,0.0051
1956.00,0.0053
1955.00,0.0055
1954.00,0.0056
1953.00,0.0056
1952.00,0.0056
1951.00,0.0056
1950.00,0.0056
1949.00,0.0056
1948.00,0.0056
1947.00,0.0056
1946.00,0.0055
1945.00,0.0055
1944.00,0.0056
1943.00,0.0056
1942.00,0.0056
1941.00,0.0055
1940.00,0.0056
1939.00,0.0056
1938.00,0.0056
1937.00,0.0056
1936.00,0.0057
1935.00,0.0057
1934.00,0.0057
1933.00,0.0057
1932.00,0.0058
1931.00,0.0058
1930.00,0.0057
1929.00,0.0056
1928.00,0.0056
1927.00,0.0056
1926.00,0.0056
1925.00,0.0057
1924.00,0.0058
1923.00,0.0059
1922.00,0.0059
1921.00,0.0059
1920.00,0.0059
1919.00,0.0059
1918.00,0.0058
1917.00,0.0058
1916.00,0.0058
1915.00,0.0059
1914.00,0.0059
1913.00,0.0059
1912.00,0.0059
1911.00,0.0059
1910.00,0.0059
1909.00,0.0059
1908.00,0.0059
1907.00,0.0059
1906.00,0.0059
1905.00,0.0058
1904.00,0.0058
1903.00,0.0058
1902.00,0.0057
1901.00,0.0057
1900.00,0.0057
1899.00,0.0057
1898.00,0.0057
1897.00,0.0058
1896.00,0.0058
1895.00,0.0058
1894.00,0.0058
1893.00,0.0057
1892.00,0.0058
1891.00,0.0058
1890.00,0.0058
1889.00,0.0057
1888.00,0.0057
1887.00,0.0057
1886.00,0.0056
1885.00,0.0056
1884.00,0.0056
1883.00,0.0056
1882.00,0.0056
1881.00,0.0057
1880.00,0.0057
1879.00,0.0057
1878.00,0.0057
1877.00,0.0057
1876.00,0.0057
1875.00,0.0057
1874.00,0.0057
1873.00,0.0057
1872.00,0.0058
1871.00,0.0058
1870.00,0.0058
1869.00,0.0058
1868.00,0.0058
1867.00,0.0058
1866.00,0.0057
1865.00,0.0058
1864.00,0.0058
1863.00,0.0058
1862.00,0.0058
1861.00,0.0058
1860.00,0.0058
1859.00,0.0058
1858.00,0.0058
1857.00,0.0057
1856.00,0.0057
1855.00,0.0058
1854.00,0.0057
1853.00,0.0057
1852.00,0.0058
1851.00,0.0058
1850.00,0.0057
1849.00,0.0058
1848.00,0.0058
1847.00,0.0059
1846.00,0.0059
1845.00,0.0058
1844.00,0.0058
1843.00,0.0058
1842.00,0.0057
1841.00,0.0057
1840.00,0.0057
1839.00,0.0057
1838.00,0.0057
1837.00,0.0057
1836.00,0.0057
1835.00,0.0057
1834.00,0.0057
1833.00,0.0057
1832.00,0.0057
1831.00,0.0057
1830.00,0.0057
1829.00,0.0057
1828.00,0.0057
1827.00,0.0057
1826.00,0.0057
1825.00,0.0057
1824.00,0.0057
1823.00,0.0057
1822.00,0.0056
1821.00,0.0055
1820.00,0.0055
1819.00,0.0053
1818.00,0.0052
1817.00,0.0052
1816.00,0.0052
1815.00,0.0053
1814.00,0.0054
1813.00,0.0055
1812.00,0.0055
1811.00,0.0055
1810.00,0.0055
1809.00,0.0055
1808.00,0.0056
1807.00,0.0056
1806.00,0.0056
1805.00,0.0056
1804.00,0.0056
1803.00,0.0057
1802.00,0.0056
1801.00,0.0056
1800.00,0.0056
1799.00,0.0056
1798.00,0.0056
1797.00,0.0056
1796.00,0.0056
1795.00,0.0057
1794.00,0.0056
1793.00,0.0057
1792.00,0.0057
1791.00,0.0057
1790.00,0.0057
1789.00,0.0057
1788.00,0.0057
1787.00,0.0057
1786.00,0.0057
1785.00,0.0057
1784.00,0.0058
1783.00,0.0059
1782.00,0.0059
1781.00,0.0059
1780.00,0.0059
1779.00,0.0059
1778.00,0.0059
1777.00,0.0059
1776.00,0.0060
1775.00,0.0061
1774.00,0.0061
1773.00,0.0061
1772.00,0.0062
1771.00,0.0062
1770.00,0.0062
1769.00,0.0062
1768.00,0.0062
1767.00,0.0063
1766.00,0.0062
1765.00,0.0062
1764.00,0.0063
1763.00,0.0063
1762.00,0.0063
1761.00,0.0063
1760.00,0.0063
1759.00,0.0063
1758.00,0.0063
1757.00,0.0064
1756.00,0.0064
1755.00,0.0065
1754.00,0.0065
1753.00,0.0065
1752.00,0.0066
1751.00,0.0067
1750.00,0.0067
1749.00,0.0068
1748.00,0.0069
1747.00,0.0069
1746.00,0.0070
1745.00,0.0070
1744.00,0.0071
1743.00,0.0072
1742.00,0.0072
1741.00,0.0073
1740.00,0.0074
1739.00,0.0075
1738.00,0.0075
1737.00,0.0076
1736.00,0.0078
1735.00,0.0080
1734.00,0.0081
1733.00,0.0082
1732.00,0.0084
1731.00,0.0085
1730.00,0.0086
1729.00,0.0087
1728.00,0.0089
1727.00,0.0091
1726.00,0.0093
1725.00,0.0095
1724.00,0.0099
1723.00,0.0102
1722.00,0.0105
1721.00,0.0108
1720.00,0.0112
1719.00,0.0118
1718.00,0.0123
1717.00,0.0130
1716.00,0.0137
1715.00,0.0144
1714.00,0.0151
1713.00,0.0159
1712.00,0.0169
1711.00,0.0180
1710.00,0.0192
1709.00,0.0205
1708.00,0.0222
1707.00,0.0241
1706.00,0.0262
1705.00,0.0287
1704.00,0.0311
1703.00,0.0334
1702.00,0.0359
1701.00,0.0396
1700.00,0.0445
1699.00,0.0489
1698.00,0.0526
1697.00,0.0565
1696.00,0.0617
1695.00,0.0674
1694.00,0.0724
1693.00,0.0769
1692.00,0.0815
1691.00,0.0866
1690.00,0.0921
1689.00,0.0977
1688.00,0.1029
1687.00,0.1077
1686.00,0.1127
1685.00,0.1190
1684.00,0.1265
1683.00,0.1332
1682.00,0.1383
1681.00,0.1428
1680.00,0.1472
1679.00,0.1517
1678.00,0.1557
1677.00,0.1597
1676.00,0.1640
1675.00,0.1684
1674.00,0.1722
1673.00,0.1751
1672.00,0.1777
1671.00,0.1801
1670.00,0.1823
1669.00,0.1843
1668.00,0.1859
1667.00,0.1870
1666.00,0.1876
1665.00,0.1879
1664.00,0.1880
1663.00,0.1878
1662.00,0.1872
1661.00,0.1864
1660.00,0.1854
1659.00,0.1840
1658.00,0.1824
1657.00,0.1806
1656.00,0.1787
1655.00,0.1762
1654.00,0.1726
1653.00,0.1678
1652.00,0.1630
1651.00,0.1591
1650.00,0.1554
1649.00,0.1510
1648.00,0.1458
1647.00,0.1396
1646.00,0.1332
1645.00,0.1274
1644.00,0.1222
1643.00,0.1172
1642.00,0.1123
1641.00,0.1075
1640.00,0.1029
1639.00,0.0987
1638.00,0.0948
1637.00,0.0908
1636.00,0.0866
1635.00,0.0828
1634.00,0.0795
1633.00,0.0766
1632.00,0.0739
1631.00,0.0712
1630.00,0.0686
1629.00,0.0660
1628.00,0.0635
1627.00,0.0612
1626.00,0.0591
1625.00,0.0570
1624.00,0.0549
1623.00,0.0529
1622.00,0.0511
1621.00,0.0494
1620.00,0.0478
1619.00,0.0462
1618.00,0.0447
1617.00,0.0432
1616.00,0.0417
1615.00,0.0404
1614.00,0.0393
1613.00,0.0381
1612.00,0.0369
1611.00,0.0358
1610.00,0.0348
1609.00,0.0338
1608.00,0.0328
1607.00,0.0319
1606.00,0.0311
1605.00,0.0303
1604.00,0.0296
1603.00,0.0288
1602.00,0.0282
1601.00,0.0275
1600.00,0.0269
1599.00,0.0262
1598.00,0.0257
1597.00,0.0252
1596.00,0.0246
1595.00,0.0241
1594.00,0.0237
1593.00,0.0232
1592.00,0.0228
1591.00,0.0224
1590.00,0.0220
1589.00,0.0216
1588.00,0.0212
1587.00,0.0209
1586.00,0.0206
1585.00,0.0202
1584.00,0.0199
1583.00,0.0196
1582.00,0.0193
1581.00,0.0191
1580.00,0.0188
1579.00,0.0185
1578.00,0.0183
1577.00,0.0181
1576.00,0.0179
1575.00,0.0177
1574.00,0.0175
1573.00,0.0173
1572.00,0.0171
1571.00,0.0169
1570.00,0.0167
1569.00,0.0166
1568.00,0.0164
1567.00,0.0163
1566.00,0.0162
1565.00,0.0160
1564.00,0.0159
1563.00,0.0158
1562.00,0.0157
1561.00,0.0156
1560.00,0.0155
1559.00,0.0155
1558.00,0.0154
1557.00,0.0153
1556.00,0.0152
1555.00,0.0151
1554.00,0.0150
1553.00,0.0149
1552.00,0.0148
1551.00,0.0147
1550.00,0.0146
1549.00,0.0145
1548.00,0.0144
1547.00,0.0144
1546.00,0.0143
1545.00,0.0143
1544.00,0.0143
1543.00,0.0142
1542.00,0.0142
1541.00,0.0142
1540.00,0.0141
1539.00,0.0140
1538.00,0.0140
1537.00,0.0139
1536.00,0.0138
1535.00,0.0137
1534.00,0.0137
1533.00,0.0137
1532.00,0.0136
1531.00,0.0136
1530.00,0.0135
1529.00,0.0135
1528.00,0.0135
1527.00,0.0135
1526.00,0.0135
1525.00,0.0135
1524.00,0.0135
1523.00,0.0135
1522.00,0.0135
1521.00,0.0136
1520.00,0.0136
1519.00,0.0137
1518.00,0.0137
1517.00,0.0138
1516.00,0.0139
1515.00,0.0140
1514.00,0.0142
1513.00,0.0144
1512.00,0.0147
1511.00,0.0150
1510.00,0.0155
1509.00,0.0159
1508.00,0.0166
1507.00,0.0177
1506.00,0.0189
1505.00,0.0201
1504.00,0.0212
1503.00,0.0223
1502.00,0.0235
1501.00,0.0250
1500.00,0.0267
1499.00,0.0284
1498.00,0.0302
1497.00,0.0319
1496.00,0.0334
1495.00,0.0346
1494.00,0.0353
1493.00,0.0357
1492.00,0.0357
1491.00,0.0353
1490.00,0.0346
1489.00,0.0335
1488.00,0.0321
1487.00,0.0305
1486.00,0.0289
1485.00,0.0274
1484.00,0.0260
1483.00,0.0246
1482.00,0.0235
1481.00,0.0226
1480.00,0.0219
1479.00,0.0215
1478.00,0.0213
1477.00,0.0215
1476.00,0.0219
1475.00,0.0226
1474.00,0.0237
1473.00,0.0254
1472.00,0.0277
1471.00,0.0301
1470.00,0.0327
1469.00,0.0355
1468.00,0.0387
1467.00,0.0422
1466.00,0.0463
1465.00,0.0508
1464.00,0.0550
1463.00,0.0584
1462.00,0.0608
1461.00,0.0623
1460.00,0.0631
1459.00,0.0630
1458.00,0.0617
1457.00,0.0593
1456.00,0.0563
1455.00,0.0536
1454.00,0.0513
1453.00,0.0493
1452.00,0.0476
1451.00,0.0463
1450.00,0.0456
1449.00,0.0454
1448.00,0.0458
1447.00,0.0467
1446.00,0.0481
1445.00,0.0498
1444.00,0.0520
1443.00,0.0546
1442.00,0.0576
1441.00,0.0608
1440.00,0.0640
1439.00,0.0673
1438.00,0.0709
1437.00,0.0749
1436.00,0.0790
1435.00,0.0823
1434.00,0.0847
1433.00,0.0869
1432.00,0.0889
1431.00,0.0910
1430.00,0.0933
1429.00,0.0959
1428.00,0.0989
1427.00,0.1021
1426.00,0.1056
1425.00,0.1095
1424.00,0.1134
1423.00,0.1166
1422.00,0.1188
1421.00,0.1198
1420.00,0.1195
1419.00,0.1172
1418.00,0.1133
1417.00,0.1085
1416.00,0.1028
1415.00,0.0964
1414.00,0.0897
1413.00,0.0830
1412.00,0.0764
1411.00,0.0700
1410.00,0.0643
1409.00,0.0593
1408.00,0.0549
1407.00,0.0509
1406.00,0.0475
1405.00,0.0444
1404.00,0.0416
1403.00,0.0393
1402.00,0.0375
1401.00,0.0359
1400.00,0.0344
1399.00,0.0332
1398.00,0.0322
1397.00,0.0314
1396.00,0.0307
1395.00,0.0302
1394.00,0.0298
1393.00,0.0297
1392.00,0.0296
1391.00,0.0297
1390.00,0.0299
1389.00,0.0304
1388.00,0.0309
1387.00,0.0317
1386.00,0.0325
1385.00,0.0334
1384.00,0.0343
1383.00,0.0353
1382.00,0.0365
1381.00,0.0377
1380.00,0.0389
1379.00,0.0401
1378.00,0.0412
1377.00,0.0422
1376.00,0.0430
1375.00,0.0437
1374.00,0.0443
1373.00,0.0446
1372.00,0.0446
1371.00,0.0444
1370.00,0.0441
1369.00,0.0436
1368.00,0.0430
1367.00,0.0421
1366.00,0.0412
1365.00,0.0402
1364.00,0.0390
1363.00,0.0376
1362.00,0.0363
1361.00,0.0349
1360.00,0.0336
1359.00,0.0324
1358.00,0.0313
1357.00,0.0303
1356.00,0.0293
1355.00,0.0285
1354.00,0.0277
1353.00,0.0270
1352.00,0.0264
1351.00,0.0258
1350.00,0.0253
1349.00,0.0249
1348.00,0.0244
1347.00,0.0240
1346.00,0.0237
1345.00,0.0235
1344.00,0.0233
1343.00,0.0231
1342.00,0.0231
1341.00,0.0230
1340.00,0.0230
1339.00,0.0231
1338.00,0.0232
1337.00,0.0234
1336.00,0.0236
1335.00,0.0239
1334.00,0.0242
1333.00,0.0246
1332.00,0.0251
1331.00,0.0256
1330.00,0.0263
1329.00,0.0272
1328.00,0.0281
1327.00,0.0291
1326.00,0.0304
1325.00,0.0317
1324.00,0.0331
1323.00,0.0346
1322.00,0.0362
1321.00,0.0378
1320.00,0.0392
1319.00,0.0406
1318.00,0.0418
1317.00,0.0427
1316.00,0.0433
1315.00,0.0436
1314.00,0.0436
1313.00,0.0432
1312.00,0.0426
1311.00,0.0419
1310.00,0.0411
1309.00,0.0404
1308.00,0.0397
1307.00,0.0393
1306.00,0.0391
1305.00,0.0392
1304.00,0.0395
1303.00,0.0403
1302.00,0.0415
1301.00,0.0431
1300.00,0.0452
1299.00,0.0479
1298.00,0.0514
1297.00,0.0555
1296.00,0.0604
1295.00,0.0661
1294.00,0.0724
1293.00,0.0792
1292.00,0.0863
1291.00,0.0935
1290.00,0.1006
1289.00,0.1074
1288.00,0.1134
1287.00,0.1184
1286.00,0.1221
1285.00,0.1246
1284.00,0.1257
1283.00,0.1255
1282.00,0.1242
1281.00,0.1223
1280.00,0.1202
1279.00,0.1182
1278.00,0.1168
1277.00,0.1161
1276.00,0.1161
1275.00,0.1169
1274.00,0.1182
1273.00,0.1198
1272.00,0.1213
1271.00,0.1225
1270.00,0.1232
1269.00,0.1232
1268.00,0.1224
1267.00,0.1209
1266.00,0.1185
1265.00,0.1156
1264.00,0.1121
1263.00,0.1082
1262.00,0.1040
1261.00,0.0997
1260.00,0.0954
1259.00,0.0912
1258.00,0.0872
1257.00,0.0834
1256.00,0.0799
1255.00,0.0766
1254.00,0.0737
1253.00,0.0710
1252.00,0.0686
1251.00,0.0665
1250.00,0.0646
1249.00,0.0630
1248.00,0.0616
1247.00,0.0604
1246.00,0.0594
1245.00,0.0586
1244.00,0.0580
1243.00,0.0576
1242.00,0.0574
1241.00,0.0573
1240.00,0.0574
1239.00,0.0576
1238.00,0.0581
1237.00,0.0586
1236.00,0.0592
1235.00,0.0599
1234.00,0.0606
1233.00,0.0613
1232.00,0.0619
1231.00,0.0624
1230.00,0.0629
1229.00,0.0632
1228.00,0.0633
1227.00,0.0632
1226.00,0.0630
1225.00,0.0627
1224.00,0.0622
1223.00,0.0616
1222.00,0.0610
1221.00,0.0603
1220.00,0.0595
1219.00,0.0587
1218.00,0.0578
1217.00,0.0568
1216.00,0.0557
1215.00,0.0546
1214.00,0.0535
1213.00,0.0524
1212.00,0.0513
1211.00,0.0502
1210.00,0.0492
1209.00,0.0483
1208.00,0.0474
1207.00,0.0466
1206.00,0.0458
1205.00,0.0450
1204.00,0.0443
1203.00,0.0436
1202.00,0.0431
1201.00,0.0425
1200.00,0.0419
1199.00,0.0414
1198.00,0.0409
1197.00,0.0404
1196.00,0.0399
1195.00,0.0395
1194.00,0.0391
1193.00,0.0387
1192.00,0.0384
1191.00,0.0380
1190.00,0.0378
1189.00,0.0375
1188.00,0.0373
1187.00,0.0371
1186.00,0.0370
1185.00,0.0370
1184.00,0.0369
1183.00,0.0369
1182.00,0.0369
1181.00,0.0370
1180.00,0.0371
1179.00,0.0373
1178.00,0.0376
1177.00,0.0380
1176.00,0.0384
1175.00,0.0389
1174.00,0.0396
1173.00,0.0402
1172.00,0.0408
1171.00,0.0414
1170.00,0.0419
1169.00,0.0423
1168.00,0.0425
1167.00,0.0425
1166.00,0.0425
1165.00,0.0422
1164.00,0.0418
1163.00,0.0412
1162.00,0.0406
1161.00,0.0399
1160.00,0.0392
1159.00,0.0383
1158.00,0.0376
1157.00,0.0368
1156.00,0.0359
1155.00,0.0352
1154.00,0.0344
1153.00,0.0337
1152.00,0.0330
1151.00,0.0323
1150.00,0.0316
1149.00,0.0310
1148.00,0.0304
1147.00,0.0298
1146.00,0.0292
1145.00,0.0286
1144.00,0.0280
1143.00,0.0274
1142.00,0.0268
1141.00,0.0263
1140.00,0.0258
1139.00,0.0253
1138.00,0.0250
1137.00,0.0246
1136.00,0.0243
1135.00,0.0240
1134.00,0.0239
1133.00,0.0238
1132.00,0.0237
1131.00,0.0238
1130.00,0.0239
1129.00,0.0240
1128.00,0.0240
1127.00,0.0241
1126.00,0.0243
1125.00,0.0244
1124.00,0.0245
1123.00,0.0246
1122.00,0.0247
1121.00,0.0249
1120.00,0.0250
1119.00,0.0251
1118.00,0.0252
1117.00,0.0252
1116.00,0.0252
1115.00,0.0252
1114.00,0.0253
1113.00,0.0254
1112.00,0.0254
1111.00,0.0254
1110.00,0.0255
1109.00,0.0255
1108.00,0.0255
1107.00,0.0255
1106.00,0.0254
1105.00,0.0254
1104.00,0.0254
1103.00,0.0254
1102.00,0.0254
1101.00,0.0254
1100.00,0.0254
1099.00,0.0254
1098.00,0.0254
1097.00,0.0254
1096.00,0.0253
1095.00,0.0253
1094.00,0.0253
1093.00,0.0253
1092.00,0.0253
1091.00,0.0252
1090.00,0.0253
1089.00,0.0253
1088.00,0.0252
1087.00,0.0252
1086.00,0.0252
1085.00,0.0252
1084.00,0.0252
1083.00,0.0252
1082.00,0.0254
1081.00,0.0256
1080.00,0.0258
1079.00,0.0261
1078.00,0.0264
1077.00,0.0268
1076.00,0.0270
1075.00,0.0271
1074.00,0.0272
1073.00,0.0271
1072.00,0.0269
1071.00,0.0266
1070.00,0.0263
1069.00,0.0259
1068.00,0.0255
1067.00,0.0251
1066.00,0.0248
1065.00,0.0245
1064.00,0.0242
1063.00,0.0240
1062.00,0.0239
1061.00,0.0237
1060.00,0.0235
1059.00,0.0233
1058.00,0.0233
1057.00,0.0232
1056.00,0.0232
1055.00,0.0231
1054.00,0.0231
1053.00,0.0231
1052.00,0.0230
1051.00,0.0230
1050.00,0.0230
1049.00,0.0230
1048.00,0.0230
1047.00,0.0230
1046.00,0.0231
1045.00,0.0231
1044.00,0.0231
1043.00,0.0231
1042.00,0.0231
1041.00,0.0232
1040.00,0.0232
1039.00,0.0232
1038.00,0.0233
1037.00,0.0234
1036.00,0.0235
1035.00,0.0236
1034.00,0.0239
1033.00,0.0241
1032.00,0.0242
1031.00,0.0244
1030.00,0.0247
1029.00,0.0250
1028.00,0.0254
1027.00,0.0258
1026.00,0.0263
1025.00,0.0269
1024.00,0.0274
1023.00,0.0281
1022.00,0.0288
1021.00,0.0294
1020.00,0.0299
1019.00,0.0303
1018.00,0.0305
1017.00,0.0306
1016.00,0.0303
1015.00,0.0298
1014.00,0.0292
1013.00,0.0285
1012.00,0.0277
1011.00,0.0269
1010.00,0.0263
1009.00,0.0257
1008.00,0.0253
1007.00,0.0251
1006.00,0.0251
1005.00,0.0252
1004.00,0.0255
1003.00,0.0258
1002.00,0.0261
1001.00,0.0263
1000.00,0.0262
999.00,0.0261
998.00,0.0258
997.00,0.0253
996.00,0.0248
995.00,0.0242
994.00,0.0237
993.00,0.0232
992.00,0.0227
991.00,0.0223
990.00,0.0219
989.00,0.0216
988.00,0.0213
987.00,0.0211
986.00,0.0209
985.00,0.0207
984.00,0.0205
983.00,0.0203
982.00,0.0201
981.00,0.0200
980.00,0.0198
979.00,0.0196
978.00,0.0195
977.00,0.0193
976.00,0.0192
975.00,0.0190
974.00,0.0190
973.00,0.0189
972.00,0.0188
971.00,0.0187
970.00,0.0186
969.00,0.0185
968.00,0.0184
967.00,0.0183
966.00,0.0181
965.00,0.0180
964.00,0.0179
963.00,0.0177
962.00,0.0176
961.00,0.0175
960.00,0.0174
959.00,0.0173
958.00,0.0173
957.00,0.0172
956.00,0.0171
955.00,0.0170
954.00,0.0169
953.00,0.0168
952.00,0.0167
951.00,0.0166
950.00,0.0166
949.00,0.0167
948.00,0.0167
947.00,0.0168
946.00,0.0169
945.00,0.0171
944.00,0.0173
943.00,0.0175
942.00,0.0178
941.00,0.0183
940.00,0.0188
939.00,0.0194
938.00,0.0202
937.00,0.0210
936.00,0.0218
935.00,0.0225
934.00,0.0232
933.00,0.0236
932.00,0.0236
931.00,0.0234
930.00,0.0231
929.00,0.0227
928.00,0.0222
927.00,0.0219
926.00,0.0216
925.00,0.0213
924.00,0.0210
923.00,0.0207
922.00,0.0204
921.00,0.0202
920.00,0.0199
919.00,0.0197
918.00,0.0195
917.00,0.0194
916.00,0.0192
915.00,0.0191
914.00,0.0191
913.00,0.0190
912.00,0.0190
911.00,0.0190
910.00,0.0191
909.00,0.0192
908.00,0.0194
907.00,0.0196
906.00,0.0199
905.00,0.0203
904.00,0.0206
903.00,0.0210
902.00,0.0215
901.00,0.0219
900.00,0.0223
899.00,0.0227
898.00,0.0230
897.00,0.0233
896.00,0.0235
895.00,0.0235
894.00,0.0235
893.00,0.0234
892.00,0.0232
891.00,0.0230
890.00,0.0226
889.00,0.0223
888.00,0.0218
887.00,0.0214
886.00,0.0211
885.00,0.0209
884.00,0.0206
883.00,0.0203
882.00,0.0201
881.00,0.0199
880.00,0.0196
879.00,0.0194
878.00,0.0193
877.00,0.0192
876.00,0.0192
875.00,0.0191
874.00,0.0192
873.00,0.0193
872.00,0.0193
871.00,0.0193
870.00,0.0195
869.00,0.0197
868.00,0.0199
867.00,0.0201
866.00,0.0205
865.00,0.0208
864.00,0.0212
863.00,0.0217
862.00,0.0222
861.00,0.0229
860.00,0.0235
859.00,0.0243
858.00,0.0252
857.00,0.0261
856.00,0.0271
855.00,0.0281
854.00,0.0292
853.00,0.0304
852.00,0.0314
851.00,0.0324
850.00,0.0333
849.00,0.0342
848.00,0.0349
847.00,0.0355
846.00,0.0359
845.00,0.0362
844.00,0.0363
843.00,0.0362
842.00,0.0360
841.00,0.0356
840.00,0.0351
839.00,0.0345
838.00,0.0339
837.00,0.0332
836.00,0.0324
835.00,0.0315
834.00,0.0308
833.00,0.0300
832.00,0.0292
831.00,0.0284
830.00,0.0277
829.00,0.0269
828.00,0.0262
827.00,0.0255
826.00,0.0249
825.00,0.0243
824.00,0.0237
823.00,0.0232
822.00,0.0228
821.00,0.0224
820.00,0.0219
819.00,0.0215
818.00,0.0211
817.00,0.0208
816.00,0.0204
815.00,0.0201
814.00,0.0199
813.00,0.0196
812.00,0.0194
811.00,0.0191
810.00,0.0190
809.00,0.0188
808.00,0.0186
807.00,0.0184
806.00,0.0183
805.00,0.0182
804.00,0.0180
803.00,0.0179
802.00,0.0178
801.00,0.0177
800.00,0.0176
799.00,0.0174
798.00,0.0173
797.00,0.0171
796.00,0.0170
795.00,0.0169
794.00,0.0169
793.00,0.0168
792.00,0.0167
791.00,0.0166
790.00,0.0166
789.00,0.0166
788.00,0.0166
787.00,0.0166
786.00,0.0166
785.00,0.0166
784.00,0.0166
783.00,0.0167
782.00,0.0168
781.00,0.0168
780.00,0.0168
779.00,0.0169
778.00,0.0170
777.00,0.0171
776.00,0.0172
775.00,0.0173
774.00,0.0174
773.00,0.0175
772.00,0.0176
771.00,0.0177
770.00,0.0180
769.00,0.0183
768.00,0.0186
767.00,0.0188
766.00,0.0192
765.00,0.0195
764.00,0.0198
763.00,0.0201
762.00,0.0206
761.00,0.0210
760.00,0.0214
759.00,0.0218
758.00,0.0223
757.00,0.0227
756.00,0.0231
755.00,0.0236
754.00,0.0241
753.00,0.0247
752.00,0.0252
751.00,0.0256
750.00,0.0262
749.00,0.0267
748.00,0.0271
747.00,0.0276
746.00,0.0281
745.00,0.0286
744.00,0.0291
743.00,0.0295
742.00,0.0301
741.00,0.0306
740.00,0.0310
739.00,0.0314
738.00,0.0319
737.00,0.0323
736.00,0.0326
735.00,0.0329
734.00,0.0331
733.00,0.0331
732.00,0.0329
731.00,0.0325
730.00,0.0320
729.00,0.0314
728.00,0.0306
727.00,0.0297
726.00,0.0289
725.00,0.0281
724.00,0.0272
723.00,0.0265
722.00,0.0259
721.00,0.0254
720.00,0.0248
719.00,0.0244
718.00,0.0241
717.00,0.0238
716.00,0.0235
715.00,0.0233
714.00,0.0231
713.00,0.0230
712.00,0.0228
711.00,0.0227
710.00,0.0227
709.00,0.0227
708.00,0.0226
707.00,0.0226
706.00,0.0226
705.00,0.0227
704.00,0.0228
703.00,0.0228
702.00,0.0230
701.00,0.0232
700.00,0.0234
699.00,0.0236
698.00,0.0240
697.00,0.0243
696.00,0.0245
695.00,0.0248
694.00,0.0252
693.00,0.0256
692.00,0.0260
691.00,0.0263
690.00,0.0267
689.00,0.0270
688.00,0.0273
687.00,0.0277
686.00,0.0282
685.00,0.0287
684.00,0.0291
683.00,0.0295
682.00,0.0300
681.00,0.0306
680.00,0.0310
679.00,0.0315
678.00,0.0321
677.00,0.0327
676.00,0.0333
675.00,0.0340
674.00,0.0347
673.00,0.0353
672.00,0.0359
671.00,0.0366
670.00,0.0375
669.00,0.0387
668.00,0.0401
667.00,0.0413
666.00,0.0421
665.00,0.0428
664.00,0.0435
663.00,0.0445
662.00,0.0457
661.00,0.0470
660.00,0.0482
659.00,0.0495
658.00,0.0508
657.00,0.0521
656.00,0.0534
655.00,0.0546
654.00,0.0559
653.00,0.0570
652.00,0.0579
651.00,0.0587
650.00,0.0594
649.00,0.0598
648.00,0.0599
647.00,0.0598
646.00,0.0595
645.00,0.0590
644.00,0.0583
643.00,0.0575
642.00,0.0567
641.00,0.0558
640.00,0.0547
639.00,0.0536
638.00,0.0526
637.00,0.0516
636.00,0.0506
635.00,0.0496
634.00,0.0488
633.00,0.0480
632.00,0.0472
631.00,0.0464
630.00,0.0458
629.00,0.0452
628.00,0.0446
627.00,0.0440
626.00,0.0435
625.00,0.0431
624.00,0.0425
623.00,0.0421
622.00,0.0419
621.00,0.0417
620.00,0.0415
619.00,0.0414
618.00,0.0413
617.00,0.0412
616.00,0.0410
615.00,0.0409
614.00,0.0410
613.00,0.0411
612.00,0.0412
611.00,0.0411
610.00,0.0412
609.00,0.0413
608.00,0.0412
607.00,0.0412
606.00,0.0413
605.00,0.0415
604.00,0.0416
603.00,0.0417
602.00,0.0421
601.00,0.0424
600.00,0.0426
599.00,0.0429
598.00,0.0432
597.00,0.0436
596.00,0.0439
595.00,0.0443
594.00,0.0449
593.00,0.0455
592.00,0.0460
591.00,0.0467
590.00,0.0475
589.00,0.0485
588.00,0.0493
587.00,0.0503
586.00,0.0513
585.00,0.0525
584.00,0.0536
583.00,0.0548
582.00,0.0563
581.00,0.0578
580.00,0.0590
579.00,0.0602
578.00,0.0614
577.00,0.0625
576.00,0.0632
575.00,0.0639
574.00,0.0645
573.00,0.0649
572.00,0.0651
571.00,0.0653
570.00,0.0656
569.00,0.0656
568.00,0.0651
567.00,0.0644
566.00,0.0636
565.00,0.0627
564.00,0.0616
563.00,0.0605
562.00,0.0596
561.00,0.0588
560.00,0.0577
559.00,0.0569
558.00,0.0563
557.00,0.0556
556.00,0.0547
555.00,0.0539
554.00,0.0533
553.00,0.0528
552.00,0.0523
551.00,0.0518
550.00,0.0514
549.00,0.0510
548.00,0.0504
547.00,0.0499
546.00,0.0497
545.00,0.0495
544.00,0.0490
543.00,0.0485
542.00,0.0483
541.00,0.0482
540.00,0.0478
539.00,0.0474
538.00,0.0474
537.00,0.0472
536.00,0.0469
535.00,0.0467
534.00,0.0468
533.00,0.0470
532.00,0.0470
531.00,0.0469
530.00,0.0469
529.00,0.0469
528.00,0.0467
527.00,0.0466
526.00,0.0467
525.00,0.0469
524.00,0.0468
523.00,0.0467
522.00,0.0469
521.00,0.0470
520.00,0.0468
519.00,0.0467
518.00,0.0469
517.00,0.0470
516.00,0.0469
515.00,0.0469
514.00,0.0471
513.00,0.0472
512.00,0.0471
511.00,0.0470
510.00,0.0472
509.00,0.0474
508.00,0.0475
507.00,0.0475
506.00,0.0478
505.00,0.0480
504.00,0.0480
503.00,0.0481
502.00,0.0485
501.00,0.0487
500.00,0.0486
499.00,0.0485
498.00,0.0488
497.00,0.0490
496.00,0.0489
495.00,0.0488
494.00,0.0491
493.00,0.0493
492.00,0.0493
491.00,0.0494
490.00,0.0497
489.00,0.0499
488.00,0.0497
487.00,0.0497
486.00,0.0501
485.00,0.0505
484.00,0.0505
483.00,0.0505
482.00,0.0509
481.00,0.0513
480.00,0.0513
479.00,0.0515
478.00,0.0520
477.00,0.0524
476.00,0.0523
475.00,0.0521
474.00,0.0523
473.00,0.0528
472.00,0.0529
471.00,0.0530
470.00,0.0534
469.00,0.0537
468.00,0.0533
467.00,0.0530
466.00,0.0532
465.00,0.0535
464.00,0.0535
463.00,0.0536
462.00,0.0537
461.00,0.0537
460.00,0.0531
459.00,0.0527
458.00,0.0531
457.00,0.0534
456.00,0.0532
455.00,0.0529
454.00,0.0530
453.00,0.0528
452.00,0.0521
451.00,0.0516
450.00,0.0518
449.00,0.0519
448.00,0.0512
447.00,0.0504
446.00,0.0502
445.00,0.0500
444.00,0.0496
443.00,0.0494
442.00,0.0495
441.00,0.0494
440.00,0.0486
439.00,0.0482
438.00,0.0486
437.00,0.0490
436.00,0.0487
435.00,0.0482
434.00,0.0482
433.00,0.0482
432.00,0.0477
431.00,0.0473
430.00,0.0475
429.00,0.0475
428.00,0.0469
427.00,0.0465
426.00,0.0470
425.00,0.0475
424.00,0.0472
423.00,0.0468
422.00,0.0471
421.00,0.0471
420.00,0.0461
419.00,0.0452
418.00,0.0457
417.00,0.0462
416.00,0.0455
415.00,0.0449
414.00,0.0450
413.00,0.0452
412.00,0.0444
411.00,0.0439
410.00,0.0443
409.00,0.0444
408.00,0.0435
407.00,0.0428
406.00,0.0435
405.00,0.0442
404.00,0.0434
403.00,0.0428
402.00,0.0440
401.00,0.0452
400.00,0.0449
