Created as New Dataset,Sample 1004 By YargerLab Date Thursday, July 31 2025
cm-1,A
4000.00,0.0051
3999.00,0.0051
3998.00,0.0051
3997.00,0.0052
3996.00,0.0051
3995.00,0.0051
3994.00,0.0051
3993.00,0.0051
3992.00,0.0051
3991.00,0.0051
3990.00,0.0051
3989.00,0.0050
3988.00,0.0050
3987.00,0.0050
3986.00,0.0050
3985.00,0.0051
3984.00,0.0051
3983.00,0.0051
3982.00,0.0051
3981.00,0.0051
3980.00,0.0050
3979.00,0.0050
3978.00,0.0050
3977.00,0.0050
3976.00,0.0050
3975.00,0.0050
3974.00,0.0050
3973.00,0.0050
3972.00,0.0050
3971.00,0.0051
3970.00,0.0050
3969.00,0.0050
3968.00,0.0050
3967.00,0.0050
3966.00,0.0050
3965.00,0.0050
3964.00,0.0050
3963.00,0.0050
3962.00,0.0050
3961.00,0.0050
3960.00,0.0050
3959.00,0.0050
3958.00,0.0050
3957.00,0.0050
3956.00,0.0050
3955.00,0.0051
3954.00,0.0051
3953.00,0.0051
3952.00,0.0051
3951.00,0.0051
3950.00,0.0051
3949.00,0.0051
3948.00,0.0051
3947.00,0.0051
3946.00,0.0051
3945.00,0.0051
3944.00,0.0051
3943.00,0.0051
3942.00,0.0051
3941.00,0.0051
3940.00,0.0051
3939.00,0.0050
3938.00,0.0050
3937.00,0.0050
3936.00,0.0050
3935.00,0.0050
3934.00,0.0051
3933.00,0.0051
3932.00,0.0051
3931.00,0.0051
3930.00,0.0051
3929.00,0.0051
3928.00,0.0050
3927.00,0.0050
3926.00,0.0050
3925.00,0.0051
3924.00,0.0051
3923.00,0.0051
3922.00,0.0051
3921.00,0.0051
3920.00,0.0051
3919.00,0.0051
3918.00,0.0051
3917.00,0.0051
3916.00,0.0051
3915.00,0.0050
3914.00,0.0050
3913.00,0.0050
3912.00,0.0050
3911.00,0.0050
3910.00,0.0050
3909.00,0.0050
3908.00,0.0050
3907.00,0.0050
3906.00,0.0050
3905.00,0.0050
3904.00,0.0050
3903.00,0.0051
3902.00,0.0051
3901.00,0.0051
3900.00,0.0051
3899.00,0.0050
3898.00,0.0050
3897.00,0.0050
3896.00,0.0050
3895.00,0.0050
3894.00,0.0050
3893.00,0.0050
3892.00,0.0050
3891.00,0.0050
3890.00,0.0050
3889.00,0.0050
3888.00,0.0050
3887.00,0.0050
3886.00,0.0050
3885.00,0.0050
3884.00,0.0050
3883.00,0.0050
3882.00,0.0050
3881.00,0.0050
3880.00,0.0050
3879.00,0.0050
3878.00,0.0050
3877.00,0.0050
3876.00,0.0049
3875.00,0.0049
3874.00,0.0049
3873.00,0.0049
3872.00,0.0049
3871.00,0.0049
3870.00,0.0049
3869.00,0.0049
3868.00,0.0049
3867.00,0.0049
3866.00,0.0049
3865.00,0.0049
3864.00,0.0050
3863.00,0.0050
3862.00,0.0050
3861.00,0.0050
3860.00,0.0050
3859.00,0.0050
3858.00,0.0049
3857.00,0.0049
3856.00,0.0049
3855.00,0.0049
3854.00,0.0049
3853.00,0.0049
3852.00,0.0049
3851.00,0.0049
3850.00,0.0049
3849.00,0.0049
3848.00,0.0049
3847.00,0.0050
3846.00,0.0050
3845.00,0.0050
3844.00,0.0049
3843.00,0.0049
3842.00,0.0049
3841.00,0.0049
3840.00,0.0049
3839.00,0.0049
3838.00,0.0049
3837.00,0.0049
3836.00,0.0050
3835.00,0.0050
3834.00,0.0050
3833.00,0.0050
3832.00,0.0049
3831.00,0.0049
3830.00,0.0049
3829.00,0.0049
3828.00,0.0049
3827.00,0.0049
3826.00,0.0049
3825.00,0.0048
3824.00,0.0048
3823.00,0.0048
3822.00,0.0049
3821.00,0.0049
3820.00,0.0049
3819.00,0.0049
3818.00,0.0049
3817.00,0.0049
3816.00,0.0049
3815.00,0.0049
3814.00,0.0048
3813.00,0.0048
3812.00,0.0048
3811.00,0.0048
3810.00,0.0048
3809.00,0.0048
3808.00,0.0048
3807.00,0.0049
3806.00,0.0049
3805.00,0.0049
3804.00,0.0049
3803.00,0.0049
3802.00,0.0049
3801.00,0.0049
3800.00,0.0049
3799.00,0.0049
3798.00,0.0049
3797.00,0.0049
3796.00,0.0049
3795.00,0.0049
3794.00,0.0049
3793.00,0.0049
3792.00,0.0048
3791.00,0.0048
3790.00,0.0048
3789.00,0.0048
3788.00,0.0048
3787.00,0.0048
3786.00,0.0048
3785.00,0.0048
3784.00,0.0049
3783.00,0.0049
3782.00,0.0049
3781.00,0.0048
3780.00,0.0048
3779.00,0.0048
3778.00,0.0048
3777.00,0.0048
3776.00,0.0048
3775.00,0.0048
3774.00,0.0049
3773.00,0.0049
3772.00,0.0049
3771.00,0.0049
3770.00,0.0049
3769.00,0.0049
3768.00,0.0049
3767.00,0.0049
3766.00,0.0049
3765.00,0.0049
3764.00,0.0049
3763.00,0.0049
3762.00,0.0049
3761.00,0.0049
3760.00,0.0049
3759.00,0.0049
3758.00,0.0049
3757.00,0.0049
3756.00,0.0049
3755.00,0.0049
3754.00,0.0049
3753.00,0.0049
3752.00,0.0049
3751.00,0.0049
3750.00,0.0049
3749.00,0.0049
3748.00,0.0049
3747.00,0.0049
3746.00,0.0049
3745.00,0.0049
3744.00,0.0049
3743.00,0.0048
3742.00,0.0048
3741.00,0.0049
3740.00,0.0049
3739.00,0.0049
3738.00,0.0049
3737.00,0.0049
3736.00,0.0049
3735.00,0.0049
3734.00,0.0049
3733.00,0.0049
3732.00,0.0049
3731.00,0.0049
3730.00,0.0048
3729.00,0.0048
3728.00,0.0048
3727.00,0.0048
3726.00,0.0048
3725.00,0.0048
3724.00,0.0048
3723.00,0.0048
3722.00,0.0048
3721.00,0.0048
3720.00,0.0048
3719.00,0.0048
3718.00,0.0047
3717.00,0.0047
3716.00,0.0047
3715.00,0.0047
3714.00,0.0047
3713.00,0.0047
3712.00,0.0047
3711.00,0.0047
3710.00,0.0047
3709.00,0.0047
3708.00,0.0047
3707.00,0.0047
3706.00,0.0047
3705.00,0.0047
3704.00,0.0047
3703.00,0.0047
3702.00,0.0047
3701.00,0.0047
3700.00,0.0047
3699.00,0.0047
3698.00,0.0046
3697.00,0.0046
3696.00,0.0046
3695.00,0.0046
3694.00,0.0047
3693.00,0.0047
3692.00,0.0047
3691.00,0.0047
3690.00,0.0047
3689.00,0.0047
3688.00,0.0047
3687.00,0.0047
3686.00,0.0047
3685.00,0.0047
3684.00,0.0048
3683.00,0.0048
3682.00,0.0049
3681.00,0.0049
3680.00,0.0049
3679.00,0.0049
3678.00,0.0050
3677.00,0.0050
3676.00,0.0050
3675.00,0.0049
3674.00,0.0049
3673.00,0.0049
3672.00,0.0048
3671.00,0.0048
3670.00,0.0048
3669.00,0.0048
3668.00,0.0048
3667.00,0.0049
3666.00,0.0049
3665.00,0.0049
3664.00,0.0049
3663.00,0.0049
3662.00,0.0049
3661.00,0.0049
3660.00,0.0049
3659.00,0.0049
3658.00,0.0049
3657.00,0.0049
3656.00,0.0050
3655.00,0.0050
3654.00,0.0051
3653.00,0.0051
3652.00,0.0051
3651.00,0.0052
3650.00,0.0052
3649.00,0.0052
3648.00,0.0052
3647.00,0.0051
3646.00,0.0051
3645.00,0.0051
3644.00,0.0052
3643.00,0.0052
3642.00,0.0052
3641.00,0.0053
3640.00,0.0053
3639.00,0.0053
3638.00,0.0054
3637.00,0.0054
3636.00,0.0054
3635.00,0.0054
3634.00,0.0054
3633.00,0.0055
3632.00,0.0055
3631.00,0.0055
3630.00,0.0055
3629.00,0.0055
3628.00,0.0056
3627.00,0.0056
3626.00,0.0056
3625.00,0.0056
3624.00,0.0057
3623.00,0.0057
3622.00,0.0057
3621.00,0.0058
3620.00,0.0058
3619.00,0.0059
3618.00,0.0059
3617.00,0.0059
3616.00,0.0060
3615.00,0.0060
3614.00,0.0060
3613.00,0.0060
3612.00,0.0061
3611.00,0.0061
3610.00,0.0061
3609.00,0.0062
3608.00,0.0062
3607.00,0.0062
3606.00,0.0062
3605.00,0.0063
3604.00,0.0063
3603.00,0.0063
3602.00,0.0064
3601.00,0.0064
3600.00,0.0065
3599.00,0.0065
3598.00,0.0066
3597.00,0.0066
3596.00,0.0067
3595.00,0.0067
3594.00,0.0068
3593.00,0.0068
3592.00,0.0069
3591.00,0.0069
3590.00,0.0070
3589.00,0.0070
3588.00,0.0070
3587.00,0.0071
3586.00,0.0071
3585.00,0.0072
3584.00,0.0072
3583.00,0.0072
3582.00,0.0072
3581.00,0.0073
3580.00,0.0073
3579.00,0.0074
3578.00,0.0075
3577.00,0.0075
3576.00,0.0076
3575.00,0.0076
3574.00,0.0077
3573.00,0.0077
3572.00,0.0078
3571.00,0.0079
3570.00,0.0079
3569.00,0.0080
3568.00,0.0081
3567.00,0.0081
3566.00,0.0081
3565.00,0.0082
3564.00,0.0082
3563.00,0.0082
3562.00,0.0083
3561.00,0.0084
3560.00,0.0084
3559.00,0.0085
3558.00,0.0085
3557.00,0.0085
3556.00,0.0086
3555.00,0.0086
3554.00,0.0087
3553.00,0.0088
3552.00,0.0088
3551.00,0.0089
3550.00,0.0089
3549.00,0.0090
3548.00,0.0090
3547.00,0.0091
3546.00,0.0091
3545.00,0.0091
3544.00,0.0092
3543.00,0.0092
3542.00,0.0092
3541.00,0.0093
3540.00,0.0093
3539.00,0.0093
3538.00,0.0094
3537.00,0.0094
3536.00,0.0094
3535.00,0.0095
3534.00,0.0095
3533.00,0.0095
3532.00,0.0096
3531.00,0.0096
3530.00,0.0096
3529.00,0.0097
3528.00,0.0097
3527.00,0.0097
3526.00,0.0098
3525.00,0.0098
3524.00,0.0098
3523.00,0.0099
3522.00,0.0099
3521.00,0.0099
3520.00,0.0099
3519.00,0.0099
3518.00,0.0100
3517.00,0.0100
3516.00,0.0100
3515.00,0.0101
3514.00,0.0101
3513.00,0.0101
3512.00,0.0102
3511.00,0.0102
3510.00,0.0102
3509.00,0.0102
3508.00,0.0102
3507.00,0.0102
3506.00,0.0103
3505.00,0.0103
3504.00,0.0104
3503.00,0.0105
3502.00,0.0105
3501.00,0.0106
3500.00,0.0106
3499.00,0.0106
3498.00,0.0106
3497.00,0.0106
3496.00,0.0107
3495.00,0.0107
3494.00,0.0107
3493.00,0.0107
3492.00,0.0107
3491.00,0.0107
3490.00,0.0107
3489.00,0.0108
3488.00,0.0108
3487.00,0.0108
3486.00,0.0109
3485.00,0.0109
3484.00,0.0109
3483.00,0.0110
3482.00,0.0110
3481.00,0.0111
3480.00,0.0111
3479.00,0.0111
3478.00,0.0111
3477.00,0.0111
3476.00,0.0111
3475.00,0.0111
3474.00,0.0111
3473.00,0.0112
3472.00,0.0112
3471.00,0.0112
3470.00,0.0113
3469.00,0.0113
3468.00,0.0114
3467.00,0.0114
3466.00,0.0114
3465.00,0.0114
3464.00,0.0114
3463.00,0.0114
3462.00,0.0114
3461.00,0.0115
3460.00,0.0115
3459.00,0.0115
3458.00,0.0115
3457.00,0.0115
3456.00,0.0115
3455.00,0.0115
3454.00,0.0115
3453.00,0.0115
3452.00,0.0115
3451.00,0.0115
3450.00,0.0116
3449.00,0.0115
3448.00,0.0115
3447.00,0.0115
3446.00,0.0115
3445.00,0.0116
3444.00,0.0116
3443.00,0.0116
3442.00,0.0117
3441.00,0.0117
3440.00,0.0117
3439.00,0.0117
3438.00,0.0117
3437.00,0.0116
3436.00,0.0116
3435.00,0.0116
3434.00,0.0116
3433.00,0.0116
3432.00,0.0117
3431.00,0.0117
3430.00,0.0117
3429.00,0.0117
3428.00,0.0117
3427.00,0.0117
3426.00,0.0117
3425.00,0.0117
3424.00,0.0117
3423.00,0.0117
3422.00,0.0117
3421.00,0.0117
3420.00,0.0116
3419.00,0.0116
3418.00,0.0116
3417.00,0.0116
3416.00,0.0116
3415.00,0.0116
3414.00,0.0116
3413.00,0.0116
3412.00,0.0116
3411.00,0.0116
3410.00,0.0116
3409.00,0.0116
3408.00,0.0116
3407.00,0.0115
3406.00,0.0115
3405.00,0.0115
3404.00,0.0116
3403.00,0.0116
3402.00,0.0116
3401.00,0.0116
3400.00,0.0116
3399.00,0.0116
3398.00,0.0116
3397.00,0.0115
3396.00,0.0115
3395.00,0.0115
3394.00,0.0115
3393.00,0.0114
3392.00,0.0114
3391.00,0.0114
3390.00,0.0114
3389.00,0.0114
3388.00,0.0114
3387.00,0.0114
3386.00,0.0114
3385.00,0.0114
3384.00,0.0114
3383.00,0.0114
3382.00,0.0114
3381.00,0.0113
3380.00,0.0113
3379.00,0.0113
3378.00,0.0113
3377.00,0.0113
3376.00,0.0112
3375.00,0.0112
3374.00,0.0112
3373.00,0.0112
3372.00,0.0112
3371.00,0.0112
3370.00,0.0112
3369.00,0.0112
3368.00,0.0112
3367.00,0.0111
3366.00,0.0111
3365.00,0.0111
3364.00,0.0111
3363.00,0.0111
3362.00,0.0111
3361.00,0.0111
3360.00,0.0111
3359.00,0.0111
3358.00,0.0111
3357.00,0.0110
3356.00,0.0110
3355.00,0.0110
3354.00,0.0110
3353.00,0.0110
3352.00,0.0109
3351.00,0.0109
3350.00,0.0109
3349.00,0.0110
3348.00,0.0110
3347.00,0.0109
3346.00,0.0109
3345.00,0.0109
3344.00,0.0108
3343.00,0.0108
3342.00,0.0108
3341.00,0.0108
3340.00,0.0107
3339.00,0.0107
3338.00,0.0107
3337.00,0.0107
3336.00,0.0107
3335.00,0.0107
3334.00,0.0107
3333.00,0.0108
3332.00,0.0107
3331.00,0.0107
3330.00,0.0107
3329.00,0.0107
3328.00,0.0106
3327.00,0.0106
3326.00,0.0106
3325.00,0.0106
3324.00,0.0106
3323.00,0.0106
3322.00,0.0107
3321.00,0.0107
3320.00,0.0106
3319.00,0.0106
3318.00,0.0106
3317.00,0.0106
3316.00,0.0106
3315.00,0.0106
3314.00,0.0106
3313.00,0.0106
3312.00,0.0105
3311.00,0.0104
3310.00,0.0104
3309.00,0.0103
3308.00,0.0103
3307.00,0.0103
3306.00,0.0103
3305.00,0.0103
3304.00,0.0104
3303.00,0.0104
3302.00,0.0104
3301.00,0.0104
3300.00,0.0104
3299.00,0.0103
3298.00,0.0103
3297.00,0.0103
3296.00,0.0102
3295.00,0.0102
3294.00,0.0102
3293.00,0.0102
3292.00,0.0102
3291.00,0.0103
3290.00,0.0103
3289.00,0.0103
3288.00,0.0103
3287.00,0.0103
3286.00,0.0103
3285.00,0.0103
3284.00,0.0103
3283.00,0.0103
3282.00,0.0103
3281.00,0.0102
3280.00,0.0102
3279.00,0.0102
3278.00,0.0101
3277.00,0.0101
3276.00,0.0100
3275.00,0.0100
3274.00,0.0100
3273.00,0.0100
3272.00,0.0100
3271.00,0.0100
3270.00,0.0100
3269.00,0.0100
3268.00,0.0100
3267.00,0.0100
3266.00,0.0100
3265.00,0.0099
3264.00,0.0099
3263.00,0.0099
3262.00,0.0099
3261.00,0.0099
3260.00,0.0099
3259.00,0.0099
3258.00,0.0098
3257.00,0.0098
3256.00,0.0098
3255.00,0.0098
3254.00,0.0098
3253.00,0.0098
3252.00,0.0098
3251.00,0.0098
3250.00,0.0097
3249.00,0.0097
3248.00,0.0097
3247.00,0.0096
3246.00,0.0096
3245.00,0.0096
3244.00,0.0096
3243.00,0.0097
3242.00,0.0097
3241.00,0.0097
3240.00,0.0096
3239.00,0.0096
3238.00,0.0096
3237.00,0.0095
3236.00,0.0095
3235.00,0.0094
3234.00,0.0094
3233.00,0.0095
3232.00,0.0095
3231.00,0.0095
3230.00,0.0095
3229.00,0.0094
3228.00,0.0094
3227.00,0.0094
3226.00,0.0094
3225.00,0.0093
3224.00,0.0093
3223.00,0.0093
3222.00,0.0093
3221.00,0.0093
3220.00,0.0093
3219.00,0.0092
3218.00,0.0092
3217.00,0.0092
3216.00,0.0092
3215.00,0.0091
3214.00,0.0091
3213.00,0.0091
3212.00,0.0091
3211.00,0.0091
3210.00,0.0091
3209.00,0.0090
3208.00,0.0090
3207.00,0.0090
3206.00,0.0090
3205.00,0.0090
3204.00,0.0090
3203.00,0.0090
3202.00,0.0090
3201.00,0.0090
3200.00,0.0089
3199.00,0.0089
3198.00,0.0089
3197.00,0.0089
3196.00,0.0089
3195.00,0.0088
3194.00,0.0088
3193.00,0.0088
3192.00,0.0088
3191.00,0.0088
3190.00,0.0088
3189.00,0.0087
3188.00,0.0087
3187.00,0.0087
3186.00,0.0087
3185.00,0.0087
3184.00,0.0087
3183.00,0.0087
3182.00,0.0087
3181.00,0.0087
3180.00,0.0087
3179.00,0.0087
3178.00,0.0087
3177.00,0.0086
3176.00,0.0086
3175.00,0.0086
3174.00,0.0086
3173.00,0.0086
3172.00,0.0086
3171.00,0.0086
3170.00,0.0085
3169.00,0.0085
3168.00,0.0085
3167.00,0.0085
3166.00,0.0085
3165.00,0.0085
3164.00,0.0085
3163.00,0.0085
3162.00,0.0085
3161.00,0.0085
3160.00,0.0084
3159.00,0.0084
3158.00,0.0084
3157.00,0.0084
3156.00,0.0083
3155.00,0.0083
3154.00,0.0083
3153.00,0.0083
3152.00,0.0082
3151.00,0.0082
3150.00,0.0082
3149.00,0.0082
3148.00,0.0082
3147.00,0.0082
3146.00,0.0082
3145.00,0.0082
3144.00,0.0082
3143.00,0.0082
3142.00,0.0082
3141.00,0.0082
3140.00,0.0082
3139.00,0.0081
3138.00,0.0081
3137.00,0.0081
3136.00,0.0081
3135.00,0.0080
3134.00,0.0080
3133.00,0.0080
3132.00,0.0080
3131.00,0.0080
3130.00,0.0080
3129.00,0.0080
3128.00,0.0080
3127.00,0.0080
3126.00,0.0079
3125.00,0.0080
3124.00,0.0080
3123.00,0.0080
3122.00,0.0080
3121.00,0.0080
3120.00,0.0080
3119.00,0.0080
3118.00,0.0080
3117.00,0.0079
3116.00,0.0079
3115.00,0.0079
3114.00,0.0079
3113.00,0.0078
3112.00,0.0078
3111.00,0.0078
3110.00,0.0078
3109.00,0.0078
3108.00,0.0078
3107.00,0.0078
3106.00,0.0078
3105.00,0.0078
3104.00,0.0077
3103.00,0.0077
3102.00,0.0077
3101.00,0.0077
3100.00,0.0077
3099.00,0.0077
3098.00,0.0077
3097.00,0.0077
3096.00,0.0077
3095.00,0.0076
3094.00,0.0076
3093.00,0.0076
3092.00,0.0076
3091.00,0.0076
3090.00,0.0077
3089.00,0.0077
3088.00,0.0076
3087.00,0.0076
3086.00,0.0076
3085.00,0.0076
3084.00,0.0076
3083.00,0.0076
3082.00,0.0076
3081.00,0.0076
3080.00,0.0076
3079.00,0.0076
3078.00,0.0077
3077.00,0.0077
3076.00,0.0077
3075.00,0.0076
3074.00,0.0076
3073.00,0.0076
3072.00,0.0076
3071.00,0.0076
3070.00,0.0076
3069.00,0.0075
3068.00,0.0075
3067.00,0.0075
3066.00,0.0075
3065.00,0.0075
3064.00,0.0075
3063.00,0.0075
3062.00,0.0075
3061.00,0.0074
3060.00,0.0074
3059.00,0.0074
3058.00,0.0074
3057.00,0.0074
3056.00,0.0074
3055.00,0.0074
3054.00,0.0074
3053.00,0.0073
3052.00,0.0073
3051.00,0.0073
3050.00,0.0073
3049.00,0.0073
3048.00,0.0073
3047.00,0.0073
3046.00,0.0073
3045.00,0.0073
3044.00,0.0073
3043.00,0.0073
3042.00,0.0072
3041.00,0.0072
3040.00,0.0072
3039.00,0.0072
3038.00,0.0072
3037.00,0.0072
3036.00,0.0072
3035.00,0.0072
3034.00,0.0072
3033.00,0.0072
3032.00,0.0072
3031.00,0.0072
3030.00,0.0072
3029.00,0.0072
3028.00,0.0071
3027.00,0.0071
3026.00,0.0071
3025.00,0.0071
3024.00,0.0071
3023.00,0.0071
3022.00,0.0071
3021.00,0.0071
3020.00,0.0072
3019.00,0.0072
3018.00,0.0072
3017.00,0.0072
3016.00,0.0073
3015.00,0.0073
3014.00,0.0073
3013.00,0.0074
3012.00,0.0074
3011.00,0.0074
3010.00,0.0075
3009.00,0.0076
3008.00,0.0076
3007.00,0.0077
3006.00,0.0078
3005.00,0.0079
3004.00,0.0080
3003.00,0.0081
3002.00,0.0082
3001.00,0.0084
3000.00,0.0086
2999.00,0.0087
2998.00,0.0089
2997.00,0.0091
2996.00,0.0094
2995.00,0.0096
2994.00,0.0099
2993.00,0.0101
2992.00,0.0104
2991.00,0.0106
2990.00,0.0109
2989.00,0.0111
2988.00,0.0114
2987.00,0.0116
2986.00,0.0118
2985.00,0.0120
2984.00,0.0122
2983.00,0.0123
2982.00,0.0125
2981.00,0.0127
2980.00,0.0128
2979.00,0.0131
2978.00,0.0133
2977.00,0.0135
2976.00,0.0136
2975.00,0.0138
2974.00,0.0139
2973.00,0.0140
2972.00,0.0141
2971.00,0.0142
2970.00,0.0143
2969.00,0.0145
2968.00,0.0146
2967.00,0.0148
2966.00,0.0150
2965.00,0.0151
2964.00,0.0153
2963.00,0.0154
2962.00,0.0155
2961.00,0.0156
2960.00,0.0157
2959.00,0.0158
2958.00,0.0159
2957.00,0.0161
2956.00,0.0162
2955.00,0.0163
2954.00,0.0163
2953.00,0.0164
2952.00,0.0164
2951.00,0.0164
2950.00,0.0164
2949.00,0.0164
2948.00,0.0164
2947.00,0.0164
2946.00,0.0163
2945.00,0.0163
2944.00,0.0162
2943.00,0.0162
2942.00,0.0161
2941.00,0.0161
2940.00,0.0161
2939.00,0.0161
2938.00,0.0161
2937.00,0.0161
2936.00,0.0161
2935.00,0.0161
2934.00,0.0161
2933.00,0.0161
2932.00,0.0162
2931.00,0.0162
2930.00,0.0162
2929.00,0.0161
2928.00,0.0161
2927.00,0.0160
2926.00,0.0160
2925.00,0.0159
2924.00,0.0158
2923.00,0.0156
2922.00,0.0155
2921.00,0.0153
2920.00,0.0151
2919.00,0.0149
2918.00,0.0147
2917.00,0.0145
2916.00,0.0144
2915.00,0.0144
2914.00,0.0143
2913.00,0.0143
2912.00,0.0143
2911.00,0.0142
2910.00,0.0142
2909.00,0.0141
2908.00,0.0140
2907.00,0.0139
2906.00,0.0137
2905.00,0.0136
2904.00,0.0135
2903.00,0.0135
2902.00,0.0134
2901.00,0.0134
2900.00,0.0133
2899.00,0.0133
2898.00,0.0133
2897.00,0.0133
2896.00,0.0133
2895.00,0.0133
2894.00,0.0134
2893.00,0.0134
2892.00,0.0134
2891.00,0.0134
2890.00,0.0134
2889.00,0.0134
2888.00,0.0134
2887.00,0.0134
2886.00,0.0134
2885.00,0.0134
2884.00,0.0134
2883.00,0.0134
2882.00,0.0135
2881.00,0.0135
2880.00,0.0136
2879.00,0.0136
2878.00,0.0136
2877.00,0.0137
2876.00,0.0137
2875.00,0.0137
2874.00,0.0138
2873.00,0.0138
2872.00,0.0138
2871.00,0.0138
2870.00,0.0138
2869.00,0.0137
2868.00,0.0137
2867.00,0.0136
2866.00,0.0135
2865.00,0.0135
2864.00,0.0134
2863.00,0.0134
2862.00,0.0133
2861.00,0.0132
2860.00,0.0131
2859.00,0.0130
2858.00,0.0129
2857.00,0.0127
2856.00,0.0125
2855.00,0.0122
2854.00,0.0119
2853.00,0.0116
2852.00,0.0112
2851.00,0.0108
2850.00,0.0105
2849.00,0.0102
2848.00,0.0101
2847.00,0.0100
2846.00,0.0100
2845.00,0.0099
2844.00,0.0099
2843.00,0.0098
2842.00,0.0097
2841.00,0.0096
2840.00,0.0094
2839.00,0.0093
2838.00,0.0092
2837.00,0.0091
2836.00,0.0090
2835.00,0.0089
2834.00,0.0088
2833.00,0.0087
2832.00,0.0086
2831.00,0.0085
2830.00,0.0084
2829.00,0.0083
2828.00,0.0082
2827.00,0.0081
2826.00,0.0080
2825.00,0.0080
2824.00,0.0079
2823.00,0.0078
2822.00,0.0077
2821.00,0.0077
2820.00,0.0076
2819.00,0.0075
2818.00,0.0075
2817.00,0.0074
2816.00,0.0073
2815.00,0.0073
2814.00,0.0072
2813.00,0.0071
2812.00,0.0071
2811.00,0.0070
2810.00,0.0070
2809.00,0.0069
2808.00,0.0069
2807.00,0.0068
2806.00,0.0067
2805.00,0.0067
2804.00,0.0066
2803.00,0.0066
2802.00,0.0065
2801.00,0.0065
2800.00,0.0065
2799.00,0.0064
2798.00,0.0064
2797.00,0.0064
2796.00,0.0064
2795.00,0.0063
2794.00,0.0063
2793.00,0.0062
2792.00,0.0062
2791.00,0.0062
2790.00,0.0061
2789.00,0.0061
2788.00,0.0061
2787.00,0.0061
2786.00,0.0061
2785.00,0.0060
2784.00,0.0060
2783.00,0.0060
2782.00,0.0059
2781.00,0.0059
2780.00,0.0059
2779.00,0.0059
2778.00,0.0059
2777.00,0.0059
2776.00,0.0058
2775.00,0.0058
2774.00,0.0058
2773.00,0.0058
2772.00,0.0058
2771.00,0.0058
2770.00,0.0058
2769.00,0.0057
2768.00,0.0057
2767.00,0.0057
2766.00,0.0057
2765.00,0.0057
2764.00,0.0056
2763.00,0.0056
2762.00,0.0056
2761.00,0.0056
2760.00,0.0056
2759.00,0.0056
2758.00,0.0056
2757.00,0.0056
2756.00,0.0057
2755.00,0.0057
2754.00,0.0057
2753.00,0.0057
2752.00,0.0056
2751.00,0.0056
2750.00,0.0056
2749.00,0.0056
2748.00,0.0056
2747.00,0.0056
2746.00,0.0056
2745.00,0.0056
2744.00,0.0056
2743.00,0.0056
2742.00,0.0057
2741.00,0.0057
2740.00,0.0057
2739.00,0.0057
2738.00,0.0057
2737.00,0.0057
2736.00,0.0057
2735.00,0.0057
2734.00,0.0057
2733.00,0.0056
2732.00,0.0056
2731.00,0.0056
2730.00,0.0056
2729.00,0.0056
2728.00,0.0056
2727.00,0.0056
2726.00,0.0056
2725.00,0.0056
2724.00,0.0056
2723.00,0.0056
2722.00,0.0055
2721.00,0.0055
2720.00,0.0055
2719.00,0.0055
2718.00,0.0055
2717.00,0.0055
2716.00,0.0055
2715.00,0.0055
2714.00,0.0054
2713.00,0.0054
2712.00,0.0054
2711.00,0.0054
2710.00,0.0054
2709.00,0.0054
2708.00,0.0054
2707.00,0.0054
2706.00,0.0054
2705.00,0.0054
2704.00,0.0053
2703.00,0.0053
2702.00,0.0053
2701.00,0.0053
2700.00,0.0053
2699.00,0.0053
2698.00,0.0053
2697.00,0.0052
2696.00,0.0052
2695.00,0.0052
2694.00,0.0052
2693.00,0.0052
2692.00,0.0052
2691.00,0.0052
2690.00,0.0052
2689.00,0.0052
2688.00,0.0052
2687.00,0.0052
2686.00,0.0051
2685.00,0.0051
2684.00,0.0051
2683.00,0.0051
2682.00,0.0051
2681.00,0.0051
2680.00,0.0051
2679.00,0.0051
2678.00,0.0051
2677.00,0.0051
2676.00,0.0051
2675.00,0.0050
2674.00,0.0050
2673.00,0.0050
2672.00,0.0050
2671.00,0.0050
2670.00,0.0050
2669.00,0.0050
2668.00,0.0051
2667.00,0.0051
2666.00,0.0051
2665.00,0.0052
2664.00,0.0052
2663.00,0.0053
2662.00,0.0053
2661.00,0.0053
2660.00,0.0053
2659.00,0.0053
2658.00,0.0053
2657.00,0.0054
2656.00,0.0054
2655.00,0.0054
2654.00,0.0054
2653.00,0.0054
2652.00,0.0054
2651.00,0.0053
2650.00,0.0053
2649.00,0.0053
2648.00,0.0053
2647.00,0.0053
2646.00,0.0053
2645.00,0.0053
2644.00,0.0053
2643.00,0.0053
2642.00,0.0052
2641.00,0.0052
2640.00,0.0052
2639.00,0.0052
2638.00,0.0052
2637.00,0.0051
2636.00,0.0051
2635.00,0.0051
2634.00,0.0051
2633.00,0.0051
2632.00,0.0051
2631.00,0.0051
2630.00,0.0051
2629.00,0.0051
2628.00,0.0051
2627.00,0.0051
2626.00,0.0050
2625.00,0.0050
2624.00,0.0050
2623.00,0.0050
2622.00,0.0050
2621.00,0.0050
2620.00,0.0050
2619.00,0.0050
2618.00,0.0050
2617.00,0.0050
2616.00,0.0050
2615.00,0.0049
2614.00,0.0049
2613.00,0.0049
2612.00,0.0049
2611.00,0.0049
2610.00,0.0049
2609.00,0.0049
2608.00,0.0049
2607.00,0.0049
2606.00,0.0049
2605.00,0.0049
2604.00,0.0049
2603.00,0.0049
2602.00,0.0049
2601.00,0.0049
2600.00,0.0048
2599.00,0.0048
2598.00,0.0048
2597.00,0.0048
2596.00,0.0048
2595.00,0.0047
2594.00,0.0047
2593.00,0.0047
2592.00,0.0046
2591.00,0.0046
2590.00,0.0046
2589.00,0.0046
2588.00,0.0047
2587.00,0.0047
2586.00,0.0047
2585.00,0.0047
2584.00,0.0047
2583.00,0.0046
2582.00,0.0046
2581.00,0.0046
2580.00,0.0046
2579.00,0.0046
2578.00,0.0046
2577.00,0.0046
2576.00,0.0046
2575.00,0.0045
2574.00,0.0045
2573.00,0.0045
2572.00,0.0045
2571.00,0.0045
2570.00,0.0045
2569.00,0.0045
2568.00,0.0045
2567.00,0.0044
2566.00,0.0044
2565.00,0.0044
2564.00,0.0044
2563.00,0.0044
2562.00,0.0044
2561.00,0.0044
2560.00,0.0044
2559.00,0.0044
2558.00,0.0044
2557.00,0.0044
2556.00,0.0043
2555.00,0.0043
2554.00,0.0043
2553.00,0.0043
2552.00,0.0043
2551.00,0.0043
2550.00,0.0042
2549.00,0.0042
2548.00,0.0042
2547.00,0.0042
2546.00,0.0042
2545.00,0.0042
2544.00,0.0042
2543.00,0.0043
2542.00,0.0042
2541.00,0.0042
2540.00,0.0041
2539.00,0.0041
2538.00,0.0041
2537.00,0.0041
2536.00,0.0041
2535.00,0.0041
2534.00,0.0041
2533.00,0.0040
2532.00,0.0040
2531.00,0.0040
2530.00,0.0040
2529.00,0.0040
2528.00,0.0040
2527.00,0.0040
2526.00,0.0040
2525.00,0.0040
2524.00,0.0039
2523.00,0.0039
2522.00,0.0039
2521.00,0.0039
2520.00,0.0039
2519.00,0.0038
2518.00,0.0038
2517.00,0.0038
2516.00,0.0038
2515.00,0.0038
2514.00,0.0039
2513.00,0.0039
2512.00,0.0039
2511.00,0.0039
2510.00,0.0038
2509.00,0.0038
2508.00,0.0038
2507.00,0.0037
2506.00,0.0037
2505.00,0.0038
2504.00,0.0038
2503.00,0.0038
2502.00,0.0038
2501.00,0.0038
2500.00,0.0038
2499.00,0.0038
2498.00,0.0037
2497.00,0.0037
2496.00,0.0037
2495.00,0.0037
2494.00,0.0037
2493.00,0.0037
2492.00,0.0037
2491.00,0.0038
2490.00,0.0038
2489.00,0.0037
2488.00,0.0037
2487.00,0.0037
2486.00,0.0037
2485.00,0.0037
2484.00,0.0037
2483.00,0.0037
2482.00,0.0037
2481.00,0.0037
2480.00,0.0036
2479.00,0.0036
2478.00,0.0036
2477.00,0.0036
2476.00,0.0036
2475.00,0.0036
2474.00,0.0036
2473.00,0.0036
2472.00,0.0036
2471.00,0.0035
2470.00,0.0035
2469.00,0.0035
2468.00,0.0035
2467.00,0.0036
2466.00,0.0036
2465.00,0.0037
2464.00,0.0037
2463.00,0.0036
2462.00,0.0036
2461.00,0.0036
2460.00,0.0036
2459.00,0.0036
2458.00,0.0037
2457.00,0.0037
2456.00,0.0037
2455.00,0.0037
2454.00,0.0038
2453.00,0.0038
2452.00,0.0037
2451.00,0.0037
2450.00,0.0036
2449.00,0.0036
2448.00,0.0036
2447.00,0.0036
2446.00,0.0036
2445.00,0.0036
2444.00,0.0036
2443.00,0.0036
2442.00,0.0036
2441.00,0.0036
2440.00,0.0035
2439.00,0.0035
2438.00,0.0036
2437.00,0.0035
2436.00,0.0035
2435.00,0.0035
2434.00,0.0035
2433.00,0.0035
2432.00,0.0035
2431.00,0.0035
2430.00,0.0035
2429.00,0.0035
2428.00,0.0035
2427.00,0.0035
2426.00,0.0034
2425.00,0.0034
2424.00,0.0034
2423.00,0.0034
2422.00,0.0034
2421.00,0.0035
2420.00,0.0035
2419.00,0.0035
2418.00,0.0035
2417.00,0.0035
2416.00,0.0035
2415.00,0.0035
2414.00,0.0034
2413.00,0.0034
2412.00,0.0034
2411.00,0.0034
2410.00,0.0033
2409.00,0.0033
2408.00,0.0032
2407.00,0.0032
2406.00,0.0031
2405.00,0.0031
2404.00,0.0032
2403.00,0.0032
2402.00,0.0032
2401.00,0.0032
2400.00,0.0032
2399.00,0.0032
2398.00,0.0032
2397.00,0.0032
2396.00,0.0032
2395.00,0.0032
2394.00,0.0032
2393.00,0.0032
2392.00,0.0032
2391.00,0.0032
2390.00,0.0032
2389.00,0.0031
2388.00,0.0031
2387.00,0.0031
2386.00,0.0031
2385.00,0.0031
2384.00,0.0030
2383.00,0.0030
2382.00,0.0030
2381.00,0.0029
2380.00,0.0029
2379.00,0.0029
2378.00,0.0030
2377.00,0.0030
2376.00,0.0030
2375.00,0.0030
2374.00,0.0030
2373.00,0.0030
2372.00,0.0030
2371.00,0.0030
2370.00,0.0030
2369.00,0.0030
2368.00,0.0031
2367.00,0.0031
2366.00,0.0031
2365.00,0.0031
2364.00,0.0031
2363.00,0.0031
2362.00,0.0031
2361.00,0.0031
2360.00,0.0031
2359.00,0.0032
2358.00,0.0033
2357.00,0.0033
2356.00,0.0033
2355.00,0.0033
2354.00,0.0032
2353.00,0.0032
2352.00,0.0032
2351.00,0.0032
2350.00,0.0032
2349.00,0.0033
2348.00,0.0033
2347.00,0.0033
2346.00,0.0034
2345.00,0.0034
2344.00,0.0034
2343.00,0.0034
2342.00,0.0035
2341.00,0.0035
2340.00,0.0035
2339.00,0.0035
2338.00,0.0035
2337.00,0.0035
2336.00,0.0034
2335.00,0.0034
2334.00,0.0034
2333.00,0.0034
2332.00,0.0034
2331.00,0.0034
2330.00,0.0035
2329.00,0.0037
2328.00,0.0040
2327.00,0.0044
2326.00,0.0047
2325.00,0.0048
2324.00,0.0047
2323.00,0.0045
2322.00,0.0043
2321.00,0.0042
2320.00,0.0042
2319.00,0.0041
2318.00,0.0041
2317.00,0.0040
2316.00,0.0040
2315.00,0.0039
2314.00,0.0039
2313.00,0.0038
2312.00,0.0038
2311.00,0.0038
2310.00,0.0038
2309.00,0.0038
2308.00,0.0038
2307.00,0.0038
2306.00,0.0038
2305.00,0.0038
2304.00,0.0038
2303.00,0.0038
2302.00,0.0038
2301.00,0.0038
2300.00,0.0038
2299.00,0.0038
2298.00,0.0038
2297.00,0.0039
2296.00,0.0040
2295.00,0.0041
2294.00,0.0041
2293.00,0.0042
2292.00,0.0043
2291.00,0.0043
2290.00,0.0043
2289.00,0.0043
2288.00,0.0043
2287.00,0.0043
2286.00,0.0043
2285.00,0.0043
2284.00,0.0042
2283.00,0.0041
2282.00,0.0040
2281.00,0.0040
2280.00,0.0039
2279.00,0.0039
2278.00,0.0039
2277.00,0.0038
2276.00,0.0038
2275.00,0.0038
2274.00,0.0038
2273.00,0.0038
2272.00,0.0038
2271.00,0.0037
2270.00,0.0037
2269.00,0.0037
2268.00,0.0037
2267.00,0.0036
2266.00,0.0036
2265.00,0.0036
2264.00,0.0035
2263.00,0.0035
2262.00,0.0036
2261.00,0.0037
2260.00,0.0038
2259.00,0.0038
2258.00,0.0038
2257.00,0.0037
2256.00,0.0036
2255.00,0.0035
2254.00,0.0035
2253.00,0.0035
2252.00,0.0035
2251.00,0.0035
2250.00,0.0035
2249.00,0.0035
2248.00,0.0034
2247.00,0.0034
2246.00,0.0033
2245.00,0.0034
2244.00,0.0034
2243.00,0.0034
2242.00,0.0033
2241.00,0.0033
2240.00,0.0033
2239.00,0.0033
2238.00,0.0033
2237.00,0.0033
2236.00,0.0033
2235.00,0.0033
2234.00,0.0034
2233.00,0.0035
2232.00,0.0036
2231.00,0.0035
2230.00,0.0034
2229.00,0.0033
2228.00,0.0033
2227.00,0.0033
2226.00,0.0033
2225.00,0.0033
2224.00,0.0033
2223.00,0.0033
2222.00,0.0034
2221.00,0.0034
2220.00,0.0035
2219.00,0.0034
2218.00,0.0034
2217.00,0.0033
2216.00,0.0034
2215.00,0.0034
2214.00,0.0034
2213.00,0.0033
2212.00,0.0032
2211.00,0.0031
2210.00,0.0030
2209.00,0.0031
2208.00,0.0032
2207.00,0.0033
2206.00,0.0033
2205.00,0.0032
2204.00,0.0032
2203.00,0.0032
2202.00,0.0033
2201.00,0.0033
2200.00,0.0033
2199.00,0.0033
2198.00,0.0033
2197.00,0.0033
2196.00,0.0033
2195.00,0.0034
2194.00,0.0035
2193.00,0.0036
2192.00,0.0037
2191.00,0.0037
2190.00,0.0037
2189.00,0.0036
2188.00,0.0036
2187.00,0.0035
2186.00,0.0035
2185.00,0.0034
2184.00,0.0033
2183.00,0.0032
2182.00,0.0032
2181.00,0.0032
2180.00,0.0033
2179.00,0.0032
2178.00,0.0031
2177.00,0.0029
2176.00,0.0028
2175.00,0.0028
2174.00,0.0028
2173.00,0.0029
2172.00,0.0030
2171.00,0.0033
2170.00,0.0036
2169.00,0.0039
2168.00,0.0041
2167.00,0.0042
2166.00,0.0042
2165.00,0.0043
2164.00,0.0044
2163.00,0.0044
2162.00,0.0038
2161.00,0.0027
2160.00,0.0014
2159.00,0.0005
2158.00,0.0002
2157.00,0.0003
2156.00,0.0006
2155.00,0.0009
2154.00,0.0010
2153.00,0.0011
2152.00,0.0012
2151.00,0.0013
2150.00,0.0012
2149.00,0.0012
2148.00,0.0012
2147.00,0.0012
2146.00,0.0013
2145.00,0.0014
2144.00,0.0015
2143.00,0.0016
2142.00,0.0017
2141.00,0.0017
2140.00,0.0017
2139.00,0.0017
2138.00,0.0015
2137.00,0.0014
2136.00,0.0012
2135.00,0.0011
2134.00,0.0011
2133.00,0.0012
2132.00,0.0013
2131.00,0.0015
2130.00,0.0016
2129.00,0.0018
2128.00,0.0019
2127.00,0.0020
2126.00,0.0021
2125.00,0.0022
2124.00,0.0023
2123.00,0.0024
2122.00,0.0025
2121.00,0.0025
2120.00,0.0025
2119.00,0.0025
2118.00,0.0026
2117.00,0.0028
2116.00,0.0029
2115.00,0.0030
2114.00,0.0030
2113.00,0.0030
2112.00,0.0030
2111.00,0.0030
2110.00,0.0030
2109.00,0.0030
2108.00,0.0031
2107.00,0.0030
2106.00,0.0030
2105.00,0.0030
2104.00,0.0031
2103.00,0.0031
2102.00,0.0030
2101.00,0.0029
2100.00,0.0029
2099.00,0.0028
2098.00,0.0027
2097.00,0.0025
2096.00,0.0024
2095.00,0.0024
2094.00,0.0024
2093.00,0.0025
2092.00,0.0027
2091.00,0.0029
2090.00,0.0030
2089.00,0.0030
2088.00,0.0030
2087.00,0.0030
2086.00,0.0030
2085.00,0.0031
2084.00,0.0032
2083.00,0.0033
2082.00,0.0033
2081.00,0.0032
2080.00,0.0032
2079.00,0.0032
2078.00,0.0032
2077.00,0.0031
2076.00,0.0031
2075.00,0.0030
2074.00,0.0030
2073.00,0.0030
2072.00,0.0030
2071.00,0.0030
2070.00,0.0030
2069.00,0.0030
2068.00,0.0029
2067.00,0.0029
2066.00,0.0029
2065.00,0.0029
2064.00,0.0029
2063.00,0.0028
2062.00,0.0026
2061.00,0.0026
2060.00,0.0026
2059.00,0.0027
2058.00,0.0028
2057.00,0.0030
2056.00,0.0030
2055.00,0.0031
2054.00,0.0033
2053.00,0.0036
2052.00,0.0039
2051.00,0.0039
2050.00,0.0037
2049.00,0.0034
2048.00,0.0032
2047.00,0.0031
2046.00,0.0031
2045.00,0.0032
2044.00,0.0032
2043.00,0.0033
2042.00,0.0034
2041.00,0.0033
2040.00,0.0033
2039.00,0.0032
2038.00,0.0032
2037.00,0.0031
2036.00,0.0030
2035.00,0.0028
2034.00,0.0026
2033.00,0.0024
2032.00,0.0023
2031.00,0.0023
2030.00,0.0022
2029.00,0.0021
2028.00,0.0020
2027.00,0.0020
2026.00,0.0020
2025.00,0.0020
2024.00,0.0020
2023.00,0.0021
2022.00,0.0020
2021.00,0.0020
2020.00,0.0020
2019.00,0.0020
2018.00,0.0021
2017.00,0.0022
2016.00,0.0023
2015.00,0.0023
2014.00,0.0023
2013.00,0.0023
2012.00,0.0024
2011.00,0.0024
2010.00,0.0023
2009.00,0.0021
2008.00,0.0018
2007.00,0.0016
2006.00,0.0016
2005.00,0.0017
2004.00,0.0019
2003.00,0.0021
2002.00,0.0021
2001.00,0.0021
2000.00,0.0022
1999.00,0.0022
1998.00,0.0023
1997.00,0.0023
1996.00,0.0023
1995.00,0.0024
1994.00,0.0025
1993.00,0.0026
1992.00,0.0026
1991.00,0.0026
1990.00,0.0025
1989.00,0.0025
1988.00,0.0026
1987.00,0.0028
1986.00,0.0030
1985.00,0.0031
1984.00,0.0033
1983.00,0.0036
1982.00,0.0038
1981.00,0.0039
1980.00,0.0037
1979.00,0.0032
1978.00,0.0026
1977.00,0.0021
1976.00,0.0019
1975.00,0.0018
1974.00,0.0016
1973.00,0.0015
1972.00,0.0016
1971.00,0.0018
1970.00,0.0019
1969.00,0.0020
1968.00,0.0020
1967.00,0.0019
1966.00,0.0018
1965.00,0.0017
1964.00,0.0016
1963.00,0.0016
1962.00,0.0015
1961.00,0.0013
1960.00,0.0013
1959.00,0.0013
1958.00,0.0014
1957.00,0.0015
1956.00,0.0016
1955.00,0.0017
1954.00,0.0018
1953.00,0.0018
1952.00,0.0018
1951.00,0.0018
1950.00,0.0018
1949.00,0.0018
1948.00,0.0018
1947.00,0.0018
1946.00,0.0018
1945.00,0.0019
1944.00,0.0019
1943.00,0.0020
1942.00,0.0020
1941.00,0.0019
1940.00,0.0018
1939.00,0.0017
1938.00,0.0017
1937.00,0.0018
1936.00,0.0019
1935.00,0.0020
1934.00,0.0020
1933.00,0.0020
1932.00,0.0020
1931.00,0.0019
1930.00,0.0019
1929.00,0.0020
1928.00,0.0020
1927.00,0.0020
1926.00,0.0020
1925.00,0.0020
1924.00,0.0020
1923.00,0.0021
1922.00,0.0021
1921.00,0.0022
1920.00,0.0023
1919.00,0.0023
1918.00,0.0023
1917.00,0.0023
1916.00,0.0023
1915.00,0.0022
1914.00,0.0022
1913.00,0.0022
1912.00,0.0022
1911.00,0.0022
1910.00,0.0022
1909.00,0.0022
1908.00,0.0022
1907.00,0.0022
1906.00,0.0022
1905.00,0.0022
1904.00,0.0022
1903.00,0.0023
1902.00,0.0023
1901.00,0.0023
1900.00,0.0023
1899.00,0.0023
1898.00,0.0023
1897.00,0.0023
1896.00,0.0023
1895.00,0.0023
1894.00,0.0023
1893.00,0.0023
1892.00,0.0024
1891.00,0.0023
1890.00,0.0023
1889.00,0.0022
1888.00,0.0022
1887.00,0.0022
1886.00,0.0023
1885.00,0.0023
1884.00,0.0023
1883.00,0.0023
1882.00,0.0024
1881.00,0.0024
1880.00,0.0024
1879.00,0.0024
1878.00,0.0024
1877.00,0.0024
1876.00,0.0024
1875.00,0.0024
1874.00,0.0023
1873.00,0.0023
1872.00,0.0023
1871.00,0.0023
1870.00,0.0023
1869.00,0.0023
1868.00,0.0024
1867.00,0.0024
1866.00,0.0024
1865.00,0.0024
1864.00,0.0024
1863.00,0.0023
1862.00,0.0023
1861.00,0.0023
1860.00,0.0023
1859.00,0.0023
1858.00,0.0023
1857.00,0.0023
1856.00,0.0023
1855.00,0.0023
1854.00,0.0023
1853.00,0.0023
1852.00,0.0024
1851.00,0.0024
1850.00,0.0024
1849.00,0.0023
1848.00,0.0023
1847.00,0.0023
1846.00,0.0023
1845.00,0.0022
1844.00,0.0022
1843.00,0.0023
1842.00,0.0023
1841.00,0.0024
1840.00,0.0025
1839.00,0.0025
1838.00,0.0025
1837.00,0.0025
1836.00,0.0025
1835.00,0.0025
1834.00,0.0024
1833.00,0.0024
1832.00,0.0023
1831.00,0.0023
1830.00,0.0023
1829.00,0.0023
1828.00,0.0023
1827.00,0.0023
1826.00,0.0024
1825.00,0.0024
1824.00,0.0024
1823.00,0.0025
1822.00,0.0024
1821.00,0.0024
1820.00,0.0023
1819.00,0.0022
1818.00,0.0022
1817.00,0.0022
1816.00,0.0022
1815.00,0.0023
1814.00,0.0023
1813.00,0.0024
1812.00,0.0024
1811.00,0.0024
1810.00,0.0024
1809.00,0.0024
1808.00,0.0024
1807.00,0.0024
1806.00,0.0024
1805.00,0.0024
1804.00,0.0024
1803.00,0.0024
1802.00,0.0024
1801.00,0.0025
1800.00,0.0025
1799.00,0.0025
1798.00,0.0025
1797.00,0.0025
1796.00,0.0025
1795.00,0.0025
1794.00,0.0025
1793.00,0.0024
1792.00,0.0025
1791.00,0.0025
1790.00,0.0026
1789.00,0.0026
1788.00,0.0026
1787.00,0.0026
1786.00,0.0026
1785.00,0.0026
1784.00,0.0026
1783.00,0.0026
1782.00,0.0026
1781.00,0.0026
1780.00,0.0026
1779.00,0.0026
1778.00,0.0026
1777.00,0.0026
1776.00,0.0026
1775.00,0.0026
1774.00,0.0026
1773.00,0.0026
1772.00,0.0026
1771.00,0.0026
1770.00,0.0026
1769.00,0.0027
1768.00,0.0027
1767.00,0.0028
1766.00,0.0027
1765.00,0.0027
1764.00,0.0027
1763.00,0.0027
1762.00,0.0027
1761.00,0.0027
1760.00,0.0028
1759.00,0.0028
1758.00,0.0029
1757.00,0.0029
1756.00,0.0029
1755.00,0.0029
1754.00,0.0029
1753.00,0.0029
1752.00,0.0029
1751.00,0.0030
1750.00,0.0030
1749.00,0.0030
1748.00,0.0030
1747.00,0.0031
1746.00,0.0031
1745.00,0.0031
1744.00,0.0031
1743.00,0.0031
1742.00,0.0031
1741.00,0.0031
1740.00,0.0032
1739.00,0.0032
1738.00,0.0031
1737.00,0.0031
1736.00,0.0032
1735.00,0.0033
1734.00,0.0034
1733.00,0.0034
1732.00,0.0035
1731.00,0.0036
1730.00,0.0037
1729.00,0.0037
1728.00,0.0038
1727.00,0.0039
1726.00,0.0039
1725.00,0.0040
1724.00,0.0041
1723.00,0.0042
1722.00,0.0043
1721.00,0.0043
1720.00,0.0044
1719.00,0.0045
1718.00,0.0046
1717.00,0.0048
1716.00,0.0051
1715.00,0.0053
1714.00,0.0055
1713.00,0.0058
1712.00,0.0060
1711.00,0.0063
1710.00,0.0066
1709.00,0.0069
1708.00,0.0074
1707.00,0.0079
1706.00,0.0085
1705.00,0.0092
1704.00,0.0099
1703.00,0.0106
1702.00,0.0114
1701.00,0.0127
1700.00,0.0145
1699.00,0.0160
1698.00,0.0174
1697.00,0.0191
1696.00,0.0213
1695.00,0.0237
1694.00,0.0257
1693.00,0.0275
1692.00,0.0295
1691.00,0.0316
1690.00,0.0339
1689.00,0.0362
1688.00,0.0382
1687.00,0.0400
1686.00,0.0419
1685.00,0.0442
1684.00,0.0469
1683.00,0.0492
1682.00,0.0508
1681.00,0.0523
1680.00,0.0538
1679.00,0.0552
1678.00,0.0563
1677.00,0.0574
1676.00,0.0586
1675.00,0.0597
1674.00,0.0607
1673.00,0.0614
1672.00,0.0622
1671.00,0.0630
1670.00,0.0638
1669.00,0.0646
1668.00,0.0653
1667.00,0.0660
1666.00,0.0666
1665.00,0.0672
1664.00,0.0680
1663.00,0.0687
1662.00,0.0693
1661.00,0.0698
1660.00,0.0703
1659.00,0.0707
1658.00,0.0710
1657.00,0.0712
1656.00,0.0714
1655.00,0.0715
1654.00,0.0714
1653.00,0.0707
1652.00,0.0697
1651.00,0.0691
1650.00,0.0686
1649.00,0.0681
1648.00,0.0672
1647.00,0.0656
1646.00,0.0637
1645.00,0.0618
1644.00,0.0602
1643.00,0.0586
1642.00,0.0569
1641.00,0.0550
1640.00,0.0531
1639.00,0.0513
1638.00,0.0494
1637.00,0.0474
1636.00,0.0450
1635.00,0.0425
1634.00,0.0405
1633.00,0.0389
1632.00,0.0376
1631.00,0.0363
1630.00,0.0350
1629.00,0.0338
1628.00,0.0327
1627.00,0.0318
1626.00,0.0312
1625.00,0.0309
1624.00,0.0309
1623.00,0.0311
1622.00,0.0313
1621.00,0.0315
1620.00,0.0315
1619.00,0.0315
1618.00,0.0313
1617.00,0.0308
1616.00,0.0300
1615.00,0.0293
1614.00,0.0286
1613.00,0.0281
1612.00,0.0275
1611.00,0.0269
1610.00,0.0263
1609.00,0.0256
1608.00,0.0248
1607.00,0.0239
1606.00,0.0228
1605.00,0.0217
1604.00,0.0205
1603.00,0.0194
1602.00,0.0184
1601.00,0.0175
1600.00,0.0166
1599.00,0.0160
1598.00,0.0154
1597.00,0.0150
1596.00,0.0148
1595.00,0.0147
1594.00,0.0149
1593.00,0.0152
1592.00,0.0157
1591.00,0.0163
1590.00,0.0171
1589.00,0.0179
1588.00,0.0187
1587.00,0.0193
1586.00,0.0196
1585.00,0.0197
1584.00,0.0194
1583.00,0.0189
1582.00,0.0182
1581.00,0.0174
1580.00,0.0165
1579.00,0.0158
1578.00,0.0151
1577.00,0.0144
1576.00,0.0136
1575.00,0.0131
1574.00,0.0126
1573.00,0.0124
1572.00,0.0121
1571.00,0.0118
1570.00,0.0115
1569.00,0.0112
1568.00,0.0110
1567.00,0.0108
1566.00,0.0106
1565.00,0.0103
1564.00,0.0101
1563.00,0.0098
1562.00,0.0096
1561.00,0.0093
1560.00,0.0091
1559.00,0.0089
1558.00,0.0087
1557.00,0.0086
1556.00,0.0085
1555.00,0.0085
1554.00,0.0085
1553.00,0.0084
1552.00,0.0083
1551.00,0.0083
1550.00,0.0082
1549.00,0.0081
1548.00,0.0080
1547.00,0.0079
1546.00,0.0078
1545.00,0.0076
1544.00,0.0075
1543.00,0.0073
1542.00,0.0072
1541.00,0.0072
1540.00,0.0072
1539.00,0.0072
1538.00,0.0073
1537.00,0.0073
1536.00,0.0073
1535.00,0.0074
1534.00,0.0074
1533.00,0.0075
1532.00,0.0075
1531.00,0.0075
1530.00,0.0076
1529.00,0.0076
1528.00,0.0076
1527.00,0.0076
1526.00,0.0077
1525.00,0.0077
1524.00,0.0078
1523.00,0.0078
1522.00,0.0080
1521.00,0.0082
1520.00,0.0083
1519.00,0.0084
1518.00,0.0086
1517.00,0.0088
1516.00,0.0090
1515.00,0.0091
1514.00,0.0093
1513.00,0.0093
1512.00,0.0094
1511.00,0.0094
1510.00,0.0095
1509.00,0.0096
1508.00,0.0098
1507.00,0.0103
1506.00,0.0109
1505.00,0.0115
1504.00,0.0120
1503.00,0.0127
1502.00,0.0134
1501.00,0.0143
1500.00,0.0152
1499.00,0.0163
1498.00,0.0174
1497.00,0.0185
1496.00,0.0193
1495.00,0.0198
1494.00,0.0199
1493.00,0.0199
1492.00,0.0195
1491.00,0.0190
1490.00,0.0182
1489.00,0.0172
1488.00,0.0162
1487.00,0.0153
1486.00,0.0144
1485.00,0.0136
1484.00,0.0129
1483.00,0.0124
1482.00,0.0119
1481.00,0.0115
1480.00,0.0113
1479.00,0.0111
1478.00,0.0111
1477.00,0.0112
1476.00,0.0115
1475.00,0.0119
1474.00,0.0125
1473.00,0.0136
1472.00,0.0150
1471.00,0.0164
1470.00,0.0178
1469.00,0.0193
1468.00,0.0209
1467.00,0.0227
1466.00,0.0247
1465.00,0.0269
1464.00,0.0289
1463.00,0.0305
1462.00,0.0315
1461.00,0.0322
1460.00,0.0325
1459.00,0.0323
1458.00,0.0315
1457.00,0.0301
1456.00,0.0285
1455.00,0.0272
1454.00,0.0263
1453.00,0.0256
1452.00,0.0250
1451.00,0.0247
1450.00,0.0247
1449.00,0.0251
1448.00,0.0258
1447.00,0.0268
1446.00,0.0280
1445.00,0.0292
1444.00,0.0306
1443.00,0.0319
1442.00,0.0333
1441.00,0.0346
1440.00,0.0358
1439.00,0.0368
1438.00,0.0378
1437.00,0.0389
1436.00,0.0399
1435.00,0.0406
1434.00,0.0411
1433.00,0.0415
1432.00,0.0418
1431.00,0.0422
1430.00,0.0426
1429.00,0.0433
1428.00,0.0441
1427.00,0.0450
1426.00,0.0461
1425.00,0.0473
1424.00,0.0485
1423.00,0.0493
1422.00,0.0496
1421.00,0.0494
1420.00,0.0484
1419.00,0.0465
1418.00,0.0441
1417.00,0.0417
1416.00,0.0393
1415.00,0.0369
1414.00,0.0346
1413.00,0.0325
1412.00,0.0307
1411.00,0.0292
1410.00,0.0280
1409.00,0.0271
1408.00,0.0264
1407.00,0.0260
1406.00,0.0257
1405.00,0.0256
1404.00,0.0255
1403.00,0.0253
1402.00,0.0251
1401.00,0.0247
1400.00,0.0241
1399.00,0.0233
1398.00,0.0224
1397.00,0.0214
1396.00,0.0204
1395.00,0.0194
1394.00,0.0185
1393.00,0.0177
1392.00,0.0172
1391.00,0.0168
1390.00,0.0166
1389.00,0.0165
1388.00,0.0166
1387.00,0.0168
1386.00,0.0172
1385.00,0.0177
1384.00,0.0182
1383.00,0.0188
1382.00,0.0194
1381.00,0.0200
1380.00,0.0204
1379.00,0.0208
1378.00,0.0211
1377.00,0.0212
1376.00,0.0213
1375.00,0.0212
1374.00,0.0211
1373.00,0.0210
1372.00,0.0208
1371.00,0.0206
1370.00,0.0204
1369.00,0.0202
1368.00,0.0200
1367.00,0.0198
1366.00,0.0196
1365.00,0.0196
1364.00,0.0195
1363.00,0.0196
1362.00,0.0196
1361.00,0.0195
1360.00,0.0192
1359.00,0.0187
1358.00,0.0181
1357.00,0.0173
1356.00,0.0165
1355.00,0.0157
1354.00,0.0151
1353.00,0.0145
1352.00,0.0141
1351.00,0.0138
1350.00,0.0136
1349.00,0.0134
1348.00,0.0132
1347.00,0.0131
1346.00,0.0130
1345.00,0.0130
1344.00,0.0129
1343.00,0.0128
1342.00,0.0129
1341.00,0.0129
1340.00,0.0130
1339.00,0.0131
1338.00,0.0133
1337.00,0.0135
1336.00,0.0137
1335.00,0.0139
1334.00,0.0142
1333.00,0.0145
1332.00,0.0148
1331.00,0.0150
1330.00,0.0154
1329.00,0.0158
1328.00,0.0162
1327.00,0.0167
1326.00,0.0173
1325.00,0.0179
1324.00,0.0185
1323.00,0.0191
1322.00,0.0197
1321.00,0.0203
1320.00,0.0208
1319.00,0.0212
1318.00,0.0215
1317.00,0.0216
1316.00,0.0216
1315.00,0.0214
1314.00,0.0211
1313.00,0.0207
1312.00,0.0203
1311.00,0.0199
1310.00,0.0197
1309.00,0.0195
1308.00,0.0194
1307.00,0.0194
1306.00,0.0195
1305.00,0.0199
1304.00,0.0203
1303.00,0.0209
1302.00,0.0218
1301.00,0.0228
1300.00,0.0242
1299.00,0.0258
1298.00,0.0279
1297.00,0.0302
1296.00,0.0329
1295.00,0.0358
1294.00,0.0388
1293.00,0.0418
1292.00,0.0447
1291.00,0.0474
1290.00,0.0498
1289.00,0.0518
1288.00,0.0534
1287.00,0.0545
1286.00,0.0551
1285.00,0.0551
1284.00,0.0547
1283.00,0.0539
1282.00,0.0528
1281.00,0.0517
1280.00,0.0507
1279.00,0.0498
1278.00,0.0492
1277.00,0.0490
1276.00,0.0490
1275.00,0.0491
1274.00,0.0493
1273.00,0.0495
1272.00,0.0495
1271.00,0.0492
1270.00,0.0487
1269.00,0.0478
1268.00,0.0466
1267.00,0.0452
1266.00,0.0435
1265.00,0.0418
1264.00,0.0399
1263.00,0.0380
1262.00,0.0362
1261.00,0.0344
1260.00,0.0327
1259.00,0.0312
1258.00,0.0297
1257.00,0.0284
1256.00,0.0271
1255.00,0.0260
1254.00,0.0251
1253.00,0.0243
1252.00,0.0237
1251.00,0.0231
1250.00,0.0228
1249.00,0.0225
1248.00,0.0224
1247.00,0.0225
1246.00,0.0227
1245.00,0.0230
1244.00,0.0234
1243.00,0.0239
1242.00,0.0243
1241.00,0.0248
1240.00,0.0251
1239.00,0.0254
1238.00,0.0258
1237.00,0.0261
1236.00,0.0263
1235.00,0.0266
1234.00,0.0269
1233.00,0.0271
1232.00,0.0272
1231.00,0.0273
1230.00,0.0274
1229.00,0.0274
1228.00,0.0273
1227.00,0.0272
1226.00,0.0272
1225.00,0.0272
1224.00,0.0272
1223.00,0.0272
1222.00,0.0273
1221.00,0.0273
1220.00,0.0274
1219.00,0.0273
1218.00,0.0272
1217.00,0.0269
1216.00,0.0265
1215.00,0.0259
1214.00,0.0253
1213.00,0.0246
1212.00,0.0238
1211.00,0.0231
1210.00,0.0224
1209.00,0.0217
1208.00,0.0211
1207.00,0.0207
1206.00,0.0203
1205.00,0.0200
1204.00,0.0199
1203.00,0.0198
1202.00,0.0199
1201.00,0.0201
1200.00,0.0203
1199.00,0.0207
1198.00,0.0210
1197.00,0.0214
1196.00,0.0217
1195.00,0.0219
1194.00,0.0220
1193.00,0.0219
1192.00,0.0215
1191.00,0.0210
1190.00,0.0204
1189.00,0.0197
1188.00,0.0191
1187.00,0.0184
1186.00,0.0179
1185.00,0.0174
1184.00,0.0170
1183.00,0.0167
1182.00,0.0165
1181.00,0.0164
1180.00,0.0163
1179.00,0.0163
1178.00,0.0163
1177.00,0.0165
1176.00,0.0166
1175.00,0.0168
1174.00,0.0170
1173.00,0.0172
1172.00,0.0174
1171.00,0.0177
1170.00,0.0179
1169.00,0.0180
1168.00,0.0181
1167.00,0.0181
1166.00,0.0181
1165.00,0.0181
1164.00,0.0182
1163.00,0.0183
1162.00,0.0187
1161.00,0.0190
1160.00,0.0194
1159.00,0.0198
1158.00,0.0201
1157.00,0.0203
1156.00,0.0203
1155.00,0.0201
1154.00,0.0197
1153.00,0.0192
1152.00,0.0185
1151.00,0.0178
1150.00,0.0171
1149.00,0.0163
1148.00,0.0156
1147.00,0.0150
1146.00,0.0144
1145.00,0.0139
1144.00,0.0135
1143.00,0.0131
1142.00,0.0129
1141.00,0.0126
1140.00,0.0125
1139.00,0.0125
1138.00,0.0127
1137.00,0.0130
1136.00,0.0134
1135.00,0.0141
1134.00,0.0150
1133.00,0.0159
1132.00,0.0169
1131.00,0.0176
1130.00,0.0181
1129.00,0.0182
1128.00,0.0179
1127.00,0.0172
1126.00,0.0164
1125.00,0.0155
1124.00,0.0146
1123.00,0.0139
1122.00,0.0133
1121.00,0.0129
1120.00,0.0125
1119.00,0.0123
1118.00,0.0122
1117.00,0.0121
1116.00,0.0121
1115.00,0.0121
1114.00,0.0122
1113.00,0.0122
1112.00,0.0123
1111.00,0.0124
1110.00,0.0125
1109.00,0.0127
1108.00,0.0128
1107.00,0.0129
1106.00,0.0132
1105.00,0.0135
1104.00,0.0138
1103.00,0.0141
1102.00,0.0144
1101.00,0.0146
1100.00,0.0147
1099.00,0.0146
1098.00,0.0144
1097.00,0.0141
1096.00,0.0138
1095.00,0.0134
1094.00,0.0131
1093.00,0.0128
1092.00,0.0125
1091.00,0.0122
1090.00,0.0120
1089.00,0.0119
1088.00,0.0118
1087.00,0.0117
1086.00,0.0116
1085.00,0.0116
1084.00,0.0117
1083.00,0.0117
1082.00,0.0118
1081.00,0.0120
1080.00,0.0121
1079.00,0.0123
1078.00,0.0125
1077.00,0.0128
1076.00,0.0131
1075.00,0.0134
1074.00,0.0137
1073.00,0.0140
1072.00,0.0143
1071.00,0.0146
1070.00,0.0151
1069.00,0.0157
1068.00,0.0164
1067.00,0.0173
1066.00,0.0184
1065.00,0.0195
1064.00,0.0207
1063.00,0.0220
1062.00,0.0233
1061.00,0.0245
1060.00,0.0255
1059.00,0.0262
1058.00,0.0266
1057.00,0.0266
1056.00,0.0260
1055.00,0.0251
1054.00,0.0239
1053.00,0.0226
1052.00,0.0212
1051.00,0.0200
1050.00,0.0190
1049.00,0.0182
1048.00,0.0176
1047.00,0.0173
1046.00,0.0173
1045.00,0.0173
1044.00,0.0174
1043.00,0.0175
1042.00,0.0178
1041.00,0.0181
1040.00,0.0183
1039.00,0.0186
1038.00,0.0189
1037.00,0.0191
1036.00,0.0193
1035.00,0.0194
1034.00,0.0196
1033.00,0.0198
1032.00,0.0199
1031.00,0.0199
1030.00,0.0198
1029.00,0.0195
1028.00,0.0191
1027.00,0.0187
1026.00,0.0182
1025.00,0.0178
1024.00,0.0174
1023.00,0.0171
1022.00,0.0170
1021.00,0.0169
1020.00,0.0167
1019.00,0.0166
1018.00,0.0165
1017.00,0.0164
1016.00,0.0161
1015.00,0.0157
1014.00,0.0152
1013.00,0.0147
1012.00,0.0142
1011.00,0.0138
1010.00,0.0136
1009.00,0.0135
1008.00,0.0136
1007.00,0.0138
1006.00,0.0142
1005.00,0.0146
1004.00,0.0149
1003.00,0.0151
1002.00,0.0152
1001.00,0.0151
1000.00,0.0148
999.00,0.0145
998.00,0.0141
997.00,0.0137
996.00,0.0133
995.00,0.0129
994.00,0.0126
993.00,0.0124
992.00,0.0121
991.00,0.0118
990.00,0.0116
989.00,0.0113
988.00,0.0111
987.00,0.0108
986.00,0.0106
985.00,0.0105
984.00,0.0103
983.00,0.0102
982.00,0.0102
981.00,0.0102
980.00,0.0101
979.00,0.0100
978.00,0.0100
977.00,0.0100
976.00,0.0099
975.00,0.0098
974.00,0.0098
973.00,0.0098
972.00,0.0097
971.00,0.0095
970.00,0.0094
969.00,0.0093
968.00,0.0092
967.00,0.0091
966.00,0.0090
965.00,0.0090
964.00,0.0089
963.00,0.0088
962.00,0.0088
961.00,0.0088
960.00,0.0087
959.00,0.0086
958.00,0.0086
957.00,0.0085
956.00,0.0084
955.00,0.0083
954.00,0.0083
953.00,0.0082
952.00,0.0082
951.00,0.0081
950.00,0.0082
949.00,0.0082
948.00,0.0082
947.00,0.0082
946.00,0.0083
945.00,0.0084
944.00,0.0085
943.00,0.0086
942.00,0.0089
941.00,0.0093
940.00,0.0096
939.00,0.0100
938.00,0.0105
937.00,0.0110
936.00,0.0114
935.00,0.0118
934.00,0.0122
933.00,0.0124
932.00,0.0124
931.00,0.0122
930.00,0.0121
929.00,0.0119
928.00,0.0118
927.00,0.0117
926.00,0.0117
925.00,0.0116
924.00,0.0115
923.00,0.0114
922.00,0.0113
921.00,0.0111
920.00,0.0109
919.00,0.0108
918.00,0.0106
917.00,0.0105
916.00,0.0104
915.00,0.0103
914.00,0.0102
913.00,0.0102
912.00,0.0101
911.00,0.0100
910.00,0.0101
909.00,0.0102
908.00,0.0102
907.00,0.0103
906.00,0.0106
905.00,0.0108
904.00,0.0111
903.00,0.0114
902.00,0.0118
901.00,0.0121
900.00,0.0124
899.00,0.0127
898.00,0.0129
897.00,0.0130
896.00,0.0130
895.00,0.0129
894.00,0.0127
893.00,0.0125
892.00,0.0122
891.00,0.0119
890.00,0.0117
889.00,0.0115
888.00,0.0113
887.00,0.0111
886.00,0.0111
885.00,0.0111
884.00,0.0112
883.00,0.0113
882.00,0.0114
881.00,0.0116
880.00,0.0118
879.00,0.0120
878.00,0.0124
877.00,0.0128
876.00,0.0132
875.00,0.0136
874.00,0.0140
873.00,0.0143
872.00,0.0145
871.00,0.0147
870.00,0.0149
869.00,0.0150
868.00,0.0151
867.00,0.0151
866.00,0.0151
865.00,0.0152
864.00,0.0152
863.00,0.0153
862.00,0.0155
861.00,0.0157
860.00,0.0159
859.00,0.0160
858.00,0.0163
857.00,0.0165
856.00,0.0168
855.00,0.0171
854.00,0.0174
853.00,0.0178
852.00,0.0182
851.00,0.0185
850.00,0.0189
849.00,0.0192
848.00,0.0195
847.00,0.0196
846.00,0.0198
845.00,0.0199
844.00,0.0200
843.00,0.0200
842.00,0.0200
841.00,0.0200
840.00,0.0198
839.00,0.0197
838.00,0.0197
837.00,0.0196
836.00,0.0195
835.00,0.0194
834.00,0.0194
833.00,0.0194
832.00,0.0193
831.00,0.0193
830.00,0.0192
829.00,0.0192
828.00,0.0191
827.00,0.0189
826.00,0.0188
825.00,0.0187
824.00,0.0185
823.00,0.0183
822.00,0.0183
821.00,0.0183
820.00,0.0183
819.00,0.0183
818.00,0.0183
817.00,0.0183
816.00,0.0182
815.00,0.0181
814.00,0.0179
813.00,0.0176
812.00,0.0172
811.00,0.0167
810.00,0.0161
809.00,0.0155
808.00,0.0148
807.00,0.0141
806.00,0.0136
805.00,0.0131
804.00,0.0127
803.00,0.0123
802.00,0.0121
801.00,0.0119
800.00,0.0117
799.00,0.0116
798.00,0.0116
797.00,0.0116
796.00,0.0116
795.00,0.0117
794.00,0.0119
793.00,0.0119
792.00,0.0119
791.00,0.0119
790.00,0.0119
789.00,0.0119
788.00,0.0119
787.00,0.0119
786.00,0.0120
785.00,0.0120
784.00,0.0121
783.00,0.0121
782.00,0.0122
781.00,0.0124
780.00,0.0126
779.00,0.0127
778.00,0.0129
777.00,0.0131
776.00,0.0131
775.00,0.0130
774.00,0.0131
773.00,0.0131
772.00,0.0130
771.00,0.0130
770.00,0.0131
769.00,0.0132
768.00,0.0132
767.00,0.0134
766.00,0.0136
765.00,0.0137
764.00,0.0139
763.00,0.0140
762.00,0.0143
761.00,0.0146
760.00,0.0148
759.00,0.0150
758.00,0.0153
757.00,0.0156
756.00,0.0159
755.00,0.0161
754.00,0.0164
753.00,0.0167
752.00,0.0170
751.00,0.0173
750.00,0.0177
749.00,0.0180
748.00,0.0183
747.00,0.0186
746.00,0.0189
745.00,0.0193
744.00,0.0196
743.00,0.0200
742.00,0.0205
741.00,0.0210
740.00,0.0215
739.00,0.0221
738.00,0.0226
737.00,0.0230
736.00,0.0231
735.00,0.0230
734.00,0.0228
733.00,0.0225
732.00,0.0220
731.00,0.0215
730.00,0.0210
729.00,0.0205
728.00,0.0199
727.00,0.0194
726.00,0.0189
725.00,0.0186
724.00,0.0182
723.00,0.0178
722.00,0.0175
721.00,0.0172
720.00,0.0169
719.00,0.0167
718.00,0.0167
717.00,0.0168
716.00,0.0167
715.00,0.0167
714.00,0.0167
713.00,0.0166
712.00,0.0165
711.00,0.0164
710.00,0.0164
709.00,0.0164
708.00,0.0163
707.00,0.0163
706.00,0.0163
705.00,0.0164
704.00,0.0163
703.00,0.0164
702.00,0.0165
701.00,0.0166
700.00,0.0167
699.00,0.0168
698.00,0.0170
697.00,0.0172
696.00,0.0175
695.00,0.0178
694.00,0.0182
693.00,0.0186
692.00,0.0189
691.00,0.0191
690.00,0.0194
689.00,0.0196
688.00,0.0197
687.00,0.0197
686.00,0.0197
685.00,0.0197
684.00,0.0197
683.00,0.0198
682.00,0.0200
681.00,0.0202
680.00,0.0203
679.00,0.0204
678.00,0.0206
677.00,0.0208
676.00,0.0209
675.00,0.0211
674.00,0.0214
673.00,0.0218
672.00,0.0221
671.00,0.0224
670.00,0.0228
669.00,0.0233
668.00,0.0238
667.00,0.0244
666.00,0.0250
665.00,0.0253
664.00,0.0257
663.00,0.0261
662.00,0.0266
661.00,0.0272
660.00,0.0277
659.00,0.0283
658.00,0.0289
657.00,0.0295
656.00,0.0300
655.00,0.0305
654.00,0.0311
653.00,0.0316
652.00,0.0321
651.00,0.0324
650.00,0.0328
649.00,0.0330
648.00,0.0330
647.00,0.0329
646.00,0.0328
645.00,0.0326
644.00,0.0323
643.00,0.0319
642.00,0.0315
641.00,0.0311
640.00,0.0306
639.00,0.0300
638.00,0.0296
637.00,0.0292
636.00,0.0288
635.00,0.0283
634.00,0.0280
633.00,0.0277
632.00,0.0274
631.00,0.0271
630.00,0.0270
629.00,0.0270
628.00,0.0268
627.00,0.0266
626.00,0.0265
625.00,0.0264
624.00,0.0262
623.00,0.0260
622.00,0.0260
621.00,0.0259
620.00,0.0257
619.00,0.0256
618.00,0.0256
617.00,0.0256
616.00,0.0255
615.00,0.0254
614.00,0.0254
613.00,0.0254
612.00,0.0254
611.00,0.0254
610.00,0.0256
609.00,0.0257
608.00,0.0257
607.00,0.0257
606.00,0.0259
605.00,0.0261
604.00,0.0263
603.00,0.0265
602.00,0.0267
601.00,0.0269
600.00,0.0268
599.00,0.0268
598.00,0.0269
597.00,0.0270
596.00,0.0270
595.00,0.0271
594.00,0.0273
593.00,0.0275
592.00,0.0277
591.00,0.0279
590.00,0.0283
589.00,0.0288
588.00,0.0293
587.00,0.0301
586.00,0.0310
585.00,0.0319
584.00,0.0326
583.00,0.0333
582.00,0.0340
581.00,0.0345
580.00,0.0348
579.00,0.0349
578.00,0.0352
577.00,0.0354
576.00,0.0354
575.00,0.0354
574.00,0.0355
573.00,0.0355
572.00,0.0353
571.00,0.0352
570.00,0.0352
569.00,0.0352
568.00,0.0351
567.00,0.0349
566.00,0.0349
565.00,0.0348
564.00,0.0345
563.00,0.0341
562.00,0.0339
561.00,0.0336
560.00,0.0331
559.00,0.0327
558.00,0.0324
557.00,0.0321
556.00,0.0318
555.00,0.0315
554.00,0.0313
553.00,0.0311
552.00,0.0308
551.00,0.0305
550.00,0.0304
549.00,0.0303
548.00,0.0300
547.00,0.0297
546.00,0.0296
545.00,0.0294
544.00,0.0292
543.00,0.0290
542.00,0.0289
541.00,0.0288
540.00,0.0285
539.00,0.0283
538.00,0.0284
537.00,0.0287
536.00,0.0288
535.00,0.0289
534.00,0.0291
533.00,0.0294
532.00,0.0296
531.00,0.0297
530.00,0.0300
529.00,0.0301
528.00,0.0298
527.00,0.0294
526.00,0.0292
525.00,0.0290
524.00,0.0286
523.00,0.0283
522.00,0.0282
521.00,0.0281
520.00,0.0279
519.00,0.0278
518.00,0.0279
517.00,0.0280
516.00,0.0278
515.00,0.0276
514.00,0.0277
513.00,0.0279
512.00,0.0278
511.00,0.0278
510.00,0.0279
509.00,0.0280
508.00,0.0278
507.00,0.0277
506.00,0.0277
505.00,0.0276
504.00,0.0275
503.00,0.0274
502.00,0.0276
501.00,0.0278
500.00,0.0275
499.00,0.0272
498.00,0.0271
497.00,0.0272
496.00,0.0272
495.00,0.0272
494.00,0.0274
493.00,0.0275
492.00,0.0273
491.00,0.0272
490.00,0.0274
489.00,0.0277
488.00,0.0277
487.00,0.0279
486.00,0.0283
485.00,0.0286
484.00,0.0284
483.00,0.0281
482.00,0.0282
481.00,0.0284
480.00,0.0282
479.00,0.0280
478.00,0.0280
477.00,0.0281
476.00,0.0280
475.00,0.0280
474.00,0.0283
473.00,0.0285
472.00,0.0283
471.00,0.0282
470.00,0.0285
469.00,0.0286
468.00,0.0284
467.00,0.0283
466.00,0.0286
465.00,0.0287
464.00,0.0282
463.00,0.0277
462.00,0.0275
461.00,0.0275
460.00,0.0274
459.00,0.0275
458.00,0.0281
457.00,0.0284
456.00,0.0279
455.00,0.0272
454.00,0.0269
453.00,0.0266
452.00,0.0260
451.00,0.0257
450.00,0.0259
449.00,0.0260
448.00,0.0257
447.00,0.0254
446.00,0.0257
445.00,0.0260
444.00,0.0257
443.00,0.0253
442.00,0.0254
441.00,0.0254
440.00,0.0250
439.00,0.0245
438.00,0.0245
437.00,0.0244
436.00,0.0241
435.00,0.0239
434.00,0.0242
433.00,0.0243
432.00,0.0239
431.00,0.0236
430.00,0.0241
429.00,0.0245
428.00,0.0239
427.00,0.0231
426.00,0.0228
425.00,0.0227
424.00,0.0222
423.00,0.0219
422.00,0.0226
421.00,0.0233
420.00,0.0234
419.00,0.0237
418.00,0.0252
417.00,0.0263
416.00,0.0259
415.00,0.0253
414.00,0.0255
413.00,0.0257
412.00,0.0252
411.00,0.0248
410.00,0.0250
409.00,0.0250
408.00,0.0240
407.00,0.0231
406.00,0.0233
405.00,0.0232
404.00,0.0221
403.00,0.0215
402.00,0.0230
401.00,0.0248
400.00,0.0245
