Created as New Dataset,Sample 724 By YargerLab Date Thursday, June 26 2025
cm-1,A
4000.00,0.0004
3999.00,0.0003
3998.00,0.0003
3997.00,0.0004
3996.00,0.0004
3995.00,0.0004
3994.00,0.0003
3993.00,0.0003
3992.00,0.0003
3991.00,0.0003
3990.00,0.0003
3989.00,0.0003
3988.00,0.0003
3987.00,0.0003
3986.00,0.0003
3985.00,0.0003
3984.00,0.0003
3983.00,0.0003
3982.00,0.0003
3981.00,0.0004
3980.00,0.0004
3979.00,0.0004
3978.00,0.0004
3977.00,0.0004
3976.00,0.0004
3975.00,0.0004
3974.00,0.0004
3973.00,0.0003
3972.00,0.0003
3971.00,0.0003
3970.00,0.0003
3969.00,0.0003
3968.00,0.0003
3967.00,0.0003
3966.00,0.0003
3965.00,0.0003
3964.00,0.0003
3963.00,0.0003
3962.00,0.0003
3961.00,0.0003
3960.00,0.0003
3959.00,0.0003
3958.00,0.0004
3957.00,0.0004
3956.00,0.0004
3955.00,0.0003
3954.00,0.0003
3953.00,0.0003
3952.00,0.0003
3951.00,0.0003
3950.00,0.0003
3949.00,0.0003
3948.00,0.0003
3947.00,0.0003
3946.00,0.0003
3945.00,0.0003
3944.00,0.0003
3943.00,0.0003
3942.00,0.0003
3941.00,0.0003
3940.00,0.0003
3939.00,0.0003
3938.00,0.0003
3937.00,0.0003
3936.00,0.0003
3935.00,0.0003
3934.00,0.0003
3933.00,0.0002
3932.00,0.0002
3931.00,0.0003
3930.00,0.0003
3929.00,0.0003
3928.00,0.0003
3927.00,0.0003
3926.00,0.0002
3925.00,0.0002
3924.00,0.0002
3923.00,0.0003
3922.00,0.0003
3921.00,0.0003
3920.00,0.0002
3919.00,0.0002
3918.00,0.0002
3917.00,0.0002
3916.00,0.0002
3915.00,0.0002
3914.00,0.0003
3913.00,0.0003
3912.00,0.0003
3911.00,0.0003
3910.00,0.0003
3909.00,0.0003
3908.00,0.0003
3907.00,0.0002
3906.00,0.0002
3905.00,0.0002
3904.00,0.0002
3903.00,0.0002
3902.00,0.0002
3901.00,0.0001
3900.00,0.0002
3899.00,0.0002
3898.00,0.0002
3897.00,0.0002
3896.00,0.0002
3895.00,0.0002
3894.00,0.0002
3893.00,0.0002
3892.00,0.0003
3891.00,0.0003
3890.00,0.0003
3889.00,0.0002
3888.00,0.0002
3887.00,0.0001
3886.00,0.0001
3885.00,0.0002
3884.00,0.0001
3883.00,0.0001
3882.00,0.0001
3881.00,0.0001
3880.00,0.0002
3879.00,0.0002
3878.00,0.0002
3877.00,0.0002
3876.00,0.0002
3875.00,0.0002
3874.00,0.0003
3873.00,0.0002
3872.00,0.0002
3871.00,0.0002
3870.00,0.0002
3869.00,0.0002
3868.00,0.0002
3867.00,0.0002
3866.00,0.0002
3865.00,0.0002
3864.00,0.0002
3863.00,0.0002
3862.00,0.0001
3861.00,0.0001
3860.00,0.0001
3859.00,0.0002
3858.00,0.0002
3857.00,0.0001
3856.00,0.0001
3855.00,0.0001
3854.00,0.0001
3853.00,0.0001
3852.00,0.0001
3851.00,0.0001
3850.00,0.0001
3849.00,0.0001
3848.00,0.0002
3847.00,0.0002
3846.00,0.0002
3845.00,0.0002
3844.00,0.0002
3843.00,0.0002
3842.00,0.0001
3841.00,0.0001
3840.00,0.0001
3839.00,0.0001
3838.00,0.0001
3837.00,0.0002
3836.00,0.0002
3835.00,0.0002
3834.00,0.0002
3833.00,0.0002
3832.00,0.0002
3831.00,0.0002
3830.00,0.0003
3829.00,0.0003
3828.00,0.0003
3827.00,0.0003
3826.00,0.0004
3825.00,0.0003
3824.00,0.0003
3823.00,0.0003
3822.00,0.0003
3821.00,0.0003
3820.00,0.0003
3819.00,0.0003
3818.00,0.0002
3817.00,0.0002
3816.00,0.0002
3815.00,0.0002
3814.00,0.0002
3813.00,0.0002
3812.00,0.0002
3811.00,0.0003
3810.00,0.0003
3809.00,0.0003
3808.00,0.0003
3807.00,0.0003
3806.00,0.0003
3805.00,0.0003
3804.00,0.0002
3803.00,0.0002
3802.00,0.0002
3801.00,0.0002
3800.00,0.0002
3799.00,0.0001
3798.00,0.0001
3797.00,0.0001
3796.00,0.0002
3795.00,0.0002
3794.00,0.0002
3793.00,0.0002
3792.00,0.0002
3791.00,0.0003
3790.00,0.0003
3789.00,0.0003
3788.00,0.0003
3787.00,0.0003
3786.00,0.0003
3785.00,0.0003
3784.00,0.0003
3783.00,0.0003
3782.00,0.0003
3781.00,0.0003
3780.00,0.0003
3779.00,0.0003
3778.00,0.0003
3777.00,0.0003
3776.00,0.0003
3775.00,0.0003
3774.00,0.0003
3773.00,0.0003
3772.00,0.0003
3771.00,0.0003
3770.00,0.0003
3769.00,0.0003
3768.00,0.0003
3767.00,0.0003
3766.00,0.0003
3765.00,0.0003
3764.00,0.0003
3763.00,0.0003
3762.00,0.0003
3761.00,0.0003
3760.00,0.0003
3759.00,0.0003
3758.00,0.0003
3757.00,0.0003
3756.00,0.0003
3755.00,0.0003
3754.00,0.0003
3753.00,0.0003
3752.00,0.0003
3751.00,0.0003
3750.00,0.0003
3749.00,0.0003
3748.00,0.0003
3747.00,0.0002
3746.00,0.0002
3745.00,0.0002
3744.00,0.0002
3743.00,0.0002
3742.00,0.0001
3741.00,0.0001
3740.00,0.0001
3739.00,0.0001
3738.00,0.0001
3737.00,0.0001
3736.00,0.0001
3735.00,0.0001
3734.00,0.0001
3733.00,0.0001
3732.00,0.0001
3731.00,0.0002
3730.00,0.0002
3729.00,0.0002
3728.00,0.0002
3727.00,0.0002
3726.00,0.0002
3725.00,0.0002
3724.00,0.0002
3723.00,0.0002
3722.00,0.0003
3721.00,0.0003
3720.00,0.0003
3719.00,0.0003
3718.00,0.0003
3717.00,0.0003
3716.00,0.0003
3715.00,0.0003
3714.00,0.0002
3713.00,0.0002
3712.00,0.0002
3711.00,0.0003
3710.00,0.0003
3709.00,0.0003
3708.00,0.0002
3707.00,0.0002
3706.00,0.0002
3705.00,0.0002
3704.00,0.0002
3703.00,0.0003
3702.00,0.0003
3701.00,0.0003
3700.00,0.0003
3699.00,0.0002
3698.00,0.0002
3697.00,0.0002
3696.00,0.0003
3695.00,0.0003
3694.00,0.0003
3693.00,0.0003
3692.00,0.0002
3691.00,0.0002
3690.00,0.0003
3689.00,0.0003
3688.00,0.0003
3687.00,0.0003
3686.00,0.0003
3685.00,0.0003
3684.00,0.0003
3683.00,0.0003
3682.00,0.0004
3681.00,0.0004
3680.00,0.0004
3679.00,0.0004
3678.00,0.0003
3677.00,0.0003
3676.00,0.0003
3675.00,0.0003
3674.00,0.0003
3673.00,0.0003
3672.00,0.0002
3671.00,0.0002
3670.00,0.0003
3669.00,0.0003
3668.00,0.0004
3667.00,0.0004
3666.00,0.0005
3665.00,0.0005
3664.00,0.0006
3663.00,0.0006
3662.00,0.0006
3661.00,0.0006
3660.00,0.0006
3659.00,0.0006
3658.00,0.0007
3657.00,0.0007
3656.00,0.0007
3655.00,0.0007
3654.00,0.0008
3653.00,0.0008
3652.00,0.0008
3651.00,0.0008
3650.00,0.0008
3649.00,0.0008
3648.00,0.0008
3647.00,0.0008
3646.00,0.0008
3645.00,0.0009
3644.00,0.0010
3643.00,0.0010
3642.00,0.0011
3641.00,0.0012
3640.00,0.0012
3639.00,0.0012
3638.00,0.0013
3637.00,0.0013
3636.00,0.0014
3635.00,0.0014
3634.00,0.0014
3633.00,0.0015
3632.00,0.0015
3631.00,0.0016
3630.00,0.0016
3629.00,0.0016
3628.00,0.0016
3627.00,0.0016
3626.00,0.0016
3625.00,0.0017
3624.00,0.0018
3623.00,0.0018
3622.00,0.0019
3621.00,0.0019
3620.00,0.0019
3619.00,0.0019
3618.00,0.0020
3617.00,0.0020
3616.00,0.0021
3615.00,0.0021
3614.00,0.0022
3613.00,0.0023
3612.00,0.0023
3611.00,0.0023
3610.00,0.0023
3609.00,0.0023
3608.00,0.0024
3607.00,0.0024
3606.00,0.0025
3605.00,0.0025
3604.00,0.0026
3603.00,0.0026
3602.00,0.0027
3601.00,0.0027
3600.00,0.0028
3599.00,0.0028
3598.00,0.0028
3597.00,0.0029
3596.00,0.0029
3595.00,0.0030
3594.00,0.0030
3593.00,0.0031
3592.00,0.0032
3591.00,0.0032
3590.00,0.0033
3589.00,0.0033
3588.00,0.0033
3587.00,0.0032
3586.00,0.0033
3585.00,0.0033
3584.00,0.0034
3583.00,0.0034
3582.00,0.0035
3581.00,0.0036
3580.00,0.0037
3579.00,0.0037
3578.00,0.0038
3577.00,0.0038
3576.00,0.0039
3575.00,0.0039
3574.00,0.0039
3573.00,0.0040
3572.00,0.0040
3571.00,0.0041
3570.00,0.0041
3569.00,0.0042
3568.00,0.0042
3567.00,0.0042
3566.00,0.0042
3565.00,0.0042
3564.00,0.0042
3563.00,0.0043
3562.00,0.0044
3561.00,0.0045
3560.00,0.0045
3559.00,0.0046
3558.00,0.0047
3557.00,0.0048
3556.00,0.0049
3555.00,0.0049
3554.00,0.0050
3553.00,0.0050
3552.00,0.0050
3551.00,0.0051
3550.00,0.0051
3549.00,0.0051
3548.00,0.0052
3547.00,0.0052
3546.00,0.0053
3545.00,0.0053
3544.00,0.0054
3543.00,0.0054
3542.00,0.0055
3541.00,0.0056
3540.00,0.0056
3539.00,0.0057
3538.00,0.0057
3537.00,0.0057
3536.00,0.0057
3535.00,0.0058
3534.00,0.0058
3533.00,0.0059
3532.00,0.0060
3531.00,0.0060
3530.00,0.0061
3529.00,0.0061
3528.00,0.0061
3527.00,0.0062
3526.00,0.0062
3525.00,0.0062
3524.00,0.0062
3523.00,0.0062
3522.00,0.0063
3521.00,0.0064
3520.00,0.0064
3519.00,0.0065
3518.00,0.0066
3517.00,0.0066
3516.00,0.0067
3515.00,0.0067
3514.00,0.0068
3513.00,0.0068
3512.00,0.0069
3511.00,0.0069
3510.00,0.0070
3509.00,0.0070
3508.00,0.0070
3507.00,0.0070
3506.00,0.0071
3505.00,0.0072
3504.00,0.0072
3503.00,0.0073
3502.00,0.0073
3501.00,0.0073
3500.00,0.0074
3499.00,0.0074
3498.00,0.0075
3497.00,0.0075
3496.00,0.0076
3495.00,0.0077
3494.00,0.0077
3493.00,0.0078
3492.00,0.0078
3491.00,0.0078
3490.00,0.0078
3489.00,0.0079
3488.00,0.0079
3487.00,0.0079
3486.00,0.0080
3485.00,0.0081
3484.00,0.0082
3483.00,0.0082
3482.00,0.0083
3481.00,0.0084
3480.00,0.0084
3479.00,0.0085
3478.00,0.0085
3477.00,0.0086
3476.00,0.0086
3475.00,0.0087
3474.00,0.0087
3473.00,0.0087
3472.00,0.0087
3471.00,0.0088
3470.00,0.0089
3469.00,0.0089
3468.00,0.0090
3467.00,0.0090
3466.00,0.0091
3465.00,0.0092
3464.00,0.0092
3463.00,0.0093
3462.00,0.0093
3461.00,0.0094
3460.00,0.0094
3459.00,0.0095
3458.00,0.0095
3457.00,0.0096
3456.00,0.0096
3455.00,0.0097
3454.00,0.0097
3453.00,0.0098
3452.00,0.0099
3451.00,0.0099
3450.00,0.0100
3449.00,0.0100
3448.00,0.0101
3447.00,0.0101
3446.00,0.0101
3445.00,0.0101
3444.00,0.0102
3443.00,0.0102
3442.00,0.0103
3441.00,0.0103
3440.00,0.0104
3439.00,0.0105
3438.00,0.0106
3437.00,0.0106
3436.00,0.0107
3435.00,0.0107
3434.00,0.0108
3433.00,0.0109
3432.00,0.0109
3431.00,0.0110
3430.00,0.0110
3429.00,0.0111
3428.00,0.0111
3427.00,0.0112
3426.00,0.0112
3425.00,0.0113
3424.00,0.0114
3423.00,0.0114
3422.00,0.0115
3421.00,0.0115
3420.00,0.0115
3419.00,0.0116
3418.00,0.0116
3417.00,0.0117
3416.00,0.0118
3415.00,0.0119
3414.00,0.0119
3413.00,0.0120
3412.00,0.0120
3411.00,0.0121
3410.00,0.0121
3409.00,0.0122
3408.00,0.0122
3407.00,0.0123
3406.00,0.0123
3405.00,0.0124
3404.00,0.0125
3403.00,0.0125
3402.00,0.0126
3401.00,0.0126
3400.00,0.0127
3399.00,0.0127
3398.00,0.0128
3397.00,0.0128
3396.00,0.0129
3395.00,0.0129
3394.00,0.0130
3393.00,0.0131
3392.00,0.0131
3391.00,0.0132
3390.00,0.0133
3389.00,0.0133
3388.00,0.0134
3387.00,0.0134
3386.00,0.0135
3385.00,0.0135
3384.00,0.0136
3383.00,0.0137
3382.00,0.0138
3381.00,0.0138
3380.00,0.0139
3379.00,0.0140
3378.00,0.0140
3377.00,0.0140
3376.00,0.0141
3375.00,0.0142
3374.00,0.0143
3373.00,0.0143
3372.00,0.0144
3371.00,0.0145
3370.00,0.0145
3369.00,0.0146
3368.00,0.0147
3367.00,0.0147
3366.00,0.0148
3365.00,0.0149
3364.00,0.0150
3363.00,0.0151
3362.00,0.0152
3361.00,0.0153
3360.00,0.0154
3359.00,0.0155
3358.00,0.0156
3357.00,0.0156
3356.00,0.0157
3355.00,0.0158
3354.00,0.0159
3353.00,0.0160
3352.00,0.0160
3351.00,0.0161
3350.00,0.0162
3349.00,0.0164
3348.00,0.0165
3347.00,0.0166
3346.00,0.0167
3345.00,0.0167
3344.00,0.0168
3343.00,0.0169
3342.00,0.0170
3341.00,0.0171
3340.00,0.0172
3339.00,0.0173
3338.00,0.0174
3337.00,0.0175
3336.00,0.0177
3335.00,0.0178
3334.00,0.0179
3333.00,0.0180
3332.00,0.0181
3331.00,0.0183
3330.00,0.0184
3329.00,0.0185
3328.00,0.0186
3327.00,0.0188
3326.00,0.0189
3325.00,0.0190
3324.00,0.0192
3323.00,0.0193
3322.00,0.0194
3321.00,0.0195
3320.00,0.0197
3319.00,0.0198
3318.00,0.0200
3317.00,0.0202
3316.00,0.0203
3315.00,0.0205
3314.00,0.0206
3313.00,0.0208
3312.00,0.0209
3311.00,0.0210
3310.00,0.0211
3309.00,0.0213
3308.00,0.0214
3307.00,0.0215
3306.00,0.0217
3305.00,0.0219
3304.00,0.0221
3303.00,0.0223
3302.00,0.0225
3301.00,0.0227
3300.00,0.0229
3299.00,0.0231
3298.00,0.0232
3297.00,0.0234
3296.00,0.0235
3295.00,0.0237
3294.00,0.0238
3293.00,0.0240
3292.00,0.0242
3291.00,0.0244
3290.00,0.0245
3289.00,0.0247
3288.00,0.0249
3287.00,0.0250
3286.00,0.0251
3285.00,0.0252
3284.00,0.0254
3283.00,0.0255
3282.00,0.0256
3281.00,0.0257
3280.00,0.0258
3279.00,0.0259
3278.00,0.0259
3277.00,0.0260
3276.00,0.0260
3275.00,0.0261
3274.00,0.0261
3273.00,0.0261
3272.00,0.0261
3271.00,0.0261
3270.00,0.0260
3269.00,0.0260
3268.00,0.0260
3267.00,0.0259
3266.00,0.0259
3265.00,0.0258
3264.00,0.0257
3263.00,0.0256
3262.00,0.0255
3261.00,0.0254
3260.00,0.0252
3259.00,0.0251
3258.00,0.0249
3257.00,0.0248
3256.00,0.0246
3255.00,0.0245
3254.00,0.0243
3253.00,0.0242
3252.00,0.0240
3251.00,0.0239
3250.00,0.0237
3249.00,0.0235
3248.00,0.0233
3247.00,0.0232
3246.00,0.0230
3245.00,0.0229
3244.00,0.0227
3243.00,0.0226
3242.00,0.0224
3241.00,0.0223
3240.00,0.0221
3239.00,0.0220
3238.00,0.0218
3237.00,0.0217
3236.00,0.0215
3235.00,0.0213
3234.00,0.0211
3233.00,0.0210
3232.00,0.0209
3231.00,0.0208
3230.00,0.0208
3229.00,0.0207
3228.00,0.0206
3227.00,0.0205
3226.00,0.0204
3225.00,0.0203
3224.00,0.0202
3223.00,0.0201
3222.00,0.0200
3221.00,0.0199
3220.00,0.0197
3219.00,0.0196
3218.00,0.0194
3217.00,0.0193
3216.00,0.0192
3215.00,0.0191
3214.00,0.0190
3213.00,0.0189
3212.00,0.0188
3211.00,0.0188
3210.00,0.0187
3209.00,0.0186
3208.00,0.0185
3207.00,0.0184
3206.00,0.0183
3205.00,0.0182
3204.00,0.0181
3203.00,0.0180
3202.00,0.0179
3201.00,0.0178
3200.00,0.0177
3199.00,0.0177
3198.00,0.0176
3197.00,0.0175
3196.00,0.0174
3195.00,0.0172
3194.00,0.0171
3193.00,0.0170
3192.00,0.0170
3191.00,0.0169
3190.00,0.0168
3189.00,0.0167
3188.00,0.0166
3187.00,0.0165
3186.00,0.0164
3185.00,0.0164
3184.00,0.0163
3183.00,0.0162
3182.00,0.0161
3181.00,0.0160
3180.00,0.0160
3179.00,0.0159
3178.00,0.0158
3177.00,0.0157
3176.00,0.0156
3175.00,0.0155
3174.00,0.0154
3173.00,0.0153
3172.00,0.0153
3171.00,0.0152
3170.00,0.0151
3169.00,0.0150
3168.00,0.0149
3167.00,0.0148
3166.00,0.0148
3165.00,0.0147
3164.00,0.0147
3163.00,0.0146
3162.00,0.0145
3161.00,0.0145
3160.00,0.0144
3159.00,0.0143
3158.00,0.0142
3157.00,0.0142
3156.00,0.0141
3155.00,0.0140
3154.00,0.0139
3153.00,0.0138
3152.00,0.0137
3151.00,0.0137
3150.00,0.0137
3149.00,0.0136
3148.00,0.0136
3147.00,0.0135
3146.00,0.0135
3145.00,0.0134
3144.00,0.0134
3143.00,0.0134
3142.00,0.0133
3141.00,0.0132
3140.00,0.0131
3139.00,0.0131
3138.00,0.0130
3137.00,0.0130
3136.00,0.0130
3135.00,0.0129
3134.00,0.0129
3133.00,0.0128
3132.00,0.0128
3131.00,0.0128
3130.00,0.0127
3129.00,0.0127
3128.00,0.0127
3127.00,0.0127
3126.00,0.0127
3125.00,0.0127
3124.00,0.0126
3123.00,0.0126
3122.00,0.0125
3121.00,0.0124
3120.00,0.0124
3119.00,0.0124
3118.00,0.0124
3117.00,0.0124
3116.00,0.0124
3115.00,0.0125
3114.00,0.0125
3113.00,0.0126
3112.00,0.0126
3111.00,0.0126
3110.00,0.0126
3109.00,0.0126
3108.00,0.0126
3107.00,0.0126
3106.00,0.0126
3105.00,0.0127
3104.00,0.0127
3103.00,0.0127
3102.00,0.0127
3101.00,0.0128
3100.00,0.0128
3099.00,0.0129
3098.00,0.0129
3097.00,0.0129
3096.00,0.0129
3095.00,0.0129
3094.00,0.0129
3093.00,0.0130
3092.00,0.0130
3091.00,0.0130
3090.00,0.0130
3089.00,0.0131
3088.00,0.0131
3087.00,0.0131
3086.00,0.0131
3085.00,0.0131
3084.00,0.0131
3083.00,0.0131
3082.00,0.0131
3081.00,0.0131
3080.00,0.0131
3079.00,0.0131
3078.00,0.0131
3077.00,0.0132
3076.00,0.0132
3075.00,0.0132
3074.00,0.0133
3073.00,0.0132
3072.00,0.0132
3071.00,0.0132
3070.00,0.0131
3069.00,0.0131
3068.00,0.0130
3067.00,0.0130
3066.00,0.0130
3065.00,0.0129
3064.00,0.0129
3063.00,0.0129
3062.00,0.0129
3061.00,0.0128
3060.00,0.0128
3059.00,0.0127
3058.00,0.0126
3057.00,0.0125
3056.00,0.0125
3055.00,0.0124
3054.00,0.0123
3053.00,0.0123
3052.00,0.0122
3051.00,0.0121
3050.00,0.0121
3049.00,0.0120
3048.00,0.0120
3047.00,0.0119
3046.00,0.0118
3045.00,0.0117
3044.00,0.0116
3043.00,0.0115
3042.00,0.0115
3041.00,0.0114
3040.00,0.0114
3039.00,0.0114
3038.00,0.0113
3037.00,0.0112
3036.00,0.0112
3035.00,0.0111
3034.00,0.0110
3033.00,0.0110
3032.00,0.0110
3031.00,0.0109
3030.00,0.0109
3029.00,0.0109
3028.00,0.0108
3027.00,0.0107
3026.00,0.0107
3025.00,0.0106
3024.00,0.0105
3023.00,0.0105
3022.00,0.0104
3021.00,0.0103
3020.00,0.0103
3019.00,0.0102
3018.00,0.0101
3017.00,0.0100
3016.00,0.0099
3015.00,0.0098
3014.00,0.0097
3013.00,0.0097
3012.00,0.0096
3011.00,0.0096
3010.00,0.0095
3009.00,0.0095
3008.00,0.0094
3007.00,0.0093
3006.00,0.0093
3005.00,0.0092
3004.00,0.0091
3003.00,0.0090
3002.00,0.0089
3001.00,0.0088
3000.00,0.0088
2999.00,0.0087
2998.00,0.0087
2997.00,0.0087
2996.00,0.0087
2995.00,0.0087
2994.00,0.0087
2993.00,0.0088
2992.00,0.0088
2991.00,0.0089
2990.00,0.0089
2989.00,0.0090
2988.00,0.0091
2987.00,0.0091
2986.00,0.0091
2985.00,0.0091
2984.00,0.0090
2983.00,0.0089
2982.00,0.0089
2981.00,0.0090
2980.00,0.0092
2979.00,0.0095
2978.00,0.0098
2977.00,0.0101
2976.00,0.0104
2975.00,0.0106
2974.00,0.0108
2973.00,0.0110
2972.00,0.0111
2971.00,0.0113
2970.00,0.0116
2969.00,0.0118
2968.00,0.0121
2967.00,0.0123
2966.00,0.0125
2965.00,0.0127
2964.00,0.0128
2963.00,0.0129
2962.00,0.0130
2961.00,0.0131
2960.00,0.0131
2959.00,0.0132
2958.00,0.0131
2957.00,0.0131
2956.00,0.0131
2955.00,0.0130
2954.00,0.0129
2953.00,0.0128
2952.00,0.0128
2951.00,0.0127
2950.00,0.0127
2949.00,0.0126
2948.00,0.0126
2947.00,0.0126
2946.00,0.0126
2945.00,0.0127
2944.00,0.0129
2943.00,0.0130
2942.00,0.0131
2941.00,0.0133
2940.00,0.0135
2939.00,0.0136
2938.00,0.0138
2937.00,0.0139
2936.00,0.0141
2935.00,0.0142
2934.00,0.0142
2933.00,0.0143
2932.00,0.0144
2931.00,0.0144
2930.00,0.0145
2929.00,0.0145
2928.00,0.0146
2927.00,0.0146
2926.00,0.0145
2925.00,0.0145
2924.00,0.0145
2923.00,0.0144
2922.00,0.0143
2921.00,0.0142
2920.00,0.0140
2919.00,0.0138
2918.00,0.0136
2917.00,0.0134
2916.00,0.0132
2915.00,0.0130
2914.00,0.0127
2913.00,0.0125
2912.00,0.0123
2911.00,0.0121
2910.00,0.0119
2909.00,0.0118
2908.00,0.0116
2907.00,0.0114
2906.00,0.0113
2905.00,0.0111
2904.00,0.0110
2903.00,0.0109
2902.00,0.0108
2901.00,0.0107
2900.00,0.0106
2899.00,0.0105
2898.00,0.0104
2897.00,0.0103
2896.00,0.0102
2895.00,0.0101
2894.00,0.0100
2893.00,0.0099
2892.00,0.0098
2891.00,0.0097
2890.00,0.0097
2889.00,0.0097
2888.00,0.0097
2887.00,0.0097
2886.00,0.0097
2885.00,0.0098
2884.00,0.0098
2883.00,0.0098
2882.00,0.0099
2881.00,0.0100
2880.00,0.0101
2879.00,0.0102
2878.00,0.0103
2877.00,0.0104
2876.00,0.0104
2875.00,0.0105
2874.00,0.0105
2873.00,0.0105
2872.00,0.0105
2871.00,0.0104
2870.00,0.0104
2869.00,0.0103
2868.00,0.0102
2867.00,0.0101
2866.00,0.0100
2865.00,0.0099
2864.00,0.0098
2863.00,0.0097
2862.00,0.0096
2861.00,0.0096
2860.00,0.0095
2859.00,0.0095
2858.00,0.0096
2857.00,0.0096
2856.00,0.0096
2855.00,0.0096
2854.00,0.0096
2853.00,0.0095
2852.00,0.0095
2851.00,0.0093
2850.00,0.0092
2849.00,0.0091
2848.00,0.0089
2847.00,0.0087
2846.00,0.0086
2845.00,0.0084
2844.00,0.0082
2843.00,0.0080
2842.00,0.0079
2841.00,0.0077
2840.00,0.0076
2839.00,0.0075
2838.00,0.0075
2837.00,0.0074
2836.00,0.0074
2835.00,0.0073
2834.00,0.0073
2833.00,0.0072
2832.00,0.0072
2831.00,0.0072
2830.00,0.0071
2829.00,0.0071
2828.00,0.0071
2827.00,0.0070
2826.00,0.0070
2825.00,0.0070
2824.00,0.0069
2823.00,0.0069
2822.00,0.0069
2821.00,0.0069
2820.00,0.0069
2819.00,0.0069
2818.00,0.0068
2817.00,0.0068
2816.00,0.0068
2815.00,0.0068
2814.00,0.0067
2813.00,0.0067
2812.00,0.0067
2811.00,0.0066
2810.00,0.0066
2809.00,0.0066
2808.00,0.0066
2807.00,0.0066
2806.00,0.0066
2805.00,0.0065
2804.00,0.0065
2803.00,0.0065
2802.00,0.0065
2801.00,0.0065
2800.00,0.0064
2799.00,0.0064
2798.00,0.0064
2797.00,0.0063
2796.00,0.0063
2795.00,0.0063
2794.00,0.0063
2793.00,0.0063
2792.00,0.0063
2791.00,0.0062
2790.00,0.0062
2789.00,0.0062
2788.00,0.0062
2787.00,0.0061
2786.00,0.0061
2785.00,0.0061
2784.00,0.0061
2783.00,0.0060
2782.00,0.0060
2781.00,0.0060
2780.00,0.0060
2779.00,0.0059
2778.00,0.0059
2777.00,0.0059
2776.00,0.0059
2775.00,0.0059
2774.00,0.0059
2773.00,0.0058
2772.00,0.0058
2771.00,0.0058
2770.00,0.0058
2769.00,0.0057
2768.00,0.0057
2767.00,0.0057
2766.00,0.0057
2765.00,0.0056
2764.00,0.0056
2763.00,0.0056
2762.00,0.0056
2761.00,0.0056
2760.00,0.0055
2759.00,0.0055
2758.00,0.0055
2757.00,0.0055
2756.00,0.0055
2755.00,0.0055
2754.00,0.0054
2753.00,0.0054
2752.00,0.0054
2751.00,0.0054
2750.00,0.0054
2749.00,0.0054
2748.00,0.0053
2747.00,0.0053
2746.00,0.0053
2745.00,0.0053
2744.00,0.0052
2743.00,0.0052
2742.00,0.0052
2741.00,0.0052
2740.00,0.0052
2739.00,0.0052
2738.00,0.0052
2737.00,0.0051
2736.00,0.0051
2735.00,0.0051
2734.00,0.0051
2733.00,0.0050
2732.00,0.0050
2731.00,0.0050
2730.00,0.0050
2729.00,0.0049
2728.00,0.0049
2727.00,0.0049
2726.00,0.0048
2725.00,0.0048
2724.00,0.0048
2723.00,0.0048
2722.00,0.0048
2721.00,0.0048
2720.00,0.0048
2719.00,0.0047
2718.00,0.0047
2717.00,0.0047
2716.00,0.0047
2715.00,0.0047
2714.00,0.0047
2713.00,0.0047
2712.00,0.0047
2711.00,0.0046
2710.00,0.0046
2709.00,0.0046
2708.00,0.0046
2707.00,0.0045
2706.00,0.0045
2705.00,0.0045
2704.00,0.0045
2703.00,0.0045
2702.00,0.0045
2701.00,0.0045
2700.00,0.0045
2699.00,0.0045
2698.00,0.0045
2697.00,0.0045
2696.00,0.0045
2695.00,0.0045
2694.00,0.0045
2693.00,0.0044
2692.00,0.0044
2691.00,0.0044
2690.00,0.0043
2689.00,0.0043
2688.00,0.0043
2687.00,0.0043
2686.00,0.0043
2685.00,0.0043
2684.00,0.0043
2683.00,0.0043
2682.00,0.0043
2681.00,0.0043
2680.00,0.0043
2679.00,0.0043
2678.00,0.0043
2677.00,0.0043
2676.00,0.0042
2675.00,0.0042
2674.00,0.0042
2673.00,0.0042
2672.00,0.0042
2671.00,0.0042
2670.00,0.0042
2669.00,0.0042
2668.00,0.0042
2667.00,0.0042
2666.00,0.0042
2665.00,0.0043
2664.00,0.0043
2663.00,0.0044
2662.00,0.0044
2661.00,0.0044
2660.00,0.0045
2659.00,0.0045
2658.00,0.0045
2657.00,0.0045
2656.00,0.0045
2655.00,0.0045
2654.00,0.0045
2653.00,0.0045
2652.00,0.0045
2651.00,0.0045
2650.00,0.0045
2649.00,0.0045
2648.00,0.0045
2647.00,0.0045
2646.00,0.0045
2645.00,0.0045
2644.00,0.0044
2643.00,0.0044
2642.00,0.0044
2641.00,0.0044
2640.00,0.0044
2639.00,0.0044
2638.00,0.0044
2637.00,0.0044
2636.00,0.0043
2635.00,0.0043
2634.00,0.0043
2633.00,0.0043
2632.00,0.0043
2631.00,0.0043
2630.00,0.0042
2629.00,0.0042
2628.00,0.0042
2627.00,0.0042
2626.00,0.0042
2625.00,0.0042
2624.00,0.0042
2623.00,0.0042
2622.00,0.0042
2621.00,0.0042
2620.00,0.0042
2619.00,0.0041
2618.00,0.0041
2617.00,0.0041
2616.00,0.0041
2615.00,0.0040
2614.00,0.0040
2613.00,0.0040
2612.00,0.0040
2611.00,0.0040
2610.00,0.0040
2609.00,0.0040
2608.00,0.0039
2607.00,0.0039
2606.00,0.0039
2605.00,0.0039
2604.00,0.0039
2603.00,0.0039
2602.00,0.0038
2601.00,0.0038
2600.00,0.0038
2599.00,0.0038
2598.00,0.0038
2597.00,0.0038
2596.00,0.0037
2595.00,0.0037
2594.00,0.0037
2593.00,0.0037
2592.00,0.0036
2591.00,0.0036
2590.00,0.0036
2589.00,0.0036
2588.00,0.0036
2587.00,0.0036
2586.00,0.0036
2585.00,0.0036
2584.00,0.0035
2583.00,0.0035
2582.00,0.0035
2581.00,0.0035
2580.00,0.0034
2579.00,0.0035
2578.00,0.0035
2577.00,0.0035
2576.00,0.0034
2575.00,0.0034
2574.00,0.0033
2573.00,0.0033
2572.00,0.0033
2571.00,0.0033
2570.00,0.0034
2569.00,0.0034
2568.00,0.0034
2567.00,0.0034
2566.00,0.0034
2565.00,0.0033
2564.00,0.0033
2563.00,0.0033
2562.00,0.0033
2561.00,0.0032
2560.00,0.0032
2559.00,0.0032
2558.00,0.0031
2557.00,0.0031
2556.00,0.0031
2555.00,0.0031
2554.00,0.0032
2553.00,0.0031
2552.00,0.0031
2551.00,0.0031
2550.00,0.0031
2549.00,0.0031
2548.00,0.0031
2547.00,0.0031
2546.00,0.0031
2545.00,0.0031
2544.00,0.0031
2543.00,0.0031
2542.00,0.0031
2541.00,0.0030
2540.00,0.0030
2539.00,0.0030
2538.00,0.0030
2537.00,0.0030
2536.00,0.0030
2535.00,0.0030
2534.00,0.0030
2533.00,0.0029
2532.00,0.0029
2531.00,0.0029
2530.00,0.0029
2529.00,0.0029
2528.00,0.0030
2527.00,0.0029
2526.00,0.0029
2525.00,0.0029
2524.00,0.0028
2523.00,0.0028
2522.00,0.0028
2521.00,0.0028
2520.00,0.0028
2519.00,0.0029
2518.00,0.0029
2517.00,0.0028
2516.00,0.0028
2515.00,0.0028
2514.00,0.0028
2513.00,0.0027
2512.00,0.0027
2511.00,0.0027
2510.00,0.0027
2509.00,0.0027
2508.00,0.0027
2507.00,0.0027
2506.00,0.0027
2505.00,0.0027
2504.00,0.0027
2503.00,0.0027
2502.00,0.0027
2501.00,0.0027
2500.00,0.0027
2499.00,0.0027
2498.00,0.0026
2497.00,0.0026
2496.00,0.0026
2495.00,0.0026
2494.00,0.0026
2493.00,0.0026
2492.00,0.0026
2491.00,0.0026
2490.00,0.0026
2489.00,0.0026
2488.00,0.0026
2487.00,0.0026
2486.00,0.0025
2485.00,0.0025
2484.00,0.0025
2483.00,0.0025
2482.00,0.0025
2481.00,0.0024
2480.00,0.0024
2479.00,0.0024
2478.00,0.0024
2477.00,0.0024
2476.00,0.0024
2475.00,0.0024
2474.00,0.0024
2473.00,0.0024
2472.00,0.0024
2471.00,0.0024
2470.00,0.0024
2469.00,0.0024
2468.00,0.0024
2467.00,0.0024
2466.00,0.0024
2465.00,0.0024
2464.00,0.0024
2463.00,0.0024
2462.00,0.0024
2461.00,0.0024
2460.00,0.0024
2459.00,0.0025
2458.00,0.0025
2457.00,0.0026
2456.00,0.0025
2455.00,0.0025
2454.00,0.0024
2453.00,0.0023
2452.00,0.0023
2451.00,0.0023
2450.00,0.0023
2449.00,0.0023
2448.00,0.0022
2447.00,0.0022
2446.00,0.0022
2445.00,0.0022
2444.00,0.0022
2443.00,0.0023
2442.00,0.0023
2441.00,0.0023
2440.00,0.0022
2439.00,0.0022
2438.00,0.0022
2437.00,0.0021
2436.00,0.0021
2435.00,0.0020
2434.00,0.0020
2433.00,0.0020
2432.00,0.0020
2431.00,0.0020
2430.00,0.0020
2429.00,0.0020
2428.00,0.0020
2427.00,0.0020
2426.00,0.0020
2425.00,0.0019
2424.00,0.0019
2423.00,0.0018
2422.00,0.0018
2421.00,0.0018
2420.00,0.0019
2419.00,0.0019
2418.00,0.0019
2417.00,0.0019
2416.00,0.0018
2415.00,0.0018
2414.00,0.0018
2413.00,0.0018
2412.00,0.0018
2411.00,0.0018
2410.00,0.0018
2409.00,0.0017
2408.00,0.0017
2407.00,0.0016
2406.00,0.0016
2405.00,0.0016
2404.00,0.0016
2403.00,0.0016
2402.00,0.0016
2401.00,0.0016
2400.00,0.0016
2399.00,0.0016
2398.00,0.0016
2397.00,0.0016
2396.00,0.0016
2395.00,0.0015
2394.00,0.0015
2393.00,0.0015
2392.00,0.0015
2391.00,0.0015
2390.00,0.0015
2389.00,0.0015
2388.00,0.0015
2387.00,0.0015
2386.00,0.0015
2385.00,0.0014
2384.00,0.0013
2383.00,0.0013
2382.00,0.0012
2381.00,0.0012
2380.00,0.0011
2379.00,0.0011
2378.00,0.0011
2377.00,0.0011
2376.00,0.0011
2375.00,0.0011
2374.00,0.0011
2373.00,0.0011
2372.00,0.0010
2371.00,0.0010
2370.00,0.0010
2369.00,0.0010
2368.00,0.0009
2367.00,0.0009
2366.00,0.0009
2365.00,0.0009
2364.00,0.0010
2363.00,0.0011
2362.00,0.0011
2361.00,0.0011
2360.00,0.0011
2359.00,0.0011
2358.00,0.0011
2357.00,0.0011
2356.00,0.0011
2355.00,0.0011
2354.00,0.0010
2353.00,0.0009
2352.00,0.0009
2351.00,0.0010
2350.00,0.0011
2349.00,0.0012
2348.00,0.0013
2347.00,0.0013
2346.00,0.0013
2345.00,0.0013
2344.00,0.0013
2343.00,0.0014
2342.00,0.0014
2341.00,0.0014
2340.00,0.0014
2339.00,0.0015
2338.00,0.0015
2337.00,0.0015
2336.00,0.0015
2335.00,0.0014
2334.00,0.0014
2333.00,0.0014
2332.00,0.0014
2331.00,0.0014
2330.00,0.0014
2329.00,0.0015
2328.00,0.0018
2327.00,0.0022
2326.00,0.0025
2325.00,0.0027
2324.00,0.0026
2323.00,0.0024
2322.00,0.0022
2321.00,0.0021
2320.00,0.0020
2319.00,0.0020
2318.00,0.0019
2317.00,0.0019
2316.00,0.0019
2315.00,0.0019
2314.00,0.0018
2313.00,0.0017
2312.00,0.0017
2311.00,0.0016
2310.00,0.0016
2309.00,0.0016
2308.00,0.0016
2307.00,0.0017
2306.00,0.0017
2305.00,0.0018
2304.00,0.0018
2303.00,0.0018
2302.00,0.0018
2301.00,0.0018
2300.00,0.0018
2299.00,0.0019
2298.00,0.0019
2297.00,0.0020
2296.00,0.0021
2295.00,0.0022
2294.00,0.0023
2293.00,0.0024
2292.00,0.0025
2291.00,0.0025
2290.00,0.0026
2289.00,0.0026
2288.00,0.0026
2287.00,0.0026
2286.00,0.0026
2285.00,0.0025
2284.00,0.0024
2283.00,0.0023
2282.00,0.0023
2281.00,0.0022
2280.00,0.0022
2279.00,0.0022
2278.00,0.0021
2277.00,0.0020
2276.00,0.0020
2275.00,0.0019
2274.00,0.0018
2273.00,0.0018
2272.00,0.0018
2271.00,0.0018
2270.00,0.0018
2269.00,0.0018
2268.00,0.0018
2267.00,0.0018
2266.00,0.0017
2265.00,0.0017
2264.00,0.0017
2263.00,0.0017
2262.00,0.0018
2261.00,0.0018
2260.00,0.0019
2259.00,0.0019
2258.00,0.0019
2257.00,0.0019
2256.00,0.0018
2255.00,0.0018
2254.00,0.0017
2253.00,0.0016
2252.00,0.0015
2251.00,0.0015
2250.00,0.0015
2249.00,0.0016
2248.00,0.0017
2247.00,0.0017
2246.00,0.0018
2245.00,0.0018
2244.00,0.0018
2243.00,0.0018
2242.00,0.0017
2241.00,0.0017
2240.00,0.0016
2239.00,0.0016
2238.00,0.0016
2237.00,0.0016
2236.00,0.0016
2235.00,0.0015
2234.00,0.0015
2233.00,0.0014
2232.00,0.0015
2231.00,0.0015
2230.00,0.0016
2229.00,0.0015
2228.00,0.0015
2227.00,0.0014
2226.00,0.0014
2225.00,0.0013
2224.00,0.0013
2223.00,0.0013
2222.00,0.0014
2221.00,0.0014
2220.00,0.0014
2219.00,0.0014
2218.00,0.0014
2217.00,0.0015
2216.00,0.0015
2215.00,0.0015
2214.00,0.0014
2213.00,0.0014
2212.00,0.0014
2211.00,0.0015
2210.00,0.0015
2209.00,0.0015
2208.00,0.0015
2207.00,0.0013
2206.00,0.0012
2205.00,0.0012
2204.00,0.0012
2203.00,0.0013
2202.00,0.0014
2201.00,0.0014
2200.00,0.0014
2199.00,0.0013
2198.00,0.0013
2197.00,0.0013
2196.00,0.0015
2195.00,0.0016
2194.00,0.0017
2193.00,0.0017
2192.00,0.0018
2191.00,0.0019
2190.00,0.0019
2189.00,0.0019
2188.00,0.0018
2187.00,0.0017
2186.00,0.0016
2185.00,0.0015
2184.00,0.0014
2183.00,0.0012
2182.00,0.0011
2181.00,0.0010
2180.00,0.0011
2179.00,0.0011
2178.00,0.0011
2177.00,0.0009
2176.00,0.0008
2175.00,0.0008
2174.00,0.0009
2173.00,0.0012
2172.00,0.0014
2171.00,0.0016
2170.00,0.0018
2169.00,0.0020
2168.00,0.0021
2167.00,0.0021
2166.00,0.0021
2165.00,0.0021
2164.00,0.0022
2163.00,0.0022
2162.00,0.0019
2161.00,0.0010
2160.00,-0.0001
2159.00,-0.0012
2158.00,-0.0019
2157.00,-0.0019
2156.00,-0.0017
2155.00,-0.0014
2154.00,-0.0012
2153.00,-0.0010
2152.00,-0.0008
2151.00,-0.0006
2150.00,-0.0005
2149.00,-0.0004
2148.00,-0.0004
2147.00,-0.0005
2146.00,-0.0006
2145.00,-0.0006
2144.00,-0.0005
2143.00,-0.0005
2142.00,-0.0005
2141.00,-0.0004
2140.00,-0.0004
2139.00,-0.0004
2138.00,-0.0004
2137.00,-0.0005
2136.00,-0.0006
2135.00,-0.0007
2134.00,-0.0008
2133.00,-0.0007
2132.00,-0.0006
2131.00,-0.0004
2130.00,-0.0003
2129.00,-0.0001
2128.00,0.0001
2127.00,0.0002
2126.00,0.0004
2125.00,0.0004
2124.00,0.0005
2123.00,0.0006
2122.00,0.0007
2121.00,0.0008
2120.00,0.0008
2119.00,0.0009
2118.00,0.0010
2117.00,0.0011
2116.00,0.0012
2115.00,0.0013
2114.00,0.0013
2113.00,0.0013
2112.00,0.0013
2111.00,0.0013
2110.00,0.0012
2109.00,0.0012
2108.00,0.0012
2107.00,0.0011
2106.00,0.0011
2105.00,0.0011
2104.00,0.0011
2103.00,0.0011
2102.00,0.0011
2101.00,0.0011
2100.00,0.0012
2099.00,0.0012
2098.00,0.0011
2097.00,0.0010
2096.00,0.0009
2095.00,0.0008
2094.00,0.0007
2093.00,0.0008
2092.00,0.0009
2091.00,0.0010
2090.00,0.0011
2089.00,0.0011
2088.00,0.0012
2087.00,0.0012
2086.00,0.0013
2085.00,0.0013
2084.00,0.0014
2083.00,0.0014
2082.00,0.0014
2081.00,0.0015
2080.00,0.0014
2079.00,0.0014
2078.00,0.0013
2077.00,0.0013
2076.00,0.0014
2075.00,0.0015
2074.00,0.0014
2073.00,0.0013
2072.00,0.0013
2071.00,0.0012
2070.00,0.0011
2069.00,0.0012
2068.00,0.0013
2067.00,0.0013
2066.00,0.0013
2065.00,0.0013
2064.00,0.0012
2063.00,0.0011
2062.00,0.0011
2061.00,0.0011
2060.00,0.0011
2059.00,0.0012
2058.00,0.0011
2057.00,0.0011
2056.00,0.0011
2055.00,0.0011
2054.00,0.0013
2053.00,0.0017
2052.00,0.0020
2051.00,0.0021
2050.00,0.0019
2049.00,0.0016
2048.00,0.0014
2047.00,0.0013
2046.00,0.0012
2045.00,0.0011
2044.00,0.0011
2043.00,0.0011
2042.00,0.0011
2041.00,0.0012
2040.00,0.0013
2039.00,0.0014
2038.00,0.0013
2037.00,0.0012
2036.00,0.0009
2035.00,0.0007
2034.00,0.0006
2033.00,0.0006
2032.00,0.0006
2031.00,0.0006
2030.00,0.0006
2029.00,0.0005
2028.00,0.0004
2027.00,0.0003
2026.00,0.0002
2025.00,0.0001
2024.00,0.0001
2023.00,0.0002
2022.00,0.0002
2021.00,0.0002
2020.00,0.0002
2019.00,0.0003
2018.00,0.0004
2017.00,0.0005
2016.00,0.0006
2015.00,0.0007
2014.00,0.0007
2013.00,0.0007
2012.00,0.0007
2011.00,0.0007
2010.00,0.0005
2009.00,0.0003
2008.00,0.0000
2007.00,-0.0002
2006.00,-0.0004
2005.00,-0.0005
2004.00,-0.0004
2003.00,-0.0002
2002.00,0.0000
2001.00,0.0002
2000.00,0.0003
1999.00,0.0004
1998.00,0.0005
1997.00,0.0005
1996.00,0.0006
1995.00,0.0007
1994.00,0.0008
1993.00,0.0008
1992.00,0.0009
1991.00,0.0008
1990.00,0.0008
1989.00,0.0009
1988.00,0.0011
1987.00,0.0013
1986.00,0.0013
1985.00,0.0014
1984.00,0.0016
1983.00,0.0019
1982.00,0.0022
1981.00,0.0023
1980.00,0.0020
1979.00,0.0015
1978.00,0.0010
1977.00,0.0005
1976.00,0.0002
1975.00,-0.0000
1974.00,-0.0002
1973.00,-0.0002
1972.00,-0.0001
1971.00,-0.0000
1970.00,-0.0001
1969.00,-0.0001
1968.00,-0.0001
1967.00,-0.0000
1966.00,0.0001
1965.00,0.0002
1964.00,0.0002
1963.00,0.0002
1962.00,0.0000
1961.00,-0.0002
1960.00,-0.0004
1959.00,-0.0004
1958.00,-0.0004
1957.00,-0.0002
1956.00,-0.0001
1955.00,0.0000
1954.00,0.0001
1953.00,0.0001
1952.00,0.0001
1951.00,0.0002
1950.00,0.0002
1949.00,0.0003
1948.00,0.0003
1947.00,0.0002
1946.00,0.0001
1945.00,0.0001
1944.00,0.0001
1943.00,0.0001
1942.00,0.0001
1941.00,0.0002
1940.00,0.0003
1939.00,0.0003
1938.00,0.0003
1937.00,0.0003
1936.00,0.0004
1935.00,0.0005
1934.00,0.0005
1933.00,0.0005
1932.00,0.0004
1931.00,0.0003
1930.00,0.0002
1929.00,0.0002
1928.00,0.0002
1927.00,0.0002
1926.00,0.0002
1925.00,0.0002
1924.00,0.0002
1923.00,0.0004
1922.00,0.0006
1921.00,0.0008
1920.00,0.0008
1919.00,0.0008
1918.00,0.0008
1917.00,0.0008
1916.00,0.0009
1915.00,0.0009
1914.00,0.0008
1913.00,0.0007
1912.00,0.0006
1911.00,0.0006
1910.00,0.0005
1909.00,0.0006
1908.00,0.0006
1907.00,0.0007
1906.00,0.0008
1905.00,0.0008
1904.00,0.0007
1903.00,0.0007
1902.00,0.0007
1901.00,0.0007
1900.00,0.0008
1899.00,0.0008
1898.00,0.0008
1897.00,0.0008
1896.00,0.0008
1895.00,0.0008
1894.00,0.0008
1893.00,0.0007
1892.00,0.0007
1891.00,0.0007
1890.00,0.0007
1889.00,0.0008
1888.00,0.0009
1887.00,0.0009
1886.00,0.0008
1885.00,0.0008
1884.00,0.0009
1883.00,0.0009
1882.00,0.0009
1881.00,0.0009
1880.00,0.0010
1879.00,0.0010
1878.00,0.0010
1877.00,0.0010
1876.00,0.0010
1875.00,0.0010
1874.00,0.0009
1873.00,0.0009
1872.00,0.0008
1871.00,0.0007
1870.00,0.0006
1869.00,0.0006
1868.00,0.0007
1867.00,0.0009
1866.00,0.0010
1865.00,0.0010
1864.00,0.0010
1863.00,0.0010
1862.00,0.0010
1861.00,0.0010
1860.00,0.0010
1859.00,0.0010
1858.00,0.0010
1857.00,0.0010
1856.00,0.0011
1855.00,0.0011
1854.00,0.0011
1853.00,0.0011
1852.00,0.0011
1851.00,0.0011
1850.00,0.0010
1849.00,0.0010
1848.00,0.0009
1847.00,0.0009
1846.00,0.0009
1845.00,0.0010
1844.00,0.0012
1843.00,0.0014
1842.00,0.0013
1841.00,0.0012
1840.00,0.0011
1839.00,0.0011
1838.00,0.0011
1837.00,0.0011
1836.00,0.0012
1835.00,0.0012
1834.00,0.0012
1833.00,0.0011
1832.00,0.0010
1831.00,0.0009
1830.00,0.0009
1829.00,0.0011
1828.00,0.0012
1827.00,0.0013
1826.00,0.0013
1825.00,0.0013
1824.00,0.0015
1823.00,0.0015
1822.00,0.0015
1821.00,0.0014
1820.00,0.0013
1819.00,0.0013
1818.00,0.0012
1817.00,0.0012
1816.00,0.0013
1815.00,0.0013
1814.00,0.0013
1813.00,0.0012
1812.00,0.0012
1811.00,0.0013
1810.00,0.0014
1809.00,0.0015
1808.00,0.0016
1807.00,0.0016
1806.00,0.0016
1805.00,0.0016
1804.00,0.0017
1803.00,0.0016
1802.00,0.0016
1801.00,0.0016
1800.00,0.0017
1799.00,0.0017
1798.00,0.0018
1797.00,0.0017
1796.00,0.0017
1795.00,0.0017
1794.00,0.0017
1793.00,0.0017
1792.00,0.0020
1791.00,0.0022
1790.00,0.0022
1789.00,0.0022
1788.00,0.0021
1787.00,0.0021
1786.00,0.0022
1785.00,0.0023
1784.00,0.0023
1783.00,0.0022
1782.00,0.0021
1781.00,0.0021
1780.00,0.0022
1779.00,0.0023
1778.00,0.0023
1777.00,0.0022
1776.00,0.0022
1775.00,0.0021
1774.00,0.0020
1773.00,0.0021
1772.00,0.0023
1771.00,0.0026
1770.00,0.0028
1769.00,0.0030
1768.00,0.0031
1767.00,0.0032
1766.00,0.0031
1765.00,0.0031
1764.00,0.0030
1763.00,0.0031
1762.00,0.0033
1761.00,0.0036
1760.00,0.0037
1759.00,0.0038
1758.00,0.0038
1757.00,0.0040
1756.00,0.0042
1755.00,0.0043
1754.00,0.0044
1753.00,0.0045
1752.00,0.0046
1751.00,0.0048
1750.00,0.0048
1749.00,0.0049
1748.00,0.0050
1747.00,0.0053
1746.00,0.0055
1745.00,0.0057
1744.00,0.0059
1743.00,0.0061
1742.00,0.0062
1741.00,0.0064
1740.00,0.0067
1739.00,0.0071
1738.00,0.0073
1737.00,0.0075
1736.00,0.0077
1735.00,0.0081
1734.00,0.0085
1733.00,0.0089
1732.00,0.0090
1731.00,0.0089
1730.00,0.0090
1729.00,0.0092
1728.00,0.0094
1727.00,0.0096
1726.00,0.0097
1725.00,0.0099
1724.00,0.0100
1723.00,0.0102
1722.00,0.0103
1721.00,0.0104
1720.00,0.0105
1719.00,0.0107
1718.00,0.0109
1717.00,0.0112
1716.00,0.0116
1715.00,0.0119
1714.00,0.0121
1713.00,0.0123
1712.00,0.0126
1711.00,0.0129
1710.00,0.0132
1709.00,0.0135
1708.00,0.0139
1707.00,0.0143
1706.00,0.0150
1705.00,0.0159
1704.00,0.0169
1703.00,0.0180
1702.00,0.0194
1701.00,0.0210
1700.00,0.0228
1699.00,0.0243
1698.00,0.0254
1697.00,0.0264
1696.00,0.0276
1695.00,0.0287
1694.00,0.0294
1693.00,0.0298
1692.00,0.0302
1691.00,0.0308
1690.00,0.0314
1689.00,0.0321
1688.00,0.0329
1687.00,0.0338
1686.00,0.0348
1685.00,0.0356
1684.00,0.0364
1683.00,0.0373
1682.00,0.0380
1681.00,0.0389
1680.00,0.0399
1679.00,0.0410
1678.00,0.0420
1677.00,0.0432
1676.00,0.0442
1675.00,0.0451
1674.00,0.0458
1673.00,0.0466
1672.00,0.0475
1671.00,0.0485
1670.00,0.0494
1669.00,0.0503
1668.00,0.0514
1667.00,0.0524
1666.00,0.0535
1665.00,0.0547
1664.00,0.0558
1663.00,0.0568
1662.00,0.0577
1661.00,0.0587
1660.00,0.0597
1659.00,0.0609
1658.00,0.0620
1657.00,0.0633
1656.00,0.0648
1655.00,0.0663
1654.00,0.0668
1653.00,0.0664
1652.00,0.0661
1651.00,0.0662
1650.00,0.0668
1649.00,0.0677
1648.00,0.0684
1647.00,0.0686
1646.00,0.0686
1645.00,0.0687
1644.00,0.0691
1643.00,0.0697
1642.00,0.0704
1641.00,0.0710
1640.00,0.0716
1639.00,0.0724
1638.00,0.0732
1637.00,0.0739
1636.00,0.0743
1635.00,0.0746
1634.00,0.0752
1633.00,0.0762
1632.00,0.0776
1631.00,0.0791
1630.00,0.0806
1629.00,0.0818
1628.00,0.0830
1627.00,0.0842
1626.00,0.0854
1625.00,0.0865
1624.00,0.0873
1623.00,0.0876
1622.00,0.0877
1621.00,0.0878
1620.00,0.0882
1619.00,0.0885
1618.00,0.0879
1617.00,0.0861
1616.00,0.0835
1615.00,0.0812
1614.00,0.0794
1613.00,0.0777
1612.00,0.0759
1611.00,0.0736
1610.00,0.0710
1609.00,0.0683
1608.00,0.0657
1607.00,0.0632
1606.00,0.0610
1605.00,0.0588
1604.00,0.0568
1603.00,0.0548
1602.00,0.0529
1601.00,0.0512
1600.00,0.0496
1599.00,0.0482
1598.00,0.0469
1597.00,0.0458
1596.00,0.0446
1595.00,0.0435
1594.00,0.0426
1593.00,0.0418
1592.00,0.0410
1591.00,0.0403
1590.00,0.0396
1589.00,0.0391
1588.00,0.0386
1587.00,0.0382
1586.00,0.0379
1585.00,0.0377
1584.00,0.0375
1583.00,0.0374
1582.00,0.0373
1581.00,0.0374
1580.00,0.0375
1579.00,0.0378
1578.00,0.0381
1577.00,0.0384
1576.00,0.0387
1575.00,0.0390
1574.00,0.0394
1573.00,0.0400
1572.00,0.0407
1571.00,0.0414
1570.00,0.0420
1569.00,0.0427
1568.00,0.0434
1567.00,0.0442
1566.00,0.0450
1565.00,0.0459
1564.00,0.0468
1563.00,0.0479
1562.00,0.0492
1561.00,0.0507
1560.00,0.0516
1559.00,0.0518
1558.00,0.0524
1557.00,0.0533
1556.00,0.0543
1555.00,0.0555
1554.00,0.0567
1553.00,0.0579
1552.00,0.0589
1551.00,0.0599
1550.00,0.0609
1549.00,0.0620
1548.00,0.0630
1547.00,0.0641
1546.00,0.0652
1545.00,0.0661
1544.00,0.0668
1543.00,0.0675
1542.00,0.0682
1541.00,0.0687
1540.00,0.0689
1539.00,0.0693
1538.00,0.0700
1537.00,0.0709
1536.00,0.0720
1535.00,0.0730
1534.00,0.0736
1533.00,0.0738
1532.00,0.0741
1531.00,0.0746
1530.00,0.0753
1529.00,0.0760
1528.00,0.0764
1527.00,0.0767
1526.00,0.0767
1525.00,0.0768
1524.00,0.0771
1523.00,0.0774
1522.00,0.0773
1521.00,0.0770
1520.00,0.0767
1519.00,0.0767
1518.00,0.0768
1517.00,0.0768
1516.00,0.0765
1515.00,0.0762
1514.00,0.0759
1513.00,0.0754
1512.00,0.0745
1511.00,0.0735
1510.00,0.0726
1509.00,0.0717
1508.00,0.0701
1507.00,0.0676
1506.00,0.0651
1505.00,0.0633
1504.00,0.0620
1503.00,0.0610
1502.00,0.0601
1501.00,0.0591
1500.00,0.0579
1499.00,0.0566
1498.00,0.0553
1497.00,0.0537
1496.00,0.0521
1495.00,0.0505
1494.00,0.0492
1493.00,0.0481
1492.00,0.0469
1491.00,0.0455
1490.00,0.0438
1489.00,0.0423
1488.00,0.0410
1487.00,0.0400
1486.00,0.0392
1485.00,0.0383
1484.00,0.0376
1483.00,0.0369
1482.00,0.0363
1481.00,0.0357
1480.00,0.0353
1479.00,0.0350
1478.00,0.0349
1477.00,0.0348
1476.00,0.0348
1475.00,0.0349
1474.00,0.0352
1473.00,0.0355
1472.00,0.0359
1471.00,0.0364
1470.00,0.0368
1469.00,0.0372
1468.00,0.0375
1467.00,0.0378
1466.00,0.0379
1465.00,0.0378
1464.00,0.0378
1463.00,0.0379
1462.00,0.0380
1461.00,0.0383
1460.00,0.0387
1459.00,0.0392
1458.00,0.0397
1457.00,0.0402
1456.00,0.0406
1455.00,0.0408
1454.00,0.0409
1453.00,0.0410
1452.00,0.0412
1451.00,0.0413
1450.00,0.0413
1449.00,0.0413
1448.00,0.0412
1447.00,0.0411
1446.00,0.0409
1445.00,0.0409
1444.00,0.0408
1443.00,0.0407
1442.00,0.0405
1441.00,0.0403
1440.00,0.0403
1439.00,0.0402
1438.00,0.0402
1437.00,0.0398
1436.00,0.0391
1435.00,0.0383
1434.00,0.0377
1433.00,0.0372
1432.00,0.0367
1431.00,0.0362
1430.00,0.0358
1429.00,0.0354
1428.00,0.0352
1427.00,0.0351
1426.00,0.0350
1425.00,0.0350
1424.00,0.0350
1423.00,0.0351
1422.00,0.0354
1421.00,0.0358
1420.00,0.0362
1419.00,0.0365
1418.00,0.0367
1417.00,0.0369
1416.00,0.0372
1415.00,0.0375
1414.00,0.0379
1413.00,0.0383
1412.00,0.0386
1411.00,0.0389
1410.00,0.0392
1409.00,0.0394
1408.00,0.0397
1407.00,0.0399
1406.00,0.0401
1405.00,0.0402
1404.00,0.0403
1403.00,0.0404
1402.00,0.0406
1401.00,0.0407
1400.00,0.0408
1399.00,0.0408
1398.00,0.0409
1397.00,0.0409
1396.00,0.0410
1395.00,0.0411
1394.00,0.0412
1393.00,0.0413
1392.00,0.0413
1391.00,0.0415
1390.00,0.0416
1389.00,0.0418
1388.00,0.0418
1387.00,0.0416
1386.00,0.0412
1385.00,0.0408
1384.00,0.0404
1383.00,0.0400
1382.00,0.0396
1381.00,0.0392
1380.00,0.0388
1379.00,0.0384
1378.00,0.0380
1377.00,0.0377
1376.00,0.0374
1375.00,0.0371
1374.00,0.0369
1373.00,0.0367
1372.00,0.0366
1371.00,0.0366
1370.00,0.0364
1369.00,0.0362
1368.00,0.0360
1367.00,0.0357
1366.00,0.0354
1365.00,0.0351
1364.00,0.0347
1363.00,0.0343
1362.00,0.0340
1361.00,0.0337
1360.00,0.0334
1359.00,0.0332
1358.00,0.0331
1357.00,0.0329
1356.00,0.0328
1355.00,0.0327
1354.00,0.0326
1353.00,0.0326
1352.00,0.0325
1351.00,0.0325
1350.00,0.0325
1349.00,0.0325
1348.00,0.0325
1347.00,0.0325
1346.00,0.0325
1345.00,0.0325
1344.00,0.0325
1343.00,0.0325
1342.00,0.0325
1341.00,0.0324
1340.00,0.0324
1339.00,0.0324
1338.00,0.0323
1337.00,0.0323
1336.00,0.0322
1335.00,0.0321
1334.00,0.0320
1333.00,0.0319
1332.00,0.0318
1331.00,0.0318
1330.00,0.0317
1329.00,0.0317
1328.00,0.0317
1327.00,0.0318
1326.00,0.0318
1325.00,0.0319
1324.00,0.0319
1323.00,0.0320
1322.00,0.0321
1321.00,0.0322
1320.00,0.0322
1319.00,0.0323
1318.00,0.0324
1317.00,0.0325
1316.00,0.0326
1315.00,0.0327
1314.00,0.0327
1313.00,0.0328
1312.00,0.0328
1311.00,0.0328
1310.00,0.0328
1309.00,0.0328
1308.00,0.0328
1307.00,0.0328
1306.00,0.0328
1305.00,0.0328
1304.00,0.0328
1303.00,0.0328
1302.00,0.0328
1301.00,0.0328
1300.00,0.0329
1299.00,0.0329
1298.00,0.0330
1297.00,0.0331
1296.00,0.0332
1295.00,0.0334
1294.00,0.0335
1293.00,0.0337
1292.00,0.0338
1291.00,0.0340
1290.00,0.0342
1289.00,0.0343
1288.00,0.0345
1287.00,0.0347
1286.00,0.0348
1285.00,0.0350
1284.00,0.0351
1283.00,0.0352
1282.00,0.0353
1281.00,0.0354
1280.00,0.0355
1279.00,0.0356
1278.00,0.0357
1277.00,0.0358
1276.00,0.0358
1275.00,0.0358
1274.00,0.0359
1273.00,0.0359
1272.00,0.0360
1271.00,0.0361
1270.00,0.0362
1269.00,0.0364
1268.00,0.0366
1267.00,0.0368
1266.00,0.0371
1265.00,0.0373
1264.00,0.0376
1263.00,0.0380
1262.00,0.0383
1261.00,0.0386
1260.00,0.0389
1259.00,0.0393
1258.00,0.0396
1257.00,0.0399
1256.00,0.0403
1255.00,0.0406
1254.00,0.0410
1253.00,0.0414
1252.00,0.0418
1251.00,0.0422
1250.00,0.0426
1249.00,0.0430
1248.00,0.0434
1247.00,0.0438
1246.00,0.0442
1245.00,0.0445
1244.00,0.0449
1243.00,0.0453
1242.00,0.0456
1241.00,0.0460
1240.00,0.0464
1239.00,0.0467
1238.00,0.0470
1237.00,0.0473
1236.00,0.0476
1235.00,0.0478
1234.00,0.0480
1233.00,0.0482
1232.00,0.0484
1231.00,0.0485
1230.00,0.0485
1229.00,0.0486
1228.00,0.0486
1227.00,0.0485
1226.00,0.0484
1225.00,0.0483
1224.00,0.0482
1223.00,0.0480
1222.00,0.0478
1221.00,0.0476
1220.00,0.0473
1219.00,0.0470
1218.00,0.0467
1217.00,0.0463
1216.00,0.0459
1215.00,0.0455
1214.00,0.0450
1213.00,0.0445
1212.00,0.0440
1211.00,0.0435
1210.00,0.0430
1209.00,0.0425
1208.00,0.0420
1207.00,0.0415
1206.00,0.0411
1205.00,0.0407
1204.00,0.0403
1203.00,0.0399
1202.00,0.0396
1201.00,0.0392
1200.00,0.0389
1199.00,0.0385
1198.00,0.0382
1197.00,0.0379
1196.00,0.0377
1195.00,0.0374
1194.00,0.0372
1193.00,0.0370
1192.00,0.0368
1191.00,0.0366
1190.00,0.0365
1189.00,0.0363
1188.00,0.0362
1187.00,0.0361
1186.00,0.0360
1185.00,0.0359
1184.00,0.0358
1183.00,0.0358
1182.00,0.0358
1181.00,0.0358
1180.00,0.0359
1179.00,0.0360
1178.00,0.0361
1177.00,0.0363
1176.00,0.0366
1175.00,0.0369
1174.00,0.0372
1173.00,0.0374
1172.00,0.0376
1171.00,0.0377
1170.00,0.0378
1169.00,0.0378
1168.00,0.0378
1167.00,0.0379
1166.00,0.0379
1165.00,0.0380
1164.00,0.0380
1163.00,0.0381
1162.00,0.0381
1161.00,0.0381
1160.00,0.0381
1159.00,0.0381
1158.00,0.0381
1157.00,0.0381
1156.00,0.0380
1155.00,0.0379
1154.00,0.0378
1153.00,0.0376
1152.00,0.0374
1151.00,0.0372
1150.00,0.0369
1149.00,0.0366
1148.00,0.0362
1147.00,0.0359
1146.00,0.0355
1145.00,0.0352
1144.00,0.0349
1143.00,0.0346
1142.00,0.0343
1141.00,0.0341
1140.00,0.0339
1139.00,0.0338
1138.00,0.0337
1137.00,0.0336
1136.00,0.0336
1135.00,0.0335
1134.00,0.0336
1133.00,0.0336
1132.00,0.0337
1131.00,0.0339
1130.00,0.0341
1129.00,0.0343
1128.00,0.0345
1127.00,0.0346
1126.00,0.0348
1125.00,0.0350
1124.00,0.0352
1123.00,0.0353
1122.00,0.0355
1121.00,0.0356
1120.00,0.0357
1119.00,0.0359
1118.00,0.0360
1117.00,0.0362
1116.00,0.0363
1115.00,0.0364
1114.00,0.0365
1113.00,0.0366
1112.00,0.0367
1111.00,0.0368
1110.00,0.0369
1109.00,0.0370
1108.00,0.0371
1107.00,0.0373
1106.00,0.0374
1105.00,0.0375
1104.00,0.0376
1103.00,0.0378
1102.00,0.0379
1101.00,0.0381
1100.00,0.0382
1099.00,0.0384
1098.00,0.0386
1097.00,0.0389
1096.00,0.0391
1095.00,0.0394
1094.00,0.0397
1093.00,0.0401
1092.00,0.0405
1091.00,0.0409
1090.00,0.0414
1089.00,0.0419
1088.00,0.0424
1087.00,0.0430
1086.00,0.0436
1085.00,0.0442
1084.00,0.0448
1083.00,0.0453
1082.00,0.0459
1081.00,0.0463
1080.00,0.0468
1079.00,0.0471
1078.00,0.0474
1077.00,0.0476
1076.00,0.0478
1075.00,0.0479
1074.00,0.0480
1073.00,0.0480
1072.00,0.0481
1071.00,0.0481
1070.00,0.0481
1069.00,0.0482
1068.00,0.0483
1067.00,0.0484
1066.00,0.0485
1065.00,0.0486
1064.00,0.0488
1063.00,0.0489
1062.00,0.0490
1061.00,0.0492
1060.00,0.0494
1059.00,0.0495
1058.00,0.0496
1057.00,0.0497
1056.00,0.0497
1055.00,0.0497
1054.00,0.0497
1053.00,0.0497
1052.00,0.0496
1051.00,0.0496
1050.00,0.0495
1049.00,0.0493
1048.00,0.0492
1047.00,0.0491
1046.00,0.0489
1045.00,0.0488
1044.00,0.0487
1043.00,0.0485
1042.00,0.0483
1041.00,0.0481
1040.00,0.0479
1039.00,0.0477
1038.00,0.0475
1037.00,0.0473
1036.00,0.0471
1035.00,0.0470
1034.00,0.0468
1033.00,0.0467
1032.00,0.0466
1031.00,0.0465
1030.00,0.0463
1029.00,0.0462
1028.00,0.0460
1027.00,0.0458
1026.00,0.0455
1025.00,0.0453
1024.00,0.0450
1023.00,0.0447
1022.00,0.0443
1021.00,0.0439
1020.00,0.0435
1019.00,0.0431
1018.00,0.0427
1017.00,0.0423
1016.00,0.0418
1015.00,0.0414
1014.00,0.0409
1013.00,0.0405
1012.00,0.0400
1011.00,0.0396
1010.00,0.0392
1009.00,0.0388
1008.00,0.0383
1007.00,0.0379
1006.00,0.0374
1005.00,0.0370
1004.00,0.0366
1003.00,0.0363
1002.00,0.0359
1001.00,0.0355
1000.00,0.0351
999.00,0.0348
998.00,0.0343
997.00,0.0339
996.00,0.0335
995.00,0.0331
994.00,0.0327
993.00,0.0323
992.00,0.0320
991.00,0.0316
990.00,0.0313
989.00,0.0309
988.00,0.0306
987.00,0.0303
986.00,0.0300
985.00,0.0297
984.00,0.0295
983.00,0.0293
982.00,0.0291
981.00,0.0290
980.00,0.0289
979.00,0.0288
978.00,0.0287
977.00,0.0287
976.00,0.0287
975.00,0.0287
974.00,0.0288
973.00,0.0288
972.00,0.0288
971.00,0.0288
970.00,0.0288
969.00,0.0288
968.00,0.0288
967.00,0.0288
966.00,0.0288
965.00,0.0288
964.00,0.0288
963.00,0.0288
962.00,0.0288
961.00,0.0288
960.00,0.0288
959.00,0.0287
958.00,0.0286
957.00,0.0286
956.00,0.0285
955.00,0.0284
954.00,0.0284
953.00,0.0283
952.00,0.0282
951.00,0.0282
950.00,0.0282
949.00,0.0283
948.00,0.0284
947.00,0.0285
946.00,0.0285
945.00,0.0286
944.00,0.0287
943.00,0.0288
942.00,0.0290
941.00,0.0291
940.00,0.0292
939.00,0.0294
938.00,0.0295
937.00,0.0297
936.00,0.0298
935.00,0.0300
934.00,0.0301
933.00,0.0302
932.00,0.0304
931.00,0.0305
930.00,0.0306
929.00,0.0306
928.00,0.0306
927.00,0.0305
926.00,0.0304
925.00,0.0304
924.00,0.0304
923.00,0.0303
922.00,0.0302
921.00,0.0301
920.00,0.0300
919.00,0.0299
918.00,0.0298
917.00,0.0296
916.00,0.0296
915.00,0.0295
914.00,0.0294
913.00,0.0293
912.00,0.0292
911.00,0.0291
910.00,0.0290
909.00,0.0289
908.00,0.0288
907.00,0.0288
906.00,0.0287
905.00,0.0287
904.00,0.0286
903.00,0.0286
902.00,0.0285
901.00,0.0285
900.00,0.0284
899.00,0.0283
898.00,0.0282
897.00,0.0281
896.00,0.0281
895.00,0.0281
894.00,0.0281
893.00,0.0281
892.00,0.0281
891.00,0.0281
890.00,0.0281
889.00,0.0280
888.00,0.0280
887.00,0.0280
886.00,0.0281
885.00,0.0281
884.00,0.0281
883.00,0.0281
882.00,0.0280
881.00,0.0280
880.00,0.0279
879.00,0.0279
878.00,0.0279
877.00,0.0279
876.00,0.0279
875.00,0.0278
874.00,0.0278
873.00,0.0277
872.00,0.0277
871.00,0.0277
870.00,0.0277
869.00,0.0276
868.00,0.0276
867.00,0.0277
866.00,0.0277
865.00,0.0278
864.00,0.0279
863.00,0.0280
862.00,0.0281
861.00,0.0282
860.00,0.0284
859.00,0.0286
858.00,0.0288
857.00,0.0290
856.00,0.0292
855.00,0.0295
854.00,0.0297
853.00,0.0298
852.00,0.0299
851.00,0.0300
850.00,0.0301
849.00,0.0302
848.00,0.0302
847.00,0.0302
846.00,0.0303
845.00,0.0304
844.00,0.0305
843.00,0.0306
842.00,0.0308
841.00,0.0310
840.00,0.0312
839.00,0.0314
838.00,0.0317
837.00,0.0319
836.00,0.0321
835.00,0.0324
834.00,0.0327
833.00,0.0330
832.00,0.0332
831.00,0.0334
830.00,0.0337
829.00,0.0339
828.00,0.0341
827.00,0.0343
826.00,0.0344
825.00,0.0345
824.00,0.0345
823.00,0.0346
822.00,0.0346
821.00,0.0347
820.00,0.0348
819.00,0.0349
818.00,0.0350
817.00,0.0351
816.00,0.0353
815.00,0.0355
814.00,0.0357
813.00,0.0360
812.00,0.0362
811.00,0.0364
810.00,0.0365
809.00,0.0367
808.00,0.0369
807.00,0.0371
806.00,0.0373
805.00,0.0374
804.00,0.0377
803.00,0.0379
802.00,0.0382
801.00,0.0385
800.00,0.0388
799.00,0.0391
798.00,0.0394
797.00,0.0397
796.00,0.0400
795.00,0.0403
794.00,0.0407
793.00,0.0411
792.00,0.0415
791.00,0.0419
790.00,0.0423
789.00,0.0428
788.00,0.0432
787.00,0.0437
786.00,0.0441
785.00,0.0446
784.00,0.0450
783.00,0.0453
782.00,0.0456
781.00,0.0458
780.00,0.0460
779.00,0.0461
778.00,0.0462
777.00,0.0464
776.00,0.0465
775.00,0.0467
774.00,0.0468
773.00,0.0469
772.00,0.0471
771.00,0.0473
770.00,0.0474
769.00,0.0476
768.00,0.0478
767.00,0.0479
766.00,0.0481
765.00,0.0482
764.00,0.0484
763.00,0.0485
762.00,0.0487
761.00,0.0489
760.00,0.0492
759.00,0.0494
758.00,0.0496
757.00,0.0498
756.00,0.0501
755.00,0.0504
754.00,0.0508
753.00,0.0511
752.00,0.0514
751.00,0.0518
750.00,0.0522
749.00,0.0526
748.00,0.0530
747.00,0.0534
746.00,0.0538
745.00,0.0542
744.00,0.0545
743.00,0.0548
742.00,0.0550
741.00,0.0552
740.00,0.0554
739.00,0.0557
738.00,0.0559
737.00,0.0562
736.00,0.0566
735.00,0.0569
734.00,0.0573
733.00,0.0577
732.00,0.0582
731.00,0.0588
730.00,0.0594
729.00,0.0601
728.00,0.0608
727.00,0.0615
726.00,0.0623
725.00,0.0631
724.00,0.0639
723.00,0.0647
722.00,0.0655
721.00,0.0663
720.00,0.0671
719.00,0.0679
718.00,0.0685
717.00,0.0691
716.00,0.0697
715.00,0.0702
714.00,0.0707
713.00,0.0712
712.00,0.0718
711.00,0.0725
710.00,0.0731
709.00,0.0738
708.00,0.0744
707.00,0.0751
706.00,0.0759
705.00,0.0767
704.00,0.0774
703.00,0.0781
702.00,0.0788
701.00,0.0794
700.00,0.0800
699.00,0.0804
698.00,0.0807
697.00,0.0808
696.00,0.0808
695.00,0.0808
694.00,0.0807
693.00,0.0806
692.00,0.0805
691.00,0.0804
690.00,0.0804
689.00,0.0804
688.00,0.0804
687.00,0.0805
686.00,0.0806
685.00,0.0808
684.00,0.0809
683.00,0.0810
682.00,0.0810
681.00,0.0811
680.00,0.0813
679.00,0.0815
678.00,0.0816
677.00,0.0818
676.00,0.0821
675.00,0.0823
674.00,0.0825
673.00,0.0827
672.00,0.0829
671.00,0.0832
670.00,0.0834
669.00,0.0837
668.00,0.0839
667.00,0.0840
666.00,0.0841
665.00,0.0843
664.00,0.0845
663.00,0.0847
662.00,0.0849
661.00,0.0852
660.00,0.0854
659.00,0.0856
658.00,0.0858
657.00,0.0859
656.00,0.0861
655.00,0.0863
654.00,0.0864
653.00,0.0866
652.00,0.0868
651.00,0.0869
650.00,0.0870
649.00,0.0872
648.00,0.0875
647.00,0.0877
646.00,0.0879
645.00,0.0881
644.00,0.0883
643.00,0.0886
642.00,0.0888
641.00,0.0890
640.00,0.0893
639.00,0.0896
638.00,0.0899
637.00,0.0901
636.00,0.0903
635.00,0.0905
634.00,0.0909
633.00,0.0913
632.00,0.0917
631.00,0.0920
630.00,0.0923
629.00,0.0926
628.00,0.0929
627.00,0.0932
626.00,0.0934
625.00,0.0935
624.00,0.0936
623.00,0.0937
622.00,0.0938
621.00,0.0939
620.00,0.0941
619.00,0.0942
618.00,0.0943
617.00,0.0944
616.00,0.0946
615.00,0.0947
614.00,0.0948
613.00,0.0950
612.00,0.0954
611.00,0.0961
610.00,0.0966
609.00,0.0966
608.00,0.0962
607.00,0.0957
606.00,0.0954
605.00,0.0953
604.00,0.0955
603.00,0.0956
602.00,0.0958
601.00,0.0959
600.00,0.0960
599.00,0.0962
598.00,0.0963
597.00,0.0965
596.00,0.0967
595.00,0.0968
594.00,0.0969
593.00,0.0970
592.00,0.0972
591.00,0.0974
590.00,0.0977
589.00,0.0979
588.00,0.0982
587.00,0.0984
586.00,0.0986
585.00,0.0988
584.00,0.0990
583.00,0.0992
582.00,0.0993
581.00,0.0995
580.00,0.0997
579.00,0.1000
578.00,0.1003
577.00,0.1007
576.00,0.1010
575.00,0.1013
574.00,0.1014
573.00,0.1014
572.00,0.1014
571.00,0.1016
570.00,0.1019
569.00,0.1023
568.00,0.1027
567.00,0.1031
566.00,0.1034
565.00,0.1038
564.00,0.1042
563.00,0.1045
562.00,0.1047
561.00,0.1050
560.00,0.1053
559.00,0.1056
558.00,0.1058
557.00,0.1061
556.00,0.1064
555.00,0.1066
554.00,0.1068
553.00,0.1071
552.00,0.1074
551.00,0.1078
550.00,0.1081
549.00,0.1084
548.00,0.1087
547.00,0.1090
546.00,0.1092
545.00,0.1095
544.00,0.1100
543.00,0.1103
542.00,0.1105
541.00,0.1106
540.00,0.1108
539.00,0.1110
538.00,0.1111
537.00,0.1113
536.00,0.1117
535.00,0.1120
534.00,0.1123
533.00,0.1125
532.00,0.1129
531.00,0.1132
530.00,0.1135
529.00,0.1138
528.00,0.1141
527.00,0.1144
526.00,0.1145
525.00,0.1147
524.00,0.1150
523.00,0.1154
522.00,0.1157
521.00,0.1159
520.00,0.1160
519.00,0.1161
518.00,0.1162
517.00,0.1166
516.00,0.1170
515.00,0.1173
514.00,0.1173
513.00,0.1172
512.00,0.1172
511.00,0.1172
510.00,0.1172
509.00,0.1174
508.00,0.1175
507.00,0.1177
506.00,0.1177
505.00,0.1179
504.00,0.1182
503.00,0.1184
502.00,0.1185
501.00,0.1186
500.00,0.1186
499.00,0.1187
498.00,0.1188
497.00,0.1189
496.00,0.1191
495.00,0.1192
494.00,0.1193
493.00,0.1194
492.00,0.1196
491.00,0.1198
490.00,0.1198
489.00,0.1198
488.00,0.1200
487.00,0.1201
486.00,0.1199
485.00,0.1196
484.00,0.1194
483.00,0.1192
482.00,0.1190
481.00,0.1189
480.00,0.1190
479.00,0.1191
478.00,0.1191
477.00,0.1192
476.00,0.1195
475.00,0.1195
474.00,0.1193
473.00,0.1190
472.00,0.1190
471.00,0.1193
470.00,0.1196
469.00,0.1199
468.00,0.1201
467.00,0.1200
466.00,0.1199
465.00,0.1199
464.00,0.1202
463.00,0.1206
462.00,0.1207
461.00,0.1207
460.00,0.1206
459.00,0.1204
458.00,0.1200
457.00,0.1199
456.00,0.1199
455.00,0.1199
454.00,0.1197
453.00,0.1195
452.00,0.1194
451.00,0.1193
450.00,0.1193
449.00,0.1195
448.00,0.1198
447.00,0.1199
446.00,0.1195
445.00,0.1188
444.00,0.1182
443.00,0.1177
442.00,0.1174
441.00,0.1172
440.00,0.1173
439.00,0.1174
438.00,0.1175
437.00,0.1176
436.00,0.1176
435.00,0.1174
434.00,0.1168
433.00,0.1165
432.00,0.1168
431.00,0.1174
430.00,0.1177
429.00,0.1179
428.00,0.1182
427.00,0.1184
426.00,0.1182
425.00,0.1179
424.00,0.1177
423.00,0.1179
422.00,0.1182
421.00,0.1185
420.00,0.1185
419.00,0.1178
418.00,0.1167
417.00,0.1162
416.00,0.1163
415.00,0.1165
414.00,0.1163
413.00,0.1160
412.00,0.1159
411.00,0.1162
410.00,0.1167
409.00,0.1175
408.00,0.1181
407.00,0.1175
406.00,0.1159
405.00,0.1147
404.00,0.1150
403.00,0.1162
402.00,0.1171
401.00,0.1175
400.00,0.1179
