Created as New Dataset,Sample 728 By YargerLab Date Thursday, June 26 2025
cm-1,A
4000.00,0.0004
3999.00,0.0004
3998.00,0.0004
3997.00,0.0005
3996.00,0.0005
3995.00,0.0005
3994.00,0.0005
3993.00,0.0005
3992.00,0.0005
3991.00,0.0005
3990.00,0.0004
3989.00,0.0004
3988.00,0.0004
3987.00,0.0004
3986.00,0.0004
3985.00,0.0005
3984.00,0.0005
3983.00,0.0005
3982.00,0.0005
3981.00,0.0005
3980.00,0.0005
3979.00,0.0005
3978.00,0.0005
3977.00,0.0004
3976.00,0.0004
3975.00,0.0004
3974.00,0.0004
3973.00,0.0004
3972.00,0.0004
3971.00,0.0004
3970.00,0.0004
3969.00,0.0004
3968.00,0.0004
3967.00,0.0004
3966.00,0.0004
3965.00,0.0004
3964.00,0.0005
3963.00,0.0005
3962.00,0.0005
3961.00,0.0005
3960.00,0.0005
3959.00,0.0005
3958.00,0.0004
3957.00,0.0004
3956.00,0.0004
3955.00,0.0004
3954.00,0.0004
3953.00,0.0004
3952.00,0.0004
3951.00,0.0004
3950.00,0.0004
3949.00,0.0005
3948.00,0.0005
3947.00,0.0005
3946.00,0.0005
3945.00,0.0005
3944.00,0.0005
3943.00,0.0004
3942.00,0.0004
3941.00,0.0004
3940.00,0.0004
3939.00,0.0005
3938.00,0.0005
3937.00,0.0004
3936.00,0.0004
3935.00,0.0004
3934.00,0.0004
3933.00,0.0003
3932.00,0.0003
3931.00,0.0004
3930.00,0.0004
3929.00,0.0004
3928.00,0.0004
3927.00,0.0004
3926.00,0.0004
3925.00,0.0004
3924.00,0.0004
3923.00,0.0004
3922.00,0.0004
3921.00,0.0003
3920.00,0.0003
3919.00,0.0003
3918.00,0.0004
3917.00,0.0004
3916.00,0.0004
3915.00,0.0004
3914.00,0.0004
3913.00,0.0004
3912.00,0.0004
3911.00,0.0004
3910.00,0.0004
3909.00,0.0004
3908.00,0.0004
3907.00,0.0004
3906.00,0.0004
3905.00,0.0004
3904.00,0.0004
3903.00,0.0004
3902.00,0.0003
3901.00,0.0003
3900.00,0.0003
3899.00,0.0003
3898.00,0.0003
3897.00,0.0004
3896.00,0.0004
3895.00,0.0004
3894.00,0.0003
3893.00,0.0003
3892.00,0.0003
3891.00,0.0003
3890.00,0.0004
3889.00,0.0004
3888.00,0.0003
3887.00,0.0003
3886.00,0.0003
3885.00,0.0004
3884.00,0.0004
3883.00,0.0004
3882.00,0.0003
3881.00,0.0003
3880.00,0.0003
3879.00,0.0004
3878.00,0.0004
3877.00,0.0004
3876.00,0.0004
3875.00,0.0004
3874.00,0.0004
3873.00,0.0003
3872.00,0.0003
3871.00,0.0003
3870.00,0.0003
3869.00,0.0004
3868.00,0.0004
3867.00,0.0003
3866.00,0.0003
3865.00,0.0003
3864.00,0.0004
3863.00,0.0004
3862.00,0.0004
3861.00,0.0004
3860.00,0.0004
3859.00,0.0004
3858.00,0.0004
3857.00,0.0003
3856.00,0.0003
3855.00,0.0003
3854.00,0.0003
3853.00,0.0003
3852.00,0.0003
3851.00,0.0003
3850.00,0.0003
3849.00,0.0003
3848.00,0.0004
3847.00,0.0004
3846.00,0.0004
3845.00,0.0004
3844.00,0.0004
3843.00,0.0004
3842.00,0.0004
3841.00,0.0004
3840.00,0.0004
3839.00,0.0004
3838.00,0.0004
3837.00,0.0004
3836.00,0.0004
3835.00,0.0003
3834.00,0.0003
3833.00,0.0003
3832.00,0.0004
3831.00,0.0004
3830.00,0.0004
3829.00,0.0004
3828.00,0.0004
3827.00,0.0004
3826.00,0.0004
3825.00,0.0004
3824.00,0.0004
3823.00,0.0004
3822.00,0.0004
3821.00,0.0004
3820.00,0.0004
3819.00,0.0004
3818.00,0.0004
3817.00,0.0004
3816.00,0.0004
3815.00,0.0004
3814.00,0.0004
3813.00,0.0004
3812.00,0.0004
3811.00,0.0004
3810.00,0.0004
3809.00,0.0004
3808.00,0.0004
3807.00,0.0004
3806.00,0.0005
3805.00,0.0005
3804.00,0.0004
3803.00,0.0004
3802.00,0.0004
3801.00,0.0005
3800.00,0.0005
3799.00,0.0004
3798.00,0.0004
3797.00,0.0004
3796.00,0.0004
3795.00,0.0004
3794.00,0.0005
3793.00,0.0005
3792.00,0.0005
3791.00,0.0005
3790.00,0.0005
3789.00,0.0004
3788.00,0.0005
3787.00,0.0005
3786.00,0.0005
3785.00,0.0005
3784.00,0.0005
3783.00,0.0005
3782.00,0.0005
3781.00,0.0004
3780.00,0.0004
3779.00,0.0004
3778.00,0.0004
3777.00,0.0004
3776.00,0.0004
3775.00,0.0004
3774.00,0.0004
3773.00,0.0004
3772.00,0.0004
3771.00,0.0004
3770.00,0.0004
3769.00,0.0004
3768.00,0.0004
3767.00,0.0004
3766.00,0.0004
3765.00,0.0004
3764.00,0.0005
3763.00,0.0005
3762.00,0.0005
3761.00,0.0005
3760.00,0.0005
3759.00,0.0005
3758.00,0.0005
3757.00,0.0005
3756.00,0.0005
3755.00,0.0005
3754.00,0.0005
3753.00,0.0005
3752.00,0.0005
3751.00,0.0005
3750.00,0.0005
3749.00,0.0005
3748.00,0.0005
3747.00,0.0004
3746.00,0.0004
3745.00,0.0004
3744.00,0.0004
3743.00,0.0004
3742.00,0.0004
3741.00,0.0004
3740.00,0.0004
3739.00,0.0004
3738.00,0.0004
3737.00,0.0004
3736.00,0.0004
3735.00,0.0004
3734.00,0.0003
3733.00,0.0003
3732.00,0.0003
3731.00,0.0003
3730.00,0.0003
3729.00,0.0003
3728.00,0.0003
3727.00,0.0003
3726.00,0.0003
3725.00,0.0004
3724.00,0.0004
3723.00,0.0004
3722.00,0.0004
3721.00,0.0004
3720.00,0.0004
3719.00,0.0004
3718.00,0.0004
3717.00,0.0005
3716.00,0.0005
3715.00,0.0005
3714.00,0.0005
3713.00,0.0005
3712.00,0.0005
3711.00,0.0005
3710.00,0.0004
3709.00,0.0004
3708.00,0.0004
3707.00,0.0004
3706.00,0.0004
3705.00,0.0005
3704.00,0.0005
3703.00,0.0005
3702.00,0.0005
3701.00,0.0005
3700.00,0.0005
3699.00,0.0005
3698.00,0.0005
3697.00,0.0005
3696.00,0.0005
3695.00,0.0005
3694.00,0.0005
3693.00,0.0004
3692.00,0.0004
3691.00,0.0004
3690.00,0.0004
3689.00,0.0004
3688.00,0.0005
3687.00,0.0005
3686.00,0.0005
3685.00,0.0006
3684.00,0.0006
3683.00,0.0006
3682.00,0.0007
3681.00,0.0007
3680.00,0.0007
3679.00,0.0007
3678.00,0.0007
3677.00,0.0007
3676.00,0.0007
3675.00,0.0008
3674.00,0.0008
3673.00,0.0008
3672.00,0.0008
3671.00,0.0008
3670.00,0.0008
3669.00,0.0009
3668.00,0.0009
3667.00,0.0009
3666.00,0.0009
3665.00,0.0009
3664.00,0.0010
3663.00,0.0010
3662.00,0.0011
3661.00,0.0012
3660.00,0.0012
3659.00,0.0012
3658.00,0.0012
3657.00,0.0012
3656.00,0.0013
3655.00,0.0014
3654.00,0.0014
3653.00,0.0014
3652.00,0.0015
3651.00,0.0015
3650.00,0.0015
3649.00,0.0015
3648.00,0.0014
3647.00,0.0014
3646.00,0.0014
3645.00,0.0015
3644.00,0.0015
3643.00,0.0016
3642.00,0.0017
3641.00,0.0017
3640.00,0.0018
3639.00,0.0018
3638.00,0.0019
3637.00,0.0019
3636.00,0.0019
3635.00,0.0019
3634.00,0.0019
3633.00,0.0020
3632.00,0.0020
3631.00,0.0021
3630.00,0.0021
3629.00,0.0021
3628.00,0.0022
3627.00,0.0022
3626.00,0.0023
3625.00,0.0023
3624.00,0.0024
3623.00,0.0024
3622.00,0.0024
3621.00,0.0025
3620.00,0.0025
3619.00,0.0026
3618.00,0.0026
3617.00,0.0027
3616.00,0.0027
3615.00,0.0027
3614.00,0.0028
3613.00,0.0028
3612.00,0.0029
3611.00,0.0029
3610.00,0.0030
3609.00,0.0030
3608.00,0.0030
3607.00,0.0031
3606.00,0.0032
3605.00,0.0032
3604.00,0.0033
3603.00,0.0034
3602.00,0.0034
3601.00,0.0034
3600.00,0.0035
3599.00,0.0035
3598.00,0.0036
3597.00,0.0037
3596.00,0.0037
3595.00,0.0038
3594.00,0.0038
3593.00,0.0038
3592.00,0.0039
3591.00,0.0039
3590.00,0.0040
3589.00,0.0040
3588.00,0.0040
3587.00,0.0041
3586.00,0.0041
3585.00,0.0042
3584.00,0.0042
3583.00,0.0042
3582.00,0.0043
3581.00,0.0043
3580.00,0.0044
3579.00,0.0045
3578.00,0.0045
3577.00,0.0046
3576.00,0.0047
3575.00,0.0048
3574.00,0.0048
3573.00,0.0049
3572.00,0.0049
3571.00,0.0050
3570.00,0.0050
3569.00,0.0050
3568.00,0.0051
3567.00,0.0051
3566.00,0.0052
3565.00,0.0052
3564.00,0.0053
3563.00,0.0053
3562.00,0.0054
3561.00,0.0055
3560.00,0.0055
3559.00,0.0056
3558.00,0.0057
3557.00,0.0058
3556.00,0.0058
3555.00,0.0059
3554.00,0.0059
3553.00,0.0059
3552.00,0.0060
3551.00,0.0060
3550.00,0.0061
3549.00,0.0061
3548.00,0.0062
3547.00,0.0062
3546.00,0.0063
3545.00,0.0064
3544.00,0.0064
3543.00,0.0064
3542.00,0.0065
3541.00,0.0065
3540.00,0.0066
3539.00,0.0066
3538.00,0.0067
3537.00,0.0068
3536.00,0.0068
3535.00,0.0069
3534.00,0.0069
3533.00,0.0070
3532.00,0.0071
3531.00,0.0072
3530.00,0.0072
3529.00,0.0073
3528.00,0.0073
3527.00,0.0073
3526.00,0.0074
3525.00,0.0074
3524.00,0.0075
3523.00,0.0075
3522.00,0.0075
3521.00,0.0076
3520.00,0.0076
3519.00,0.0077
3518.00,0.0078
3517.00,0.0079
3516.00,0.0079
3515.00,0.0080
3514.00,0.0080
3513.00,0.0080
3512.00,0.0081
3511.00,0.0081
3510.00,0.0082
3509.00,0.0082
3508.00,0.0083
3507.00,0.0084
3506.00,0.0084
3505.00,0.0085
3504.00,0.0085
3503.00,0.0086
3502.00,0.0086
3501.00,0.0086
3500.00,0.0087
3499.00,0.0087
3498.00,0.0088
3497.00,0.0088
3496.00,0.0089
3495.00,0.0090
3494.00,0.0090
3493.00,0.0091
3492.00,0.0091
3491.00,0.0092
3490.00,0.0092
3489.00,0.0093
3488.00,0.0094
3487.00,0.0094
3486.00,0.0095
3485.00,0.0095
3484.00,0.0096
3483.00,0.0096
3482.00,0.0097
3481.00,0.0098
3480.00,0.0098
3479.00,0.0099
3478.00,0.0099
3477.00,0.0100
3476.00,0.0101
3475.00,0.0101
3474.00,0.0102
3473.00,0.0102
3472.00,0.0103
3471.00,0.0103
3470.00,0.0104
3469.00,0.0104
3468.00,0.0105
3467.00,0.0106
3466.00,0.0106
3465.00,0.0107
3464.00,0.0107
3463.00,0.0108
3462.00,0.0108
3461.00,0.0109
3460.00,0.0109
3459.00,0.0110
3458.00,0.0110
3457.00,0.0110
3456.00,0.0111
3455.00,0.0111
3454.00,0.0112
3453.00,0.0112
3452.00,0.0113
3451.00,0.0113
3450.00,0.0114
3449.00,0.0115
3448.00,0.0116
3447.00,0.0117
3446.00,0.0117
3445.00,0.0118
3444.00,0.0119
3443.00,0.0119
3442.00,0.0120
3441.00,0.0120
3440.00,0.0121
3439.00,0.0121
3438.00,0.0122
3437.00,0.0123
3436.00,0.0123
3435.00,0.0124
3434.00,0.0125
3433.00,0.0125
3432.00,0.0126
3431.00,0.0127
3430.00,0.0127
3429.00,0.0127
3428.00,0.0128
3427.00,0.0129
3426.00,0.0129
3425.00,0.0130
3424.00,0.0131
3423.00,0.0131
3422.00,0.0132
3421.00,0.0132
3420.00,0.0133
3419.00,0.0134
3418.00,0.0134
3417.00,0.0135
3416.00,0.0135
3415.00,0.0136
3414.00,0.0137
3413.00,0.0137
3412.00,0.0138
3411.00,0.0139
3410.00,0.0139
3409.00,0.0140
3408.00,0.0141
3407.00,0.0141
3406.00,0.0142
3405.00,0.0142
3404.00,0.0143
3403.00,0.0143
3402.00,0.0144
3401.00,0.0144
3400.00,0.0145
3399.00,0.0146
3398.00,0.0146
3397.00,0.0147
3396.00,0.0147
3395.00,0.0148
3394.00,0.0149
3393.00,0.0150
3392.00,0.0150
3391.00,0.0151
3390.00,0.0152
3389.00,0.0153
3388.00,0.0153
3387.00,0.0153
3386.00,0.0154
3385.00,0.0154
3384.00,0.0155
3383.00,0.0156
3382.00,0.0156
3381.00,0.0157
3380.00,0.0157
3379.00,0.0158
3378.00,0.0159
3377.00,0.0160
3376.00,0.0161
3375.00,0.0162
3374.00,0.0163
3373.00,0.0163
3372.00,0.0164
3371.00,0.0165
3370.00,0.0166
3369.00,0.0167
3368.00,0.0167
3367.00,0.0168
3366.00,0.0169
3365.00,0.0170
3364.00,0.0171
3363.00,0.0172
3362.00,0.0173
3361.00,0.0174
3360.00,0.0174
3359.00,0.0175
3358.00,0.0176
3357.00,0.0177
3356.00,0.0178
3355.00,0.0179
3354.00,0.0180
3353.00,0.0181
3352.00,0.0182
3351.00,0.0183
3350.00,0.0184
3349.00,0.0185
3348.00,0.0186
3347.00,0.0187
3346.00,0.0188
3345.00,0.0189
3344.00,0.0190
3343.00,0.0191
3342.00,0.0192
3341.00,0.0194
3340.00,0.0195
3339.00,0.0196
3338.00,0.0197
3337.00,0.0199
3336.00,0.0200
3335.00,0.0201
3334.00,0.0202
3333.00,0.0203
3332.00,0.0204
3331.00,0.0206
3330.00,0.0207
3329.00,0.0209
3328.00,0.0211
3327.00,0.0212
3326.00,0.0213
3325.00,0.0215
3324.00,0.0216
3323.00,0.0217
3322.00,0.0219
3321.00,0.0221
3320.00,0.0222
3319.00,0.0224
3318.00,0.0225
3317.00,0.0227
3316.00,0.0229
3315.00,0.0231
3314.00,0.0232
3313.00,0.0234
3312.00,0.0236
3311.00,0.0238
3310.00,0.0239
3309.00,0.0241
3308.00,0.0243
3307.00,0.0245
3306.00,0.0247
3305.00,0.0249
3304.00,0.0251
3303.00,0.0253
3302.00,0.0255
3301.00,0.0257
3300.00,0.0259
3299.00,0.0260
3298.00,0.0262
3297.00,0.0264
3296.00,0.0266
3295.00,0.0268
3294.00,0.0270
3293.00,0.0272
3292.00,0.0274
3291.00,0.0276
3290.00,0.0277
3289.00,0.0279
3288.00,0.0280
3287.00,0.0282
3286.00,0.0283
3285.00,0.0285
3284.00,0.0286
3283.00,0.0288
3282.00,0.0289
3281.00,0.0290
3280.00,0.0291
3279.00,0.0292
3278.00,0.0293
3277.00,0.0294
3276.00,0.0294
3275.00,0.0295
3274.00,0.0295
3273.00,0.0295
3272.00,0.0294
3271.00,0.0294
3270.00,0.0294
3269.00,0.0294
3268.00,0.0294
3267.00,0.0293
3266.00,0.0292
3265.00,0.0291
3264.00,0.0290
3263.00,0.0288
3262.00,0.0287
3261.00,0.0285
3260.00,0.0284
3259.00,0.0282
3258.00,0.0280
3257.00,0.0279
3256.00,0.0277
3255.00,0.0275
3254.00,0.0273
3253.00,0.0272
3252.00,0.0270
3251.00,0.0268
3250.00,0.0266
3249.00,0.0264
3248.00,0.0262
3247.00,0.0260
3246.00,0.0258
3245.00,0.0256
3244.00,0.0255
3243.00,0.0253
3242.00,0.0251
3241.00,0.0250
3240.00,0.0248
3239.00,0.0247
3238.00,0.0245
3237.00,0.0243
3236.00,0.0242
3235.00,0.0240
3234.00,0.0238
3233.00,0.0237
3232.00,0.0235
3231.00,0.0234
3230.00,0.0233
3229.00,0.0232
3228.00,0.0230
3227.00,0.0229
3226.00,0.0227
3225.00,0.0226
3224.00,0.0225
3223.00,0.0223
3222.00,0.0222
3221.00,0.0221
3220.00,0.0219
3219.00,0.0218
3218.00,0.0217
3217.00,0.0216
3216.00,0.0215
3215.00,0.0214
3214.00,0.0213
3213.00,0.0212
3212.00,0.0210
3211.00,0.0209
3210.00,0.0208
3209.00,0.0207
3208.00,0.0206
3207.00,0.0205
3206.00,0.0204
3205.00,0.0203
3204.00,0.0202
3203.00,0.0201
3202.00,0.0200
3201.00,0.0199
3200.00,0.0198
3199.00,0.0197
3198.00,0.0195
3197.00,0.0194
3196.00,0.0193
3195.00,0.0192
3194.00,0.0191
3193.00,0.0190
3192.00,0.0189
3191.00,0.0188
3190.00,0.0187
3189.00,0.0186
3188.00,0.0185
3187.00,0.0184
3186.00,0.0183
3185.00,0.0182
3184.00,0.0181
3183.00,0.0180
3182.00,0.0179
3181.00,0.0178
3180.00,0.0177
3179.00,0.0176
3178.00,0.0175
3177.00,0.0175
3176.00,0.0174
3175.00,0.0173
3174.00,0.0172
3173.00,0.0171
3172.00,0.0170
3171.00,0.0169
3170.00,0.0168
3169.00,0.0167
3168.00,0.0166
3167.00,0.0165
3166.00,0.0164
3165.00,0.0163
3164.00,0.0163
3163.00,0.0162
3162.00,0.0161
3161.00,0.0160
3160.00,0.0160
3159.00,0.0159
3158.00,0.0158
3157.00,0.0157
3156.00,0.0157
3155.00,0.0156
3154.00,0.0155
3153.00,0.0155
3152.00,0.0154
3151.00,0.0153
3150.00,0.0152
3149.00,0.0152
3148.00,0.0151
3147.00,0.0150
3146.00,0.0150
3145.00,0.0149
3144.00,0.0149
3143.00,0.0148
3142.00,0.0148
3141.00,0.0147
3140.00,0.0147
3139.00,0.0146
3138.00,0.0146
3137.00,0.0145
3136.00,0.0144
3135.00,0.0144
3134.00,0.0144
3133.00,0.0143
3132.00,0.0143
3131.00,0.0143
3130.00,0.0142
3129.00,0.0142
3128.00,0.0142
3127.00,0.0142
3126.00,0.0141
3125.00,0.0141
3124.00,0.0141
3123.00,0.0140
3122.00,0.0140
3121.00,0.0139
3120.00,0.0139
3119.00,0.0139
3118.00,0.0139
3117.00,0.0139
3116.00,0.0139
3115.00,0.0140
3114.00,0.0140
3113.00,0.0140
3112.00,0.0140
3111.00,0.0140
3110.00,0.0140
3109.00,0.0140
3108.00,0.0141
3107.00,0.0141
3106.00,0.0141
3105.00,0.0141
3104.00,0.0142
3103.00,0.0142
3102.00,0.0142
3101.00,0.0142
3100.00,0.0143
3099.00,0.0143
3098.00,0.0143
3097.00,0.0144
3096.00,0.0144
3095.00,0.0145
3094.00,0.0145
3093.00,0.0145
3092.00,0.0145
3091.00,0.0145
3090.00,0.0146
3089.00,0.0146
3088.00,0.0146
3087.00,0.0146
3086.00,0.0146
3085.00,0.0146
3084.00,0.0146
3083.00,0.0147
3082.00,0.0147
3081.00,0.0147
3080.00,0.0147
3079.00,0.0147
3078.00,0.0147
3077.00,0.0147
3076.00,0.0147
3075.00,0.0147
3074.00,0.0147
3073.00,0.0147
3072.00,0.0147
3071.00,0.0147
3070.00,0.0146
3069.00,0.0146
3068.00,0.0145
3067.00,0.0145
3066.00,0.0144
3065.00,0.0144
3064.00,0.0143
3063.00,0.0143
3062.00,0.0142
3061.00,0.0142
3060.00,0.0141
3059.00,0.0141
3058.00,0.0140
3057.00,0.0139
3056.00,0.0138
3055.00,0.0137
3054.00,0.0137
3053.00,0.0136
3052.00,0.0135
3051.00,0.0134
3050.00,0.0134
3049.00,0.0133
3048.00,0.0132
3047.00,0.0131
3046.00,0.0130
3045.00,0.0130
3044.00,0.0129
3043.00,0.0128
3042.00,0.0127
3041.00,0.0126
3040.00,0.0126
3039.00,0.0125
3038.00,0.0125
3037.00,0.0124
3036.00,0.0124
3035.00,0.0123
3034.00,0.0122
3033.00,0.0122
3032.00,0.0122
3031.00,0.0121
3030.00,0.0120
3029.00,0.0120
3028.00,0.0119
3027.00,0.0119
3026.00,0.0118
3025.00,0.0117
3024.00,0.0116
3023.00,0.0116
3022.00,0.0115
3021.00,0.0114
3020.00,0.0113
3019.00,0.0113
3018.00,0.0113
3017.00,0.0112
3016.00,0.0111
3015.00,0.0111
3014.00,0.0110
3013.00,0.0109
3012.00,0.0109
3011.00,0.0108
3010.00,0.0108
3009.00,0.0108
3008.00,0.0108
3007.00,0.0108
3006.00,0.0108
3005.00,0.0108
3004.00,0.0107
3003.00,0.0107
3002.00,0.0107
3001.00,0.0107
3000.00,0.0107
2999.00,0.0107
2998.00,0.0108
2997.00,0.0108
2996.00,0.0109
2995.00,0.0109
2994.00,0.0110
2993.00,0.0111
2992.00,0.0112
2991.00,0.0113
2990.00,0.0114
2989.00,0.0115
2988.00,0.0116
2987.00,0.0117
2986.00,0.0119
2985.00,0.0120
2984.00,0.0121
2983.00,0.0122
2982.00,0.0124
2981.00,0.0126
2980.00,0.0128
2979.00,0.0130
2978.00,0.0132
2977.00,0.0134
2976.00,0.0136
2975.00,0.0138
2974.00,0.0140
2973.00,0.0143
2972.00,0.0144
2971.00,0.0146
2970.00,0.0148
2969.00,0.0150
2968.00,0.0152
2967.00,0.0153
2966.00,0.0155
2965.00,0.0156
2964.00,0.0158
2963.00,0.0158
2962.00,0.0159
2961.00,0.0159
2960.00,0.0159
2959.00,0.0159
2958.00,0.0158
2957.00,0.0157
2956.00,0.0156
2955.00,0.0154
2954.00,0.0153
2953.00,0.0152
2952.00,0.0151
2951.00,0.0149
2950.00,0.0148
2949.00,0.0148
2948.00,0.0147
2947.00,0.0147
2946.00,0.0148
2945.00,0.0148
2944.00,0.0149
2943.00,0.0150
2942.00,0.0151
2941.00,0.0153
2940.00,0.0154
2939.00,0.0156
2938.00,0.0157
2937.00,0.0159
2936.00,0.0160
2935.00,0.0161
2934.00,0.0163
2933.00,0.0164
2932.00,0.0165
2931.00,0.0165
2930.00,0.0166
2929.00,0.0166
2928.00,0.0166
2927.00,0.0166
2926.00,0.0166
2925.00,0.0165
2924.00,0.0165
2923.00,0.0164
2922.00,0.0163
2921.00,0.0162
2920.00,0.0161
2919.00,0.0159
2918.00,0.0157
2917.00,0.0155
2916.00,0.0153
2915.00,0.0150
2914.00,0.0148
2913.00,0.0145
2912.00,0.0143
2911.00,0.0141
2910.00,0.0139
2909.00,0.0136
2908.00,0.0135
2907.00,0.0133
2906.00,0.0131
2905.00,0.0130
2904.00,0.0128
2903.00,0.0127
2902.00,0.0126
2901.00,0.0125
2900.00,0.0124
2899.00,0.0123
2898.00,0.0122
2897.00,0.0121
2896.00,0.0120
2895.00,0.0119
2894.00,0.0118
2893.00,0.0118
2892.00,0.0117
2891.00,0.0117
2890.00,0.0117
2889.00,0.0116
2888.00,0.0116
2887.00,0.0116
2886.00,0.0116
2885.00,0.0117
2884.00,0.0117
2883.00,0.0117
2882.00,0.0118
2881.00,0.0119
2880.00,0.0120
2879.00,0.0120
2878.00,0.0121
2877.00,0.0122
2876.00,0.0122
2875.00,0.0122
2874.00,0.0122
2873.00,0.0122
2872.00,0.0121
2871.00,0.0120
2870.00,0.0119
2869.00,0.0118
2868.00,0.0116
2867.00,0.0115
2866.00,0.0114
2865.00,0.0113
2864.00,0.0112
2863.00,0.0111
2862.00,0.0110
2861.00,0.0109
2860.00,0.0109
2859.00,0.0109
2858.00,0.0109
2857.00,0.0108
2856.00,0.0108
2855.00,0.0108
2854.00,0.0108
2853.00,0.0108
2852.00,0.0107
2851.00,0.0106
2850.00,0.0105
2849.00,0.0103
2848.00,0.0101
2847.00,0.0099
2846.00,0.0096
2845.00,0.0094
2844.00,0.0092
2843.00,0.0090
2842.00,0.0089
2841.00,0.0087
2840.00,0.0086
2839.00,0.0085
2838.00,0.0084
2837.00,0.0083
2836.00,0.0083
2835.00,0.0082
2834.00,0.0082
2833.00,0.0081
2832.00,0.0081
2831.00,0.0080
2830.00,0.0080
2829.00,0.0079
2828.00,0.0079
2827.00,0.0079
2826.00,0.0078
2825.00,0.0078
2824.00,0.0078
2823.00,0.0078
2822.00,0.0077
2821.00,0.0077
2820.00,0.0077
2819.00,0.0076
2818.00,0.0076
2817.00,0.0076
2816.00,0.0076
2815.00,0.0075
2814.00,0.0075
2813.00,0.0075
2812.00,0.0075
2811.00,0.0075
2810.00,0.0074
2809.00,0.0074
2808.00,0.0074
2807.00,0.0074
2806.00,0.0073
2805.00,0.0073
2804.00,0.0073
2803.00,0.0073
2802.00,0.0072
2801.00,0.0072
2800.00,0.0071
2799.00,0.0071
2798.00,0.0071
2797.00,0.0071
2796.00,0.0070
2795.00,0.0070
2794.00,0.0070
2793.00,0.0070
2792.00,0.0070
2791.00,0.0069
2790.00,0.0069
2789.00,0.0069
2788.00,0.0069
2787.00,0.0068
2786.00,0.0068
2785.00,0.0068
2784.00,0.0068
2783.00,0.0067
2782.00,0.0067
2781.00,0.0067
2780.00,0.0067
2779.00,0.0067
2778.00,0.0066
2777.00,0.0066
2776.00,0.0066
2775.00,0.0065
2774.00,0.0065
2773.00,0.0065
2772.00,0.0065
2771.00,0.0064
2770.00,0.0064
2769.00,0.0064
2768.00,0.0063
2767.00,0.0063
2766.00,0.0063
2765.00,0.0063
2764.00,0.0063
2763.00,0.0063
2762.00,0.0062
2761.00,0.0062
2760.00,0.0062
2759.00,0.0062
2758.00,0.0061
2757.00,0.0061
2756.00,0.0061
2755.00,0.0061
2754.00,0.0061
2753.00,0.0061
2752.00,0.0060
2751.00,0.0060
2750.00,0.0060
2749.00,0.0059
2748.00,0.0059
2747.00,0.0059
2746.00,0.0058
2745.00,0.0058
2744.00,0.0058
2743.00,0.0058
2742.00,0.0058
2741.00,0.0058
2740.00,0.0057
2739.00,0.0057
2738.00,0.0057
2737.00,0.0056
2736.00,0.0056
2735.00,0.0056
2734.00,0.0056
2733.00,0.0056
2732.00,0.0055
2731.00,0.0055
2730.00,0.0055
2729.00,0.0055
2728.00,0.0055
2727.00,0.0054
2726.00,0.0054
2725.00,0.0054
2724.00,0.0054
2723.00,0.0053
2722.00,0.0053
2721.00,0.0053
2720.00,0.0053
2719.00,0.0052
2718.00,0.0052
2717.00,0.0052
2716.00,0.0051
2715.00,0.0051
2714.00,0.0051
2713.00,0.0051
2712.00,0.0051
2711.00,0.0051
2710.00,0.0051
2709.00,0.0051
2708.00,0.0050
2707.00,0.0050
2706.00,0.0050
2705.00,0.0050
2704.00,0.0049
2703.00,0.0050
2702.00,0.0050
2701.00,0.0050
2700.00,0.0050
2699.00,0.0049
2698.00,0.0049
2697.00,0.0049
2696.00,0.0049
2695.00,0.0049
2694.00,0.0049
2693.00,0.0049
2692.00,0.0048
2691.00,0.0048
2690.00,0.0048
2689.00,0.0048
2688.00,0.0048
2687.00,0.0048
2686.00,0.0048
2685.00,0.0048
2684.00,0.0048
2683.00,0.0048
2682.00,0.0047
2681.00,0.0047
2680.00,0.0047
2679.00,0.0047
2678.00,0.0047
2677.00,0.0047
2676.00,0.0047
2675.00,0.0047
2674.00,0.0047
2673.00,0.0047
2672.00,0.0047
2671.00,0.0047
2670.00,0.0047
2669.00,0.0047
2668.00,0.0047
2667.00,0.0047
2666.00,0.0047
2665.00,0.0048
2664.00,0.0048
2663.00,0.0049
2662.00,0.0049
2661.00,0.0049
2660.00,0.0050
2659.00,0.0050
2658.00,0.0050
2657.00,0.0050
2656.00,0.0050
2655.00,0.0050
2654.00,0.0050
2653.00,0.0050
2652.00,0.0050
2651.00,0.0050
2650.00,0.0050
2649.00,0.0050
2648.00,0.0050
2647.00,0.0050
2646.00,0.0050
2645.00,0.0050
2644.00,0.0049
2643.00,0.0049
2642.00,0.0049
2641.00,0.0049
2640.00,0.0049
2639.00,0.0048
2638.00,0.0048
2637.00,0.0048
2636.00,0.0048
2635.00,0.0048
2634.00,0.0048
2633.00,0.0048
2632.00,0.0048
2631.00,0.0048
2630.00,0.0048
2629.00,0.0047
2628.00,0.0047
2627.00,0.0047
2626.00,0.0047
2625.00,0.0047
2624.00,0.0047
2623.00,0.0046
2622.00,0.0046
2621.00,0.0046
2620.00,0.0046
2619.00,0.0046
2618.00,0.0046
2617.00,0.0046
2616.00,0.0045
2615.00,0.0045
2614.00,0.0045
2613.00,0.0045
2612.00,0.0044
2611.00,0.0044
2610.00,0.0044
2609.00,0.0044
2608.00,0.0044
2607.00,0.0043
2606.00,0.0043
2605.00,0.0043
2604.00,0.0043
2603.00,0.0042
2602.00,0.0042
2601.00,0.0042
2600.00,0.0042
2599.00,0.0042
2598.00,0.0041
2597.00,0.0041
2596.00,0.0040
2595.00,0.0040
2594.00,0.0040
2593.00,0.0040
2592.00,0.0040
2591.00,0.0041
2590.00,0.0041
2589.00,0.0041
2588.00,0.0040
2587.00,0.0040
2586.00,0.0040
2585.00,0.0039
2584.00,0.0039
2583.00,0.0039
2582.00,0.0039
2581.00,0.0039
2580.00,0.0039
2579.00,0.0039
2578.00,0.0038
2577.00,0.0038
2576.00,0.0038
2575.00,0.0038
2574.00,0.0038
2573.00,0.0037
2572.00,0.0037
2571.00,0.0037
2570.00,0.0037
2569.00,0.0037
2568.00,0.0037
2567.00,0.0037
2566.00,0.0037
2565.00,0.0037
2564.00,0.0037
2563.00,0.0037
2562.00,0.0037
2561.00,0.0036
2560.00,0.0036
2559.00,0.0036
2558.00,0.0036
2557.00,0.0036
2556.00,0.0036
2555.00,0.0035
2554.00,0.0035
2553.00,0.0035
2552.00,0.0035
2551.00,0.0035
2550.00,0.0035
2549.00,0.0035
2548.00,0.0034
2547.00,0.0034
2546.00,0.0034
2545.00,0.0033
2544.00,0.0033
2543.00,0.0034
2542.00,0.0034
2541.00,0.0034
2540.00,0.0034
2539.00,0.0034
2538.00,0.0034
2537.00,0.0034
2536.00,0.0034
2535.00,0.0033
2534.00,0.0033
2533.00,0.0033
2532.00,0.0033
2531.00,0.0033
2530.00,0.0033
2529.00,0.0032
2528.00,0.0032
2527.00,0.0032
2526.00,0.0032
2525.00,0.0032
2524.00,0.0032
2523.00,0.0032
2522.00,0.0032
2521.00,0.0031
2520.00,0.0031
2519.00,0.0031
2518.00,0.0031
2517.00,0.0031
2516.00,0.0031
2515.00,0.0031
2514.00,0.0030
2513.00,0.0030
2512.00,0.0030
2511.00,0.0031
2510.00,0.0031
2509.00,0.0031
2508.00,0.0031
2507.00,0.0031
2506.00,0.0031
2505.00,0.0031
2504.00,0.0031
2503.00,0.0030
2502.00,0.0029
2501.00,0.0029
2500.00,0.0029
2499.00,0.0029
2498.00,0.0029
2497.00,0.0029
2496.00,0.0030
2495.00,0.0030
2494.00,0.0030
2493.00,0.0030
2492.00,0.0030
2491.00,0.0030
2490.00,0.0030
2489.00,0.0030
2488.00,0.0030
2487.00,0.0030
2486.00,0.0029
2485.00,0.0029
2484.00,0.0029
2483.00,0.0029
2482.00,0.0029
2481.00,0.0029
2480.00,0.0029
2479.00,0.0028
2478.00,0.0028
2477.00,0.0028
2476.00,0.0028
2475.00,0.0028
2474.00,0.0028
2473.00,0.0028
2472.00,0.0028
2471.00,0.0028
2470.00,0.0028
2469.00,0.0028
2468.00,0.0028
2467.00,0.0028
2466.00,0.0028
2465.00,0.0028
2464.00,0.0027
2463.00,0.0028
2462.00,0.0028
2461.00,0.0028
2460.00,0.0029
2459.00,0.0029
2458.00,0.0029
2457.00,0.0028
2456.00,0.0028
2455.00,0.0027
2454.00,0.0027
2453.00,0.0027
2452.00,0.0027
2451.00,0.0027
2450.00,0.0027
2449.00,0.0027
2448.00,0.0027
2447.00,0.0027
2446.00,0.0026
2445.00,0.0026
2444.00,0.0026
2443.00,0.0025
2442.00,0.0025
2441.00,0.0025
2440.00,0.0025
2439.00,0.0025
2438.00,0.0025
2437.00,0.0025
2436.00,0.0025
2435.00,0.0025
2434.00,0.0025
2433.00,0.0024
2432.00,0.0024
2431.00,0.0024
2430.00,0.0023
2429.00,0.0023
2428.00,0.0023
2427.00,0.0023
2426.00,0.0023
2425.00,0.0022
2424.00,0.0022
2423.00,0.0022
2422.00,0.0022
2421.00,0.0022
2420.00,0.0022
2419.00,0.0022
2418.00,0.0021
2417.00,0.0021
2416.00,0.0021
2415.00,0.0021
2414.00,0.0021
2413.00,0.0021
2412.00,0.0021
2411.00,0.0021
2410.00,0.0021
2409.00,0.0021
2408.00,0.0020
2407.00,0.0020
2406.00,0.0019
2405.00,0.0019
2404.00,0.0018
2403.00,0.0018
2402.00,0.0018
2401.00,0.0018
2400.00,0.0018
2399.00,0.0018
2398.00,0.0018
2397.00,0.0018
2396.00,0.0018
2395.00,0.0018
2394.00,0.0018
2393.00,0.0019
2392.00,0.0019
2391.00,0.0018
2390.00,0.0018
2389.00,0.0017
2388.00,0.0017
2387.00,0.0016
2386.00,0.0016
2385.00,0.0016
2384.00,0.0015
2383.00,0.0015
2382.00,0.0015
2381.00,0.0014
2380.00,0.0014
2379.00,0.0014
2378.00,0.0014
2377.00,0.0014
2376.00,0.0015
2375.00,0.0015
2374.00,0.0015
2373.00,0.0014
2372.00,0.0014
2371.00,0.0014
2370.00,0.0013
2369.00,0.0013
2368.00,0.0012
2367.00,0.0012
2366.00,0.0013
2365.00,0.0013
2364.00,0.0014
2363.00,0.0015
2362.00,0.0015
2361.00,0.0015
2360.00,0.0015
2359.00,0.0015
2358.00,0.0015
2357.00,0.0014
2356.00,0.0015
2355.00,0.0015
2354.00,0.0015
2353.00,0.0015
2352.00,0.0015
2351.00,0.0015
2350.00,0.0015
2349.00,0.0016
2348.00,0.0017
2347.00,0.0017
2346.00,0.0017
2345.00,0.0017
2344.00,0.0017
2343.00,0.0017
2342.00,0.0017
2341.00,0.0017
2340.00,0.0018
2339.00,0.0018
2338.00,0.0019
2337.00,0.0019
2336.00,0.0019
2335.00,0.0019
2334.00,0.0019
2333.00,0.0019
2332.00,0.0018
2331.00,0.0018
2330.00,0.0019
2329.00,0.0020
2328.00,0.0024
2327.00,0.0027
2326.00,0.0031
2325.00,0.0032
2324.00,0.0032
2323.00,0.0030
2322.00,0.0028
2321.00,0.0026
2320.00,0.0025
2319.00,0.0024
2318.00,0.0023
2317.00,0.0023
2316.00,0.0023
2315.00,0.0022
2314.00,0.0022
2313.00,0.0022
2312.00,0.0021
2311.00,0.0021
2310.00,0.0020
2309.00,0.0019
2308.00,0.0019
2307.00,0.0019
2306.00,0.0020
2305.00,0.0020
2304.00,0.0020
2303.00,0.0020
2302.00,0.0020
2301.00,0.0020
2300.00,0.0020
2299.00,0.0021
2298.00,0.0021
2297.00,0.0022
2296.00,0.0023
2295.00,0.0024
2294.00,0.0025
2293.00,0.0025
2292.00,0.0026
2291.00,0.0027
2290.00,0.0027
2289.00,0.0028
2288.00,0.0028
2287.00,0.0028
2286.00,0.0028
2285.00,0.0027
2284.00,0.0027
2283.00,0.0026
2282.00,0.0026
2281.00,0.0025
2280.00,0.0025
2279.00,0.0025
2278.00,0.0024
2277.00,0.0024
2276.00,0.0023
2275.00,0.0023
2274.00,0.0022
2273.00,0.0021
2272.00,0.0021
2271.00,0.0020
2270.00,0.0020
2269.00,0.0019
2268.00,0.0019
2267.00,0.0019
2266.00,0.0019
2265.00,0.0020
2264.00,0.0020
2263.00,0.0020
2262.00,0.0020
2261.00,0.0021
2260.00,0.0021
2259.00,0.0021
2258.00,0.0020
2257.00,0.0020
2256.00,0.0019
2255.00,0.0018
2254.00,0.0017
2253.00,0.0018
2252.00,0.0019
2251.00,0.0020
2250.00,0.0020
2249.00,0.0021
2248.00,0.0020
2247.00,0.0020
2246.00,0.0019
2245.00,0.0018
2244.00,0.0018
2243.00,0.0018
2242.00,0.0017
2241.00,0.0017
2240.00,0.0017
2239.00,0.0018
2238.00,0.0018
2237.00,0.0018
2236.00,0.0018
2235.00,0.0018
2234.00,0.0018
2233.00,0.0017
2232.00,0.0017
2231.00,0.0016
2230.00,0.0016
2229.00,0.0016
2228.00,0.0016
2227.00,0.0016
2226.00,0.0017
2225.00,0.0017
2224.00,0.0017
2223.00,0.0017
2222.00,0.0017
2221.00,0.0017
2220.00,0.0017
2219.00,0.0017
2218.00,0.0017
2217.00,0.0018
2216.00,0.0019
2215.00,0.0019
2214.00,0.0018
2213.00,0.0017
2212.00,0.0017
2211.00,0.0017
2210.00,0.0016
2209.00,0.0016
2208.00,0.0015
2207.00,0.0016
2206.00,0.0016
2205.00,0.0017
2204.00,0.0018
2203.00,0.0018
2202.00,0.0017
2201.00,0.0017
2200.00,0.0017
2199.00,0.0018
2198.00,0.0019
2197.00,0.0020
2196.00,0.0020
2195.00,0.0020
2194.00,0.0020
2193.00,0.0019
2192.00,0.0020
2191.00,0.0020
2190.00,0.0020
2189.00,0.0020
2188.00,0.0020
2187.00,0.0021
2186.00,0.0022
2185.00,0.0021
2184.00,0.0019
2183.00,0.0016
2182.00,0.0013
2181.00,0.0012
2180.00,0.0012
2179.00,0.0012
2178.00,0.0012
2177.00,0.0011
2176.00,0.0011
2175.00,0.0013
2174.00,0.0015
2173.00,0.0018
2172.00,0.0020
2171.00,0.0022
2170.00,0.0024
2169.00,0.0024
2168.00,0.0025
2167.00,0.0025
2166.00,0.0025
2165.00,0.0026
2164.00,0.0026
2163.00,0.0026
2162.00,0.0021
2161.00,0.0012
2160.00,0.0000
2159.00,-0.0011
2158.00,-0.0017
2157.00,-0.0018
2156.00,-0.0016
2155.00,-0.0013
2154.00,-0.0010
2153.00,-0.0008
2152.00,-0.0005
2151.00,-0.0003
2150.00,-0.0002
2149.00,-0.0001
2148.00,-0.0001
2147.00,-0.0001
2146.00,-0.0001
2145.00,-0.0001
2144.00,0.0000
2143.00,0.0001
2142.00,0.0001
2141.00,0.0000
2140.00,-0.0000
2139.00,-0.0001
2138.00,-0.0002
2137.00,-0.0003
2136.00,-0.0005
2135.00,-0.0006
2134.00,-0.0006
2133.00,-0.0005
2132.00,-0.0003
2131.00,-0.0000
2130.00,0.0001
2129.00,0.0003
2128.00,0.0004
2127.00,0.0004
2126.00,0.0005
2125.00,0.0007
2124.00,0.0008
2123.00,0.0009
2122.00,0.0010
2121.00,0.0011
2120.00,0.0013
2119.00,0.0014
2118.00,0.0015
2117.00,0.0016
2116.00,0.0017
2115.00,0.0017
2114.00,0.0017
2113.00,0.0016
2112.00,0.0015
2111.00,0.0015
2110.00,0.0014
2109.00,0.0014
2108.00,0.0014
2107.00,0.0014
2106.00,0.0015
2105.00,0.0015
2104.00,0.0016
2103.00,0.0016
2102.00,0.0016
2101.00,0.0017
2100.00,0.0017
2099.00,0.0016
2098.00,0.0015
2097.00,0.0014
2096.00,0.0012
2095.00,0.0012
2094.00,0.0011
2093.00,0.0012
2092.00,0.0013
2091.00,0.0013
2090.00,0.0014
2089.00,0.0014
2088.00,0.0015
2087.00,0.0015
2086.00,0.0016
2085.00,0.0016
2084.00,0.0016
2083.00,0.0017
2082.00,0.0017
2081.00,0.0018
2080.00,0.0018
2079.00,0.0018
2078.00,0.0017
2077.00,0.0017
2076.00,0.0017
2075.00,0.0016
2074.00,0.0016
2073.00,0.0015
2072.00,0.0015
2071.00,0.0016
2070.00,0.0016
2069.00,0.0017
2068.00,0.0017
2067.00,0.0016
2066.00,0.0015
2065.00,0.0013
2064.00,0.0013
2063.00,0.0012
2062.00,0.0012
2061.00,0.0013
2060.00,0.0014
2059.00,0.0014
2058.00,0.0015
2057.00,0.0015
2056.00,0.0015
2055.00,0.0016
2054.00,0.0019
2053.00,0.0025
2052.00,0.0029
2051.00,0.0029
2050.00,0.0026
2049.00,0.0021
2048.00,0.0017
2047.00,0.0016
2046.00,0.0015
2045.00,0.0015
2044.00,0.0015
2043.00,0.0015
2042.00,0.0016
2041.00,0.0016
2040.00,0.0017
2039.00,0.0019
2038.00,0.0019
2037.00,0.0019
2036.00,0.0018
2035.00,0.0016
2034.00,0.0013
2033.00,0.0010
2032.00,0.0008
2031.00,0.0007
2030.00,0.0006
2029.00,0.0007
2028.00,0.0007
2027.00,0.0007
2026.00,0.0007
2025.00,0.0008
2024.00,0.0009
2023.00,0.0009
2022.00,0.0008
2021.00,0.0006
2020.00,0.0005
2019.00,0.0005
2018.00,0.0005
2017.00,0.0006
2016.00,0.0006
2015.00,0.0007
2014.00,0.0008
2013.00,0.0010
2012.00,0.0012
2011.00,0.0012
2010.00,0.0010
2009.00,0.0007
2008.00,0.0003
2007.00,-0.0000
2006.00,-0.0002
2005.00,-0.0001
2004.00,0.0001
2003.00,0.0003
2002.00,0.0005
2001.00,0.0006
2000.00,0.0007
1999.00,0.0007
1998.00,0.0007
1997.00,0.0007
1996.00,0.0008
1995.00,0.0009
1994.00,0.0010
1993.00,0.0012
1992.00,0.0013
1991.00,0.0013
1990.00,0.0013
1989.00,0.0013
1988.00,0.0014
1987.00,0.0014
1986.00,0.0015
1985.00,0.0017
1984.00,0.0020
1983.00,0.0023
1982.00,0.0025
1981.00,0.0025
1980.00,0.0022
1979.00,0.0016
1978.00,0.0008
1977.00,0.0001
1976.00,-0.0001
1975.00,-0.0001
1974.00,0.0000
1973.00,0.0001
1972.00,0.0003
1971.00,0.0003
1970.00,0.0003
1969.00,0.0003
1968.00,0.0003
1967.00,0.0002
1966.00,0.0001
1965.00,0.0001
1964.00,0.0001
1963.00,0.0001
1962.00,0.0001
1961.00,0.0001
1960.00,0.0001
1959.00,0.0001
1958.00,0.0000
1957.00,0.0001
1956.00,0.0002
1955.00,0.0003
1954.00,0.0004
1953.00,0.0005
1952.00,0.0005
1951.00,0.0005
1950.00,0.0004
1949.00,0.0004
1948.00,0.0004
1947.00,0.0004
1946.00,0.0003
1945.00,0.0003
1944.00,0.0003
1943.00,0.0003
1942.00,0.0003
1941.00,0.0003
1940.00,0.0004
1939.00,0.0005
1938.00,0.0006
1937.00,0.0007
1936.00,0.0007
1935.00,0.0007
1934.00,0.0007
1933.00,0.0006
1932.00,0.0006
1931.00,0.0006
1930.00,0.0006
1929.00,0.0007
1928.00,0.0007
1927.00,0.0007
1926.00,0.0006
1925.00,0.0005
1924.00,0.0005
1923.00,0.0006
1922.00,0.0006
1921.00,0.0007
1920.00,0.0008
1919.00,0.0009
1918.00,0.0010
1917.00,0.0010
1916.00,0.0010
1915.00,0.0010
1914.00,0.0010
1913.00,0.0010
1912.00,0.0010
1911.00,0.0010
1910.00,0.0010
1909.00,0.0010
1908.00,0.0010
1907.00,0.0011
1906.00,0.0011
1905.00,0.0011
1904.00,0.0011
1903.00,0.0011
1902.00,0.0011
1901.00,0.0010
1900.00,0.0010
1899.00,0.0010
1898.00,0.0011
1897.00,0.0011
1896.00,0.0011
1895.00,0.0011
1894.00,0.0011
1893.00,0.0010
1892.00,0.0010
1891.00,0.0009
1890.00,0.0010
1889.00,0.0010
1888.00,0.0010
1887.00,0.0010
1886.00,0.0010
1885.00,0.0010
1884.00,0.0011
1883.00,0.0012
1882.00,0.0012
1881.00,0.0012
1880.00,0.0011
1879.00,0.0011
1878.00,0.0011
1877.00,0.0011
1876.00,0.0011
1875.00,0.0011
1874.00,0.0011
1873.00,0.0010
1872.00,0.0010
1871.00,0.0010
1870.00,0.0010
1869.00,0.0011
1868.00,0.0011
1867.00,0.0011
1866.00,0.0012
1865.00,0.0012
1864.00,0.0012
1863.00,0.0012
1862.00,0.0012
1861.00,0.0012
1860.00,0.0012
1859.00,0.0012
1858.00,0.0012
1857.00,0.0012
1856.00,0.0013
1855.00,0.0013
1854.00,0.0012
1853.00,0.0012
1852.00,0.0012
1851.00,0.0013
1850.00,0.0012
1849.00,0.0012
1848.00,0.0011
1847.00,0.0011
1846.00,0.0011
1845.00,0.0012
1844.00,0.0013
1843.00,0.0013
1842.00,0.0012
1841.00,0.0012
1840.00,0.0012
1839.00,0.0012
1838.00,0.0012
1837.00,0.0012
1836.00,0.0013
1835.00,0.0013
1834.00,0.0013
1833.00,0.0013
1832.00,0.0012
1831.00,0.0012
1830.00,0.0012
1829.00,0.0013
1828.00,0.0013
1827.00,0.0013
1826.00,0.0013
1825.00,0.0014
1824.00,0.0015
1823.00,0.0015
1822.00,0.0015
1821.00,0.0015
1820.00,0.0014
1819.00,0.0014
1818.00,0.0013
1817.00,0.0013
1816.00,0.0014
1815.00,0.0015
1814.00,0.0015
1813.00,0.0015
1812.00,0.0015
1811.00,0.0016
1810.00,0.0016
1809.00,0.0016
1808.00,0.0016
1807.00,0.0017
1806.00,0.0017
1805.00,0.0017
1804.00,0.0017
1803.00,0.0017
1802.00,0.0017
1801.00,0.0017
1800.00,0.0018
1799.00,0.0018
1798.00,0.0018
1797.00,0.0018
1796.00,0.0018
1795.00,0.0018
1794.00,0.0019
1793.00,0.0019
1792.00,0.0020
1791.00,0.0021
1790.00,0.0021
1789.00,0.0021
1788.00,0.0022
1787.00,0.0022
1786.00,0.0022
1785.00,0.0023
1784.00,0.0023
1783.00,0.0022
1782.00,0.0022
1781.00,0.0023
1780.00,0.0023
1779.00,0.0023
1778.00,0.0023
1777.00,0.0023
1776.00,0.0023
1775.00,0.0023
1774.00,0.0024
1773.00,0.0024
1772.00,0.0025
1771.00,0.0026
1770.00,0.0026
1769.00,0.0028
1768.00,0.0029
1767.00,0.0029
1766.00,0.0029
1765.00,0.0029
1764.00,0.0029
1763.00,0.0030
1762.00,0.0031
1761.00,0.0032
1760.00,0.0033
1759.00,0.0034
1758.00,0.0035
1757.00,0.0036
1756.00,0.0038
1755.00,0.0039
1754.00,0.0040
1753.00,0.0042
1752.00,0.0043
1751.00,0.0044
1750.00,0.0045
1749.00,0.0046
1748.00,0.0048
1747.00,0.0050
1746.00,0.0052
1745.00,0.0054
1744.00,0.0056
1743.00,0.0058
1742.00,0.0060
1741.00,0.0062
1740.00,0.0065
1739.00,0.0067
1738.00,0.0069
1737.00,0.0071
1736.00,0.0074
1735.00,0.0078
1734.00,0.0081
1733.00,0.0083
1732.00,0.0083
1731.00,0.0084
1730.00,0.0085
1729.00,0.0088
1728.00,0.0090
1727.00,0.0091
1726.00,0.0093
1725.00,0.0094
1724.00,0.0096
1723.00,0.0097
1722.00,0.0098
1721.00,0.0099
1720.00,0.0101
1719.00,0.0104
1718.00,0.0106
1717.00,0.0108
1716.00,0.0110
1715.00,0.0112
1714.00,0.0114
1713.00,0.0117
1712.00,0.0120
1711.00,0.0123
1710.00,0.0126
1709.00,0.0130
1708.00,0.0134
1707.00,0.0139
1706.00,0.0146
1705.00,0.0154
1704.00,0.0163
1703.00,0.0172
1702.00,0.0184
1701.00,0.0200
1700.00,0.0218
1699.00,0.0235
1698.00,0.0248
1697.00,0.0260
1696.00,0.0273
1695.00,0.0282
1694.00,0.0288
1693.00,0.0292
1692.00,0.0297
1691.00,0.0303
1690.00,0.0309
1689.00,0.0315
1688.00,0.0322
1687.00,0.0330
1686.00,0.0339
1685.00,0.0347
1684.00,0.0354
1683.00,0.0361
1682.00,0.0369
1681.00,0.0377
1680.00,0.0387
1679.00,0.0397
1678.00,0.0406
1677.00,0.0415
1676.00,0.0424
1675.00,0.0433
1674.00,0.0440
1673.00,0.0448
1672.00,0.0457
1671.00,0.0467
1670.00,0.0476
1669.00,0.0485
1668.00,0.0494
1667.00,0.0504
1666.00,0.0513
1665.00,0.0523
1664.00,0.0533
1663.00,0.0543
1662.00,0.0551
1661.00,0.0560
1660.00,0.0570
1659.00,0.0580
1658.00,0.0590
1657.00,0.0600
1656.00,0.0611
1655.00,0.0622
1654.00,0.0629
1653.00,0.0630
1652.00,0.0630
1651.00,0.0633
1650.00,0.0638
1649.00,0.0645
1648.00,0.0651
1647.00,0.0655
1646.00,0.0656
1645.00,0.0658
1644.00,0.0662
1643.00,0.0668
1642.00,0.0674
1641.00,0.0679
1640.00,0.0685
1639.00,0.0691
1638.00,0.0698
1637.00,0.0705
1636.00,0.0711
1635.00,0.0716
1634.00,0.0724
1633.00,0.0734
1632.00,0.0747
1631.00,0.0761
1630.00,0.0773
1629.00,0.0786
1628.00,0.0798
1627.00,0.0810
1626.00,0.0821
1625.00,0.0832
1624.00,0.0840
1623.00,0.0846
1622.00,0.0849
1621.00,0.0851
1620.00,0.0854
1619.00,0.0855
1618.00,0.0849
1617.00,0.0834
1616.00,0.0813
1615.00,0.0793
1614.00,0.0776
1613.00,0.0760
1612.00,0.0741
1611.00,0.0719
1610.00,0.0695
1609.00,0.0670
1608.00,0.0645
1607.00,0.0621
1606.00,0.0599
1605.00,0.0577
1604.00,0.0557
1603.00,0.0537
1602.00,0.0519
1601.00,0.0503
1600.00,0.0488
1599.00,0.0474
1598.00,0.0462
1597.00,0.0450
1596.00,0.0439
1595.00,0.0429
1594.00,0.0420
1593.00,0.0412
1592.00,0.0405
1591.00,0.0398
1590.00,0.0392
1589.00,0.0386
1588.00,0.0382
1587.00,0.0378
1586.00,0.0375
1585.00,0.0374
1584.00,0.0372
1583.00,0.0371
1582.00,0.0371
1581.00,0.0372
1580.00,0.0373
1579.00,0.0376
1578.00,0.0380
1577.00,0.0384
1576.00,0.0387
1575.00,0.0390
1574.00,0.0393
1573.00,0.0398
1572.00,0.0404
1571.00,0.0410
1570.00,0.0417
1569.00,0.0424
1568.00,0.0431
1567.00,0.0439
1566.00,0.0447
1565.00,0.0455
1564.00,0.0464
1563.00,0.0473
1562.00,0.0483
1561.00,0.0492
1560.00,0.0500
1559.00,0.0507
1558.00,0.0514
1557.00,0.0523
1556.00,0.0533
1555.00,0.0543
1554.00,0.0554
1553.00,0.0564
1552.00,0.0573
1551.00,0.0582
1550.00,0.0592
1549.00,0.0601
1548.00,0.0610
1547.00,0.0619
1546.00,0.0627
1545.00,0.0635
1544.00,0.0642
1543.00,0.0649
1542.00,0.0657
1541.00,0.0664
1540.00,0.0670
1539.00,0.0675
1538.00,0.0680
1537.00,0.0687
1536.00,0.0695
1535.00,0.0702
1534.00,0.0708
1533.00,0.0711
1532.00,0.0715
1531.00,0.0721
1530.00,0.0726
1529.00,0.0731
1528.00,0.0734
1527.00,0.0736
1526.00,0.0737
1525.00,0.0738
1524.00,0.0739
1523.00,0.0741
1522.00,0.0741
1521.00,0.0738
1520.00,0.0736
1519.00,0.0736
1518.00,0.0737
1517.00,0.0736
1516.00,0.0734
1515.00,0.0731
1514.00,0.0727
1513.00,0.0721
1512.00,0.0712
1511.00,0.0702
1510.00,0.0692
1509.00,0.0682
1508.00,0.0668
1507.00,0.0648
1506.00,0.0626
1505.00,0.0609
1504.00,0.0598
1503.00,0.0588
1502.00,0.0579
1501.00,0.0568
1500.00,0.0556
1499.00,0.0543
1498.00,0.0530
1497.00,0.0516
1496.00,0.0501
1495.00,0.0487
1494.00,0.0474
1493.00,0.0463
1492.00,0.0451
1491.00,0.0438
1490.00,0.0423
1489.00,0.0410
1488.00,0.0398
1487.00,0.0389
1486.00,0.0381
1485.00,0.0373
1484.00,0.0366
1483.00,0.0360
1482.00,0.0354
1481.00,0.0348
1480.00,0.0344
1479.00,0.0341
1478.00,0.0339
1477.00,0.0338
1476.00,0.0338
1475.00,0.0340
1474.00,0.0343
1473.00,0.0347
1472.00,0.0352
1471.00,0.0357
1470.00,0.0361
1469.00,0.0365
1468.00,0.0368
1467.00,0.0370
1466.00,0.0370
1465.00,0.0371
1464.00,0.0371
1463.00,0.0372
1462.00,0.0374
1461.00,0.0376
1460.00,0.0379
1459.00,0.0382
1458.00,0.0387
1457.00,0.0391
1456.00,0.0395
1455.00,0.0398
1454.00,0.0400
1453.00,0.0402
1452.00,0.0403
1451.00,0.0404
1450.00,0.0404
1449.00,0.0403
1448.00,0.0402
1447.00,0.0401
1446.00,0.0400
1445.00,0.0399
1444.00,0.0398
1443.00,0.0397
1442.00,0.0395
1441.00,0.0393
1440.00,0.0391
1439.00,0.0390
1438.00,0.0387
1437.00,0.0382
1436.00,0.0376
1435.00,0.0371
1434.00,0.0366
1433.00,0.0362
1432.00,0.0358
1431.00,0.0354
1430.00,0.0349
1429.00,0.0346
1428.00,0.0343
1427.00,0.0342
1426.00,0.0341
1425.00,0.0341
1424.00,0.0341
1423.00,0.0342
1422.00,0.0344
1421.00,0.0347
1420.00,0.0350
1419.00,0.0353
1418.00,0.0356
1417.00,0.0359
1416.00,0.0363
1415.00,0.0367
1414.00,0.0371
1413.00,0.0375
1412.00,0.0378
1411.00,0.0381
1410.00,0.0384
1409.00,0.0386
1408.00,0.0389
1407.00,0.0391
1406.00,0.0393
1405.00,0.0395
1404.00,0.0396
1403.00,0.0398
1402.00,0.0399
1401.00,0.0400
1400.00,0.0401
1399.00,0.0401
1398.00,0.0402
1397.00,0.0403
1396.00,0.0404
1395.00,0.0405
1394.00,0.0406
1393.00,0.0407
1392.00,0.0408
1391.00,0.0409
1390.00,0.0409
1389.00,0.0410
1388.00,0.0409
1387.00,0.0407
1386.00,0.0404
1385.00,0.0402
1384.00,0.0398
1383.00,0.0395
1382.00,0.0391
1381.00,0.0387
1380.00,0.0383
1379.00,0.0379
1378.00,0.0375
1377.00,0.0372
1376.00,0.0368
1375.00,0.0365
1374.00,0.0362
1373.00,0.0360
1372.00,0.0359
1371.00,0.0358
1370.00,0.0357
1369.00,0.0355
1368.00,0.0352
1367.00,0.0349
1366.00,0.0345
1365.00,0.0341
1364.00,0.0337
1363.00,0.0333
1362.00,0.0329
1361.00,0.0327
1360.00,0.0325
1359.00,0.0323
1358.00,0.0322
1357.00,0.0320
1356.00,0.0319
1355.00,0.0319
1354.00,0.0318
1353.00,0.0317
1352.00,0.0317
1351.00,0.0317
1350.00,0.0316
1349.00,0.0316
1348.00,0.0316
1347.00,0.0316
1346.00,0.0316
1345.00,0.0317
1344.00,0.0317
1343.00,0.0316
1342.00,0.0316
1341.00,0.0315
1340.00,0.0315
1339.00,0.0314
1338.00,0.0314
1337.00,0.0313
1336.00,0.0313
1335.00,0.0312
1334.00,0.0311
1333.00,0.0310
1332.00,0.0309
1331.00,0.0309
1330.00,0.0308
1329.00,0.0308
1328.00,0.0308
1327.00,0.0308
1326.00,0.0308
1325.00,0.0309
1324.00,0.0309
1323.00,0.0310
1322.00,0.0310
1321.00,0.0311
1320.00,0.0312
1319.00,0.0312
1318.00,0.0313
1317.00,0.0314
1316.00,0.0315
1315.00,0.0315
1314.00,0.0316
1313.00,0.0316
1312.00,0.0316
1311.00,0.0316
1310.00,0.0316
1309.00,0.0315
1308.00,0.0315
1307.00,0.0314
1306.00,0.0314
1305.00,0.0314
1304.00,0.0314
1303.00,0.0314
1302.00,0.0314
1301.00,0.0314
1300.00,0.0315
1299.00,0.0315
1298.00,0.0316
1297.00,0.0317
1296.00,0.0318
1295.00,0.0319
1294.00,0.0320
1293.00,0.0322
1292.00,0.0323
1291.00,0.0325
1290.00,0.0326
1289.00,0.0328
1288.00,0.0329
1287.00,0.0330
1286.00,0.0332
1285.00,0.0333
1284.00,0.0335
1283.00,0.0336
1282.00,0.0338
1281.00,0.0339
1280.00,0.0340
1279.00,0.0341
1278.00,0.0341
1277.00,0.0342
1276.00,0.0343
1275.00,0.0343
1274.00,0.0344
1273.00,0.0344
1272.00,0.0345
1271.00,0.0346
1270.00,0.0347
1269.00,0.0349
1268.00,0.0352
1267.00,0.0354
1266.00,0.0357
1265.00,0.0360
1264.00,0.0362
1263.00,0.0365
1262.00,0.0368
1261.00,0.0371
1260.00,0.0375
1259.00,0.0378
1258.00,0.0381
1257.00,0.0385
1256.00,0.0388
1255.00,0.0392
1254.00,0.0395
1253.00,0.0399
1252.00,0.0402
1251.00,0.0406
1250.00,0.0410
1249.00,0.0414
1248.00,0.0418
1247.00,0.0422
1246.00,0.0425
1245.00,0.0429
1244.00,0.0432
1243.00,0.0436
1242.00,0.0439
1241.00,0.0443
1240.00,0.0446
1239.00,0.0449
1238.00,0.0452
1237.00,0.0455
1236.00,0.0458
1235.00,0.0460
1234.00,0.0462
1233.00,0.0463
1232.00,0.0464
1231.00,0.0465
1230.00,0.0466
1229.00,0.0466
1228.00,0.0466
1227.00,0.0466
1226.00,0.0465
1225.00,0.0464
1224.00,0.0463
1223.00,0.0461
1222.00,0.0459
1221.00,0.0456
1220.00,0.0453
1219.00,0.0450
1218.00,0.0447
1217.00,0.0443
1216.00,0.0439
1215.00,0.0434
1214.00,0.0429
1213.00,0.0425
1212.00,0.0420
1211.00,0.0415
1210.00,0.0410
1209.00,0.0406
1208.00,0.0401
1207.00,0.0396
1206.00,0.0392
1205.00,0.0387
1204.00,0.0383
1203.00,0.0380
1202.00,0.0376
1201.00,0.0372
1200.00,0.0369
1199.00,0.0366
1198.00,0.0363
1197.00,0.0361
1196.00,0.0359
1195.00,0.0356
1194.00,0.0354
1193.00,0.0352
1192.00,0.0350
1191.00,0.0348
1190.00,0.0347
1189.00,0.0346
1188.00,0.0345
1187.00,0.0344
1186.00,0.0343
1185.00,0.0342
1184.00,0.0342
1183.00,0.0342
1182.00,0.0342
1181.00,0.0342
1180.00,0.0343
1179.00,0.0344
1178.00,0.0345
1177.00,0.0347
1176.00,0.0350
1175.00,0.0353
1174.00,0.0356
1173.00,0.0359
1172.00,0.0361
1171.00,0.0363
1170.00,0.0364
1169.00,0.0365
1168.00,0.0365
1167.00,0.0365
1166.00,0.0365
1165.00,0.0366
1164.00,0.0366
1163.00,0.0367
1162.00,0.0368
1161.00,0.0368
1160.00,0.0368
1159.00,0.0368
1158.00,0.0368
1157.00,0.0368
1156.00,0.0367
1155.00,0.0367
1154.00,0.0365
1153.00,0.0363
1152.00,0.0361
1151.00,0.0359
1150.00,0.0356
1149.00,0.0352
1148.00,0.0349
1147.00,0.0346
1146.00,0.0343
1145.00,0.0339
1144.00,0.0336
1143.00,0.0334
1142.00,0.0331
1141.00,0.0329
1140.00,0.0327
1139.00,0.0326
1138.00,0.0325
1137.00,0.0324
1136.00,0.0324
1135.00,0.0324
1134.00,0.0325
1133.00,0.0326
1132.00,0.0327
1131.00,0.0328
1130.00,0.0329
1129.00,0.0331
1128.00,0.0332
1127.00,0.0334
1126.00,0.0336
1125.00,0.0338
1124.00,0.0340
1123.00,0.0341
1122.00,0.0342
1121.00,0.0344
1120.00,0.0345
1119.00,0.0347
1118.00,0.0348
1117.00,0.0350
1116.00,0.0351
1115.00,0.0352
1114.00,0.0354
1113.00,0.0355
1112.00,0.0356
1111.00,0.0358
1110.00,0.0359
1109.00,0.0359
1108.00,0.0360
1107.00,0.0362
1106.00,0.0363
1105.00,0.0364
1104.00,0.0365
1103.00,0.0367
1102.00,0.0368
1101.00,0.0369
1100.00,0.0371
1099.00,0.0373
1098.00,0.0375
1097.00,0.0377
1096.00,0.0380
1095.00,0.0384
1094.00,0.0387
1093.00,0.0391
1092.00,0.0395
1091.00,0.0399
1090.00,0.0404
1089.00,0.0408
1088.00,0.0413
1087.00,0.0419
1086.00,0.0424
1085.00,0.0429
1084.00,0.0434
1083.00,0.0439
1082.00,0.0443
1081.00,0.0448
1080.00,0.0451
1079.00,0.0455
1078.00,0.0457
1077.00,0.0460
1076.00,0.0462
1075.00,0.0463
1074.00,0.0464
1073.00,0.0465
1072.00,0.0465
1071.00,0.0465
1070.00,0.0466
1069.00,0.0466
1068.00,0.0467
1067.00,0.0467
1066.00,0.0467
1065.00,0.0467
1064.00,0.0468
1063.00,0.0470
1062.00,0.0471
1061.00,0.0472
1060.00,0.0473
1059.00,0.0474
1058.00,0.0474
1057.00,0.0474
1056.00,0.0474
1055.00,0.0473
1054.00,0.0472
1053.00,0.0471
1052.00,0.0470
1051.00,0.0468
1050.00,0.0467
1049.00,0.0465
1048.00,0.0463
1047.00,0.0461
1046.00,0.0460
1045.00,0.0458
1044.00,0.0457
1043.00,0.0455
1042.00,0.0453
1041.00,0.0450
1040.00,0.0448
1039.00,0.0446
1038.00,0.0444
1037.00,0.0442
1036.00,0.0440
1035.00,0.0438
1034.00,0.0437
1033.00,0.0437
1032.00,0.0436
1031.00,0.0435
1030.00,0.0433
1029.00,0.0432
1028.00,0.0430
1027.00,0.0428
1026.00,0.0425
1025.00,0.0423
1024.00,0.0420
1023.00,0.0417
1022.00,0.0414
1021.00,0.0410
1020.00,0.0407
1019.00,0.0403
1018.00,0.0399
1017.00,0.0395
1016.00,0.0390
1015.00,0.0386
1014.00,0.0382
1013.00,0.0378
1012.00,0.0374
1011.00,0.0370
1010.00,0.0366
1009.00,0.0362
1008.00,0.0358
1007.00,0.0354
1006.00,0.0351
1005.00,0.0347
1004.00,0.0343
1003.00,0.0340
1002.00,0.0336
1001.00,0.0332
1000.00,0.0329
999.00,0.0325
998.00,0.0322
997.00,0.0318
996.00,0.0315
995.00,0.0312
994.00,0.0309
993.00,0.0305
992.00,0.0302
991.00,0.0298
990.00,0.0295
989.00,0.0292
988.00,0.0289
987.00,0.0287
986.00,0.0285
985.00,0.0283
984.00,0.0281
983.00,0.0280
982.00,0.0278
981.00,0.0277
980.00,0.0277
979.00,0.0276
978.00,0.0276
977.00,0.0276
976.00,0.0277
975.00,0.0277
974.00,0.0277
973.00,0.0278
972.00,0.0279
971.00,0.0279
970.00,0.0280
969.00,0.0280
968.00,0.0280
967.00,0.0281
966.00,0.0281
965.00,0.0281
964.00,0.0281
963.00,0.0280
962.00,0.0280
961.00,0.0280
960.00,0.0279
959.00,0.0278
958.00,0.0277
957.00,0.0276
956.00,0.0275
955.00,0.0275
954.00,0.0274
953.00,0.0274
952.00,0.0273
951.00,0.0273
950.00,0.0273
949.00,0.0273
948.00,0.0274
947.00,0.0275
946.00,0.0275
945.00,0.0276
944.00,0.0276
943.00,0.0277
942.00,0.0278
941.00,0.0279
940.00,0.0280
939.00,0.0281
938.00,0.0283
937.00,0.0284
936.00,0.0285
935.00,0.0286
934.00,0.0286
933.00,0.0287
932.00,0.0288
931.00,0.0288
930.00,0.0288
929.00,0.0288
928.00,0.0287
927.00,0.0287
926.00,0.0286
925.00,0.0285
924.00,0.0285
923.00,0.0283
922.00,0.0282
921.00,0.0281
920.00,0.0279
919.00,0.0278
918.00,0.0276
917.00,0.0275
916.00,0.0275
915.00,0.0274
914.00,0.0273
913.00,0.0272
912.00,0.0271
911.00,0.0270
910.00,0.0269
909.00,0.0268
908.00,0.0267
907.00,0.0267
906.00,0.0266
905.00,0.0265
904.00,0.0265
903.00,0.0264
902.00,0.0263
901.00,0.0262
900.00,0.0262
899.00,0.0261
898.00,0.0261
897.00,0.0261
896.00,0.0261
895.00,0.0261
894.00,0.0260
893.00,0.0260
892.00,0.0259
891.00,0.0259
890.00,0.0259
889.00,0.0259
888.00,0.0259
887.00,0.0259
886.00,0.0260
885.00,0.0260
884.00,0.0260
883.00,0.0260
882.00,0.0259
881.00,0.0259
880.00,0.0259
879.00,0.0259
878.00,0.0258
877.00,0.0258
876.00,0.0257
875.00,0.0257
874.00,0.0257
873.00,0.0256
872.00,0.0256
871.00,0.0255
870.00,0.0255
869.00,0.0255
868.00,0.0255
867.00,0.0255
866.00,0.0255
865.00,0.0256
864.00,0.0257
863.00,0.0258
862.00,0.0259
861.00,0.0259
860.00,0.0261
859.00,0.0262
858.00,0.0265
857.00,0.0267
856.00,0.0270
855.00,0.0272
854.00,0.0274
853.00,0.0276
852.00,0.0277
851.00,0.0278
850.00,0.0279
849.00,0.0279
848.00,0.0279
847.00,0.0280
846.00,0.0280
845.00,0.0281
844.00,0.0281
843.00,0.0283
842.00,0.0284
841.00,0.0286
840.00,0.0289
839.00,0.0291
838.00,0.0294
837.00,0.0296
836.00,0.0298
835.00,0.0300
834.00,0.0302
833.00,0.0304
832.00,0.0307
831.00,0.0310
830.00,0.0312
829.00,0.0314
828.00,0.0316
827.00,0.0317
826.00,0.0318
825.00,0.0318
824.00,0.0318
823.00,0.0318
822.00,0.0319
821.00,0.0319
820.00,0.0320
819.00,0.0321
818.00,0.0323
817.00,0.0324
816.00,0.0325
815.00,0.0327
814.00,0.0329
813.00,0.0331
812.00,0.0334
811.00,0.0336
810.00,0.0338
809.00,0.0339
808.00,0.0340
807.00,0.0341
806.00,0.0342
805.00,0.0344
804.00,0.0346
803.00,0.0348
802.00,0.0350
801.00,0.0353
800.00,0.0356
799.00,0.0359
798.00,0.0362
797.00,0.0364
796.00,0.0366
795.00,0.0369
794.00,0.0372
793.00,0.0376
792.00,0.0379
791.00,0.0383
790.00,0.0388
789.00,0.0392
788.00,0.0396
787.00,0.0400
786.00,0.0404
785.00,0.0407
784.00,0.0410
783.00,0.0414
782.00,0.0416
781.00,0.0418
780.00,0.0420
779.00,0.0421
778.00,0.0422
777.00,0.0423
776.00,0.0425
775.00,0.0426
774.00,0.0428
773.00,0.0430
772.00,0.0432
771.00,0.0433
770.00,0.0433
769.00,0.0434
768.00,0.0436
767.00,0.0437
766.00,0.0438
765.00,0.0440
764.00,0.0441
763.00,0.0443
762.00,0.0445
761.00,0.0447
760.00,0.0449
759.00,0.0451
758.00,0.0453
757.00,0.0455
756.00,0.0458
755.00,0.0461
754.00,0.0463
753.00,0.0465
752.00,0.0468
751.00,0.0472
750.00,0.0476
749.00,0.0480
748.00,0.0484
747.00,0.0487
746.00,0.0490
745.00,0.0493
744.00,0.0496
743.00,0.0499
742.00,0.0502
741.00,0.0504
740.00,0.0507
739.00,0.0509
738.00,0.0511
737.00,0.0514
736.00,0.0517
735.00,0.0520
734.00,0.0524
733.00,0.0528
732.00,0.0532
731.00,0.0537
730.00,0.0542
729.00,0.0548
728.00,0.0554
727.00,0.0560
726.00,0.0567
725.00,0.0575
724.00,0.0583
723.00,0.0590
722.00,0.0597
721.00,0.0604
720.00,0.0610
719.00,0.0616
718.00,0.0622
717.00,0.0627
716.00,0.0632
715.00,0.0638
714.00,0.0643
713.00,0.0648
712.00,0.0653
711.00,0.0659
710.00,0.0664
709.00,0.0670
708.00,0.0676
707.00,0.0682
706.00,0.0689
705.00,0.0696
704.00,0.0703
703.00,0.0709
702.00,0.0715
701.00,0.0720
700.00,0.0725
699.00,0.0728
698.00,0.0731
697.00,0.0732
696.00,0.0732
695.00,0.0731
694.00,0.0730
693.00,0.0729
692.00,0.0728
691.00,0.0728
690.00,0.0728
689.00,0.0728
688.00,0.0728
687.00,0.0729
686.00,0.0730
685.00,0.0731
684.00,0.0732
683.00,0.0733
682.00,0.0734
681.00,0.0735
680.00,0.0736
679.00,0.0738
678.00,0.0740
677.00,0.0741
676.00,0.0742
675.00,0.0743
674.00,0.0745
673.00,0.0746
672.00,0.0748
671.00,0.0751
670.00,0.0753
669.00,0.0756
668.00,0.0758
667.00,0.0760
666.00,0.0760
665.00,0.0761
664.00,0.0762
663.00,0.0764
662.00,0.0766
661.00,0.0768
660.00,0.0769
659.00,0.0771
658.00,0.0773
657.00,0.0775
656.00,0.0776
655.00,0.0778
654.00,0.0778
653.00,0.0780
652.00,0.0781
651.00,0.0783
650.00,0.0785
649.00,0.0786
648.00,0.0788
647.00,0.0789
646.00,0.0790
645.00,0.0792
644.00,0.0794
643.00,0.0796
642.00,0.0797
641.00,0.0798
640.00,0.0800
639.00,0.0802
638.00,0.0804
637.00,0.0807
636.00,0.0810
635.00,0.0813
634.00,0.0815
633.00,0.0818
632.00,0.0822
631.00,0.0825
630.00,0.0828
629.00,0.0831
628.00,0.0833
627.00,0.0835
626.00,0.0836
625.00,0.0837
624.00,0.0839
623.00,0.0841
622.00,0.0842
621.00,0.0844
620.00,0.0845
619.00,0.0846
618.00,0.0846
617.00,0.0846
616.00,0.0847
615.00,0.0848
614.00,0.0848
613.00,0.0848
612.00,0.0848
611.00,0.0847
610.00,0.0848
609.00,0.0849
608.00,0.0852
607.00,0.0854
606.00,0.0854
605.00,0.0855
604.00,0.0855
603.00,0.0856
602.00,0.0858
601.00,0.0859
600.00,0.0861
599.00,0.0861
598.00,0.0862
597.00,0.0862
596.00,0.0864
595.00,0.0866
594.00,0.0868
593.00,0.0871
592.00,0.0873
591.00,0.0875
590.00,0.0876
589.00,0.0878
588.00,0.0880
587.00,0.0883
586.00,0.0885
585.00,0.0887
584.00,0.0889
583.00,0.0890
582.00,0.0891
581.00,0.0892
580.00,0.0895
579.00,0.0897
578.00,0.0899
577.00,0.0901
576.00,0.0904
575.00,0.0905
574.00,0.0905
573.00,0.0906
572.00,0.0908
571.00,0.0913
570.00,0.0917
569.00,0.0920
568.00,0.0922
567.00,0.0924
566.00,0.0927
565.00,0.0930
564.00,0.0934
563.00,0.0937
562.00,0.0940
561.00,0.0943
560.00,0.0946
559.00,0.0949
558.00,0.0952
557.00,0.0955
556.00,0.0959
555.00,0.0963
554.00,0.0966
553.00,0.0969
552.00,0.0972
551.00,0.0975
550.00,0.0977
549.00,0.0980
548.00,0.0982
547.00,0.0983
546.00,0.0984
545.00,0.0987
544.00,0.0990
543.00,0.0993
542.00,0.0994
541.00,0.0996
540.00,0.0999
539.00,0.1002
538.00,0.1004
537.00,0.1006
536.00,0.1009
535.00,0.1011
534.00,0.1013
533.00,0.1016
532.00,0.1018
531.00,0.1021
530.00,0.1024
529.00,0.1026
528.00,0.1028
527.00,0.1030
526.00,0.1031
525.00,0.1033
524.00,0.1037
523.00,0.1040
522.00,0.1042
521.00,0.1044
520.00,0.1046
519.00,0.1046
518.00,0.1045
517.00,0.1046
516.00,0.1049
515.00,0.1053
514.00,0.1054
513.00,0.1055
512.00,0.1056
511.00,0.1058
510.00,0.1060
509.00,0.1062
508.00,0.1065
507.00,0.1068
506.00,0.1070
505.00,0.1071
504.00,0.1073
503.00,0.1075
502.00,0.1077
501.00,0.1079
500.00,0.1079
499.00,0.1077
498.00,0.1076
497.00,0.1076
496.00,0.1077
495.00,0.1077
494.00,0.1077
493.00,0.1079
492.00,0.1082
491.00,0.1085
490.00,0.1085
489.00,0.1084
488.00,0.1084
487.00,0.1083
486.00,0.1082
485.00,0.1081
484.00,0.1082
483.00,0.1084
482.00,0.1084
481.00,0.1083
480.00,0.1083
479.00,0.1082
478.00,0.1081
477.00,0.1083
476.00,0.1087
475.00,0.1089
474.00,0.1088
473.00,0.1086
472.00,0.1086
471.00,0.1088
470.00,0.1090
469.00,0.1093
468.00,0.1097
467.00,0.1100
466.00,0.1098
465.00,0.1095
464.00,0.1095
463.00,0.1095
462.00,0.1095
461.00,0.1095
460.00,0.1095
459.00,0.1095
458.00,0.1093
457.00,0.1093
456.00,0.1095
455.00,0.1095
454.00,0.1091
453.00,0.1089
452.00,0.1090
451.00,0.1092
450.00,0.1091
449.00,0.1089
448.00,0.1087
447.00,0.1085
446.00,0.1082
445.00,0.1078
444.00,0.1075
443.00,0.1072
442.00,0.1068
441.00,0.1066
440.00,0.1066
439.00,0.1067
438.00,0.1067
437.00,0.1068
436.00,0.1072
435.00,0.1075
434.00,0.1073
433.00,0.1069
432.00,0.1065
431.00,0.1062
430.00,0.1058
429.00,0.1055
428.00,0.1055
427.00,0.1055
426.00,0.1054
425.00,0.1052
424.00,0.1050
423.00,0.1050
422.00,0.1050
421.00,0.1050
420.00,0.1050
419.00,0.1048
418.00,0.1040
417.00,0.1034
416.00,0.1033
415.00,0.1035
414.00,0.1039
413.00,0.1048
412.00,0.1059
411.00,0.1064
410.00,0.1058
409.00,0.1050
408.00,0.1050
407.00,0.1055
406.00,0.1054
405.00,0.1049
404.00,0.1046
403.00,0.1046
402.00,0.1043
401.00,0.1040
400.00,0.1037
