Created as New Dataset,Sample 681 By YargerLab Date Thursday, June 12 2025
cm-1,A
4000.00,0.0051
3999.00,0.0051
3998.00,0.0051
3997.00,0.0051
3996.00,0.0051
3995.00,0.0051
3994.00,0.0051
3993.00,0.0051
3992.00,0.0050
3991.00,0.0050
3990.00,0.0050
3989.00,0.0050
3988.00,0.0050
3987.00,0.0051
3986.00,0.0051
3985.00,0.0051
3984.00,0.0051
3983.00,0.0051
3982.00,0.0051
3981.00,0.0051
3980.00,0.0051
3979.00,0.0051
3978.00,0.0051
3977.00,0.0051
3976.00,0.0051
3975.00,0.0051
3974.00,0.0051
3973.00,0.0051
3972.00,0.0051
3971.00,0.0051
3970.00,0.0051
3969.00,0.0051
3968.00,0.0051
3967.00,0.0051
3966.00,0.0051
3965.00,0.0051
3964.00,0.0051
3963.00,0.0051
3962.00,0.0051
3961.00,0.0051
3960.00,0.0051
3959.00,0.0051
3958.00,0.0051
3957.00,0.0051
3956.00,0.0051
3955.00,0.0051
3954.00,0.0051
3953.00,0.0051
3952.00,0.0051
3951.00,0.0051
3950.00,0.0051
3949.00,0.0052
3948.00,0.0052
3947.00,0.0052
3946.00,0.0051
3945.00,0.0051
3944.00,0.0051
3943.00,0.0051
3942.00,0.0051
3941.00,0.0051
3940.00,0.0051
3939.00,0.0051
3938.00,0.0051
3937.00,0.0051
3936.00,0.0051
3935.00,0.0051
3934.00,0.0051
3933.00,0.0051
3932.00,0.0051
3931.00,0.0051
3930.00,0.0051
3929.00,0.0051
3928.00,0.0051
3927.00,0.0051
3926.00,0.0051
3925.00,0.0051
3924.00,0.0051
3923.00,0.0051
3922.00,0.0051
3921.00,0.0051
3920.00,0.0051
3919.00,0.0051
3918.00,0.0050
3917.00,0.0050
3916.00,0.0050
3915.00,0.0050
3914.00,0.0050
3913.00,0.0050
3912.00,0.0050
3911.00,0.0050
3910.00,0.0050
3909.00,0.0051
3908.00,0.0051
3907.00,0.0050
3906.00,0.0050
3905.00,0.0050
3904.00,0.0050
3903.00,0.0050
3902.00,0.0050
3901.00,0.0050
3900.00,0.0050
3899.00,0.0050
3898.00,0.0049
3897.00,0.0049
3896.00,0.0049
3895.00,0.0050
3894.00,0.0050
3893.00,0.0050
3892.00,0.0050
3891.00,0.0050
3890.00,0.0050
3889.00,0.0050
3888.00,0.0050
3887.00,0.0050
3886.00,0.0050
3885.00,0.0050
3884.00,0.0050
3883.00,0.0050
3882.00,0.0050
3881.00,0.0049
3880.00,0.0049
3879.00,0.0049
3878.00,0.0049
3877.00,0.0049
3876.00,0.0049
3875.00,0.0050
3874.00,0.0050
3873.00,0.0050
3872.00,0.0050
3871.00,0.0050
3870.00,0.0050
3869.00,0.0050
3868.00,0.0050
3867.00,0.0050
3866.00,0.0050
3865.00,0.0049
3864.00,0.0050
3863.00,0.0049
3862.00,0.0049
3861.00,0.0049
3860.00,0.0049
3859.00,0.0049
3858.00,0.0049
3857.00,0.0050
3856.00,0.0050
3855.00,0.0050
3854.00,0.0050
3853.00,0.0050
3852.00,0.0050
3851.00,0.0049
3850.00,0.0049
3849.00,0.0049
3848.00,0.0050
3847.00,0.0050
3846.00,0.0050
3845.00,0.0050
3844.00,0.0050
3843.00,0.0050
3842.00,0.0050
3841.00,0.0050
3840.00,0.0050
3839.00,0.0050
3838.00,0.0050
3837.00,0.0049
3836.00,0.0049
3835.00,0.0049
3834.00,0.0049
3833.00,0.0049
3832.00,0.0049
3831.00,0.0048
3830.00,0.0048
3829.00,0.0049
3828.00,0.0049
3827.00,0.0049
3826.00,0.0050
3825.00,0.0050
3824.00,0.0050
3823.00,0.0049
3822.00,0.0049
3821.00,0.0049
3820.00,0.0049
3819.00,0.0049
3818.00,0.0049
3817.00,0.0049
3816.00,0.0049
3815.00,0.0049
3814.00,0.0049
3813.00,0.0049
3812.00,0.0049
3811.00,0.0049
3810.00,0.0049
3809.00,0.0049
3808.00,0.0049
3807.00,0.0049
3806.00,0.0049
3805.00,0.0049
3804.00,0.0050
3803.00,0.0050
3802.00,0.0050
3801.00,0.0050
3800.00,0.0050
3799.00,0.0049
3798.00,0.0049
3797.00,0.0049
3796.00,0.0049
3795.00,0.0050
3794.00,0.0050
3793.00,0.0049
3792.00,0.0049
3791.00,0.0049
3790.00,0.0050
3789.00,0.0050
3788.00,0.0050
3787.00,0.0050
3786.00,0.0050
3785.00,0.0050
3784.00,0.0050
3783.00,0.0050
3782.00,0.0050
3781.00,0.0050
3780.00,0.0049
3779.00,0.0049
3778.00,0.0049
3777.00,0.0049
3776.00,0.0050
3775.00,0.0050
3774.00,0.0050
3773.00,0.0050
3772.00,0.0050
3771.00,0.0049
3770.00,0.0049
3769.00,0.0049
3768.00,0.0049
3767.00,0.0049
3766.00,0.0049
3765.00,0.0049
3764.00,0.0049
3763.00,0.0050
3762.00,0.0050
3761.00,0.0050
3760.00,0.0050
3759.00,0.0050
3758.00,0.0050
3757.00,0.0050
3756.00,0.0050
3755.00,0.0050
3754.00,0.0050
3753.00,0.0050
3752.00,0.0050
3751.00,0.0050
3750.00,0.0050
3749.00,0.0050
3748.00,0.0050
3747.00,0.0050
3746.00,0.0049
3745.00,0.0049
3744.00,0.0049
3743.00,0.0049
3742.00,0.0049
3741.00,0.0049
3740.00,0.0050
3739.00,0.0050
3738.00,0.0050
3737.00,0.0050
3736.00,0.0049
3735.00,0.0049
3734.00,0.0049
3733.00,0.0049
3732.00,0.0049
3731.00,0.0049
3730.00,0.0049
3729.00,0.0048
3728.00,0.0048
3727.00,0.0048
3726.00,0.0049
3725.00,0.0049
3724.00,0.0049
3723.00,0.0049
3722.00,0.0049
3721.00,0.0048
3720.00,0.0048
3719.00,0.0049
3718.00,0.0049
3717.00,0.0049
3716.00,0.0049
3715.00,0.0049
3714.00,0.0049
3713.00,0.0049
3712.00,0.0048
3711.00,0.0048
3710.00,0.0048
3709.00,0.0048
3708.00,0.0048
3707.00,0.0048
3706.00,0.0048
3705.00,0.0048
3704.00,0.0048
3703.00,0.0048
3702.00,0.0048
3701.00,0.0048
3700.00,0.0048
3699.00,0.0048
3698.00,0.0048
3697.00,0.0048
3696.00,0.0048
3695.00,0.0048
3694.00,0.0048
3693.00,0.0048
3692.00,0.0048
3691.00,0.0048
3690.00,0.0047
3689.00,0.0047
3688.00,0.0047
3687.00,0.0047
3686.00,0.0047
3685.00,0.0047
3684.00,0.0047
3683.00,0.0047
3682.00,0.0047
3681.00,0.0047
3680.00,0.0047
3679.00,0.0047
3678.00,0.0046
3677.00,0.0046
3676.00,0.0046
3675.00,0.0045
3674.00,0.0045
3673.00,0.0045
3672.00,0.0044
3671.00,0.0044
3670.00,0.0044
3669.00,0.0043
3668.00,0.0043
3667.00,0.0043
3666.00,0.0043
3665.00,0.0043
3664.00,0.0044
3663.00,0.0044
3662.00,0.0044
3661.00,0.0044
3660.00,0.0044
3659.00,0.0044
3658.00,0.0044
3657.00,0.0044
3656.00,0.0044
3655.00,0.0044
3654.00,0.0044
3653.00,0.0044
3652.00,0.0044
3651.00,0.0044
3650.00,0.0044
3649.00,0.0044
3648.00,0.0044
3647.00,0.0044
3646.00,0.0044
3645.00,0.0045
3644.00,0.0045
3643.00,0.0045
3642.00,0.0045
3641.00,0.0045
3640.00,0.0045
3639.00,0.0046
3638.00,0.0046
3637.00,0.0046
3636.00,0.0046
3635.00,0.0047
3634.00,0.0047
3633.00,0.0048
3632.00,0.0048
3631.00,0.0048
3630.00,0.0048
3629.00,0.0049
3628.00,0.0049
3627.00,0.0049
3626.00,0.0049
3625.00,0.0049
3624.00,0.0049
3623.00,0.0049
3622.00,0.0049
3621.00,0.0049
3620.00,0.0049
3619.00,0.0049
3618.00,0.0049
3617.00,0.0049
3616.00,0.0049
3615.00,0.0049
3614.00,0.0049
3613.00,0.0049
3612.00,0.0049
3611.00,0.0049
3610.00,0.0049
3609.00,0.0049
3608.00,0.0049
3607.00,0.0049
3606.00,0.0049
3605.00,0.0049
3604.00,0.0049
3603.00,0.0050
3602.00,0.0050
3601.00,0.0050
3600.00,0.0050
3599.00,0.0050
3598.00,0.0050
3597.00,0.0050
3596.00,0.0050
3595.00,0.0050
3594.00,0.0050
3593.00,0.0050
3592.00,0.0049
3591.00,0.0049
3590.00,0.0049
3589.00,0.0049
3588.00,0.0049
3587.00,0.0049
3586.00,0.0049
3585.00,0.0049
3584.00,0.0049
3583.00,0.0050
3582.00,0.0050
3581.00,0.0050
3580.00,0.0050
3579.00,0.0050
3578.00,0.0049
3577.00,0.0049
3576.00,0.0049
3575.00,0.0049
3574.00,0.0049
3573.00,0.0050
3572.00,0.0050
3571.00,0.0050
3570.00,0.0050
3569.00,0.0050
3568.00,0.0050
3567.00,0.0050
3566.00,0.0050
3565.00,0.0050
3564.00,0.0050
3563.00,0.0050
3562.00,0.0050
3561.00,0.0050
3560.00,0.0050
3559.00,0.0050
3558.00,0.0050
3557.00,0.0050
3556.00,0.0050
3555.00,0.0050
3554.00,0.0050
3553.00,0.0050
3552.00,0.0050
3551.00,0.0050
3550.00,0.0050
3549.00,0.0050
3548.00,0.0050
3547.00,0.0050
3546.00,0.0050
3545.00,0.0050
3544.00,0.0050
3543.00,0.0050
3542.00,0.0050
3541.00,0.0050
3540.00,0.0050
3539.00,0.0050
3538.00,0.0050
3537.00,0.0050
3536.00,0.0050
3535.00,0.0050
3534.00,0.0050
3533.00,0.0050
3532.00,0.0050
3531.00,0.0050
3530.00,0.0050
3529.00,0.0050
3528.00,0.0051
3527.00,0.0051
3526.00,0.0051
3525.00,0.0050
3524.00,0.0050
3523.00,0.0050
3522.00,0.0050
3521.00,0.0050
3520.00,0.0050
3519.00,0.0050
3518.00,0.0050
3517.00,0.0050
3516.00,0.0050
3515.00,0.0050
3514.00,0.0051
3513.00,0.0050
3512.00,0.0050
3511.00,0.0050
3510.00,0.0050
3509.00,0.0050
3508.00,0.0050
3507.00,0.0049
3506.00,0.0049
3505.00,0.0049
3504.00,0.0050
3503.00,0.0050
3502.00,0.0050
3501.00,0.0049
3500.00,0.0049
3499.00,0.0049
3498.00,0.0050
3497.00,0.0050
3496.00,0.0050
3495.00,0.0050
3494.00,0.0049
3493.00,0.0049
3492.00,0.0049
3491.00,0.0049
3490.00,0.0049
3489.00,0.0049
3488.00,0.0049
3487.00,0.0049
3486.00,0.0049
3485.00,0.0049
3484.00,0.0049
3483.00,0.0049
3482.00,0.0049
3481.00,0.0049
3480.00,0.0049
3479.00,0.0049
3478.00,0.0050
3477.00,0.0050
3476.00,0.0050
3475.00,0.0050
3474.00,0.0050
3473.00,0.0050
3472.00,0.0050
3471.00,0.0050
3470.00,0.0050
3469.00,0.0050
3468.00,0.0050
3467.00,0.0050
3466.00,0.0050
3465.00,0.0050
3464.00,0.0050
3463.00,0.0050
3462.00,0.0051
3461.00,0.0051
3460.00,0.0051
3459.00,0.0051
3458.00,0.0051
3457.00,0.0051
3456.00,0.0051
3455.00,0.0051
3454.00,0.0051
3453.00,0.0051
3452.00,0.0051
3451.00,0.0052
3450.00,0.0052
3449.00,0.0052
3448.00,0.0052
3447.00,0.0053
3446.00,0.0053
3445.00,0.0053
3444.00,0.0054
3443.00,0.0054
3442.00,0.0054
3441.00,0.0054
3440.00,0.0054
3439.00,0.0054
3438.00,0.0055
3437.00,0.0055
3436.00,0.0055
3435.00,0.0055
3434.00,0.0055
3433.00,0.0055
3432.00,0.0055
3431.00,0.0056
3430.00,0.0056
3429.00,0.0056
3428.00,0.0057
3427.00,0.0057
3426.00,0.0058
3425.00,0.0058
3424.00,0.0059
3423.00,0.0059
3422.00,0.0060
3421.00,0.0060
3420.00,0.0061
3419.00,0.0061
3418.00,0.0062
3417.00,0.0062
3416.00,0.0063
3415.00,0.0064
3414.00,0.0064
3413.00,0.0065
3412.00,0.0066
3411.00,0.0067
3410.00,0.0067
3409.00,0.0068
3408.00,0.0069
3407.00,0.0070
3406.00,0.0071
3405.00,0.0072
3404.00,0.0072
3403.00,0.0073
3402.00,0.0073
3401.00,0.0074
3400.00,0.0075
3399.00,0.0077
3398.00,0.0078
3397.00,0.0079
3396.00,0.0080
3395.00,0.0081
3394.00,0.0082
3393.00,0.0083
3392.00,0.0085
3391.00,0.0086
3390.00,0.0087
3389.00,0.0089
3388.00,0.0090
3387.00,0.0091
3386.00,0.0092
3385.00,0.0094
3384.00,0.0095
3383.00,0.0096
3382.00,0.0098
3381.00,0.0099
3380.00,0.0101
3379.00,0.0103
3378.00,0.0105
3377.00,0.0107
3376.00,0.0109
3375.00,0.0112
3374.00,0.0116
3373.00,0.0119
3372.00,0.0123
3371.00,0.0128
3370.00,0.0133
3369.00,0.0138
3368.00,0.0143
3367.00,0.0149
3366.00,0.0155
3365.00,0.0161
3364.00,0.0168
3363.00,0.0175
3362.00,0.0182
3361.00,0.0190
3360.00,0.0197
3359.00,0.0204
3358.00,0.0211
3357.00,0.0218
3356.00,0.0224
3355.00,0.0230
3354.00,0.0236
3353.00,0.0241
3352.00,0.0245
3351.00,0.0249
3350.00,0.0251
3349.00,0.0254
3348.00,0.0255
3347.00,0.0255
3346.00,0.0254
3345.00,0.0253
3344.00,0.0251
3343.00,0.0249
3342.00,0.0247
3341.00,0.0244
3340.00,0.0241
3339.00,0.0237
3338.00,0.0234
3337.00,0.0231
3336.00,0.0229
3335.00,0.0226
3334.00,0.0223
3333.00,0.0221
3332.00,0.0218
3331.00,0.0216
3330.00,0.0214
3329.00,0.0212
3328.00,0.0210
3327.00,0.0208
3326.00,0.0206
3325.00,0.0204
3324.00,0.0202
3323.00,0.0200
3322.00,0.0199
3321.00,0.0197
3320.00,0.0195
3319.00,0.0193
3318.00,0.0191
3317.00,0.0189
3316.00,0.0187
3315.00,0.0185
3314.00,0.0183
3313.00,0.0180
3312.00,0.0178
3311.00,0.0175
3310.00,0.0172
3309.00,0.0169
3308.00,0.0166
3307.00,0.0163
3306.00,0.0160
3305.00,0.0158
3304.00,0.0156
3303.00,0.0153
3302.00,0.0151
3301.00,0.0149
3300.00,0.0147
3299.00,0.0144
3298.00,0.0142
3297.00,0.0139
3296.00,0.0137
3295.00,0.0134
3294.00,0.0132
3293.00,0.0130
3292.00,0.0129
3291.00,0.0127
3290.00,0.0126
3289.00,0.0124
3288.00,0.0123
3287.00,0.0121
3286.00,0.0119
3285.00,0.0118
3284.00,0.0117
3283.00,0.0116
3282.00,0.0115
3281.00,0.0114
3280.00,0.0113
3279.00,0.0112
3278.00,0.0111
3277.00,0.0110
3276.00,0.0109
3275.00,0.0108
3274.00,0.0107
3273.00,0.0107
3272.00,0.0106
3271.00,0.0106
3270.00,0.0106
3269.00,0.0105
3268.00,0.0105
3267.00,0.0104
3266.00,0.0104
3265.00,0.0103
3264.00,0.0103
3263.00,0.0102
3262.00,0.0102
3261.00,0.0102
3260.00,0.0101
3259.00,0.0101
3258.00,0.0101
3257.00,0.0100
3256.00,0.0100
3255.00,0.0100
3254.00,0.0100
3253.00,0.0099
3252.00,0.0100
3251.00,0.0100
3250.00,0.0100
3249.00,0.0100
3248.00,0.0100
3247.00,0.0101
3246.00,0.0101
3245.00,0.0101
3244.00,0.0102
3243.00,0.0102
3242.00,0.0102
3241.00,0.0103
3240.00,0.0103
3239.00,0.0103
3238.00,0.0102
3237.00,0.0102
3236.00,0.0102
3235.00,0.0101
3234.00,0.0100
3233.00,0.0099
3232.00,0.0099
3231.00,0.0098
3230.00,0.0097
3229.00,0.0096
3228.00,0.0095
3227.00,0.0094
3226.00,0.0093
3225.00,0.0092
3224.00,0.0091
3223.00,0.0090
3222.00,0.0090
3221.00,0.0089
3220.00,0.0088
3219.00,0.0087
3218.00,0.0086
3217.00,0.0085
3216.00,0.0085
3215.00,0.0084
3214.00,0.0083
3213.00,0.0082
3212.00,0.0081
3211.00,0.0081
3210.00,0.0080
3209.00,0.0080
3208.00,0.0079
3207.00,0.0079
3206.00,0.0078
3205.00,0.0078
3204.00,0.0077
3203.00,0.0076
3202.00,0.0076
3201.00,0.0075
3200.00,0.0075
3199.00,0.0075
3198.00,0.0074
3197.00,0.0074
3196.00,0.0074
3195.00,0.0073
3194.00,0.0073
3193.00,0.0072
3192.00,0.0072
3191.00,0.0072
3190.00,0.0072
3189.00,0.0071
3188.00,0.0071
3187.00,0.0071
3186.00,0.0071
3185.00,0.0071
3184.00,0.0071
3183.00,0.0071
3182.00,0.0071
3181.00,0.0070
3180.00,0.0070
3179.00,0.0070
3178.00,0.0070
3177.00,0.0069
3176.00,0.0069
3175.00,0.0069
3174.00,0.0069
3173.00,0.0069
3172.00,0.0069
3171.00,0.0068
3170.00,0.0068
3169.00,0.0068
3168.00,0.0068
3167.00,0.0068
3166.00,0.0068
3165.00,0.0068
3164.00,0.0068
3163.00,0.0068
3162.00,0.0068
3161.00,0.0069
3160.00,0.0069
3159.00,0.0069
3158.00,0.0069
3157.00,0.0069
3156.00,0.0069
3155.00,0.0068
3154.00,0.0068
3153.00,0.0068
3152.00,0.0068
3151.00,0.0069
3150.00,0.0069
3149.00,0.0069
3148.00,0.0069
3147.00,0.0069
3146.00,0.0069
3145.00,0.0069
3144.00,0.0069
3143.00,0.0069
3142.00,0.0069
3141.00,0.0069
3140.00,0.0069
3139.00,0.0069
3138.00,0.0069
3137.00,0.0069
3136.00,0.0069
3135.00,0.0070
3134.00,0.0070
3133.00,0.0070
3132.00,0.0070
3131.00,0.0071
3130.00,0.0071
3129.00,0.0071
3128.00,0.0071
3127.00,0.0072
3126.00,0.0072
3125.00,0.0072
3124.00,0.0073
3123.00,0.0073
3122.00,0.0074
3121.00,0.0074
3120.00,0.0075
3119.00,0.0075
3118.00,0.0076
3117.00,0.0077
3116.00,0.0078
3115.00,0.0079
3114.00,0.0080
3113.00,0.0081
3112.00,0.0082
3111.00,0.0083
3110.00,0.0085
3109.00,0.0086
3108.00,0.0087
3107.00,0.0088
3106.00,0.0088
3105.00,0.0089
3104.00,0.0090
3103.00,0.0090
3102.00,0.0091
3101.00,0.0091
3100.00,0.0091
3099.00,0.0091
3098.00,0.0090
3097.00,0.0090
3096.00,0.0089
3095.00,0.0089
3094.00,0.0088
3093.00,0.0087
3092.00,0.0086
3091.00,0.0085
3090.00,0.0084
3089.00,0.0084
3088.00,0.0083
3087.00,0.0082
3086.00,0.0082
3085.00,0.0081
3084.00,0.0080
3083.00,0.0080
3082.00,0.0079
3081.00,0.0079
3080.00,0.0079
3079.00,0.0079
3078.00,0.0079
3077.00,0.0079
3076.00,0.0079
3075.00,0.0079
3074.00,0.0079
3073.00,0.0079
3072.00,0.0079
3071.00,0.0079
3070.00,0.0079
3069.00,0.0079
3068.00,0.0079
3067.00,0.0079
3066.00,0.0079
3065.00,0.0079
3064.00,0.0078
3063.00,0.0078
3062.00,0.0078
3061.00,0.0077
3060.00,0.0077
3059.00,0.0076
3058.00,0.0075
3057.00,0.0075
3056.00,0.0075
3055.00,0.0075
3054.00,0.0075
3053.00,0.0075
3052.00,0.0075
3051.00,0.0075
3050.00,0.0075
3049.00,0.0075
3048.00,0.0075
3047.00,0.0075
3046.00,0.0075
3045.00,0.0074
3044.00,0.0074
3043.00,0.0074
3042.00,0.0074
3041.00,0.0075
3040.00,0.0075
3039.00,0.0076
3038.00,0.0077
3037.00,0.0077
3036.00,0.0077
3035.00,0.0077
3034.00,0.0077
3033.00,0.0078
3032.00,0.0079
3031.00,0.0079
3030.00,0.0080
3029.00,0.0080
3028.00,0.0081
3027.00,0.0081
3026.00,0.0082
3025.00,0.0083
3024.00,0.0084
3023.00,0.0085
3022.00,0.0086
3021.00,0.0087
3020.00,0.0088
3019.00,0.0088
3018.00,0.0088
3017.00,0.0088
3016.00,0.0087
3015.00,0.0087
3014.00,0.0087
3013.00,0.0086
3012.00,0.0086
3011.00,0.0085
3010.00,0.0085
3009.00,0.0084
3008.00,0.0083
3007.00,0.0082
3006.00,0.0081
3005.00,0.0080
3004.00,0.0080
3003.00,0.0080
3002.00,0.0079
3001.00,0.0079
3000.00,0.0079
2999.00,0.0079
2998.00,0.0079
2997.00,0.0079
2996.00,0.0080
2995.00,0.0080
2994.00,0.0080
2993.00,0.0079
2992.00,0.0079
2991.00,0.0079
2990.00,0.0078
2989.00,0.0077
2988.00,0.0076
2987.00,0.0075
2986.00,0.0072
2985.00,0.0067
2984.00,0.0062
2983.00,0.0056
2982.00,0.0050
2981.00,0.0047
2980.00,0.0047
2979.00,0.0047
2978.00,0.0048
2977.00,0.0049
2976.00,0.0050
2975.00,0.0049
2974.00,0.0049
2973.00,0.0048
2972.00,0.0048
2971.00,0.0048
2970.00,0.0050
2969.00,0.0052
2968.00,0.0055
2967.00,0.0057
2966.00,0.0060
2965.00,0.0063
2964.00,0.0066
2963.00,0.0069
2962.00,0.0072
2961.00,0.0075
2960.00,0.0079
2959.00,0.0083
2958.00,0.0087
2957.00,0.0091
2956.00,0.0095
2955.00,0.0099
2954.00,0.0104
2953.00,0.0108
2952.00,0.0112
2951.00,0.0117
2950.00,0.0120
2949.00,0.0123
2948.00,0.0125
2947.00,0.0126
2946.00,0.0126
2945.00,0.0125
2944.00,0.0123
2943.00,0.0121
2942.00,0.0118
2941.00,0.0114
2940.00,0.0109
2939.00,0.0104
2938.00,0.0099
2937.00,0.0094
2936.00,0.0089
2935.00,0.0085
2934.00,0.0081
2933.00,0.0078
2932.00,0.0075
2931.00,0.0072
2930.00,0.0070
2929.00,0.0068
2928.00,0.0066
2927.00,0.0065
2926.00,0.0063
2925.00,0.0062
2924.00,0.0061
2923.00,0.0060
2922.00,0.0059
2921.00,0.0058
2920.00,0.0057
2919.00,0.0056
2918.00,0.0056
2917.00,0.0055
2916.00,0.0055
2915.00,0.0055
2914.00,0.0055
2913.00,0.0056
2912.00,0.0056
2911.00,0.0057
2910.00,0.0057
2909.00,0.0057
2908.00,0.0058
2907.00,0.0058
2906.00,0.0058
2905.00,0.0059
2904.00,0.0059
2903.00,0.0059
2902.00,0.0059
2901.00,0.0060
2900.00,0.0060
2899.00,0.0060
2898.00,0.0060
2897.00,0.0059
2896.00,0.0059
2895.00,0.0059
2894.00,0.0058
2893.00,0.0058
2892.00,0.0058
2891.00,0.0058
2890.00,0.0058
2889.00,0.0058
2888.00,0.0058
2887.00,0.0058
2886.00,0.0059
2885.00,0.0059
2884.00,0.0060
2883.00,0.0060
2882.00,0.0061
2881.00,0.0062
2880.00,0.0062
2879.00,0.0063
2878.00,0.0063
2877.00,0.0063
2876.00,0.0063
2875.00,0.0063
2874.00,0.0063
2873.00,0.0063
2872.00,0.0063
2871.00,0.0063
2870.00,0.0063
2869.00,0.0064
2868.00,0.0064
2867.00,0.0064
2866.00,0.0065
2865.00,0.0065
2864.00,0.0065
2863.00,0.0064
2862.00,0.0064
2861.00,0.0063
2860.00,0.0063
2859.00,0.0062
2858.00,0.0062
2857.00,0.0061
2856.00,0.0061
2855.00,0.0061
2854.00,0.0061
2853.00,0.0061
2852.00,0.0061
2851.00,0.0061
2850.00,0.0061
2849.00,0.0062
2848.00,0.0064
2847.00,0.0065
2846.00,0.0067
2845.00,0.0069
2844.00,0.0070
2843.00,0.0071
2842.00,0.0072
2841.00,0.0073
2840.00,0.0074
2839.00,0.0074
2838.00,0.0075
2837.00,0.0075
2836.00,0.0075
2835.00,0.0074
2834.00,0.0074
2833.00,0.0073
2832.00,0.0072
2831.00,0.0071
2830.00,0.0070
2829.00,0.0069
2828.00,0.0068
2827.00,0.0067
2826.00,0.0067
2825.00,0.0066
2824.00,0.0066
2823.00,0.0065
2822.00,0.0065
2821.00,0.0065
2820.00,0.0065
2819.00,0.0065
2818.00,0.0065
2817.00,0.0065
2816.00,0.0065
2815.00,0.0065
2814.00,0.0066
2813.00,0.0066
2812.00,0.0065
2811.00,0.0065
2810.00,0.0065
2809.00,0.0065
2808.00,0.0065
2807.00,0.0065
2806.00,0.0065
2805.00,0.0066
2804.00,0.0066
2803.00,0.0066
2802.00,0.0066
2801.00,0.0066
2800.00,0.0066
2799.00,0.0065
2798.00,0.0065
2797.00,0.0065
2796.00,0.0065
2795.00,0.0065
2794.00,0.0065
2793.00,0.0065
2792.00,0.0065
2791.00,0.0064
2790.00,0.0064
2789.00,0.0064
2788.00,0.0064
2787.00,0.0064
2786.00,0.0063
2785.00,0.0063
2784.00,0.0063
2783.00,0.0062
2782.00,0.0062
2781.00,0.0061
2780.00,0.0061
2779.00,0.0061
2778.00,0.0061
2777.00,0.0060
2776.00,0.0060
2775.00,0.0060
2774.00,0.0060
2773.00,0.0060
2772.00,0.0060
2771.00,0.0060
2770.00,0.0059
2769.00,0.0059
2768.00,0.0059
2767.00,0.0059
2766.00,0.0059
2765.00,0.0059
2764.00,0.0059
2763.00,0.0059
2762.00,0.0058
2761.00,0.0058
2760.00,0.0058
2759.00,0.0058
2758.00,0.0058
2757.00,0.0057
2756.00,0.0057
2755.00,0.0057
2754.00,0.0057
2753.00,0.0057
2752.00,0.0057
2751.00,0.0057
2750.00,0.0058
2749.00,0.0058
2748.00,0.0058
2747.00,0.0058
2746.00,0.0057
2745.00,0.0057
2744.00,0.0057
2743.00,0.0057
2742.00,0.0056
2741.00,0.0056
2740.00,0.0056
2739.00,0.0056
2738.00,0.0056
2737.00,0.0056
2736.00,0.0056
2735.00,0.0056
2734.00,0.0056
2733.00,0.0056
2732.00,0.0056
2731.00,0.0055
2730.00,0.0055
2729.00,0.0055
2728.00,0.0055
2727.00,0.0055
2726.00,0.0055
2725.00,0.0055
2724.00,0.0055
2723.00,0.0055
2722.00,0.0055
2721.00,0.0055
2720.00,0.0055
2719.00,0.0055
2718.00,0.0055
2717.00,0.0056
2716.00,0.0056
2715.00,0.0056
2714.00,0.0056
2713.00,0.0056
2712.00,0.0056
2711.00,0.0056
2710.00,0.0056
2709.00,0.0056
2708.00,0.0056
2707.00,0.0056
2706.00,0.0056
2705.00,0.0056
2704.00,0.0056
2703.00,0.0056
2702.00,0.0056
2701.00,0.0056
2700.00,0.0056
2699.00,0.0056
2698.00,0.0056
2697.00,0.0056
2696.00,0.0056
2695.00,0.0056
2694.00,0.0056
2693.00,0.0056
2692.00,0.0056
2691.00,0.0056
2690.00,0.0056
2689.00,0.0056
2688.00,0.0056
2687.00,0.0056
2686.00,0.0055
2685.00,0.0055
2684.00,0.0055
2683.00,0.0056
2682.00,0.0055
2681.00,0.0055
2680.00,0.0055
2679.00,0.0056
2678.00,0.0056
2677.00,0.0056
2676.00,0.0055
2675.00,0.0055
2674.00,0.0055
2673.00,0.0055
2672.00,0.0055
2671.00,0.0055
2670.00,0.0055
2669.00,0.0055
2668.00,0.0055
2667.00,0.0055
2666.00,0.0055
2665.00,0.0056
2664.00,0.0056
2663.00,0.0057
2662.00,0.0057
2661.00,0.0057
2660.00,0.0057
2659.00,0.0058
2658.00,0.0058
2657.00,0.0058
2656.00,0.0058
2655.00,0.0058
2654.00,0.0058
2653.00,0.0058
2652.00,0.0058
2651.00,0.0058
2650.00,0.0058
2649.00,0.0058
2648.00,0.0058
2647.00,0.0058
2646.00,0.0059
2645.00,0.0058
2644.00,0.0058
2643.00,0.0058
2642.00,0.0058
2641.00,0.0058
2640.00,0.0058
2639.00,0.0058
2638.00,0.0058
2637.00,0.0058
2636.00,0.0058
2635.00,0.0057
2634.00,0.0057
2633.00,0.0057
2632.00,0.0057
2631.00,0.0057
2630.00,0.0057
2629.00,0.0057
2628.00,0.0057
2627.00,0.0057
2626.00,0.0057
2625.00,0.0057
2624.00,0.0057
2623.00,0.0057
2622.00,0.0056
2621.00,0.0057
2620.00,0.0057
2619.00,0.0057
2618.00,0.0057
2617.00,0.0057
2616.00,0.0057
2615.00,0.0057
2614.00,0.0057
2613.00,0.0057
2612.00,0.0057
2611.00,0.0057
2610.00,0.0057
2609.00,0.0057
2608.00,0.0057
2607.00,0.0057
2606.00,0.0057
2605.00,0.0057
2604.00,0.0058
2603.00,0.0058
2602.00,0.0057
2601.00,0.0057
2600.00,0.0057
2599.00,0.0057
2598.00,0.0057
2597.00,0.0057
2596.00,0.0056
2595.00,0.0056
2594.00,0.0056
2593.00,0.0056
2592.00,0.0055
2591.00,0.0055
2590.00,0.0055
2589.00,0.0055
2588.00,0.0055
2587.00,0.0055
2586.00,0.0055
2585.00,0.0055
2584.00,0.0055
2583.00,0.0055
2582.00,0.0054
2581.00,0.0054
2580.00,0.0054
2579.00,0.0054
2578.00,0.0054
2577.00,0.0054
2576.00,0.0054
2575.00,0.0054
2574.00,0.0054
2573.00,0.0054
2572.00,0.0054
2571.00,0.0053
2570.00,0.0053
2569.00,0.0053
2568.00,0.0053
2567.00,0.0053
2566.00,0.0053
2565.00,0.0052
2564.00,0.0052
2563.00,0.0052
2562.00,0.0052
2561.00,0.0052
2560.00,0.0052
2559.00,0.0051
2558.00,0.0051
2557.00,0.0051
2556.00,0.0051
2555.00,0.0051
2554.00,0.0051
2553.00,0.0051
2552.00,0.0052
2551.00,0.0052
2550.00,0.0052
2549.00,0.0052
2548.00,0.0051
2547.00,0.0051
2546.00,0.0051
2545.00,0.0052
2544.00,0.0052
2543.00,0.0052
2542.00,0.0052
2541.00,0.0052
2540.00,0.0052
2539.00,0.0052
2538.00,0.0052
2537.00,0.0052
2536.00,0.0053
2535.00,0.0052
2534.00,0.0052
2533.00,0.0052
2532.00,0.0052
2531.00,0.0052
2530.00,0.0052
2529.00,0.0052
2528.00,0.0052
2527.00,0.0052
2526.00,0.0052
2525.00,0.0052
2524.00,0.0052
2523.00,0.0052
2522.00,0.0052
2521.00,0.0052
2520.00,0.0052
2519.00,0.0052
2518.00,0.0052
2517.00,0.0052
2516.00,0.0052
2515.00,0.0051
2514.00,0.0051
2513.00,0.0051
2512.00,0.0051
2511.00,0.0051
2510.00,0.0052
2509.00,0.0052
2508.00,0.0052
2507.00,0.0052
2506.00,0.0052
2505.00,0.0052
2504.00,0.0052
2503.00,0.0051
2502.00,0.0051
2501.00,0.0051
2500.00,0.0051
2499.00,0.0051
2498.00,0.0051
2497.00,0.0051
2496.00,0.0051
2495.00,0.0051
2494.00,0.0051
2493.00,0.0051
2492.00,0.0051
2491.00,0.0051
2490.00,0.0051
2489.00,0.0051
2488.00,0.0051
2487.00,0.0051
2486.00,0.0051
2485.00,0.0052
2484.00,0.0052
2483.00,0.0052
2482.00,0.0052
2481.00,0.0051
2480.00,0.0051
2479.00,0.0051
2478.00,0.0051
2477.00,0.0051
2476.00,0.0050
2475.00,0.0050
2474.00,0.0050
2473.00,0.0050
2472.00,0.0050
2471.00,0.0050
2470.00,0.0050
2469.00,0.0050
2468.00,0.0050
2467.00,0.0050
2466.00,0.0050
2465.00,0.0050
2464.00,0.0050
2463.00,0.0050
2462.00,0.0050
2461.00,0.0051
2460.00,0.0051
2459.00,0.0052
2458.00,0.0052
2457.00,0.0051
2456.00,0.0051
2455.00,0.0051
2454.00,0.0051
2453.00,0.0051
2452.00,0.0051
2451.00,0.0051
2450.00,0.0051
2449.00,0.0051
2448.00,0.0051
2447.00,0.0050
2446.00,0.0050
2445.00,0.0050
2444.00,0.0050
2443.00,0.0050
2442.00,0.0050
2441.00,0.0050
2440.00,0.0050
2439.00,0.0050
2438.00,0.0051
2437.00,0.0051
2436.00,0.0051
2435.00,0.0051
2434.00,0.0050
2433.00,0.0050
2432.00,0.0050
2431.00,0.0050
2430.00,0.0050
2429.00,0.0050
2428.00,0.0050
2427.00,0.0050
2426.00,0.0049
2425.00,0.0049
2424.00,0.0049
2423.00,0.0049
2422.00,0.0049
2421.00,0.0049
2420.00,0.0049
2419.00,0.0048
2418.00,0.0048
2417.00,0.0048
2416.00,0.0048
2415.00,0.0048
2414.00,0.0048
2413.00,0.0049
2412.00,0.0049
2411.00,0.0049
2410.00,0.0049
2409.00,0.0049
2408.00,0.0048
2407.00,0.0048
2406.00,0.0047
2405.00,0.0047
2404.00,0.0047
2403.00,0.0047
2402.00,0.0047
2401.00,0.0048
2400.00,0.0048
2399.00,0.0048
2398.00,0.0047
2397.00,0.0047
2396.00,0.0047
2395.00,0.0047
2394.00,0.0047
2393.00,0.0047
2392.00,0.0047
2391.00,0.0046
2390.00,0.0046
2389.00,0.0046
2388.00,0.0046
2387.00,0.0046
2386.00,0.0046
2385.00,0.0046
2384.00,0.0045
2383.00,0.0045
2382.00,0.0044
2381.00,0.0044
2380.00,0.0044
2379.00,0.0045
2378.00,0.0045
2377.00,0.0045
2376.00,0.0045
2375.00,0.0045
2374.00,0.0045
2373.00,0.0044
2372.00,0.0044
2371.00,0.0044
2370.00,0.0044
2369.00,0.0044
2368.00,0.0044
2367.00,0.0043
2366.00,0.0043
2365.00,0.0044
2364.00,0.0045
2363.00,0.0046
2362.00,0.0046
2361.00,0.0046
2360.00,0.0045
2359.00,0.0046
2358.00,0.0046
2357.00,0.0045
2356.00,0.0045
2355.00,0.0044
2354.00,0.0043
2353.00,0.0042
2352.00,0.0042
2351.00,0.0044
2350.00,0.0045
2349.00,0.0045
2348.00,0.0046
2347.00,0.0045
2346.00,0.0045
2345.00,0.0045
2344.00,0.0046
2343.00,0.0046
2342.00,0.0046
2341.00,0.0046
2340.00,0.0046
2339.00,0.0046
2338.00,0.0046
2337.00,0.0046
2336.00,0.0046
2335.00,0.0047
2334.00,0.0046
2333.00,0.0045
2332.00,0.0045
2331.00,0.0044
2330.00,0.0045
2329.00,0.0046
2328.00,0.0049
2327.00,0.0051
2326.00,0.0053
2325.00,0.0054
2324.00,0.0053
2323.00,0.0052
2322.00,0.0050
2321.00,0.0049
2320.00,0.0048
2319.00,0.0048
2318.00,0.0048
2317.00,0.0047
2316.00,0.0047
2315.00,0.0047
2314.00,0.0046
2313.00,0.0046
2312.00,0.0045
2311.00,0.0045
2310.00,0.0045
2309.00,0.0045
2308.00,0.0046
2307.00,0.0046
2306.00,0.0046
2305.00,0.0046
2304.00,0.0046
2303.00,0.0047
2302.00,0.0047
2301.00,0.0047
2300.00,0.0047
2299.00,0.0048
2298.00,0.0048
2297.00,0.0048
2296.00,0.0049
2295.00,0.0049
2294.00,0.0050
2293.00,0.0051
2292.00,0.0051
2291.00,0.0052
2290.00,0.0052
2289.00,0.0052
2288.00,0.0052
2287.00,0.0052
2286.00,0.0052
2285.00,0.0052
2284.00,0.0053
2283.00,0.0053
2282.00,0.0053
2281.00,0.0052
2280.00,0.0052
2279.00,0.0051
2278.00,0.0051
2277.00,0.0050
2276.00,0.0050
2275.00,0.0050
2274.00,0.0050
2273.00,0.0049
2272.00,0.0049
2271.00,0.0049
2270.00,0.0049
2269.00,0.0049
2268.00,0.0049
2267.00,0.0049
2266.00,0.0048
2265.00,0.0048
2264.00,0.0048
2263.00,0.0047
2262.00,0.0047
2261.00,0.0047
2260.00,0.0047
2259.00,0.0046
2258.00,0.0045
2257.00,0.0045
2256.00,0.0044
2255.00,0.0044
2254.00,0.0044
2253.00,0.0045
2252.00,0.0045
2251.00,0.0045
2250.00,0.0045
2249.00,0.0045
2248.00,0.0045
2247.00,0.0045
2246.00,0.0045
2245.00,0.0045
2244.00,0.0043
2243.00,0.0042
2242.00,0.0041
2241.00,0.0041
2240.00,0.0042
2239.00,0.0043
2238.00,0.0042
2237.00,0.0042
2236.00,0.0041
2235.00,0.0041
2234.00,0.0041
2233.00,0.0040
2232.00,0.0040
2231.00,0.0040
2230.00,0.0040
2229.00,0.0040
2228.00,0.0041
2227.00,0.0041
2226.00,0.0041
2225.00,0.0041
2224.00,0.0041
2223.00,0.0041
2222.00,0.0040
2221.00,0.0040
2220.00,0.0041
2219.00,0.0041
2218.00,0.0041
2217.00,0.0041
2216.00,0.0040
2215.00,0.0040
2214.00,0.0041
2213.00,0.0041
2212.00,0.0041
2211.00,0.0041
2210.00,0.0041
2209.00,0.0042
2208.00,0.0042
2207.00,0.0042
2206.00,0.0042
2205.00,0.0042
2204.00,0.0042
2203.00,0.0043
2202.00,0.0042
2201.00,0.0042
2200.00,0.0043
2199.00,0.0043
2198.00,0.0042
2197.00,0.0042
2196.00,0.0040
2195.00,0.0039
2194.00,0.0038
2193.00,0.0038
2192.00,0.0039
2191.00,0.0040
2190.00,0.0041
2189.00,0.0041
2188.00,0.0040
2187.00,0.0040
2186.00,0.0039
2185.00,0.0038
2184.00,0.0038
2183.00,0.0037
2182.00,0.0036
2181.00,0.0035
2180.00,0.0035
2179.00,0.0035
2178.00,0.0035
2177.00,0.0034
2176.00,0.0035
2175.00,0.0036
2174.00,0.0037
2173.00,0.0038
2172.00,0.0039
2171.00,0.0041
2170.00,0.0042
2169.00,0.0043
2168.00,0.0043
2167.00,0.0044
2166.00,0.0044
2165.00,0.0046
2164.00,0.0049
2163.00,0.0049
2162.00,0.0046
2161.00,0.0038
2160.00,0.0028
2159.00,0.0019
2158.00,0.0013
2157.00,0.0013
2156.00,0.0016
2155.00,0.0021
2154.00,0.0024
2153.00,0.0026
2152.00,0.0027
2151.00,0.0027
2150.00,0.0028
2149.00,0.0029
2148.00,0.0029
2147.00,0.0029
2146.00,0.0028
2145.00,0.0028
2144.00,0.0028
2143.00,0.0029
2142.00,0.0030
2141.00,0.0031
2140.00,0.0032
2139.00,0.0032
2138.00,0.0031
2137.00,0.0029
2136.00,0.0028
2135.00,0.0026
2134.00,0.0024
2133.00,0.0024
2132.00,0.0025
2131.00,0.0026
2130.00,0.0027
2129.00,0.0028
2128.00,0.0029
2127.00,0.0030
2126.00,0.0032
2125.00,0.0033
2124.00,0.0035
2123.00,0.0036
2122.00,0.0036
2121.00,0.0036
2120.00,0.0036
2119.00,0.0037
2118.00,0.0038
2117.00,0.0038
2116.00,0.0039
2115.00,0.0039
2114.00,0.0039
2113.00,0.0040
2112.00,0.0040
2111.00,0.0040
2110.00,0.0039
2109.00,0.0038
2108.00,0.0038
2107.00,0.0038
2106.00,0.0037
2105.00,0.0037
2104.00,0.0037
2103.00,0.0038
2102.00,0.0038
2101.00,0.0038
2100.00,0.0038
2099.00,0.0037
2098.00,0.0036
2097.00,0.0035
2096.00,0.0035
2095.00,0.0035
2094.00,0.0035
2093.00,0.0036
2092.00,0.0037
2091.00,0.0038
2090.00,0.0038
2089.00,0.0039
2088.00,0.0039
2087.00,0.0039
2086.00,0.0039
2085.00,0.0040
2084.00,0.0041
2083.00,0.0041
2082.00,0.0041
2081.00,0.0041
2080.00,0.0041
2079.00,0.0041
2078.00,0.0040
2077.00,0.0040
2076.00,0.0040
2075.00,0.0039
2074.00,0.0040
2073.00,0.0040
2072.00,0.0041
2071.00,0.0041
2070.00,0.0041
2069.00,0.0040
2068.00,0.0040
2067.00,0.0040
2066.00,0.0040
2065.00,0.0040
2064.00,0.0039
2063.00,0.0038
2062.00,0.0036
2061.00,0.0035
2060.00,0.0035
2059.00,0.0036
2058.00,0.0037
2057.00,0.0037
2056.00,0.0038
2055.00,0.0038
2054.00,0.0040
2053.00,0.0042
2052.00,0.0044
2051.00,0.0043
2050.00,0.0041
2049.00,0.0037
2048.00,0.0034
2047.00,0.0033
2046.00,0.0033
2045.00,0.0032
2044.00,0.0032
2043.00,0.0031
2042.00,0.0031
2041.00,0.0032
2040.00,0.0033
2039.00,0.0033
2038.00,0.0031
2037.00,0.0030
2036.00,0.0030
2035.00,0.0029
2034.00,0.0028
2033.00,0.0027
2032.00,0.0026
2031.00,0.0026
2030.00,0.0026
2029.00,0.0027
2028.00,0.0029
2027.00,0.0030
2026.00,0.0030
2025.00,0.0029
2024.00,0.0029
2023.00,0.0029
2022.00,0.0029
2021.00,0.0028
2020.00,0.0027
2019.00,0.0027
2018.00,0.0028
2017.00,0.0029
2016.00,0.0030
2015.00,0.0029
2014.00,0.0029
2013.00,0.0029
2012.00,0.0030
2011.00,0.0031
2010.00,0.0031
2009.00,0.0029
2008.00,0.0028
2007.00,0.0027
2006.00,0.0027
2005.00,0.0027
2004.00,0.0027
2003.00,0.0027
2002.00,0.0027
2001.00,0.0028
2000.00,0.0030
1999.00,0.0032
1998.00,0.0032
1997.00,0.0032
1996.00,0.0033
1995.00,0.0034
1994.00,0.0034
1993.00,0.0035
1992.00,0.0036
1991.00,0.0038
1990.00,0.0039
1989.00,0.0039
1988.00,0.0040
1987.00,0.0041
1986.00,0.0042
1985.00,0.0042
1984.00,0.0042
1983.00,0.0043
1982.00,0.0045
1981.00,0.0046
1980.00,0.0045
1979.00,0.0042
1978.00,0.0038
1977.00,0.0034
1976.00,0.0032
1975.00,0.0032
1974.00,0.0032
1973.00,0.0031
1972.00,0.0030
1971.00,0.0029
1970.00,0.0028
1969.00,0.0028
1968.00,0.0029
1967.00,0.0030
1966.00,0.0030
1965.00,0.0029
1964.00,0.0028
1963.00,0.0027
1962.00,0.0025
1961.00,0.0025
1960.00,0.0025
1959.00,0.0025
1958.00,0.0026
1957.00,0.0027
1956.00,0.0028
1955.00,0.0029
1954.00,0.0030
1953.00,0.0030
1952.00,0.0031
1951.00,0.0031
1950.00,0.0031
1949.00,0.0031
1948.00,0.0031
1947.00,0.0031
1946.00,0.0031
1945.00,0.0031
1944.00,0.0031
1943.00,0.0033
1942.00,0.0034
1941.00,0.0035
1940.00,0.0035
1939.00,0.0034
1938.00,0.0033
1937.00,0.0033
1936.00,0.0033
1935.00,0.0034
1934.00,0.0034
1933.00,0.0035
1932.00,0.0035
1931.00,0.0035
1930.00,0.0035
1929.00,0.0034
1928.00,0.0034
1927.00,0.0034
1926.00,0.0034
1925.00,0.0033
1924.00,0.0034
1923.00,0.0034
1922.00,0.0035
1921.00,0.0035
1920.00,0.0035
1919.00,0.0036
1918.00,0.0036
1917.00,0.0037
1916.00,0.0037
1915.00,0.0036
1914.00,0.0035
1913.00,0.0035
1912.00,0.0035
1911.00,0.0035
1910.00,0.0036
1909.00,0.0036
1908.00,0.0037
1907.00,0.0037
1906.00,0.0037
1905.00,0.0036
1904.00,0.0037
1903.00,0.0037
1902.00,0.0037
1901.00,0.0036
1900.00,0.0036
1899.00,0.0036
1898.00,0.0035
1897.00,0.0035
1896.00,0.0035
1895.00,0.0035
1894.00,0.0034
1893.00,0.0034
1892.00,0.0033
1891.00,0.0033
1890.00,0.0033
1889.00,0.0034
1888.00,0.0034
1887.00,0.0034
1886.00,0.0033
1885.00,0.0032
1884.00,0.0032
1883.00,0.0032
1882.00,0.0032
1881.00,0.0032
1880.00,0.0033
1879.00,0.0033
1878.00,0.0033
1877.00,0.0033
1876.00,0.0033
1875.00,0.0033
1874.00,0.0033
1873.00,0.0032
1872.00,0.0031
1871.00,0.0030
1870.00,0.0030
1869.00,0.0031
1868.00,0.0032
1867.00,0.0034
1866.00,0.0034
1865.00,0.0033
1864.00,0.0033
1863.00,0.0033
1862.00,0.0033
1861.00,0.0033
1860.00,0.0033
1859.00,0.0033
1858.00,0.0033
1857.00,0.0032
1856.00,0.0032
1855.00,0.0032
1854.00,0.0031
1853.00,0.0031
1852.00,0.0031
1851.00,0.0030
1850.00,0.0030
1849.00,0.0030
1848.00,0.0030
1847.00,0.0030
1846.00,0.0029
1845.00,0.0030
1844.00,0.0032
1843.00,0.0035
1842.00,0.0035
1841.00,0.0034
1840.00,0.0032
1839.00,0.0032
1838.00,0.0032
1837.00,0.0032
1836.00,0.0033
1835.00,0.0033
1834.00,0.0033
1833.00,0.0032
1832.00,0.0031
1831.00,0.0030
1830.00,0.0030
1829.00,0.0032
1828.00,0.0033
1827.00,0.0033
1826.00,0.0033
1825.00,0.0034
1824.00,0.0035
1823.00,0.0035
1822.00,0.0033
1821.00,0.0032
1820.00,0.0031
1819.00,0.0030
1818.00,0.0030
1817.00,0.0029
1816.00,0.0029
1815.00,0.0029
1814.00,0.0029
1813.00,0.0028
1812.00,0.0028
1811.00,0.0028
1810.00,0.0029
1809.00,0.0030
1808.00,0.0030
1807.00,0.0031
1806.00,0.0031
1805.00,0.0031
1804.00,0.0031
1803.00,0.0032
1802.00,0.0032
1801.00,0.0031
1800.00,0.0031
1799.00,0.0031
1798.00,0.0031
1797.00,0.0031
1796.00,0.0030
1795.00,0.0029
1794.00,0.0029
1793.00,0.0030
1792.00,0.0033
1791.00,0.0036
1790.00,0.0037
1789.00,0.0036
1788.00,0.0035
1787.00,0.0034
1786.00,0.0034
1785.00,0.0035
1784.00,0.0035
1783.00,0.0034
1782.00,0.0033
1781.00,0.0033
1780.00,0.0034
1779.00,0.0034
1778.00,0.0034
1777.00,0.0033
1776.00,0.0032
1775.00,0.0030
1774.00,0.0028
1773.00,0.0028
1772.00,0.0030
1771.00,0.0035
1770.00,0.0038
1769.00,0.0039
1768.00,0.0040
1767.00,0.0041
1766.00,0.0040
1765.00,0.0038
1764.00,0.0037
1763.00,0.0037
1762.00,0.0038
1761.00,0.0040
1760.00,0.0041
1759.00,0.0041
1758.00,0.0041
1757.00,0.0042
1756.00,0.0043
1755.00,0.0044
1754.00,0.0043
1753.00,0.0043
1752.00,0.0044
1751.00,0.0046
1750.00,0.0047
1749.00,0.0048
1748.00,0.0050
1747.00,0.0052
1746.00,0.0054
1745.00,0.0057
1744.00,0.0060
1743.00,0.0063
1742.00,0.0066
1741.00,0.0070
1740.00,0.0076
1739.00,0.0083
1738.00,0.0088
1737.00,0.0091
1736.00,0.0095
1735.00,0.0100
1734.00,0.0107
1733.00,0.0114
1732.00,0.0117
1731.00,0.0118
1730.00,0.0118
1729.00,0.0118
1728.00,0.0118
1727.00,0.0117
1726.00,0.0116
1725.00,0.0114
1724.00,0.0114
1723.00,0.0114
1722.00,0.0114
1721.00,0.0114
1720.00,0.0115
1719.00,0.0119
1718.00,0.0126
1717.00,0.0138
1716.00,0.0153
1715.00,0.0170
1714.00,0.0188
1713.00,0.0208
1712.00,0.0233
1711.00,0.0261
1710.00,0.0295
1709.00,0.0333
1708.00,0.0375
1707.00,0.0421
1706.00,0.0470
1705.00,0.0517
1704.00,0.0558
1703.00,0.0595
1702.00,0.0626
1701.00,0.0643
1700.00,0.0640
1699.00,0.0629
1698.00,0.0615
1697.00,0.0593
1696.00,0.0557
1695.00,0.0515
1694.00,0.0482
1693.00,0.0460
1692.00,0.0444
1691.00,0.0430
1690.00,0.0419
1689.00,0.0411
1688.00,0.0406
1687.00,0.0405
1686.00,0.0406
1685.00,0.0406
1684.00,0.0403
1683.00,0.0403
1682.00,0.0408
1681.00,0.0417
1680.00,0.0427
1679.00,0.0439
1678.00,0.0453
1677.00,0.0470
1676.00,0.0489
1675.00,0.0511
1674.00,0.0533
1673.00,0.0555
1672.00,0.0578
1671.00,0.0600
1670.00,0.0617
1669.00,0.0628
1668.00,0.0634
1667.00,0.0638
1666.00,0.0640
1665.00,0.0638
1664.00,0.0631
1663.00,0.0617
1662.00,0.0601
1661.00,0.0587
1660.00,0.0577
1659.00,0.0569
1658.00,0.0564
1657.00,0.0562
1656.00,0.0564
1655.00,0.0565
1654.00,0.0562
1653.00,0.0553
1652.00,0.0548
1651.00,0.0550
1650.00,0.0554
1649.00,0.0556
1648.00,0.0552
1647.00,0.0539
1646.00,0.0524
1645.00,0.0510
1644.00,0.0499
1643.00,0.0489
1642.00,0.0479
1641.00,0.0466
1640.00,0.0453
1639.00,0.0440
1638.00,0.0428
1637.00,0.0414
1636.00,0.0400
1635.00,0.0389
1634.00,0.0383
1633.00,0.0381
1632.00,0.0381
1631.00,0.0383
1630.00,0.0385
1629.00,0.0387
1628.00,0.0390
1627.00,0.0393
1626.00,0.0396
1625.00,0.0397
1624.00,0.0396
1623.00,0.0392
1622.00,0.0387
1621.00,0.0382
1620.00,0.0376
1619.00,0.0369
1618.00,0.0359
1617.00,0.0347
1616.00,0.0335
1615.00,0.0327
1614.00,0.0322
1613.00,0.0318
1612.00,0.0316
1611.00,0.0315
1610.00,0.0315
1609.00,0.0316
1608.00,0.0317
1607.00,0.0316
1606.00,0.0313
1605.00,0.0306
1604.00,0.0297
1603.00,0.0284
1602.00,0.0270
1601.00,0.0255
1600.00,0.0241
1599.00,0.0227
1598.00,0.0214
1597.00,0.0203
1596.00,0.0194
1595.00,0.0186
1594.00,0.0179
1593.00,0.0174
1592.00,0.0170
1591.00,0.0166
1590.00,0.0162
1589.00,0.0159
1588.00,0.0156
1587.00,0.0152
1586.00,0.0149
1585.00,0.0147
1584.00,0.0146
1583.00,0.0145
1582.00,0.0147
1581.00,0.0151
1580.00,0.0155
1579.00,0.0159
1578.00,0.0161
1577.00,0.0163
1576.00,0.0163
1575.00,0.0161
1574.00,0.0157
1573.00,0.0152
1572.00,0.0145
1571.00,0.0139
1570.00,0.0134
1569.00,0.0133
1568.00,0.0132
1567.00,0.0131
1566.00,0.0130
1565.00,0.0130
1564.00,0.0131
1563.00,0.0132
1562.00,0.0131
1561.00,0.0129
1560.00,0.0127
1559.00,0.0129
1558.00,0.0135
1557.00,0.0140
1556.00,0.0141
1555.00,0.0141
1554.00,0.0142
1553.00,0.0144
1552.00,0.0144
1551.00,0.0144
1550.00,0.0145
1549.00,0.0146
1548.00,0.0148
1547.00,0.0150
1546.00,0.0154
1545.00,0.0158
1544.00,0.0164
1543.00,0.0169
1542.00,0.0177
1541.00,0.0191
1540.00,0.0216
1539.00,0.0250
1538.00,0.0283
1537.00,0.0312
1536.00,0.0340
1535.00,0.0372
1534.00,0.0409
1533.00,0.0450
1532.00,0.0490
1531.00,0.0527
1530.00,0.0565
1529.00,0.0601
1528.00,0.0634
1527.00,0.0660
1526.00,0.0676
1525.00,0.0682
1524.00,0.0681
1523.00,0.0672
1522.00,0.0652
1521.00,0.0623
1520.00,0.0595
1519.00,0.0571
1518.00,0.0547
1517.00,0.0517
1516.00,0.0485
1515.00,0.0457
1514.00,0.0436
1513.00,0.0417
1512.00,0.0401
1511.00,0.0389
1510.00,0.0382
1509.00,0.0378
1508.00,0.0377
1507.00,0.0383
1506.00,0.0399
1505.00,0.0421
1504.00,0.0444
1503.00,0.0470
1502.00,0.0499
1501.00,0.0530
1500.00,0.0560
1499.00,0.0590
1498.00,0.0617
1497.00,0.0642
1496.00,0.0662
1495.00,0.0681
1494.00,0.0700
1493.00,0.0719
1492.00,0.0734
1491.00,0.0745
1490.00,0.0750
1489.00,0.0748
1488.00,0.0743
1487.00,0.0736
1486.00,0.0728
1485.00,0.0717
1484.00,0.0702
1483.00,0.0684
1482.00,0.0662
1481.00,0.0635
1480.00,0.0609
1479.00,0.0587
1478.00,0.0567
1477.00,0.0546
1476.00,0.0525
1475.00,0.0506
1474.00,0.0486
1473.00,0.0462
1472.00,0.0436
1471.00,0.0415
1470.00,0.0398
1469.00,0.0386
1468.00,0.0374
1467.00,0.0364
1466.00,0.0353
1465.00,0.0342
1464.00,0.0334
1463.00,0.0330
1462.00,0.0329
1461.00,0.0330
1460.00,0.0331
1459.00,0.0332
1458.00,0.0332
1457.00,0.0331
1456.00,0.0328
1455.00,0.0327
1454.00,0.0327
1453.00,0.0328
1452.00,0.0331
1451.00,0.0335
1450.00,0.0340
1449.00,0.0347
1448.00,0.0356
1447.00,0.0368
1446.00,0.0381
1445.00,0.0395
1444.00,0.0408
1443.00,0.0421
1442.00,0.0431
1441.00,0.0441
1440.00,0.0452
1439.00,0.0467
1438.00,0.0490
1437.00,0.0523
1436.00,0.0565
1435.00,0.0609
1434.00,0.0653
1433.00,0.0694
1432.00,0.0727
1431.00,0.0747
1430.00,0.0750
1429.00,0.0739
1428.00,0.0715
1427.00,0.0681
1426.00,0.0640
1425.00,0.0592
1424.00,0.0543
1423.00,0.0498
1422.00,0.0462
1421.00,0.0433
1420.00,0.0405
1419.00,0.0376
1418.00,0.0351
1417.00,0.0331
1416.00,0.0313
1415.00,0.0297
1414.00,0.0281
1413.00,0.0266
1412.00,0.0252
1411.00,0.0239
1410.00,0.0228
1409.00,0.0219
1408.00,0.0211
1407.00,0.0205
1406.00,0.0199
1405.00,0.0194
1404.00,0.0189
1403.00,0.0185
1402.00,0.0182
1401.00,0.0180
1400.00,0.0180
1399.00,0.0181
1398.00,0.0183
1397.00,0.0186
1396.00,0.0191
1395.00,0.0198
1394.00,0.0206
1393.00,0.0214
1392.00,0.0221
1391.00,0.0228
1390.00,0.0235
1389.00,0.0244
1388.00,0.0255
1387.00,0.0272
1386.00,0.0293
1385.00,0.0315
1384.00,0.0333
1383.00,0.0343
1382.00,0.0341
1381.00,0.0330
1380.00,0.0312
1379.00,0.0291
1378.00,0.0270
1377.00,0.0251
1376.00,0.0234
1375.00,0.0220
1374.00,0.0209
1373.00,0.0201
1372.00,0.0196
1371.00,0.0195
1370.00,0.0196
1369.00,0.0200
1368.00,0.0206
1367.00,0.0215
1366.00,0.0227
1365.00,0.0242
1364.00,0.0259
1363.00,0.0280
1362.00,0.0303
1361.00,0.0327
1360.00,0.0351
1359.00,0.0375
1358.00,0.0400
1357.00,0.0425
1356.00,0.0448
1355.00,0.0469
1354.00,0.0489
1353.00,0.0506
1352.00,0.0521
1351.00,0.0535
1350.00,0.0549
1349.00,0.0563
1348.00,0.0577
1347.00,0.0588
1346.00,0.0597
1345.00,0.0602
1344.00,0.0603
1343.00,0.0602
1342.00,0.0599
1341.00,0.0594
1340.00,0.0587
1339.00,0.0578
1338.00,0.0568
1337.00,0.0559
1336.00,0.0551
1335.00,0.0546
1334.00,0.0546
1333.00,0.0552
1332.00,0.0563
1331.00,0.0576
1330.00,0.0586
1329.00,0.0588
1328.00,0.0582
1327.00,0.0568
1326.00,0.0549
1325.00,0.0526
1324.00,0.0503
1323.00,0.0481
1322.00,0.0463
1321.00,0.0448
1320.00,0.0437
1319.00,0.0430
1318.00,0.0427
1317.00,0.0429
1316.00,0.0434
1315.00,0.0442
1314.00,0.0454
1313.00,0.0471
1312.00,0.0492
1311.00,0.0518
1310.00,0.0549
1309.00,0.0582
1308.00,0.0613
1307.00,0.0639
1306.00,0.0657
1305.00,0.0665
1304.00,0.0664
1303.00,0.0658
1302.00,0.0647
1301.00,0.0632
1300.00,0.0615
1299.00,0.0595
1298.00,0.0574
1297.00,0.0553
1296.00,0.0532
1295.00,0.0512
1294.00,0.0496
1293.00,0.0483
1292.00,0.0474
1291.00,0.0470
1290.00,0.0468
1289.00,0.0469
1288.00,0.0471
1287.00,0.0472
1286.00,0.0474
1285.00,0.0475
1284.00,0.0476
1283.00,0.0477
1282.00,0.0479
1281.00,0.0481
1280.00,0.0483
1279.00,0.0484
1278.00,0.0483
1277.00,0.0481
1276.00,0.0478
1275.00,0.0474
1274.00,0.0468
1273.00,0.0463
1272.00,0.0457
1271.00,0.0452
1270.00,0.0447
1269.00,0.0442
1268.00,0.0436
1267.00,0.0429
1266.00,0.0420
1265.00,0.0410
1264.00,0.0397
1263.00,0.0383
1262.00,0.0369
1261.00,0.0355
1260.00,0.0341
1259.00,0.0329
1258.00,0.0319
1257.00,0.0310
1256.00,0.0302
1255.00,0.0297
1254.00,0.0293
1253.00,0.0292
1252.00,0.0293
1251.00,0.0298
1250.00,0.0307
1249.00,0.0321
1248.00,0.0339
1247.00,0.0362
1246.00,0.0389
1245.00,0.0419
1244.00,0.0450
1243.00,0.0482
1242.00,0.0514
1241.00,0.0544
1240.00,0.0570
1239.00,0.0590
1238.00,0.0600
1237.00,0.0600
1236.00,0.0590
1235.00,0.0573
1234.00,0.0554
1233.00,0.0537
1232.00,0.0526
1231.00,0.0521
1230.00,0.0524
1229.00,0.0534
1228.00,0.0553
1227.00,0.0578
1226.00,0.0612
1225.00,0.0651
1224.00,0.0693
1223.00,0.0738
1222.00,0.0781
1221.00,0.0821
1220.00,0.0857
1219.00,0.0887
1218.00,0.0911
1217.00,0.0929
1216.00,0.0941
1215.00,0.0947
1214.00,0.0947
1213.00,0.0943
1212.00,0.0932
1211.00,0.0916
1210.00,0.0894
1209.00,0.0868
1208.00,0.0838
1207.00,0.0805
1206.00,0.0770
1205.00,0.0734
1204.00,0.0698
1203.00,0.0663
1202.00,0.0630
1201.00,0.0600
1200.00,0.0574
1199.00,0.0552
1198.00,0.0535
1197.00,0.0525
1196.00,0.0521
1195.00,0.0523
1194.00,0.0533
1193.00,0.0549
1192.00,0.0571
1191.00,0.0599
1190.00,0.0631
1189.00,0.0665
1188.00,0.0695
1187.00,0.0716
1186.00,0.0724
1185.00,0.0719
1184.00,0.0704
1183.00,0.0685
1182.00,0.0665
1181.00,0.0646
1180.00,0.0627
1179.00,0.0606
1178.00,0.0582
1177.00,0.0553
1176.00,0.0522
1175.00,0.0489
1174.00,0.0458
1173.00,0.0429
1172.00,0.0404
1171.00,0.0383
1170.00,0.0367
1169.00,0.0354
1168.00,0.0345
1167.00,0.0340
1166.00,0.0339
1165.00,0.0341
1164.00,0.0346
1163.00,0.0351
1162.00,0.0356
1161.00,0.0357
1160.00,0.0356
1159.00,0.0351
1158.00,0.0346
1157.00,0.0339
1156.00,0.0334
1155.00,0.0331
1154.00,0.0335
1153.00,0.0347
1152.00,0.0368
1151.00,0.0397
1150.00,0.0431
1149.00,0.0465
1148.00,0.0492
1147.00,0.0511
1146.00,0.0521
1145.00,0.0521
1144.00,0.0514
1143.00,0.0501
1142.00,0.0485
1141.00,0.0468
1140.00,0.0455
1139.00,0.0446
1138.00,0.0443
1137.00,0.0442
1136.00,0.0442
1135.00,0.0439
1134.00,0.0433
1133.00,0.0426
1132.00,0.0418
1131.00,0.0413
1130.00,0.0414
1129.00,0.0421
1128.00,0.0434
1127.00,0.0455
1126.00,0.0484
1125.00,0.0521
1124.00,0.0564
1123.00,0.0611
1122.00,0.0661
1121.00,0.0710
1120.00,0.0757
1119.00,0.0798
1118.00,0.0833
1117.00,0.0858
1116.00,0.0870
1115.00,0.0871
1114.00,0.0861
1113.00,0.0843
1112.00,0.0819
1111.00,0.0792
1110.00,0.0764
1109.00,0.0739
1108.00,0.0716
1107.00,0.0699
1106.00,0.0687
1105.00,0.0680
1104.00,0.0678
1103.00,0.0681
1102.00,0.0688
1101.00,0.0698
1100.00,0.0711
1099.00,0.0726
1098.00,0.0743
1097.00,0.0760
1096.00,0.0775
1095.00,0.0786
1094.00,0.0794
1093.00,0.0797
1092.00,0.0795
1091.00,0.0786
1090.00,0.0769
1089.00,0.0746
1088.00,0.0716
1087.00,0.0682
1086.00,0.0647
1085.00,0.0612
1084.00,0.0578
1083.00,0.0547
1082.00,0.0518
1081.00,0.0492
1080.00,0.0467
1079.00,0.0444
1078.00,0.0424
1077.00,0.0406
1076.00,0.0390
1075.00,0.0377
1074.00,0.0365
1073.00,0.0355
1072.00,0.0347
1071.00,0.0339
1070.00,0.0333
1069.00,0.0327
1068.00,0.0320
1067.00,0.0314
1066.00,0.0309
1065.00,0.0305
1064.00,0.0303
1063.00,0.0304
1062.00,0.0308
1061.00,0.0316
1060.00,0.0328
1059.00,0.0345
1058.00,0.0368
1057.00,0.0397
1056.00,0.0431
1055.00,0.0468
1054.00,0.0505
1053.00,0.0536
1052.00,0.0557
1051.00,0.0567
1050.00,0.0567
1049.00,0.0559
1048.00,0.0546
1047.00,0.0529
1046.00,0.0511
1045.00,0.0492
1044.00,0.0472
1043.00,0.0453
1042.00,0.0437
1041.00,0.0423
1040.00,0.0410
1039.00,0.0401
1038.00,0.0394
1037.00,0.0389
1036.00,0.0387
1035.00,0.0388
1034.00,0.0393
1033.00,0.0403
1032.00,0.0416
1031.00,0.0433
1030.00,0.0453
1029.00,0.0477
1028.00,0.0505
1027.00,0.0536
1026.00,0.0573
1025.00,0.0614
1024.00,0.0657
1023.00,0.0700
1022.00,0.0738
1021.00,0.0766
1020.00,0.0782
1019.00,0.0785
1018.00,0.0775
1017.00,0.0755
1016.00,0.0727
1015.00,0.0696
1014.00,0.0662
1013.00,0.0627
1012.00,0.0592
1011.00,0.0558
1010.00,0.0527
1009.00,0.0497
1008.00,0.0470
1007.00,0.0445
1006.00,0.0423
1005.00,0.0403
1004.00,0.0385
1003.00,0.0370
1002.00,0.0357
1001.00,0.0345
1000.00,0.0334
999.00,0.0324
998.00,0.0317
997.00,0.0310
996.00,0.0304
995.00,0.0298
994.00,0.0294
993.00,0.0290
992.00,0.0287
991.00,0.0285
990.00,0.0284
989.00,0.0283
988.00,0.0284
987.00,0.0284
986.00,0.0285
985.00,0.0286
984.00,0.0285
983.00,0.0282
982.00,0.0278
981.00,0.0273
980.00,0.0267
979.00,0.0261
978.00,0.0255
977.00,0.0249
976.00,0.0243
975.00,0.0238
974.00,0.0233
973.00,0.0228
972.00,0.0223
971.00,0.0219
970.00,0.0216
969.00,0.0213
968.00,0.0211
967.00,0.0210
966.00,0.0211
965.00,0.0212
964.00,0.0213
963.00,0.0215
962.00,0.0218
961.00,0.0221
960.00,0.0223
959.00,0.0224
958.00,0.0226
957.00,0.0229
956.00,0.0235
955.00,0.0243
954.00,0.0255
953.00,0.0268
952.00,0.0279
951.00,0.0286
950.00,0.0287
949.00,0.0283
948.00,0.0274
947.00,0.0264
946.00,0.0253
945.00,0.0243
944.00,0.0233
943.00,0.0225
942.00,0.0217
941.00,0.0210
940.00,0.0203
939.00,0.0197
938.00,0.0191
937.00,0.0187
936.00,0.0182
935.00,0.0178
934.00,0.0176
933.00,0.0173
932.00,0.0171
931.00,0.0169
930.00,0.0168
929.00,0.0167
928.00,0.0165
927.00,0.0165
926.00,0.0164
925.00,0.0165
924.00,0.0164
923.00,0.0164
922.00,0.0164
921.00,0.0163
920.00,0.0162
919.00,0.0161
918.00,0.0160
917.00,0.0159
916.00,0.0157
915.00,0.0155
914.00,0.0153
913.00,0.0152
912.00,0.0150
911.00,0.0148
910.00,0.0147
909.00,0.0146
908.00,0.0144
907.00,0.0143
906.00,0.0143
905.00,0.0142
904.00,0.0141
903.00,0.0140
902.00,0.0139
901.00,0.0138
900.00,0.0137
899.00,0.0136
898.00,0.0136
897.00,0.0135
896.00,0.0134
895.00,0.0133
894.00,0.0132
893.00,0.0132
892.00,0.0131
891.00,0.0130
890.00,0.0130
889.00,0.0130
888.00,0.0129
887.00,0.0128
886.00,0.0128
885.00,0.0129
884.00,0.0129
883.00,0.0129
882.00,0.0132
881.00,0.0135
880.00,0.0139
879.00,0.0142
878.00,0.0144
877.00,0.0145
876.00,0.0146
875.00,0.0148
874.00,0.0150
873.00,0.0150
872.00,0.0147
871.00,0.0143
870.00,0.0140
869.00,0.0137
868.00,0.0136
867.00,0.0137
866.00,0.0143
865.00,0.0156
864.00,0.0180
863.00,0.0217
862.00,0.0269
861.00,0.0327
860.00,0.0377
859.00,0.0405
858.00,0.0402
857.00,0.0372
856.00,0.0327
855.00,0.0281
854.00,0.0242
853.00,0.0213
852.00,0.0193
851.00,0.0180
850.00,0.0172
849.00,0.0167
848.00,0.0163
847.00,0.0161
846.00,0.0161
845.00,0.0163
844.00,0.0166
843.00,0.0171
842.00,0.0178
841.00,0.0188
840.00,0.0201
839.00,0.0222
838.00,0.0252
837.00,0.0294
836.00,0.0344
835.00,0.0397
834.00,0.0445
833.00,0.0482
832.00,0.0504
831.00,0.0517
830.00,0.0522
829.00,0.0520
828.00,0.0510
827.00,0.0489
826.00,0.0460
825.00,0.0424
824.00,0.0385
823.00,0.0349
822.00,0.0317
821.00,0.0290
820.00,0.0267
819.00,0.0248
818.00,0.0232
817.00,0.0219
816.00,0.0207
815.00,0.0197
814.00,0.0190
813.00,0.0186
812.00,0.0184
811.00,0.0184
810.00,0.0186
809.00,0.0190
808.00,0.0194
807.00,0.0198
806.00,0.0202
805.00,0.0205
804.00,0.0205
803.00,0.0203
802.00,0.0198
801.00,0.0192
800.00,0.0186
799.00,0.0182
798.00,0.0182
797.00,0.0188
796.00,0.0202
795.00,0.0230
794.00,0.0271
793.00,0.0320
792.00,0.0363
791.00,0.0391
790.00,0.0404
789.00,0.0413
788.00,0.0422
787.00,0.0432
786.00,0.0436
785.00,0.0430
784.00,0.0415
783.00,0.0399
782.00,0.0384
781.00,0.0372
780.00,0.0366
779.00,0.0368
778.00,0.0380
777.00,0.0393
776.00,0.0400
775.00,0.0394
774.00,0.0376
773.00,0.0350
772.00,0.0322
771.00,0.0297
770.00,0.0277
769.00,0.0263
768.00,0.0253
767.00,0.0246
766.00,0.0243
765.00,0.0243
764.00,0.0248
763.00,0.0260
762.00,0.0281
761.00,0.0310
760.00,0.0344
759.00,0.0377
758.00,0.0405
757.00,0.0424
756.00,0.0434
755.00,0.0437
754.00,0.0435
753.00,0.0431
752.00,0.0430
751.00,0.0438
750.00,0.0458
749.00,0.0489
748.00,0.0525
747.00,0.0560
746.00,0.0583
745.00,0.0584
744.00,0.0563
743.00,0.0525
742.00,0.0481
741.00,0.0438
740.00,0.0397
739.00,0.0362
738.00,0.0332
737.00,0.0306
736.00,0.0283
735.00,0.0263
734.00,0.0247
733.00,0.0233
732.00,0.0222
731.00,0.0212
730.00,0.0205
729.00,0.0199
728.00,0.0194
727.00,0.0190
726.00,0.0189
725.00,0.0189
724.00,0.0190
723.00,0.0194
722.00,0.0202
721.00,0.0216
720.00,0.0240
719.00,0.0277
718.00,0.0330
717.00,0.0393
716.00,0.0454
715.00,0.0506
714.00,0.0549
713.00,0.0585
712.00,0.0616
711.00,0.0632
710.00,0.0623
709.00,0.0587
708.00,0.0533
707.00,0.0477
706.00,0.0429
705.00,0.0390
704.00,0.0360
703.00,0.0337
702.00,0.0318
701.00,0.0302
700.00,0.0289
699.00,0.0279
698.00,0.0272
697.00,0.0268
696.00,0.0266
695.00,0.0267
694.00,0.0271
693.00,0.0278
692.00,0.0288
691.00,0.0303
690.00,0.0323
689.00,0.0349
688.00,0.0378
687.00,0.0411
686.00,0.0445
685.00,0.0475
684.00,0.0492
683.00,0.0494
682.00,0.0481
681.00,0.0457
680.00,0.0430
679.00,0.0406
678.00,0.0391
677.00,0.0384
676.00,0.0384
675.00,0.0390
674.00,0.0399
673.00,0.0407
672.00,0.0410
671.00,0.0408
670.00,0.0400
669.00,0.0382
668.00,0.0357
667.00,0.0335
666.00,0.0325
665.00,0.0321
664.00,0.0318
663.00,0.0316
662.00,0.0315
661.00,0.0316
660.00,0.0316
659.00,0.0317
658.00,0.0319
657.00,0.0320
656.00,0.0318
655.00,0.0316
654.00,0.0314
653.00,0.0311
652.00,0.0306
651.00,0.0300
650.00,0.0293
649.00,0.0285
648.00,0.0275
647.00,0.0266
646.00,0.0257
645.00,0.0249
644.00,0.0240
643.00,0.0231
642.00,0.0223
641.00,0.0216
640.00,0.0209
639.00,0.0202
638.00,0.0199
637.00,0.0197
636.00,0.0196
635.00,0.0198
634.00,0.0202
633.00,0.0210
632.00,0.0218
631.00,0.0230
630.00,0.0244
629.00,0.0260
628.00,0.0277
627.00,0.0295
626.00,0.0313
625.00,0.0327
624.00,0.0336
623.00,0.0341
622.00,0.0343
621.00,0.0341
620.00,0.0338
619.00,0.0334
618.00,0.0333
617.00,0.0334
616.00,0.0335
615.00,0.0338
614.00,0.0343
613.00,0.0346
612.00,0.0348
611.00,0.0348
610.00,0.0348
609.00,0.0347
608.00,0.0344
607.00,0.0340
606.00,0.0337
605.00,0.0332
604.00,0.0326
603.00,0.0320
602.00,0.0315
601.00,0.0309
600.00,0.0302
599.00,0.0297
598.00,0.0295
597.00,0.0295
596.00,0.0297
595.00,0.0300
594.00,0.0304
593.00,0.0303
592.00,0.0296
591.00,0.0285
590.00,0.0274
589.00,0.0263
588.00,0.0254
587.00,0.0250
586.00,0.0253
585.00,0.0259
584.00,0.0267
583.00,0.0277
582.00,0.0288
581.00,0.0296
580.00,0.0300
579.00,0.0302
578.00,0.0304
577.00,0.0305
576.00,0.0302
575.00,0.0298
574.00,0.0294
573.00,0.0289
572.00,0.0283
571.00,0.0278
570.00,0.0276
569.00,0.0276
568.00,0.0275
567.00,0.0276
566.00,0.0277
565.00,0.0277
564.00,0.0275
563.00,0.0272
562.00,0.0270
561.00,0.0268
560.00,0.0263
559.00,0.0259
558.00,0.0256
557.00,0.0254
556.00,0.0251
555.00,0.0248
554.00,0.0246
553.00,0.0242
552.00,0.0236
551.00,0.0230
550.00,0.0227
549.00,0.0224
548.00,0.0220
547.00,0.0217
546.00,0.0216
545.00,0.0213
544.00,0.0209
543.00,0.0205
542.00,0.0205
541.00,0.0204
540.00,0.0201
539.00,0.0199
538.00,0.0199
537.00,0.0199
536.00,0.0196
535.00,0.0193
534.00,0.0192
533.00,0.0191
532.00,0.0189
531.00,0.0187
530.00,0.0188
529.00,0.0188
528.00,0.0186
527.00,0.0185
526.00,0.0185
525.00,0.0185
524.00,0.0182
523.00,0.0179
522.00,0.0180
521.00,0.0181
520.00,0.0179
519.00,0.0179
518.00,0.0181
517.00,0.0183
516.00,0.0180
515.00,0.0178
514.00,0.0179
513.00,0.0181
512.00,0.0183
511.00,0.0189
510.00,0.0200
509.00,0.0211
508.00,0.0219
507.00,0.0224
506.00,0.0228
505.00,0.0227
504.00,0.0221
503.00,0.0214
502.00,0.0209
501.00,0.0203
500.00,0.0195
499.00,0.0189
498.00,0.0187
497.00,0.0185
496.00,0.0181
495.00,0.0178
494.00,0.0179
493.00,0.0181
492.00,0.0180
491.00,0.0179
490.00,0.0181
489.00,0.0182
488.00,0.0181
487.00,0.0182
486.00,0.0186
485.00,0.0188
484.00,0.0185
483.00,0.0183
482.00,0.0187
481.00,0.0192
480.00,0.0193
479.00,0.0196
478.00,0.0204
477.00,0.0214
476.00,0.0221
475.00,0.0227
474.00,0.0238
473.00,0.0250
472.00,0.0259
471.00,0.0267
470.00,0.0275
469.00,0.0281
468.00,0.0279
467.00,0.0276
466.00,0.0276
465.00,0.0274
464.00,0.0266
463.00,0.0257
462.00,0.0252
461.00,0.0244
460.00,0.0231
459.00,0.0217
458.00,0.0210
457.00,0.0205
456.00,0.0198
455.00,0.0192
454.00,0.0191
453.00,0.0189
452.00,0.0184
451.00,0.0182
450.00,0.0184
449.00,0.0186
448.00,0.0180
447.00,0.0173
446.00,0.0170
445.00,0.0168
444.00,0.0163
443.00,0.0160
442.00,0.0165
441.00,0.0170
440.00,0.0170
439.00,0.0168
438.00,0.0169
437.00,0.0166
436.00,0.0157
435.00,0.0150
434.00,0.0153
433.00,0.0157
432.00,0.0157
431.00,0.0156
430.00,0.0160
429.00,0.0162
428.00,0.0158
427.00,0.0156
426.00,0.0163
425.00,0.0169
424.00,0.0168
423.00,0.0166
422.00,0.0172
421.00,0.0179
420.00,0.0179
419.00,0.0186
418.00,0.0206
417.00,0.0223
416.00,0.0227
415.00,0.0232
414.00,0.0248
413.00,0.0263
412.00,0.0268
411.00,0.0272
410.00,0.0285
409.00,0.0297
408.00,0.0297
407.00,0.0293
406.00,0.0294
405.00,0.0290
404.00,0.0275
403.00,0.0265
402.00,0.0276
401.00,0.0287
400.00,0.0279
