Created as New Dataset,Sample 616 By YargerLab Date Friday, June 06 2025
cm-1,A
4000.00,0.0098
3999.00,0.0098
3998.00,0.0097
3997.00,0.0097
3996.00,0.0097
3995.00,0.0097
3994.00,0.0097
3993.00,0.0098
3992.00,0.0098
3991.00,0.0098
3990.00,0.0098
3989.00,0.0098
3988.00,0.0098
3987.00,0.0097
3986.00,0.0097
3985.00,0.0097
3984.00,0.0097
3983.00,0.0097
3982.00,0.0097
3981.00,0.0097
3980.00,0.0097
3979.00,0.0097
3978.00,0.0098
3977.00,0.0098
3976.00,0.0098
3975.00,0.0098
3974.00,0.0098
3973.00,0.0098
3972.00,0.0098
3971.00,0.0098
3970.00,0.0098
3969.00,0.0098
3968.00,0.0098
3967.00,0.0098
3966.00,0.0098
3965.00,0.0098
3964.00,0.0098
3963.00,0.0098
3962.00,0.0098
3961.00,0.0098
3960.00,0.0098
3959.00,0.0098
3958.00,0.0098
3957.00,0.0098
3956.00,0.0098
3955.00,0.0098
3954.00,0.0098
3953.00,0.0098
3952.00,0.0098
3951.00,0.0098
3950.00,0.0098
3949.00,0.0098
3948.00,0.0098
3947.00,0.0098
3946.00,0.0099
3945.00,0.0099
3944.00,0.0099
3943.00,0.0099
3942.00,0.0099
3941.00,0.0099
3940.00,0.0099
3939.00,0.0098
3938.00,0.0098
3937.00,0.0098
3936.00,0.0098
3935.00,0.0098
3934.00,0.0098
3933.00,0.0098
3932.00,0.0098
3931.00,0.0098
3930.00,0.0098
3929.00,0.0098
3928.00,0.0098
3927.00,0.0098
3926.00,0.0098
3925.00,0.0098
3924.00,0.0098
3923.00,0.0098
3922.00,0.0098
3921.00,0.0097
3920.00,0.0097
3919.00,0.0097
3918.00,0.0097
3917.00,0.0097
3916.00,0.0097
3915.00,0.0097
3914.00,0.0097
3913.00,0.0097
3912.00,0.0097
3911.00,0.0097
3910.00,0.0097
3909.00,0.0097
3908.00,0.0097
3907.00,0.0097
3906.00,0.0097
3905.00,0.0097
3904.00,0.0097
3903.00,0.0097
3902.00,0.0097
3901.00,0.0097
3900.00,0.0097
3899.00,0.0097
3898.00,0.0097
3897.00,0.0097
3896.00,0.0097
3895.00,0.0097
3894.00,0.0097
3893.00,0.0096
3892.00,0.0096
3891.00,0.0096
3890.00,0.0096
3889.00,0.0096
3888.00,0.0097
3887.00,0.0097
3886.00,0.0096
3885.00,0.0096
3884.00,0.0096
3883.00,0.0096
3882.00,0.0096
3881.00,0.0096
3880.00,0.0096
3879.00,0.0096
3878.00,0.0096
3877.00,0.0096
3876.00,0.0096
3875.00,0.0096
3874.00,0.0096
3873.00,0.0096
3872.00,0.0096
3871.00,0.0097
3870.00,0.0097
3869.00,0.0097
3868.00,0.0097
3867.00,0.0097
3866.00,0.0097
3865.00,0.0097
3864.00,0.0096
3863.00,0.0096
3862.00,0.0096
3861.00,0.0096
3860.00,0.0095
3859.00,0.0096
3858.00,0.0096
3857.00,0.0096
3856.00,0.0097
3855.00,0.0097
3854.00,0.0097
3853.00,0.0097
3852.00,0.0098
3851.00,0.0098
3850.00,0.0097
3849.00,0.0097
3848.00,0.0096
3847.00,0.0095
3846.00,0.0095
3845.00,0.0095
3844.00,0.0095
3843.00,0.0095
3842.00,0.0095
3841.00,0.0095
3840.00,0.0096
3839.00,0.0096
3838.00,0.0096
3837.00,0.0096
3836.00,0.0096
3835.00,0.0096
3834.00,0.0096
3833.00,0.0096
3832.00,0.0096
3831.00,0.0096
3830.00,0.0095
3829.00,0.0095
3828.00,0.0095
3827.00,0.0095
3826.00,0.0095
3825.00,0.0095
3824.00,0.0096
3823.00,0.0096
3822.00,0.0096
3821.00,0.0096
3820.00,0.0096
3819.00,0.0096
3818.00,0.0096
3817.00,0.0095
3816.00,0.0095
3815.00,0.0095
3814.00,0.0095
3813.00,0.0096
3812.00,0.0095
3811.00,0.0095
3810.00,0.0095
3809.00,0.0096
3808.00,0.0096
3807.00,0.0095
3806.00,0.0095
3805.00,0.0096
3804.00,0.0096
3803.00,0.0096
3802.00,0.0096
3801.00,0.0096
3800.00,0.0096
3799.00,0.0096
3798.00,0.0096
3797.00,0.0096
3796.00,0.0095
3795.00,0.0095
3794.00,0.0095
3793.00,0.0095
3792.00,0.0095
3791.00,0.0095
3790.00,0.0095
3789.00,0.0095
3788.00,0.0095
3787.00,0.0095
3786.00,0.0095
3785.00,0.0095
3784.00,0.0095
3783.00,0.0095
3782.00,0.0095
3781.00,0.0095
3780.00,0.0095
3779.00,0.0095
3778.00,0.0095
3777.00,0.0095
3776.00,0.0095
3775.00,0.0095
3774.00,0.0095
3773.00,0.0095
3772.00,0.0095
3771.00,0.0095
3770.00,0.0095
3769.00,0.0095
3768.00,0.0095
3767.00,0.0095
3766.00,0.0096
3765.00,0.0096
3764.00,0.0096
3763.00,0.0096
3762.00,0.0096
3761.00,0.0096
3760.00,0.0096
3759.00,0.0095
3758.00,0.0095
3757.00,0.0095
3756.00,0.0095
3755.00,0.0095
3754.00,0.0096
3753.00,0.0096
3752.00,0.0096
3751.00,0.0097
3750.00,0.0096
3749.00,0.0096
3748.00,0.0096
3747.00,0.0097
3746.00,0.0097
3745.00,0.0096
3744.00,0.0095
3743.00,0.0095
3742.00,0.0095
3741.00,0.0095
3740.00,0.0094
3739.00,0.0094
3738.00,0.0095
3737.00,0.0095
3736.00,0.0095
3735.00,0.0095
3734.00,0.0095
3733.00,0.0095
3732.00,0.0095
3731.00,0.0095
3730.00,0.0094
3729.00,0.0094
3728.00,0.0094
3727.00,0.0094
3726.00,0.0094
3725.00,0.0095
3724.00,0.0095
3723.00,0.0094
3722.00,0.0094
3721.00,0.0094
3720.00,0.0093
3719.00,0.0093
3718.00,0.0093
3717.00,0.0093
3716.00,0.0093
3715.00,0.0093
3714.00,0.0094
3713.00,0.0094
3712.00,0.0094
3711.00,0.0094
3710.00,0.0094
3709.00,0.0094
3708.00,0.0094
3707.00,0.0094
3706.00,0.0094
3705.00,0.0093
3704.00,0.0093
3703.00,0.0093
3702.00,0.0093
3701.00,0.0093
3700.00,0.0093
3699.00,0.0093
3698.00,0.0093
3697.00,0.0093
3696.00,0.0093
3695.00,0.0093
3694.00,0.0093
3693.00,0.0093
3692.00,0.0092
3691.00,0.0092
3690.00,0.0092
3689.00,0.0092
3688.00,0.0092
3687.00,0.0093
3686.00,0.0093
3685.00,0.0093
3684.00,0.0093
3683.00,0.0093
3682.00,0.0093
3681.00,0.0093
3680.00,0.0093
3679.00,0.0093
3678.00,0.0094
3677.00,0.0094
3676.00,0.0094
3675.00,0.0094
3674.00,0.0094
3673.00,0.0094
3672.00,0.0094
3671.00,0.0093
3670.00,0.0093
3669.00,0.0092
3668.00,0.0093
3667.00,0.0093
3666.00,0.0093
3665.00,0.0092
3664.00,0.0092
3663.00,0.0092
3662.00,0.0092
3661.00,0.0092
3660.00,0.0092
3659.00,0.0092
3658.00,0.0092
3657.00,0.0093
3656.00,0.0093
3655.00,0.0093
3654.00,0.0093
3653.00,0.0094
3652.00,0.0094
3651.00,0.0094
3650.00,0.0094
3649.00,0.0094
3648.00,0.0094
3647.00,0.0094
3646.00,0.0093
3645.00,0.0093
3644.00,0.0093
3643.00,0.0092
3642.00,0.0092
3641.00,0.0092
3640.00,0.0093
3639.00,0.0093
3638.00,0.0093
3637.00,0.0093
3636.00,0.0093
3635.00,0.0093
3634.00,0.0093
3633.00,0.0093
3632.00,0.0093
3631.00,0.0093
3630.00,0.0092
3629.00,0.0092
3628.00,0.0093
3627.00,0.0093
3626.00,0.0093
3625.00,0.0093
3624.00,0.0093
3623.00,0.0093
3622.00,0.0093
3621.00,0.0093
3620.00,0.0093
3619.00,0.0093
3618.00,0.0093
3617.00,0.0093
3616.00,0.0093
3615.00,0.0093
3614.00,0.0093
3613.00,0.0093
3612.00,0.0093
3611.00,0.0093
3610.00,0.0093
3609.00,0.0093
3608.00,0.0093
3607.00,0.0093
3606.00,0.0093
3605.00,0.0093
3604.00,0.0093
3603.00,0.0093
3602.00,0.0093
3601.00,0.0093
3600.00,0.0093
3599.00,0.0093
3598.00,0.0093
3597.00,0.0093
3596.00,0.0093
3595.00,0.0093
3594.00,0.0093
3593.00,0.0093
3592.00,0.0093
3591.00,0.0093
3590.00,0.0093
3589.00,0.0093
3588.00,0.0093
3587.00,0.0093
3586.00,0.0093
3585.00,0.0093
3584.00,0.0093
3583.00,0.0093
3582.00,0.0093
3581.00,0.0092
3580.00,0.0092
3579.00,0.0092
3578.00,0.0092
3577.00,0.0092
3576.00,0.0092
3575.00,0.0092
3574.00,0.0093
3573.00,0.0093
3572.00,0.0093
3571.00,0.0093
3570.00,0.0093
3569.00,0.0093
3568.00,0.0093
3567.00,0.0093
3566.00,0.0093
3565.00,0.0092
3564.00,0.0092
3563.00,0.0092
3562.00,0.0092
3561.00,0.0092
3560.00,0.0092
3559.00,0.0092
3558.00,0.0092
3557.00,0.0092
3556.00,0.0092
3555.00,0.0092
3554.00,0.0093
3553.00,0.0093
3552.00,0.0093
3551.00,0.0093
3550.00,0.0093
3549.00,0.0093
3548.00,0.0092
3547.00,0.0092
3546.00,0.0092
3545.00,0.0092
3544.00,0.0092
3543.00,0.0092
3542.00,0.0092
3541.00,0.0092
3540.00,0.0092
3539.00,0.0092
3538.00,0.0092
3537.00,0.0092
3536.00,0.0092
3535.00,0.0092
3534.00,0.0092
3533.00,0.0092
3532.00,0.0092
3531.00,0.0092
3530.00,0.0092
3529.00,0.0092
3528.00,0.0092
3527.00,0.0092
3526.00,0.0091
3525.00,0.0091
3524.00,0.0091
3523.00,0.0091
3522.00,0.0091
3521.00,0.0091
3520.00,0.0091
3519.00,0.0091
3518.00,0.0091
3517.00,0.0091
3516.00,0.0091
3515.00,0.0091
3514.00,0.0091
3513.00,0.0090
3512.00,0.0090
3511.00,0.0090
3510.00,0.0090
3509.00,0.0089
3508.00,0.0089
3507.00,0.0089
3506.00,0.0089
3505.00,0.0089
3504.00,0.0088
3503.00,0.0088
3502.00,0.0088
3501.00,0.0088
3500.00,0.0088
3499.00,0.0087
3498.00,0.0087
3497.00,0.0087
3496.00,0.0086
3495.00,0.0086
3494.00,0.0086
3493.00,0.0086
3492.00,0.0086
3491.00,0.0086
3490.00,0.0085
3489.00,0.0085
3488.00,0.0084
3487.00,0.0084
3486.00,0.0084
3485.00,0.0083
3484.00,0.0083
3483.00,0.0082
3482.00,0.0082
3481.00,0.0082
3480.00,0.0081
3479.00,0.0081
3478.00,0.0081
3477.00,0.0080
3476.00,0.0080
3475.00,0.0080
3474.00,0.0079
3473.00,0.0079
3472.00,0.0078
3471.00,0.0077
3470.00,0.0076
3469.00,0.0075
3468.00,0.0074
3467.00,0.0074
3466.00,0.0073
3465.00,0.0072
3464.00,0.0070
3463.00,0.0069
3462.00,0.0067
3461.00,0.0065
3460.00,0.0062
3459.00,0.0060
3458.00,0.0057
3457.00,0.0055
3456.00,0.0052
3455.00,0.0050
3454.00,0.0047
3453.00,0.0045
3452.00,0.0042
3451.00,0.0040
3450.00,0.0039
3449.00,0.0039
3448.00,0.0040
3447.00,0.0041
3446.00,0.0044
3445.00,0.0047
3444.00,0.0050
3443.00,0.0053
3442.00,0.0056
3441.00,0.0059
3440.00,0.0062
3439.00,0.0065
3438.00,0.0067
3437.00,0.0069
3436.00,0.0071
3435.00,0.0073
3434.00,0.0075
3433.00,0.0077
3432.00,0.0078
3431.00,0.0079
3430.00,0.0080
3429.00,0.0081
3428.00,0.0082
3427.00,0.0084
3426.00,0.0085
3425.00,0.0086
3424.00,0.0087
3423.00,0.0088
3422.00,0.0089
3421.00,0.0090
3420.00,0.0092
3419.00,0.0093
3418.00,0.0094
3417.00,0.0095
3416.00,0.0096
3415.00,0.0097
3414.00,0.0098
3413.00,0.0099
3412.00,0.0101
3411.00,0.0102
3410.00,0.0103
3409.00,0.0105
3408.00,0.0107
3407.00,0.0109
3406.00,0.0111
3405.00,0.0112
3404.00,0.0113
3403.00,0.0114
3402.00,0.0115
3401.00,0.0116
3400.00,0.0119
3399.00,0.0122
3398.00,0.0125
3397.00,0.0127
3396.00,0.0129
3395.00,0.0130
3394.00,0.0131
3393.00,0.0133
3392.00,0.0135
3391.00,0.0137
3390.00,0.0141
3389.00,0.0144
3388.00,0.0147
3387.00,0.0151
3386.00,0.0154
3385.00,0.0158
3384.00,0.0161
3383.00,0.0165
3382.00,0.0169
3381.00,0.0173
3380.00,0.0178
3379.00,0.0184
3378.00,0.0191
3377.00,0.0198
3376.00,0.0207
3375.00,0.0217
3374.00,0.0228
3373.00,0.0240
3372.00,0.0254
3371.00,0.0270
3370.00,0.0290
3369.00,0.0313
3368.00,0.0339
3367.00,0.0369
3366.00,0.0401
3365.00,0.0436
3364.00,0.0470
3363.00,0.0504
3362.00,0.0535
3361.00,0.0563
3360.00,0.0584
3359.00,0.0600
3358.00,0.0608
3357.00,0.0610
3356.00,0.0605
3355.00,0.0594
3354.00,0.0579
3353.00,0.0561
3352.00,0.0541
3351.00,0.0521
3350.00,0.0501
3349.00,0.0483
3348.00,0.0465
3347.00,0.0448
3346.00,0.0432
3345.00,0.0417
3344.00,0.0405
3343.00,0.0394
3342.00,0.0384
3341.00,0.0376
3340.00,0.0369
3339.00,0.0363
3338.00,0.0358
3337.00,0.0354
3336.00,0.0351
3335.00,0.0347
3334.00,0.0343
3333.00,0.0340
3332.00,0.0336
3331.00,0.0332
3330.00,0.0328
3329.00,0.0324
3328.00,0.0321
3327.00,0.0317
3326.00,0.0314
3325.00,0.0311
3324.00,0.0308
3323.00,0.0306
3322.00,0.0303
3321.00,0.0299
3320.00,0.0296
3319.00,0.0292
3318.00,0.0289
3317.00,0.0285
3316.00,0.0281
3315.00,0.0276
3314.00,0.0272
3313.00,0.0268
3312.00,0.0264
3311.00,0.0260
3310.00,0.0256
3309.00,0.0252
3308.00,0.0248
3307.00,0.0245
3306.00,0.0242
3305.00,0.0239
3304.00,0.0237
3303.00,0.0234
3302.00,0.0232
3301.00,0.0230
3300.00,0.0227
3299.00,0.0224
3298.00,0.0221
3297.00,0.0217
3296.00,0.0214
3295.00,0.0211
3294.00,0.0207
3293.00,0.0204
3292.00,0.0201
3291.00,0.0198
3290.00,0.0196
3289.00,0.0193
3288.00,0.0190
3287.00,0.0187
3286.00,0.0184
3285.00,0.0181
3284.00,0.0179
3283.00,0.0176
3282.00,0.0174
3281.00,0.0172
3280.00,0.0170
3279.00,0.0168
3278.00,0.0166
3277.00,0.0164
3276.00,0.0162
3275.00,0.0161
3274.00,0.0159
3273.00,0.0158
3272.00,0.0157
3271.00,0.0156
3270.00,0.0156
3269.00,0.0155
3268.00,0.0155
3267.00,0.0154
3266.00,0.0154
3265.00,0.0153
3264.00,0.0152
3263.00,0.0152
3262.00,0.0151
3261.00,0.0150
3260.00,0.0150
3259.00,0.0149
3258.00,0.0148
3257.00,0.0148
3256.00,0.0147
3255.00,0.0148
3254.00,0.0148
3253.00,0.0148
3252.00,0.0148
3251.00,0.0147
3250.00,0.0147
3249.00,0.0146
3248.00,0.0146
3247.00,0.0146
3246.00,0.0147
3245.00,0.0148
3244.00,0.0148
3243.00,0.0149
3242.00,0.0149
3241.00,0.0150
3240.00,0.0150
3239.00,0.0151
3238.00,0.0150
3237.00,0.0150
3236.00,0.0149
3235.00,0.0148
3234.00,0.0147
3233.00,0.0147
3232.00,0.0147
3231.00,0.0147
3230.00,0.0146
3229.00,0.0145
3228.00,0.0144
3227.00,0.0143
3226.00,0.0142
3225.00,0.0140
3224.00,0.0138
3223.00,0.0136
3222.00,0.0135
3221.00,0.0133
3220.00,0.0131
3219.00,0.0130
3218.00,0.0129
3217.00,0.0127
3216.00,0.0126
3215.00,0.0125
3214.00,0.0123
3213.00,0.0122
3212.00,0.0121
3211.00,0.0120
3210.00,0.0119
3209.00,0.0118
3208.00,0.0117
3207.00,0.0116
3206.00,0.0115
3205.00,0.0115
3204.00,0.0114
3203.00,0.0113
3202.00,0.0112
3201.00,0.0112
3200.00,0.0111
3199.00,0.0110
3198.00,0.0109
3197.00,0.0109
3196.00,0.0108
3195.00,0.0108
3194.00,0.0107
3193.00,0.0106
3192.00,0.0106
3191.00,0.0105
3190.00,0.0105
3189.00,0.0104
3188.00,0.0104
3187.00,0.0104
3186.00,0.0104
3185.00,0.0103
3184.00,0.0103
3183.00,0.0103
3182.00,0.0103
3181.00,0.0102
3180.00,0.0102
3179.00,0.0101
3178.00,0.0101
3177.00,0.0100
3176.00,0.0099
3175.00,0.0099
3174.00,0.0099
3173.00,0.0098
3172.00,0.0098
3171.00,0.0098
3170.00,0.0098
3169.00,0.0097
3168.00,0.0097
3167.00,0.0097
3166.00,0.0097
3165.00,0.0097
3164.00,0.0097
3163.00,0.0098
3162.00,0.0098
3161.00,0.0098
3160.00,0.0098
3159.00,0.0098
3158.00,0.0097
3157.00,0.0097
3156.00,0.0097
3155.00,0.0097
3154.00,0.0097
3153.00,0.0098
3152.00,0.0098
3151.00,0.0098
3150.00,0.0098
3149.00,0.0098
3148.00,0.0098
3147.00,0.0097
3146.00,0.0097
3145.00,0.0097
3144.00,0.0097
3143.00,0.0097
3142.00,0.0097
3141.00,0.0097
3140.00,0.0097
3139.00,0.0097
3138.00,0.0098
3137.00,0.0098
3136.00,0.0098
3135.00,0.0098
3134.00,0.0098
3133.00,0.0098
3132.00,0.0099
3131.00,0.0099
3130.00,0.0100
3129.00,0.0100
3128.00,0.0101
3127.00,0.0101
3126.00,0.0102
3125.00,0.0102
3124.00,0.0103
3123.00,0.0104
3122.00,0.0105
3121.00,0.0105
3120.00,0.0106
3119.00,0.0107
3118.00,0.0108
3117.00,0.0110
3116.00,0.0111
3115.00,0.0113
3114.00,0.0115
3113.00,0.0116
3112.00,0.0118
3111.00,0.0120
3110.00,0.0121
3109.00,0.0123
3108.00,0.0124
3107.00,0.0126
3106.00,0.0127
3105.00,0.0128
3104.00,0.0129
3103.00,0.0129
3102.00,0.0129
3101.00,0.0129
3100.00,0.0128
3099.00,0.0128
3098.00,0.0127
3097.00,0.0126
3096.00,0.0125
3095.00,0.0124
3094.00,0.0123
3093.00,0.0122
3092.00,0.0120
3091.00,0.0119
3090.00,0.0119
3089.00,0.0118
3088.00,0.0118
3087.00,0.0117
3086.00,0.0118
3085.00,0.0118
3084.00,0.0118
3083.00,0.0118
3082.00,0.0117
3081.00,0.0116
3080.00,0.0115
3079.00,0.0114
3078.00,0.0113
3077.00,0.0112
3076.00,0.0111
3075.00,0.0110
3074.00,0.0109
3073.00,0.0108
3072.00,0.0107
3071.00,0.0107
3070.00,0.0106
3069.00,0.0106
3068.00,0.0105
3067.00,0.0105
3066.00,0.0106
3065.00,0.0106
3064.00,0.0106
3063.00,0.0106
3062.00,0.0106
3061.00,0.0106
3060.00,0.0105
3059.00,0.0105
3058.00,0.0104
3057.00,0.0104
3056.00,0.0104
3055.00,0.0105
3054.00,0.0105
3053.00,0.0105
3052.00,0.0105
3051.00,0.0105
3050.00,0.0106
3049.00,0.0106
3048.00,0.0106
3047.00,0.0106
3046.00,0.0105
3045.00,0.0104
3044.00,0.0104
3043.00,0.0105
3042.00,0.0106
3041.00,0.0107
3040.00,0.0109
3039.00,0.0110
3038.00,0.0111
3037.00,0.0111
3036.00,0.0112
3035.00,0.0112
3034.00,0.0113
3033.00,0.0113
3032.00,0.0114
3031.00,0.0115
3030.00,0.0116
3029.00,0.0117
3028.00,0.0117
3027.00,0.0117
3026.00,0.0118
3025.00,0.0119
3024.00,0.0121
3023.00,0.0122
3022.00,0.0124
3021.00,0.0125
3020.00,0.0126
3019.00,0.0126
3018.00,0.0127
3017.00,0.0127
3016.00,0.0127
3015.00,0.0127
3014.00,0.0127
3013.00,0.0127
3012.00,0.0128
3011.00,0.0129
3010.00,0.0131
3009.00,0.0133
3008.00,0.0135
3007.00,0.0137
3006.00,0.0139
3005.00,0.0141
3004.00,0.0144
3003.00,0.0147
3002.00,0.0150
3001.00,0.0153
3000.00,0.0157
2999.00,0.0160
2998.00,0.0163
2997.00,0.0166
2996.00,0.0169
2995.00,0.0171
2994.00,0.0173
2993.00,0.0175
2992.00,0.0177
2991.00,0.0180
2990.00,0.0183
2989.00,0.0185
2988.00,0.0186
2987.00,0.0185
2986.00,0.0182
2985.00,0.0178
2984.00,0.0173
2983.00,0.0168
2982.00,0.0162
2981.00,0.0158
2980.00,0.0154
2979.00,0.0150
2978.00,0.0147
2977.00,0.0145
2976.00,0.0142
2975.00,0.0140
2974.00,0.0139
2973.00,0.0139
2972.00,0.0139
2971.00,0.0139
2970.00,0.0139
2969.00,0.0139
2968.00,0.0140
2967.00,0.0141
2966.00,0.0143
2965.00,0.0146
2964.00,0.0149
2963.00,0.0152
2962.00,0.0157
2961.00,0.0163
2960.00,0.0170
2959.00,0.0178
2958.00,0.0187
2957.00,0.0197
2956.00,0.0207
2955.00,0.0217
2954.00,0.0226
2953.00,0.0234
2952.00,0.0239
2951.00,0.0239
2950.00,0.0236
2949.00,0.0230
2948.00,0.0222
2947.00,0.0213
2946.00,0.0204
2945.00,0.0196
2944.00,0.0188
2943.00,0.0181
2942.00,0.0174
2941.00,0.0168
2940.00,0.0162
2939.00,0.0157
2938.00,0.0152
2937.00,0.0148
2936.00,0.0145
2935.00,0.0142
2934.00,0.0139
2933.00,0.0136
2932.00,0.0133
2931.00,0.0130
2930.00,0.0127
2929.00,0.0124
2928.00,0.0122
2927.00,0.0119
2926.00,0.0116
2925.00,0.0114
2924.00,0.0112
2923.00,0.0111
2922.00,0.0109
2921.00,0.0109
2920.00,0.0108
2919.00,0.0108
2918.00,0.0108
2917.00,0.0109
2916.00,0.0109
2915.00,0.0109
2914.00,0.0109
2913.00,0.0110
2912.00,0.0111
2911.00,0.0112
2910.00,0.0113
2909.00,0.0115
2908.00,0.0117
2907.00,0.0118
2906.00,0.0119
2905.00,0.0120
2904.00,0.0120
2903.00,0.0119
2902.00,0.0119
2901.00,0.0118
2900.00,0.0117
2899.00,0.0116
2898.00,0.0115
2897.00,0.0115
2896.00,0.0115
2895.00,0.0115
2894.00,0.0115
2893.00,0.0115
2892.00,0.0115
2891.00,0.0115
2890.00,0.0116
2889.00,0.0116
2888.00,0.0116
2887.00,0.0115
2886.00,0.0115
2885.00,0.0115
2884.00,0.0116
2883.00,0.0115
2882.00,0.0115
2881.00,0.0115
2880.00,0.0115
2879.00,0.0115
2878.00,0.0114
2877.00,0.0113
2876.00,0.0112
2875.00,0.0110
2874.00,0.0109
2873.00,0.0109
2872.00,0.0109
2871.00,0.0109
2870.00,0.0109
2869.00,0.0110
2868.00,0.0111
2867.00,0.0112
2866.00,0.0113
2865.00,0.0114
2864.00,0.0115
2863.00,0.0114
2862.00,0.0113
2861.00,0.0112
2860.00,0.0111
2859.00,0.0109
2858.00,0.0108
2857.00,0.0107
2856.00,0.0107
2855.00,0.0107
2854.00,0.0107
2853.00,0.0108
2852.00,0.0110
2851.00,0.0111
2850.00,0.0112
2849.00,0.0114
2848.00,0.0115
2847.00,0.0117
2846.00,0.0119
2845.00,0.0121
2844.00,0.0124
2843.00,0.0126
2842.00,0.0128
2841.00,0.0129
2840.00,0.0130
2839.00,0.0130
2838.00,0.0130
2837.00,0.0127
2836.00,0.0124
2835.00,0.0121
2834.00,0.0118
2833.00,0.0115
2832.00,0.0113
2831.00,0.0111
2830.00,0.0110
2829.00,0.0110
2828.00,0.0109
2827.00,0.0110
2826.00,0.0110
2825.00,0.0110
2824.00,0.0111
2823.00,0.0112
2822.00,0.0112
2821.00,0.0113
2820.00,0.0113
2819.00,0.0114
2818.00,0.0114
2817.00,0.0115
2816.00,0.0115
2815.00,0.0116
2814.00,0.0116
2813.00,0.0116
2812.00,0.0116
2811.00,0.0116
2810.00,0.0116
2809.00,0.0116
2808.00,0.0116
2807.00,0.0116
2806.00,0.0115
2805.00,0.0115
2804.00,0.0114
2803.00,0.0114
2802.00,0.0113
2801.00,0.0112
2800.00,0.0111
2799.00,0.0111
2798.00,0.0110
2797.00,0.0109
2796.00,0.0109
2795.00,0.0108
2794.00,0.0108
2793.00,0.0107
2792.00,0.0106
2791.00,0.0106
2790.00,0.0105
2789.00,0.0105
2788.00,0.0104
2787.00,0.0104
2786.00,0.0104
2785.00,0.0103
2784.00,0.0103
2783.00,0.0102
2782.00,0.0102
2781.00,0.0101
2780.00,0.0100
2779.00,0.0100
2778.00,0.0099
2777.00,0.0099
2776.00,0.0099
2775.00,0.0098
2774.00,0.0098
2773.00,0.0098
2772.00,0.0098
2771.00,0.0098
2770.00,0.0097
2769.00,0.0097
2768.00,0.0097
2767.00,0.0097
2766.00,0.0097
2765.00,0.0097
2764.00,0.0096
2763.00,0.0096
2762.00,0.0096
2761.00,0.0096
2760.00,0.0096
2759.00,0.0096
2758.00,0.0095
2757.00,0.0095
2756.00,0.0095
2755.00,0.0095
2754.00,0.0095
2753.00,0.0095
2752.00,0.0095
2751.00,0.0094
2750.00,0.0094
2749.00,0.0094
2748.00,0.0094
2747.00,0.0094
2746.00,0.0094
2745.00,0.0094
2744.00,0.0094
2743.00,0.0094
2742.00,0.0094
2741.00,0.0094
2740.00,0.0093
2739.00,0.0093
2738.00,0.0092
2737.00,0.0092
2736.00,0.0092
2735.00,0.0091
2734.00,0.0091
2733.00,0.0091
2732.00,0.0090
2731.00,0.0090
2730.00,0.0090
2729.00,0.0089
2728.00,0.0089
2727.00,0.0089
2726.00,0.0089
2725.00,0.0089
2724.00,0.0089
2723.00,0.0089
2722.00,0.0089
2721.00,0.0089
2720.00,0.0090
2719.00,0.0090
2718.00,0.0090
2717.00,0.0090
2716.00,0.0090
2715.00,0.0090
2714.00,0.0090
2713.00,0.0091
2712.00,0.0091
2711.00,0.0091
2710.00,0.0091
2709.00,0.0091
2708.00,0.0091
2707.00,0.0091
2706.00,0.0091
2705.00,0.0091
2704.00,0.0091
2703.00,0.0091
2702.00,0.0091
2701.00,0.0091
2700.00,0.0091
2699.00,0.0091
2698.00,0.0091
2697.00,0.0092
2696.00,0.0092
2695.00,0.0092
2694.00,0.0091
2693.00,0.0091
2692.00,0.0091
2691.00,0.0091
2690.00,0.0091
2689.00,0.0091
2688.00,0.0091
2687.00,0.0091
2686.00,0.0091
2685.00,0.0091
2684.00,0.0091
2683.00,0.0092
2682.00,0.0092
2681.00,0.0092
2680.00,0.0091
2679.00,0.0091
2678.00,0.0091
2677.00,0.0091
2676.00,0.0090
2675.00,0.0090
2674.00,0.0090
2673.00,0.0090
2672.00,0.0090
2671.00,0.0090
2670.00,0.0090
2669.00,0.0089
2668.00,0.0089
2667.00,0.0089
2666.00,0.0089
2665.00,0.0090
2664.00,0.0090
2663.00,0.0091
2662.00,0.0091
2661.00,0.0091
2660.00,0.0092
2659.00,0.0092
2658.00,0.0092
2657.00,0.0092
2656.00,0.0092
2655.00,0.0093
2654.00,0.0093
2653.00,0.0093
2652.00,0.0093
2651.00,0.0093
2650.00,0.0094
2649.00,0.0094
2648.00,0.0094
2647.00,0.0094
2646.00,0.0094
2645.00,0.0094
2644.00,0.0094
2643.00,0.0094
2642.00,0.0094
2641.00,0.0094
2640.00,0.0094
2639.00,0.0093
2638.00,0.0093
2637.00,0.0093
2636.00,0.0093
2635.00,0.0093
2634.00,0.0092
2633.00,0.0092
2632.00,0.0092
2631.00,0.0092
2630.00,0.0092
2629.00,0.0092
2628.00,0.0092
2627.00,0.0092
2626.00,0.0092
2625.00,0.0092
2624.00,0.0092
2623.00,0.0093
2622.00,0.0093
2621.00,0.0093
2620.00,0.0093
2619.00,0.0094
2618.00,0.0094
2617.00,0.0094
2616.00,0.0094
2615.00,0.0094
2614.00,0.0094
2613.00,0.0094
2612.00,0.0094
2611.00,0.0094
2610.00,0.0094
2609.00,0.0094
2608.00,0.0094
2607.00,0.0094
2606.00,0.0094
2605.00,0.0094
2604.00,0.0094
2603.00,0.0094
2602.00,0.0094
2601.00,0.0094
2600.00,0.0094
2599.00,0.0093
2598.00,0.0093
2597.00,0.0093
2596.00,0.0093
2595.00,0.0093
2594.00,0.0092
2593.00,0.0092
2592.00,0.0092
2591.00,0.0092
2590.00,0.0091
2589.00,0.0091
2588.00,0.0091
2587.00,0.0091
2586.00,0.0091
2585.00,0.0090
2584.00,0.0090
2583.00,0.0090
2582.00,0.0090
2581.00,0.0090
2580.00,0.0089
2579.00,0.0089
2578.00,0.0089
2577.00,0.0088
2576.00,0.0088
2575.00,0.0089
2574.00,0.0089
2573.00,0.0089
2572.00,0.0088
2571.00,0.0088
2570.00,0.0088
2569.00,0.0088
2568.00,0.0088
2567.00,0.0088
2566.00,0.0087
2565.00,0.0087
2564.00,0.0087
2563.00,0.0086
2562.00,0.0086
2561.00,0.0086
2560.00,0.0086
2559.00,0.0086
2558.00,0.0086
2557.00,0.0086
2556.00,0.0085
2555.00,0.0085
2554.00,0.0084
2553.00,0.0084
2552.00,0.0084
2551.00,0.0084
2550.00,0.0084
2549.00,0.0084
2548.00,0.0084
2547.00,0.0084
2546.00,0.0084
2545.00,0.0084
2544.00,0.0084
2543.00,0.0084
2542.00,0.0084
2541.00,0.0084
2540.00,0.0085
2539.00,0.0085
2538.00,0.0085
2537.00,0.0085
2536.00,0.0085
2535.00,0.0085
2534.00,0.0085
2533.00,0.0085
2532.00,0.0085
2531.00,0.0085
2530.00,0.0085
2529.00,0.0085
2528.00,0.0086
2527.00,0.0086
2526.00,0.0086
2525.00,0.0086
2524.00,0.0086
2523.00,0.0086
2522.00,0.0086
2521.00,0.0086
2520.00,0.0087
2519.00,0.0087
2518.00,0.0087
2517.00,0.0087
2516.00,0.0087
2515.00,0.0087
2514.00,0.0087
2513.00,0.0086
2512.00,0.0086
2511.00,0.0086
2510.00,0.0086
2509.00,0.0086
2508.00,0.0086
2507.00,0.0086
2506.00,0.0086
2505.00,0.0086
2504.00,0.0086
2503.00,0.0086
2502.00,0.0086
2501.00,0.0086
2500.00,0.0086
2499.00,0.0087
2498.00,0.0087
2497.00,0.0087
2496.00,0.0088
2495.00,0.0088
2494.00,0.0088
2493.00,0.0089
2492.00,0.0089
2491.00,0.0089
2490.00,0.0089
2489.00,0.0089
2488.00,0.0090
2487.00,0.0090
2486.00,0.0090
2485.00,0.0089
2484.00,0.0089
2483.00,0.0089
2482.00,0.0089
2481.00,0.0088
2480.00,0.0088
2479.00,0.0088
2478.00,0.0088
2477.00,0.0087
2476.00,0.0087
2475.00,0.0087
2474.00,0.0087
2473.00,0.0087
2472.00,0.0086
2471.00,0.0086
2470.00,0.0085
2469.00,0.0085
2468.00,0.0085
2467.00,0.0085
2466.00,0.0085
2465.00,0.0085
2464.00,0.0086
2463.00,0.0086
2462.00,0.0086
2461.00,0.0085
2460.00,0.0085
2459.00,0.0086
2458.00,0.0086
2457.00,0.0086
2456.00,0.0086
2455.00,0.0085
2454.00,0.0085
2453.00,0.0085
2452.00,0.0085
2451.00,0.0085
2450.00,0.0085
2449.00,0.0085
2448.00,0.0085
2447.00,0.0085
2446.00,0.0085
2445.00,0.0084
2444.00,0.0084
2443.00,0.0084
2442.00,0.0083
2441.00,0.0083
2440.00,0.0084
2439.00,0.0084
2438.00,0.0084
2437.00,0.0084
2436.00,0.0084
2435.00,0.0083
2434.00,0.0083
2433.00,0.0083
2432.00,0.0083
2431.00,0.0083
2430.00,0.0083
2429.00,0.0083
2428.00,0.0084
2427.00,0.0084
2426.00,0.0084
2425.00,0.0084
2424.00,0.0084
2423.00,0.0084
2422.00,0.0083
2421.00,0.0084
2420.00,0.0084
2419.00,0.0084
2418.00,0.0084
2417.00,0.0085
2416.00,0.0085
2415.00,0.0085
2414.00,0.0085
2413.00,0.0085
2412.00,0.0085
2411.00,0.0084
2410.00,0.0084
2409.00,0.0083
2408.00,0.0082
2407.00,0.0081
2406.00,0.0081
2405.00,0.0081
2404.00,0.0081
2403.00,0.0082
2402.00,0.0081
2401.00,0.0081
2400.00,0.0081
2399.00,0.0081
2398.00,0.0081
2397.00,0.0081
2396.00,0.0081
2395.00,0.0081
2394.00,0.0081
2393.00,0.0081
2392.00,0.0081
2391.00,0.0081
2390.00,0.0081
2389.00,0.0081
2388.00,0.0081
2387.00,0.0081
2386.00,0.0081
2385.00,0.0081
2384.00,0.0081
2383.00,0.0080
2382.00,0.0080
2381.00,0.0080
2380.00,0.0080
2379.00,0.0080
2378.00,0.0080
2377.00,0.0080
2376.00,0.0080
2375.00,0.0080
2374.00,0.0080
2373.00,0.0079
2372.00,0.0079
2371.00,0.0078
2370.00,0.0077
2369.00,0.0077
2368.00,0.0077
2367.00,0.0077
2366.00,0.0078
2365.00,0.0078
2364.00,0.0078
2363.00,0.0079
2362.00,0.0080
2361.00,0.0081
2360.00,0.0081
2359.00,0.0081
2358.00,0.0081
2357.00,0.0081
2356.00,0.0081
2355.00,0.0081
2354.00,0.0081
2353.00,0.0081
2352.00,0.0081
2351.00,0.0081
2350.00,0.0081
2349.00,0.0082
2348.00,0.0082
2347.00,0.0083
2346.00,0.0083
2345.00,0.0083
2344.00,0.0083
2343.00,0.0083
2342.00,0.0083
2341.00,0.0083
2340.00,0.0083
2339.00,0.0084
2338.00,0.0084
2337.00,0.0085
2336.00,0.0085
2335.00,0.0085
2334.00,0.0085
2333.00,0.0085
2332.00,0.0084
2331.00,0.0084
2330.00,0.0084
2329.00,0.0085
2328.00,0.0088
2327.00,0.0091
2326.00,0.0093
2325.00,0.0094
2324.00,0.0093
2323.00,0.0091
2322.00,0.0089
2321.00,0.0088
2320.00,0.0087
2319.00,0.0087
2318.00,0.0086
2317.00,0.0085
2316.00,0.0085
2315.00,0.0084
2314.00,0.0084
2313.00,0.0083
2312.00,0.0083
2311.00,0.0083
2310.00,0.0083
2309.00,0.0083
2308.00,0.0083
2307.00,0.0083
2306.00,0.0083
2305.00,0.0084
2304.00,0.0084
2303.00,0.0084
2302.00,0.0084
2301.00,0.0084
2300.00,0.0084
2299.00,0.0085
2298.00,0.0085
2297.00,0.0086
2296.00,0.0087
2295.00,0.0088
2294.00,0.0089
2293.00,0.0090
2292.00,0.0090
2291.00,0.0090
2290.00,0.0091
2289.00,0.0091
2288.00,0.0092
2287.00,0.0092
2286.00,0.0092
2285.00,0.0091
2284.00,0.0090
2283.00,0.0090
2282.00,0.0089
2281.00,0.0089
2280.00,0.0089
2279.00,0.0089
2278.00,0.0089
2277.00,0.0089
2276.00,0.0089
2275.00,0.0089
2274.00,0.0088
2273.00,0.0088
2272.00,0.0088
2271.00,0.0088
2270.00,0.0087
2269.00,0.0087
2268.00,0.0087
2267.00,0.0085
2266.00,0.0084
2265.00,0.0083
2264.00,0.0083
2263.00,0.0084
2262.00,0.0084
2261.00,0.0085
2260.00,0.0085
2259.00,0.0085
2258.00,0.0084
2257.00,0.0083
2256.00,0.0082
2255.00,0.0082
2254.00,0.0081
2253.00,0.0081
2252.00,0.0081
2251.00,0.0082
2250.00,0.0082
2249.00,0.0083
2248.00,0.0083
2247.00,0.0083
2246.00,0.0082
2245.00,0.0082
2244.00,0.0082
2243.00,0.0082
2242.00,0.0082
2241.00,0.0081
2240.00,0.0081
2239.00,0.0080
2238.00,0.0079
2237.00,0.0079
2236.00,0.0079
2235.00,0.0078
2234.00,0.0077
2233.00,0.0076
2232.00,0.0076
2231.00,0.0076
2230.00,0.0077
2229.00,0.0077
2228.00,0.0077
2227.00,0.0075
2226.00,0.0074
2225.00,0.0073
2224.00,0.0073
2223.00,0.0073
2222.00,0.0073
2221.00,0.0074
2220.00,0.0074
2219.00,0.0074
2218.00,0.0074
2217.00,0.0074
2216.00,0.0075
2215.00,0.0076
2214.00,0.0076
2213.00,0.0077
2212.00,0.0077
2211.00,0.0077
2210.00,0.0076
2209.00,0.0076
2208.00,0.0075
2207.00,0.0075
2206.00,0.0074
2205.00,0.0075
2204.00,0.0075
2203.00,0.0075
2202.00,0.0074
2201.00,0.0073
2200.00,0.0073
2199.00,0.0072
2198.00,0.0072
2197.00,0.0071
2196.00,0.0071
2195.00,0.0070
2194.00,0.0070
2193.00,0.0071
2192.00,0.0071
2191.00,0.0071
2190.00,0.0070
2189.00,0.0071
2188.00,0.0072
2187.00,0.0073
2186.00,0.0073
2185.00,0.0073
2184.00,0.0071
2183.00,0.0068
2182.00,0.0065
2181.00,0.0065
2180.00,0.0066
2179.00,0.0068
2178.00,0.0069
2177.00,0.0070
2176.00,0.0070
2175.00,0.0070
2174.00,0.0070
2173.00,0.0073
2172.00,0.0078
2171.00,0.0081
2170.00,0.0083
2169.00,0.0084
2168.00,0.0085
2167.00,0.0084
2166.00,0.0084
2165.00,0.0085
2164.00,0.0088
2163.00,0.0088
2162.00,0.0082
2161.00,0.0071
2160.00,0.0058
2159.00,0.0048
2158.00,0.0043
2157.00,0.0044
2156.00,0.0048
2155.00,0.0053
2154.00,0.0056
2153.00,0.0059
2152.00,0.0060
2151.00,0.0061
2150.00,0.0060
2149.00,0.0060
2148.00,0.0060
2147.00,0.0060
2146.00,0.0060
2145.00,0.0061
2144.00,0.0062
2143.00,0.0062
2142.00,0.0062
2141.00,0.0062
2140.00,0.0062
2139.00,0.0062
2138.00,0.0061
2137.00,0.0059
2136.00,0.0058
2135.00,0.0056
2134.00,0.0056
2133.00,0.0057
2132.00,0.0059
2131.00,0.0062
2130.00,0.0064
2129.00,0.0067
2128.00,0.0068
2127.00,0.0069
2126.00,0.0069
2125.00,0.0070
2124.00,0.0070
2123.00,0.0070
2122.00,0.0070
2121.00,0.0070
2120.00,0.0071
2119.00,0.0072
2118.00,0.0072
2117.00,0.0074
2116.00,0.0075
2115.00,0.0076
2114.00,0.0075
2113.00,0.0075
2112.00,0.0075
2111.00,0.0074
2110.00,0.0073
2109.00,0.0073
2108.00,0.0074
2107.00,0.0074
2106.00,0.0074
2105.00,0.0074
2104.00,0.0074
2103.00,0.0074
2102.00,0.0075
2101.00,0.0075
2100.00,0.0076
2099.00,0.0075
2098.00,0.0074
2097.00,0.0072
2096.00,0.0072
2095.00,0.0071
2094.00,0.0071
2093.00,0.0072
2092.00,0.0074
2091.00,0.0075
2090.00,0.0076
2089.00,0.0077
2088.00,0.0078
2087.00,0.0078
2086.00,0.0078
2085.00,0.0077
2084.00,0.0077
2083.00,0.0077
2082.00,0.0077
2081.00,0.0077
2080.00,0.0078
2079.00,0.0079
2078.00,0.0078
2077.00,0.0078
2076.00,0.0077
2075.00,0.0077
2074.00,0.0076
2073.00,0.0076
2072.00,0.0075
2071.00,0.0075
2070.00,0.0074
2069.00,0.0074
2068.00,0.0075
2067.00,0.0075
2066.00,0.0075
2065.00,0.0074
2064.00,0.0074
2063.00,0.0072
2062.00,0.0071
2061.00,0.0071
2060.00,0.0071
2059.00,0.0071
2058.00,0.0070
2057.00,0.0071
2056.00,0.0071
2055.00,0.0071
2054.00,0.0072
2053.00,0.0076
2052.00,0.0079
2051.00,0.0078
2050.00,0.0073
2049.00,0.0068
2048.00,0.0065
2047.00,0.0063
2046.00,0.0062
2045.00,0.0061
2044.00,0.0062
2043.00,0.0061
2042.00,0.0060
2041.00,0.0059
2040.00,0.0059
2039.00,0.0059
2038.00,0.0059
2037.00,0.0059
2036.00,0.0059
2035.00,0.0057
2034.00,0.0055
2033.00,0.0056
2032.00,0.0056
2031.00,0.0055
2030.00,0.0054
2029.00,0.0054
2028.00,0.0056
2027.00,0.0058
2026.00,0.0058
2025.00,0.0059
2024.00,0.0060
2023.00,0.0059
2022.00,0.0057
2021.00,0.0058
2020.00,0.0060
2019.00,0.0061
2018.00,0.0062
2017.00,0.0063
2016.00,0.0065
2015.00,0.0065
2014.00,0.0064
2013.00,0.0064
2012.00,0.0065
2011.00,0.0064
2010.00,0.0062
2009.00,0.0061
2008.00,0.0060
2007.00,0.0059
2006.00,0.0058
2005.00,0.0059
2004.00,0.0061
2003.00,0.0062
2002.00,0.0063
2001.00,0.0065
2000.00,0.0068
1999.00,0.0069
1998.00,0.0069
1997.00,0.0069
1996.00,0.0070
1995.00,0.0069
1994.00,0.0068
1993.00,0.0068
1992.00,0.0069
1991.00,0.0070
1990.00,0.0071
1989.00,0.0072
1988.00,0.0073
1987.00,0.0072
1986.00,0.0071
1985.00,0.0071
1984.00,0.0074
1983.00,0.0076
1982.00,0.0078
1981.00,0.0078
1980.00,0.0076
1979.00,0.0069
1978.00,0.0061
1977.00,0.0058
1976.00,0.0057
1975.00,0.0057
1974.00,0.0056
1973.00,0.0056
1972.00,0.0057
1971.00,0.0056
1970.00,0.0056
1969.00,0.0057
1968.00,0.0060
1967.00,0.0060
1966.00,0.0060
1965.00,0.0060
1964.00,0.0061
1963.00,0.0060
1962.00,0.0059
1961.00,0.0059
1960.00,0.0060
1959.00,0.0060
1958.00,0.0061
1957.00,0.0063
1956.00,0.0065
1955.00,0.0065
1954.00,0.0064
1953.00,0.0063
1952.00,0.0064
1951.00,0.0063
1950.00,0.0062
1949.00,0.0061
1948.00,0.0061
1947.00,0.0061
1946.00,0.0061
1945.00,0.0062
1944.00,0.0063
1943.00,0.0062
1942.00,0.0061
1941.00,0.0062
1940.00,0.0064
1939.00,0.0064
1938.00,0.0064
1937.00,0.0065
1936.00,0.0066
1935.00,0.0066
1934.00,0.0066
1933.00,0.0066
1932.00,0.0066
1931.00,0.0066
1930.00,0.0065
1929.00,0.0066
1928.00,0.0067
1927.00,0.0067
1926.00,0.0067
1925.00,0.0068
1924.00,0.0069
1923.00,0.0069
1922.00,0.0068
1921.00,0.0070
1920.00,0.0071
1919.00,0.0071
1918.00,0.0069
1917.00,0.0069
1916.00,0.0069
1915.00,0.0070
1914.00,0.0070
1913.00,0.0071
1912.00,0.0072
1911.00,0.0073
1910.00,0.0073
1909.00,0.0073
1908.00,0.0074
1907.00,0.0075
1906.00,0.0075
1905.00,0.0075
1904.00,0.0076
1903.00,0.0076
1902.00,0.0076
1901.00,0.0076
1900.00,0.0076
1899.00,0.0075
1898.00,0.0074
1897.00,0.0074
1896.00,0.0073
1895.00,0.0071
1894.00,0.0069
1893.00,0.0069
1892.00,0.0070
1891.00,0.0069
1890.00,0.0068
1889.00,0.0067
1888.00,0.0067
1887.00,0.0066
1886.00,0.0066
1885.00,0.0066
1884.00,0.0066
1883.00,0.0066
1882.00,0.0066
1881.00,0.0066
1880.00,0.0066
1879.00,0.0066
1878.00,0.0065
1877.00,0.0065
1876.00,0.0065
1875.00,0.0065
1874.00,0.0065
1873.00,0.0066
1872.00,0.0067
1871.00,0.0067
1870.00,0.0067
1869.00,0.0066
1868.00,0.0065
1867.00,0.0064
1866.00,0.0063
1865.00,0.0064
1864.00,0.0064
1863.00,0.0064
1862.00,0.0064
1861.00,0.0064
1860.00,0.0065
1859.00,0.0064
1858.00,0.0064
1857.00,0.0064
1856.00,0.0064
1855.00,0.0064
1854.00,0.0064
1853.00,0.0064
1852.00,0.0064
1851.00,0.0064
1850.00,0.0064
1849.00,0.0064
1848.00,0.0064
1847.00,0.0065
1846.00,0.0065
1845.00,0.0064
1844.00,0.0062
1843.00,0.0060
1842.00,0.0059
1841.00,0.0060
1840.00,0.0061
1839.00,0.0061
1838.00,0.0061
1837.00,0.0061
1836.00,0.0061
1835.00,0.0061
1834.00,0.0062
1833.00,0.0064
1832.00,0.0066
1831.00,0.0066
1830.00,0.0064
1829.00,0.0063
1828.00,0.0065
1827.00,0.0066
1826.00,0.0067
1825.00,0.0067
1824.00,0.0067
1823.00,0.0066
1822.00,0.0066
1821.00,0.0066
1820.00,0.0065
1819.00,0.0063
1818.00,0.0061
1817.00,0.0060
1816.00,0.0060
1815.00,0.0060
1814.00,0.0060
1813.00,0.0061
1812.00,0.0062
1811.00,0.0061
1810.00,0.0061
1809.00,0.0060
1808.00,0.0061
1807.00,0.0061
1806.00,0.0061
1805.00,0.0062
1804.00,0.0063
1803.00,0.0064
1802.00,0.0064
1801.00,0.0064
1800.00,0.0064
1799.00,0.0063
1798.00,0.0063
1797.00,0.0063
1796.00,0.0065
1795.00,0.0067
1794.00,0.0068
1793.00,0.0067
1792.00,0.0067
1791.00,0.0065
1790.00,0.0064
1789.00,0.0064
1788.00,0.0066
1787.00,0.0066
1786.00,0.0066
1785.00,0.0066
1784.00,0.0066
1783.00,0.0066
1782.00,0.0066
1781.00,0.0066
1780.00,0.0066
1779.00,0.0066
1778.00,0.0066
1777.00,0.0067
1776.00,0.0068
1775.00,0.0070
1774.00,0.0070
1773.00,0.0070
1772.00,0.0069
1771.00,0.0069
1770.00,0.0069
1769.00,0.0070
1768.00,0.0071
1767.00,0.0070
1766.00,0.0070
1765.00,0.0072
1764.00,0.0074
1763.00,0.0075
1762.00,0.0073
1761.00,0.0073
1760.00,0.0074
1759.00,0.0075
1758.00,0.0076
1757.00,0.0075
1756.00,0.0075
1755.00,0.0076
1754.00,0.0077
1753.00,0.0079
1752.00,0.0081
1751.00,0.0082
1750.00,0.0081
1749.00,0.0083
1748.00,0.0085
1747.00,0.0087
1746.00,0.0089
1745.00,0.0093
1744.00,0.0097
1743.00,0.0101
1742.00,0.0104
1741.00,0.0108
1740.00,0.0113
1739.00,0.0115
1738.00,0.0118
1737.00,0.0123
1736.00,0.0129
1735.00,0.0132
1734.00,0.0133
1733.00,0.0136
1732.00,0.0141
1731.00,0.0144
1730.00,0.0145
1729.00,0.0146
1728.00,0.0148
1727.00,0.0148
1726.00,0.0148
1725.00,0.0149
1724.00,0.0151
1723.00,0.0154
1722.00,0.0157
1721.00,0.0163
1720.00,0.0172
1719.00,0.0182
1718.00,0.0195
1717.00,0.0217
1716.00,0.0243
1715.00,0.0268
1714.00,0.0294
1713.00,0.0325
1712.00,0.0363
1711.00,0.0410
1710.00,0.0468
1709.00,0.0541
1708.00,0.0630
1707.00,0.0737
1706.00,0.0863
1705.00,0.0989
1704.00,0.1083
1703.00,0.1138
1702.00,0.1168
1701.00,0.1188
1700.00,0.1192
1699.00,0.1165
1698.00,0.1116
1697.00,0.1066
1696.00,0.1035
1695.00,0.1032
1694.00,0.1046
1693.00,0.1070
1692.00,0.1106
1691.00,0.1159
1690.00,0.1226
1689.00,0.1287
1688.00,0.1325
1687.00,0.1338
1686.00,0.1337
1685.00,0.1340
1684.00,0.1349
1683.00,0.1340
1682.00,0.1301
1681.00,0.1245
1680.00,0.1186
1679.00,0.1128
1678.00,0.1072
1677.00,0.1015
1676.00,0.0961
1675.00,0.0916
1674.00,0.0879
1673.00,0.0844
1672.00,0.0811
1671.00,0.0783
1670.00,0.0761
1669.00,0.0740
1668.00,0.0716
1667.00,0.0689
1666.00,0.0661
1665.00,0.0634
1664.00,0.0608
1663.00,0.0588
1662.00,0.0574
1661.00,0.0562
1660.00,0.0551
1659.00,0.0541
1658.00,0.0535
1657.00,0.0529
1656.00,0.0523
1655.00,0.0523
1654.00,0.0543
1653.00,0.0587
1652.00,0.0627
1651.00,0.0645
1650.00,0.0651
1649.00,0.0658
1648.00,0.0675
1647.00,0.0703
1646.00,0.0727
1645.00,0.0729
1644.00,0.0709
1643.00,0.0678
1642.00,0.0640
1641.00,0.0601
1640.00,0.0563
1639.00,0.0528
1638.00,0.0497
1637.00,0.0475
1636.00,0.0466
1635.00,0.0470
1634.00,0.0476
1633.00,0.0480
1632.00,0.0485
1631.00,0.0496
1630.00,0.0515
1629.00,0.0543
1628.00,0.0577
1627.00,0.0610
1626.00,0.0639
1625.00,0.0666
1624.00,0.0698
1623.00,0.0734
1622.00,0.0764
1621.00,0.0779
1620.00,0.0781
1619.00,0.0779
1618.00,0.0780
1617.00,0.0787
1616.00,0.0792
1615.00,0.0785
1614.00,0.0764
1613.00,0.0734
1612.00,0.0702
1611.00,0.0674
1610.00,0.0651
1609.00,0.0633
1608.00,0.0621
1607.00,0.0617
1606.00,0.0614
1605.00,0.0608
1604.00,0.0593
1603.00,0.0568
1602.00,0.0534
1601.00,0.0494
1600.00,0.0452
1599.00,0.0415
1598.00,0.0381
1597.00,0.0352
1596.00,0.0326
1595.00,0.0303
1594.00,0.0283
1593.00,0.0264
1592.00,0.0245
1591.00,0.0228
1590.00,0.0212
1589.00,0.0198
1588.00,0.0184
1587.00,0.0171
1586.00,0.0161
1585.00,0.0152
1584.00,0.0146
1583.00,0.0143
1582.00,0.0145
1581.00,0.0152
1580.00,0.0160
1579.00,0.0168
1578.00,0.0172
1577.00,0.0173
1576.00,0.0170
1575.00,0.0165
1574.00,0.0158
1573.00,0.0149
1572.00,0.0139
1571.00,0.0131
1570.00,0.0127
1569.00,0.0127
1568.00,0.0125
1567.00,0.0123
1566.00,0.0122
1565.00,0.0121
1564.00,0.0120
1563.00,0.0119
1562.00,0.0119
1561.00,0.0119
1560.00,0.0119
1559.00,0.0125
1558.00,0.0136
1557.00,0.0140
1556.00,0.0139
1555.00,0.0138
1554.00,0.0139
1553.00,0.0142
1552.00,0.0144
1551.00,0.0146
1550.00,0.0151
1549.00,0.0157
1548.00,0.0162
1547.00,0.0169
1546.00,0.0178
1545.00,0.0190
1544.00,0.0202
1543.00,0.0215
1542.00,0.0233
1541.00,0.0261
1540.00,0.0303
1539.00,0.0351
1538.00,0.0393
1537.00,0.0427
1536.00,0.0462
1535.00,0.0513
1534.00,0.0594
1533.00,0.0697
1532.00,0.0800
1531.00,0.0896
1530.00,0.0994
1529.00,0.1099
1528.00,0.1207
1527.00,0.1306
1526.00,0.1376
1525.00,0.1399
1524.00,0.1373
1523.00,0.1310
1522.00,0.1221
1521.00,0.1122
1520.00,0.1031
1519.00,0.0953
1518.00,0.0886
1517.00,0.0829
1516.00,0.0787
1515.00,0.0762
1514.00,0.0748
1513.00,0.0745
1512.00,0.0755
1511.00,0.0774
1510.00,0.0797
1509.00,0.0826
1508.00,0.0878
1507.00,0.0972
1506.00,0.1076
1505.00,0.1145
1504.00,0.1179
1503.00,0.1203
1502.00,0.1231
1501.00,0.1268
1500.00,0.1312
1499.00,0.1360
1498.00,0.1410
1497.00,0.1459
1496.00,0.1496
1495.00,0.1509
1494.00,0.1498
1493.00,0.1470
1492.00,0.1437
1491.00,0.1407
1490.00,0.1385
1489.00,0.1359
1488.00,0.1325
1487.00,0.1282
1486.00,0.1236
1485.00,0.1188
1484.00,0.1138
1483.00,0.1089
1482.00,0.1043
1481.00,0.1001
1480.00,0.0962
1479.00,0.0926
1478.00,0.0896
1477.00,0.0871
1476.00,0.0850
1475.00,0.0831
1474.00,0.0813
1473.00,0.0794
1472.00,0.0774
1471.00,0.0751
1470.00,0.0727
1469.00,0.0702
1468.00,0.0680
1467.00,0.0661
1466.00,0.0648
1465.00,0.0638
1464.00,0.0629
1463.00,0.0616
1462.00,0.0601
1461.00,0.0584
1460.00,0.0568
1459.00,0.0554
1458.00,0.0548
1457.00,0.0550
1456.00,0.0553
1455.00,0.0551
1454.00,0.0544
1453.00,0.0538
1452.00,0.0536
1451.00,0.0537
1450.00,0.0543
1449.00,0.0555
1448.00,0.0574
1447.00,0.0596
1446.00,0.0616
1445.00,0.0634
1444.00,0.0651
1443.00,0.0669
1442.00,0.0686
1441.00,0.0701
1440.00,0.0713
1439.00,0.0731
1438.00,0.0770
1437.00,0.0849
1436.00,0.0962
1435.00,0.1074
1434.00,0.1171
1433.00,0.1255
1432.00,0.1329
1431.00,0.1385
1430.00,0.1411
1429.00,0.1402
1428.00,0.1355
1427.00,0.1279
1426.00,0.1190
1425.00,0.1099
1424.00,0.1015
1423.00,0.0940
1422.00,0.0874
1421.00,0.0815
1420.00,0.0762
1419.00,0.0714
1418.00,0.0672
1417.00,0.0633
1416.00,0.0596
1415.00,0.0561
1414.00,0.0529
1413.00,0.0501
1412.00,0.0476
1411.00,0.0454
1410.00,0.0435
1409.00,0.0417
1408.00,0.0400
1407.00,0.0386
1406.00,0.0374
1405.00,0.0363
1404.00,0.0353
1403.00,0.0344
1402.00,0.0337
1401.00,0.0330
1400.00,0.0325
1399.00,0.0323
1398.00,0.0324
1397.00,0.0325
1396.00,0.0330
1395.00,0.0340
1394.00,0.0354
1393.00,0.0368
1392.00,0.0383
1391.00,0.0400
1390.00,0.0421
1389.00,0.0445
1388.00,0.0475
1387.00,0.0509
1386.00,0.0539
1385.00,0.0562
1384.00,0.0578
1383.00,0.0589
1382.00,0.0598
1381.00,0.0605
1380.00,0.0613
1379.00,0.0621
1378.00,0.0624
1377.00,0.0618
1376.00,0.0599
1375.00,0.0567
1374.00,0.0525
1373.00,0.0482
1372.00,0.0442
1371.00,0.0410
1370.00,0.0385
1369.00,0.0367
1368.00,0.0356
1367.00,0.0350
1366.00,0.0350
1365.00,0.0354
1364.00,0.0363
1363.00,0.0378
1362.00,0.0397
1361.00,0.0416
1360.00,0.0436
1359.00,0.0457
1358.00,0.0480
1357.00,0.0505
1356.00,0.0535
1355.00,0.0570
1354.00,0.0614
1353.00,0.0666
1352.00,0.0730
1351.00,0.0804
1350.00,0.0886
1349.00,0.0968
1348.00,0.1041
1347.00,0.1097
1346.00,0.1133
1345.00,0.1149
1344.00,0.1147
1343.00,0.1129
1342.00,0.1096
1341.00,0.1047
1340.00,0.0983
1339.00,0.0911
1338.00,0.0838
1337.00,0.0771
1336.00,0.0719
1335.00,0.0686
1334.00,0.0676
1333.00,0.0691
1332.00,0.0728
1331.00,0.0777
1330.00,0.0820
1329.00,0.0840
1328.00,0.0829
1327.00,0.0792
1326.00,0.0741
1325.00,0.0693
1324.00,0.0655
1323.00,0.0631
1322.00,0.0619
1321.00,0.0615
1320.00,0.0616
1319.00,0.0621
1318.00,0.0631
1317.00,0.0647
1316.00,0.0668
1315.00,0.0696
1314.00,0.0732
1313.00,0.0777
1312.00,0.0833
1311.00,0.0896
1310.00,0.0963
1309.00,0.1023
1308.00,0.1067
1307.00,0.1087
1306.00,0.1083
1305.00,0.1060
1304.00,0.1026
1303.00,0.0984
1302.00,0.0937
1301.00,0.0888
1300.00,0.0840
1299.00,0.0796
1298.00,0.0760
1297.00,0.0733
1296.00,0.0717
1295.00,0.0713
1294.00,0.0721
1293.00,0.0743
1292.00,0.0780
1291.00,0.0833
1290.00,0.0901
1289.00,0.0981
1288.00,0.1068
1287.00,0.1155
1286.00,0.1233
1285.00,0.1298
1284.00,0.1346
1283.00,0.1376
1282.00,0.1387
1281.00,0.1381
1280.00,0.1359
1279.00,0.1325
1278.00,0.1282
1277.00,0.1233
1276.00,0.1181
1275.00,0.1129
1274.00,0.1077
1273.00,0.1027
1272.00,0.0979
1271.00,0.0935
1270.00,0.0892
1269.00,0.0852
1268.00,0.0813
1267.00,0.0775
1266.00,0.0739
1265.00,0.0704
1264.00,0.0671
1263.00,0.0640
1262.00,0.0612
1261.00,0.0586
1260.00,0.0562
1259.00,0.0541
1258.00,0.0522
1257.00,0.0506
1256.00,0.0491
1255.00,0.0478
1254.00,0.0467
1253.00,0.0458
1252.00,0.0452
1251.00,0.0450
1250.00,0.0451
1249.00,0.0454
1248.00,0.0460
1247.00,0.0469
1246.00,0.0479
1245.00,0.0492
1244.00,0.0507
1243.00,0.0525
1242.00,0.0548
1241.00,0.0573
1240.00,0.0601
1239.00,0.0631
1238.00,0.0662
1237.00,0.0689
1236.00,0.0712
1235.00,0.0728
1234.00,0.0736
1233.00,0.0738
1232.00,0.0737
1231.00,0.0738
1230.00,0.0744
1229.00,0.0753
1228.00,0.0767
1227.00,0.0785
1226.00,0.0804
1225.00,0.0824
1224.00,0.0844
1223.00,0.0864
1222.00,0.0885
1221.00,0.0906
1220.00,0.0928
1219.00,0.0952
1218.00,0.0979
1217.00,0.1010
1216.00,0.1046
1215.00,0.1089
1214.00,0.1139
1213.00,0.1199
1212.00,0.1268
1211.00,0.1344
1210.00,0.1421
1209.00,0.1495
1208.00,0.1558
1207.00,0.1603
1206.00,0.1626
1205.00,0.1625
1204.00,0.1600
1203.00,0.1553
1202.00,0.1489
1201.00,0.1414
1200.00,0.1334
1199.00,0.1256
1198.00,0.1185
1197.00,0.1127
1196.00,0.1087
1195.00,0.1068
1194.00,0.1072
1193.00,0.1097
1192.00,0.1143
1191.00,0.1204
1190.00,0.1272
1189.00,0.1340
1188.00,0.1400
1187.00,0.1450
1186.00,0.1489
1185.00,0.1518
1184.00,0.1535
1183.00,0.1536
1182.00,0.1517
1181.00,0.1481
1180.00,0.1431
1179.00,0.1370
1178.00,0.1300
1177.00,0.1222
1176.00,0.1139
1175.00,0.1053
1174.00,0.0970
1173.00,0.0892
1172.00,0.0824
1171.00,0.0766
1170.00,0.0722
1169.00,0.0689
1168.00,0.0669
1167.00,0.0660
1166.00,0.0659
1165.00,0.0662
1164.00,0.0664
1163.00,0.0661
1162.00,0.0652
1161.00,0.0636
1160.00,0.0618
1159.00,0.0599
1158.00,0.0580
1157.00,0.0563
1156.00,0.0548
1155.00,0.0538
1154.00,0.0533
1153.00,0.0533
1152.00,0.0537
1151.00,0.0545
1150.00,0.0557
1149.00,0.0573
1148.00,0.0598
1147.00,0.0635
1146.00,0.0686
1145.00,0.0752
1144.00,0.0824
1143.00,0.0889
1142.00,0.0928
1141.00,0.0931
1140.00,0.0902
1139.00,0.0857
1138.00,0.0820
1137.00,0.0806
1136.00,0.0823
1135.00,0.0867
1134.00,0.0926
1133.00,0.0980
1132.00,0.1015
1131.00,0.1020
1130.00,0.1001
1129.00,0.0968
1128.00,0.0937
1127.00,0.0918
1126.00,0.0916
1125.00,0.0933
1124.00,0.0970
1123.00,0.1025
1122.00,0.1098
1121.00,0.1188
1120.00,0.1295
1119.00,0.1412
1118.00,0.1530
1117.00,0.1632
1116.00,0.1702
1115.00,0.1729
1114.00,0.1712
1113.00,0.1659
1112.00,0.1582
1111.00,0.1495
1110.00,0.1409
1109.00,0.1333
1108.00,0.1273
1107.00,0.1234
1106.00,0.1218
1105.00,0.1225
1104.00,0.1255
1103.00,0.1304
1102.00,0.1370
1101.00,0.1446
1100.00,0.1525
1099.00,0.1598
1098.00,0.1654
1097.00,0.1688
1096.00,0.1695
1095.00,0.1677
1094.00,0.1640
1093.00,0.1589
1092.00,0.1528
1091.00,0.1462
1090.00,0.1391
1089.00,0.1318
1088.00,0.1245
1087.00,0.1175
1086.00,0.1110
1085.00,0.1049
1084.00,0.0993
1083.00,0.0943
1082.00,0.0897
1081.00,0.0856
1080.00,0.0820
1079.00,0.0787
1078.00,0.0757
1077.00,0.0731
1076.00,0.0707
1075.00,0.0686
1074.00,0.0668
1073.00,0.0653
1072.00,0.0640
1071.00,0.0629
1070.00,0.0620
1069.00,0.0610
1068.00,0.0600
1067.00,0.0591
1066.00,0.0586
1065.00,0.0589
1064.00,0.0601
1063.00,0.0627
1062.00,0.0664
1061.00,0.0710
1060.00,0.0757
1059.00,0.0798
1058.00,0.0828
1057.00,0.0844
1056.00,0.0848
1055.00,0.0844
1054.00,0.0836
1053.00,0.0827
1052.00,0.0818
1051.00,0.0812
1050.00,0.0808
1049.00,0.0803
1048.00,0.0793
1047.00,0.0778
1046.00,0.0757
1045.00,0.0734
1044.00,0.0711
1043.00,0.0691
1042.00,0.0674
1041.00,0.0661
1040.00,0.0651
1039.00,0.0646
1038.00,0.0645
1037.00,0.0650
1036.00,0.0661
1035.00,0.0681
1034.00,0.0711
1033.00,0.0752
1032.00,0.0805
1031.00,0.0869
1030.00,0.0940
1029.00,0.1013
1028.00,0.1082
1027.00,0.1142
1026.00,0.1188
1025.00,0.1219
1024.00,0.1237
1023.00,0.1241
1022.00,0.1234
1021.00,0.1216
1020.00,0.1187
1019.00,0.1150
1018.00,0.1105
1017.00,0.1056
1016.00,0.1005
1015.00,0.0953
1014.00,0.0903
1013.00,0.0856
1012.00,0.0813
1011.00,0.0774
1010.00,0.0738
1009.00,0.0706
1008.00,0.0677
1007.00,0.0651
1006.00,0.0628
1005.00,0.0608
1004.00,0.0589
1003.00,0.0572
1002.00,0.0556
1001.00,0.0540
1000.00,0.0525
999.00,0.0512
998.00,0.0501
997.00,0.0492
996.00,0.0485
995.00,0.0479
994.00,0.0473
993.00,0.0467
992.00,0.0462
991.00,0.0458
990.00,0.0456
989.00,0.0454
988.00,0.0454
987.00,0.0454
986.00,0.0456
985.00,0.0458
984.00,0.0460
983.00,0.0461
982.00,0.0462
981.00,0.0461
980.00,0.0457
979.00,0.0452
978.00,0.0444
977.00,0.0436
976.00,0.0426
975.00,0.0418
974.00,0.0410
973.00,0.0403
972.00,0.0397
971.00,0.0392
970.00,0.0388
969.00,0.0386
968.00,0.0385
967.00,0.0385
966.00,0.0388
965.00,0.0391
964.00,0.0395
963.00,0.0397
962.00,0.0397
961.00,0.0395
960.00,0.0390
959.00,0.0386
958.00,0.0383
957.00,0.0382
956.00,0.0383
955.00,0.0386
954.00,0.0393
953.00,0.0401
952.00,0.0409
951.00,0.0415
950.00,0.0416
949.00,0.0412
948.00,0.0404
947.00,0.0395
946.00,0.0384
945.00,0.0373
944.00,0.0363
943.00,0.0353
942.00,0.0344
941.00,0.0336
940.00,0.0329
939.00,0.0322
938.00,0.0317
937.00,0.0312
936.00,0.0308
935.00,0.0304
934.00,0.0300
933.00,0.0296
932.00,0.0293
931.00,0.0290
930.00,0.0287
929.00,0.0285
928.00,0.0282
927.00,0.0280
926.00,0.0278
925.00,0.0277
924.00,0.0275
923.00,0.0274
922.00,0.0272
921.00,0.0270
920.00,0.0267
919.00,0.0264
918.00,0.0261
917.00,0.0259
916.00,0.0255
915.00,0.0252
914.00,0.0250
913.00,0.0248
912.00,0.0247
911.00,0.0247
910.00,0.0247
909.00,0.0246
908.00,0.0245
907.00,0.0243
906.00,0.0241
905.00,0.0238
904.00,0.0235
903.00,0.0233
902.00,0.0231
901.00,0.0229
900.00,0.0228
899.00,0.0227
898.00,0.0226
897.00,0.0226
896.00,0.0225
895.00,0.0223
894.00,0.0219
893.00,0.0213
892.00,0.0205
891.00,0.0195
890.00,0.0187
889.00,0.0182
888.00,0.0181
887.00,0.0182
886.00,0.0183
885.00,0.0183
884.00,0.0183
883.00,0.0186
882.00,0.0191
881.00,0.0197
880.00,0.0203
879.00,0.0208
878.00,0.0211
877.00,0.0215
876.00,0.0219
875.00,0.0223
874.00,0.0226
873.00,0.0226
872.00,0.0223
871.00,0.0219
870.00,0.0215
869.00,0.0212
868.00,0.0212
867.00,0.0216
866.00,0.0226
865.00,0.0249
864.00,0.0289
863.00,0.0351
862.00,0.0434
861.00,0.0518
860.00,0.0577
859.00,0.0589
858.00,0.0552
857.00,0.0485
856.00,0.0411
855.00,0.0350
854.00,0.0305
853.00,0.0277
852.00,0.0261
851.00,0.0252
850.00,0.0250
849.00,0.0253
848.00,0.0264
847.00,0.0284
846.00,0.0311
845.00,0.0340
844.00,0.0364
843.00,0.0376
842.00,0.0376
841.00,0.0369
840.00,0.0362
839.00,0.0364
838.00,0.0382
837.00,0.0422
836.00,0.0485
835.00,0.0576
834.00,0.0698
833.00,0.0845
832.00,0.0993
831.00,0.1102
830.00,0.1134
829.00,0.1081
828.00,0.0971
827.00,0.0843
826.00,0.0727
825.00,0.0633
824.00,0.0563
823.00,0.0510
822.00,0.0469
821.00,0.0437
820.00,0.0409
819.00,0.0386
818.00,0.0366
817.00,0.0350
816.00,0.0337
815.00,0.0327
814.00,0.0319
813.00,0.0313
812.00,0.0309
811.00,0.0309
810.00,0.0312
809.00,0.0318
808.00,0.0328
807.00,0.0342
806.00,0.0358
805.00,0.0374
804.00,0.0385
803.00,0.0386
802.00,0.0376
801.00,0.0356
800.00,0.0335
799.00,0.0319
798.00,0.0316
797.00,0.0327
796.00,0.0348
795.00,0.0373
794.00,0.0397
793.00,0.0414
792.00,0.0423
791.00,0.0427
790.00,0.0434
789.00,0.0448
788.00,0.0470
787.00,0.0495
786.00,0.0518
785.00,0.0536
784.00,0.0550
783.00,0.0569
782.00,0.0604
781.00,0.0659
780.00,0.0723
779.00,0.0771
778.00,0.0775
777.00,0.0731
776.00,0.0659
775.00,0.0583
774.00,0.0518
773.00,0.0466
772.00,0.0424
771.00,0.0390
770.00,0.0363
769.00,0.0345
768.00,0.0335
767.00,0.0334
766.00,0.0342
765.00,0.0355
764.00,0.0370
763.00,0.0385
762.00,0.0399
761.00,0.0415
760.00,0.0436
759.00,0.0464
758.00,0.0504
757.00,0.0560
756.00,0.0636
755.00,0.0727
754.00,0.0815
753.00,0.0874
752.00,0.0889
751.00,0.0862
750.00,0.0816
749.00,0.0775
748.00,0.0753
747.00,0.0746
746.00,0.0744
745.00,0.0739
744.00,0.0729
743.00,0.0721
742.00,0.0723
741.00,0.0741
740.00,0.0777
739.00,0.0821
738.00,0.0856
737.00,0.0861
736.00,0.0828
735.00,0.0763
734.00,0.0683
733.00,0.0605
732.00,0.0540
731.00,0.0488
730.00,0.0446
729.00,0.0412
728.00,0.0385
727.00,0.0365
726.00,0.0349
725.00,0.0338
724.00,0.0330
723.00,0.0327
722.00,0.0331
721.00,0.0341
720.00,0.0362
719.00,0.0395
718.00,0.0441
717.00,0.0499
716.00,0.0568
715.00,0.0648
714.00,0.0747
713.00,0.0871
712.00,0.1020
711.00,0.1173
710.00,0.1292
709.00,0.1339
708.00,0.1297
707.00,0.1184
706.00,0.1039
705.00,0.0896
704.00,0.0776
703.00,0.0684
702.00,0.0615
701.00,0.0564
700.00,0.0524
699.00,0.0494
698.00,0.0472
697.00,0.0456
696.00,0.0446
695.00,0.0441
694.00,0.0441
693.00,0.0447
692.00,0.0458
691.00,0.0476
690.00,0.0502
689.00,0.0540
688.00,0.0593
687.00,0.0666
686.00,0.0761
685.00,0.0868
684.00,0.0965
683.00,0.1026
682.00,0.1042
681.00,0.1025
680.00,0.0995
679.00,0.0968
678.00,0.0942
677.00,0.0909
676.00,0.0867
675.00,0.0819
674.00,0.0769
673.00,0.0722
672.00,0.0680
671.00,0.0641
670.00,0.0607
669.00,0.0578
668.00,0.0555
667.00,0.0540
666.00,0.0531
665.00,0.0525
664.00,0.0521
663.00,0.0522
662.00,0.0524
661.00,0.0529
660.00,0.0536
659.00,0.0545
658.00,0.0557
657.00,0.0572
656.00,0.0588
655.00,0.0608
654.00,0.0629
653.00,0.0650
652.00,0.0673
651.00,0.0697
650.00,0.0720
649.00,0.0741
648.00,0.0757
647.00,0.0766
646.00,0.0766
645.00,0.0756
644.00,0.0738
643.00,0.0710
642.00,0.0676
641.00,0.0635
640.00,0.0591
639.00,0.0547
638.00,0.0506
637.00,0.0470
636.00,0.0440
635.00,0.0415
634.00,0.0396
633.00,0.0384
632.00,0.0377
631.00,0.0376
630.00,0.0382
629.00,0.0393
628.00,0.0411
627.00,0.0435
626.00,0.0462
625.00,0.0493
624.00,0.0525
623.00,0.0559
622.00,0.0595
621.00,0.0633
620.00,0.0674
619.00,0.0717
618.00,0.0760
617.00,0.0801
616.00,0.0837
615.00,0.0866
614.00,0.0886
613.00,0.0896
612.00,0.0897
611.00,0.0888
610.00,0.0870
609.00,0.0846
608.00,0.0818
607.00,0.0787
606.00,0.0755
605.00,0.0724
604.00,0.0698
603.00,0.0679
602.00,0.0671
601.00,0.0679
600.00,0.0704
599.00,0.0739
598.00,0.0770
597.00,0.0781
596.00,0.0768
595.00,0.0736
594.00,0.0696
593.00,0.0658
592.00,0.0622
591.00,0.0588
590.00,0.0557
589.00,0.0533
588.00,0.0519
587.00,0.0523
586.00,0.0547
585.00,0.0588
584.00,0.0641
583.00,0.0695
582.00,0.0738
581.00,0.0764
580.00,0.0770
579.00,0.0760
578.00,0.0741
577.00,0.0719
576.00,0.0698
575.00,0.0679
574.00,0.0661
573.00,0.0644
572.00,0.0628
571.00,0.0614
570.00,0.0604
569.00,0.0598
568.00,0.0592
567.00,0.0585
566.00,0.0579
565.00,0.0575
564.00,0.0574
563.00,0.0572
562.00,0.0567
561.00,0.0557
560.00,0.0543
559.00,0.0526
558.00,0.0509
557.00,0.0491
556.00,0.0473
555.00,0.0456
554.00,0.0441
553.00,0.0428
552.00,0.0417
551.00,0.0408
550.00,0.0401
549.00,0.0396
548.00,0.0393
547.00,0.0389
546.00,0.0385
545.00,0.0380
544.00,0.0373
543.00,0.0368
542.00,0.0364
541.00,0.0361
540.00,0.0356
539.00,0.0352
538.00,0.0347
537.00,0.0341
536.00,0.0335
535.00,0.0330
534.00,0.0326
533.00,0.0323
532.00,0.0321
531.00,0.0321
530.00,0.0321
529.00,0.0319
528.00,0.0317
527.00,0.0314
526.00,0.0311
525.00,0.0308
524.00,0.0303
523.00,0.0299
522.00,0.0297
521.00,0.0297
520.00,0.0297
519.00,0.0297
518.00,0.0297
517.00,0.0297
516.00,0.0297
515.00,0.0301
514.00,0.0307
513.00,0.0315
512.00,0.0323
511.00,0.0332
510.00,0.0337
509.00,0.0338
508.00,0.0335
507.00,0.0330
506.00,0.0324
505.00,0.0317
504.00,0.0308
503.00,0.0301
502.00,0.0294
501.00,0.0288
500.00,0.0281
499.00,0.0275
498.00,0.0269
497.00,0.0264
496.00,0.0258
495.00,0.0254
494.00,0.0250
493.00,0.0245
492.00,0.0241
491.00,0.0238
490.00,0.0238
489.00,0.0239
488.00,0.0237
487.00,0.0235
486.00,0.0234
485.00,0.0233
484.00,0.0233
483.00,0.0233
482.00,0.0234
481.00,0.0235
480.00,0.0238
479.00,0.0243
478.00,0.0249
477.00,0.0254
476.00,0.0256
475.00,0.0259
474.00,0.0265
473.00,0.0274
472.00,0.0283
471.00,0.0289
470.00,0.0293
469.00,0.0296
468.00,0.0298
467.00,0.0299
466.00,0.0298
465.00,0.0296
464.00,0.0293
463.00,0.0291
462.00,0.0289
461.00,0.0285
460.00,0.0280
459.00,0.0277
458.00,0.0278
457.00,0.0282
456.00,0.0284
455.00,0.0285
454.00,0.0288
453.00,0.0293
452.00,0.0298
451.00,0.0304
450.00,0.0308
449.00,0.0310
448.00,0.0307
447.00,0.0302
446.00,0.0298
445.00,0.0292
444.00,0.0284
443.00,0.0277
442.00,0.0271
441.00,0.0266
440.00,0.0262
439.00,0.0258
438.00,0.0256
437.00,0.0252
436.00,0.0248
435.00,0.0245
434.00,0.0244
433.00,0.0245
432.00,0.0244
431.00,0.0243
430.00,0.0241
429.00,0.0239
428.00,0.0236
427.00,0.0237
426.00,0.0243
425.00,0.0249
424.00,0.0253
423.00,0.0254
422.00,0.0256
421.00,0.0259
420.00,0.0266
419.00,0.0281
418.00,0.0302
417.00,0.0322
416.00,0.0340
415.00,0.0359
414.00,0.0382
413.00,0.0410
412.00,0.0441
411.00,0.0477
410.00,0.0511
409.00,0.0538
408.00,0.0552
407.00,0.0555
406.00,0.0550
405.00,0.0538
404.00,0.0526
403.00,0.0518
402.00,0.0519
401.00,0.0522
400.00,0.0523
