Created as New Dataset,Sample 002 By YargerLab Date Wednesday, August 06 2025
cm-1,A
4000.00,0.0021
3999.00,0.0021
3998.00,0.0021
3997.00,0.0021
3996.00,0.0021
3995.00,0.0021
3994.00,0.0021
3993.00,0.0021
3992.00,0.0021
3991.00,0.0021
3990.00,0.0021
3989.00,0.0021
3988.00,0.0021
3987.00,0.0022
3986.00,0.0022
3985.00,0.0022
3984.00,0.0022
3983.00,0.0022
3982.00,0.0021
3981.00,0.0021
3980.00,0.0021
3979.00,0.0021
3978.00,0.0021
3977.00,0.0021
3976.00,0.0021
3975.00,0.0022
3974.00,0.0022
3973.00,0.0022
3972.00,0.0022
3971.00,0.0022
3970.00,0.0022
3969.00,0.0022
3968.00,0.0022
3967.00,0.0022
3966.00,0.0021
3965.00,0.0021
3964.00,0.0021
3963.00,0.0021
3962.00,0.0021
3961.00,0.0022
3960.00,0.0022
3959.00,0.0022
3958.00,0.0022
3957.00,0.0022
3956.00,0.0022
3955.00,0.0022
3954.00,0.0022
3953.00,0.0021
3952.00,0.0021
3951.00,0.0021
3950.00,0.0021
3949.00,0.0021
3948.00,0.0021
3947.00,0.0022
3946.00,0.0022
3945.00,0.0022
3944.00,0.0022
3943.00,0.0022
3942.00,0.0022
3941.00,0.0022
3940.00,0.0022
3939.00,0.0022
3938.00,0.0021
3937.00,0.0021
3936.00,0.0021
3935.00,0.0021
3934.00,0.0022
3933.00,0.0022
3932.00,0.0022
3931.00,0.0022
3930.00,0.0022
3929.00,0.0022
3928.00,0.0022
3927.00,0.0022
3926.00,0.0022
3925.00,0.0022
3924.00,0.0022
3923.00,0.0022
3922.00,0.0021
3921.00,0.0021
3920.00,0.0021
3919.00,0.0022
3918.00,0.0022
3917.00,0.0022
3916.00,0.0022
3915.00,0.0022
3914.00,0.0022
3913.00,0.0022
3912.00,0.0022
3911.00,0.0022
3910.00,0.0022
3909.00,0.0022
3908.00,0.0022
3907.00,0.0022
3906.00,0.0021
3905.00,0.0021
3904.00,0.0021
3903.00,0.0021
3902.00,0.0021
3901.00,0.0021
3900.00,0.0021
3899.00,0.0021
3898.00,0.0021
3897.00,0.0021
3896.00,0.0021
3895.00,0.0021
3894.00,0.0021
3893.00,0.0022
3892.00,0.0022
3891.00,0.0021
3890.00,0.0021
3889.00,0.0021
3888.00,0.0021
3887.00,0.0021
3886.00,0.0021
3885.00,0.0020
3884.00,0.0020
3883.00,0.0020
3882.00,0.0021
3881.00,0.0021
3880.00,0.0021
3879.00,0.0021
3878.00,0.0021
3877.00,0.0021
3876.00,0.0021
3875.00,0.0021
3874.00,0.0020
3873.00,0.0020
3872.00,0.0020
3871.00,0.0020
3870.00,0.0020
3869.00,0.0020
3868.00,0.0020
3867.00,0.0020
3866.00,0.0020
3865.00,0.0020
3864.00,0.0020
3863.00,0.0020
3862.00,0.0021
3861.00,0.0021
3860.00,0.0021
3859.00,0.0020
3858.00,0.0020
3857.00,0.0020
3856.00,0.0020
3855.00,0.0020
3854.00,0.0020
3853.00,0.0020
3852.00,0.0020
3851.00,0.0021
3850.00,0.0021
3849.00,0.0021
3848.00,0.0021
3847.00,0.0021
3846.00,0.0021
3845.00,0.0021
3844.00,0.0021
3843.00,0.0021
3842.00,0.0021
3841.00,0.0021
3840.00,0.0021
3839.00,0.0021
3838.00,0.0021
3837.00,0.0020
3836.00,0.0020
3835.00,0.0020
3834.00,0.0021
3833.00,0.0021
3832.00,0.0021
3831.00,0.0021
3830.00,0.0021
3829.00,0.0021
3828.00,0.0021
3827.00,0.0020
3826.00,0.0020
3825.00,0.0020
3824.00,0.0020
3823.00,0.0020
3822.00,0.0020
3821.00,0.0020
3820.00,0.0020
3819.00,0.0020
3818.00,0.0020
3817.00,0.0020
3816.00,0.0021
3815.00,0.0021
3814.00,0.0021
3813.00,0.0021
3812.00,0.0021
3811.00,0.0021
3810.00,0.0021
3809.00,0.0021
3808.00,0.0021
3807.00,0.0020
3806.00,0.0020
3805.00,0.0020
3804.00,0.0020
3803.00,0.0021
3802.00,0.0021
3801.00,0.0021
3800.00,0.0020
3799.00,0.0021
3798.00,0.0021
3797.00,0.0021
3796.00,0.0021
3795.00,0.0021
3794.00,0.0021
3793.00,0.0021
3792.00,0.0021
3791.00,0.0021
3790.00,0.0021
3789.00,0.0021
3788.00,0.0021
3787.00,0.0021
3786.00,0.0021
3785.00,0.0021
3784.00,0.0021
3783.00,0.0021
3782.00,0.0021
3781.00,0.0021
3780.00,0.0021
3779.00,0.0021
3778.00,0.0021
3777.00,0.0021
3776.00,0.0021
3775.00,0.0021
3774.00,0.0021
3773.00,0.0021
3772.00,0.0021
3771.00,0.0021
3770.00,0.0021
3769.00,0.0021
3768.00,0.0021
3767.00,0.0021
3766.00,0.0021
3765.00,0.0021
3764.00,0.0021
3763.00,0.0021
3762.00,0.0021
3761.00,0.0021
3760.00,0.0021
3759.00,0.0021
3758.00,0.0021
3757.00,0.0021
3756.00,0.0021
3755.00,0.0021
3754.00,0.0021
3753.00,0.0020
3752.00,0.0020
3751.00,0.0020
3750.00,0.0020
3749.00,0.0020
3748.00,0.0020
3747.00,0.0020
3746.00,0.0020
3745.00,0.0020
3744.00,0.0019
3743.00,0.0019
3742.00,0.0020
3741.00,0.0020
3740.00,0.0020
3739.00,0.0020
3738.00,0.0020
3737.00,0.0020
3736.00,0.0020
3735.00,0.0019
3734.00,0.0019
3733.00,0.0019
3732.00,0.0018
3731.00,0.0018
3730.00,0.0018
3729.00,0.0018
3728.00,0.0019
3727.00,0.0019
3726.00,0.0019
3725.00,0.0019
3724.00,0.0019
3723.00,0.0019
3722.00,0.0019
3721.00,0.0019
3720.00,0.0019
3719.00,0.0019
3718.00,0.0019
3717.00,0.0019
3716.00,0.0019
3715.00,0.0019
3714.00,0.0019
3713.00,0.0019
3712.00,0.0019
3711.00,0.0019
3710.00,0.0019
3709.00,0.0019
3708.00,0.0019
3707.00,0.0019
3706.00,0.0019
3705.00,0.0019
3704.00,0.0019
3703.00,0.0019
3702.00,0.0019
3701.00,0.0019
3700.00,0.0019
3699.00,0.0019
3698.00,0.0019
3697.00,0.0019
3696.00,0.0018
3695.00,0.0018
3694.00,0.0018
3693.00,0.0018
3692.00,0.0019
3691.00,0.0019
3690.00,0.0019
3689.00,0.0019
3688.00,0.0019
3687.00,0.0019
3686.00,0.0019
3685.00,0.0019
3684.00,0.0019
3683.00,0.0019
3682.00,0.0019
3681.00,0.0018
3680.00,0.0018
3679.00,0.0018
3678.00,0.0018
3677.00,0.0018
3676.00,0.0017
3675.00,0.0017
3674.00,0.0016
3673.00,0.0017
3672.00,0.0017
3671.00,0.0017
3670.00,0.0017
3669.00,0.0017
3668.00,0.0018
3667.00,0.0018
3666.00,0.0018
3665.00,0.0018
3664.00,0.0018
3663.00,0.0019
3662.00,0.0019
3661.00,0.0019
3660.00,0.0019
3659.00,0.0019
3658.00,0.0019
3657.00,0.0018
3656.00,0.0018
3655.00,0.0018
3654.00,0.0018
3653.00,0.0018
3652.00,0.0018
3651.00,0.0018
3650.00,0.0017
3649.00,0.0017
3648.00,0.0017
3647.00,0.0018
3646.00,0.0018
3645.00,0.0018
3644.00,0.0018
3643.00,0.0018
3642.00,0.0018
3641.00,0.0018
3640.00,0.0018
3639.00,0.0018
3638.00,0.0018
3637.00,0.0018
3636.00,0.0018
3635.00,0.0018
3634.00,0.0018
3633.00,0.0018
3632.00,0.0018
3631.00,0.0018
3630.00,0.0018
3629.00,0.0018
3628.00,0.0018
3627.00,0.0018
3626.00,0.0018
3625.00,0.0018
3624.00,0.0018
3623.00,0.0018
3622.00,0.0018
3621.00,0.0018
3620.00,0.0018
3619.00,0.0017
3618.00,0.0017
3617.00,0.0017
3616.00,0.0017
3615.00,0.0017
3614.00,0.0017
3613.00,0.0018
3612.00,0.0018
3611.00,0.0018
3610.00,0.0018
3609.00,0.0018
3608.00,0.0018
3607.00,0.0017
3606.00,0.0017
3605.00,0.0017
3604.00,0.0017
3603.00,0.0017
3602.00,0.0017
3601.00,0.0017
3600.00,0.0017
3599.00,0.0017
3598.00,0.0017
3597.00,0.0018
3596.00,0.0018
3595.00,0.0018
3594.00,0.0018
3593.00,0.0018
3592.00,0.0018
3591.00,0.0018
3590.00,0.0018
3589.00,0.0018
3588.00,0.0017
3587.00,0.0017
3586.00,0.0017
3585.00,0.0017
3584.00,0.0017
3583.00,0.0018
3582.00,0.0018
3581.00,0.0018
3580.00,0.0018
3579.00,0.0018
3578.00,0.0018
3577.00,0.0018
3576.00,0.0018
3575.00,0.0018
3574.00,0.0018
3573.00,0.0018
3572.00,0.0018
3571.00,0.0018
3570.00,0.0018
3569.00,0.0018
3568.00,0.0018
3567.00,0.0018
3566.00,0.0018
3565.00,0.0018
3564.00,0.0018
3563.00,0.0019
3562.00,0.0019
3561.00,0.0019
3560.00,0.0019
3559.00,0.0020
3558.00,0.0019
3557.00,0.0019
3556.00,0.0019
3555.00,0.0019
3554.00,0.0019
3553.00,0.0020
3552.00,0.0020
3551.00,0.0020
3550.00,0.0020
3549.00,0.0020
3548.00,0.0021
3547.00,0.0021
3546.00,0.0021
3545.00,0.0021
3544.00,0.0021
3543.00,0.0021
3542.00,0.0021
3541.00,0.0021
3540.00,0.0022
3539.00,0.0022
3538.00,0.0022
3537.00,0.0022
3536.00,0.0022
3535.00,0.0022
3534.00,0.0022
3533.00,0.0023
3532.00,0.0023
3531.00,0.0023
3530.00,0.0023
3529.00,0.0023
3528.00,0.0023
3527.00,0.0023
3526.00,0.0024
3525.00,0.0024
3524.00,0.0024
3523.00,0.0024
3522.00,0.0024
3521.00,0.0024
3520.00,0.0024
3519.00,0.0024
3518.00,0.0025
3517.00,0.0025
3516.00,0.0024
3515.00,0.0024
3514.00,0.0025
3513.00,0.0025
3512.00,0.0025
3511.00,0.0026
3510.00,0.0026
3509.00,0.0026
3508.00,0.0026
3507.00,0.0026
3506.00,0.0027
3505.00,0.0027
3504.00,0.0027
3503.00,0.0027
3502.00,0.0027
3501.00,0.0027
3500.00,0.0028
3499.00,0.0028
3498.00,0.0028
3497.00,0.0028
3496.00,0.0029
3495.00,0.0029
3494.00,0.0029
3493.00,0.0029
3492.00,0.0029
3491.00,0.0029
3490.00,0.0029
3489.00,0.0030
3488.00,0.0030
3487.00,0.0030
3486.00,0.0030
3485.00,0.0031
3484.00,0.0031
3483.00,0.0031
3482.00,0.0032
3481.00,0.0032
3480.00,0.0033
3479.00,0.0033
3478.00,0.0033
3477.00,0.0034
3476.00,0.0034
3475.00,0.0034
3474.00,0.0034
3473.00,0.0035
3472.00,0.0035
3471.00,0.0036
3470.00,0.0036
3469.00,0.0037
3468.00,0.0037
3467.00,0.0038
3466.00,0.0038
3465.00,0.0039
3464.00,0.0039
3463.00,0.0040
3462.00,0.0040
3461.00,0.0040
3460.00,0.0040
3459.00,0.0041
3458.00,0.0041
3457.00,0.0042
3456.00,0.0043
3455.00,0.0043
3454.00,0.0044
3453.00,0.0045
3452.00,0.0045
3451.00,0.0046
3450.00,0.0046
3449.00,0.0046
3448.00,0.0047
3447.00,0.0047
3446.00,0.0048
3445.00,0.0049
3444.00,0.0049
3443.00,0.0050
3442.00,0.0051
3441.00,0.0051
3440.00,0.0052
3439.00,0.0053
3438.00,0.0054
3437.00,0.0054
3436.00,0.0055
3435.00,0.0055
3434.00,0.0056
3433.00,0.0057
3432.00,0.0058
3431.00,0.0058
3430.00,0.0059
3429.00,0.0060
3428.00,0.0061
3427.00,0.0062
3426.00,0.0063
3425.00,0.0064
3424.00,0.0065
3423.00,0.0066
3422.00,0.0067
3421.00,0.0068
3420.00,0.0069
3419.00,0.0070
3418.00,0.0071
3417.00,0.0071
3416.00,0.0072
3415.00,0.0073
3414.00,0.0074
3413.00,0.0074
3412.00,0.0075
3411.00,0.0077
3410.00,0.0078
3409.00,0.0079
3408.00,0.0079
3407.00,0.0080
3406.00,0.0081
3405.00,0.0081
3404.00,0.0082
3403.00,0.0082
3402.00,0.0082
3401.00,0.0083
3400.00,0.0083
3399.00,0.0083
3398.00,0.0083
3397.00,0.0083
3396.00,0.0083
3395.00,0.0083
3394.00,0.0083
3393.00,0.0083
3392.00,0.0083
3391.00,0.0083
3390.00,0.0082
3389.00,0.0082
3388.00,0.0082
3387.00,0.0082
3386.00,0.0081
3385.00,0.0081
3384.00,0.0080
3383.00,0.0080
3382.00,0.0079
3381.00,0.0078
3380.00,0.0077
3379.00,0.0077
3378.00,0.0076
3377.00,0.0075
3376.00,0.0075
3375.00,0.0074
3374.00,0.0074
3373.00,0.0073
3372.00,0.0072
3371.00,0.0072
3370.00,0.0071
3369.00,0.0071
3368.00,0.0071
3367.00,0.0070
3366.00,0.0070
3365.00,0.0070
3364.00,0.0069
3363.00,0.0069
3362.00,0.0068
3361.00,0.0068
3360.00,0.0067
3359.00,0.0067
3358.00,0.0067
3357.00,0.0067
3356.00,0.0066
3355.00,0.0066
3354.00,0.0065
3353.00,0.0065
3352.00,0.0064
3351.00,0.0064
3350.00,0.0064
3349.00,0.0064
3348.00,0.0064
3347.00,0.0063
3346.00,0.0063
3345.00,0.0063
3344.00,0.0062
3343.00,0.0062
3342.00,0.0062
3341.00,0.0062
3340.00,0.0061
3339.00,0.0061
3338.00,0.0061
3337.00,0.0061
3336.00,0.0062
3335.00,0.0062
3334.00,0.0062
3333.00,0.0062
3332.00,0.0062
3331.00,0.0062
3330.00,0.0062
3329.00,0.0062
3328.00,0.0062
3327.00,0.0062
3326.00,0.0061
3325.00,0.0061
3324.00,0.0061
3323.00,0.0061
3322.00,0.0062
3321.00,0.0062
3320.00,0.0062
3319.00,0.0062
3318.00,0.0062
3317.00,0.0062
3316.00,0.0062
3315.00,0.0062
3314.00,0.0062
3313.00,0.0062
3312.00,0.0063
3311.00,0.0063
3310.00,0.0063
3309.00,0.0063
3308.00,0.0063
3307.00,0.0064
3306.00,0.0064
3305.00,0.0064
3304.00,0.0065
3303.00,0.0065
3302.00,0.0065
3301.00,0.0065
3300.00,0.0066
3299.00,0.0066
3298.00,0.0066
3297.00,0.0066
3296.00,0.0067
3295.00,0.0067
3294.00,0.0067
3293.00,0.0068
3292.00,0.0068
3291.00,0.0068
3290.00,0.0069
3289.00,0.0069
3288.00,0.0069
3287.00,0.0070
3286.00,0.0070
3285.00,0.0071
3284.00,0.0071
3283.00,0.0072
3282.00,0.0072
3281.00,0.0072
3280.00,0.0073
3279.00,0.0073
3278.00,0.0073
3277.00,0.0074
3276.00,0.0074
3275.00,0.0074
3274.00,0.0074
3273.00,0.0075
3272.00,0.0075
3271.00,0.0075
3270.00,0.0076
3269.00,0.0077
3268.00,0.0077
3267.00,0.0078
3266.00,0.0078
3265.00,0.0079
3264.00,0.0079
3263.00,0.0080
3262.00,0.0080
3261.00,0.0080
3260.00,0.0081
3259.00,0.0081
3258.00,0.0081
3257.00,0.0082
3256.00,0.0082
3255.00,0.0083
3254.00,0.0083
3253.00,0.0084
3252.00,0.0084
3251.00,0.0084
3250.00,0.0085
3249.00,0.0085
3248.00,0.0085
3247.00,0.0085
3246.00,0.0086
3245.00,0.0086
3244.00,0.0087
3243.00,0.0087
3242.00,0.0088
3241.00,0.0088
3240.00,0.0088
3239.00,0.0089
3238.00,0.0089
3237.00,0.0089
3236.00,0.0089
3235.00,0.0089
3234.00,0.0089
3233.00,0.0089
3232.00,0.0089
3231.00,0.0089
3230.00,0.0089
3229.00,0.0090
3228.00,0.0090
3227.00,0.0090
3226.00,0.0090
3225.00,0.0090
3224.00,0.0090
3223.00,0.0090
3222.00,0.0090
3221.00,0.0090
3220.00,0.0090
3219.00,0.0090
3218.00,0.0089
3217.00,0.0089
3216.00,0.0088
3215.00,0.0088
3214.00,0.0088
3213.00,0.0088
3212.00,0.0088
3211.00,0.0088
3210.00,0.0087
3209.00,0.0087
3208.00,0.0087
3207.00,0.0086
3206.00,0.0086
3205.00,0.0086
3204.00,0.0085
3203.00,0.0085
3202.00,0.0084
3201.00,0.0084
3200.00,0.0084
3199.00,0.0083
3198.00,0.0083
3197.00,0.0082
3196.00,0.0082
3195.00,0.0081
3194.00,0.0081
3193.00,0.0080
3192.00,0.0080
3191.00,0.0079
3190.00,0.0078
3189.00,0.0078
3188.00,0.0077
3187.00,0.0077
3186.00,0.0077
3185.00,0.0077
3184.00,0.0076
3183.00,0.0075
3182.00,0.0075
3181.00,0.0074
3180.00,0.0074
3179.00,0.0074
3178.00,0.0073
3177.00,0.0073
3176.00,0.0073
3175.00,0.0072
3174.00,0.0072
3173.00,0.0071
3172.00,0.0071
3171.00,0.0070
3170.00,0.0070
3169.00,0.0069
3168.00,0.0068
3167.00,0.0067
3166.00,0.0067
3165.00,0.0066
3164.00,0.0066
3163.00,0.0065
3162.00,0.0064
3161.00,0.0064
3160.00,0.0063
3159.00,0.0062
3158.00,0.0062
3157.00,0.0061
3156.00,0.0060
3155.00,0.0060
3154.00,0.0059
3153.00,0.0058
3152.00,0.0058
3151.00,0.0057
3150.00,0.0057
3149.00,0.0057
3148.00,0.0057
3147.00,0.0056
3146.00,0.0056
3145.00,0.0055
3144.00,0.0054
3143.00,0.0054
3142.00,0.0053
3141.00,0.0053
3140.00,0.0053
3139.00,0.0052
3138.00,0.0052
3137.00,0.0052
3136.00,0.0051
3135.00,0.0051
3134.00,0.0051
3133.00,0.0050
3132.00,0.0050
3131.00,0.0049
3130.00,0.0049
3129.00,0.0048
3128.00,0.0048
3127.00,0.0048
3126.00,0.0048
3125.00,0.0048
3124.00,0.0047
3123.00,0.0047
3122.00,0.0047
3121.00,0.0047
3120.00,0.0047
3119.00,0.0046
3118.00,0.0046
3117.00,0.0045
3116.00,0.0045
3115.00,0.0044
3114.00,0.0044
3113.00,0.0043
3112.00,0.0043
3111.00,0.0043
3110.00,0.0042
3109.00,0.0042
3108.00,0.0042
3107.00,0.0042
3106.00,0.0041
3105.00,0.0041
3104.00,0.0041
3103.00,0.0041
3102.00,0.0041
3101.00,0.0040
3100.00,0.0040
3099.00,0.0040
3098.00,0.0040
3097.00,0.0040
3096.00,0.0040
3095.00,0.0040
3094.00,0.0039
3093.00,0.0039
3092.00,0.0040
3091.00,0.0040
3090.00,0.0040
3089.00,0.0040
3088.00,0.0040
3087.00,0.0041
3086.00,0.0041
3085.00,0.0040
3084.00,0.0040
3083.00,0.0040
3082.00,0.0040
3081.00,0.0040
3080.00,0.0040
3079.00,0.0041
3078.00,0.0040
3077.00,0.0040
3076.00,0.0040
3075.00,0.0039
3074.00,0.0039
3073.00,0.0039
3072.00,0.0039
3071.00,0.0039
3070.00,0.0039
3069.00,0.0039
3068.00,0.0039
3067.00,0.0039
3066.00,0.0039
3065.00,0.0038
3064.00,0.0038
3063.00,0.0038
3062.00,0.0038
3061.00,0.0038
3060.00,0.0038
3059.00,0.0039
3058.00,0.0039
3057.00,0.0039
3056.00,0.0039
3055.00,0.0039
3054.00,0.0039
3053.00,0.0039
3052.00,0.0039
3051.00,0.0039
3050.00,0.0039
3049.00,0.0039
3048.00,0.0039
3047.00,0.0039
3046.00,0.0039
3045.00,0.0039
3044.00,0.0039
3043.00,0.0039
3042.00,0.0039
3041.00,0.0039
3040.00,0.0039
3039.00,0.0040
3038.00,0.0040
3037.00,0.0040
3036.00,0.0041
3035.00,0.0041
3034.00,0.0041
3033.00,0.0041
3032.00,0.0041
3031.00,0.0041
3030.00,0.0041
3029.00,0.0041
3028.00,0.0040
3027.00,0.0040
3026.00,0.0040
3025.00,0.0039
3024.00,0.0039
3023.00,0.0038
3022.00,0.0038
3021.00,0.0038
3020.00,0.0037
3019.00,0.0037
3018.00,0.0036
3017.00,0.0036
3016.00,0.0036
3015.00,0.0036
3014.00,0.0036
3013.00,0.0036
3012.00,0.0036
3011.00,0.0036
3010.00,0.0036
3009.00,0.0037
3008.00,0.0037
3007.00,0.0038
3006.00,0.0039
3005.00,0.0039
3004.00,0.0040
3003.00,0.0041
3002.00,0.0042
3001.00,0.0043
3000.00,0.0044
2999.00,0.0046
2998.00,0.0047
2997.00,0.0049
2996.00,0.0051
2995.00,0.0053
2994.00,0.0054
2993.00,0.0055
2992.00,0.0056
2991.00,0.0057
2990.00,0.0058
2989.00,0.0059
2988.00,0.0060
2987.00,0.0061
2986.00,0.0063
2985.00,0.0065
2984.00,0.0067
2983.00,0.0070
2982.00,0.0074
2981.00,0.0077
2980.00,0.0080
2979.00,0.0082
2978.00,0.0084
2977.00,0.0086
2976.00,0.0087
2975.00,0.0089
2974.00,0.0092
2973.00,0.0096
2972.00,0.0100
2971.00,0.0104
2970.00,0.0107
2969.00,0.0110
2968.00,0.0112
2967.00,0.0114
2966.00,0.0116
2965.00,0.0118
2964.00,0.0120
2963.00,0.0123
2962.00,0.0125
2961.00,0.0126
2960.00,0.0127
2959.00,0.0126
2958.00,0.0124
2957.00,0.0121
2956.00,0.0118
2955.00,0.0114
2954.00,0.0110
2953.00,0.0107
2952.00,0.0104
2951.00,0.0101
2950.00,0.0099
2949.00,0.0098
2948.00,0.0098
2947.00,0.0099
2946.00,0.0100
2945.00,0.0102
2944.00,0.0104
2943.00,0.0107
2942.00,0.0110
2941.00,0.0113
2940.00,0.0118
2939.00,0.0123
2938.00,0.0128
2937.00,0.0135
2936.00,0.0142
2935.00,0.0150
2934.00,0.0159
2933.00,0.0167
2932.00,0.0176
2931.00,0.0185
2930.00,0.0192
2929.00,0.0199
2928.00,0.0204
2927.00,0.0207
2926.00,0.0208
2925.00,0.0207
2924.00,0.0205
2923.00,0.0201
2922.00,0.0197
2921.00,0.0191
2920.00,0.0186
2919.00,0.0180
2918.00,0.0174
2917.00,0.0168
2916.00,0.0162
2915.00,0.0156
2914.00,0.0150
2913.00,0.0146
2912.00,0.0141
2911.00,0.0137
2910.00,0.0133
2909.00,0.0129
2908.00,0.0125
2907.00,0.0122
2906.00,0.0118
2905.00,0.0116
2904.00,0.0113
2903.00,0.0110
2902.00,0.0108
2901.00,0.0105
2900.00,0.0103
2899.00,0.0101
2898.00,0.0098
2897.00,0.0096
2896.00,0.0094
2895.00,0.0093
2894.00,0.0091
2893.00,0.0089
2892.00,0.0088
2891.00,0.0087
2890.00,0.0086
2889.00,0.0085
2888.00,0.0084
2887.00,0.0083
2886.00,0.0082
2885.00,0.0081
2884.00,0.0081
2883.00,0.0081
2882.00,0.0081
2881.00,0.0081
2880.00,0.0083
2879.00,0.0084
2878.00,0.0087
2877.00,0.0090
2876.00,0.0093
2875.00,0.0095
2874.00,0.0098
2873.00,0.0100
2872.00,0.0101
2871.00,0.0101
2870.00,0.0101
2869.00,0.0100
2868.00,0.0100
2867.00,0.0100
2866.00,0.0101
2865.00,0.0104
2864.00,0.0107
2863.00,0.0112
2862.00,0.0118
2861.00,0.0124
2860.00,0.0131
2859.00,0.0137
2858.00,0.0143
2857.00,0.0147
2856.00,0.0150
2855.00,0.0152
2854.00,0.0152
2853.00,0.0151
2852.00,0.0149
2851.00,0.0146
2850.00,0.0141
2849.00,0.0134
2848.00,0.0127
2847.00,0.0119
2846.00,0.0112
2845.00,0.0105
2844.00,0.0099
2843.00,0.0093
2842.00,0.0087
2841.00,0.0083
2840.00,0.0079
2839.00,0.0075
2838.00,0.0072
2837.00,0.0069
2836.00,0.0067
2835.00,0.0065
2834.00,0.0063
2833.00,0.0062
2832.00,0.0060
2831.00,0.0059
2830.00,0.0058
2829.00,0.0057
2828.00,0.0056
2827.00,0.0054
2826.00,0.0053
2825.00,0.0052
2824.00,0.0051
2823.00,0.0050
2822.00,0.0049
2821.00,0.0049
2820.00,0.0048
2819.00,0.0047
2818.00,0.0047
2817.00,0.0046
2816.00,0.0046
2815.00,0.0046
2814.00,0.0045
2813.00,0.0045
2812.00,0.0045
2811.00,0.0044
2810.00,0.0044
2809.00,0.0044
2808.00,0.0044
2807.00,0.0043
2806.00,0.0043
2805.00,0.0042
2804.00,0.0042
2803.00,0.0042
2802.00,0.0042
2801.00,0.0042
2800.00,0.0041
2799.00,0.0041
2798.00,0.0041
2797.00,0.0041
2796.00,0.0041
2795.00,0.0040
2794.00,0.0040
2793.00,0.0040
2792.00,0.0039
2791.00,0.0039
2790.00,0.0039
2789.00,0.0038
2788.00,0.0038
2787.00,0.0038
2786.00,0.0037
2785.00,0.0037
2784.00,0.0037
2783.00,0.0037
2782.00,0.0037
2781.00,0.0036
2780.00,0.0036
2779.00,0.0036
2778.00,0.0036
2777.00,0.0036
2776.00,0.0036
2775.00,0.0036
2774.00,0.0036
2773.00,0.0036
2772.00,0.0036
2771.00,0.0036
2770.00,0.0036
2769.00,0.0036
2768.00,0.0036
2767.00,0.0035
2766.00,0.0035
2765.00,0.0035
2764.00,0.0035
2763.00,0.0035
2762.00,0.0035
2761.00,0.0035
2760.00,0.0035
2759.00,0.0035
2758.00,0.0035
2757.00,0.0035
2756.00,0.0035
2755.00,0.0035
2754.00,0.0035
2753.00,0.0035
2752.00,0.0035
2751.00,0.0035
2750.00,0.0035
2749.00,0.0035
2748.00,0.0035
2747.00,0.0035
2746.00,0.0035
2745.00,0.0035
2744.00,0.0036
2743.00,0.0036
2742.00,0.0036
2741.00,0.0036
2740.00,0.0036
2739.00,0.0036
2738.00,0.0036
2737.00,0.0037
2736.00,0.0037
2735.00,0.0037
2734.00,0.0038
2733.00,0.0038
2732.00,0.0038
2731.00,0.0038
2730.00,0.0038
2729.00,0.0038
2728.00,0.0038
2727.00,0.0038
2726.00,0.0038
2725.00,0.0038
2724.00,0.0038
2723.00,0.0037
2722.00,0.0037
2721.00,0.0037
2720.00,0.0037
2719.00,0.0037
2718.00,0.0037
2717.00,0.0036
2716.00,0.0036
2715.00,0.0036
2714.00,0.0036
2713.00,0.0036
2712.00,0.0036
2711.00,0.0036
2710.00,0.0036
2709.00,0.0036
2708.00,0.0036
2707.00,0.0036
2706.00,0.0036
2705.00,0.0036
2704.00,0.0036
2703.00,0.0036
2702.00,0.0035
2701.00,0.0035
2700.00,0.0035
2699.00,0.0035
2698.00,0.0035
2697.00,0.0035
2696.00,0.0035
2695.00,0.0035
2694.00,0.0035
2693.00,0.0035
2692.00,0.0035
2691.00,0.0035
2690.00,0.0035
2689.00,0.0034
2688.00,0.0034
2687.00,0.0034
2686.00,0.0034
2685.00,0.0034
2684.00,0.0034
2683.00,0.0034
2682.00,0.0034
2681.00,0.0034
2680.00,0.0034
2679.00,0.0034
2678.00,0.0034
2677.00,0.0033
2676.00,0.0033
2675.00,0.0033
2674.00,0.0033
2673.00,0.0033
2672.00,0.0034
2671.00,0.0034
2670.00,0.0034
2669.00,0.0034
2668.00,0.0035
2667.00,0.0035
2666.00,0.0035
2665.00,0.0036
2664.00,0.0036
2663.00,0.0036
2662.00,0.0037
2661.00,0.0037
2660.00,0.0038
2659.00,0.0038
2658.00,0.0038
2657.00,0.0038
2656.00,0.0038
2655.00,0.0038
2654.00,0.0038
2653.00,0.0038
2652.00,0.0039
2651.00,0.0039
2650.00,0.0039
2649.00,0.0039
2648.00,0.0039
2647.00,0.0038
2646.00,0.0038
2645.00,0.0038
2644.00,0.0038
2643.00,0.0038
2642.00,0.0038
2641.00,0.0038
2640.00,0.0038
2639.00,0.0038
2638.00,0.0037
2637.00,0.0037
2636.00,0.0037
2635.00,0.0037
2634.00,0.0037
2633.00,0.0037
2632.00,0.0037
2631.00,0.0036
2630.00,0.0036
2629.00,0.0036
2628.00,0.0036
2627.00,0.0036
2626.00,0.0036
2625.00,0.0036
2624.00,0.0036
2623.00,0.0035
2622.00,0.0035
2621.00,0.0035
2620.00,0.0035
2619.00,0.0034
2618.00,0.0034
2617.00,0.0034
2616.00,0.0034
2615.00,0.0034
2614.00,0.0034
2613.00,0.0034
2612.00,0.0034
2611.00,0.0034
2610.00,0.0034
2609.00,0.0034
2608.00,0.0034
2607.00,0.0034
2606.00,0.0034
2605.00,0.0034
2604.00,0.0034
2603.00,0.0034
2602.00,0.0034
2601.00,0.0034
2600.00,0.0034
2599.00,0.0034
2598.00,0.0034
2597.00,0.0034
2596.00,0.0034
2595.00,0.0034
2594.00,0.0034
2593.00,0.0034
2592.00,0.0034
2591.00,0.0034
2590.00,0.0034
2589.00,0.0034
2588.00,0.0034
2587.00,0.0034
2586.00,0.0034
2585.00,0.0034
2584.00,0.0034
2583.00,0.0034
2582.00,0.0033
2581.00,0.0033
2580.00,0.0033
2579.00,0.0033
2578.00,0.0033
2577.00,0.0033
2576.00,0.0033
2575.00,0.0033
2574.00,0.0033
2573.00,0.0032
2572.00,0.0032
2571.00,0.0032
2570.00,0.0032
2569.00,0.0032
2568.00,0.0032
2567.00,0.0033
2566.00,0.0033
2565.00,0.0033
2564.00,0.0032
2563.00,0.0032
2562.00,0.0032
2561.00,0.0031
2560.00,0.0031
2559.00,0.0031
2558.00,0.0031
2557.00,0.0031
2556.00,0.0031
2555.00,0.0031
2554.00,0.0031
2553.00,0.0030
2552.00,0.0030
2551.00,0.0030
2550.00,0.0030
2549.00,0.0030
2548.00,0.0030
2547.00,0.0030
2546.00,0.0030
2545.00,0.0030
2544.00,0.0030
2543.00,0.0030
2542.00,0.0030
2541.00,0.0030
2540.00,0.0030
2539.00,0.0030
2538.00,0.0030
2537.00,0.0030
2536.00,0.0030
2535.00,0.0030
2534.00,0.0031
2533.00,0.0031
2532.00,0.0030
2531.00,0.0030
2530.00,0.0030
2529.00,0.0030
2528.00,0.0030
2527.00,0.0030
2526.00,0.0030
2525.00,0.0030
2524.00,0.0030
2523.00,0.0029
2522.00,0.0029
2521.00,0.0029
2520.00,0.0029
2519.00,0.0029
2518.00,0.0029
2517.00,0.0029
2516.00,0.0029
2515.00,0.0029
2514.00,0.0029
2513.00,0.0029
2512.00,0.0028
2511.00,0.0028
2510.00,0.0028
2509.00,0.0028
2508.00,0.0027
2507.00,0.0027
2506.00,0.0027
2505.00,0.0027
2504.00,0.0027
2503.00,0.0027
2502.00,0.0026
2501.00,0.0026
2500.00,0.0026
2499.00,0.0026
2498.00,0.0026
2497.00,0.0026
2496.00,0.0026
2495.00,0.0026
2494.00,0.0027
2493.00,0.0027
2492.00,0.0027
2491.00,0.0027
2490.00,0.0027
2489.00,0.0027
2488.00,0.0027
2487.00,0.0027
2486.00,0.0027
2485.00,0.0027
2484.00,0.0027
2483.00,0.0027
2482.00,0.0027
2481.00,0.0027
2480.00,0.0027
2479.00,0.0027
2478.00,0.0027
2477.00,0.0026
2476.00,0.0026
2475.00,0.0026
2474.00,0.0026
2473.00,0.0026
2472.00,0.0026
2471.00,0.0026
2470.00,0.0026
2469.00,0.0026
2468.00,0.0026
2467.00,0.0027
2466.00,0.0027
2465.00,0.0027
2464.00,0.0027
2463.00,0.0027
2462.00,0.0027
2461.00,0.0027
2460.00,0.0027
2459.00,0.0027
2458.00,0.0027
2457.00,0.0027
2456.00,0.0027
2455.00,0.0027
2454.00,0.0027
2453.00,0.0027
2452.00,0.0027
2451.00,0.0026
2450.00,0.0026
2449.00,0.0026
2448.00,0.0026
2447.00,0.0027
2446.00,0.0027
2445.00,0.0027
2444.00,0.0027
2443.00,0.0027
2442.00,0.0026
2441.00,0.0026
2440.00,0.0026
2439.00,0.0026
2438.00,0.0026
2437.00,0.0025
2436.00,0.0025
2435.00,0.0025
2434.00,0.0025
2433.00,0.0026
2432.00,0.0026
2431.00,0.0026
2430.00,0.0025
2429.00,0.0025
2428.00,0.0024
2427.00,0.0024
2426.00,0.0024
2425.00,0.0024
2424.00,0.0025
2423.00,0.0025
2422.00,0.0025
2421.00,0.0025
2420.00,0.0025
2419.00,0.0025
2418.00,0.0024
2417.00,0.0024
2416.00,0.0024
2415.00,0.0024
2414.00,0.0024
2413.00,0.0024
2412.00,0.0025
2411.00,0.0025
2410.00,0.0025
2409.00,0.0024
2408.00,0.0024
2407.00,0.0023
2406.00,0.0023
2405.00,0.0023
2404.00,0.0023
2403.00,0.0023
2402.00,0.0023
2401.00,0.0023
2400.00,0.0023
2399.00,0.0023
2398.00,0.0023
2397.00,0.0023
2396.00,0.0023
2395.00,0.0023
2394.00,0.0023
2393.00,0.0023
2392.00,0.0022
2391.00,0.0022
2390.00,0.0022
2389.00,0.0022
2388.00,0.0021
2387.00,0.0021
2386.00,0.0021
2385.00,0.0020
2384.00,0.0019
2383.00,0.0019
2382.00,0.0018
2381.00,0.0017
2380.00,0.0016
2379.00,0.0016
2378.00,0.0016
2377.00,0.0016
2376.00,0.0017
2375.00,0.0017
2374.00,0.0017
2373.00,0.0018
2372.00,0.0018
2371.00,0.0018
2370.00,0.0017
2369.00,0.0017
2368.00,0.0017
2367.00,0.0017
2366.00,0.0017
2365.00,0.0017
2364.00,0.0017
2363.00,0.0018
2362.00,0.0018
2361.00,0.0018
2360.00,0.0018
2359.00,0.0017
2358.00,0.0017
2357.00,0.0017
2356.00,0.0018
2355.00,0.0018
2354.00,0.0019
2353.00,0.0019
2352.00,0.0019
2351.00,0.0019
2350.00,0.0019
2349.00,0.0019
2348.00,0.0019
2347.00,0.0020
2346.00,0.0020
2345.00,0.0020
2344.00,0.0020
2343.00,0.0020
2342.00,0.0021
2341.00,0.0021
2340.00,0.0022
2339.00,0.0022
2338.00,0.0022
2337.00,0.0022
2336.00,0.0022
2335.00,0.0022
2334.00,0.0022
2333.00,0.0022
2332.00,0.0022
2331.00,0.0022
2330.00,0.0022
2329.00,0.0023
2328.00,0.0026
2327.00,0.0029
2326.00,0.0031
2325.00,0.0033
2324.00,0.0032
2323.00,0.0031
2322.00,0.0029
2321.00,0.0028
2320.00,0.0027
2319.00,0.0027
2318.00,0.0026
2317.00,0.0026
2316.00,0.0025
2315.00,0.0025
2314.00,0.0024
2313.00,0.0024
2312.00,0.0023
2311.00,0.0022
2310.00,0.0021
2309.00,0.0021
2308.00,0.0021
2307.00,0.0021
2306.00,0.0022
2305.00,0.0022
2304.00,0.0022
2303.00,0.0023
2302.00,0.0023
2301.00,0.0023
2300.00,0.0023
2299.00,0.0024
2298.00,0.0024
2297.00,0.0025
2296.00,0.0026
2295.00,0.0027
2294.00,0.0027
2293.00,0.0028
2292.00,0.0029
2291.00,0.0030
2290.00,0.0031
2289.00,0.0031
2288.00,0.0032
2287.00,0.0032
2286.00,0.0032
2285.00,0.0032
2284.00,0.0032
2283.00,0.0032
2282.00,0.0031
2281.00,0.0031
2280.00,0.0031
2279.00,0.0030
2278.00,0.0030
2277.00,0.0029
2276.00,0.0028
2275.00,0.0028
2274.00,0.0028
2273.00,0.0027
2272.00,0.0027
2271.00,0.0028
2270.00,0.0028
2269.00,0.0028
2268.00,0.0028
2267.00,0.0027
2266.00,0.0027
2265.00,0.0026
2264.00,0.0026
2263.00,0.0025
2262.00,0.0025
2261.00,0.0024
2260.00,0.0024
2259.00,0.0024
2258.00,0.0023
2257.00,0.0023
2256.00,0.0022
2255.00,0.0021
2254.00,0.0021
2253.00,0.0021
2252.00,0.0022
2251.00,0.0023
2250.00,0.0024
2249.00,0.0024
2248.00,0.0024
2247.00,0.0024
2246.00,0.0024
2245.00,0.0024
2244.00,0.0023
2243.00,0.0024
2242.00,0.0024
2241.00,0.0025
2240.00,0.0025
2239.00,0.0025
2238.00,0.0025
2237.00,0.0025
2236.00,0.0025
2235.00,0.0025
2234.00,0.0025
2233.00,0.0025
2232.00,0.0026
2231.00,0.0026
2230.00,0.0025
2229.00,0.0025
2228.00,0.0025
2227.00,0.0025
2226.00,0.0025
2225.00,0.0025
2224.00,0.0025
2223.00,0.0025
2222.00,0.0024
2221.00,0.0024
2220.00,0.0024
2219.00,0.0024
2218.00,0.0025
2217.00,0.0025
2216.00,0.0025
2215.00,0.0025
2214.00,0.0025
2213.00,0.0024
2212.00,0.0024
2211.00,0.0024
2210.00,0.0024
2209.00,0.0024
2208.00,0.0024
2207.00,0.0024
2206.00,0.0024
2205.00,0.0024
2204.00,0.0024
2203.00,0.0024
2202.00,0.0024
2201.00,0.0024
2200.00,0.0024
2199.00,0.0024
2198.00,0.0024
2197.00,0.0024
2196.00,0.0024
2195.00,0.0024
2194.00,0.0024
2193.00,0.0024
2192.00,0.0025
2191.00,0.0024
2190.00,0.0024
2189.00,0.0024
2188.00,0.0025
2187.00,0.0025
2186.00,0.0025
2185.00,0.0024
2184.00,0.0023
2183.00,0.0023
2182.00,0.0023
2181.00,0.0024
2180.00,0.0024
2179.00,0.0024
2178.00,0.0022
2177.00,0.0020
2176.00,0.0019
2175.00,0.0019
2174.00,0.0020
2173.00,0.0022
2172.00,0.0024
2171.00,0.0027
2170.00,0.0028
2169.00,0.0029
2168.00,0.0029
2167.00,0.0028
2166.00,0.0028
2165.00,0.0029
2164.00,0.0031
2163.00,0.0032
2162.00,0.0028
2161.00,0.0020
2160.00,0.0008
2159.00,-0.0001
2158.00,-0.0006
2157.00,-0.0006
2156.00,-0.0002
2155.00,0.0002
2154.00,0.0004
2153.00,0.0006
2152.00,0.0007
2151.00,0.0008
2150.00,0.0008
2149.00,0.0009
2148.00,0.0008
2147.00,0.0007
2146.00,0.0006
2145.00,0.0006
2144.00,0.0007
2143.00,0.0008
2142.00,0.0008
2141.00,0.0008
2140.00,0.0008
2139.00,0.0007
2138.00,0.0006
2137.00,0.0004
2136.00,0.0003
2135.00,0.0002
2134.00,0.0003
2133.00,0.0005
2132.00,0.0006
2131.00,0.0007
2130.00,0.0008
2129.00,0.0010
2128.00,0.0011
2127.00,0.0013
2126.00,0.0013
2125.00,0.0014
2124.00,0.0014
2123.00,0.0015
2122.00,0.0016
2121.00,0.0016
2120.00,0.0017
2119.00,0.0018
2118.00,0.0019
2117.00,0.0019
2116.00,0.0019
2115.00,0.0020
2114.00,0.0020
2113.00,0.0020
2112.00,0.0020
2111.00,0.0019
2110.00,0.0020
2109.00,0.0020
2108.00,0.0020
2107.00,0.0020
2106.00,0.0020
2105.00,0.0019
2104.00,0.0018
2103.00,0.0018
2102.00,0.0017
2101.00,0.0017
2100.00,0.0017
2099.00,0.0017
2098.00,0.0016
2097.00,0.0016
2096.00,0.0015
2095.00,0.0014
2094.00,0.0015
2093.00,0.0015
2092.00,0.0016
2091.00,0.0017
2090.00,0.0018
2089.00,0.0019
2088.00,0.0019
2087.00,0.0020
2086.00,0.0020
2085.00,0.0021
2084.00,0.0021
2083.00,0.0020
2082.00,0.0021
2081.00,0.0021
2080.00,0.0022
2079.00,0.0022
2078.00,0.0022
2077.00,0.0022
2076.00,0.0021
2075.00,0.0021
2074.00,0.0021
2073.00,0.0021
2072.00,0.0020
2071.00,0.0020
2070.00,0.0020
2069.00,0.0020
2068.00,0.0019
2067.00,0.0019
2066.00,0.0018
2065.00,0.0018
2064.00,0.0018
2063.00,0.0018
2062.00,0.0018
2061.00,0.0018
2060.00,0.0018
2059.00,0.0018
2058.00,0.0018
2057.00,0.0017
2056.00,0.0018
2055.00,0.0018
2054.00,0.0020
2053.00,0.0023
2052.00,0.0027
2051.00,0.0028
2050.00,0.0027
2049.00,0.0024
2048.00,0.0021
2047.00,0.0018
2046.00,0.0017
2045.00,0.0016
2044.00,0.0017
2043.00,0.0019
2042.00,0.0020
2041.00,0.0021
2040.00,0.0022
2039.00,0.0023
2038.00,0.0023
2037.00,0.0023
2036.00,0.0020
2035.00,0.0018
2034.00,0.0015
2033.00,0.0014
2032.00,0.0014
2031.00,0.0015
2030.00,0.0015
2029.00,0.0015
2028.00,0.0015
2027.00,0.0015
2026.00,0.0016
2025.00,0.0016
2024.00,0.0016
2023.00,0.0016
2022.00,0.0016
2021.00,0.0017
2020.00,0.0017
2019.00,0.0017
2018.00,0.0016
2017.00,0.0015
2016.00,0.0015
2015.00,0.0015
2014.00,0.0014
2013.00,0.0014
2012.00,0.0014
2011.00,0.0013
2010.00,0.0012
2009.00,0.0010
2008.00,0.0008
2007.00,0.0007
2006.00,0.0007
2005.00,0.0008
2004.00,0.0009
2003.00,0.0010
2002.00,0.0011
2001.00,0.0011
2000.00,0.0013
1999.00,0.0015
1998.00,0.0017
1997.00,0.0018
1996.00,0.0019
1995.00,0.0019
1994.00,0.0019
1993.00,0.0018
1992.00,0.0019
1991.00,0.0020
1990.00,0.0021
1989.00,0.0021
1988.00,0.0022
1987.00,0.0022
1986.00,0.0023
1985.00,0.0024
1984.00,0.0025
1983.00,0.0027
1982.00,0.0029
1981.00,0.0030
1980.00,0.0029
1979.00,0.0025
1978.00,0.0021
1977.00,0.0017
1976.00,0.0015
1975.00,0.0015
1974.00,0.0015
1973.00,0.0015
1972.00,0.0014
1971.00,0.0013
1970.00,0.0011
1969.00,0.0010
1968.00,0.0010
1967.00,0.0010
1966.00,0.0010
1965.00,0.0010
1964.00,0.0010
1963.00,0.0009
1962.00,0.0008
1961.00,0.0007
1960.00,0.0007
1959.00,0.0008
1958.00,0.0008
1957.00,0.0010
1956.00,0.0011
1955.00,0.0012
1954.00,0.0012
1953.00,0.0012
1952.00,0.0012
1951.00,0.0012
1950.00,0.0011
1949.00,0.0011
1948.00,0.0011
1947.00,0.0011
1946.00,0.0011
1945.00,0.0012
1944.00,0.0012
1943.00,0.0013
1942.00,0.0013
1941.00,0.0013
1940.00,0.0013
1939.00,0.0013
1938.00,0.0014
1937.00,0.0014
1936.00,0.0015
1935.00,0.0015
1934.00,0.0015
1933.00,0.0015
1932.00,0.0015
1931.00,0.0015
1930.00,0.0015
1929.00,0.0015
1928.00,0.0015
1927.00,0.0015
1926.00,0.0016
1925.00,0.0016
1924.00,0.0016
1923.00,0.0016
1922.00,0.0017
1921.00,0.0017
1920.00,0.0018
1919.00,0.0018
1918.00,0.0017
1917.00,0.0017
1916.00,0.0017
1915.00,0.0017
1914.00,0.0018
1913.00,0.0018
1912.00,0.0019
1911.00,0.0020
1910.00,0.0021
1909.00,0.0022
1908.00,0.0023
1907.00,0.0023
1906.00,0.0022
1905.00,0.0021
1904.00,0.0021
1903.00,0.0020
1902.00,0.0020
1901.00,0.0020
1900.00,0.0019
1899.00,0.0018
1898.00,0.0018
1897.00,0.0019
1896.00,0.0019
1895.00,0.0020
1894.00,0.0020
1893.00,0.0019
1892.00,0.0019
1891.00,0.0019
1890.00,0.0019
1889.00,0.0019
1888.00,0.0019
1887.00,0.0019
1886.00,0.0019
1885.00,0.0018
1884.00,0.0018
1883.00,0.0018
1882.00,0.0018
1881.00,0.0018
1880.00,0.0018
1879.00,0.0018
1878.00,0.0018
1877.00,0.0018
1876.00,0.0018
1875.00,0.0018
1874.00,0.0018
1873.00,0.0018
1872.00,0.0017
1871.00,0.0017
1870.00,0.0017
1869.00,0.0017
1868.00,0.0018
1867.00,0.0018
1866.00,0.0018
1865.00,0.0018
1864.00,0.0018
1863.00,0.0018
1862.00,0.0018
1861.00,0.0018
1860.00,0.0019
1859.00,0.0019
1858.00,0.0019
1857.00,0.0019
1856.00,0.0019
1855.00,0.0019
1854.00,0.0019
1853.00,0.0019
1852.00,0.0019
1851.00,0.0019
1850.00,0.0020
1849.00,0.0020
1848.00,0.0020
1847.00,0.0020
1846.00,0.0020
1845.00,0.0019
1844.00,0.0020
1843.00,0.0020
1842.00,0.0020
1841.00,0.0019
1840.00,0.0019
1839.00,0.0019
1838.00,0.0019
1837.00,0.0019
1836.00,0.0019
1835.00,0.0019
1834.00,0.0019
1833.00,0.0019
1832.00,0.0018
1831.00,0.0018
1830.00,0.0018
1829.00,0.0018
1828.00,0.0018
1827.00,0.0018
1826.00,0.0019
1825.00,0.0019
1824.00,0.0019
1823.00,0.0020
1822.00,0.0020
1821.00,0.0019
1820.00,0.0019
1819.00,0.0018
1818.00,0.0018
1817.00,0.0018
1816.00,0.0018
1815.00,0.0018
1814.00,0.0018
1813.00,0.0019
1812.00,0.0019
1811.00,0.0019
1810.00,0.0019
1809.00,0.0019
1808.00,0.0019
1807.00,0.0020
1806.00,0.0020
1805.00,0.0020
1804.00,0.0020
1803.00,0.0020
1802.00,0.0020
1801.00,0.0020
1800.00,0.0021
1799.00,0.0021
1798.00,0.0021
1797.00,0.0021
1796.00,0.0021
1795.00,0.0021
1794.00,0.0021
1793.00,0.0021
1792.00,0.0021
1791.00,0.0022
1790.00,0.0022
1789.00,0.0022
1788.00,0.0022
1787.00,0.0021
1786.00,0.0021
1785.00,0.0021
1784.00,0.0021
1783.00,0.0021
1782.00,0.0021
1781.00,0.0021
1780.00,0.0021
1779.00,0.0021
1778.00,0.0021
1777.00,0.0022
1776.00,0.0022
1775.00,0.0022
1774.00,0.0022
1773.00,0.0022
1772.00,0.0022
1771.00,0.0023
1770.00,0.0023
1769.00,0.0023
1768.00,0.0023
1767.00,0.0023
1766.00,0.0023
1765.00,0.0022
1764.00,0.0022
1763.00,0.0022
1762.00,0.0023
1761.00,0.0023
1760.00,0.0023
1759.00,0.0023
1758.00,0.0023
1757.00,0.0023
1756.00,0.0023
1755.00,0.0023
1754.00,0.0022
1753.00,0.0022
1752.00,0.0022
1751.00,0.0021
1750.00,0.0021
1749.00,0.0021
1748.00,0.0021
1747.00,0.0021
1746.00,0.0022
1745.00,0.0022
1744.00,0.0022
1743.00,0.0022
1742.00,0.0022
1741.00,0.0022
1740.00,0.0022
1739.00,0.0022
1738.00,0.0022
1737.00,0.0022
1736.00,0.0021
1735.00,0.0022
1734.00,0.0022
1733.00,0.0023
1732.00,0.0023
1731.00,0.0023
1730.00,0.0024
1729.00,0.0024
1728.00,0.0025
1727.00,0.0025
1726.00,0.0026
1725.00,0.0026
1724.00,0.0026
1723.00,0.0026
1722.00,0.0026
1721.00,0.0026
1720.00,0.0026
1719.00,0.0026
1718.00,0.0026
1717.00,0.0027
1716.00,0.0028
1715.00,0.0029
1714.00,0.0029
1713.00,0.0029
1712.00,0.0030
1711.00,0.0030
1710.00,0.0031
1709.00,0.0031
1708.00,0.0032
1707.00,0.0032
1706.00,0.0033
1705.00,0.0034
1704.00,0.0035
1703.00,0.0036
1702.00,0.0037
1701.00,0.0039
1700.00,0.0041
1699.00,0.0043
1698.00,0.0045
1697.00,0.0047
1696.00,0.0050
1695.00,0.0053
1694.00,0.0055
1693.00,0.0058
1692.00,0.0060
1691.00,0.0063
1690.00,0.0065
1689.00,0.0068
1688.00,0.0070
1687.00,0.0073
1686.00,0.0076
1685.00,0.0076
1684.00,0.0074
1683.00,0.0072
1682.00,0.0072
1681.00,0.0074
1680.00,0.0075
1679.00,0.0077
1678.00,0.0078
1677.00,0.0079
1676.00,0.0078
1675.00,0.0077
1674.00,0.0075
1673.00,0.0075
1672.00,0.0076
1671.00,0.0076
1670.00,0.0073
1669.00,0.0070
1668.00,0.0069
1667.00,0.0069
1666.00,0.0071
1665.00,0.0072
1664.00,0.0073
1663.00,0.0071
1662.00,0.0069
1661.00,0.0068
1660.00,0.0069
1659.00,0.0070
1658.00,0.0071
1657.00,0.0073
1656.00,0.0075
1655.00,0.0077
1654.00,0.0073
1653.00,0.0064
1652.00,0.0058
1651.00,0.0059
1650.00,0.0063
1649.00,0.0065
1648.00,0.0065
1647.00,0.0062
1646.00,0.0058
1645.00,0.0056
1644.00,0.0057
1643.00,0.0059
1642.00,0.0060
1641.00,0.0061
1640.00,0.0062
1639.00,0.0063
1638.00,0.0064
1637.00,0.0065
1636.00,0.0065
1635.00,0.0066
1634.00,0.0070
1633.00,0.0077
1632.00,0.0086
1631.00,0.0097
1630.00,0.0112
1629.00,0.0130
1628.00,0.0152
1627.00,0.0174
1626.00,0.0195
1625.00,0.0213
1624.00,0.0230
1623.00,0.0245
1622.00,0.0254
1621.00,0.0258
1620.00,0.0259
1619.00,0.0256
1618.00,0.0248
1617.00,0.0233
1616.00,0.0217
1615.00,0.0206
1614.00,0.0202
1613.00,0.0202
1612.00,0.0205
1611.00,0.0208
1610.00,0.0209
1609.00,0.0205
1608.00,0.0197
1607.00,0.0187
1606.00,0.0175
1605.00,0.0163
1604.00,0.0151
1603.00,0.0139
1602.00,0.0129
1601.00,0.0120
1600.00,0.0112
1599.00,0.0107
1598.00,0.0103
1597.00,0.0100
1596.00,0.0099
1595.00,0.0100
1594.00,0.0104
1593.00,0.0110
1592.00,0.0119
1591.00,0.0130
1590.00,0.0144
1589.00,0.0159
1588.00,0.0174
1587.00,0.0188
1586.00,0.0200
1585.00,0.0209
1584.00,0.0215
1583.00,0.0217
1582.00,0.0216
1581.00,0.0212
1580.00,0.0207
1579.00,0.0202
1578.00,0.0195
1577.00,0.0186
1576.00,0.0175
1575.00,0.0164
1574.00,0.0155
1573.00,0.0149
1572.00,0.0144
1571.00,0.0141
1570.00,0.0137
1569.00,0.0132
1568.00,0.0128
1567.00,0.0124
1566.00,0.0119
1565.00,0.0113
1564.00,0.0105
1563.00,0.0099
1562.00,0.0093
1561.00,0.0088
1560.00,0.0082
1559.00,0.0076
1558.00,0.0070
1557.00,0.0067
1556.00,0.0065
1555.00,0.0064
1554.00,0.0062
1553.00,0.0061
1552.00,0.0060
1551.00,0.0058
1550.00,0.0057
1549.00,0.0056
1548.00,0.0056
1547.00,0.0055
1546.00,0.0054
1545.00,0.0054
1544.00,0.0053
1543.00,0.0052
1542.00,0.0051
1541.00,0.0051
1540.00,0.0051
1539.00,0.0051
1538.00,0.0051
1537.00,0.0050
1536.00,0.0049
1535.00,0.0048
1534.00,0.0047
1533.00,0.0047
1532.00,0.0047
1531.00,0.0047
1530.00,0.0047
1529.00,0.0047
1528.00,0.0047
1527.00,0.0047
1526.00,0.0048
1525.00,0.0048
1524.00,0.0048
1523.00,0.0049
1522.00,0.0050
1521.00,0.0052
1520.00,0.0054
1519.00,0.0055
1518.00,0.0057
1517.00,0.0059
1516.00,0.0062
1515.00,0.0064
1514.00,0.0066
1513.00,0.0068
1512.00,0.0070
1511.00,0.0071
1510.00,0.0072
1509.00,0.0073
1508.00,0.0073
1507.00,0.0073
1506.00,0.0074
1505.00,0.0075
1504.00,0.0077
1503.00,0.0079
1502.00,0.0083
1501.00,0.0088
1500.00,0.0097
1499.00,0.0109
1498.00,0.0124
1497.00,0.0137
1496.00,0.0145
1495.00,0.0146
1494.00,0.0142
1493.00,0.0135
1492.00,0.0126
1491.00,0.0115
1490.00,0.0104
1489.00,0.0094
1488.00,0.0087
1487.00,0.0081
1486.00,0.0077
1485.00,0.0073
1484.00,0.0070
1483.00,0.0068
1482.00,0.0066
1481.00,0.0064
1480.00,0.0063
1479.00,0.0062
1478.00,0.0062
1477.00,0.0062
1476.00,0.0062
1475.00,0.0063
1474.00,0.0066
1473.00,0.0070
1472.00,0.0077
1471.00,0.0087
1470.00,0.0098
1469.00,0.0111
1468.00,0.0123
1467.00,0.0135
1466.00,0.0144
1465.00,0.0148
1464.00,0.0148
1463.00,0.0146
1462.00,0.0146
1461.00,0.0147
1460.00,0.0149
1459.00,0.0151
1458.00,0.0151
1457.00,0.0148
1456.00,0.0143
1455.00,0.0138
1454.00,0.0136
1453.00,0.0134
1452.00,0.0133
1451.00,0.0133
1450.00,0.0134
1449.00,0.0135
1448.00,0.0137
1447.00,0.0139
1446.00,0.0143
1445.00,0.0148
1444.00,0.0154
1443.00,0.0160
1442.00,0.0167
1441.00,0.0174
1440.00,0.0180
1439.00,0.0185
1438.00,0.0190
1437.00,0.0196
1436.00,0.0201
1435.00,0.0208
1434.00,0.0215
1433.00,0.0223
1432.00,0.0230
1431.00,0.0236
1430.00,0.0240
1429.00,0.0241
1428.00,0.0241
1427.00,0.0240
1426.00,0.0238
1425.00,0.0234
1424.00,0.0230
1423.00,0.0226
1422.00,0.0223
1421.00,0.0220
1420.00,0.0216
1419.00,0.0209
1418.00,0.0201
1417.00,0.0194
1416.00,0.0189
1415.00,0.0185
1414.00,0.0181
1413.00,0.0178
1412.00,0.0177
1411.00,0.0178
1410.00,0.0181
1409.00,0.0186
1408.00,0.0193
1407.00,0.0203
1406.00,0.0215
1405.00,0.0228
1404.00,0.0242
1403.00,0.0254
1402.00,0.0264
1401.00,0.0271
1400.00,0.0275
1399.00,0.0273
1398.00,0.0267
1397.00,0.0258
1396.00,0.0245
1395.00,0.0230
1394.00,0.0215
1393.00,0.0200
1392.00,0.0189
1391.00,0.0181
1390.00,0.0177
1389.00,0.0176
1388.00,0.0179
1387.00,0.0183
1386.00,0.0184
1385.00,0.0180
1384.00,0.0174
1383.00,0.0169
1382.00,0.0166
1381.00,0.0166
1380.00,0.0167
1379.00,0.0168
1378.00,0.0167
1377.00,0.0166
1376.00,0.0161
1375.00,0.0154
1374.00,0.0145
1373.00,0.0136
1372.00,0.0131
1371.00,0.0130
1370.00,0.0133
1369.00,0.0140
1368.00,0.0150
1367.00,0.0163
1366.00,0.0174
1365.00,0.0182
1364.00,0.0188
1363.00,0.0194
1362.00,0.0203
1361.00,0.0215
1360.00,0.0224
1359.00,0.0225
1358.00,0.0218
1357.00,0.0206
1356.00,0.0193
1355.00,0.0183
1354.00,0.0175
1353.00,0.0171
1352.00,0.0168
1351.00,0.0167
1350.00,0.0167
1349.00,0.0168
1348.00,0.0168
1347.00,0.0168
1346.00,0.0167
1345.00,0.0165
1344.00,0.0161
1343.00,0.0156
1342.00,0.0150
1341.00,0.0144
1340.00,0.0137
1339.00,0.0131
1338.00,0.0126
1337.00,0.0122
1336.00,0.0121
1335.00,0.0122
1334.00,0.0124
1333.00,0.0126
1332.00,0.0129
1331.00,0.0131
1330.00,0.0133
1329.00,0.0133
1328.00,0.0132
1327.00,0.0131
1326.00,0.0128
1325.00,0.0126
1324.00,0.0124
1323.00,0.0122
1322.00,0.0121
1321.00,0.0120
1320.00,0.0119
1319.00,0.0117
1318.00,0.0115
1317.00,0.0113
1316.00,0.0110
1315.00,0.0108
1314.00,0.0107
1313.00,0.0106
1312.00,0.0106
1311.00,0.0108
1310.00,0.0111
1309.00,0.0116
1308.00,0.0122
1307.00,0.0131
1306.00,0.0141
1305.00,0.0153
1304.00,0.0167
1303.00,0.0181
1302.00,0.0193
1301.00,0.0200
1300.00,0.0202
1299.00,0.0200
1298.00,0.0195
1297.00,0.0191
1296.00,0.0188
1295.00,0.0186
1294.00,0.0186
1293.00,0.0185
1292.00,0.0184
1291.00,0.0184
1290.00,0.0185
1289.00,0.0188
1288.00,0.0195
1287.00,0.0203
1286.00,0.0214
1285.00,0.0224
1284.00,0.0231
1283.00,0.0235
1282.00,0.0234
1281.00,0.0227
1280.00,0.0217
1279.00,0.0204
1278.00,0.0191
1277.00,0.0178
1276.00,0.0168
1275.00,0.0160
1274.00,0.0154
1273.00,0.0149
1272.00,0.0145
1271.00,0.0142
1270.00,0.0139
1269.00,0.0137
1268.00,0.0135
1267.00,0.0133
1266.00,0.0131
1265.00,0.0129
1264.00,0.0127
1263.00,0.0124
1262.00,0.0120
1261.00,0.0117
1260.00,0.0113
1259.00,0.0111
1258.00,0.0108
1257.00,0.0106
1256.00,0.0105
1255.00,0.0103
1254.00,0.0103
1253.00,0.0103
1252.00,0.0105
1251.00,0.0107
1250.00,0.0112
1249.00,0.0117
1248.00,0.0124
1247.00,0.0132
1246.00,0.0140
1245.00,0.0148
1244.00,0.0156
1243.00,0.0162
1242.00,0.0167
1241.00,0.0172
1240.00,0.0177
1239.00,0.0184
1238.00,0.0192
1237.00,0.0202
1236.00,0.0212
1235.00,0.0221
1234.00,0.0227
1233.00,0.0229
1232.00,0.0227
1231.00,0.0221
1230.00,0.0212
1229.00,0.0202
1228.00,0.0192
1227.00,0.0183
1226.00,0.0174
1225.00,0.0167
1224.00,0.0161
1223.00,0.0156
1222.00,0.0154
1221.00,0.0152
1220.00,0.0153
1219.00,0.0155
1218.00,0.0159
1217.00,0.0164
1216.00,0.0169
1215.00,0.0172
1214.00,0.0174
1213.00,0.0172
1212.00,0.0167
1211.00,0.0160
1210.00,0.0151
1209.00,0.0143
1208.00,0.0135
1207.00,0.0130
1206.00,0.0128
1205.00,0.0128
1204.00,0.0131
1203.00,0.0137
1202.00,0.0146
1201.00,0.0157
1200.00,0.0169
1199.00,0.0184
1198.00,0.0199
1197.00,0.0215
1196.00,0.0230
1195.00,0.0240
1194.00,0.0245
1193.00,0.0244
1192.00,0.0238
1191.00,0.0227
1190.00,0.0214
1189.00,0.0199
1188.00,0.0183
1187.00,0.0167
1186.00,0.0153
1185.00,0.0141
1184.00,0.0131
1183.00,0.0122
1182.00,0.0115
1181.00,0.0109
1180.00,0.0105
1179.00,0.0101
1178.00,0.0098
1177.00,0.0096
1176.00,0.0094
1175.00,0.0092
1174.00,0.0091
1173.00,0.0090
1172.00,0.0089
1171.00,0.0089
1170.00,0.0089
1169.00,0.0089
1168.00,0.0089
1167.00,0.0089
1166.00,0.0090
1165.00,0.0092
1164.00,0.0095
1163.00,0.0100
1162.00,0.0107
1161.00,0.0116
1160.00,0.0129
1159.00,0.0147
1158.00,0.0169
1157.00,0.0194
1156.00,0.0216
1155.00,0.0231
1154.00,0.0236
1153.00,0.0229
1152.00,0.0210
1151.00,0.0186
1150.00,0.0161
1149.00,0.0139
1148.00,0.0122
1147.00,0.0110
1146.00,0.0103
1145.00,0.0097
1144.00,0.0094
1143.00,0.0091
1142.00,0.0090
1141.00,0.0090
1140.00,0.0091
1139.00,0.0093
1138.00,0.0097
1137.00,0.0104
1136.00,0.0113
1135.00,0.0126
1134.00,0.0145
1133.00,0.0168
1132.00,0.0196
1131.00,0.0226
1130.00,0.0253
1129.00,0.0272
1128.00,0.0282
1127.00,0.0282
1126.00,0.0274
1125.00,0.0261
1124.00,0.0243
1123.00,0.0222
1122.00,0.0201
1121.00,0.0181
1120.00,0.0164
1119.00,0.0151
1118.00,0.0142
1117.00,0.0136
1116.00,0.0133
1115.00,0.0131
1114.00,0.0129
1113.00,0.0127
1112.00,0.0123
1111.00,0.0120
1110.00,0.0116
1109.00,0.0113
1108.00,0.0111
1107.00,0.0111
1106.00,0.0114
1105.00,0.0120
1104.00,0.0130
1103.00,0.0144
1102.00,0.0161
1101.00,0.0177
1100.00,0.0189
1099.00,0.0193
1098.00,0.0189
1097.00,0.0178
1096.00,0.0161
1095.00,0.0144
1094.00,0.0128
1093.00,0.0114
1092.00,0.0104
1091.00,0.0096
1090.00,0.0091
1089.00,0.0087
1088.00,0.0083
1087.00,0.0080
1086.00,0.0079
1085.00,0.0077
1084.00,0.0077
1083.00,0.0076
1082.00,0.0076
1081.00,0.0076
1080.00,0.0075
1079.00,0.0076
1078.00,0.0076
1077.00,0.0078
1076.00,0.0079
1075.00,0.0080
1074.00,0.0082
1073.00,0.0083
1072.00,0.0085
1071.00,0.0087
1070.00,0.0091
1069.00,0.0095
1068.00,0.0098
1067.00,0.0102
1066.00,0.0107
1065.00,0.0112
1064.00,0.0119
1063.00,0.0129
1062.00,0.0143
1061.00,0.0159
1060.00,0.0180
1059.00,0.0206
1058.00,0.0237
1057.00,0.0270
1056.00,0.0302
1055.00,0.0330
1054.00,0.0351
1053.00,0.0366
1052.00,0.0375
1051.00,0.0381
1050.00,0.0384
1049.00,0.0383
1048.00,0.0377
1047.00,0.0365
1046.00,0.0348
1045.00,0.0326
1044.00,0.0302
1043.00,0.0277
1042.00,0.0254
1041.00,0.0234
1040.00,0.0217
1039.00,0.0204
1038.00,0.0198
1037.00,0.0195
1036.00,0.0195
1035.00,0.0198
1034.00,0.0202
1033.00,0.0208
1032.00,0.0219
1031.00,0.0237
1030.00,0.0262
1029.00,0.0291
1028.00,0.0319
1027.00,0.0340
1026.00,0.0347
1025.00,0.0340
1024.00,0.0320
1023.00,0.0293
1022.00,0.0264
1021.00,0.0237
1020.00,0.0213
1019.00,0.0193
1018.00,0.0176
1017.00,0.0163
1016.00,0.0151
1015.00,0.0142
1014.00,0.0135
1013.00,0.0130
1012.00,0.0126
1011.00,0.0126
1010.00,0.0128
1009.00,0.0133
1008.00,0.0140
1007.00,0.0150
1006.00,0.0160
1005.00,0.0170
1004.00,0.0177
1003.00,0.0180
1002.00,0.0180
1001.00,0.0177
1000.00,0.0172
999.00,0.0166
998.00,0.0161
997.00,0.0156
996.00,0.0151
995.00,0.0147
994.00,0.0144
993.00,0.0141
992.00,0.0135
991.00,0.0129
990.00,0.0122
989.00,0.0116
988.00,0.0109
987.00,0.0104
986.00,0.0100
985.00,0.0096
984.00,0.0093
983.00,0.0091
982.00,0.0089
981.00,0.0087
980.00,0.0086
979.00,0.0086
978.00,0.0087
977.00,0.0087
976.00,0.0087
975.00,0.0087
974.00,0.0087
973.00,0.0087
972.00,0.0086
971.00,0.0085
970.00,0.0084
969.00,0.0084
968.00,0.0084
967.00,0.0084
966.00,0.0085
965.00,0.0087
964.00,0.0089
963.00,0.0090
962.00,0.0091
961.00,0.0090
960.00,0.0086
959.00,0.0082
958.00,0.0078
957.00,0.0074
956.00,0.0071
955.00,0.0068
954.00,0.0066
953.00,0.0064
952.00,0.0062
951.00,0.0062
950.00,0.0064
949.00,0.0066
948.00,0.0068
947.00,0.0068
946.00,0.0068
945.00,0.0068
944.00,0.0068
943.00,0.0069
942.00,0.0072
941.00,0.0075
940.00,0.0078
939.00,0.0081
938.00,0.0084
937.00,0.0086
936.00,0.0088
935.00,0.0091
934.00,0.0094
933.00,0.0096
932.00,0.0097
931.00,0.0097
930.00,0.0096
929.00,0.0094
928.00,0.0093
927.00,0.0092
926.00,0.0094
925.00,0.0097
924.00,0.0102
923.00,0.0106
922.00,0.0109
921.00,0.0109
920.00,0.0105
919.00,0.0099
918.00,0.0092
917.00,0.0085
916.00,0.0079
915.00,0.0074
914.00,0.0071
913.00,0.0068
912.00,0.0066
911.00,0.0065
910.00,0.0064
909.00,0.0065
908.00,0.0065
907.00,0.0066
906.00,0.0069
905.00,0.0073
904.00,0.0078
903.00,0.0085
902.00,0.0095
901.00,0.0104
900.00,0.0112
899.00,0.0116
898.00,0.0115
897.00,0.0111
896.00,0.0103
895.00,0.0097
894.00,0.0095
893.00,0.0097
892.00,0.0104
891.00,0.0112
890.00,0.0117
889.00,0.0116
888.00,0.0108
887.00,0.0096
886.00,0.0086
885.00,0.0080
884.00,0.0077
883.00,0.0076
882.00,0.0077
881.00,0.0080
880.00,0.0084
879.00,0.0090
878.00,0.0100
877.00,0.0113
876.00,0.0129
875.00,0.0148
874.00,0.0170
873.00,0.0194
872.00,0.0217
871.00,0.0236
870.00,0.0248
869.00,0.0250
868.00,0.0242
867.00,0.0228
866.00,0.0213
865.00,0.0198
864.00,0.0183
863.00,0.0168
862.00,0.0155
861.00,0.0143
860.00,0.0133
859.00,0.0127
858.00,0.0127
857.00,0.0131
856.00,0.0139
855.00,0.0150
854.00,0.0162
853.00,0.0174
852.00,0.0186
851.00,0.0198
850.00,0.0211
849.00,0.0219
848.00,0.0219
847.00,0.0211
846.00,0.0199
845.00,0.0185
844.00,0.0172
843.00,0.0162
842.00,0.0156
841.00,0.0153
840.00,0.0153
839.00,0.0159
838.00,0.0170
837.00,0.0184
836.00,0.0200
835.00,0.0214
834.00,0.0225
833.00,0.0229
832.00,0.0226
831.00,0.0217
830.00,0.0204
829.00,0.0186
828.00,0.0167
827.00,0.0150
826.00,0.0138
825.00,0.0135
824.00,0.0141
823.00,0.0162
822.00,0.0196
821.00,0.0233
820.00,0.0261
819.00,0.0279
818.00,0.0291
817.00,0.0306
816.00,0.0319
815.00,0.0317
814.00,0.0292
813.00,0.0251
812.00,0.0206
811.00,0.0169
810.00,0.0143
809.00,0.0125
808.00,0.0112
807.00,0.0103
806.00,0.0096
805.00,0.0090
804.00,0.0085
803.00,0.0081
802.00,0.0079
801.00,0.0077
800.00,0.0076
799.00,0.0074
798.00,0.0073
797.00,0.0072
796.00,0.0071
795.00,0.0071
794.00,0.0071
793.00,0.0071
792.00,0.0070
791.00,0.0069
790.00,0.0069
789.00,0.0068
788.00,0.0067
787.00,0.0067
786.00,0.0066
785.00,0.0066
784.00,0.0066
783.00,0.0066
782.00,0.0067
781.00,0.0068
780.00,0.0068
779.00,0.0070
778.00,0.0074
777.00,0.0081
776.00,0.0088
775.00,0.0095
774.00,0.0099
773.00,0.0098
772.00,0.0092
771.00,0.0085
770.00,0.0080
769.00,0.0076
768.00,0.0074
767.00,0.0074
766.00,0.0074
765.00,0.0075
764.00,0.0077
763.00,0.0079
762.00,0.0083
761.00,0.0087
760.00,0.0089
759.00,0.0090
758.00,0.0090
757.00,0.0088
756.00,0.0085
755.00,0.0083
754.00,0.0081
753.00,0.0080
752.00,0.0079
751.00,0.0079
750.00,0.0079
749.00,0.0080
748.00,0.0081
747.00,0.0082
746.00,0.0083
745.00,0.0085
744.00,0.0087
743.00,0.0089
742.00,0.0093
741.00,0.0099
740.00,0.0106
739.00,0.0117
738.00,0.0133
737.00,0.0151
736.00,0.0169
735.00,0.0181
734.00,0.0185
733.00,0.0182
732.00,0.0177
731.00,0.0175
730.00,0.0177
729.00,0.0180
728.00,0.0178
727.00,0.0171
726.00,0.0160
725.00,0.0146
724.00,0.0133
723.00,0.0122
722.00,0.0116
721.00,0.0113
720.00,0.0111
719.00,0.0114
718.00,0.0120
717.00,0.0128
716.00,0.0136
715.00,0.0141
714.00,0.0143
713.00,0.0141
712.00,0.0136
711.00,0.0130
710.00,0.0125
709.00,0.0121
708.00,0.0117
707.00,0.0115
706.00,0.0116
705.00,0.0117
704.00,0.0119
703.00,0.0122
702.00,0.0126
701.00,0.0131
700.00,0.0135
699.00,0.0138
698.00,0.0140
697.00,0.0139
696.00,0.0136
695.00,0.0132
694.00,0.0129
693.00,0.0127
692.00,0.0129
691.00,0.0134
690.00,0.0142
689.00,0.0150
688.00,0.0154
687.00,0.0154
686.00,0.0150
685.00,0.0145
684.00,0.0138
683.00,0.0135
682.00,0.0133
681.00,0.0134
680.00,0.0135
679.00,0.0137
678.00,0.0141
677.00,0.0146
676.00,0.0152
675.00,0.0159
674.00,0.0168
673.00,0.0175
672.00,0.0181
671.00,0.0185
670.00,0.0188
669.00,0.0188
668.00,0.0184
667.00,0.0180
666.00,0.0176
665.00,0.0175
664.00,0.0176
663.00,0.0178
662.00,0.0182
661.00,0.0182
660.00,0.0179
659.00,0.0175
658.00,0.0169
657.00,0.0164
656.00,0.0158
655.00,0.0154
654.00,0.0151
653.00,0.0148
652.00,0.0145
651.00,0.0144
650.00,0.0144
649.00,0.0144
648.00,0.0143
647.00,0.0143
646.00,0.0144
645.00,0.0144
644.00,0.0142
643.00,0.0141
642.00,0.0140
641.00,0.0139
640.00,0.0136
639.00,0.0135
638.00,0.0134
637.00,0.0134
636.00,0.0134
635.00,0.0133
634.00,0.0134
633.00,0.0134
632.00,0.0134
631.00,0.0134
630.00,0.0135
629.00,0.0136
628.00,0.0137
627.00,0.0139
626.00,0.0143
625.00,0.0148
624.00,0.0152
623.00,0.0157
622.00,0.0163
621.00,0.0168
620.00,0.0170
619.00,0.0170
618.00,0.0167
617.00,0.0162
616.00,0.0154
615.00,0.0147
614.00,0.0142
613.00,0.0137
612.00,0.0133
611.00,0.0131
610.00,0.0134
609.00,0.0141
608.00,0.0151
607.00,0.0164
606.00,0.0178
605.00,0.0192
604.00,0.0203
603.00,0.0212
602.00,0.0219
601.00,0.0224
600.00,0.0224
599.00,0.0222
598.00,0.0221
597.00,0.0220
596.00,0.0218
595.00,0.0216
594.00,0.0217
593.00,0.0216
592.00,0.0212
591.00,0.0207
590.00,0.0204
589.00,0.0201
588.00,0.0197
587.00,0.0195
586.00,0.0194
585.00,0.0194
584.00,0.0193
583.00,0.0193
582.00,0.0196
581.00,0.0199
580.00,0.0204
579.00,0.0213
578.00,0.0226
577.00,0.0238
576.00,0.0243
575.00,0.0240
574.00,0.0233
573.00,0.0221
572.00,0.0208
571.00,0.0198
570.00,0.0191
569.00,0.0185
568.00,0.0180
567.00,0.0179
566.00,0.0183
565.00,0.0190
564.00,0.0197
563.00,0.0205
562.00,0.0215
561.00,0.0225
560.00,0.0230
559.00,0.0230
558.00,0.0227
557.00,0.0221
556.00,0.0211
555.00,0.0203
554.00,0.0200
553.00,0.0200
552.00,0.0200
551.00,0.0204
550.00,0.0212
549.00,0.0221
548.00,0.0228
547.00,0.0235
546.00,0.0240
545.00,0.0242
544.00,0.0237
543.00,0.0230
542.00,0.0222
541.00,0.0216
540.00,0.0208
539.00,0.0203
538.00,0.0201
537.00,0.0199
536.00,0.0198
535.00,0.0201
534.00,0.0209
533.00,0.0217
532.00,0.0223
531.00,0.0227
530.00,0.0229
529.00,0.0226
528.00,0.0216
527.00,0.0205
526.00,0.0196
525.00,0.0186
524.00,0.0176
523.00,0.0169
522.00,0.0165
521.00,0.0161
520.00,0.0154
519.00,0.0150
518.00,0.0149
517.00,0.0148
516.00,0.0146
515.00,0.0144
514.00,0.0145
513.00,0.0146
512.00,0.0145
511.00,0.0146
510.00,0.0149
509.00,0.0152
508.00,0.0152
507.00,0.0152
506.00,0.0154
505.00,0.0155
504.00,0.0153
503.00,0.0151
502.00,0.0150
501.00,0.0147
500.00,0.0142
499.00,0.0138
498.00,0.0138
497.00,0.0139
496.00,0.0139
495.00,0.0142
494.00,0.0149
493.00,0.0154
492.00,0.0155
491.00,0.0154
490.00,0.0155
489.00,0.0153
488.00,0.0147
487.00,0.0141
486.00,0.0140
485.00,0.0141
484.00,0.0139
483.00,0.0137
482.00,0.0138
481.00,0.0139
480.00,0.0136
479.00,0.0131
478.00,0.0129
477.00,0.0128
476.00,0.0126
475.00,0.0125
474.00,0.0128
473.00,0.0130
472.00,0.0127
471.00,0.0125
470.00,0.0127
469.00,0.0128
468.00,0.0125
467.00,0.0123
466.00,0.0124
465.00,0.0124
464.00,0.0123
463.00,0.0125
462.00,0.0131
461.00,0.0133
460.00,0.0127
459.00,0.0120
458.00,0.0120
457.00,0.0120
456.00,0.0115
455.00,0.0112
454.00,0.0117
453.00,0.0124
452.00,0.0126
451.00,0.0125
450.00,0.0124
449.00,0.0121
448.00,0.0115
447.00,0.0116
446.00,0.0124
445.00,0.0130
444.00,0.0127
443.00,0.0124
442.00,0.0127
441.00,0.0131
440.00,0.0130
439.00,0.0129
438.00,0.0130
437.00,0.0129
436.00,0.0123
435.00,0.0120
434.00,0.0124
433.00,0.0128
432.00,0.0125
431.00,0.0125
430.00,0.0130
429.00,0.0133
428.00,0.0125
427.00,0.0119
426.00,0.0121
425.00,0.0126
424.00,0.0123
423.00,0.0119
422.00,0.0119
421.00,0.0116
420.00,0.0107
419.00,0.0108
418.00,0.0124
417.00,0.0134
416.00,0.0126
415.00,0.0118
414.00,0.0122
413.00,0.0131
412.00,0.0134
411.00,0.0138
410.00,0.0150
409.00,0.0157
408.00,0.0149
407.00,0.0141
406.00,0.0147
405.00,0.0153
404.00,0.0148
403.00,0.0141
402.00,0.0143
401.00,0.0139
400.00,0.0119
