Created as New Dataset,Sample 853 By YargerLab Date Monday, July 21 2025
cm-1,A
4000.00,0.0016
3999.00,0.0016
3998.00,0.0016
3997.00,0.0016
3996.00,0.0016
3995.00,0.0016
3994.00,0.0016
3993.00,0.0016
3992.00,0.0016
3991.00,0.0015
3990.00,0.0015
3989.00,0.0015
3988.00,0.0015
3987.00,0.0015
3986.00,0.0015
3985.00,0.0015
3984.00,0.0015
3983.00,0.0015
3982.00,0.0015
3981.00,0.0015
3980.00,0.0016
3979.00,0.0016
3978.00,0.0016
3977.00,0.0015
3976.00,0.0015
3975.00,0.0015
3974.00,0.0015
3973.00,0.0016
3972.00,0.0016
3971.00,0.0015
3970.00,0.0015
3969.00,0.0015
3968.00,0.0015
3967.00,0.0015
3966.00,0.0015
3965.00,0.0015
3964.00,0.0015
3963.00,0.0015
3962.00,0.0015
3961.00,0.0015
3960.00,0.0015
3959.00,0.0015
3958.00,0.0015
3957.00,0.0014
3956.00,0.0014
3955.00,0.0015
3954.00,0.0015
3953.00,0.0015
3952.00,0.0015
3951.00,0.0015
3950.00,0.0015
3949.00,0.0015
3948.00,0.0015
3947.00,0.0015
3946.00,0.0015
3945.00,0.0015
3944.00,0.0015
3943.00,0.0015
3942.00,0.0015
3941.00,0.0015
3940.00,0.0015
3939.00,0.0014
3938.00,0.0014
3937.00,0.0014
3936.00,0.0015
3935.00,0.0015
3934.00,0.0015
3933.00,0.0014
3932.00,0.0014
3931.00,0.0015
3930.00,0.0015
3929.00,0.0015
3928.00,0.0015
3927.00,0.0015
3926.00,0.0015
3925.00,0.0015
3924.00,0.0015
3923.00,0.0015
3922.00,0.0015
3921.00,0.0015
3920.00,0.0015
3919.00,0.0015
3918.00,0.0015
3917.00,0.0014
3916.00,0.0014
3915.00,0.0014
3914.00,0.0015
3913.00,0.0015
3912.00,0.0015
3911.00,0.0015
3910.00,0.0015
3909.00,0.0016
3908.00,0.0016
3907.00,0.0016
3906.00,0.0016
3905.00,0.0015
3904.00,0.0015
3903.00,0.0014
3902.00,0.0014
3901.00,0.0014
3900.00,0.0014
3899.00,0.0014
3898.00,0.0015
3897.00,0.0015
3896.00,0.0015
3895.00,0.0015
3894.00,0.0014
3893.00,0.0014
3892.00,0.0014
3891.00,0.0015
3890.00,0.0015
3889.00,0.0014
3888.00,0.0014
3887.00,0.0013
3886.00,0.0013
3885.00,0.0013
3884.00,0.0013
3883.00,0.0013
3882.00,0.0014
3881.00,0.0014
3880.00,0.0015
3879.00,0.0015
3878.00,0.0015
3877.00,0.0015
3876.00,0.0015
3875.00,0.0015
3874.00,0.0015
3873.00,0.0015
3872.00,0.0014
3871.00,0.0013
3870.00,0.0013
3869.00,0.0013
3868.00,0.0013
3867.00,0.0013
3866.00,0.0013
3865.00,0.0013
3864.00,0.0014
3863.00,0.0014
3862.00,0.0014
3861.00,0.0014
3860.00,0.0014
3859.00,0.0014
3858.00,0.0014
3857.00,0.0014
3856.00,0.0014
3855.00,0.0013
3854.00,0.0012
3853.00,0.0012
3852.00,0.0012
3851.00,0.0012
3850.00,0.0012
3849.00,0.0013
3848.00,0.0014
3847.00,0.0014
3846.00,0.0015
3845.00,0.0015
3844.00,0.0015
3843.00,0.0015
3842.00,0.0015
3841.00,0.0014
3840.00,0.0014
3839.00,0.0014
3838.00,0.0014
3837.00,0.0014
3836.00,0.0014
3835.00,0.0014
3834.00,0.0014
3833.00,0.0014
3832.00,0.0015
3831.00,0.0015
3830.00,0.0015
3829.00,0.0015
3828.00,0.0015
3827.00,0.0015
3826.00,0.0015
3825.00,0.0015
3824.00,0.0015
3823.00,0.0014
3822.00,0.0014
3821.00,0.0014
3820.00,0.0015
3819.00,0.0014
3818.00,0.0014
3817.00,0.0014
3816.00,0.0014
3815.00,0.0014
3814.00,0.0014
3813.00,0.0014
3812.00,0.0015
3811.00,0.0015
3810.00,0.0016
3809.00,0.0016
3808.00,0.0016
3807.00,0.0016
3806.00,0.0015
3805.00,0.0015
3804.00,0.0014
3803.00,0.0014
3802.00,0.0014
3801.00,0.0014
3800.00,0.0014
3799.00,0.0014
3798.00,0.0014
3797.00,0.0015
3796.00,0.0015
3795.00,0.0016
3794.00,0.0016
3793.00,0.0016
3792.00,0.0016
3791.00,0.0016
3790.00,0.0015
3789.00,0.0015
3788.00,0.0015
3787.00,0.0015
3786.00,0.0015
3785.00,0.0015
3784.00,0.0016
3783.00,0.0016
3782.00,0.0016
3781.00,0.0016
3780.00,0.0016
3779.00,0.0016
3778.00,0.0016
3777.00,0.0017
3776.00,0.0017
3775.00,0.0016
3774.00,0.0016
3773.00,0.0016
3772.00,0.0016
3771.00,0.0016
3770.00,0.0016
3769.00,0.0016
3768.00,0.0016
3767.00,0.0016
3766.00,0.0016
3765.00,0.0016
3764.00,0.0016
3763.00,0.0016
3762.00,0.0016
3761.00,0.0016
3760.00,0.0015
3759.00,0.0015
3758.00,0.0015
3757.00,0.0016
3756.00,0.0016
3755.00,0.0015
3754.00,0.0015
3753.00,0.0015
3752.00,0.0014
3751.00,0.0013
3750.00,0.0013
3749.00,0.0013
3748.00,0.0013
3747.00,0.0013
3746.00,0.0013
3745.00,0.0014
3744.00,0.0014
3743.00,0.0015
3742.00,0.0014
3741.00,0.0014
3740.00,0.0015
3739.00,0.0015
3738.00,0.0015
3737.00,0.0015
3736.00,0.0014
3735.00,0.0013
3734.00,0.0013
3733.00,0.0013
3732.00,0.0013
3731.00,0.0014
3730.00,0.0014
3729.00,0.0014
3728.00,0.0014
3727.00,0.0015
3726.00,0.0015
3725.00,0.0015
3724.00,0.0015
3723.00,0.0015
3722.00,0.0015
3721.00,0.0015
3720.00,0.0015
3719.00,0.0015
3718.00,0.0015
3717.00,0.0016
3716.00,0.0016
3715.00,0.0016
3714.00,0.0016
3713.00,0.0016
3712.00,0.0016
3711.00,0.0016
3710.00,0.0016
3709.00,0.0016
3708.00,0.0016
3707.00,0.0016
3706.00,0.0016
3705.00,0.0016
3704.00,0.0016
3703.00,0.0016
3702.00,0.0017
3701.00,0.0017
3700.00,0.0017
3699.00,0.0017
3698.00,0.0017
3697.00,0.0017
3696.00,0.0017
3695.00,0.0017
3694.00,0.0018
3693.00,0.0018
3692.00,0.0018
3691.00,0.0018
3690.00,0.0019
3689.00,0.0019
3688.00,0.0019
3687.00,0.0020
3686.00,0.0020
3685.00,0.0021
3684.00,0.0021
3683.00,0.0022
3682.00,0.0023
3681.00,0.0024
3680.00,0.0025
3679.00,0.0025
3678.00,0.0025
3677.00,0.0025
3676.00,0.0025
3675.00,0.0026
3674.00,0.0026
3673.00,0.0026
3672.00,0.0025
3671.00,0.0026
3670.00,0.0026
3669.00,0.0028
3668.00,0.0029
3667.00,0.0029
3666.00,0.0030
3665.00,0.0030
3664.00,0.0031
3663.00,0.0032
3662.00,0.0032
3661.00,0.0033
3660.00,0.0033
3659.00,0.0034
3658.00,0.0034
3657.00,0.0034
3656.00,0.0035
3655.00,0.0036
3654.00,0.0036
3653.00,0.0037
3652.00,0.0037
3651.00,0.0038
3650.00,0.0038
3649.00,0.0039
3648.00,0.0040
3647.00,0.0041
3646.00,0.0042
3645.00,0.0043
3644.00,0.0044
3643.00,0.0045
3642.00,0.0046
3641.00,0.0047
3640.00,0.0048
3639.00,0.0049
3638.00,0.0050
3637.00,0.0051
3636.00,0.0052
3635.00,0.0053
3634.00,0.0054
3633.00,0.0055
3632.00,0.0056
3631.00,0.0056
3630.00,0.0057
3629.00,0.0059
3628.00,0.0061
3627.00,0.0062
3626.00,0.0063
3625.00,0.0063
3624.00,0.0064
3623.00,0.0065
3622.00,0.0066
3621.00,0.0067
3620.00,0.0068
3619.00,0.0070
3618.00,0.0072
3617.00,0.0073
3616.00,0.0074
3615.00,0.0075
3614.00,0.0077
3613.00,0.0079
3612.00,0.0080
3611.00,0.0082
3610.00,0.0084
3609.00,0.0085
3608.00,0.0087
3607.00,0.0089
3606.00,0.0091
3605.00,0.0092
3604.00,0.0093
3603.00,0.0094
3602.00,0.0096
3601.00,0.0098
3600.00,0.0100
3599.00,0.0102
3598.00,0.0104
3597.00,0.0106
3596.00,0.0108
3595.00,0.0110
3594.00,0.0112
3593.00,0.0113
3592.00,0.0115
3591.00,0.0115
3590.00,0.0116
3589.00,0.0118
3588.00,0.0120
3587.00,0.0123
3586.00,0.0126
3585.00,0.0129
3584.00,0.0131
3583.00,0.0132
3582.00,0.0134
3581.00,0.0136
3580.00,0.0139
3579.00,0.0141
3578.00,0.0143
3577.00,0.0145
3576.00,0.0148
3575.00,0.0150
3574.00,0.0152
3573.00,0.0154
3572.00,0.0155
3571.00,0.0157
3570.00,0.0159
3569.00,0.0160
3568.00,0.0162
3567.00,0.0165
3566.00,0.0168
3565.00,0.0171
3564.00,0.0174
3563.00,0.0176
3562.00,0.0178
3561.00,0.0180
3560.00,0.0182
3559.00,0.0184
3558.00,0.0186
3557.00,0.0188
3556.00,0.0190
3555.00,0.0192
3554.00,0.0194
3553.00,0.0196
3552.00,0.0198
3551.00,0.0199
3550.00,0.0201
3549.00,0.0203
3548.00,0.0204
3547.00,0.0207
3546.00,0.0209
3545.00,0.0212
3544.00,0.0214
3543.00,0.0216
3542.00,0.0218
3541.00,0.0219
3540.00,0.0221
3539.00,0.0222
3538.00,0.0224
3537.00,0.0225
3536.00,0.0227
3535.00,0.0228
3534.00,0.0230
3533.00,0.0231
3532.00,0.0232
3531.00,0.0234
3530.00,0.0235
3529.00,0.0236
3528.00,0.0238
3527.00,0.0239
3526.00,0.0241
3525.00,0.0242
3524.00,0.0244
3523.00,0.0245
3522.00,0.0246
3521.00,0.0248
3520.00,0.0249
3519.00,0.0250
3518.00,0.0251
3517.00,0.0252
3516.00,0.0254
3515.00,0.0255
3514.00,0.0256
3513.00,0.0256
3512.00,0.0257
3511.00,0.0258
3510.00,0.0259
3509.00,0.0261
3508.00,0.0262
3507.00,0.0263
3506.00,0.0263
3505.00,0.0264
3504.00,0.0265
3503.00,0.0267
3502.00,0.0268
3501.00,0.0269
3500.00,0.0270
3499.00,0.0271
3498.00,0.0272
3497.00,0.0272
3496.00,0.0273
3495.00,0.0274
3494.00,0.0275
3493.00,0.0276
3492.00,0.0277
3491.00,0.0278
3490.00,0.0278
3489.00,0.0279
3488.00,0.0280
3487.00,0.0280
3486.00,0.0281
3485.00,0.0281
3484.00,0.0282
3483.00,0.0282
3482.00,0.0284
3481.00,0.0285
3480.00,0.0285
3479.00,0.0286
3478.00,0.0286
3477.00,0.0287
3476.00,0.0287
3475.00,0.0288
3474.00,0.0289
3473.00,0.0290
3472.00,0.0290
3471.00,0.0291
3470.00,0.0292
3469.00,0.0293
3468.00,0.0293
3467.00,0.0294
3466.00,0.0294
3465.00,0.0294
3464.00,0.0295
3463.00,0.0295
3462.00,0.0296
3461.00,0.0297
3460.00,0.0297
3459.00,0.0298
3458.00,0.0298
3457.00,0.0299
3456.00,0.0299
3455.00,0.0300
3454.00,0.0300
3453.00,0.0300
3452.00,0.0301
3451.00,0.0301
3450.00,0.0301
3449.00,0.0301
3448.00,0.0302
3447.00,0.0302
3446.00,0.0302
3445.00,0.0303
3444.00,0.0303
3443.00,0.0303
3442.00,0.0303
3441.00,0.0304
3440.00,0.0304
3439.00,0.0304
3438.00,0.0305
3437.00,0.0305
3436.00,0.0305
3435.00,0.0305
3434.00,0.0305
3433.00,0.0305
3432.00,0.0305
3431.00,0.0305
3430.00,0.0304
3429.00,0.0304
3428.00,0.0304
3427.00,0.0304
3426.00,0.0304
3425.00,0.0303
3424.00,0.0303
3423.00,0.0303
3422.00,0.0303
3421.00,0.0303
3420.00,0.0303
3419.00,0.0303
3418.00,0.0303
3417.00,0.0303
3416.00,0.0303
3415.00,0.0303
3414.00,0.0303
3413.00,0.0302
3412.00,0.0302
3411.00,0.0301
3410.00,0.0301
3409.00,0.0300
3408.00,0.0300
3407.00,0.0299
3406.00,0.0299
3405.00,0.0299
3404.00,0.0298
3403.00,0.0298
3402.00,0.0297
3401.00,0.0297
3400.00,0.0296
3399.00,0.0296
3398.00,0.0295
3397.00,0.0294
3396.00,0.0294
3395.00,0.0293
3394.00,0.0292
3393.00,0.0292
3392.00,0.0291
3391.00,0.0290
3390.00,0.0290
3389.00,0.0289
3388.00,0.0288
3387.00,0.0287
3386.00,0.0287
3385.00,0.0286
3384.00,0.0285
3383.00,0.0284
3382.00,0.0283
3381.00,0.0283
3380.00,0.0282
3379.00,0.0281
3378.00,0.0280
3377.00,0.0280
3376.00,0.0279
3375.00,0.0278
3374.00,0.0277
3373.00,0.0276
3372.00,0.0274
3371.00,0.0273
3370.00,0.0271
3369.00,0.0270
3368.00,0.0269
3367.00,0.0269
3366.00,0.0269
3365.00,0.0269
3364.00,0.0268
3363.00,0.0267
3362.00,0.0266
3361.00,0.0265
3360.00,0.0264
3359.00,0.0264
3358.00,0.0263
3357.00,0.0262
3356.00,0.0262
3355.00,0.0261
3354.00,0.0259
3353.00,0.0258
3352.00,0.0256
3351.00,0.0255
3350.00,0.0255
3349.00,0.0255
3348.00,0.0255
3347.00,0.0254
3346.00,0.0253
3345.00,0.0252
3344.00,0.0251
3343.00,0.0250
3342.00,0.0249
3341.00,0.0248
3340.00,0.0247
3339.00,0.0246
3338.00,0.0245
3337.00,0.0246
3336.00,0.0246
3335.00,0.0246
3334.00,0.0246
3333.00,0.0246
3332.00,0.0245
3331.00,0.0244
3330.00,0.0243
3329.00,0.0242
3328.00,0.0241
3327.00,0.0239
3326.00,0.0239
3325.00,0.0238
3324.00,0.0238
3323.00,0.0239
3322.00,0.0239
3321.00,0.0239
3320.00,0.0239
3319.00,0.0239
3318.00,0.0238
3317.00,0.0238
3316.00,0.0237
3315.00,0.0236
3314.00,0.0235
3313.00,0.0234
3312.00,0.0233
3311.00,0.0231
3310.00,0.0229
3309.00,0.0227
3308.00,0.0226
3307.00,0.0225
3306.00,0.0225
3305.00,0.0226
3304.00,0.0227
3303.00,0.0228
3302.00,0.0229
3301.00,0.0229
3300.00,0.0228
3299.00,0.0227
3298.00,0.0226
3297.00,0.0225
3296.00,0.0224
3295.00,0.0223
3294.00,0.0223
3293.00,0.0222
3292.00,0.0222
3291.00,0.0223
3290.00,0.0223
3289.00,0.0224
3288.00,0.0223
3287.00,0.0223
3286.00,0.0222
3285.00,0.0221
3284.00,0.0221
3283.00,0.0220
3282.00,0.0220
3281.00,0.0219
3280.00,0.0218
3279.00,0.0217
3278.00,0.0216
3277.00,0.0215
3276.00,0.0214
3275.00,0.0213
3274.00,0.0212
3273.00,0.0211
3272.00,0.0210
3271.00,0.0209
3270.00,0.0209
3269.00,0.0209
3268.00,0.0209
3267.00,0.0209
3266.00,0.0208
3265.00,0.0207
3264.00,0.0206
3263.00,0.0205
3262.00,0.0205
3261.00,0.0204
3260.00,0.0203
3259.00,0.0201
3258.00,0.0200
3257.00,0.0199
3256.00,0.0198
3255.00,0.0197
3254.00,0.0197
3253.00,0.0196
3252.00,0.0195
3251.00,0.0194
3250.00,0.0193
3249.00,0.0192
3248.00,0.0191
3247.00,0.0190
3246.00,0.0189
3245.00,0.0188
3244.00,0.0187
3243.00,0.0187
3242.00,0.0186
3241.00,0.0185
3240.00,0.0183
3239.00,0.0182
3238.00,0.0181
3237.00,0.0180
3236.00,0.0179
3235.00,0.0178
3234.00,0.0177
3233.00,0.0176
3232.00,0.0175
3231.00,0.0174
3230.00,0.0173
3229.00,0.0173
3228.00,0.0172
3227.00,0.0171
3226.00,0.0170
3225.00,0.0169
3224.00,0.0168
3223.00,0.0167
3222.00,0.0166
3221.00,0.0164
3220.00,0.0163
3219.00,0.0162
3218.00,0.0161
3217.00,0.0160
3216.00,0.0159
3215.00,0.0158
3214.00,0.0157
3213.00,0.0157
3212.00,0.0156
3211.00,0.0155
3210.00,0.0154
3209.00,0.0153
3208.00,0.0152
3207.00,0.0151
3206.00,0.0149
3205.00,0.0148
3204.00,0.0147
3203.00,0.0146
3202.00,0.0145
3201.00,0.0144
3200.00,0.0143
3199.00,0.0143
3198.00,0.0142
3197.00,0.0141
3196.00,0.0140
3195.00,0.0139
3194.00,0.0138
3193.00,0.0137
3192.00,0.0136
3191.00,0.0135
3190.00,0.0134
3189.00,0.0133
3188.00,0.0132
3187.00,0.0131
3186.00,0.0130
3185.00,0.0129
3184.00,0.0128
3183.00,0.0128
3182.00,0.0127
3181.00,0.0126
3180.00,0.0125
3179.00,0.0124
3178.00,0.0123
3177.00,0.0122
3176.00,0.0121
3175.00,0.0120
3174.00,0.0120
3173.00,0.0119
3172.00,0.0118
3171.00,0.0117
3170.00,0.0117
3169.00,0.0116
3168.00,0.0115
3167.00,0.0115
3166.00,0.0114
3165.00,0.0113
3164.00,0.0112
3163.00,0.0112
3162.00,0.0111
3161.00,0.0111
3160.00,0.0110
3159.00,0.0109
3158.00,0.0108
3157.00,0.0107
3156.00,0.0107
3155.00,0.0106
3154.00,0.0106
3153.00,0.0105
3152.00,0.0104
3151.00,0.0103
3150.00,0.0103
3149.00,0.0102
3148.00,0.0101
3147.00,0.0101
3146.00,0.0100
3145.00,0.0100
3144.00,0.0099
3143.00,0.0098
3142.00,0.0097
3141.00,0.0096
3140.00,0.0096
3139.00,0.0095
3138.00,0.0095
3137.00,0.0094
3136.00,0.0094
3135.00,0.0093
3134.00,0.0093
3133.00,0.0092
3132.00,0.0092
3131.00,0.0091
3130.00,0.0091
3129.00,0.0091
3128.00,0.0090
3127.00,0.0090
3126.00,0.0089
3125.00,0.0088
3124.00,0.0088
3123.00,0.0087
3122.00,0.0086
3121.00,0.0086
3120.00,0.0086
3119.00,0.0085
3118.00,0.0085
3117.00,0.0085
3116.00,0.0084
3115.00,0.0084
3114.00,0.0083
3113.00,0.0083
3112.00,0.0083
3111.00,0.0082
3110.00,0.0082
3109.00,0.0082
3108.00,0.0081
3107.00,0.0080
3106.00,0.0080
3105.00,0.0079
3104.00,0.0079
3103.00,0.0078
3102.00,0.0078
3101.00,0.0078
3100.00,0.0077
3099.00,0.0077
3098.00,0.0076
3097.00,0.0076
3096.00,0.0075
3095.00,0.0074
3094.00,0.0074
3093.00,0.0074
3092.00,0.0074
3091.00,0.0074
3090.00,0.0073
3089.00,0.0073
3088.00,0.0072
3087.00,0.0072
3086.00,0.0071
3085.00,0.0071
3084.00,0.0070
3083.00,0.0070
3082.00,0.0070
3081.00,0.0070
3080.00,0.0070
3079.00,0.0069
3078.00,0.0069
3077.00,0.0069
3076.00,0.0068
3075.00,0.0068
3074.00,0.0068
3073.00,0.0068
3072.00,0.0067
3071.00,0.0067
3070.00,0.0067
3069.00,0.0066
3068.00,0.0066
3067.00,0.0066
3066.00,0.0066
3065.00,0.0065
3064.00,0.0065
3063.00,0.0065
3062.00,0.0064
3061.00,0.0064
3060.00,0.0064
3059.00,0.0063
3058.00,0.0063
3057.00,0.0063
3056.00,0.0062
3055.00,0.0062
3054.00,0.0062
3053.00,0.0062
3052.00,0.0062
3051.00,0.0062
3050.00,0.0061
3049.00,0.0061
3048.00,0.0061
3047.00,0.0061
3046.00,0.0061
3045.00,0.0061
3044.00,0.0061
3043.00,0.0061
3042.00,0.0061
3041.00,0.0061
3040.00,0.0061
3039.00,0.0061
3038.00,0.0060
3037.00,0.0060
3036.00,0.0060
3035.00,0.0060
3034.00,0.0060
3033.00,0.0060
3032.00,0.0060
3031.00,0.0060
3030.00,0.0061
3029.00,0.0061
3028.00,0.0061
3027.00,0.0062
3026.00,0.0062
3025.00,0.0062
3024.00,0.0063
3023.00,0.0064
3022.00,0.0065
3021.00,0.0065
3020.00,0.0066
3019.00,0.0067
3018.00,0.0067
3017.00,0.0069
3016.00,0.0070
3015.00,0.0072
3014.00,0.0073
3013.00,0.0075
3012.00,0.0077
3011.00,0.0080
3010.00,0.0082
3009.00,0.0084
3008.00,0.0087
3007.00,0.0090
3006.00,0.0093
3005.00,0.0097
3004.00,0.0100
3003.00,0.0104
3002.00,0.0108
3001.00,0.0112
3000.00,0.0116
2999.00,0.0120
2998.00,0.0125
2997.00,0.0129
2996.00,0.0134
2995.00,0.0138
2994.00,0.0143
2993.00,0.0148
2992.00,0.0152
2991.00,0.0157
2990.00,0.0162
2989.00,0.0167
2988.00,0.0171
2987.00,0.0176
2986.00,0.0180
2985.00,0.0185
2984.00,0.0189
2983.00,0.0193
2982.00,0.0197
2981.00,0.0201
2980.00,0.0204
2979.00,0.0206
2978.00,0.0209
2977.00,0.0211
2976.00,0.0214
2975.00,0.0218
2974.00,0.0221
2973.00,0.0225
2972.00,0.0229
2971.00,0.0232
2970.00,0.0236
2969.00,0.0239
2968.00,0.0243
2967.00,0.0246
2966.00,0.0250
2965.00,0.0254
2964.00,0.0257
2963.00,0.0261
2962.00,0.0264
2961.00,0.0267
2960.00,0.0270
2959.00,0.0272
2958.00,0.0274
2957.00,0.0276
2956.00,0.0277
2955.00,0.0278
2954.00,0.0279
2953.00,0.0279
2952.00,0.0279
2951.00,0.0278
2950.00,0.0277
2949.00,0.0276
2948.00,0.0274
2947.00,0.0272
2946.00,0.0270
2945.00,0.0268
2944.00,0.0266
2943.00,0.0264
2942.00,0.0262
2941.00,0.0261
2940.00,0.0259
2939.00,0.0259
2938.00,0.0259
2937.00,0.0259
2936.00,0.0259
2935.00,0.0260
2934.00,0.0261
2933.00,0.0262
2932.00,0.0264
2931.00,0.0265
2930.00,0.0267
2929.00,0.0268
2928.00,0.0269
2927.00,0.0271
2926.00,0.0271
2925.00,0.0272
2924.00,0.0272
2923.00,0.0272
2922.00,0.0272
2921.00,0.0271
2920.00,0.0269
2919.00,0.0267
2918.00,0.0264
2917.00,0.0260
2916.00,0.0257
2915.00,0.0253
2914.00,0.0249
2913.00,0.0245
2912.00,0.0240
2911.00,0.0236
2910.00,0.0232
2909.00,0.0229
2908.00,0.0225
2907.00,0.0223
2906.00,0.0220
2905.00,0.0218
2904.00,0.0217
2903.00,0.0215
2902.00,0.0215
2901.00,0.0214
2900.00,0.0214
2899.00,0.0214
2898.00,0.0214
2897.00,0.0215
2896.00,0.0215
2895.00,0.0215
2894.00,0.0215
2893.00,0.0215
2892.00,0.0215
2891.00,0.0215
2890.00,0.0215
2889.00,0.0215
2888.00,0.0214
2887.00,0.0214
2886.00,0.0213
2885.00,0.0212
2884.00,0.0212
2883.00,0.0211
2882.00,0.0211
2881.00,0.0210
2880.00,0.0209
2879.00,0.0208
2878.00,0.0207
2877.00,0.0206
2876.00,0.0205
2875.00,0.0203
2874.00,0.0202
2873.00,0.0201
2872.00,0.0199
2871.00,0.0198
2870.00,0.0197
2869.00,0.0195
2868.00,0.0194
2867.00,0.0192
2866.00,0.0190
2865.00,0.0189
2864.00,0.0187
2863.00,0.0185
2862.00,0.0184
2861.00,0.0182
2860.00,0.0180
2859.00,0.0178
2858.00,0.0176
2857.00,0.0173
2856.00,0.0171
2855.00,0.0168
2854.00,0.0164
2853.00,0.0160
2852.00,0.0156
2851.00,0.0151
2850.00,0.0146
2849.00,0.0141
2848.00,0.0136
2847.00,0.0132
2846.00,0.0127
2845.00,0.0123
2844.00,0.0119
2843.00,0.0115
2842.00,0.0111
2841.00,0.0107
2840.00,0.0104
2839.00,0.0101
2838.00,0.0099
2837.00,0.0096
2836.00,0.0094
2835.00,0.0092
2834.00,0.0091
2833.00,0.0089
2832.00,0.0087
2831.00,0.0085
2830.00,0.0083
2829.00,0.0081
2828.00,0.0079
2827.00,0.0077
2826.00,0.0075
2825.00,0.0073
2824.00,0.0071
2823.00,0.0069
2822.00,0.0067
2821.00,0.0065
2820.00,0.0064
2819.00,0.0062
2818.00,0.0061
2817.00,0.0060
2816.00,0.0059
2815.00,0.0058
2814.00,0.0057
2813.00,0.0056
2812.00,0.0055
2811.00,0.0054
2810.00,0.0053
2809.00,0.0052
2808.00,0.0052
2807.00,0.0051
2806.00,0.0051
2805.00,0.0050
2804.00,0.0050
2803.00,0.0049
2802.00,0.0049
2801.00,0.0049
2800.00,0.0048
2799.00,0.0048
2798.00,0.0047
2797.00,0.0046
2796.00,0.0046
2795.00,0.0046
2794.00,0.0045
2793.00,0.0045
2792.00,0.0045
2791.00,0.0044
2790.00,0.0044
2789.00,0.0044
2788.00,0.0044
2787.00,0.0043
2786.00,0.0043
2785.00,0.0043
2784.00,0.0043
2783.00,0.0042
2782.00,0.0042
2781.00,0.0042
2780.00,0.0041
2779.00,0.0041
2778.00,0.0041
2777.00,0.0041
2776.00,0.0040
2775.00,0.0040
2774.00,0.0040
2773.00,0.0040
2772.00,0.0040
2771.00,0.0039
2770.00,0.0039
2769.00,0.0039
2768.00,0.0039
2767.00,0.0038
2766.00,0.0038
2765.00,0.0038
2764.00,0.0038
2763.00,0.0038
2762.00,0.0038
2761.00,0.0037
2760.00,0.0037
2759.00,0.0037
2758.00,0.0037
2757.00,0.0037
2756.00,0.0037
2755.00,0.0037
2754.00,0.0037
2753.00,0.0037
2752.00,0.0037
2751.00,0.0037
2750.00,0.0037
2749.00,0.0037
2748.00,0.0037
2747.00,0.0037
2746.00,0.0037
2745.00,0.0037
2744.00,0.0037
2743.00,0.0037
2742.00,0.0037
2741.00,0.0037
2740.00,0.0037
2739.00,0.0037
2738.00,0.0037
2737.00,0.0037
2736.00,0.0037
2735.00,0.0037
2734.00,0.0037
2733.00,0.0037
2732.00,0.0036
2731.00,0.0036
2730.00,0.0036
2729.00,0.0036
2728.00,0.0036
2727.00,0.0036
2726.00,0.0036
2725.00,0.0036
2724.00,0.0036
2723.00,0.0036
2722.00,0.0035
2721.00,0.0035
2720.00,0.0035
2719.00,0.0035
2718.00,0.0035
2717.00,0.0035
2716.00,0.0035
2715.00,0.0034
2714.00,0.0034
2713.00,0.0034
2712.00,0.0034
2711.00,0.0034
2710.00,0.0034
2709.00,0.0034
2708.00,0.0033
2707.00,0.0033
2706.00,0.0033
2705.00,0.0033
2704.00,0.0033
2703.00,0.0033
2702.00,0.0033
2701.00,0.0033
2700.00,0.0033
2699.00,0.0033
2698.00,0.0033
2697.00,0.0033
2696.00,0.0033
2695.00,0.0032
2694.00,0.0032
2693.00,0.0032
2692.00,0.0032
2691.00,0.0032
2690.00,0.0032
2689.00,0.0032
2688.00,0.0032
2687.00,0.0032
2686.00,0.0032
2685.00,0.0032
2684.00,0.0031
2683.00,0.0031
2682.00,0.0031
2681.00,0.0031
2680.00,0.0031
2679.00,0.0031
2678.00,0.0031
2677.00,0.0031
2676.00,0.0031
2675.00,0.0031
2674.00,0.0031
2673.00,0.0031
2672.00,0.0031
2671.00,0.0031
2670.00,0.0031
2669.00,0.0031
2668.00,0.0031
2667.00,0.0032
2666.00,0.0033
2665.00,0.0033
2664.00,0.0034
2663.00,0.0034
2662.00,0.0035
2661.00,0.0035
2660.00,0.0036
2659.00,0.0036
2658.00,0.0036
2657.00,0.0036
2656.00,0.0036
2655.00,0.0036
2654.00,0.0036
2653.00,0.0036
2652.00,0.0036
2651.00,0.0036
2650.00,0.0036
2649.00,0.0036
2648.00,0.0036
2647.00,0.0036
2646.00,0.0036
2645.00,0.0036
2644.00,0.0036
2643.00,0.0036
2642.00,0.0036
2641.00,0.0035
2640.00,0.0035
2639.00,0.0035
2638.00,0.0035
2637.00,0.0035
2636.00,0.0035
2635.00,0.0035
2634.00,0.0035
2633.00,0.0035
2632.00,0.0035
2631.00,0.0035
2630.00,0.0034
2629.00,0.0034
2628.00,0.0034
2627.00,0.0034
2626.00,0.0034
2625.00,0.0034
2624.00,0.0034
2623.00,0.0033
2622.00,0.0033
2621.00,0.0033
2620.00,0.0033
2619.00,0.0033
2618.00,0.0033
2617.00,0.0033
2616.00,0.0033
2615.00,0.0033
2614.00,0.0033
2613.00,0.0032
2612.00,0.0032
2611.00,0.0032
2610.00,0.0032
2609.00,0.0031
2608.00,0.0031
2607.00,0.0031
2606.00,0.0031
2605.00,0.0031
2604.00,0.0031
2603.00,0.0031
2602.00,0.0031
2601.00,0.0032
2600.00,0.0032
2599.00,0.0031
2598.00,0.0031
2597.00,0.0031
2596.00,0.0030
2595.00,0.0030
2594.00,0.0031
2593.00,0.0031
2592.00,0.0031
2591.00,0.0031
2590.00,0.0031
2589.00,0.0031
2588.00,0.0031
2587.00,0.0031
2586.00,0.0031
2585.00,0.0031
2584.00,0.0030
2583.00,0.0030
2582.00,0.0030
2581.00,0.0030
2580.00,0.0030
2579.00,0.0030
2578.00,0.0030
2577.00,0.0030
2576.00,0.0030
2575.00,0.0030
2574.00,0.0030
2573.00,0.0030
2572.00,0.0030
2571.00,0.0030
2570.00,0.0030
2569.00,0.0030
2568.00,0.0029
2567.00,0.0029
2566.00,0.0029
2565.00,0.0029
2564.00,0.0029
2563.00,0.0029
2562.00,0.0029
2561.00,0.0029
2560.00,0.0029
2559.00,0.0029
2558.00,0.0028
2557.00,0.0028
2556.00,0.0028
2555.00,0.0028
2554.00,0.0028
2553.00,0.0028
2552.00,0.0028
2551.00,0.0028
2550.00,0.0027
2549.00,0.0027
2548.00,0.0027
2547.00,0.0027
2546.00,0.0027
2545.00,0.0027
2544.00,0.0027
2543.00,0.0027
2542.00,0.0027
2541.00,0.0027
2540.00,0.0027
2539.00,0.0027
2538.00,0.0027
2537.00,0.0026
2536.00,0.0026
2535.00,0.0026
2534.00,0.0026
2533.00,0.0026
2532.00,0.0026
2531.00,0.0026
2530.00,0.0026
2529.00,0.0025
2528.00,0.0025
2527.00,0.0025
2526.00,0.0025
2525.00,0.0025
2524.00,0.0025
2523.00,0.0025
2522.00,0.0025
2521.00,0.0024
2520.00,0.0024
2519.00,0.0024
2518.00,0.0024
2517.00,0.0024
2516.00,0.0025
2515.00,0.0024
2514.00,0.0024
2513.00,0.0023
2512.00,0.0023
2511.00,0.0023
2510.00,0.0023
2509.00,0.0023
2508.00,0.0023
2507.00,0.0023
2506.00,0.0023
2505.00,0.0023
2504.00,0.0023
2503.00,0.0023
2502.00,0.0024
2501.00,0.0024
2500.00,0.0024
2499.00,0.0024
2498.00,0.0024
2497.00,0.0024
2496.00,0.0024
2495.00,0.0024
2494.00,0.0024
2493.00,0.0023
2492.00,0.0023
2491.00,0.0023
2490.00,0.0023
2489.00,0.0023
2488.00,0.0023
2487.00,0.0023
2486.00,0.0023
2485.00,0.0023
2484.00,0.0023
2483.00,0.0023
2482.00,0.0023
2481.00,0.0023
2480.00,0.0023
2479.00,0.0022
2478.00,0.0022
2477.00,0.0022
2476.00,0.0022
2475.00,0.0022
2474.00,0.0023
2473.00,0.0023
2472.00,0.0023
2471.00,0.0023
2470.00,0.0023
2469.00,0.0023
2468.00,0.0023
2467.00,0.0023
2466.00,0.0023
2465.00,0.0023
2464.00,0.0023
2463.00,0.0023
2462.00,0.0024
2461.00,0.0024
2460.00,0.0024
2459.00,0.0025
2458.00,0.0025
2457.00,0.0025
2456.00,0.0025
2455.00,0.0024
2454.00,0.0024
2453.00,0.0024
2452.00,0.0024
2451.00,0.0024
2450.00,0.0024
2449.00,0.0024
2448.00,0.0024
2447.00,0.0024
2446.00,0.0023
2445.00,0.0023
2444.00,0.0023
2443.00,0.0023
2442.00,0.0023
2441.00,0.0023
2440.00,0.0023
2439.00,0.0023
2438.00,0.0023
2437.00,0.0023
2436.00,0.0023
2435.00,0.0023
2434.00,0.0023
2433.00,0.0022
2432.00,0.0023
2431.00,0.0023
2430.00,0.0023
2429.00,0.0023
2428.00,0.0023
2427.00,0.0023
2426.00,0.0023
2425.00,0.0023
2424.00,0.0023
2423.00,0.0023
2422.00,0.0023
2421.00,0.0023
2420.00,0.0023
2419.00,0.0023
2418.00,0.0023
2417.00,0.0023
2416.00,0.0023
2415.00,0.0023
2414.00,0.0023
2413.00,0.0023
2412.00,0.0023
2411.00,0.0023
2410.00,0.0023
2409.00,0.0023
2408.00,0.0022
2407.00,0.0022
2406.00,0.0022
2405.00,0.0022
2404.00,0.0022
2403.00,0.0022
2402.00,0.0022
2401.00,0.0022
2400.00,0.0022
2399.00,0.0022
2398.00,0.0022
2397.00,0.0022
2396.00,0.0022
2395.00,0.0022
2394.00,0.0021
2393.00,0.0021
2392.00,0.0021
2391.00,0.0021
2390.00,0.0021
2389.00,0.0021
2388.00,0.0021
2387.00,0.0020
2386.00,0.0020
2385.00,0.0019
2384.00,0.0018
2383.00,0.0018
2382.00,0.0017
2381.00,0.0017
2380.00,0.0017
2379.00,0.0018
2378.00,0.0018
2377.00,0.0018
2376.00,0.0018
2375.00,0.0018
2374.00,0.0018
2373.00,0.0018
2372.00,0.0018
2371.00,0.0017
2370.00,0.0017
2369.00,0.0017
2368.00,0.0017
2367.00,0.0017
2366.00,0.0017
2365.00,0.0018
2364.00,0.0019
2363.00,0.0019
2362.00,0.0020
2361.00,0.0019
2360.00,0.0019
2359.00,0.0019
2358.00,0.0018
2357.00,0.0018
2356.00,0.0019
2355.00,0.0020
2354.00,0.0020
2353.00,0.0020
2352.00,0.0019
2351.00,0.0019
2350.00,0.0019
2349.00,0.0021
2348.00,0.0023
2347.00,0.0025
2346.00,0.0026
2345.00,0.0026
2344.00,0.0025
2343.00,0.0024
2342.00,0.0024
2341.00,0.0024
2340.00,0.0025
2339.00,0.0025
2338.00,0.0025
2337.00,0.0025
2336.00,0.0024
2335.00,0.0024
2334.00,0.0024
2333.00,0.0024
2332.00,0.0025
2331.00,0.0025
2330.00,0.0025
2329.00,0.0027
2328.00,0.0031
2327.00,0.0036
2326.00,0.0040
2325.00,0.0041
2324.00,0.0040
2323.00,0.0037
2322.00,0.0035
2321.00,0.0033
2320.00,0.0032
2319.00,0.0031
2318.00,0.0030
2317.00,0.0030
2316.00,0.0030
2315.00,0.0030
2314.00,0.0029
2313.00,0.0029
2312.00,0.0028
2311.00,0.0028
2310.00,0.0028
2309.00,0.0027
2308.00,0.0027
2307.00,0.0028
2306.00,0.0028
2305.00,0.0028
2304.00,0.0028
2303.00,0.0028
2302.00,0.0028
2301.00,0.0028
2300.00,0.0029
2299.00,0.0030
2298.00,0.0031
2297.00,0.0032
2296.00,0.0032
2295.00,0.0033
2294.00,0.0034
2293.00,0.0035
2292.00,0.0036
2291.00,0.0038
2290.00,0.0039
2289.00,0.0039
2288.00,0.0040
2287.00,0.0040
2286.00,0.0040
2285.00,0.0039
2284.00,0.0038
2283.00,0.0037
2282.00,0.0036
2281.00,0.0035
2280.00,0.0035
2279.00,0.0035
2278.00,0.0034
2277.00,0.0034
2276.00,0.0034
2275.00,0.0034
2274.00,0.0034
2273.00,0.0034
2272.00,0.0034
2271.00,0.0034
2270.00,0.0033
2269.00,0.0033
2268.00,0.0032
2267.00,0.0032
2266.00,0.0031
2265.00,0.0031
2264.00,0.0031
2263.00,0.0031
2262.00,0.0032
2261.00,0.0033
2260.00,0.0034
2259.00,0.0034
2258.00,0.0034
2257.00,0.0032
2256.00,0.0030
2255.00,0.0029
2254.00,0.0028
2253.00,0.0028
2252.00,0.0029
2251.00,0.0029
2250.00,0.0029
2249.00,0.0030
2248.00,0.0030
2247.00,0.0030
2246.00,0.0030
2245.00,0.0031
2244.00,0.0031
2243.00,0.0031
2242.00,0.0031
2241.00,0.0030
2240.00,0.0029
2239.00,0.0029
2238.00,0.0029
2237.00,0.0029
2236.00,0.0030
2235.00,0.0030
2234.00,0.0030
2233.00,0.0030
2232.00,0.0030
2231.00,0.0030
2230.00,0.0030
2229.00,0.0030
2228.00,0.0031
2227.00,0.0031
2226.00,0.0031
2225.00,0.0031
2224.00,0.0032
2223.00,0.0032
2222.00,0.0031
2221.00,0.0031
2220.00,0.0031
2219.00,0.0031
2218.00,0.0030
2217.00,0.0030
2216.00,0.0030
2215.00,0.0029
2214.00,0.0029
2213.00,0.0029
2212.00,0.0029
2211.00,0.0030
2210.00,0.0031
2209.00,0.0031
2208.00,0.0032
2207.00,0.0031
2206.00,0.0031
2205.00,0.0031
2204.00,0.0032
2203.00,0.0033
2202.00,0.0034
2201.00,0.0034
2200.00,0.0035
2199.00,0.0036
2198.00,0.0036
2197.00,0.0037
2196.00,0.0038
2195.00,0.0039
2194.00,0.0038
2193.00,0.0036
2192.00,0.0035
2191.00,0.0034
2190.00,0.0034
2189.00,0.0035
2188.00,0.0036
2187.00,0.0038
2186.00,0.0037
2185.00,0.0035
2184.00,0.0032
2183.00,0.0028
2182.00,0.0026
2181.00,0.0026
2180.00,0.0029
2179.00,0.0031
2178.00,0.0030
2177.00,0.0028
2176.00,0.0027
2175.00,0.0027
2174.00,0.0028
2173.00,0.0031
2172.00,0.0034
2171.00,0.0038
2170.00,0.0041
2169.00,0.0043
2168.00,0.0044
2167.00,0.0044
2166.00,0.0045
2165.00,0.0047
2164.00,0.0052
2163.00,0.0053
2162.00,0.0047
2161.00,0.0033
2160.00,0.0015
2159.00,0.0000
2158.00,-0.0006
2157.00,-0.0006
2156.00,-0.0002
2155.00,0.0003
2154.00,0.0006
2153.00,0.0009
2152.00,0.0010
2151.00,0.0010
2150.00,0.0009
2149.00,0.0009
2148.00,0.0010
2147.00,0.0012
2146.00,0.0012
2145.00,0.0011
2144.00,0.0011
2143.00,0.0012
2142.00,0.0013
2141.00,0.0014
2140.00,0.0014
2139.00,0.0014
2138.00,0.0013
2137.00,0.0011
2136.00,0.0009
2135.00,0.0008
2134.00,0.0007
2133.00,0.0008
2132.00,0.0010
2131.00,0.0012
2130.00,0.0014
2129.00,0.0016
2128.00,0.0018
2127.00,0.0019
2126.00,0.0021
2125.00,0.0022
2124.00,0.0024
2123.00,0.0025
2122.00,0.0026
2121.00,0.0027
2120.00,0.0028
2119.00,0.0029
2118.00,0.0030
2117.00,0.0031
2116.00,0.0032
2115.00,0.0032
2114.00,0.0032
2113.00,0.0031
2112.00,0.0032
2111.00,0.0032
2110.00,0.0031
2109.00,0.0031
2108.00,0.0031
2107.00,0.0031
2106.00,0.0031
2105.00,0.0031
2104.00,0.0031
2103.00,0.0030
2102.00,0.0030
2101.00,0.0029
2100.00,0.0029
2099.00,0.0029
2098.00,0.0028
2097.00,0.0026
2096.00,0.0025
2095.00,0.0024
2094.00,0.0023
2093.00,0.0024
2092.00,0.0025
2091.00,0.0026
2090.00,0.0027
2089.00,0.0028
2088.00,0.0029
2087.00,0.0030
2086.00,0.0030
2085.00,0.0031
2084.00,0.0031
2083.00,0.0031
2082.00,0.0031
2081.00,0.0030
2080.00,0.0029
2079.00,0.0029
2078.00,0.0030
2077.00,0.0030
2076.00,0.0030
2075.00,0.0030
2074.00,0.0030
2073.00,0.0030
2072.00,0.0030
2071.00,0.0029
2070.00,0.0028
2069.00,0.0027
2068.00,0.0027
2067.00,0.0027
2066.00,0.0027
2065.00,0.0027
2064.00,0.0028
2063.00,0.0027
2062.00,0.0026
2061.00,0.0025
2060.00,0.0026
2059.00,0.0027
2058.00,0.0028
2057.00,0.0028
2056.00,0.0028
2055.00,0.0029
2054.00,0.0031
2053.00,0.0036
2052.00,0.0040
2051.00,0.0040
2050.00,0.0035
2049.00,0.0030
2048.00,0.0027
2047.00,0.0026
2046.00,0.0025
2045.00,0.0026
2044.00,0.0027
2043.00,0.0027
2042.00,0.0027
2041.00,0.0027
2040.00,0.0028
2039.00,0.0029
2038.00,0.0028
2037.00,0.0026
2036.00,0.0024
2035.00,0.0021
2034.00,0.0018
2033.00,0.0017
2032.00,0.0017
2031.00,0.0017
2030.00,0.0018
2029.00,0.0018
2028.00,0.0019
2027.00,0.0018
2026.00,0.0016
2025.00,0.0015
2024.00,0.0016
2023.00,0.0017
2022.00,0.0018
2021.00,0.0017
2020.00,0.0017
2019.00,0.0015
2018.00,0.0014
2017.00,0.0015
2016.00,0.0016
2015.00,0.0017
2014.00,0.0017
2013.00,0.0017
2012.00,0.0017
2011.00,0.0017
2010.00,0.0015
2009.00,0.0013
2008.00,0.0011
2007.00,0.0010
2006.00,0.0009
2005.00,0.0010
2004.00,0.0013
2003.00,0.0014
2002.00,0.0014
2001.00,0.0014
2000.00,0.0015
1999.00,0.0016
1998.00,0.0016
1997.00,0.0017
1996.00,0.0018
1995.00,0.0019
1994.00,0.0020
1993.00,0.0020
1992.00,0.0021
1991.00,0.0021
1990.00,0.0021
1989.00,0.0022
1988.00,0.0025
1987.00,0.0026
1986.00,0.0027
1985.00,0.0028
1984.00,0.0030
1983.00,0.0033
1982.00,0.0035
1981.00,0.0036
1980.00,0.0034
1979.00,0.0027
1978.00,0.0019
1977.00,0.0013
1976.00,0.0011
1975.00,0.0010
1974.00,0.0010
1973.00,0.0010
1972.00,0.0012
1971.00,0.0012
1970.00,0.0012
1969.00,0.0011
1968.00,0.0011
1967.00,0.0010
1966.00,0.0009
1965.00,0.0008
1964.00,0.0009
1963.00,0.0009
1962.00,0.0007
1961.00,0.0006
1960.00,0.0005
1959.00,0.0005
1958.00,0.0005
1957.00,0.0006
1956.00,0.0009
1955.00,0.0011
1954.00,0.0011
1953.00,0.0011
1952.00,0.0012
1951.00,0.0011
1950.00,0.0010
1949.00,0.0009
1948.00,0.0010
1947.00,0.0010
1946.00,0.0010
1945.00,0.0010
1944.00,0.0011
1943.00,0.0012
1942.00,0.0012
1941.00,0.0012
1940.00,0.0013
1939.00,0.0013
1938.00,0.0012
1937.00,0.0012
1936.00,0.0012
1935.00,0.0011
1934.00,0.0011
1933.00,0.0011
1932.00,0.0011
1931.00,0.0011
1930.00,0.0011
1929.00,0.0011
1928.00,0.0012
1927.00,0.0012
1926.00,0.0012
1925.00,0.0012
1924.00,0.0013
1923.00,0.0014
1922.00,0.0015
1921.00,0.0015
1920.00,0.0016
1919.00,0.0015
1918.00,0.0014
1917.00,0.0013
1916.00,0.0014
1915.00,0.0014
1914.00,0.0014
1913.00,0.0015
1912.00,0.0015
1911.00,0.0015
1910.00,0.0015
1909.00,0.0014
1908.00,0.0015
1907.00,0.0015
1906.00,0.0015
1905.00,0.0016
1904.00,0.0016
1903.00,0.0017
1902.00,0.0016
1901.00,0.0016
1900.00,0.0016
1899.00,0.0016
1898.00,0.0016
1897.00,0.0016
1896.00,0.0017
1895.00,0.0017
1894.00,0.0016
1893.00,0.0016
1892.00,0.0017
1891.00,0.0017
1890.00,0.0016
1889.00,0.0016
1888.00,0.0016
1887.00,0.0016
1886.00,0.0016
1885.00,0.0016
1884.00,0.0017
1883.00,0.0017
1882.00,0.0017
1881.00,0.0017
1880.00,0.0017
1879.00,0.0017
1878.00,0.0017
1877.00,0.0017
1876.00,0.0017
1875.00,0.0017
1874.00,0.0017
1873.00,0.0017
1872.00,0.0018
1871.00,0.0018
1870.00,0.0018
1869.00,0.0018
1868.00,0.0018
1867.00,0.0018
1866.00,0.0017
1865.00,0.0017
1864.00,0.0017
1863.00,0.0018
1862.00,0.0018
1861.00,0.0018
1860.00,0.0018
1859.00,0.0018
1858.00,0.0018
1857.00,0.0018
1856.00,0.0018
1855.00,0.0018
1854.00,0.0018
1853.00,0.0018
1852.00,0.0018
1851.00,0.0018
1850.00,0.0018
1849.00,0.0018
1848.00,0.0019
1847.00,0.0020
1846.00,0.0020
1845.00,0.0020
1844.00,0.0019
1843.00,0.0019
1842.00,0.0019
1841.00,0.0019
1840.00,0.0020
1839.00,0.0019
1838.00,0.0019
1837.00,0.0019
1836.00,0.0019
1835.00,0.0019
1834.00,0.0019
1833.00,0.0020
1832.00,0.0020
1831.00,0.0021
1830.00,0.0021
1829.00,0.0021
1828.00,0.0021
1827.00,0.0022
1826.00,0.0021
1825.00,0.0021
1824.00,0.0021
1823.00,0.0021
1822.00,0.0020
1821.00,0.0019
1820.00,0.0019
1819.00,0.0017
1818.00,0.0016
1817.00,0.0016
1816.00,0.0017
1815.00,0.0018
1814.00,0.0019
1813.00,0.0019
1812.00,0.0020
1811.00,0.0020
1810.00,0.0020
1809.00,0.0020
1808.00,0.0021
1807.00,0.0021
1806.00,0.0021
1805.00,0.0021
1804.00,0.0022
1803.00,0.0022
1802.00,0.0022
1801.00,0.0022
1800.00,0.0022
1799.00,0.0022
1798.00,0.0022
1797.00,0.0022
1796.00,0.0023
1795.00,0.0023
1794.00,0.0023
1793.00,0.0023
1792.00,0.0023
1791.00,0.0023
1790.00,0.0023
1789.00,0.0024
1788.00,0.0024
1787.00,0.0025
1786.00,0.0025
1785.00,0.0025
1784.00,0.0025
1783.00,0.0026
1782.00,0.0026
1781.00,0.0026
1780.00,0.0027
1779.00,0.0027
1778.00,0.0027
1777.00,0.0027
1776.00,0.0028
1775.00,0.0029
1774.00,0.0030
1773.00,0.0029
1772.00,0.0030
1771.00,0.0030
1770.00,0.0030
1769.00,0.0031
1768.00,0.0031
1767.00,0.0031
1766.00,0.0031
1765.00,0.0032
1764.00,0.0033
1763.00,0.0033
1762.00,0.0033
1761.00,0.0033
1760.00,0.0034
1759.00,0.0035
1758.00,0.0035
1757.00,0.0035
1756.00,0.0036
1755.00,0.0037
1754.00,0.0037
1753.00,0.0038
1752.00,0.0039
1751.00,0.0040
1750.00,0.0040
1749.00,0.0041
1748.00,0.0042
1747.00,0.0043
1746.00,0.0044
1745.00,0.0045
1744.00,0.0046
1743.00,0.0047
1742.00,0.0048
1741.00,0.0048
1740.00,0.0050
1739.00,0.0051
1738.00,0.0052
1737.00,0.0054
1736.00,0.0055
1735.00,0.0056
1734.00,0.0056
1733.00,0.0057
1732.00,0.0060
1731.00,0.0062
1730.00,0.0063
1729.00,0.0065
1728.00,0.0067
1727.00,0.0069
1726.00,0.0070
1725.00,0.0072
1724.00,0.0076
1723.00,0.0079
1722.00,0.0081
1721.00,0.0083
1720.00,0.0087
1719.00,0.0090
1718.00,0.0093
1717.00,0.0097
1716.00,0.0102
1715.00,0.0106
1714.00,0.0110
1713.00,0.0115
1712.00,0.0120
1711.00,0.0127
1710.00,0.0133
1709.00,0.0140
1708.00,0.0149
1707.00,0.0159
1706.00,0.0170
1705.00,0.0184
1704.00,0.0197
1703.00,0.0210
1702.00,0.0223
1701.00,0.0245
1700.00,0.0277
1699.00,0.0306
1698.00,0.0329
1697.00,0.0356
1696.00,0.0395
1695.00,0.0441
1694.00,0.0480
1693.00,0.0514
1692.00,0.0550
1691.00,0.0592
1690.00,0.0638
1689.00,0.0687
1688.00,0.0731
1687.00,0.0770
1686.00,0.0810
1685.00,0.0866
1684.00,0.0943
1683.00,0.1011
1682.00,0.1056
1681.00,0.1092
1680.00,0.1130
1679.00,0.1168
1678.00,0.1202
1677.00,0.1237
1676.00,0.1279
1675.00,0.1328
1674.00,0.1371
1673.00,0.1403
1672.00,0.1430
1671.00,0.1461
1670.00,0.1499
1669.00,0.1542
1668.00,0.1579
1667.00,0.1607
1666.00,0.1626
1665.00,0.1643
1664.00,0.1665
1663.00,0.1691
1662.00,0.1717
1661.00,0.1736
1660.00,0.1748
1659.00,0.1754
1658.00,0.1756
1657.00,0.1753
1656.00,0.1746
1655.00,0.1735
1654.00,0.1727
1653.00,0.1727
1652.00,0.1725
1651.00,0.1709
1650.00,0.1684
1649.00,0.1653
1648.00,0.1621
1647.00,0.1591
1646.00,0.1562
1645.00,0.1531
1644.00,0.1498
1643.00,0.1462
1642.00,0.1424
1641.00,0.1384
1640.00,0.1345
1639.00,0.1306
1638.00,0.1266
1637.00,0.1224
1636.00,0.1182
1635.00,0.1144
1634.00,0.1107
1633.00,0.1071
1632.00,0.1032
1631.00,0.0994
1630.00,0.0956
1629.00,0.0919
1628.00,0.0883
1627.00,0.0851
1626.00,0.0820
1625.00,0.0789
1624.00,0.0759
1623.00,0.0730
1622.00,0.0704
1621.00,0.0680
1620.00,0.0656
1619.00,0.0632
1618.00,0.0608
1617.00,0.0585
1616.00,0.0565
1615.00,0.0546
1614.00,0.0529
1613.00,0.0510
1612.00,0.0491
1611.00,0.0472
1610.00,0.0455
1609.00,0.0439
1608.00,0.0423
1607.00,0.0409
1606.00,0.0395
1605.00,0.0381
1604.00,0.0369
1603.00,0.0357
1602.00,0.0346
1601.00,0.0335
1600.00,0.0325
1599.00,0.0316
1598.00,0.0307
1597.00,0.0299
1596.00,0.0291
1595.00,0.0283
1594.00,0.0276
1593.00,0.0269
1592.00,0.0261
1591.00,0.0254
1590.00,0.0247
1589.00,0.0241
1588.00,0.0234
1587.00,0.0227
1586.00,0.0221
1585.00,0.0216
1584.00,0.0210
1583.00,0.0204
1582.00,0.0199
1581.00,0.0194
1580.00,0.0190
1579.00,0.0185
1578.00,0.0181
1577.00,0.0176
1576.00,0.0172
1575.00,0.0169
1574.00,0.0166
1573.00,0.0163
1572.00,0.0159
1571.00,0.0155
1570.00,0.0152
1569.00,0.0150
1568.00,0.0147
1567.00,0.0144
1566.00,0.0142
1565.00,0.0140
1564.00,0.0138
1563.00,0.0136
1562.00,0.0135
1561.00,0.0133
1560.00,0.0130
1559.00,0.0128
1558.00,0.0128
1557.00,0.0127
1556.00,0.0126
1555.00,0.0124
1554.00,0.0122
1553.00,0.0121
1552.00,0.0120
1551.00,0.0119
1550.00,0.0118
1549.00,0.0117
1548.00,0.0116
1547.00,0.0115
1546.00,0.0114
1545.00,0.0114
1544.00,0.0114
1543.00,0.0113
1542.00,0.0112
1541.00,0.0112
1540.00,0.0111
1539.00,0.0110
1538.00,0.0109
1537.00,0.0109
1536.00,0.0108
1535.00,0.0107
1534.00,0.0106
1533.00,0.0105
1532.00,0.0105
1531.00,0.0105
1530.00,0.0104
1529.00,0.0104
1528.00,0.0104
1527.00,0.0104
1526.00,0.0104
1525.00,0.0104
1524.00,0.0104
1523.00,0.0104
1522.00,0.0105
1521.00,0.0105
1520.00,0.0106
1519.00,0.0108
1518.00,0.0109
1517.00,0.0110
1516.00,0.0112
1515.00,0.0114
1514.00,0.0116
1513.00,0.0119
1512.00,0.0122
1511.00,0.0127
1510.00,0.0131
1509.00,0.0137
1508.00,0.0145
1507.00,0.0159
1506.00,0.0176
1505.00,0.0191
1504.00,0.0204
1503.00,0.0217
1502.00,0.0231
1501.00,0.0247
1500.00,0.0265
1499.00,0.0283
1498.00,0.0301
1497.00,0.0319
1496.00,0.0333
1495.00,0.0341
1494.00,0.0344
1493.00,0.0343
1492.00,0.0337
1491.00,0.0327
1490.00,0.0314
1489.00,0.0298
1488.00,0.0281
1487.00,0.0263
1486.00,0.0246
1485.00,0.0232
1484.00,0.0220
1483.00,0.0209
1482.00,0.0201
1481.00,0.0195
1480.00,0.0193
1479.00,0.0193
1478.00,0.0196
1477.00,0.0203
1476.00,0.0213
1475.00,0.0225
1474.00,0.0243
1473.00,0.0269
1472.00,0.0303
1471.00,0.0338
1470.00,0.0371
1469.00,0.0404
1468.00,0.0440
1467.00,0.0480
1466.00,0.0524
1465.00,0.0572
1464.00,0.0614
1463.00,0.0641
1462.00,0.0653
1461.00,0.0655
1460.00,0.0647
1459.00,0.0630
1458.00,0.0602
1457.00,0.0567
1456.00,0.0533
1455.00,0.0506
1454.00,0.0486
1453.00,0.0472
1452.00,0.0464
1451.00,0.0462
1450.00,0.0468
1449.00,0.0482
1448.00,0.0506
1447.00,0.0534
1446.00,0.0565
1445.00,0.0597
1444.00,0.0630
1443.00,0.0663
1442.00,0.0695
1441.00,0.0724
1440.00,0.0748
1439.00,0.0766
1438.00,0.0781
1437.00,0.0797
1436.00,0.0810
1435.00,0.0816
1434.00,0.0815
1433.00,0.0813
1432.00,0.0812
1431.00,0.0817
1430.00,0.0828
1429.00,0.0846
1428.00,0.0867
1427.00,0.0890
1426.00,0.0913
1425.00,0.0937
1424.00,0.0957
1423.00,0.0966
1422.00,0.0961
1421.00,0.0943
1420.00,0.0911
1419.00,0.0863
1418.00,0.0808
1417.00,0.0753
1416.00,0.0696
1415.00,0.0640
1414.00,0.0585
1413.00,0.0535
1412.00,0.0488
1411.00,0.0446
1410.00,0.0410
1409.00,0.0379
1408.00,0.0353
1407.00,0.0329
1406.00,0.0309
1405.00,0.0292
1404.00,0.0277
1403.00,0.0265
1402.00,0.0256
1401.00,0.0247
1400.00,0.0240
1399.00,0.0234
1398.00,0.0230
1397.00,0.0227
1396.00,0.0224
1395.00,0.0223
1394.00,0.0223
1393.00,0.0224
1392.00,0.0226
1391.00,0.0228
1390.00,0.0232
1389.00,0.0237
1388.00,0.0243
1387.00,0.0252
1386.00,0.0261
1385.00,0.0270
1384.00,0.0278
1383.00,0.0288
1382.00,0.0298
1381.00,0.0308
1380.00,0.0318
1379.00,0.0328
1378.00,0.0336
1377.00,0.0343
1376.00,0.0349
1375.00,0.0353
1374.00,0.0356
1373.00,0.0356
1372.00,0.0354
1371.00,0.0350
1370.00,0.0345
1369.00,0.0338
1368.00,0.0329
1367.00,0.0320
1366.00,0.0310
1365.00,0.0299
1364.00,0.0288
1363.00,0.0276
1362.00,0.0264
1361.00,0.0254
1360.00,0.0244
1359.00,0.0236
1358.00,0.0229
1357.00,0.0222
1356.00,0.0217
1355.00,0.0211
1354.00,0.0207
1353.00,0.0203
1352.00,0.0200
1351.00,0.0197
1350.00,0.0194
1349.00,0.0192
1348.00,0.0190
1347.00,0.0188
1346.00,0.0187
1345.00,0.0186
1344.00,0.0185
1343.00,0.0185
1342.00,0.0186
1341.00,0.0187
1340.00,0.0189
1339.00,0.0191
1338.00,0.0194
1337.00,0.0198
1336.00,0.0201
1335.00,0.0206
1334.00,0.0211
1333.00,0.0218
1332.00,0.0225
1331.00,0.0234
1330.00,0.0244
1329.00,0.0256
1328.00,0.0268
1327.00,0.0282
1326.00,0.0297
1325.00,0.0312
1324.00,0.0328
1323.00,0.0344
1322.00,0.0359
1321.00,0.0373
1320.00,0.0384
1319.00,0.0394
1318.00,0.0400
1317.00,0.0403
1316.00,0.0402
1315.00,0.0398
1314.00,0.0393
1313.00,0.0385
1312.00,0.0377
1311.00,0.0368
1310.00,0.0361
1309.00,0.0355
1308.00,0.0352
1307.00,0.0351
1306.00,0.0354
1305.00,0.0361
1304.00,0.0373
1303.00,0.0389
1302.00,0.0411
1301.00,0.0440
1300.00,0.0475
1299.00,0.0518
1298.00,0.0568
1297.00,0.0626
1296.00,0.0689
1295.00,0.0755
1294.00,0.0822
1293.00,0.0886
1292.00,0.0945
1291.00,0.0996
1290.00,0.1037
1289.00,0.1069
1288.00,0.1088
1287.00,0.1096
1286.00,0.1092
1285.00,0.1079
1284.00,0.1058
1283.00,0.1034
1282.00,0.1010
1281.00,0.0988
1280.00,0.0971
1279.00,0.0960
1278.00,0.0955
1277.00,0.0956
1276.00,0.0960
1275.00,0.0966
1274.00,0.0970
1273.00,0.0970
1272.00,0.0967
1271.00,0.0957
1270.00,0.0941
1269.00,0.0920
1268.00,0.0894
1267.00,0.0865
1266.00,0.0833
1265.00,0.0799
1264.00,0.0764
1263.00,0.0730
1262.00,0.0698
1261.00,0.0667
1260.00,0.0638
1259.00,0.0611
1258.00,0.0586
1257.00,0.0564
1256.00,0.0543
1255.00,0.0524
1254.00,0.0508
1253.00,0.0493
1252.00,0.0479
1251.00,0.0467
1250.00,0.0456
1249.00,0.0447
1248.00,0.0439
1247.00,0.0433
1246.00,0.0428
1245.00,0.0425
1244.00,0.0423
1243.00,0.0422
1242.00,0.0422
1241.00,0.0424
1240.00,0.0427
1239.00,0.0431
1238.00,0.0436
1237.00,0.0441
1236.00,0.0447
1235.00,0.0453
1234.00,0.0459
1233.00,0.0464
1232.00,0.0469
1231.00,0.0472
1230.00,0.0475
1229.00,0.0476
1228.00,0.0476
1227.00,0.0475
1226.00,0.0473
1225.00,0.0471
1224.00,0.0468
1223.00,0.0466
1222.00,0.0464
1221.00,0.0461
1220.00,0.0458
1219.00,0.0455
1218.00,0.0451
1217.00,0.0446
1216.00,0.0441
1215.00,0.0435
1214.00,0.0428
1213.00,0.0420
1212.00,0.0413
1211.00,0.0405
1210.00,0.0397
1209.00,0.0389
1208.00,0.0382
1207.00,0.0375
1206.00,0.0368
1205.00,0.0362
1204.00,0.0355
1203.00,0.0349
1202.00,0.0343
1201.00,0.0338
1200.00,0.0332
1199.00,0.0327
1198.00,0.0322
1197.00,0.0317
1196.00,0.0313
1195.00,0.0309
1194.00,0.0306
1193.00,0.0302
1192.00,0.0299
1191.00,0.0297
1190.00,0.0294
1189.00,0.0293
1188.00,0.0292
1187.00,0.0291
1186.00,0.0291
1185.00,0.0291
1184.00,0.0292
1183.00,0.0293
1182.00,0.0294
1181.00,0.0297
1180.00,0.0300
1179.00,0.0304
1178.00,0.0309
1177.00,0.0313
1176.00,0.0318
1175.00,0.0323
1174.00,0.0329
1173.00,0.0333
1172.00,0.0337
1171.00,0.0340
1170.00,0.0342
1169.00,0.0342
1168.00,0.0340
1167.00,0.0337
1166.00,0.0333
1165.00,0.0327
1164.00,0.0321
1163.00,0.0314
1162.00,0.0307
1161.00,0.0299
1160.00,0.0292
1159.00,0.0286
1158.00,0.0280
1157.00,0.0275
1156.00,0.0270
1155.00,0.0265
1154.00,0.0261
1153.00,0.0256
1152.00,0.0251
1151.00,0.0247
1150.00,0.0242
1149.00,0.0238
1148.00,0.0234
1147.00,0.0229
1146.00,0.0224
1145.00,0.0220
1144.00,0.0216
1143.00,0.0212
1142.00,0.0208
1141.00,0.0204
1140.00,0.0201
1139.00,0.0198
1138.00,0.0195
1137.00,0.0193
1136.00,0.0191
1135.00,0.0190
1134.00,0.0189
1133.00,0.0189
1132.00,0.0190
1131.00,0.0191
1130.00,0.0192
1129.00,0.0193
1128.00,0.0195
1127.00,0.0196
1126.00,0.0197
1125.00,0.0199
1124.00,0.0200
1123.00,0.0201
1122.00,0.0203
1121.00,0.0204
1120.00,0.0205
1119.00,0.0206
1118.00,0.0207
1117.00,0.0208
1116.00,0.0208
1115.00,0.0209
1114.00,0.0209
1113.00,0.0210
1112.00,0.0211
1111.00,0.0212
1110.00,0.0212
1109.00,0.0213
1108.00,0.0213
1107.00,0.0213
1106.00,0.0214
1105.00,0.0214
1104.00,0.0213
1103.00,0.0213
1102.00,0.0214
1101.00,0.0214
1100.00,0.0214
1099.00,0.0214
1098.00,0.0214
1097.00,0.0214
1096.00,0.0214
1095.00,0.0214
1094.00,0.0215
1093.00,0.0215
1092.00,0.0216
1091.00,0.0215
1090.00,0.0215
1089.00,0.0215
1088.00,0.0215
1087.00,0.0215
1086.00,0.0216
1085.00,0.0217
1084.00,0.0218
1083.00,0.0219
1082.00,0.0221
1081.00,0.0223
1080.00,0.0225
1079.00,0.0228
1078.00,0.0230
1077.00,0.0232
1076.00,0.0233
1075.00,0.0234
1074.00,0.0235
1073.00,0.0234
1072.00,0.0233
1071.00,0.0231
1070.00,0.0228
1069.00,0.0225
1068.00,0.0223
1067.00,0.0220
1066.00,0.0218
1065.00,0.0217
1064.00,0.0215
1063.00,0.0213
1062.00,0.0212
1061.00,0.0212
1060.00,0.0211
1059.00,0.0211
1058.00,0.0211
1057.00,0.0211
1056.00,0.0211
1055.00,0.0210
1054.00,0.0209
1053.00,0.0207
1052.00,0.0206
1051.00,0.0204
1050.00,0.0202
1049.00,0.0201
1048.00,0.0200
1047.00,0.0200
1046.00,0.0200
1045.00,0.0200
1044.00,0.0200
1043.00,0.0200
1042.00,0.0200
1041.00,0.0201
1040.00,0.0202
1039.00,0.0204
1038.00,0.0206
1037.00,0.0208
1036.00,0.0211
1035.00,0.0213
1034.00,0.0215
1033.00,0.0217
1032.00,0.0218
1031.00,0.0220
1030.00,0.0221
1029.00,0.0223
1028.00,0.0225
1027.00,0.0228
1026.00,0.0231
1025.00,0.0234
1024.00,0.0239
1023.00,0.0243
1022.00,0.0248
1021.00,0.0253
1020.00,0.0256
1019.00,0.0258
1018.00,0.0258
1017.00,0.0256
1016.00,0.0252
1015.00,0.0246
1014.00,0.0239
1013.00,0.0231
1012.00,0.0224
1011.00,0.0218
1010.00,0.0213
1009.00,0.0211
1008.00,0.0210
1007.00,0.0211
1006.00,0.0214
1005.00,0.0218
1004.00,0.0222
1003.00,0.0224
1002.00,0.0225
1001.00,0.0224
1000.00,0.0221
999.00,0.0217
998.00,0.0212
997.00,0.0208
996.00,0.0203
995.00,0.0198
994.00,0.0193
993.00,0.0189
992.00,0.0186
991.00,0.0182
990.00,0.0179
989.00,0.0176
988.00,0.0173
987.00,0.0171
986.00,0.0169
985.00,0.0168
984.00,0.0166
983.00,0.0164
982.00,0.0163
981.00,0.0161
980.00,0.0160
979.00,0.0159
978.00,0.0158
977.00,0.0156
976.00,0.0155
975.00,0.0154
974.00,0.0153
973.00,0.0152
972.00,0.0152
971.00,0.0151
970.00,0.0150
969.00,0.0149
968.00,0.0148
967.00,0.0147
966.00,0.0146
965.00,0.0145
964.00,0.0144
963.00,0.0143
962.00,0.0142
961.00,0.0142
960.00,0.0141
959.00,0.0141
958.00,0.0141
957.00,0.0140
956.00,0.0139
955.00,0.0138
954.00,0.0137
953.00,0.0137
952.00,0.0136
951.00,0.0136
950.00,0.0137
949.00,0.0137
948.00,0.0137
947.00,0.0138
946.00,0.0139
945.00,0.0141
944.00,0.0143
943.00,0.0145
942.00,0.0149
941.00,0.0153
940.00,0.0158
939.00,0.0164
938.00,0.0170
937.00,0.0176
936.00,0.0182
935.00,0.0185
934.00,0.0187
933.00,0.0186
932.00,0.0183
931.00,0.0179
930.00,0.0175
929.00,0.0171
928.00,0.0168
927.00,0.0165
926.00,0.0163
925.00,0.0162
924.00,0.0160
923.00,0.0157
922.00,0.0156
921.00,0.0154
920.00,0.0152
919.00,0.0151
918.00,0.0150
917.00,0.0149
916.00,0.0148
915.00,0.0147
914.00,0.0147
913.00,0.0147
912.00,0.0147
911.00,0.0146
910.00,0.0147
909.00,0.0148
908.00,0.0149
907.00,0.0151
906.00,0.0153
905.00,0.0155
904.00,0.0158
903.00,0.0162
902.00,0.0166
901.00,0.0169
900.00,0.0172
899.00,0.0175
898.00,0.0177
897.00,0.0180
896.00,0.0181
895.00,0.0182
894.00,0.0182
893.00,0.0180
892.00,0.0178
891.00,0.0176
890.00,0.0174
889.00,0.0172
888.00,0.0169
887.00,0.0167
886.00,0.0165
885.00,0.0163
884.00,0.0161
883.00,0.0159
882.00,0.0158
881.00,0.0157
880.00,0.0156
879.00,0.0156
878.00,0.0155
877.00,0.0155
876.00,0.0155
875.00,0.0155
874.00,0.0156
873.00,0.0157
872.00,0.0158
871.00,0.0159
870.00,0.0161
869.00,0.0162
868.00,0.0164
867.00,0.0167
866.00,0.0170
865.00,0.0173
864.00,0.0177
863.00,0.0182
862.00,0.0186
861.00,0.0192
860.00,0.0197
859.00,0.0204
858.00,0.0210
857.00,0.0217
856.00,0.0224
855.00,0.0232
854.00,0.0241
853.00,0.0249
852.00,0.0257
851.00,0.0264
850.00,0.0271
849.00,0.0277
848.00,0.0281
847.00,0.0285
846.00,0.0287
845.00,0.0289
844.00,0.0289
843.00,0.0288
842.00,0.0286
841.00,0.0284
840.00,0.0280
839.00,0.0277
838.00,0.0274
837.00,0.0270
836.00,0.0265
835.00,0.0260
834.00,0.0255
833.00,0.0250
832.00,0.0245
831.00,0.0240
830.00,0.0236
829.00,0.0232
828.00,0.0227
827.00,0.0222
826.00,0.0218
825.00,0.0214
824.00,0.0211
823.00,0.0208
822.00,0.0205
821.00,0.0203
820.00,0.0200
819.00,0.0198
818.00,0.0197
817.00,0.0195
816.00,0.0194
815.00,0.0193
814.00,0.0192
813.00,0.0192
812.00,0.0191
811.00,0.0190
810.00,0.0190
809.00,0.0190
808.00,0.0190
807.00,0.0190
806.00,0.0191
805.00,0.0191
804.00,0.0191
803.00,0.0191
802.00,0.0191
801.00,0.0192
800.00,0.0192
799.00,0.0193
798.00,0.0194
797.00,0.0195
796.00,0.0195
795.00,0.0196
794.00,0.0197
793.00,0.0199
792.00,0.0200
791.00,0.0201
790.00,0.0202
789.00,0.0203
788.00,0.0203
787.00,0.0204
786.00,0.0205
785.00,0.0207
784.00,0.0208
783.00,0.0209
782.00,0.0211
781.00,0.0212
780.00,0.0214
779.00,0.0216
778.00,0.0218
777.00,0.0220
776.00,0.0222
775.00,0.0224
774.00,0.0226
773.00,0.0229
772.00,0.0232
771.00,0.0235
770.00,0.0238
769.00,0.0241
768.00,0.0245
767.00,0.0249
766.00,0.0253
765.00,0.0257
764.00,0.0261
763.00,0.0266
762.00,0.0270
761.00,0.0275
760.00,0.0280
759.00,0.0285
758.00,0.0290
757.00,0.0296
756.00,0.0301
755.00,0.0307
754.00,0.0313
753.00,0.0319
752.00,0.0324
751.00,0.0329
750.00,0.0334
749.00,0.0340
748.00,0.0346
747.00,0.0352
746.00,0.0357
745.00,0.0363
744.00,0.0368
743.00,0.0374
742.00,0.0380
741.00,0.0386
740.00,0.0392
739.00,0.0397
738.00,0.0401
737.00,0.0405
736.00,0.0409
735.00,0.0411
734.00,0.0413
733.00,0.0412
732.00,0.0411
731.00,0.0407
730.00,0.0402
729.00,0.0396
728.00,0.0390
727.00,0.0384
726.00,0.0380
725.00,0.0375
724.00,0.0371
723.00,0.0367
722.00,0.0364
721.00,0.0361
720.00,0.0358
719.00,0.0356
718.00,0.0354
717.00,0.0353
716.00,0.0352
715.00,0.0352
714.00,0.0352
713.00,0.0352
712.00,0.0352
711.00,0.0352
710.00,0.0353
709.00,0.0354
708.00,0.0354
707.00,0.0356
706.00,0.0357
705.00,0.0359
704.00,0.0361
703.00,0.0363
702.00,0.0366
701.00,0.0368
700.00,0.0370
699.00,0.0372
698.00,0.0375
697.00,0.0378
696.00,0.0381
695.00,0.0384
694.00,0.0388
693.00,0.0391
692.00,0.0395
691.00,0.0398
690.00,0.0402
689.00,0.0406
688.00,0.0410
687.00,0.0415
686.00,0.0419
685.00,0.0425
684.00,0.0430
683.00,0.0434
682.00,0.0439
681.00,0.0443
680.00,0.0447
679.00,0.0452
678.00,0.0456
677.00,0.0460
676.00,0.0464
675.00,0.0468
674.00,0.0472
673.00,0.0477
672.00,0.0482
671.00,0.0486
670.00,0.0491
669.00,0.0498
668.00,0.0507
667.00,0.0517
666.00,0.0525
665.00,0.0531
664.00,0.0539
663.00,0.0547
662.00,0.0556
661.00,0.0565
660.00,0.0575
659.00,0.0585
658.00,0.0595
657.00,0.0605
656.00,0.0616
655.00,0.0626
654.00,0.0636
653.00,0.0644
652.00,0.0652
651.00,0.0659
650.00,0.0664
649.00,0.0668
648.00,0.0671
647.00,0.0672
646.00,0.0671
645.00,0.0670
644.00,0.0667
643.00,0.0663
642.00,0.0658
641.00,0.0652
640.00,0.0646
639.00,0.0640
638.00,0.0634
637.00,0.0629
636.00,0.0624
635.00,0.0619
634.00,0.0614
633.00,0.0609
632.00,0.0605
631.00,0.0602
630.00,0.0599
629.00,0.0597
628.00,0.0595
627.00,0.0593
626.00,0.0590
625.00,0.0587
624.00,0.0585
623.00,0.0583
622.00,0.0583
621.00,0.0583
620.00,0.0583
619.00,0.0583
618.00,0.0583
617.00,0.0583
616.00,0.0583
615.00,0.0583
614.00,0.0582
613.00,0.0582
612.00,0.0582
611.00,0.0582
610.00,0.0582
609.00,0.0584
608.00,0.0585
607.00,0.0587
606.00,0.0587
605.00,0.0588
604.00,0.0589
603.00,0.0590
602.00,0.0591
601.00,0.0593
600.00,0.0596
599.00,0.0600
598.00,0.0603
597.00,0.0607
596.00,0.0610
595.00,0.0612
594.00,0.0615
593.00,0.0618
592.00,0.0623
591.00,0.0629
590.00,0.0635
589.00,0.0642
588.00,0.0649
587.00,0.0657
586.00,0.0665
585.00,0.0673
584.00,0.0681
583.00,0.0689
582.00,0.0697
581.00,0.0706
580.00,0.0716
579.00,0.0724
578.00,0.0731
577.00,0.0737
576.00,0.0742
575.00,0.0747
574.00,0.0751
573.00,0.0753
572.00,0.0753
571.00,0.0752
570.00,0.0751
569.00,0.0748
568.00,0.0745
567.00,0.0743
566.00,0.0740
565.00,0.0738
564.00,0.0735
563.00,0.0731
562.00,0.0726
561.00,0.0722
560.00,0.0718
559.00,0.0715
558.00,0.0710
557.00,0.0707
556.00,0.0704
555.00,0.0702
554.00,0.0701
553.00,0.0699
552.00,0.0696
551.00,0.0692
550.00,0.0689
549.00,0.0686
548.00,0.0684
547.00,0.0683
546.00,0.0681
545.00,0.0679
544.00,0.0677
543.00,0.0674
542.00,0.0672
541.00,0.0670
540.00,0.0669
539.00,0.0668
538.00,0.0667
537.00,0.0666
536.00,0.0666
535.00,0.0666
534.00,0.0665
533.00,0.0664
532.00,0.0663
531.00,0.0662
530.00,0.0662
529.00,0.0662
528.00,0.0663
527.00,0.0665
526.00,0.0668
525.00,0.0670
524.00,0.0672
523.00,0.0672
522.00,0.0672
521.00,0.0672
520.00,0.0671
519.00,0.0670
518.00,0.0669
517.00,0.0669
516.00,0.0669
515.00,0.0669
514.00,0.0668
513.00,0.0668
512.00,0.0670
511.00,0.0671
510.00,0.0672
509.00,0.0671
508.00,0.0671
507.00,0.0671
506.00,0.0672
505.00,0.0673
504.00,0.0673
503.00,0.0672
502.00,0.0672
501.00,0.0672
500.00,0.0674
499.00,0.0675
498.00,0.0677
497.00,0.0679
496.00,0.0680
495.00,0.0680
494.00,0.0682
493.00,0.0684
492.00,0.0686
491.00,0.0687
490.00,0.0687
489.00,0.0686
488.00,0.0685
487.00,0.0685
486.00,0.0687
485.00,0.0689
484.00,0.0691
483.00,0.0691
482.00,0.0692
481.00,0.0694
480.00,0.0698
479.00,0.0702
478.00,0.0705
477.00,0.0706
476.00,0.0708
475.00,0.0710
474.00,0.0712
473.00,0.0711
472.00,0.0708
471.00,0.0704
470.00,0.0701
469.00,0.0700
468.00,0.0701
467.00,0.0701
466.00,0.0700
465.00,0.0699
464.00,0.0698
463.00,0.0697
462.00,0.0695
461.00,0.0692
460.00,0.0690
459.00,0.0688
458.00,0.0686
457.00,0.0684
456.00,0.0681
455.00,0.0679
454.00,0.0677
453.00,0.0677
452.00,0.0676
451.00,0.0674
450.00,0.0671
449.00,0.0669
448.00,0.0667
447.00,0.0663
446.00,0.0658
445.00,0.0653
444.00,0.0648
443.00,0.0644
442.00,0.0640
441.00,0.0637
440.00,0.0632
439.00,0.0627
438.00,0.0624
437.00,0.0624
436.00,0.0626
435.00,0.0625
434.00,0.0621
433.00,0.0616
432.00,0.0613
431.00,0.0611
430.00,0.0610
429.00,0.0607
428.00,0.0603
427.00,0.0600
426.00,0.0597
425.00,0.0595
424.00,0.0591
423.00,0.0586
422.00,0.0581
421.00,0.0581
420.00,0.0584
419.00,0.0586
418.00,0.0582
417.00,0.0576
416.00,0.0573
415.00,0.0575
414.00,0.0577
413.00,0.0573
412.00,0.0565
411.00,0.0557
410.00,0.0552
409.00,0.0554
408.00,0.0560
407.00,0.0570
406.00,0.0575
405.00,0.0572
404.00,0.0563
403.00,0.0556
402.00,0.0556
401.00,0.0561
400.00,0.0565
