Created as New Dataset,Sample 882 By YargerLab Date Wednesday, July 23 2025
cm-1,A
4000.00,0.0011
3999.00,0.0011
3998.00,0.0010
3997.00,0.0010
3996.00,0.0010
3995.00,0.0010
3994.00,0.0010
3993.00,0.0010
3992.00,0.0010
3991.00,0.0010
3990.00,0.0010
3989.00,0.0010
3988.00,0.0010
3987.00,0.0010
3986.00,0.0009
3985.00,0.0009
3984.00,0.0009
3983.00,0.0009
3982.00,0.0009
3981.00,0.0009
3980.00,0.0009
3979.00,0.0008
3978.00,0.0008
3977.00,0.0008
3976.00,0.0009
3975.00,0.0009
3974.00,0.0009
3973.00,0.0009
3972.00,0.0009
3971.00,0.0009
3970.00,0.0009
3969.00,0.0009
3968.00,0.0009
3967.00,0.0009
3966.00,0.0008
3965.00,0.0008
3964.00,0.0008
3963.00,0.0008
3962.00,0.0008
3961.00,0.0008
3960.00,0.0008
3959.00,0.0008
3958.00,0.0008
3957.00,0.0008
3956.00,0.0009
3955.00,0.0009
3954.00,0.0008
3953.00,0.0008
3952.00,0.0008
3951.00,0.0008
3950.00,0.0008
3949.00,0.0008
3948.00,0.0008
3947.00,0.0009
3946.00,0.0009
3945.00,0.0009
3944.00,0.0009
3943.00,0.0009
3942.00,0.0009
3941.00,0.0009
3940.00,0.0009
3939.00,0.0009
3938.00,0.0009
3937.00,0.0009
3936.00,0.0009
3935.00,0.0009
3934.00,0.0009
3933.00,0.0009
3932.00,0.0010
3931.00,0.0010
3930.00,0.0010
3929.00,0.0010
3928.00,0.0010
3927.00,0.0010
3926.00,0.0010
3925.00,0.0011
3924.00,0.0011
3923.00,0.0011
3922.00,0.0011
3921.00,0.0011
3920.00,0.0011
3919.00,0.0011
3918.00,0.0011
3917.00,0.0011
3916.00,0.0011
3915.00,0.0011
3914.00,0.0011
3913.00,0.0011
3912.00,0.0011
3911.00,0.0011
3910.00,0.0010
3909.00,0.0010
3908.00,0.0010
3907.00,0.0010
3906.00,0.0010
3905.00,0.0011
3904.00,0.0011
3903.00,0.0011
3902.00,0.0012
3901.00,0.0012
3900.00,0.0012
3899.00,0.0012
3898.00,0.0012
3897.00,0.0012
3896.00,0.0012
3895.00,0.0012
3894.00,0.0012
3893.00,0.0012
3892.00,0.0012
3891.00,0.0012
3890.00,0.0011
3889.00,0.0011
3888.00,0.0011
3887.00,0.0010
3886.00,0.0010
3885.00,0.0010
3884.00,0.0010
3883.00,0.0010
3882.00,0.0010
3881.00,0.0010
3880.00,0.0010
3879.00,0.0010
3878.00,0.0010
3877.00,0.0010
3876.00,0.0010
3875.00,0.0011
3874.00,0.0011
3873.00,0.0011
3872.00,0.0011
3871.00,0.0011
3870.00,0.0011
3869.00,0.0011
3868.00,0.0011
3867.00,0.0011
3866.00,0.0011
3865.00,0.0011
3864.00,0.0011
3863.00,0.0011
3862.00,0.0011
3861.00,0.0010
3860.00,0.0010
3859.00,0.0011
3858.00,0.0011
3857.00,0.0011
3856.00,0.0011
3855.00,0.0010
3854.00,0.0010
3853.00,0.0009
3852.00,0.0009
3851.00,0.0010
3850.00,0.0010
3849.00,0.0010
3848.00,0.0010
3847.00,0.0010
3846.00,0.0010
3845.00,0.0010
3844.00,0.0010
3843.00,0.0010
3842.00,0.0010
3841.00,0.0010
3840.00,0.0010
3839.00,0.0010
3838.00,0.0010
3837.00,0.0010
3836.00,0.0011
3835.00,0.0011
3834.00,0.0011
3833.00,0.0011
3832.00,0.0011
3831.00,0.0012
3830.00,0.0012
3829.00,0.0012
3828.00,0.0011
3827.00,0.0011
3826.00,0.0011
3825.00,0.0011
3824.00,0.0011
3823.00,0.0011
3822.00,0.0011
3821.00,0.0011
3820.00,0.0011
3819.00,0.0011
3818.00,0.0010
3817.00,0.0010
3816.00,0.0010
3815.00,0.0011
3814.00,0.0011
3813.00,0.0012
3812.00,0.0012
3811.00,0.0012
3810.00,0.0012
3809.00,0.0012
3808.00,0.0012
3807.00,0.0012
3806.00,0.0012
3805.00,0.0012
3804.00,0.0011
3803.00,0.0011
3802.00,0.0011
3801.00,0.0011
3800.00,0.0011
3799.00,0.0011
3798.00,0.0011
3797.00,0.0011
3796.00,0.0011
3795.00,0.0011
3794.00,0.0011
3793.00,0.0011
3792.00,0.0011
3791.00,0.0011
3790.00,0.0011
3789.00,0.0011
3788.00,0.0012
3787.00,0.0012
3786.00,0.0012
3785.00,0.0011
3784.00,0.0011
3783.00,0.0011
3782.00,0.0010
3781.00,0.0010
3780.00,0.0010
3779.00,0.0010
3778.00,0.0009
3777.00,0.0009
3776.00,0.0009
3775.00,0.0009
3774.00,0.0009
3773.00,0.0009
3772.00,0.0009
3771.00,0.0009
3770.00,0.0009
3769.00,0.0009
3768.00,0.0009
3767.00,0.0009
3766.00,0.0009
3765.00,0.0009
3764.00,0.0009
3763.00,0.0009
3762.00,0.0009
3761.00,0.0009
3760.00,0.0008
3759.00,0.0008
3758.00,0.0008
3757.00,0.0008
3756.00,0.0008
3755.00,0.0008
3754.00,0.0008
3753.00,0.0008
3752.00,0.0008
3751.00,0.0007
3750.00,0.0007
3749.00,0.0008
3748.00,0.0008
3747.00,0.0009
3746.00,0.0009
3745.00,0.0009
3744.00,0.0009
3743.00,0.0009
3742.00,0.0008
3741.00,0.0008
3740.00,0.0008
3739.00,0.0007
3738.00,0.0007
3737.00,0.0007
3736.00,0.0007
3735.00,0.0008
3734.00,0.0008
3733.00,0.0009
3732.00,0.0009
3731.00,0.0009
3730.00,0.0009
3729.00,0.0009
3728.00,0.0009
3727.00,0.0009
3726.00,0.0009
3725.00,0.0009
3724.00,0.0009
3723.00,0.0009
3722.00,0.0010
3721.00,0.0010
3720.00,0.0010
3719.00,0.0011
3718.00,0.0011
3717.00,0.0011
3716.00,0.0011
3715.00,0.0011
3714.00,0.0011
3713.00,0.0011
3712.00,0.0011
3711.00,0.0011
3710.00,0.0012
3709.00,0.0012
3708.00,0.0013
3707.00,0.0013
3706.00,0.0014
3705.00,0.0014
3704.00,0.0014
3703.00,0.0015
3702.00,0.0015
3701.00,0.0016
3700.00,0.0017
3699.00,0.0017
3698.00,0.0018
3697.00,0.0019
3696.00,0.0020
3695.00,0.0021
3694.00,0.0022
3693.00,0.0024
3692.00,0.0026
3691.00,0.0028
3690.00,0.0030
3689.00,0.0033
3688.00,0.0037
3687.00,0.0040
3686.00,0.0043
3685.00,0.0046
3684.00,0.0050
3683.00,0.0053
3682.00,0.0056
3681.00,0.0060
3680.00,0.0064
3679.00,0.0067
3678.00,0.0071
3677.00,0.0075
3676.00,0.0081
3675.00,0.0086
3674.00,0.0090
3673.00,0.0093
3672.00,0.0095
3671.00,0.0097
3670.00,0.0099
3669.00,0.0101
3668.00,0.0103
3667.00,0.0104
3666.00,0.0106
3665.00,0.0108
3664.00,0.0110
3663.00,0.0112
3662.00,0.0114
3661.00,0.0116
3660.00,0.0117
3659.00,0.0118
3658.00,0.0118
3657.00,0.0118
3656.00,0.0118
3655.00,0.0117
3654.00,0.0116
3653.00,0.0115
3652.00,0.0115
3651.00,0.0114
3650.00,0.0114
3649.00,0.0114
3648.00,0.0113
3647.00,0.0112
3646.00,0.0111
3645.00,0.0109
3644.00,0.0106
3643.00,0.0104
3642.00,0.0101
3641.00,0.0099
3640.00,0.0099
3639.00,0.0099
3638.00,0.0100
3637.00,0.0100
3636.00,0.0096
3635.00,0.0090
3634.00,0.0083
3633.00,0.0077
3632.00,0.0073
3631.00,0.0070
3630.00,0.0068
3629.00,0.0068
3628.00,0.0068
3627.00,0.0067
3626.00,0.0067
3625.00,0.0066
3624.00,0.0066
3623.00,0.0065
3622.00,0.0065
3621.00,0.0065
3620.00,0.0065
3619.00,0.0064
3618.00,0.0064
3617.00,0.0064
3616.00,0.0064
3615.00,0.0064
3614.00,0.0064
3613.00,0.0064
3612.00,0.0065
3611.00,0.0065
3610.00,0.0065
3609.00,0.0065
3608.00,0.0066
3607.00,0.0067
3606.00,0.0067
3605.00,0.0068
3604.00,0.0068
3603.00,0.0069
3602.00,0.0070
3601.00,0.0071
3600.00,0.0072
3599.00,0.0073
3598.00,0.0074
3597.00,0.0075
3596.00,0.0076
3595.00,0.0077
3594.00,0.0079
3593.00,0.0080
3592.00,0.0081
3591.00,0.0082
3590.00,0.0083
3589.00,0.0084
3588.00,0.0085
3587.00,0.0087
3586.00,0.0089
3585.00,0.0090
3584.00,0.0091
3583.00,0.0092
3582.00,0.0094
3581.00,0.0095
3580.00,0.0097
3579.00,0.0098
3578.00,0.0099
3577.00,0.0101
3576.00,0.0102
3575.00,0.0104
3574.00,0.0106
3573.00,0.0108
3572.00,0.0110
3571.00,0.0112
3570.00,0.0114
3569.00,0.0116
3568.00,0.0118
3567.00,0.0121
3566.00,0.0123
3565.00,0.0125
3564.00,0.0126
3563.00,0.0128
3562.00,0.0130
3561.00,0.0132
3560.00,0.0135
3559.00,0.0137
3558.00,0.0139
3557.00,0.0141
3556.00,0.0143
3555.00,0.0145
3554.00,0.0147
3553.00,0.0150
3552.00,0.0152
3551.00,0.0155
3550.00,0.0157
3549.00,0.0160
3548.00,0.0162
3547.00,0.0165
3546.00,0.0168
3545.00,0.0170
3544.00,0.0173
3543.00,0.0176
3542.00,0.0178
3541.00,0.0181
3540.00,0.0184
3539.00,0.0187
3538.00,0.0189
3537.00,0.0192
3536.00,0.0194
3535.00,0.0197
3534.00,0.0199
3533.00,0.0202
3532.00,0.0205
3531.00,0.0208
3530.00,0.0211
3529.00,0.0214
3528.00,0.0217
3527.00,0.0220
3526.00,0.0223
3525.00,0.0226
3524.00,0.0229
3523.00,0.0232
3522.00,0.0235
3521.00,0.0238
3520.00,0.0241
3519.00,0.0244
3518.00,0.0247
3517.00,0.0250
3516.00,0.0252
3515.00,0.0255
3514.00,0.0258
3513.00,0.0262
3512.00,0.0265
3511.00,0.0268
3510.00,0.0271
3509.00,0.0274
3508.00,0.0278
3507.00,0.0281
3506.00,0.0284
3505.00,0.0288
3504.00,0.0292
3503.00,0.0296
3502.00,0.0300
3501.00,0.0304
3500.00,0.0308
3499.00,0.0311
3498.00,0.0315
3497.00,0.0318
3496.00,0.0322
3495.00,0.0325
3494.00,0.0329
3493.00,0.0333
3492.00,0.0336
3491.00,0.0340
3490.00,0.0343
3489.00,0.0347
3488.00,0.0350
3487.00,0.0354
3486.00,0.0359
3485.00,0.0363
3484.00,0.0367
3483.00,0.0371
3482.00,0.0375
3481.00,0.0380
3480.00,0.0384
3479.00,0.0388
3478.00,0.0392
3477.00,0.0396
3476.00,0.0400
3475.00,0.0405
3474.00,0.0409
3473.00,0.0414
3472.00,0.0419
3471.00,0.0423
3470.00,0.0428
3469.00,0.0433
3468.00,0.0438
3467.00,0.0442
3466.00,0.0447
3465.00,0.0451
3464.00,0.0455
3463.00,0.0460
3462.00,0.0464
3461.00,0.0469
3460.00,0.0474
3459.00,0.0479
3458.00,0.0484
3457.00,0.0488
3456.00,0.0493
3455.00,0.0498
3454.00,0.0503
3453.00,0.0508
3452.00,0.0513
3451.00,0.0518
3450.00,0.0522
3449.00,0.0527
3448.00,0.0532
3447.00,0.0537
3446.00,0.0542
3445.00,0.0547
3444.00,0.0552
3443.00,0.0557
3442.00,0.0562
3441.00,0.0567
3440.00,0.0572
3439.00,0.0578
3438.00,0.0583
3437.00,0.0588
3436.00,0.0593
3435.00,0.0598
3434.00,0.0603
3433.00,0.0608
3432.00,0.0613
3431.00,0.0617
3430.00,0.0622
3429.00,0.0627
3428.00,0.0632
3427.00,0.0637
3426.00,0.0642
3425.00,0.0646
3424.00,0.0651
3423.00,0.0656
3422.00,0.0661
3421.00,0.0666
3420.00,0.0671
3419.00,0.0675
3418.00,0.0680
3417.00,0.0685
3416.00,0.0691
3415.00,0.0696
3414.00,0.0701
3413.00,0.0706
3412.00,0.0711
3411.00,0.0716
3410.00,0.0720
3409.00,0.0725
3408.00,0.0729
3407.00,0.0734
3406.00,0.0739
3405.00,0.0745
3404.00,0.0750
3403.00,0.0756
3402.00,0.0761
3401.00,0.0765
3400.00,0.0770
3399.00,0.0774
3398.00,0.0778
3397.00,0.0782
3396.00,0.0786
3395.00,0.0790
3394.00,0.0795
3393.00,0.0800
3392.00,0.0804
3391.00,0.0808
3390.00,0.0812
3389.00,0.0815
3388.00,0.0819
3387.00,0.0822
3386.00,0.0826
3385.00,0.0829
3384.00,0.0833
3383.00,0.0837
3382.00,0.0841
3381.00,0.0844
3380.00,0.0848
3379.00,0.0852
3378.00,0.0855
3377.00,0.0858
3376.00,0.0861
3375.00,0.0865
3374.00,0.0868
3373.00,0.0871
3372.00,0.0875
3371.00,0.0878
3370.00,0.0881
3369.00,0.0884
3368.00,0.0887
3367.00,0.0889
3366.00,0.0891
3365.00,0.0893
3364.00,0.0895
3363.00,0.0897
3362.00,0.0899
3361.00,0.0901
3360.00,0.0903
3359.00,0.0905
3358.00,0.0906
3357.00,0.0908
3356.00,0.0910
3355.00,0.0911
3354.00,0.0913
3353.00,0.0915
3352.00,0.0917
3351.00,0.0918
3350.00,0.0919
3349.00,0.0920
3348.00,0.0920
3347.00,0.0921
3346.00,0.0921
3345.00,0.0922
3344.00,0.0922
3343.00,0.0922
3342.00,0.0922
3341.00,0.0922
3340.00,0.0922
3339.00,0.0922
3338.00,0.0922
3337.00,0.0921
3336.00,0.0920
3335.00,0.0919
3334.00,0.0917
3333.00,0.0916
3332.00,0.0915
3331.00,0.0914
3330.00,0.0913
3329.00,0.0912
3328.00,0.0912
3327.00,0.0911
3326.00,0.0910
3325.00,0.0908
3324.00,0.0906
3323.00,0.0904
3322.00,0.0902
3321.00,0.0900
3320.00,0.0899
3319.00,0.0897
3318.00,0.0895
3317.00,0.0893
3316.00,0.0892
3315.00,0.0890
3314.00,0.0888
3313.00,0.0886
3312.00,0.0884
3311.00,0.0883
3310.00,0.0881
3309.00,0.0879
3308.00,0.0878
3307.00,0.0875
3306.00,0.0873
3305.00,0.0869
3304.00,0.0866
3303.00,0.0863
3302.00,0.0859
3301.00,0.0856
3300.00,0.0854
3299.00,0.0851
3298.00,0.0849
3297.00,0.0847
3296.00,0.0844
3295.00,0.0841
3294.00,0.0838
3293.00,0.0835
3292.00,0.0832
3291.00,0.0828
3290.00,0.0824
3289.00,0.0820
3288.00,0.0817
3287.00,0.0814
3286.00,0.0811
3285.00,0.0807
3284.00,0.0804
3283.00,0.0801
3282.00,0.0797
3281.00,0.0794
3280.00,0.0791
3279.00,0.0787
3278.00,0.0784
3277.00,0.0781
3276.00,0.0777
3275.00,0.0774
3274.00,0.0771
3273.00,0.0767
3272.00,0.0764
3271.00,0.0759
3270.00,0.0755
3269.00,0.0751
3268.00,0.0746
3267.00,0.0742
3266.00,0.0738
3265.00,0.0734
3264.00,0.0730
3263.00,0.0726
3262.00,0.0721
3261.00,0.0717
3260.00,0.0713
3259.00,0.0709
3258.00,0.0706
3257.00,0.0702
3256.00,0.0699
3255.00,0.0694
3254.00,0.0690
3253.00,0.0686
3252.00,0.0682
3251.00,0.0678
3250.00,0.0674
3249.00,0.0670
3248.00,0.0666
3247.00,0.0662
3246.00,0.0658
3245.00,0.0653
3244.00,0.0649
3243.00,0.0644
3242.00,0.0640
3241.00,0.0636
3240.00,0.0632
3239.00,0.0627
3238.00,0.0623
3237.00,0.0619
3236.00,0.0615
3235.00,0.0611
3234.00,0.0607
3233.00,0.0603
3232.00,0.0598
3231.00,0.0593
3230.00,0.0588
3229.00,0.0584
3228.00,0.0579
3227.00,0.0575
3226.00,0.0571
3225.00,0.0567
3224.00,0.0562
3223.00,0.0558
3222.00,0.0554
3221.00,0.0549
3220.00,0.0545
3219.00,0.0540
3218.00,0.0535
3217.00,0.0531
3216.00,0.0527
3215.00,0.0522
3214.00,0.0518
3213.00,0.0513
3212.00,0.0509
3211.00,0.0504
3210.00,0.0500
3209.00,0.0496
3208.00,0.0492
3207.00,0.0488
3206.00,0.0483
3205.00,0.0479
3204.00,0.0475
3203.00,0.0471
3202.00,0.0467
3201.00,0.0463
3200.00,0.0458
3199.00,0.0454
3198.00,0.0450
3197.00,0.0445
3196.00,0.0441
3195.00,0.0437
3194.00,0.0433
3193.00,0.0429
3192.00,0.0425
3191.00,0.0420
3190.00,0.0416
3189.00,0.0412
3188.00,0.0407
3187.00,0.0403
3186.00,0.0399
3185.00,0.0395
3184.00,0.0391
3183.00,0.0387
3182.00,0.0383
3181.00,0.0378
3180.00,0.0374
3179.00,0.0370
3178.00,0.0366
3177.00,0.0362
3176.00,0.0358
3175.00,0.0353
3174.00,0.0349
3173.00,0.0345
3172.00,0.0341
3171.00,0.0338
3170.00,0.0334
3169.00,0.0330
3168.00,0.0326
3167.00,0.0323
3166.00,0.0319
3165.00,0.0315
3164.00,0.0312
3163.00,0.0308
3162.00,0.0305
3161.00,0.0301
3160.00,0.0298
3159.00,0.0294
3158.00,0.0291
3157.00,0.0288
3156.00,0.0285
3155.00,0.0282
3154.00,0.0279
3153.00,0.0276
3152.00,0.0273
3151.00,0.0270
3150.00,0.0267
3149.00,0.0263
3148.00,0.0260
3147.00,0.0257
3146.00,0.0254
3145.00,0.0251
3144.00,0.0248
3143.00,0.0245
3142.00,0.0242
3141.00,0.0240
3140.00,0.0237
3139.00,0.0235
3138.00,0.0232
3137.00,0.0230
3136.00,0.0227
3135.00,0.0225
3134.00,0.0222
3133.00,0.0220
3132.00,0.0217
3131.00,0.0214
3130.00,0.0212
3129.00,0.0209
3128.00,0.0207
3127.00,0.0205
3126.00,0.0203
3125.00,0.0200
3124.00,0.0198
3123.00,0.0196
3122.00,0.0194
3121.00,0.0192
3120.00,0.0190
3119.00,0.0189
3118.00,0.0187
3117.00,0.0185
3116.00,0.0183
3115.00,0.0180
3114.00,0.0178
3113.00,0.0176
3112.00,0.0175
3111.00,0.0173
3110.00,0.0172
3109.00,0.0170
3108.00,0.0168
3107.00,0.0167
3106.00,0.0165
3105.00,0.0163
3104.00,0.0162
3103.00,0.0160
3102.00,0.0158
3101.00,0.0156
3100.00,0.0155
3099.00,0.0153
3098.00,0.0152
3097.00,0.0151
3096.00,0.0149
3095.00,0.0148
3094.00,0.0147
3093.00,0.0145
3092.00,0.0144
3091.00,0.0142
3090.00,0.0141
3089.00,0.0139
3088.00,0.0138
3087.00,0.0137
3086.00,0.0135
3085.00,0.0134
3084.00,0.0133
3083.00,0.0132
3082.00,0.0131
3081.00,0.0130
3080.00,0.0129
3079.00,0.0127
3078.00,0.0126
3077.00,0.0125
3076.00,0.0124
3075.00,0.0123
3074.00,0.0122
3073.00,0.0122
3072.00,0.0121
3071.00,0.0120
3070.00,0.0118
3069.00,0.0117
3068.00,0.0116
3067.00,0.0115
3066.00,0.0115
3065.00,0.0114
3064.00,0.0114
3063.00,0.0113
3062.00,0.0113
3061.00,0.0112
3060.00,0.0111
3059.00,0.0111
3058.00,0.0110
3057.00,0.0109
3056.00,0.0108
3055.00,0.0108
3054.00,0.0107
3053.00,0.0107
3052.00,0.0107
3051.00,0.0106
3050.00,0.0106
3049.00,0.0106
3048.00,0.0105
3047.00,0.0105
3046.00,0.0104
3045.00,0.0104
3044.00,0.0103
3043.00,0.0103
3042.00,0.0103
3041.00,0.0103
3040.00,0.0103
3039.00,0.0104
3038.00,0.0104
3037.00,0.0104
3036.00,0.0105
3035.00,0.0105
3034.00,0.0105
3033.00,0.0105
3032.00,0.0106
3031.00,0.0106
3030.00,0.0107
3029.00,0.0108
3028.00,0.0109
3027.00,0.0110
3026.00,0.0111
3025.00,0.0113
3024.00,0.0115
3023.00,0.0118
3022.00,0.0121
3021.00,0.0124
3020.00,0.0129
3019.00,0.0134
3018.00,0.0140
3017.00,0.0147
3016.00,0.0155
3015.00,0.0166
3014.00,0.0178
3013.00,0.0192
3012.00,0.0208
3011.00,0.0226
3010.00,0.0246
3009.00,0.0268
3008.00,0.0291
3007.00,0.0317
3006.00,0.0344
3005.00,0.0372
3004.00,0.0402
3003.00,0.0432
3002.00,0.0462
3001.00,0.0493
3000.00,0.0522
2999.00,0.0551
2998.00,0.0578
2997.00,0.0605
2996.00,0.0631
2995.00,0.0658
2994.00,0.0685
2993.00,0.0714
2992.00,0.0745
2991.00,0.0778
2990.00,0.0814
2989.00,0.0856
2988.00,0.0905
2987.00,0.0966
2986.00,0.1048
2985.00,0.1155
2984.00,0.1288
2983.00,0.1431
2982.00,0.1565
2981.00,0.1671
2980.00,0.1748
2979.00,0.1807
2978.00,0.1863
2977.00,0.1925
2976.00,0.1997
2975.00,0.2080
2974.00,0.2171
2973.00,0.2257
2972.00,0.2321
2971.00,0.2347
2970.00,0.2325
2969.00,0.2258
2968.00,0.2159
2967.00,0.2039
2966.00,0.1908
2965.00,0.1772
2964.00,0.1637
2963.00,0.1508
2962.00,0.1388
2961.00,0.1280
2960.00,0.1183
2959.00,0.1098
2958.00,0.1023
2957.00,0.0959
2956.00,0.0902
2955.00,0.0853
2954.00,0.0809
2953.00,0.0771
2952.00,0.0739
2951.00,0.0711
2950.00,0.0689
2949.00,0.0671
2948.00,0.0657
2947.00,0.0645
2946.00,0.0636
2945.00,0.0630
2944.00,0.0627
2943.00,0.0628
2942.00,0.0632
2941.00,0.0639
2940.00,0.0647
2939.00,0.0653
2938.00,0.0658
2937.00,0.0662
2936.00,0.0665
2935.00,0.0669
2934.00,0.0672
2933.00,0.0674
2932.00,0.0673
2931.00,0.0669
2930.00,0.0663
2929.00,0.0654
2928.00,0.0644
2927.00,0.0634
2926.00,0.0624
2925.00,0.0616
2924.00,0.0609
2923.00,0.0604
2922.00,0.0600
2921.00,0.0598
2920.00,0.0596
2919.00,0.0595
2918.00,0.0595
2917.00,0.0596
2916.00,0.0595
2915.00,0.0595
2914.00,0.0594
2913.00,0.0593
2912.00,0.0592
2911.00,0.0592
2910.00,0.0593
2909.00,0.0595
2908.00,0.0598
2907.00,0.0601
2906.00,0.0605
2905.00,0.0608
2904.00,0.0612
2903.00,0.0616
2902.00,0.0620
2901.00,0.0625
2900.00,0.0630
2899.00,0.0635
2898.00,0.0641
2897.00,0.0648
2896.00,0.0657
2895.00,0.0667
2894.00,0.0677
2893.00,0.0689
2892.00,0.0700
2891.00,0.0711
2890.00,0.0719
2889.00,0.0725
2888.00,0.0728
2887.00,0.0731
2886.00,0.0732
2885.00,0.0733
2884.00,0.0732
2883.00,0.0726
2882.00,0.0713
2881.00,0.0696
2880.00,0.0677
2879.00,0.0657
2878.00,0.0638
2877.00,0.0621
2876.00,0.0605
2875.00,0.0590
2874.00,0.0575
2873.00,0.0562
2872.00,0.0548
2871.00,0.0535
2870.00,0.0522
2869.00,0.0509
2868.00,0.0495
2867.00,0.0482
2866.00,0.0468
2865.00,0.0454
2864.00,0.0440
2863.00,0.0427
2862.00,0.0413
2861.00,0.0399
2860.00,0.0386
2859.00,0.0373
2858.00,0.0360
2857.00,0.0348
2856.00,0.0337
2855.00,0.0326
2854.00,0.0316
2853.00,0.0306
2852.00,0.0297
2851.00,0.0288
2850.00,0.0279
2849.00,0.0271
2848.00,0.0263
2847.00,0.0255
2846.00,0.0248
2845.00,0.0242
2844.00,0.0236
2843.00,0.0230
2842.00,0.0225
2841.00,0.0221
2840.00,0.0217
2839.00,0.0213
2838.00,0.0210
2837.00,0.0207
2836.00,0.0205
2835.00,0.0202
2834.00,0.0200
2833.00,0.0197
2832.00,0.0195
2831.00,0.0193
2830.00,0.0190
2829.00,0.0188
2828.00,0.0186
2827.00,0.0184
2826.00,0.0182
2825.00,0.0179
2824.00,0.0177
2823.00,0.0176
2822.00,0.0174
2821.00,0.0173
2820.00,0.0171
2819.00,0.0169
2818.00,0.0168
2817.00,0.0167
2816.00,0.0165
2815.00,0.0164
2814.00,0.0162
2813.00,0.0160
2812.00,0.0158
2811.00,0.0156
2810.00,0.0154
2809.00,0.0152
2808.00,0.0150
2807.00,0.0148
2806.00,0.0147
2805.00,0.0145
2804.00,0.0144
2803.00,0.0142
2802.00,0.0140
2801.00,0.0139
2800.00,0.0137
2799.00,0.0135
2798.00,0.0133
2797.00,0.0132
2796.00,0.0132
2795.00,0.0131
2794.00,0.0131
2793.00,0.0130
2792.00,0.0130
2791.00,0.0129
2790.00,0.0128
2789.00,0.0127
2788.00,0.0126
2787.00,0.0125
2786.00,0.0124
2785.00,0.0123
2784.00,0.0122
2783.00,0.0121
2782.00,0.0120
2781.00,0.0120
2780.00,0.0119
2779.00,0.0118
2778.00,0.0117
2777.00,0.0115
2776.00,0.0114
2775.00,0.0113
2774.00,0.0112
2773.00,0.0111
2772.00,0.0111
2771.00,0.0111
2770.00,0.0110
2769.00,0.0110
2768.00,0.0109
2767.00,0.0109
2766.00,0.0108
2765.00,0.0107
2764.00,0.0106
2763.00,0.0105
2762.00,0.0104
2761.00,0.0103
2760.00,0.0102
2759.00,0.0101
2758.00,0.0100
2757.00,0.0099
2756.00,0.0099
2755.00,0.0098
2754.00,0.0098
2753.00,0.0097
2752.00,0.0096
2751.00,0.0096
2750.00,0.0095
2749.00,0.0095
2748.00,0.0094
2747.00,0.0094
2746.00,0.0095
2745.00,0.0095
2744.00,0.0095
2743.00,0.0095
2742.00,0.0095
2741.00,0.0095
2740.00,0.0095
2739.00,0.0095
2738.00,0.0095
2737.00,0.0096
2736.00,0.0096
2735.00,0.0097
2734.00,0.0097
2733.00,0.0097
2732.00,0.0098
2731.00,0.0098
2730.00,0.0098
2729.00,0.0098
2728.00,0.0098
2727.00,0.0098
2726.00,0.0098
2725.00,0.0099
2724.00,0.0099
2723.00,0.0099
2722.00,0.0099
2721.00,0.0098
2720.00,0.0098
2719.00,0.0098
2718.00,0.0097
2717.00,0.0097
2716.00,0.0096
2715.00,0.0095
2714.00,0.0094
2713.00,0.0094
2712.00,0.0093
2711.00,0.0092
2710.00,0.0091
2709.00,0.0090
2708.00,0.0089
2707.00,0.0088
2706.00,0.0088
2705.00,0.0088
2704.00,0.0088
2703.00,0.0088
2702.00,0.0087
2701.00,0.0087
2700.00,0.0086
2699.00,0.0085
2698.00,0.0084
2697.00,0.0083
2696.00,0.0082
2695.00,0.0081
2694.00,0.0081
2693.00,0.0080
2692.00,0.0079
2691.00,0.0077
2690.00,0.0077
2689.00,0.0076
2688.00,0.0075
2687.00,0.0075
2686.00,0.0074
2685.00,0.0074
2684.00,0.0074
2683.00,0.0074
2682.00,0.0073
2681.00,0.0073
2680.00,0.0073
2679.00,0.0074
2678.00,0.0074
2677.00,0.0075
2676.00,0.0076
2675.00,0.0077
2674.00,0.0079
2673.00,0.0080
2672.00,0.0082
2671.00,0.0084
2670.00,0.0086
2669.00,0.0088
2668.00,0.0090
2667.00,0.0093
2666.00,0.0095
2665.00,0.0096
2664.00,0.0098
2663.00,0.0098
2662.00,0.0099
2661.00,0.0100
2660.00,0.0100
2659.00,0.0100
2658.00,0.0100
2657.00,0.0099
2656.00,0.0098
2655.00,0.0096
2654.00,0.0095
2653.00,0.0093
2652.00,0.0092
2651.00,0.0090
2650.00,0.0088
2649.00,0.0087
2648.00,0.0085
2647.00,0.0084
2646.00,0.0082
2645.00,0.0080
2644.00,0.0079
2643.00,0.0077
2642.00,0.0076
2641.00,0.0075
2640.00,0.0074
2639.00,0.0073
2638.00,0.0071
2637.00,0.0070
2636.00,0.0068
2635.00,0.0067
2634.00,0.0066
2633.00,0.0065
2632.00,0.0064
2631.00,0.0064
2630.00,0.0064
2629.00,0.0063
2628.00,0.0063
2627.00,0.0062
2626.00,0.0062
2625.00,0.0061
2624.00,0.0061
2623.00,0.0061
2622.00,0.0061
2621.00,0.0061
2620.00,0.0061
2619.00,0.0061
2618.00,0.0061
2617.00,0.0060
2616.00,0.0060
2615.00,0.0060
2614.00,0.0059
2613.00,0.0059
2612.00,0.0059
2611.00,0.0059
2610.00,0.0059
2609.00,0.0060
2608.00,0.0060
2607.00,0.0060
2606.00,0.0059
2605.00,0.0059
2604.00,0.0059
2603.00,0.0059
2602.00,0.0058
2601.00,0.0058
2600.00,0.0057
2599.00,0.0057
2598.00,0.0057
2597.00,0.0057
2596.00,0.0056
2595.00,0.0056
2594.00,0.0056
2593.00,0.0055
2592.00,0.0055
2591.00,0.0055
2590.00,0.0055
2589.00,0.0055
2588.00,0.0055
2587.00,0.0055
2586.00,0.0055
2585.00,0.0055
2584.00,0.0054
2583.00,0.0054
2582.00,0.0054
2581.00,0.0053
2580.00,0.0053
2579.00,0.0053
2578.00,0.0053
2577.00,0.0053
2576.00,0.0053
2575.00,0.0052
2574.00,0.0051
2573.00,0.0051
2572.00,0.0050
2571.00,0.0050
2570.00,0.0049
2569.00,0.0048
2568.00,0.0047
2567.00,0.0046
2566.00,0.0045
2565.00,0.0044
2564.00,0.0043
2563.00,0.0043
2562.00,0.0042
2561.00,0.0041
2560.00,0.0040
2559.00,0.0040
2558.00,0.0040
2557.00,0.0040
2556.00,0.0039
2555.00,0.0039
2554.00,0.0038
2553.00,0.0038
2552.00,0.0038
2551.00,0.0038
2550.00,0.0038
2549.00,0.0038
2548.00,0.0038
2547.00,0.0038
2546.00,0.0038
2545.00,0.0038
2544.00,0.0038
2543.00,0.0038
2542.00,0.0038
2541.00,0.0039
2540.00,0.0039
2539.00,0.0039
2538.00,0.0039
2537.00,0.0039
2536.00,0.0039
2535.00,0.0040
2534.00,0.0041
2533.00,0.0042
2532.00,0.0042
2531.00,0.0042
2530.00,0.0042
2529.00,0.0042
2528.00,0.0042
2527.00,0.0042
2526.00,0.0042
2525.00,0.0043
2524.00,0.0043
2523.00,0.0043
2522.00,0.0044
2521.00,0.0043
2520.00,0.0043
2519.00,0.0043
2518.00,0.0043
2517.00,0.0043
2516.00,0.0043
2515.00,0.0043
2514.00,0.0043
2513.00,0.0042
2512.00,0.0041
2511.00,0.0040
2510.00,0.0040
2509.00,0.0039
2508.00,0.0039
2507.00,0.0038
2506.00,0.0037
2505.00,0.0037
2504.00,0.0037
2503.00,0.0037
2502.00,0.0036
2501.00,0.0036
2500.00,0.0036
2499.00,0.0036
2498.00,0.0037
2497.00,0.0036
2496.00,0.0036
2495.00,0.0035
2494.00,0.0034
2493.00,0.0033
2492.00,0.0033
2491.00,0.0032
2490.00,0.0032
2489.00,0.0031
2488.00,0.0031
2487.00,0.0031
2486.00,0.0031
2485.00,0.0031
2484.00,0.0031
2483.00,0.0030
2482.00,0.0030
2481.00,0.0030
2480.00,0.0030
2479.00,0.0030
2478.00,0.0030
2477.00,0.0030
2476.00,0.0029
2475.00,0.0029
2474.00,0.0029
2473.00,0.0029
2472.00,0.0029
2471.00,0.0029
2470.00,0.0029
2469.00,0.0029
2468.00,0.0028
2467.00,0.0028
2466.00,0.0027
2465.00,0.0027
2464.00,0.0027
2463.00,0.0027
2462.00,0.0027
2461.00,0.0027
2460.00,0.0026
2459.00,0.0026
2458.00,0.0025
2457.00,0.0024
2456.00,0.0024
2455.00,0.0023
2454.00,0.0023
2453.00,0.0023
2452.00,0.0023
2451.00,0.0023
2450.00,0.0023
2449.00,0.0023
2448.00,0.0022
2447.00,0.0022
2446.00,0.0022
2445.00,0.0021
2444.00,0.0021
2443.00,0.0021
2442.00,0.0021
2441.00,0.0022
2440.00,0.0022
2439.00,0.0023
2438.00,0.0023
2437.00,0.0023
2436.00,0.0023
2435.00,0.0022
2434.00,0.0022
2433.00,0.0022
2432.00,0.0022
2431.00,0.0023
2430.00,0.0023
2429.00,0.0024
2428.00,0.0024
2427.00,0.0025
2426.00,0.0026
2425.00,0.0027
2424.00,0.0027
2423.00,0.0027
2422.00,0.0027
2421.00,0.0028
2420.00,0.0028
2419.00,0.0029
2418.00,0.0029
2417.00,0.0030
2416.00,0.0030
2415.00,0.0030
2414.00,0.0029
2413.00,0.0029
2412.00,0.0029
2411.00,0.0029
2410.00,0.0029
2409.00,0.0029
2408.00,0.0029
2407.00,0.0029
2406.00,0.0029
2405.00,0.0029
2404.00,0.0030
2403.00,0.0030
2402.00,0.0030
2401.00,0.0030
2400.00,0.0029
2399.00,0.0029
2398.00,0.0029
2397.00,0.0028
2396.00,0.0028
2395.00,0.0028
2394.00,0.0028
2393.00,0.0028
2392.00,0.0027
2391.00,0.0027
2390.00,0.0026
2389.00,0.0025
2388.00,0.0025
2387.00,0.0024
2386.00,0.0024
2385.00,0.0024
2384.00,0.0024
2383.00,0.0024
2382.00,0.0024
2381.00,0.0024
2380.00,0.0024
2379.00,0.0023
2378.00,0.0023
2377.00,0.0022
2376.00,0.0022
2375.00,0.0023
2374.00,0.0023
2373.00,0.0023
2372.00,0.0023
2371.00,0.0023
2370.00,0.0022
2369.00,0.0022
2368.00,0.0022
2367.00,0.0023
2366.00,0.0022
2365.00,0.0022
2364.00,0.0022
2363.00,0.0022
2362.00,0.0022
2361.00,0.0023
2360.00,0.0023
2359.00,0.0023
2358.00,0.0022
2357.00,0.0022
2356.00,0.0022
2355.00,0.0021
2354.00,0.0021
2353.00,0.0021
2352.00,0.0021
2351.00,0.0022
2350.00,0.0023
2349.00,0.0023
2348.00,0.0023
2347.00,0.0022
2346.00,0.0021
2345.00,0.0021
2344.00,0.0022
2343.00,0.0022
2342.00,0.0023
2341.00,0.0023
2340.00,0.0023
2339.00,0.0023
2338.00,0.0022
2337.00,0.0022
2336.00,0.0022
2335.00,0.0022
2334.00,0.0022
2333.00,0.0021
2332.00,0.0021
2331.00,0.0021
2330.00,0.0021
2329.00,0.0021
2328.00,0.0021
2327.00,0.0022
2326.00,0.0022
2325.00,0.0022
2324.00,0.0022
2323.00,0.0022
2322.00,0.0022
2321.00,0.0022
2320.00,0.0023
2319.00,0.0023
2318.00,0.0022
2317.00,0.0022
2316.00,0.0021
2315.00,0.0021
2314.00,0.0021
2313.00,0.0022
2312.00,0.0022
2311.00,0.0022
2310.00,0.0021
2309.00,0.0020
2308.00,0.0019
2307.00,0.0019
2306.00,0.0019
2305.00,0.0019
2304.00,0.0019
2303.00,0.0019
2302.00,0.0019
2301.00,0.0019
2300.00,0.0019
2299.00,0.0019
2298.00,0.0019
2297.00,0.0019
2296.00,0.0019
2295.00,0.0019
2294.00,0.0020
2293.00,0.0020
2292.00,0.0019
2291.00,0.0019
2290.00,0.0018
2289.00,0.0018
2288.00,0.0018
2287.00,0.0018
2286.00,0.0018
2285.00,0.0018
2284.00,0.0019
2283.00,0.0019
2282.00,0.0018
2281.00,0.0018
2280.00,0.0017
2279.00,0.0015
2278.00,0.0014
2277.00,0.0013
2276.00,0.0013
2275.00,0.0013
2274.00,0.0014
2273.00,0.0014
2272.00,0.0013
2271.00,0.0013
2270.00,0.0012
2269.00,0.0012
2268.00,0.0012
2267.00,0.0011
2266.00,0.0010
2265.00,0.0009
2264.00,0.0008
2263.00,0.0008
2262.00,0.0008
2261.00,0.0008
2260.00,0.0009
2259.00,0.0009
2258.00,0.0010
2257.00,0.0010
2256.00,0.0010
2255.00,0.0009
2254.00,0.0009
2253.00,0.0008
2252.00,0.0007
2251.00,0.0006
2250.00,0.0006
2249.00,0.0006
2248.00,0.0007
2247.00,0.0007
2246.00,0.0007
2245.00,0.0005
2244.00,0.0004
2243.00,0.0003
2242.00,0.0003
2241.00,0.0004
2240.00,0.0004
2239.00,0.0004
2238.00,0.0004
2237.00,0.0004
2236.00,0.0005
2235.00,0.0005
2234.00,0.0006
2233.00,0.0006
2232.00,0.0006
2231.00,0.0007
2230.00,0.0007
2229.00,0.0008
2228.00,0.0010
2227.00,0.0011
2226.00,0.0011
2225.00,0.0011
2224.00,0.0010
2223.00,0.0009
2222.00,0.0008
2221.00,0.0009
2220.00,0.0010
2219.00,0.0010
2218.00,0.0011
2217.00,0.0012
2216.00,0.0013
2215.00,0.0013
2214.00,0.0013
2213.00,0.0011
2212.00,0.0010
2211.00,0.0010
2210.00,0.0010
2209.00,0.0010
2208.00,0.0011
2207.00,0.0011
2206.00,0.0012
2205.00,0.0012
2204.00,0.0012
2203.00,0.0012
2202.00,0.0011
2201.00,0.0011
2200.00,0.0010
2199.00,0.0010
2198.00,0.0011
2197.00,0.0013
2196.00,0.0014
2195.00,0.0015
2194.00,0.0016
2193.00,0.0016
2192.00,0.0016
2191.00,0.0015
2190.00,0.0015
2189.00,0.0013
2188.00,0.0012
2187.00,0.0012
2186.00,0.0012
2185.00,0.0013
2184.00,0.0014
2183.00,0.0014
2182.00,0.0014
2181.00,0.0014
2180.00,0.0015
2179.00,0.0015
2178.00,0.0016
2177.00,0.0016
2176.00,0.0016
2175.00,0.0014
2174.00,0.0011
2173.00,0.0009
2172.00,0.0008
2171.00,0.0009
2170.00,0.0012
2169.00,0.0016
2168.00,0.0017
2167.00,0.0017
2166.00,0.0013
2165.00,0.0011
2164.00,0.0010
2163.00,0.0012
2162.00,0.0014
2161.00,0.0015
2160.00,0.0013
2159.00,0.0009
2158.00,0.0006
2157.00,0.0004
2156.00,0.0005
2155.00,0.0006
2154.00,0.0008
2153.00,0.0009
2152.00,0.0010
2151.00,0.0011
2150.00,0.0010
2149.00,0.0009
2148.00,0.0007
2147.00,0.0006
2146.00,0.0006
2145.00,0.0007
2144.00,0.0007
2143.00,0.0008
2142.00,0.0008
2141.00,0.0008
2140.00,0.0008
2139.00,0.0008
2138.00,0.0008
2137.00,0.0009
2136.00,0.0009
2135.00,0.0008
2134.00,0.0008
2133.00,0.0008
2132.00,0.0008
2131.00,0.0008
2130.00,0.0008
2129.00,0.0009
2128.00,0.0010
2127.00,0.0011
2126.00,0.0012
2125.00,0.0013
2124.00,0.0012
2123.00,0.0012
2122.00,0.0012
2121.00,0.0013
2120.00,0.0013
2119.00,0.0014
2118.00,0.0015
2117.00,0.0015
2116.00,0.0015
2115.00,0.0015
2114.00,0.0015
2113.00,0.0016
2112.00,0.0017
2111.00,0.0017
2110.00,0.0016
2109.00,0.0016
2108.00,0.0016
2107.00,0.0015
2106.00,0.0014
2105.00,0.0014
2104.00,0.0014
2103.00,0.0015
2102.00,0.0016
2101.00,0.0018
2100.00,0.0018
2099.00,0.0018
2098.00,0.0017
2097.00,0.0015
2096.00,0.0014
2095.00,0.0014
2094.00,0.0014
2093.00,0.0015
2092.00,0.0016
2091.00,0.0017
2090.00,0.0019
2089.00,0.0019
2088.00,0.0019
2087.00,0.0019
2086.00,0.0018
2085.00,0.0018
2084.00,0.0018
2083.00,0.0018
2082.00,0.0018
2081.00,0.0018
2080.00,0.0019
2079.00,0.0019
2078.00,0.0019
2077.00,0.0019
2076.00,0.0020
2075.00,0.0021
2074.00,0.0021
2073.00,0.0020
2072.00,0.0019
2071.00,0.0018
2070.00,0.0018
2069.00,0.0018
2068.00,0.0018
2067.00,0.0018
2066.00,0.0018
2065.00,0.0018
2064.00,0.0017
2063.00,0.0017
2062.00,0.0017
2061.00,0.0016
2060.00,0.0016
2059.00,0.0017
2058.00,0.0018
2057.00,0.0019
2056.00,0.0020
2055.00,0.0020
2054.00,0.0019
2053.00,0.0018
2052.00,0.0018
2051.00,0.0018
2050.00,0.0018
2049.00,0.0017
2048.00,0.0016
2047.00,0.0015
2046.00,0.0014
2045.00,0.0013
2044.00,0.0013
2043.00,0.0013
2042.00,0.0013
2041.00,0.0011
2040.00,0.0010
2039.00,0.0009
2038.00,0.0009
2037.00,0.0008
2036.00,0.0008
2035.00,0.0009
2034.00,0.0009
2033.00,0.0009
2032.00,0.0007
2031.00,0.0005
2030.00,0.0004
2029.00,0.0002
2028.00,0.0001
2027.00,0.0000
2026.00,0.0001
2025.00,0.0003
2024.00,0.0004
2023.00,0.0005
2022.00,0.0005
2021.00,0.0006
2020.00,0.0006
2019.00,0.0006
2018.00,0.0006
2017.00,0.0007
2016.00,0.0008
2015.00,0.0010
2014.00,0.0012
2013.00,0.0013
2012.00,0.0014
2011.00,0.0016
2010.00,0.0016
2009.00,0.0014
2008.00,0.0011
2007.00,0.0008
2006.00,0.0006
2005.00,0.0005
2004.00,0.0006
2003.00,0.0009
2002.00,0.0011
2001.00,0.0012
2000.00,0.0011
1999.00,0.0009
1998.00,0.0007
1997.00,0.0006
1996.00,0.0006
1995.00,0.0006
1994.00,0.0005
1993.00,0.0005
1992.00,0.0004
1991.00,0.0005
1990.00,0.0005
1989.00,0.0005
1988.00,0.0006
1987.00,0.0007
1986.00,0.0008
1985.00,0.0009
1984.00,0.0010
1983.00,0.0009
1982.00,0.0008
1981.00,0.0007
1980.00,0.0006
1979.00,0.0006
1978.00,0.0005
1977.00,0.0005
1976.00,0.0005
1975.00,0.0005
1974.00,0.0006
1973.00,0.0005
1972.00,0.0004
1971.00,0.0003
1970.00,0.0002
1969.00,0.0002
1968.00,0.0003
1967.00,0.0005
1966.00,0.0007
1965.00,0.0008
1964.00,0.0009
1963.00,0.0009
1962.00,0.0008
1961.00,0.0006
1960.00,0.0005
1959.00,0.0004
1958.00,0.0004
1957.00,0.0004
1956.00,0.0005
1955.00,0.0005
1954.00,0.0004
1953.00,0.0002
1952.00,0.0001
1951.00,0.0002
1950.00,0.0003
1949.00,0.0004
1948.00,0.0006
1947.00,0.0006
1946.00,0.0005
1945.00,0.0004
1944.00,0.0002
1943.00,0.0002
1942.00,0.0002
1941.00,0.0004
1940.00,0.0005
1939.00,0.0005
1938.00,0.0005
1937.00,0.0005
1936.00,0.0004
1935.00,0.0004
1934.00,0.0003
1933.00,0.0003
1932.00,0.0004
1931.00,0.0004
1930.00,0.0004
1929.00,0.0004
1928.00,0.0004
1927.00,0.0004
1926.00,0.0004
1925.00,0.0005
1924.00,0.0006
1923.00,0.0006
1922.00,0.0006
1921.00,0.0005
1920.00,0.0004
1919.00,0.0004
1918.00,0.0003
1917.00,0.0004
1916.00,0.0004
1915.00,0.0005
1914.00,0.0005
1913.00,0.0005
1912.00,0.0005
1911.00,0.0006
1910.00,0.0007
1909.00,0.0008
1908.00,0.0009
1907.00,0.0009
1906.00,0.0009
1905.00,0.0009
1904.00,0.0009
1903.00,0.0009
1902.00,0.0008
1901.00,0.0008
1900.00,0.0008
1899.00,0.0009
1898.00,0.0010
1897.00,0.0011
1896.00,0.0012
1895.00,0.0012
1894.00,0.0012
1893.00,0.0011
1892.00,0.0010
1891.00,0.0010
1890.00,0.0009
1889.00,0.0009
1888.00,0.0010
1887.00,0.0011
1886.00,0.0012
1885.00,0.0013
1884.00,0.0013
1883.00,0.0013
1882.00,0.0012
1881.00,0.0012
1880.00,0.0011
1879.00,0.0011
1878.00,0.0012
1877.00,0.0012
1876.00,0.0012
1875.00,0.0013
1874.00,0.0013
1873.00,0.0013
1872.00,0.0013
1871.00,0.0013
1870.00,0.0012
1869.00,0.0011
1868.00,0.0011
1867.00,0.0011
1866.00,0.0012
1865.00,0.0012
1864.00,0.0013
1863.00,0.0014
1862.00,0.0014
1861.00,0.0014
1860.00,0.0014
1859.00,0.0014
1858.00,0.0014
1857.00,0.0014
1856.00,0.0014
1855.00,0.0014
1854.00,0.0014
1853.00,0.0013
1852.00,0.0014
1851.00,0.0014
1850.00,0.0014
1849.00,0.0013
1848.00,0.0013
1847.00,0.0013
1846.00,0.0012
1845.00,0.0012
1844.00,0.0012
1843.00,0.0013
1842.00,0.0013
1841.00,0.0014
1840.00,0.0015
1839.00,0.0015
1838.00,0.0016
1837.00,0.0017
1836.00,0.0017
1835.00,0.0017
1834.00,0.0017
1833.00,0.0017
1832.00,0.0017
1831.00,0.0017
1830.00,0.0017
1829.00,0.0016
1828.00,0.0016
1827.00,0.0016
1826.00,0.0016
1825.00,0.0016
1824.00,0.0016
1823.00,0.0016
1822.00,0.0017
1821.00,0.0017
1820.00,0.0016
1819.00,0.0016
1818.00,0.0016
1817.00,0.0016
1816.00,0.0016
1815.00,0.0017
1814.00,0.0018
1813.00,0.0018
1812.00,0.0018
1811.00,0.0018
1810.00,0.0018
1809.00,0.0018
1808.00,0.0018
1807.00,0.0019
1806.00,0.0019
1805.00,0.0020
1804.00,0.0020
1803.00,0.0020
1802.00,0.0020
1801.00,0.0020
1800.00,0.0021
1799.00,0.0021
1798.00,0.0021
1797.00,0.0022
1796.00,0.0022
1795.00,0.0022
1794.00,0.0023
1793.00,0.0023
1792.00,0.0023
1791.00,0.0024
1790.00,0.0025
1789.00,0.0026
1788.00,0.0027
1787.00,0.0028
1786.00,0.0029
1785.00,0.0030
1784.00,0.0030
1783.00,0.0031
1782.00,0.0032
1781.00,0.0033
1780.00,0.0034
1779.00,0.0036
1778.00,0.0037
1777.00,0.0039
1776.00,0.0040
1775.00,0.0042
1774.00,0.0044
1773.00,0.0047
1772.00,0.0049
1771.00,0.0051
1770.00,0.0052
1769.00,0.0053
1768.00,0.0054
1767.00,0.0054
1766.00,0.0055
1765.00,0.0055
1764.00,0.0054
1763.00,0.0053
1762.00,0.0052
1761.00,0.0051
1760.00,0.0050
1759.00,0.0049
1758.00,0.0048
1757.00,0.0047
1756.00,0.0046
1755.00,0.0045
1754.00,0.0045
1753.00,0.0043
1752.00,0.0042
1751.00,0.0041
1750.00,0.0040
1749.00,0.0040
1748.00,0.0040
1747.00,0.0039
1746.00,0.0039
1745.00,0.0039
1744.00,0.0038
1743.00,0.0038
1742.00,0.0038
1741.00,0.0038
1740.00,0.0039
1739.00,0.0039
1738.00,0.0040
1737.00,0.0039
1736.00,0.0039
1735.00,0.0040
1734.00,0.0040
1733.00,0.0040
1732.00,0.0040
1731.00,0.0040
1730.00,0.0040
1729.00,0.0040
1728.00,0.0041
1727.00,0.0041
1726.00,0.0041
1725.00,0.0041
1724.00,0.0041
1723.00,0.0042
1722.00,0.0042
1721.00,0.0042
1720.00,0.0043
1719.00,0.0043
1718.00,0.0043
1717.00,0.0043
1716.00,0.0043
1715.00,0.0043
1714.00,0.0043
1713.00,0.0043
1712.00,0.0044
1711.00,0.0044
1710.00,0.0044
1709.00,0.0045
1708.00,0.0045
1707.00,0.0045
1706.00,0.0046
1705.00,0.0046
1704.00,0.0046
1703.00,0.0046
1702.00,0.0046
1701.00,0.0046
1700.00,0.0046
1699.00,0.0046
1698.00,0.0047
1697.00,0.0046
1696.00,0.0046
1695.00,0.0046
1694.00,0.0046
1693.00,0.0046
1692.00,0.0046
1691.00,0.0047
1690.00,0.0047
1689.00,0.0047
1688.00,0.0047
1687.00,0.0048
1686.00,0.0049
1685.00,0.0050
1684.00,0.0051
1683.00,0.0053
1682.00,0.0054
1681.00,0.0055
1680.00,0.0057
1679.00,0.0059
1678.00,0.0060
1677.00,0.0062
1676.00,0.0064
1675.00,0.0066
1674.00,0.0068
1673.00,0.0070
1672.00,0.0071
1671.00,0.0072
1670.00,0.0072
1669.00,0.0073
1668.00,0.0073
1667.00,0.0074
1666.00,0.0074
1665.00,0.0074
1664.00,0.0074
1663.00,0.0074
1662.00,0.0075
1661.00,0.0075
1660.00,0.0076
1659.00,0.0077
1658.00,0.0077
1657.00,0.0078
1656.00,0.0078
1655.00,0.0079
1654.00,0.0081
1653.00,0.0083
1652.00,0.0085
1651.00,0.0087
1650.00,0.0087
1649.00,0.0088
1648.00,0.0089
1647.00,0.0090
1646.00,0.0091
1645.00,0.0092
1644.00,0.0093
1643.00,0.0094
1642.00,0.0094
1641.00,0.0094
1640.00,0.0094
1639.00,0.0093
1638.00,0.0092
1637.00,0.0091
1636.00,0.0089
1635.00,0.0088
1634.00,0.0087
1633.00,0.0086
1632.00,0.0086
1631.00,0.0085
1630.00,0.0083
1629.00,0.0082
1628.00,0.0080
1627.00,0.0078
1626.00,0.0076
1625.00,0.0074
1624.00,0.0072
1623.00,0.0071
1622.00,0.0069
1621.00,0.0068
1620.00,0.0067
1619.00,0.0067
1618.00,0.0066
1617.00,0.0065
1616.00,0.0064
1615.00,0.0063
1614.00,0.0061
1613.00,0.0060
1612.00,0.0060
1611.00,0.0059
1610.00,0.0058
1609.00,0.0058
1608.00,0.0058
1607.00,0.0057
1606.00,0.0056
1605.00,0.0056
1604.00,0.0056
1603.00,0.0055
1602.00,0.0055
1601.00,0.0055
1600.00,0.0054
1599.00,0.0053
1598.00,0.0053
1597.00,0.0052
1596.00,0.0051
1595.00,0.0051
1594.00,0.0050
1593.00,0.0050
1592.00,0.0050
1591.00,0.0050
1590.00,0.0050
1589.00,0.0050
1588.00,0.0050
1587.00,0.0050
1586.00,0.0050
1585.00,0.0050
1584.00,0.0050
1583.00,0.0050
1582.00,0.0051
1581.00,0.0051
1580.00,0.0051
1579.00,0.0051
1578.00,0.0052
1577.00,0.0053
1576.00,0.0053
1575.00,0.0053
1574.00,0.0053
1573.00,0.0053
1572.00,0.0054
1571.00,0.0054
1570.00,0.0054
1569.00,0.0055
1568.00,0.0056
1567.00,0.0057
1566.00,0.0058
1565.00,0.0058
1564.00,0.0059
1563.00,0.0059
1562.00,0.0060
1561.00,0.0060
1560.00,0.0061
1559.00,0.0061
1558.00,0.0061
1557.00,0.0061
1556.00,0.0062
1555.00,0.0062
1554.00,0.0062
1553.00,0.0062
1552.00,0.0063
1551.00,0.0063
1550.00,0.0063
1549.00,0.0064
1548.00,0.0065
1547.00,0.0065
1546.00,0.0066
1545.00,0.0067
1544.00,0.0067
1543.00,0.0068
1542.00,0.0069
1541.00,0.0070
1540.00,0.0072
1539.00,0.0072
1538.00,0.0073
1537.00,0.0074
1536.00,0.0075
1535.00,0.0076
1534.00,0.0076
1533.00,0.0077
1532.00,0.0078
1531.00,0.0078
1530.00,0.0079
1529.00,0.0080
1528.00,0.0081
1527.00,0.0082
1526.00,0.0083
1525.00,0.0085
1524.00,0.0086
1523.00,0.0087
1522.00,0.0088
1521.00,0.0090
1520.00,0.0092
1519.00,0.0093
1518.00,0.0094
1517.00,0.0096
1516.00,0.0097
1515.00,0.0099
1514.00,0.0101
1513.00,0.0103
1512.00,0.0105
1511.00,0.0108
1510.00,0.0110
1509.00,0.0113
1508.00,0.0117
1507.00,0.0122
1506.00,0.0127
1505.00,0.0132
1504.00,0.0136
1503.00,0.0139
1502.00,0.0143
1501.00,0.0147
1500.00,0.0151
1499.00,0.0156
1498.00,0.0162
1497.00,0.0169
1496.00,0.0176
1495.00,0.0183
1494.00,0.0189
1493.00,0.0195
1492.00,0.0201
1491.00,0.0209
1490.00,0.0219
1489.00,0.0230
1488.00,0.0241
1487.00,0.0252
1486.00,0.0262
1485.00,0.0273
1484.00,0.0284
1483.00,0.0296
1482.00,0.0309
1481.00,0.0324
1480.00,0.0341
1479.00,0.0358
1478.00,0.0379
1477.00,0.0405
1476.00,0.0438
1475.00,0.0475
1474.00,0.0516
1473.00,0.0562
1472.00,0.0606
1471.00,0.0640
1470.00,0.0663
1469.00,0.0680
1468.00,0.0691
1467.00,0.0697
1466.00,0.0700
1465.00,0.0698
1464.00,0.0691
1463.00,0.0677
1462.00,0.0659
1461.00,0.0637
1460.00,0.0614
1459.00,0.0591
1458.00,0.0567
1457.00,0.0543
1456.00,0.0522
1455.00,0.0506
1454.00,0.0491
1453.00,0.0473
1452.00,0.0453
1451.00,0.0433
1450.00,0.0414
1449.00,0.0395
1448.00,0.0377
1447.00,0.0363
1446.00,0.0353
1445.00,0.0345
1444.00,0.0341
1443.00,0.0339
1442.00,0.0338
1441.00,0.0339
1440.00,0.0340
1439.00,0.0342
1438.00,0.0346
1437.00,0.0351
1436.00,0.0359
1435.00,0.0366
1434.00,0.0373
1433.00,0.0378
1432.00,0.0385
1431.00,0.0393
1430.00,0.0402
1429.00,0.0411
1428.00,0.0419
1427.00,0.0427
1426.00,0.0436
1425.00,0.0445
1424.00,0.0456
1423.00,0.0467
1422.00,0.0478
1421.00,0.0488
1420.00,0.0501
1419.00,0.0518
1418.00,0.0536
1417.00,0.0552
1416.00,0.0567
1415.00,0.0582
1414.00,0.0597
1413.00,0.0612
1412.00,0.0627
1411.00,0.0641
1410.00,0.0654
1409.00,0.0666
1408.00,0.0675
1407.00,0.0683
1406.00,0.0690
1405.00,0.0697
1404.00,0.0704
1403.00,0.0711
1402.00,0.0716
1401.00,0.0722
1400.00,0.0729
1399.00,0.0737
1398.00,0.0745
1397.00,0.0753
1396.00,0.0763
1395.00,0.0774
1394.00,0.0785
1393.00,0.0796
1392.00,0.0807
1391.00,0.0820
1390.00,0.0840
1389.00,0.0872
1388.00,0.0920
1387.00,0.0985
1386.00,0.1062
1385.00,0.1147
1384.00,0.1240
1383.00,0.1337
1382.00,0.1428
1381.00,0.1500
1380.00,0.1542
1379.00,0.1546
1378.00,0.1516
1377.00,0.1460
1376.00,0.1390
1375.00,0.1316
1374.00,0.1253
1373.00,0.1208
1372.00,0.1182
1371.00,0.1169
1370.00,0.1162
1369.00,0.1155
1368.00,0.1141
1367.00,0.1114
1366.00,0.1074
1365.00,0.1019
1364.00,0.0950
1363.00,0.0870
1362.00,0.0791
1361.00,0.0721
1360.00,0.0663
1359.00,0.0616
1358.00,0.0578
1357.00,0.0547
1356.00,0.0523
1355.00,0.0504
1354.00,0.0492
1353.00,0.0485
1352.00,0.0483
1351.00,0.0486
1350.00,0.0494
1349.00,0.0508
1348.00,0.0526
1347.00,0.0549
1346.00,0.0575
1345.00,0.0604
1344.00,0.0631
1343.00,0.0654
1342.00,0.0668
1341.00,0.0671
1340.00,0.0662
1339.00,0.0644
1338.00,0.0619
1337.00,0.0594
1336.00,0.0571
1335.00,0.0550
1334.00,0.0534
1333.00,0.0522
1332.00,0.0514
1331.00,0.0510
1330.00,0.0510
1329.00,0.0514
1328.00,0.0522
1327.00,0.0532
1326.00,0.0546
1325.00,0.0562
1324.00,0.0580
1323.00,0.0599
1322.00,0.0620
1321.00,0.0641
1320.00,0.0662
1319.00,0.0683
1318.00,0.0703
1317.00,0.0722
1316.00,0.0740
1315.00,0.0756
1314.00,0.0770
1313.00,0.0783
1312.00,0.0794
1311.00,0.0803
1310.00,0.0810
1309.00,0.0816
1308.00,0.0820
1307.00,0.0823
1306.00,0.0824
1305.00,0.0823
1304.00,0.0821
1303.00,0.0816
1302.00,0.0809
1301.00,0.0800
1300.00,0.0789
1299.00,0.0776
1298.00,0.0761
1297.00,0.0745
1296.00,0.0727
1295.00,0.0709
1294.00,0.0691
1293.00,0.0672
1292.00,0.0654
1291.00,0.0635
1290.00,0.0616
1289.00,0.0598
1288.00,0.0580
1287.00,0.0562
1286.00,0.0545
1285.00,0.0528
1284.00,0.0512
1283.00,0.0496
1282.00,0.0482
1281.00,0.0469
1280.00,0.0457
1279.00,0.0446
1278.00,0.0437
1277.00,0.0429
1276.00,0.0422
1275.00,0.0416
1274.00,0.0412
1273.00,0.0409
1272.00,0.0407
1271.00,0.0405
1270.00,0.0404
1269.00,0.0404
1268.00,0.0404
1267.00,0.0404
1266.00,0.0404
1265.00,0.0404
1264.00,0.0403
1263.00,0.0401
1262.00,0.0398
1261.00,0.0396
1260.00,0.0393
1259.00,0.0392
1258.00,0.0392
1257.00,0.0393
1256.00,0.0396
1255.00,0.0400
1254.00,0.0403
1253.00,0.0406
1252.00,0.0406
1251.00,0.0402
1250.00,0.0395
1249.00,0.0386
1248.00,0.0375
1247.00,0.0365
1246.00,0.0356
1245.00,0.0350
1244.00,0.0345
1243.00,0.0341
1242.00,0.0338
1241.00,0.0334
1240.00,0.0330
1239.00,0.0326
1238.00,0.0321
1237.00,0.0315
1236.00,0.0309
1235.00,0.0301
1234.00,0.0294
1233.00,0.0286
1232.00,0.0277
1231.00,0.0269
1230.00,0.0261
1229.00,0.0253
1228.00,0.0246
1227.00,0.0239
1226.00,0.0232
1225.00,0.0226
1224.00,0.0219
1223.00,0.0214
1222.00,0.0208
1221.00,0.0204
1220.00,0.0200
1219.00,0.0196
1218.00,0.0193
1217.00,0.0190
1216.00,0.0187
1215.00,0.0185
1214.00,0.0183
1213.00,0.0181
1212.00,0.0179
1211.00,0.0178
1210.00,0.0178
1209.00,0.0178
1208.00,0.0178
1207.00,0.0178
1206.00,0.0179
1205.00,0.0180
1204.00,0.0180
1203.00,0.0182
1202.00,0.0184
1201.00,0.0186
1200.00,0.0189
1199.00,0.0192
1198.00,0.0196
1197.00,0.0201
1196.00,0.0206
1195.00,0.0212
1194.00,0.0220
1193.00,0.0228
1192.00,0.0237
1191.00,0.0246
1190.00,0.0256
1189.00,0.0266
1188.00,0.0275
1187.00,0.0286
1186.00,0.0297
1185.00,0.0308
1184.00,0.0321
1183.00,0.0334
1182.00,0.0349
1181.00,0.0366
1180.00,0.0384
1179.00,0.0405
1178.00,0.0430
1177.00,0.0458
1176.00,0.0492
1175.00,0.0532
1174.00,0.0581
1173.00,0.0641
1172.00,0.0712
1171.00,0.0797
1170.00,0.0896
1169.00,0.1007
1168.00,0.1129
1167.00,0.1256
1166.00,0.1384
1165.00,0.1506
1164.00,0.1612
1163.00,0.1697
1162.00,0.1755
1161.00,0.1788
1160.00,0.1795
1159.00,0.1780
1158.00,0.1747
1157.00,0.1699
1156.00,0.1642
1155.00,0.1581
1154.00,0.1519
1153.00,0.1459
1152.00,0.1404
1151.00,0.1354
1150.00,0.1309
1149.00,0.1270
1148.00,0.1236
1147.00,0.1208
1146.00,0.1187
1145.00,0.1173
1144.00,0.1167
1143.00,0.1169
1142.00,0.1181
1141.00,0.1205
1140.00,0.1241
1139.00,0.1290
1138.00,0.1354
1137.00,0.1432
1136.00,0.1523
1135.00,0.1624
1134.00,0.1734
1133.00,0.1845
1132.00,0.1950
1131.00,0.2041
1130.00,0.2109
1129.00,0.2147
1128.00,0.2152
1127.00,0.2124
1126.00,0.2064
1125.00,0.1982
1124.00,0.1887
1123.00,0.1788
1122.00,0.1696
1121.00,0.1617
1120.00,0.1556
1119.00,0.1514
1118.00,0.1490
1117.00,0.1481
1116.00,0.1484
1115.00,0.1495
1114.00,0.1512
1113.00,0.1531
1112.00,0.1550
1111.00,0.1567
1110.00,0.1582
1109.00,0.1592
1108.00,0.1597
1107.00,0.1595
1106.00,0.1586
1105.00,0.1568
1104.00,0.1541
1103.00,0.1506
1102.00,0.1464
1101.00,0.1416
1100.00,0.1364
1099.00,0.1308
1098.00,0.1252
1097.00,0.1196
1096.00,0.1141
1095.00,0.1088
1094.00,0.1038
1093.00,0.0990
1092.00,0.0945
1091.00,0.0902
1090.00,0.0861
1089.00,0.0822
1088.00,0.0784
1087.00,0.0749
1086.00,0.0716
1085.00,0.0686
1084.00,0.0658
1083.00,0.0634
1082.00,0.0614
1081.00,0.0595
1080.00,0.0577
1079.00,0.0560
1078.00,0.0545
1077.00,0.0531
1076.00,0.0519
1075.00,0.0509
1074.00,0.0501
1073.00,0.0493
1072.00,0.0483
1071.00,0.0472
1070.00,0.0459
1069.00,0.0444
1068.00,0.0429
1067.00,0.0414
1066.00,0.0400
1065.00,0.0386
1064.00,0.0373
1063.00,0.0362
1062.00,0.0351
1061.00,0.0341
1060.00,0.0331
1059.00,0.0319
1058.00,0.0308
1057.00,0.0297
1056.00,0.0286
1055.00,0.0276
1054.00,0.0265
1053.00,0.0255
1052.00,0.0244
1051.00,0.0234
1050.00,0.0225
1049.00,0.0217
1048.00,0.0208
1047.00,0.0201
1046.00,0.0193
1045.00,0.0186
1044.00,0.0180
1043.00,0.0173
1042.00,0.0168
1041.00,0.0164
1040.00,0.0159
1039.00,0.0155
1038.00,0.0151
1037.00,0.0148
1036.00,0.0145
1035.00,0.0142
1034.00,0.0140
1033.00,0.0139
1032.00,0.0137
1031.00,0.0136
1030.00,0.0135
1029.00,0.0134
1028.00,0.0132
1027.00,0.0131
1026.00,0.0131
1025.00,0.0131
1024.00,0.0130
1023.00,0.0130
1022.00,0.0131
1021.00,0.0130
1020.00,0.0130
1019.00,0.0129
1018.00,0.0129
1017.00,0.0129
1016.00,0.0129
1015.00,0.0128
1014.00,0.0129
1013.00,0.0129
1012.00,0.0129
1011.00,0.0130
1010.00,0.0131
1009.00,0.0132
1008.00,0.0133
1007.00,0.0133
1006.00,0.0134
1005.00,0.0135
1004.00,0.0135
1003.00,0.0136
1002.00,0.0137
1001.00,0.0138
1000.00,0.0138
999.00,0.0139
998.00,0.0140
997.00,0.0141
996.00,0.0143
995.00,0.0145
994.00,0.0148
993.00,0.0150
992.00,0.0153
991.00,0.0156
990.00,0.0159
989.00,0.0163
988.00,0.0168
987.00,0.0173
986.00,0.0180
985.00,0.0188
984.00,0.0196
983.00,0.0205
982.00,0.0216
981.00,0.0228
980.00,0.0242
979.00,0.0257
978.00,0.0275
977.00,0.0295
976.00,0.0317
975.00,0.0342
974.00,0.0369
973.00,0.0398
972.00,0.0428
971.00,0.0458
970.00,0.0490
969.00,0.0522
968.00,0.0555
967.00,0.0590
966.00,0.0630
965.00,0.0676
964.00,0.0733
963.00,0.0808
962.00,0.0910
961.00,0.1047
960.00,0.1226
959.00,0.1452
958.00,0.1721
957.00,0.2028
956.00,0.2361
955.00,0.2707
954.00,0.3047
953.00,0.3351
952.00,0.3582
951.00,0.3707
950.00,0.3708
949.00,0.3593
948.00,0.3383
947.00,0.3113
946.00,0.2813
945.00,0.2507
944.00,0.2213
943.00,0.1944
942.00,0.1709
941.00,0.1508
940.00,0.1341
939.00,0.1204
938.00,0.1092
937.00,0.0997
936.00,0.0913
935.00,0.0837
934.00,0.0767
933.00,0.0702
932.00,0.0642
931.00,0.0588
930.00,0.0541
929.00,0.0500
928.00,0.0464
927.00,0.0434
926.00,0.0409
925.00,0.0388
924.00,0.0370
923.00,0.0354
922.00,0.0340
921.00,0.0327
920.00,0.0313
919.00,0.0299
918.00,0.0286
917.00,0.0272
916.00,0.0260
915.00,0.0248
914.00,0.0239
913.00,0.0231
912.00,0.0224
911.00,0.0217
910.00,0.0212
909.00,0.0208
908.00,0.0203
907.00,0.0198
906.00,0.0195
905.00,0.0192
904.00,0.0189
903.00,0.0187
902.00,0.0185
901.00,0.0183
900.00,0.0181
899.00,0.0179
898.00,0.0178
897.00,0.0177
896.00,0.0176
895.00,0.0175
894.00,0.0174
893.00,0.0174
892.00,0.0173
891.00,0.0172
890.00,0.0172
889.00,0.0173
888.00,0.0172
887.00,0.0172
886.00,0.0173
885.00,0.0173
884.00,0.0173
883.00,0.0173
882.00,0.0174
881.00,0.0174
880.00,0.0174
879.00,0.0175
878.00,0.0176
877.00,0.0178
876.00,0.0179
875.00,0.0180
874.00,0.0181
873.00,0.0183
872.00,0.0184
871.00,0.0185
870.00,0.0186
869.00,0.0187
868.00,0.0188
867.00,0.0189
866.00,0.0191
865.00,0.0193
864.00,0.0194
863.00,0.0195
862.00,0.0197
861.00,0.0200
860.00,0.0201
859.00,0.0203
858.00,0.0206
857.00,0.0209
856.00,0.0211
855.00,0.0213
854.00,0.0216
853.00,0.0218
852.00,0.0220
851.00,0.0222
850.00,0.0225
849.00,0.0228
848.00,0.0231
847.00,0.0235
846.00,0.0240
845.00,0.0245
844.00,0.0249
843.00,0.0253
842.00,0.0258
841.00,0.0264
840.00,0.0269
839.00,0.0276
838.00,0.0284
837.00,0.0292
836.00,0.0301
835.00,0.0309
834.00,0.0318
833.00,0.0328
832.00,0.0339
831.00,0.0350
830.00,0.0364
829.00,0.0379
828.00,0.0396
827.00,0.0419
826.00,0.0449
825.00,0.0492
824.00,0.0553
823.00,0.0643
822.00,0.0772
821.00,0.0941
820.00,0.1140
819.00,0.1346
818.00,0.1519
817.00,0.1621
816.00,0.1625
815.00,0.1534
814.00,0.1375
813.00,0.1183
812.00,0.0994
811.00,0.0831
810.00,0.0704
809.00,0.0611
808.00,0.0545
807.00,0.0497
806.00,0.0464
805.00,0.0441
804.00,0.0424
803.00,0.0412
802.00,0.0403
801.00,0.0397
800.00,0.0392
799.00,0.0388
798.00,0.0386
797.00,0.0385
796.00,0.0383
795.00,0.0381
794.00,0.0380
793.00,0.0380
792.00,0.0379
791.00,0.0380
790.00,0.0382
789.00,0.0384
788.00,0.0386
787.00,0.0388
786.00,0.0392
785.00,0.0395
784.00,0.0398
783.00,0.0400
782.00,0.0403
781.00,0.0407
780.00,0.0410
779.00,0.0413
778.00,0.0417
777.00,0.0420
776.00,0.0423
775.00,0.0426
774.00,0.0429
773.00,0.0433
772.00,0.0436
771.00,0.0439
770.00,0.0444
769.00,0.0448
768.00,0.0452
767.00,0.0456
766.00,0.0460
765.00,0.0464
764.00,0.0468
763.00,0.0471
762.00,0.0475
761.00,0.0479
760.00,0.0483
759.00,0.0486
758.00,0.0491
757.00,0.0496
756.00,0.0501
755.00,0.0505
754.00,0.0509
753.00,0.0513
752.00,0.0518
751.00,0.0522
750.00,0.0527
749.00,0.0532
748.00,0.0535
747.00,0.0539
746.00,0.0544
745.00,0.0549
744.00,0.0553
743.00,0.0558
742.00,0.0563
741.00,0.0568
740.00,0.0571
739.00,0.0574
738.00,0.0578
737.00,0.0583
736.00,0.0586
735.00,0.0590
734.00,0.0596
733.00,0.0601
732.00,0.0605
731.00,0.0610
730.00,0.0615
729.00,0.0620
728.00,0.0624
727.00,0.0628
726.00,0.0633
725.00,0.0637
724.00,0.0641
723.00,0.0645
722.00,0.0649
721.00,0.0653
720.00,0.0658
719.00,0.0663
718.00,0.0669
717.00,0.0674
716.00,0.0678
715.00,0.0682
714.00,0.0687
713.00,0.0691
712.00,0.0695
711.00,0.0700
710.00,0.0705
709.00,0.0710
708.00,0.0714
707.00,0.0719
706.00,0.0724
705.00,0.0729
704.00,0.0734
703.00,0.0739
702.00,0.0745
701.00,0.0751
700.00,0.0755
699.00,0.0758
698.00,0.0762
697.00,0.0766
696.00,0.0769
695.00,0.0773
694.00,0.0778
693.00,0.0783
692.00,0.0787
691.00,0.0790
690.00,0.0794
689.00,0.0798
688.00,0.0802
687.00,0.0806
686.00,0.0812
685.00,0.0817
684.00,0.0820
683.00,0.0823
682.00,0.0827
681.00,0.0831
680.00,0.0834
679.00,0.0838
678.00,0.0842
677.00,0.0846
676.00,0.0849
675.00,0.0852
674.00,0.0856
673.00,0.0860
672.00,0.0863
671.00,0.0865
670.00,0.0867
669.00,0.0869
668.00,0.0873
667.00,0.0877
666.00,0.0883
665.00,0.0886
664.00,0.0888
663.00,0.0890
662.00,0.0893
661.00,0.0896
660.00,0.0899
659.00,0.0901
658.00,0.0904
657.00,0.0907
656.00,0.0909
655.00,0.0911
654.00,0.0915
653.00,0.0919
652.00,0.0921
651.00,0.0923
650.00,0.0925
649.00,0.0925
648.00,0.0925
647.00,0.0926
646.00,0.0928
645.00,0.0931
644.00,0.0933
643.00,0.0935
642.00,0.0938
641.00,0.0940
640.00,0.0941
639.00,0.0942
638.00,0.0943
637.00,0.0943
636.00,0.0941
635.00,0.0940
634.00,0.0941
633.00,0.0942
632.00,0.0943
631.00,0.0944
630.00,0.0946
629.00,0.0946
628.00,0.0945
627.00,0.0944
626.00,0.0945
625.00,0.0945
624.00,0.0945
623.00,0.0944
622.00,0.0945
621.00,0.0944
620.00,0.0942
619.00,0.0940
618.00,0.0939
617.00,0.0939
616.00,0.0938
615.00,0.0937
614.00,0.0938
613.00,0.0937
612.00,0.0936
611.00,0.0934
610.00,0.0933
609.00,0.0932
608.00,0.0929
607.00,0.0927
606.00,0.0926
605.00,0.0923
604.00,0.0920
603.00,0.0916
602.00,0.0915
601.00,0.0914
600.00,0.0913
599.00,0.0912
598.00,0.0912
597.00,0.0910
596.00,0.0906
595.00,0.0902
594.00,0.0899
593.00,0.0895
592.00,0.0891
591.00,0.0888
590.00,0.0888
589.00,0.0888
588.00,0.0886
587.00,0.0885
586.00,0.0884
585.00,0.0883
584.00,0.0880
583.00,0.0876
582.00,0.0874
581.00,0.0872
580.00,0.0868
579.00,0.0864
578.00,0.0861
577.00,0.0859
576.00,0.0854
575.00,0.0851
574.00,0.0851
573.00,0.0850
572.00,0.0847
571.00,0.0843
570.00,0.0839
569.00,0.0836
568.00,0.0832
567.00,0.0830
566.00,0.0829
565.00,0.0828
564.00,0.0824
563.00,0.0820
562.00,0.0818
561.00,0.0816
560.00,0.0812
559.00,0.0808
558.00,0.0808
557.00,0.0808
556.00,0.0805
555.00,0.0801
554.00,0.0799
553.00,0.0798
552.00,0.0794
551.00,0.0791
550.00,0.0790
549.00,0.0789
548.00,0.0785
547.00,0.0780
546.00,0.0777
545.00,0.0774
544.00,0.0770
543.00,0.0768
542.00,0.0768
541.00,0.0767
540.00,0.0763
539.00,0.0759
538.00,0.0758
537.00,0.0756
536.00,0.0753
535.00,0.0751
534.00,0.0752
533.00,0.0751
532.00,0.0747
531.00,0.0743
530.00,0.0742
529.00,0.0740
528.00,0.0735
527.00,0.0730
526.00,0.0728
525.00,0.0728
524.00,0.0727
523.00,0.0727
522.00,0.0730
521.00,0.0730
520.00,0.0726
519.00,0.0720
518.00,0.0718
517.00,0.0717
516.00,0.0715
515.00,0.0714
514.00,0.0716
513.00,0.0718
512.00,0.0718
511.00,0.0719
510.00,0.0722
509.00,0.0723
508.00,0.0720
507.00,0.0718
506.00,0.0721
505.00,0.0725
504.00,0.0727
503.00,0.0732
502.00,0.0742
501.00,0.0754
500.00,0.0764
499.00,0.0776
498.00,0.0794
497.00,0.0815
496.00,0.0834
495.00,0.0853
494.00,0.0876
493.00,0.0900
492.00,0.0922
491.00,0.0943
490.00,0.0965
489.00,0.0983
488.00,0.0994
487.00,0.1000
486.00,0.1000
485.00,0.0989
484.00,0.0965
483.00,0.0936
482.00,0.0909
481.00,0.0883
480.00,0.0857
479.00,0.0835
478.00,0.0819
477.00,0.0802
476.00,0.0783
475.00,0.0766
474.00,0.0757
473.00,0.0748
472.00,0.0736
471.00,0.0725
470.00,0.0720
469.00,0.0714
468.00,0.0704
467.00,0.0696
466.00,0.0694
465.00,0.0693
464.00,0.0689
463.00,0.0686
462.00,0.0687
461.00,0.0684
460.00,0.0675
459.00,0.0668
458.00,0.0673
457.00,0.0682
456.00,0.0684
455.00,0.0684
454.00,0.0688
453.00,0.0691
452.00,0.0692
451.00,0.0697
450.00,0.0707
449.00,0.0714
448.00,0.0714
447.00,0.0713
446.00,0.0718
445.00,0.0725
444.00,0.0729
443.00,0.0739
442.00,0.0755
441.00,0.0770
440.00,0.0776
439.00,0.0785
438.00,0.0802
437.00,0.0820
436.00,0.0829
435.00,0.0837
434.00,0.0852
433.00,0.0869
432.00,0.0885
431.00,0.0905
430.00,0.0931
429.00,0.0949
428.00,0.0953
427.00,0.0954
426.00,0.0963
425.00,0.0973
424.00,0.0973
423.00,0.0971
422.00,0.0976
421.00,0.0978
420.00,0.0961
419.00,0.0926
418.00,0.0889
417.00,0.0854
416.00,0.0817
415.00,0.0788
414.00,0.0772
413.00,0.0757
412.00,0.0733
411.00,0.0711
410.00,0.0704
409.00,0.0698
408.00,0.0681
407.00,0.0664
406.00,0.0663
405.00,0.0662
404.00,0.0645
403.00,0.0626
402.00,0.0624
401.00,0.0622
400.00,0.0599
