Created as New Dataset,Sample 847 By YargerLab Date Monday, July 21 2025
cm-1,A
4000.00,0.0086
3999.00,0.0086
3998.00,0.0086
3997.00,0.0086
3996.00,0.0086
3995.00,0.0086
3994.00,0.0086
3993.00,0.0086
3992.00,0.0086
3991.00,0.0086
3990.00,0.0086
3989.00,0.0085
3988.00,0.0085
3987.00,0.0085
3986.00,0.0085
3985.00,0.0086
3984.00,0.0086
3983.00,0.0086
3982.00,0.0086
3981.00,0.0086
3980.00,0.0086
3979.00,0.0086
3978.00,0.0086
3977.00,0.0086
3976.00,0.0086
3975.00,0.0085
3974.00,0.0085
3973.00,0.0085
3972.00,0.0086
3971.00,0.0086
3970.00,0.0086
3969.00,0.0086
3968.00,0.0086
3967.00,0.0086
3966.00,0.0087
3965.00,0.0087
3964.00,0.0087
3963.00,0.0087
3962.00,0.0087
3961.00,0.0087
3960.00,0.0087
3959.00,0.0087
3958.00,0.0087
3957.00,0.0087
3956.00,0.0087
3955.00,0.0087
3954.00,0.0087
3953.00,0.0087
3952.00,0.0087
3951.00,0.0087
3950.00,0.0087
3949.00,0.0087
3948.00,0.0087
3947.00,0.0087
3946.00,0.0087
3945.00,0.0087
3944.00,0.0087
3943.00,0.0087
3942.00,0.0086
3941.00,0.0086
3940.00,0.0086
3939.00,0.0086
3938.00,0.0086
3937.00,0.0086
3936.00,0.0087
3935.00,0.0087
3934.00,0.0087
3933.00,0.0087
3932.00,0.0087
3931.00,0.0087
3930.00,0.0087
3929.00,0.0088
3928.00,0.0088
3927.00,0.0088
3926.00,0.0088
3925.00,0.0088
3924.00,0.0088
3923.00,0.0088
3922.00,0.0088
3921.00,0.0088
3920.00,0.0088
3919.00,0.0088
3918.00,0.0087
3917.00,0.0087
3916.00,0.0086
3915.00,0.0086
3914.00,0.0086
3913.00,0.0086
3912.00,0.0086
3911.00,0.0087
3910.00,0.0087
3909.00,0.0087
3908.00,0.0087
3907.00,0.0087
3906.00,0.0086
3905.00,0.0086
3904.00,0.0086
3903.00,0.0086
3902.00,0.0087
3901.00,0.0087
3900.00,0.0086
3899.00,0.0086
3898.00,0.0086
3897.00,0.0086
3896.00,0.0086
3895.00,0.0086
3894.00,0.0086
3893.00,0.0085
3892.00,0.0085
3891.00,0.0085
3890.00,0.0085
3889.00,0.0085
3888.00,0.0085
3887.00,0.0085
3886.00,0.0085
3885.00,0.0085
3884.00,0.0085
3883.00,0.0085
3882.00,0.0085
3881.00,0.0085
3880.00,0.0085
3879.00,0.0085
3878.00,0.0085
3877.00,0.0085
3876.00,0.0085
3875.00,0.0085
3874.00,0.0085
3873.00,0.0085
3872.00,0.0085
3871.00,0.0085
3870.00,0.0085
3869.00,0.0085
3868.00,0.0085
3867.00,0.0085
3866.00,0.0085
3865.00,0.0084
3864.00,0.0084
3863.00,0.0084
3862.00,0.0085
3861.00,0.0085
3860.00,0.0085
3859.00,0.0085
3858.00,0.0085
3857.00,0.0085
3856.00,0.0085
3855.00,0.0084
3854.00,0.0084
3853.00,0.0084
3852.00,0.0084
3851.00,0.0084
3850.00,0.0084
3849.00,0.0084
3848.00,0.0084
3847.00,0.0084
3846.00,0.0084
3845.00,0.0085
3844.00,0.0085
3843.00,0.0085
3842.00,0.0085
3841.00,0.0085
3840.00,0.0085
3839.00,0.0085
3838.00,0.0085
3837.00,0.0085
3836.00,0.0085
3835.00,0.0085
3834.00,0.0085
3833.00,0.0084
3832.00,0.0084
3831.00,0.0084
3830.00,0.0084
3829.00,0.0084
3828.00,0.0084
3827.00,0.0083
3826.00,0.0083
3825.00,0.0084
3824.00,0.0084
3823.00,0.0084
3822.00,0.0084
3821.00,0.0083
3820.00,0.0083
3819.00,0.0084
3818.00,0.0083
3817.00,0.0083
3816.00,0.0083
3815.00,0.0083
3814.00,0.0083
3813.00,0.0083
3812.00,0.0083
3811.00,0.0082
3810.00,0.0083
3809.00,0.0083
3808.00,0.0083
3807.00,0.0083
3806.00,0.0084
3805.00,0.0084
3804.00,0.0084
3803.00,0.0084
3802.00,0.0083
3801.00,0.0083
3800.00,0.0083
3799.00,0.0083
3798.00,0.0083
3797.00,0.0082
3796.00,0.0082
3795.00,0.0082
3794.00,0.0082
3793.00,0.0082
3792.00,0.0082
3791.00,0.0081
3790.00,0.0081
3789.00,0.0081
3788.00,0.0081
3787.00,0.0081
3786.00,0.0081
3785.00,0.0082
3784.00,0.0082
3783.00,0.0082
3782.00,0.0082
3781.00,0.0082
3780.00,0.0082
3779.00,0.0082
3778.00,0.0082
3777.00,0.0082
3776.00,0.0082
3775.00,0.0082
3774.00,0.0082
3773.00,0.0082
3772.00,0.0082
3771.00,0.0082
3770.00,0.0082
3769.00,0.0082
3768.00,0.0082
3767.00,0.0082
3766.00,0.0082
3765.00,0.0082
3764.00,0.0082
3763.00,0.0082
3762.00,0.0081
3761.00,0.0081
3760.00,0.0081
3759.00,0.0081
3758.00,0.0082
3757.00,0.0082
3756.00,0.0082
3755.00,0.0081
3754.00,0.0081
3753.00,0.0081
3752.00,0.0082
3751.00,0.0082
3750.00,0.0082
3749.00,0.0083
3748.00,0.0083
3747.00,0.0082
3746.00,0.0082
3745.00,0.0082
3744.00,0.0082
3743.00,0.0082
3742.00,0.0082
3741.00,0.0082
3740.00,0.0082
3739.00,0.0082
3738.00,0.0082
3737.00,0.0082
3736.00,0.0081
3735.00,0.0081
3734.00,0.0081
3733.00,0.0080
3732.00,0.0080
3731.00,0.0080
3730.00,0.0080
3729.00,0.0080
3728.00,0.0080
3727.00,0.0080
3726.00,0.0079
3725.00,0.0079
3724.00,0.0079
3723.00,0.0079
3722.00,0.0079
3721.00,0.0079
3720.00,0.0079
3719.00,0.0079
3718.00,0.0079
3717.00,0.0079
3716.00,0.0079
3715.00,0.0080
3714.00,0.0080
3713.00,0.0080
3712.00,0.0080
3711.00,0.0080
3710.00,0.0079
3709.00,0.0079
3708.00,0.0079
3707.00,0.0079
3706.00,0.0079
3705.00,0.0079
3704.00,0.0079
3703.00,0.0078
3702.00,0.0078
3701.00,0.0078
3700.00,0.0078
3699.00,0.0078
3698.00,0.0078
3697.00,0.0078
3696.00,0.0078
3695.00,0.0078
3694.00,0.0078
3693.00,0.0079
3692.00,0.0079
3691.00,0.0079
3690.00,0.0079
3689.00,0.0079
3688.00,0.0078
3687.00,0.0078
3686.00,0.0078
3685.00,0.0078
3684.00,0.0078
3683.00,0.0078
3682.00,0.0078
3681.00,0.0079
3680.00,0.0079
3679.00,0.0080
3678.00,0.0080
3677.00,0.0080
3676.00,0.0079
3675.00,0.0079
3674.00,0.0079
3673.00,0.0079
3672.00,0.0079
3671.00,0.0079
3670.00,0.0079
3669.00,0.0079
3668.00,0.0079
3667.00,0.0078
3666.00,0.0078
3665.00,0.0078
3664.00,0.0078
3663.00,0.0078
3662.00,0.0078
3661.00,0.0078
3660.00,0.0078
3659.00,0.0078
3658.00,0.0078
3657.00,0.0078
3656.00,0.0078
3655.00,0.0078
3654.00,0.0078
3653.00,0.0078
3652.00,0.0078
3651.00,0.0078
3650.00,0.0078
3649.00,0.0078
3648.00,0.0077
3647.00,0.0077
3646.00,0.0077
3645.00,0.0076
3644.00,0.0076
3643.00,0.0076
3642.00,0.0076
3641.00,0.0076
3640.00,0.0076
3639.00,0.0076
3638.00,0.0076
3637.00,0.0076
3636.00,0.0076
3635.00,0.0076
3634.00,0.0076
3633.00,0.0077
3632.00,0.0077
3631.00,0.0077
3630.00,0.0077
3629.00,0.0077
3628.00,0.0077
3627.00,0.0077
3626.00,0.0077
3625.00,0.0077
3624.00,0.0077
3623.00,0.0076
3622.00,0.0076
3621.00,0.0076
3620.00,0.0076
3619.00,0.0076
3618.00,0.0076
3617.00,0.0077
3616.00,0.0077
3615.00,0.0077
3614.00,0.0077
3613.00,0.0077
3612.00,0.0078
3611.00,0.0078
3610.00,0.0079
3609.00,0.0079
3608.00,0.0079
3607.00,0.0079
3606.00,0.0078
3605.00,0.0078
3604.00,0.0078
3603.00,0.0077
3602.00,0.0077
3601.00,0.0078
3600.00,0.0078
3599.00,0.0078
3598.00,0.0078
3597.00,0.0078
3596.00,0.0079
3595.00,0.0079
3594.00,0.0079
3593.00,0.0078
3592.00,0.0078
3591.00,0.0078
3590.00,0.0079
3589.00,0.0079
3588.00,0.0079
3587.00,0.0079
3586.00,0.0079
3585.00,0.0080
3584.00,0.0080
3583.00,0.0080
3582.00,0.0080
3581.00,0.0080
3580.00,0.0081
3579.00,0.0081
3578.00,0.0082
3577.00,0.0082
3576.00,0.0082
3575.00,0.0083
3574.00,0.0083
3573.00,0.0084
3572.00,0.0084
3571.00,0.0085
3570.00,0.0085
3569.00,0.0086
3568.00,0.0087
3567.00,0.0087
3566.00,0.0088
3565.00,0.0088
3564.00,0.0089
3563.00,0.0090
3562.00,0.0090
3561.00,0.0091
3560.00,0.0092
3559.00,0.0093
3558.00,0.0095
3557.00,0.0096
3556.00,0.0097
3555.00,0.0098
3554.00,0.0100
3553.00,0.0101
3552.00,0.0103
3551.00,0.0105
3550.00,0.0107
3549.00,0.0109
3548.00,0.0111
3547.00,0.0114
3546.00,0.0118
3545.00,0.0122
3544.00,0.0126
3543.00,0.0130
3542.00,0.0135
3541.00,0.0140
3540.00,0.0146
3539.00,0.0153
3538.00,0.0160
3537.00,0.0169
3536.00,0.0179
3535.00,0.0191
3534.00,0.0205
3533.00,0.0221
3532.00,0.0239
3531.00,0.0262
3530.00,0.0288
3529.00,0.0317
3528.00,0.0350
3527.00,0.0384
3526.00,0.0417
3525.00,0.0448
3524.00,0.0475
3523.00,0.0496
3522.00,0.0509
3521.00,0.0515
3520.00,0.0513
3519.00,0.0504
3518.00,0.0490
3517.00,0.0471
3516.00,0.0448
3515.00,0.0424
3514.00,0.0400
3513.00,0.0377
3512.00,0.0355
3511.00,0.0334
3510.00,0.0316
3509.00,0.0301
3508.00,0.0288
3507.00,0.0277
3506.00,0.0268
3505.00,0.0260
3504.00,0.0254
3503.00,0.0249
3502.00,0.0245
3501.00,0.0243
3500.00,0.0241
3499.00,0.0239
3498.00,0.0238
3497.00,0.0238
3496.00,0.0238
3495.00,0.0238
3494.00,0.0239
3493.00,0.0240
3492.00,0.0241
3491.00,0.0243
3490.00,0.0244
3489.00,0.0246
3488.00,0.0248
3487.00,0.0251
3486.00,0.0253
3485.00,0.0256
3484.00,0.0258
3483.00,0.0261
3482.00,0.0265
3481.00,0.0269
3480.00,0.0273
3479.00,0.0277
3478.00,0.0281
3477.00,0.0285
3476.00,0.0290
3475.00,0.0295
3474.00,0.0300
3473.00,0.0305
3472.00,0.0310
3471.00,0.0316
3470.00,0.0322
3469.00,0.0328
3468.00,0.0334
3467.00,0.0340
3466.00,0.0346
3465.00,0.0352
3464.00,0.0358
3463.00,0.0365
3462.00,0.0372
3461.00,0.0379
3460.00,0.0386
3459.00,0.0393
3458.00,0.0399
3457.00,0.0406
3456.00,0.0412
3455.00,0.0419
3454.00,0.0425
3453.00,0.0432
3452.00,0.0438
3451.00,0.0444
3450.00,0.0450
3449.00,0.0456
3448.00,0.0462
3447.00,0.0469
3446.00,0.0475
3445.00,0.0481
3444.00,0.0487
3443.00,0.0493
3442.00,0.0499
3441.00,0.0505
3440.00,0.0511
3439.00,0.0516
3438.00,0.0522
3437.00,0.0527
3436.00,0.0533
3435.00,0.0537
3434.00,0.0542
3433.00,0.0547
3432.00,0.0551
3431.00,0.0556
3430.00,0.0561
3429.00,0.0566
3428.00,0.0571
3427.00,0.0576
3426.00,0.0581
3425.00,0.0587
3424.00,0.0593
3423.00,0.0600
3422.00,0.0608
3421.00,0.0616
3420.00,0.0625
3419.00,0.0634
3418.00,0.0643
3417.00,0.0652
3416.00,0.0662
3415.00,0.0671
3414.00,0.0679
3413.00,0.0685
3412.00,0.0691
3411.00,0.0694
3410.00,0.0695
3409.00,0.0694
3408.00,0.0690
3407.00,0.0684
3406.00,0.0675
3405.00,0.0664
3404.00,0.0650
3403.00,0.0634
3402.00,0.0617
3401.00,0.0598
3400.00,0.0578
3399.00,0.0557
3398.00,0.0536
3397.00,0.0516
3396.00,0.0496
3395.00,0.0478
3394.00,0.0460
3393.00,0.0443
3392.00,0.0427
3391.00,0.0413
3390.00,0.0399
3389.00,0.0386
3388.00,0.0374
3387.00,0.0363
3386.00,0.0353
3385.00,0.0343
3384.00,0.0334
3383.00,0.0326
3382.00,0.0318
3381.00,0.0311
3380.00,0.0304
3379.00,0.0297
3378.00,0.0291
3377.00,0.0284
3376.00,0.0279
3375.00,0.0273
3374.00,0.0268
3373.00,0.0263
3372.00,0.0258
3371.00,0.0253
3370.00,0.0249
3369.00,0.0244
3368.00,0.0240
3367.00,0.0236
3366.00,0.0232
3365.00,0.0228
3364.00,0.0224
3363.00,0.0221
3362.00,0.0217
3361.00,0.0213
3360.00,0.0210
3359.00,0.0207
3358.00,0.0204
3357.00,0.0201
3356.00,0.0198
3355.00,0.0195
3354.00,0.0193
3353.00,0.0190
3352.00,0.0188
3351.00,0.0186
3350.00,0.0184
3349.00,0.0181
3348.00,0.0179
3347.00,0.0177
3346.00,0.0175
3345.00,0.0174
3344.00,0.0172
3343.00,0.0170
3342.00,0.0168
3341.00,0.0166
3340.00,0.0164
3339.00,0.0162
3338.00,0.0161
3337.00,0.0159
3336.00,0.0158
3335.00,0.0157
3334.00,0.0155
3333.00,0.0154
3332.00,0.0153
3331.00,0.0152
3330.00,0.0150
3329.00,0.0149
3328.00,0.0148
3327.00,0.0146
3326.00,0.0145
3325.00,0.0144
3324.00,0.0143
3323.00,0.0142
3322.00,0.0141
3321.00,0.0140
3320.00,0.0139
3319.00,0.0138
3318.00,0.0137
3317.00,0.0136
3316.00,0.0135
3315.00,0.0134
3314.00,0.0133
3313.00,0.0132
3312.00,0.0131
3311.00,0.0131
3310.00,0.0130
3309.00,0.0129
3308.00,0.0128
3307.00,0.0128
3306.00,0.0127
3305.00,0.0126
3304.00,0.0125
3303.00,0.0125
3302.00,0.0124
3301.00,0.0123
3300.00,0.0123
3299.00,0.0122
3298.00,0.0121
3297.00,0.0120
3296.00,0.0120
3295.00,0.0119
3294.00,0.0118
3293.00,0.0118
3292.00,0.0117
3291.00,0.0117
3290.00,0.0116
3289.00,0.0116
3288.00,0.0116
3287.00,0.0115
3286.00,0.0114
3285.00,0.0114
3284.00,0.0113
3283.00,0.0113
3282.00,0.0112
3281.00,0.0112
3280.00,0.0111
3279.00,0.0110
3278.00,0.0109
3277.00,0.0109
3276.00,0.0108
3275.00,0.0108
3274.00,0.0107
3273.00,0.0107
3272.00,0.0107
3271.00,0.0106
3270.00,0.0106
3269.00,0.0107
3268.00,0.0107
3267.00,0.0107
3266.00,0.0107
3265.00,0.0107
3264.00,0.0107
3263.00,0.0107
3262.00,0.0107
3261.00,0.0106
3260.00,0.0106
3259.00,0.0106
3258.00,0.0106
3257.00,0.0105
3256.00,0.0105
3255.00,0.0105
3254.00,0.0105
3253.00,0.0105
3252.00,0.0105
3251.00,0.0105
3250.00,0.0104
3249.00,0.0104
3248.00,0.0103
3247.00,0.0103
3246.00,0.0103
3245.00,0.0103
3244.00,0.0104
3243.00,0.0103
3242.00,0.0103
3241.00,0.0103
3240.00,0.0102
3239.00,0.0102
3238.00,0.0101
3237.00,0.0100
3236.00,0.0100
3235.00,0.0099
3234.00,0.0099
3233.00,0.0099
3232.00,0.0098
3231.00,0.0098
3230.00,0.0098
3229.00,0.0098
3228.00,0.0098
3227.00,0.0098
3226.00,0.0098
3225.00,0.0098
3224.00,0.0098
3223.00,0.0098
3222.00,0.0098
3221.00,0.0098
3220.00,0.0098
3219.00,0.0098
3218.00,0.0098
3217.00,0.0098
3216.00,0.0098
3215.00,0.0097
3214.00,0.0097
3213.00,0.0097
3212.00,0.0097
3211.00,0.0097
3210.00,0.0097
3209.00,0.0097
3208.00,0.0097
3207.00,0.0096
3206.00,0.0096
3205.00,0.0096
3204.00,0.0096
3203.00,0.0096
3202.00,0.0096
3201.00,0.0096
3200.00,0.0096
3199.00,0.0096
3198.00,0.0096
3197.00,0.0096
3196.00,0.0095
3195.00,0.0095
3194.00,0.0095
3193.00,0.0095
3192.00,0.0095
3191.00,0.0095
3190.00,0.0095
3189.00,0.0095
3188.00,0.0094
3187.00,0.0094
3186.00,0.0094
3185.00,0.0095
3184.00,0.0095
3183.00,0.0095
3182.00,0.0095
3181.00,0.0095
3180.00,0.0095
3179.00,0.0095
3178.00,0.0095
3177.00,0.0095
3176.00,0.0095
3175.00,0.0096
3174.00,0.0096
3173.00,0.0096
3172.00,0.0096
3171.00,0.0096
3170.00,0.0097
3169.00,0.0097
3168.00,0.0097
3167.00,0.0097
3166.00,0.0098
3165.00,0.0098
3164.00,0.0098
3163.00,0.0098
3162.00,0.0098
3161.00,0.0098
3160.00,0.0098
3159.00,0.0097
3158.00,0.0097
3157.00,0.0096
3156.00,0.0095
3155.00,0.0094
3154.00,0.0094
3153.00,0.0094
3152.00,0.0094
3151.00,0.0094
3150.00,0.0094
3149.00,0.0094
3148.00,0.0094
3147.00,0.0094
3146.00,0.0094
3145.00,0.0094
3144.00,0.0094
3143.00,0.0094
3142.00,0.0093
3141.00,0.0093
3140.00,0.0093
3139.00,0.0093
3138.00,0.0093
3137.00,0.0093
3136.00,0.0093
3135.00,0.0093
3134.00,0.0093
3133.00,0.0093
3132.00,0.0093
3131.00,0.0093
3130.00,0.0093
3129.00,0.0093
3128.00,0.0093
3127.00,0.0092
3126.00,0.0092
3125.00,0.0092
3124.00,0.0092
3123.00,0.0092
3122.00,0.0091
3121.00,0.0091
3120.00,0.0091
3119.00,0.0091
3118.00,0.0091
3117.00,0.0091
3116.00,0.0091
3115.00,0.0091
3114.00,0.0091
3113.00,0.0092
3112.00,0.0092
3111.00,0.0092
3110.00,0.0092
3109.00,0.0092
3108.00,0.0092
3107.00,0.0092
3106.00,0.0092
3105.00,0.0091
3104.00,0.0091
3103.00,0.0092
3102.00,0.0092
3101.00,0.0092
3100.00,0.0093
3099.00,0.0093
3098.00,0.0094
3097.00,0.0094
3096.00,0.0094
3095.00,0.0094
3094.00,0.0094
3093.00,0.0095
3092.00,0.0095
3091.00,0.0095
3090.00,0.0096
3089.00,0.0096
3088.00,0.0097
3087.00,0.0098
3086.00,0.0099
3085.00,0.0101
3084.00,0.0103
3083.00,0.0106
3082.00,0.0111
3081.00,0.0117
3080.00,0.0125
3079.00,0.0135
3078.00,0.0147
3077.00,0.0159
3076.00,0.0170
3075.00,0.0178
3074.00,0.0180
3073.00,0.0176
3072.00,0.0168
3071.00,0.0157
3070.00,0.0146
3069.00,0.0136
3068.00,0.0128
3067.00,0.0121
3066.00,0.0117
3065.00,0.0113
3064.00,0.0110
3063.00,0.0108
3062.00,0.0106
3061.00,0.0105
3060.00,0.0104
3059.00,0.0103
3058.00,0.0102
3057.00,0.0102
3056.00,0.0101
3055.00,0.0100
3054.00,0.0100
3053.00,0.0099
3052.00,0.0099
3051.00,0.0100
3050.00,0.0100
3049.00,0.0101
3048.00,0.0102
3047.00,0.0103
3046.00,0.0104
3045.00,0.0105
3044.00,0.0106
3043.00,0.0107
3042.00,0.0108
3041.00,0.0109
3040.00,0.0111
3039.00,0.0112
3038.00,0.0113
3037.00,0.0115
3036.00,0.0116
3035.00,0.0118
3034.00,0.0120
3033.00,0.0121
3032.00,0.0121
3031.00,0.0121
3030.00,0.0120
3029.00,0.0119
3028.00,0.0117
3027.00,0.0115
3026.00,0.0113
3025.00,0.0111
3024.00,0.0110
3023.00,0.0109
3022.00,0.0109
3021.00,0.0108
3020.00,0.0108
3019.00,0.0107
3018.00,0.0107
3017.00,0.0107
3016.00,0.0107
3015.00,0.0108
3014.00,0.0109
3013.00,0.0110
3012.00,0.0111
3011.00,0.0112
3010.00,0.0113
3009.00,0.0114
3008.00,0.0115
3007.00,0.0116
3006.00,0.0118
3005.00,0.0119
3004.00,0.0120
3003.00,0.0121
3002.00,0.0123
3001.00,0.0124
3000.00,0.0126
2999.00,0.0128
2998.00,0.0129
2997.00,0.0131
2996.00,0.0133
2995.00,0.0135
2994.00,0.0137
2993.00,0.0140
2992.00,0.0143
2991.00,0.0146
2990.00,0.0150
2989.00,0.0153
2988.00,0.0156
2987.00,0.0158
2986.00,0.0160
2985.00,0.0163
2984.00,0.0166
2983.00,0.0170
2982.00,0.0175
2981.00,0.0181
2980.00,0.0188
2979.00,0.0197
2978.00,0.0207
2977.00,0.0219
2976.00,0.0234
2975.00,0.0251
2974.00,0.0271
2973.00,0.0294
2972.00,0.0317
2971.00,0.0342
2970.00,0.0366
2969.00,0.0387
2968.00,0.0406
2967.00,0.0420
2966.00,0.0429
2965.00,0.0433
2964.00,0.0434
2963.00,0.0432
2962.00,0.0430
2961.00,0.0426
2960.00,0.0421
2959.00,0.0414
2958.00,0.0404
2957.00,0.0393
2956.00,0.0380
2955.00,0.0367
2954.00,0.0355
2953.00,0.0345
2952.00,0.0337
2951.00,0.0331
2950.00,0.0329
2949.00,0.0331
2948.00,0.0337
2947.00,0.0349
2946.00,0.0364
2945.00,0.0384
2944.00,0.0405
2943.00,0.0426
2942.00,0.0447
2941.00,0.0466
2940.00,0.0484
2939.00,0.0501
2938.00,0.0519
2937.00,0.0538
2936.00,0.0558
2935.00,0.0581
2934.00,0.0604
2933.00,0.0629
2932.00,0.0655
2931.00,0.0681
2930.00,0.0707
2929.00,0.0733
2928.00,0.0756
2927.00,0.0775
2926.00,0.0787
2925.00,0.0792
2924.00,0.0790
2923.00,0.0782
2922.00,0.0772
2921.00,0.0761
2920.00,0.0751
2919.00,0.0742
2918.00,0.0734
2917.00,0.0725
2916.00,0.0715
2915.00,0.0703
2914.00,0.0688
2913.00,0.0669
2912.00,0.0648
2911.00,0.0625
2910.00,0.0601
2909.00,0.0578
2908.00,0.0555
2907.00,0.0535
2906.00,0.0516
2905.00,0.0500
2904.00,0.0486
2903.00,0.0475
2902.00,0.0465
2901.00,0.0455
2900.00,0.0445
2899.00,0.0434
2898.00,0.0422
2897.00,0.0409
2896.00,0.0395
2895.00,0.0383
2894.00,0.0371
2893.00,0.0361
2892.00,0.0353
2891.00,0.0346
2890.00,0.0341
2889.00,0.0337
2888.00,0.0334
2887.00,0.0331
2886.00,0.0329
2885.00,0.0327
2884.00,0.0326
2883.00,0.0326
2882.00,0.0326
2881.00,0.0327
2880.00,0.0329
2879.00,0.0332
2878.00,0.0337
2877.00,0.0342
2876.00,0.0348
2875.00,0.0355
2874.00,0.0361
2873.00,0.0366
2872.00,0.0370
2871.00,0.0370
2870.00,0.0368
2869.00,0.0363
2868.00,0.0358
2867.00,0.0355
2866.00,0.0355
2865.00,0.0359
2864.00,0.0368
2863.00,0.0383
2862.00,0.0405
2861.00,0.0433
2860.00,0.0466
2859.00,0.0501
2858.00,0.0533
2857.00,0.0558
2856.00,0.0570
2855.00,0.0567
2854.00,0.0550
2853.00,0.0521
2852.00,0.0487
2851.00,0.0450
2850.00,0.0414
2849.00,0.0381
2848.00,0.0351
2847.00,0.0324
2846.00,0.0301
2845.00,0.0281
2844.00,0.0265
2843.00,0.0251
2842.00,0.0240
2841.00,0.0232
2840.00,0.0226
2839.00,0.0222
2838.00,0.0222
2837.00,0.0224
2836.00,0.0230
2835.00,0.0240
2834.00,0.0254
2833.00,0.0272
2832.00,0.0290
2831.00,0.0306
2830.00,0.0316
2829.00,0.0316
2828.00,0.0306
2827.00,0.0288
2826.00,0.0266
2825.00,0.0244
2824.00,0.0224
2823.00,0.0207
2822.00,0.0193
2821.00,0.0182
2820.00,0.0173
2819.00,0.0166
2818.00,0.0161
2817.00,0.0156
2816.00,0.0153
2815.00,0.0150
2814.00,0.0147
2813.00,0.0144
2812.00,0.0142
2811.00,0.0140
2810.00,0.0138
2809.00,0.0137
2808.00,0.0135
2807.00,0.0134
2806.00,0.0132
2805.00,0.0131
2804.00,0.0130
2803.00,0.0128
2802.00,0.0127
2801.00,0.0126
2800.00,0.0125
2799.00,0.0124
2798.00,0.0123
2797.00,0.0122
2796.00,0.0121
2795.00,0.0120
2794.00,0.0119
2793.00,0.0118
2792.00,0.0118
2791.00,0.0117
2790.00,0.0116
2789.00,0.0116
2788.00,0.0115
2787.00,0.0114
2786.00,0.0114
2785.00,0.0113
2784.00,0.0113
2783.00,0.0112
2782.00,0.0112
2781.00,0.0111
2780.00,0.0110
2779.00,0.0110
2778.00,0.0109
2777.00,0.0109
2776.00,0.0108
2775.00,0.0108
2774.00,0.0108
2773.00,0.0107
2772.00,0.0107
2771.00,0.0107
2770.00,0.0106
2769.00,0.0106
2768.00,0.0105
2767.00,0.0105
2766.00,0.0105
2765.00,0.0104
2764.00,0.0104
2763.00,0.0104
2762.00,0.0104
2761.00,0.0103
2760.00,0.0103
2759.00,0.0103
2758.00,0.0103
2757.00,0.0103
2756.00,0.0103
2755.00,0.0103
2754.00,0.0102
2753.00,0.0102
2752.00,0.0102
2751.00,0.0102
2750.00,0.0102
2749.00,0.0102
2748.00,0.0102
2747.00,0.0103
2746.00,0.0103
2745.00,0.0103
2744.00,0.0103
2743.00,0.0104
2742.00,0.0104
2741.00,0.0105
2740.00,0.0105
2739.00,0.0106
2738.00,0.0106
2737.00,0.0107
2736.00,0.0108
2735.00,0.0109
2734.00,0.0111
2733.00,0.0112
2732.00,0.0113
2731.00,0.0115
2730.00,0.0116
2729.00,0.0117
2728.00,0.0116
2727.00,0.0116
2726.00,0.0114
2725.00,0.0113
2724.00,0.0111
2723.00,0.0110
2722.00,0.0108
2721.00,0.0107
2720.00,0.0106
2719.00,0.0105
2718.00,0.0105
2717.00,0.0104
2716.00,0.0103
2715.00,0.0103
2714.00,0.0102
2713.00,0.0102
2712.00,0.0101
2711.00,0.0101
2710.00,0.0100
2709.00,0.0100
2708.00,0.0099
2707.00,0.0099
2706.00,0.0099
2705.00,0.0099
2704.00,0.0098
2703.00,0.0098
2702.00,0.0098
2701.00,0.0098
2700.00,0.0098
2699.00,0.0097
2698.00,0.0097
2697.00,0.0097
2696.00,0.0097
2695.00,0.0097
2694.00,0.0097
2693.00,0.0097
2692.00,0.0097
2691.00,0.0097
2690.00,0.0097
2689.00,0.0098
2688.00,0.0098
2687.00,0.0098
2686.00,0.0098
2685.00,0.0098
2684.00,0.0098
2683.00,0.0098
2682.00,0.0099
2681.00,0.0099
2680.00,0.0099
2679.00,0.0100
2678.00,0.0100
2677.00,0.0100
2676.00,0.0101
2675.00,0.0101
2674.00,0.0101
2673.00,0.0101
2672.00,0.0102
2671.00,0.0102
2670.00,0.0102
2669.00,0.0102
2668.00,0.0103
2667.00,0.0103
2666.00,0.0103
2665.00,0.0103
2664.00,0.0104
2663.00,0.0104
2662.00,0.0104
2661.00,0.0104
2660.00,0.0104
2659.00,0.0104
2658.00,0.0104
2657.00,0.0104
2656.00,0.0103
2655.00,0.0103
2654.00,0.0103
2653.00,0.0102
2652.00,0.0102
2651.00,0.0102
2650.00,0.0102
2649.00,0.0102
2648.00,0.0101
2647.00,0.0101
2646.00,0.0100
2645.00,0.0100
2644.00,0.0100
2643.00,0.0099
2642.00,0.0099
2641.00,0.0099
2640.00,0.0099
2639.00,0.0099
2638.00,0.0099
2637.00,0.0099
2636.00,0.0099
2635.00,0.0099
2634.00,0.0099
2633.00,0.0099
2632.00,0.0099
2631.00,0.0099
2630.00,0.0098
2629.00,0.0098
2628.00,0.0098
2627.00,0.0098
2626.00,0.0098
2625.00,0.0098
2624.00,0.0098
2623.00,0.0098
2622.00,0.0097
2621.00,0.0097
2620.00,0.0097
2619.00,0.0097
2618.00,0.0097
2617.00,0.0097
2616.00,0.0098
2615.00,0.0098
2614.00,0.0098
2613.00,0.0098
2612.00,0.0097
2611.00,0.0097
2610.00,0.0097
2609.00,0.0097
2608.00,0.0096
2607.00,0.0096
2606.00,0.0096
2605.00,0.0096
2604.00,0.0096
2603.00,0.0096
2602.00,0.0096
2601.00,0.0096
2600.00,0.0096
2599.00,0.0095
2598.00,0.0095
2597.00,0.0095
2596.00,0.0095
2595.00,0.0095
2594.00,0.0095
2593.00,0.0095
2592.00,0.0095
2591.00,0.0095
2590.00,0.0095
2589.00,0.0095
2588.00,0.0094
2587.00,0.0094
2586.00,0.0094
2585.00,0.0094
2584.00,0.0094
2583.00,0.0094
2582.00,0.0094
2581.00,0.0093
2580.00,0.0093
2579.00,0.0093
2578.00,0.0094
2577.00,0.0094
2576.00,0.0094
2575.00,0.0094
2574.00,0.0094
2573.00,0.0094
2572.00,0.0094
2571.00,0.0094
2570.00,0.0094
2569.00,0.0094
2568.00,0.0094
2567.00,0.0094
2566.00,0.0093
2565.00,0.0093
2564.00,0.0093
2563.00,0.0093
2562.00,0.0093
2561.00,0.0093
2560.00,0.0093
2559.00,0.0093
2558.00,0.0093
2557.00,0.0093
2556.00,0.0093
2555.00,0.0093
2554.00,0.0093
2553.00,0.0093
2552.00,0.0093
2551.00,0.0092
2550.00,0.0091
2549.00,0.0091
2548.00,0.0091
2547.00,0.0091
2546.00,0.0092
2545.00,0.0092
2544.00,0.0092
2543.00,0.0092
2542.00,0.0092
2541.00,0.0093
2540.00,0.0093
2539.00,0.0093
2538.00,0.0093
2537.00,0.0092
2536.00,0.0091
2535.00,0.0091
2534.00,0.0091
2533.00,0.0091
2532.00,0.0091
2531.00,0.0091
2530.00,0.0091
2529.00,0.0091
2528.00,0.0091
2527.00,0.0091
2526.00,0.0091
2525.00,0.0091
2524.00,0.0091
2523.00,0.0091
2522.00,0.0091
2521.00,0.0091
2520.00,0.0091
2519.00,0.0091
2518.00,0.0091
2517.00,0.0091
2516.00,0.0091
2515.00,0.0091
2514.00,0.0090
2513.00,0.0090
2512.00,0.0090
2511.00,0.0090
2510.00,0.0090
2509.00,0.0090
2508.00,0.0090
2507.00,0.0090
2506.00,0.0090
2505.00,0.0090
2504.00,0.0090
2503.00,0.0090
2502.00,0.0090
2501.00,0.0090
2500.00,0.0091
2499.00,0.0091
2498.00,0.0091
2497.00,0.0091
2496.00,0.0091
2495.00,0.0090
2494.00,0.0090
2493.00,0.0090
2492.00,0.0090
2491.00,0.0090
2490.00,0.0090
2489.00,0.0090
2488.00,0.0090
2487.00,0.0090
2486.00,0.0090
2485.00,0.0091
2484.00,0.0091
2483.00,0.0091
2482.00,0.0091
2481.00,0.0092
2480.00,0.0092
2479.00,0.0091
2478.00,0.0091
2477.00,0.0092
2476.00,0.0092
2475.00,0.0091
2474.00,0.0091
2473.00,0.0091
2472.00,0.0092
2471.00,0.0092
2470.00,0.0092
2469.00,0.0092
2468.00,0.0092
2467.00,0.0092
2466.00,0.0091
2465.00,0.0091
2464.00,0.0092
2463.00,0.0092
2462.00,0.0092
2461.00,0.0093
2460.00,0.0093
2459.00,0.0093
2458.00,0.0093
2457.00,0.0093
2456.00,0.0093
2455.00,0.0093
2454.00,0.0093
2453.00,0.0093
2452.00,0.0093
2451.00,0.0093
2450.00,0.0093
2449.00,0.0092
2448.00,0.0092
2447.00,0.0092
2446.00,0.0091
2445.00,0.0091
2444.00,0.0091
2443.00,0.0090
2442.00,0.0090
2441.00,0.0089
2440.00,0.0089
2439.00,0.0088
2438.00,0.0087
2437.00,0.0087
2436.00,0.0087
2435.00,0.0086
2434.00,0.0086
2433.00,0.0086
2432.00,0.0086
2431.00,0.0086
2430.00,0.0086
2429.00,0.0085
2428.00,0.0085
2427.00,0.0085
2426.00,0.0084
2425.00,0.0084
2424.00,0.0084
2423.00,0.0084
2422.00,0.0084
2421.00,0.0084
2420.00,0.0084
2419.00,0.0083
2418.00,0.0083
2417.00,0.0083
2416.00,0.0083
2415.00,0.0083
2414.00,0.0082
2413.00,0.0082
2412.00,0.0082
2411.00,0.0082
2410.00,0.0082
2409.00,0.0082
2408.00,0.0082
2407.00,0.0081
2406.00,0.0081
2405.00,0.0081
2404.00,0.0081
2403.00,0.0081
2402.00,0.0081
2401.00,0.0081
2400.00,0.0081
2399.00,0.0081
2398.00,0.0082
2397.00,0.0082
2396.00,0.0081
2395.00,0.0081
2394.00,0.0080
2393.00,0.0080
2392.00,0.0080
2391.00,0.0080
2390.00,0.0081
2389.00,0.0081
2388.00,0.0081
2387.00,0.0081
2386.00,0.0080
2385.00,0.0080
2384.00,0.0080
2383.00,0.0079
2382.00,0.0079
2381.00,0.0078
2380.00,0.0078
2379.00,0.0077
2378.00,0.0077
2377.00,0.0077
2376.00,0.0077
2375.00,0.0078
2374.00,0.0078
2373.00,0.0078
2372.00,0.0078
2371.00,0.0077
2370.00,0.0077
2369.00,0.0076
2368.00,0.0076
2367.00,0.0076
2366.00,0.0077
2365.00,0.0077
2364.00,0.0078
2363.00,0.0078
2362.00,0.0078
2361.00,0.0078
2360.00,0.0078
2359.00,0.0078
2358.00,0.0077
2357.00,0.0077
2356.00,0.0077
2355.00,0.0078
2354.00,0.0078
2353.00,0.0077
2352.00,0.0076
2351.00,0.0076
2350.00,0.0076
2349.00,0.0078
2348.00,0.0080
2347.00,0.0082
2346.00,0.0082
2345.00,0.0081
2344.00,0.0080
2343.00,0.0079
2342.00,0.0079
2341.00,0.0079
2340.00,0.0080
2339.00,0.0080
2338.00,0.0080
2337.00,0.0079
2336.00,0.0079
2335.00,0.0079
2334.00,0.0079
2333.00,0.0079
2332.00,0.0078
2331.00,0.0078
2330.00,0.0078
2329.00,0.0080
2328.00,0.0082
2327.00,0.0085
2326.00,0.0087
2325.00,0.0088
2324.00,0.0087
2323.00,0.0085
2322.00,0.0083
2321.00,0.0082
2320.00,0.0081
2319.00,0.0081
2318.00,0.0081
2317.00,0.0081
2316.00,0.0081
2315.00,0.0081
2314.00,0.0080
2313.00,0.0080
2312.00,0.0079
2311.00,0.0078
2310.00,0.0078
2309.00,0.0077
2308.00,0.0077
2307.00,0.0077
2306.00,0.0078
2305.00,0.0078
2304.00,0.0078
2303.00,0.0078
2302.00,0.0078
2301.00,0.0079
2300.00,0.0079
2299.00,0.0080
2298.00,0.0080
2297.00,0.0081
2296.00,0.0081
2295.00,0.0082
2294.00,0.0082
2293.00,0.0083
2292.00,0.0084
2291.00,0.0085
2290.00,0.0086
2289.00,0.0087
2288.00,0.0087
2287.00,0.0087
2286.00,0.0086
2285.00,0.0086
2284.00,0.0086
2283.00,0.0086
2282.00,0.0085
2281.00,0.0084
2280.00,0.0084
2279.00,0.0084
2278.00,0.0084
2277.00,0.0084
2276.00,0.0083
2275.00,0.0083
2274.00,0.0083
2273.00,0.0083
2272.00,0.0083
2271.00,0.0083
2270.00,0.0083
2269.00,0.0082
2268.00,0.0081
2267.00,0.0080
2266.00,0.0080
2265.00,0.0080
2264.00,0.0080
2263.00,0.0081
2262.00,0.0081
2261.00,0.0082
2260.00,0.0082
2259.00,0.0083
2258.00,0.0082
2257.00,0.0082
2256.00,0.0080
2255.00,0.0079
2254.00,0.0079
2253.00,0.0079
2252.00,0.0079
2251.00,0.0079
2250.00,0.0079
2249.00,0.0079
2248.00,0.0079
2247.00,0.0079
2246.00,0.0080
2245.00,0.0080
2244.00,0.0081
2243.00,0.0081
2242.00,0.0081
2241.00,0.0080
2240.00,0.0080
2239.00,0.0079
2238.00,0.0079
2237.00,0.0080
2236.00,0.0080
2235.00,0.0081
2234.00,0.0080
2233.00,0.0079
2232.00,0.0078
2231.00,0.0078
2230.00,0.0078
2229.00,0.0079
2228.00,0.0079
2227.00,0.0079
2226.00,0.0078
2225.00,0.0078
2224.00,0.0077
2223.00,0.0077
2222.00,0.0077
2221.00,0.0077
2220.00,0.0077
2219.00,0.0078
2218.00,0.0078
2217.00,0.0078
2216.00,0.0078
2215.00,0.0077
2214.00,0.0076
2213.00,0.0075
2212.00,0.0075
2211.00,0.0075
2210.00,0.0075
2209.00,0.0075
2208.00,0.0076
2207.00,0.0075
2206.00,0.0075
2205.00,0.0075
2204.00,0.0076
2203.00,0.0076
2202.00,0.0076
2201.00,0.0076
2200.00,0.0077
2199.00,0.0077
2198.00,0.0078
2197.00,0.0078
2196.00,0.0078
2195.00,0.0078
2194.00,0.0078
2193.00,0.0077
2192.00,0.0077
2191.00,0.0077
2190.00,0.0077
2189.00,0.0077
2188.00,0.0077
2187.00,0.0077
2186.00,0.0077
2185.00,0.0077
2184.00,0.0075
2183.00,0.0073
2182.00,0.0071
2181.00,0.0071
2180.00,0.0074
2179.00,0.0075
2178.00,0.0075
2177.00,0.0073
2176.00,0.0071
2175.00,0.0070
2174.00,0.0071
2173.00,0.0073
2172.00,0.0075
2171.00,0.0077
2170.00,0.0078
2169.00,0.0080
2168.00,0.0080
2167.00,0.0081
2166.00,0.0081
2165.00,0.0083
2164.00,0.0086
2163.00,0.0087
2162.00,0.0083
2161.00,0.0074
2160.00,0.0062
2159.00,0.0052
2158.00,0.0047
2157.00,0.0047
2156.00,0.0050
2155.00,0.0052
2154.00,0.0053
2153.00,0.0054
2152.00,0.0054
2151.00,0.0055
2150.00,0.0056
2149.00,0.0057
2148.00,0.0058
2147.00,0.0059
2146.00,0.0058
2145.00,0.0058
2144.00,0.0058
2143.00,0.0059
2142.00,0.0060
2141.00,0.0061
2140.00,0.0062
2139.00,0.0062
2138.00,0.0062
2137.00,0.0060
2136.00,0.0059
2135.00,0.0057
2134.00,0.0057
2133.00,0.0057
2132.00,0.0058
2131.00,0.0059
2130.00,0.0060
2129.00,0.0061
2128.00,0.0062
2127.00,0.0063
2126.00,0.0064
2125.00,0.0065
2124.00,0.0066
2123.00,0.0066
2122.00,0.0067
2121.00,0.0067
2120.00,0.0068
2119.00,0.0069
2118.00,0.0069
2117.00,0.0070
2116.00,0.0070
2115.00,0.0070
2114.00,0.0070
2113.00,0.0069
2112.00,0.0070
2111.00,0.0070
2110.00,0.0070
2109.00,0.0070
2108.00,0.0070
2107.00,0.0070
2106.00,0.0070
2105.00,0.0070
2104.00,0.0069
2103.00,0.0069
2102.00,0.0069
2101.00,0.0069
2100.00,0.0069
2099.00,0.0069
2098.00,0.0068
2097.00,0.0068
2096.00,0.0067
2095.00,0.0067
2094.00,0.0066
2093.00,0.0067
2092.00,0.0067
2091.00,0.0068
2090.00,0.0069
2089.00,0.0070
2088.00,0.0071
2087.00,0.0071
2086.00,0.0072
2085.00,0.0072
2084.00,0.0073
2083.00,0.0073
2082.00,0.0073
2081.00,0.0072
2080.00,0.0072
2079.00,0.0071
2078.00,0.0071
2077.00,0.0070
2076.00,0.0070
2075.00,0.0070
2074.00,0.0069
2073.00,0.0069
2072.00,0.0069
2071.00,0.0068
2070.00,0.0067
2069.00,0.0066
2068.00,0.0066
2067.00,0.0066
2066.00,0.0066
2065.00,0.0067
2064.00,0.0067
2063.00,0.0066
2062.00,0.0065
2061.00,0.0064
2060.00,0.0065
2059.00,0.0065
2058.00,0.0066
2057.00,0.0066
2056.00,0.0066
2055.00,0.0067
2054.00,0.0069
2053.00,0.0072
2052.00,0.0074
2051.00,0.0074
2050.00,0.0071
2049.00,0.0068
2048.00,0.0066
2047.00,0.0065
2046.00,0.0065
2045.00,0.0065
2044.00,0.0064
2043.00,0.0064
2042.00,0.0063
2041.00,0.0063
2040.00,0.0062
2039.00,0.0062
2038.00,0.0061
2037.00,0.0061
2036.00,0.0061
2035.00,0.0060
2034.00,0.0058
2033.00,0.0057
2032.00,0.0056
2031.00,0.0056
2030.00,0.0056
2029.00,0.0057
2028.00,0.0058
2027.00,0.0058
2026.00,0.0058
2025.00,0.0058
2024.00,0.0059
2023.00,0.0060
2022.00,0.0060
2021.00,0.0061
2020.00,0.0061
2019.00,0.0061
2018.00,0.0060
2017.00,0.0060
2016.00,0.0061
2015.00,0.0061
2014.00,0.0060
2013.00,0.0060
2012.00,0.0060
2011.00,0.0060
2010.00,0.0060
2009.00,0.0059
2008.00,0.0058
2007.00,0.0056
2006.00,0.0054
2005.00,0.0054
2004.00,0.0055
2003.00,0.0055
2002.00,0.0054
2001.00,0.0054
2000.00,0.0056
1999.00,0.0057
1998.00,0.0059
1997.00,0.0060
1996.00,0.0062
1995.00,0.0062
1994.00,0.0062
1993.00,0.0063
1992.00,0.0064
1991.00,0.0065
1990.00,0.0065
1989.00,0.0067
1988.00,0.0068
1987.00,0.0068
1986.00,0.0069
1985.00,0.0070
1984.00,0.0072
1983.00,0.0074
1982.00,0.0076
1981.00,0.0077
1980.00,0.0075
1979.00,0.0071
1978.00,0.0065
1977.00,0.0060
1976.00,0.0058
1975.00,0.0058
1974.00,0.0057
1973.00,0.0058
1972.00,0.0059
1971.00,0.0059
1970.00,0.0060
1969.00,0.0060
1968.00,0.0059
1967.00,0.0058
1966.00,0.0056
1965.00,0.0056
1964.00,0.0056
1963.00,0.0056
1962.00,0.0055
1961.00,0.0055
1960.00,0.0055
1959.00,0.0055
1958.00,0.0055
1957.00,0.0057
1956.00,0.0059
1955.00,0.0060
1954.00,0.0061
1953.00,0.0061
1952.00,0.0060
1951.00,0.0060
1950.00,0.0060
1949.00,0.0060
1948.00,0.0060
1947.00,0.0060
1946.00,0.0060
1945.00,0.0060
1944.00,0.0061
1943.00,0.0061
1942.00,0.0061
1941.00,0.0061
1940.00,0.0060
1939.00,0.0060
1938.00,0.0060
1937.00,0.0060
1936.00,0.0060
1935.00,0.0060
1934.00,0.0059
1933.00,0.0059
1932.00,0.0059
1931.00,0.0060
1930.00,0.0060
1929.00,0.0061
1928.00,0.0061
1927.00,0.0061
1926.00,0.0061
1925.00,0.0061
1924.00,0.0061
1923.00,0.0061
1922.00,0.0061
1921.00,0.0061
1920.00,0.0062
1919.00,0.0063
1918.00,0.0063
1917.00,0.0063
1916.00,0.0063
1915.00,0.0064
1914.00,0.0064
1913.00,0.0064
1912.00,0.0064
1911.00,0.0064
1910.00,0.0064
1909.00,0.0064
1908.00,0.0064
1907.00,0.0065
1906.00,0.0065
1905.00,0.0066
1904.00,0.0066
1903.00,0.0066
1902.00,0.0066
1901.00,0.0066
1900.00,0.0066
1899.00,0.0066
1898.00,0.0066
1897.00,0.0066
1896.00,0.0066
1895.00,0.0066
1894.00,0.0066
1893.00,0.0066
1892.00,0.0066
1891.00,0.0066
1890.00,0.0066
1889.00,0.0066
1888.00,0.0066
1887.00,0.0066
1886.00,0.0066
1885.00,0.0067
1884.00,0.0067
1883.00,0.0067
1882.00,0.0067
1881.00,0.0068
1880.00,0.0067
1879.00,0.0067
1878.00,0.0067
1877.00,0.0067
1876.00,0.0067
1875.00,0.0067
1874.00,0.0067
1873.00,0.0067
1872.00,0.0068
1871.00,0.0068
1870.00,0.0068
1869.00,0.0068
1868.00,0.0068
1867.00,0.0067
1866.00,0.0067
1865.00,0.0067
1864.00,0.0067
1863.00,0.0067
1862.00,0.0067
1861.00,0.0067
1860.00,0.0067
1859.00,0.0067
1858.00,0.0067
1857.00,0.0067
1856.00,0.0067
1855.00,0.0067
1854.00,0.0067
1853.00,0.0067
1852.00,0.0067
1851.00,0.0067
1850.00,0.0067
1849.00,0.0067
1848.00,0.0067
1847.00,0.0068
1846.00,0.0068
1845.00,0.0067
1844.00,0.0067
1843.00,0.0067
1842.00,0.0067
1841.00,0.0068
1840.00,0.0068
1839.00,0.0069
1838.00,0.0068
1837.00,0.0068
1836.00,0.0068
1835.00,0.0068
1834.00,0.0068
1833.00,0.0068
1832.00,0.0069
1831.00,0.0069
1830.00,0.0069
1829.00,0.0069
1828.00,0.0069
1827.00,0.0070
1826.00,0.0070
1825.00,0.0070
1824.00,0.0070
1823.00,0.0070
1822.00,0.0070
1821.00,0.0070
1820.00,0.0069
1819.00,0.0069
1818.00,0.0068
1817.00,0.0068
1816.00,0.0068
1815.00,0.0069
1814.00,0.0069
1813.00,0.0070
1812.00,0.0071
1811.00,0.0072
1810.00,0.0072
1809.00,0.0073
1808.00,0.0074
1807.00,0.0075
1806.00,0.0075
1805.00,0.0076
1804.00,0.0076
1803.00,0.0077
1802.00,0.0077
1801.00,0.0077
1800.00,0.0077
1799.00,0.0077
1798.00,0.0077
1797.00,0.0077
1796.00,0.0076
1795.00,0.0075
1794.00,0.0074
1793.00,0.0074
1792.00,0.0073
1791.00,0.0073
1790.00,0.0073
1789.00,0.0073
1788.00,0.0074
1787.00,0.0074
1786.00,0.0074
1785.00,0.0074
1784.00,0.0074
1783.00,0.0075
1782.00,0.0075
1781.00,0.0075
1780.00,0.0076
1779.00,0.0076
1778.00,0.0076
1777.00,0.0077
1776.00,0.0078
1775.00,0.0079
1774.00,0.0080
1773.00,0.0081
1772.00,0.0082
1771.00,0.0081
1770.00,0.0080
1769.00,0.0079
1768.00,0.0079
1767.00,0.0078
1766.00,0.0077
1765.00,0.0076
1764.00,0.0075
1763.00,0.0075
1762.00,0.0074
1761.00,0.0074
1760.00,0.0074
1759.00,0.0074
1758.00,0.0074
1757.00,0.0074
1756.00,0.0074
1755.00,0.0074
1754.00,0.0074
1753.00,0.0074
1752.00,0.0074
1751.00,0.0074
1750.00,0.0074
1749.00,0.0074
1748.00,0.0074
1747.00,0.0074
1746.00,0.0074
1745.00,0.0074
1744.00,0.0074
1743.00,0.0074
1742.00,0.0073
1741.00,0.0073
1740.00,0.0074
1739.00,0.0074
1738.00,0.0074
1737.00,0.0074
1736.00,0.0074
1735.00,0.0075
1734.00,0.0075
1733.00,0.0075
1732.00,0.0075
1731.00,0.0075
1730.00,0.0075
1729.00,0.0076
1728.00,0.0076
1727.00,0.0076
1726.00,0.0076
1725.00,0.0077
1724.00,0.0077
1723.00,0.0078
1722.00,0.0078
1721.00,0.0078
1720.00,0.0078
1719.00,0.0078
1718.00,0.0078
1717.00,0.0078
1716.00,0.0078
1715.00,0.0078
1714.00,0.0078
1713.00,0.0079
1712.00,0.0080
1711.00,0.0080
1710.00,0.0081
1709.00,0.0081
1708.00,0.0082
1707.00,0.0082
1706.00,0.0083
1705.00,0.0083
1704.00,0.0083
1703.00,0.0083
1702.00,0.0083
1701.00,0.0083
1700.00,0.0084
1699.00,0.0085
1698.00,0.0085
1697.00,0.0085
1696.00,0.0084
1695.00,0.0084
1694.00,0.0084
1693.00,0.0085
1692.00,0.0085
1691.00,0.0085
1690.00,0.0085
1689.00,0.0084
1688.00,0.0084
1687.00,0.0083
1686.00,0.0083
1685.00,0.0083
1684.00,0.0083
1683.00,0.0083
1682.00,0.0083
1681.00,0.0083
1680.00,0.0084
1679.00,0.0084
1678.00,0.0084
1677.00,0.0085
1676.00,0.0086
1675.00,0.0087
1674.00,0.0088
1673.00,0.0089
1672.00,0.0090
1671.00,0.0092
1670.00,0.0094
1669.00,0.0096
1668.00,0.0099
1667.00,0.0102
1666.00,0.0104
1665.00,0.0107
1664.00,0.0110
1663.00,0.0113
1662.00,0.0114
1661.00,0.0115
1660.00,0.0115
1659.00,0.0115
1658.00,0.0115
1657.00,0.0115
1656.00,0.0116
1655.00,0.0118
1654.00,0.0123
1653.00,0.0133
1652.00,0.0145
1651.00,0.0154
1650.00,0.0163
1649.00,0.0177
1648.00,0.0203
1647.00,0.0247
1646.00,0.0297
1645.00,0.0336
1644.00,0.0358
1643.00,0.0363
1642.00,0.0355
1641.00,0.0340
1640.00,0.0327
1639.00,0.0319
1638.00,0.0321
1637.00,0.0341
1636.00,0.0383
1635.00,0.0437
1634.00,0.0481
1633.00,0.0512
1632.00,0.0534
1631.00,0.0552
1630.00,0.0566
1629.00,0.0579
1628.00,0.0596
1627.00,0.0617
1626.00,0.0641
1625.00,0.0668
1624.00,0.0693
1623.00,0.0704
1622.00,0.0689
1621.00,0.0651
1620.00,0.0602
1619.00,0.0546
1618.00,0.0485
1617.00,0.0423
1616.00,0.0369
1615.00,0.0330
1614.00,0.0302
1613.00,0.0281
1612.00,0.0262
1611.00,0.0245
1610.00,0.0231
1609.00,0.0219
1608.00,0.0209
1607.00,0.0201
1606.00,0.0195
1605.00,0.0190
1604.00,0.0187
1603.00,0.0185
1602.00,0.0185
1601.00,0.0186
1600.00,0.0190
1599.00,0.0195
1598.00,0.0202
1597.00,0.0212
1596.00,0.0225
1595.00,0.0243
1594.00,0.0267
1593.00,0.0299
1592.00,0.0340
1591.00,0.0393
1590.00,0.0456
1589.00,0.0527
1588.00,0.0600
1587.00,0.0671
1586.00,0.0735
1585.00,0.0791
1584.00,0.0838
1583.00,0.0873
1582.00,0.0889
1581.00,0.0883
1580.00,0.0857
1579.00,0.0813
1578.00,0.0753
1577.00,0.0677
1576.00,0.0595
1575.00,0.0525
1574.00,0.0473
1573.00,0.0432
1572.00,0.0396
1571.00,0.0361
1570.00,0.0326
1569.00,0.0294
1568.00,0.0268
1567.00,0.0247
1566.00,0.0230
1565.00,0.0213
1564.00,0.0199
1563.00,0.0188
1562.00,0.0180
1561.00,0.0173
1560.00,0.0166
1559.00,0.0159
1558.00,0.0153
1557.00,0.0149
1556.00,0.0147
1555.00,0.0144
1554.00,0.0142
1553.00,0.0139
1552.00,0.0137
1551.00,0.0135
1550.00,0.0132
1549.00,0.0130
1548.00,0.0128
1547.00,0.0126
1546.00,0.0125
1545.00,0.0123
1544.00,0.0121
1543.00,0.0120
1542.00,0.0119
1541.00,0.0119
1540.00,0.0118
1539.00,0.0118
1538.00,0.0119
1537.00,0.0119
1536.00,0.0119
1535.00,0.0119
1534.00,0.0119
1533.00,0.0119
1532.00,0.0119
1531.00,0.0119
1530.00,0.0120
1529.00,0.0121
1528.00,0.0122
1527.00,0.0124
1526.00,0.0126
1525.00,0.0129
1524.00,0.0133
1523.00,0.0138
1522.00,0.0148
1521.00,0.0163
1520.00,0.0177
1519.00,0.0190
1518.00,0.0203
1517.00,0.0218
1516.00,0.0231
1515.00,0.0239
1514.00,0.0240
1513.00,0.0238
1512.00,0.0230
1511.00,0.0220
1510.00,0.0209
1509.00,0.0198
1508.00,0.0188
1507.00,0.0177
1506.00,0.0169
1505.00,0.0164
1504.00,0.0162
1503.00,0.0159
1502.00,0.0157
1501.00,0.0154
1500.00,0.0151
1499.00,0.0147
1498.00,0.0143
1497.00,0.0139
1496.00,0.0135
1495.00,0.0131
1494.00,0.0128
1493.00,0.0125
1492.00,0.0123
1491.00,0.0121
1490.00,0.0119
1489.00,0.0117
1488.00,0.0116
1487.00,0.0115
1486.00,0.0114
1485.00,0.0114
1484.00,0.0114
1483.00,0.0115
1482.00,0.0115
1481.00,0.0116
1480.00,0.0118
1479.00,0.0119
1478.00,0.0121
1477.00,0.0124
1476.00,0.0128
1475.00,0.0133
1474.00,0.0140
1473.00,0.0152
1472.00,0.0170
1471.00,0.0192
1470.00,0.0217
1469.00,0.0244
1468.00,0.0270
1467.00,0.0291
1466.00,0.0308
1465.00,0.0320
1464.00,0.0330
1463.00,0.0340
1462.00,0.0349
1461.00,0.0359
1460.00,0.0367
1459.00,0.0376
1458.00,0.0388
1457.00,0.0410
1456.00,0.0435
1455.00,0.0460
1454.00,0.0487
1453.00,0.0524
1452.00,0.0571
1451.00,0.0626
1450.00,0.0689
1449.00,0.0764
1448.00,0.0847
1447.00,0.0925
1446.00,0.0986
1445.00,0.1027
1444.00,0.1050
1443.00,0.1056
1442.00,0.1049
1441.00,0.1034
1440.00,0.1013
1439.00,0.0986
1438.00,0.0956
1437.00,0.0921
1436.00,0.0881
1435.00,0.0840
1434.00,0.0801
1433.00,0.0762
1432.00,0.0720
1431.00,0.0673
1430.00,0.0618
1429.00,0.0557
1428.00,0.0494
1427.00,0.0437
1426.00,0.0386
1425.00,0.0341
1424.00,0.0302
1423.00,0.0272
1422.00,0.0251
1421.00,0.0233
1420.00,0.0218
1419.00,0.0205
1418.00,0.0195
1417.00,0.0187
1416.00,0.0180
1415.00,0.0174
1414.00,0.0169
1413.00,0.0165
1412.00,0.0161
1411.00,0.0157
1410.00,0.0155
1409.00,0.0152
1408.00,0.0150
1407.00,0.0149
1406.00,0.0148
1405.00,0.0147
1404.00,0.0146
1403.00,0.0146
1402.00,0.0145
1401.00,0.0144
1400.00,0.0143
1399.00,0.0142
1398.00,0.0142
1397.00,0.0141
1396.00,0.0140
1395.00,0.0139
1394.00,0.0138
1393.00,0.0138
1392.00,0.0137
1391.00,0.0137
1390.00,0.0137
1389.00,0.0139
1388.00,0.0141
1387.00,0.0145
1386.00,0.0151
1385.00,0.0159
1384.00,0.0170
1383.00,0.0185
1382.00,0.0207
1381.00,0.0235
1380.00,0.0272
1379.00,0.0316
1378.00,0.0362
1377.00,0.0404
1376.00,0.0433
1375.00,0.0444
1374.00,0.0436
1373.00,0.0414
1372.00,0.0387
1371.00,0.0361
1370.00,0.0337
1369.00,0.0316
1368.00,0.0297
1367.00,0.0282
1366.00,0.0269
1365.00,0.0257
1364.00,0.0244
1363.00,0.0233
1362.00,0.0223
1361.00,0.0216
1360.00,0.0210
1359.00,0.0207
1358.00,0.0204
1357.00,0.0202
1356.00,0.0201
1355.00,0.0202
1354.00,0.0203
1353.00,0.0204
1352.00,0.0205
1351.00,0.0207
1350.00,0.0210
1349.00,0.0214
1348.00,0.0218
1347.00,0.0224
1346.00,0.0230
1345.00,0.0237
1344.00,0.0243
1343.00,0.0247
1342.00,0.0250
1341.00,0.0250
1340.00,0.0245
1339.00,0.0238
1338.00,0.0230
1337.00,0.0223
1336.00,0.0219
1335.00,0.0218
1334.00,0.0221
1333.00,0.0226
1332.00,0.0234
1331.00,0.0243
1330.00,0.0253
1329.00,0.0262
1328.00,0.0270
1327.00,0.0279
1326.00,0.0287
1325.00,0.0295
1324.00,0.0300
1323.00,0.0299
1322.00,0.0293
1321.00,0.0283
1320.00,0.0274
1319.00,0.0269
1318.00,0.0272
1317.00,0.0283
1316.00,0.0304
1315.00,0.0333
1314.00,0.0364
1313.00,0.0394
1312.00,0.0414
1311.00,0.0422
1310.00,0.0419
1309.00,0.0409
1308.00,0.0398
1307.00,0.0391
1306.00,0.0391
1305.00,0.0398
1304.00,0.0409
1303.00,0.0420
1302.00,0.0428
1301.00,0.0431
1300.00,0.0429
1299.00,0.0424
1298.00,0.0417
1297.00,0.0408
1296.00,0.0397
1295.00,0.0384
1294.00,0.0372
1293.00,0.0359
1292.00,0.0347
1291.00,0.0337
1290.00,0.0329
1289.00,0.0324
1288.00,0.0324
1287.00,0.0330
1286.00,0.0340
1285.00,0.0355
1284.00,0.0373
1283.00,0.0392
1282.00,0.0409
1281.00,0.0423
1280.00,0.0433
1279.00,0.0439
1278.00,0.0440
1277.00,0.0436
1276.00,0.0427
1275.00,0.0414
1274.00,0.0397
1273.00,0.0376
1272.00,0.0352
1271.00,0.0327
1270.00,0.0301
1269.00,0.0277
1268.00,0.0256
1267.00,0.0238
1266.00,0.0222
1265.00,0.0210
1264.00,0.0200
1263.00,0.0191
1262.00,0.0184
1261.00,0.0179
1260.00,0.0174
1259.00,0.0170
1258.00,0.0167
1257.00,0.0165
1256.00,0.0164
1255.00,0.0165
1254.00,0.0168
1253.00,0.0173
1252.00,0.0180
1251.00,0.0189
1250.00,0.0200
1249.00,0.0210
1248.00,0.0217
1247.00,0.0223
1246.00,0.0229
1245.00,0.0239
1244.00,0.0257
1243.00,0.0283
1242.00,0.0319
1241.00,0.0363
1240.00,0.0412
1239.00,0.0459
1238.00,0.0497
1237.00,0.0522
1236.00,0.0532
1235.00,0.0531
1234.00,0.0523
1233.00,0.0510
1232.00,0.0492
1231.00,0.0474
1230.00,0.0460
1229.00,0.0459
1228.00,0.0472
1227.00,0.0501
1226.00,0.0540
1225.00,0.0586
1224.00,0.0635
1223.00,0.0688
1222.00,0.0749
1221.00,0.0822
1220.00,0.0914
1219.00,0.1023
1218.00,0.1143
1217.00,0.1258
1216.00,0.1347
1215.00,0.1393
1214.00,0.1386
1213.00,0.1332
1212.00,0.1244
1211.00,0.1137
1210.00,0.1027
1209.00,0.0926
1208.00,0.0838
1207.00,0.0764
1206.00,0.0703
1205.00,0.0649
1204.00,0.0599
1203.00,0.0551
1202.00,0.0503
1201.00,0.0458
1200.00,0.0418
1199.00,0.0382
1198.00,0.0353
1197.00,0.0329
1196.00,0.0312
1195.00,0.0299
1194.00,0.0291
1193.00,0.0288
1192.00,0.0288
1191.00,0.0291
1190.00,0.0297
1189.00,0.0304
1188.00,0.0312
1187.00,0.0321
1186.00,0.0330
1185.00,0.0341
1184.00,0.0350
1183.00,0.0359
1182.00,0.0366
1181.00,0.0370
1180.00,0.0374
1179.00,0.0378
1178.00,0.0381
1177.00,0.0385
1176.00,0.0390
1175.00,0.0400
1174.00,0.0415
1173.00,0.0430
1172.00,0.0436
1171.00,0.0424
1170.00,0.0394
1169.00,0.0354
1168.00,0.0313
1167.00,0.0279
1166.00,0.0252
1165.00,0.0232
1164.00,0.0217
1163.00,0.0206
1162.00,0.0198
1161.00,0.0194
1160.00,0.0191
1159.00,0.0192
1158.00,0.0196
1157.00,0.0205
1156.00,0.0222
1155.00,0.0250
1154.00,0.0292
1153.00,0.0346
1152.00,0.0402
1151.00,0.0442
1150.00,0.0449
1149.00,0.0420
1148.00,0.0367
1147.00,0.0310
1146.00,0.0262
1145.00,0.0228
1144.00,0.0205
1143.00,0.0191
1142.00,0.0182
1141.00,0.0177
1140.00,0.0175
1139.00,0.0176
1138.00,0.0179
1137.00,0.0184
1136.00,0.0188
1135.00,0.0190
1134.00,0.0189
1133.00,0.0185
1132.00,0.0178
1131.00,0.0171
1130.00,0.0164
1129.00,0.0157
1128.00,0.0151
1127.00,0.0146
1126.00,0.0143
1125.00,0.0140
1124.00,0.0137
1123.00,0.0136
1122.00,0.0135
1121.00,0.0134
1120.00,0.0134
1119.00,0.0135
1118.00,0.0136
1117.00,0.0138
1116.00,0.0139
1115.00,0.0141
1114.00,0.0143
1113.00,0.0145
1112.00,0.0147
1111.00,0.0149
1110.00,0.0152
1109.00,0.0157
1108.00,0.0162
1107.00,0.0168
1106.00,0.0175
1105.00,0.0183
1104.00,0.0191
1103.00,0.0201
1102.00,0.0213
1101.00,0.0225
1100.00,0.0236
1099.00,0.0242
1098.00,0.0241
1097.00,0.0233
1096.00,0.0220
1095.00,0.0206
1094.00,0.0194
1093.00,0.0184
1092.00,0.0177
1091.00,0.0171
1090.00,0.0166
1089.00,0.0163
1088.00,0.0161
1087.00,0.0162
1086.00,0.0166
1085.00,0.0174
1084.00,0.0185
1083.00,0.0199
1082.00,0.0215
1081.00,0.0231
1080.00,0.0241
1079.00,0.0244
1078.00,0.0238
1077.00,0.0227
1076.00,0.0214
1075.00,0.0201
1074.00,0.0191
1073.00,0.0184
1072.00,0.0177
1071.00,0.0173
1070.00,0.0169
1069.00,0.0166
1068.00,0.0164
1067.00,0.0163
1066.00,0.0163
1065.00,0.0164
1064.00,0.0166
1063.00,0.0170
1062.00,0.0176
1061.00,0.0184
1060.00,0.0196
1059.00,0.0213
1058.00,0.0239
1057.00,0.0276
1056.00,0.0325
1055.00,0.0383
1054.00,0.0439
1053.00,0.0483
1052.00,0.0509
1051.00,0.0517
1050.00,0.0507
1049.00,0.0481
1048.00,0.0443
1047.00,0.0398
1046.00,0.0356
1045.00,0.0324
1044.00,0.0304
1043.00,0.0295
1042.00,0.0295
1041.00,0.0300
1040.00,0.0310
1039.00,0.0325
1038.00,0.0347
1037.00,0.0378
1036.00,0.0420
1035.00,0.0472
1034.00,0.0527
1033.00,0.0573
1032.00,0.0598
1031.00,0.0598
1030.00,0.0575
1029.00,0.0540
1028.00,0.0506
1027.00,0.0481
1026.00,0.0471
1025.00,0.0481
1024.00,0.0511
1023.00,0.0561
1022.00,0.0626
1021.00,0.0694
1020.00,0.0747
1019.00,0.0769
1018.00,0.0755
1017.00,0.0710
1016.00,0.0650
1015.00,0.0588
1014.00,0.0532
1013.00,0.0485
1012.00,0.0448
1011.00,0.0423
1010.00,0.0409
1009.00,0.0403
1008.00,0.0405
1007.00,0.0415
1006.00,0.0432
1005.00,0.0454
1004.00,0.0477
1003.00,0.0494
1002.00,0.0499
1001.00,0.0490
1000.00,0.0467
999.00,0.0433
998.00,0.0392
997.00,0.0352
996.00,0.0317
995.00,0.0290
994.00,0.0272
993.00,0.0260
992.00,0.0255
991.00,0.0255
990.00,0.0260
989.00,0.0267
988.00,0.0275
987.00,0.0283
986.00,0.0288
985.00,0.0290
984.00,0.0287
983.00,0.0278
982.00,0.0265
981.00,0.0250
980.00,0.0238
979.00,0.0230
978.00,0.0225
977.00,0.0220
976.00,0.0217
975.00,0.0213
974.00,0.0211
973.00,0.0210
972.00,0.0211
971.00,0.0216
970.00,0.0223
969.00,0.0233
968.00,0.0244
967.00,0.0256
966.00,0.0270
965.00,0.0286
964.00,0.0305
963.00,0.0323
962.00,0.0338
961.00,0.0343
960.00,0.0335
959.00,0.0316
958.00,0.0290
957.00,0.0263
956.00,0.0238
955.00,0.0218
954.00,0.0202
953.00,0.0189
952.00,0.0180
951.00,0.0173
950.00,0.0168
949.00,0.0165
948.00,0.0161
947.00,0.0159
946.00,0.0156
945.00,0.0154
944.00,0.0152
943.00,0.0150
942.00,0.0149
941.00,0.0148
940.00,0.0148
939.00,0.0147
938.00,0.0146
937.00,0.0146
936.00,0.0146
935.00,0.0146
934.00,0.0147
933.00,0.0150
932.00,0.0152
931.00,0.0156
930.00,0.0159
929.00,0.0161
928.00,0.0163
927.00,0.0163
926.00,0.0163
925.00,0.0162
924.00,0.0162
923.00,0.0161
922.00,0.0161
921.00,0.0161
920.00,0.0164
919.00,0.0169
918.00,0.0175
917.00,0.0181
916.00,0.0187
915.00,0.0190
914.00,0.0192
913.00,0.0191
912.00,0.0189
911.00,0.0189
910.00,0.0191
909.00,0.0197
908.00,0.0208
907.00,0.0223
906.00,0.0242
905.00,0.0265
904.00,0.0292
903.00,0.0324
902.00,0.0365
901.00,0.0418
900.00,0.0488
899.00,0.0571
898.00,0.0656
897.00,0.0720
896.00,0.0742
895.00,0.0717
894.00,0.0659
893.00,0.0588
892.00,0.0523
891.00,0.0474
890.00,0.0446
889.00,0.0446
888.00,0.0477
887.00,0.0542
886.00,0.0636
885.00,0.0737
884.00,0.0808
883.00,0.0819
882.00,0.0763
881.00,0.0665
880.00,0.0558
879.00,0.0467
878.00,0.0401
877.00,0.0356
876.00,0.0328
875.00,0.0313
874.00,0.0308
873.00,0.0313
872.00,0.0326
871.00,0.0343
870.00,0.0356
869.00,0.0360
868.00,0.0354
867.00,0.0347
866.00,0.0347
865.00,0.0360
864.00,0.0385
863.00,0.0415
862.00,0.0439
861.00,0.0450
860.00,0.0449
859.00,0.0443
858.00,0.0440
857.00,0.0444
856.00,0.0457
855.00,0.0472
854.00,0.0488
853.00,0.0501
852.00,0.0510
851.00,0.0512
850.00,0.0505
849.00,0.0489
848.00,0.0466
847.00,0.0443
846.00,0.0424
845.00,0.0412
844.00,0.0404
843.00,0.0398
842.00,0.0392
841.00,0.0384
840.00,0.0378
839.00,0.0375
838.00,0.0376
837.00,0.0382
836.00,0.0392
835.00,0.0405
834.00,0.0422
833.00,0.0442
832.00,0.0462
831.00,0.0481
830.00,0.0498
829.00,0.0509
828.00,0.0513
827.00,0.0507
826.00,0.0491
825.00,0.0465
824.00,0.0433
823.00,0.0399
822.00,0.0366
821.00,0.0335
820.00,0.0306
819.00,0.0281
818.00,0.0262
817.00,0.0248
816.00,0.0237
815.00,0.0230
814.00,0.0225
813.00,0.0220
812.00,0.0217
811.00,0.0217
810.00,0.0223
809.00,0.0238
808.00,0.0267
807.00,0.0310
806.00,0.0359
805.00,0.0398
804.00,0.0413
803.00,0.0400
802.00,0.0367
801.00,0.0329
800.00,0.0295
799.00,0.0268
798.00,0.0247
797.00,0.0232
796.00,0.0221
795.00,0.0214
794.00,0.0210
793.00,0.0208
792.00,0.0207
791.00,0.0205
790.00,0.0202
789.00,0.0200
788.00,0.0200
787.00,0.0202
786.00,0.0203
785.00,0.0203
784.00,0.0200
783.00,0.0195
782.00,0.0189
781.00,0.0185
780.00,0.0182
779.00,0.0181
778.00,0.0181
777.00,0.0180
776.00,0.0179
775.00,0.0177
774.00,0.0176
773.00,0.0175
772.00,0.0176
771.00,0.0177
770.00,0.0177
769.00,0.0176
768.00,0.0172
767.00,0.0167
766.00,0.0161
765.00,0.0156
764.00,0.0151
763.00,0.0148
762.00,0.0146
761.00,0.0145
760.00,0.0145
759.00,0.0146
758.00,0.0148
757.00,0.0152
756.00,0.0158
755.00,0.0168
754.00,0.0182
753.00,0.0196
752.00,0.0207
751.00,0.0215
750.00,0.0221
749.00,0.0224
748.00,0.0223
747.00,0.0216
746.00,0.0203
745.00,0.0188
744.00,0.0174
743.00,0.0164
742.00,0.0157
741.00,0.0153
740.00,0.0151
739.00,0.0150
738.00,0.0150
737.00,0.0152
736.00,0.0156
735.00,0.0163
734.00,0.0174
733.00,0.0187
732.00,0.0200
731.00,0.0207
730.00,0.0206
729.00,0.0198
728.00,0.0188
727.00,0.0179
726.00,0.0173
725.00,0.0170
724.00,0.0167
723.00,0.0165
722.00,0.0163
721.00,0.0161
720.00,0.0159
719.00,0.0157
718.00,0.0155
717.00,0.0151
716.00,0.0147
715.00,0.0143
714.00,0.0141
713.00,0.0140
712.00,0.0140
711.00,0.0140
710.00,0.0139
709.00,0.0137
708.00,0.0134
707.00,0.0131
706.00,0.0128
705.00,0.0126
704.00,0.0125
703.00,0.0124
702.00,0.0123
701.00,0.0122
700.00,0.0121
699.00,0.0120
698.00,0.0120
697.00,0.0120
696.00,0.0120
695.00,0.0121
694.00,0.0121
693.00,0.0121
692.00,0.0121
691.00,0.0120
690.00,0.0120
689.00,0.0121
688.00,0.0122
687.00,0.0123
686.00,0.0125
685.00,0.0126
684.00,0.0127
683.00,0.0128
682.00,0.0130
681.00,0.0131
680.00,0.0133
679.00,0.0136
678.00,0.0139
677.00,0.0143
676.00,0.0147
675.00,0.0152
674.00,0.0158
673.00,0.0165
672.00,0.0173
671.00,0.0182
670.00,0.0190
669.00,0.0197
668.00,0.0202
667.00,0.0208
666.00,0.0212
665.00,0.0216
664.00,0.0219
663.00,0.0222
662.00,0.0223
661.00,0.0222
660.00,0.0221
659.00,0.0221
658.00,0.0221
657.00,0.0219
656.00,0.0217
655.00,0.0215
654.00,0.0215
653.00,0.0217
652.00,0.0222
651.00,0.0229
650.00,0.0236
649.00,0.0240
648.00,0.0241
647.00,0.0237
646.00,0.0229
645.00,0.0219
644.00,0.0209
643.00,0.0200
642.00,0.0192
641.00,0.0186
640.00,0.0181
639.00,0.0178
638.00,0.0177
637.00,0.0178
636.00,0.0180
635.00,0.0181
634.00,0.0183
633.00,0.0184
632.00,0.0187
631.00,0.0191
630.00,0.0196
629.00,0.0201
628.00,0.0206
627.00,0.0211
626.00,0.0215
625.00,0.0218
624.00,0.0221
623.00,0.0222
622.00,0.0220
621.00,0.0215
620.00,0.0207
619.00,0.0197
618.00,0.0187
617.00,0.0181
616.00,0.0180
615.00,0.0187
614.00,0.0201
613.00,0.0219
612.00,0.0238
611.00,0.0250
610.00,0.0254
609.00,0.0250
608.00,0.0243
607.00,0.0239
606.00,0.0239
605.00,0.0243
604.00,0.0248
603.00,0.0254
602.00,0.0260
601.00,0.0268
600.00,0.0278
599.00,0.0286
598.00,0.0291
597.00,0.0291
596.00,0.0289
595.00,0.0287
594.00,0.0289
593.00,0.0295
592.00,0.0307
591.00,0.0323
590.00,0.0342
589.00,0.0359
588.00,0.0374
587.00,0.0383
586.00,0.0385
585.00,0.0379
584.00,0.0367
583.00,0.0352
582.00,0.0335
581.00,0.0318
580.00,0.0303
579.00,0.0292
578.00,0.0283
577.00,0.0277
576.00,0.0275
575.00,0.0277
574.00,0.0281
573.00,0.0285
572.00,0.0290
571.00,0.0295
570.00,0.0300
569.00,0.0305
568.00,0.0309
567.00,0.0312
566.00,0.0315
565.00,0.0319
564.00,0.0321
563.00,0.0323
562.00,0.0323
561.00,0.0322
560.00,0.0322
559.00,0.0321
558.00,0.0321
557.00,0.0320
556.00,0.0320
555.00,0.0320
554.00,0.0323
553.00,0.0328
552.00,0.0335
551.00,0.0343
550.00,0.0350
549.00,0.0356
548.00,0.0362
547.00,0.0371
546.00,0.0383
545.00,0.0394
544.00,0.0403
543.00,0.0409
542.00,0.0413
541.00,0.0421
540.00,0.0435
539.00,0.0456
538.00,0.0482
537.00,0.0506
536.00,0.0523
535.00,0.0528
534.00,0.0521
533.00,0.0508
532.00,0.0493
531.00,0.0480
530.00,0.0470
529.00,0.0466
528.00,0.0470
527.00,0.0486
526.00,0.0512
525.00,0.0543
524.00,0.0575
523.00,0.0601
522.00,0.0613
521.00,0.0603
520.00,0.0571
519.00,0.0523
518.00,0.0474
517.00,0.0434
516.00,0.0408
515.00,0.0392
514.00,0.0383
513.00,0.0379
512.00,0.0380
511.00,0.0385
510.00,0.0394
509.00,0.0406
508.00,0.0422
507.00,0.0441
506.00,0.0463
505.00,0.0485
504.00,0.0509
503.00,0.0535
502.00,0.0564
501.00,0.0592
500.00,0.0617
499.00,0.0639
498.00,0.0656
497.00,0.0670
496.00,0.0679
495.00,0.0683
494.00,0.0683
493.00,0.0680
492.00,0.0674
491.00,0.0665
490.00,0.0653
489.00,0.0642
488.00,0.0634
487.00,0.0629
486.00,0.0625
485.00,0.0621
484.00,0.0614
483.00,0.0603
482.00,0.0590
481.00,0.0576
480.00,0.0561
479.00,0.0545
478.00,0.0531
477.00,0.0523
476.00,0.0519
475.00,0.0520
474.00,0.0522
473.00,0.0527
472.00,0.0534
471.00,0.0540
470.00,0.0546
469.00,0.0553
468.00,0.0562
467.00,0.0570
466.00,0.0576
465.00,0.0577
464.00,0.0576
463.00,0.0575
462.00,0.0573
461.00,0.0568
460.00,0.0562
459.00,0.0557
458.00,0.0554
457.00,0.0555
456.00,0.0556
455.00,0.0555
454.00,0.0551
453.00,0.0547
452.00,0.0543
451.00,0.0538
450.00,0.0533
449.00,0.0526
448.00,0.0519
447.00,0.0511
446.00,0.0501
445.00,0.0490
444.00,0.0480
443.00,0.0471
442.00,0.0463
441.00,0.0458
440.00,0.0456
439.00,0.0455
438.00,0.0455
437.00,0.0456
436.00,0.0456
435.00,0.0456
434.00,0.0455
433.00,0.0455
432.00,0.0458
431.00,0.0463
430.00,0.0471
429.00,0.0484
428.00,0.0504
427.00,0.0529
426.00,0.0555
425.00,0.0577
424.00,0.0588
423.00,0.0585
422.00,0.0574
421.00,0.0565
420.00,0.0564
419.00,0.0564
418.00,0.0558
417.00,0.0549
416.00,0.0543
415.00,0.0542
414.00,0.0542
413.00,0.0544
412.00,0.0546
411.00,0.0550
410.00,0.0559
409.00,0.0576
408.00,0.0597
407.00,0.0614
406.00,0.0623
405.00,0.0630
404.00,0.0642
403.00,0.0658
402.00,0.0670
401.00,0.0680
400.00,0.0694
