Created as New Dataset,Sample 903 By YargerLab Date Wednesday, July 23 2025
cm-1,A
4000.00,0.0038
3999.00,0.0038
3998.00,0.0038
3997.00,0.0038
3996.00,0.0038
3995.00,0.0038
3994.00,0.0039
3993.00,0.0039
3992.00,0.0039
3991.00,0.0039
3990.00,0.0039
3989.00,0.0038
3988.00,0.0038
3987.00,0.0038
3986.00,0.0038
3985.00,0.0038
3984.00,0.0038
3983.00,0.0038
3982.00,0.0038
3981.00,0.0038
3980.00,0.0038
3979.00,0.0038
3978.00,0.0038
3977.00,0.0038
3976.00,0.0038
3975.00,0.0038
3974.00,0.0038
3973.00,0.0038
3972.00,0.0038
3971.00,0.0038
3970.00,0.0038
3969.00,0.0038
3968.00,0.0038
3967.00,0.0038
3966.00,0.0037
3965.00,0.0037
3964.00,0.0037
3963.00,0.0037
3962.00,0.0037
3961.00,0.0038
3960.00,0.0038
3959.00,0.0038
3958.00,0.0038
3957.00,0.0038
3956.00,0.0038
3955.00,0.0038
3954.00,0.0038
3953.00,0.0038
3952.00,0.0038
3951.00,0.0038
3950.00,0.0038
3949.00,0.0038
3948.00,0.0038
3947.00,0.0038
3946.00,0.0039
3945.00,0.0039
3944.00,0.0039
3943.00,0.0039
3942.00,0.0039
3941.00,0.0039
3940.00,0.0038
3939.00,0.0038
3938.00,0.0038
3937.00,0.0038
3936.00,0.0038
3935.00,0.0038
3934.00,0.0038
3933.00,0.0038
3932.00,0.0038
3931.00,0.0038
3930.00,0.0038
3929.00,0.0038
3928.00,0.0038
3927.00,0.0038
3926.00,0.0038
3925.00,0.0038
3924.00,0.0038
3923.00,0.0038
3922.00,0.0038
3921.00,0.0038
3920.00,0.0038
3919.00,0.0038
3918.00,0.0038
3917.00,0.0038
3916.00,0.0039
3915.00,0.0039
3914.00,0.0038
3913.00,0.0038
3912.00,0.0038
3911.00,0.0038
3910.00,0.0038
3909.00,0.0038
3908.00,0.0038
3907.00,0.0039
3906.00,0.0039
3905.00,0.0040
3904.00,0.0040
3903.00,0.0040
3902.00,0.0040
3901.00,0.0040
3900.00,0.0040
3899.00,0.0040
3898.00,0.0040
3897.00,0.0039
3896.00,0.0039
3895.00,0.0039
3894.00,0.0039
3893.00,0.0039
3892.00,0.0039
3891.00,0.0039
3890.00,0.0039
3889.00,0.0039
3888.00,0.0039
3887.00,0.0039
3886.00,0.0039
3885.00,0.0039
3884.00,0.0039
3883.00,0.0039
3882.00,0.0039
3881.00,0.0039
3880.00,0.0038
3879.00,0.0039
3878.00,0.0039
3877.00,0.0039
3876.00,0.0039
3875.00,0.0039
3874.00,0.0039
3873.00,0.0039
3872.00,0.0039
3871.00,0.0039
3870.00,0.0039
3869.00,0.0039
3868.00,0.0039
3867.00,0.0039
3866.00,0.0039
3865.00,0.0038
3864.00,0.0038
3863.00,0.0039
3862.00,0.0039
3861.00,0.0039
3860.00,0.0039
3859.00,0.0039
3858.00,0.0040
3857.00,0.0041
3856.00,0.0042
3855.00,0.0042
3854.00,0.0042
3853.00,0.0041
3852.00,0.0041
3851.00,0.0040
3850.00,0.0039
3849.00,0.0038
3848.00,0.0038
3847.00,0.0038
3846.00,0.0038
3845.00,0.0039
3844.00,0.0039
3843.00,0.0040
3842.00,0.0040
3841.00,0.0040
3840.00,0.0040
3839.00,0.0040
3838.00,0.0040
3837.00,0.0039
3836.00,0.0039
3835.00,0.0039
3834.00,0.0039
3833.00,0.0039
3832.00,0.0039
3831.00,0.0039
3830.00,0.0038
3829.00,0.0038
3828.00,0.0038
3827.00,0.0038
3826.00,0.0039
3825.00,0.0039
3824.00,0.0040
3823.00,0.0040
3822.00,0.0039
3821.00,0.0039
3820.00,0.0040
3819.00,0.0040
3818.00,0.0039
3817.00,0.0039
3816.00,0.0038
3815.00,0.0038
3814.00,0.0038
3813.00,0.0038
3812.00,0.0038
3811.00,0.0038
3810.00,0.0039
3809.00,0.0039
3808.00,0.0039
3807.00,0.0039
3806.00,0.0039
3805.00,0.0040
3804.00,0.0040
3803.00,0.0040
3802.00,0.0039
3801.00,0.0039
3800.00,0.0040
3799.00,0.0040
3798.00,0.0039
3797.00,0.0039
3796.00,0.0038
3795.00,0.0038
3794.00,0.0038
3793.00,0.0038
3792.00,0.0038
3791.00,0.0038
3790.00,0.0038
3789.00,0.0038
3788.00,0.0038
3787.00,0.0038
3786.00,0.0038
3785.00,0.0038
3784.00,0.0038
3783.00,0.0039
3782.00,0.0039
3781.00,0.0038
3780.00,0.0038
3779.00,0.0038
3778.00,0.0038
3777.00,0.0038
3776.00,0.0038
3775.00,0.0038
3774.00,0.0038
3773.00,0.0038
3772.00,0.0038
3771.00,0.0038
3770.00,0.0038
3769.00,0.0038
3768.00,0.0038
3767.00,0.0038
3766.00,0.0038
3765.00,0.0038
3764.00,0.0038
3763.00,0.0038
3762.00,0.0038
3761.00,0.0038
3760.00,0.0039
3759.00,0.0039
3758.00,0.0039
3757.00,0.0039
3756.00,0.0040
3755.00,0.0040
3754.00,0.0040
3753.00,0.0041
3752.00,0.0041
3751.00,0.0040
3750.00,0.0040
3749.00,0.0040
3748.00,0.0041
3747.00,0.0041
3746.00,0.0040
3745.00,0.0040
3744.00,0.0039
3743.00,0.0039
3742.00,0.0039
3741.00,0.0039
3740.00,0.0039
3739.00,0.0039
3738.00,0.0039
3737.00,0.0039
3736.00,0.0038
3735.00,0.0038
3734.00,0.0038
3733.00,0.0038
3732.00,0.0037
3731.00,0.0037
3730.00,0.0037
3729.00,0.0037
3728.00,0.0037
3727.00,0.0037
3726.00,0.0037
3725.00,0.0037
3724.00,0.0037
3723.00,0.0037
3722.00,0.0037
3721.00,0.0037
3720.00,0.0037
3719.00,0.0037
3718.00,0.0037
3717.00,0.0038
3716.00,0.0038
3715.00,0.0039
3714.00,0.0039
3713.00,0.0039
3712.00,0.0038
3711.00,0.0038
3710.00,0.0038
3709.00,0.0037
3708.00,0.0037
3707.00,0.0037
3706.00,0.0037
3705.00,0.0036
3704.00,0.0036
3703.00,0.0036
3702.00,0.0036
3701.00,0.0036
3700.00,0.0037
3699.00,0.0037
3698.00,0.0037
3697.00,0.0037
3696.00,0.0037
3695.00,0.0037
3694.00,0.0037
3693.00,0.0037
3692.00,0.0038
3691.00,0.0038
3690.00,0.0038
3689.00,0.0038
3688.00,0.0039
3687.00,0.0039
3686.00,0.0039
3685.00,0.0039
3684.00,0.0038
3683.00,0.0038
3682.00,0.0039
3681.00,0.0039
3680.00,0.0040
3679.00,0.0041
3678.00,0.0042
3677.00,0.0042
3676.00,0.0041
3675.00,0.0042
3674.00,0.0042
3673.00,0.0042
3672.00,0.0042
3671.00,0.0041
3670.00,0.0041
3669.00,0.0041
3668.00,0.0042
3667.00,0.0042
3666.00,0.0041
3665.00,0.0041
3664.00,0.0041
3663.00,0.0041
3662.00,0.0041
3661.00,0.0041
3660.00,0.0042
3659.00,0.0042
3658.00,0.0042
3657.00,0.0042
3656.00,0.0042
3655.00,0.0043
3654.00,0.0044
3653.00,0.0044
3652.00,0.0045
3651.00,0.0045
3650.00,0.0045
3649.00,0.0045
3648.00,0.0046
3647.00,0.0046
3646.00,0.0045
3645.00,0.0045
3644.00,0.0044
3643.00,0.0044
3642.00,0.0044
3641.00,0.0045
3640.00,0.0045
3639.00,0.0045
3638.00,0.0046
3637.00,0.0046
3636.00,0.0047
3635.00,0.0047
3634.00,0.0047
3633.00,0.0048
3632.00,0.0049
3631.00,0.0049
3630.00,0.0049
3629.00,0.0049
3628.00,0.0049
3627.00,0.0050
3626.00,0.0050
3625.00,0.0049
3624.00,0.0050
3623.00,0.0050
3622.00,0.0051
3621.00,0.0051
3620.00,0.0052
3619.00,0.0052
3618.00,0.0053
3617.00,0.0054
3616.00,0.0055
3615.00,0.0055
3614.00,0.0055
3613.00,0.0056
3612.00,0.0056
3611.00,0.0056
3610.00,0.0057
3609.00,0.0057
3608.00,0.0057
3607.00,0.0057
3606.00,0.0057
3605.00,0.0057
3604.00,0.0058
3603.00,0.0058
3602.00,0.0058
3601.00,0.0058
3600.00,0.0059
3599.00,0.0060
3598.00,0.0061
3597.00,0.0062
3596.00,0.0062
3595.00,0.0062
3594.00,0.0062
3593.00,0.0063
3592.00,0.0063
3591.00,0.0064
3590.00,0.0064
3589.00,0.0065
3588.00,0.0066
3587.00,0.0067
3586.00,0.0067
3585.00,0.0068
3584.00,0.0068
3583.00,0.0068
3582.00,0.0069
3581.00,0.0069
3580.00,0.0070
3579.00,0.0070
3578.00,0.0071
3577.00,0.0071
3576.00,0.0072
3575.00,0.0073
3574.00,0.0073
3573.00,0.0074
3572.00,0.0074
3571.00,0.0075
3570.00,0.0075
3569.00,0.0076
3568.00,0.0076
3567.00,0.0077
3566.00,0.0079
3565.00,0.0080
3564.00,0.0080
3563.00,0.0081
3562.00,0.0081
3561.00,0.0081
3560.00,0.0081
3559.00,0.0082
3558.00,0.0082
3557.00,0.0083
3556.00,0.0084
3555.00,0.0084
3554.00,0.0084
3553.00,0.0085
3552.00,0.0085
3551.00,0.0086
3550.00,0.0087
3549.00,0.0087
3548.00,0.0088
3547.00,0.0088
3546.00,0.0088
3545.00,0.0089
3544.00,0.0090
3543.00,0.0090
3542.00,0.0090
3541.00,0.0090
3540.00,0.0090
3539.00,0.0091
3538.00,0.0091
3537.00,0.0092
3536.00,0.0092
3535.00,0.0093
3534.00,0.0093
3533.00,0.0093
3532.00,0.0094
3531.00,0.0094
3530.00,0.0094
3529.00,0.0095
3528.00,0.0096
3527.00,0.0096
3526.00,0.0097
3525.00,0.0097
3524.00,0.0097
3523.00,0.0098
3522.00,0.0098
3521.00,0.0099
3520.00,0.0099
3519.00,0.0099
3518.00,0.0099
3517.00,0.0099
3516.00,0.0099
3515.00,0.0100
3514.00,0.0100
3513.00,0.0101
3512.00,0.0101
3511.00,0.0102
3510.00,0.0102
3509.00,0.0103
3508.00,0.0103
3507.00,0.0103
3506.00,0.0104
3505.00,0.0104
3504.00,0.0105
3503.00,0.0105
3502.00,0.0106
3501.00,0.0106
3500.00,0.0106
3499.00,0.0107
3498.00,0.0107
3497.00,0.0107
3496.00,0.0108
3495.00,0.0108
3494.00,0.0109
3493.00,0.0109
3492.00,0.0110
3491.00,0.0110
3490.00,0.0110
3489.00,0.0111
3488.00,0.0111
3487.00,0.0111
3486.00,0.0112
3485.00,0.0112
3484.00,0.0112
3483.00,0.0113
3482.00,0.0113
3481.00,0.0114
3480.00,0.0114
3479.00,0.0115
3478.00,0.0115
3477.00,0.0116
3476.00,0.0116
3475.00,0.0117
3474.00,0.0117
3473.00,0.0118
3472.00,0.0118
3471.00,0.0118
3470.00,0.0118
3469.00,0.0119
3468.00,0.0119
3467.00,0.0120
3466.00,0.0120
3465.00,0.0120
3464.00,0.0121
3463.00,0.0121
3462.00,0.0122
3461.00,0.0122
3460.00,0.0122
3459.00,0.0123
3458.00,0.0123
3457.00,0.0123
3456.00,0.0123
3455.00,0.0123
3454.00,0.0124
3453.00,0.0124
3452.00,0.0124
3451.00,0.0125
3450.00,0.0125
3449.00,0.0125
3448.00,0.0126
3447.00,0.0126
3446.00,0.0126
3445.00,0.0127
3444.00,0.0127
3443.00,0.0126
3442.00,0.0127
3441.00,0.0127
3440.00,0.0127
3439.00,0.0128
3438.00,0.0128
3437.00,0.0128
3436.00,0.0128
3435.00,0.0128
3434.00,0.0128
3433.00,0.0128
3432.00,0.0128
3431.00,0.0128
3430.00,0.0129
3429.00,0.0129
3428.00,0.0129
3427.00,0.0129
3426.00,0.0130
3425.00,0.0130
3424.00,0.0130
3423.00,0.0130
3422.00,0.0130
3421.00,0.0130
3420.00,0.0130
3419.00,0.0130
3418.00,0.0130
3417.00,0.0130
3416.00,0.0130
3415.00,0.0130
3414.00,0.0130
3413.00,0.0130
3412.00,0.0130
3411.00,0.0131
3410.00,0.0131
3409.00,0.0131
3408.00,0.0131
3407.00,0.0131
3406.00,0.0132
3405.00,0.0132
3404.00,0.0132
3403.00,0.0132
3402.00,0.0132
3401.00,0.0132
3400.00,0.0133
3399.00,0.0132
3398.00,0.0132
3397.00,0.0132
3396.00,0.0133
3395.00,0.0133
3394.00,0.0133
3393.00,0.0133
3392.00,0.0133
3391.00,0.0134
3390.00,0.0134
3389.00,0.0134
3388.00,0.0134
3387.00,0.0134
3386.00,0.0134
3385.00,0.0135
3384.00,0.0135
3383.00,0.0135
3382.00,0.0135
3381.00,0.0135
3380.00,0.0136
3379.00,0.0136
3378.00,0.0136
3377.00,0.0136
3376.00,0.0136
3375.00,0.0136
3374.00,0.0136
3373.00,0.0136
3372.00,0.0136
3371.00,0.0135
3370.00,0.0135
3369.00,0.0135
3368.00,0.0136
3367.00,0.0136
3366.00,0.0137
3365.00,0.0138
3364.00,0.0138
3363.00,0.0138
3362.00,0.0139
3361.00,0.0139
3360.00,0.0139
3359.00,0.0140
3358.00,0.0140
3357.00,0.0140
3356.00,0.0141
3355.00,0.0141
3354.00,0.0140
3353.00,0.0140
3352.00,0.0140
3351.00,0.0140
3350.00,0.0140
3349.00,0.0141
3348.00,0.0141
3347.00,0.0141
3346.00,0.0141
3345.00,0.0142
3344.00,0.0142
3343.00,0.0142
3342.00,0.0142
3341.00,0.0142
3340.00,0.0142
3339.00,0.0141
3338.00,0.0142
3337.00,0.0142
3336.00,0.0143
3335.00,0.0144
3334.00,0.0144
3333.00,0.0144
3332.00,0.0144
3331.00,0.0144
3330.00,0.0144
3329.00,0.0143
3328.00,0.0143
3327.00,0.0143
3326.00,0.0143
3325.00,0.0144
3324.00,0.0144
3323.00,0.0144
3322.00,0.0145
3321.00,0.0145
3320.00,0.0145
3319.00,0.0145
3318.00,0.0145
3317.00,0.0146
3316.00,0.0146
3315.00,0.0146
3314.00,0.0145
3313.00,0.0145
3312.00,0.0145
3311.00,0.0145
3310.00,0.0144
3309.00,0.0144
3308.00,0.0143
3307.00,0.0143
3306.00,0.0143
3305.00,0.0144
3304.00,0.0144
3303.00,0.0145
3302.00,0.0146
3301.00,0.0146
3300.00,0.0146
3299.00,0.0146
3298.00,0.0146
3297.00,0.0145
3296.00,0.0145
3295.00,0.0145
3294.00,0.0145
3293.00,0.0145
3292.00,0.0146
3291.00,0.0146
3290.00,0.0146
3289.00,0.0147
3288.00,0.0147
3287.00,0.0147
3286.00,0.0147
3285.00,0.0147
3284.00,0.0147
3283.00,0.0147
3282.00,0.0147
3281.00,0.0147
3280.00,0.0147
3279.00,0.0147
3278.00,0.0146
3277.00,0.0146
3276.00,0.0146
3275.00,0.0145
3274.00,0.0145
3273.00,0.0145
3272.00,0.0145
3271.00,0.0145
3270.00,0.0145
3269.00,0.0145
3268.00,0.0145
3267.00,0.0145
3266.00,0.0145
3265.00,0.0146
3264.00,0.0146
3263.00,0.0146
3262.00,0.0145
3261.00,0.0145
3260.00,0.0145
3259.00,0.0145
3258.00,0.0145
3257.00,0.0145
3256.00,0.0145
3255.00,0.0145
3254.00,0.0145
3253.00,0.0145
3252.00,0.0145
3251.00,0.0145
3250.00,0.0144
3249.00,0.0144
3248.00,0.0144
3247.00,0.0144
3246.00,0.0144
3245.00,0.0144
3244.00,0.0143
3243.00,0.0143
3242.00,0.0143
3241.00,0.0143
3240.00,0.0143
3239.00,0.0143
3238.00,0.0143
3237.00,0.0143
3236.00,0.0143
3235.00,0.0143
3234.00,0.0143
3233.00,0.0143
3232.00,0.0143
3231.00,0.0142
3230.00,0.0142
3229.00,0.0142
3228.00,0.0141
3227.00,0.0141
3226.00,0.0141
3225.00,0.0141
3224.00,0.0141
3223.00,0.0141
3222.00,0.0141
3221.00,0.0141
3220.00,0.0141
3219.00,0.0140
3218.00,0.0140
3217.00,0.0140
3216.00,0.0139
3215.00,0.0139
3214.00,0.0139
3213.00,0.0139
3212.00,0.0139
3211.00,0.0139
3210.00,0.0139
3209.00,0.0139
3208.00,0.0139
3207.00,0.0139
3206.00,0.0139
3205.00,0.0139
3204.00,0.0139
3203.00,0.0138
3202.00,0.0138
3201.00,0.0138
3200.00,0.0137
3199.00,0.0137
3198.00,0.0137
3197.00,0.0137
3196.00,0.0137
3195.00,0.0137
3194.00,0.0136
3193.00,0.0136
3192.00,0.0136
3191.00,0.0136
3190.00,0.0135
3189.00,0.0135
3188.00,0.0135
3187.00,0.0135
3186.00,0.0134
3185.00,0.0134
3184.00,0.0134
3183.00,0.0134
3182.00,0.0134
3181.00,0.0134
3180.00,0.0133
3179.00,0.0133
3178.00,0.0133
3177.00,0.0132
3176.00,0.0132
3175.00,0.0131
3174.00,0.0131
3173.00,0.0131
3172.00,0.0131
3171.00,0.0131
3170.00,0.0130
3169.00,0.0130
3168.00,0.0130
3167.00,0.0129
3166.00,0.0129
3165.00,0.0128
3164.00,0.0128
3163.00,0.0128
3162.00,0.0127
3161.00,0.0127
3160.00,0.0126
3159.00,0.0126
3158.00,0.0126
3157.00,0.0125
3156.00,0.0125
3155.00,0.0125
3154.00,0.0124
3153.00,0.0124
3152.00,0.0124
3151.00,0.0123
3150.00,0.0123
3149.00,0.0122
3148.00,0.0122
3147.00,0.0121
3146.00,0.0121
3145.00,0.0121
3144.00,0.0121
3143.00,0.0121
3142.00,0.0120
3141.00,0.0120
3140.00,0.0120
3139.00,0.0119
3138.00,0.0119
3137.00,0.0119
3136.00,0.0118
3135.00,0.0118
3134.00,0.0118
3133.00,0.0117
3132.00,0.0117
3131.00,0.0117
3130.00,0.0117
3129.00,0.0116
3128.00,0.0116
3127.00,0.0115
3126.00,0.0115
3125.00,0.0115
3124.00,0.0115
3123.00,0.0115
3122.00,0.0114
3121.00,0.0114
3120.00,0.0114
3119.00,0.0113
3118.00,0.0113
3117.00,0.0112
3116.00,0.0112
3115.00,0.0112
3114.00,0.0112
3113.00,0.0111
3112.00,0.0111
3111.00,0.0110
3110.00,0.0110
3109.00,0.0110
3108.00,0.0110
3107.00,0.0110
3106.00,0.0109
3105.00,0.0109
3104.00,0.0109
3103.00,0.0108
3102.00,0.0108
3101.00,0.0107
3100.00,0.0107
3099.00,0.0106
3098.00,0.0106
3097.00,0.0105
3096.00,0.0105
3095.00,0.0105
3094.00,0.0105
3093.00,0.0105
3092.00,0.0104
3091.00,0.0104
3090.00,0.0104
3089.00,0.0103
3088.00,0.0103
3087.00,0.0103
3086.00,0.0102
3085.00,0.0102
3084.00,0.0102
3083.00,0.0102
3082.00,0.0103
3081.00,0.0103
3080.00,0.0103
3079.00,0.0103
3078.00,0.0103
3077.00,0.0103
3076.00,0.0102
3075.00,0.0102
3074.00,0.0102
3073.00,0.0102
3072.00,0.0101
3071.00,0.0101
3070.00,0.0101
3069.00,0.0100
3068.00,0.0100
3067.00,0.0100
3066.00,0.0099
3065.00,0.0099
3064.00,0.0098
3063.00,0.0097
3062.00,0.0096
3061.00,0.0095
3060.00,0.0095
3059.00,0.0094
3058.00,0.0094
3057.00,0.0093
3056.00,0.0093
3055.00,0.0093
3054.00,0.0092
3053.00,0.0092
3052.00,0.0092
3051.00,0.0091
3050.00,0.0091
3049.00,0.0091
3048.00,0.0091
3047.00,0.0090
3046.00,0.0090
3045.00,0.0090
3044.00,0.0089
3043.00,0.0089
3042.00,0.0089
3041.00,0.0089
3040.00,0.0089
3039.00,0.0089
3038.00,0.0088
3037.00,0.0088
3036.00,0.0088
3035.00,0.0088
3034.00,0.0088
3033.00,0.0087
3032.00,0.0087
3031.00,0.0087
3030.00,0.0087
3029.00,0.0087
3028.00,0.0087
3027.00,0.0088
3026.00,0.0088
3025.00,0.0088
3024.00,0.0088
3023.00,0.0088
3022.00,0.0088
3021.00,0.0089
3020.00,0.0089
3019.00,0.0090
3018.00,0.0091
3017.00,0.0091
3016.00,0.0092
3015.00,0.0093
3014.00,0.0093
3013.00,0.0094
3012.00,0.0095
3011.00,0.0096
3010.00,0.0097
3009.00,0.0099
3008.00,0.0100
3007.00,0.0101
3006.00,0.0103
3005.00,0.0105
3004.00,0.0106
3003.00,0.0108
3002.00,0.0110
3001.00,0.0113
3000.00,0.0115
2999.00,0.0117
2998.00,0.0120
2997.00,0.0122
2996.00,0.0125
2995.00,0.0128
2994.00,0.0131
2993.00,0.0134
2992.00,0.0137
2991.00,0.0141
2990.00,0.0144
2989.00,0.0148
2988.00,0.0151
2987.00,0.0154
2986.00,0.0158
2985.00,0.0161
2984.00,0.0164
2983.00,0.0167
2982.00,0.0170
2981.00,0.0173
2980.00,0.0176
2979.00,0.0179
2978.00,0.0182
2977.00,0.0185
2976.00,0.0188
2975.00,0.0191
2974.00,0.0195
2973.00,0.0198
2972.00,0.0202
2971.00,0.0205
2970.00,0.0209
2969.00,0.0212
2968.00,0.0216
2967.00,0.0219
2966.00,0.0223
2965.00,0.0227
2964.00,0.0231
2963.00,0.0234
2962.00,0.0238
2961.00,0.0241
2960.00,0.0244
2959.00,0.0247
2958.00,0.0249
2957.00,0.0250
2956.00,0.0252
2955.00,0.0253
2954.00,0.0254
2953.00,0.0254
2952.00,0.0254
2951.00,0.0254
2950.00,0.0253
2949.00,0.0253
2948.00,0.0252
2947.00,0.0251
2946.00,0.0250
2945.00,0.0250
2944.00,0.0250
2943.00,0.0250
2942.00,0.0250
2941.00,0.0251
2940.00,0.0252
2939.00,0.0253
2938.00,0.0255
2937.00,0.0257
2936.00,0.0260
2935.00,0.0263
2934.00,0.0266
2933.00,0.0270
2932.00,0.0273
2931.00,0.0276
2930.00,0.0279
2929.00,0.0282
2928.00,0.0284
2927.00,0.0287
2926.00,0.0288
2925.00,0.0290
2924.00,0.0291
2923.00,0.0291
2922.00,0.0291
2921.00,0.0291
2920.00,0.0290
2919.00,0.0289
2918.00,0.0287
2917.00,0.0284
2916.00,0.0281
2915.00,0.0278
2914.00,0.0275
2913.00,0.0271
2912.00,0.0267
2911.00,0.0263
2910.00,0.0259
2909.00,0.0255
2908.00,0.0251
2907.00,0.0247
2906.00,0.0244
2905.00,0.0241
2904.00,0.0238
2903.00,0.0235
2902.00,0.0233
2901.00,0.0231
2900.00,0.0230
2899.00,0.0228
2898.00,0.0228
2897.00,0.0227
2896.00,0.0226
2895.00,0.0225
2894.00,0.0225
2893.00,0.0224
2892.00,0.0223
2891.00,0.0223
2890.00,0.0222
2889.00,0.0221
2888.00,0.0221
2887.00,0.0220
2886.00,0.0220
2885.00,0.0219
2884.00,0.0219
2883.00,0.0219
2882.00,0.0218
2881.00,0.0218
2880.00,0.0218
2879.00,0.0218
2878.00,0.0218
2877.00,0.0218
2876.00,0.0218
2875.00,0.0218
2874.00,0.0218
2873.00,0.0218
2872.00,0.0218
2871.00,0.0217
2870.00,0.0217
2869.00,0.0216
2868.00,0.0215
2867.00,0.0214
2866.00,0.0213
2865.00,0.0212
2864.00,0.0212
2863.00,0.0212
2862.00,0.0212
2861.00,0.0212
2860.00,0.0212
2859.00,0.0213
2858.00,0.0213
2857.00,0.0212
2856.00,0.0211
2855.00,0.0209
2854.00,0.0206
2853.00,0.0203
2852.00,0.0199
2851.00,0.0194
2850.00,0.0189
2849.00,0.0184
2848.00,0.0178
2847.00,0.0173
2846.00,0.0167
2845.00,0.0162
2844.00,0.0158
2843.00,0.0153
2842.00,0.0149
2841.00,0.0145
2840.00,0.0142
2839.00,0.0139
2838.00,0.0137
2837.00,0.0135
2836.00,0.0134
2835.00,0.0132
2834.00,0.0131
2833.00,0.0129
2832.00,0.0128
2831.00,0.0126
2830.00,0.0124
2829.00,0.0122
2828.00,0.0120
2827.00,0.0118
2826.00,0.0115
2825.00,0.0112
2824.00,0.0109
2823.00,0.0106
2822.00,0.0104
2821.00,0.0101
2820.00,0.0098
2819.00,0.0096
2818.00,0.0094
2817.00,0.0092
2816.00,0.0090
2815.00,0.0089
2814.00,0.0088
2813.00,0.0086
2812.00,0.0085
2811.00,0.0084
2810.00,0.0083
2809.00,0.0083
2808.00,0.0082
2807.00,0.0081
2806.00,0.0081
2805.00,0.0080
2804.00,0.0080
2803.00,0.0079
2802.00,0.0078
2801.00,0.0078
2800.00,0.0077
2799.00,0.0077
2798.00,0.0077
2797.00,0.0076
2796.00,0.0076
2795.00,0.0076
2794.00,0.0076
2793.00,0.0075
2792.00,0.0075
2791.00,0.0074
2790.00,0.0074
2789.00,0.0074
2788.00,0.0073
2787.00,0.0073
2786.00,0.0073
2785.00,0.0073
2784.00,0.0073
2783.00,0.0073
2782.00,0.0073
2781.00,0.0072
2780.00,0.0072
2779.00,0.0071
2778.00,0.0071
2777.00,0.0071
2776.00,0.0071
2775.00,0.0071
2774.00,0.0071
2773.00,0.0070
2772.00,0.0070
2771.00,0.0069
2770.00,0.0069
2769.00,0.0069
2768.00,0.0069
2767.00,0.0069
2766.00,0.0068
2765.00,0.0068
2764.00,0.0068
2763.00,0.0068
2762.00,0.0068
2761.00,0.0068
2760.00,0.0067
2759.00,0.0067
2758.00,0.0067
2757.00,0.0068
2756.00,0.0068
2755.00,0.0068
2754.00,0.0068
2753.00,0.0067
2752.00,0.0067
2751.00,0.0067
2750.00,0.0067
2749.00,0.0067
2748.00,0.0067
2747.00,0.0067
2746.00,0.0067
2745.00,0.0067
2744.00,0.0068
2743.00,0.0068
2742.00,0.0068
2741.00,0.0068
2740.00,0.0068
2739.00,0.0068
2738.00,0.0068
2737.00,0.0068
2736.00,0.0068
2735.00,0.0068
2734.00,0.0068
2733.00,0.0068
2732.00,0.0069
2731.00,0.0069
2730.00,0.0069
2729.00,0.0069
2728.00,0.0069
2727.00,0.0069
2726.00,0.0069
2725.00,0.0069
2724.00,0.0069
2723.00,0.0069
2722.00,0.0069
2721.00,0.0069
2720.00,0.0068
2719.00,0.0068
2718.00,0.0068
2717.00,0.0068
2716.00,0.0068
2715.00,0.0068
2714.00,0.0067
2713.00,0.0067
2712.00,0.0067
2711.00,0.0067
2710.00,0.0066
2709.00,0.0066
2708.00,0.0066
2707.00,0.0066
2706.00,0.0066
2705.00,0.0066
2704.00,0.0066
2703.00,0.0066
2702.00,0.0066
2701.00,0.0065
2700.00,0.0065
2699.00,0.0065
2698.00,0.0065
2697.00,0.0065
2696.00,0.0065
2695.00,0.0065
2694.00,0.0065
2693.00,0.0065
2692.00,0.0065
2691.00,0.0065
2690.00,0.0065
2689.00,0.0065
2688.00,0.0065
2687.00,0.0065
2686.00,0.0065
2685.00,0.0064
2684.00,0.0064
2683.00,0.0064
2682.00,0.0064
2681.00,0.0064
2680.00,0.0064
2679.00,0.0064
2678.00,0.0064
2677.00,0.0064
2676.00,0.0064
2675.00,0.0064
2674.00,0.0064
2673.00,0.0064
2672.00,0.0064
2671.00,0.0064
2670.00,0.0064
2669.00,0.0064
2668.00,0.0064
2667.00,0.0064
2666.00,0.0064
2665.00,0.0065
2664.00,0.0065
2663.00,0.0066
2662.00,0.0066
2661.00,0.0067
2660.00,0.0067
2659.00,0.0067
2658.00,0.0067
2657.00,0.0067
2656.00,0.0067
2655.00,0.0067
2654.00,0.0067
2653.00,0.0067
2652.00,0.0067
2651.00,0.0066
2650.00,0.0066
2649.00,0.0066
2648.00,0.0066
2647.00,0.0066
2646.00,0.0066
2645.00,0.0066
2644.00,0.0066
2643.00,0.0066
2642.00,0.0065
2641.00,0.0065
2640.00,0.0065
2639.00,0.0065
2638.00,0.0065
2637.00,0.0065
2636.00,0.0064
2635.00,0.0064
2634.00,0.0064
2633.00,0.0064
2632.00,0.0063
2631.00,0.0063
2630.00,0.0063
2629.00,0.0063
2628.00,0.0063
2627.00,0.0063
2626.00,0.0063
2625.00,0.0062
2624.00,0.0062
2623.00,0.0062
2622.00,0.0062
2621.00,0.0061
2620.00,0.0061
2619.00,0.0061
2618.00,0.0061
2617.00,0.0061
2616.00,0.0061
2615.00,0.0061
2614.00,0.0061
2613.00,0.0060
2612.00,0.0060
2611.00,0.0060
2610.00,0.0060
2609.00,0.0060
2608.00,0.0060
2607.00,0.0060
2606.00,0.0059
2605.00,0.0059
2604.00,0.0059
2603.00,0.0059
2602.00,0.0059
2601.00,0.0059
2600.00,0.0059
2599.00,0.0059
2598.00,0.0058
2597.00,0.0058
2596.00,0.0058
2595.00,0.0058
2594.00,0.0058
2593.00,0.0058
2592.00,0.0057
2591.00,0.0057
2590.00,0.0057
2589.00,0.0058
2588.00,0.0058
2587.00,0.0058
2586.00,0.0058
2585.00,0.0057
2584.00,0.0057
2583.00,0.0057
2582.00,0.0057
2581.00,0.0057
2580.00,0.0057
2579.00,0.0057
2578.00,0.0057
2577.00,0.0057
2576.00,0.0056
2575.00,0.0056
2574.00,0.0056
2573.00,0.0056
2572.00,0.0056
2571.00,0.0056
2570.00,0.0056
2569.00,0.0055
2568.00,0.0055
2567.00,0.0055
2566.00,0.0055
2565.00,0.0055
2564.00,0.0055
2563.00,0.0054
2562.00,0.0054
2561.00,0.0054
2560.00,0.0054
2559.00,0.0054
2558.00,0.0054
2557.00,0.0054
2556.00,0.0054
2555.00,0.0054
2554.00,0.0054
2553.00,0.0053
2552.00,0.0053
2551.00,0.0053
2550.00,0.0053
2549.00,0.0053
2548.00,0.0053
2547.00,0.0052
2546.00,0.0052
2545.00,0.0052
2544.00,0.0052
2543.00,0.0052
2542.00,0.0052
2541.00,0.0052
2540.00,0.0052
2539.00,0.0052
2538.00,0.0052
2537.00,0.0051
2536.00,0.0051
2535.00,0.0051
2534.00,0.0051
2533.00,0.0051
2532.00,0.0051
2531.00,0.0051
2530.00,0.0051
2529.00,0.0051
2528.00,0.0051
2527.00,0.0051
2526.00,0.0051
2525.00,0.0051
2524.00,0.0051
2523.00,0.0050
2522.00,0.0050
2521.00,0.0050
2520.00,0.0050
2519.00,0.0050
2518.00,0.0050
2517.00,0.0050
2516.00,0.0051
2515.00,0.0050
2514.00,0.0050
2513.00,0.0049
2512.00,0.0049
2511.00,0.0049
2510.00,0.0049
2509.00,0.0049
2508.00,0.0049
2507.00,0.0049
2506.00,0.0049
2505.00,0.0049
2504.00,0.0048
2503.00,0.0048
2502.00,0.0048
2501.00,0.0048
2500.00,0.0048
2499.00,0.0048
2498.00,0.0048
2497.00,0.0047
2496.00,0.0047
2495.00,0.0047
2494.00,0.0047
2493.00,0.0048
2492.00,0.0048
2491.00,0.0048
2490.00,0.0048
2489.00,0.0048
2488.00,0.0048
2487.00,0.0048
2486.00,0.0048
2485.00,0.0047
2484.00,0.0047
2483.00,0.0047
2482.00,0.0047
2481.00,0.0047
2480.00,0.0047
2479.00,0.0047
2478.00,0.0047
2477.00,0.0047
2476.00,0.0047
2475.00,0.0047
2474.00,0.0046
2473.00,0.0046
2472.00,0.0046
2471.00,0.0046
2470.00,0.0047
2469.00,0.0047
2468.00,0.0047
2467.00,0.0047
2466.00,0.0046
2465.00,0.0046
2464.00,0.0047
2463.00,0.0047
2462.00,0.0047
2461.00,0.0047
2460.00,0.0047
2459.00,0.0047
2458.00,0.0047
2457.00,0.0048
2456.00,0.0048
2455.00,0.0048
2454.00,0.0048
2453.00,0.0048
2452.00,0.0048
2451.00,0.0048
2450.00,0.0048
2449.00,0.0047
2448.00,0.0047
2447.00,0.0047
2446.00,0.0047
2445.00,0.0047
2444.00,0.0047
2443.00,0.0047
2442.00,0.0047
2441.00,0.0047
2440.00,0.0047
2439.00,0.0047
2438.00,0.0046
2437.00,0.0046
2436.00,0.0046
2435.00,0.0046
2434.00,0.0046
2433.00,0.0046
2432.00,0.0046
2431.00,0.0046
2430.00,0.0045
2429.00,0.0045
2428.00,0.0045
2427.00,0.0045
2426.00,0.0044
2425.00,0.0044
2424.00,0.0044
2423.00,0.0044
2422.00,0.0044
2421.00,0.0044
2420.00,0.0044
2419.00,0.0044
2418.00,0.0044
2417.00,0.0044
2416.00,0.0045
2415.00,0.0044
2414.00,0.0044
2413.00,0.0044
2412.00,0.0044
2411.00,0.0044
2410.00,0.0044
2409.00,0.0043
2408.00,0.0043
2407.00,0.0042
2406.00,0.0042
2405.00,0.0042
2404.00,0.0042
2403.00,0.0042
2402.00,0.0043
2401.00,0.0043
2400.00,0.0043
2399.00,0.0043
2398.00,0.0043
2397.00,0.0043
2396.00,0.0043
2395.00,0.0043
2394.00,0.0043
2393.00,0.0043
2392.00,0.0042
2391.00,0.0042
2390.00,0.0042
2389.00,0.0042
2388.00,0.0042
2387.00,0.0041
2386.00,0.0041
2385.00,0.0041
2384.00,0.0040
2383.00,0.0039
2382.00,0.0038
2381.00,0.0037
2380.00,0.0037
2379.00,0.0036
2378.00,0.0037
2377.00,0.0037
2376.00,0.0037
2375.00,0.0038
2374.00,0.0038
2373.00,0.0038
2372.00,0.0038
2371.00,0.0037
2370.00,0.0037
2369.00,0.0037
2368.00,0.0037
2367.00,0.0037
2366.00,0.0037
2365.00,0.0038
2364.00,0.0038
2363.00,0.0037
2362.00,0.0037
2361.00,0.0037
2360.00,0.0038
2359.00,0.0038
2358.00,0.0038
2357.00,0.0038
2356.00,0.0038
2355.00,0.0039
2354.00,0.0039
2353.00,0.0039
2352.00,0.0039
2351.00,0.0039
2350.00,0.0039
2349.00,0.0040
2348.00,0.0040
2347.00,0.0041
2346.00,0.0041
2345.00,0.0041
2344.00,0.0041
2343.00,0.0041
2342.00,0.0041
2341.00,0.0042
2340.00,0.0043
2339.00,0.0043
2338.00,0.0044
2337.00,0.0044
2336.00,0.0044
2335.00,0.0044
2334.00,0.0044
2333.00,0.0044
2332.00,0.0044
2331.00,0.0044
2330.00,0.0044
2329.00,0.0046
2328.00,0.0050
2327.00,0.0054
2326.00,0.0058
2325.00,0.0059
2324.00,0.0058
2323.00,0.0055
2322.00,0.0053
2321.00,0.0051
2320.00,0.0050
2319.00,0.0049
2318.00,0.0049
2317.00,0.0049
2316.00,0.0049
2315.00,0.0048
2314.00,0.0048
2313.00,0.0048
2312.00,0.0047
2311.00,0.0047
2310.00,0.0046
2309.00,0.0046
2308.00,0.0046
2307.00,0.0046
2306.00,0.0047
2305.00,0.0048
2304.00,0.0048
2303.00,0.0048
2302.00,0.0048
2301.00,0.0048
2300.00,0.0047
2299.00,0.0048
2298.00,0.0048
2297.00,0.0049
2296.00,0.0050
2295.00,0.0051
2294.00,0.0052
2293.00,0.0053
2292.00,0.0055
2291.00,0.0055
2290.00,0.0056
2289.00,0.0057
2288.00,0.0057
2287.00,0.0057
2286.00,0.0056
2285.00,0.0056
2284.00,0.0055
2283.00,0.0055
2282.00,0.0055
2281.00,0.0054
2280.00,0.0054
2279.00,0.0053
2278.00,0.0052
2277.00,0.0052
2276.00,0.0052
2275.00,0.0052
2274.00,0.0051
2273.00,0.0051
2272.00,0.0051
2271.00,0.0051
2270.00,0.0050
2269.00,0.0049
2268.00,0.0048
2267.00,0.0048
2266.00,0.0048
2265.00,0.0048
2264.00,0.0048
2263.00,0.0049
2262.00,0.0050
2261.00,0.0050
2260.00,0.0050
2259.00,0.0050
2258.00,0.0049
2257.00,0.0049
2256.00,0.0048
2255.00,0.0047
2254.00,0.0047
2253.00,0.0047
2252.00,0.0047
2251.00,0.0047
2250.00,0.0048
2249.00,0.0048
2248.00,0.0048
2247.00,0.0048
2246.00,0.0047
2245.00,0.0047
2244.00,0.0047
2243.00,0.0046
2242.00,0.0046
2241.00,0.0045
2240.00,0.0046
2239.00,0.0046
2238.00,0.0047
2237.00,0.0047
2236.00,0.0048
2235.00,0.0048
2234.00,0.0047
2233.00,0.0046
2232.00,0.0047
2231.00,0.0047
2230.00,0.0047
2229.00,0.0047
2228.00,0.0047
2227.00,0.0046
2226.00,0.0046
2225.00,0.0045
2224.00,0.0045
2223.00,0.0045
2222.00,0.0044
2221.00,0.0044
2220.00,0.0044
2219.00,0.0045
2218.00,0.0046
2217.00,0.0046
2216.00,0.0047
2215.00,0.0047
2214.00,0.0047
2213.00,0.0047
2212.00,0.0047
2211.00,0.0048
2210.00,0.0048
2209.00,0.0049
2208.00,0.0049
2207.00,0.0049
2206.00,0.0048
2205.00,0.0048
2204.00,0.0048
2203.00,0.0047
2202.00,0.0047
2201.00,0.0046
2200.00,0.0046
2199.00,0.0046
2198.00,0.0046
2197.00,0.0046
2196.00,0.0047
2195.00,0.0047
2194.00,0.0047
2193.00,0.0047
2192.00,0.0048
2191.00,0.0048
2190.00,0.0048
2189.00,0.0049
2188.00,0.0049
2187.00,0.0049
2186.00,0.0049
2185.00,0.0048
2184.00,0.0046
2183.00,0.0044
2182.00,0.0042
2181.00,0.0042
2180.00,0.0043
2179.00,0.0044
2178.00,0.0044
2177.00,0.0043
2176.00,0.0042
2175.00,0.0042
2174.00,0.0043
2173.00,0.0046
2172.00,0.0050
2171.00,0.0053
2170.00,0.0055
2169.00,0.0056
2168.00,0.0056
2167.00,0.0055
2166.00,0.0054
2165.00,0.0056
2164.00,0.0059
2163.00,0.0060
2162.00,0.0055
2161.00,0.0043
2160.00,0.0028
2159.00,0.0016
2158.00,0.0011
2157.00,0.0011
2156.00,0.0014
2155.00,0.0016
2154.00,0.0019
2153.00,0.0022
2152.00,0.0024
2151.00,0.0025
2150.00,0.0025
2149.00,0.0024
2148.00,0.0024
2147.00,0.0025
2146.00,0.0026
2145.00,0.0027
2144.00,0.0027
2143.00,0.0027
2142.00,0.0027
2141.00,0.0028
2140.00,0.0028
2139.00,0.0027
2138.00,0.0026
2137.00,0.0025
2136.00,0.0023
2135.00,0.0022
2134.00,0.0021
2133.00,0.0021
2132.00,0.0024
2131.00,0.0026
2130.00,0.0028
2129.00,0.0030
2128.00,0.0032
2127.00,0.0033
2126.00,0.0033
2125.00,0.0034
2124.00,0.0035
2123.00,0.0036
2122.00,0.0037
2121.00,0.0038
2120.00,0.0039
2119.00,0.0040
2118.00,0.0041
2117.00,0.0042
2116.00,0.0043
2115.00,0.0044
2114.00,0.0043
2113.00,0.0043
2112.00,0.0043
2111.00,0.0043
2110.00,0.0042
2109.00,0.0042
2108.00,0.0042
2107.00,0.0043
2106.00,0.0043
2105.00,0.0043
2104.00,0.0043
2103.00,0.0043
2102.00,0.0043
2101.00,0.0042
2100.00,0.0042
2099.00,0.0042
2098.00,0.0040
2097.00,0.0038
2096.00,0.0036
2095.00,0.0035
2094.00,0.0036
2093.00,0.0037
2092.00,0.0039
2091.00,0.0040
2090.00,0.0041
2089.00,0.0042
2088.00,0.0042
2087.00,0.0042
2086.00,0.0042
2085.00,0.0043
2084.00,0.0043
2083.00,0.0044
2082.00,0.0044
2081.00,0.0044
2080.00,0.0044
2079.00,0.0044
2078.00,0.0043
2077.00,0.0043
2076.00,0.0043
2075.00,0.0043
2074.00,0.0043
2073.00,0.0042
2072.00,0.0041
2071.00,0.0041
2070.00,0.0040
2069.00,0.0040
2068.00,0.0041
2067.00,0.0041
2066.00,0.0040
2065.00,0.0039
2064.00,0.0038
2063.00,0.0038
2062.00,0.0037
2061.00,0.0037
2060.00,0.0038
2059.00,0.0039
2058.00,0.0039
2057.00,0.0039
2056.00,0.0039
2055.00,0.0040
2054.00,0.0043
2053.00,0.0048
2052.00,0.0052
2051.00,0.0053
2050.00,0.0050
2049.00,0.0046
2048.00,0.0044
2047.00,0.0042
2046.00,0.0041
2045.00,0.0041
2044.00,0.0042
2043.00,0.0042
2042.00,0.0042
2041.00,0.0043
2040.00,0.0044
2039.00,0.0045
2038.00,0.0044
2037.00,0.0043
2036.00,0.0043
2035.00,0.0042
2034.00,0.0040
2033.00,0.0038
2032.00,0.0037
2031.00,0.0035
2030.00,0.0034
2029.00,0.0034
2028.00,0.0034
2027.00,0.0035
2026.00,0.0035
2025.00,0.0035
2024.00,0.0036
2023.00,0.0036
2022.00,0.0035
2021.00,0.0033
2020.00,0.0032
2019.00,0.0033
2018.00,0.0034
2017.00,0.0036
2016.00,0.0037
2015.00,0.0037
2014.00,0.0036
2013.00,0.0035
2012.00,0.0036
2011.00,0.0037
2010.00,0.0035
2009.00,0.0032
2008.00,0.0029
2007.00,0.0026
2006.00,0.0024
2005.00,0.0025
2004.00,0.0027
2003.00,0.0029
2002.00,0.0030
2001.00,0.0032
2000.00,0.0035
1999.00,0.0036
1998.00,0.0036
1997.00,0.0037
1996.00,0.0037
1995.00,0.0037
1994.00,0.0036
1993.00,0.0036
1992.00,0.0037
1991.00,0.0038
1990.00,0.0038
1989.00,0.0039
1988.00,0.0041
1987.00,0.0041
1986.00,0.0041
1985.00,0.0042
1984.00,0.0044
1983.00,0.0047
1982.00,0.0050
1981.00,0.0050
1980.00,0.0048
1979.00,0.0042
1978.00,0.0035
1977.00,0.0030
1976.00,0.0028
1975.00,0.0027
1974.00,0.0027
1973.00,0.0027
1972.00,0.0029
1971.00,0.0029
1970.00,0.0029
1969.00,0.0028
1968.00,0.0029
1967.00,0.0029
1966.00,0.0028
1965.00,0.0028
1964.00,0.0028
1963.00,0.0027
1962.00,0.0024
1961.00,0.0021
1960.00,0.0019
1959.00,0.0019
1958.00,0.0020
1957.00,0.0022
1956.00,0.0024
1955.00,0.0026
1954.00,0.0028
1953.00,0.0029
1952.00,0.0030
1951.00,0.0030
1950.00,0.0029
1949.00,0.0029
1948.00,0.0030
1947.00,0.0030
1946.00,0.0031
1945.00,0.0031
1944.00,0.0031
1943.00,0.0030
1942.00,0.0029
1941.00,0.0029
1940.00,0.0029
1939.00,0.0029
1938.00,0.0029
1937.00,0.0030
1936.00,0.0030
1935.00,0.0030
1934.00,0.0030
1933.00,0.0030
1932.00,0.0030
1931.00,0.0030
1930.00,0.0029
1929.00,0.0029
1928.00,0.0030
1927.00,0.0030
1926.00,0.0030
1925.00,0.0030
1924.00,0.0031
1923.00,0.0031
1922.00,0.0031
1921.00,0.0032
1920.00,0.0032
1919.00,0.0032
1918.00,0.0032
1917.00,0.0031
1916.00,0.0032
1915.00,0.0032
1914.00,0.0032
1913.00,0.0032
1912.00,0.0033
1911.00,0.0033
1910.00,0.0033
1909.00,0.0032
1908.00,0.0032
1907.00,0.0032
1906.00,0.0031
1905.00,0.0031
1904.00,0.0031
1903.00,0.0031
1902.00,0.0031
1901.00,0.0031
1900.00,0.0031
1899.00,0.0032
1898.00,0.0032
1897.00,0.0032
1896.00,0.0032
1895.00,0.0032
1894.00,0.0032
1893.00,0.0032
1892.00,0.0032
1891.00,0.0032
1890.00,0.0032
1889.00,0.0032
1888.00,0.0033
1887.00,0.0033
1886.00,0.0032
1885.00,0.0032
1884.00,0.0032
1883.00,0.0032
1882.00,0.0032
1881.00,0.0032
1880.00,0.0032
1879.00,0.0032
1878.00,0.0032
1877.00,0.0032
1876.00,0.0033
1875.00,0.0034
1874.00,0.0034
1873.00,0.0033
1872.00,0.0034
1871.00,0.0034
1870.00,0.0034
1869.00,0.0034
1868.00,0.0034
1867.00,0.0034
1866.00,0.0034
1865.00,0.0034
1864.00,0.0034
1863.00,0.0034
1862.00,0.0034
1861.00,0.0034
1860.00,0.0034
1859.00,0.0034
1858.00,0.0034
1857.00,0.0034
1856.00,0.0034
1855.00,0.0034
1854.00,0.0034
1853.00,0.0034
1852.00,0.0034
1851.00,0.0034
1850.00,0.0034
1849.00,0.0034
1848.00,0.0035
1847.00,0.0036
1846.00,0.0036
1845.00,0.0036
1844.00,0.0035
1843.00,0.0035
1842.00,0.0034
1841.00,0.0034
1840.00,0.0035
1839.00,0.0035
1838.00,0.0035
1837.00,0.0035
1836.00,0.0035
1835.00,0.0035
1834.00,0.0035
1833.00,0.0036
1832.00,0.0036
1831.00,0.0036
1830.00,0.0036
1829.00,0.0035
1828.00,0.0035
1827.00,0.0035
1826.00,0.0035
1825.00,0.0035
1824.00,0.0035
1823.00,0.0035
1822.00,0.0035
1821.00,0.0034
1820.00,0.0034
1819.00,0.0033
1818.00,0.0032
1817.00,0.0031
1816.00,0.0032
1815.00,0.0033
1814.00,0.0034
1813.00,0.0034
1812.00,0.0035
1811.00,0.0035
1810.00,0.0035
1809.00,0.0035
1808.00,0.0036
1807.00,0.0036
1806.00,0.0036
1805.00,0.0036
1804.00,0.0037
1803.00,0.0037
1802.00,0.0037
1801.00,0.0037
1800.00,0.0037
1799.00,0.0037
1798.00,0.0036
1797.00,0.0036
1796.00,0.0037
1795.00,0.0038
1794.00,0.0038
1793.00,0.0038
1792.00,0.0038
1791.00,0.0038
1790.00,0.0038
1789.00,0.0038
1788.00,0.0039
1787.00,0.0039
1786.00,0.0039
1785.00,0.0039
1784.00,0.0039
1783.00,0.0039
1782.00,0.0039
1781.00,0.0039
1780.00,0.0039
1779.00,0.0039
1778.00,0.0039
1777.00,0.0039
1776.00,0.0039
1775.00,0.0040
1774.00,0.0041
1773.00,0.0040
1772.00,0.0040
1771.00,0.0040
1770.00,0.0040
1769.00,0.0041
1768.00,0.0042
1767.00,0.0042
1766.00,0.0042
1765.00,0.0042
1764.00,0.0042
1763.00,0.0043
1762.00,0.0043
1761.00,0.0043
1760.00,0.0043
1759.00,0.0044
1758.00,0.0044
1757.00,0.0044
1756.00,0.0045
1755.00,0.0045
1754.00,0.0046
1753.00,0.0047
1752.00,0.0048
1751.00,0.0049
1750.00,0.0049
1749.00,0.0048
1748.00,0.0049
1747.00,0.0049
1746.00,0.0049
1745.00,0.0049
1744.00,0.0050
1743.00,0.0050
1742.00,0.0050
1741.00,0.0050
1740.00,0.0051
1739.00,0.0051
1738.00,0.0052
1737.00,0.0053
1736.00,0.0054
1735.00,0.0055
1734.00,0.0055
1733.00,0.0055
1732.00,0.0057
1731.00,0.0058
1730.00,0.0059
1729.00,0.0060
1728.00,0.0061
1727.00,0.0063
1726.00,0.0065
1725.00,0.0067
1724.00,0.0070
1723.00,0.0073
1722.00,0.0075
1721.00,0.0079
1720.00,0.0084
1719.00,0.0090
1718.00,0.0096
1717.00,0.0104
1716.00,0.0112
1715.00,0.0120
1714.00,0.0126
1713.00,0.0133
1712.00,0.0139
1711.00,0.0144
1710.00,0.0149
1709.00,0.0153
1708.00,0.0159
1707.00,0.0166
1706.00,0.0174
1705.00,0.0184
1704.00,0.0195
1703.00,0.0206
1702.00,0.0219
1701.00,0.0240
1700.00,0.0271
1699.00,0.0299
1698.00,0.0322
1697.00,0.0348
1696.00,0.0385
1695.00,0.0427
1694.00,0.0463
1693.00,0.0494
1692.00,0.0525
1691.00,0.0558
1690.00,0.0595
1689.00,0.0633
1688.00,0.0667
1687.00,0.0695
1686.00,0.0721
1685.00,0.0758
1684.00,0.0808
1683.00,0.0854
1682.00,0.0883
1681.00,0.0903
1680.00,0.0921
1679.00,0.0937
1678.00,0.0951
1677.00,0.0963
1676.00,0.0977
1675.00,0.0997
1674.00,0.1014
1673.00,0.1024
1672.00,0.1029
1671.00,0.1034
1670.00,0.1044
1669.00,0.1059
1668.00,0.1074
1667.00,0.1084
1666.00,0.1089
1665.00,0.1092
1664.00,0.1098
1663.00,0.1109
1662.00,0.1123
1661.00,0.1135
1660.00,0.1144
1659.00,0.1148
1658.00,0.1149
1657.00,0.1148
1656.00,0.1142
1655.00,0.1133
1654.00,0.1127
1653.00,0.1133
1652.00,0.1141
1651.00,0.1136
1650.00,0.1119
1649.00,0.1093
1648.00,0.1064
1647.00,0.1036
1646.00,0.1011
1645.00,0.0984
1644.00,0.0955
1643.00,0.0921
1642.00,0.0885
1641.00,0.0847
1640.00,0.0810
1639.00,0.0774
1638.00,0.0738
1637.00,0.0699
1636.00,0.0660
1635.00,0.0625
1634.00,0.0597
1633.00,0.0572
1632.00,0.0548
1631.00,0.0526
1630.00,0.0505
1629.00,0.0486
1628.00,0.0471
1627.00,0.0458
1626.00,0.0448
1625.00,0.0438
1624.00,0.0430
1623.00,0.0423
1622.00,0.0419
1621.00,0.0415
1620.00,0.0409
1619.00,0.0403
1618.00,0.0396
1617.00,0.0388
1616.00,0.0380
1615.00,0.0372
1614.00,0.0361
1613.00,0.0349
1612.00,0.0335
1611.00,0.0321
1610.00,0.0308
1609.00,0.0296
1608.00,0.0284
1607.00,0.0274
1606.00,0.0267
1605.00,0.0260
1604.00,0.0256
1603.00,0.0254
1602.00,0.0254
1601.00,0.0257
1600.00,0.0261
1599.00,0.0266
1598.00,0.0272
1597.00,0.0278
1596.00,0.0284
1595.00,0.0289
1594.00,0.0292
1593.00,0.0294
1592.00,0.0293
1591.00,0.0291
1590.00,0.0287
1589.00,0.0282
1588.00,0.0277
1587.00,0.0271
1586.00,0.0264
1585.00,0.0256
1584.00,0.0249
1583.00,0.0241
1582.00,0.0233
1581.00,0.0226
1580.00,0.0218
1579.00,0.0211
1578.00,0.0203
1577.00,0.0195
1576.00,0.0186
1575.00,0.0179
1574.00,0.0174
1573.00,0.0170
1572.00,0.0166
1571.00,0.0161
1570.00,0.0156
1569.00,0.0152
1568.00,0.0149
1567.00,0.0146
1566.00,0.0143
1565.00,0.0141
1564.00,0.0138
1563.00,0.0136
1562.00,0.0134
1561.00,0.0133
1560.00,0.0130
1559.00,0.0127
1558.00,0.0126
1557.00,0.0125
1556.00,0.0125
1555.00,0.0124
1554.00,0.0123
1553.00,0.0122
1552.00,0.0121
1551.00,0.0121
1550.00,0.0120
1549.00,0.0120
1548.00,0.0119
1547.00,0.0119
1546.00,0.0118
1545.00,0.0119
1544.00,0.0119
1543.00,0.0118
1542.00,0.0118
1541.00,0.0117
1540.00,0.0116
1539.00,0.0116
1538.00,0.0116
1537.00,0.0116
1536.00,0.0116
1535.00,0.0116
1534.00,0.0115
1533.00,0.0115
1532.00,0.0115
1531.00,0.0115
1530.00,0.0115
1529.00,0.0115
1528.00,0.0115
1527.00,0.0116
1526.00,0.0116
1525.00,0.0116
1524.00,0.0117
1523.00,0.0117
1522.00,0.0117
1521.00,0.0118
1520.00,0.0119
1519.00,0.0120
1518.00,0.0120
1517.00,0.0120
1516.00,0.0121
1515.00,0.0121
1514.00,0.0122
1513.00,0.0123
1512.00,0.0125
1511.00,0.0127
1510.00,0.0129
1509.00,0.0132
1508.00,0.0136
1507.00,0.0143
1506.00,0.0150
1505.00,0.0158
1504.00,0.0166
1503.00,0.0174
1502.00,0.0183
1501.00,0.0194
1500.00,0.0207
1499.00,0.0220
1498.00,0.0233
1497.00,0.0246
1496.00,0.0257
1495.00,0.0264
1494.00,0.0268
1493.00,0.0268
1492.00,0.0265
1491.00,0.0258
1490.00,0.0249
1489.00,0.0238
1488.00,0.0225
1487.00,0.0212
1486.00,0.0199
1485.00,0.0189
1484.00,0.0180
1483.00,0.0172
1482.00,0.0166
1481.00,0.0163
1480.00,0.0161
1479.00,0.0161
1478.00,0.0162
1477.00,0.0166
1476.00,0.0172
1475.00,0.0180
1474.00,0.0190
1473.00,0.0206
1472.00,0.0227
1471.00,0.0249
1470.00,0.0271
1469.00,0.0294
1468.00,0.0318
1467.00,0.0344
1466.00,0.0374
1465.00,0.0408
1464.00,0.0440
1463.00,0.0464
1462.00,0.0478
1461.00,0.0486
1460.00,0.0488
1459.00,0.0484
1458.00,0.0473
1457.00,0.0458
1456.00,0.0442
1455.00,0.0428
1454.00,0.0416
1453.00,0.0406
1452.00,0.0401
1451.00,0.0399
1450.00,0.0402
1449.00,0.0410
1448.00,0.0424
1447.00,0.0440
1446.00,0.0458
1445.00,0.0478
1444.00,0.0499
1443.00,0.0521
1442.00,0.0543
1441.00,0.0565
1440.00,0.0585
1439.00,0.0603
1438.00,0.0622
1437.00,0.0646
1436.00,0.0672
1435.00,0.0693
1434.00,0.0708
1433.00,0.0722
1432.00,0.0737
1431.00,0.0755
1430.00,0.0774
1429.00,0.0794
1428.00,0.0812
1427.00,0.0827
1426.00,0.0839
1425.00,0.0853
1424.00,0.0865
1423.00,0.0872
1422.00,0.0871
1421.00,0.0860
1420.00,0.0838
1419.00,0.0804
1418.00,0.0764
1417.00,0.0720
1416.00,0.0674
1415.00,0.0625
1414.00,0.0578
1413.00,0.0535
1412.00,0.0495
1411.00,0.0460
1410.00,0.0430
1409.00,0.0405
1408.00,0.0384
1407.00,0.0366
1406.00,0.0350
1405.00,0.0338
1404.00,0.0327
1403.00,0.0318
1402.00,0.0311
1401.00,0.0305
1400.00,0.0300
1399.00,0.0296
1398.00,0.0293
1397.00,0.0291
1396.00,0.0289
1395.00,0.0288
1394.00,0.0287
1393.00,0.0288
1392.00,0.0288
1391.00,0.0288
1390.00,0.0290
1389.00,0.0293
1388.00,0.0298
1387.00,0.0304
1386.00,0.0311
1385.00,0.0318
1384.00,0.0325
1383.00,0.0333
1382.00,0.0343
1381.00,0.0355
1380.00,0.0366
1379.00,0.0378
1378.00,0.0388
1377.00,0.0397
1376.00,0.0403
1375.00,0.0407
1374.00,0.0409
1373.00,0.0409
1372.00,0.0406
1371.00,0.0401
1370.00,0.0397
1369.00,0.0392
1368.00,0.0387
1367.00,0.0383
1366.00,0.0378
1365.00,0.0372
1364.00,0.0366
1363.00,0.0359
1362.00,0.0351
1361.00,0.0343
1360.00,0.0334
1359.00,0.0326
1358.00,0.0317
1357.00,0.0310
1356.00,0.0303
1355.00,0.0295
1354.00,0.0288
1353.00,0.0281
1352.00,0.0274
1351.00,0.0268
1350.00,0.0261
1349.00,0.0256
1348.00,0.0251
1347.00,0.0246
1346.00,0.0242
1345.00,0.0239
1344.00,0.0236
1343.00,0.0234
1342.00,0.0232
1341.00,0.0231
1340.00,0.0231
1339.00,0.0231
1338.00,0.0232
1337.00,0.0233
1336.00,0.0233
1335.00,0.0234
1334.00,0.0236
1333.00,0.0238
1332.00,0.0241
1331.00,0.0245
1330.00,0.0250
1329.00,0.0256
1328.00,0.0263
1327.00,0.0271
1326.00,0.0280
1325.00,0.0291
1324.00,0.0302
1323.00,0.0313
1322.00,0.0324
1321.00,0.0334
1320.00,0.0344
1319.00,0.0351
1318.00,0.0357
1317.00,0.0360
1316.00,0.0360
1315.00,0.0358
1314.00,0.0353
1313.00,0.0347
1312.00,0.0340
1311.00,0.0333
1310.00,0.0327
1309.00,0.0321
1308.00,0.0317
1307.00,0.0314
1306.00,0.0313
1305.00,0.0315
1304.00,0.0319
1303.00,0.0327
1302.00,0.0339
1301.00,0.0355
1300.00,0.0375
1299.00,0.0401
1298.00,0.0433
1297.00,0.0471
1296.00,0.0513
1295.00,0.0558
1294.00,0.0606
1293.00,0.0654
1292.00,0.0701
1291.00,0.0745
1290.00,0.0784
1289.00,0.0817
1288.00,0.0843
1287.00,0.0860
1286.00,0.0868
1285.00,0.0868
1284.00,0.0859
1283.00,0.0843
1282.00,0.0824
1281.00,0.0803
1280.00,0.0785
1279.00,0.0770
1278.00,0.0761
1277.00,0.0758
1276.00,0.0760
1275.00,0.0765
1274.00,0.0771
1273.00,0.0777
1272.00,0.0780
1271.00,0.0780
1270.00,0.0774
1269.00,0.0763
1268.00,0.0747
1267.00,0.0727
1266.00,0.0703
1265.00,0.0678
1264.00,0.0652
1263.00,0.0627
1262.00,0.0605
1261.00,0.0585
1260.00,0.0568
1259.00,0.0555
1258.00,0.0545
1257.00,0.0538
1256.00,0.0533
1255.00,0.0529
1254.00,0.0525
1253.00,0.0522
1252.00,0.0518
1251.00,0.0514
1250.00,0.0509
1249.00,0.0504
1248.00,0.0497
1247.00,0.0490
1246.00,0.0483
1245.00,0.0475
1244.00,0.0467
1243.00,0.0460
1242.00,0.0453
1241.00,0.0446
1240.00,0.0441
1239.00,0.0438
1238.00,0.0436
1237.00,0.0435
1236.00,0.0435
1235.00,0.0437
1234.00,0.0439
1233.00,0.0442
1232.00,0.0445
1231.00,0.0447
1230.00,0.0450
1229.00,0.0453
1228.00,0.0456
1227.00,0.0459
1226.00,0.0462
1225.00,0.0465
1224.00,0.0468
1223.00,0.0471
1222.00,0.0472
1221.00,0.0471
1220.00,0.0467
1219.00,0.0462
1218.00,0.0455
1217.00,0.0446
1216.00,0.0436
1215.00,0.0426
1214.00,0.0415
1213.00,0.0405
1212.00,0.0395
1211.00,0.0385
1210.00,0.0376
1209.00,0.0368
1208.00,0.0360
1207.00,0.0353
1206.00,0.0347
1205.00,0.0342
1204.00,0.0337
1203.00,0.0332
1202.00,0.0328
1201.00,0.0323
1200.00,0.0318
1199.00,0.0313
1198.00,0.0308
1197.00,0.0304
1196.00,0.0301
1195.00,0.0298
1194.00,0.0296
1193.00,0.0295
1192.00,0.0294
1191.00,0.0294
1190.00,0.0293
1189.00,0.0293
1188.00,0.0292
1187.00,0.0290
1186.00,0.0288
1185.00,0.0286
1184.00,0.0284
1183.00,0.0283
1182.00,0.0281
1181.00,0.0281
1180.00,0.0282
1179.00,0.0284
1178.00,0.0288
1177.00,0.0293
1176.00,0.0299
1175.00,0.0305
1174.00,0.0311
1173.00,0.0317
1172.00,0.0322
1171.00,0.0324
1170.00,0.0325
1169.00,0.0323
1168.00,0.0320
1167.00,0.0315
1166.00,0.0310
1165.00,0.0304
1164.00,0.0297
1163.00,0.0291
1162.00,0.0286
1161.00,0.0283
1160.00,0.0281
1159.00,0.0281
1158.00,0.0284
1157.00,0.0289
1156.00,0.0294
1155.00,0.0300
1154.00,0.0303
1153.00,0.0303
1152.00,0.0299
1151.00,0.0293
1150.00,0.0284
1149.00,0.0274
1148.00,0.0263
1147.00,0.0252
1146.00,0.0242
1145.00,0.0233
1144.00,0.0225
1143.00,0.0219
1142.00,0.0213
1141.00,0.0209
1140.00,0.0205
1139.00,0.0202
1138.00,0.0200
1137.00,0.0198
1136.00,0.0196
1135.00,0.0194
1134.00,0.0192
1133.00,0.0189
1132.00,0.0187
1131.00,0.0185
1130.00,0.0183
1129.00,0.0182
1128.00,0.0181
1127.00,0.0181
1126.00,0.0180
1125.00,0.0180
1124.00,0.0179
1123.00,0.0179
1122.00,0.0179
1121.00,0.0180
1120.00,0.0180
1119.00,0.0180
1118.00,0.0181
1117.00,0.0182
1116.00,0.0182
1115.00,0.0183
1114.00,0.0183
1113.00,0.0184
1112.00,0.0184
1111.00,0.0185
1110.00,0.0185
1109.00,0.0185
1108.00,0.0185
1107.00,0.0185
1106.00,0.0186
1105.00,0.0186
1104.00,0.0187
1103.00,0.0188
1102.00,0.0189
1101.00,0.0191
1100.00,0.0192
1099.00,0.0194
1098.00,0.0196
1097.00,0.0198
1096.00,0.0199
1095.00,0.0199
1094.00,0.0200
1093.00,0.0199
1092.00,0.0198
1091.00,0.0196
1090.00,0.0194
1089.00,0.0192
1088.00,0.0191
1087.00,0.0190
1086.00,0.0189
1085.00,0.0189
1084.00,0.0189
1083.00,0.0190
1082.00,0.0192
1081.00,0.0195
1080.00,0.0198
1079.00,0.0201
1078.00,0.0204
1077.00,0.0206
1076.00,0.0206
1075.00,0.0206
1074.00,0.0205
1073.00,0.0202
1072.00,0.0199
1071.00,0.0195
1070.00,0.0192
1069.00,0.0189
1068.00,0.0187
1067.00,0.0186
1066.00,0.0186
1065.00,0.0188
1064.00,0.0192
1063.00,0.0197
1062.00,0.0206
1061.00,0.0218
1060.00,0.0234
1059.00,0.0252
1058.00,0.0269
1057.00,0.0283
1056.00,0.0290
1055.00,0.0290
1054.00,0.0282
1053.00,0.0269
1052.00,0.0253
1051.00,0.0237
1050.00,0.0223
1049.00,0.0213
1048.00,0.0206
1047.00,0.0202
1046.00,0.0200
1045.00,0.0201
1044.00,0.0205
1043.00,0.0210
1042.00,0.0218
1041.00,0.0228
1040.00,0.0241
1039.00,0.0256
1038.00,0.0273
1037.00,0.0292
1036.00,0.0312
1035.00,0.0332
1034.00,0.0349
1033.00,0.0363
1032.00,0.0371
1031.00,0.0374
1030.00,0.0370
1029.00,0.0362
1028.00,0.0350
1027.00,0.0336
1026.00,0.0322
1025.00,0.0310
1024.00,0.0300
1023.00,0.0292
1022.00,0.0287
1021.00,0.0284
1020.00,0.0282
1019.00,0.0280
1018.00,0.0277
1017.00,0.0273
1016.00,0.0267
1015.00,0.0259
1014.00,0.0250
1013.00,0.0241
1012.00,0.0232
1011.00,0.0225
1010.00,0.0219
1009.00,0.0216
1008.00,0.0213
1007.00,0.0213
1006.00,0.0214
1005.00,0.0217
1004.00,0.0219
1003.00,0.0221
1002.00,0.0222
1001.00,0.0221
1000.00,0.0219
999.00,0.0215
998.00,0.0210
997.00,0.0204
996.00,0.0199
995.00,0.0194
994.00,0.0190
993.00,0.0187
992.00,0.0185
991.00,0.0184
990.00,0.0183
989.00,0.0183
988.00,0.0182
987.00,0.0181
986.00,0.0179
985.00,0.0176
984.00,0.0174
983.00,0.0171
982.00,0.0169
981.00,0.0166
980.00,0.0164
979.00,0.0162
978.00,0.0160
977.00,0.0159
976.00,0.0159
975.00,0.0158
974.00,0.0157
973.00,0.0156
972.00,0.0156
971.00,0.0156
970.00,0.0156
969.00,0.0156
968.00,0.0156
967.00,0.0155
966.00,0.0155
965.00,0.0155
964.00,0.0155
963.00,0.0154
962.00,0.0153
961.00,0.0151
960.00,0.0150
959.00,0.0147
958.00,0.0145
957.00,0.0142
956.00,0.0140
955.00,0.0137
954.00,0.0135
953.00,0.0133
952.00,0.0131
951.00,0.0129
950.00,0.0127
949.00,0.0126
948.00,0.0125
947.00,0.0125
946.00,0.0126
945.00,0.0126
944.00,0.0127
943.00,0.0129
942.00,0.0131
941.00,0.0134
940.00,0.0138
939.00,0.0142
938.00,0.0148
937.00,0.0154
936.00,0.0160
935.00,0.0166
934.00,0.0170
933.00,0.0173
932.00,0.0173
931.00,0.0172
930.00,0.0169
929.00,0.0165
928.00,0.0162
927.00,0.0159
926.00,0.0157
925.00,0.0155
924.00,0.0152
923.00,0.0150
922.00,0.0149
921.00,0.0148
920.00,0.0148
919.00,0.0149
918.00,0.0149
917.00,0.0150
916.00,0.0151
915.00,0.0152
914.00,0.0153
913.00,0.0155
912.00,0.0157
911.00,0.0159
910.00,0.0161
909.00,0.0164
908.00,0.0167
907.00,0.0171
906.00,0.0175
905.00,0.0179
904.00,0.0185
903.00,0.0190
902.00,0.0196
901.00,0.0201
900.00,0.0206
899.00,0.0210
898.00,0.0214
897.00,0.0217
896.00,0.0220
895.00,0.0221
894.00,0.0223
893.00,0.0224
892.00,0.0224
891.00,0.0225
890.00,0.0225
889.00,0.0226
888.00,0.0227
887.00,0.0228
886.00,0.0229
885.00,0.0230
884.00,0.0230
883.00,0.0230
882.00,0.0229
881.00,0.0227
880.00,0.0225
879.00,0.0222
878.00,0.0219
877.00,0.0216
876.00,0.0212
875.00,0.0209
874.00,0.0205
873.00,0.0201
872.00,0.0198
871.00,0.0196
870.00,0.0195
869.00,0.0194
868.00,0.0194
867.00,0.0194
866.00,0.0196
865.00,0.0198
864.00,0.0201
863.00,0.0205
862.00,0.0209
861.00,0.0215
860.00,0.0221
859.00,0.0227
858.00,0.0234
857.00,0.0242
856.00,0.0251
855.00,0.0259
854.00,0.0267
853.00,0.0274
852.00,0.0280
851.00,0.0286
850.00,0.0292
849.00,0.0297
848.00,0.0302
847.00,0.0305
846.00,0.0307
845.00,0.0308
844.00,0.0308
843.00,0.0307
842.00,0.0306
841.00,0.0306
840.00,0.0305
839.00,0.0304
838.00,0.0303
837.00,0.0302
836.00,0.0301
835.00,0.0300
834.00,0.0300
833.00,0.0299
832.00,0.0298
831.00,0.0296
830.00,0.0293
829.00,0.0290
828.00,0.0285
827.00,0.0279
826.00,0.0272
825.00,0.0264
824.00,0.0255
823.00,0.0247
822.00,0.0239
821.00,0.0232
820.00,0.0225
819.00,0.0219
818.00,0.0213
817.00,0.0208
816.00,0.0203
815.00,0.0200
814.00,0.0197
813.00,0.0195
812.00,0.0194
811.00,0.0193
810.00,0.0193
809.00,0.0193
808.00,0.0194
807.00,0.0195
806.00,0.0195
805.00,0.0195
804.00,0.0193
803.00,0.0191
802.00,0.0188
801.00,0.0186
800.00,0.0184
799.00,0.0183
798.00,0.0184
797.00,0.0184
796.00,0.0185
795.00,0.0186
794.00,0.0187
793.00,0.0188
792.00,0.0188
791.00,0.0188
790.00,0.0187
789.00,0.0185
788.00,0.0184
787.00,0.0182
786.00,0.0182
785.00,0.0181
784.00,0.0182
783.00,0.0182
782.00,0.0183
781.00,0.0184
780.00,0.0186
779.00,0.0189
778.00,0.0192
777.00,0.0195
776.00,0.0198
775.00,0.0201
774.00,0.0203
773.00,0.0204
772.00,0.0206
771.00,0.0207
770.00,0.0208
769.00,0.0209
768.00,0.0209
767.00,0.0210
766.00,0.0212
765.00,0.0214
764.00,0.0216
763.00,0.0219
762.00,0.0223
761.00,0.0227
760.00,0.0231
759.00,0.0235
758.00,0.0239
757.00,0.0242
756.00,0.0244
755.00,0.0245
754.00,0.0245
753.00,0.0245
752.00,0.0246
751.00,0.0247
750.00,0.0249
749.00,0.0252
748.00,0.0255
747.00,0.0258
746.00,0.0261
745.00,0.0265
744.00,0.0269
743.00,0.0273
742.00,0.0278
741.00,0.0283
740.00,0.0287
739.00,0.0291
738.00,0.0296
737.00,0.0300
736.00,0.0303
735.00,0.0306
734.00,0.0308
733.00,0.0309
732.00,0.0307
731.00,0.0304
730.00,0.0299
729.00,0.0293
728.00,0.0287
727.00,0.0280
726.00,0.0274
725.00,0.0268
724.00,0.0262
723.00,0.0257
722.00,0.0253
721.00,0.0248
720.00,0.0244
719.00,0.0240
718.00,0.0238
717.00,0.0236
716.00,0.0235
715.00,0.0234
714.00,0.0233
713.00,0.0232
712.00,0.0231
711.00,0.0230
710.00,0.0230
709.00,0.0229
708.00,0.0230
707.00,0.0230
706.00,0.0230
705.00,0.0231
704.00,0.0231
703.00,0.0232
702.00,0.0233
701.00,0.0234
700.00,0.0235
699.00,0.0237
698.00,0.0238
697.00,0.0239
696.00,0.0241
695.00,0.0242
694.00,0.0244
693.00,0.0246
692.00,0.0249
691.00,0.0252
690.00,0.0255
689.00,0.0259
688.00,0.0262
687.00,0.0266
686.00,0.0269
685.00,0.0273
684.00,0.0276
683.00,0.0280
682.00,0.0283
681.00,0.0287
680.00,0.0291
679.00,0.0295
678.00,0.0299
677.00,0.0303
676.00,0.0306
675.00,0.0310
674.00,0.0313
673.00,0.0317
672.00,0.0320
671.00,0.0323
670.00,0.0327
669.00,0.0334
668.00,0.0344
667.00,0.0352
666.00,0.0356
665.00,0.0359
664.00,0.0363
663.00,0.0369
662.00,0.0376
661.00,0.0382
660.00,0.0390
659.00,0.0397
658.00,0.0406
657.00,0.0415
656.00,0.0424
655.00,0.0433
654.00,0.0441
653.00,0.0448
652.00,0.0454
651.00,0.0459
650.00,0.0462
649.00,0.0465
648.00,0.0466
647.00,0.0466
646.00,0.0464
645.00,0.0460
644.00,0.0455
643.00,0.0448
642.00,0.0440
641.00,0.0432
640.00,0.0423
639.00,0.0415
638.00,0.0407
637.00,0.0399
636.00,0.0391
635.00,0.0383
634.00,0.0376
633.00,0.0370
632.00,0.0365
631.00,0.0359
630.00,0.0354
629.00,0.0349
628.00,0.0345
627.00,0.0341
626.00,0.0338
625.00,0.0335
624.00,0.0332
623.00,0.0330
622.00,0.0328
621.00,0.0326
620.00,0.0325
619.00,0.0324
618.00,0.0324
617.00,0.0324
616.00,0.0326
615.00,0.0327
614.00,0.0328
613.00,0.0329
612.00,0.0330
611.00,0.0331
610.00,0.0332
609.00,0.0333
608.00,0.0333
607.00,0.0334
606.00,0.0334
605.00,0.0335
604.00,0.0336
603.00,0.0338
602.00,0.0338
601.00,0.0338
600.00,0.0338
599.00,0.0338
598.00,0.0339
597.00,0.0342
596.00,0.0345
595.00,0.0347
594.00,0.0349
593.00,0.0351
592.00,0.0354
591.00,0.0357
590.00,0.0362
589.00,0.0369
588.00,0.0376
587.00,0.0384
586.00,0.0392
585.00,0.0400
584.00,0.0408
583.00,0.0416
582.00,0.0425
581.00,0.0433
580.00,0.0442
579.00,0.0449
578.00,0.0455
577.00,0.0459
576.00,0.0461
575.00,0.0462
574.00,0.0462
573.00,0.0463
572.00,0.0462
571.00,0.0462
570.00,0.0460
569.00,0.0458
568.00,0.0453
567.00,0.0448
566.00,0.0441
565.00,0.0435
564.00,0.0431
563.00,0.0426
562.00,0.0423
561.00,0.0419
560.00,0.0415
559.00,0.0413
558.00,0.0411
557.00,0.0410
556.00,0.0408
555.00,0.0407
554.00,0.0406
553.00,0.0406
552.00,0.0406
551.00,0.0405
550.00,0.0401
549.00,0.0396
548.00,0.0391
547.00,0.0387
546.00,0.0384
545.00,0.0382
544.00,0.0381
543.00,0.0380
542.00,0.0377
541.00,0.0375
540.00,0.0372
539.00,0.0370
538.00,0.0370
537.00,0.0372
536.00,0.0376
535.00,0.0381
534.00,0.0386
533.00,0.0391
532.00,0.0396
531.00,0.0399
530.00,0.0401
529.00,0.0401
528.00,0.0399
527.00,0.0398
526.00,0.0399
525.00,0.0399
524.00,0.0397
523.00,0.0393
522.00,0.0387
521.00,0.0382
520.00,0.0376
519.00,0.0373
518.00,0.0371
517.00,0.0370
516.00,0.0366
515.00,0.0362
514.00,0.0357
513.00,0.0353
512.00,0.0351
511.00,0.0350
510.00,0.0350
509.00,0.0352
508.00,0.0354
507.00,0.0355
506.00,0.0354
505.00,0.0352
504.00,0.0350
503.00,0.0349
502.00,0.0351
501.00,0.0353
500.00,0.0354
499.00,0.0353
498.00,0.0353
497.00,0.0352
496.00,0.0353
495.00,0.0355
494.00,0.0356
493.00,0.0357
492.00,0.0359
491.00,0.0361
490.00,0.0364
489.00,0.0367
488.00,0.0368
487.00,0.0368
486.00,0.0368
485.00,0.0370
484.00,0.0371
483.00,0.0372
482.00,0.0371
481.00,0.0369
480.00,0.0367
479.00,0.0365
478.00,0.0365
477.00,0.0364
476.00,0.0364
475.00,0.0365
474.00,0.0369
473.00,0.0374
472.00,0.0379
471.00,0.0383
470.00,0.0384
469.00,0.0385
468.00,0.0386
467.00,0.0387
466.00,0.0386
465.00,0.0384
464.00,0.0380
463.00,0.0375
462.00,0.0370
461.00,0.0367
460.00,0.0366
459.00,0.0367
458.00,0.0369
457.00,0.0372
456.00,0.0373
455.00,0.0372
454.00,0.0368
453.00,0.0363
452.00,0.0358
451.00,0.0355
450.00,0.0353
449.00,0.0352
448.00,0.0351
447.00,0.0350
446.00,0.0349
445.00,0.0347
444.00,0.0342
443.00,0.0336
442.00,0.0331
441.00,0.0329
440.00,0.0330
439.00,0.0333
438.00,0.0336
437.00,0.0337
436.00,0.0337
435.00,0.0336
434.00,0.0334
433.00,0.0332
432.00,0.0329
431.00,0.0325
430.00,0.0320
429.00,0.0316
428.00,0.0313
427.00,0.0313
426.00,0.0315
425.00,0.0317
424.00,0.0318
423.00,0.0320
422.00,0.0324
421.00,0.0329
420.00,0.0331
419.00,0.0330
418.00,0.0328
417.00,0.0327
416.00,0.0326
415.00,0.0323
414.00,0.0321
413.00,0.0320
412.00,0.0319
411.00,0.0316
410.00,0.0314
409.00,0.0312
408.00,0.0313
407.00,0.0317
406.00,0.0324
405.00,0.0331
404.00,0.0333
403.00,0.0329
402.00,0.0321
401.00,0.0308
400.00,0.0296
