Created as New Dataset,Sample 996 By YargerLab Date Wednesday, July 30 2025
cm-1,A
4000.00,0.0011
3999.00,0.0011
3998.00,0.0011
3997.00,0.0011
3996.00,0.0011
3995.00,0.0012
3994.00,0.0012
3993.00,0.0012
3992.00,0.0012
3991.00,0.0012
3990.00,0.0012
3989.00,0.0012
3988.00,0.0012
3987.00,0.0012
3986.00,0.0011
3985.00,0.0011
3984.00,0.0011
3983.00,0.0011
3982.00,0.0011
3981.00,0.0011
3980.00,0.0011
3979.00,0.0011
3978.00,0.0011
3977.00,0.0011
3976.00,0.0011
3975.00,0.0011
3974.00,0.0011
3973.00,0.0011
3972.00,0.0011
3971.00,0.0011
3970.00,0.0011
3969.00,0.0010
3968.00,0.0010
3967.00,0.0010
3966.00,0.0010
3965.00,0.0010
3964.00,0.0011
3963.00,0.0011
3962.00,0.0011
3961.00,0.0011
3960.00,0.0011
3959.00,0.0011
3958.00,0.0011
3957.00,0.0011
3956.00,0.0011
3955.00,0.0011
3954.00,0.0011
3953.00,0.0011
3952.00,0.0011
3951.00,0.0011
3950.00,0.0011
3949.00,0.0011
3948.00,0.0011
3947.00,0.0011
3946.00,0.0011
3945.00,0.0011
3944.00,0.0011
3943.00,0.0011
3942.00,0.0011
3941.00,0.0011
3940.00,0.0011
3939.00,0.0011
3938.00,0.0011
3937.00,0.0011
3936.00,0.0012
3935.00,0.0012
3934.00,0.0012
3933.00,0.0012
3932.00,0.0011
3931.00,0.0011
3930.00,0.0011
3929.00,0.0011
3928.00,0.0012
3927.00,0.0012
3926.00,0.0012
3925.00,0.0012
3924.00,0.0012
3923.00,0.0012
3922.00,0.0012
3921.00,0.0012
3920.00,0.0012
3919.00,0.0012
3918.00,0.0012
3917.00,0.0012
3916.00,0.0012
3915.00,0.0012
3914.00,0.0011
3913.00,0.0011
3912.00,0.0011
3911.00,0.0011
3910.00,0.0011
3909.00,0.0011
3908.00,0.0012
3907.00,0.0012
3906.00,0.0013
3905.00,0.0013
3904.00,0.0014
3903.00,0.0014
3902.00,0.0014
3901.00,0.0014
3900.00,0.0013
3899.00,0.0013
3898.00,0.0012
3897.00,0.0012
3896.00,0.0012
3895.00,0.0013
3894.00,0.0013
3893.00,0.0013
3892.00,0.0012
3891.00,0.0012
3890.00,0.0013
3889.00,0.0013
3888.00,0.0013
3887.00,0.0013
3886.00,0.0013
3885.00,0.0013
3884.00,0.0013
3883.00,0.0013
3882.00,0.0013
3881.00,0.0012
3880.00,0.0012
3879.00,0.0012
3878.00,0.0012
3877.00,0.0012
3876.00,0.0012
3875.00,0.0012
3874.00,0.0012
3873.00,0.0013
3872.00,0.0013
3871.00,0.0013
3870.00,0.0013
3869.00,0.0013
3868.00,0.0014
3867.00,0.0014
3866.00,0.0014
3865.00,0.0014
3864.00,0.0013
3863.00,0.0013
3862.00,0.0013
3861.00,0.0013
3860.00,0.0013
3859.00,0.0013
3858.00,0.0013
3857.00,0.0014
3856.00,0.0015
3855.00,0.0016
3854.00,0.0016
3853.00,0.0015
3852.00,0.0015
3851.00,0.0015
3850.00,0.0015
3849.00,0.0014
3848.00,0.0013
3847.00,0.0012
3846.00,0.0012
3845.00,0.0012
3844.00,0.0011
3843.00,0.0012
3842.00,0.0012
3841.00,0.0013
3840.00,0.0014
3839.00,0.0014
3838.00,0.0014
3837.00,0.0014
3836.00,0.0014
3835.00,0.0014
3834.00,0.0014
3833.00,0.0014
3832.00,0.0013
3831.00,0.0013
3830.00,0.0013
3829.00,0.0013
3828.00,0.0013
3827.00,0.0013
3826.00,0.0013
3825.00,0.0013
3824.00,0.0013
3823.00,0.0014
3822.00,0.0014
3821.00,0.0013
3820.00,0.0014
3819.00,0.0014
3818.00,0.0015
3817.00,0.0014
3816.00,0.0014
3815.00,0.0013
3814.00,0.0013
3813.00,0.0013
3812.00,0.0012
3811.00,0.0012
3810.00,0.0012
3809.00,0.0012
3808.00,0.0013
3807.00,0.0013
3806.00,0.0013
3805.00,0.0014
3804.00,0.0014
3803.00,0.0014
3802.00,0.0013
3801.00,0.0013
3800.00,0.0014
3799.00,0.0014
3798.00,0.0014
3797.00,0.0014
3796.00,0.0013
3795.00,0.0012
3794.00,0.0012
3793.00,0.0012
3792.00,0.0012
3791.00,0.0011
3790.00,0.0011
3789.00,0.0011
3788.00,0.0011
3787.00,0.0011
3786.00,0.0011
3785.00,0.0011
3784.00,0.0011
3783.00,0.0011
3782.00,0.0011
3781.00,0.0011
3780.00,0.0011
3779.00,0.0011
3778.00,0.0012
3777.00,0.0012
3776.00,0.0012
3775.00,0.0012
3774.00,0.0012
3773.00,0.0012
3772.00,0.0012
3771.00,0.0012
3770.00,0.0012
3769.00,0.0012
3768.00,0.0012
3767.00,0.0012
3766.00,0.0012
3765.00,0.0012
3764.00,0.0012
3763.00,0.0012
3762.00,0.0012
3761.00,0.0012
3760.00,0.0012
3759.00,0.0012
3758.00,0.0012
3757.00,0.0013
3756.00,0.0013
3755.00,0.0014
3754.00,0.0015
3753.00,0.0016
3752.00,0.0016
3751.00,0.0016
3750.00,0.0016
3749.00,0.0017
3748.00,0.0017
3747.00,0.0017
3746.00,0.0017
3745.00,0.0017
3744.00,0.0016
3743.00,0.0015
3742.00,0.0015
3741.00,0.0015
3740.00,0.0014
3739.00,0.0014
3738.00,0.0014
3737.00,0.0014
3736.00,0.0014
3735.00,0.0014
3734.00,0.0013
3733.00,0.0013
3732.00,0.0013
3731.00,0.0013
3730.00,0.0012
3729.00,0.0012
3728.00,0.0012
3727.00,0.0012
3726.00,0.0012
3725.00,0.0011
3724.00,0.0011
3723.00,0.0011
3722.00,0.0011
3721.00,0.0011
3720.00,0.0011
3719.00,0.0011
3718.00,0.0011
3717.00,0.0011
3716.00,0.0012
3715.00,0.0012
3714.00,0.0013
3713.00,0.0013
3712.00,0.0013
3711.00,0.0013
3710.00,0.0013
3709.00,0.0013
3708.00,0.0013
3707.00,0.0012
3706.00,0.0012
3705.00,0.0012
3704.00,0.0012
3703.00,0.0012
3702.00,0.0012
3701.00,0.0012
3700.00,0.0012
3699.00,0.0011
3698.00,0.0011
3697.00,0.0011
3696.00,0.0011
3695.00,0.0012
3694.00,0.0012
3693.00,0.0013
3692.00,0.0013
3691.00,0.0014
3690.00,0.0014
3689.00,0.0014
3688.00,0.0015
3687.00,0.0015
3686.00,0.0015
3685.00,0.0015
3684.00,0.0014
3683.00,0.0014
3682.00,0.0013
3681.00,0.0013
3680.00,0.0014
3679.00,0.0015
3678.00,0.0016
3677.00,0.0017
3676.00,0.0017
3675.00,0.0018
3674.00,0.0018
3673.00,0.0019
3672.00,0.0019
3671.00,0.0019
3670.00,0.0019
3669.00,0.0018
3668.00,0.0018
3667.00,0.0018
3666.00,0.0018
3665.00,0.0018
3664.00,0.0017
3663.00,0.0017
3662.00,0.0017
3661.00,0.0018
3660.00,0.0018
3659.00,0.0019
3658.00,0.0019
3657.00,0.0020
3656.00,0.0020
3655.00,0.0021
3654.00,0.0022
3653.00,0.0023
3652.00,0.0024
3651.00,0.0024
3650.00,0.0025
3649.00,0.0025
3648.00,0.0025
3647.00,0.0025
3646.00,0.0025
3645.00,0.0025
3644.00,0.0025
3643.00,0.0024
3642.00,0.0024
3641.00,0.0024
3640.00,0.0025
3639.00,0.0025
3638.00,0.0026
3637.00,0.0026
3636.00,0.0027
3635.00,0.0027
3634.00,0.0028
3633.00,0.0028
3632.00,0.0029
3631.00,0.0030
3630.00,0.0031
3629.00,0.0031
3628.00,0.0032
3627.00,0.0032
3626.00,0.0033
3625.00,0.0033
3624.00,0.0033
3623.00,0.0033
3622.00,0.0033
3621.00,0.0033
3620.00,0.0034
3619.00,0.0035
3618.00,0.0036
3617.00,0.0037
3616.00,0.0037
3615.00,0.0038
3614.00,0.0038
3613.00,0.0038
3612.00,0.0039
3611.00,0.0039
3610.00,0.0040
3609.00,0.0040
3608.00,0.0041
3607.00,0.0041
3606.00,0.0041
3605.00,0.0041
3604.00,0.0042
3603.00,0.0042
3602.00,0.0042
3601.00,0.0042
3600.00,0.0043
3599.00,0.0043
3598.00,0.0044
3597.00,0.0044
3596.00,0.0045
3595.00,0.0045
3594.00,0.0046
3593.00,0.0046
3592.00,0.0047
3591.00,0.0047
3590.00,0.0048
3589.00,0.0049
3588.00,0.0049
3587.00,0.0050
3586.00,0.0051
3585.00,0.0052
3584.00,0.0052
3583.00,0.0052
3582.00,0.0052
3581.00,0.0052
3580.00,0.0053
3579.00,0.0053
3578.00,0.0054
3577.00,0.0054
3576.00,0.0055
3575.00,0.0055
3574.00,0.0056
3573.00,0.0057
3572.00,0.0057
3571.00,0.0058
3570.00,0.0059
3569.00,0.0060
3568.00,0.0061
3567.00,0.0062
3566.00,0.0063
3565.00,0.0063
3564.00,0.0064
3563.00,0.0064
3562.00,0.0064
3561.00,0.0065
3560.00,0.0065
3559.00,0.0065
3558.00,0.0066
3557.00,0.0066
3556.00,0.0067
3555.00,0.0067
3554.00,0.0067
3553.00,0.0068
3552.00,0.0068
3551.00,0.0069
3550.00,0.0070
3549.00,0.0070
3548.00,0.0071
3547.00,0.0072
3546.00,0.0072
3545.00,0.0073
3544.00,0.0074
3543.00,0.0075
3542.00,0.0075
3541.00,0.0075
3540.00,0.0076
3539.00,0.0076
3538.00,0.0077
3537.00,0.0077
3536.00,0.0077
3535.00,0.0078
3534.00,0.0078
3533.00,0.0079
3532.00,0.0079
3531.00,0.0080
3530.00,0.0081
3529.00,0.0081
3528.00,0.0082
3527.00,0.0083
3526.00,0.0084
3525.00,0.0084
3524.00,0.0085
3523.00,0.0085
3522.00,0.0086
3521.00,0.0087
3520.00,0.0087
3519.00,0.0088
3518.00,0.0088
3517.00,0.0088
3516.00,0.0089
3515.00,0.0089
3514.00,0.0090
3513.00,0.0090
3512.00,0.0091
3511.00,0.0092
3510.00,0.0092
3509.00,0.0093
3508.00,0.0094
3507.00,0.0094
3506.00,0.0095
3505.00,0.0095
3504.00,0.0096
3503.00,0.0096
3502.00,0.0097
3501.00,0.0098
3500.00,0.0098
3499.00,0.0099
3498.00,0.0099
3497.00,0.0099
3496.00,0.0100
3495.00,0.0101
3494.00,0.0101
3493.00,0.0102
3492.00,0.0102
3491.00,0.0103
3490.00,0.0103
3489.00,0.0104
3488.00,0.0104
3487.00,0.0105
3486.00,0.0106
3485.00,0.0106
3484.00,0.0107
3483.00,0.0108
3482.00,0.0108
3481.00,0.0109
3480.00,0.0109
3479.00,0.0110
3478.00,0.0110
3477.00,0.0111
3476.00,0.0111
3475.00,0.0112
3474.00,0.0112
3473.00,0.0113
3472.00,0.0114
3471.00,0.0114
3470.00,0.0115
3469.00,0.0115
3468.00,0.0116
3467.00,0.0116
3466.00,0.0117
3465.00,0.0118
3464.00,0.0119
3463.00,0.0119
3462.00,0.0120
3461.00,0.0121
3460.00,0.0122
3459.00,0.0122
3458.00,0.0123
3457.00,0.0123
3456.00,0.0124
3455.00,0.0125
3454.00,0.0125
3453.00,0.0126
3452.00,0.0126
3451.00,0.0126
3450.00,0.0127
3449.00,0.0127
3448.00,0.0128
3447.00,0.0128
3446.00,0.0129
3445.00,0.0130
3444.00,0.0130
3443.00,0.0131
3442.00,0.0132
3441.00,0.0133
3440.00,0.0133
3439.00,0.0134
3438.00,0.0134
3437.00,0.0135
3436.00,0.0136
3435.00,0.0137
3434.00,0.0137
3433.00,0.0137
3432.00,0.0138
3431.00,0.0138
3430.00,0.0139
3429.00,0.0139
3428.00,0.0140
3427.00,0.0141
3426.00,0.0142
3425.00,0.0142
3424.00,0.0143
3423.00,0.0143
3422.00,0.0144
3421.00,0.0145
3420.00,0.0146
3419.00,0.0146
3418.00,0.0147
3417.00,0.0147
3416.00,0.0148
3415.00,0.0148
3414.00,0.0149
3413.00,0.0150
3412.00,0.0150
3411.00,0.0151
3410.00,0.0152
3409.00,0.0153
3408.00,0.0153
3407.00,0.0154
3406.00,0.0154
3405.00,0.0155
3404.00,0.0155
3403.00,0.0156
3402.00,0.0156
3401.00,0.0157
3400.00,0.0158
3399.00,0.0158
3398.00,0.0159
3397.00,0.0160
3396.00,0.0161
3395.00,0.0161
3394.00,0.0162
3393.00,0.0162
3392.00,0.0163
3391.00,0.0163
3390.00,0.0164
3389.00,0.0165
3388.00,0.0165
3387.00,0.0166
3386.00,0.0167
3385.00,0.0168
3384.00,0.0168
3383.00,0.0169
3382.00,0.0170
3381.00,0.0171
3380.00,0.0172
3379.00,0.0172
3378.00,0.0173
3377.00,0.0174
3376.00,0.0174
3375.00,0.0175
3374.00,0.0176
3373.00,0.0176
3372.00,0.0177
3371.00,0.0178
3370.00,0.0178
3369.00,0.0179
3368.00,0.0180
3367.00,0.0181
3366.00,0.0182
3365.00,0.0183
3364.00,0.0184
3363.00,0.0185
3362.00,0.0186
3361.00,0.0187
3360.00,0.0188
3359.00,0.0189
3358.00,0.0190
3357.00,0.0190
3356.00,0.0191
3355.00,0.0192
3354.00,0.0193
3353.00,0.0194
3352.00,0.0195
3351.00,0.0196
3350.00,0.0198
3349.00,0.0199
3348.00,0.0200
3347.00,0.0201
3346.00,0.0202
3345.00,0.0203
3344.00,0.0204
3343.00,0.0205
3342.00,0.0206
3341.00,0.0207
3340.00,0.0208
3339.00,0.0209
3338.00,0.0210
3337.00,0.0211
3336.00,0.0213
3335.00,0.0214
3334.00,0.0216
3333.00,0.0217
3332.00,0.0219
3331.00,0.0220
3330.00,0.0221
3329.00,0.0222
3328.00,0.0223
3327.00,0.0224
3326.00,0.0225
3325.00,0.0227
3324.00,0.0228
3323.00,0.0230
3322.00,0.0232
3321.00,0.0233
3320.00,0.0235
3319.00,0.0236
3318.00,0.0238
3317.00,0.0240
3316.00,0.0241
3315.00,0.0243
3314.00,0.0244
3313.00,0.0245
3312.00,0.0247
3311.00,0.0248
3310.00,0.0249
3309.00,0.0250
3308.00,0.0251
3307.00,0.0252
3306.00,0.0254
3305.00,0.0256
3304.00,0.0258
3303.00,0.0260
3302.00,0.0262
3301.00,0.0263
3300.00,0.0265
3299.00,0.0266
3298.00,0.0267
3297.00,0.0268
3296.00,0.0269
3295.00,0.0270
3294.00,0.0272
3293.00,0.0273
3292.00,0.0275
3291.00,0.0276
3290.00,0.0278
3289.00,0.0279
3288.00,0.0280
3287.00,0.0281
3286.00,0.0282
3285.00,0.0283
3284.00,0.0283
3283.00,0.0284
3282.00,0.0284
3281.00,0.0284
3280.00,0.0285
3279.00,0.0285
3278.00,0.0285
3277.00,0.0284
3276.00,0.0284
3275.00,0.0283
3274.00,0.0283
3273.00,0.0283
3272.00,0.0282
3271.00,0.0282
3270.00,0.0281
3269.00,0.0281
3268.00,0.0280
3267.00,0.0279
3266.00,0.0279
3265.00,0.0278
3264.00,0.0276
3263.00,0.0275
3262.00,0.0274
3261.00,0.0272
3260.00,0.0271
3259.00,0.0269
3258.00,0.0267
3257.00,0.0266
3256.00,0.0264
3255.00,0.0263
3254.00,0.0262
3253.00,0.0261
3252.00,0.0260
3251.00,0.0258
3250.00,0.0256
3249.00,0.0254
3248.00,0.0253
3247.00,0.0251
3246.00,0.0250
3245.00,0.0248
3244.00,0.0247
3243.00,0.0246
3242.00,0.0245
3241.00,0.0244
3240.00,0.0243
3239.00,0.0242
3238.00,0.0241
3237.00,0.0239
3236.00,0.0237
3235.00,0.0235
3234.00,0.0234
3233.00,0.0233
3232.00,0.0233
3231.00,0.0232
3230.00,0.0231
3229.00,0.0230
3228.00,0.0229
3227.00,0.0228
3226.00,0.0228
3225.00,0.0227
3224.00,0.0226
3223.00,0.0225
3222.00,0.0223
3221.00,0.0223
3220.00,0.0222
3219.00,0.0221
3218.00,0.0221
3217.00,0.0220
3216.00,0.0219
3215.00,0.0218
3214.00,0.0218
3213.00,0.0217
3212.00,0.0216
3211.00,0.0216
3210.00,0.0215
3209.00,0.0214
3208.00,0.0213
3207.00,0.0212
3206.00,0.0211
3205.00,0.0211
3204.00,0.0210
3203.00,0.0209
3202.00,0.0209
3201.00,0.0208
3200.00,0.0207
3199.00,0.0207
3198.00,0.0206
3197.00,0.0205
3196.00,0.0205
3195.00,0.0204
3194.00,0.0203
3193.00,0.0202
3192.00,0.0201
3191.00,0.0200
3190.00,0.0199
3189.00,0.0198
3188.00,0.0198
3187.00,0.0197
3186.00,0.0196
3185.00,0.0195
3184.00,0.0194
3183.00,0.0193
3182.00,0.0193
3181.00,0.0192
3180.00,0.0191
3179.00,0.0190
3178.00,0.0189
3177.00,0.0188
3176.00,0.0188
3175.00,0.0187
3174.00,0.0186
3173.00,0.0185
3172.00,0.0184
3171.00,0.0183
3170.00,0.0183
3169.00,0.0182
3168.00,0.0181
3167.00,0.0180
3166.00,0.0179
3165.00,0.0178
3164.00,0.0177
3163.00,0.0177
3162.00,0.0176
3161.00,0.0175
3160.00,0.0174
3159.00,0.0173
3158.00,0.0172
3157.00,0.0171
3156.00,0.0170
3155.00,0.0169
3154.00,0.0169
3153.00,0.0168
3152.00,0.0167
3151.00,0.0167
3150.00,0.0166
3149.00,0.0165
3148.00,0.0164
3147.00,0.0164
3146.00,0.0163
3145.00,0.0162
3144.00,0.0161
3143.00,0.0161
3142.00,0.0160
3141.00,0.0159
3140.00,0.0158
3139.00,0.0158
3138.00,0.0157
3137.00,0.0156
3136.00,0.0156
3135.00,0.0155
3134.00,0.0154
3133.00,0.0153
3132.00,0.0153
3131.00,0.0152
3130.00,0.0151
3129.00,0.0151
3128.00,0.0151
3127.00,0.0151
3126.00,0.0150
3125.00,0.0150
3124.00,0.0149
3123.00,0.0148
3122.00,0.0148
3121.00,0.0147
3120.00,0.0147
3119.00,0.0146
3118.00,0.0146
3117.00,0.0146
3116.00,0.0146
3115.00,0.0147
3114.00,0.0147
3113.00,0.0147
3112.00,0.0147
3111.00,0.0146
3110.00,0.0146
3109.00,0.0146
3108.00,0.0146
3107.00,0.0146
3106.00,0.0146
3105.00,0.0146
3104.00,0.0146
3103.00,0.0146
3102.00,0.0146
3101.00,0.0147
3100.00,0.0147
3099.00,0.0147
3098.00,0.0147
3097.00,0.0148
3096.00,0.0148
3095.00,0.0148
3094.00,0.0148
3093.00,0.0148
3092.00,0.0148
3091.00,0.0148
3090.00,0.0148
3089.00,0.0149
3088.00,0.0149
3087.00,0.0149
3086.00,0.0149
3085.00,0.0149
3084.00,0.0149
3083.00,0.0149
3082.00,0.0149
3081.00,0.0150
3080.00,0.0150
3079.00,0.0150
3078.00,0.0150
3077.00,0.0151
3076.00,0.0151
3075.00,0.0152
3074.00,0.0152
3073.00,0.0152
3072.00,0.0152
3071.00,0.0152
3070.00,0.0152
3069.00,0.0151
3068.00,0.0151
3067.00,0.0151
3066.00,0.0151
3065.00,0.0151
3064.00,0.0152
3063.00,0.0151
3062.00,0.0151
3061.00,0.0151
3060.00,0.0150
3059.00,0.0150
3058.00,0.0149
3057.00,0.0149
3056.00,0.0148
3055.00,0.0148
3054.00,0.0147
3053.00,0.0147
3052.00,0.0146
3051.00,0.0146
3050.00,0.0145
3049.00,0.0145
3048.00,0.0144
3047.00,0.0143
3046.00,0.0142
3045.00,0.0142
3044.00,0.0141
3043.00,0.0140
3042.00,0.0140
3041.00,0.0140
3040.00,0.0139
3039.00,0.0139
3038.00,0.0138
3037.00,0.0137
3036.00,0.0136
3035.00,0.0136
3034.00,0.0135
3033.00,0.0135
3032.00,0.0135
3031.00,0.0135
3030.00,0.0134
3029.00,0.0133
3028.00,0.0133
3027.00,0.0132
3026.00,0.0131
3025.00,0.0131
3024.00,0.0130
3023.00,0.0129
3022.00,0.0129
3021.00,0.0128
3020.00,0.0127
3019.00,0.0126
3018.00,0.0125
3017.00,0.0124
3016.00,0.0124
3015.00,0.0123
3014.00,0.0122
3013.00,0.0122
3012.00,0.0122
3011.00,0.0122
3010.00,0.0121
3009.00,0.0121
3008.00,0.0121
3007.00,0.0121
3006.00,0.0120
3005.00,0.0120
3004.00,0.0120
3003.00,0.0120
3002.00,0.0120
3001.00,0.0120
3000.00,0.0120
2999.00,0.0120
2998.00,0.0120
2997.00,0.0120
2996.00,0.0120
2995.00,0.0120
2994.00,0.0121
2993.00,0.0121
2992.00,0.0122
2991.00,0.0123
2990.00,0.0124
2989.00,0.0125
2988.00,0.0126
2987.00,0.0127
2986.00,0.0128
2985.00,0.0130
2984.00,0.0131
2983.00,0.0132
2982.00,0.0133
2981.00,0.0134
2980.00,0.0136
2979.00,0.0138
2978.00,0.0139
2977.00,0.0141
2976.00,0.0143
2975.00,0.0145
2974.00,0.0147
2973.00,0.0149
2972.00,0.0151
2971.00,0.0152
2970.00,0.0154
2969.00,0.0156
2968.00,0.0157
2967.00,0.0159
2966.00,0.0160
2965.00,0.0162
2964.00,0.0162
2963.00,0.0163
2962.00,0.0164
2961.00,0.0164
2960.00,0.0164
2959.00,0.0164
2958.00,0.0163
2957.00,0.0162
2956.00,0.0161
2955.00,0.0160
2954.00,0.0158
2953.00,0.0157
2952.00,0.0156
2951.00,0.0155
2950.00,0.0154
2949.00,0.0154
2948.00,0.0153
2947.00,0.0153
2946.00,0.0153
2945.00,0.0154
2944.00,0.0155
2943.00,0.0157
2942.00,0.0158
2941.00,0.0159
2940.00,0.0161
2939.00,0.0162
2938.00,0.0163
2937.00,0.0165
2936.00,0.0166
2935.00,0.0167
2934.00,0.0168
2933.00,0.0169
2932.00,0.0169
2931.00,0.0170
2930.00,0.0170
2929.00,0.0170
2928.00,0.0171
2927.00,0.0171
2926.00,0.0171
2925.00,0.0171
2924.00,0.0170
2923.00,0.0170
2922.00,0.0169
2921.00,0.0168
2920.00,0.0166
2919.00,0.0164
2918.00,0.0162
2917.00,0.0160
2916.00,0.0158
2915.00,0.0155
2914.00,0.0153
2913.00,0.0151
2912.00,0.0149
2911.00,0.0147
2910.00,0.0145
2909.00,0.0144
2908.00,0.0142
2907.00,0.0140
2906.00,0.0138
2905.00,0.0137
2904.00,0.0135
2903.00,0.0134
2902.00,0.0133
2901.00,0.0132
2900.00,0.0131
2899.00,0.0130
2898.00,0.0129
2897.00,0.0128
2896.00,0.0128
2895.00,0.0127
2894.00,0.0126
2893.00,0.0125
2892.00,0.0125
2891.00,0.0124
2890.00,0.0124
2889.00,0.0123
2888.00,0.0123
2887.00,0.0123
2886.00,0.0123
2885.00,0.0123
2884.00,0.0124
2883.00,0.0124
2882.00,0.0125
2881.00,0.0125
2880.00,0.0126
2879.00,0.0127
2878.00,0.0128
2877.00,0.0128
2876.00,0.0128
2875.00,0.0128
2874.00,0.0128
2873.00,0.0127
2872.00,0.0127
2871.00,0.0126
2870.00,0.0125
2869.00,0.0124
2868.00,0.0122
2867.00,0.0121
2866.00,0.0120
2865.00,0.0119
2864.00,0.0119
2863.00,0.0118
2862.00,0.0118
2861.00,0.0117
2860.00,0.0117
2859.00,0.0117
2858.00,0.0117
2857.00,0.0117
2856.00,0.0117
2855.00,0.0117
2854.00,0.0117
2853.00,0.0117
2852.00,0.0116
2851.00,0.0115
2850.00,0.0113
2849.00,0.0111
2848.00,0.0109
2847.00,0.0107
2846.00,0.0105
2845.00,0.0103
2844.00,0.0101
2843.00,0.0100
2842.00,0.0098
2841.00,0.0097
2840.00,0.0096
2839.00,0.0095
2838.00,0.0095
2837.00,0.0094
2836.00,0.0093
2835.00,0.0093
2834.00,0.0092
2833.00,0.0091
2832.00,0.0091
2831.00,0.0090
2830.00,0.0090
2829.00,0.0090
2828.00,0.0089
2827.00,0.0089
2826.00,0.0089
2825.00,0.0089
2824.00,0.0088
2823.00,0.0088
2822.00,0.0087
2821.00,0.0087
2820.00,0.0086
2819.00,0.0086
2818.00,0.0086
2817.00,0.0086
2816.00,0.0086
2815.00,0.0086
2814.00,0.0085
2813.00,0.0085
2812.00,0.0085
2811.00,0.0084
2810.00,0.0084
2809.00,0.0084
2808.00,0.0083
2807.00,0.0083
2806.00,0.0083
2805.00,0.0083
2804.00,0.0083
2803.00,0.0082
2802.00,0.0082
2801.00,0.0082
2800.00,0.0081
2799.00,0.0081
2798.00,0.0081
2797.00,0.0080
2796.00,0.0080
2795.00,0.0080
2794.00,0.0079
2793.00,0.0079
2792.00,0.0079
2791.00,0.0079
2790.00,0.0078
2789.00,0.0078
2788.00,0.0078
2787.00,0.0078
2786.00,0.0077
2785.00,0.0077
2784.00,0.0077
2783.00,0.0077
2782.00,0.0076
2781.00,0.0076
2780.00,0.0076
2779.00,0.0076
2778.00,0.0076
2777.00,0.0075
2776.00,0.0075
2775.00,0.0075
2774.00,0.0074
2773.00,0.0074
2772.00,0.0074
2771.00,0.0073
2770.00,0.0073
2769.00,0.0073
2768.00,0.0073
2767.00,0.0073
2766.00,0.0073
2765.00,0.0072
2764.00,0.0072
2763.00,0.0072
2762.00,0.0072
2761.00,0.0072
2760.00,0.0071
2759.00,0.0071
2758.00,0.0071
2757.00,0.0070
2756.00,0.0070
2755.00,0.0070
2754.00,0.0070
2753.00,0.0070
2752.00,0.0070
2751.00,0.0069
2750.00,0.0069
2749.00,0.0069
2748.00,0.0068
2747.00,0.0068
2746.00,0.0068
2745.00,0.0068
2744.00,0.0068
2743.00,0.0068
2742.00,0.0067
2741.00,0.0067
2740.00,0.0067
2739.00,0.0067
2738.00,0.0067
2737.00,0.0066
2736.00,0.0066
2735.00,0.0066
2734.00,0.0066
2733.00,0.0065
2732.00,0.0065
2731.00,0.0065
2730.00,0.0065
2729.00,0.0064
2728.00,0.0064
2727.00,0.0064
2726.00,0.0064
2725.00,0.0064
2724.00,0.0063
2723.00,0.0063
2722.00,0.0063
2721.00,0.0063
2720.00,0.0062
2719.00,0.0062
2718.00,0.0062
2717.00,0.0062
2716.00,0.0062
2715.00,0.0061
2714.00,0.0061
2713.00,0.0061
2712.00,0.0061
2711.00,0.0061
2710.00,0.0061
2709.00,0.0060
2708.00,0.0060
2707.00,0.0060
2706.00,0.0060
2705.00,0.0059
2704.00,0.0059
2703.00,0.0059
2702.00,0.0059
2701.00,0.0059
2700.00,0.0059
2699.00,0.0059
2698.00,0.0059
2697.00,0.0059
2696.00,0.0058
2695.00,0.0058
2694.00,0.0058
2693.00,0.0058
2692.00,0.0058
2691.00,0.0058
2690.00,0.0058
2689.00,0.0058
2688.00,0.0058
2687.00,0.0058
2686.00,0.0058
2685.00,0.0058
2684.00,0.0057
2683.00,0.0057
2682.00,0.0057
2681.00,0.0057
2680.00,0.0057
2679.00,0.0057
2678.00,0.0057
2677.00,0.0057
2676.00,0.0057
2675.00,0.0057
2674.00,0.0057
2673.00,0.0057
2672.00,0.0057
2671.00,0.0057
2670.00,0.0057
2669.00,0.0057
2668.00,0.0057
2667.00,0.0057
2666.00,0.0057
2665.00,0.0058
2664.00,0.0058
2663.00,0.0059
2662.00,0.0059
2661.00,0.0060
2660.00,0.0060
2659.00,0.0060
2658.00,0.0060
2657.00,0.0060
2656.00,0.0060
2655.00,0.0060
2654.00,0.0060
2653.00,0.0060
2652.00,0.0060
2651.00,0.0060
2650.00,0.0060
2649.00,0.0060
2648.00,0.0060
2647.00,0.0060
2646.00,0.0059
2645.00,0.0059
2644.00,0.0059
2643.00,0.0059
2642.00,0.0059
2641.00,0.0059
2640.00,0.0059
2639.00,0.0059
2638.00,0.0059
2637.00,0.0059
2636.00,0.0059
2635.00,0.0059
2634.00,0.0059
2633.00,0.0058
2632.00,0.0058
2631.00,0.0058
2630.00,0.0058
2629.00,0.0058
2628.00,0.0058
2627.00,0.0058
2626.00,0.0057
2625.00,0.0057
2624.00,0.0057
2623.00,0.0057
2622.00,0.0057
2621.00,0.0057
2620.00,0.0057
2619.00,0.0057
2618.00,0.0056
2617.00,0.0056
2616.00,0.0056
2615.00,0.0056
2614.00,0.0055
2613.00,0.0055
2612.00,0.0055
2611.00,0.0055
2610.00,0.0055
2609.00,0.0055
2608.00,0.0055
2607.00,0.0054
2606.00,0.0054
2605.00,0.0055
2604.00,0.0054
2603.00,0.0054
2602.00,0.0054
2601.00,0.0054
2600.00,0.0054
2599.00,0.0053
2598.00,0.0053
2597.00,0.0053
2596.00,0.0053
2595.00,0.0053
2594.00,0.0053
2593.00,0.0053
2592.00,0.0052
2591.00,0.0052
2590.00,0.0052
2589.00,0.0052
2588.00,0.0052
2587.00,0.0052
2586.00,0.0052
2585.00,0.0051
2584.00,0.0051
2583.00,0.0050
2582.00,0.0050
2581.00,0.0050
2580.00,0.0050
2579.00,0.0050
2578.00,0.0050
2577.00,0.0049
2576.00,0.0049
2575.00,0.0049
2574.00,0.0049
2573.00,0.0049
2572.00,0.0049
2571.00,0.0049
2570.00,0.0049
2569.00,0.0049
2568.00,0.0049
2567.00,0.0048
2566.00,0.0048
2565.00,0.0048
2564.00,0.0048
2563.00,0.0048
2562.00,0.0048
2561.00,0.0047
2560.00,0.0047
2559.00,0.0047
2558.00,0.0047
2557.00,0.0047
2556.00,0.0047
2555.00,0.0047
2554.00,0.0047
2553.00,0.0047
2552.00,0.0047
2551.00,0.0047
2550.00,0.0046
2549.00,0.0046
2548.00,0.0046
2547.00,0.0046
2546.00,0.0046
2545.00,0.0046
2544.00,0.0046
2543.00,0.0045
2542.00,0.0045
2541.00,0.0045
2540.00,0.0045
2539.00,0.0045
2538.00,0.0045
2537.00,0.0045
2536.00,0.0044
2535.00,0.0044
2534.00,0.0044
2533.00,0.0045
2532.00,0.0045
2531.00,0.0045
2530.00,0.0044
2529.00,0.0044
2528.00,0.0043
2527.00,0.0043
2526.00,0.0043
2525.00,0.0042
2524.00,0.0042
2523.00,0.0043
2522.00,0.0043
2521.00,0.0043
2520.00,0.0044
2519.00,0.0044
2518.00,0.0043
2517.00,0.0043
2516.00,0.0043
2515.00,0.0043
2514.00,0.0042
2513.00,0.0042
2512.00,0.0043
2511.00,0.0043
2510.00,0.0043
2509.00,0.0043
2508.00,0.0042
2507.00,0.0042
2506.00,0.0042
2505.00,0.0042
2504.00,0.0042
2503.00,0.0042
2502.00,0.0042
2501.00,0.0042
2500.00,0.0042
2499.00,0.0042
2498.00,0.0042
2497.00,0.0042
2496.00,0.0041
2495.00,0.0041
2494.00,0.0041
2493.00,0.0041
2492.00,0.0041
2491.00,0.0041
2490.00,0.0041
2489.00,0.0041
2488.00,0.0041
2487.00,0.0041
2486.00,0.0040
2485.00,0.0040
2484.00,0.0039
2483.00,0.0039
2482.00,0.0040
2481.00,0.0040
2480.00,0.0040
2479.00,0.0040
2478.00,0.0040
2477.00,0.0040
2476.00,0.0040
2475.00,0.0040
2474.00,0.0040
2473.00,0.0040
2472.00,0.0039
2471.00,0.0039
2470.00,0.0038
2469.00,0.0038
2468.00,0.0038
2467.00,0.0038
2466.00,0.0038
2465.00,0.0038
2464.00,0.0038
2463.00,0.0038
2462.00,0.0038
2461.00,0.0039
2460.00,0.0039
2459.00,0.0039
2458.00,0.0038
2457.00,0.0038
2456.00,0.0038
2455.00,0.0039
2454.00,0.0039
2453.00,0.0038
2452.00,0.0038
2451.00,0.0038
2450.00,0.0037
2449.00,0.0037
2448.00,0.0037
2447.00,0.0037
2446.00,0.0037
2445.00,0.0037
2444.00,0.0037
2443.00,0.0036
2442.00,0.0036
2441.00,0.0036
2440.00,0.0036
2439.00,0.0036
2438.00,0.0036
2437.00,0.0036
2436.00,0.0036
2435.00,0.0035
2434.00,0.0035
2433.00,0.0035
2432.00,0.0035
2431.00,0.0035
2430.00,0.0034
2429.00,0.0034
2428.00,0.0034
2427.00,0.0034
2426.00,0.0034
2425.00,0.0034
2424.00,0.0033
2423.00,0.0033
2422.00,0.0032
2421.00,0.0032
2420.00,0.0032
2419.00,0.0032
2418.00,0.0033
2417.00,0.0033
2416.00,0.0033
2415.00,0.0033
2414.00,0.0033
2413.00,0.0032
2412.00,0.0032
2411.00,0.0032
2410.00,0.0032
2409.00,0.0032
2408.00,0.0031
2407.00,0.0031
2406.00,0.0031
2405.00,0.0030
2404.00,0.0030
2403.00,0.0030
2402.00,0.0030
2401.00,0.0030
2400.00,0.0030
2399.00,0.0030
2398.00,0.0030
2397.00,0.0030
2396.00,0.0030
2395.00,0.0030
2394.00,0.0030
2393.00,0.0029
2392.00,0.0029
2391.00,0.0029
2390.00,0.0029
2389.00,0.0029
2388.00,0.0029
2387.00,0.0028
2386.00,0.0028
2385.00,0.0027
2384.00,0.0027
2383.00,0.0026
2382.00,0.0025
2381.00,0.0024
2380.00,0.0024
2379.00,0.0024
2378.00,0.0023
2377.00,0.0024
2376.00,0.0024
2375.00,0.0024
2374.00,0.0024
2373.00,0.0023
2372.00,0.0023
2371.00,0.0023
2370.00,0.0022
2369.00,0.0021
2368.00,0.0021
2367.00,0.0021
2366.00,0.0021
2365.00,0.0022
2364.00,0.0023
2363.00,0.0023
2362.00,0.0023
2361.00,0.0023
2360.00,0.0023
2359.00,0.0023
2358.00,0.0023
2357.00,0.0023
2356.00,0.0023
2355.00,0.0024
2354.00,0.0024
2353.00,0.0024
2352.00,0.0024
2351.00,0.0023
2350.00,0.0023
2349.00,0.0024
2348.00,0.0024
2347.00,0.0025
2346.00,0.0025
2345.00,0.0026
2344.00,0.0025
2343.00,0.0025
2342.00,0.0025
2341.00,0.0026
2340.00,0.0026
2339.00,0.0026
2338.00,0.0026
2337.00,0.0026
2336.00,0.0026
2335.00,0.0027
2334.00,0.0027
2333.00,0.0028
2332.00,0.0027
2331.00,0.0027
2330.00,0.0027
2329.00,0.0028
2328.00,0.0031
2327.00,0.0034
2326.00,0.0037
2325.00,0.0038
2324.00,0.0038
2323.00,0.0036
2322.00,0.0034
2321.00,0.0032
2320.00,0.0031
2319.00,0.0031
2318.00,0.0030
2317.00,0.0030
2316.00,0.0030
2315.00,0.0030
2314.00,0.0030
2313.00,0.0029
2312.00,0.0029
2311.00,0.0028
2310.00,0.0028
2309.00,0.0027
2308.00,0.0027
2307.00,0.0027
2306.00,0.0027
2305.00,0.0028
2304.00,0.0028
2303.00,0.0029
2302.00,0.0029
2301.00,0.0029
2300.00,0.0029
2299.00,0.0030
2298.00,0.0030
2297.00,0.0031
2296.00,0.0032
2295.00,0.0033
2294.00,0.0033
2293.00,0.0034
2292.00,0.0035
2291.00,0.0036
2290.00,0.0036
2289.00,0.0037
2288.00,0.0038
2287.00,0.0038
2286.00,0.0038
2285.00,0.0038
2284.00,0.0037
2283.00,0.0036
2282.00,0.0035
2281.00,0.0035
2280.00,0.0034
2279.00,0.0034
2278.00,0.0034
2277.00,0.0034
2276.00,0.0033
2275.00,0.0033
2274.00,0.0033
2273.00,0.0032
2272.00,0.0032
2271.00,0.0033
2270.00,0.0033
2269.00,0.0032
2268.00,0.0032
2267.00,0.0031
2266.00,0.0031
2265.00,0.0031
2264.00,0.0031
2263.00,0.0031
2262.00,0.0031
2261.00,0.0031
2260.00,0.0031
2259.00,0.0031
2258.00,0.0030
2257.00,0.0029
2256.00,0.0028
2255.00,0.0027
2254.00,0.0027
2253.00,0.0027
2252.00,0.0027
2251.00,0.0028
2250.00,0.0028
2249.00,0.0029
2248.00,0.0029
2247.00,0.0029
2246.00,0.0030
2245.00,0.0030
2244.00,0.0030
2243.00,0.0029
2242.00,0.0029
2241.00,0.0029
2240.00,0.0030
2239.00,0.0031
2238.00,0.0032
2237.00,0.0032
2236.00,0.0031
2235.00,0.0031
2234.00,0.0030
2233.00,0.0030
2232.00,0.0030
2231.00,0.0029
2230.00,0.0028
2229.00,0.0028
2228.00,0.0028
2227.00,0.0028
2226.00,0.0028
2225.00,0.0029
2224.00,0.0029
2223.00,0.0030
2222.00,0.0030
2221.00,0.0031
2220.00,0.0031
2219.00,0.0031
2218.00,0.0030
2217.00,0.0028
2216.00,0.0028
2215.00,0.0028
2214.00,0.0028
2213.00,0.0028
2212.00,0.0028
2211.00,0.0029
2210.00,0.0029
2209.00,0.0029
2208.00,0.0029
2207.00,0.0029
2206.00,0.0028
2205.00,0.0028
2204.00,0.0028
2203.00,0.0028
2202.00,0.0028
2201.00,0.0029
2200.00,0.0029
2199.00,0.0029
2198.00,0.0029
2197.00,0.0029
2196.00,0.0029
2195.00,0.0028
2194.00,0.0028
2193.00,0.0029
2192.00,0.0030
2191.00,0.0030
2190.00,0.0030
2189.00,0.0030
2188.00,0.0029
2187.00,0.0029
2186.00,0.0029
2185.00,0.0028
2184.00,0.0026
2183.00,0.0024
2182.00,0.0023
2181.00,0.0023
2180.00,0.0024
2179.00,0.0026
2178.00,0.0026
2177.00,0.0025
2176.00,0.0024
2175.00,0.0023
2174.00,0.0024
2173.00,0.0026
2172.00,0.0027
2171.00,0.0028
2170.00,0.0030
2169.00,0.0033
2168.00,0.0035
2167.00,0.0036
2166.00,0.0037
2165.00,0.0037
2164.00,0.0037
2163.00,0.0037
2162.00,0.0032
2161.00,0.0024
2160.00,0.0013
2159.00,0.0004
2158.00,-0.0000
2157.00,0.0001
2156.00,0.0004
2155.00,0.0007
2154.00,0.0009
2153.00,0.0010
2152.00,0.0011
2151.00,0.0012
2150.00,0.0012
2149.00,0.0012
2148.00,0.0012
2147.00,0.0012
2146.00,0.0012
2145.00,0.0013
2144.00,0.0015
2143.00,0.0016
2142.00,0.0016
2141.00,0.0016
2140.00,0.0016
2139.00,0.0015
2138.00,0.0013
2137.00,0.0012
2136.00,0.0011
2135.00,0.0010
2134.00,0.0009
2133.00,0.0010
2132.00,0.0012
2131.00,0.0014
2130.00,0.0016
2129.00,0.0018
2128.00,0.0020
2127.00,0.0020
2126.00,0.0020
2125.00,0.0021
2124.00,0.0021
2123.00,0.0022
2122.00,0.0023
2121.00,0.0024
2120.00,0.0024
2119.00,0.0025
2118.00,0.0026
2117.00,0.0027
2116.00,0.0027
2115.00,0.0028
2114.00,0.0028
2113.00,0.0029
2112.00,0.0029
2111.00,0.0028
2110.00,0.0028
2109.00,0.0027
2108.00,0.0026
2107.00,0.0026
2106.00,0.0026
2105.00,0.0027
2104.00,0.0027
2103.00,0.0027
2102.00,0.0027
2101.00,0.0027
2100.00,0.0027
2099.00,0.0027
2098.00,0.0026
2097.00,0.0025
2096.00,0.0023
2095.00,0.0023
2094.00,0.0023
2093.00,0.0024
2092.00,0.0024
2091.00,0.0025
2090.00,0.0026
2089.00,0.0026
2088.00,0.0027
2087.00,0.0028
2086.00,0.0028
2085.00,0.0028
2084.00,0.0029
2083.00,0.0029
2082.00,0.0030
2081.00,0.0031
2080.00,0.0031
2079.00,0.0030
2078.00,0.0029
2077.00,0.0028
2076.00,0.0028
2075.00,0.0028
2074.00,0.0028
2073.00,0.0028
2072.00,0.0029
2071.00,0.0029
2070.00,0.0029
2069.00,0.0029
2068.00,0.0028
2067.00,0.0027
2066.00,0.0026
2065.00,0.0026
2064.00,0.0026
2063.00,0.0026
2062.00,0.0027
2061.00,0.0027
2060.00,0.0027
2059.00,0.0028
2058.00,0.0028
2057.00,0.0029
2056.00,0.0028
2055.00,0.0028
2054.00,0.0030
2053.00,0.0034
2052.00,0.0038
2051.00,0.0039
2050.00,0.0038
2049.00,0.0035
2048.00,0.0032
2047.00,0.0029
2046.00,0.0028
2045.00,0.0027
2044.00,0.0027
2043.00,0.0027
2042.00,0.0027
2041.00,0.0027
2040.00,0.0027
2039.00,0.0028
2038.00,0.0029
2037.00,0.0028
2036.00,0.0027
2035.00,0.0025
2034.00,0.0023
2033.00,0.0022
2032.00,0.0022
2031.00,0.0022
2030.00,0.0021
2029.00,0.0021
2028.00,0.0020
2027.00,0.0020
2026.00,0.0021
2025.00,0.0021
2024.00,0.0021
2023.00,0.0020
2022.00,0.0018
2021.00,0.0018
2020.00,0.0019
2019.00,0.0021
2018.00,0.0023
2017.00,0.0024
2016.00,0.0024
2015.00,0.0023
2014.00,0.0022
2013.00,0.0023
2012.00,0.0024
2011.00,0.0024
2010.00,0.0022
2009.00,0.0019
2008.00,0.0016
2007.00,0.0013
2006.00,0.0012
2005.00,0.0013
2004.00,0.0014
2003.00,0.0016
2002.00,0.0017
2001.00,0.0018
2000.00,0.0020
1999.00,0.0020
1998.00,0.0021
1997.00,0.0021
1996.00,0.0021
1995.00,0.0021
1994.00,0.0021
1993.00,0.0023
1992.00,0.0025
1991.00,0.0026
1990.00,0.0026
1989.00,0.0026
1988.00,0.0026
1987.00,0.0027
1986.00,0.0029
1985.00,0.0031
1984.00,0.0033
1983.00,0.0035
1982.00,0.0036
1981.00,0.0036
1980.00,0.0035
1979.00,0.0030
1978.00,0.0023
1977.00,0.0018
1976.00,0.0015
1975.00,0.0013
1974.00,0.0013
1973.00,0.0013
1972.00,0.0015
1971.00,0.0016
1970.00,0.0017
1969.00,0.0017
1968.00,0.0017
1967.00,0.0016
1966.00,0.0015
1965.00,0.0014
1964.00,0.0014
1963.00,0.0013
1962.00,0.0011
1961.00,0.0010
1960.00,0.0010
1959.00,0.0010
1958.00,0.0011
1957.00,0.0013
1956.00,0.0015
1955.00,0.0016
1954.00,0.0017
1953.00,0.0017
1952.00,0.0018
1951.00,0.0018
1950.00,0.0018
1949.00,0.0018
1948.00,0.0017
1947.00,0.0017
1946.00,0.0017
1945.00,0.0018
1944.00,0.0019
1943.00,0.0019
1942.00,0.0019
1941.00,0.0019
1940.00,0.0019
1939.00,0.0019
1938.00,0.0018
1937.00,0.0018
1936.00,0.0018
1935.00,0.0018
1934.00,0.0017
1933.00,0.0017
1932.00,0.0017
1931.00,0.0017
1930.00,0.0017
1929.00,0.0018
1928.00,0.0018
1927.00,0.0018
1926.00,0.0019
1925.00,0.0020
1924.00,0.0021
1923.00,0.0022
1922.00,0.0022
1921.00,0.0022
1920.00,0.0021
1919.00,0.0021
1918.00,0.0020
1917.00,0.0020
1916.00,0.0020
1915.00,0.0021
1914.00,0.0021
1913.00,0.0021
1912.00,0.0021
1911.00,0.0021
1910.00,0.0021
1909.00,0.0021
1908.00,0.0022
1907.00,0.0022
1906.00,0.0022
1905.00,0.0021
1904.00,0.0022
1903.00,0.0022
1902.00,0.0022
1901.00,0.0023
1900.00,0.0023
1899.00,0.0022
1898.00,0.0021
1897.00,0.0021
1896.00,0.0021
1895.00,0.0022
1894.00,0.0022
1893.00,0.0023
1892.00,0.0023
1891.00,0.0023
1890.00,0.0022
1889.00,0.0022
1888.00,0.0022
1887.00,0.0022
1886.00,0.0023
1885.00,0.0023
1884.00,0.0023
1883.00,0.0023
1882.00,0.0022
1881.00,0.0022
1880.00,0.0022
1879.00,0.0022
1878.00,0.0022
1877.00,0.0022
1876.00,0.0022
1875.00,0.0022
1874.00,0.0022
1873.00,0.0022
1872.00,0.0022
1871.00,0.0023
1870.00,0.0023
1869.00,0.0022
1868.00,0.0022
1867.00,0.0022
1866.00,0.0021
1865.00,0.0021
1864.00,0.0021
1863.00,0.0022
1862.00,0.0022
1861.00,0.0022
1860.00,0.0022
1859.00,0.0021
1858.00,0.0021
1857.00,0.0021
1856.00,0.0022
1855.00,0.0022
1854.00,0.0022
1853.00,0.0022
1852.00,0.0022
1851.00,0.0022
1850.00,0.0022
1849.00,0.0022
1848.00,0.0023
1847.00,0.0023
1846.00,0.0022
1845.00,0.0022
1844.00,0.0022
1843.00,0.0022
1842.00,0.0021
1841.00,0.0022
1840.00,0.0022
1839.00,0.0023
1838.00,0.0023
1837.00,0.0023
1836.00,0.0023
1835.00,0.0023
1834.00,0.0023
1833.00,0.0024
1832.00,0.0024
1831.00,0.0025
1830.00,0.0024
1829.00,0.0024
1828.00,0.0024
1827.00,0.0024
1826.00,0.0024
1825.00,0.0024
1824.00,0.0024
1823.00,0.0024
1822.00,0.0024
1821.00,0.0024
1820.00,0.0023
1819.00,0.0023
1818.00,0.0022
1817.00,0.0021
1816.00,0.0022
1815.00,0.0022
1814.00,0.0023
1813.00,0.0023
1812.00,0.0024
1811.00,0.0024
1810.00,0.0025
1809.00,0.0025
1808.00,0.0025
1807.00,0.0026
1806.00,0.0026
1805.00,0.0026
1804.00,0.0026
1803.00,0.0027
1802.00,0.0026
1801.00,0.0026
1800.00,0.0027
1799.00,0.0027
1798.00,0.0027
1797.00,0.0027
1796.00,0.0027
1795.00,0.0027
1794.00,0.0027
1793.00,0.0027
1792.00,0.0027
1791.00,0.0027
1790.00,0.0027
1789.00,0.0027
1788.00,0.0028
1787.00,0.0029
1786.00,0.0029
1785.00,0.0029
1784.00,0.0029
1783.00,0.0029
1782.00,0.0029
1781.00,0.0029
1780.00,0.0029
1779.00,0.0029
1778.00,0.0029
1777.00,0.0029
1776.00,0.0030
1775.00,0.0030
1774.00,0.0031
1773.00,0.0031
1772.00,0.0031
1771.00,0.0031
1770.00,0.0032
1769.00,0.0032
1768.00,0.0033
1767.00,0.0033
1766.00,0.0034
1765.00,0.0034
1764.00,0.0035
1763.00,0.0036
1762.00,0.0037
1761.00,0.0038
1760.00,0.0039
1759.00,0.0041
1758.00,0.0042
1757.00,0.0044
1756.00,0.0045
1755.00,0.0047
1754.00,0.0048
1753.00,0.0050
1752.00,0.0052
1751.00,0.0054
1750.00,0.0056
1749.00,0.0058
1748.00,0.0060
1747.00,0.0063
1746.00,0.0065
1745.00,0.0068
1744.00,0.0072
1743.00,0.0076
1742.00,0.0079
1741.00,0.0083
1740.00,0.0087
1739.00,0.0092
1738.00,0.0096
1737.00,0.0099
1736.00,0.0103
1735.00,0.0107
1734.00,0.0112
1733.00,0.0116
1732.00,0.0119
1731.00,0.0121
1730.00,0.0124
1729.00,0.0127
1728.00,0.0129
1727.00,0.0131
1726.00,0.0132
1725.00,0.0133
1724.00,0.0135
1723.00,0.0135
1722.00,0.0136
1721.00,0.0136
1720.00,0.0137
1719.00,0.0137
1718.00,0.0137
1717.00,0.0137
1716.00,0.0137
1715.00,0.0137
1714.00,0.0137
1713.00,0.0137
1712.00,0.0138
1711.00,0.0139
1710.00,0.0139
1709.00,0.0140
1708.00,0.0142
1707.00,0.0144
1706.00,0.0148
1705.00,0.0152
1704.00,0.0156
1703.00,0.0161
1702.00,0.0166
1701.00,0.0175
1700.00,0.0187
1699.00,0.0196
1698.00,0.0202
1697.00,0.0207
1696.00,0.0214
1695.00,0.0221
1694.00,0.0227
1693.00,0.0232
1692.00,0.0238
1691.00,0.0244
1690.00,0.0250
1689.00,0.0257
1688.00,0.0263
1687.00,0.0268
1686.00,0.0273
1685.00,0.0282
1684.00,0.0295
1683.00,0.0306
1682.00,0.0313
1681.00,0.0319
1680.00,0.0326
1679.00,0.0333
1678.00,0.0339
1677.00,0.0346
1676.00,0.0355
1675.00,0.0365
1674.00,0.0375
1673.00,0.0381
1672.00,0.0388
1671.00,0.0395
1670.00,0.0405
1669.00,0.0416
1668.00,0.0427
1667.00,0.0435
1666.00,0.0442
1665.00,0.0448
1664.00,0.0457
1663.00,0.0468
1662.00,0.0480
1661.00,0.0491
1660.00,0.0501
1659.00,0.0509
1658.00,0.0517
1657.00,0.0524
1656.00,0.0529
1655.00,0.0534
1654.00,0.0544
1653.00,0.0561
1652.00,0.0575
1651.00,0.0580
1650.00,0.0579
1649.00,0.0579
1648.00,0.0581
1647.00,0.0586
1646.00,0.0591
1645.00,0.0594
1644.00,0.0595
1643.00,0.0594
1642.00,0.0594
1641.00,0.0594
1640.00,0.0595
1639.00,0.0596
1638.00,0.0596
1637.00,0.0597
1636.00,0.0603
1635.00,0.0611
1634.00,0.0617
1633.00,0.0620
1632.00,0.0621
1631.00,0.0623
1630.00,0.0625
1629.00,0.0629
1628.00,0.0633
1627.00,0.0636
1626.00,0.0637
1625.00,0.0636
1624.00,0.0635
1623.00,0.0633
1622.00,0.0630
1621.00,0.0623
1620.00,0.0615
1619.00,0.0605
1618.00,0.0593
1617.00,0.0581
1616.00,0.0569
1615.00,0.0557
1614.00,0.0545
1613.00,0.0532
1612.00,0.0518
1611.00,0.0503
1610.00,0.0488
1609.00,0.0473
1608.00,0.0459
1607.00,0.0445
1606.00,0.0432
1605.00,0.0419
1604.00,0.0407
1603.00,0.0395
1602.00,0.0385
1601.00,0.0375
1600.00,0.0366
1599.00,0.0357
1598.00,0.0349
1597.00,0.0342
1596.00,0.0335
1595.00,0.0328
1594.00,0.0322
1593.00,0.0316
1592.00,0.0311
1591.00,0.0305
1590.00,0.0301
1589.00,0.0296
1588.00,0.0293
1587.00,0.0289
1586.00,0.0286
1585.00,0.0284
1584.00,0.0282
1583.00,0.0281
1582.00,0.0280
1581.00,0.0280
1580.00,0.0279
1579.00,0.0279
1578.00,0.0279
1577.00,0.0281
1576.00,0.0284
1575.00,0.0287
1574.00,0.0290
1573.00,0.0293
1572.00,0.0295
1571.00,0.0299
1570.00,0.0305
1569.00,0.0312
1568.00,0.0318
1567.00,0.0323
1566.00,0.0328
1565.00,0.0334
1564.00,0.0341
1563.00,0.0346
1562.00,0.0350
1561.00,0.0354
1560.00,0.0363
1559.00,0.0381
1558.00,0.0399
1557.00,0.0409
1556.00,0.0415
1555.00,0.0423
1554.00,0.0432
1553.00,0.0441
1552.00,0.0450
1551.00,0.0458
1550.00,0.0467
1549.00,0.0477
1548.00,0.0484
1547.00,0.0490
1546.00,0.0495
1545.00,0.0502
1544.00,0.0508
1543.00,0.0513
1542.00,0.0517
1541.00,0.0523
1540.00,0.0532
1539.00,0.0541
1538.00,0.0545
1537.00,0.0547
1536.00,0.0547
1535.00,0.0548
1534.00,0.0551
1533.00,0.0557
1532.00,0.0561
1531.00,0.0562
1530.00,0.0563
1529.00,0.0563
1528.00,0.0563
1527.00,0.0564
1526.00,0.0566
1525.00,0.0566
1524.00,0.0566
1523.00,0.0565
1522.00,0.0566
1521.00,0.0570
1520.00,0.0573
1519.00,0.0575
1518.00,0.0576
1517.00,0.0578
1516.00,0.0579
1515.00,0.0577
1514.00,0.0572
1513.00,0.0566
1512.00,0.0558
1511.00,0.0550
1510.00,0.0540
1509.00,0.0530
1508.00,0.0519
1507.00,0.0509
1506.00,0.0500
1505.00,0.0491
1504.00,0.0481
1503.00,0.0471
1502.00,0.0460
1501.00,0.0450
1500.00,0.0439
1499.00,0.0429
1498.00,0.0419
1497.00,0.0409
1496.00,0.0398
1495.00,0.0387
1494.00,0.0377
1493.00,0.0367
1492.00,0.0357
1491.00,0.0347
1490.00,0.0337
1489.00,0.0328
1488.00,0.0319
1487.00,0.0312
1486.00,0.0304
1485.00,0.0297
1484.00,0.0291
1483.00,0.0286
1482.00,0.0281
1481.00,0.0277
1480.00,0.0274
1479.00,0.0272
1478.00,0.0271
1477.00,0.0270
1476.00,0.0271
1475.00,0.0273
1474.00,0.0275
1473.00,0.0279
1472.00,0.0284
1471.00,0.0289
1470.00,0.0292
1469.00,0.0293
1468.00,0.0295
1467.00,0.0295
1466.00,0.0296
1465.00,0.0298
1464.00,0.0299
1463.00,0.0301
1462.00,0.0301
1461.00,0.0302
1460.00,0.0303
1459.00,0.0306
1458.00,0.0310
1457.00,0.0316
1456.00,0.0321
1455.00,0.0324
1454.00,0.0324
1453.00,0.0325
1452.00,0.0325
1451.00,0.0325
1450.00,0.0325
1449.00,0.0324
1448.00,0.0325
1447.00,0.0325
1446.00,0.0324
1445.00,0.0323
1444.00,0.0321
1443.00,0.0320
1442.00,0.0318
1441.00,0.0317
1440.00,0.0314
1439.00,0.0312
1438.00,0.0309
1437.00,0.0306
1436.00,0.0304
1435.00,0.0300
1434.00,0.0296
1433.00,0.0292
1432.00,0.0288
1431.00,0.0285
1430.00,0.0283
1429.00,0.0281
1428.00,0.0279
1427.00,0.0278
1426.00,0.0276
1425.00,0.0276
1424.00,0.0276
1423.00,0.0276
1422.00,0.0277
1421.00,0.0277
1420.00,0.0278
1419.00,0.0281
1418.00,0.0284
1417.00,0.0286
1416.00,0.0287
1415.00,0.0289
1414.00,0.0290
1413.00,0.0291
1412.00,0.0292
1411.00,0.0293
1410.00,0.0294
1409.00,0.0295
1408.00,0.0295
1407.00,0.0296
1406.00,0.0295
1405.00,0.0295
1404.00,0.0295
1403.00,0.0295
1402.00,0.0294
1401.00,0.0293
1400.00,0.0293
1399.00,0.0292
1398.00,0.0292
1397.00,0.0292
1396.00,0.0292
1395.00,0.0293
1394.00,0.0294
1393.00,0.0295
1392.00,0.0295
1391.00,0.0296
1390.00,0.0296
1389.00,0.0296
1388.00,0.0296
1387.00,0.0296
1386.00,0.0296
1385.00,0.0294
1384.00,0.0292
1383.00,0.0290
1382.00,0.0288
1381.00,0.0286
1380.00,0.0284
1379.00,0.0282
1378.00,0.0280
1377.00,0.0278
1376.00,0.0276
1375.00,0.0275
1374.00,0.0274
1373.00,0.0274
1372.00,0.0273
1371.00,0.0273
1370.00,0.0272
1369.00,0.0271
1368.00,0.0270
1367.00,0.0268
1366.00,0.0266
1365.00,0.0264
1364.00,0.0262
1363.00,0.0260
1362.00,0.0258
1361.00,0.0257
1360.00,0.0256
1359.00,0.0256
1358.00,0.0255
1357.00,0.0254
1356.00,0.0254
1355.00,0.0253
1354.00,0.0253
1353.00,0.0254
1352.00,0.0254
1351.00,0.0254
1350.00,0.0255
1349.00,0.0255
1348.00,0.0255
1347.00,0.0256
1346.00,0.0256
1345.00,0.0256
1344.00,0.0257
1343.00,0.0257
1342.00,0.0257
1341.00,0.0257
1340.00,0.0257
1339.00,0.0257
1338.00,0.0257
1337.00,0.0257
1336.00,0.0257
1335.00,0.0256
1334.00,0.0256
1333.00,0.0255
1332.00,0.0254
1331.00,0.0254
1330.00,0.0254
1329.00,0.0254
1328.00,0.0254
1327.00,0.0254
1326.00,0.0254
1325.00,0.0254
1324.00,0.0254
1323.00,0.0255
1322.00,0.0255
1321.00,0.0256
1320.00,0.0256
1319.00,0.0257
1318.00,0.0258
1317.00,0.0259
1316.00,0.0259
1315.00,0.0260
1314.00,0.0260
1313.00,0.0261
1312.00,0.0261
1311.00,0.0261
1310.00,0.0262
1309.00,0.0262
1308.00,0.0262
1307.00,0.0263
1306.00,0.0263
1305.00,0.0263
1304.00,0.0264
1303.00,0.0264
1302.00,0.0265
1301.00,0.0265
1300.00,0.0266
1299.00,0.0266
1298.00,0.0267
1297.00,0.0268
1296.00,0.0269
1295.00,0.0270
1294.00,0.0271
1293.00,0.0272
1292.00,0.0273
1291.00,0.0274
1290.00,0.0275
1289.00,0.0275
1288.00,0.0276
1287.00,0.0277
1286.00,0.0278
1285.00,0.0279
1284.00,0.0280
1283.00,0.0281
1282.00,0.0282
1281.00,0.0282
1280.00,0.0283
1279.00,0.0284
1278.00,0.0284
1277.00,0.0285
1276.00,0.0285
1275.00,0.0286
1274.00,0.0287
1273.00,0.0288
1272.00,0.0289
1271.00,0.0290
1270.00,0.0292
1269.00,0.0293
1268.00,0.0295
1267.00,0.0296
1266.00,0.0297
1265.00,0.0299
1264.00,0.0301
1263.00,0.0303
1262.00,0.0305
1261.00,0.0306
1260.00,0.0308
1259.00,0.0310
1258.00,0.0312
1257.00,0.0314
1256.00,0.0316
1255.00,0.0317
1254.00,0.0319
1253.00,0.0321
1252.00,0.0323
1251.00,0.0325
1250.00,0.0327
1249.00,0.0329
1248.00,0.0331
1247.00,0.0333
1246.00,0.0335
1245.00,0.0337
1244.00,0.0339
1243.00,0.0341
1242.00,0.0343
1241.00,0.0345
1240.00,0.0347
1239.00,0.0348
1238.00,0.0349
1237.00,0.0350
1236.00,0.0351
1235.00,0.0352
1234.00,0.0353
1233.00,0.0354
1232.00,0.0354
1231.00,0.0354
1230.00,0.0354
1229.00,0.0353
1228.00,0.0353
1227.00,0.0352
1226.00,0.0351
1225.00,0.0350
1224.00,0.0349
1223.00,0.0347
1222.00,0.0345
1221.00,0.0343
1220.00,0.0341
1219.00,0.0339
1218.00,0.0337
1217.00,0.0334
1216.00,0.0332
1215.00,0.0329
1214.00,0.0327
1213.00,0.0324
1212.00,0.0321
1211.00,0.0319
1210.00,0.0318
1209.00,0.0316
1208.00,0.0315
1207.00,0.0313
1206.00,0.0312
1205.00,0.0311
1204.00,0.0310
1203.00,0.0309
1202.00,0.0308
1201.00,0.0308
1200.00,0.0308
1199.00,0.0307
1198.00,0.0307
1197.00,0.0307
1196.00,0.0308
1195.00,0.0308
1194.00,0.0309
1193.00,0.0310
1192.00,0.0311
1191.00,0.0312
1190.00,0.0313
1189.00,0.0314
1188.00,0.0315
1187.00,0.0316
1186.00,0.0317
1185.00,0.0318
1184.00,0.0320
1183.00,0.0321
1182.00,0.0322
1181.00,0.0324
1180.00,0.0326
1179.00,0.0328
1178.00,0.0331
1177.00,0.0333
1176.00,0.0336
1175.00,0.0338
1174.00,0.0340
1173.00,0.0342
1172.00,0.0344
1171.00,0.0345
1170.00,0.0345
1169.00,0.0345
1168.00,0.0345
1167.00,0.0345
1166.00,0.0345
1165.00,0.0345
1164.00,0.0345
1163.00,0.0345
1162.00,0.0344
1161.00,0.0344
1160.00,0.0343
1159.00,0.0342
1158.00,0.0341
1157.00,0.0340
1156.00,0.0339
1155.00,0.0337
1154.00,0.0336
1153.00,0.0334
1152.00,0.0332
1151.00,0.0329
1150.00,0.0327
1149.00,0.0325
1148.00,0.0322
1147.00,0.0319
1146.00,0.0316
1145.00,0.0313
1144.00,0.0311
1143.00,0.0309
1142.00,0.0307
1141.00,0.0306
1140.00,0.0305
1139.00,0.0304
1138.00,0.0303
1137.00,0.0302
1136.00,0.0301
1135.00,0.0301
1134.00,0.0300
1133.00,0.0300
1132.00,0.0300
1131.00,0.0301
1130.00,0.0301
1129.00,0.0301
1128.00,0.0301
1127.00,0.0301
1126.00,0.0301
1125.00,0.0300
1124.00,0.0300
1123.00,0.0300
1122.00,0.0300
1121.00,0.0299
1120.00,0.0299
1119.00,0.0298
1118.00,0.0298
1117.00,0.0298
1116.00,0.0298
1115.00,0.0298
1114.00,0.0298
1113.00,0.0298
1112.00,0.0298
1111.00,0.0298
1110.00,0.0298
1109.00,0.0298
1108.00,0.0299
1107.00,0.0299
1106.00,0.0299
1105.00,0.0300
1104.00,0.0300
1103.00,0.0301
1102.00,0.0301
1101.00,0.0302
1100.00,0.0302
1099.00,0.0303
1098.00,0.0303
1097.00,0.0303
1096.00,0.0303
1095.00,0.0304
1094.00,0.0304
1093.00,0.0304
1092.00,0.0304
1091.00,0.0305
1090.00,0.0306
1089.00,0.0307
1088.00,0.0308
1087.00,0.0309
1086.00,0.0311
1085.00,0.0312
1084.00,0.0314
1083.00,0.0315
1082.00,0.0316
1081.00,0.0317
1080.00,0.0318
1079.00,0.0319
1078.00,0.0320
1077.00,0.0320
1076.00,0.0321
1075.00,0.0321
1074.00,0.0320
1073.00,0.0320
1072.00,0.0319
1071.00,0.0318
1070.00,0.0318
1069.00,0.0318
1068.00,0.0318
1067.00,0.0318
1066.00,0.0318
1065.00,0.0317
1064.00,0.0316
1063.00,0.0316
1062.00,0.0315
1061.00,0.0315
1060.00,0.0315
1059.00,0.0315
1058.00,0.0314
1057.00,0.0314
1056.00,0.0314
1055.00,0.0313
1054.00,0.0312
1053.00,0.0312
1052.00,0.0311
1051.00,0.0310
1050.00,0.0309
1049.00,0.0309
1048.00,0.0308
1047.00,0.0306
1046.00,0.0305
1045.00,0.0303
1044.00,0.0302
1043.00,0.0300
1042.00,0.0299
1041.00,0.0298
1040.00,0.0296
1039.00,0.0296
1038.00,0.0295
1037.00,0.0294
1036.00,0.0293
1035.00,0.0293
1034.00,0.0293
1033.00,0.0293
1032.00,0.0293
1031.00,0.0292
1030.00,0.0292
1029.00,0.0291
1028.00,0.0290
1027.00,0.0288
1026.00,0.0287
1025.00,0.0286
1024.00,0.0285
1023.00,0.0284
1022.00,0.0282
1021.00,0.0280
1020.00,0.0278
1019.00,0.0276
1018.00,0.0274
1017.00,0.0273
1016.00,0.0271
1015.00,0.0269
1014.00,0.0268
1013.00,0.0266
1012.00,0.0264
1011.00,0.0261
1010.00,0.0259
1009.00,0.0257
1008.00,0.0255
1007.00,0.0252
1006.00,0.0250
1005.00,0.0248
1004.00,0.0246
1003.00,0.0244
1002.00,0.0243
1001.00,0.0242
1000.00,0.0241
999.00,0.0239
998.00,0.0238
997.00,0.0237
996.00,0.0235
995.00,0.0234
994.00,0.0233
993.00,0.0231
992.00,0.0230
991.00,0.0229
990.00,0.0228
989.00,0.0227
988.00,0.0226
987.00,0.0225
986.00,0.0224
985.00,0.0223
984.00,0.0222
983.00,0.0221
982.00,0.0220
981.00,0.0219
980.00,0.0218
979.00,0.0217
978.00,0.0216
977.00,0.0216
976.00,0.0215
975.00,0.0215
974.00,0.0215
973.00,0.0214
972.00,0.0214
971.00,0.0213
970.00,0.0213
969.00,0.0213
968.00,0.0212
967.00,0.0212
966.00,0.0212
965.00,0.0212
964.00,0.0211
963.00,0.0211
962.00,0.0211
961.00,0.0211
960.00,0.0211
959.00,0.0210
958.00,0.0210
957.00,0.0210
956.00,0.0210
955.00,0.0210
954.00,0.0209
953.00,0.0209
952.00,0.0209
951.00,0.0209
950.00,0.0209
949.00,0.0209
948.00,0.0208
947.00,0.0208
946.00,0.0209
945.00,0.0209
944.00,0.0210
943.00,0.0210
942.00,0.0210
941.00,0.0210
940.00,0.0210
939.00,0.0210
938.00,0.0211
937.00,0.0211
936.00,0.0212
935.00,0.0212
934.00,0.0212
933.00,0.0212
932.00,0.0213
931.00,0.0212
930.00,0.0212
929.00,0.0212
928.00,0.0212
927.00,0.0212
926.00,0.0212
925.00,0.0212
924.00,0.0212
923.00,0.0211
922.00,0.0211
921.00,0.0210
920.00,0.0210
919.00,0.0210
918.00,0.0209
917.00,0.0208
916.00,0.0208
915.00,0.0208
914.00,0.0207
913.00,0.0207
912.00,0.0206
911.00,0.0206
910.00,0.0206
909.00,0.0206
908.00,0.0205
907.00,0.0205
906.00,0.0205
905.00,0.0205
904.00,0.0205
903.00,0.0205
902.00,0.0204
901.00,0.0204
900.00,0.0203
899.00,0.0203
898.00,0.0203
897.00,0.0203
896.00,0.0203
895.00,0.0203
894.00,0.0203
893.00,0.0203
892.00,0.0203
891.00,0.0202
890.00,0.0202
889.00,0.0202
888.00,0.0202
887.00,0.0202
886.00,0.0202
885.00,0.0201
884.00,0.0201
883.00,0.0201
882.00,0.0201
881.00,0.0201
880.00,0.0201
879.00,0.0201
878.00,0.0200
877.00,0.0200
876.00,0.0199
875.00,0.0199
874.00,0.0198
873.00,0.0198
872.00,0.0198
871.00,0.0197
870.00,0.0197
869.00,0.0197
868.00,0.0196
867.00,0.0196
866.00,0.0196
865.00,0.0196
864.00,0.0197
863.00,0.0198
862.00,0.0199
861.00,0.0199
860.00,0.0200
859.00,0.0201
858.00,0.0202
857.00,0.0203
856.00,0.0204
855.00,0.0205
854.00,0.0207
853.00,0.0208
852.00,0.0209
851.00,0.0210
850.00,0.0210
849.00,0.0210
848.00,0.0210
847.00,0.0210
846.00,0.0210
845.00,0.0211
844.00,0.0212
843.00,0.0213
842.00,0.0214
841.00,0.0215
840.00,0.0216
839.00,0.0217
838.00,0.0218
837.00,0.0220
836.00,0.0222
835.00,0.0223
834.00,0.0224
833.00,0.0225
832.00,0.0226
831.00,0.0227
830.00,0.0228
829.00,0.0228
828.00,0.0229
827.00,0.0230
826.00,0.0230
825.00,0.0230
824.00,0.0230
823.00,0.0230
822.00,0.0230
821.00,0.0230
820.00,0.0230
819.00,0.0230
818.00,0.0230
817.00,0.0230
816.00,0.0231
815.00,0.0231
814.00,0.0232
813.00,0.0233
812.00,0.0234
811.00,0.0235
810.00,0.0236
809.00,0.0237
808.00,0.0238
807.00,0.0239
806.00,0.0240
805.00,0.0240
804.00,0.0240
803.00,0.0240
802.00,0.0240
801.00,0.0240
800.00,0.0241
799.00,0.0242
798.00,0.0243
797.00,0.0245
796.00,0.0246
795.00,0.0247
794.00,0.0248
793.00,0.0249
792.00,0.0251
791.00,0.0253
790.00,0.0255
789.00,0.0257
788.00,0.0259
787.00,0.0260
786.00,0.0261
785.00,0.0262
784.00,0.0263
783.00,0.0265
782.00,0.0266
781.00,0.0267
780.00,0.0269
779.00,0.0270
778.00,0.0271
777.00,0.0272
776.00,0.0273
775.00,0.0274
774.00,0.0275
773.00,0.0276
772.00,0.0277
771.00,0.0278
770.00,0.0280
769.00,0.0281
768.00,0.0283
767.00,0.0284
766.00,0.0285
765.00,0.0285
764.00,0.0286
763.00,0.0287
762.00,0.0288
761.00,0.0289
760.00,0.0290
759.00,0.0292
758.00,0.0294
757.00,0.0295
756.00,0.0296
755.00,0.0297
754.00,0.0299
753.00,0.0300
752.00,0.0302
751.00,0.0305
750.00,0.0307
749.00,0.0309
748.00,0.0311
747.00,0.0312
746.00,0.0313
745.00,0.0314
744.00,0.0315
743.00,0.0316
742.00,0.0317
741.00,0.0318
740.00,0.0319
739.00,0.0320
738.00,0.0321
737.00,0.0321
736.00,0.0322
735.00,0.0323
734.00,0.0324
733.00,0.0325
732.00,0.0326
731.00,0.0328
730.00,0.0330
729.00,0.0332
728.00,0.0335
727.00,0.0337
726.00,0.0340
725.00,0.0342
724.00,0.0344
723.00,0.0347
722.00,0.0350
721.00,0.0353
720.00,0.0356
719.00,0.0359
718.00,0.0362
717.00,0.0364
716.00,0.0366
715.00,0.0369
714.00,0.0371
713.00,0.0374
712.00,0.0377
711.00,0.0380
710.00,0.0384
709.00,0.0387
708.00,0.0391
707.00,0.0395
706.00,0.0399
705.00,0.0403
704.00,0.0407
703.00,0.0411
702.00,0.0414
701.00,0.0417
700.00,0.0419
699.00,0.0421
698.00,0.0422
697.00,0.0422
696.00,0.0423
695.00,0.0423
694.00,0.0423
693.00,0.0424
692.00,0.0424
691.00,0.0425
690.00,0.0425
689.00,0.0425
688.00,0.0425
687.00,0.0425
686.00,0.0426
685.00,0.0427
684.00,0.0428
683.00,0.0430
682.00,0.0432
681.00,0.0433
680.00,0.0434
679.00,0.0435
678.00,0.0436
677.00,0.0437
676.00,0.0438
675.00,0.0440
674.00,0.0441
673.00,0.0442
672.00,0.0443
671.00,0.0443
670.00,0.0444
669.00,0.0446
668.00,0.0451
667.00,0.0456
666.00,0.0457
665.00,0.0456
664.00,0.0455
663.00,0.0455
662.00,0.0456
661.00,0.0457
660.00,0.0458
659.00,0.0459
658.00,0.0459
657.00,0.0461
656.00,0.0462
655.00,0.0463
654.00,0.0464
653.00,0.0465
652.00,0.0466
651.00,0.0467
650.00,0.0468
649.00,0.0469
648.00,0.0470
647.00,0.0471
646.00,0.0472
645.00,0.0472
644.00,0.0473
643.00,0.0474
642.00,0.0475
641.00,0.0477
640.00,0.0479
639.00,0.0481
638.00,0.0482
637.00,0.0483
636.00,0.0485
635.00,0.0486
634.00,0.0488
633.00,0.0490
632.00,0.0493
631.00,0.0496
630.00,0.0499
629.00,0.0502
628.00,0.0505
627.00,0.0507
626.00,0.0509
625.00,0.0511
624.00,0.0512
623.00,0.0513
622.00,0.0513
621.00,0.0513
620.00,0.0513
619.00,0.0513
618.00,0.0513
617.00,0.0515
616.00,0.0518
615.00,0.0519
614.00,0.0519
613.00,0.0518
612.00,0.0518
611.00,0.0519
610.00,0.0521
609.00,0.0522
608.00,0.0523
607.00,0.0524
606.00,0.0524
605.00,0.0524
604.00,0.0524
603.00,0.0524
602.00,0.0524
601.00,0.0524
600.00,0.0525
599.00,0.0526
598.00,0.0527
597.00,0.0527
596.00,0.0527
595.00,0.0528
594.00,0.0529
593.00,0.0530
592.00,0.0532
591.00,0.0533
590.00,0.0534
589.00,0.0535
588.00,0.0535
587.00,0.0535
586.00,0.0536
585.00,0.0536
584.00,0.0536
583.00,0.0537
582.00,0.0538
581.00,0.0539
580.00,0.0541
579.00,0.0543
578.00,0.0545
577.00,0.0546
576.00,0.0547
575.00,0.0547
574.00,0.0547
573.00,0.0548
572.00,0.0550
571.00,0.0552
570.00,0.0554
569.00,0.0555
568.00,0.0556
567.00,0.0557
566.00,0.0558
565.00,0.0559
564.00,0.0559
563.00,0.0560
562.00,0.0560
561.00,0.0560
560.00,0.0562
559.00,0.0564
558.00,0.0567
557.00,0.0569
556.00,0.0571
555.00,0.0572
554.00,0.0572
553.00,0.0572
552.00,0.0572
551.00,0.0574
550.00,0.0576
549.00,0.0578
548.00,0.0580
547.00,0.0581
546.00,0.0583
545.00,0.0585
544.00,0.0586
543.00,0.0587
542.00,0.0587
541.00,0.0587
540.00,0.0587
539.00,0.0586
538.00,0.0585
537.00,0.0585
536.00,0.0587
535.00,0.0589
534.00,0.0591
533.00,0.0591
532.00,0.0591
531.00,0.0590
530.00,0.0589
529.00,0.0589
528.00,0.0590
527.00,0.0590
526.00,0.0591
525.00,0.0593
524.00,0.0596
523.00,0.0598
522.00,0.0597
521.00,0.0596
520.00,0.0595
519.00,0.0595
518.00,0.0597
517.00,0.0601
516.00,0.0604
515.00,0.0606
514.00,0.0606
513.00,0.0605
512.00,0.0603
511.00,0.0600
510.00,0.0597
509.00,0.0595
508.00,0.0595
507.00,0.0597
506.00,0.0598
505.00,0.0599
504.00,0.0599
503.00,0.0599
502.00,0.0598
501.00,0.0597
500.00,0.0597
499.00,0.0597
498.00,0.0598
497.00,0.0599
496.00,0.0601
495.00,0.0602
494.00,0.0602
493.00,0.0602
492.00,0.0602
491.00,0.0603
490.00,0.0605
489.00,0.0607
488.00,0.0609
487.00,0.0609
486.00,0.0608
485.00,0.0606
484.00,0.0606
483.00,0.0606
482.00,0.0607
481.00,0.0608
480.00,0.0609
479.00,0.0610
478.00,0.0610
477.00,0.0610
476.00,0.0610
475.00,0.0609
474.00,0.0608
473.00,0.0608
472.00,0.0610
471.00,0.0612
470.00,0.0612
469.00,0.0613
468.00,0.0615
467.00,0.0617
466.00,0.0616
465.00,0.0614
464.00,0.0612
463.00,0.0613
462.00,0.0617
461.00,0.0621
460.00,0.0624
459.00,0.0625
458.00,0.0624
457.00,0.0622
456.00,0.0620
455.00,0.0620
454.00,0.0618
453.00,0.0617
452.00,0.0614
451.00,0.0612
450.00,0.0609
449.00,0.0609
448.00,0.0612
447.00,0.0614
446.00,0.0613
445.00,0.0610
444.00,0.0607
443.00,0.0605
442.00,0.0603
441.00,0.0601
440.00,0.0599
439.00,0.0598
438.00,0.0596
437.00,0.0597
436.00,0.0599
435.00,0.0601
434.00,0.0601
433.00,0.0600
432.00,0.0601
431.00,0.0601
430.00,0.0601
429.00,0.0600
428.00,0.0601
427.00,0.0603
426.00,0.0603
425.00,0.0601
424.00,0.0598
423.00,0.0597
422.00,0.0595
421.00,0.0592
420.00,0.0591
419.00,0.0591
418.00,0.0593
417.00,0.0596
416.00,0.0601
415.00,0.0606
414.00,0.0609
413.00,0.0610
412.00,0.0609
411.00,0.0607
410.00,0.0604
409.00,0.0601
408.00,0.0601
407.00,0.0604
406.00,0.0603
405.00,0.0599
404.00,0.0594
403.00,0.0591
402.00,0.0593
401.00,0.0594
400.00,0.0592
