Created as New Dataset,Sample 121 By YargerLab Date Friday, August 15 2025
cm-1,A
4000.00,0.0056
3999.00,0.0056
3998.00,0.0056
3997.00,0.0056
3996.00,0.0056
3995.00,0.0056
3994.00,0.0056
3993.00,0.0056
3992.00,0.0056
3991.00,0.0056
3990.00,0.0056
3989.00,0.0056
3988.00,0.0056
3987.00,0.0056
3986.00,0.0056
3985.00,0.0056
3984.00,0.0056
3983.00,0.0056
3982.00,0.0056
3981.00,0.0056
3980.00,0.0056
3979.00,0.0056
3978.00,0.0056
3977.00,0.0056
3976.00,0.0056
3975.00,0.0056
3974.00,0.0056
3973.00,0.0056
3972.00,0.0056
3971.00,0.0056
3970.00,0.0056
3969.00,0.0056
3968.00,0.0056
3967.00,0.0056
3966.00,0.0056
3965.00,0.0056
3964.00,0.0056
3963.00,0.0056
3962.00,0.0056
3961.00,0.0056
3960.00,0.0056
3959.00,0.0056
3958.00,0.0056
3957.00,0.0056
3956.00,0.0056
3955.00,0.0056
3954.00,0.0056
3953.00,0.0056
3952.00,0.0056
3951.00,0.0055
3950.00,0.0055
3949.00,0.0055
3948.00,0.0055
3947.00,0.0055
3946.00,0.0055
3945.00,0.0056
3944.00,0.0056
3943.00,0.0056
3942.00,0.0056
3941.00,0.0056
3940.00,0.0055
3939.00,0.0055
3938.00,0.0055
3937.00,0.0055
3936.00,0.0055
3935.00,0.0055
3934.00,0.0055
3933.00,0.0055
3932.00,0.0055
3931.00,0.0055
3930.00,0.0055
3929.00,0.0055
3928.00,0.0055
3927.00,0.0055
3926.00,0.0055
3925.00,0.0055
3924.00,0.0055
3923.00,0.0055
3922.00,0.0055
3921.00,0.0055
3920.00,0.0055
3919.00,0.0055
3918.00,0.0055
3917.00,0.0055
3916.00,0.0055
3915.00,0.0055
3914.00,0.0055
3913.00,0.0055
3912.00,0.0055
3911.00,0.0055
3910.00,0.0055
3909.00,0.0056
3908.00,0.0056
3907.00,0.0056
3906.00,0.0055
3905.00,0.0055
3904.00,0.0055
3903.00,0.0055
3902.00,0.0055
3901.00,0.0054
3900.00,0.0054
3899.00,0.0054
3898.00,0.0055
3897.00,0.0055
3896.00,0.0055
3895.00,0.0055
3894.00,0.0055
3893.00,0.0055
3892.00,0.0055
3891.00,0.0056
3890.00,0.0056
3889.00,0.0056
3888.00,0.0055
3887.00,0.0055
3886.00,0.0055
3885.00,0.0054
3884.00,0.0054
3883.00,0.0053
3882.00,0.0054
3881.00,0.0054
3880.00,0.0054
3879.00,0.0054
3878.00,0.0054
3877.00,0.0054
3876.00,0.0054
3875.00,0.0054
3874.00,0.0054
3873.00,0.0054
3872.00,0.0054
3871.00,0.0054
3870.00,0.0054
3869.00,0.0054
3868.00,0.0054
3867.00,0.0054
3866.00,0.0054
3865.00,0.0054
3864.00,0.0054
3863.00,0.0054
3862.00,0.0054
3861.00,0.0054
3860.00,0.0054
3859.00,0.0055
3858.00,0.0055
3857.00,0.0055
3856.00,0.0054
3855.00,0.0054
3854.00,0.0054
3853.00,0.0053
3852.00,0.0053
3851.00,0.0053
3850.00,0.0053
3849.00,0.0054
3848.00,0.0054
3847.00,0.0055
3846.00,0.0055
3845.00,0.0055
3844.00,0.0055
3843.00,0.0055
3842.00,0.0055
3841.00,0.0054
3840.00,0.0054
3839.00,0.0054
3838.00,0.0054
3837.00,0.0053
3836.00,0.0053
3835.00,0.0053
3834.00,0.0053
3833.00,0.0053
3832.00,0.0054
3831.00,0.0054
3830.00,0.0054
3829.00,0.0054
3828.00,0.0054
3827.00,0.0054
3826.00,0.0054
3825.00,0.0054
3824.00,0.0054
3823.00,0.0054
3822.00,0.0054
3821.00,0.0054
3820.00,0.0054
3819.00,0.0054
3818.00,0.0054
3817.00,0.0054
3816.00,0.0054
3815.00,0.0055
3814.00,0.0055
3813.00,0.0055
3812.00,0.0055
3811.00,0.0055
3810.00,0.0056
3809.00,0.0056
3808.00,0.0056
3807.00,0.0055
3806.00,0.0055
3805.00,0.0054
3804.00,0.0054
3803.00,0.0054
3802.00,0.0054
3801.00,0.0054
3800.00,0.0054
3799.00,0.0054
3798.00,0.0054
3797.00,0.0054
3796.00,0.0054
3795.00,0.0055
3794.00,0.0055
3793.00,0.0055
3792.00,0.0055
3791.00,0.0055
3790.00,0.0055
3789.00,0.0055
3788.00,0.0055
3787.00,0.0055
3786.00,0.0055
3785.00,0.0055
3784.00,0.0055
3783.00,0.0055
3782.00,0.0055
3781.00,0.0055
3780.00,0.0055
3779.00,0.0056
3778.00,0.0055
3777.00,0.0055
3776.00,0.0055
3775.00,0.0055
3774.00,0.0055
3773.00,0.0055
3772.00,0.0055
3771.00,0.0055
3770.00,0.0055
3769.00,0.0055
3768.00,0.0055
3767.00,0.0055
3766.00,0.0055
3765.00,0.0055
3764.00,0.0055
3763.00,0.0055
3762.00,0.0054
3761.00,0.0054
3760.00,0.0055
3759.00,0.0055
3758.00,0.0055
3757.00,0.0055
3756.00,0.0055
3755.00,0.0055
3754.00,0.0054
3753.00,0.0054
3752.00,0.0054
3751.00,0.0054
3750.00,0.0053
3749.00,0.0053
3748.00,0.0052
3747.00,0.0052
3746.00,0.0052
3745.00,0.0052
3744.00,0.0052
3743.00,0.0052
3742.00,0.0052
3741.00,0.0052
3740.00,0.0052
3739.00,0.0053
3738.00,0.0053
3737.00,0.0053
3736.00,0.0053
3735.00,0.0053
3734.00,0.0052
3733.00,0.0052
3732.00,0.0052
3731.00,0.0053
3730.00,0.0053
3729.00,0.0053
3728.00,0.0054
3727.00,0.0054
3726.00,0.0054
3725.00,0.0054
3724.00,0.0054
3723.00,0.0054
3722.00,0.0054
3721.00,0.0054
3720.00,0.0054
3719.00,0.0054
3718.00,0.0054
3717.00,0.0055
3716.00,0.0055
3715.00,0.0054
3714.00,0.0054
3713.00,0.0054
3712.00,0.0053
3711.00,0.0053
3710.00,0.0054
3709.00,0.0054
3708.00,0.0054
3707.00,0.0054
3706.00,0.0054
3705.00,0.0055
3704.00,0.0055
3703.00,0.0055
3702.00,0.0055
3701.00,0.0055
3700.00,0.0054
3699.00,0.0054
3698.00,0.0055
3697.00,0.0055
3696.00,0.0055
3695.00,0.0056
3694.00,0.0056
3693.00,0.0056
3692.00,0.0056
3691.00,0.0056
3690.00,0.0056
3689.00,0.0056
3688.00,0.0057
3687.00,0.0057
3686.00,0.0058
3685.00,0.0059
3684.00,0.0060
3683.00,0.0061
3682.00,0.0061
3681.00,0.0062
3680.00,0.0062
3679.00,0.0062
3678.00,0.0062
3677.00,0.0062
3676.00,0.0062
3675.00,0.0061
3674.00,0.0061
3673.00,0.0061
3672.00,0.0061
3671.00,0.0062
3670.00,0.0063
3669.00,0.0063
3668.00,0.0064
3667.00,0.0064
3666.00,0.0065
3665.00,0.0065
3664.00,0.0066
3663.00,0.0067
3662.00,0.0067
3661.00,0.0067
3660.00,0.0068
3659.00,0.0068
3658.00,0.0068
3657.00,0.0068
3656.00,0.0068
3655.00,0.0068
3654.00,0.0068
3653.00,0.0068
3652.00,0.0068
3651.00,0.0069
3650.00,0.0069
3649.00,0.0069
3648.00,0.0070
3647.00,0.0071
3646.00,0.0072
3645.00,0.0073
3644.00,0.0074
3643.00,0.0075
3642.00,0.0076
3641.00,0.0076
3640.00,0.0077
3639.00,0.0078
3638.00,0.0079
3637.00,0.0079
3636.00,0.0080
3635.00,0.0081
3634.00,0.0082
3633.00,0.0082
3632.00,0.0082
3631.00,0.0083
3630.00,0.0083
3629.00,0.0084
3628.00,0.0085
3627.00,0.0086
3626.00,0.0087
3625.00,0.0088
3624.00,0.0089
3623.00,0.0090
3622.00,0.0090
3621.00,0.0091
3620.00,0.0092
3619.00,0.0093
3618.00,0.0093
3617.00,0.0094
3616.00,0.0095
3615.00,0.0096
3614.00,0.0097
3613.00,0.0098
3612.00,0.0099
3611.00,0.0100
3610.00,0.0100
3609.00,0.0102
3608.00,0.0103
3607.00,0.0104
3606.00,0.0105
3605.00,0.0106
3604.00,0.0106
3603.00,0.0107
3602.00,0.0108
3601.00,0.0109
3600.00,0.0110
3599.00,0.0111
3598.00,0.0112
3597.00,0.0113
3596.00,0.0115
3595.00,0.0116
3594.00,0.0117
3593.00,0.0119
3592.00,0.0120
3591.00,0.0121
3590.00,0.0122
3589.00,0.0123
3588.00,0.0124
3587.00,0.0126
3586.00,0.0127
3585.00,0.0128
3584.00,0.0129
3583.00,0.0130
3582.00,0.0131
3581.00,0.0132
3580.00,0.0133
3579.00,0.0134
3578.00,0.0136
3577.00,0.0137
3576.00,0.0139
3575.00,0.0140
3574.00,0.0141
3573.00,0.0142
3572.00,0.0144
3571.00,0.0145
3570.00,0.0146
3569.00,0.0147
3568.00,0.0149
3567.00,0.0150
3566.00,0.0151
3565.00,0.0152
3564.00,0.0154
3563.00,0.0155
3562.00,0.0157
3561.00,0.0158
3560.00,0.0159
3559.00,0.0160
3558.00,0.0161
3557.00,0.0163
3556.00,0.0164
3555.00,0.0165
3554.00,0.0167
3553.00,0.0168
3552.00,0.0169
3551.00,0.0171
3550.00,0.0172
3549.00,0.0173
3548.00,0.0174
3547.00,0.0176
3546.00,0.0177
3545.00,0.0179
3544.00,0.0180
3543.00,0.0181
3542.00,0.0182
3541.00,0.0183
3540.00,0.0184
3539.00,0.0185
3538.00,0.0186
3537.00,0.0187
3536.00,0.0188
3535.00,0.0190
3534.00,0.0191
3533.00,0.0192
3532.00,0.0193
3531.00,0.0194
3530.00,0.0195
3529.00,0.0196
3528.00,0.0197
3527.00,0.0198
3526.00,0.0199
3525.00,0.0200
3524.00,0.0201
3523.00,0.0202
3522.00,0.0203
3521.00,0.0204
3520.00,0.0205
3519.00,0.0206
3518.00,0.0207
3517.00,0.0208
3516.00,0.0209
3515.00,0.0210
3514.00,0.0211
3513.00,0.0212
3512.00,0.0213
3511.00,0.0214
3510.00,0.0215
3509.00,0.0216
3508.00,0.0217
3507.00,0.0218
3506.00,0.0219
3505.00,0.0220
3504.00,0.0221
3503.00,0.0222
3502.00,0.0223
3501.00,0.0223
3500.00,0.0224
3499.00,0.0225
3498.00,0.0226
3497.00,0.0227
3496.00,0.0228
3495.00,0.0229
3494.00,0.0230
3493.00,0.0230
3492.00,0.0231
3491.00,0.0232
3490.00,0.0233
3489.00,0.0233
3488.00,0.0234
3487.00,0.0235
3486.00,0.0236
3485.00,0.0237
3484.00,0.0237
3483.00,0.0238
3482.00,0.0239
3481.00,0.0240
3480.00,0.0241
3479.00,0.0241
3478.00,0.0242
3477.00,0.0243
3476.00,0.0244
3475.00,0.0244
3474.00,0.0245
3473.00,0.0246
3472.00,0.0246
3471.00,0.0247
3470.00,0.0248
3469.00,0.0249
3468.00,0.0250
3467.00,0.0250
3466.00,0.0251
3465.00,0.0251
3464.00,0.0252
3463.00,0.0253
3462.00,0.0253
3461.00,0.0254
3460.00,0.0255
3459.00,0.0255
3458.00,0.0256
3457.00,0.0256
3456.00,0.0257
3455.00,0.0257
3454.00,0.0258
3453.00,0.0259
3452.00,0.0260
3451.00,0.0261
3450.00,0.0261
3449.00,0.0262
3448.00,0.0262
3447.00,0.0263
3446.00,0.0263
3445.00,0.0264
3444.00,0.0264
3443.00,0.0265
3442.00,0.0266
3441.00,0.0266
3440.00,0.0267
3439.00,0.0268
3438.00,0.0268
3437.00,0.0269
3436.00,0.0269
3435.00,0.0269
3434.00,0.0270
3433.00,0.0270
3432.00,0.0271
3431.00,0.0271
3430.00,0.0272
3429.00,0.0273
3428.00,0.0273
3427.00,0.0273
3426.00,0.0273
3425.00,0.0274
3424.00,0.0274
3423.00,0.0275
3422.00,0.0275
3421.00,0.0276
3420.00,0.0276
3419.00,0.0277
3418.00,0.0277
3417.00,0.0277
3416.00,0.0278
3415.00,0.0278
3414.00,0.0279
3413.00,0.0280
3412.00,0.0280
3411.00,0.0281
3410.00,0.0281
3409.00,0.0281
3408.00,0.0282
3407.00,0.0282
3406.00,0.0283
3405.00,0.0283
3404.00,0.0284
3403.00,0.0284
3402.00,0.0284
3401.00,0.0285
3400.00,0.0285
3399.00,0.0285
3398.00,0.0286
3397.00,0.0286
3396.00,0.0286
3395.00,0.0286
3394.00,0.0287
3393.00,0.0287
3392.00,0.0287
3391.00,0.0288
3390.00,0.0289
3389.00,0.0289
3388.00,0.0290
3387.00,0.0290
3386.00,0.0291
3385.00,0.0291
3384.00,0.0292
3383.00,0.0292
3382.00,0.0292
3381.00,0.0293
3380.00,0.0293
3379.00,0.0293
3378.00,0.0293
3377.00,0.0294
3376.00,0.0294
3375.00,0.0295
3374.00,0.0295
3373.00,0.0295
3372.00,0.0294
3371.00,0.0294
3370.00,0.0294
3369.00,0.0294
3368.00,0.0294
3367.00,0.0295
3366.00,0.0296
3365.00,0.0297
3364.00,0.0297
3363.00,0.0298
3362.00,0.0298
3361.00,0.0298
3360.00,0.0299
3359.00,0.0300
3358.00,0.0300
3357.00,0.0301
3356.00,0.0301
3355.00,0.0301
3354.00,0.0300
3353.00,0.0300
3352.00,0.0299
3351.00,0.0299
3350.00,0.0300
3349.00,0.0301
3348.00,0.0302
3347.00,0.0302
3346.00,0.0302
3345.00,0.0302
3344.00,0.0302
3343.00,0.0302
3342.00,0.0302
3341.00,0.0301
3340.00,0.0301
3339.00,0.0301
3338.00,0.0302
3337.00,0.0303
3336.00,0.0304
3335.00,0.0305
3334.00,0.0306
3333.00,0.0307
3332.00,0.0307
3331.00,0.0307
3330.00,0.0307
3329.00,0.0307
3328.00,0.0307
3327.00,0.0306
3326.00,0.0306
3325.00,0.0306
3324.00,0.0307
3323.00,0.0308
3322.00,0.0309
3321.00,0.0310
3320.00,0.0310
3319.00,0.0311
3318.00,0.0311
3317.00,0.0311
3316.00,0.0311
3315.00,0.0311
3314.00,0.0311
3313.00,0.0311
3312.00,0.0310
3311.00,0.0309
3310.00,0.0308
3309.00,0.0307
3308.00,0.0306
3307.00,0.0306
3306.00,0.0307
3305.00,0.0308
3304.00,0.0310
3303.00,0.0312
3302.00,0.0314
3301.00,0.0314
3300.00,0.0315
3299.00,0.0314
3298.00,0.0314
3297.00,0.0313
3296.00,0.0312
3295.00,0.0312
3294.00,0.0312
3293.00,0.0312
3292.00,0.0313
3291.00,0.0314
3290.00,0.0316
3289.00,0.0317
3288.00,0.0317
3287.00,0.0318
3286.00,0.0318
3285.00,0.0318
3284.00,0.0318
3283.00,0.0318
3282.00,0.0318
3281.00,0.0318
3280.00,0.0318
3279.00,0.0317
3278.00,0.0316
3277.00,0.0316
3276.00,0.0315
3275.00,0.0315
3274.00,0.0314
3273.00,0.0313
3272.00,0.0313
3271.00,0.0313
3270.00,0.0313
3269.00,0.0314
3268.00,0.0315
3267.00,0.0316
3266.00,0.0316
3265.00,0.0316
3264.00,0.0316
3263.00,0.0316
3262.00,0.0316
3261.00,0.0315
3260.00,0.0315
3259.00,0.0314
3258.00,0.0314
3257.00,0.0313
3256.00,0.0313
3255.00,0.0313
3254.00,0.0313
3253.00,0.0313
3252.00,0.0313
3251.00,0.0313
3250.00,0.0312
3249.00,0.0311
3248.00,0.0310
3247.00,0.0310
3246.00,0.0310
3245.00,0.0310
3244.00,0.0310
3243.00,0.0310
3242.00,0.0310
3241.00,0.0310
3240.00,0.0310
3239.00,0.0309
3238.00,0.0309
3237.00,0.0308
3236.00,0.0307
3235.00,0.0306
3234.00,0.0306
3233.00,0.0305
3232.00,0.0305
3231.00,0.0305
3230.00,0.0305
3229.00,0.0305
3228.00,0.0304
3227.00,0.0304
3226.00,0.0304
3225.00,0.0304
3224.00,0.0303
3223.00,0.0302
3222.00,0.0302
3221.00,0.0301
3220.00,0.0300
3219.00,0.0300
3218.00,0.0299
3217.00,0.0299
3216.00,0.0299
3215.00,0.0298
3214.00,0.0298
3213.00,0.0297
3212.00,0.0297
3211.00,0.0297
3210.00,0.0296
3209.00,0.0296
3208.00,0.0295
3207.00,0.0295
3206.00,0.0294
3205.00,0.0294
3204.00,0.0294
3203.00,0.0293
3202.00,0.0293
3201.00,0.0293
3200.00,0.0292
3199.00,0.0292
3198.00,0.0292
3197.00,0.0291
3196.00,0.0291
3195.00,0.0290
3194.00,0.0289
3193.00,0.0289
3192.00,0.0288
3191.00,0.0287
3190.00,0.0286
3189.00,0.0286
3188.00,0.0285
3187.00,0.0284
3186.00,0.0284
3185.00,0.0283
3184.00,0.0282
3183.00,0.0281
3182.00,0.0280
3181.00,0.0280
3180.00,0.0279
3179.00,0.0278
3178.00,0.0278
3177.00,0.0277
3176.00,0.0276
3175.00,0.0276
3174.00,0.0275
3173.00,0.0274
3172.00,0.0273
3171.00,0.0272
3170.00,0.0271
3169.00,0.0270
3168.00,0.0269
3167.00,0.0268
3166.00,0.0267
3165.00,0.0266
3164.00,0.0266
3163.00,0.0265
3162.00,0.0264
3161.00,0.0263
3160.00,0.0262
3159.00,0.0261
3158.00,0.0260
3157.00,0.0259
3156.00,0.0258
3155.00,0.0257
3154.00,0.0256
3153.00,0.0255
3152.00,0.0254
3151.00,0.0254
3150.00,0.0253
3149.00,0.0253
3148.00,0.0252
3147.00,0.0251
3146.00,0.0250
3145.00,0.0249
3144.00,0.0248
3143.00,0.0247
3142.00,0.0246
3141.00,0.0245
3140.00,0.0245
3139.00,0.0244
3138.00,0.0243
3137.00,0.0242
3136.00,0.0242
3135.00,0.0241
3134.00,0.0241
3133.00,0.0240
3132.00,0.0240
3131.00,0.0239
3130.00,0.0239
3129.00,0.0238
3128.00,0.0237
3127.00,0.0236
3126.00,0.0236
3125.00,0.0235
3124.00,0.0234
3123.00,0.0233
3122.00,0.0233
3121.00,0.0232
3120.00,0.0231
3119.00,0.0230
3118.00,0.0230
3117.00,0.0229
3116.00,0.0228
3115.00,0.0227
3114.00,0.0226
3113.00,0.0225
3112.00,0.0224
3111.00,0.0223
3110.00,0.0222
3109.00,0.0221
3108.00,0.0221
3107.00,0.0220
3106.00,0.0219
3105.00,0.0218
3104.00,0.0217
3103.00,0.0216
3102.00,0.0215
3101.00,0.0214
3100.00,0.0213
3099.00,0.0212
3098.00,0.0211
3097.00,0.0210
3096.00,0.0209
3095.00,0.0208
3094.00,0.0207
3093.00,0.0206
3092.00,0.0205
3091.00,0.0204
3090.00,0.0203
3089.00,0.0203
3088.00,0.0202
3087.00,0.0201
3086.00,0.0200
3085.00,0.0199
3084.00,0.0199
3083.00,0.0198
3082.00,0.0197
3081.00,0.0196
3080.00,0.0195
3079.00,0.0194
3078.00,0.0194
3077.00,0.0193
3076.00,0.0192
3075.00,0.0192
3074.00,0.0191
3073.00,0.0190
3072.00,0.0189
3071.00,0.0188
3070.00,0.0188
3069.00,0.0187
3068.00,0.0187
3067.00,0.0186
3066.00,0.0186
3065.00,0.0185
3064.00,0.0185
3063.00,0.0184
3062.00,0.0184
3061.00,0.0183
3060.00,0.0183
3059.00,0.0182
3058.00,0.0181
3057.00,0.0181
3056.00,0.0180
3055.00,0.0180
3054.00,0.0179
3053.00,0.0179
3052.00,0.0178
3051.00,0.0178
3050.00,0.0177
3049.00,0.0177
3048.00,0.0176
3047.00,0.0176
3046.00,0.0175
3045.00,0.0175
3044.00,0.0174
3043.00,0.0174
3042.00,0.0173
3041.00,0.0172
3040.00,0.0172
3039.00,0.0172
3038.00,0.0171
3037.00,0.0171
3036.00,0.0171
3035.00,0.0170
3034.00,0.0170
3033.00,0.0170
3032.00,0.0170
3031.00,0.0170
3030.00,0.0170
3029.00,0.0170
3028.00,0.0170
3027.00,0.0170
3026.00,0.0169
3025.00,0.0169
3024.00,0.0169
3023.00,0.0169
3022.00,0.0169
3021.00,0.0169
3020.00,0.0169
3019.00,0.0169
3018.00,0.0169
3017.00,0.0169
3016.00,0.0170
3015.00,0.0170
3014.00,0.0171
3013.00,0.0171
3012.00,0.0172
3011.00,0.0173
3010.00,0.0175
3009.00,0.0176
3008.00,0.0178
3007.00,0.0180
3006.00,0.0181
3005.00,0.0184
3004.00,0.0186
3003.00,0.0189
3002.00,0.0192
3001.00,0.0195
3000.00,0.0199
2999.00,0.0203
2998.00,0.0206
2997.00,0.0211
2996.00,0.0216
2995.00,0.0221
2994.00,0.0226
2993.00,0.0231
2992.00,0.0236
2991.00,0.0241
2990.00,0.0246
2989.00,0.0252
2988.00,0.0257
2987.00,0.0262
2986.00,0.0266
2985.00,0.0270
2984.00,0.0274
2983.00,0.0278
2982.00,0.0281
2981.00,0.0285
2980.00,0.0289
2979.00,0.0294
2978.00,0.0298
2977.00,0.0303
2976.00,0.0308
2975.00,0.0312
2974.00,0.0317
2973.00,0.0322
2972.00,0.0327
2971.00,0.0333
2970.00,0.0340
2969.00,0.0347
2968.00,0.0354
2967.00,0.0360
2966.00,0.0367
2965.00,0.0374
2964.00,0.0381
2963.00,0.0387
2962.00,0.0393
2961.00,0.0398
2960.00,0.0402
2959.00,0.0406
2958.00,0.0409
2957.00,0.0411
2956.00,0.0413
2955.00,0.0414
2954.00,0.0414
2953.00,0.0414
2952.00,0.0413
2951.00,0.0411
2950.00,0.0409
2949.00,0.0407
2948.00,0.0405
2947.00,0.0404
2946.00,0.0403
2945.00,0.0402
2944.00,0.0402
2943.00,0.0403
2942.00,0.0405
2941.00,0.0407
2940.00,0.0410
2939.00,0.0414
2938.00,0.0419
2937.00,0.0424
2936.00,0.0430
2935.00,0.0436
2934.00,0.0442
2933.00,0.0448
2932.00,0.0453
2931.00,0.0459
2930.00,0.0464
2929.00,0.0469
2928.00,0.0474
2927.00,0.0478
2926.00,0.0481
2925.00,0.0483
2924.00,0.0484
2923.00,0.0485
2922.00,0.0485
2921.00,0.0484
2920.00,0.0482
2919.00,0.0480
2918.00,0.0477
2917.00,0.0473
2916.00,0.0468
2915.00,0.0463
2914.00,0.0458
2913.00,0.0452
2912.00,0.0446
2911.00,0.0440
2910.00,0.0434
2909.00,0.0428
2908.00,0.0422
2907.00,0.0416
2906.00,0.0410
2905.00,0.0405
2904.00,0.0400
2903.00,0.0396
2902.00,0.0392
2901.00,0.0389
2900.00,0.0386
2899.00,0.0383
2898.00,0.0381
2897.00,0.0379
2896.00,0.0377
2895.00,0.0375
2894.00,0.0374
2893.00,0.0372
2892.00,0.0370
2891.00,0.0368
2890.00,0.0366
2889.00,0.0364
2888.00,0.0363
2887.00,0.0361
2886.00,0.0359
2885.00,0.0357
2884.00,0.0355
2883.00,0.0354
2882.00,0.0353
2881.00,0.0353
2880.00,0.0353
2879.00,0.0353
2878.00,0.0352
2877.00,0.0352
2876.00,0.0352
2875.00,0.0352
2874.00,0.0353
2873.00,0.0353
2872.00,0.0354
2871.00,0.0354
2870.00,0.0354
2869.00,0.0353
2868.00,0.0353
2867.00,0.0352
2866.00,0.0351
2865.00,0.0351
2864.00,0.0352
2863.00,0.0353
2862.00,0.0355
2861.00,0.0357
2860.00,0.0359
2859.00,0.0360
2858.00,0.0361
2857.00,0.0361
2856.00,0.0360
2855.00,0.0357
2854.00,0.0353
2853.00,0.0348
2852.00,0.0342
2851.00,0.0335
2850.00,0.0328
2849.00,0.0320
2848.00,0.0312
2847.00,0.0304
2846.00,0.0296
2845.00,0.0289
2844.00,0.0281
2843.00,0.0274
2842.00,0.0266
2841.00,0.0259
2840.00,0.0252
2839.00,0.0246
2838.00,0.0241
2837.00,0.0236
2836.00,0.0232
2835.00,0.0227
2834.00,0.0223
2833.00,0.0219
2832.00,0.0216
2831.00,0.0212
2830.00,0.0209
2829.00,0.0205
2828.00,0.0202
2827.00,0.0198
2826.00,0.0194
2825.00,0.0191
2824.00,0.0187
2823.00,0.0184
2822.00,0.0180
2821.00,0.0177
2820.00,0.0174
2819.00,0.0171
2818.00,0.0169
2817.00,0.0166
2816.00,0.0164
2815.00,0.0162
2814.00,0.0160
2813.00,0.0158
2812.00,0.0156
2811.00,0.0155
2810.00,0.0153
2809.00,0.0152
2808.00,0.0151
2807.00,0.0150
2806.00,0.0149
2805.00,0.0147
2804.00,0.0146
2803.00,0.0145
2802.00,0.0144
2801.00,0.0143
2800.00,0.0142
2799.00,0.0141
2798.00,0.0140
2797.00,0.0140
2796.00,0.0139
2795.00,0.0138
2794.00,0.0137
2793.00,0.0137
2792.00,0.0136
2791.00,0.0135
2790.00,0.0135
2789.00,0.0134
2788.00,0.0134
2787.00,0.0134
2786.00,0.0133
2785.00,0.0133
2784.00,0.0132
2783.00,0.0132
2782.00,0.0131
2781.00,0.0131
2780.00,0.0131
2779.00,0.0131
2778.00,0.0130
2777.00,0.0130
2776.00,0.0129
2775.00,0.0128
2774.00,0.0128
2773.00,0.0127
2772.00,0.0127
2771.00,0.0127
2770.00,0.0127
2769.00,0.0126
2768.00,0.0126
2767.00,0.0126
2766.00,0.0126
2765.00,0.0125
2764.00,0.0125
2763.00,0.0125
2762.00,0.0125
2761.00,0.0125
2760.00,0.0124
2759.00,0.0124
2758.00,0.0124
2757.00,0.0124
2756.00,0.0124
2755.00,0.0124
2754.00,0.0124
2753.00,0.0124
2752.00,0.0124
2751.00,0.0124
2750.00,0.0124
2749.00,0.0125
2748.00,0.0125
2747.00,0.0125
2746.00,0.0125
2745.00,0.0125
2744.00,0.0125
2743.00,0.0125
2742.00,0.0125
2741.00,0.0126
2740.00,0.0126
2739.00,0.0125
2738.00,0.0125
2737.00,0.0125
2736.00,0.0125
2735.00,0.0125
2734.00,0.0126
2733.00,0.0126
2732.00,0.0126
2731.00,0.0126
2730.00,0.0126
2729.00,0.0126
2728.00,0.0126
2727.00,0.0126
2726.00,0.0126
2725.00,0.0126
2724.00,0.0126
2723.00,0.0126
2722.00,0.0126
2721.00,0.0126
2720.00,0.0126
2719.00,0.0125
2718.00,0.0125
2717.00,0.0125
2716.00,0.0125
2715.00,0.0125
2714.00,0.0124
2713.00,0.0124
2712.00,0.0124
2711.00,0.0124
2710.00,0.0123
2709.00,0.0123
2708.00,0.0123
2707.00,0.0123
2706.00,0.0123
2705.00,0.0123
2704.00,0.0123
2703.00,0.0123
2702.00,0.0122
2701.00,0.0122
2700.00,0.0122
2699.00,0.0122
2698.00,0.0122
2697.00,0.0121
2696.00,0.0121
2695.00,0.0121
2694.00,0.0121
2693.00,0.0121
2692.00,0.0120
2691.00,0.0120
2690.00,0.0120
2689.00,0.0120
2688.00,0.0120
2687.00,0.0119
2686.00,0.0119
2685.00,0.0119
2684.00,0.0119
2683.00,0.0119
2682.00,0.0118
2681.00,0.0118
2680.00,0.0118
2679.00,0.0117
2678.00,0.0117
2677.00,0.0117
2676.00,0.0117
2675.00,0.0117
2674.00,0.0117
2673.00,0.0117
2672.00,0.0116
2671.00,0.0116
2670.00,0.0116
2669.00,0.0116
2668.00,0.0116
2667.00,0.0116
2666.00,0.0116
2665.00,0.0116
2664.00,0.0117
2663.00,0.0117
2662.00,0.0117
2661.00,0.0117
2660.00,0.0117
2659.00,0.0117
2658.00,0.0117
2657.00,0.0117
2656.00,0.0116
2655.00,0.0116
2654.00,0.0116
2653.00,0.0116
2652.00,0.0116
2651.00,0.0116
2650.00,0.0115
2649.00,0.0115
2648.00,0.0115
2647.00,0.0114
2646.00,0.0114
2645.00,0.0114
2644.00,0.0113
2643.00,0.0113
2642.00,0.0113
2641.00,0.0113
2640.00,0.0112
2639.00,0.0112
2638.00,0.0112
2637.00,0.0112
2636.00,0.0111
2635.00,0.0111
2634.00,0.0111
2633.00,0.0110
2632.00,0.0110
2631.00,0.0110
2630.00,0.0109
2629.00,0.0109
2628.00,0.0109
2627.00,0.0108
2626.00,0.0108
2625.00,0.0108
2624.00,0.0107
2623.00,0.0107
2622.00,0.0107
2621.00,0.0107
2620.00,0.0107
2619.00,0.0107
2618.00,0.0107
2617.00,0.0106
2616.00,0.0106
2615.00,0.0105
2614.00,0.0104
2613.00,0.0104
2612.00,0.0104
2611.00,0.0104
2610.00,0.0104
2609.00,0.0104
2608.00,0.0103
2607.00,0.0103
2606.00,0.0103
2605.00,0.0102
2604.00,0.0102
2603.00,0.0103
2602.00,0.0103
2601.00,0.0103
2600.00,0.0103
2599.00,0.0103
2598.00,0.0103
2597.00,0.0102
2596.00,0.0102
2595.00,0.0102
2594.00,0.0102
2593.00,0.0102
2592.00,0.0102
2591.00,0.0102
2590.00,0.0101
2589.00,0.0101
2588.00,0.0101
2587.00,0.0102
2586.00,0.0102
2585.00,0.0102
2584.00,0.0102
2583.00,0.0102
2582.00,0.0102
2581.00,0.0102
2580.00,0.0102
2579.00,0.0101
2578.00,0.0101
2577.00,0.0101
2576.00,0.0101
2575.00,0.0101
2574.00,0.0100
2573.00,0.0100
2572.00,0.0100
2571.00,0.0100
2570.00,0.0100
2569.00,0.0100
2568.00,0.0099
2567.00,0.0099
2566.00,0.0099
2565.00,0.0098
2564.00,0.0098
2563.00,0.0098
2562.00,0.0098
2561.00,0.0098
2560.00,0.0098
2559.00,0.0097
2558.00,0.0097
2557.00,0.0097
2556.00,0.0097
2555.00,0.0096
2554.00,0.0096
2553.00,0.0096
2552.00,0.0096
2551.00,0.0096
2550.00,0.0096
2549.00,0.0096
2548.00,0.0096
2547.00,0.0095
2546.00,0.0095
2545.00,0.0094
2544.00,0.0094
2543.00,0.0095
2542.00,0.0095
2541.00,0.0095
2540.00,0.0095
2539.00,0.0094
2538.00,0.0094
2537.00,0.0094
2536.00,0.0094
2535.00,0.0094
2534.00,0.0094
2533.00,0.0094
2532.00,0.0094
2531.00,0.0094
2530.00,0.0094
2529.00,0.0093
2528.00,0.0093
2527.00,0.0093
2526.00,0.0093
2525.00,0.0092
2524.00,0.0092
2523.00,0.0092
2522.00,0.0092
2521.00,0.0091
2520.00,0.0092
2519.00,0.0092
2518.00,0.0092
2517.00,0.0091
2516.00,0.0091
2515.00,0.0091
2514.00,0.0091
2513.00,0.0091
2512.00,0.0090
2511.00,0.0090
2510.00,0.0090
2509.00,0.0090
2508.00,0.0090
2507.00,0.0090
2506.00,0.0090
2505.00,0.0089
2504.00,0.0089
2503.00,0.0089
2502.00,0.0089
2501.00,0.0089
2500.00,0.0089
2499.00,0.0090
2498.00,0.0090
2497.00,0.0090
2496.00,0.0089
2495.00,0.0089
2494.00,0.0088
2493.00,0.0088
2492.00,0.0088
2491.00,0.0088
2490.00,0.0088
2489.00,0.0088
2488.00,0.0088
2487.00,0.0087
2486.00,0.0087
2485.00,0.0087
2484.00,0.0087
2483.00,0.0087
2482.00,0.0087
2481.00,0.0087
2480.00,0.0087
2479.00,0.0087
2478.00,0.0087
2477.00,0.0087
2476.00,0.0087
2475.00,0.0087
2474.00,0.0086
2473.00,0.0086
2472.00,0.0086
2471.00,0.0086
2470.00,0.0086
2469.00,0.0086
2468.00,0.0086
2467.00,0.0086
2466.00,0.0086
2465.00,0.0086
2464.00,0.0086
2463.00,0.0086
2462.00,0.0086
2461.00,0.0087
2460.00,0.0087
2459.00,0.0087
2458.00,0.0086
2457.00,0.0086
2456.00,0.0086
2455.00,0.0086
2454.00,0.0087
2453.00,0.0087
2452.00,0.0087
2451.00,0.0086
2450.00,0.0086
2449.00,0.0086
2448.00,0.0086
2447.00,0.0086
2446.00,0.0085
2445.00,0.0085
2444.00,0.0085
2443.00,0.0085
2442.00,0.0085
2441.00,0.0084
2440.00,0.0084
2439.00,0.0084
2438.00,0.0084
2437.00,0.0083
2436.00,0.0083
2435.00,0.0083
2434.00,0.0083
2433.00,0.0084
2432.00,0.0085
2431.00,0.0085
2430.00,0.0085
2429.00,0.0084
2428.00,0.0084
2427.00,0.0084
2426.00,0.0084
2425.00,0.0084
2424.00,0.0084
2423.00,0.0084
2422.00,0.0083
2421.00,0.0083
2420.00,0.0083
2419.00,0.0084
2418.00,0.0084
2417.00,0.0084
2416.00,0.0084
2415.00,0.0084
2414.00,0.0083
2413.00,0.0083
2412.00,0.0084
2411.00,0.0084
2410.00,0.0084
2409.00,0.0084
2408.00,0.0083
2407.00,0.0083
2406.00,0.0083
2405.00,0.0083
2404.00,0.0084
2403.00,0.0084
2402.00,0.0083
2401.00,0.0083
2400.00,0.0083
2399.00,0.0083
2398.00,0.0083
2397.00,0.0084
2396.00,0.0084
2395.00,0.0084
2394.00,0.0083
2393.00,0.0083
2392.00,0.0083
2391.00,0.0083
2390.00,0.0083
2389.00,0.0083
2388.00,0.0082
2387.00,0.0082
2386.00,0.0081
2385.00,0.0080
2384.00,0.0079
2383.00,0.0078
2382.00,0.0078
2381.00,0.0077
2380.00,0.0077
2379.00,0.0077
2378.00,0.0077
2377.00,0.0077
2376.00,0.0077
2375.00,0.0077
2374.00,0.0077
2373.00,0.0077
2372.00,0.0077
2371.00,0.0077
2370.00,0.0076
2369.00,0.0076
2368.00,0.0075
2367.00,0.0075
2366.00,0.0075
2365.00,0.0076
2364.00,0.0076
2363.00,0.0077
2362.00,0.0077
2361.00,0.0077
2360.00,0.0077
2359.00,0.0077
2358.00,0.0077
2357.00,0.0077
2356.00,0.0078
2355.00,0.0078
2354.00,0.0079
2353.00,0.0079
2352.00,0.0079
2351.00,0.0079
2350.00,0.0078
2349.00,0.0079
2348.00,0.0079
2347.00,0.0079
2346.00,0.0079
2345.00,0.0079
2344.00,0.0079
2343.00,0.0080
2342.00,0.0080
2341.00,0.0080
2340.00,0.0081
2339.00,0.0082
2338.00,0.0082
2337.00,0.0082
2336.00,0.0083
2335.00,0.0083
2334.00,0.0082
2333.00,0.0082
2332.00,0.0082
2331.00,0.0082
2330.00,0.0083
2329.00,0.0085
2328.00,0.0087
2327.00,0.0090
2326.00,0.0093
2325.00,0.0093
2324.00,0.0093
2323.00,0.0091
2322.00,0.0090
2321.00,0.0088
2320.00,0.0088
2319.00,0.0087
2318.00,0.0087
2317.00,0.0086
2316.00,0.0086
2315.00,0.0085
2314.00,0.0085
2313.00,0.0084
2312.00,0.0084
2311.00,0.0083
2310.00,0.0083
2309.00,0.0083
2308.00,0.0083
2307.00,0.0083
2306.00,0.0083
2305.00,0.0083
2304.00,0.0084
2303.00,0.0084
2302.00,0.0084
2301.00,0.0084
2300.00,0.0085
2299.00,0.0085
2298.00,0.0086
2297.00,0.0087
2296.00,0.0088
2295.00,0.0088
2294.00,0.0088
2293.00,0.0089
2292.00,0.0090
2291.00,0.0091
2290.00,0.0092
2289.00,0.0092
2288.00,0.0092
2287.00,0.0092
2286.00,0.0092
2285.00,0.0091
2284.00,0.0090
2283.00,0.0090
2282.00,0.0089
2281.00,0.0089
2280.00,0.0088
2279.00,0.0088
2278.00,0.0087
2277.00,0.0087
2276.00,0.0087
2275.00,0.0087
2274.00,0.0087
2273.00,0.0087
2272.00,0.0087
2271.00,0.0087
2270.00,0.0085
2269.00,0.0084
2268.00,0.0084
2267.00,0.0083
2266.00,0.0083
2265.00,0.0082
2264.00,0.0083
2263.00,0.0083
2262.00,0.0084
2261.00,0.0085
2260.00,0.0085
2259.00,0.0086
2258.00,0.0085
2257.00,0.0084
2256.00,0.0084
2255.00,0.0083
2254.00,0.0083
2253.00,0.0083
2252.00,0.0084
2251.00,0.0084
2250.00,0.0084
2249.00,0.0085
2248.00,0.0085
2247.00,0.0085
2246.00,0.0085
2245.00,0.0086
2244.00,0.0086
2243.00,0.0086
2242.00,0.0085
2241.00,0.0085
2240.00,0.0085
2239.00,0.0085
2238.00,0.0085
2237.00,0.0085
2236.00,0.0084
2235.00,0.0084
2234.00,0.0084
2233.00,0.0084
2232.00,0.0084
2231.00,0.0084
2230.00,0.0083
2229.00,0.0083
2228.00,0.0083
2227.00,0.0083
2226.00,0.0084
2225.00,0.0084
2224.00,0.0085
2223.00,0.0085
2222.00,0.0084
2221.00,0.0084
2220.00,0.0084
2219.00,0.0084
2218.00,0.0084
2217.00,0.0084
2216.00,0.0084
2215.00,0.0085
2214.00,0.0085
2213.00,0.0085
2212.00,0.0085
2211.00,0.0085
2210.00,0.0084
2209.00,0.0084
2208.00,0.0084
2207.00,0.0084
2206.00,0.0084
2205.00,0.0084
2204.00,0.0085
2203.00,0.0086
2202.00,0.0086
2201.00,0.0085
2200.00,0.0085
2199.00,0.0085
2198.00,0.0084
2197.00,0.0085
2196.00,0.0085
2195.00,0.0086
2194.00,0.0086
2193.00,0.0086
2192.00,0.0087
2191.00,0.0087
2190.00,0.0087
2189.00,0.0087
2188.00,0.0087
2187.00,0.0087
2186.00,0.0086
2185.00,0.0085
2184.00,0.0083
2183.00,0.0081
2182.00,0.0079
2181.00,0.0079
2180.00,0.0081
2179.00,0.0082
2178.00,0.0081
2177.00,0.0081
2176.00,0.0080
2175.00,0.0080
2174.00,0.0080
2173.00,0.0081
2172.00,0.0084
2171.00,0.0087
2170.00,0.0089
2169.00,0.0090
2168.00,0.0090
2167.00,0.0088
2166.00,0.0087
2165.00,0.0087
2164.00,0.0089
2163.00,0.0089
2162.00,0.0086
2161.00,0.0078
2160.00,0.0068
2159.00,0.0059
2158.00,0.0053
2157.00,0.0053
2156.00,0.0056
2155.00,0.0060
2154.00,0.0064
2153.00,0.0068
2152.00,0.0071
2151.00,0.0071
2150.00,0.0070
2149.00,0.0068
2148.00,0.0067
2147.00,0.0067
2146.00,0.0066
2145.00,0.0067
2144.00,0.0068
2143.00,0.0069
2142.00,0.0069
2141.00,0.0069
2140.00,0.0070
2139.00,0.0070
2138.00,0.0068
2137.00,0.0067
2136.00,0.0065
2135.00,0.0064
2134.00,0.0064
2133.00,0.0065
2132.00,0.0067
2131.00,0.0068
2130.00,0.0069
2129.00,0.0070
2128.00,0.0072
2127.00,0.0073
2126.00,0.0075
2125.00,0.0076
2124.00,0.0077
2123.00,0.0078
2122.00,0.0078
2121.00,0.0079
2120.00,0.0079
2119.00,0.0080
2118.00,0.0081
2117.00,0.0082
2116.00,0.0083
2115.00,0.0084
2114.00,0.0083
2113.00,0.0083
2112.00,0.0083
2111.00,0.0082
2110.00,0.0082
2109.00,0.0082
2108.00,0.0081
2107.00,0.0081
2106.00,0.0080
2105.00,0.0080
2104.00,0.0081
2103.00,0.0081
2102.00,0.0081
2101.00,0.0081
2100.00,0.0081
2099.00,0.0081
2098.00,0.0079
2097.00,0.0078
2096.00,0.0076
2095.00,0.0076
2094.00,0.0076
2093.00,0.0076
2092.00,0.0077
2091.00,0.0078
2090.00,0.0077
2089.00,0.0077
2088.00,0.0077
2087.00,0.0078
2086.00,0.0078
2085.00,0.0078
2084.00,0.0079
2083.00,0.0080
2082.00,0.0080
2081.00,0.0080
2080.00,0.0081
2079.00,0.0081
2078.00,0.0081
2077.00,0.0081
2076.00,0.0080
2075.00,0.0079
2074.00,0.0079
2073.00,0.0079
2072.00,0.0078
2071.00,0.0078
2070.00,0.0077
2069.00,0.0077
2068.00,0.0077
2067.00,0.0078
2066.00,0.0077
2065.00,0.0077
2064.00,0.0077
2063.00,0.0076
2062.00,0.0075
2061.00,0.0076
2060.00,0.0076
2059.00,0.0077
2058.00,0.0077
2057.00,0.0076
2056.00,0.0076
2055.00,0.0076
2054.00,0.0078
2053.00,0.0081
2052.00,0.0084
2051.00,0.0084
2050.00,0.0081
2049.00,0.0077
2048.00,0.0076
2047.00,0.0076
2046.00,0.0076
2045.00,0.0076
2044.00,0.0076
2043.00,0.0076
2042.00,0.0074
2041.00,0.0073
2040.00,0.0073
2039.00,0.0073
2038.00,0.0072
2037.00,0.0071
2036.00,0.0070
2035.00,0.0069
2034.00,0.0068
2033.00,0.0068
2032.00,0.0069
2031.00,0.0069
2030.00,0.0068
2029.00,0.0067
2028.00,0.0067
2027.00,0.0067
2026.00,0.0066
2025.00,0.0065
2024.00,0.0064
2023.00,0.0063
2022.00,0.0062
2021.00,0.0064
2020.00,0.0067
2019.00,0.0069
2018.00,0.0069
2017.00,0.0069
2016.00,0.0069
2015.00,0.0068
2014.00,0.0067
2013.00,0.0066
2012.00,0.0067
2011.00,0.0069
2010.00,0.0070
2009.00,0.0069
2008.00,0.0067
2007.00,0.0064
2006.00,0.0061
2005.00,0.0060
2004.00,0.0062
2003.00,0.0063
2002.00,0.0064
2001.00,0.0065
2000.00,0.0067
1999.00,0.0068
1998.00,0.0069
1997.00,0.0070
1996.00,0.0071
1995.00,0.0072
1994.00,0.0070
1993.00,0.0069
1992.00,0.0069
1991.00,0.0069
1990.00,0.0069
1989.00,0.0071
1988.00,0.0073
1987.00,0.0075
1986.00,0.0076
1985.00,0.0077
1984.00,0.0079
1983.00,0.0081
1982.00,0.0082
1981.00,0.0082
1980.00,0.0080
1979.00,0.0076
1978.00,0.0069
1977.00,0.0065
1976.00,0.0062
1975.00,0.0061
1974.00,0.0060
1973.00,0.0060
1972.00,0.0061
1971.00,0.0062
1970.00,0.0062
1969.00,0.0062
1968.00,0.0062
1967.00,0.0062
1966.00,0.0062
1965.00,0.0062
1964.00,0.0063
1963.00,0.0062
1962.00,0.0061
1961.00,0.0060
1960.00,0.0061
1959.00,0.0062
1958.00,0.0063
1957.00,0.0064
1956.00,0.0066
1955.00,0.0066
1954.00,0.0064
1953.00,0.0063
1952.00,0.0063
1951.00,0.0063
1950.00,0.0063
1949.00,0.0064
1948.00,0.0066
1947.00,0.0066
1946.00,0.0066
1945.00,0.0066
1944.00,0.0066
1943.00,0.0067
1942.00,0.0067
1941.00,0.0067
1940.00,0.0068
1939.00,0.0069
1938.00,0.0068
1937.00,0.0068
1936.00,0.0068
1935.00,0.0068
1934.00,0.0068
1933.00,0.0068
1932.00,0.0068
1931.00,0.0068
1930.00,0.0068
1929.00,0.0068
1928.00,0.0069
1927.00,0.0069
1926.00,0.0069
1925.00,0.0069
1924.00,0.0069
1923.00,0.0070
1922.00,0.0070
1921.00,0.0070
1920.00,0.0070
1919.00,0.0070
1918.00,0.0070
1917.00,0.0070
1916.00,0.0070
1915.00,0.0071
1914.00,0.0071
1913.00,0.0071
1912.00,0.0071
1911.00,0.0072
1910.00,0.0072
1909.00,0.0072
1908.00,0.0071
1907.00,0.0071
1906.00,0.0071
1905.00,0.0070
1904.00,0.0071
1903.00,0.0070
1902.00,0.0070
1901.00,0.0069
1900.00,0.0069
1899.00,0.0069
1898.00,0.0070
1897.00,0.0070
1896.00,0.0071
1895.00,0.0071
1894.00,0.0070
1893.00,0.0070
1892.00,0.0071
1891.00,0.0071
1890.00,0.0071
1889.00,0.0070
1888.00,0.0070
1887.00,0.0070
1886.00,0.0069
1885.00,0.0069
1884.00,0.0070
1883.00,0.0070
1882.00,0.0071
1881.00,0.0071
1880.00,0.0071
1879.00,0.0071
1878.00,0.0070
1877.00,0.0070
1876.00,0.0070
1875.00,0.0071
1874.00,0.0071
1873.00,0.0070
1872.00,0.0071
1871.00,0.0071
1870.00,0.0072
1869.00,0.0073
1868.00,0.0073
1867.00,0.0072
1866.00,0.0071
1865.00,0.0070
1864.00,0.0071
1863.00,0.0071
1862.00,0.0071
1861.00,0.0070
1860.00,0.0071
1859.00,0.0071
1858.00,0.0070
1857.00,0.0070
1856.00,0.0070
1855.00,0.0071
1854.00,0.0071
1853.00,0.0071
1852.00,0.0072
1851.00,0.0073
1850.00,0.0073
1849.00,0.0072
1848.00,0.0072
1847.00,0.0071
1846.00,0.0070
1845.00,0.0070
1844.00,0.0070
1843.00,0.0070
1842.00,0.0071
1841.00,0.0071
1840.00,0.0072
1839.00,0.0072
1838.00,0.0072
1837.00,0.0072
1836.00,0.0072
1835.00,0.0072
1834.00,0.0071
1833.00,0.0071
1832.00,0.0071
1831.00,0.0072
1830.00,0.0071
1829.00,0.0071
1828.00,0.0071
1827.00,0.0071
1826.00,0.0072
1825.00,0.0071
1824.00,0.0072
1823.00,0.0071
1822.00,0.0071
1821.00,0.0070
1820.00,0.0070
1819.00,0.0069
1818.00,0.0069
1817.00,0.0068
1816.00,0.0068
1815.00,0.0069
1814.00,0.0069
1813.00,0.0070
1812.00,0.0071
1811.00,0.0071
1810.00,0.0070
1809.00,0.0070
1808.00,0.0071
1807.00,0.0071
1806.00,0.0071
1805.00,0.0072
1804.00,0.0072
1803.00,0.0072
1802.00,0.0072
1801.00,0.0071
1800.00,0.0071
1799.00,0.0071
1798.00,0.0071
1797.00,0.0072
1796.00,0.0072
1795.00,0.0072
1794.00,0.0071
1793.00,0.0071
1792.00,0.0071
1791.00,0.0071
1790.00,0.0071
1789.00,0.0072
1788.00,0.0072
1787.00,0.0073
1786.00,0.0073
1785.00,0.0073
1784.00,0.0073
1783.00,0.0073
1782.00,0.0073
1781.00,0.0073
1780.00,0.0073
1779.00,0.0073
1778.00,0.0073
1777.00,0.0073
1776.00,0.0073
1775.00,0.0073
1774.00,0.0073
1773.00,0.0073
1772.00,0.0073
1771.00,0.0074
1770.00,0.0074
1769.00,0.0075
1768.00,0.0076
1767.00,0.0076
1766.00,0.0076
1765.00,0.0076
1764.00,0.0077
1763.00,0.0077
1762.00,0.0076
1761.00,0.0076
1760.00,0.0077
1759.00,0.0078
1758.00,0.0078
1757.00,0.0078
1756.00,0.0079
1755.00,0.0079
1754.00,0.0079
1753.00,0.0080
1752.00,0.0081
1751.00,0.0082
1750.00,0.0082
1749.00,0.0083
1748.00,0.0084
1747.00,0.0085
1746.00,0.0085
1745.00,0.0086
1744.00,0.0086
1743.00,0.0087
1742.00,0.0086
1741.00,0.0086
1740.00,0.0087
1739.00,0.0088
1738.00,0.0089
1737.00,0.0089
1736.00,0.0091
1735.00,0.0092
1734.00,0.0092
1733.00,0.0093
1732.00,0.0096
1731.00,0.0099
1730.00,0.0100
1729.00,0.0101
1728.00,0.0103
1727.00,0.0105
1726.00,0.0107
1725.00,0.0109
1724.00,0.0112
1723.00,0.0114
1722.00,0.0115
1721.00,0.0116
1720.00,0.0120
1719.00,0.0124
1718.00,0.0127
1717.00,0.0130
1716.00,0.0134
1715.00,0.0139
1714.00,0.0143
1713.00,0.0148
1712.00,0.0154
1711.00,0.0161
1710.00,0.0167
1709.00,0.0175
1708.00,0.0184
1707.00,0.0196
1706.00,0.0209
1705.00,0.0222
1704.00,0.0236
1703.00,0.0248
1702.00,0.0262
1701.00,0.0288
1700.00,0.0325
1699.00,0.0359
1698.00,0.0386
1697.00,0.0419
1696.00,0.0465
1695.00,0.0515
1694.00,0.0559
1693.00,0.0599
1692.00,0.0642
1691.00,0.0690
1690.00,0.0742
1689.00,0.0794
1688.00,0.0841
1687.00,0.0882
1686.00,0.0925
1685.00,0.0984
1684.00,0.1058
1683.00,0.1119
1682.00,0.1160
1681.00,0.1195
1680.00,0.1231
1679.00,0.1264
1678.00,0.1294
1677.00,0.1326
1676.00,0.1365
1675.00,0.1409
1674.00,0.1447
1673.00,0.1478
1672.00,0.1509
1671.00,0.1547
1670.00,0.1593
1669.00,0.1644
1668.00,0.1691
1667.00,0.1731
1666.00,0.1765
1665.00,0.1801
1664.00,0.1845
1663.00,0.1895
1662.00,0.1943
1661.00,0.1983
1660.00,0.2018
1659.00,0.2050
1658.00,0.2076
1657.00,0.2096
1656.00,0.2113
1655.00,0.2131
1654.00,0.2153
1653.00,0.2172
1652.00,0.2176
1651.00,0.2168
1650.00,0.2154
1649.00,0.2138
1648.00,0.2114
1647.00,0.2077
1646.00,0.2028
1645.00,0.1976
1644.00,0.1926
1643.00,0.1875
1642.00,0.1819
1641.00,0.1759
1640.00,0.1697
1639.00,0.1638
1638.00,0.1578
1637.00,0.1511
1636.00,0.1432
1635.00,0.1353
1634.00,0.1289
1633.00,0.1237
1632.00,0.1191
1631.00,0.1147
1630.00,0.1103
1629.00,0.1061
1628.00,0.1021
1627.00,0.0987
1626.00,0.0959
1625.00,0.0934
1624.00,0.0912
1623.00,0.0893
1622.00,0.0876
1621.00,0.0861
1620.00,0.0846
1619.00,0.0830
1618.00,0.0812
1617.00,0.0791
1616.00,0.0768
1615.00,0.0746
1614.00,0.0725
1613.00,0.0704
1612.00,0.0683
1611.00,0.0663
1610.00,0.0645
1609.00,0.0630
1608.00,0.0618
1607.00,0.0611
1606.00,0.0608
1605.00,0.0609
1604.00,0.0614
1603.00,0.0623
1602.00,0.0633
1601.00,0.0642
1600.00,0.0648
1599.00,0.0651
1598.00,0.0650
1597.00,0.0644
1596.00,0.0634
1595.00,0.0619
1594.00,0.0603
1593.00,0.0585
1592.00,0.0567
1591.00,0.0550
1590.00,0.0535
1589.00,0.0521
1588.00,0.0508
1587.00,0.0495
1586.00,0.0482
1585.00,0.0469
1584.00,0.0455
1583.00,0.0441
1582.00,0.0427
1581.00,0.0413
1580.00,0.0400
1579.00,0.0388
1578.00,0.0376
1577.00,0.0363
1576.00,0.0351
1575.00,0.0340
1574.00,0.0333
1573.00,0.0326
1572.00,0.0319
1571.00,0.0312
1570.00,0.0306
1569.00,0.0299
1568.00,0.0294
1567.00,0.0290
1566.00,0.0286
1565.00,0.0281
1564.00,0.0277
1563.00,0.0271
1562.00,0.0266
1561.00,0.0261
1560.00,0.0257
1559.00,0.0253
1558.00,0.0251
1557.00,0.0251
1556.00,0.0251
1555.00,0.0250
1554.00,0.0249
1553.00,0.0248
1552.00,0.0247
1551.00,0.0246
1550.00,0.0245
1549.00,0.0243
1548.00,0.0242
1547.00,0.0241
1546.00,0.0241
1545.00,0.0241
1544.00,0.0240
1543.00,0.0239
1542.00,0.0238
1541.00,0.0238
1540.00,0.0237
1539.00,0.0236
1538.00,0.0236
1537.00,0.0236
1536.00,0.0235
1535.00,0.0234
1534.00,0.0232
1533.00,0.0231
1532.00,0.0229
1531.00,0.0228
1530.00,0.0227
1529.00,0.0227
1528.00,0.0226
1527.00,0.0226
1526.00,0.0225
1525.00,0.0225
1524.00,0.0225
1523.00,0.0225
1522.00,0.0225
1521.00,0.0226
1520.00,0.0227
1519.00,0.0228
1518.00,0.0230
1517.00,0.0230
1516.00,0.0230
1515.00,0.0230
1514.00,0.0231
1513.00,0.0232
1512.00,0.0234
1511.00,0.0236
1510.00,0.0238
1509.00,0.0241
1508.00,0.0246
1507.00,0.0254
1506.00,0.0265
1505.00,0.0278
1504.00,0.0291
1503.00,0.0305
1502.00,0.0320
1501.00,0.0338
1500.00,0.0359
1499.00,0.0382
1498.00,0.0407
1497.00,0.0432
1496.00,0.0454
1495.00,0.0469
1494.00,0.0477
1493.00,0.0479
1492.00,0.0475
1491.00,0.0465
1490.00,0.0447
1489.00,0.0424
1488.00,0.0400
1487.00,0.0376
1486.00,0.0355
1485.00,0.0337
1484.00,0.0322
1483.00,0.0309
1482.00,0.0299
1481.00,0.0291
1480.00,0.0287
1479.00,0.0285
1478.00,0.0286
1477.00,0.0291
1476.00,0.0299
1475.00,0.0309
1474.00,0.0325
1473.00,0.0352
1472.00,0.0388
1471.00,0.0426
1470.00,0.0465
1469.00,0.0507
1468.00,0.0552
1467.00,0.0603
1466.00,0.0661
1465.00,0.0727
1464.00,0.0787
1463.00,0.0832
1462.00,0.0860
1461.00,0.0875
1460.00,0.0879
1459.00,0.0870
1458.00,0.0845
1457.00,0.0806
1456.00,0.0767
1455.00,0.0738
1454.00,0.0719
1453.00,0.0706
1452.00,0.0700
1451.00,0.0700
1450.00,0.0709
1449.00,0.0730
1448.00,0.0760
1447.00,0.0798
1446.00,0.0838
1445.00,0.0881
1444.00,0.0926
1443.00,0.0972
1442.00,0.1016
1441.00,0.1057
1440.00,0.1093
1439.00,0.1122
1438.00,0.1152
1437.00,0.1187
1436.00,0.1222
1435.00,0.1249
1434.00,0.1270
1433.00,0.1292
1432.00,0.1316
1431.00,0.1341
1430.00,0.1365
1429.00,0.1390
1428.00,0.1412
1427.00,0.1431
1426.00,0.1449
1425.00,0.1470
1424.00,0.1487
1423.00,0.1493
1422.00,0.1485
1421.00,0.1463
1420.00,0.1418
1419.00,0.1345
1418.00,0.1258
1417.00,0.1174
1416.00,0.1093
1415.00,0.1015
1414.00,0.0942
1413.00,0.0875
1412.00,0.0815
1411.00,0.0763
1410.00,0.0719
1409.00,0.0684
1408.00,0.0654
1407.00,0.0629
1406.00,0.0609
1405.00,0.0592
1404.00,0.0577
1403.00,0.0565
1402.00,0.0555
1401.00,0.0548
1400.00,0.0541
1399.00,0.0534
1398.00,0.0529
1397.00,0.0525
1396.00,0.0521
1395.00,0.0518
1394.00,0.0517
1393.00,0.0518
1392.00,0.0519
1391.00,0.0521
1390.00,0.0526
1389.00,0.0533
1388.00,0.0542
1387.00,0.0553
1386.00,0.0567
1385.00,0.0580
1384.00,0.0593
1383.00,0.0607
1382.00,0.0621
1381.00,0.0634
1380.00,0.0646
1379.00,0.0657
1378.00,0.0667
1377.00,0.0674
1376.00,0.0677
1375.00,0.0677
1374.00,0.0672
1373.00,0.0664
1372.00,0.0653
1371.00,0.0641
1370.00,0.0629
1369.00,0.0615
1368.00,0.0601
1367.00,0.0586
1366.00,0.0572
1365.00,0.0559
1364.00,0.0545
1363.00,0.0530
1362.00,0.0517
1361.00,0.0504
1360.00,0.0493
1359.00,0.0484
1358.00,0.0477
1357.00,0.0471
1356.00,0.0466
1355.00,0.0462
1354.00,0.0458
1353.00,0.0455
1352.00,0.0451
1351.00,0.0447
1350.00,0.0442
1349.00,0.0437
1348.00,0.0431
1347.00,0.0425
1346.00,0.0420
1345.00,0.0415
1344.00,0.0411
1343.00,0.0408
1342.00,0.0407
1341.00,0.0406
1340.00,0.0406
1339.00,0.0407
1338.00,0.0408
1337.00,0.0409
1336.00,0.0411
1335.00,0.0414
1334.00,0.0419
1333.00,0.0424
1332.00,0.0431
1331.00,0.0439
1330.00,0.0449
1329.00,0.0460
1328.00,0.0474
1327.00,0.0488
1326.00,0.0505
1325.00,0.0523
1324.00,0.0541
1323.00,0.0559
1322.00,0.0577
1321.00,0.0593
1320.00,0.0606
1319.00,0.0616
1318.00,0.0621
1317.00,0.0623
1316.00,0.0619
1315.00,0.0613
1314.00,0.0603
1313.00,0.0592
1312.00,0.0579
1311.00,0.0566
1310.00,0.0555
1309.00,0.0546
1308.00,0.0539
1307.00,0.0536
1306.00,0.0536
1305.00,0.0541
1304.00,0.0551
1303.00,0.0567
1302.00,0.0590
1301.00,0.0621
1300.00,0.0662
1299.00,0.0713
1298.00,0.0776
1297.00,0.0850
1296.00,0.0933
1295.00,0.1022
1294.00,0.1114
1293.00,0.1204
1292.00,0.1287
1291.00,0.1360
1290.00,0.1419
1289.00,0.1464
1288.00,0.1493
1287.00,0.1505
1286.00,0.1502
1285.00,0.1486
1284.00,0.1458
1283.00,0.1424
1282.00,0.1387
1281.00,0.1354
1280.00,0.1327
1279.00,0.1308
1278.00,0.1300
1277.00,0.1299
1276.00,0.1305
1275.00,0.1313
1274.00,0.1320
1273.00,0.1324
1272.00,0.1321
1271.00,0.1311
1270.00,0.1293
1269.00,0.1267
1268.00,0.1236
1267.00,0.1201
1266.00,0.1163
1265.00,0.1124
1264.00,0.1085
1263.00,0.1045
1262.00,0.1007
1261.00,0.0968
1260.00,0.0930
1259.00,0.0894
1258.00,0.0858
1257.00,0.0825
1256.00,0.0793
1255.00,0.0762
1254.00,0.0735
1253.00,0.0709
1252.00,0.0686
1251.00,0.0666
1250.00,0.0648
1249.00,0.0633
1248.00,0.0620
1247.00,0.0609
1246.00,0.0601
1245.00,0.0594
1244.00,0.0590
1243.00,0.0588
1242.00,0.0588
1241.00,0.0591
1240.00,0.0596
1239.00,0.0604
1238.00,0.0614
1237.00,0.0627
1236.00,0.0642
1235.00,0.0659
1234.00,0.0677
1233.00,0.0696
1232.00,0.0714
1231.00,0.0730
1230.00,0.0744
1229.00,0.0754
1228.00,0.0761
1227.00,0.0765
1226.00,0.0767
1225.00,0.0768
1224.00,0.0767
1223.00,0.0765
1222.00,0.0763
1221.00,0.0759
1220.00,0.0754
1219.00,0.0748
1218.00,0.0740
1217.00,0.0730
1216.00,0.0719
1215.00,0.0706
1214.00,0.0692
1213.00,0.0678
1212.00,0.0664
1211.00,0.0651
1210.00,0.0639
1209.00,0.0627
1208.00,0.0617
1207.00,0.0607
1206.00,0.0599
1205.00,0.0591
1204.00,0.0584
1203.00,0.0576
1202.00,0.0570
1201.00,0.0564
1200.00,0.0557
1199.00,0.0551
1198.00,0.0545
1197.00,0.0539
1196.00,0.0534
1195.00,0.0528
1194.00,0.0524
1193.00,0.0519
1192.00,0.0515
1191.00,0.0511
1190.00,0.0508
1189.00,0.0506
1188.00,0.0503
1187.00,0.0501
1186.00,0.0500
1185.00,0.0499
1184.00,0.0499
1183.00,0.0500
1182.00,0.0502
1181.00,0.0505
1180.00,0.0510
1179.00,0.0516
1178.00,0.0524
1177.00,0.0533
1176.00,0.0544
1175.00,0.0557
1174.00,0.0571
1173.00,0.0586
1172.00,0.0601
1171.00,0.0615
1170.00,0.0630
1169.00,0.0642
1168.00,0.0652
1167.00,0.0660
1166.00,0.0665
1165.00,0.0666
1164.00,0.0664
1163.00,0.0658
1162.00,0.0649
1161.00,0.0638
1160.00,0.0626
1159.00,0.0614
1158.00,0.0603
1157.00,0.0591
1156.00,0.0579
1155.00,0.0567
1154.00,0.0555
1153.00,0.0543
1152.00,0.0531
1151.00,0.0520
1150.00,0.0509
1149.00,0.0498
1148.00,0.0487
1147.00,0.0477
1146.00,0.0468
1145.00,0.0460
1144.00,0.0452
1143.00,0.0445
1142.00,0.0440
1141.00,0.0435
1140.00,0.0430
1139.00,0.0425
1138.00,0.0422
1137.00,0.0418
1136.00,0.0415
1135.00,0.0413
1134.00,0.0412
1133.00,0.0411
1132.00,0.0411
1131.00,0.0411
1130.00,0.0412
1129.00,0.0413
1128.00,0.0413
1127.00,0.0414
1126.00,0.0415
1125.00,0.0416
1124.00,0.0417
1123.00,0.0418
1122.00,0.0420
1121.00,0.0423
1120.00,0.0425
1119.00,0.0429
1118.00,0.0433
1117.00,0.0438
1116.00,0.0443
1115.00,0.0449
1114.00,0.0455
1113.00,0.0462
1112.00,0.0468
1111.00,0.0474
1110.00,0.0480
1109.00,0.0484
1108.00,0.0488
1107.00,0.0490
1106.00,0.0492
1105.00,0.0493
1104.00,0.0494
1103.00,0.0495
1102.00,0.0497
1101.00,0.0499
1100.00,0.0501
1099.00,0.0504
1098.00,0.0507
1097.00,0.0510
1096.00,0.0513
1095.00,0.0515
1094.00,0.0517
1093.00,0.0518
1092.00,0.0518
1091.00,0.0519
1090.00,0.0521
1089.00,0.0524
1088.00,0.0527
1087.00,0.0530
1086.00,0.0535
1085.00,0.0540
1084.00,0.0544
1083.00,0.0546
1082.00,0.0547
1081.00,0.0546
1080.00,0.0543
1079.00,0.0539
1078.00,0.0536
1077.00,0.0532
1076.00,0.0528
1075.00,0.0523
1074.00,0.0518
1073.00,0.0513
1072.00,0.0506
1071.00,0.0500
1070.00,0.0494
1069.00,0.0489
1068.00,0.0484
1067.00,0.0481
1066.00,0.0479
1065.00,0.0479
1064.00,0.0479
1063.00,0.0482
1062.00,0.0487
1061.00,0.0495
1060.00,0.0505
1059.00,0.0518
1058.00,0.0537
1057.00,0.0561
1056.00,0.0589
1055.00,0.0624
1054.00,0.0664
1053.00,0.0705
1052.00,0.0744
1051.00,0.0777
1050.00,0.0800
1049.00,0.0812
1048.00,0.0811
1047.00,0.0800
1046.00,0.0782
1045.00,0.0761
1044.00,0.0738
1043.00,0.0716
1042.00,0.0698
1041.00,0.0683
1040.00,0.0670
1039.00,0.0659
1038.00,0.0650
1037.00,0.0643
1036.00,0.0636
1035.00,0.0629
1034.00,0.0624
1033.00,0.0618
1032.00,0.0612
1031.00,0.0607
1030.00,0.0602
1029.00,0.0597
1028.00,0.0593
1027.00,0.0589
1026.00,0.0587
1025.00,0.0585
1024.00,0.0583
1023.00,0.0582
1022.00,0.0583
1021.00,0.0583
1020.00,0.0582
1019.00,0.0580
1018.00,0.0576
1017.00,0.0568
1016.00,0.0557
1015.00,0.0543
1014.00,0.0526
1013.00,0.0509
1012.00,0.0491
1011.00,0.0474
1010.00,0.0462
1009.00,0.0452
1008.00,0.0445
1007.00,0.0443
1006.00,0.0444
1005.00,0.0448
1004.00,0.0451
1003.00,0.0453
1002.00,0.0453
1001.00,0.0449
1000.00,0.0441
999.00,0.0432
998.00,0.0422
997.00,0.0413
996.00,0.0404
995.00,0.0396
994.00,0.0390
993.00,0.0386
992.00,0.0382
991.00,0.0380
990.00,0.0379
989.00,0.0378
988.00,0.0378
987.00,0.0377
986.00,0.0375
985.00,0.0373
984.00,0.0369
983.00,0.0365
982.00,0.0361
981.00,0.0356
980.00,0.0351
979.00,0.0346
978.00,0.0342
977.00,0.0337
976.00,0.0333
975.00,0.0329
974.00,0.0325
973.00,0.0322
972.00,0.0318
971.00,0.0314
970.00,0.0310
969.00,0.0306
968.00,0.0301
967.00,0.0297
966.00,0.0294
965.00,0.0291
964.00,0.0288
963.00,0.0285
962.00,0.0282
961.00,0.0279
960.00,0.0276
959.00,0.0272
958.00,0.0270
957.00,0.0267
956.00,0.0264
955.00,0.0262
954.00,0.0260
953.00,0.0258
952.00,0.0256
951.00,0.0254
950.00,0.0254
949.00,0.0253
948.00,0.0252
947.00,0.0252
946.00,0.0252
945.00,0.0253
944.00,0.0254
943.00,0.0255
942.00,0.0258
941.00,0.0262
940.00,0.0266
939.00,0.0271
938.00,0.0279
937.00,0.0287
936.00,0.0295
935.00,0.0303
934.00,0.0310
933.00,0.0313
932.00,0.0313
931.00,0.0309
930.00,0.0305
929.00,0.0301
928.00,0.0297
927.00,0.0295
926.00,0.0294
925.00,0.0294
924.00,0.0294
923.00,0.0294
922.00,0.0295
921.00,0.0296
920.00,0.0297
919.00,0.0299
918.00,0.0301
917.00,0.0303
916.00,0.0304
915.00,0.0306
914.00,0.0308
913.00,0.0311
912.00,0.0314
911.00,0.0316
910.00,0.0319
909.00,0.0322
908.00,0.0323
907.00,0.0325
906.00,0.0327
905.00,0.0328
904.00,0.0329
903.00,0.0330
902.00,0.0331
901.00,0.0333
900.00,0.0334
899.00,0.0336
898.00,0.0339
897.00,0.0341
896.00,0.0342
895.00,0.0342
894.00,0.0341
893.00,0.0339
892.00,0.0336
891.00,0.0333
890.00,0.0330
889.00,0.0328
888.00,0.0326
887.00,0.0325
886.00,0.0325
885.00,0.0325
884.00,0.0325
883.00,0.0325
882.00,0.0326
881.00,0.0327
880.00,0.0328
879.00,0.0330
878.00,0.0333
877.00,0.0335
876.00,0.0337
875.00,0.0339
874.00,0.0342
873.00,0.0345
872.00,0.0347
871.00,0.0350
870.00,0.0353
869.00,0.0357
868.00,0.0361
867.00,0.0366
866.00,0.0372
865.00,0.0378
864.00,0.0385
863.00,0.0392
862.00,0.0401
861.00,0.0410
860.00,0.0419
859.00,0.0429
858.00,0.0441
857.00,0.0453
856.00,0.0466
855.00,0.0479
854.00,0.0492
853.00,0.0506
852.00,0.0519
851.00,0.0532
850.00,0.0545
849.00,0.0557
848.00,0.0567
847.00,0.0576
846.00,0.0584
845.00,0.0591
844.00,0.0596
843.00,0.0600
842.00,0.0604
841.00,0.0607
840.00,0.0610
839.00,0.0612
838.00,0.0615
837.00,0.0618
836.00,0.0620
835.00,0.0622
834.00,0.0625
833.00,0.0628
832.00,0.0629
831.00,0.0629
830.00,0.0629
829.00,0.0628
828.00,0.0625
827.00,0.0621
826.00,0.0617
825.00,0.0610
824.00,0.0602
823.00,0.0593
822.00,0.0584
821.00,0.0575
820.00,0.0565
819.00,0.0556
818.00,0.0548
817.00,0.0541
816.00,0.0533
815.00,0.0527
814.00,0.0523
813.00,0.0520
812.00,0.0517
811.00,0.0515
810.00,0.0514
809.00,0.0512
808.00,0.0510
807.00,0.0509
806.00,0.0509
805.00,0.0509
804.00,0.0508
803.00,0.0508
802.00,0.0508
801.00,0.0508
800.00,0.0508
799.00,0.0508
798.00,0.0509
797.00,0.0510
796.00,0.0509
795.00,0.0509
794.00,0.0508
793.00,0.0506
792.00,0.0503
791.00,0.0500
790.00,0.0498
789.00,0.0495
788.00,0.0492
787.00,0.0489
786.00,0.0488
785.00,0.0487
784.00,0.0485
783.00,0.0484
782.00,0.0485
781.00,0.0485
780.00,0.0485
779.00,0.0485
778.00,0.0486
777.00,0.0487
776.00,0.0486
775.00,0.0486
774.00,0.0486
773.00,0.0486
772.00,0.0486
771.00,0.0486
770.00,0.0488
769.00,0.0489
768.00,0.0491
767.00,0.0493
766.00,0.0496
765.00,0.0499
764.00,0.0503
763.00,0.0507
762.00,0.0514
761.00,0.0521
760.00,0.0527
759.00,0.0535
758.00,0.0543
757.00,0.0552
756.00,0.0560
755.00,0.0568
754.00,0.0578
753.00,0.0588
752.00,0.0597
751.00,0.0606
750.00,0.0615
749.00,0.0625
748.00,0.0633
747.00,0.0643
746.00,0.0652
745.00,0.0662
744.00,0.0670
743.00,0.0677
742.00,0.0686
741.00,0.0694
740.00,0.0701
739.00,0.0707
738.00,0.0714
737.00,0.0720
736.00,0.0723
735.00,0.0725
734.00,0.0725
733.00,0.0722
732.00,0.0716
731.00,0.0708
730.00,0.0700
729.00,0.0689
728.00,0.0678
727.00,0.0666
726.00,0.0655
725.00,0.0646
724.00,0.0636
723.00,0.0627
722.00,0.0620
721.00,0.0614
720.00,0.0608
719.00,0.0604
718.00,0.0601
717.00,0.0599
716.00,0.0597
715.00,0.0595
714.00,0.0594
713.00,0.0593
712.00,0.0593
711.00,0.0593
710.00,0.0594
709.00,0.0596
708.00,0.0596
707.00,0.0597
706.00,0.0599
705.00,0.0601
704.00,0.0602
703.00,0.0604
702.00,0.0607
701.00,0.0609
700.00,0.0612
699.00,0.0614
698.00,0.0618
697.00,0.0620
696.00,0.0623
695.00,0.0625
694.00,0.0629
693.00,0.0633
692.00,0.0637
691.00,0.0641
690.00,0.0647
689.00,0.0653
688.00,0.0659
687.00,0.0665
686.00,0.0672
685.00,0.0679
684.00,0.0685
683.00,0.0690
682.00,0.0697
681.00,0.0703
680.00,0.0709
679.00,0.0714
678.00,0.0721
677.00,0.0727
676.00,0.0733
675.00,0.0739
674.00,0.0746
673.00,0.0753
672.00,0.0758
671.00,0.0764
670.00,0.0773
669.00,0.0784
668.00,0.0798
667.00,0.0811
666.00,0.0820
665.00,0.0829
664.00,0.0838
663.00,0.0849
662.00,0.0862
661.00,0.0875
660.00,0.0888
659.00,0.0903
658.00,0.0918
657.00,0.0934
656.00,0.0948
655.00,0.0962
654.00,0.0976
653.00,0.0990
652.00,0.1002
651.00,0.1012
650.00,0.1020
649.00,0.1026
648.00,0.1027
647.00,0.1026
646.00,0.1023
645.00,0.1018
644.00,0.1010
643.00,0.1000
642.00,0.0990
641.00,0.0978
640.00,0.0965
639.00,0.0952
638.00,0.0941
637.00,0.0930
636.00,0.0918
635.00,0.0907
634.00,0.0897
633.00,0.0888
632.00,0.0879
631.00,0.0871
630.00,0.0865
629.00,0.0858
628.00,0.0850
627.00,0.0843
626.00,0.0838
625.00,0.0833
624.00,0.0829
623.00,0.0824
622.00,0.0821
621.00,0.0819
620.00,0.0815
619.00,0.0813
618.00,0.0812
617.00,0.0812
616.00,0.0811
615.00,0.0810
614.00,0.0810
613.00,0.0810
612.00,0.0808
611.00,0.0807
610.00,0.0809
609.00,0.0813
608.00,0.0818
607.00,0.0822
606.00,0.0829
605.00,0.0834
604.00,0.0837
603.00,0.0841
602.00,0.0846
601.00,0.0851
600.00,0.0855
599.00,0.0858
598.00,0.0863
597.00,0.0867
596.00,0.0871
595.00,0.0875
594.00,0.0882
593.00,0.0890
592.00,0.0898
591.00,0.0906
590.00,0.0916
589.00,0.0927
588.00,0.0936
587.00,0.0947
586.00,0.0961
585.00,0.0977
584.00,0.0991
583.00,0.1006
582.00,0.1021
581.00,0.1035
580.00,0.1046
579.00,0.1055
578.00,0.1065
577.00,0.1074
576.00,0.1080
575.00,0.1084
574.00,0.1089
573.00,0.1091
572.00,0.1090
571.00,0.1086
570.00,0.1083
569.00,0.1079
568.00,0.1073
567.00,0.1066
566.00,0.1059
565.00,0.1050
564.00,0.1039
563.00,0.1027
562.00,0.1017
561.00,0.1008
560.00,0.0998
559.00,0.0989
558.00,0.0982
557.00,0.0975
556.00,0.0966
555.00,0.0957
554.00,0.0950
553.00,0.0943
552.00,0.0934
551.00,0.0926
550.00,0.0921
549.00,0.0915
548.00,0.0908
547.00,0.0901
546.00,0.0898
545.00,0.0895
544.00,0.0891
543.00,0.0888
542.00,0.0888
541.00,0.0888
540.00,0.0885
539.00,0.0882
538.00,0.0881
537.00,0.0880
536.00,0.0877
535.00,0.0874
534.00,0.0874
533.00,0.0875
532.00,0.0875
531.00,0.0876
530.00,0.0879
529.00,0.0879
528.00,0.0876
527.00,0.0872
526.00,0.0870
525.00,0.0868
524.00,0.0864
523.00,0.0860
522.00,0.0859
521.00,0.0858
520.00,0.0854
519.00,0.0850
518.00,0.0849
517.00,0.0849
516.00,0.0848
515.00,0.0848
514.00,0.0851
513.00,0.0852
512.00,0.0850
511.00,0.0847
510.00,0.0847
509.00,0.0846
508.00,0.0841
507.00,0.0836
506.00,0.0834
505.00,0.0833
504.00,0.0831
503.00,0.0831
502.00,0.0836
501.00,0.0840
500.00,0.0840
499.00,0.0838
498.00,0.0840
497.00,0.0843
496.00,0.0842
495.00,0.0842
494.00,0.0846
493.00,0.0850
492.00,0.0850
491.00,0.0850
490.00,0.0853
489.00,0.0857
488.00,0.0858
487.00,0.0860
486.00,0.0864
485.00,0.0866
484.00,0.0864
483.00,0.0863
482.00,0.0865
481.00,0.0868
480.00,0.0867
479.00,0.0868
478.00,0.0872
477.00,0.0877
476.00,0.0877
475.00,0.0878
474.00,0.0883
473.00,0.0886
472.00,0.0883
471.00,0.0879
470.00,0.0880
469.00,0.0881
468.00,0.0877
467.00,0.0874
466.00,0.0876
465.00,0.0878
464.00,0.0876
463.00,0.0874
462.00,0.0877
461.00,0.0879
460.00,0.0875
459.00,0.0871
458.00,0.0874
457.00,0.0877
456.00,0.0875
455.00,0.0872
454.00,0.0873
453.00,0.0873
452.00,0.0867
451.00,0.0862
450.00,0.0863
449.00,0.0862
448.00,0.0853
447.00,0.0844
446.00,0.0842
445.00,0.0842
444.00,0.0839
443.00,0.0836
442.00,0.0838
441.00,0.0835
440.00,0.0823
439.00,0.0812
438.00,0.0809
437.00,0.0809
436.00,0.0804
435.00,0.0797
434.00,0.0795
433.00,0.0794
432.00,0.0790
431.00,0.0788
430.00,0.0791
429.00,0.0792
428.00,0.0784
427.00,0.0776
426.00,0.0774
425.00,0.0770
424.00,0.0760
423.00,0.0757
422.00,0.0767
421.00,0.0778
420.00,0.0777
419.00,0.0771
418.00,0.0775
417.00,0.0776
416.00,0.0765
415.00,0.0759
414.00,0.0766
413.00,0.0774
412.00,0.0769
411.00,0.0763
410.00,0.0769
409.00,0.0776
408.00,0.0774
407.00,0.0775
406.00,0.0786
405.00,0.0794
404.00,0.0787
403.00,0.0785
402.00,0.0803
401.00,0.0818
400.00,0.0811
