Created as New Dataset,Sample 563 By YargerLab Date Thursday, June 05 2025
cm-1,A
4000.00,0.0008
3999.00,0.0008
3998.00,0.0008
3997.00,0.0008
3996.00,0.0008
3995.00,0.0008
3994.00,0.0008
3993.00,0.0008
3992.00,0.0008
3991.00,0.0008
3990.00,0.0008
3989.00,0.0008
3988.00,0.0008
3987.00,0.0008
3986.00,0.0008
3985.00,0.0008
3984.00,0.0008
3983.00,0.0008
3982.00,0.0008
3981.00,0.0008
3980.00,0.0008
3979.00,0.0008
3978.00,0.0008
3977.00,0.0008
3976.00,0.0008
3975.00,0.0008
3974.00,0.0008
3973.00,0.0008
3972.00,0.0008
3971.00,0.0008
3970.00,0.0008
3969.00,0.0008
3968.00,0.0008
3967.00,0.0008
3966.00,0.0008
3965.00,0.0008
3964.00,0.0008
3963.00,0.0008
3962.00,0.0008
3961.00,0.0008
3960.00,0.0008
3959.00,0.0008
3958.00,0.0008
3957.00,0.0008
3956.00,0.0008
3955.00,0.0008
3954.00,0.0007
3953.00,0.0007
3952.00,0.0007
3951.00,0.0008
3950.00,0.0008
3949.00,0.0008
3948.00,0.0008
3947.00,0.0008
3946.00,0.0008
3945.00,0.0007
3944.00,0.0007
3943.00,0.0008
3942.00,0.0008
3941.00,0.0008
3940.00,0.0008
3939.00,0.0008
3938.00,0.0008
3937.00,0.0008
3936.00,0.0008
3935.00,0.0007
3934.00,0.0007
3933.00,0.0007
3932.00,0.0007
3931.00,0.0007
3930.00,0.0007
3929.00,0.0007
3928.00,0.0007
3927.00,0.0007
3926.00,0.0007
3925.00,0.0007
3924.00,0.0007
3923.00,0.0007
3922.00,0.0008
3921.00,0.0008
3920.00,0.0008
3919.00,0.0008
3918.00,0.0008
3917.00,0.0007
3916.00,0.0007
3915.00,0.0007
3914.00,0.0007
3913.00,0.0007
3912.00,0.0007
3911.00,0.0007
3910.00,0.0007
3909.00,0.0007
3908.00,0.0007
3907.00,0.0007
3906.00,0.0008
3905.00,0.0008
3904.00,0.0008
3903.00,0.0008
3902.00,0.0008
3901.00,0.0007
3900.00,0.0007
3899.00,0.0007
3898.00,0.0007
3897.00,0.0007
3896.00,0.0007
3895.00,0.0007
3894.00,0.0007
3893.00,0.0007
3892.00,0.0007
3891.00,0.0007
3890.00,0.0007
3889.00,0.0007
3888.00,0.0006
3887.00,0.0006
3886.00,0.0006
3885.00,0.0006
3884.00,0.0006
3883.00,0.0006
3882.00,0.0006
3881.00,0.0007
3880.00,0.0007
3879.00,0.0007
3878.00,0.0007
3877.00,0.0007
3876.00,0.0007
3875.00,0.0007
3874.00,0.0007
3873.00,0.0007
3872.00,0.0007
3871.00,0.0006
3870.00,0.0006
3869.00,0.0006
3868.00,0.0006
3867.00,0.0006
3866.00,0.0006
3865.00,0.0006
3864.00,0.0007
3863.00,0.0007
3862.00,0.0007
3861.00,0.0007
3860.00,0.0006
3859.00,0.0006
3858.00,0.0006
3857.00,0.0007
3856.00,0.0007
3855.00,0.0007
3854.00,0.0007
3853.00,0.0006
3852.00,0.0006
3851.00,0.0006
3850.00,0.0006
3849.00,0.0005
3848.00,0.0006
3847.00,0.0006
3846.00,0.0006
3845.00,0.0006
3844.00,0.0006
3843.00,0.0006
3842.00,0.0006
3841.00,0.0006
3840.00,0.0006
3839.00,0.0006
3838.00,0.0006
3837.00,0.0006
3836.00,0.0006
3835.00,0.0006
3834.00,0.0006
3833.00,0.0006
3832.00,0.0006
3831.00,0.0006
3830.00,0.0006
3829.00,0.0006
3828.00,0.0006
3827.00,0.0006
3826.00,0.0006
3825.00,0.0006
3824.00,0.0006
3823.00,0.0005
3822.00,0.0005
3821.00,0.0006
3820.00,0.0006
3819.00,0.0006
3818.00,0.0006
3817.00,0.0005
3816.00,0.0005
3815.00,0.0005
3814.00,0.0005
3813.00,0.0006
3812.00,0.0006
3811.00,0.0006
3810.00,0.0006
3809.00,0.0006
3808.00,0.0006
3807.00,0.0006
3806.00,0.0006
3805.00,0.0006
3804.00,0.0006
3803.00,0.0005
3802.00,0.0005
3801.00,0.0006
3800.00,0.0006
3799.00,0.0006
3798.00,0.0006
3797.00,0.0006
3796.00,0.0006
3795.00,0.0006
3794.00,0.0006
3793.00,0.0006
3792.00,0.0006
3791.00,0.0006
3790.00,0.0006
3789.00,0.0006
3788.00,0.0006
3787.00,0.0006
3786.00,0.0006
3785.00,0.0007
3784.00,0.0007
3783.00,0.0007
3782.00,0.0007
3781.00,0.0007
3780.00,0.0007
3779.00,0.0007
3778.00,0.0007
3777.00,0.0007
3776.00,0.0007
3775.00,0.0008
3774.00,0.0008
3773.00,0.0008
3772.00,0.0007
3771.00,0.0007
3770.00,0.0007
3769.00,0.0007
3768.00,0.0007
3767.00,0.0007
3766.00,0.0007
3765.00,0.0007
3764.00,0.0007
3763.00,0.0006
3762.00,0.0006
3761.00,0.0006
3760.00,0.0006
3759.00,0.0007
3758.00,0.0007
3757.00,0.0007
3756.00,0.0007
3755.00,0.0006
3754.00,0.0006
3753.00,0.0006
3752.00,0.0006
3751.00,0.0006
3750.00,0.0006
3749.00,0.0006
3748.00,0.0006
3747.00,0.0006
3746.00,0.0006
3745.00,0.0006
3744.00,0.0006
3743.00,0.0006
3742.00,0.0006
3741.00,0.0005
3740.00,0.0005
3739.00,0.0006
3738.00,0.0006
3737.00,0.0006
3736.00,0.0006
3735.00,0.0006
3734.00,0.0006
3733.00,0.0006
3732.00,0.0007
3731.00,0.0007
3730.00,0.0007
3729.00,0.0007
3728.00,0.0007
3727.00,0.0007
3726.00,0.0007
3725.00,0.0008
3724.00,0.0008
3723.00,0.0007
3722.00,0.0007
3721.00,0.0007
3720.00,0.0007
3719.00,0.0007
3718.00,0.0007
3717.00,0.0007
3716.00,0.0007
3715.00,0.0007
3714.00,0.0007
3713.00,0.0007
3712.00,0.0007
3711.00,0.0007
3710.00,0.0008
3709.00,0.0008
3708.00,0.0008
3707.00,0.0008
3706.00,0.0008
3705.00,0.0008
3704.00,0.0008
3703.00,0.0008
3702.00,0.0008
3701.00,0.0008
3700.00,0.0008
3699.00,0.0008
3698.00,0.0008
3697.00,0.0009
3696.00,0.0009
3695.00,0.0009
3694.00,0.0009
3693.00,0.0009
3692.00,0.0009
3691.00,0.0009
3690.00,0.0009
3689.00,0.0009
3688.00,0.0010
3687.00,0.0010
3686.00,0.0011
3685.00,0.0011
3684.00,0.0012
3683.00,0.0012
3682.00,0.0012
3681.00,0.0012
3680.00,0.0012
3679.00,0.0013
3678.00,0.0013
3677.00,0.0013
3676.00,0.0012
3675.00,0.0012
3674.00,0.0013
3673.00,0.0013
3672.00,0.0013
3671.00,0.0014
3670.00,0.0014
3669.00,0.0015
3668.00,0.0016
3667.00,0.0017
3666.00,0.0018
3665.00,0.0018
3664.00,0.0019
3663.00,0.0020
3662.00,0.0021
3661.00,0.0021
3660.00,0.0022
3659.00,0.0023
3658.00,0.0023
3657.00,0.0024
3656.00,0.0024
3655.00,0.0025
3654.00,0.0025
3653.00,0.0025
3652.00,0.0026
3651.00,0.0026
3650.00,0.0026
3649.00,0.0027
3648.00,0.0027
3647.00,0.0029
3646.00,0.0029
3645.00,0.0030
3644.00,0.0031
3643.00,0.0032
3642.00,0.0033
3641.00,0.0034
3640.00,0.0035
3639.00,0.0036
3638.00,0.0037
3637.00,0.0038
3636.00,0.0038
3635.00,0.0039
3634.00,0.0040
3633.00,0.0041
3632.00,0.0041
3631.00,0.0042
3630.00,0.0042
3629.00,0.0043
3628.00,0.0044
3627.00,0.0045
3626.00,0.0046
3625.00,0.0047
3624.00,0.0048
3623.00,0.0048
3622.00,0.0049
3621.00,0.0050
3620.00,0.0050
3619.00,0.0051
3618.00,0.0052
3617.00,0.0053
3616.00,0.0054
3615.00,0.0055
3614.00,0.0056
3613.00,0.0057
3612.00,0.0059
3611.00,0.0060
3610.00,0.0061
3609.00,0.0061
3608.00,0.0062
3607.00,0.0063
3606.00,0.0064
3605.00,0.0065
3604.00,0.0066
3603.00,0.0067
3602.00,0.0068
3601.00,0.0069
3600.00,0.0070
3599.00,0.0071
3598.00,0.0072
3597.00,0.0073
3596.00,0.0074
3595.00,0.0074
3594.00,0.0075
3593.00,0.0076
3592.00,0.0078
3591.00,0.0079
3590.00,0.0080
3589.00,0.0080
3588.00,0.0081
3587.00,0.0082
3586.00,0.0083
3585.00,0.0085
3584.00,0.0086
3583.00,0.0087
3582.00,0.0088
3581.00,0.0089
3580.00,0.0090
3579.00,0.0091
3578.00,0.0092
3577.00,0.0093
3576.00,0.0094
3575.00,0.0094
3574.00,0.0096
3573.00,0.0097
3572.00,0.0098
3571.00,0.0099
3570.00,0.0100
3569.00,0.0101
3568.00,0.0101
3567.00,0.0102
3566.00,0.0103
3565.00,0.0104
3564.00,0.0105
3563.00,0.0107
3562.00,0.0108
3561.00,0.0109
3560.00,0.0111
3559.00,0.0112
3558.00,0.0113
3557.00,0.0115
3556.00,0.0116
3555.00,0.0117
3554.00,0.0118
3553.00,0.0119
3552.00,0.0120
3551.00,0.0121
3550.00,0.0122
3549.00,0.0123
3548.00,0.0124
3547.00,0.0125
3546.00,0.0126
3545.00,0.0127
3544.00,0.0127
3543.00,0.0128
3542.00,0.0129
3541.00,0.0130
3540.00,0.0132
3539.00,0.0133
3538.00,0.0134
3537.00,0.0135
3536.00,0.0136
3535.00,0.0137
3534.00,0.0138
3533.00,0.0140
3532.00,0.0141
3531.00,0.0142
3530.00,0.0143
3529.00,0.0143
3528.00,0.0144
3527.00,0.0145
3526.00,0.0146
3525.00,0.0147
3524.00,0.0148
3523.00,0.0149
3522.00,0.0150
3521.00,0.0151
3520.00,0.0152
3519.00,0.0153
3518.00,0.0154
3517.00,0.0155
3516.00,0.0156
3515.00,0.0157
3514.00,0.0158
3513.00,0.0159
3512.00,0.0161
3511.00,0.0162
3510.00,0.0163
3509.00,0.0163
3508.00,0.0164
3507.00,0.0165
3506.00,0.0166
3505.00,0.0167
3504.00,0.0168
3503.00,0.0169
3502.00,0.0170
3501.00,0.0172
3500.00,0.0173
3499.00,0.0173
3498.00,0.0174
3497.00,0.0175
3496.00,0.0176
3495.00,0.0177
3494.00,0.0179
3493.00,0.0180
3492.00,0.0181
3491.00,0.0182
3490.00,0.0183
3489.00,0.0184
3488.00,0.0185
3487.00,0.0186
3486.00,0.0187
3485.00,0.0188
3484.00,0.0189
3483.00,0.0190
3482.00,0.0191
3481.00,0.0192
3480.00,0.0193
3479.00,0.0194
3478.00,0.0196
3477.00,0.0197
3476.00,0.0198
3475.00,0.0199
3474.00,0.0200
3473.00,0.0201
3472.00,0.0202
3471.00,0.0203
3470.00,0.0205
3469.00,0.0206
3468.00,0.0207
3467.00,0.0208
3466.00,0.0209
3465.00,0.0210
3464.00,0.0211
3463.00,0.0212
3462.00,0.0213
3461.00,0.0215
3460.00,0.0216
3459.00,0.0217
3458.00,0.0218
3457.00,0.0218
3456.00,0.0219
3455.00,0.0220
3454.00,0.0221
3453.00,0.0223
3452.00,0.0224
3451.00,0.0225
3450.00,0.0227
3449.00,0.0228
3448.00,0.0229
3447.00,0.0229
3446.00,0.0230
3445.00,0.0231
3444.00,0.0232
3443.00,0.0233
3442.00,0.0234
3441.00,0.0235
3440.00,0.0237
3439.00,0.0238
3438.00,0.0240
3437.00,0.0241
3436.00,0.0242
3435.00,0.0243
3434.00,0.0244
3433.00,0.0245
3432.00,0.0246
3431.00,0.0247
3430.00,0.0248
3429.00,0.0250
3428.00,0.0251
3427.00,0.0253
3426.00,0.0254
3425.00,0.0255
3424.00,0.0256
3423.00,0.0257
3422.00,0.0258
3421.00,0.0259
3420.00,0.0260
3419.00,0.0262
3418.00,0.0263
3417.00,0.0264
3416.00,0.0265
3415.00,0.0267
3414.00,0.0268
3413.00,0.0269
3412.00,0.0270
3411.00,0.0271
3410.00,0.0273
3409.00,0.0274
3408.00,0.0274
3407.00,0.0275
3406.00,0.0276
3405.00,0.0278
3404.00,0.0279
3403.00,0.0280
3402.00,0.0281
3401.00,0.0282
3400.00,0.0284
3399.00,0.0285
3398.00,0.0286
3397.00,0.0287
3396.00,0.0288
3395.00,0.0289
3394.00,0.0290
3393.00,0.0291
3392.00,0.0293
3391.00,0.0294
3390.00,0.0295
3389.00,0.0297
3388.00,0.0298
3387.00,0.0300
3386.00,0.0301
3385.00,0.0302
3384.00,0.0303
3383.00,0.0304
3382.00,0.0306
3381.00,0.0307
3380.00,0.0308
3379.00,0.0310
3378.00,0.0311
3377.00,0.0313
3376.00,0.0314
3375.00,0.0316
3374.00,0.0317
3373.00,0.0319
3372.00,0.0320
3371.00,0.0322
3370.00,0.0323
3369.00,0.0325
3368.00,0.0326
3367.00,0.0328
3366.00,0.0330
3365.00,0.0331
3364.00,0.0333
3363.00,0.0335
3362.00,0.0336
3361.00,0.0338
3360.00,0.0340
3359.00,0.0342
3358.00,0.0344
3357.00,0.0346
3356.00,0.0348
3355.00,0.0350
3354.00,0.0352
3353.00,0.0354
3352.00,0.0355
3351.00,0.0357
3350.00,0.0359
3349.00,0.0361
3348.00,0.0363
3347.00,0.0366
3346.00,0.0368
3345.00,0.0370
3344.00,0.0372
3343.00,0.0374
3342.00,0.0376
3341.00,0.0378
3340.00,0.0381
3339.00,0.0383
3338.00,0.0385
3337.00,0.0388
3336.00,0.0390
3335.00,0.0393
3334.00,0.0396
3333.00,0.0398
3332.00,0.0401
3331.00,0.0404
3330.00,0.0407
3329.00,0.0410
3328.00,0.0412
3327.00,0.0415
3326.00,0.0418
3325.00,0.0421
3324.00,0.0424
3323.00,0.0427
3322.00,0.0431
3321.00,0.0434
3320.00,0.0438
3319.00,0.0441
3318.00,0.0445
3317.00,0.0448
3316.00,0.0452
3315.00,0.0455
3314.00,0.0459
3313.00,0.0462
3312.00,0.0466
3311.00,0.0469
3310.00,0.0472
3309.00,0.0475
3308.00,0.0479
3307.00,0.0483
3306.00,0.0487
3305.00,0.0491
3304.00,0.0496
3303.00,0.0500
3302.00,0.0505
3301.00,0.0509
3300.00,0.0513
3299.00,0.0517
3298.00,0.0521
3297.00,0.0524
3296.00,0.0528
3295.00,0.0532
3294.00,0.0535
3293.00,0.0539
3292.00,0.0543
3291.00,0.0547
3290.00,0.0551
3289.00,0.0555
3288.00,0.0558
3287.00,0.0562
3286.00,0.0565
3285.00,0.0568
3284.00,0.0571
3283.00,0.0574
3282.00,0.0576
3281.00,0.0579
3280.00,0.0581
3279.00,0.0583
3278.00,0.0584
3277.00,0.0585
3276.00,0.0586
3275.00,0.0586
3274.00,0.0586
3273.00,0.0586
3272.00,0.0585
3271.00,0.0585
3270.00,0.0585
3269.00,0.0584
3268.00,0.0583
3267.00,0.0582
3266.00,0.0580
3265.00,0.0578
3264.00,0.0575
3263.00,0.0572
3262.00,0.0569
3261.00,0.0566
3260.00,0.0563
3259.00,0.0559
3258.00,0.0556
3257.00,0.0552
3256.00,0.0548
3255.00,0.0544
3254.00,0.0541
3253.00,0.0537
3252.00,0.0533
3251.00,0.0529
3250.00,0.0525
3249.00,0.0521
3248.00,0.0517
3247.00,0.0513
3246.00,0.0509
3245.00,0.0506
3244.00,0.0503
3243.00,0.0500
3242.00,0.0496
3241.00,0.0493
3240.00,0.0490
3239.00,0.0486
3238.00,0.0483
3237.00,0.0479
3236.00,0.0475
3235.00,0.0471
3234.00,0.0467
3233.00,0.0465
3232.00,0.0462
3231.00,0.0460
3230.00,0.0458
3229.00,0.0456
3228.00,0.0453
3227.00,0.0450
3226.00,0.0447
3225.00,0.0445
3224.00,0.0442
3223.00,0.0439
3222.00,0.0437
3221.00,0.0434
3220.00,0.0432
3219.00,0.0429
3218.00,0.0427
3217.00,0.0425
3216.00,0.0422
3215.00,0.0420
3214.00,0.0418
3213.00,0.0416
3212.00,0.0414
3211.00,0.0412
3210.00,0.0410
3209.00,0.0407
3208.00,0.0405
3207.00,0.0403
3206.00,0.0401
3205.00,0.0399
3204.00,0.0397
3203.00,0.0395
3202.00,0.0392
3201.00,0.0390
3200.00,0.0388
3199.00,0.0386
3198.00,0.0384
3197.00,0.0382
3196.00,0.0380
3195.00,0.0378
3194.00,0.0376
3193.00,0.0374
3192.00,0.0372
3191.00,0.0370
3190.00,0.0368
3189.00,0.0366
3188.00,0.0364
3187.00,0.0362
3186.00,0.0360
3185.00,0.0358
3184.00,0.0356
3183.00,0.0354
3182.00,0.0352
3181.00,0.0350
3180.00,0.0348
3179.00,0.0346
3178.00,0.0344
3177.00,0.0343
3176.00,0.0341
3175.00,0.0339
3174.00,0.0338
3173.00,0.0336
3172.00,0.0334
3171.00,0.0332
3170.00,0.0330
3169.00,0.0329
3168.00,0.0327
3167.00,0.0325
3166.00,0.0323
3165.00,0.0322
3164.00,0.0320
3163.00,0.0318
3162.00,0.0317
3161.00,0.0315
3160.00,0.0314
3159.00,0.0312
3158.00,0.0311
3157.00,0.0309
3156.00,0.0307
3155.00,0.0305
3154.00,0.0303
3153.00,0.0302
3152.00,0.0300
3151.00,0.0299
3150.00,0.0298
3149.00,0.0298
3148.00,0.0297
3147.00,0.0296
3146.00,0.0295
3145.00,0.0293
3144.00,0.0292
3143.00,0.0291
3142.00,0.0289
3141.00,0.0288
3140.00,0.0287
3139.00,0.0285
3138.00,0.0284
3137.00,0.0284
3136.00,0.0283
3135.00,0.0283
3134.00,0.0282
3133.00,0.0281
3132.00,0.0280
3131.00,0.0279
3130.00,0.0278
3129.00,0.0278
3128.00,0.0277
3127.00,0.0277
3126.00,0.0276
3125.00,0.0276
3124.00,0.0275
3123.00,0.0274
3122.00,0.0273
3121.00,0.0272
3120.00,0.0271
3119.00,0.0271
3118.00,0.0271
3117.00,0.0271
3116.00,0.0271
3115.00,0.0272
3114.00,0.0272
3113.00,0.0273
3112.00,0.0273
3111.00,0.0274
3110.00,0.0274
3109.00,0.0274
3108.00,0.0274
3107.00,0.0275
3106.00,0.0276
3105.00,0.0276
3104.00,0.0277
3103.00,0.0277
3102.00,0.0277
3101.00,0.0278
3100.00,0.0278
3099.00,0.0279
3098.00,0.0280
3097.00,0.0281
3096.00,0.0281
3095.00,0.0282
3094.00,0.0282
3093.00,0.0283
3092.00,0.0283
3091.00,0.0283
3090.00,0.0284
3089.00,0.0284
3088.00,0.0285
3087.00,0.0285
3086.00,0.0285
3085.00,0.0285
3084.00,0.0285
3083.00,0.0285
3082.00,0.0285
3081.00,0.0285
3080.00,0.0285
3079.00,0.0285
3078.00,0.0285
3077.00,0.0286
3076.00,0.0286
3075.00,0.0287
3074.00,0.0287
3073.00,0.0286
3072.00,0.0286
3071.00,0.0285
3070.00,0.0284
3069.00,0.0283
3068.00,0.0282
3067.00,0.0281
3066.00,0.0280
3065.00,0.0280
3064.00,0.0279
3063.00,0.0279
3062.00,0.0278
3061.00,0.0277
3060.00,0.0276
3059.00,0.0274
3058.00,0.0272
3057.00,0.0271
3056.00,0.0269
3055.00,0.0267
3054.00,0.0266
3053.00,0.0264
3052.00,0.0262
3051.00,0.0261
3050.00,0.0259
3049.00,0.0258
3048.00,0.0257
3047.00,0.0255
3046.00,0.0253
3045.00,0.0251
3044.00,0.0249
3043.00,0.0248
3042.00,0.0246
3041.00,0.0245
3040.00,0.0245
3039.00,0.0244
3038.00,0.0243
3037.00,0.0242
3036.00,0.0240
3035.00,0.0238
3034.00,0.0237
3033.00,0.0236
3032.00,0.0235
3031.00,0.0235
3030.00,0.0234
3029.00,0.0233
3028.00,0.0232
3027.00,0.0231
3026.00,0.0229
3025.00,0.0227
3024.00,0.0226
3023.00,0.0224
3022.00,0.0223
3021.00,0.0222
3020.00,0.0220
3019.00,0.0219
3018.00,0.0217
3017.00,0.0216
3016.00,0.0214
3015.00,0.0213
3014.00,0.0212
3013.00,0.0212
3012.00,0.0211
3011.00,0.0211
3010.00,0.0210
3009.00,0.0210
3008.00,0.0210
3007.00,0.0210
3006.00,0.0209
3005.00,0.0208
3004.00,0.0208
3003.00,0.0208
3002.00,0.0208
3001.00,0.0208
3000.00,0.0208
2999.00,0.0208
2998.00,0.0208
2997.00,0.0208
2996.00,0.0209
2995.00,0.0210
2994.00,0.0211
2993.00,0.0213
2992.00,0.0214
2991.00,0.0217
2990.00,0.0219
2989.00,0.0221
2988.00,0.0224
2987.00,0.0226
2986.00,0.0229
2985.00,0.0231
2984.00,0.0233
2983.00,0.0235
2982.00,0.0238
2981.00,0.0241
2980.00,0.0245
2979.00,0.0249
2978.00,0.0254
2977.00,0.0259
2976.00,0.0263
2975.00,0.0267
2974.00,0.0271
2973.00,0.0275
2972.00,0.0279
2971.00,0.0283
2970.00,0.0288
2969.00,0.0292
2968.00,0.0296
2967.00,0.0299
2966.00,0.0302
2965.00,0.0305
2964.00,0.0307
2963.00,0.0309
2962.00,0.0310
2961.00,0.0310
2960.00,0.0310
2959.00,0.0309
2958.00,0.0308
2957.00,0.0306
2956.00,0.0304
2955.00,0.0301
2954.00,0.0299
2953.00,0.0296
2952.00,0.0293
2951.00,0.0291
2950.00,0.0289
2949.00,0.0288
2948.00,0.0287
2947.00,0.0287
2946.00,0.0287
2945.00,0.0289
2944.00,0.0291
2943.00,0.0293
2942.00,0.0296
2941.00,0.0299
2940.00,0.0302
2939.00,0.0306
2938.00,0.0309
2937.00,0.0313
2936.00,0.0316
2935.00,0.0318
2934.00,0.0321
2933.00,0.0323
2932.00,0.0325
2931.00,0.0326
2930.00,0.0327
2929.00,0.0327
2928.00,0.0328
2927.00,0.0328
2926.00,0.0328
2925.00,0.0327
2924.00,0.0326
2923.00,0.0324
2922.00,0.0321
2921.00,0.0318
2920.00,0.0315
2919.00,0.0311
2918.00,0.0306
2917.00,0.0301
2916.00,0.0296
2915.00,0.0291
2914.00,0.0286
2913.00,0.0282
2912.00,0.0277
2911.00,0.0273
2910.00,0.0269
2909.00,0.0265
2908.00,0.0261
2907.00,0.0258
2906.00,0.0254
2905.00,0.0251
2904.00,0.0248
2903.00,0.0246
2902.00,0.0244
2901.00,0.0242
2900.00,0.0240
2899.00,0.0238
2898.00,0.0236
2897.00,0.0234
2896.00,0.0232
2895.00,0.0230
2894.00,0.0228
2893.00,0.0227
2892.00,0.0226
2891.00,0.0224
2890.00,0.0224
2889.00,0.0223
2888.00,0.0223
2887.00,0.0222
2886.00,0.0223
2885.00,0.0223
2884.00,0.0224
2883.00,0.0225
2882.00,0.0227
2881.00,0.0229
2880.00,0.0230
2879.00,0.0231
2878.00,0.0233
2877.00,0.0234
2876.00,0.0234
2875.00,0.0235
2874.00,0.0235
2873.00,0.0234
2872.00,0.0233
2871.00,0.0231
2870.00,0.0229
2869.00,0.0226
2868.00,0.0224
2867.00,0.0221
2866.00,0.0219
2865.00,0.0217
2864.00,0.0215
2863.00,0.0213
2862.00,0.0212
2861.00,0.0211
2860.00,0.0211
2859.00,0.0211
2858.00,0.0212
2857.00,0.0212
2856.00,0.0212
2855.00,0.0212
2854.00,0.0211
2853.00,0.0210
2852.00,0.0208
2851.00,0.0205
2850.00,0.0201
2849.00,0.0197
2848.00,0.0193
2847.00,0.0188
2846.00,0.0184
2845.00,0.0180
2844.00,0.0176
2843.00,0.0173
2842.00,0.0170
2841.00,0.0167
2840.00,0.0165
2839.00,0.0163
2838.00,0.0161
2837.00,0.0159
2836.00,0.0158
2835.00,0.0157
2834.00,0.0155
2833.00,0.0155
2832.00,0.0154
2831.00,0.0153
2830.00,0.0152
2829.00,0.0151
2828.00,0.0151
2827.00,0.0150
2826.00,0.0150
2825.00,0.0149
2824.00,0.0149
2823.00,0.0148
2822.00,0.0147
2821.00,0.0147
2820.00,0.0146
2819.00,0.0146
2818.00,0.0145
2817.00,0.0145
2816.00,0.0144
2815.00,0.0144
2814.00,0.0143
2813.00,0.0143
2812.00,0.0142
2811.00,0.0142
2810.00,0.0141
2809.00,0.0141
2808.00,0.0140
2807.00,0.0140
2806.00,0.0140
2805.00,0.0139
2804.00,0.0139
2803.00,0.0138
2802.00,0.0138
2801.00,0.0137
2800.00,0.0136
2799.00,0.0136
2798.00,0.0135
2797.00,0.0135
2796.00,0.0134
2795.00,0.0134
2794.00,0.0134
2793.00,0.0133
2792.00,0.0132
2791.00,0.0132
2790.00,0.0131
2789.00,0.0131
2788.00,0.0130
2787.00,0.0130
2786.00,0.0130
2785.00,0.0129
2784.00,0.0129
2783.00,0.0128
2782.00,0.0128
2781.00,0.0128
2780.00,0.0127
2779.00,0.0126
2778.00,0.0126
2777.00,0.0126
2776.00,0.0125
2775.00,0.0125
2774.00,0.0124
2773.00,0.0124
2772.00,0.0123
2771.00,0.0123
2770.00,0.0123
2769.00,0.0122
2768.00,0.0121
2767.00,0.0121
2766.00,0.0120
2765.00,0.0120
2764.00,0.0119
2763.00,0.0119
2762.00,0.0118
2761.00,0.0118
2760.00,0.0118
2759.00,0.0117
2758.00,0.0117
2757.00,0.0116
2756.00,0.0116
2755.00,0.0115
2754.00,0.0115
2753.00,0.0114
2752.00,0.0114
2751.00,0.0114
2750.00,0.0113
2749.00,0.0113
2748.00,0.0113
2747.00,0.0112
2746.00,0.0112
2745.00,0.0111
2744.00,0.0111
2743.00,0.0110
2742.00,0.0110
2741.00,0.0109
2740.00,0.0109
2739.00,0.0108
2738.00,0.0108
2737.00,0.0108
2736.00,0.0107
2735.00,0.0107
2734.00,0.0107
2733.00,0.0106
2732.00,0.0106
2731.00,0.0106
2730.00,0.0105
2729.00,0.0104
2728.00,0.0104
2727.00,0.0103
2726.00,0.0103
2725.00,0.0102
2724.00,0.0102
2723.00,0.0102
2722.00,0.0101
2721.00,0.0101
2720.00,0.0100
2719.00,0.0100
2718.00,0.0099
2717.00,0.0099
2716.00,0.0099
2715.00,0.0098
2714.00,0.0098
2713.00,0.0098
2712.00,0.0097
2711.00,0.0097
2710.00,0.0096
2709.00,0.0096
2708.00,0.0096
2707.00,0.0095
2706.00,0.0095
2705.00,0.0095
2704.00,0.0095
2703.00,0.0094
2702.00,0.0094
2701.00,0.0094
2700.00,0.0093
2699.00,0.0093
2698.00,0.0093
2697.00,0.0092
2696.00,0.0092
2695.00,0.0092
2694.00,0.0092
2693.00,0.0092
2692.00,0.0092
2691.00,0.0092
2690.00,0.0092
2689.00,0.0092
2688.00,0.0092
2687.00,0.0091
2686.00,0.0091
2685.00,0.0091
2684.00,0.0091
2683.00,0.0090
2682.00,0.0090
2681.00,0.0090
2680.00,0.0090
2679.00,0.0090
2678.00,0.0090
2677.00,0.0090
2676.00,0.0089
2675.00,0.0089
2674.00,0.0089
2673.00,0.0089
2672.00,0.0089
2671.00,0.0089
2670.00,0.0089
2669.00,0.0089
2668.00,0.0089
2667.00,0.0089
2666.00,0.0089
2665.00,0.0090
2664.00,0.0090
2663.00,0.0090
2662.00,0.0090
2661.00,0.0090
2660.00,0.0090
2659.00,0.0090
2658.00,0.0090
2657.00,0.0090
2656.00,0.0090
2655.00,0.0090
2654.00,0.0090
2653.00,0.0090
2652.00,0.0090
2651.00,0.0090
2650.00,0.0090
2649.00,0.0089
2648.00,0.0089
2647.00,0.0089
2646.00,0.0089
2645.00,0.0089
2644.00,0.0088
2643.00,0.0088
2642.00,0.0088
2641.00,0.0088
2640.00,0.0087
2639.00,0.0087
2638.00,0.0087
2637.00,0.0087
2636.00,0.0087
2635.00,0.0087
2634.00,0.0086
2633.00,0.0086
2632.00,0.0086
2631.00,0.0086
2630.00,0.0085
2629.00,0.0085
2628.00,0.0085
2627.00,0.0085
2626.00,0.0085
2625.00,0.0084
2624.00,0.0084
2623.00,0.0083
2622.00,0.0083
2621.00,0.0083
2620.00,0.0082
2619.00,0.0082
2618.00,0.0082
2617.00,0.0082
2616.00,0.0082
2615.00,0.0082
2614.00,0.0081
2613.00,0.0081
2612.00,0.0081
2611.00,0.0081
2610.00,0.0081
2609.00,0.0080
2608.00,0.0080
2607.00,0.0080
2606.00,0.0079
2605.00,0.0079
2604.00,0.0079
2603.00,0.0078
2602.00,0.0078
2601.00,0.0078
2600.00,0.0078
2599.00,0.0077
2598.00,0.0077
2597.00,0.0076
2596.00,0.0076
2595.00,0.0076
2594.00,0.0075
2593.00,0.0075
2592.00,0.0075
2591.00,0.0075
2590.00,0.0074
2589.00,0.0074
2588.00,0.0073
2587.00,0.0073
2586.00,0.0073
2585.00,0.0073
2584.00,0.0073
2583.00,0.0073
2582.00,0.0073
2581.00,0.0073
2580.00,0.0072
2579.00,0.0072
2578.00,0.0071
2577.00,0.0071
2576.00,0.0071
2575.00,0.0071
2574.00,0.0070
2573.00,0.0070
2572.00,0.0069
2571.00,0.0069
2570.00,0.0069
2569.00,0.0069
2568.00,0.0069
2567.00,0.0069
2566.00,0.0068
2565.00,0.0068
2564.00,0.0068
2563.00,0.0068
2562.00,0.0067
2561.00,0.0067
2560.00,0.0068
2559.00,0.0067
2558.00,0.0067
2557.00,0.0067
2556.00,0.0067
2555.00,0.0066
2554.00,0.0066
2553.00,0.0066
2552.00,0.0065
2551.00,0.0065
2550.00,0.0065
2549.00,0.0065
2548.00,0.0065
2547.00,0.0064
2546.00,0.0064
2545.00,0.0064
2544.00,0.0064
2543.00,0.0064
2542.00,0.0063
2541.00,0.0064
2540.00,0.0063
2539.00,0.0063
2538.00,0.0063
2537.00,0.0062
2536.00,0.0062
2535.00,0.0062
2534.00,0.0062
2533.00,0.0062
2532.00,0.0062
2531.00,0.0062
2530.00,0.0062
2529.00,0.0062
2528.00,0.0062
2527.00,0.0061
2526.00,0.0061
2525.00,0.0061
2524.00,0.0061
2523.00,0.0061
2522.00,0.0061
2521.00,0.0061
2520.00,0.0061
2519.00,0.0061
2518.00,0.0061
2517.00,0.0060
2516.00,0.0060
2515.00,0.0060
2514.00,0.0060
2513.00,0.0059
2512.00,0.0059
2511.00,0.0059
2510.00,0.0059
2509.00,0.0060
2508.00,0.0060
2507.00,0.0059
2506.00,0.0059
2505.00,0.0059
2504.00,0.0058
2503.00,0.0058
2502.00,0.0058
2501.00,0.0058
2500.00,0.0057
2499.00,0.0057
2498.00,0.0057
2497.00,0.0057
2496.00,0.0057
2495.00,0.0057
2494.00,0.0056
2493.00,0.0056
2492.00,0.0056
2491.00,0.0056
2490.00,0.0056
2489.00,0.0055
2488.00,0.0055
2487.00,0.0055
2486.00,0.0055
2485.00,0.0055
2484.00,0.0055
2483.00,0.0054
2482.00,0.0054
2481.00,0.0053
2480.00,0.0053
2479.00,0.0053
2478.00,0.0053
2477.00,0.0053
2476.00,0.0053
2475.00,0.0053
2474.00,0.0053
2473.00,0.0053
2472.00,0.0053
2471.00,0.0052
2470.00,0.0052
2469.00,0.0052
2468.00,0.0052
2467.00,0.0052
2466.00,0.0052
2465.00,0.0052
2464.00,0.0052
2463.00,0.0052
2462.00,0.0052
2461.00,0.0052
2460.00,0.0052
2459.00,0.0052
2458.00,0.0052
2457.00,0.0052
2456.00,0.0051
2455.00,0.0051
2454.00,0.0051
2453.00,0.0051
2452.00,0.0051
2451.00,0.0051
2450.00,0.0050
2449.00,0.0050
2448.00,0.0050
2447.00,0.0050
2446.00,0.0049
2445.00,0.0049
2444.00,0.0048
2443.00,0.0048
2442.00,0.0048
2441.00,0.0048
2440.00,0.0048
2439.00,0.0048
2438.00,0.0048
2437.00,0.0047
2436.00,0.0047
2435.00,0.0046
2434.00,0.0046
2433.00,0.0046
2432.00,0.0046
2431.00,0.0046
2430.00,0.0046
2429.00,0.0045
2428.00,0.0045
2427.00,0.0044
2426.00,0.0044
2425.00,0.0044
2424.00,0.0044
2423.00,0.0044
2422.00,0.0043
2421.00,0.0043
2420.00,0.0043
2419.00,0.0043
2418.00,0.0043
2417.00,0.0043
2416.00,0.0043
2415.00,0.0042
2414.00,0.0042
2413.00,0.0042
2412.00,0.0042
2411.00,0.0042
2410.00,0.0042
2409.00,0.0041
2408.00,0.0041
2407.00,0.0040
2406.00,0.0039
2405.00,0.0039
2404.00,0.0039
2403.00,0.0039
2402.00,0.0039
2401.00,0.0039
2400.00,0.0039
2399.00,0.0039
2398.00,0.0039
2397.00,0.0039
2396.00,0.0038
2395.00,0.0038
2394.00,0.0038
2393.00,0.0038
2392.00,0.0038
2391.00,0.0038
2390.00,0.0037
2389.00,0.0037
2388.00,0.0037
2387.00,0.0036
2386.00,0.0036
2385.00,0.0035
2384.00,0.0035
2383.00,0.0034
2382.00,0.0034
2381.00,0.0034
2380.00,0.0034
2379.00,0.0034
2378.00,0.0034
2377.00,0.0034
2376.00,0.0034
2375.00,0.0034
2374.00,0.0033
2373.00,0.0033
2372.00,0.0033
2371.00,0.0032
2370.00,0.0032
2369.00,0.0032
2368.00,0.0032
2367.00,0.0032
2366.00,0.0033
2365.00,0.0033
2364.00,0.0033
2363.00,0.0033
2362.00,0.0034
2361.00,0.0034
2360.00,0.0034
2359.00,0.0034
2358.00,0.0034
2357.00,0.0034
2356.00,0.0033
2355.00,0.0033
2354.00,0.0034
2353.00,0.0034
2352.00,0.0033
2351.00,0.0033
2350.00,0.0033
2349.00,0.0034
2348.00,0.0036
2347.00,0.0037
2346.00,0.0038
2345.00,0.0038
2344.00,0.0037
2343.00,0.0036
2342.00,0.0036
2341.00,0.0036
2340.00,0.0036
2339.00,0.0036
2338.00,0.0036
2337.00,0.0036
2336.00,0.0036
2335.00,0.0036
2334.00,0.0036
2333.00,0.0035
2332.00,0.0035
2331.00,0.0034
2330.00,0.0034
2329.00,0.0036
2328.00,0.0039
2327.00,0.0043
2326.00,0.0046
2325.00,0.0048
2324.00,0.0047
2323.00,0.0045
2322.00,0.0043
2321.00,0.0041
2320.00,0.0040
2319.00,0.0039
2318.00,0.0038
2317.00,0.0038
2316.00,0.0038
2315.00,0.0038
2314.00,0.0038
2313.00,0.0038
2312.00,0.0037
2311.00,0.0036
2310.00,0.0036
2309.00,0.0036
2308.00,0.0036
2307.00,0.0036
2306.00,0.0036
2305.00,0.0036
2304.00,0.0037
2303.00,0.0037
2302.00,0.0037
2301.00,0.0037
2300.00,0.0038
2299.00,0.0038
2298.00,0.0039
2297.00,0.0039
2296.00,0.0040
2295.00,0.0040
2294.00,0.0040
2293.00,0.0041
2292.00,0.0042
2291.00,0.0043
2290.00,0.0044
2289.00,0.0044
2288.00,0.0045
2287.00,0.0045
2286.00,0.0045
2285.00,0.0045
2284.00,0.0044
2283.00,0.0044
2282.00,0.0043
2281.00,0.0043
2280.00,0.0042
2279.00,0.0042
2278.00,0.0041
2277.00,0.0041
2276.00,0.0040
2275.00,0.0040
2274.00,0.0039
2273.00,0.0038
2272.00,0.0038
2271.00,0.0037
2270.00,0.0037
2269.00,0.0036
2268.00,0.0036
2267.00,0.0035
2266.00,0.0034
2265.00,0.0034
2264.00,0.0034
2263.00,0.0034
2262.00,0.0035
2261.00,0.0035
2260.00,0.0035
2259.00,0.0035
2258.00,0.0035
2257.00,0.0034
2256.00,0.0034
2255.00,0.0033
2254.00,0.0033
2253.00,0.0033
2252.00,0.0033
2251.00,0.0033
2250.00,0.0033
2249.00,0.0033
2248.00,0.0034
2247.00,0.0034
2246.00,0.0034
2245.00,0.0034
2244.00,0.0034
2243.00,0.0034
2242.00,0.0034
2241.00,0.0034
2240.00,0.0033
2239.00,0.0033
2238.00,0.0033
2237.00,0.0033
2236.00,0.0033
2235.00,0.0033
2234.00,0.0033
2233.00,0.0033
2232.00,0.0033
2231.00,0.0033
2230.00,0.0033
2229.00,0.0033
2228.00,0.0033
2227.00,0.0032
2226.00,0.0031
2225.00,0.0031
2224.00,0.0032
2223.00,0.0032
2222.00,0.0032
2221.00,0.0032
2220.00,0.0031
2219.00,0.0030
2218.00,0.0030
2217.00,0.0031
2216.00,0.0032
2215.00,0.0033
2214.00,0.0033
2213.00,0.0032
2212.00,0.0032
2211.00,0.0031
2210.00,0.0030
2209.00,0.0029
2208.00,0.0030
2207.00,0.0030
2206.00,0.0029
2205.00,0.0029
2204.00,0.0030
2203.00,0.0031
2202.00,0.0032
2201.00,0.0033
2200.00,0.0034
2199.00,0.0033
2198.00,0.0032
2197.00,0.0032
2196.00,0.0032
2195.00,0.0033
2194.00,0.0033
2193.00,0.0034
2192.00,0.0035
2191.00,0.0035
2190.00,0.0035
2189.00,0.0035
2188.00,0.0035
2187.00,0.0035
2186.00,0.0033
2185.00,0.0031
2184.00,0.0029
2183.00,0.0027
2182.00,0.0027
2181.00,0.0028
2180.00,0.0030
2179.00,0.0031
2178.00,0.0029
2177.00,0.0027
2176.00,0.0025
2175.00,0.0024
2174.00,0.0025
2173.00,0.0029
2172.00,0.0033
2171.00,0.0036
2170.00,0.0037
2169.00,0.0038
2168.00,0.0038
2167.00,0.0037
2166.00,0.0036
2165.00,0.0037
2164.00,0.0040
2163.00,0.0040
2162.00,0.0035
2161.00,0.0023
2160.00,0.0008
2159.00,-0.0004
2158.00,-0.0010
2157.00,-0.0010
2156.00,-0.0006
2155.00,-0.0001
2154.00,0.0003
2153.00,0.0007
2152.00,0.0011
2151.00,0.0013
2150.00,0.0013
2149.00,0.0013
2148.00,0.0012
2147.00,0.0010
2146.00,0.0009
2145.00,0.0009
2144.00,0.0011
2143.00,0.0012
2142.00,0.0012
2141.00,0.0014
2140.00,0.0016
2139.00,0.0016
2138.00,0.0015
2137.00,0.0013
2136.00,0.0010
2135.00,0.0009
2134.00,0.0008
2133.00,0.0009
2132.00,0.0011
2131.00,0.0012
2130.00,0.0014
2129.00,0.0016
2128.00,0.0018
2127.00,0.0020
2126.00,0.0021
2125.00,0.0022
2124.00,0.0023
2123.00,0.0024
2122.00,0.0025
2121.00,0.0026
2120.00,0.0027
2119.00,0.0028
2118.00,0.0028
2117.00,0.0029
2116.00,0.0030
2115.00,0.0031
2114.00,0.0031
2113.00,0.0032
2112.00,0.0032
2111.00,0.0032
2110.00,0.0031
2109.00,0.0030
2108.00,0.0030
2107.00,0.0030
2106.00,0.0030
2105.00,0.0030
2104.00,0.0031
2103.00,0.0031
2102.00,0.0031
2101.00,0.0031
2100.00,0.0031
2099.00,0.0030
2098.00,0.0029
2097.00,0.0028
2096.00,0.0028
2095.00,0.0027
2094.00,0.0027
2093.00,0.0027
2092.00,0.0028
2091.00,0.0029
2090.00,0.0030
2089.00,0.0030
2088.00,0.0031
2087.00,0.0031
2086.00,0.0031
2085.00,0.0031
2084.00,0.0032
2083.00,0.0031
2082.00,0.0031
2081.00,0.0032
2080.00,0.0033
2079.00,0.0034
2078.00,0.0034
2077.00,0.0033
2076.00,0.0033
2075.00,0.0032
2074.00,0.0031
2073.00,0.0031
2072.00,0.0030
2071.00,0.0030
2070.00,0.0030
2069.00,0.0029
2068.00,0.0030
2067.00,0.0030
2066.00,0.0029
2065.00,0.0029
2064.00,0.0030
2063.00,0.0030
2062.00,0.0030
2061.00,0.0030
2060.00,0.0030
2059.00,0.0030
2058.00,0.0030
2057.00,0.0031
2056.00,0.0031
2055.00,0.0032
2054.00,0.0035
2053.00,0.0039
2052.00,0.0042
2051.00,0.0042
2050.00,0.0038
2049.00,0.0035
2048.00,0.0033
2047.00,0.0032
2046.00,0.0031
2045.00,0.0031
2044.00,0.0032
2043.00,0.0032
2042.00,0.0032
2041.00,0.0032
2040.00,0.0033
2039.00,0.0033
2038.00,0.0031
2037.00,0.0029
2036.00,0.0028
2035.00,0.0026
2034.00,0.0024
2033.00,0.0023
2032.00,0.0022
2031.00,0.0021
2030.00,0.0020
2029.00,0.0020
2028.00,0.0021
2027.00,0.0021
2026.00,0.0019
2025.00,0.0018
2024.00,0.0017
2023.00,0.0017
2022.00,0.0016
2021.00,0.0017
2020.00,0.0019
2019.00,0.0021
2018.00,0.0021
2017.00,0.0021
2016.00,0.0021
2015.00,0.0020
2014.00,0.0019
2013.00,0.0019
2012.00,0.0019
2011.00,0.0020
2010.00,0.0019
2009.00,0.0018
2008.00,0.0016
2007.00,0.0014
2006.00,0.0012
2005.00,0.0012
2004.00,0.0013
2003.00,0.0014
2002.00,0.0015
2001.00,0.0017
2000.00,0.0019
1999.00,0.0021
1998.00,0.0022
1997.00,0.0024
1996.00,0.0025
1995.00,0.0026
1994.00,0.0025
1993.00,0.0025
1992.00,0.0026
1991.00,0.0028
1990.00,0.0029
1989.00,0.0029
1988.00,0.0028
1987.00,0.0028
1986.00,0.0027
1985.00,0.0028
1984.00,0.0030
1983.00,0.0033
1982.00,0.0035
1981.00,0.0036
1980.00,0.0035
1979.00,0.0030
1978.00,0.0024
1977.00,0.0019
1976.00,0.0017
1975.00,0.0015
1974.00,0.0013
1973.00,0.0012
1972.00,0.0012
1971.00,0.0012
1970.00,0.0012
1969.00,0.0013
1968.00,0.0015
1967.00,0.0016
1966.00,0.0016
1965.00,0.0016
1964.00,0.0017
1963.00,0.0016
1962.00,0.0014
1961.00,0.0013
1960.00,0.0013
1959.00,0.0012
1958.00,0.0011
1957.00,0.0011
1956.00,0.0012
1955.00,0.0014
1954.00,0.0015
1953.00,0.0016
1952.00,0.0016
1951.00,0.0016
1950.00,0.0015
1949.00,0.0015
1948.00,0.0016
1947.00,0.0017
1946.00,0.0017
1945.00,0.0017
1944.00,0.0018
1943.00,0.0018
1942.00,0.0018
1941.00,0.0018
1940.00,0.0018
1939.00,0.0019
1938.00,0.0019
1937.00,0.0019
1936.00,0.0020
1935.00,0.0020
1934.00,0.0020
1933.00,0.0020
1932.00,0.0020
1931.00,0.0020
1930.00,0.0019
1929.00,0.0018
1928.00,0.0018
1927.00,0.0018
1926.00,0.0019
1925.00,0.0020
1924.00,0.0022
1923.00,0.0023
1922.00,0.0024
1921.00,0.0024
1920.00,0.0024
1919.00,0.0024
1918.00,0.0024
1917.00,0.0024
1916.00,0.0024
1915.00,0.0023
1914.00,0.0023
1913.00,0.0023
1912.00,0.0023
1911.00,0.0023
1910.00,0.0023
1909.00,0.0024
1908.00,0.0025
1907.00,0.0025
1906.00,0.0025
1905.00,0.0024
1904.00,0.0024
1903.00,0.0024
1902.00,0.0024
1901.00,0.0024
1900.00,0.0025
1899.00,0.0025
1898.00,0.0025
1897.00,0.0025
1896.00,0.0026
1895.00,0.0026
1894.00,0.0025
1893.00,0.0025
1892.00,0.0025
1891.00,0.0025
1890.00,0.0026
1889.00,0.0026
1888.00,0.0026
1887.00,0.0026
1886.00,0.0026
1885.00,0.0026
1884.00,0.0027
1883.00,0.0028
1882.00,0.0027
1881.00,0.0027
1880.00,0.0027
1879.00,0.0027
1878.00,0.0026
1877.00,0.0026
1876.00,0.0027
1875.00,0.0027
1874.00,0.0027
1873.00,0.0026
1872.00,0.0026
1871.00,0.0025
1870.00,0.0025
1869.00,0.0025
1868.00,0.0026
1867.00,0.0026
1866.00,0.0025
1865.00,0.0026
1864.00,0.0026
1863.00,0.0027
1862.00,0.0027
1861.00,0.0027
1860.00,0.0028
1859.00,0.0028
1858.00,0.0028
1857.00,0.0028
1856.00,0.0029
1855.00,0.0029
1854.00,0.0028
1853.00,0.0028
1852.00,0.0028
1851.00,0.0027
1850.00,0.0027
1849.00,0.0027
1848.00,0.0027
1847.00,0.0027
1846.00,0.0027
1845.00,0.0029
1844.00,0.0031
1843.00,0.0031
1842.00,0.0030
1841.00,0.0029
1840.00,0.0029
1839.00,0.0030
1838.00,0.0030
1837.00,0.0031
1836.00,0.0031
1835.00,0.0031
1834.00,0.0030
1833.00,0.0029
1832.00,0.0029
1831.00,0.0030
1830.00,0.0030
1829.00,0.0030
1828.00,0.0030
1827.00,0.0030
1826.00,0.0030
1825.00,0.0031
1824.00,0.0033
1823.00,0.0033
1822.00,0.0033
1821.00,0.0033
1820.00,0.0034
1819.00,0.0033
1818.00,0.0032
1817.00,0.0031
1816.00,0.0032
1815.00,0.0032
1814.00,0.0033
1813.00,0.0033
1812.00,0.0034
1811.00,0.0035
1810.00,0.0035
1809.00,0.0036
1808.00,0.0036
1807.00,0.0037
1806.00,0.0037
1805.00,0.0038
1804.00,0.0038
1803.00,0.0038
1802.00,0.0038
1801.00,0.0039
1800.00,0.0040
1799.00,0.0040
1798.00,0.0040
1797.00,0.0040
1796.00,0.0040
1795.00,0.0040
1794.00,0.0040
1793.00,0.0042
1792.00,0.0043
1791.00,0.0044
1790.00,0.0044
1789.00,0.0044
1788.00,0.0045
1787.00,0.0045
1786.00,0.0045
1785.00,0.0046
1784.00,0.0046
1783.00,0.0047
1782.00,0.0047
1781.00,0.0048
1780.00,0.0049
1779.00,0.0049
1778.00,0.0048
1777.00,0.0048
1776.00,0.0048
1775.00,0.0049
1774.00,0.0050
1773.00,0.0052
1772.00,0.0054
1771.00,0.0054
1770.00,0.0054
1769.00,0.0055
1768.00,0.0058
1767.00,0.0059
1766.00,0.0059
1765.00,0.0059
1764.00,0.0061
1763.00,0.0063
1762.00,0.0065
1761.00,0.0067
1760.00,0.0068
1759.00,0.0070
1758.00,0.0072
1757.00,0.0075
1756.00,0.0078
1755.00,0.0080
1754.00,0.0082
1753.00,0.0085
1752.00,0.0089
1751.00,0.0093
1750.00,0.0095
1749.00,0.0098
1748.00,0.0101
1747.00,0.0105
1746.00,0.0109
1745.00,0.0113
1744.00,0.0117
1743.00,0.0121
1742.00,0.0124
1741.00,0.0129
1740.00,0.0135
1739.00,0.0140
1738.00,0.0142
1737.00,0.0145
1736.00,0.0151
1735.00,0.0158
1734.00,0.0165
1733.00,0.0170
1732.00,0.0171
1731.00,0.0173
1730.00,0.0175
1729.00,0.0179
1728.00,0.0182
1727.00,0.0186
1726.00,0.0189
1725.00,0.0192
1724.00,0.0195
1723.00,0.0198
1722.00,0.0200
1721.00,0.0202
1720.00,0.0206
1719.00,0.0211
1718.00,0.0217
1717.00,0.0221
1716.00,0.0225
1715.00,0.0228
1714.00,0.0231
1713.00,0.0235
1712.00,0.0241
1711.00,0.0247
1710.00,0.0254
1709.00,0.0261
1708.00,0.0269
1707.00,0.0280
1706.00,0.0294
1705.00,0.0309
1704.00,0.0326
1703.00,0.0342
1702.00,0.0364
1701.00,0.0397
1700.00,0.0438
1699.00,0.0473
1698.00,0.0498
1697.00,0.0522
1696.00,0.0548
1695.00,0.0568
1694.00,0.0580
1693.00,0.0588
1692.00,0.0598
1691.00,0.0609
1690.00,0.0621
1689.00,0.0633
1688.00,0.0647
1687.00,0.0662
1686.00,0.0679
1685.00,0.0699
1684.00,0.0719
1683.00,0.0737
1682.00,0.0752
1681.00,0.0769
1680.00,0.0788
1679.00,0.0806
1678.00,0.0823
1677.00,0.0841
1676.00,0.0861
1675.00,0.0881
1674.00,0.0900
1673.00,0.0918
1672.00,0.0937
1671.00,0.0956
1670.00,0.0977
1669.00,0.0998
1668.00,0.1020
1667.00,0.1040
1666.00,0.1060
1665.00,0.1080
1664.00,0.1102
1663.00,0.1123
1662.00,0.1144
1661.00,0.1165
1660.00,0.1187
1659.00,0.1208
1658.00,0.1228
1657.00,0.1248
1656.00,0.1269
1655.00,0.1290
1654.00,0.1307
1653.00,0.1317
1652.00,0.1327
1651.00,0.1337
1650.00,0.1347
1649.00,0.1358
1648.00,0.1369
1647.00,0.1375
1646.00,0.1379
1645.00,0.1386
1644.00,0.1396
1643.00,0.1407
1642.00,0.1418
1641.00,0.1429
1640.00,0.1441
1639.00,0.1455
1638.00,0.1470
1637.00,0.1485
1636.00,0.1501
1635.00,0.1518
1634.00,0.1538
1633.00,0.1562
1632.00,0.1590
1631.00,0.1619
1630.00,0.1647
1629.00,0.1676
1628.00,0.1707
1627.00,0.1737
1626.00,0.1766
1625.00,0.1791
1624.00,0.1813
1623.00,0.1829
1622.00,0.1839
1621.00,0.1847
1620.00,0.1853
1619.00,0.1854
1618.00,0.1841
1617.00,0.1806
1616.00,0.1760
1615.00,0.1716
1614.00,0.1677
1613.00,0.1637
1612.00,0.1592
1611.00,0.1540
1610.00,0.1483
1609.00,0.1425
1608.00,0.1367
1607.00,0.1311
1606.00,0.1260
1605.00,0.1212
1604.00,0.1165
1603.00,0.1121
1602.00,0.1081
1601.00,0.1044
1600.00,0.1010
1599.00,0.0979
1598.00,0.0952
1597.00,0.0927
1596.00,0.0903
1595.00,0.0880
1594.00,0.0860
1593.00,0.0842
1592.00,0.0825
1591.00,0.0810
1590.00,0.0796
1589.00,0.0785
1588.00,0.0775
1587.00,0.0766
1586.00,0.0760
1585.00,0.0756
1584.00,0.0752
1583.00,0.0750
1582.00,0.0750
1581.00,0.0751
1580.00,0.0753
1579.00,0.0757
1578.00,0.0765
1577.00,0.0775
1576.00,0.0784
1575.00,0.0792
1574.00,0.0800
1573.00,0.0810
1572.00,0.0821
1571.00,0.0834
1570.00,0.0849
1569.00,0.0866
1568.00,0.0882
1567.00,0.0898
1566.00,0.0915
1565.00,0.0933
1564.00,0.0951
1563.00,0.0968
1562.00,0.0986
1561.00,0.1005
1560.00,0.1025
1559.00,0.1046
1558.00,0.1068
1557.00,0.1090
1556.00,0.1109
1555.00,0.1130
1554.00,0.1152
1553.00,0.1174
1552.00,0.1194
1551.00,0.1213
1550.00,0.1234
1549.00,0.1255
1548.00,0.1275
1547.00,0.1294
1546.00,0.1313
1545.00,0.1331
1544.00,0.1349
1543.00,0.1365
1542.00,0.1382
1541.00,0.1399
1540.00,0.1414
1539.00,0.1428
1538.00,0.1443
1537.00,0.1457
1536.00,0.1471
1535.00,0.1484
1534.00,0.1496
1533.00,0.1505
1532.00,0.1515
1531.00,0.1526
1530.00,0.1537
1529.00,0.1546
1528.00,0.1553
1527.00,0.1557
1526.00,0.1560
1525.00,0.1563
1524.00,0.1566
1523.00,0.1569
1522.00,0.1568
1521.00,0.1564
1520.00,0.1561
1519.00,0.1562
1518.00,0.1562
1517.00,0.1559
1516.00,0.1552
1515.00,0.1544
1514.00,0.1532
1513.00,0.1516
1512.00,0.1494
1511.00,0.1469
1510.00,0.1446
1509.00,0.1422
1508.00,0.1388
1507.00,0.1340
1506.00,0.1290
1505.00,0.1255
1504.00,0.1229
1503.00,0.1207
1502.00,0.1183
1501.00,0.1157
1500.00,0.1130
1499.00,0.1102
1498.00,0.1073
1497.00,0.1042
1496.00,0.1009
1495.00,0.0979
1494.00,0.0953
1493.00,0.0928
1492.00,0.0903
1491.00,0.0875
1490.00,0.0845
1489.00,0.0817
1488.00,0.0793
1487.00,0.0773
1486.00,0.0755
1485.00,0.0739
1484.00,0.0724
1483.00,0.0711
1482.00,0.0699
1481.00,0.0688
1480.00,0.0679
1479.00,0.0674
1478.00,0.0670
1477.00,0.0668
1476.00,0.0669
1475.00,0.0672
1474.00,0.0679
1473.00,0.0688
1472.00,0.0700
1471.00,0.0711
1470.00,0.0720
1469.00,0.0726
1468.00,0.0732
1467.00,0.0735
1466.00,0.0737
1465.00,0.0738
1464.00,0.0740
1463.00,0.0743
1462.00,0.0746
1461.00,0.0750
1460.00,0.0755
1459.00,0.0762
1458.00,0.0772
1457.00,0.0784
1456.00,0.0794
1455.00,0.0800
1454.00,0.0804
1453.00,0.0806
1452.00,0.0808
1451.00,0.0809
1450.00,0.0809
1449.00,0.0808
1448.00,0.0806
1447.00,0.0804
1446.00,0.0801
1445.00,0.0799
1444.00,0.0796
1443.00,0.0793
1442.00,0.0789
1441.00,0.0785
1440.00,0.0781
1439.00,0.0777
1438.00,0.0770
1437.00,0.0761
1436.00,0.0749
1435.00,0.0739
1434.00,0.0729
1433.00,0.0720
1432.00,0.0711
1431.00,0.0702
1430.00,0.0693
1429.00,0.0686
1428.00,0.0681
1427.00,0.0678
1426.00,0.0676
1425.00,0.0676
1424.00,0.0676
1423.00,0.0678
1422.00,0.0681
1421.00,0.0686
1420.00,0.0692
1419.00,0.0699
1418.00,0.0707
1417.00,0.0714
1416.00,0.0721
1415.00,0.0730
1414.00,0.0738
1413.00,0.0746
1412.00,0.0753
1411.00,0.0760
1410.00,0.0766
1409.00,0.0771
1408.00,0.0776
1407.00,0.0781
1406.00,0.0785
1405.00,0.0789
1404.00,0.0792
1403.00,0.0795
1402.00,0.0798
1401.00,0.0800
1400.00,0.0802
1399.00,0.0803
1398.00,0.0805
1397.00,0.0806
1396.00,0.0808
1395.00,0.0810
1394.00,0.0812
1393.00,0.0814
1392.00,0.0816
1391.00,0.0817
1390.00,0.0818
1389.00,0.0818
1388.00,0.0816
1387.00,0.0812
1386.00,0.0806
1385.00,0.0800
1384.00,0.0792
1383.00,0.0784
1382.00,0.0776
1381.00,0.0767
1380.00,0.0758
1379.00,0.0750
1378.00,0.0742
1377.00,0.0735
1376.00,0.0728
1375.00,0.0722
1374.00,0.0716
1373.00,0.0712
1372.00,0.0710
1371.00,0.0707
1370.00,0.0704
1369.00,0.0700
1368.00,0.0693
1367.00,0.0686
1366.00,0.0678
1365.00,0.0670
1364.00,0.0661
1363.00,0.0653
1362.00,0.0646
1361.00,0.0640
1360.00,0.0636
1359.00,0.0633
1358.00,0.0630
1357.00,0.0627
1356.00,0.0625
1355.00,0.0624
1354.00,0.0623
1353.00,0.0622
1352.00,0.0622
1351.00,0.0621
1350.00,0.0621
1349.00,0.0621
1348.00,0.0621
1347.00,0.0621
1346.00,0.0621
1345.00,0.0621
1344.00,0.0621
1343.00,0.0620
1342.00,0.0620
1341.00,0.0619
1340.00,0.0618
1339.00,0.0616
1338.00,0.0615
1337.00,0.0614
1336.00,0.0613
1335.00,0.0611
1334.00,0.0609
1333.00,0.0607
1332.00,0.0606
1331.00,0.0604
1330.00,0.0603
1329.00,0.0603
1328.00,0.0602
1327.00,0.0602
1326.00,0.0603
1325.00,0.0603
1324.00,0.0604
1323.00,0.0606
1322.00,0.0607
1321.00,0.0609
1320.00,0.0610
1319.00,0.0612
1318.00,0.0614
1317.00,0.0615
1316.00,0.0616
1315.00,0.0617
1314.00,0.0618
1313.00,0.0618
1312.00,0.0618
1311.00,0.0618
1310.00,0.0617
1309.00,0.0617
1308.00,0.0617
1307.00,0.0616
1306.00,0.0616
1305.00,0.0615
1304.00,0.0615
1303.00,0.0615
1302.00,0.0615
1301.00,0.0615
1300.00,0.0615
1299.00,0.0616
1298.00,0.0617
1297.00,0.0619
1296.00,0.0621
1295.00,0.0624
1294.00,0.0627
1293.00,0.0630
1292.00,0.0632
1291.00,0.0635
1290.00,0.0638
1289.00,0.0641
1288.00,0.0644
1287.00,0.0647
1286.00,0.0650
1285.00,0.0653
1284.00,0.0656
1283.00,0.0658
1282.00,0.0661
1281.00,0.0663
1280.00,0.0665
1279.00,0.0667
1278.00,0.0668
1277.00,0.0669
1276.00,0.0671
1275.00,0.0672
1274.00,0.0673
1273.00,0.0674
1272.00,0.0676
1271.00,0.0679
1270.00,0.0681
1269.00,0.0684
1268.00,0.0688
1267.00,0.0692
1266.00,0.0697
1265.00,0.0702
1264.00,0.0708
1263.00,0.0714
1262.00,0.0720
1261.00,0.0727
1260.00,0.0734
1259.00,0.0740
1258.00,0.0747
1257.00,0.0754
1256.00,0.0761
1255.00,0.0768
1254.00,0.0775
1253.00,0.0782
1252.00,0.0790
1251.00,0.0797
1250.00,0.0805
1249.00,0.0812
1248.00,0.0820
1247.00,0.0827
1246.00,0.0834
1245.00,0.0842
1244.00,0.0849
1243.00,0.0856
1242.00,0.0862
1241.00,0.0869
1240.00,0.0875
1239.00,0.0882
1238.00,0.0887
1237.00,0.0892
1236.00,0.0897
1235.00,0.0901
1234.00,0.0905
1233.00,0.0907
1232.00,0.0909
1231.00,0.0911
1230.00,0.0911
1229.00,0.0911
1228.00,0.0910
1227.00,0.0909
1226.00,0.0907
1225.00,0.0904
1224.00,0.0901
1223.00,0.0897
1222.00,0.0893
1221.00,0.0887
1220.00,0.0882
1219.00,0.0875
1218.00,0.0868
1217.00,0.0860
1216.00,0.0851
1215.00,0.0842
1214.00,0.0832
1213.00,0.0823
1212.00,0.0813
1211.00,0.0803
1210.00,0.0793
1209.00,0.0783
1208.00,0.0773
1207.00,0.0764
1206.00,0.0755
1205.00,0.0747
1204.00,0.0739
1203.00,0.0731
1202.00,0.0724
1201.00,0.0718
1200.00,0.0711
1199.00,0.0706
1198.00,0.0701
1197.00,0.0696
1196.00,0.0692
1195.00,0.0688
1194.00,0.0685
1193.00,0.0682
1192.00,0.0678
1191.00,0.0675
1190.00,0.0673
1189.00,0.0670
1188.00,0.0668
1187.00,0.0666
1186.00,0.0664
1185.00,0.0663
1184.00,0.0662
1183.00,0.0662
1182.00,0.0662
1181.00,0.0663
1180.00,0.0665
1179.00,0.0667
1178.00,0.0671
1177.00,0.0675
1176.00,0.0679
1175.00,0.0685
1174.00,0.0690
1173.00,0.0695
1172.00,0.0699
1171.00,0.0702
1170.00,0.0704
1169.00,0.0704
1168.00,0.0705
1167.00,0.0705
1166.00,0.0706
1165.00,0.0706
1164.00,0.0707
1163.00,0.0708
1162.00,0.0709
1161.00,0.0710
1160.00,0.0710
1159.00,0.0710
1158.00,0.0710
1157.00,0.0709
1156.00,0.0707
1155.00,0.0705
1154.00,0.0702
1153.00,0.0698
1152.00,0.0693
1151.00,0.0688
1150.00,0.0682
1149.00,0.0676
1148.00,0.0669
1147.00,0.0663
1146.00,0.0656
1145.00,0.0649
1144.00,0.0643
1143.00,0.0637
1142.00,0.0632
1141.00,0.0628
1140.00,0.0624
1139.00,0.0621
1138.00,0.0618
1137.00,0.0616
1136.00,0.0615
1135.00,0.0615
1134.00,0.0615
1133.00,0.0617
1132.00,0.0619
1131.00,0.0622
1130.00,0.0624
1129.00,0.0627
1128.00,0.0630
1127.00,0.0633
1126.00,0.0636
1125.00,0.0639
1124.00,0.0642
1123.00,0.0645
1122.00,0.0647
1121.00,0.0650
1120.00,0.0652
1119.00,0.0654
1118.00,0.0657
1117.00,0.0659
1116.00,0.0662
1115.00,0.0663
1114.00,0.0664
1113.00,0.0666
1112.00,0.0667
1111.00,0.0669
1110.00,0.0670
1109.00,0.0672
1108.00,0.0673
1107.00,0.0675
1106.00,0.0676
1105.00,0.0678
1104.00,0.0680
1103.00,0.0683
1102.00,0.0686
1101.00,0.0688
1100.00,0.0691
1099.00,0.0695
1098.00,0.0699
1097.00,0.0703
1096.00,0.0708
1095.00,0.0713
1094.00,0.0719
1093.00,0.0726
1092.00,0.0733
1091.00,0.0741
1090.00,0.0749
1089.00,0.0759
1088.00,0.0768
1087.00,0.0778
1086.00,0.0788
1085.00,0.0797
1084.00,0.0808
1083.00,0.0818
1082.00,0.0828
1081.00,0.0837
1080.00,0.0844
1079.00,0.0851
1078.00,0.0856
1077.00,0.0860
1076.00,0.0863
1075.00,0.0865
1074.00,0.0866
1073.00,0.0867
1072.00,0.0867
1071.00,0.0867
1070.00,0.0867
1069.00,0.0867
1068.00,0.0868
1067.00,0.0869
1066.00,0.0870
1065.00,0.0871
1064.00,0.0872
1063.00,0.0874
1062.00,0.0876
1061.00,0.0877
1060.00,0.0878
1059.00,0.0878
1058.00,0.0879
1057.00,0.0879
1056.00,0.0879
1055.00,0.0878
1054.00,0.0876
1053.00,0.0874
1052.00,0.0872
1051.00,0.0870
1050.00,0.0867
1049.00,0.0865
1048.00,0.0862
1047.00,0.0858
1046.00,0.0854
1045.00,0.0850
1044.00,0.0846
1043.00,0.0842
1042.00,0.0838
1041.00,0.0834
1040.00,0.0829
1039.00,0.0824
1038.00,0.0819
1037.00,0.0815
1036.00,0.0811
1035.00,0.0808
1034.00,0.0805
1033.00,0.0802
1032.00,0.0801
1031.00,0.0798
1030.00,0.0796
1029.00,0.0792
1028.00,0.0788
1027.00,0.0784
1026.00,0.0779
1025.00,0.0773
1024.00,0.0767
1023.00,0.0761
1022.00,0.0754
1021.00,0.0747
1020.00,0.0740
1019.00,0.0732
1018.00,0.0725
1017.00,0.0717
1016.00,0.0709
1015.00,0.0701
1014.00,0.0694
1013.00,0.0686
1012.00,0.0678
1011.00,0.0671
1010.00,0.0663
1009.00,0.0655
1008.00,0.0647
1007.00,0.0639
1006.00,0.0631
1005.00,0.0624
1004.00,0.0617
1003.00,0.0610
1002.00,0.0604
1001.00,0.0597
1000.00,0.0591
999.00,0.0585
998.00,0.0579
997.00,0.0572
996.00,0.0566
995.00,0.0560
994.00,0.0554
993.00,0.0549
992.00,0.0543
991.00,0.0537
990.00,0.0532
989.00,0.0527
988.00,0.0522
987.00,0.0517
986.00,0.0513
985.00,0.0509
984.00,0.0505
983.00,0.0502
982.00,0.0500
981.00,0.0499
980.00,0.0497
979.00,0.0497
978.00,0.0497
977.00,0.0498
976.00,0.0499
975.00,0.0500
974.00,0.0501
973.00,0.0502
972.00,0.0503
971.00,0.0504
970.00,0.0505
969.00,0.0505
968.00,0.0505
967.00,0.0505
966.00,0.0505
965.00,0.0506
964.00,0.0506
963.00,0.0505
962.00,0.0505
961.00,0.0504
960.00,0.0503
959.00,0.0503
958.00,0.0501
957.00,0.0500
956.00,0.0499
955.00,0.0498
954.00,0.0497
953.00,0.0497
952.00,0.0496
951.00,0.0495
950.00,0.0495
949.00,0.0495
948.00,0.0496
947.00,0.0497
946.00,0.0498
945.00,0.0499
944.00,0.0501
943.00,0.0502
942.00,0.0504
941.00,0.0507
940.00,0.0509
939.00,0.0512
938.00,0.0515
937.00,0.0518
936.00,0.0520
935.00,0.0522
934.00,0.0524
933.00,0.0525
932.00,0.0526
931.00,0.0526
930.00,0.0527
929.00,0.0526
928.00,0.0525
927.00,0.0524
926.00,0.0523
925.00,0.0521
924.00,0.0519
923.00,0.0517
922.00,0.0515
921.00,0.0512
920.00,0.0510
919.00,0.0508
918.00,0.0506
917.00,0.0504
916.00,0.0502
915.00,0.0500
914.00,0.0498
913.00,0.0496
912.00,0.0494
911.00,0.0492
910.00,0.0491
909.00,0.0490
908.00,0.0489
907.00,0.0488
906.00,0.0487
905.00,0.0486
904.00,0.0485
903.00,0.0484
902.00,0.0483
901.00,0.0482
900.00,0.0481
899.00,0.0481
898.00,0.0480
897.00,0.0479
896.00,0.0478
895.00,0.0477
894.00,0.0476
893.00,0.0476
892.00,0.0476
891.00,0.0476
890.00,0.0476
889.00,0.0476
888.00,0.0476
887.00,0.0476
886.00,0.0476
885.00,0.0476
884.00,0.0476
883.00,0.0476
882.00,0.0476
881.00,0.0476
880.00,0.0476
879.00,0.0475
878.00,0.0475
877.00,0.0475
876.00,0.0474
875.00,0.0474
874.00,0.0473
873.00,0.0472
872.00,0.0470
871.00,0.0469
870.00,0.0468
869.00,0.0468
868.00,0.0468
867.00,0.0469
866.00,0.0470
865.00,0.0471
864.00,0.0472
863.00,0.0474
862.00,0.0476
861.00,0.0479
860.00,0.0482
859.00,0.0486
858.00,0.0490
857.00,0.0494
856.00,0.0498
855.00,0.0502
854.00,0.0505
853.00,0.0508
852.00,0.0511
851.00,0.0514
850.00,0.0515
849.00,0.0516
848.00,0.0516
847.00,0.0516
846.00,0.0517
845.00,0.0518
844.00,0.0520
843.00,0.0522
842.00,0.0525
841.00,0.0529
840.00,0.0532
839.00,0.0537
838.00,0.0541
837.00,0.0546
836.00,0.0550
835.00,0.0555
834.00,0.0560
833.00,0.0565
832.00,0.0570
831.00,0.0575
830.00,0.0579
829.00,0.0583
828.00,0.0586
827.00,0.0588
826.00,0.0590
825.00,0.0590
824.00,0.0591
823.00,0.0591
822.00,0.0592
821.00,0.0593
820.00,0.0595
819.00,0.0597
818.00,0.0599
817.00,0.0602
816.00,0.0604
815.00,0.0607
814.00,0.0610
813.00,0.0613
812.00,0.0616
811.00,0.0620
810.00,0.0624
809.00,0.0628
808.00,0.0631
807.00,0.0634
806.00,0.0638
805.00,0.0641
804.00,0.0645
803.00,0.0649
802.00,0.0653
801.00,0.0657
800.00,0.0661
799.00,0.0666
798.00,0.0671
797.00,0.0676
796.00,0.0682
795.00,0.0688
794.00,0.0695
793.00,0.0702
792.00,0.0709
791.00,0.0717
790.00,0.0725
789.00,0.0732
788.00,0.0740
787.00,0.0747
786.00,0.0754
785.00,0.0761
784.00,0.0768
783.00,0.0775
782.00,0.0780
781.00,0.0783
780.00,0.0787
779.00,0.0790
778.00,0.0793
777.00,0.0796
776.00,0.0799
775.00,0.0802
774.00,0.0804
773.00,0.0807
772.00,0.0810
771.00,0.0813
770.00,0.0815
769.00,0.0818
768.00,0.0820
767.00,0.0822
766.00,0.0824
765.00,0.0826
764.00,0.0829
763.00,0.0831
762.00,0.0834
761.00,0.0838
760.00,0.0842
759.00,0.0846
758.00,0.0851
757.00,0.0856
756.00,0.0861
755.00,0.0866
754.00,0.0872
753.00,0.0878
752.00,0.0885
751.00,0.0892
750.00,0.0899
749.00,0.0905
748.00,0.0912
747.00,0.0918
746.00,0.0923
745.00,0.0928
744.00,0.0933
743.00,0.0938
742.00,0.0942
741.00,0.0946
740.00,0.0950
739.00,0.0955
738.00,0.0959
737.00,0.0964
736.00,0.0969
735.00,0.0976
734.00,0.0982
733.00,0.0989
732.00,0.0997
731.00,0.1006
730.00,0.1017
729.00,0.1028
728.00,0.1040
727.00,0.1053
726.00,0.1066
725.00,0.1079
724.00,0.1094
723.00,0.1108
722.00,0.1122
721.00,0.1135
720.00,0.1148
719.00,0.1160
718.00,0.1172
717.00,0.1183
716.00,0.1194
715.00,0.1205
714.00,0.1215
713.00,0.1225
712.00,0.1236
711.00,0.1246
710.00,0.1257
709.00,0.1269
708.00,0.1280
707.00,0.1292
706.00,0.1305
705.00,0.1318
704.00,0.1332
703.00,0.1345
702.00,0.1357
701.00,0.1367
700.00,0.1377
699.00,0.1384
698.00,0.1388
697.00,0.1390
696.00,0.1390
695.00,0.1388
694.00,0.1386
693.00,0.1384
692.00,0.1382
691.00,0.1382
690.00,0.1382
689.00,0.1382
688.00,0.1382
687.00,0.1383
686.00,0.1384
685.00,0.1385
684.00,0.1387
683.00,0.1388
682.00,0.1389
681.00,0.1390
680.00,0.1392
679.00,0.1394
678.00,0.1396
677.00,0.1398
676.00,0.1401
675.00,0.1403
674.00,0.1406
673.00,0.1409
672.00,0.1411
671.00,0.1413
670.00,0.1415
669.00,0.1417
668.00,0.1421
667.00,0.1425
666.00,0.1429
665.00,0.1433
664.00,0.1437
663.00,0.1441
662.00,0.1444
661.00,0.1446
660.00,0.1449
659.00,0.1452
658.00,0.1455
657.00,0.1457
656.00,0.1460
655.00,0.1462
654.00,0.1464
653.00,0.1465
652.00,0.1467
651.00,0.1469
650.00,0.1471
649.00,0.1474
648.00,0.1477
647.00,0.1480
646.00,0.1483
645.00,0.1486
644.00,0.1490
643.00,0.1495
642.00,0.1498
641.00,0.1501
640.00,0.1504
639.00,0.1507
638.00,0.1510
637.00,0.1514
636.00,0.1518
635.00,0.1523
634.00,0.1527
633.00,0.1532
632.00,0.1537
631.00,0.1542
630.00,0.1545
629.00,0.1549
628.00,0.1553
627.00,0.1557
626.00,0.1560
625.00,0.1563
624.00,0.1567
623.00,0.1569
622.00,0.1570
621.00,0.1571
620.00,0.1572
619.00,0.1574
618.00,0.1576
617.00,0.1577
616.00,0.1578
615.00,0.1580
614.00,0.1580
613.00,0.1581
612.00,0.1582
611.00,0.1583
610.00,0.1583
609.00,0.1584
608.00,0.1585
607.00,0.1585
606.00,0.1585
605.00,0.1586
604.00,0.1588
603.00,0.1590
602.00,0.1591
601.00,0.1593
600.00,0.1595
599.00,0.1598
598.00,0.1600
597.00,0.1601
596.00,0.1602
595.00,0.1603
594.00,0.1604
593.00,0.1607
592.00,0.1611
591.00,0.1615
590.00,0.1617
589.00,0.1620
588.00,0.1622
587.00,0.1624
586.00,0.1626
585.00,0.1630
584.00,0.1634
583.00,0.1639
582.00,0.1642
581.00,0.1645
580.00,0.1650
579.00,0.1654
578.00,0.1659
577.00,0.1663
576.00,0.1668
575.00,0.1672
574.00,0.1674
573.00,0.1675
572.00,0.1678
571.00,0.1682
570.00,0.1685
569.00,0.1688
568.00,0.1693
567.00,0.1698
566.00,0.1702
565.00,0.1707
564.00,0.1712
563.00,0.1718
562.00,0.1722
561.00,0.1726
560.00,0.1730
559.00,0.1732
558.00,0.1735
557.00,0.1738
556.00,0.1744
555.00,0.1750
554.00,0.1754
553.00,0.1757
552.00,0.1761
551.00,0.1766
550.00,0.1771
549.00,0.1777
548.00,0.1784
547.00,0.1789
546.00,0.1793
545.00,0.1796
544.00,0.1800
543.00,0.1804
542.00,0.1807
541.00,0.1810
540.00,0.1814
539.00,0.1819
538.00,0.1823
537.00,0.1827
536.00,0.1831
535.00,0.1834
534.00,0.1836
533.00,0.1839
532.00,0.1841
531.00,0.1844
530.00,0.1845
529.00,0.1848
528.00,0.1851
527.00,0.1854
526.00,0.1855
525.00,0.1856
524.00,0.1860
523.00,0.1863
522.00,0.1865
521.00,0.1868
520.00,0.1873
519.00,0.1877
518.00,0.1880
517.00,0.1882
516.00,0.1885
515.00,0.1887
514.00,0.1887
513.00,0.1889
512.00,0.1893
511.00,0.1897
510.00,0.1900
509.00,0.1901
508.00,0.1903
507.00,0.1905
506.00,0.1906
505.00,0.1907
504.00,0.1908
503.00,0.1907
502.00,0.1905
501.00,0.1906
500.00,0.1910
499.00,0.1914
498.00,0.1915
497.00,0.1914
496.00,0.1916
495.00,0.1917
494.00,0.1918
493.00,0.1918
492.00,0.1918
491.00,0.1918
490.00,0.1915
489.00,0.1913
488.00,0.1912
487.00,0.1912
486.00,0.1912
485.00,0.1912
484.00,0.1916
483.00,0.1919
482.00,0.1919
481.00,0.1919
480.00,0.1920
479.00,0.1921
478.00,0.1920
477.00,0.1920
476.00,0.1919
475.00,0.1917
474.00,0.1913
473.00,0.1912
472.00,0.1914
471.00,0.1916
470.00,0.1914
469.00,0.1912
468.00,0.1912
467.00,0.1914
466.00,0.1916
465.00,0.1918
464.00,0.1920
463.00,0.1921
462.00,0.1917
461.00,0.1915
460.00,0.1914
459.00,0.1914
458.00,0.1913
457.00,0.1914
456.00,0.1918
455.00,0.1918
454.00,0.1914
453.00,0.1907
452.00,0.1902
451.00,0.1896
450.00,0.1890
449.00,0.1888
448.00,0.1890
447.00,0.1892
446.00,0.1888
445.00,0.1881
444.00,0.1876
443.00,0.1873
442.00,0.1871
441.00,0.1870
440.00,0.1870
439.00,0.1864
438.00,0.1852
437.00,0.1840
436.00,0.1833
435.00,0.1829
434.00,0.1824
433.00,0.1821
432.00,0.1820
431.00,0.1820
430.00,0.1819
429.00,0.1822
428.00,0.1828
427.00,0.1833
426.00,0.1831
425.00,0.1828
424.00,0.1829
423.00,0.1829
422.00,0.1823
421.00,0.1818
420.00,0.1818
419.00,0.1820
418.00,0.1815
417.00,0.1810
416.00,0.1809
415.00,0.1811
414.00,0.1809
413.00,0.1807
412.00,0.1804
411.00,0.1795
410.00,0.1780
409.00,0.1773
408.00,0.1781
407.00,0.1793
406.00,0.1796
405.00,0.1790
404.00,0.1780
403.00,0.1767
402.00,0.1750
401.00,0.1735
400.00,0.1727
