Created as New Dataset,Sample 064 By YargerLab Date Wednesday, August 13 2025
cm-1,A
4000.00,0.0021
3999.00,0.0021
3998.00,0.0021
3997.00,0.0021
3996.00,0.0021
3995.00,0.0021
3994.00,0.0021
3993.00,0.0021
3992.00,0.0021
3991.00,0.0021
3990.00,0.0021
3989.00,0.0021
3988.00,0.0021
3987.00,0.0021
3986.00,0.0021
3985.00,0.0021
3984.00,0.0021
3983.00,0.0021
3982.00,0.0021
3981.00,0.0020
3980.00,0.0020
3979.00,0.0021
3978.00,0.0021
3977.00,0.0021
3976.00,0.0021
3975.00,0.0021
3974.00,0.0021
3973.00,0.0021
3972.00,0.0021
3971.00,0.0021
3970.00,0.0021
3969.00,0.0021
3968.00,0.0021
3967.00,0.0020
3966.00,0.0020
3965.00,0.0021
3964.00,0.0021
3963.00,0.0021
3962.00,0.0021
3961.00,0.0021
3960.00,0.0021
3959.00,0.0021
3958.00,0.0021
3957.00,0.0021
3956.00,0.0021
3955.00,0.0021
3954.00,0.0021
3953.00,0.0020
3952.00,0.0020
3951.00,0.0020
3950.00,0.0021
3949.00,0.0021
3948.00,0.0021
3947.00,0.0021
3946.00,0.0021
3945.00,0.0020
3944.00,0.0020
3943.00,0.0020
3942.00,0.0020
3941.00,0.0020
3940.00,0.0020
3939.00,0.0020
3938.00,0.0020
3937.00,0.0020
3936.00,0.0020
3935.00,0.0020
3934.00,0.0020
3933.00,0.0021
3932.00,0.0021
3931.00,0.0021
3930.00,0.0021
3929.00,0.0021
3928.00,0.0020
3927.00,0.0020
3926.00,0.0020
3925.00,0.0021
3924.00,0.0021
3923.00,0.0021
3922.00,0.0021
3921.00,0.0021
3920.00,0.0020
3919.00,0.0020
3918.00,0.0020
3917.00,0.0020
3916.00,0.0020
3915.00,0.0020
3914.00,0.0020
3913.00,0.0020
3912.00,0.0020
3911.00,0.0020
3910.00,0.0020
3909.00,0.0020
3908.00,0.0020
3907.00,0.0020
3906.00,0.0019
3905.00,0.0019
3904.00,0.0019
3903.00,0.0019
3902.00,0.0019
3901.00,0.0019
3900.00,0.0019
3899.00,0.0019
3898.00,0.0019
3897.00,0.0019
3896.00,0.0019
3895.00,0.0019
3894.00,0.0019
3893.00,0.0019
3892.00,0.0019
3891.00,0.0019
3890.00,0.0018
3889.00,0.0018
3888.00,0.0018
3887.00,0.0018
3886.00,0.0019
3885.00,0.0019
3884.00,0.0019
3883.00,0.0019
3882.00,0.0019
3881.00,0.0019
3880.00,0.0019
3879.00,0.0019
3878.00,0.0019
3877.00,0.0018
3876.00,0.0018
3875.00,0.0018
3874.00,0.0018
3873.00,0.0018
3872.00,0.0018
3871.00,0.0018
3870.00,0.0018
3869.00,0.0018
3868.00,0.0018
3867.00,0.0018
3866.00,0.0018
3865.00,0.0018
3864.00,0.0019
3863.00,0.0019
3862.00,0.0019
3861.00,0.0019
3860.00,0.0019
3859.00,0.0019
3858.00,0.0019
3857.00,0.0019
3856.00,0.0018
3855.00,0.0018
3854.00,0.0017
3853.00,0.0017
3852.00,0.0017
3851.00,0.0017
3850.00,0.0017
3849.00,0.0018
3848.00,0.0019
3847.00,0.0019
3846.00,0.0019
3845.00,0.0019
3844.00,0.0019
3843.00,0.0019
3842.00,0.0019
3841.00,0.0018
3840.00,0.0018
3839.00,0.0018
3838.00,0.0018
3837.00,0.0018
3836.00,0.0018
3835.00,0.0018
3834.00,0.0018
3833.00,0.0018
3832.00,0.0019
3831.00,0.0019
3830.00,0.0019
3829.00,0.0019
3828.00,0.0019
3827.00,0.0019
3826.00,0.0019
3825.00,0.0019
3824.00,0.0019
3823.00,0.0018
3822.00,0.0018
3821.00,0.0018
3820.00,0.0018
3819.00,0.0018
3818.00,0.0017
3817.00,0.0017
3816.00,0.0017
3815.00,0.0018
3814.00,0.0018
3813.00,0.0018
3812.00,0.0018
3811.00,0.0019
3810.00,0.0019
3809.00,0.0019
3808.00,0.0019
3807.00,0.0018
3806.00,0.0018
3805.00,0.0018
3804.00,0.0018
3803.00,0.0017
3802.00,0.0017
3801.00,0.0018
3800.00,0.0018
3799.00,0.0018
3798.00,0.0018
3797.00,0.0018
3796.00,0.0019
3795.00,0.0020
3794.00,0.0020
3793.00,0.0020
3792.00,0.0020
3791.00,0.0020
3790.00,0.0020
3789.00,0.0020
3788.00,0.0019
3787.00,0.0019
3786.00,0.0019
3785.00,0.0019
3784.00,0.0020
3783.00,0.0020
3782.00,0.0020
3781.00,0.0019
3780.00,0.0019
3779.00,0.0020
3778.00,0.0020
3777.00,0.0020
3776.00,0.0020
3775.00,0.0020
3774.00,0.0021
3773.00,0.0021
3772.00,0.0021
3771.00,0.0020
3770.00,0.0020
3769.00,0.0020
3768.00,0.0020
3767.00,0.0020
3766.00,0.0020
3765.00,0.0020
3764.00,0.0021
3763.00,0.0020
3762.00,0.0020
3761.00,0.0020
3760.00,0.0020
3759.00,0.0020
3758.00,0.0020
3757.00,0.0020
3756.00,0.0020
3755.00,0.0020
3754.00,0.0020
3753.00,0.0020
3752.00,0.0019
3751.00,0.0019
3750.00,0.0019
3749.00,0.0018
3748.00,0.0018
3747.00,0.0018
3746.00,0.0018
3745.00,0.0018
3744.00,0.0018
3743.00,0.0018
3742.00,0.0018
3741.00,0.0018
3740.00,0.0019
3739.00,0.0019
3738.00,0.0019
3737.00,0.0019
3736.00,0.0019
3735.00,0.0019
3734.00,0.0019
3733.00,0.0018
3732.00,0.0018
3731.00,0.0019
3730.00,0.0019
3729.00,0.0020
3728.00,0.0020
3727.00,0.0020
3726.00,0.0020
3725.00,0.0020
3724.00,0.0020
3723.00,0.0020
3722.00,0.0020
3721.00,0.0020
3720.00,0.0020
3719.00,0.0020
3718.00,0.0020
3717.00,0.0020
3716.00,0.0020
3715.00,0.0020
3714.00,0.0020
3713.00,0.0020
3712.00,0.0020
3711.00,0.0020
3710.00,0.0020
3709.00,0.0020
3708.00,0.0020
3707.00,0.0020
3706.00,0.0020
3705.00,0.0021
3704.00,0.0021
3703.00,0.0021
3702.00,0.0021
3701.00,0.0021
3700.00,0.0021
3699.00,0.0021
3698.00,0.0021
3697.00,0.0021
3696.00,0.0022
3695.00,0.0022
3694.00,0.0022
3693.00,0.0022
3692.00,0.0022
3691.00,0.0022
3690.00,0.0022
3689.00,0.0023
3688.00,0.0024
3687.00,0.0024
3686.00,0.0025
3685.00,0.0026
3684.00,0.0027
3683.00,0.0028
3682.00,0.0028
3681.00,0.0029
3680.00,0.0029
3679.00,0.0029
3678.00,0.0028
3677.00,0.0028
3676.00,0.0029
3675.00,0.0029
3674.00,0.0029
3673.00,0.0030
3672.00,0.0030
3671.00,0.0031
3670.00,0.0032
3669.00,0.0032
3668.00,0.0033
3667.00,0.0033
3666.00,0.0034
3665.00,0.0035
3664.00,0.0035
3663.00,0.0036
3662.00,0.0037
3661.00,0.0037
3660.00,0.0038
3659.00,0.0038
3658.00,0.0038
3657.00,0.0039
3656.00,0.0039
3655.00,0.0039
3654.00,0.0040
3653.00,0.0040
3652.00,0.0041
3651.00,0.0041
3650.00,0.0042
3649.00,0.0043
3648.00,0.0043
3647.00,0.0044
3646.00,0.0046
3645.00,0.0047
3644.00,0.0048
3643.00,0.0050
3642.00,0.0051
3641.00,0.0052
3640.00,0.0053
3639.00,0.0054
3638.00,0.0054
3637.00,0.0055
3636.00,0.0056
3635.00,0.0056
3634.00,0.0057
3633.00,0.0058
3632.00,0.0058
3631.00,0.0059
3630.00,0.0060
3629.00,0.0061
3628.00,0.0062
3627.00,0.0062
3626.00,0.0063
3625.00,0.0064
3624.00,0.0065
3623.00,0.0066
3622.00,0.0067
3621.00,0.0068
3620.00,0.0069
3619.00,0.0071
3618.00,0.0072
3617.00,0.0072
3616.00,0.0073
3615.00,0.0074
3614.00,0.0075
3613.00,0.0076
3612.00,0.0077
3611.00,0.0079
3610.00,0.0080
3609.00,0.0081
3608.00,0.0082
3607.00,0.0083
3606.00,0.0084
3605.00,0.0085
3604.00,0.0087
3603.00,0.0088
3602.00,0.0090
3601.00,0.0091
3600.00,0.0092
3599.00,0.0093
3598.00,0.0094
3597.00,0.0095
3596.00,0.0097
3595.00,0.0098
3594.00,0.0100
3593.00,0.0101
3592.00,0.0102
3591.00,0.0103
3590.00,0.0105
3589.00,0.0106
3588.00,0.0107
3587.00,0.0109
3586.00,0.0110
3585.00,0.0112
3584.00,0.0113
3583.00,0.0114
3582.00,0.0116
3581.00,0.0117
3580.00,0.0119
3579.00,0.0121
3578.00,0.0122
3577.00,0.0123
3576.00,0.0125
3575.00,0.0126
3574.00,0.0128
3573.00,0.0129
3572.00,0.0131
3571.00,0.0132
3570.00,0.0134
3569.00,0.0136
3568.00,0.0137
3567.00,0.0139
3566.00,0.0141
3565.00,0.0142
3564.00,0.0144
3563.00,0.0145
3562.00,0.0147
3561.00,0.0149
3560.00,0.0150
3559.00,0.0151
3558.00,0.0153
3557.00,0.0154
3556.00,0.0156
3555.00,0.0157
3554.00,0.0159
3553.00,0.0160
3552.00,0.0162
3551.00,0.0164
3550.00,0.0165
3549.00,0.0167
3548.00,0.0169
3547.00,0.0170
3546.00,0.0172
3545.00,0.0173
3544.00,0.0174
3543.00,0.0175
3542.00,0.0176
3541.00,0.0178
3540.00,0.0179
3539.00,0.0181
3538.00,0.0182
3537.00,0.0183
3536.00,0.0185
3535.00,0.0186
3534.00,0.0187
3533.00,0.0188
3532.00,0.0189
3531.00,0.0191
3530.00,0.0192
3529.00,0.0193
3528.00,0.0195
3527.00,0.0196
3526.00,0.0198
3525.00,0.0199
3524.00,0.0200
3523.00,0.0201
3522.00,0.0202
3521.00,0.0203
3520.00,0.0205
3519.00,0.0206
3518.00,0.0207
3517.00,0.0209
3516.00,0.0210
3515.00,0.0211
3514.00,0.0212
3513.00,0.0213
3512.00,0.0214
3511.00,0.0214
3510.00,0.0216
3509.00,0.0217
3508.00,0.0218
3507.00,0.0219
3506.00,0.0220
3505.00,0.0222
3504.00,0.0222
3503.00,0.0223
3502.00,0.0224
3501.00,0.0225
3500.00,0.0227
3499.00,0.0228
3498.00,0.0229
3497.00,0.0230
3496.00,0.0231
3495.00,0.0232
3494.00,0.0233
3493.00,0.0234
3492.00,0.0235
3491.00,0.0236
3490.00,0.0238
3489.00,0.0238
3488.00,0.0239
3487.00,0.0240
3486.00,0.0241
3485.00,0.0241
3484.00,0.0242
3483.00,0.0243
3482.00,0.0244
3481.00,0.0244
3480.00,0.0245
3479.00,0.0246
3478.00,0.0247
3477.00,0.0248
3476.00,0.0249
3475.00,0.0249
3474.00,0.0250
3473.00,0.0251
3472.00,0.0251
3471.00,0.0252
3470.00,0.0254
3469.00,0.0255
3468.00,0.0256
3467.00,0.0256
3466.00,0.0257
3465.00,0.0257
3464.00,0.0258
3463.00,0.0258
3462.00,0.0259
3461.00,0.0260
3460.00,0.0261
3459.00,0.0262
3458.00,0.0262
3457.00,0.0262
3456.00,0.0263
3455.00,0.0263
3454.00,0.0264
3453.00,0.0264
3452.00,0.0265
3451.00,0.0266
3450.00,0.0266
3449.00,0.0267
3448.00,0.0267
3447.00,0.0268
3446.00,0.0268
3445.00,0.0269
3444.00,0.0269
3443.00,0.0270
3442.00,0.0270
3441.00,0.0271
3440.00,0.0272
3439.00,0.0272
3438.00,0.0273
3437.00,0.0274
3436.00,0.0275
3435.00,0.0275
3434.00,0.0275
3433.00,0.0275
3432.00,0.0275
3431.00,0.0276
3430.00,0.0276
3429.00,0.0277
3428.00,0.0277
3427.00,0.0277
3426.00,0.0277
3425.00,0.0278
3424.00,0.0278
3423.00,0.0278
3422.00,0.0279
3421.00,0.0279
3420.00,0.0280
3419.00,0.0280
3418.00,0.0281
3417.00,0.0281
3416.00,0.0282
3415.00,0.0282
3414.00,0.0282
3413.00,0.0283
3412.00,0.0283
3411.00,0.0283
3410.00,0.0283
3409.00,0.0284
3408.00,0.0284
3407.00,0.0284
3406.00,0.0284
3405.00,0.0284
3404.00,0.0284
3403.00,0.0284
3402.00,0.0284
3401.00,0.0284
3400.00,0.0285
3399.00,0.0285
3398.00,0.0285
3397.00,0.0285
3396.00,0.0285
3395.00,0.0285
3394.00,0.0284
3393.00,0.0284
3392.00,0.0285
3391.00,0.0285
3390.00,0.0285
3389.00,0.0285
3388.00,0.0285
3387.00,0.0285
3386.00,0.0285
3385.00,0.0285
3384.00,0.0285
3383.00,0.0285
3382.00,0.0284
3381.00,0.0284
3380.00,0.0284
3379.00,0.0283
3378.00,0.0283
3377.00,0.0283
3376.00,0.0283
3375.00,0.0283
3374.00,0.0283
3373.00,0.0283
3372.00,0.0282
3371.00,0.0281
3370.00,0.0280
3369.00,0.0279
3368.00,0.0279
3367.00,0.0279
3366.00,0.0279
3365.00,0.0280
3364.00,0.0280
3363.00,0.0280
3362.00,0.0279
3361.00,0.0279
3360.00,0.0279
3359.00,0.0279
3358.00,0.0279
3357.00,0.0279
3356.00,0.0279
3355.00,0.0279
3354.00,0.0278
3353.00,0.0277
3352.00,0.0276
3351.00,0.0276
3350.00,0.0276
3349.00,0.0277
3348.00,0.0277
3347.00,0.0277
3346.00,0.0276
3345.00,0.0276
3344.00,0.0275
3343.00,0.0275
3342.00,0.0274
3341.00,0.0274
3340.00,0.0273
3339.00,0.0272
3338.00,0.0272
3337.00,0.0272
3336.00,0.0273
3335.00,0.0274
3334.00,0.0274
3333.00,0.0275
3332.00,0.0275
3331.00,0.0275
3330.00,0.0274
3329.00,0.0274
3328.00,0.0273
3327.00,0.0272
3326.00,0.0272
3325.00,0.0272
3324.00,0.0272
3323.00,0.0273
3322.00,0.0274
3321.00,0.0274
3320.00,0.0275
3319.00,0.0275
3318.00,0.0275
3317.00,0.0275
3316.00,0.0275
3315.00,0.0275
3314.00,0.0274
3313.00,0.0274
3312.00,0.0273
3311.00,0.0272
3310.00,0.0270
3309.00,0.0269
3308.00,0.0268
3307.00,0.0267
3306.00,0.0267
3305.00,0.0269
3304.00,0.0270
3303.00,0.0272
3302.00,0.0274
3301.00,0.0274
3300.00,0.0274
3299.00,0.0274
3298.00,0.0273
3297.00,0.0272
3296.00,0.0271
3295.00,0.0271
3294.00,0.0271
3293.00,0.0272
3292.00,0.0273
3291.00,0.0274
3290.00,0.0275
3289.00,0.0276
3288.00,0.0276
3287.00,0.0276
3286.00,0.0276
3285.00,0.0276
3284.00,0.0276
3283.00,0.0276
3282.00,0.0276
3281.00,0.0276
3280.00,0.0276
3279.00,0.0275
3278.00,0.0274
3277.00,0.0273
3276.00,0.0272
3275.00,0.0272
3274.00,0.0271
3273.00,0.0270
3272.00,0.0269
3271.00,0.0269
3270.00,0.0269
3269.00,0.0270
3268.00,0.0271
3267.00,0.0271
3266.00,0.0272
3265.00,0.0272
3264.00,0.0271
3263.00,0.0271
3262.00,0.0270
3261.00,0.0270
3260.00,0.0270
3259.00,0.0269
3258.00,0.0268
3257.00,0.0268
3256.00,0.0268
3255.00,0.0267
3254.00,0.0267
3253.00,0.0267
3252.00,0.0267
3251.00,0.0266
3250.00,0.0266
3249.00,0.0265
3248.00,0.0264
3247.00,0.0264
3246.00,0.0263
3245.00,0.0263
3244.00,0.0263
3243.00,0.0263
3242.00,0.0263
3241.00,0.0263
3240.00,0.0262
3239.00,0.0262
3238.00,0.0261
3237.00,0.0261
3236.00,0.0260
3235.00,0.0259
3234.00,0.0258
3233.00,0.0257
3232.00,0.0257
3231.00,0.0257
3230.00,0.0256
3229.00,0.0256
3228.00,0.0256
3227.00,0.0255
3226.00,0.0255
3225.00,0.0254
3224.00,0.0254
3223.00,0.0253
3222.00,0.0253
3221.00,0.0252
3220.00,0.0252
3219.00,0.0251
3218.00,0.0250
3217.00,0.0249
3216.00,0.0248
3215.00,0.0248
3214.00,0.0247
3213.00,0.0246
3212.00,0.0246
3211.00,0.0245
3210.00,0.0244
3209.00,0.0244
3208.00,0.0243
3207.00,0.0242
3206.00,0.0241
3205.00,0.0241
3204.00,0.0240
3203.00,0.0239
3202.00,0.0238
3201.00,0.0237
3200.00,0.0236
3199.00,0.0236
3198.00,0.0235
3197.00,0.0235
3196.00,0.0234
3195.00,0.0234
3194.00,0.0233
3193.00,0.0233
3192.00,0.0232
3191.00,0.0231
3190.00,0.0230
3189.00,0.0230
3188.00,0.0229
3187.00,0.0229
3186.00,0.0229
3185.00,0.0228
3184.00,0.0228
3183.00,0.0227
3182.00,0.0226
3181.00,0.0226
3180.00,0.0225
3179.00,0.0225
3178.00,0.0224
3177.00,0.0223
3176.00,0.0223
3175.00,0.0222
3174.00,0.0222
3173.00,0.0221
3172.00,0.0221
3171.00,0.0220
3170.00,0.0220
3169.00,0.0219
3168.00,0.0218
3167.00,0.0217
3166.00,0.0217
3165.00,0.0216
3164.00,0.0215
3163.00,0.0215
3162.00,0.0214
3161.00,0.0213
3160.00,0.0213
3159.00,0.0212
3158.00,0.0211
3157.00,0.0210
3156.00,0.0209
3155.00,0.0208
3154.00,0.0207
3153.00,0.0207
3152.00,0.0206
3151.00,0.0206
3150.00,0.0206
3149.00,0.0205
3148.00,0.0205
3147.00,0.0204
3146.00,0.0203
3145.00,0.0202
3144.00,0.0202
3143.00,0.0201
3142.00,0.0200
3141.00,0.0200
3140.00,0.0199
3139.00,0.0199
3138.00,0.0198
3137.00,0.0197
3136.00,0.0197
3135.00,0.0196
3134.00,0.0195
3133.00,0.0195
3132.00,0.0194
3131.00,0.0194
3130.00,0.0193
3129.00,0.0193
3128.00,0.0193
3127.00,0.0192
3126.00,0.0192
3125.00,0.0191
3124.00,0.0191
3123.00,0.0190
3122.00,0.0189
3121.00,0.0189
3120.00,0.0189
3119.00,0.0188
3118.00,0.0188
3117.00,0.0187
3116.00,0.0187
3115.00,0.0186
3114.00,0.0185
3113.00,0.0184
3112.00,0.0184
3111.00,0.0183
3110.00,0.0183
3109.00,0.0183
3108.00,0.0182
3107.00,0.0181
3106.00,0.0180
3105.00,0.0180
3104.00,0.0179
3103.00,0.0178
3102.00,0.0178
3101.00,0.0177
3100.00,0.0177
3099.00,0.0176
3098.00,0.0176
3097.00,0.0175
3096.00,0.0175
3095.00,0.0175
3094.00,0.0175
3093.00,0.0174
3092.00,0.0174
3091.00,0.0174
3090.00,0.0173
3089.00,0.0173
3088.00,0.0173
3087.00,0.0173
3086.00,0.0172
3085.00,0.0172
3084.00,0.0172
3083.00,0.0172
3082.00,0.0172
3081.00,0.0172
3080.00,0.0172
3079.00,0.0172
3078.00,0.0172
3077.00,0.0171
3076.00,0.0171
3075.00,0.0170
3074.00,0.0169
3073.00,0.0169
3072.00,0.0168
3071.00,0.0167
3070.00,0.0167
3069.00,0.0166
3068.00,0.0166
3067.00,0.0165
3066.00,0.0164
3065.00,0.0164
3064.00,0.0163
3063.00,0.0162
3062.00,0.0162
3061.00,0.0161
3060.00,0.0161
3059.00,0.0160
3058.00,0.0159
3057.00,0.0158
3056.00,0.0158
3055.00,0.0157
3054.00,0.0157
3053.00,0.0156
3052.00,0.0156
3051.00,0.0156
3050.00,0.0156
3049.00,0.0155
3048.00,0.0155
3047.00,0.0155
3046.00,0.0154
3045.00,0.0154
3044.00,0.0153
3043.00,0.0153
3042.00,0.0152
3041.00,0.0152
3040.00,0.0151
3039.00,0.0151
3038.00,0.0151
3037.00,0.0151
3036.00,0.0150
3035.00,0.0150
3034.00,0.0150
3033.00,0.0150
3032.00,0.0149
3031.00,0.0148
3030.00,0.0148
3029.00,0.0147
3028.00,0.0147
3027.00,0.0146
3026.00,0.0145
3025.00,0.0145
3024.00,0.0144
3023.00,0.0144
3022.00,0.0144
3021.00,0.0144
3020.00,0.0144
3019.00,0.0144
3018.00,0.0144
3017.00,0.0144
3016.00,0.0144
3015.00,0.0144
3014.00,0.0144
3013.00,0.0145
3012.00,0.0146
3011.00,0.0147
3010.00,0.0149
3009.00,0.0151
3008.00,0.0153
3007.00,0.0155
3006.00,0.0157
3005.00,0.0160
3004.00,0.0163
3003.00,0.0166
3002.00,0.0170
3001.00,0.0174
3000.00,0.0178
2999.00,0.0183
2998.00,0.0188
2997.00,0.0194
2996.00,0.0199
2995.00,0.0205
2994.00,0.0211
2993.00,0.0218
2992.00,0.0225
2991.00,0.0231
2990.00,0.0238
2989.00,0.0245
2988.00,0.0252
2987.00,0.0258
2986.00,0.0264
2985.00,0.0268
2984.00,0.0273
2983.00,0.0276
2982.00,0.0280
2981.00,0.0284
2980.00,0.0288
2979.00,0.0291
2978.00,0.0295
2977.00,0.0298
2976.00,0.0300
2975.00,0.0302
2974.00,0.0304
2973.00,0.0306
2972.00,0.0308
2971.00,0.0311
2970.00,0.0314
2969.00,0.0318
2968.00,0.0322
2967.00,0.0326
2966.00,0.0330
2965.00,0.0335
2964.00,0.0339
2963.00,0.0343
2962.00,0.0347
2961.00,0.0352
2960.00,0.0356
2959.00,0.0359
2958.00,0.0363
2957.00,0.0366
2956.00,0.0368
2955.00,0.0370
2954.00,0.0371
2953.00,0.0371
2952.00,0.0371
2951.00,0.0370
2950.00,0.0369
2949.00,0.0367
2948.00,0.0365
2947.00,0.0363
2946.00,0.0362
2945.00,0.0360
2944.00,0.0359
2943.00,0.0359
2942.00,0.0358
2941.00,0.0358
2940.00,0.0359
2939.00,0.0359
2938.00,0.0360
2937.00,0.0361
2936.00,0.0362
2935.00,0.0363
2934.00,0.0365
2933.00,0.0366
2932.00,0.0366
2931.00,0.0367
2930.00,0.0367
2929.00,0.0367
2928.00,0.0367
2927.00,0.0366
2926.00,0.0365
2925.00,0.0364
2924.00,0.0362
2923.00,0.0359
2922.00,0.0357
2921.00,0.0354
2920.00,0.0351
2919.00,0.0347
2918.00,0.0344
2917.00,0.0340
2916.00,0.0336
2915.00,0.0332
2914.00,0.0328
2913.00,0.0324
2912.00,0.0320
2911.00,0.0316
2910.00,0.0312
2909.00,0.0308
2908.00,0.0304
2907.00,0.0300
2906.00,0.0297
2905.00,0.0294
2904.00,0.0291
2903.00,0.0289
2902.00,0.0288
2901.00,0.0286
2900.00,0.0285
2899.00,0.0284
2898.00,0.0283
2897.00,0.0283
2896.00,0.0283
2895.00,0.0283
2894.00,0.0283
2893.00,0.0283
2892.00,0.0283
2891.00,0.0283
2890.00,0.0282
2889.00,0.0282
2888.00,0.0281
2887.00,0.0281
2886.00,0.0280
2885.00,0.0280
2884.00,0.0280
2883.00,0.0280
2882.00,0.0280
2881.00,0.0280
2880.00,0.0281
2879.00,0.0282
2878.00,0.0283
2877.00,0.0284
2876.00,0.0285
2875.00,0.0286
2874.00,0.0287
2873.00,0.0288
2872.00,0.0289
2871.00,0.0290
2870.00,0.0290
2869.00,0.0289
2868.00,0.0289
2867.00,0.0287
2866.00,0.0286
2865.00,0.0285
2864.00,0.0284
2863.00,0.0283
2862.00,0.0281
2861.00,0.0279
2860.00,0.0277
2859.00,0.0275
2858.00,0.0271
2857.00,0.0267
2856.00,0.0261
2855.00,0.0255
2854.00,0.0248
2853.00,0.0241
2852.00,0.0234
2851.00,0.0227
2850.00,0.0221
2849.00,0.0215
2848.00,0.0210
2847.00,0.0206
2846.00,0.0201
2845.00,0.0197
2844.00,0.0192
2843.00,0.0187
2842.00,0.0182
2841.00,0.0178
2840.00,0.0173
2839.00,0.0170
2838.00,0.0166
2837.00,0.0164
2836.00,0.0161
2835.00,0.0159
2834.00,0.0157
2833.00,0.0155
2832.00,0.0153
2831.00,0.0151
2830.00,0.0150
2829.00,0.0148
2828.00,0.0146
2827.00,0.0144
2826.00,0.0142
2825.00,0.0140
2824.00,0.0138
2823.00,0.0136
2822.00,0.0134
2821.00,0.0132
2820.00,0.0131
2819.00,0.0129
2818.00,0.0127
2817.00,0.0125
2816.00,0.0123
2815.00,0.0121
2814.00,0.0119
2813.00,0.0117
2812.00,0.0115
2811.00,0.0114
2810.00,0.0113
2809.00,0.0112
2808.00,0.0110
2807.00,0.0109
2806.00,0.0108
2805.00,0.0107
2804.00,0.0105
2803.00,0.0104
2802.00,0.0102
2801.00,0.0101
2800.00,0.0100
2799.00,0.0099
2798.00,0.0098
2797.00,0.0097
2796.00,0.0096
2795.00,0.0095
2794.00,0.0095
2793.00,0.0094
2792.00,0.0093
2791.00,0.0093
2790.00,0.0092
2789.00,0.0092
2788.00,0.0091
2787.00,0.0091
2786.00,0.0090
2785.00,0.0090
2784.00,0.0089
2783.00,0.0089
2782.00,0.0088
2781.00,0.0087
2780.00,0.0087
2779.00,0.0086
2778.00,0.0086
2777.00,0.0085
2776.00,0.0085
2775.00,0.0084
2774.00,0.0084
2773.00,0.0083
2772.00,0.0083
2771.00,0.0083
2770.00,0.0082
2769.00,0.0082
2768.00,0.0082
2767.00,0.0081
2766.00,0.0081
2765.00,0.0081
2764.00,0.0081
2763.00,0.0081
2762.00,0.0081
2761.00,0.0081
2760.00,0.0080
2759.00,0.0080
2758.00,0.0081
2757.00,0.0081
2756.00,0.0081
2755.00,0.0081
2754.00,0.0081
2753.00,0.0081
2752.00,0.0081
2751.00,0.0081
2750.00,0.0081
2749.00,0.0081
2748.00,0.0081
2747.00,0.0081
2746.00,0.0081
2745.00,0.0081
2744.00,0.0081
2743.00,0.0081
2742.00,0.0081
2741.00,0.0081
2740.00,0.0081
2739.00,0.0081
2738.00,0.0082
2737.00,0.0082
2736.00,0.0082
2735.00,0.0082
2734.00,0.0082
2733.00,0.0082
2732.00,0.0082
2731.00,0.0081
2730.00,0.0081
2729.00,0.0081
2728.00,0.0080
2727.00,0.0080
2726.00,0.0079
2725.00,0.0079
2724.00,0.0079
2723.00,0.0078
2722.00,0.0078
2721.00,0.0078
2720.00,0.0078
2719.00,0.0077
2718.00,0.0077
2717.00,0.0077
2716.00,0.0077
2715.00,0.0076
2714.00,0.0076
2713.00,0.0076
2712.00,0.0076
2711.00,0.0075
2710.00,0.0075
2709.00,0.0075
2708.00,0.0074
2707.00,0.0074
2706.00,0.0074
2705.00,0.0074
2704.00,0.0073
2703.00,0.0073
2702.00,0.0072
2701.00,0.0072
2700.00,0.0072
2699.00,0.0072
2698.00,0.0071
2697.00,0.0071
2696.00,0.0071
2695.00,0.0070
2694.00,0.0070
2693.00,0.0070
2692.00,0.0069
2691.00,0.0069
2690.00,0.0068
2689.00,0.0068
2688.00,0.0068
2687.00,0.0068
2686.00,0.0067
2685.00,0.0067
2684.00,0.0067
2683.00,0.0067
2682.00,0.0067
2681.00,0.0066
2680.00,0.0066
2679.00,0.0066
2678.00,0.0066
2677.00,0.0066
2676.00,0.0066
2675.00,0.0066
2674.00,0.0066
2673.00,0.0065
2672.00,0.0065
2671.00,0.0065
2670.00,0.0065
2669.00,0.0065
2668.00,0.0065
2667.00,0.0065
2666.00,0.0065
2665.00,0.0066
2664.00,0.0066
2663.00,0.0066
2662.00,0.0066
2661.00,0.0066
2660.00,0.0066
2659.00,0.0067
2658.00,0.0066
2657.00,0.0066
2656.00,0.0066
2655.00,0.0066
2654.00,0.0066
2653.00,0.0066
2652.00,0.0066
2651.00,0.0066
2650.00,0.0065
2649.00,0.0065
2648.00,0.0065
2647.00,0.0065
2646.00,0.0064
2645.00,0.0064
2644.00,0.0064
2643.00,0.0064
2642.00,0.0063
2641.00,0.0063
2640.00,0.0063
2639.00,0.0063
2638.00,0.0062
2637.00,0.0062
2636.00,0.0062
2635.00,0.0062
2634.00,0.0062
2633.00,0.0062
2632.00,0.0061
2631.00,0.0061
2630.00,0.0061
2629.00,0.0061
2628.00,0.0061
2627.00,0.0061
2626.00,0.0060
2625.00,0.0060
2624.00,0.0061
2623.00,0.0061
2622.00,0.0060
2621.00,0.0060
2620.00,0.0060
2619.00,0.0060
2618.00,0.0060
2617.00,0.0060
2616.00,0.0060
2615.00,0.0059
2614.00,0.0059
2613.00,0.0059
2612.00,0.0058
2611.00,0.0058
2610.00,0.0058
2609.00,0.0058
2608.00,0.0058
2607.00,0.0058
2606.00,0.0057
2605.00,0.0057
2604.00,0.0056
2603.00,0.0056
2602.00,0.0056
2601.00,0.0056
2600.00,0.0056
2599.00,0.0056
2598.00,0.0056
2597.00,0.0056
2596.00,0.0056
2595.00,0.0056
2594.00,0.0056
2593.00,0.0056
2592.00,0.0055
2591.00,0.0055
2590.00,0.0055
2589.00,0.0055
2588.00,0.0055
2587.00,0.0055
2586.00,0.0055
2585.00,0.0055
2584.00,0.0055
2583.00,0.0055
2582.00,0.0054
2581.00,0.0054
2580.00,0.0054
2579.00,0.0054
2578.00,0.0054
2577.00,0.0053
2576.00,0.0053
2575.00,0.0053
2574.00,0.0053
2573.00,0.0053
2572.00,0.0053
2571.00,0.0052
2570.00,0.0052
2569.00,0.0052
2568.00,0.0052
2567.00,0.0052
2566.00,0.0051
2565.00,0.0050
2564.00,0.0050
2563.00,0.0049
2562.00,0.0049
2561.00,0.0049
2560.00,0.0048
2559.00,0.0048
2558.00,0.0048
2557.00,0.0048
2556.00,0.0048
2555.00,0.0048
2554.00,0.0048
2553.00,0.0048
2552.00,0.0048
2551.00,0.0048
2550.00,0.0048
2549.00,0.0047
2548.00,0.0047
2547.00,0.0047
2546.00,0.0046
2545.00,0.0046
2544.00,0.0046
2543.00,0.0046
2542.00,0.0046
2541.00,0.0045
2540.00,0.0046
2539.00,0.0046
2538.00,0.0046
2537.00,0.0045
2536.00,0.0045
2535.00,0.0045
2534.00,0.0044
2533.00,0.0044
2532.00,0.0043
2531.00,0.0043
2530.00,0.0042
2529.00,0.0041
2528.00,0.0041
2527.00,0.0041
2526.00,0.0041
2525.00,0.0041
2524.00,0.0040
2523.00,0.0040
2522.00,0.0039
2521.00,0.0039
2520.00,0.0039
2519.00,0.0039
2518.00,0.0039
2517.00,0.0038
2516.00,0.0038
2515.00,0.0038
2514.00,0.0037
2513.00,0.0037
2512.00,0.0037
2511.00,0.0037
2510.00,0.0037
2509.00,0.0037
2508.00,0.0037
2507.00,0.0036
2506.00,0.0036
2505.00,0.0036
2504.00,0.0036
2503.00,0.0035
2502.00,0.0035
2501.00,0.0035
2500.00,0.0035
2499.00,0.0035
2498.00,0.0035
2497.00,0.0036
2496.00,0.0036
2495.00,0.0035
2494.00,0.0035
2493.00,0.0035
2492.00,0.0034
2491.00,0.0034
2490.00,0.0034
2489.00,0.0034
2488.00,0.0035
2487.00,0.0035
2486.00,0.0034
2485.00,0.0034
2484.00,0.0034
2483.00,0.0034
2482.00,0.0034
2481.00,0.0034
2480.00,0.0033
2479.00,0.0033
2478.00,0.0033
2477.00,0.0033
2476.00,0.0033
2475.00,0.0033
2474.00,0.0033
2473.00,0.0033
2472.00,0.0032
2471.00,0.0032
2470.00,0.0032
2469.00,0.0032
2468.00,0.0032
2467.00,0.0032
2466.00,0.0032
2465.00,0.0032
2464.00,0.0033
2463.00,0.0033
2462.00,0.0034
2461.00,0.0034
2460.00,0.0034
2459.00,0.0034
2458.00,0.0034
2457.00,0.0034
2456.00,0.0034
2455.00,0.0034
2454.00,0.0034
2453.00,0.0034
2452.00,0.0034
2451.00,0.0033
2450.00,0.0033
2449.00,0.0033
2448.00,0.0032
2447.00,0.0032
2446.00,0.0032
2445.00,0.0032
2444.00,0.0032
2443.00,0.0032
2442.00,0.0031
2441.00,0.0031
2440.00,0.0031
2439.00,0.0031
2438.00,0.0031
2437.00,0.0031
2436.00,0.0031
2435.00,0.0031
2434.00,0.0031
2433.00,0.0031
2432.00,0.0031
2431.00,0.0031
2430.00,0.0031
2429.00,0.0031
2428.00,0.0031
2427.00,0.0030
2426.00,0.0030
2425.00,0.0029
2424.00,0.0029
2423.00,0.0029
2422.00,0.0029
2421.00,0.0029
2420.00,0.0030
2419.00,0.0030
2418.00,0.0030
2417.00,0.0030
2416.00,0.0030
2415.00,0.0030
2414.00,0.0030
2413.00,0.0030
2412.00,0.0030
2411.00,0.0030
2410.00,0.0029
2409.00,0.0029
2408.00,0.0029
2407.00,0.0029
2406.00,0.0029
2405.00,0.0029
2404.00,0.0029
2403.00,0.0029
2402.00,0.0029
2401.00,0.0029
2400.00,0.0029
2399.00,0.0029
2398.00,0.0029
2397.00,0.0029
2396.00,0.0029
2395.00,0.0028
2394.00,0.0028
2393.00,0.0028
2392.00,0.0027
2391.00,0.0027
2390.00,0.0027
2389.00,0.0027
2388.00,0.0027
2387.00,0.0027
2386.00,0.0026
2385.00,0.0025
2384.00,0.0025
2383.00,0.0024
2382.00,0.0024
2381.00,0.0023
2380.00,0.0023
2379.00,0.0024
2378.00,0.0024
2377.00,0.0024
2376.00,0.0024
2375.00,0.0024
2374.00,0.0024
2373.00,0.0024
2372.00,0.0024
2371.00,0.0023
2370.00,0.0023
2369.00,0.0023
2368.00,0.0023
2367.00,0.0024
2366.00,0.0024
2365.00,0.0024
2364.00,0.0024
2363.00,0.0024
2362.00,0.0024
2361.00,0.0025
2360.00,0.0025
2359.00,0.0025
2358.00,0.0025
2357.00,0.0025
2356.00,0.0025
2355.00,0.0025
2354.00,0.0025
2353.00,0.0025
2352.00,0.0025
2351.00,0.0025
2350.00,0.0026
2349.00,0.0027
2348.00,0.0028
2347.00,0.0029
2346.00,0.0029
2345.00,0.0028
2344.00,0.0028
2343.00,0.0028
2342.00,0.0029
2341.00,0.0029
2340.00,0.0029
2339.00,0.0029
2338.00,0.0029
2337.00,0.0029
2336.00,0.0029
2335.00,0.0029
2334.00,0.0029
2333.00,0.0028
2332.00,0.0027
2331.00,0.0027
2330.00,0.0028
2329.00,0.0030
2328.00,0.0034
2327.00,0.0039
2326.00,0.0042
2325.00,0.0043
2324.00,0.0042
2323.00,0.0040
2322.00,0.0038
2321.00,0.0037
2320.00,0.0037
2319.00,0.0036
2318.00,0.0036
2317.00,0.0035
2316.00,0.0035
2315.00,0.0034
2314.00,0.0034
2313.00,0.0033
2312.00,0.0033
2311.00,0.0032
2310.00,0.0032
2309.00,0.0032
2308.00,0.0032
2307.00,0.0032
2306.00,0.0032
2305.00,0.0032
2304.00,0.0032
2303.00,0.0032
2302.00,0.0032
2301.00,0.0033
2300.00,0.0033
2299.00,0.0034
2298.00,0.0035
2297.00,0.0035
2296.00,0.0036
2295.00,0.0036
2294.00,0.0037
2293.00,0.0038
2292.00,0.0039
2291.00,0.0039
2290.00,0.0040
2289.00,0.0040
2288.00,0.0041
2287.00,0.0041
2286.00,0.0041
2285.00,0.0040
2284.00,0.0040
2283.00,0.0039
2282.00,0.0038
2281.00,0.0037
2280.00,0.0037
2279.00,0.0037
2278.00,0.0036
2277.00,0.0036
2276.00,0.0036
2275.00,0.0036
2274.00,0.0035
2273.00,0.0035
2272.00,0.0035
2271.00,0.0035
2270.00,0.0035
2269.00,0.0035
2268.00,0.0035
2267.00,0.0034
2266.00,0.0032
2265.00,0.0031
2264.00,0.0031
2263.00,0.0031
2262.00,0.0031
2261.00,0.0031
2260.00,0.0032
2259.00,0.0032
2258.00,0.0032
2257.00,0.0031
2256.00,0.0030
2255.00,0.0030
2254.00,0.0029
2253.00,0.0030
2252.00,0.0030
2251.00,0.0031
2250.00,0.0031
2249.00,0.0032
2248.00,0.0032
2247.00,0.0032
2246.00,0.0032
2245.00,0.0032
2244.00,0.0032
2243.00,0.0033
2242.00,0.0033
2241.00,0.0033
2240.00,0.0032
2239.00,0.0032
2238.00,0.0033
2237.00,0.0033
2236.00,0.0034
2235.00,0.0033
2234.00,0.0033
2233.00,0.0032
2232.00,0.0032
2231.00,0.0031
2230.00,0.0032
2229.00,0.0032
2228.00,0.0033
2227.00,0.0034
2226.00,0.0033
2225.00,0.0033
2224.00,0.0033
2223.00,0.0033
2222.00,0.0033
2221.00,0.0033
2220.00,0.0033
2219.00,0.0033
2218.00,0.0033
2217.00,0.0033
2216.00,0.0032
2215.00,0.0032
2214.00,0.0031
2213.00,0.0031
2212.00,0.0032
2211.00,0.0032
2210.00,0.0032
2209.00,0.0033
2208.00,0.0033
2207.00,0.0033
2206.00,0.0033
2205.00,0.0032
2204.00,0.0032
2203.00,0.0032
2202.00,0.0032
2201.00,0.0033
2200.00,0.0034
2199.00,0.0034
2198.00,0.0034
2197.00,0.0033
2196.00,0.0034
2195.00,0.0035
2194.00,0.0035
2193.00,0.0036
2192.00,0.0036
2191.00,0.0035
2190.00,0.0034
2189.00,0.0034
2188.00,0.0034
2187.00,0.0034
2186.00,0.0033
2185.00,0.0031
2184.00,0.0029
2183.00,0.0027
2182.00,0.0025
2181.00,0.0025
2180.00,0.0027
2179.00,0.0029
2178.00,0.0029
2177.00,0.0028
2176.00,0.0028
2175.00,0.0028
2174.00,0.0028
2173.00,0.0031
2172.00,0.0034
2171.00,0.0037
2170.00,0.0040
2169.00,0.0042
2168.00,0.0043
2167.00,0.0044
2166.00,0.0044
2165.00,0.0046
2164.00,0.0048
2163.00,0.0048
2162.00,0.0041
2161.00,0.0027
2160.00,0.0011
2159.00,-0.0001
2158.00,-0.0006
2157.00,-0.0006
2156.00,-0.0002
2155.00,0.0002
2154.00,0.0005
2153.00,0.0008
2152.00,0.0011
2151.00,0.0013
2150.00,0.0014
2149.00,0.0013
2148.00,0.0012
2147.00,0.0011
2146.00,0.0011
2145.00,0.0010
2144.00,0.0011
2143.00,0.0012
2142.00,0.0012
2141.00,0.0013
2140.00,0.0014
2139.00,0.0014
2138.00,0.0013
2137.00,0.0011
2136.00,0.0009
2135.00,0.0007
2134.00,0.0007
2133.00,0.0008
2132.00,0.0010
2131.00,0.0012
2130.00,0.0013
2129.00,0.0014
2128.00,0.0016
2127.00,0.0017
2126.00,0.0018
2125.00,0.0019
2124.00,0.0020
2123.00,0.0021
2122.00,0.0023
2121.00,0.0024
2120.00,0.0025
2119.00,0.0026
2118.00,0.0027
2117.00,0.0028
2116.00,0.0028
2115.00,0.0028
2114.00,0.0027
2113.00,0.0027
2112.00,0.0027
2111.00,0.0027
2110.00,0.0027
2109.00,0.0027
2108.00,0.0027
2107.00,0.0027
2106.00,0.0027
2105.00,0.0027
2104.00,0.0027
2103.00,0.0027
2102.00,0.0027
2101.00,0.0027
2100.00,0.0027
2099.00,0.0026
2098.00,0.0025
2097.00,0.0024
2096.00,0.0023
2095.00,0.0023
2094.00,0.0022
2093.00,0.0023
2092.00,0.0025
2091.00,0.0027
2090.00,0.0028
2089.00,0.0029
2088.00,0.0029
2087.00,0.0029
2086.00,0.0029
2085.00,0.0029
2084.00,0.0029
2083.00,0.0028
2082.00,0.0028
2081.00,0.0028
2080.00,0.0028
2079.00,0.0027
2078.00,0.0027
2077.00,0.0026
2076.00,0.0026
2075.00,0.0026
2074.00,0.0027
2073.00,0.0027
2072.00,0.0027
2071.00,0.0027
2070.00,0.0025
2069.00,0.0025
2068.00,0.0025
2067.00,0.0026
2066.00,0.0026
2065.00,0.0026
2064.00,0.0026
2063.00,0.0025
2062.00,0.0024
2061.00,0.0024
2060.00,0.0025
2059.00,0.0026
2058.00,0.0025
2057.00,0.0024
2056.00,0.0023
2055.00,0.0024
2054.00,0.0026
2053.00,0.0031
2052.00,0.0035
2051.00,0.0037
2050.00,0.0034
2049.00,0.0031
2048.00,0.0029
2047.00,0.0027
2046.00,0.0025
2045.00,0.0025
2044.00,0.0026
2043.00,0.0027
2042.00,0.0027
2041.00,0.0026
2040.00,0.0025
2039.00,0.0025
2038.00,0.0025
2037.00,0.0024
2036.00,0.0024
2035.00,0.0022
2034.00,0.0019
2033.00,0.0017
2032.00,0.0017
2031.00,0.0018
2030.00,0.0018
2029.00,0.0018
2028.00,0.0019
2027.00,0.0018
2026.00,0.0015
2025.00,0.0013
2024.00,0.0012
2023.00,0.0012
2022.00,0.0012
2021.00,0.0013
2020.00,0.0014
2019.00,0.0014
2018.00,0.0013
2017.00,0.0013
2016.00,0.0014
2015.00,0.0015
2014.00,0.0014
2013.00,0.0013
2012.00,0.0014
2011.00,0.0015
2010.00,0.0014
2009.00,0.0013
2008.00,0.0011
2007.00,0.0010
2006.00,0.0008
2005.00,0.0009
2004.00,0.0010
2003.00,0.0012
2002.00,0.0012
2001.00,0.0013
2000.00,0.0015
1999.00,0.0017
1998.00,0.0017
1997.00,0.0018
1996.00,0.0019
1995.00,0.0021
1994.00,0.0022
1993.00,0.0024
1992.00,0.0026
1991.00,0.0026
1990.00,0.0026
1989.00,0.0026
1988.00,0.0027
1987.00,0.0028
1986.00,0.0028
1985.00,0.0029
1984.00,0.0031
1983.00,0.0033
1982.00,0.0035
1981.00,0.0035
1980.00,0.0031
1979.00,0.0023
1978.00,0.0014
1977.00,0.0009
1976.00,0.0009
1975.00,0.0010
1974.00,0.0010
1973.00,0.0011
1972.00,0.0012
1971.00,0.0012
1970.00,0.0012
1969.00,0.0013
1968.00,0.0014
1967.00,0.0014
1966.00,0.0013
1965.00,0.0012
1964.00,0.0012
1963.00,0.0011
1962.00,0.0010
1961.00,0.0008
1960.00,0.0007
1959.00,0.0006
1958.00,0.0006
1957.00,0.0007
1956.00,0.0010
1955.00,0.0013
1954.00,0.0013
1953.00,0.0014
1952.00,0.0014
1951.00,0.0014
1950.00,0.0013
1949.00,0.0013
1948.00,0.0014
1947.00,0.0015
1946.00,0.0015
1945.00,0.0016
1944.00,0.0018
1943.00,0.0018
1942.00,0.0016
1941.00,0.0014
1940.00,0.0013
1939.00,0.0013
1938.00,0.0013
1937.00,0.0013
1936.00,0.0014
1935.00,0.0015
1934.00,0.0015
1933.00,0.0016
1932.00,0.0017
1931.00,0.0017
1930.00,0.0017
1929.00,0.0016
1928.00,0.0015
1927.00,0.0015
1926.00,0.0016
1925.00,0.0018
1924.00,0.0021
1923.00,0.0023
1922.00,0.0023
1921.00,0.0022
1920.00,0.0021
1919.00,0.0020
1918.00,0.0019
1917.00,0.0019
1916.00,0.0019
1915.00,0.0019
1914.00,0.0019
1913.00,0.0019
1912.00,0.0021
1911.00,0.0023
1910.00,0.0023
1909.00,0.0023
1908.00,0.0023
1907.00,0.0022
1906.00,0.0021
1905.00,0.0020
1904.00,0.0020
1903.00,0.0020
1902.00,0.0020
1901.00,0.0020
1900.00,0.0021
1899.00,0.0022
1898.00,0.0022
1897.00,0.0022
1896.00,0.0023
1895.00,0.0022
1894.00,0.0022
1893.00,0.0022
1892.00,0.0023
1891.00,0.0023
1890.00,0.0023
1889.00,0.0023
1888.00,0.0022
1887.00,0.0022
1886.00,0.0022
1885.00,0.0022
1884.00,0.0023
1883.00,0.0023
1882.00,0.0022
1881.00,0.0021
1880.00,0.0022
1879.00,0.0022
1878.00,0.0022
1877.00,0.0022
1876.00,0.0022
1875.00,0.0022
1874.00,0.0021
1873.00,0.0021
1872.00,0.0022
1871.00,0.0023
1870.00,0.0024
1869.00,0.0025
1868.00,0.0025
1867.00,0.0025
1866.00,0.0023
1865.00,0.0023
1864.00,0.0023
1863.00,0.0023
1862.00,0.0023
1861.00,0.0024
1860.00,0.0024
1859.00,0.0024
1858.00,0.0024
1857.00,0.0023
1856.00,0.0023
1855.00,0.0023
1854.00,0.0023
1853.00,0.0023
1852.00,0.0023
1851.00,0.0024
1850.00,0.0024
1849.00,0.0025
1848.00,0.0025
1847.00,0.0024
1846.00,0.0023
1845.00,0.0022
1844.00,0.0022
1843.00,0.0023
1842.00,0.0024
1841.00,0.0024
1840.00,0.0025
1839.00,0.0026
1838.00,0.0026
1837.00,0.0025
1836.00,0.0025
1835.00,0.0024
1834.00,0.0024
1833.00,0.0024
1832.00,0.0025
1831.00,0.0026
1830.00,0.0026
1829.00,0.0026
1828.00,0.0026
1827.00,0.0027
1826.00,0.0027
1825.00,0.0026
1824.00,0.0026
1823.00,0.0025
1822.00,0.0025
1821.00,0.0024
1820.00,0.0024
1819.00,0.0023
1818.00,0.0022
1817.00,0.0022
1816.00,0.0022
1815.00,0.0023
1814.00,0.0024
1813.00,0.0026
1812.00,0.0027
1811.00,0.0028
1810.00,0.0028
1809.00,0.0027
1808.00,0.0027
1807.00,0.0026
1806.00,0.0026
1805.00,0.0026
1804.00,0.0028
1803.00,0.0029
1802.00,0.0030
1801.00,0.0030
1800.00,0.0031
1799.00,0.0030
1798.00,0.0030
1797.00,0.0030
1796.00,0.0030
1795.00,0.0029
1794.00,0.0028
1793.00,0.0029
1792.00,0.0030
1791.00,0.0030
1790.00,0.0030
1789.00,0.0030
1788.00,0.0030
1787.00,0.0031
1786.00,0.0031
1785.00,0.0031
1784.00,0.0032
1783.00,0.0033
1782.00,0.0034
1781.00,0.0035
1780.00,0.0035
1779.00,0.0035
1778.00,0.0034
1777.00,0.0034
1776.00,0.0033
1775.00,0.0032
1774.00,0.0031
1773.00,0.0032
1772.00,0.0033
1771.00,0.0034
1770.00,0.0034
1769.00,0.0034
1768.00,0.0035
1767.00,0.0035
1766.00,0.0035
1765.00,0.0035
1764.00,0.0035
1763.00,0.0035
1762.00,0.0035
1761.00,0.0035
1760.00,0.0036
1759.00,0.0036
1758.00,0.0036
1757.00,0.0035
1756.00,0.0034
1755.00,0.0033
1754.00,0.0031
1753.00,0.0030
1752.00,0.0031
1751.00,0.0034
1750.00,0.0035
1749.00,0.0036
1748.00,0.0036
1747.00,0.0035
1746.00,0.0034
1745.00,0.0034
1744.00,0.0034
1743.00,0.0032
1742.00,0.0030
1741.00,0.0029
1740.00,0.0031
1739.00,0.0032
1738.00,0.0032
1737.00,0.0029
1736.00,0.0028
1735.00,0.0030
1734.00,0.0034
1733.00,0.0041
1732.00,0.0049
1731.00,0.0055
1730.00,0.0057
1729.00,0.0059
1728.00,0.0061
1727.00,0.0064
1726.00,0.0067
1725.00,0.0071
1724.00,0.0076
1723.00,0.0079
1722.00,0.0081
1721.00,0.0081
1720.00,0.0083
1719.00,0.0088
1718.00,0.0093
1717.00,0.0100
1716.00,0.0108
1715.00,0.0116
1714.00,0.0122
1713.00,0.0128
1712.00,0.0135
1711.00,0.0142
1710.00,0.0150
1709.00,0.0158
1708.00,0.0169
1707.00,0.0181
1706.00,0.0195
1705.00,0.0209
1704.00,0.0219
1703.00,0.0226
1702.00,0.0235
1701.00,0.0260
1700.00,0.0298
1699.00,0.0334
1698.00,0.0361
1697.00,0.0391
1696.00,0.0435
1695.00,0.0486
1694.00,0.0532
1693.00,0.0574
1692.00,0.0616
1691.00,0.0663
1690.00,0.0714
1689.00,0.0763
1688.00,0.0805
1687.00,0.0841
1686.00,0.0879
1685.00,0.0937
1684.00,0.1009
1683.00,0.1071
1682.00,0.1115
1681.00,0.1151
1680.00,0.1185
1679.00,0.1216
1678.00,0.1242
1677.00,0.1270
1676.00,0.1306
1675.00,0.1346
1674.00,0.1383
1673.00,0.1414
1672.00,0.1444
1671.00,0.1477
1670.00,0.1515
1669.00,0.1555
1668.00,0.1595
1667.00,0.1628
1666.00,0.1657
1665.00,0.1687
1664.00,0.1722
1663.00,0.1760
1662.00,0.1796
1661.00,0.1826
1660.00,0.1853
1659.00,0.1877
1658.00,0.1895
1657.00,0.1906
1656.00,0.1912
1655.00,0.1917
1654.00,0.1922
1653.00,0.1920
1652.00,0.1918
1651.00,0.1919
1650.00,0.1915
1649.00,0.1902
1648.00,0.1878
1647.00,0.1839
1646.00,0.1790
1645.00,0.1746
1644.00,0.1706
1643.00,0.1666
1642.00,0.1619
1641.00,0.1568
1640.00,0.1516
1639.00,0.1465
1638.00,0.1411
1637.00,0.1349
1636.00,0.1276
1635.00,0.1203
1634.00,0.1146
1633.00,0.1102
1632.00,0.1063
1631.00,0.1023
1630.00,0.0985
1629.00,0.0950
1628.00,0.0920
1627.00,0.0897
1626.00,0.0883
1625.00,0.0878
1624.00,0.0883
1623.00,0.0895
1622.00,0.0908
1621.00,0.0918
1620.00,0.0921
1619.00,0.0918
1618.00,0.0907
1617.00,0.0889
1616.00,0.0866
1615.00,0.0845
1614.00,0.0826
1613.00,0.0807
1612.00,0.0790
1611.00,0.0774
1610.00,0.0756
1609.00,0.0735
1608.00,0.0709
1607.00,0.0678
1606.00,0.0643
1605.00,0.0606
1604.00,0.0568
1603.00,0.0531
1602.00,0.0497
1601.00,0.0466
1600.00,0.0440
1599.00,0.0419
1598.00,0.0403
1597.00,0.0392
1596.00,0.0385
1595.00,0.0384
1594.00,0.0389
1593.00,0.0401
1592.00,0.0419
1591.00,0.0443
1590.00,0.0472
1589.00,0.0503
1588.00,0.0530
1587.00,0.0553
1586.00,0.0566
1585.00,0.0569
1584.00,0.0561
1583.00,0.0544
1582.00,0.0521
1581.00,0.0493
1580.00,0.0465
1579.00,0.0437
1578.00,0.0410
1577.00,0.0385
1576.00,0.0362
1575.00,0.0345
1574.00,0.0335
1573.00,0.0326
1572.00,0.0316
1571.00,0.0306
1570.00,0.0296
1569.00,0.0286
1568.00,0.0278
1567.00,0.0271
1566.00,0.0264
1565.00,0.0256
1564.00,0.0246
1563.00,0.0234
1562.00,0.0221
1561.00,0.0211
1560.00,0.0208
1559.00,0.0203
1558.00,0.0196
1557.00,0.0196
1556.00,0.0197
1555.00,0.0196
1554.00,0.0195
1553.00,0.0194
1552.00,0.0194
1551.00,0.0193
1550.00,0.0191
1549.00,0.0187
1548.00,0.0183
1547.00,0.0180
1546.00,0.0179
1545.00,0.0179
1544.00,0.0176
1543.00,0.0171
1542.00,0.0166
1541.00,0.0163
1540.00,0.0159
1539.00,0.0158
1538.00,0.0161
1537.00,0.0165
1536.00,0.0167
1535.00,0.0168
1534.00,0.0169
1533.00,0.0169
1532.00,0.0169
1531.00,0.0170
1530.00,0.0171
1529.00,0.0173
1528.00,0.0175
1527.00,0.0177
1526.00,0.0179
1525.00,0.0180
1524.00,0.0181
1523.00,0.0183
1522.00,0.0188
1521.00,0.0194
1520.00,0.0202
1519.00,0.0209
1518.00,0.0217
1517.00,0.0222
1516.00,0.0225
1515.00,0.0226
1514.00,0.0227
1513.00,0.0229
1512.00,0.0232
1511.00,0.0235
1510.00,0.0237
1509.00,0.0239
1508.00,0.0241
1507.00,0.0244
1506.00,0.0249
1505.00,0.0263
1504.00,0.0281
1503.00,0.0300
1502.00,0.0320
1501.00,0.0343
1500.00,0.0370
1499.00,0.0399
1498.00,0.0430
1497.00,0.0460
1496.00,0.0482
1495.00,0.0495
1494.00,0.0499
1493.00,0.0496
1492.00,0.0487
1491.00,0.0470
1490.00,0.0446
1489.00,0.0416
1488.00,0.0385
1487.00,0.0355
1486.00,0.0329
1485.00,0.0308
1484.00,0.0290
1483.00,0.0276
1482.00,0.0265
1481.00,0.0257
1480.00,0.0252
1479.00,0.0250
1478.00,0.0252
1477.00,0.0257
1476.00,0.0265
1475.00,0.0275
1474.00,0.0292
1473.00,0.0320
1472.00,0.0358
1471.00,0.0398
1470.00,0.0439
1469.00,0.0482
1468.00,0.0528
1467.00,0.0578
1466.00,0.0636
1465.00,0.0700
1464.00,0.0759
1463.00,0.0803
1462.00,0.0830
1461.00,0.0844
1460.00,0.0846
1459.00,0.0833
1458.00,0.0803
1457.00,0.0756
1456.00,0.0710
1455.00,0.0678
1454.00,0.0656
1453.00,0.0640
1452.00,0.0630
1451.00,0.0627
1450.00,0.0635
1449.00,0.0655
1448.00,0.0685
1447.00,0.0722
1446.00,0.0760
1445.00,0.0799
1444.00,0.0838
1443.00,0.0875
1442.00,0.0910
1441.00,0.0938
1440.00,0.0960
1439.00,0.0976
1438.00,0.0990
1437.00,0.1005
1436.00,0.1019
1435.00,0.1028
1434.00,0.1033
1433.00,0.1036
1432.00,0.1038
1431.00,0.1043
1430.00,0.1052
1429.00,0.1067
1428.00,0.1087
1427.00,0.1112
1426.00,0.1140
1425.00,0.1172
1424.00,0.1199
1423.00,0.1214
1422.00,0.1213
1421.00,0.1198
1420.00,0.1164
1419.00,0.1108
1418.00,0.1040
1417.00,0.0975
1416.00,0.0914
1415.00,0.0857
1414.00,0.0806
1413.00,0.0764
1412.00,0.0730
1411.00,0.0704
1410.00,0.0686
1409.00,0.0677
1408.00,0.0673
1407.00,0.0674
1406.00,0.0679
1405.00,0.0685
1404.00,0.0691
1403.00,0.0693
1402.00,0.0691
1401.00,0.0684
1400.00,0.0670
1399.00,0.0647
1398.00,0.0618
1397.00,0.0586
1396.00,0.0551
1395.00,0.0515
1394.00,0.0482
1393.00,0.0456
1392.00,0.0436
1391.00,0.0422
1390.00,0.0412
1389.00,0.0407
1388.00,0.0406
1387.00,0.0411
1386.00,0.0419
1385.00,0.0430
1384.00,0.0443
1383.00,0.0459
1382.00,0.0475
1381.00,0.0491
1380.00,0.0503
1379.00,0.0512
1378.00,0.0517
1377.00,0.0519
1376.00,0.0517
1375.00,0.0512
1374.00,0.0506
1373.00,0.0497
1372.00,0.0488
1371.00,0.0480
1370.00,0.0472
1369.00,0.0465
1368.00,0.0457
1367.00,0.0453
1366.00,0.0452
1365.00,0.0456
1364.00,0.0464
1363.00,0.0473
1362.00,0.0479
1361.00,0.0480
1360.00,0.0473
1359.00,0.0459
1358.00,0.0440
1357.00,0.0416
1356.00,0.0392
1355.00,0.0370
1354.00,0.0351
1353.00,0.0338
1352.00,0.0328
1351.00,0.0321
1350.00,0.0316
1349.00,0.0313
1348.00,0.0310
1347.00,0.0309
1346.00,0.0308
1345.00,0.0307
1344.00,0.0307
1343.00,0.0309
1342.00,0.0312
1341.00,0.0316
1340.00,0.0319
1339.00,0.0322
1338.00,0.0325
1337.00,0.0329
1336.00,0.0334
1335.00,0.0340
1334.00,0.0346
1333.00,0.0354
1332.00,0.0361
1331.00,0.0370
1330.00,0.0379
1329.00,0.0389
1328.00,0.0399
1327.00,0.0411
1326.00,0.0425
1325.00,0.0439
1324.00,0.0454
1323.00,0.0469
1322.00,0.0484
1321.00,0.0496
1320.00,0.0506
1319.00,0.0512
1318.00,0.0514
1317.00,0.0512
1316.00,0.0506
1315.00,0.0498
1314.00,0.0489
1313.00,0.0478
1312.00,0.0468
1311.00,0.0461
1310.00,0.0456
1309.00,0.0455
1308.00,0.0457
1307.00,0.0462
1306.00,0.0471
1305.00,0.0484
1304.00,0.0500
1303.00,0.0520
1302.00,0.0547
1301.00,0.0580
1300.00,0.0622
1299.00,0.0674
1298.00,0.0736
1297.00,0.0809
1296.00,0.0888
1295.00,0.0972
1294.00,0.1056
1293.00,0.1136
1292.00,0.1208
1291.00,0.1268
1290.00,0.1316
1289.00,0.1351
1288.00,0.1372
1287.00,0.1379
1286.00,0.1373
1285.00,0.1357
1284.00,0.1332
1283.00,0.1302
1282.00,0.1270
1281.00,0.1239
1280.00,0.1213
1279.00,0.1192
1278.00,0.1178
1277.00,0.1169
1276.00,0.1164
1275.00,0.1160
1274.00,0.1155
1273.00,0.1145
1272.00,0.1129
1271.00,0.1105
1270.00,0.1075
1269.00,0.1038
1268.00,0.0997
1267.00,0.0952
1266.00,0.0906
1265.00,0.0859
1264.00,0.0815
1263.00,0.0772
1262.00,0.0732
1261.00,0.0695
1260.00,0.0661
1259.00,0.0628
1258.00,0.0599
1257.00,0.0572
1256.00,0.0548
1255.00,0.0526
1254.00,0.0508
1253.00,0.0493
1252.00,0.0481
1251.00,0.0472
1250.00,0.0468
1249.00,0.0467
1248.00,0.0471
1247.00,0.0478
1246.00,0.0490
1245.00,0.0504
1244.00,0.0520
1243.00,0.0536
1242.00,0.0551
1241.00,0.0565
1240.00,0.0576
1239.00,0.0586
1238.00,0.0594
1237.00,0.0601
1236.00,0.0606
1235.00,0.0611
1234.00,0.0614
1233.00,0.0616
1232.00,0.0617
1231.00,0.0615
1230.00,0.0613
1229.00,0.0609
1228.00,0.0605
1227.00,0.0602
1226.00,0.0600
1225.00,0.0600
1224.00,0.0601
1223.00,0.0603
1222.00,0.0607
1221.00,0.0612
1220.00,0.0615
1219.00,0.0617
1218.00,0.0616
1217.00,0.0610
1216.00,0.0600
1215.00,0.0585
1214.00,0.0566
1213.00,0.0545
1212.00,0.0523
1211.00,0.0501
1210.00,0.0481
1209.00,0.0463
1208.00,0.0448
1207.00,0.0436
1206.00,0.0428
1205.00,0.0423
1204.00,0.0421
1203.00,0.0423
1202.00,0.0430
1201.00,0.0440
1200.00,0.0453
1199.00,0.0469
1198.00,0.0486
1197.00,0.0503
1196.00,0.0517
1195.00,0.0528
1194.00,0.0533
1193.00,0.0531
1192.00,0.0521
1191.00,0.0504
1190.00,0.0484
1189.00,0.0461
1188.00,0.0439
1187.00,0.0418
1186.00,0.0399
1185.00,0.0383
1184.00,0.0370
1183.00,0.0360
1182.00,0.0353
1181.00,0.0347
1180.00,0.0344
1179.00,0.0342
1178.00,0.0343
1177.00,0.0346
1176.00,0.0349
1175.00,0.0353
1174.00,0.0358
1173.00,0.0363
1172.00,0.0366
1171.00,0.0368
1170.00,0.0370
1169.00,0.0371
1168.00,0.0370
1167.00,0.0370
1166.00,0.0371
1165.00,0.0374
1164.00,0.0380
1163.00,0.0390
1162.00,0.0404
1161.00,0.0422
1160.00,0.0441
1159.00,0.0459
1158.00,0.0475
1157.00,0.0485
1156.00,0.0488
1155.00,0.0484
1154.00,0.0473
1153.00,0.0456
1152.00,0.0435
1151.00,0.0411
1150.00,0.0387
1149.00,0.0363
1148.00,0.0340
1147.00,0.0319
1146.00,0.0302
1145.00,0.0288
1144.00,0.0276
1143.00,0.0267
1142.00,0.0260
1141.00,0.0257
1140.00,0.0257
1139.00,0.0260
1138.00,0.0268
1137.00,0.0281
1136.00,0.0300
1135.00,0.0326
1134.00,0.0358
1133.00,0.0393
1132.00,0.0428
1131.00,0.0458
1130.00,0.0477
1129.00,0.0482
1128.00,0.0472
1127.00,0.0450
1126.00,0.0420
1125.00,0.0388
1124.00,0.0358
1123.00,0.0333
1122.00,0.0313
1121.00,0.0299
1120.00,0.0288
1119.00,0.0281
1118.00,0.0277
1117.00,0.0274
1116.00,0.0274
1115.00,0.0274
1114.00,0.0276
1113.00,0.0279
1112.00,0.0281
1111.00,0.0284
1110.00,0.0288
1109.00,0.0292
1108.00,0.0296
1107.00,0.0302
1106.00,0.0311
1105.00,0.0321
1104.00,0.0332
1103.00,0.0344
1102.00,0.0355
1101.00,0.0363
1100.00,0.0367
1099.00,0.0365
1098.00,0.0359
1097.00,0.0350
1096.00,0.0339
1095.00,0.0327
1094.00,0.0317
1093.00,0.0307
1092.00,0.0298
1091.00,0.0290
1090.00,0.0285
1089.00,0.0280
1088.00,0.0277
1087.00,0.0275
1086.00,0.0274
1085.00,0.0275
1084.00,0.0276
1083.00,0.0279
1082.00,0.0283
1081.00,0.0288
1080.00,0.0293
1079.00,0.0300
1078.00,0.0309
1077.00,0.0318
1076.00,0.0327
1075.00,0.0337
1074.00,0.0347
1073.00,0.0358
1072.00,0.0371
1071.00,0.0385
1070.00,0.0403
1069.00,0.0425
1068.00,0.0451
1067.00,0.0481
1066.00,0.0516
1065.00,0.0555
1064.00,0.0596
1063.00,0.0640
1062.00,0.0684
1061.00,0.0726
1060.00,0.0761
1059.00,0.0786
1058.00,0.0800
1057.00,0.0800
1056.00,0.0784
1055.00,0.0755
1054.00,0.0715
1053.00,0.0669
1052.00,0.0620
1051.00,0.0574
1050.00,0.0534
1049.00,0.0501
1048.00,0.0476
1047.00,0.0459
1046.00,0.0449
1045.00,0.0444
1044.00,0.0443
1043.00,0.0446
1042.00,0.0451
1041.00,0.0458
1040.00,0.0465
1039.00,0.0473
1038.00,0.0481
1037.00,0.0488
1036.00,0.0496
1035.00,0.0504
1034.00,0.0514
1033.00,0.0523
1032.00,0.0530
1031.00,0.0535
1030.00,0.0536
1029.00,0.0530
1028.00,0.0519
1027.00,0.0503
1026.00,0.0486
1025.00,0.0469
1024.00,0.0453
1023.00,0.0441
1022.00,0.0431
1021.00,0.0424
1020.00,0.0418
1019.00,0.0412
1018.00,0.0405
1017.00,0.0396
1016.00,0.0385
1015.00,0.0371
1014.00,0.0358
1013.00,0.0344
1012.00,0.0331
1011.00,0.0322
1010.00,0.0317
1009.00,0.0317
1008.00,0.0322
1007.00,0.0330
1006.00,0.0341
1005.00,0.0353
1004.00,0.0363
1003.00,0.0368
1002.00,0.0369
1001.00,0.0365
1000.00,0.0356
999.00,0.0346
998.00,0.0336
997.00,0.0327
996.00,0.0318
995.00,0.0310
994.00,0.0303
993.00,0.0296
992.00,0.0289
991.00,0.0281
990.00,0.0274
989.00,0.0266
988.00,0.0257
987.00,0.0249
986.00,0.0242
985.00,0.0236
984.00,0.0230
983.00,0.0226
982.00,0.0223
981.00,0.0221
980.00,0.0220
979.00,0.0220
978.00,0.0220
977.00,0.0220
976.00,0.0219
975.00,0.0217
974.00,0.0215
973.00,0.0212
972.00,0.0208
971.00,0.0204
970.00,0.0201
969.00,0.0198
968.00,0.0195
967.00,0.0191
966.00,0.0189
965.00,0.0187
964.00,0.0184
963.00,0.0182
962.00,0.0180
961.00,0.0178
960.00,0.0175
959.00,0.0173
958.00,0.0171
957.00,0.0169
956.00,0.0167
955.00,0.0165
954.00,0.0164
953.00,0.0163
952.00,0.0162
951.00,0.0161
950.00,0.0162
949.00,0.0162
948.00,0.0163
947.00,0.0165
946.00,0.0167
945.00,0.0170
944.00,0.0173
943.00,0.0178
942.00,0.0184
941.00,0.0192
940.00,0.0201
939.00,0.0211
938.00,0.0223
937.00,0.0236
936.00,0.0247
935.00,0.0257
934.00,0.0264
933.00,0.0268
932.00,0.0267
931.00,0.0264
930.00,0.0261
929.00,0.0258
928.00,0.0256
927.00,0.0255
926.00,0.0256
925.00,0.0256
924.00,0.0254
923.00,0.0251
922.00,0.0248
921.00,0.0244
920.00,0.0241
919.00,0.0237
918.00,0.0233
917.00,0.0229
916.00,0.0224
915.00,0.0220
914.00,0.0216
913.00,0.0214
912.00,0.0212
911.00,0.0211
910.00,0.0213
909.00,0.0215
908.00,0.0218
907.00,0.0222
906.00,0.0229
905.00,0.0237
904.00,0.0246
903.00,0.0256
902.00,0.0267
901.00,0.0277
900.00,0.0287
899.00,0.0294
898.00,0.0301
897.00,0.0304
896.00,0.0304
895.00,0.0300
894.00,0.0295
893.00,0.0288
892.00,0.0280
891.00,0.0272
890.00,0.0266
889.00,0.0261
888.00,0.0258
887.00,0.0257
886.00,0.0257
885.00,0.0259
884.00,0.0262
883.00,0.0267
882.00,0.0273
881.00,0.0281
880.00,0.0290
879.00,0.0300
878.00,0.0312
877.00,0.0325
876.00,0.0338
875.00,0.0352
874.00,0.0365
873.00,0.0377
872.00,0.0386
871.00,0.0392
870.00,0.0397
869.00,0.0399
868.00,0.0399
867.00,0.0399
866.00,0.0399
865.00,0.0399
864.00,0.0400
863.00,0.0402
862.00,0.0404
861.00,0.0406
860.00,0.0407
859.00,0.0410
858.00,0.0415
857.00,0.0421
856.00,0.0427
855.00,0.0434
854.00,0.0442
853.00,0.0451
852.00,0.0459
851.00,0.0467
850.00,0.0475
849.00,0.0482
848.00,0.0488
847.00,0.0493
846.00,0.0498
845.00,0.0501
844.00,0.0503
843.00,0.0503
842.00,0.0504
841.00,0.0503
840.00,0.0502
839.00,0.0501
838.00,0.0501
837.00,0.0501
836.00,0.0502
835.00,0.0502
834.00,0.0504
833.00,0.0506
832.00,0.0508
831.00,0.0509
830.00,0.0510
829.00,0.0510
828.00,0.0509
827.00,0.0508
826.00,0.0507
825.00,0.0508
824.00,0.0509
823.00,0.0511
822.00,0.0515
821.00,0.0519
820.00,0.0523
819.00,0.0527
818.00,0.0532
817.00,0.0535
816.00,0.0535
815.00,0.0534
814.00,0.0531
813.00,0.0526
812.00,0.0516
811.00,0.0502
810.00,0.0484
809.00,0.0463
808.00,0.0440
807.00,0.0417
806.00,0.0397
805.00,0.0380
804.00,0.0366
803.00,0.0355
802.00,0.0349
801.00,0.0344
800.00,0.0340
799.00,0.0338
798.00,0.0338
797.00,0.0338
796.00,0.0338
795.00,0.0339
794.00,0.0341
793.00,0.0344
792.00,0.0345
791.00,0.0346
790.00,0.0348
789.00,0.0349
788.00,0.0350
787.00,0.0351
786.00,0.0353
785.00,0.0354
784.00,0.0355
783.00,0.0358
782.00,0.0361
781.00,0.0365
780.00,0.0369
779.00,0.0373
778.00,0.0378
777.00,0.0380
776.00,0.0380
775.00,0.0378
774.00,0.0376
773.00,0.0374
772.00,0.0373
771.00,0.0374
770.00,0.0377
769.00,0.0381
768.00,0.0385
767.00,0.0389
766.00,0.0393
765.00,0.0399
764.00,0.0404
763.00,0.0411
762.00,0.0418
761.00,0.0426
760.00,0.0433
759.00,0.0440
758.00,0.0448
757.00,0.0456
756.00,0.0464
755.00,0.0472
754.00,0.0480
753.00,0.0489
752.00,0.0497
751.00,0.0505
750.00,0.0513
749.00,0.0522
748.00,0.0530
747.00,0.0538
746.00,0.0548
745.00,0.0557
744.00,0.0567
743.00,0.0579
742.00,0.0593
741.00,0.0609
740.00,0.0625
739.00,0.0642
738.00,0.0657
737.00,0.0667
736.00,0.0671
735.00,0.0668
734.00,0.0661
733.00,0.0650
732.00,0.0636
731.00,0.0622
730.00,0.0608
729.00,0.0595
728.00,0.0582
727.00,0.0569
726.00,0.0559
725.00,0.0548
724.00,0.0539
723.00,0.0530
722.00,0.0524
721.00,0.0519
720.00,0.0514
719.00,0.0511
718.00,0.0509
717.00,0.0509
716.00,0.0509
715.00,0.0510
714.00,0.0511
713.00,0.0512
712.00,0.0510
711.00,0.0509
710.00,0.0507
709.00,0.0506
708.00,0.0505
707.00,0.0505
706.00,0.0506
705.00,0.0507
704.00,0.0508
703.00,0.0509
702.00,0.0510
701.00,0.0513
700.00,0.0516
699.00,0.0520
698.00,0.0526
697.00,0.0534
696.00,0.0544
695.00,0.0555
694.00,0.0568
693.00,0.0579
692.00,0.0589
691.00,0.0596
690.00,0.0603
689.00,0.0608
688.00,0.0611
687.00,0.0613
686.00,0.0614
685.00,0.0614
684.00,0.0613
683.00,0.0612
682.00,0.0613
681.00,0.0615
680.00,0.0616
679.00,0.0618
678.00,0.0622
677.00,0.0626
676.00,0.0631
675.00,0.0636
674.00,0.0643
673.00,0.0651
672.00,0.0657
671.00,0.0664
670.00,0.0672
669.00,0.0682
668.00,0.0695
667.00,0.0709
666.00,0.0720
665.00,0.0730
664.00,0.0739
663.00,0.0750
662.00,0.0763
661.00,0.0777
660.00,0.0790
659.00,0.0804
658.00,0.0819
657.00,0.0834
656.00,0.0848
655.00,0.0861
654.00,0.0873
653.00,0.0885
652.00,0.0895
651.00,0.0903
650.00,0.0910
649.00,0.0915
648.00,0.0916
647.00,0.0914
646.00,0.0911
645.00,0.0905
644.00,0.0897
643.00,0.0887
642.00,0.0877
641.00,0.0866
640.00,0.0854
639.00,0.0842
638.00,0.0831
637.00,0.0820
636.00,0.0810
635.00,0.0800
634.00,0.0792
633.00,0.0785
632.00,0.0778
631.00,0.0773
630.00,0.0770
629.00,0.0767
628.00,0.0765
627.00,0.0762
626.00,0.0761
625.00,0.0760
624.00,0.0758
623.00,0.0755
622.00,0.0753
621.00,0.0750
620.00,0.0747
619.00,0.0743
618.00,0.0742
617.00,0.0741
616.00,0.0739
615.00,0.0737
614.00,0.0736
613.00,0.0736
612.00,0.0736
611.00,0.0737
610.00,0.0740
609.00,0.0743
608.00,0.0746
607.00,0.0749
606.00,0.0754
605.00,0.0759
604.00,0.0762
603.00,0.0766
602.00,0.0770
601.00,0.0774
600.00,0.0776
599.00,0.0777
598.00,0.0779
597.00,0.0780
596.00,0.0780
595.00,0.0779
594.00,0.0780
593.00,0.0782
592.00,0.0784
591.00,0.0788
590.00,0.0796
589.00,0.0809
588.00,0.0825
587.00,0.0846
586.00,0.0871
585.00,0.0897
584.00,0.0919
583.00,0.0937
582.00,0.0952
581.00,0.0963
580.00,0.0970
579.00,0.0975
578.00,0.0979
577.00,0.0980
576.00,0.0979
575.00,0.0976
574.00,0.0974
573.00,0.0971
572.00,0.0968
571.00,0.0964
570.00,0.0962
569.00,0.0960
568.00,0.0956
567.00,0.0952
566.00,0.0948
565.00,0.0943
564.00,0.0934
563.00,0.0924
562.00,0.0915
561.00,0.0907
560.00,0.0899
559.00,0.0893
558.00,0.0889
557.00,0.0886
556.00,0.0880
555.00,0.0873
554.00,0.0866
553.00,0.0860
552.00,0.0853
551.00,0.0847
550.00,0.0843
549.00,0.0839
548.00,0.0832
547.00,0.0826
546.00,0.0822
545.00,0.0817
544.00,0.0811
543.00,0.0805
542.00,0.0800
541.00,0.0796
540.00,0.0791
539.00,0.0789
538.00,0.0792
537.00,0.0798
536.00,0.0803
535.00,0.0810
534.00,0.0820
533.00,0.0828
532.00,0.0833
531.00,0.0835
530.00,0.0835
529.00,0.0834
528.00,0.0828
527.00,0.0820
526.00,0.0810
525.00,0.0799
524.00,0.0787
523.00,0.0778
522.00,0.0773
521.00,0.0770
520.00,0.0765
519.00,0.0760
518.00,0.0757
517.00,0.0754
516.00,0.0748
515.00,0.0744
514.00,0.0744
513.00,0.0746
512.00,0.0746
511.00,0.0747
510.00,0.0751
509.00,0.0756
508.00,0.0758
507.00,0.0759
506.00,0.0761
505.00,0.0760
504.00,0.0754
503.00,0.0748
502.00,0.0744
501.00,0.0742
500.00,0.0739
499.00,0.0736
498.00,0.0735
497.00,0.0734
496.00,0.0731
495.00,0.0729
494.00,0.0733
493.00,0.0737
492.00,0.0738
491.00,0.0740
490.00,0.0745
489.00,0.0749
488.00,0.0750
487.00,0.0750
486.00,0.0751
485.00,0.0751
484.00,0.0748
483.00,0.0746
482.00,0.0749
481.00,0.0753
480.00,0.0752
479.00,0.0750
478.00,0.0749
477.00,0.0747
476.00,0.0741
475.00,0.0739
474.00,0.0742
473.00,0.0745
472.00,0.0744
471.00,0.0744
470.00,0.0747
469.00,0.0748
468.00,0.0742
467.00,0.0735
466.00,0.0733
465.00,0.0730
464.00,0.0724
463.00,0.0721
462.00,0.0722
461.00,0.0722
460.00,0.0717
459.00,0.0710
458.00,0.0707
457.00,0.0704
456.00,0.0696
455.00,0.0691
454.00,0.0692
453.00,0.0693
452.00,0.0688
451.00,0.0684
450.00,0.0685
449.00,0.0686
448.00,0.0684
447.00,0.0682
446.00,0.0683
445.00,0.0683
444.00,0.0678
443.00,0.0673
442.00,0.0673
441.00,0.0671
440.00,0.0663
439.00,0.0656
438.00,0.0657
437.00,0.0659
436.00,0.0655
435.00,0.0650
434.00,0.0651
433.00,0.0653
432.00,0.0650
431.00,0.0646
430.00,0.0647
429.00,0.0646
428.00,0.0639
427.00,0.0633
426.00,0.0636
425.00,0.0639
424.00,0.0637
423.00,0.0639
422.00,0.0647
421.00,0.0651
420.00,0.0641
419.00,0.0628
418.00,0.0629
417.00,0.0636
416.00,0.0640
415.00,0.0648
414.00,0.0666
413.00,0.0680
412.00,0.0680
411.00,0.0673
410.00,0.0670
409.00,0.0665
408.00,0.0655
407.00,0.0651
406.00,0.0662
405.00,0.0670
404.00,0.0665
403.00,0.0662
402.00,0.0672
401.00,0.0676
400.00,0.0657
