Created as New Dataset,Sample 1019 By YargerLab Date Friday, August 01 2025
cm-1,A
4000.00,0.0022
3999.00,0.0022
3998.00,0.0023
3997.00,0.0023
3996.00,0.0023
3995.00,0.0023
3994.00,0.0023
3993.00,0.0023
3992.00,0.0023
3991.00,0.0023
3990.00,0.0023
3989.00,0.0023
3988.00,0.0023
3987.00,0.0023
3986.00,0.0023
3985.00,0.0023
3984.00,0.0023
3983.00,0.0023
3982.00,0.0023
3981.00,0.0023
3980.00,0.0022
3979.00,0.0022
3978.00,0.0022
3977.00,0.0022
3976.00,0.0022
3975.00,0.0022
3974.00,0.0022
3973.00,0.0023
3972.00,0.0023
3971.00,0.0023
3970.00,0.0023
3969.00,0.0023
3968.00,0.0023
3967.00,0.0023
3966.00,0.0023
3965.00,0.0023
3964.00,0.0023
3963.00,0.0023
3962.00,0.0023
3961.00,0.0023
3960.00,0.0023
3959.00,0.0023
3958.00,0.0023
3957.00,0.0023
3956.00,0.0023
3955.00,0.0023
3954.00,0.0023
3953.00,0.0023
3952.00,0.0023
3951.00,0.0023
3950.00,0.0023
3949.00,0.0023
3948.00,0.0023
3947.00,0.0023
3946.00,0.0023
3945.00,0.0024
3944.00,0.0024
3943.00,0.0024
3942.00,0.0023
3941.00,0.0023
3940.00,0.0023
3939.00,0.0023
3938.00,0.0023
3937.00,0.0023
3936.00,0.0023
3935.00,0.0023
3934.00,0.0024
3933.00,0.0024
3932.00,0.0024
3931.00,0.0024
3930.00,0.0024
3929.00,0.0024
3928.00,0.0024
3927.00,0.0024
3926.00,0.0024
3925.00,0.0024
3924.00,0.0024
3923.00,0.0023
3922.00,0.0023
3921.00,0.0023
3920.00,0.0023
3919.00,0.0023
3918.00,0.0023
3917.00,0.0023
3916.00,0.0023
3915.00,0.0023
3914.00,0.0023
3913.00,0.0023
3912.00,0.0023
3911.00,0.0023
3910.00,0.0023
3909.00,0.0023
3908.00,0.0024
3907.00,0.0024
3906.00,0.0025
3905.00,0.0025
3904.00,0.0026
3903.00,0.0026
3902.00,0.0026
3901.00,0.0026
3900.00,0.0026
3899.00,0.0025
3898.00,0.0025
3897.00,0.0025
3896.00,0.0024
3895.00,0.0024
3894.00,0.0024
3893.00,0.0024
3892.00,0.0024
3891.00,0.0024
3890.00,0.0024
3889.00,0.0024
3888.00,0.0025
3887.00,0.0025
3886.00,0.0025
3885.00,0.0025
3884.00,0.0025
3883.00,0.0025
3882.00,0.0025
3881.00,0.0025
3880.00,0.0025
3879.00,0.0024
3878.00,0.0024
3877.00,0.0024
3876.00,0.0024
3875.00,0.0024
3874.00,0.0024
3873.00,0.0025
3872.00,0.0025
3871.00,0.0025
3870.00,0.0026
3869.00,0.0026
3868.00,0.0026
3867.00,0.0026
3866.00,0.0025
3865.00,0.0025
3864.00,0.0025
3863.00,0.0025
3862.00,0.0025
3861.00,0.0025
3860.00,0.0025
3859.00,0.0025
3858.00,0.0025
3857.00,0.0025
3856.00,0.0026
3855.00,0.0027
3854.00,0.0027
3853.00,0.0027
3852.00,0.0028
3851.00,0.0028
3850.00,0.0028
3849.00,0.0027
3848.00,0.0026
3847.00,0.0025
3846.00,0.0025
3845.00,0.0025
3844.00,0.0024
3843.00,0.0025
3842.00,0.0025
3841.00,0.0025
3840.00,0.0026
3839.00,0.0026
3838.00,0.0026
3837.00,0.0027
3836.00,0.0027
3835.00,0.0027
3834.00,0.0027
3833.00,0.0026
3832.00,0.0025
3831.00,0.0024
3830.00,0.0024
3829.00,0.0024
3828.00,0.0024
3827.00,0.0024
3826.00,0.0024
3825.00,0.0024
3824.00,0.0025
3823.00,0.0025
3822.00,0.0026
3821.00,0.0026
3820.00,0.0026
3819.00,0.0026
3818.00,0.0027
3817.00,0.0026
3816.00,0.0026
3815.00,0.0026
3814.00,0.0026
3813.00,0.0025
3812.00,0.0025
3811.00,0.0025
3810.00,0.0025
3809.00,0.0025
3808.00,0.0025
3807.00,0.0025
3806.00,0.0025
3805.00,0.0025
3804.00,0.0025
3803.00,0.0026
3802.00,0.0026
3801.00,0.0026
3800.00,0.0026
3799.00,0.0025
3798.00,0.0025
3797.00,0.0025
3796.00,0.0024
3795.00,0.0024
3794.00,0.0024
3793.00,0.0023
3792.00,0.0023
3791.00,0.0023
3790.00,0.0022
3789.00,0.0022
3788.00,0.0022
3787.00,0.0023
3786.00,0.0023
3785.00,0.0023
3784.00,0.0023
3783.00,0.0023
3782.00,0.0023
3781.00,0.0024
3780.00,0.0024
3779.00,0.0024
3778.00,0.0024
3777.00,0.0024
3776.00,0.0024
3775.00,0.0024
3774.00,0.0024
3773.00,0.0024
3772.00,0.0024
3771.00,0.0024
3770.00,0.0023
3769.00,0.0024
3768.00,0.0024
3767.00,0.0023
3766.00,0.0023
3765.00,0.0023
3764.00,0.0023
3763.00,0.0023
3762.00,0.0024
3761.00,0.0024
3760.00,0.0025
3759.00,0.0025
3758.00,0.0025
3757.00,0.0025
3756.00,0.0026
3755.00,0.0026
3754.00,0.0027
3753.00,0.0028
3752.00,0.0028
3751.00,0.0028
3750.00,0.0028
3749.00,0.0029
3748.00,0.0029
3747.00,0.0029
3746.00,0.0029
3745.00,0.0028
3744.00,0.0028
3743.00,0.0028
3742.00,0.0028
3741.00,0.0027
3740.00,0.0027
3739.00,0.0027
3738.00,0.0026
3737.00,0.0026
3736.00,0.0026
3735.00,0.0026
3734.00,0.0026
3733.00,0.0026
3732.00,0.0026
3731.00,0.0026
3730.00,0.0025
3729.00,0.0024
3728.00,0.0024
3727.00,0.0024
3726.00,0.0024
3725.00,0.0024
3724.00,0.0024
3723.00,0.0024
3722.00,0.0024
3721.00,0.0024
3720.00,0.0023
3719.00,0.0023
3718.00,0.0023
3717.00,0.0023
3716.00,0.0023
3715.00,0.0024
3714.00,0.0024
3713.00,0.0025
3712.00,0.0025
3711.00,0.0025
3710.00,0.0025
3709.00,0.0024
3708.00,0.0024
3707.00,0.0023
3706.00,0.0023
3705.00,0.0023
3704.00,0.0022
3703.00,0.0022
3702.00,0.0022
3701.00,0.0022
3700.00,0.0022
3699.00,0.0022
3698.00,0.0022
3697.00,0.0023
3696.00,0.0023
3695.00,0.0023
3694.00,0.0023
3693.00,0.0023
3692.00,0.0024
3691.00,0.0024
3690.00,0.0024
3689.00,0.0024
3688.00,0.0024
3687.00,0.0024
3686.00,0.0024
3685.00,0.0024
3684.00,0.0024
3683.00,0.0024
3682.00,0.0024
3681.00,0.0025
3680.00,0.0025
3679.00,0.0026
3678.00,0.0026
3677.00,0.0027
3676.00,0.0027
3675.00,0.0028
3674.00,0.0028
3673.00,0.0029
3672.00,0.0029
3671.00,0.0029
3670.00,0.0029
3669.00,0.0028
3668.00,0.0028
3667.00,0.0027
3666.00,0.0026
3665.00,0.0025
3664.00,0.0025
3663.00,0.0024
3662.00,0.0024
3661.00,0.0025
3660.00,0.0025
3659.00,0.0026
3658.00,0.0027
3657.00,0.0027
3656.00,0.0027
3655.00,0.0028
3654.00,0.0028
3653.00,0.0029
3652.00,0.0030
3651.00,0.0030
3650.00,0.0031
3649.00,0.0031
3648.00,0.0031
3647.00,0.0031
3646.00,0.0031
3645.00,0.0030
3644.00,0.0029
3643.00,0.0029
3642.00,0.0028
3641.00,0.0028
3640.00,0.0028
3639.00,0.0028
3638.00,0.0028
3637.00,0.0028
3636.00,0.0028
3635.00,0.0029
3634.00,0.0029
3633.00,0.0030
3632.00,0.0031
3631.00,0.0032
3630.00,0.0033
3629.00,0.0033
3628.00,0.0033
3627.00,0.0033
3626.00,0.0033
3625.00,0.0033
3624.00,0.0033
3623.00,0.0033
3622.00,0.0033
3621.00,0.0033
3620.00,0.0034
3619.00,0.0033
3618.00,0.0033
3617.00,0.0034
3616.00,0.0034
3615.00,0.0035
3614.00,0.0036
3613.00,0.0036
3612.00,0.0037
3611.00,0.0037
3610.00,0.0038
3609.00,0.0038
3608.00,0.0038
3607.00,0.0038
3606.00,0.0038
3605.00,0.0038
3604.00,0.0038
3603.00,0.0038
3602.00,0.0038
3601.00,0.0038
3600.00,0.0038
3599.00,0.0038
3598.00,0.0038
3597.00,0.0039
3596.00,0.0039
3595.00,0.0039
3594.00,0.0040
3593.00,0.0040
3592.00,0.0041
3591.00,0.0041
3590.00,0.0042
3589.00,0.0043
3588.00,0.0043
3587.00,0.0044
3586.00,0.0044
3585.00,0.0044
3584.00,0.0044
3583.00,0.0045
3582.00,0.0045
3581.00,0.0045
3580.00,0.0045
3579.00,0.0046
3578.00,0.0046
3577.00,0.0046
3576.00,0.0047
3575.00,0.0047
3574.00,0.0048
3573.00,0.0048
3572.00,0.0049
3571.00,0.0050
3570.00,0.0051
3569.00,0.0052
3568.00,0.0052
3567.00,0.0052
3566.00,0.0052
3565.00,0.0052
3564.00,0.0053
3563.00,0.0054
3562.00,0.0054
3561.00,0.0054
3560.00,0.0054
3559.00,0.0054
3558.00,0.0054
3557.00,0.0054
3556.00,0.0055
3555.00,0.0055
3554.00,0.0055
3553.00,0.0056
3552.00,0.0056
3551.00,0.0057
3550.00,0.0057
3549.00,0.0058
3548.00,0.0059
3547.00,0.0059
3546.00,0.0060
3545.00,0.0060
3544.00,0.0060
3543.00,0.0060
3542.00,0.0060
3541.00,0.0060
3540.00,0.0060
3539.00,0.0060
3538.00,0.0061
3537.00,0.0061
3536.00,0.0061
3535.00,0.0062
3534.00,0.0062
3533.00,0.0063
3532.00,0.0063
3531.00,0.0064
3530.00,0.0064
3529.00,0.0064
3528.00,0.0064
3527.00,0.0065
3526.00,0.0065
3525.00,0.0065
3524.00,0.0065
3523.00,0.0065
3522.00,0.0065
3521.00,0.0066
3520.00,0.0066
3519.00,0.0066
3518.00,0.0066
3517.00,0.0066
3516.00,0.0067
3515.00,0.0067
3514.00,0.0067
3513.00,0.0068
3512.00,0.0068
3511.00,0.0068
3510.00,0.0068
3509.00,0.0068
3508.00,0.0068
3507.00,0.0069
3506.00,0.0069
3505.00,0.0069
3504.00,0.0070
3503.00,0.0070
3502.00,0.0070
3501.00,0.0070
3500.00,0.0070
3499.00,0.0071
3498.00,0.0071
3497.00,0.0071
3496.00,0.0071
3495.00,0.0071
3494.00,0.0071
3493.00,0.0072
3492.00,0.0072
3491.00,0.0072
3490.00,0.0072
3489.00,0.0073
3488.00,0.0073
3487.00,0.0073
3486.00,0.0073
3485.00,0.0073
3484.00,0.0073
3483.00,0.0073
3482.00,0.0074
3481.00,0.0074
3480.00,0.0074
3479.00,0.0074
3478.00,0.0074
3477.00,0.0074
3476.00,0.0074
3475.00,0.0075
3474.00,0.0075
3473.00,0.0075
3472.00,0.0075
3471.00,0.0075
3470.00,0.0076
3469.00,0.0076
3468.00,0.0076
3467.00,0.0076
3466.00,0.0076
3465.00,0.0076
3464.00,0.0076
3463.00,0.0076
3462.00,0.0076
3461.00,0.0077
3460.00,0.0077
3459.00,0.0077
3458.00,0.0077
3457.00,0.0077
3456.00,0.0077
3455.00,0.0078
3454.00,0.0078
3453.00,0.0078
3452.00,0.0078
3451.00,0.0078
3450.00,0.0078
3449.00,0.0078
3448.00,0.0078
3447.00,0.0078
3446.00,0.0078
3445.00,0.0078
3444.00,0.0078
3443.00,0.0078
3442.00,0.0078
3441.00,0.0078
3440.00,0.0078
3439.00,0.0078
3438.00,0.0078
3437.00,0.0079
3436.00,0.0079
3435.00,0.0079
3434.00,0.0079
3433.00,0.0079
3432.00,0.0079
3431.00,0.0079
3430.00,0.0079
3429.00,0.0079
3428.00,0.0079
3427.00,0.0079
3426.00,0.0079
3425.00,0.0079
3424.00,0.0079
3423.00,0.0079
3422.00,0.0079
3421.00,0.0079
3420.00,0.0079
3419.00,0.0078
3418.00,0.0078
3417.00,0.0078
3416.00,0.0078
3415.00,0.0078
3414.00,0.0078
3413.00,0.0078
3412.00,0.0078
3411.00,0.0078
3410.00,0.0078
3409.00,0.0078
3408.00,0.0078
3407.00,0.0078
3406.00,0.0078
3405.00,0.0078
3404.00,0.0078
3403.00,0.0078
3402.00,0.0077
3401.00,0.0077
3400.00,0.0077
3399.00,0.0078
3398.00,0.0078
3397.00,0.0078
3396.00,0.0078
3395.00,0.0078
3394.00,0.0077
3393.00,0.0077
3392.00,0.0077
3391.00,0.0077
3390.00,0.0077
3389.00,0.0076
3388.00,0.0076
3387.00,0.0076
3386.00,0.0076
3385.00,0.0076
3384.00,0.0075
3383.00,0.0075
3382.00,0.0075
3381.00,0.0075
3380.00,0.0075
3379.00,0.0075
3378.00,0.0075
3377.00,0.0075
3376.00,0.0075
3375.00,0.0075
3374.00,0.0075
3373.00,0.0074
3372.00,0.0074
3371.00,0.0074
3370.00,0.0074
3369.00,0.0074
3368.00,0.0074
3367.00,0.0073
3366.00,0.0073
3365.00,0.0073
3364.00,0.0073
3363.00,0.0073
3362.00,0.0072
3361.00,0.0072
3360.00,0.0072
3359.00,0.0072
3358.00,0.0072
3357.00,0.0072
3356.00,0.0072
3355.00,0.0072
3354.00,0.0072
3353.00,0.0072
3352.00,0.0072
3351.00,0.0071
3350.00,0.0071
3349.00,0.0071
3348.00,0.0071
3347.00,0.0071
3346.00,0.0071
3345.00,0.0071
3344.00,0.0071
3343.00,0.0071
3342.00,0.0071
3341.00,0.0071
3340.00,0.0071
3339.00,0.0070
3338.00,0.0070
3337.00,0.0070
3336.00,0.0070
3335.00,0.0070
3334.00,0.0070
3333.00,0.0071
3332.00,0.0071
3331.00,0.0071
3330.00,0.0070
3329.00,0.0070
3328.00,0.0070
3327.00,0.0069
3326.00,0.0069
3325.00,0.0069
3324.00,0.0069
3323.00,0.0069
3322.00,0.0069
3321.00,0.0069
3320.00,0.0069
3319.00,0.0069
3318.00,0.0069
3317.00,0.0069
3316.00,0.0069
3315.00,0.0069
3314.00,0.0069
3313.00,0.0069
3312.00,0.0069
3311.00,0.0068
3310.00,0.0068
3309.00,0.0068
3308.00,0.0067
3307.00,0.0067
3306.00,0.0067
3305.00,0.0067
3304.00,0.0067
3303.00,0.0067
3302.00,0.0068
3301.00,0.0068
3300.00,0.0068
3299.00,0.0068
3298.00,0.0068
3297.00,0.0068
3296.00,0.0068
3295.00,0.0068
3294.00,0.0068
3293.00,0.0068
3292.00,0.0068
3291.00,0.0068
3290.00,0.0068
3289.00,0.0068
3288.00,0.0068
3287.00,0.0068
3286.00,0.0068
3285.00,0.0067
3284.00,0.0067
3283.00,0.0067
3282.00,0.0067
3281.00,0.0068
3280.00,0.0068
3279.00,0.0068
3278.00,0.0068
3277.00,0.0068
3276.00,0.0067
3275.00,0.0067
3274.00,0.0067
3273.00,0.0067
3272.00,0.0067
3271.00,0.0066
3270.00,0.0066
3269.00,0.0066
3268.00,0.0066
3267.00,0.0066
3266.00,0.0066
3265.00,0.0066
3264.00,0.0065
3263.00,0.0065
3262.00,0.0065
3261.00,0.0065
3260.00,0.0065
3259.00,0.0065
3258.00,0.0065
3257.00,0.0065
3256.00,0.0065
3255.00,0.0065
3254.00,0.0065
3253.00,0.0065
3252.00,0.0065
3251.00,0.0065
3250.00,0.0065
3249.00,0.0065
3248.00,0.0065
3247.00,0.0065
3246.00,0.0065
3245.00,0.0064
3244.00,0.0064
3243.00,0.0064
3242.00,0.0063
3241.00,0.0063
3240.00,0.0063
3239.00,0.0063
3238.00,0.0063
3237.00,0.0063
3236.00,0.0063
3235.00,0.0063
3234.00,0.0063
3233.00,0.0063
3232.00,0.0063
3231.00,0.0063
3230.00,0.0063
3229.00,0.0062
3228.00,0.0062
3227.00,0.0062
3226.00,0.0062
3225.00,0.0062
3224.00,0.0062
3223.00,0.0062
3222.00,0.0061
3221.00,0.0061
3220.00,0.0061
3219.00,0.0061
3218.00,0.0061
3217.00,0.0061
3216.00,0.0061
3215.00,0.0061
3214.00,0.0061
3213.00,0.0061
3212.00,0.0061
3211.00,0.0061
3210.00,0.0060
3209.00,0.0060
3208.00,0.0060
3207.00,0.0060
3206.00,0.0060
3205.00,0.0059
3204.00,0.0059
3203.00,0.0059
3202.00,0.0059
3201.00,0.0059
3200.00,0.0059
3199.00,0.0059
3198.00,0.0059
3197.00,0.0059
3196.00,0.0059
3195.00,0.0058
3194.00,0.0058
3193.00,0.0058
3192.00,0.0058
3191.00,0.0058
3190.00,0.0058
3189.00,0.0058
3188.00,0.0058
3187.00,0.0057
3186.00,0.0057
3185.00,0.0057
3184.00,0.0057
3183.00,0.0057
3182.00,0.0057
3181.00,0.0057
3180.00,0.0057
3179.00,0.0057
3178.00,0.0057
3177.00,0.0057
3176.00,0.0056
3175.00,0.0056
3174.00,0.0056
3173.00,0.0057
3172.00,0.0057
3171.00,0.0056
3170.00,0.0056
3169.00,0.0056
3168.00,0.0056
3167.00,0.0056
3166.00,0.0056
3165.00,0.0055
3164.00,0.0055
3163.00,0.0055
3162.00,0.0055
3161.00,0.0055
3160.00,0.0055
3159.00,0.0055
3158.00,0.0055
3157.00,0.0054
3156.00,0.0054
3155.00,0.0054
3154.00,0.0054
3153.00,0.0054
3152.00,0.0055
3151.00,0.0055
3150.00,0.0055
3149.00,0.0055
3148.00,0.0055
3147.00,0.0055
3146.00,0.0054
3145.00,0.0054
3144.00,0.0054
3143.00,0.0053
3142.00,0.0053
3141.00,0.0053
3140.00,0.0053
3139.00,0.0053
3138.00,0.0053
3137.00,0.0053
3136.00,0.0053
3135.00,0.0053
3134.00,0.0052
3133.00,0.0053
3132.00,0.0053
3131.00,0.0053
3130.00,0.0053
3129.00,0.0053
3128.00,0.0052
3127.00,0.0052
3126.00,0.0052
3125.00,0.0052
3124.00,0.0052
3123.00,0.0052
3122.00,0.0052
3121.00,0.0052
3120.00,0.0052
3119.00,0.0052
3118.00,0.0052
3117.00,0.0051
3116.00,0.0051
3115.00,0.0051
3114.00,0.0051
3113.00,0.0051
3112.00,0.0051
3111.00,0.0051
3110.00,0.0051
3109.00,0.0051
3108.00,0.0051
3107.00,0.0051
3106.00,0.0051
3105.00,0.0051
3104.00,0.0051
3103.00,0.0050
3102.00,0.0050
3101.00,0.0050
3100.00,0.0050
3099.00,0.0050
3098.00,0.0050
3097.00,0.0050
3096.00,0.0050
3095.00,0.0050
3094.00,0.0049
3093.00,0.0049
3092.00,0.0049
3091.00,0.0049
3090.00,0.0050
3089.00,0.0050
3088.00,0.0050
3087.00,0.0050
3086.00,0.0050
3085.00,0.0050
3084.00,0.0050
3083.00,0.0050
3082.00,0.0049
3081.00,0.0050
3080.00,0.0050
3079.00,0.0050
3078.00,0.0050
3077.00,0.0050
3076.00,0.0050
3075.00,0.0050
3074.00,0.0049
3073.00,0.0049
3072.00,0.0049
3071.00,0.0049
3070.00,0.0049
3069.00,0.0049
3068.00,0.0049
3067.00,0.0049
3066.00,0.0049
3065.00,0.0049
3064.00,0.0048
3063.00,0.0048
3062.00,0.0048
3061.00,0.0048
3060.00,0.0048
3059.00,0.0048
3058.00,0.0048
3057.00,0.0048
3056.00,0.0048
3055.00,0.0048
3054.00,0.0048
3053.00,0.0048
3052.00,0.0047
3051.00,0.0047
3050.00,0.0047
3049.00,0.0047
3048.00,0.0047
3047.00,0.0047
3046.00,0.0047
3045.00,0.0047
3044.00,0.0047
3043.00,0.0047
3042.00,0.0047
3041.00,0.0047
3040.00,0.0047
3039.00,0.0047
3038.00,0.0047
3037.00,0.0047
3036.00,0.0047
3035.00,0.0047
3034.00,0.0047
3033.00,0.0047
3032.00,0.0047
3031.00,0.0046
3030.00,0.0046
3029.00,0.0046
3028.00,0.0046
3027.00,0.0047
3026.00,0.0047
3025.00,0.0046
3024.00,0.0046
3023.00,0.0046
3022.00,0.0046
3021.00,0.0046
3020.00,0.0046
3019.00,0.0046
3018.00,0.0046
3017.00,0.0046
3016.00,0.0046
3015.00,0.0046
3014.00,0.0047
3013.00,0.0047
3012.00,0.0047
3011.00,0.0048
3010.00,0.0048
3009.00,0.0048
3008.00,0.0048
3007.00,0.0049
3006.00,0.0049
3005.00,0.0050
3004.00,0.0050
3003.00,0.0051
3002.00,0.0052
3001.00,0.0053
3000.00,0.0055
2999.00,0.0056
2998.00,0.0057
2997.00,0.0058
2996.00,0.0060
2995.00,0.0061
2994.00,0.0063
2993.00,0.0064
2992.00,0.0066
2991.00,0.0068
2990.00,0.0070
2989.00,0.0072
2988.00,0.0073
2987.00,0.0075
2986.00,0.0077
2985.00,0.0078
2984.00,0.0079
2983.00,0.0080
2982.00,0.0081
2981.00,0.0082
2980.00,0.0084
2979.00,0.0085
2978.00,0.0086
2977.00,0.0088
2976.00,0.0089
2975.00,0.0090
2974.00,0.0091
2973.00,0.0092
2972.00,0.0093
2971.00,0.0094
2970.00,0.0095
2969.00,0.0096
2968.00,0.0097
2967.00,0.0098
2966.00,0.0099
2965.00,0.0100
2964.00,0.0101
2963.00,0.0103
2962.00,0.0104
2961.00,0.0105
2960.00,0.0106
2959.00,0.0107
2958.00,0.0108
2957.00,0.0109
2956.00,0.0109
2955.00,0.0110
2954.00,0.0110
2953.00,0.0110
2952.00,0.0110
2951.00,0.0110
2950.00,0.0110
2949.00,0.0110
2948.00,0.0110
2947.00,0.0110
2946.00,0.0110
2945.00,0.0109
2944.00,0.0109
2943.00,0.0109
2942.00,0.0108
2941.00,0.0108
2940.00,0.0108
2939.00,0.0108
2938.00,0.0108
2937.00,0.0108
2936.00,0.0109
2935.00,0.0109
2934.00,0.0110
2933.00,0.0111
2932.00,0.0111
2931.00,0.0112
2930.00,0.0112
2929.00,0.0112
2928.00,0.0113
2927.00,0.0113
2926.00,0.0113
2925.00,0.0113
2924.00,0.0113
2923.00,0.0113
2922.00,0.0112
2921.00,0.0112
2920.00,0.0111
2919.00,0.0111
2918.00,0.0110
2917.00,0.0109
2916.00,0.0108
2915.00,0.0107
2914.00,0.0105
2913.00,0.0104
2912.00,0.0103
2911.00,0.0102
2910.00,0.0101
2909.00,0.0099
2908.00,0.0098
2907.00,0.0097
2906.00,0.0096
2905.00,0.0095
2904.00,0.0094
2903.00,0.0093
2902.00,0.0092
2901.00,0.0091
2900.00,0.0091
2899.00,0.0091
2898.00,0.0091
2897.00,0.0091
2896.00,0.0091
2895.00,0.0091
2894.00,0.0090
2893.00,0.0090
2892.00,0.0090
2891.00,0.0090
2890.00,0.0090
2889.00,0.0091
2888.00,0.0091
2887.00,0.0091
2886.00,0.0091
2885.00,0.0090
2884.00,0.0090
2883.00,0.0090
2882.00,0.0090
2881.00,0.0090
2880.00,0.0091
2879.00,0.0091
2878.00,0.0091
2877.00,0.0092
2876.00,0.0092
2875.00,0.0092
2874.00,0.0092
2873.00,0.0093
2872.00,0.0093
2871.00,0.0093
2870.00,0.0093
2869.00,0.0093
2868.00,0.0093
2867.00,0.0093
2866.00,0.0092
2865.00,0.0092
2864.00,0.0091
2863.00,0.0091
2862.00,0.0090
2861.00,0.0090
2860.00,0.0090
2859.00,0.0089
2858.00,0.0089
2857.00,0.0088
2856.00,0.0087
2855.00,0.0086
2854.00,0.0084
2853.00,0.0083
2852.00,0.0081
2851.00,0.0080
2850.00,0.0078
2849.00,0.0077
2848.00,0.0075
2847.00,0.0074
2846.00,0.0072
2845.00,0.0070
2844.00,0.0069
2843.00,0.0067
2842.00,0.0066
2841.00,0.0065
2840.00,0.0064
2839.00,0.0063
2838.00,0.0062
2837.00,0.0061
2836.00,0.0060
2835.00,0.0059
2834.00,0.0058
2833.00,0.0058
2832.00,0.0057
2831.00,0.0056
2830.00,0.0055
2829.00,0.0055
2828.00,0.0054
2827.00,0.0053
2826.00,0.0052
2825.00,0.0052
2824.00,0.0051
2823.00,0.0050
2822.00,0.0050
2821.00,0.0049
2820.00,0.0049
2819.00,0.0048
2818.00,0.0047
2817.00,0.0047
2816.00,0.0046
2815.00,0.0046
2814.00,0.0046
2813.00,0.0046
2812.00,0.0045
2811.00,0.0045
2810.00,0.0045
2809.00,0.0044
2808.00,0.0044
2807.00,0.0044
2806.00,0.0043
2805.00,0.0043
2804.00,0.0043
2803.00,0.0043
2802.00,0.0043
2801.00,0.0043
2800.00,0.0043
2799.00,0.0043
2798.00,0.0042
2797.00,0.0042
2796.00,0.0042
2795.00,0.0041
2794.00,0.0041
2793.00,0.0041
2792.00,0.0041
2791.00,0.0041
2790.00,0.0041
2789.00,0.0041
2788.00,0.0040
2787.00,0.0040
2786.00,0.0040
2785.00,0.0040
2784.00,0.0040
2783.00,0.0040
2782.00,0.0040
2781.00,0.0039
2780.00,0.0039
2779.00,0.0039
2778.00,0.0039
2777.00,0.0039
2776.00,0.0039
2775.00,0.0038
2774.00,0.0038
2773.00,0.0038
2772.00,0.0038
2771.00,0.0038
2770.00,0.0038
2769.00,0.0038
2768.00,0.0038
2767.00,0.0038
2766.00,0.0038
2765.00,0.0038
2764.00,0.0038
2763.00,0.0038
2762.00,0.0038
2761.00,0.0038
2760.00,0.0038
2759.00,0.0038
2758.00,0.0038
2757.00,0.0038
2756.00,0.0038
2755.00,0.0038
2754.00,0.0038
2753.00,0.0038
2752.00,0.0038
2751.00,0.0038
2750.00,0.0038
2749.00,0.0038
2748.00,0.0038
2747.00,0.0038
2746.00,0.0038
2745.00,0.0038
2744.00,0.0038
2743.00,0.0038
2742.00,0.0038
2741.00,0.0038
2740.00,0.0038
2739.00,0.0038
2738.00,0.0038
2737.00,0.0038
2736.00,0.0038
2735.00,0.0038
2734.00,0.0038
2733.00,0.0038
2732.00,0.0038
2731.00,0.0038
2730.00,0.0038
2729.00,0.0038
2728.00,0.0038
2727.00,0.0038
2726.00,0.0038
2725.00,0.0038
2724.00,0.0038
2723.00,0.0038
2722.00,0.0037
2721.00,0.0037
2720.00,0.0038
2719.00,0.0038
2718.00,0.0038
2717.00,0.0038
2716.00,0.0037
2715.00,0.0037
2714.00,0.0037
2713.00,0.0037
2712.00,0.0038
2711.00,0.0037
2710.00,0.0037
2709.00,0.0037
2708.00,0.0037
2707.00,0.0037
2706.00,0.0037
2705.00,0.0036
2704.00,0.0036
2703.00,0.0036
2702.00,0.0036
2701.00,0.0036
2700.00,0.0037
2699.00,0.0036
2698.00,0.0036
2697.00,0.0036
2696.00,0.0036
2695.00,0.0036
2694.00,0.0036
2693.00,0.0036
2692.00,0.0036
2691.00,0.0036
2690.00,0.0035
2689.00,0.0036
2688.00,0.0036
2687.00,0.0036
2686.00,0.0035
2685.00,0.0035
2684.00,0.0035
2683.00,0.0035
2682.00,0.0035
2681.00,0.0035
2680.00,0.0035
2679.00,0.0035
2678.00,0.0035
2677.00,0.0035
2676.00,0.0035
2675.00,0.0035
2674.00,0.0035
2673.00,0.0035
2672.00,0.0035
2671.00,0.0035
2670.00,0.0035
2669.00,0.0035
2668.00,0.0035
2667.00,0.0035
2666.00,0.0036
2665.00,0.0036
2664.00,0.0036
2663.00,0.0036
2662.00,0.0037
2661.00,0.0037
2660.00,0.0037
2659.00,0.0038
2658.00,0.0038
2657.00,0.0038
2656.00,0.0038
2655.00,0.0038
2654.00,0.0038
2653.00,0.0038
2652.00,0.0038
2651.00,0.0038
2650.00,0.0038
2649.00,0.0038
2648.00,0.0038
2647.00,0.0038
2646.00,0.0038
2645.00,0.0038
2644.00,0.0038
2643.00,0.0038
2642.00,0.0038
2641.00,0.0038
2640.00,0.0037
2639.00,0.0037
2638.00,0.0037
2637.00,0.0037
2636.00,0.0037
2635.00,0.0037
2634.00,0.0036
2633.00,0.0036
2632.00,0.0036
2631.00,0.0036
2630.00,0.0036
2629.00,0.0036
2628.00,0.0036
2627.00,0.0036
2626.00,0.0036
2625.00,0.0036
2624.00,0.0036
2623.00,0.0036
2622.00,0.0036
2621.00,0.0036
2620.00,0.0036
2619.00,0.0035
2618.00,0.0035
2617.00,0.0035
2616.00,0.0035
2615.00,0.0036
2614.00,0.0036
2613.00,0.0036
2612.00,0.0036
2611.00,0.0036
2610.00,0.0035
2609.00,0.0035
2608.00,0.0035
2607.00,0.0034
2606.00,0.0034
2605.00,0.0034
2604.00,0.0034
2603.00,0.0034
2602.00,0.0034
2601.00,0.0034
2600.00,0.0034
2599.00,0.0034
2598.00,0.0034
2597.00,0.0034
2596.00,0.0033
2595.00,0.0033
2594.00,0.0033
2593.00,0.0033
2592.00,0.0034
2591.00,0.0034
2590.00,0.0034
2589.00,0.0033
2588.00,0.0033
2587.00,0.0033
2586.00,0.0033
2585.00,0.0033
2584.00,0.0033
2583.00,0.0033
2582.00,0.0033
2581.00,0.0032
2580.00,0.0032
2579.00,0.0032
2578.00,0.0032
2577.00,0.0032
2576.00,0.0032
2575.00,0.0032
2574.00,0.0032
2573.00,0.0032
2572.00,0.0032
2571.00,0.0032
2570.00,0.0032
2569.00,0.0032
2568.00,0.0032
2567.00,0.0032
2566.00,0.0032
2565.00,0.0031
2564.00,0.0031
2563.00,0.0031
2562.00,0.0032
2561.00,0.0032
2560.00,0.0032
2559.00,0.0032
2558.00,0.0032
2557.00,0.0032
2556.00,0.0031
2555.00,0.0031
2554.00,0.0031
2553.00,0.0030
2552.00,0.0030
2551.00,0.0030
2550.00,0.0031
2549.00,0.0031
2548.00,0.0031
2547.00,0.0031
2546.00,0.0031
2545.00,0.0031
2544.00,0.0031
2543.00,0.0031
2542.00,0.0030
2541.00,0.0030
2540.00,0.0029
2539.00,0.0029
2538.00,0.0029
2537.00,0.0029
2536.00,0.0029
2535.00,0.0029
2534.00,0.0029
2533.00,0.0029
2532.00,0.0029
2531.00,0.0029
2530.00,0.0029
2529.00,0.0029
2528.00,0.0028
2527.00,0.0028
2526.00,0.0028
2525.00,0.0028
2524.00,0.0028
2523.00,0.0028
2522.00,0.0028
2521.00,0.0028
2520.00,0.0028
2519.00,0.0028
2518.00,0.0028
2517.00,0.0029
2516.00,0.0028
2515.00,0.0028
2514.00,0.0027
2513.00,0.0027
2512.00,0.0027
2511.00,0.0027
2510.00,0.0027
2509.00,0.0028
2508.00,0.0028
2507.00,0.0027
2506.00,0.0027
2505.00,0.0027
2504.00,0.0027
2503.00,0.0027
2502.00,0.0027
2501.00,0.0027
2500.00,0.0026
2499.00,0.0026
2498.00,0.0026
2497.00,0.0027
2496.00,0.0027
2495.00,0.0027
2494.00,0.0026
2493.00,0.0026
2492.00,0.0026
2491.00,0.0026
2490.00,0.0026
2489.00,0.0026
2488.00,0.0027
2487.00,0.0027
2486.00,0.0026
2485.00,0.0026
2484.00,0.0026
2483.00,0.0026
2482.00,0.0027
2481.00,0.0027
2480.00,0.0027
2479.00,0.0027
2478.00,0.0027
2477.00,0.0027
2476.00,0.0027
2475.00,0.0026
2474.00,0.0026
2473.00,0.0026
2472.00,0.0026
2471.00,0.0026
2470.00,0.0027
2469.00,0.0027
2468.00,0.0027
2467.00,0.0027
2466.00,0.0027
2465.00,0.0027
2464.00,0.0027
2463.00,0.0027
2462.00,0.0027
2461.00,0.0027
2460.00,0.0027
2459.00,0.0027
2458.00,0.0027
2457.00,0.0028
2456.00,0.0028
2455.00,0.0028
2454.00,0.0028
2453.00,0.0028
2452.00,0.0028
2451.00,0.0028
2450.00,0.0028
2449.00,0.0027
2448.00,0.0027
2447.00,0.0027
2446.00,0.0026
2445.00,0.0026
2444.00,0.0025
2443.00,0.0025
2442.00,0.0026
2441.00,0.0026
2440.00,0.0026
2439.00,0.0026
2438.00,0.0026
2437.00,0.0026
2436.00,0.0026
2435.00,0.0026
2434.00,0.0026
2433.00,0.0026
2432.00,0.0026
2431.00,0.0026
2430.00,0.0026
2429.00,0.0026
2428.00,0.0025
2427.00,0.0025
2426.00,0.0026
2425.00,0.0026
2424.00,0.0026
2423.00,0.0026
2422.00,0.0025
2421.00,0.0025
2420.00,0.0025
2419.00,0.0025
2418.00,0.0025
2417.00,0.0025
2416.00,0.0025
2415.00,0.0025
2414.00,0.0025
2413.00,0.0025
2412.00,0.0026
2411.00,0.0026
2410.00,0.0025
2409.00,0.0025
2408.00,0.0025
2407.00,0.0025
2406.00,0.0024
2405.00,0.0024
2404.00,0.0024
2403.00,0.0024
2402.00,0.0024
2401.00,0.0024
2400.00,0.0024
2399.00,0.0024
2398.00,0.0024
2397.00,0.0024
2396.00,0.0024
2395.00,0.0024
2394.00,0.0024
2393.00,0.0024
2392.00,0.0024
2391.00,0.0024
2390.00,0.0024
2389.00,0.0024
2388.00,0.0023
2387.00,0.0023
2386.00,0.0023
2385.00,0.0022
2384.00,0.0021
2383.00,0.0020
2382.00,0.0019
2381.00,0.0018
2380.00,0.0017
2379.00,0.0017
2378.00,0.0016
2377.00,0.0016
2376.00,0.0016
2375.00,0.0015
2374.00,0.0015
2373.00,0.0015
2372.00,0.0014
2371.00,0.0014
2370.00,0.0014
2369.00,0.0014
2368.00,0.0014
2367.00,0.0014
2366.00,0.0014
2365.00,0.0014
2364.00,0.0015
2363.00,0.0016
2362.00,0.0016
2361.00,0.0016
2360.00,0.0016
2359.00,0.0015
2358.00,0.0015
2357.00,0.0015
2356.00,0.0015
2355.00,0.0016
2354.00,0.0016
2353.00,0.0016
2352.00,0.0016
2351.00,0.0016
2350.00,0.0016
2349.00,0.0016
2348.00,0.0017
2347.00,0.0017
2346.00,0.0018
2345.00,0.0018
2344.00,0.0018
2343.00,0.0018
2342.00,0.0018
2341.00,0.0018
2340.00,0.0018
2339.00,0.0019
2338.00,0.0019
2337.00,0.0020
2336.00,0.0020
2335.00,0.0020
2334.00,0.0021
2333.00,0.0021
2332.00,0.0020
2331.00,0.0020
2330.00,0.0020
2329.00,0.0021
2328.00,0.0024
2327.00,0.0027
2326.00,0.0030
2325.00,0.0031
2324.00,0.0030
2323.00,0.0029
2322.00,0.0028
2321.00,0.0027
2320.00,0.0026
2319.00,0.0025
2318.00,0.0025
2317.00,0.0024
2316.00,0.0024
2315.00,0.0025
2314.00,0.0024
2313.00,0.0024
2312.00,0.0023
2311.00,0.0023
2310.00,0.0022
2309.00,0.0022
2308.00,0.0022
2307.00,0.0023
2306.00,0.0024
2305.00,0.0024
2304.00,0.0024
2303.00,0.0025
2302.00,0.0025
2301.00,0.0025
2300.00,0.0026
2299.00,0.0026
2298.00,0.0027
2297.00,0.0028
2296.00,0.0028
2295.00,0.0029
2294.00,0.0030
2293.00,0.0031
2292.00,0.0032
2291.00,0.0033
2290.00,0.0034
2289.00,0.0034
2288.00,0.0034
2287.00,0.0035
2286.00,0.0035
2285.00,0.0034
2284.00,0.0034
2283.00,0.0033
2282.00,0.0033
2281.00,0.0032
2280.00,0.0032
2279.00,0.0031
2278.00,0.0031
2277.00,0.0031
2276.00,0.0031
2275.00,0.0031
2274.00,0.0031
2273.00,0.0031
2272.00,0.0031
2271.00,0.0031
2270.00,0.0031
2269.00,0.0030
2268.00,0.0030
2267.00,0.0029
2266.00,0.0028
2265.00,0.0028
2264.00,0.0027
2263.00,0.0028
2262.00,0.0028
2261.00,0.0029
2260.00,0.0029
2259.00,0.0030
2258.00,0.0030
2257.00,0.0029
2256.00,0.0028
2255.00,0.0028
2254.00,0.0028
2253.00,0.0028
2252.00,0.0027
2251.00,0.0027
2250.00,0.0027
2249.00,0.0026
2248.00,0.0027
2247.00,0.0027
2246.00,0.0027
2245.00,0.0027
2244.00,0.0027
2243.00,0.0028
2242.00,0.0028
2241.00,0.0029
2240.00,0.0030
2239.00,0.0030
2238.00,0.0031
2237.00,0.0031
2236.00,0.0032
2235.00,0.0032
2234.00,0.0032
2233.00,0.0031
2232.00,0.0030
2231.00,0.0029
2230.00,0.0029
2229.00,0.0028
2228.00,0.0028
2227.00,0.0028
2226.00,0.0028
2225.00,0.0028
2224.00,0.0028
2223.00,0.0028
2222.00,0.0028
2221.00,0.0028
2220.00,0.0028
2219.00,0.0028
2218.00,0.0028
2217.00,0.0028
2216.00,0.0028
2215.00,0.0028
2214.00,0.0028
2213.00,0.0027
2212.00,0.0027
2211.00,0.0027
2210.00,0.0026
2209.00,0.0026
2208.00,0.0027
2207.00,0.0027
2206.00,0.0028
2205.00,0.0027
2204.00,0.0027
2203.00,0.0026
2202.00,0.0026
2201.00,0.0025
2200.00,0.0025
2199.00,0.0025
2198.00,0.0024
2197.00,0.0025
2196.00,0.0025
2195.00,0.0026
2194.00,0.0028
2193.00,0.0030
2192.00,0.0032
2191.00,0.0032
2190.00,0.0032
2189.00,0.0031
2188.00,0.0031
2187.00,0.0031
2186.00,0.0031
2185.00,0.0030
2184.00,0.0028
2183.00,0.0026
2182.00,0.0025
2181.00,0.0026
2180.00,0.0028
2179.00,0.0029
2178.00,0.0029
2177.00,0.0027
2176.00,0.0025
2175.00,0.0025
2174.00,0.0025
2173.00,0.0025
2172.00,0.0027
2171.00,0.0029
2170.00,0.0031
2169.00,0.0033
2168.00,0.0035
2167.00,0.0037
2166.00,0.0037
2165.00,0.0037
2164.00,0.0037
2163.00,0.0037
2162.00,0.0033
2161.00,0.0025
2160.00,0.0015
2159.00,0.0005
2158.00,0.0001
2157.00,0.0002
2156.00,0.0005
2155.00,0.0008
2154.00,0.0011
2153.00,0.0012
2152.00,0.0013
2151.00,0.0014
2150.00,0.0014
2149.00,0.0014
2148.00,0.0014
2147.00,0.0014
2146.00,0.0013
2145.00,0.0013
2144.00,0.0013
2143.00,0.0013
2142.00,0.0014
2141.00,0.0014
2140.00,0.0014
2139.00,0.0014
2138.00,0.0012
2137.00,0.0010
2136.00,0.0009
2135.00,0.0008
2134.00,0.0008
2133.00,0.0009
2132.00,0.0011
2131.00,0.0012
2130.00,0.0013
2129.00,0.0014
2128.00,0.0014
2127.00,0.0015
2126.00,0.0016
2125.00,0.0018
2124.00,0.0019
2123.00,0.0021
2122.00,0.0022
2121.00,0.0022
2120.00,0.0022
2119.00,0.0022
2118.00,0.0022
2117.00,0.0023
2116.00,0.0024
2115.00,0.0025
2114.00,0.0026
2113.00,0.0026
2112.00,0.0025
2111.00,0.0025
2110.00,0.0024
2109.00,0.0024
2108.00,0.0024
2107.00,0.0024
2106.00,0.0025
2105.00,0.0025
2104.00,0.0026
2103.00,0.0026
2102.00,0.0026
2101.00,0.0026
2100.00,0.0025
2099.00,0.0025
2098.00,0.0024
2097.00,0.0024
2096.00,0.0023
2095.00,0.0022
2094.00,0.0022
2093.00,0.0022
2092.00,0.0023
2091.00,0.0024
2090.00,0.0024
2089.00,0.0025
2088.00,0.0025
2087.00,0.0025
2086.00,0.0025
2085.00,0.0026
2084.00,0.0027
2083.00,0.0027
2082.00,0.0028
2081.00,0.0027
2080.00,0.0027
2079.00,0.0027
2078.00,0.0027
2077.00,0.0026
2076.00,0.0026
2075.00,0.0025
2074.00,0.0025
2073.00,0.0025
2072.00,0.0025
2071.00,0.0025
2070.00,0.0025
2069.00,0.0025
2068.00,0.0024
2067.00,0.0023
2066.00,0.0023
2065.00,0.0022
2064.00,0.0022
2063.00,0.0022
2062.00,0.0022
2061.00,0.0023
2060.00,0.0024
2059.00,0.0025
2058.00,0.0026
2057.00,0.0027
2056.00,0.0027
2055.00,0.0027
2054.00,0.0028
2053.00,0.0031
2052.00,0.0034
2051.00,0.0035
2050.00,0.0034
2049.00,0.0031
2048.00,0.0029
2047.00,0.0027
2046.00,0.0026
2045.00,0.0026
2044.00,0.0027
2043.00,0.0027
2042.00,0.0027
2041.00,0.0028
2040.00,0.0028
2039.00,0.0028
2038.00,0.0028
2037.00,0.0027
2036.00,0.0026
2035.00,0.0024
2034.00,0.0021
2033.00,0.0018
2032.00,0.0018
2031.00,0.0019
2030.00,0.0021
2029.00,0.0023
2028.00,0.0024
2027.00,0.0023
2026.00,0.0022
2025.00,0.0021
2024.00,0.0020
2023.00,0.0019
2022.00,0.0018
2021.00,0.0017
2020.00,0.0017
2019.00,0.0018
2018.00,0.0019
2017.00,0.0021
2016.00,0.0022
2015.00,0.0023
2014.00,0.0023
2013.00,0.0023
2012.00,0.0023
2011.00,0.0023
2010.00,0.0021
2009.00,0.0019
2008.00,0.0017
2007.00,0.0015
2006.00,0.0014
2005.00,0.0014
2004.00,0.0014
2003.00,0.0016
2002.00,0.0017
2001.00,0.0018
2000.00,0.0019
1999.00,0.0020
1998.00,0.0021
1997.00,0.0022
1996.00,0.0022
1995.00,0.0022
1994.00,0.0021
1993.00,0.0020
1992.00,0.0020
1991.00,0.0021
1990.00,0.0021
1989.00,0.0022
1988.00,0.0023
1987.00,0.0025
1986.00,0.0026
1985.00,0.0027
1984.00,0.0028
1983.00,0.0030
1982.00,0.0032
1981.00,0.0033
1980.00,0.0032
1979.00,0.0028
1978.00,0.0023
1977.00,0.0018
1976.00,0.0014
1975.00,0.0013
1974.00,0.0012
1973.00,0.0011
1972.00,0.0010
1971.00,0.0011
1970.00,0.0011
1969.00,0.0012
1968.00,0.0013
1967.00,0.0014
1966.00,0.0015
1965.00,0.0017
1964.00,0.0019
1963.00,0.0019
1962.00,0.0017
1961.00,0.0014
1960.00,0.0012
1959.00,0.0011
1958.00,0.0011
1957.00,0.0012
1956.00,0.0013
1955.00,0.0014
1954.00,0.0014
1953.00,0.0014
1952.00,0.0015
1951.00,0.0016
1950.00,0.0016
1949.00,0.0017
1948.00,0.0017
1947.00,0.0016
1946.00,0.0016
1945.00,0.0016
1944.00,0.0016
1943.00,0.0016
1942.00,0.0016
1941.00,0.0016
1940.00,0.0017
1939.00,0.0017
1938.00,0.0017
1937.00,0.0016
1936.00,0.0017
1935.00,0.0017
1934.00,0.0016
1933.00,0.0016
1932.00,0.0016
1931.00,0.0016
1930.00,0.0016
1929.00,0.0016
1928.00,0.0016
1927.00,0.0016
1926.00,0.0016
1925.00,0.0016
1924.00,0.0017
1923.00,0.0017
1922.00,0.0018
1921.00,0.0018
1920.00,0.0018
1919.00,0.0018
1918.00,0.0018
1917.00,0.0018
1916.00,0.0018
1915.00,0.0018
1914.00,0.0018
1913.00,0.0018
1912.00,0.0019
1911.00,0.0020
1910.00,0.0021
1909.00,0.0021
1908.00,0.0020
1907.00,0.0019
1906.00,0.0019
1905.00,0.0018
1904.00,0.0018
1903.00,0.0019
1902.00,0.0019
1901.00,0.0019
1900.00,0.0019
1899.00,0.0019
1898.00,0.0019
1897.00,0.0019
1896.00,0.0019
1895.00,0.0019
1894.00,0.0019
1893.00,0.0019
1892.00,0.0019
1891.00,0.0019
1890.00,0.0019
1889.00,0.0019
1888.00,0.0020
1887.00,0.0019
1886.00,0.0019
1885.00,0.0018
1884.00,0.0018
1883.00,0.0018
1882.00,0.0018
1881.00,0.0019
1880.00,0.0019
1879.00,0.0020
1878.00,0.0020
1877.00,0.0020
1876.00,0.0019
1875.00,0.0019
1874.00,0.0019
1873.00,0.0019
1872.00,0.0019
1871.00,0.0019
1870.00,0.0019
1869.00,0.0019
1868.00,0.0019
1867.00,0.0019
1866.00,0.0019
1865.00,0.0019
1864.00,0.0019
1863.00,0.0019
1862.00,0.0020
1861.00,0.0020
1860.00,0.0020
1859.00,0.0020
1858.00,0.0020
1857.00,0.0019
1856.00,0.0019
1855.00,0.0019
1854.00,0.0019
1853.00,0.0019
1852.00,0.0019
1851.00,0.0019
1850.00,0.0019
1849.00,0.0019
1848.00,0.0020
1847.00,0.0020
1846.00,0.0020
1845.00,0.0019
1844.00,0.0019
1843.00,0.0019
1842.00,0.0019
1841.00,0.0019
1840.00,0.0019
1839.00,0.0019
1838.00,0.0019
1837.00,0.0019
1836.00,0.0019
1835.00,0.0019
1834.00,0.0019
1833.00,0.0019
1832.00,0.0019
1831.00,0.0020
1830.00,0.0020
1829.00,0.0021
1828.00,0.0021
1827.00,0.0020
1826.00,0.0020
1825.00,0.0020
1824.00,0.0020
1823.00,0.0020
1822.00,0.0020
1821.00,0.0019
1820.00,0.0019
1819.00,0.0018
1818.00,0.0017
1817.00,0.0017
1816.00,0.0017
1815.00,0.0018
1814.00,0.0018
1813.00,0.0019
1812.00,0.0019
1811.00,0.0019
1810.00,0.0020
1809.00,0.0020
1808.00,0.0020
1807.00,0.0020
1806.00,0.0020
1805.00,0.0020
1804.00,0.0020
1803.00,0.0020
1802.00,0.0020
1801.00,0.0020
1800.00,0.0020
1799.00,0.0021
1798.00,0.0021
1797.00,0.0021
1796.00,0.0021
1795.00,0.0021
1794.00,0.0021
1793.00,0.0021
1792.00,0.0021
1791.00,0.0021
1790.00,0.0021
1789.00,0.0020
1788.00,0.0020
1787.00,0.0021
1786.00,0.0021
1785.00,0.0021
1784.00,0.0021
1783.00,0.0021
1782.00,0.0021
1781.00,0.0021
1780.00,0.0021
1779.00,0.0022
1778.00,0.0021
1777.00,0.0021
1776.00,0.0021
1775.00,0.0021
1774.00,0.0022
1773.00,0.0022
1772.00,0.0022
1771.00,0.0023
1770.00,0.0022
1769.00,0.0022
1768.00,0.0021
1767.00,0.0021
1766.00,0.0021
1765.00,0.0022
1764.00,0.0022
1763.00,0.0022
1762.00,0.0022
1761.00,0.0022
1760.00,0.0022
1759.00,0.0022
1758.00,0.0022
1757.00,0.0022
1756.00,0.0022
1755.00,0.0022
1754.00,0.0022
1753.00,0.0022
1752.00,0.0022
1751.00,0.0022
1750.00,0.0022
1749.00,0.0022
1748.00,0.0022
1747.00,0.0022
1746.00,0.0022
1745.00,0.0022
1744.00,0.0022
1743.00,0.0022
1742.00,0.0023
1741.00,0.0022
1740.00,0.0022
1739.00,0.0022
1738.00,0.0023
1737.00,0.0023
1736.00,0.0023
1735.00,0.0024
1734.00,0.0024
1733.00,0.0024
1732.00,0.0024
1731.00,0.0024
1730.00,0.0025
1729.00,0.0025
1728.00,0.0026
1727.00,0.0027
1726.00,0.0027
1725.00,0.0027
1724.00,0.0028
1723.00,0.0029
1722.00,0.0030
1721.00,0.0031
1720.00,0.0033
1719.00,0.0034
1718.00,0.0035
1717.00,0.0036
1716.00,0.0037
1715.00,0.0039
1714.00,0.0039
1713.00,0.0040
1712.00,0.0041
1711.00,0.0044
1710.00,0.0046
1709.00,0.0049
1708.00,0.0052
1707.00,0.0056
1706.00,0.0060
1705.00,0.0065
1704.00,0.0070
1703.00,0.0076
1702.00,0.0083
1701.00,0.0090
1700.00,0.0099
1699.00,0.0109
1698.00,0.0119
1697.00,0.0130
1696.00,0.0144
1695.00,0.0159
1694.00,0.0172
1693.00,0.0186
1692.00,0.0201
1691.00,0.0218
1690.00,0.0235
1689.00,0.0252
1688.00,0.0269
1687.00,0.0286
1686.00,0.0304
1685.00,0.0319
1684.00,0.0329
1683.00,0.0338
1682.00,0.0347
1681.00,0.0359
1680.00,0.0373
1679.00,0.0386
1678.00,0.0399
1677.00,0.0411
1676.00,0.0419
1675.00,0.0423
1674.00,0.0427
1673.00,0.0435
1672.00,0.0445
1671.00,0.0455
1670.00,0.0458
1669.00,0.0457
1668.00,0.0458
1667.00,0.0463
1666.00,0.0473
1665.00,0.0484
1664.00,0.0492
1663.00,0.0495
1662.00,0.0494
1661.00,0.0495
1660.00,0.0499
1659.00,0.0505
1658.00,0.0512
1657.00,0.0521
1656.00,0.0534
1655.00,0.0544
1654.00,0.0538
1653.00,0.0507
1652.00,0.0481
1651.00,0.0476
1650.00,0.0483
1649.00,0.0491
1648.00,0.0490
1647.00,0.0473
1646.00,0.0450
1645.00,0.0431
1644.00,0.0420
1643.00,0.0413
1642.00,0.0405
1641.00,0.0396
1640.00,0.0386
1639.00,0.0377
1638.00,0.0369
1637.00,0.0355
1636.00,0.0332
1635.00,0.0306
1634.00,0.0286
1633.00,0.0275
1632.00,0.0268
1631.00,0.0263
1630.00,0.0256
1629.00,0.0249
1628.00,0.0241
1627.00,0.0234
1626.00,0.0230
1625.00,0.0228
1624.00,0.0227
1623.00,0.0225
1622.00,0.0225
1621.00,0.0226
1620.00,0.0229
1619.00,0.0232
1618.00,0.0232
1617.00,0.0226
1616.00,0.0216
1615.00,0.0209
1614.00,0.0203
1613.00,0.0200
1612.00,0.0197
1611.00,0.0194
1610.00,0.0190
1609.00,0.0185
1608.00,0.0179
1607.00,0.0172
1606.00,0.0165
1605.00,0.0157
1604.00,0.0150
1603.00,0.0142
1602.00,0.0134
1601.00,0.0128
1600.00,0.0122
1599.00,0.0117
1598.00,0.0113
1597.00,0.0111
1596.00,0.0109
1595.00,0.0108
1594.00,0.0108
1593.00,0.0110
1592.00,0.0113
1591.00,0.0117
1590.00,0.0123
1589.00,0.0128
1588.00,0.0133
1587.00,0.0138
1586.00,0.0141
1585.00,0.0141
1584.00,0.0140
1583.00,0.0137
1582.00,0.0133
1581.00,0.0128
1580.00,0.0123
1579.00,0.0119
1578.00,0.0115
1577.00,0.0110
1576.00,0.0104
1575.00,0.0099
1574.00,0.0096
1573.00,0.0094
1572.00,0.0092
1571.00,0.0091
1570.00,0.0089
1569.00,0.0086
1568.00,0.0083
1567.00,0.0081
1566.00,0.0080
1565.00,0.0079
1564.00,0.0078
1563.00,0.0077
1562.00,0.0076
1561.00,0.0076
1560.00,0.0075
1559.00,0.0072
1558.00,0.0070
1557.00,0.0068
1556.00,0.0067
1555.00,0.0066
1554.00,0.0066
1553.00,0.0065
1552.00,0.0065
1551.00,0.0065
1550.00,0.0065
1549.00,0.0064
1548.00,0.0064
1547.00,0.0063
1546.00,0.0063
1545.00,0.0062
1544.00,0.0062
1543.00,0.0063
1542.00,0.0063
1541.00,0.0063
1540.00,0.0063
1539.00,0.0062
1538.00,0.0061
1537.00,0.0059
1536.00,0.0059
1535.00,0.0059
1534.00,0.0059
1533.00,0.0059
1532.00,0.0059
1531.00,0.0059
1530.00,0.0059
1529.00,0.0060
1528.00,0.0060
1527.00,0.0061
1526.00,0.0061
1525.00,0.0062
1524.00,0.0062
1523.00,0.0063
1522.00,0.0064
1521.00,0.0065
1520.00,0.0066
1519.00,0.0066
1518.00,0.0067
1517.00,0.0068
1516.00,0.0069
1515.00,0.0070
1514.00,0.0070
1513.00,0.0070
1512.00,0.0071
1511.00,0.0072
1510.00,0.0074
1509.00,0.0076
1508.00,0.0078
1507.00,0.0080
1506.00,0.0082
1505.00,0.0084
1504.00,0.0086
1503.00,0.0090
1502.00,0.0096
1501.00,0.0103
1500.00,0.0111
1499.00,0.0118
1498.00,0.0126
1497.00,0.0133
1496.00,0.0137
1495.00,0.0140
1494.00,0.0142
1493.00,0.0143
1492.00,0.0143
1491.00,0.0140
1490.00,0.0134
1489.00,0.0126
1488.00,0.0118
1487.00,0.0111
1486.00,0.0105
1485.00,0.0099
1484.00,0.0095
1483.00,0.0091
1482.00,0.0088
1481.00,0.0085
1480.00,0.0084
1479.00,0.0083
1478.00,0.0083
1477.00,0.0084
1476.00,0.0086
1475.00,0.0089
1474.00,0.0094
1473.00,0.0099
1472.00,0.0107
1471.00,0.0115
1470.00,0.0124
1469.00,0.0136
1468.00,0.0149
1467.00,0.0162
1466.00,0.0177
1465.00,0.0191
1464.00,0.0203
1463.00,0.0214
1462.00,0.0223
1461.00,0.0231
1460.00,0.0237
1459.00,0.0239
1458.00,0.0233
1457.00,0.0217
1456.00,0.0200
1455.00,0.0188
1454.00,0.0182
1453.00,0.0178
1452.00,0.0176
1451.00,0.0175
1450.00,0.0175
1449.00,0.0177
1448.00,0.0181
1447.00,0.0187
1446.00,0.0194
1445.00,0.0203
1444.00,0.0213
1443.00,0.0224
1442.00,0.0234
1441.00,0.0244
1440.00,0.0254
1439.00,0.0264
1438.00,0.0272
1437.00,0.0276
1436.00,0.0278
1435.00,0.0280
1434.00,0.0285
1433.00,0.0290
1432.00,0.0295
1431.00,0.0299
1430.00,0.0301
1429.00,0.0304
1428.00,0.0308
1427.00,0.0316
1426.00,0.0325
1425.00,0.0334
1424.00,0.0342
1423.00,0.0347
1422.00,0.0352
1421.00,0.0354
1420.00,0.0347
1419.00,0.0329
1418.00,0.0308
1417.00,0.0288
1416.00,0.0272
1415.00,0.0257
1414.00,0.0243
1413.00,0.0229
1412.00,0.0217
1411.00,0.0206
1410.00,0.0197
1409.00,0.0191
1408.00,0.0187
1407.00,0.0184
1406.00,0.0182
1405.00,0.0181
1404.00,0.0179
1403.00,0.0178
1402.00,0.0177
1401.00,0.0176
1400.00,0.0173
1399.00,0.0167
1398.00,0.0160
1397.00,0.0154
1396.00,0.0147
1395.00,0.0139
1394.00,0.0131
1393.00,0.0126
1392.00,0.0122
1391.00,0.0120
1390.00,0.0119
1389.00,0.0119
1388.00,0.0119
1387.00,0.0119
1386.00,0.0121
1385.00,0.0124
1384.00,0.0128
1383.00,0.0132
1382.00,0.0136
1381.00,0.0140
1380.00,0.0144
1379.00,0.0147
1378.00,0.0149
1377.00,0.0151
1376.00,0.0151
1375.00,0.0151
1374.00,0.0150
1373.00,0.0148
1372.00,0.0147
1371.00,0.0146
1370.00,0.0145
1369.00,0.0144
1368.00,0.0142
1367.00,0.0141
1366.00,0.0141
1365.00,0.0141
1364.00,0.0141
1363.00,0.0141
1362.00,0.0140
1361.00,0.0139
1360.00,0.0137
1359.00,0.0134
1358.00,0.0131
1357.00,0.0126
1356.00,0.0120
1355.00,0.0115
1354.00,0.0111
1353.00,0.0107
1352.00,0.0104
1351.00,0.0101
1350.00,0.0100
1349.00,0.0098
1348.00,0.0097
1347.00,0.0096
1346.00,0.0096
1345.00,0.0095
1344.00,0.0095
1343.00,0.0095
1342.00,0.0095
1341.00,0.0096
1340.00,0.0096
1339.00,0.0097
1338.00,0.0098
1337.00,0.0099
1336.00,0.0100
1335.00,0.0101
1334.00,0.0102
1333.00,0.0104
1332.00,0.0106
1331.00,0.0108
1330.00,0.0110
1329.00,0.0113
1328.00,0.0115
1327.00,0.0119
1326.00,0.0122
1325.00,0.0126
1324.00,0.0131
1323.00,0.0135
1322.00,0.0140
1321.00,0.0144
1320.00,0.0148
1319.00,0.0151
1318.00,0.0153
1317.00,0.0154
1316.00,0.0154
1315.00,0.0153
1314.00,0.0151
1313.00,0.0149
1312.00,0.0146
1311.00,0.0144
1310.00,0.0142
1309.00,0.0141
1308.00,0.0140
1307.00,0.0140
1306.00,0.0141
1305.00,0.0143
1304.00,0.0146
1303.00,0.0150
1302.00,0.0155
1301.00,0.0163
1300.00,0.0172
1299.00,0.0183
1298.00,0.0197
1297.00,0.0214
1296.00,0.0232
1295.00,0.0253
1294.00,0.0274
1293.00,0.0295
1292.00,0.0316
1291.00,0.0335
1290.00,0.0352
1289.00,0.0366
1288.00,0.0377
1287.00,0.0385
1286.00,0.0389
1285.00,0.0389
1284.00,0.0386
1283.00,0.0380
1282.00,0.0373
1281.00,0.0365
1280.00,0.0357
1279.00,0.0351
1278.00,0.0346
1277.00,0.0344
1276.00,0.0343
1275.00,0.0344
1274.00,0.0345
1273.00,0.0346
1272.00,0.0346
1271.00,0.0344
1270.00,0.0339
1269.00,0.0333
1268.00,0.0325
1267.00,0.0315
1266.00,0.0304
1265.00,0.0292
1264.00,0.0279
1263.00,0.0266
1262.00,0.0254
1261.00,0.0241
1260.00,0.0229
1259.00,0.0218
1258.00,0.0208
1257.00,0.0198
1256.00,0.0190
1255.00,0.0183
1254.00,0.0177
1253.00,0.0171
1252.00,0.0167
1251.00,0.0163
1250.00,0.0161
1249.00,0.0159
1248.00,0.0159
1247.00,0.0160
1246.00,0.0161
1245.00,0.0164
1244.00,0.0166
1243.00,0.0169
1242.00,0.0172
1241.00,0.0175
1240.00,0.0178
1239.00,0.0180
1238.00,0.0182
1237.00,0.0185
1236.00,0.0187
1235.00,0.0189
1234.00,0.0191
1233.00,0.0192
1232.00,0.0193
1231.00,0.0194
1230.00,0.0194
1229.00,0.0194
1228.00,0.0194
1227.00,0.0194
1226.00,0.0194
1225.00,0.0193
1224.00,0.0193
1223.00,0.0193
1222.00,0.0194
1221.00,0.0194
1220.00,0.0194
1219.00,0.0194
1218.00,0.0194
1217.00,0.0192
1216.00,0.0189
1215.00,0.0186
1214.00,0.0182
1213.00,0.0177
1212.00,0.0172
1211.00,0.0167
1210.00,0.0162
1209.00,0.0157
1208.00,0.0153
1207.00,0.0150
1206.00,0.0148
1205.00,0.0146
1204.00,0.0145
1203.00,0.0144
1202.00,0.0145
1201.00,0.0146
1200.00,0.0147
1199.00,0.0150
1198.00,0.0153
1197.00,0.0156
1196.00,0.0158
1195.00,0.0160
1194.00,0.0161
1193.00,0.0160
1192.00,0.0158
1191.00,0.0154
1190.00,0.0150
1189.00,0.0146
1188.00,0.0140
1187.00,0.0136
1186.00,0.0132
1185.00,0.0129
1184.00,0.0126
1183.00,0.0124
1182.00,0.0123
1181.00,0.0122
1180.00,0.0121
1179.00,0.0121
1178.00,0.0121
1177.00,0.0122
1176.00,0.0123
1175.00,0.0124
1174.00,0.0125
1173.00,0.0127
1172.00,0.0128
1171.00,0.0130
1170.00,0.0131
1169.00,0.0132
1168.00,0.0132
1167.00,0.0133
1166.00,0.0133
1165.00,0.0133
1164.00,0.0134
1163.00,0.0135
1162.00,0.0137
1161.00,0.0140
1160.00,0.0143
1159.00,0.0146
1158.00,0.0149
1157.00,0.0150
1156.00,0.0150
1155.00,0.0149
1154.00,0.0146
1153.00,0.0143
1152.00,0.0138
1151.00,0.0133
1150.00,0.0128
1149.00,0.0123
1148.00,0.0118
1147.00,0.0113
1146.00,0.0109
1145.00,0.0106
1144.00,0.0102
1143.00,0.0100
1142.00,0.0098
1141.00,0.0097
1140.00,0.0096
1139.00,0.0096
1138.00,0.0097
1137.00,0.0099
1136.00,0.0102
1135.00,0.0107
1134.00,0.0113
1133.00,0.0120
1132.00,0.0126
1131.00,0.0132
1130.00,0.0136
1129.00,0.0138
1128.00,0.0135
1127.00,0.0131
1126.00,0.0125
1125.00,0.0118
1124.00,0.0111
1123.00,0.0106
1122.00,0.0102
1121.00,0.0099
1120.00,0.0097
1119.00,0.0095
1118.00,0.0094
1117.00,0.0093
1116.00,0.0093
1115.00,0.0093
1114.00,0.0093
1113.00,0.0094
1112.00,0.0095
1111.00,0.0095
1110.00,0.0096
1109.00,0.0096
1108.00,0.0096
1107.00,0.0098
1106.00,0.0099
1105.00,0.0101
1104.00,0.0103
1103.00,0.0106
1102.00,0.0108
1101.00,0.0110
1100.00,0.0110
1099.00,0.0110
1098.00,0.0109
1097.00,0.0108
1096.00,0.0105
1095.00,0.0103
1094.00,0.0100
1093.00,0.0098
1092.00,0.0096
1091.00,0.0094
1090.00,0.0094
1089.00,0.0093
1088.00,0.0092
1087.00,0.0091
1086.00,0.0091
1085.00,0.0091
1084.00,0.0091
1083.00,0.0091
1082.00,0.0092
1081.00,0.0092
1080.00,0.0093
1079.00,0.0094
1078.00,0.0096
1077.00,0.0098
1076.00,0.0100
1075.00,0.0102
1074.00,0.0104
1073.00,0.0107
1072.00,0.0108
1071.00,0.0110
1070.00,0.0113
1069.00,0.0117
1068.00,0.0122
1067.00,0.0128
1066.00,0.0135
1065.00,0.0144
1064.00,0.0152
1063.00,0.0161
1062.00,0.0171
1061.00,0.0179
1060.00,0.0186
1059.00,0.0191
1058.00,0.0194
1057.00,0.0194
1056.00,0.0191
1055.00,0.0185
1054.00,0.0177
1053.00,0.0167
1052.00,0.0157
1051.00,0.0147
1050.00,0.0138
1049.00,0.0131
1048.00,0.0126
1047.00,0.0121
1046.00,0.0118
1045.00,0.0115
1044.00,0.0114
1043.00,0.0113
1042.00,0.0114
1041.00,0.0114
1040.00,0.0113
1039.00,0.0113
1038.00,0.0114
1037.00,0.0114
1036.00,0.0115
1035.00,0.0116
1034.00,0.0118
1033.00,0.0120
1032.00,0.0121
1031.00,0.0122
1030.00,0.0123
1029.00,0.0123
1028.00,0.0122
1027.00,0.0120
1026.00,0.0118
1025.00,0.0116
1024.00,0.0114
1023.00,0.0113
1022.00,0.0113
1021.00,0.0113
1020.00,0.0113
1019.00,0.0114
1018.00,0.0114
1017.00,0.0113
1016.00,0.0111
1015.00,0.0109
1014.00,0.0107
1013.00,0.0104
1012.00,0.0102
1011.00,0.0100
1010.00,0.0099
1009.00,0.0099
1008.00,0.0100
1007.00,0.0101
1006.00,0.0104
1005.00,0.0106
1004.00,0.0109
1003.00,0.0111
1002.00,0.0112
1001.00,0.0111
1000.00,0.0109
999.00,0.0106
998.00,0.0104
997.00,0.0102
996.00,0.0100
995.00,0.0097
994.00,0.0096
993.00,0.0095
992.00,0.0093
991.00,0.0092
990.00,0.0090
989.00,0.0088
988.00,0.0086
987.00,0.0084
986.00,0.0083
985.00,0.0082
984.00,0.0081
983.00,0.0080
982.00,0.0080
981.00,0.0080
980.00,0.0079
979.00,0.0079
978.00,0.0080
977.00,0.0080
976.00,0.0079
975.00,0.0079
974.00,0.0078
973.00,0.0077
972.00,0.0076
971.00,0.0075
970.00,0.0074
969.00,0.0074
968.00,0.0073
967.00,0.0072
966.00,0.0072
965.00,0.0072
964.00,0.0071
963.00,0.0070
962.00,0.0070
961.00,0.0070
960.00,0.0069
959.00,0.0068
958.00,0.0068
957.00,0.0068
956.00,0.0068
955.00,0.0067
954.00,0.0067
953.00,0.0067
952.00,0.0066
951.00,0.0066
950.00,0.0066
949.00,0.0067
948.00,0.0067
947.00,0.0067
946.00,0.0068
945.00,0.0069
944.00,0.0069
943.00,0.0071
942.00,0.0072
941.00,0.0074
940.00,0.0076
939.00,0.0078
938.00,0.0081
937.00,0.0085
936.00,0.0088
935.00,0.0091
934.00,0.0093
933.00,0.0094
932.00,0.0094
931.00,0.0094
930.00,0.0093
929.00,0.0093
928.00,0.0092
927.00,0.0091
926.00,0.0091
925.00,0.0090
924.00,0.0089
923.00,0.0088
922.00,0.0087
921.00,0.0086
920.00,0.0085
919.00,0.0084
918.00,0.0084
917.00,0.0083
916.00,0.0082
915.00,0.0081
914.00,0.0080
913.00,0.0080
912.00,0.0079
911.00,0.0079
910.00,0.0080
909.00,0.0080
908.00,0.0081
907.00,0.0082
906.00,0.0083
905.00,0.0084
904.00,0.0086
903.00,0.0087
902.00,0.0090
901.00,0.0092
900.00,0.0094
899.00,0.0096
898.00,0.0097
897.00,0.0098
896.00,0.0097
895.00,0.0096
894.00,0.0095
893.00,0.0094
892.00,0.0092
891.00,0.0091
890.00,0.0090
889.00,0.0088
888.00,0.0087
887.00,0.0085
886.00,0.0085
885.00,0.0085
884.00,0.0084
883.00,0.0084
882.00,0.0086
881.00,0.0087
880.00,0.0089
879.00,0.0091
878.00,0.0093
877.00,0.0096
876.00,0.0098
875.00,0.0100
874.00,0.0103
873.00,0.0106
872.00,0.0107
871.00,0.0109
870.00,0.0110
869.00,0.0110
868.00,0.0110
867.00,0.0110
866.00,0.0111
865.00,0.0111
864.00,0.0111
863.00,0.0112
862.00,0.0113
861.00,0.0114
860.00,0.0115
859.00,0.0116
858.00,0.0117
857.00,0.0119
856.00,0.0121
855.00,0.0123
854.00,0.0126
853.00,0.0128
852.00,0.0130
851.00,0.0132
850.00,0.0134
849.00,0.0137
848.00,0.0138
847.00,0.0140
846.00,0.0141
845.00,0.0142
844.00,0.0142
843.00,0.0141
842.00,0.0141
841.00,0.0141
840.00,0.0140
839.00,0.0139
838.00,0.0138
837.00,0.0137
836.00,0.0137
835.00,0.0137
834.00,0.0137
833.00,0.0137
832.00,0.0136
831.00,0.0136
830.00,0.0136
829.00,0.0136
828.00,0.0135
827.00,0.0134
826.00,0.0133
825.00,0.0133
824.00,0.0132
823.00,0.0131
822.00,0.0131
821.00,0.0131
820.00,0.0130
819.00,0.0130
818.00,0.0130
817.00,0.0130
816.00,0.0129
815.00,0.0127
814.00,0.0126
813.00,0.0124
812.00,0.0122
811.00,0.0119
810.00,0.0116
809.00,0.0112
808.00,0.0107
807.00,0.0102
806.00,0.0098
805.00,0.0095
804.00,0.0092
803.00,0.0090
802.00,0.0089
801.00,0.0088
800.00,0.0087
799.00,0.0086
798.00,0.0087
797.00,0.0087
796.00,0.0087
795.00,0.0086
794.00,0.0086
793.00,0.0087
792.00,0.0087
791.00,0.0087
790.00,0.0088
789.00,0.0088
788.00,0.0088
787.00,0.0088
786.00,0.0089
785.00,0.0089
784.00,0.0089
783.00,0.0089
782.00,0.0090
781.00,0.0091
780.00,0.0092
779.00,0.0092
778.00,0.0094
777.00,0.0095
776.00,0.0095
775.00,0.0095
774.00,0.0095
773.00,0.0094
772.00,0.0093
771.00,0.0093
770.00,0.0095
769.00,0.0096
768.00,0.0096
767.00,0.0097
766.00,0.0098
765.00,0.0098
764.00,0.0099
763.00,0.0100
762.00,0.0102
761.00,0.0103
760.00,0.0105
759.00,0.0107
758.00,0.0109
757.00,0.0111
756.00,0.0112
755.00,0.0114
754.00,0.0117
753.00,0.0119
752.00,0.0121
751.00,0.0122
750.00,0.0124
749.00,0.0126
748.00,0.0128
747.00,0.0131
746.00,0.0133
745.00,0.0135
744.00,0.0137
743.00,0.0139
742.00,0.0142
741.00,0.0146
740.00,0.0149
739.00,0.0153
738.00,0.0157
737.00,0.0159
736.00,0.0159
735.00,0.0158
734.00,0.0156
733.00,0.0154
732.00,0.0151
731.00,0.0148
730.00,0.0145
729.00,0.0142
728.00,0.0139
727.00,0.0136
726.00,0.0134
725.00,0.0131
724.00,0.0128
723.00,0.0125
722.00,0.0123
721.00,0.0121
720.00,0.0119
719.00,0.0118
718.00,0.0118
717.00,0.0119
716.00,0.0118
715.00,0.0118
714.00,0.0118
713.00,0.0118
712.00,0.0117
711.00,0.0117
710.00,0.0117
709.00,0.0117
708.00,0.0116
707.00,0.0115
706.00,0.0116
705.00,0.0116
704.00,0.0116
703.00,0.0115
702.00,0.0116
701.00,0.0117
700.00,0.0117
699.00,0.0118
698.00,0.0120
697.00,0.0121
696.00,0.0122
695.00,0.0123
694.00,0.0126
693.00,0.0129
692.00,0.0131
691.00,0.0133
690.00,0.0135
689.00,0.0136
688.00,0.0137
687.00,0.0137
686.00,0.0138
685.00,0.0138
684.00,0.0138
683.00,0.0138
682.00,0.0139
681.00,0.0140
680.00,0.0141
679.00,0.0141
678.00,0.0143
677.00,0.0144
676.00,0.0145
675.00,0.0146
674.00,0.0148
673.00,0.0150
672.00,0.0151
671.00,0.0153
670.00,0.0157
669.00,0.0161
668.00,0.0164
667.00,0.0168
666.00,0.0171
665.00,0.0172
664.00,0.0173
663.00,0.0176
662.00,0.0179
661.00,0.0183
660.00,0.0186
659.00,0.0190
658.00,0.0195
657.00,0.0200
656.00,0.0203
655.00,0.0206
654.00,0.0209
653.00,0.0212
652.00,0.0214
651.00,0.0215
650.00,0.0217
649.00,0.0217
648.00,0.0217
647.00,0.0217
646.00,0.0217
645.00,0.0216
644.00,0.0213
643.00,0.0210
642.00,0.0207
641.00,0.0204
640.00,0.0201
639.00,0.0198
638.00,0.0196
637.00,0.0193
636.00,0.0190
635.00,0.0187
634.00,0.0186
633.00,0.0184
632.00,0.0182
631.00,0.0180
630.00,0.0179
629.00,0.0179
628.00,0.0178
627.00,0.0177
626.00,0.0177
625.00,0.0176
624.00,0.0175
623.00,0.0175
622.00,0.0176
621.00,0.0176
620.00,0.0174
619.00,0.0173
618.00,0.0173
617.00,0.0173
616.00,0.0172
615.00,0.0171
614.00,0.0172
613.00,0.0173
612.00,0.0173
611.00,0.0173
610.00,0.0174
609.00,0.0175
608.00,0.0175
607.00,0.0175
606.00,0.0178
605.00,0.0180
604.00,0.0180
603.00,0.0180
602.00,0.0180
601.00,0.0180
600.00,0.0180
599.00,0.0181
598.00,0.0183
597.00,0.0185
596.00,0.0184
595.00,0.0184
594.00,0.0185
593.00,0.0186
592.00,0.0185
591.00,0.0186
590.00,0.0189
589.00,0.0193
588.00,0.0197
587.00,0.0201
586.00,0.0207
585.00,0.0213
584.00,0.0218
583.00,0.0221
582.00,0.0226
581.00,0.0229
580.00,0.0230
579.00,0.0231
578.00,0.0232
577.00,0.0233
576.00,0.0233
575.00,0.0233
574.00,0.0234
573.00,0.0235
572.00,0.0234
571.00,0.0233
570.00,0.0233
569.00,0.0233
568.00,0.0231
567.00,0.0230
566.00,0.0230
565.00,0.0229
564.00,0.0227
563.00,0.0224
562.00,0.0224
561.00,0.0222
560.00,0.0219
559.00,0.0216
558.00,0.0215
557.00,0.0213
556.00,0.0210
555.00,0.0208
554.00,0.0209
553.00,0.0209
552.00,0.0206
551.00,0.0203
550.00,0.0202
549.00,0.0201
548.00,0.0199
547.00,0.0197
546.00,0.0198
545.00,0.0197
544.00,0.0195
543.00,0.0193
542.00,0.0194
541.00,0.0195
540.00,0.0194
539.00,0.0193
538.00,0.0195
537.00,0.0197
536.00,0.0197
535.00,0.0198
534.00,0.0200
533.00,0.0202
532.00,0.0200
531.00,0.0200
530.00,0.0201
529.00,0.0202
528.00,0.0199
527.00,0.0196
526.00,0.0196
525.00,0.0195
524.00,0.0192
523.00,0.0190
522.00,0.0191
521.00,0.0191
520.00,0.0191
519.00,0.0191
518.00,0.0194
517.00,0.0194
516.00,0.0192
515.00,0.0190
514.00,0.0192
513.00,0.0193
512.00,0.0191
511.00,0.0189
510.00,0.0191
509.00,0.0193
508.00,0.0192
507.00,0.0190
506.00,0.0193
505.00,0.0196
504.00,0.0197
503.00,0.0196
502.00,0.0197
501.00,0.0196
500.00,0.0193
499.00,0.0191
498.00,0.0191
497.00,0.0191
496.00,0.0189
495.00,0.0189
494.00,0.0192
493.00,0.0195
492.00,0.0194
491.00,0.0194
490.00,0.0197
489.00,0.0199
488.00,0.0197
487.00,0.0195
486.00,0.0198
485.00,0.0199
484.00,0.0197
483.00,0.0196
482.00,0.0198
481.00,0.0199
480.00,0.0197
479.00,0.0197
478.00,0.0201
477.00,0.0205
476.00,0.0203
475.00,0.0202
474.00,0.0205
473.00,0.0206
472.00,0.0203
471.00,0.0199
470.00,0.0200
469.00,0.0200
468.00,0.0195
467.00,0.0191
466.00,0.0192
465.00,0.0194
464.00,0.0193
463.00,0.0193
462.00,0.0197
461.00,0.0199
460.00,0.0195
459.00,0.0191
458.00,0.0193
457.00,0.0195
456.00,0.0194
455.00,0.0194
454.00,0.0199
453.00,0.0200
452.00,0.0192
451.00,0.0185
450.00,0.0185
449.00,0.0187
448.00,0.0186
447.00,0.0183
446.00,0.0183
445.00,0.0181
444.00,0.0174
443.00,0.0171
442.00,0.0177
441.00,0.0181
440.00,0.0176
439.00,0.0170
438.00,0.0169
437.00,0.0167
436.00,0.0162
435.00,0.0159
434.00,0.0165
433.00,0.0169
432.00,0.0167
431.00,0.0163
430.00,0.0166
429.00,0.0169
428.00,0.0165
427.00,0.0161
426.00,0.0165
425.00,0.0168
424.00,0.0164
423.00,0.0161
422.00,0.0166
421.00,0.0172
420.00,0.0169
419.00,0.0170
418.00,0.0178
417.00,0.0178
416.00,0.0166
415.00,0.0158
414.00,0.0162
413.00,0.0168
412.00,0.0164
411.00,0.0162
410.00,0.0171
409.00,0.0174
408.00,0.0162
407.00,0.0150
406.00,0.0156
405.00,0.0165
404.00,0.0164
403.00,0.0163
402.00,0.0178
401.00,0.0189
400.00,0.0180
