Created as New Dataset,Sample 942 By YargerLab Date Monday, July 28 2025
cm-1,A
4000.00,0.0065
3999.00,0.0064
3998.00,0.0064
3997.00,0.0064
3996.00,0.0064
3995.00,0.0065
3994.00,0.0064
3993.00,0.0064
3992.00,0.0064
3991.00,0.0064
3990.00,0.0064
3989.00,0.0064
3988.00,0.0064
3987.00,0.0064
3986.00,0.0064
3985.00,0.0065
3984.00,0.0065
3983.00,0.0065
3982.00,0.0065
3981.00,0.0064
3980.00,0.0064
3979.00,0.0064
3978.00,0.0064
3977.00,0.0064
3976.00,0.0064
3975.00,0.0064
3974.00,0.0064
3973.00,0.0064
3972.00,0.0064
3971.00,0.0064
3970.00,0.0064
3969.00,0.0064
3968.00,0.0064
3967.00,0.0064
3966.00,0.0064
3965.00,0.0064
3964.00,0.0064
3963.00,0.0064
3962.00,0.0064
3961.00,0.0064
3960.00,0.0064
3959.00,0.0064
3958.00,0.0064
3957.00,0.0064
3956.00,0.0064
3955.00,0.0064
3954.00,0.0064
3953.00,0.0063
3952.00,0.0063
3951.00,0.0063
3950.00,0.0063
3949.00,0.0063
3948.00,0.0063
3947.00,0.0063
3946.00,0.0063
3945.00,0.0063
3944.00,0.0064
3943.00,0.0064
3942.00,0.0064
3941.00,0.0064
3940.00,0.0064
3939.00,0.0064
3938.00,0.0064
3937.00,0.0064
3936.00,0.0064
3935.00,0.0064
3934.00,0.0064
3933.00,0.0063
3932.00,0.0063
3931.00,0.0063
3930.00,0.0063
3929.00,0.0063
3928.00,0.0063
3927.00,0.0063
3926.00,0.0063
3925.00,0.0063
3924.00,0.0064
3923.00,0.0064
3922.00,0.0064
3921.00,0.0064
3920.00,0.0063
3919.00,0.0063
3918.00,0.0063
3917.00,0.0063
3916.00,0.0063
3915.00,0.0063
3914.00,0.0063
3913.00,0.0063
3912.00,0.0063
3911.00,0.0063
3910.00,0.0063
3909.00,0.0063
3908.00,0.0063
3907.00,0.0063
3906.00,0.0062
3905.00,0.0062
3904.00,0.0062
3903.00,0.0061
3902.00,0.0061
3901.00,0.0061
3900.00,0.0062
3899.00,0.0062
3898.00,0.0062
3897.00,0.0062
3896.00,0.0062
3895.00,0.0063
3894.00,0.0063
3893.00,0.0063
3892.00,0.0062
3891.00,0.0062
3890.00,0.0062
3889.00,0.0062
3888.00,0.0062
3887.00,0.0061
3886.00,0.0061
3885.00,0.0061
3884.00,0.0062
3883.00,0.0062
3882.00,0.0062
3881.00,0.0062
3880.00,0.0062
3879.00,0.0062
3878.00,0.0062
3877.00,0.0062
3876.00,0.0062
3875.00,0.0062
3874.00,0.0062
3873.00,0.0062
3872.00,0.0061
3871.00,0.0061
3870.00,0.0061
3869.00,0.0061
3868.00,0.0061
3867.00,0.0061
3866.00,0.0061
3865.00,0.0061
3864.00,0.0062
3863.00,0.0062
3862.00,0.0062
3861.00,0.0062
3860.00,0.0062
3859.00,0.0062
3858.00,0.0062
3857.00,0.0062
3856.00,0.0062
3855.00,0.0062
3854.00,0.0061
3853.00,0.0061
3852.00,0.0061
3851.00,0.0061
3850.00,0.0060
3849.00,0.0061
3848.00,0.0061
3847.00,0.0061
3846.00,0.0062
3845.00,0.0062
3844.00,0.0062
3843.00,0.0062
3842.00,0.0062
3841.00,0.0062
3840.00,0.0062
3839.00,0.0062
3838.00,0.0061
3837.00,0.0061
3836.00,0.0061
3835.00,0.0061
3834.00,0.0061
3833.00,0.0061
3832.00,0.0061
3831.00,0.0062
3830.00,0.0062
3829.00,0.0062
3828.00,0.0062
3827.00,0.0062
3826.00,0.0062
3825.00,0.0062
3824.00,0.0062
3823.00,0.0061
3822.00,0.0061
3821.00,0.0061
3820.00,0.0062
3819.00,0.0062
3818.00,0.0061
3817.00,0.0061
3816.00,0.0061
3815.00,0.0061
3814.00,0.0061
3813.00,0.0062
3812.00,0.0062
3811.00,0.0062
3810.00,0.0062
3809.00,0.0062
3808.00,0.0062
3807.00,0.0061
3806.00,0.0061
3805.00,0.0060
3804.00,0.0060
3803.00,0.0060
3802.00,0.0060
3801.00,0.0061
3800.00,0.0061
3799.00,0.0061
3798.00,0.0061
3797.00,0.0061
3796.00,0.0061
3795.00,0.0062
3794.00,0.0062
3793.00,0.0062
3792.00,0.0062
3791.00,0.0062
3790.00,0.0062
3789.00,0.0062
3788.00,0.0063
3787.00,0.0063
3786.00,0.0063
3785.00,0.0063
3784.00,0.0062
3783.00,0.0062
3782.00,0.0062
3781.00,0.0062
3780.00,0.0062
3779.00,0.0062
3778.00,0.0062
3777.00,0.0061
3776.00,0.0061
3775.00,0.0061
3774.00,0.0061
3773.00,0.0061
3772.00,0.0061
3771.00,0.0061
3770.00,0.0061
3769.00,0.0062
3768.00,0.0062
3767.00,0.0061
3766.00,0.0061
3765.00,0.0061
3764.00,0.0061
3763.00,0.0061
3762.00,0.0061
3761.00,0.0062
3760.00,0.0062
3759.00,0.0062
3758.00,0.0061
3757.00,0.0061
3756.00,0.0061
3755.00,0.0061
3754.00,0.0060
3753.00,0.0060
3752.00,0.0060
3751.00,0.0059
3750.00,0.0059
3749.00,0.0059
3748.00,0.0059
3747.00,0.0059
3746.00,0.0059
3745.00,0.0058
3744.00,0.0059
3743.00,0.0059
3742.00,0.0058
3741.00,0.0058
3740.00,0.0058
3739.00,0.0058
3738.00,0.0058
3737.00,0.0058
3736.00,0.0058
3735.00,0.0058
3734.00,0.0057
3733.00,0.0057
3732.00,0.0057
3731.00,0.0058
3730.00,0.0058
3729.00,0.0058
3728.00,0.0058
3727.00,0.0059
3726.00,0.0059
3725.00,0.0059
3724.00,0.0059
3723.00,0.0059
3722.00,0.0060
3721.00,0.0060
3720.00,0.0060
3719.00,0.0060
3718.00,0.0060
3717.00,0.0060
3716.00,0.0060
3715.00,0.0059
3714.00,0.0059
3713.00,0.0059
3712.00,0.0059
3711.00,0.0059
3710.00,0.0060
3709.00,0.0060
3708.00,0.0059
3707.00,0.0059
3706.00,0.0059
3705.00,0.0059
3704.00,0.0059
3703.00,0.0059
3702.00,0.0060
3701.00,0.0060
3700.00,0.0060
3699.00,0.0059
3698.00,0.0059
3697.00,0.0059
3696.00,0.0059
3695.00,0.0060
3694.00,0.0060
3693.00,0.0060
3692.00,0.0060
3691.00,0.0060
3690.00,0.0060
3689.00,0.0060
3688.00,0.0059
3687.00,0.0060
3686.00,0.0060
3685.00,0.0061
3684.00,0.0061
3683.00,0.0061
3682.00,0.0061
3681.00,0.0061
3680.00,0.0061
3679.00,0.0061
3678.00,0.0061
3677.00,0.0060
3676.00,0.0061
3675.00,0.0061
3674.00,0.0061
3673.00,0.0061
3672.00,0.0061
3671.00,0.0061
3670.00,0.0062
3669.00,0.0062
3668.00,0.0063
3667.00,0.0063
3666.00,0.0063
3665.00,0.0064
3664.00,0.0064
3663.00,0.0065
3662.00,0.0065
3661.00,0.0065
3660.00,0.0066
3659.00,0.0066
3658.00,0.0066
3657.00,0.0066
3656.00,0.0066
3655.00,0.0066
3654.00,0.0066
3653.00,0.0066
3652.00,0.0066
3651.00,0.0066
3650.00,0.0066
3649.00,0.0067
3648.00,0.0067
3647.00,0.0067
3646.00,0.0068
3645.00,0.0068
3644.00,0.0069
3643.00,0.0069
3642.00,0.0069
3641.00,0.0070
3640.00,0.0070
3639.00,0.0070
3638.00,0.0070
3637.00,0.0071
3636.00,0.0071
3635.00,0.0071
3634.00,0.0071
3633.00,0.0071
3632.00,0.0071
3631.00,0.0071
3630.00,0.0071
3629.00,0.0072
3628.00,0.0073
3627.00,0.0074
3626.00,0.0074
3625.00,0.0074
3624.00,0.0075
3623.00,0.0075
3622.00,0.0076
3621.00,0.0076
3620.00,0.0077
3619.00,0.0077
3618.00,0.0078
3617.00,0.0078
3616.00,0.0079
3615.00,0.0079
3614.00,0.0080
3613.00,0.0081
3612.00,0.0081
3611.00,0.0081
3610.00,0.0082
3609.00,0.0082
3608.00,0.0083
3607.00,0.0084
3606.00,0.0085
3605.00,0.0085
3604.00,0.0086
3603.00,0.0087
3602.00,0.0087
3601.00,0.0088
3600.00,0.0089
3599.00,0.0090
3598.00,0.0090
3597.00,0.0090
3596.00,0.0091
3595.00,0.0091
3594.00,0.0092
3593.00,0.0092
3592.00,0.0093
3591.00,0.0093
3590.00,0.0094
3589.00,0.0094
3588.00,0.0095
3587.00,0.0097
3586.00,0.0098
3585.00,0.0098
3584.00,0.0099
3583.00,0.0100
3582.00,0.0100
3581.00,0.0101
3580.00,0.0102
3579.00,0.0103
3578.00,0.0104
3577.00,0.0105
3576.00,0.0106
3575.00,0.0106
3574.00,0.0107
3573.00,0.0108
3572.00,0.0108
3571.00,0.0109
3570.00,0.0109
3569.00,0.0110
3568.00,0.0111
3567.00,0.0112
3566.00,0.0113
3565.00,0.0114
3564.00,0.0114
3563.00,0.0115
3562.00,0.0116
3561.00,0.0117
3560.00,0.0118
3559.00,0.0119
3558.00,0.0120
3557.00,0.0121
3556.00,0.0122
3555.00,0.0122
3554.00,0.0123
3553.00,0.0124
3552.00,0.0124
3551.00,0.0125
3550.00,0.0126
3549.00,0.0127
3548.00,0.0128
3547.00,0.0129
3546.00,0.0130
3545.00,0.0131
3544.00,0.0132
3543.00,0.0133
3542.00,0.0134
3541.00,0.0134
3540.00,0.0135
3539.00,0.0136
3538.00,0.0137
3537.00,0.0138
3536.00,0.0138
3535.00,0.0139
3534.00,0.0140
3533.00,0.0141
3532.00,0.0141
3531.00,0.0142
3530.00,0.0143
3529.00,0.0144
3528.00,0.0144
3527.00,0.0145
3526.00,0.0146
3525.00,0.0147
3524.00,0.0148
3523.00,0.0149
3522.00,0.0149
3521.00,0.0150
3520.00,0.0151
3519.00,0.0152
3518.00,0.0153
3517.00,0.0154
3516.00,0.0155
3515.00,0.0156
3514.00,0.0157
3513.00,0.0157
3512.00,0.0158
3511.00,0.0159
3510.00,0.0160
3509.00,0.0161
3508.00,0.0162
3507.00,0.0163
3506.00,0.0164
3505.00,0.0165
3504.00,0.0166
3503.00,0.0167
3502.00,0.0168
3501.00,0.0169
3500.00,0.0170
3499.00,0.0171
3498.00,0.0172
3497.00,0.0173
3496.00,0.0174
3495.00,0.0175
3494.00,0.0176
3493.00,0.0177
3492.00,0.0178
3491.00,0.0180
3490.00,0.0181
3489.00,0.0182
3488.00,0.0184
3487.00,0.0185
3486.00,0.0186
3485.00,0.0187
3484.00,0.0188
3483.00,0.0189
3482.00,0.0190
3481.00,0.0191
3480.00,0.0192
3479.00,0.0193
3478.00,0.0194
3477.00,0.0196
3476.00,0.0197
3475.00,0.0198
3474.00,0.0199
3473.00,0.0200
3472.00,0.0201
3471.00,0.0203
3470.00,0.0204
3469.00,0.0205
3468.00,0.0206
3467.00,0.0208
3466.00,0.0209
3465.00,0.0210
3464.00,0.0211
3463.00,0.0212
3462.00,0.0213
3461.00,0.0214
3460.00,0.0215
3459.00,0.0216
3458.00,0.0218
3457.00,0.0219
3456.00,0.0220
3455.00,0.0221
3454.00,0.0222
3453.00,0.0223
3452.00,0.0224
3451.00,0.0225
3450.00,0.0226
3449.00,0.0227
3448.00,0.0228
3447.00,0.0230
3446.00,0.0231
3445.00,0.0232
3444.00,0.0233
3443.00,0.0234
3442.00,0.0235
3441.00,0.0236
3440.00,0.0237
3439.00,0.0238
3438.00,0.0239
3437.00,0.0241
3436.00,0.0242
3435.00,0.0243
3434.00,0.0245
3433.00,0.0246
3432.00,0.0247
3431.00,0.0249
3430.00,0.0250
3429.00,0.0251
3428.00,0.0253
3427.00,0.0254
3426.00,0.0255
3425.00,0.0257
3424.00,0.0258
3423.00,0.0259
3422.00,0.0261
3421.00,0.0262
3420.00,0.0263
3419.00,0.0265
3418.00,0.0266
3417.00,0.0268
3416.00,0.0269
3415.00,0.0270
3414.00,0.0272
3413.00,0.0273
3412.00,0.0274
3411.00,0.0275
3410.00,0.0276
3409.00,0.0277
3408.00,0.0279
3407.00,0.0280
3406.00,0.0281
3405.00,0.0282
3404.00,0.0282
3403.00,0.0283
3402.00,0.0283
3401.00,0.0284
3400.00,0.0284
3399.00,0.0285
3398.00,0.0286
3397.00,0.0286
3396.00,0.0287
3395.00,0.0287
3394.00,0.0287
3393.00,0.0287
3392.00,0.0287
3391.00,0.0288
3390.00,0.0288
3389.00,0.0288
3388.00,0.0288
3387.00,0.0288
3386.00,0.0288
3385.00,0.0288
3384.00,0.0288
3383.00,0.0288
3382.00,0.0287
3381.00,0.0287
3380.00,0.0287
3379.00,0.0287
3378.00,0.0287
3377.00,0.0287
3376.00,0.0287
3375.00,0.0287
3374.00,0.0287
3373.00,0.0287
3372.00,0.0286
3371.00,0.0285
3370.00,0.0285
3369.00,0.0285
3368.00,0.0285
3367.00,0.0286
3366.00,0.0287
3365.00,0.0287
3364.00,0.0287
3363.00,0.0287
3362.00,0.0288
3361.00,0.0288
3360.00,0.0288
3359.00,0.0289
3358.00,0.0289
3357.00,0.0290
3356.00,0.0290
3355.00,0.0290
3354.00,0.0290
3353.00,0.0289
3352.00,0.0289
3351.00,0.0289
3350.00,0.0289
3349.00,0.0290
3348.00,0.0290
3347.00,0.0291
3346.00,0.0292
3345.00,0.0292
3344.00,0.0292
3343.00,0.0292
3342.00,0.0292
3341.00,0.0292
3340.00,0.0292
3339.00,0.0293
3338.00,0.0293
3337.00,0.0294
3336.00,0.0295
3335.00,0.0296
3334.00,0.0297
3333.00,0.0297
3332.00,0.0297
3331.00,0.0298
3330.00,0.0298
3329.00,0.0298
3328.00,0.0298
3327.00,0.0298
3326.00,0.0298
3325.00,0.0299
3324.00,0.0300
3323.00,0.0301
3322.00,0.0302
3321.00,0.0303
3320.00,0.0304
3319.00,0.0304
3318.00,0.0305
3317.00,0.0305
3316.00,0.0306
3315.00,0.0307
3314.00,0.0307
3313.00,0.0307
3312.00,0.0308
3311.00,0.0308
3310.00,0.0308
3309.00,0.0307
3308.00,0.0307
3307.00,0.0308
3306.00,0.0309
3305.00,0.0310
3304.00,0.0312
3303.00,0.0314
3302.00,0.0315
3301.00,0.0316
3300.00,0.0317
3299.00,0.0318
3298.00,0.0318
3297.00,0.0318
3296.00,0.0318
3295.00,0.0319
3294.00,0.0319
3293.00,0.0320
3292.00,0.0322
3291.00,0.0323
3290.00,0.0325
3289.00,0.0326
3288.00,0.0327
3287.00,0.0328
3286.00,0.0328
3285.00,0.0328
3284.00,0.0329
3283.00,0.0329
3282.00,0.0330
3281.00,0.0330
3280.00,0.0331
3279.00,0.0331
3278.00,0.0331
3277.00,0.0331
3276.00,0.0331
3275.00,0.0330
3274.00,0.0330
3273.00,0.0330
3272.00,0.0329
3271.00,0.0329
3270.00,0.0330
3269.00,0.0330
3268.00,0.0331
3267.00,0.0331
3266.00,0.0332
3265.00,0.0332
3264.00,0.0331
3263.00,0.0331
3262.00,0.0331
3261.00,0.0330
3260.00,0.0330
3259.00,0.0329
3258.00,0.0329
3257.00,0.0328
3256.00,0.0328
3255.00,0.0327
3254.00,0.0327
3253.00,0.0327
3252.00,0.0327
3251.00,0.0327
3250.00,0.0326
3249.00,0.0325
3248.00,0.0324
3247.00,0.0323
3246.00,0.0323
3245.00,0.0323
3244.00,0.0323
3243.00,0.0323
3242.00,0.0323
3241.00,0.0323
3240.00,0.0322
3239.00,0.0322
3238.00,0.0321
3237.00,0.0320
3236.00,0.0319
3235.00,0.0318
3234.00,0.0317
3233.00,0.0316
3232.00,0.0316
3231.00,0.0317
3230.00,0.0317
3229.00,0.0316
3228.00,0.0316
3227.00,0.0316
3226.00,0.0315
3225.00,0.0315
3224.00,0.0314
3223.00,0.0313
3222.00,0.0313
3221.00,0.0312
3220.00,0.0311
3219.00,0.0311
3218.00,0.0310
3217.00,0.0310
3216.00,0.0309
3215.00,0.0308
3214.00,0.0308
3213.00,0.0307
3212.00,0.0306
3211.00,0.0306
3210.00,0.0305
3209.00,0.0304
3208.00,0.0303
3207.00,0.0302
3206.00,0.0301
3205.00,0.0300
3204.00,0.0299
3203.00,0.0298
3202.00,0.0297
3201.00,0.0296
3200.00,0.0295
3199.00,0.0293
3198.00,0.0292
3197.00,0.0291
3196.00,0.0290
3195.00,0.0289
3194.00,0.0287
3193.00,0.0286
3192.00,0.0284
3191.00,0.0283
3190.00,0.0282
3189.00,0.0281
3188.00,0.0280
3187.00,0.0278
3186.00,0.0277
3185.00,0.0276
3184.00,0.0275
3183.00,0.0273
3182.00,0.0272
3181.00,0.0271
3180.00,0.0269
3179.00,0.0268
3178.00,0.0266
3177.00,0.0265
3176.00,0.0264
3175.00,0.0262
3174.00,0.0261
3173.00,0.0259
3172.00,0.0258
3171.00,0.0257
3170.00,0.0255
3169.00,0.0254
3168.00,0.0252
3167.00,0.0251
3166.00,0.0250
3165.00,0.0248
3164.00,0.0247
3163.00,0.0245
3162.00,0.0244
3161.00,0.0242
3160.00,0.0241
3159.00,0.0239
3158.00,0.0238
3157.00,0.0236
3156.00,0.0235
3155.00,0.0233
3154.00,0.0232
3153.00,0.0230
3152.00,0.0229
3151.00,0.0228
3150.00,0.0227
3149.00,0.0226
3148.00,0.0225
3147.00,0.0224
3146.00,0.0223
3145.00,0.0222
3144.00,0.0221
3143.00,0.0219
3142.00,0.0218
3141.00,0.0216
3140.00,0.0215
3139.00,0.0214
3138.00,0.0213
3137.00,0.0213
3136.00,0.0212
3135.00,0.0211
3134.00,0.0210
3133.00,0.0209
3132.00,0.0208
3131.00,0.0207
3130.00,0.0206
3129.00,0.0206
3128.00,0.0205
3127.00,0.0205
3126.00,0.0204
3125.00,0.0203
3124.00,0.0202
3123.00,0.0201
3122.00,0.0200
3121.00,0.0199
3120.00,0.0199
3119.00,0.0198
3118.00,0.0197
3117.00,0.0197
3116.00,0.0196
3115.00,0.0196
3114.00,0.0196
3113.00,0.0195
3112.00,0.0195
3111.00,0.0194
3110.00,0.0193
3109.00,0.0192
3108.00,0.0192
3107.00,0.0191
3106.00,0.0191
3105.00,0.0191
3104.00,0.0191
3103.00,0.0190
3102.00,0.0190
3101.00,0.0189
3100.00,0.0189
3099.00,0.0189
3098.00,0.0189
3097.00,0.0189
3096.00,0.0189
3095.00,0.0189
3094.00,0.0189
3093.00,0.0188
3092.00,0.0188
3091.00,0.0188
3090.00,0.0188
3089.00,0.0188
3088.00,0.0189
3087.00,0.0189
3086.00,0.0189
3085.00,0.0189
3084.00,0.0189
3083.00,0.0189
3082.00,0.0188
3081.00,0.0188
3080.00,0.0188
3079.00,0.0188
3078.00,0.0188
3077.00,0.0188
3076.00,0.0189
3075.00,0.0189
3074.00,0.0189
3073.00,0.0188
3072.00,0.0188
3071.00,0.0187
3070.00,0.0187
3069.00,0.0186
3068.00,0.0186
3067.00,0.0186
3066.00,0.0186
3065.00,0.0186
3064.00,0.0186
3063.00,0.0186
3062.00,0.0186
3061.00,0.0186
3060.00,0.0186
3059.00,0.0185
3058.00,0.0185
3057.00,0.0184
3056.00,0.0184
3055.00,0.0184
3054.00,0.0183
3053.00,0.0182
3052.00,0.0182
3051.00,0.0182
3050.00,0.0181
3049.00,0.0181
3048.00,0.0180
3047.00,0.0179
3046.00,0.0179
3045.00,0.0178
3044.00,0.0177
3043.00,0.0177
3042.00,0.0177
3041.00,0.0177
3040.00,0.0177
3039.00,0.0178
3038.00,0.0178
3037.00,0.0178
3036.00,0.0177
3035.00,0.0177
3034.00,0.0177
3033.00,0.0177
3032.00,0.0177
3031.00,0.0177
3030.00,0.0176
3029.00,0.0176
3028.00,0.0175
3027.00,0.0174
3026.00,0.0173
3025.00,0.0172
3024.00,0.0171
3023.00,0.0171
3022.00,0.0170
3021.00,0.0169
3020.00,0.0168
3019.00,0.0167
3018.00,0.0167
3017.00,0.0166
3016.00,0.0165
3015.00,0.0165
3014.00,0.0165
3013.00,0.0165
3012.00,0.0166
3011.00,0.0167
3010.00,0.0168
3009.00,0.0169
3008.00,0.0171
3007.00,0.0172
3006.00,0.0173
3005.00,0.0175
3004.00,0.0177
3003.00,0.0179
3002.00,0.0181
3001.00,0.0184
3000.00,0.0186
2999.00,0.0189
2998.00,0.0192
2997.00,0.0196
2996.00,0.0199
2995.00,0.0203
2994.00,0.0206
2993.00,0.0209
2992.00,0.0213
2991.00,0.0217
2990.00,0.0220
2989.00,0.0224
2988.00,0.0228
2987.00,0.0231
2986.00,0.0236
2985.00,0.0240
2984.00,0.0246
2983.00,0.0252
2982.00,0.0258
2981.00,0.0264
2980.00,0.0270
2979.00,0.0275
2978.00,0.0279
2977.00,0.0282
2976.00,0.0285
2975.00,0.0289
2974.00,0.0295
2973.00,0.0302
2972.00,0.0309
2971.00,0.0316
2970.00,0.0322
2969.00,0.0326
2968.00,0.0330
2967.00,0.0333
2966.00,0.0336
2965.00,0.0340
2964.00,0.0344
2963.00,0.0348
2962.00,0.0351
2961.00,0.0354
2960.00,0.0355
2959.00,0.0355
2958.00,0.0353
2957.00,0.0349
2956.00,0.0345
2955.00,0.0340
2954.00,0.0335
2953.00,0.0330
2952.00,0.0325
2951.00,0.0322
2950.00,0.0319
2949.00,0.0317
2948.00,0.0316
2947.00,0.0316
2946.00,0.0317
2945.00,0.0320
2944.00,0.0323
2943.00,0.0326
2942.00,0.0331
2941.00,0.0336
2940.00,0.0342
2939.00,0.0349
2938.00,0.0358
2937.00,0.0367
2936.00,0.0377
2935.00,0.0388
2934.00,0.0399
2933.00,0.0411
2932.00,0.0422
2931.00,0.0432
2930.00,0.0441
2929.00,0.0448
2928.00,0.0453
2927.00,0.0455
2926.00,0.0454
2925.00,0.0451
2924.00,0.0445
2923.00,0.0438
2922.00,0.0430
2921.00,0.0422
2920.00,0.0413
2919.00,0.0403
2918.00,0.0394
2917.00,0.0384
2916.00,0.0375
2915.00,0.0366
2914.00,0.0357
2913.00,0.0349
2912.00,0.0341
2911.00,0.0334
2910.00,0.0327
2909.00,0.0321
2908.00,0.0315
2907.00,0.0310
2906.00,0.0305
2905.00,0.0300
2904.00,0.0296
2903.00,0.0292
2902.00,0.0288
2901.00,0.0285
2900.00,0.0281
2899.00,0.0278
2898.00,0.0275
2897.00,0.0272
2896.00,0.0270
2895.00,0.0268
2894.00,0.0266
2893.00,0.0264
2892.00,0.0263
2891.00,0.0261
2890.00,0.0259
2889.00,0.0258
2888.00,0.0257
2887.00,0.0255
2886.00,0.0255
2885.00,0.0254
2884.00,0.0254
2883.00,0.0254
2882.00,0.0254
2881.00,0.0256
2880.00,0.0257
2879.00,0.0260
2878.00,0.0263
2877.00,0.0266
2876.00,0.0269
2875.00,0.0272
2874.00,0.0275
2873.00,0.0276
2872.00,0.0277
2871.00,0.0277
2870.00,0.0276
2869.00,0.0274
2868.00,0.0272
2867.00,0.0271
2866.00,0.0271
2865.00,0.0273
2864.00,0.0276
2863.00,0.0281
2862.00,0.0286
2861.00,0.0293
2860.00,0.0300
2859.00,0.0307
2858.00,0.0312
2857.00,0.0315
2856.00,0.0316
2855.00,0.0315
2854.00,0.0312
2853.00,0.0308
2852.00,0.0303
2851.00,0.0295
2850.00,0.0286
2849.00,0.0275
2848.00,0.0264
2847.00,0.0253
2846.00,0.0243
2845.00,0.0233
2844.00,0.0225
2843.00,0.0217
2842.00,0.0210
2841.00,0.0203
2840.00,0.0197
2839.00,0.0192
2838.00,0.0188
2837.00,0.0185
2836.00,0.0182
2835.00,0.0179
2834.00,0.0177
2833.00,0.0174
2832.00,0.0172
2831.00,0.0170
2830.00,0.0168
2829.00,0.0165
2828.00,0.0163
2827.00,0.0162
2826.00,0.0160
2825.00,0.0159
2824.00,0.0157
2823.00,0.0155
2822.00,0.0154
2821.00,0.0153
2820.00,0.0151
2819.00,0.0150
2818.00,0.0149
2817.00,0.0148
2816.00,0.0147
2815.00,0.0147
2814.00,0.0145
2813.00,0.0144
2812.00,0.0143
2811.00,0.0143
2810.00,0.0142
2809.00,0.0141
2808.00,0.0141
2807.00,0.0140
2806.00,0.0140
2805.00,0.0139
2804.00,0.0139
2803.00,0.0138
2802.00,0.0137
2801.00,0.0137
2800.00,0.0136
2799.00,0.0135
2798.00,0.0135
2797.00,0.0135
2796.00,0.0134
2795.00,0.0134
2794.00,0.0133
2793.00,0.0133
2792.00,0.0132
2791.00,0.0131
2790.00,0.0131
2789.00,0.0130
2788.00,0.0130
2787.00,0.0130
2786.00,0.0129
2785.00,0.0129
2784.00,0.0128
2783.00,0.0128
2782.00,0.0128
2781.00,0.0127
2780.00,0.0127
2779.00,0.0126
2778.00,0.0126
2777.00,0.0125
2776.00,0.0125
2775.00,0.0125
2774.00,0.0125
2773.00,0.0124
2772.00,0.0124
2771.00,0.0124
2770.00,0.0123
2769.00,0.0123
2768.00,0.0123
2767.00,0.0122
2766.00,0.0122
2765.00,0.0122
2764.00,0.0122
2763.00,0.0122
2762.00,0.0121
2761.00,0.0121
2760.00,0.0121
2759.00,0.0121
2758.00,0.0120
2757.00,0.0120
2756.00,0.0120
2755.00,0.0120
2754.00,0.0120
2753.00,0.0120
2752.00,0.0120
2751.00,0.0119
2750.00,0.0119
2749.00,0.0119
2748.00,0.0119
2747.00,0.0119
2746.00,0.0119
2745.00,0.0119
2744.00,0.0119
2743.00,0.0119
2742.00,0.0119
2741.00,0.0119
2740.00,0.0119
2739.00,0.0119
2738.00,0.0119
2737.00,0.0119
2736.00,0.0119
2735.00,0.0120
2734.00,0.0120
2733.00,0.0120
2732.00,0.0120
2731.00,0.0119
2730.00,0.0119
2729.00,0.0119
2728.00,0.0118
2727.00,0.0118
2726.00,0.0118
2725.00,0.0117
2724.00,0.0117
2723.00,0.0117
2722.00,0.0116
2721.00,0.0116
2720.00,0.0116
2719.00,0.0116
2718.00,0.0115
2717.00,0.0115
2716.00,0.0115
2715.00,0.0114
2714.00,0.0114
2713.00,0.0113
2712.00,0.0113
2711.00,0.0113
2710.00,0.0113
2709.00,0.0113
2708.00,0.0112
2707.00,0.0112
2706.00,0.0112
2705.00,0.0112
2704.00,0.0111
2703.00,0.0111
2702.00,0.0111
2701.00,0.0111
2700.00,0.0111
2699.00,0.0110
2698.00,0.0110
2697.00,0.0110
2696.00,0.0109
2695.00,0.0109
2694.00,0.0109
2693.00,0.0109
2692.00,0.0109
2691.00,0.0109
2690.00,0.0108
2689.00,0.0108
2688.00,0.0108
2687.00,0.0108
2686.00,0.0107
2685.00,0.0107
2684.00,0.0107
2683.00,0.0107
2682.00,0.0107
2681.00,0.0107
2680.00,0.0106
2679.00,0.0106
2678.00,0.0106
2677.00,0.0106
2676.00,0.0106
2675.00,0.0106
2674.00,0.0106
2673.00,0.0106
2672.00,0.0106
2671.00,0.0106
2670.00,0.0106
2669.00,0.0106
2668.00,0.0106
2667.00,0.0107
2666.00,0.0107
2665.00,0.0108
2664.00,0.0108
2663.00,0.0108
2662.00,0.0109
2661.00,0.0109
2660.00,0.0110
2659.00,0.0110
2658.00,0.0110
2657.00,0.0110
2656.00,0.0110
2655.00,0.0110
2654.00,0.0110
2653.00,0.0110
2652.00,0.0110
2651.00,0.0110
2650.00,0.0110
2649.00,0.0110
2648.00,0.0109
2647.00,0.0109
2646.00,0.0109
2645.00,0.0109
2644.00,0.0109
2643.00,0.0109
2642.00,0.0108
2641.00,0.0108
2640.00,0.0108
2639.00,0.0108
2638.00,0.0108
2637.00,0.0108
2636.00,0.0107
2635.00,0.0107
2634.00,0.0107
2633.00,0.0106
2632.00,0.0106
2631.00,0.0106
2630.00,0.0105
2629.00,0.0105
2628.00,0.0105
2627.00,0.0104
2626.00,0.0104
2625.00,0.0104
2624.00,0.0104
2623.00,0.0103
2622.00,0.0103
2621.00,0.0103
2620.00,0.0103
2619.00,0.0103
2618.00,0.0103
2617.00,0.0102
2616.00,0.0102
2615.00,0.0102
2614.00,0.0102
2613.00,0.0102
2612.00,0.0102
2611.00,0.0102
2610.00,0.0102
2609.00,0.0101
2608.00,0.0101
2607.00,0.0101
2606.00,0.0101
2605.00,0.0100
2604.00,0.0100
2603.00,0.0100
2602.00,0.0100
2601.00,0.0100
2600.00,0.0100
2599.00,0.0100
2598.00,0.0100
2597.00,0.0099
2596.00,0.0099
2595.00,0.0099
2594.00,0.0099
2593.00,0.0099
2592.00,0.0099
2591.00,0.0099
2590.00,0.0099
2589.00,0.0099
2588.00,0.0099
2587.00,0.0098
2586.00,0.0098
2585.00,0.0098
2584.00,0.0098
2583.00,0.0098
2582.00,0.0098
2581.00,0.0098
2580.00,0.0098
2579.00,0.0098
2578.00,0.0098
2577.00,0.0097
2576.00,0.0097
2575.00,0.0097
2574.00,0.0097
2573.00,0.0096
2572.00,0.0096
2571.00,0.0096
2570.00,0.0095
2569.00,0.0095
2568.00,0.0095
2567.00,0.0095
2566.00,0.0095
2565.00,0.0095
2564.00,0.0095
2563.00,0.0095
2562.00,0.0095
2561.00,0.0094
2560.00,0.0094
2559.00,0.0093
2558.00,0.0093
2557.00,0.0093
2556.00,0.0092
2555.00,0.0092
2554.00,0.0092
2553.00,0.0092
2552.00,0.0092
2551.00,0.0092
2550.00,0.0091
2549.00,0.0091
2548.00,0.0091
2547.00,0.0091
2546.00,0.0091
2545.00,0.0090
2544.00,0.0090
2543.00,0.0090
2542.00,0.0090
2541.00,0.0090
2540.00,0.0090
2539.00,0.0090
2538.00,0.0090
2537.00,0.0090
2536.00,0.0090
2535.00,0.0090
2534.00,0.0090
2533.00,0.0090
2532.00,0.0090
2531.00,0.0089
2530.00,0.0089
2529.00,0.0089
2528.00,0.0089
2527.00,0.0089
2526.00,0.0088
2525.00,0.0088
2524.00,0.0088
2523.00,0.0087
2522.00,0.0087
2521.00,0.0087
2520.00,0.0087
2519.00,0.0087
2518.00,0.0087
2517.00,0.0087
2516.00,0.0086
2515.00,0.0086
2514.00,0.0085
2513.00,0.0085
2512.00,0.0085
2511.00,0.0085
2510.00,0.0085
2509.00,0.0085
2508.00,0.0085
2507.00,0.0084
2506.00,0.0084
2505.00,0.0084
2504.00,0.0084
2503.00,0.0084
2502.00,0.0084
2501.00,0.0084
2500.00,0.0084
2499.00,0.0084
2498.00,0.0083
2497.00,0.0083
2496.00,0.0083
2495.00,0.0083
2494.00,0.0083
2493.00,0.0083
2492.00,0.0083
2491.00,0.0083
2490.00,0.0082
2489.00,0.0082
2488.00,0.0082
2487.00,0.0082
2486.00,0.0082
2485.00,0.0082
2484.00,0.0082
2483.00,0.0082
2482.00,0.0082
2481.00,0.0082
2480.00,0.0081
2479.00,0.0081
2478.00,0.0081
2477.00,0.0081
2476.00,0.0081
2475.00,0.0080
2474.00,0.0080
2473.00,0.0080
2472.00,0.0080
2471.00,0.0080
2470.00,0.0080
2469.00,0.0080
2468.00,0.0080
2467.00,0.0080
2466.00,0.0080
2465.00,0.0080
2464.00,0.0080
2463.00,0.0080
2462.00,0.0080
2461.00,0.0080
2460.00,0.0080
2459.00,0.0080
2458.00,0.0080
2457.00,0.0081
2456.00,0.0081
2455.00,0.0081
2454.00,0.0081
2453.00,0.0081
2452.00,0.0080
2451.00,0.0080
2450.00,0.0079
2449.00,0.0079
2448.00,0.0079
2447.00,0.0079
2446.00,0.0079
2445.00,0.0078
2444.00,0.0078
2443.00,0.0078
2442.00,0.0078
2441.00,0.0078
2440.00,0.0077
2439.00,0.0077
2438.00,0.0076
2437.00,0.0076
2436.00,0.0077
2435.00,0.0077
2434.00,0.0077
2433.00,0.0077
2432.00,0.0077
2431.00,0.0077
2430.00,0.0076
2429.00,0.0076
2428.00,0.0076
2427.00,0.0076
2426.00,0.0076
2425.00,0.0076
2424.00,0.0076
2423.00,0.0075
2422.00,0.0075
2421.00,0.0075
2420.00,0.0075
2419.00,0.0075
2418.00,0.0075
2417.00,0.0075
2416.00,0.0075
2415.00,0.0075
2414.00,0.0074
2413.00,0.0074
2412.00,0.0075
2411.00,0.0075
2410.00,0.0075
2409.00,0.0074
2408.00,0.0074
2407.00,0.0074
2406.00,0.0073
2405.00,0.0073
2404.00,0.0073
2403.00,0.0072
2402.00,0.0072
2401.00,0.0072
2400.00,0.0072
2399.00,0.0072
2398.00,0.0072
2397.00,0.0071
2396.00,0.0071
2395.00,0.0071
2394.00,0.0071
2393.00,0.0071
2392.00,0.0071
2391.00,0.0071
2390.00,0.0070
2389.00,0.0070
2388.00,0.0070
2387.00,0.0069
2386.00,0.0069
2385.00,0.0068
2384.00,0.0068
2383.00,0.0067
2382.00,0.0066
2381.00,0.0066
2380.00,0.0066
2379.00,0.0066
2378.00,0.0066
2377.00,0.0066
2376.00,0.0066
2375.00,0.0066
2374.00,0.0066
2373.00,0.0066
2372.00,0.0066
2371.00,0.0066
2370.00,0.0066
2369.00,0.0065
2368.00,0.0065
2367.00,0.0065
2366.00,0.0065
2365.00,0.0065
2364.00,0.0066
2363.00,0.0066
2362.00,0.0066
2361.00,0.0067
2360.00,0.0066
2359.00,0.0066
2358.00,0.0066
2357.00,0.0066
2356.00,0.0067
2355.00,0.0067
2354.00,0.0067
2353.00,0.0067
2352.00,0.0066
2351.00,0.0066
2350.00,0.0067
2349.00,0.0068
2348.00,0.0069
2347.00,0.0070
2346.00,0.0070
2345.00,0.0069
2344.00,0.0069
2343.00,0.0070
2342.00,0.0070
2341.00,0.0070
2340.00,0.0071
2339.00,0.0071
2338.00,0.0071
2337.00,0.0071
2336.00,0.0071
2335.00,0.0071
2334.00,0.0071
2333.00,0.0071
2332.00,0.0070
2331.00,0.0070
2330.00,0.0070
2329.00,0.0072
2328.00,0.0076
2327.00,0.0080
2326.00,0.0083
2325.00,0.0084
2324.00,0.0083
2323.00,0.0080
2322.00,0.0078
2321.00,0.0077
2320.00,0.0076
2319.00,0.0075
2318.00,0.0075
2317.00,0.0075
2316.00,0.0074
2315.00,0.0073
2314.00,0.0072
2313.00,0.0071
2312.00,0.0070
2311.00,0.0070
2310.00,0.0070
2309.00,0.0070
2308.00,0.0070
2307.00,0.0070
2306.00,0.0070
2305.00,0.0071
2304.00,0.0071
2303.00,0.0071
2302.00,0.0071
2301.00,0.0071
2300.00,0.0072
2299.00,0.0073
2298.00,0.0073
2297.00,0.0074
2296.00,0.0075
2295.00,0.0076
2294.00,0.0077
2293.00,0.0078
2292.00,0.0079
2291.00,0.0080
2290.00,0.0080
2289.00,0.0081
2288.00,0.0082
2287.00,0.0082
2286.00,0.0082
2285.00,0.0081
2284.00,0.0080
2283.00,0.0079
2282.00,0.0079
2281.00,0.0079
2280.00,0.0078
2279.00,0.0077
2278.00,0.0076
2277.00,0.0075
2276.00,0.0074
2275.00,0.0074
2274.00,0.0074
2273.00,0.0074
2272.00,0.0075
2271.00,0.0075
2270.00,0.0075
2269.00,0.0074
2268.00,0.0073
2267.00,0.0072
2266.00,0.0071
2265.00,0.0071
2264.00,0.0071
2263.00,0.0071
2262.00,0.0071
2261.00,0.0072
2260.00,0.0073
2259.00,0.0073
2258.00,0.0072
2257.00,0.0070
2256.00,0.0069
2255.00,0.0068
2254.00,0.0067
2253.00,0.0068
2252.00,0.0069
2251.00,0.0070
2250.00,0.0070
2249.00,0.0070
2248.00,0.0070
2247.00,0.0069
2246.00,0.0069
2245.00,0.0069
2244.00,0.0070
2243.00,0.0070
2242.00,0.0070
2241.00,0.0070
2240.00,0.0070
2239.00,0.0070
2238.00,0.0070
2237.00,0.0070
2236.00,0.0070
2235.00,0.0070
2234.00,0.0069
2233.00,0.0069
2232.00,0.0068
2231.00,0.0067
2230.00,0.0067
2229.00,0.0067
2228.00,0.0068
2227.00,0.0068
2226.00,0.0069
2225.00,0.0069
2224.00,0.0069
2223.00,0.0069
2222.00,0.0068
2221.00,0.0068
2220.00,0.0067
2219.00,0.0067
2218.00,0.0067
2217.00,0.0068
2216.00,0.0069
2215.00,0.0069
2214.00,0.0070
2213.00,0.0070
2212.00,0.0070
2211.00,0.0069
2210.00,0.0069
2209.00,0.0069
2208.00,0.0069
2207.00,0.0069
2206.00,0.0069
2205.00,0.0069
2204.00,0.0070
2203.00,0.0070
2202.00,0.0070
2201.00,0.0069
2200.00,0.0069
2199.00,0.0068
2198.00,0.0068
2197.00,0.0067
2196.00,0.0067
2195.00,0.0068
2194.00,0.0068
2193.00,0.0068
2192.00,0.0069
2191.00,0.0070
2190.00,0.0072
2189.00,0.0073
2188.00,0.0075
2187.00,0.0075
2186.00,0.0075
2185.00,0.0073
2184.00,0.0070
2183.00,0.0067
2182.00,0.0065
2181.00,0.0065
2180.00,0.0065
2179.00,0.0065
2178.00,0.0064
2177.00,0.0061
2176.00,0.0060
2175.00,0.0059
2174.00,0.0061
2173.00,0.0064
2172.00,0.0067
2171.00,0.0069
2170.00,0.0071
2169.00,0.0073
2168.00,0.0075
2167.00,0.0077
2166.00,0.0079
2165.00,0.0080
2164.00,0.0081
2163.00,0.0080
2162.00,0.0073
2161.00,0.0062
2160.00,0.0047
2159.00,0.0035
2158.00,0.0029
2157.00,0.0028
2156.00,0.0031
2155.00,0.0035
2154.00,0.0038
2153.00,0.0041
2152.00,0.0043
2151.00,0.0044
2150.00,0.0045
2149.00,0.0047
2148.00,0.0048
2147.00,0.0048
2146.00,0.0048
2145.00,0.0048
2144.00,0.0047
2143.00,0.0047
2142.00,0.0047
2141.00,0.0048
2140.00,0.0048
2139.00,0.0048
2138.00,0.0046
2137.00,0.0044
2136.00,0.0042
2135.00,0.0040
2134.00,0.0039
2133.00,0.0040
2132.00,0.0043
2131.00,0.0046
2130.00,0.0048
2129.00,0.0050
2128.00,0.0051
2127.00,0.0052
2126.00,0.0053
2125.00,0.0055
2124.00,0.0056
2123.00,0.0057
2122.00,0.0057
2121.00,0.0058
2120.00,0.0059
2119.00,0.0060
2118.00,0.0061
2117.00,0.0062
2116.00,0.0063
2115.00,0.0062
2114.00,0.0062
2113.00,0.0062
2112.00,0.0062
2111.00,0.0063
2110.00,0.0062
2109.00,0.0062
2108.00,0.0062
2107.00,0.0061
2106.00,0.0061
2105.00,0.0061
2104.00,0.0062
2103.00,0.0062
2102.00,0.0062
2101.00,0.0061
2100.00,0.0061
2099.00,0.0061
2098.00,0.0060
2097.00,0.0058
2096.00,0.0056
2095.00,0.0055
2094.00,0.0055
2093.00,0.0056
2092.00,0.0057
2091.00,0.0058
2090.00,0.0058
2089.00,0.0058
2088.00,0.0059
2087.00,0.0060
2086.00,0.0060
2085.00,0.0061
2084.00,0.0062
2083.00,0.0062
2082.00,0.0062
2081.00,0.0062
2080.00,0.0062
2079.00,0.0062
2078.00,0.0062
2077.00,0.0062
2076.00,0.0062
2075.00,0.0062
2074.00,0.0061
2073.00,0.0061
2072.00,0.0062
2071.00,0.0062
2070.00,0.0062
2069.00,0.0061
2068.00,0.0061
2067.00,0.0061
2066.00,0.0060
2065.00,0.0059
2064.00,0.0058
2063.00,0.0057
2062.00,0.0056
2061.00,0.0055
2060.00,0.0055
2059.00,0.0055
2058.00,0.0055
2057.00,0.0055
2056.00,0.0054
2055.00,0.0055
2054.00,0.0058
2053.00,0.0063
2052.00,0.0066
2051.00,0.0066
2050.00,0.0063
2049.00,0.0059
2048.00,0.0057
2047.00,0.0056
2046.00,0.0055
2045.00,0.0055
2044.00,0.0054
2043.00,0.0054
2042.00,0.0054
2041.00,0.0055
2040.00,0.0057
2039.00,0.0058
2038.00,0.0058
2037.00,0.0057
2036.00,0.0055
2035.00,0.0053
2034.00,0.0051
2033.00,0.0050
2032.00,0.0049
2031.00,0.0049
2030.00,0.0048
2029.00,0.0048
2028.00,0.0049
2027.00,0.0050
2026.00,0.0050
2025.00,0.0050
2024.00,0.0049
2023.00,0.0049
2022.00,0.0048
2021.00,0.0048
2020.00,0.0048
2019.00,0.0049
2018.00,0.0048
2017.00,0.0047
2016.00,0.0046
2015.00,0.0046
2014.00,0.0046
2013.00,0.0047
2012.00,0.0049
2011.00,0.0050
2010.00,0.0049
2009.00,0.0047
2008.00,0.0044
2007.00,0.0040
2006.00,0.0038
2005.00,0.0039
2004.00,0.0041
2003.00,0.0043
2002.00,0.0044
2001.00,0.0045
2000.00,0.0046
1999.00,0.0048
1998.00,0.0049
1997.00,0.0050
1996.00,0.0051
1995.00,0.0052
1994.00,0.0053
1993.00,0.0053
1992.00,0.0053
1991.00,0.0053
1990.00,0.0054
1989.00,0.0055
1988.00,0.0056
1987.00,0.0055
1986.00,0.0054
1985.00,0.0055
1984.00,0.0059
1983.00,0.0063
1982.00,0.0068
1981.00,0.0070
1980.00,0.0068
1979.00,0.0062
1978.00,0.0054
1977.00,0.0048
1976.00,0.0045
1975.00,0.0045
1974.00,0.0045
1973.00,0.0046
1972.00,0.0047
1971.00,0.0046
1970.00,0.0044
1969.00,0.0043
1968.00,0.0043
1967.00,0.0044
1966.00,0.0044
1965.00,0.0044
1964.00,0.0044
1963.00,0.0043
1962.00,0.0042
1961.00,0.0040
1960.00,0.0040
1959.00,0.0040
1958.00,0.0041
1957.00,0.0043
1956.00,0.0045
1955.00,0.0046
1954.00,0.0047
1953.00,0.0048
1952.00,0.0048
1951.00,0.0047
1950.00,0.0046
1949.00,0.0045
1948.00,0.0045
1947.00,0.0046
1946.00,0.0046
1945.00,0.0048
1944.00,0.0049
1943.00,0.0048
1942.00,0.0047
1941.00,0.0047
1940.00,0.0047
1939.00,0.0047
1938.00,0.0047
1937.00,0.0047
1936.00,0.0047
1935.00,0.0048
1934.00,0.0049
1933.00,0.0049
1932.00,0.0049
1931.00,0.0049
1930.00,0.0048
1929.00,0.0048
1928.00,0.0048
1927.00,0.0047
1926.00,0.0047
1925.00,0.0048
1924.00,0.0049
1923.00,0.0050
1922.00,0.0051
1921.00,0.0052
1920.00,0.0052
1919.00,0.0052
1918.00,0.0052
1917.00,0.0051
1916.00,0.0051
1915.00,0.0052
1914.00,0.0052
1913.00,0.0053
1912.00,0.0054
1911.00,0.0056
1910.00,0.0057
1909.00,0.0058
1908.00,0.0058
1907.00,0.0057
1906.00,0.0056
1905.00,0.0055
1904.00,0.0055
1903.00,0.0054
1902.00,0.0054
1901.00,0.0054
1900.00,0.0054
1899.00,0.0054
1898.00,0.0055
1897.00,0.0055
1896.00,0.0056
1895.00,0.0056
1894.00,0.0056
1893.00,0.0056
1892.00,0.0056
1891.00,0.0055
1890.00,0.0054
1889.00,0.0053
1888.00,0.0053
1887.00,0.0052
1886.00,0.0052
1885.00,0.0052
1884.00,0.0052
1883.00,0.0052
1882.00,0.0052
1881.00,0.0052
1880.00,0.0053
1879.00,0.0053
1878.00,0.0053
1877.00,0.0052
1876.00,0.0052
1875.00,0.0052
1874.00,0.0052
1873.00,0.0053
1872.00,0.0055
1871.00,0.0055
1870.00,0.0054
1869.00,0.0053
1868.00,0.0052
1867.00,0.0052
1866.00,0.0052
1865.00,0.0053
1864.00,0.0054
1863.00,0.0055
1862.00,0.0054
1861.00,0.0054
1860.00,0.0054
1859.00,0.0054
1858.00,0.0053
1857.00,0.0053
1856.00,0.0053
1855.00,0.0054
1854.00,0.0054
1853.00,0.0054
1852.00,0.0054
1851.00,0.0054
1850.00,0.0054
1849.00,0.0055
1848.00,0.0057
1847.00,0.0058
1846.00,0.0059
1845.00,0.0059
1844.00,0.0057
1843.00,0.0055
1842.00,0.0054
1841.00,0.0054
1840.00,0.0055
1839.00,0.0055
1838.00,0.0055
1837.00,0.0054
1836.00,0.0054
1835.00,0.0054
1834.00,0.0054
1833.00,0.0055
1832.00,0.0056
1831.00,0.0056
1830.00,0.0056
1829.00,0.0055
1828.00,0.0056
1827.00,0.0056
1826.00,0.0056
1825.00,0.0056
1824.00,0.0055
1823.00,0.0055
1822.00,0.0054
1821.00,0.0054
1820.00,0.0053
1819.00,0.0053
1818.00,0.0052
1817.00,0.0051
1816.00,0.0052
1815.00,0.0053
1814.00,0.0054
1813.00,0.0055
1812.00,0.0056
1811.00,0.0055
1810.00,0.0055
1809.00,0.0055
1808.00,0.0056
1807.00,0.0056
1806.00,0.0056
1805.00,0.0057
1804.00,0.0057
1803.00,0.0058
1802.00,0.0058
1801.00,0.0058
1800.00,0.0058
1799.00,0.0059
1798.00,0.0059
1797.00,0.0060
1796.00,0.0061
1795.00,0.0062
1794.00,0.0062
1793.00,0.0061
1792.00,0.0061
1791.00,0.0060
1790.00,0.0060
1789.00,0.0060
1788.00,0.0061
1787.00,0.0061
1786.00,0.0061
1785.00,0.0061
1784.00,0.0061
1783.00,0.0062
1782.00,0.0062
1781.00,0.0062
1780.00,0.0063
1779.00,0.0062
1778.00,0.0062
1777.00,0.0063
1776.00,0.0065
1775.00,0.0067
1774.00,0.0067
1773.00,0.0067
1772.00,0.0066
1771.00,0.0066
1770.00,0.0065
1769.00,0.0065
1768.00,0.0065
1767.00,0.0065
1766.00,0.0066
1765.00,0.0067
1764.00,0.0068
1763.00,0.0069
1762.00,0.0068
1761.00,0.0068
1760.00,0.0069
1759.00,0.0070
1758.00,0.0071
1757.00,0.0070
1756.00,0.0071
1755.00,0.0071
1754.00,0.0072
1753.00,0.0073
1752.00,0.0074
1751.00,0.0074
1750.00,0.0074
1749.00,0.0074
1748.00,0.0075
1747.00,0.0076
1746.00,0.0077
1745.00,0.0078
1744.00,0.0079
1743.00,0.0081
1742.00,0.0082
1741.00,0.0082
1740.00,0.0083
1739.00,0.0084
1738.00,0.0085
1737.00,0.0088
1736.00,0.0090
1735.00,0.0091
1734.00,0.0091
1733.00,0.0091
1732.00,0.0093
1731.00,0.0094
1730.00,0.0096
1729.00,0.0097
1728.00,0.0100
1727.00,0.0102
1726.00,0.0105
1725.00,0.0107
1724.00,0.0110
1723.00,0.0113
1722.00,0.0116
1721.00,0.0120
1720.00,0.0125
1719.00,0.0129
1718.00,0.0131
1717.00,0.0134
1716.00,0.0138
1715.00,0.0142
1714.00,0.0146
1713.00,0.0151
1712.00,0.0156
1711.00,0.0163
1710.00,0.0169
1709.00,0.0177
1708.00,0.0186
1707.00,0.0195
1706.00,0.0205
1705.00,0.0217
1704.00,0.0230
1703.00,0.0242
1702.00,0.0256
1701.00,0.0273
1700.00,0.0296
1699.00,0.0317
1698.00,0.0335
1697.00,0.0354
1696.00,0.0377
1695.00,0.0402
1694.00,0.0424
1693.00,0.0444
1692.00,0.0465
1691.00,0.0486
1690.00,0.0509
1689.00,0.0533
1688.00,0.0555
1687.00,0.0574
1686.00,0.0594
1685.00,0.0618
1684.00,0.0646
1683.00,0.0672
1682.00,0.0690
1681.00,0.0706
1680.00,0.0723
1679.00,0.0739
1678.00,0.0754
1677.00,0.0768
1676.00,0.0785
1675.00,0.0803
1674.00,0.0819
1673.00,0.0832
1672.00,0.0843
1671.00,0.0855
1670.00,0.0868
1669.00,0.0882
1668.00,0.0894
1667.00,0.0904
1666.00,0.0912
1665.00,0.0920
1664.00,0.0929
1663.00,0.0939
1662.00,0.0949
1661.00,0.0957
1660.00,0.0963
1659.00,0.0969
1658.00,0.0972
1657.00,0.0975
1656.00,0.0977
1655.00,0.0978
1654.00,0.0980
1653.00,0.0984
1652.00,0.0984
1651.00,0.0980
1650.00,0.0973
1649.00,0.0964
1648.00,0.0956
1647.00,0.0947
1646.00,0.0938
1645.00,0.0928
1644.00,0.0918
1643.00,0.0907
1642.00,0.0896
1641.00,0.0885
1640.00,0.0875
1639.00,0.0866
1638.00,0.0856
1637.00,0.0846
1636.00,0.0837
1635.00,0.0830
1634.00,0.0825
1633.00,0.0820
1632.00,0.0818
1631.00,0.0818
1630.00,0.0823
1629.00,0.0832
1628.00,0.0845
1627.00,0.0860
1626.00,0.0874
1625.00,0.0885
1624.00,0.0895
1623.00,0.0902
1622.00,0.0904
1621.00,0.0899
1620.00,0.0890
1619.00,0.0876
1618.00,0.0856
1617.00,0.0831
1616.00,0.0806
1615.00,0.0786
1614.00,0.0772
1613.00,0.0761
1612.00,0.0752
1611.00,0.0742
1610.00,0.0730
1609.00,0.0714
1608.00,0.0695
1607.00,0.0674
1606.00,0.0653
1605.00,0.0632
1604.00,0.0612
1603.00,0.0593
1602.00,0.0575
1601.00,0.0560
1600.00,0.0546
1599.00,0.0534
1598.00,0.0524
1597.00,0.0515
1596.00,0.0509
1595.00,0.0504
1594.00,0.0501
1593.00,0.0502
1592.00,0.0505
1591.00,0.0512
1590.00,0.0522
1589.00,0.0534
1588.00,0.0547
1587.00,0.0559
1586.00,0.0569
1585.00,0.0576
1584.00,0.0579
1583.00,0.0579
1582.00,0.0576
1581.00,0.0572
1580.00,0.0566
1579.00,0.0559
1578.00,0.0551
1577.00,0.0541
1576.00,0.0530
1575.00,0.0520
1574.00,0.0513
1573.00,0.0509
1572.00,0.0506
1571.00,0.0504
1570.00,0.0503
1569.00,0.0502
1568.00,0.0501
1567.00,0.0500
1566.00,0.0498
1565.00,0.0496
1564.00,0.0493
1563.00,0.0492
1562.00,0.0491
1561.00,0.0491
1560.00,0.0491
1559.00,0.0492
1558.00,0.0494
1557.00,0.0497
1556.00,0.0499
1555.00,0.0502
1554.00,0.0505
1553.00,0.0509
1552.00,0.0513
1551.00,0.0518
1550.00,0.0522
1549.00,0.0527
1548.00,0.0532
1547.00,0.0536
1546.00,0.0540
1545.00,0.0545
1544.00,0.0549
1543.00,0.0553
1542.00,0.0557
1541.00,0.0560
1540.00,0.0562
1539.00,0.0564
1538.00,0.0566
1537.00,0.0568
1536.00,0.0569
1535.00,0.0570
1534.00,0.0570
1533.00,0.0571
1532.00,0.0572
1531.00,0.0572
1530.00,0.0573
1529.00,0.0573
1528.00,0.0573
1527.00,0.0573
1526.00,0.0573
1525.00,0.0573
1524.00,0.0574
1523.00,0.0574
1522.00,0.0574
1521.00,0.0575
1520.00,0.0576
1519.00,0.0577
1518.00,0.0579
1517.00,0.0580
1516.00,0.0581
1515.00,0.0581
1514.00,0.0580
1513.00,0.0578
1512.00,0.0575
1511.00,0.0573
1510.00,0.0570
1509.00,0.0567
1508.00,0.0562
1507.00,0.0556
1506.00,0.0550
1505.00,0.0545
1504.00,0.0542
1503.00,0.0541
1502.00,0.0541
1501.00,0.0544
1500.00,0.0551
1499.00,0.0561
1498.00,0.0574
1497.00,0.0584
1496.00,0.0587
1495.00,0.0583
1494.00,0.0573
1493.00,0.0558
1492.00,0.0540
1491.00,0.0520
1490.00,0.0499
1489.00,0.0480
1488.00,0.0462
1487.00,0.0446
1486.00,0.0432
1485.00,0.0419
1484.00,0.0409
1483.00,0.0400
1482.00,0.0392
1481.00,0.0386
1480.00,0.0382
1479.00,0.0380
1478.00,0.0380
1477.00,0.0381
1476.00,0.0385
1475.00,0.0390
1474.00,0.0398
1473.00,0.0409
1472.00,0.0426
1471.00,0.0445
1470.00,0.0465
1469.00,0.0488
1468.00,0.0510
1467.00,0.0532
1466.00,0.0551
1465.00,0.0566
1464.00,0.0576
1463.00,0.0583
1462.00,0.0588
1461.00,0.0592
1460.00,0.0595
1459.00,0.0597
1458.00,0.0595
1457.00,0.0590
1456.00,0.0582
1455.00,0.0574
1454.00,0.0567
1453.00,0.0562
1452.00,0.0558
1451.00,0.0558
1450.00,0.0559
1449.00,0.0562
1448.00,0.0568
1447.00,0.0575
1446.00,0.0583
1445.00,0.0594
1444.00,0.0605
1443.00,0.0618
1442.00,0.0631
1441.00,0.0643
1440.00,0.0653
1439.00,0.0662
1438.00,0.0670
1437.00,0.0678
1436.00,0.0686
1435.00,0.0693
1434.00,0.0698
1433.00,0.0702
1432.00,0.0706
1431.00,0.0709
1430.00,0.0711
1429.00,0.0712
1428.00,0.0712
1427.00,0.0712
1426.00,0.0712
1425.00,0.0711
1424.00,0.0710
1423.00,0.0708
1422.00,0.0703
1421.00,0.0696
1420.00,0.0684
1419.00,0.0668
1418.00,0.0650
1417.00,0.0632
1416.00,0.0615
1415.00,0.0599
1414.00,0.0584
1413.00,0.0571
1412.00,0.0562
1411.00,0.0555
1410.00,0.0553
1409.00,0.0554
1408.00,0.0558
1407.00,0.0566
1406.00,0.0577
1405.00,0.0590
1404.00,0.0604
1403.00,0.0617
1402.00,0.0627
1401.00,0.0634
1400.00,0.0637
1399.00,0.0635
1398.00,0.0629
1397.00,0.0619
1396.00,0.0606
1395.00,0.0590
1394.00,0.0574
1393.00,0.0560
1392.00,0.0549
1391.00,0.0542
1390.00,0.0538
1389.00,0.0540
1388.00,0.0546
1387.00,0.0553
1386.00,0.0555
1385.00,0.0551
1384.00,0.0545
1383.00,0.0538
1382.00,0.0536
1381.00,0.0536
1380.00,0.0536
1379.00,0.0536
1378.00,0.0533
1377.00,0.0529
1376.00,0.0521
1375.00,0.0511
1374.00,0.0500
1373.00,0.0490
1372.00,0.0482
1371.00,0.0478
1370.00,0.0477
1369.00,0.0481
1368.00,0.0488
1367.00,0.0497
1366.00,0.0504
1365.00,0.0509
1364.00,0.0510
1363.00,0.0512
1362.00,0.0517
1361.00,0.0523
1360.00,0.0524
1359.00,0.0518
1358.00,0.0504
1357.00,0.0487
1356.00,0.0471
1355.00,0.0458
1354.00,0.0449
1353.00,0.0442
1352.00,0.0438
1351.00,0.0435
1350.00,0.0434
1349.00,0.0434
1348.00,0.0433
1347.00,0.0433
1346.00,0.0431
1345.00,0.0428
1344.00,0.0424
1343.00,0.0419
1342.00,0.0414
1341.00,0.0409
1340.00,0.0404
1339.00,0.0399
1338.00,0.0396
1337.00,0.0394
1336.00,0.0393
1335.00,0.0394
1334.00,0.0396
1333.00,0.0399
1332.00,0.0402
1331.00,0.0406
1330.00,0.0409
1329.00,0.0411
1328.00,0.0413
1327.00,0.0414
1326.00,0.0415
1325.00,0.0416
1324.00,0.0418
1323.00,0.0421
1322.00,0.0424
1321.00,0.0427
1320.00,0.0430
1319.00,0.0432
1318.00,0.0432
1317.00,0.0432
1316.00,0.0430
1315.00,0.0428
1314.00,0.0426
1313.00,0.0424
1312.00,0.0422
1311.00,0.0422
1310.00,0.0423
1309.00,0.0426
1308.00,0.0432
1307.00,0.0440
1306.00,0.0450
1305.00,0.0464
1304.00,0.0479
1303.00,0.0496
1302.00,0.0511
1301.00,0.0523
1300.00,0.0530
1299.00,0.0534
1298.00,0.0539
1297.00,0.0545
1296.00,0.0555
1295.00,0.0567
1294.00,0.0580
1293.00,0.0593
1292.00,0.0605
1291.00,0.0616
1290.00,0.0628
1289.00,0.0639
1288.00,0.0651
1287.00,0.0663
1286.00,0.0672
1285.00,0.0679
1284.00,0.0680
1283.00,0.0676
1282.00,0.0667
1281.00,0.0654
1280.00,0.0638
1279.00,0.0623
1278.00,0.0610
1277.00,0.0599
1276.00,0.0591
1275.00,0.0586
1274.00,0.0583
1273.00,0.0580
1272.00,0.0577
1271.00,0.0573
1270.00,0.0568
1269.00,0.0563
1268.00,0.0556
1267.00,0.0549
1266.00,0.0542
1265.00,0.0534
1264.00,0.0526
1263.00,0.0517
1262.00,0.0508
1261.00,0.0500
1260.00,0.0493
1259.00,0.0486
1258.00,0.0481
1257.00,0.0477
1256.00,0.0473
1255.00,0.0471
1254.00,0.0469
1253.00,0.0469
1252.00,0.0470
1251.00,0.0473
1250.00,0.0477
1249.00,0.0483
1248.00,0.0491
1247.00,0.0501
1246.00,0.0511
1245.00,0.0520
1244.00,0.0529
1243.00,0.0536
1242.00,0.0542
1241.00,0.0548
1240.00,0.0554
1239.00,0.0561
1238.00,0.0571
1237.00,0.0583
1236.00,0.0595
1235.00,0.0605
1234.00,0.0612
1233.00,0.0614
1232.00,0.0612
1231.00,0.0606
1230.00,0.0598
1229.00,0.0588
1228.00,0.0578
1227.00,0.0568
1226.00,0.0558
1225.00,0.0550
1224.00,0.0542
1223.00,0.0535
1222.00,0.0529
1221.00,0.0525
1220.00,0.0522
1219.00,0.0520
1218.00,0.0520
1217.00,0.0520
1216.00,0.0521
1215.00,0.0519
1214.00,0.0516
1213.00,0.0508
1212.00,0.0498
1211.00,0.0485
1210.00,0.0471
1209.00,0.0458
1208.00,0.0446
1207.00,0.0437
1206.00,0.0429
1205.00,0.0425
1204.00,0.0425
1203.00,0.0427
1202.00,0.0433
1201.00,0.0440
1200.00,0.0450
1199.00,0.0463
1198.00,0.0476
1197.00,0.0490
1196.00,0.0501
1195.00,0.0508
1194.00,0.0508
1193.00,0.0501
1192.00,0.0489
1191.00,0.0474
1190.00,0.0458
1189.00,0.0441
1188.00,0.0425
1187.00,0.0410
1186.00,0.0397
1185.00,0.0386
1184.00,0.0377
1183.00,0.0370
1182.00,0.0365
1181.00,0.0361
1180.00,0.0359
1179.00,0.0357
1178.00,0.0357
1177.00,0.0358
1176.00,0.0359
1175.00,0.0361
1174.00,0.0364
1173.00,0.0366
1172.00,0.0369
1171.00,0.0371
1170.00,0.0374
1169.00,0.0376
1168.00,0.0378
1167.00,0.0381
1166.00,0.0384
1165.00,0.0387
1164.00,0.0392
1163.00,0.0399
1162.00,0.0407
1161.00,0.0419
1160.00,0.0436
1159.00,0.0457
1158.00,0.0482
1157.00,0.0509
1156.00,0.0531
1155.00,0.0545
1154.00,0.0545
1153.00,0.0532
1152.00,0.0508
1151.00,0.0479
1150.00,0.0450
1149.00,0.0425
1148.00,0.0406
1147.00,0.0391
1146.00,0.0381
1145.00,0.0372
1144.00,0.0366
1143.00,0.0360
1142.00,0.0356
1141.00,0.0354
1140.00,0.0352
1139.00,0.0353
1138.00,0.0355
1137.00,0.0361
1136.00,0.0370
1135.00,0.0383
1134.00,0.0403
1133.00,0.0429
1132.00,0.0460
1131.00,0.0492
1130.00,0.0520
1129.00,0.0538
1128.00,0.0545
1127.00,0.0541
1126.00,0.0529
1125.00,0.0512
1124.00,0.0492
1123.00,0.0472
1122.00,0.0453
1121.00,0.0437
1120.00,0.0424
1119.00,0.0416
1118.00,0.0411
1117.00,0.0409
1116.00,0.0409
1115.00,0.0409
1114.00,0.0410
1113.00,0.0410
1112.00,0.0409
1111.00,0.0408
1110.00,0.0407
1109.00,0.0406
1108.00,0.0407
1107.00,0.0409
1106.00,0.0413
1105.00,0.0420
1104.00,0.0431
1103.00,0.0445
1102.00,0.0462
1101.00,0.0478
1100.00,0.0490
1099.00,0.0495
1098.00,0.0492
1097.00,0.0483
1096.00,0.0470
1095.00,0.0458
1094.00,0.0446
1093.00,0.0438
1092.00,0.0432
1091.00,0.0429
1090.00,0.0428
1089.00,0.0428
1088.00,0.0429
1087.00,0.0430
1086.00,0.0431
1085.00,0.0432
1084.00,0.0433
1083.00,0.0435
1082.00,0.0437
1081.00,0.0438
1080.00,0.0439
1079.00,0.0439
1078.00,0.0440
1077.00,0.0440
1076.00,0.0440
1075.00,0.0439
1074.00,0.0438
1073.00,0.0437
1072.00,0.0436
1071.00,0.0436
1070.00,0.0437
1069.00,0.0439
1068.00,0.0442
1067.00,0.0445
1066.00,0.0449
1065.00,0.0455
1064.00,0.0463
1063.00,0.0474
1062.00,0.0489
1061.00,0.0508
1060.00,0.0532
1059.00,0.0562
1058.00,0.0596
1057.00,0.0633
1056.00,0.0668
1055.00,0.0697
1054.00,0.0718
1053.00,0.0731
1052.00,0.0740
1051.00,0.0746
1050.00,0.0750
1049.00,0.0748
1048.00,0.0739
1047.00,0.0723
1046.00,0.0701
1045.00,0.0675
1044.00,0.0647
1043.00,0.0621
1042.00,0.0597
1041.00,0.0576
1040.00,0.0560
1039.00,0.0549
1038.00,0.0542
1037.00,0.0539
1036.00,0.0539
1035.00,0.0541
1034.00,0.0545
1033.00,0.0553
1032.00,0.0567
1031.00,0.0587
1030.00,0.0616
1029.00,0.0649
1028.00,0.0679
1027.00,0.0698
1026.00,0.0701
1025.00,0.0687
1024.00,0.0661
1023.00,0.0629
1022.00,0.0598
1021.00,0.0570
1020.00,0.0547
1019.00,0.0527
1018.00,0.0510
1017.00,0.0495
1016.00,0.0481
1015.00,0.0469
1014.00,0.0458
1013.00,0.0449
1012.00,0.0441
1011.00,0.0435
1010.00,0.0432
1009.00,0.0432
1008.00,0.0435
1007.00,0.0441
1006.00,0.0449
1005.00,0.0455
1004.00,0.0460
1003.00,0.0461
1002.00,0.0458
1001.00,0.0452
1000.00,0.0444
999.00,0.0435
998.00,0.0426
997.00,0.0418
996.00,0.0411
995.00,0.0404
994.00,0.0397
993.00,0.0389
992.00,0.0380
991.00,0.0370
990.00,0.0360
989.00,0.0350
988.00,0.0341
987.00,0.0333
986.00,0.0326
985.00,0.0320
984.00,0.0315
983.00,0.0311
982.00,0.0307
981.00,0.0304
980.00,0.0302
979.00,0.0301
978.00,0.0300
977.00,0.0299
976.00,0.0299
975.00,0.0300
974.00,0.0300
973.00,0.0301
972.00,0.0301
971.00,0.0302
970.00,0.0303
969.00,0.0304
968.00,0.0304
967.00,0.0304
966.00,0.0305
965.00,0.0306
964.00,0.0308
963.00,0.0310
962.00,0.0311
961.00,0.0310
960.00,0.0308
959.00,0.0304
958.00,0.0300
957.00,0.0296
956.00,0.0292
955.00,0.0288
954.00,0.0284
953.00,0.0281
952.00,0.0277
951.00,0.0275
950.00,0.0274
949.00,0.0273
948.00,0.0272
947.00,0.0271
946.00,0.0270
945.00,0.0269
944.00,0.0270
943.00,0.0272
942.00,0.0275
941.00,0.0280
940.00,0.0285
939.00,0.0289
938.00,0.0294
937.00,0.0297
936.00,0.0301
935.00,0.0304
934.00,0.0307
933.00,0.0309
932.00,0.0309
931.00,0.0307
930.00,0.0304
929.00,0.0301
928.00,0.0299
927.00,0.0299
926.00,0.0299
925.00,0.0302
924.00,0.0304
923.00,0.0307
922.00,0.0308
921.00,0.0306
920.00,0.0302
919.00,0.0295
918.00,0.0288
917.00,0.0280
916.00,0.0274
915.00,0.0268
914.00,0.0264
913.00,0.0261
912.00,0.0258
911.00,0.0256
910.00,0.0254
909.00,0.0253
908.00,0.0253
907.00,0.0254
906.00,0.0256
905.00,0.0260
904.00,0.0265
903.00,0.0272
902.00,0.0281
901.00,0.0290
900.00,0.0298
899.00,0.0303
898.00,0.0303
897.00,0.0300
896.00,0.0295
895.00,0.0290
894.00,0.0288
893.00,0.0290
892.00,0.0295
891.00,0.0301
890.00,0.0303
889.00,0.0300
888.00,0.0291
887.00,0.0281
886.00,0.0273
885.00,0.0268
884.00,0.0265
883.00,0.0264
882.00,0.0265
881.00,0.0267
880.00,0.0270
879.00,0.0276
878.00,0.0285
877.00,0.0297
876.00,0.0314
875.00,0.0334
874.00,0.0356
873.00,0.0381
872.00,0.0404
871.00,0.0423
870.00,0.0434
869.00,0.0434
868.00,0.0424
867.00,0.0409
866.00,0.0393
865.00,0.0379
864.00,0.0366
863.00,0.0355
862.00,0.0344
861.00,0.0336
860.00,0.0329
859.00,0.0327
858.00,0.0329
857.00,0.0336
856.00,0.0347
855.00,0.0359
854.00,0.0372
853.00,0.0384
852.00,0.0395
851.00,0.0406
850.00,0.0415
849.00,0.0420
848.00,0.0419
847.00,0.0412
846.00,0.0402
845.00,0.0391
844.00,0.0383
843.00,0.0376
842.00,0.0372
841.00,0.0371
840.00,0.0373
839.00,0.0378
838.00,0.0389
837.00,0.0403
836.00,0.0418
835.00,0.0430
834.00,0.0437
833.00,0.0440
832.00,0.0436
831.00,0.0428
830.00,0.0415
829.00,0.0399
828.00,0.0383
827.00,0.0368
826.00,0.0358
825.00,0.0356
824.00,0.0364
823.00,0.0386
822.00,0.0419
821.00,0.0453
820.00,0.0477
819.00,0.0489
818.00,0.0499
817.00,0.0511
816.00,0.0520
815.00,0.0513
814.00,0.0485
813.00,0.0447
812.00,0.0411
811.00,0.0384
810.00,0.0366
809.00,0.0354
808.00,0.0346
807.00,0.0339
806.00,0.0334
805.00,0.0330
804.00,0.0328
803.00,0.0327
802.00,0.0326
801.00,0.0326
800.00,0.0327
799.00,0.0328
798.00,0.0328
797.00,0.0329
796.00,0.0330
795.00,0.0331
794.00,0.0332
793.00,0.0334
792.00,0.0335
791.00,0.0338
790.00,0.0340
789.00,0.0342
788.00,0.0344
787.00,0.0347
786.00,0.0350
785.00,0.0352
784.00,0.0355
783.00,0.0358
782.00,0.0360
781.00,0.0362
780.00,0.0364
779.00,0.0366
778.00,0.0369
777.00,0.0374
776.00,0.0379
775.00,0.0384
774.00,0.0386
773.00,0.0384
772.00,0.0380
771.00,0.0377
770.00,0.0374
769.00,0.0374
768.00,0.0375
767.00,0.0377
766.00,0.0379
765.00,0.0382
764.00,0.0385
763.00,0.0389
762.00,0.0392
761.00,0.0396
760.00,0.0399
759.00,0.0402
758.00,0.0404
757.00,0.0405
756.00,0.0405
755.00,0.0406
754.00,0.0407
753.00,0.0410
752.00,0.0413
751.00,0.0416
750.00,0.0419
749.00,0.0422
748.00,0.0424
747.00,0.0427
746.00,0.0430
745.00,0.0433
744.00,0.0437
743.00,0.0442
742.00,0.0447
741.00,0.0453
740.00,0.0461
739.00,0.0472
738.00,0.0486
737.00,0.0503
736.00,0.0520
735.00,0.0532
734.00,0.0536
733.00,0.0533
732.00,0.0528
731.00,0.0525
730.00,0.0525
729.00,0.0526
728.00,0.0525
727.00,0.0520
726.00,0.0513
725.00,0.0505
724.00,0.0497
723.00,0.0492
722.00,0.0489
721.00,0.0487
720.00,0.0489
719.00,0.0492
718.00,0.0498
717.00,0.0505
716.00,0.0512
715.00,0.0517
714.00,0.0521
713.00,0.0522
712.00,0.0523
711.00,0.0523
710.00,0.0524
709.00,0.0525
708.00,0.0527
707.00,0.0530
706.00,0.0534
705.00,0.0539
704.00,0.0544
703.00,0.0550
702.00,0.0556
701.00,0.0562
700.00,0.0568
699.00,0.0573
698.00,0.0577
697.00,0.0579
696.00,0.0579
695.00,0.0578
694.00,0.0577
693.00,0.0577
692.00,0.0578
691.00,0.0582
690.00,0.0588
689.00,0.0595
688.00,0.0599
687.00,0.0601
686.00,0.0601
685.00,0.0599
684.00,0.0597
683.00,0.0597
682.00,0.0598
681.00,0.0600
680.00,0.0603
679.00,0.0607
678.00,0.0612
677.00,0.0619
676.00,0.0627
675.00,0.0635
674.00,0.0644
673.00,0.0652
672.00,0.0659
671.00,0.0665
670.00,0.0671
669.00,0.0676
668.00,0.0681
667.00,0.0684
666.00,0.0684
665.00,0.0685
664.00,0.0689
663.00,0.0695
662.00,0.0701
661.00,0.0705
660.00,0.0707
659.00,0.0707
658.00,0.0706
657.00,0.0703
656.00,0.0702
655.00,0.0701
654.00,0.0701
653.00,0.0702
652.00,0.0704
651.00,0.0705
650.00,0.0707
649.00,0.0708
648.00,0.0709
647.00,0.0710
646.00,0.0710
645.00,0.0710
644.00,0.0709
643.00,0.0708
642.00,0.0707
641.00,0.0706
640.00,0.0704
639.00,0.0702
638.00,0.0700
637.00,0.0699
636.00,0.0698
635.00,0.0698
634.00,0.0698
633.00,0.0699
632.00,0.0700
631.00,0.0701
630.00,0.0702
629.00,0.0703
628.00,0.0705
627.00,0.0708
626.00,0.0711
625.00,0.0715
624.00,0.0720
623.00,0.0725
622.00,0.0731
621.00,0.0736
620.00,0.0740
619.00,0.0742
618.00,0.0741
617.00,0.0739
616.00,0.0736
615.00,0.0733
614.00,0.0730
613.00,0.0729
612.00,0.0728
611.00,0.0728
610.00,0.0731
609.00,0.0736
608.00,0.0745
607.00,0.0756
606.00,0.0769
605.00,0.0781
604.00,0.0792
603.00,0.0801
602.00,0.0808
601.00,0.0813
600.00,0.0816
599.00,0.0818
598.00,0.0821
597.00,0.0823
596.00,0.0826
595.00,0.0828
594.00,0.0831
593.00,0.0833
592.00,0.0835
591.00,0.0837
590.00,0.0839
589.00,0.0841
588.00,0.0842
587.00,0.0843
586.00,0.0845
585.00,0.0849
584.00,0.0854
583.00,0.0860
582.00,0.0866
581.00,0.0872
580.00,0.0878
579.00,0.0886
578.00,0.0895
577.00,0.0902
576.00,0.0906
575.00,0.0906
574.00,0.0901
573.00,0.0895
572.00,0.0888
571.00,0.0881
570.00,0.0874
569.00,0.0869
568.00,0.0867
567.00,0.0866
566.00,0.0867
565.00,0.0868
564.00,0.0871
563.00,0.0875
562.00,0.0881
561.00,0.0887
560.00,0.0892
559.00,0.0894
558.00,0.0892
557.00,0.0888
556.00,0.0882
555.00,0.0875
554.00,0.0871
553.00,0.0870
552.00,0.0871
551.00,0.0874
550.00,0.0879
549.00,0.0886
548.00,0.0894
547.00,0.0902
546.00,0.0907
545.00,0.0908
544.00,0.0906
543.00,0.0903
542.00,0.0900
541.00,0.0897
540.00,0.0895
539.00,0.0894
538.00,0.0893
537.00,0.0894
536.00,0.0897
535.00,0.0903
534.00,0.0910
533.00,0.0918
532.00,0.0925
531.00,0.0930
530.00,0.0930
529.00,0.0927
528.00,0.0921
527.00,0.0915
526.00,0.0909
525.00,0.0905
524.00,0.0901
523.00,0.0899
522.00,0.0895
521.00,0.0892
520.00,0.0889
519.00,0.0886
518.00,0.0885
517.00,0.0883
516.00,0.0880
515.00,0.0877
514.00,0.0873
513.00,0.0872
512.00,0.0872
511.00,0.0873
510.00,0.0874
509.00,0.0875
508.00,0.0876
507.00,0.0877
506.00,0.0877
505.00,0.0876
504.00,0.0874
503.00,0.0872
502.00,0.0870
501.00,0.0867
500.00,0.0863
499.00,0.0859
498.00,0.0856
497.00,0.0854
496.00,0.0853
495.00,0.0853
494.00,0.0855
493.00,0.0859
492.00,0.0863
491.00,0.0864
490.00,0.0861
489.00,0.0855
488.00,0.0850
487.00,0.0846
486.00,0.0844
485.00,0.0843
484.00,0.0842
483.00,0.0841
482.00,0.0840
481.00,0.0840
480.00,0.0840
479.00,0.0839
478.00,0.0837
477.00,0.0833
476.00,0.0830
475.00,0.0827
474.00,0.0824
473.00,0.0823
472.00,0.0824
471.00,0.0826
470.00,0.0829
469.00,0.0829
468.00,0.0827
467.00,0.0822
466.00,0.0818
465.00,0.0816
464.00,0.0817
463.00,0.0818
462.00,0.0820
461.00,0.0820
460.00,0.0818
459.00,0.0816
458.00,0.0815
457.00,0.0814
456.00,0.0813
455.00,0.0810
454.00,0.0806
453.00,0.0802
452.00,0.0799
451.00,0.0796
450.00,0.0795
449.00,0.0793
448.00,0.0791
447.00,0.0789
446.00,0.0788
445.00,0.0789
444.00,0.0793
443.00,0.0798
442.00,0.0800
441.00,0.0799
440.00,0.0796
439.00,0.0794
438.00,0.0797
437.00,0.0800
436.00,0.0801
435.00,0.0799
434.00,0.0797
433.00,0.0798
432.00,0.0801
431.00,0.0804
430.00,0.0806
429.00,0.0807
428.00,0.0808
427.00,0.0811
426.00,0.0814
425.00,0.0816
424.00,0.0812
423.00,0.0804
422.00,0.0795
421.00,0.0791
420.00,0.0792
419.00,0.0796
418.00,0.0796
417.00,0.0793
416.00,0.0789
415.00,0.0789
414.00,0.0792
413.00,0.0798
412.00,0.0803
411.00,0.0805
410.00,0.0804
409.00,0.0800
408.00,0.0792
407.00,0.0782
406.00,0.0771
405.00,0.0762
404.00,0.0756
403.00,0.0756
402.00,0.0762
401.00,0.0768
400.00,0.0768
