Created as New Dataset,Sample 714 By YargerLab Date Wednesday, June 18 2025
cm-1,A
4000.00,0.0017
3999.00,0.0017
3998.00,0.0017
3997.00,0.0017
3996.00,0.0016
3995.00,0.0016
3994.00,0.0016
3993.00,0.0016
3992.00,0.0016
3991.00,0.0016
3990.00,0.0017
3989.00,0.0017
3988.00,0.0017
3987.00,0.0017
3986.00,0.0016
3985.00,0.0016
3984.00,0.0016
3983.00,0.0016
3982.00,0.0017
3981.00,0.0017
3980.00,0.0017
3979.00,0.0017
3978.00,0.0017
3977.00,0.0017
3976.00,0.0017
3975.00,0.0017
3974.00,0.0017
3973.00,0.0017
3972.00,0.0017
3971.00,0.0017
3970.00,0.0017
3969.00,0.0017
3968.00,0.0017
3967.00,0.0017
3966.00,0.0017
3965.00,0.0017
3964.00,0.0017
3963.00,0.0017
3962.00,0.0017
3961.00,0.0017
3960.00,0.0017
3959.00,0.0017
3958.00,0.0017
3957.00,0.0017
3956.00,0.0016
3955.00,0.0016
3954.00,0.0016
3953.00,0.0016
3952.00,0.0016
3951.00,0.0016
3950.00,0.0016
3949.00,0.0016
3948.00,0.0016
3947.00,0.0016
3946.00,0.0016
3945.00,0.0016
3944.00,0.0016
3943.00,0.0016
3942.00,0.0016
3941.00,0.0016
3940.00,0.0016
3939.00,0.0016
3938.00,0.0016
3937.00,0.0016
3936.00,0.0016
3935.00,0.0016
3934.00,0.0016
3933.00,0.0016
3932.00,0.0016
3931.00,0.0016
3930.00,0.0016
3929.00,0.0016
3928.00,0.0016
3927.00,0.0016
3926.00,0.0016
3925.00,0.0016
3924.00,0.0016
3923.00,0.0016
3922.00,0.0016
3921.00,0.0016
3920.00,0.0015
3919.00,0.0015
3918.00,0.0015
3917.00,0.0015
3916.00,0.0016
3915.00,0.0016
3914.00,0.0016
3913.00,0.0016
3912.00,0.0016
3911.00,0.0016
3910.00,0.0016
3909.00,0.0016
3908.00,0.0016
3907.00,0.0016
3906.00,0.0016
3905.00,0.0015
3904.00,0.0015
3903.00,0.0015
3902.00,0.0015
3901.00,0.0015
3900.00,0.0015
3899.00,0.0015
3898.00,0.0015
3897.00,0.0015
3896.00,0.0015
3895.00,0.0015
3894.00,0.0015
3893.00,0.0015
3892.00,0.0015
3891.00,0.0016
3890.00,0.0016
3889.00,0.0016
3888.00,0.0015
3887.00,0.0015
3886.00,0.0015
3885.00,0.0015
3884.00,0.0015
3883.00,0.0015
3882.00,0.0015
3881.00,0.0015
3880.00,0.0015
3879.00,0.0016
3878.00,0.0016
3877.00,0.0015
3876.00,0.0015
3875.00,0.0015
3874.00,0.0015
3873.00,0.0016
3872.00,0.0016
3871.00,0.0015
3870.00,0.0016
3869.00,0.0016
3868.00,0.0016
3867.00,0.0016
3866.00,0.0015
3865.00,0.0015
3864.00,0.0015
3863.00,0.0015
3862.00,0.0015
3861.00,0.0015
3860.00,0.0015
3859.00,0.0016
3858.00,0.0016
3857.00,0.0016
3856.00,0.0016
3855.00,0.0016
3854.00,0.0016
3853.00,0.0016
3852.00,0.0016
3851.00,0.0015
3850.00,0.0015
3849.00,0.0015
3848.00,0.0015
3847.00,0.0015
3846.00,0.0015
3845.00,0.0015
3844.00,0.0015
3843.00,0.0015
3842.00,0.0015
3841.00,0.0015
3840.00,0.0015
3839.00,0.0015
3838.00,0.0015
3837.00,0.0015
3836.00,0.0015
3835.00,0.0015
3834.00,0.0015
3833.00,0.0015
3832.00,0.0015
3831.00,0.0015
3830.00,0.0015
3829.00,0.0015
3828.00,0.0015
3827.00,0.0015
3826.00,0.0015
3825.00,0.0015
3824.00,0.0015
3823.00,0.0015
3822.00,0.0015
3821.00,0.0015
3820.00,0.0016
3819.00,0.0016
3818.00,0.0015
3817.00,0.0015
3816.00,0.0015
3815.00,0.0015
3814.00,0.0015
3813.00,0.0015
3812.00,0.0015
3811.00,0.0015
3810.00,0.0015
3809.00,0.0016
3808.00,0.0016
3807.00,0.0016
3806.00,0.0016
3805.00,0.0015
3804.00,0.0015
3803.00,0.0014
3802.00,0.0014
3801.00,0.0014
3800.00,0.0015
3799.00,0.0015
3798.00,0.0015
3797.00,0.0015
3796.00,0.0015
3795.00,0.0015
3794.00,0.0015
3793.00,0.0015
3792.00,0.0015
3791.00,0.0015
3790.00,0.0015
3789.00,0.0015
3788.00,0.0015
3787.00,0.0015
3786.00,0.0015
3785.00,0.0015
3784.00,0.0015
3783.00,0.0015
3782.00,0.0015
3781.00,0.0015
3780.00,0.0015
3779.00,0.0015
3778.00,0.0015
3777.00,0.0015
3776.00,0.0015
3775.00,0.0016
3774.00,0.0016
3773.00,0.0016
3772.00,0.0016
3771.00,0.0015
3770.00,0.0015
3769.00,0.0016
3768.00,0.0016
3767.00,0.0016
3766.00,0.0015
3765.00,0.0016
3764.00,0.0016
3763.00,0.0016
3762.00,0.0015
3761.00,0.0015
3760.00,0.0015
3759.00,0.0015
3758.00,0.0015
3757.00,0.0015
3756.00,0.0015
3755.00,0.0015
3754.00,0.0014
3753.00,0.0014
3752.00,0.0014
3751.00,0.0015
3750.00,0.0015
3749.00,0.0015
3748.00,0.0015
3747.00,0.0015
3746.00,0.0015
3745.00,0.0014
3744.00,0.0014
3743.00,0.0014
3742.00,0.0014
3741.00,0.0014
3740.00,0.0014
3739.00,0.0014
3738.00,0.0014
3737.00,0.0014
3736.00,0.0014
3735.00,0.0014
3734.00,0.0014
3733.00,0.0014
3732.00,0.0014
3731.00,0.0014
3730.00,0.0014
3729.00,0.0014
3728.00,0.0013
3727.00,0.0013
3726.00,0.0013
3725.00,0.0013
3724.00,0.0013
3723.00,0.0013
3722.00,0.0013
3721.00,0.0013
3720.00,0.0014
3719.00,0.0014
3718.00,0.0014
3717.00,0.0013
3716.00,0.0013
3715.00,0.0013
3714.00,0.0013
3713.00,0.0013
3712.00,0.0013
3711.00,0.0013
3710.00,0.0013
3709.00,0.0013
3708.00,0.0013
3707.00,0.0013
3706.00,0.0013
3705.00,0.0013
3704.00,0.0013
3703.00,0.0013
3702.00,0.0013
3701.00,0.0013
3700.00,0.0013
3699.00,0.0013
3698.00,0.0013
3697.00,0.0014
3696.00,0.0014
3695.00,0.0014
3694.00,0.0014
3693.00,0.0013
3692.00,0.0013
3691.00,0.0013
3690.00,0.0013
3689.00,0.0013
3688.00,0.0012
3687.00,0.0012
3686.00,0.0012
3685.00,0.0012
3684.00,0.0012
3683.00,0.0013
3682.00,0.0013
3681.00,0.0012
3680.00,0.0012
3679.00,0.0012
3678.00,0.0012
3677.00,0.0012
3676.00,0.0011
3675.00,0.0011
3674.00,0.0011
3673.00,0.0011
3672.00,0.0010
3671.00,0.0010
3670.00,0.0010
3669.00,0.0011
3668.00,0.0011
3667.00,0.0011
3666.00,0.0011
3665.00,0.0011
3664.00,0.0011
3663.00,0.0011
3662.00,0.0011
3661.00,0.0011
3660.00,0.0010
3659.00,0.0010
3658.00,0.0010
3657.00,0.0011
3656.00,0.0011
3655.00,0.0011
3654.00,0.0011
3653.00,0.0011
3652.00,0.0010
3651.00,0.0010
3650.00,0.0010
3649.00,0.0010
3648.00,0.0010
3647.00,0.0010
3646.00,0.0010
3645.00,0.0010
3644.00,0.0010
3643.00,0.0010
3642.00,0.0010
3641.00,0.0011
3640.00,0.0011
3639.00,0.0011
3638.00,0.0011
3637.00,0.0011
3636.00,0.0011
3635.00,0.0011
3634.00,0.0011
3633.00,0.0011
3632.00,0.0012
3631.00,0.0012
3630.00,0.0012
3629.00,0.0012
3628.00,0.0012
3627.00,0.0012
3626.00,0.0011
3625.00,0.0012
3624.00,0.0012
3623.00,0.0012
3622.00,0.0012
3621.00,0.0012
3620.00,0.0012
3619.00,0.0012
3618.00,0.0012
3617.00,0.0012
3616.00,0.0012
3615.00,0.0012
3614.00,0.0012
3613.00,0.0012
3612.00,0.0013
3611.00,0.0013
3610.00,0.0013
3609.00,0.0012
3608.00,0.0013
3607.00,0.0013
3606.00,0.0013
3605.00,0.0014
3604.00,0.0014
3603.00,0.0014
3602.00,0.0014
3601.00,0.0014
3600.00,0.0014
3599.00,0.0014
3598.00,0.0013
3597.00,0.0013
3596.00,0.0013
3595.00,0.0013
3594.00,0.0013
3593.00,0.0013
3592.00,0.0013
3591.00,0.0013
3590.00,0.0013
3589.00,0.0013
3588.00,0.0014
3587.00,0.0014
3586.00,0.0014
3585.00,0.0014
3584.00,0.0014
3583.00,0.0014
3582.00,0.0014
3581.00,0.0014
3580.00,0.0014
3579.00,0.0014
3578.00,0.0014
3577.00,0.0014
3576.00,0.0014
3575.00,0.0014
3574.00,0.0014
3573.00,0.0015
3572.00,0.0015
3571.00,0.0015
3570.00,0.0015
3569.00,0.0015
3568.00,0.0015
3567.00,0.0015
3566.00,0.0015
3565.00,0.0015
3564.00,0.0016
3563.00,0.0016
3562.00,0.0016
3561.00,0.0016
3560.00,0.0017
3559.00,0.0017
3558.00,0.0017
3557.00,0.0017
3556.00,0.0017
3555.00,0.0017
3554.00,0.0017
3553.00,0.0018
3552.00,0.0018
3551.00,0.0018
3550.00,0.0018
3549.00,0.0018
3548.00,0.0018
3547.00,0.0018
3546.00,0.0019
3545.00,0.0019
3544.00,0.0019
3543.00,0.0019
3542.00,0.0019
3541.00,0.0019
3540.00,0.0020
3539.00,0.0020
3538.00,0.0021
3537.00,0.0021
3536.00,0.0022
3535.00,0.0022
3534.00,0.0022
3533.00,0.0022
3532.00,0.0022
3531.00,0.0023
3530.00,0.0023
3529.00,0.0023
3528.00,0.0023
3527.00,0.0024
3526.00,0.0024
3525.00,0.0024
3524.00,0.0025
3523.00,0.0026
3522.00,0.0026
3521.00,0.0027
3520.00,0.0027
3519.00,0.0028
3518.00,0.0028
3517.00,0.0029
3516.00,0.0029
3515.00,0.0030
3514.00,0.0030
3513.00,0.0031
3512.00,0.0032
3511.00,0.0032
3510.00,0.0033
3509.00,0.0033
3508.00,0.0033
3507.00,0.0034
3506.00,0.0035
3505.00,0.0035
3504.00,0.0036
3503.00,0.0037
3502.00,0.0038
3501.00,0.0039
3500.00,0.0040
3499.00,0.0041
3498.00,0.0043
3497.00,0.0044
3496.00,0.0045
3495.00,0.0046
3494.00,0.0047
3493.00,0.0048
3492.00,0.0049
3491.00,0.0051
3490.00,0.0052
3489.00,0.0054
3488.00,0.0056
3487.00,0.0057
3486.00,0.0059
3485.00,0.0061
3484.00,0.0063
3483.00,0.0064
3482.00,0.0066
3481.00,0.0068
3480.00,0.0069
3479.00,0.0071
3478.00,0.0073
3477.00,0.0075
3476.00,0.0078
3475.00,0.0080
3474.00,0.0083
3473.00,0.0086
3472.00,0.0089
3471.00,0.0092
3470.00,0.0095
3469.00,0.0099
3468.00,0.0104
3467.00,0.0109
3466.00,0.0114
3465.00,0.0121
3464.00,0.0128
3463.00,0.0135
3462.00,0.0144
3461.00,0.0154
3460.00,0.0164
3459.00,0.0176
3458.00,0.0189
3457.00,0.0203
3456.00,0.0217
3455.00,0.0232
3454.00,0.0246
3453.00,0.0259
3452.00,0.0271
3451.00,0.0282
3450.00,0.0289
3449.00,0.0294
3448.00,0.0295
3447.00,0.0293
3446.00,0.0288
3445.00,0.0282
3444.00,0.0274
3443.00,0.0264
3442.00,0.0254
3441.00,0.0244
3440.00,0.0233
3439.00,0.0223
3438.00,0.0213
3437.00,0.0203
3436.00,0.0193
3435.00,0.0184
3434.00,0.0175
3433.00,0.0167
3432.00,0.0160
3431.00,0.0153
3430.00,0.0147
3429.00,0.0141
3428.00,0.0135
3427.00,0.0130
3426.00,0.0126
3425.00,0.0121
3424.00,0.0117
3423.00,0.0113
3422.00,0.0109
3421.00,0.0106
3420.00,0.0103
3419.00,0.0100
3418.00,0.0097
3417.00,0.0095
3416.00,0.0093
3415.00,0.0091
3414.00,0.0089
3413.00,0.0087
3412.00,0.0085
3411.00,0.0083
3410.00,0.0082
3409.00,0.0080
3408.00,0.0079
3407.00,0.0078
3406.00,0.0077
3405.00,0.0076
3404.00,0.0076
3403.00,0.0075
3402.00,0.0074
3401.00,0.0074
3400.00,0.0073
3399.00,0.0073
3398.00,0.0072
3397.00,0.0072
3396.00,0.0072
3395.00,0.0072
3394.00,0.0071
3393.00,0.0071
3392.00,0.0071
3391.00,0.0070
3390.00,0.0070
3389.00,0.0070
3388.00,0.0069
3387.00,0.0069
3386.00,0.0069
3385.00,0.0069
3384.00,0.0069
3383.00,0.0069
3382.00,0.0069
3381.00,0.0068
3380.00,0.0068
3379.00,0.0068
3378.00,0.0068
3377.00,0.0068
3376.00,0.0068
3375.00,0.0068
3374.00,0.0068
3373.00,0.0068
3372.00,0.0068
3371.00,0.0068
3370.00,0.0068
3369.00,0.0068
3368.00,0.0068
3367.00,0.0068
3366.00,0.0068
3365.00,0.0068
3364.00,0.0068
3363.00,0.0068
3362.00,0.0069
3361.00,0.0069
3360.00,0.0069
3359.00,0.0069
3358.00,0.0069
3357.00,0.0070
3356.00,0.0070
3355.00,0.0070
3354.00,0.0070
3353.00,0.0070
3352.00,0.0071
3351.00,0.0071
3350.00,0.0071
3349.00,0.0071
3348.00,0.0071
3347.00,0.0071
3346.00,0.0072
3345.00,0.0072
3344.00,0.0072
3343.00,0.0072
3342.00,0.0073
3341.00,0.0073
3340.00,0.0073
3339.00,0.0073
3338.00,0.0074
3337.00,0.0074
3336.00,0.0074
3335.00,0.0074
3334.00,0.0074
3333.00,0.0074
3332.00,0.0075
3331.00,0.0075
3330.00,0.0075
3329.00,0.0076
3328.00,0.0076
3327.00,0.0077
3326.00,0.0077
3325.00,0.0077
3324.00,0.0077
3323.00,0.0078
3322.00,0.0078
3321.00,0.0078
3320.00,0.0079
3319.00,0.0079
3318.00,0.0080
3317.00,0.0080
3316.00,0.0080
3315.00,0.0081
3314.00,0.0081
3313.00,0.0082
3312.00,0.0082
3311.00,0.0083
3310.00,0.0083
3309.00,0.0084
3308.00,0.0084
3307.00,0.0085
3306.00,0.0085
3305.00,0.0085
3304.00,0.0086
3303.00,0.0086
3302.00,0.0087
3301.00,0.0087
3300.00,0.0087
3299.00,0.0088
3298.00,0.0088
3297.00,0.0089
3296.00,0.0090
3295.00,0.0091
3294.00,0.0091
3293.00,0.0092
3292.00,0.0092
3291.00,0.0093
3290.00,0.0093
3289.00,0.0094
3288.00,0.0095
3287.00,0.0096
3286.00,0.0096
3285.00,0.0097
3284.00,0.0097
3283.00,0.0098
3282.00,0.0099
3281.00,0.0099
3280.00,0.0100
3279.00,0.0101
3278.00,0.0101
3277.00,0.0102
3276.00,0.0102
3275.00,0.0103
3274.00,0.0103
3273.00,0.0104
3272.00,0.0104
3271.00,0.0105
3270.00,0.0106
3269.00,0.0107
3268.00,0.0108
3267.00,0.0109
3266.00,0.0110
3265.00,0.0110
3264.00,0.0111
3263.00,0.0112
3262.00,0.0112
3261.00,0.0113
3260.00,0.0114
3259.00,0.0114
3258.00,0.0115
3257.00,0.0115
3256.00,0.0115
3255.00,0.0116
3254.00,0.0116
3253.00,0.0117
3252.00,0.0118
3251.00,0.0118
3250.00,0.0119
3249.00,0.0119
3248.00,0.0120
3247.00,0.0120
3246.00,0.0121
3245.00,0.0122
3244.00,0.0122
3243.00,0.0123
3242.00,0.0124
3241.00,0.0124
3240.00,0.0125
3239.00,0.0126
3238.00,0.0127
3237.00,0.0127
3236.00,0.0128
3235.00,0.0128
3234.00,0.0129
3233.00,0.0129
3232.00,0.0130
3231.00,0.0130
3230.00,0.0131
3229.00,0.0132
3228.00,0.0132
3227.00,0.0133
3226.00,0.0134
3225.00,0.0134
3224.00,0.0135
3223.00,0.0136
3222.00,0.0137
3221.00,0.0137
3220.00,0.0138
3219.00,0.0138
3218.00,0.0139
3217.00,0.0139
3216.00,0.0140
3215.00,0.0140
3214.00,0.0141
3213.00,0.0142
3212.00,0.0142
3211.00,0.0143
3210.00,0.0144
3209.00,0.0145
3208.00,0.0146
3207.00,0.0146
3206.00,0.0147
3205.00,0.0148
3204.00,0.0149
3203.00,0.0149
3202.00,0.0150
3201.00,0.0150
3200.00,0.0151
3199.00,0.0151
3198.00,0.0152
3197.00,0.0152
3196.00,0.0153
3195.00,0.0153
3194.00,0.0154
3193.00,0.0155
3192.00,0.0155
3191.00,0.0156
3190.00,0.0156
3189.00,0.0156
3188.00,0.0157
3187.00,0.0157
3186.00,0.0157
3185.00,0.0158
3184.00,0.0158
3183.00,0.0159
3182.00,0.0159
3181.00,0.0160
3180.00,0.0160
3179.00,0.0161
3178.00,0.0161
3177.00,0.0161
3176.00,0.0161
3175.00,0.0161
3174.00,0.0161
3173.00,0.0161
3172.00,0.0161
3171.00,0.0162
3170.00,0.0162
3169.00,0.0163
3168.00,0.0163
3167.00,0.0163
3166.00,0.0164
3165.00,0.0164
3164.00,0.0164
3163.00,0.0165
3162.00,0.0165
3161.00,0.0165
3160.00,0.0165
3159.00,0.0165
3158.00,0.0165
3157.00,0.0165
3156.00,0.0165
3155.00,0.0166
3154.00,0.0166
3153.00,0.0166
3152.00,0.0166
3151.00,0.0167
3150.00,0.0168
3149.00,0.0169
3148.00,0.0170
3147.00,0.0171
3146.00,0.0172
3145.00,0.0172
3144.00,0.0173
3143.00,0.0174
3142.00,0.0174
3141.00,0.0175
3140.00,0.0175
3139.00,0.0176
3138.00,0.0176
3137.00,0.0177
3136.00,0.0178
3135.00,0.0179
3134.00,0.0179
3133.00,0.0180
3132.00,0.0180
3131.00,0.0180
3130.00,0.0180
3129.00,0.0181
3128.00,0.0181
3127.00,0.0182
3126.00,0.0183
3125.00,0.0183
3124.00,0.0184
3123.00,0.0184
3122.00,0.0184
3121.00,0.0184
3120.00,0.0185
3119.00,0.0185
3118.00,0.0185
3117.00,0.0186
3116.00,0.0186
3115.00,0.0187
3114.00,0.0187
3113.00,0.0188
3112.00,0.0188
3111.00,0.0189
3110.00,0.0190
3109.00,0.0191
3108.00,0.0191
3107.00,0.0192
3106.00,0.0193
3105.00,0.0193
3104.00,0.0194
3103.00,0.0194
3102.00,0.0195
3101.00,0.0195
3100.00,0.0196
3099.00,0.0196
3098.00,0.0196
3097.00,0.0197
3096.00,0.0197
3095.00,0.0197
3094.00,0.0197
3093.00,0.0197
3092.00,0.0197
3091.00,0.0197
3090.00,0.0198
3089.00,0.0198
3088.00,0.0198
3087.00,0.0198
3086.00,0.0199
3085.00,0.0199
3084.00,0.0200
3083.00,0.0201
3082.00,0.0201
3081.00,0.0202
3080.00,0.0203
3079.00,0.0204
3078.00,0.0205
3077.00,0.0206
3076.00,0.0208
3075.00,0.0209
3074.00,0.0211
3073.00,0.0212
3072.00,0.0213
3071.00,0.0214
3070.00,0.0215
3069.00,0.0214
3068.00,0.0214
3067.00,0.0212
3066.00,0.0210
3065.00,0.0208
3064.00,0.0206
3063.00,0.0204
3062.00,0.0202
3061.00,0.0199
3060.00,0.0197
3059.00,0.0194
3058.00,0.0192
3057.00,0.0190
3056.00,0.0188
3055.00,0.0187
3054.00,0.0186
3053.00,0.0185
3052.00,0.0183
3051.00,0.0182
3050.00,0.0181
3049.00,0.0180
3048.00,0.0179
3047.00,0.0179
3046.00,0.0178
3045.00,0.0178
3044.00,0.0177
3043.00,0.0177
3042.00,0.0176
3041.00,0.0176
3040.00,0.0176
3039.00,0.0175
3038.00,0.0175
3037.00,0.0175
3036.00,0.0174
3035.00,0.0174
3034.00,0.0173
3033.00,0.0173
3032.00,0.0172
3031.00,0.0172
3030.00,0.0171
3029.00,0.0170
3028.00,0.0169
3027.00,0.0168
3026.00,0.0168
3025.00,0.0167
3024.00,0.0166
3023.00,0.0166
3022.00,0.0165
3021.00,0.0164
3020.00,0.0164
3019.00,0.0163
3018.00,0.0162
3017.00,0.0162
3016.00,0.0161
3015.00,0.0160
3014.00,0.0160
3013.00,0.0159
3012.00,0.0159
3011.00,0.0158
3010.00,0.0158
3009.00,0.0157
3008.00,0.0157
3007.00,0.0157
3006.00,0.0157
3005.00,0.0157
3004.00,0.0157
3003.00,0.0156
3002.00,0.0156
3001.00,0.0156
3000.00,0.0157
2999.00,0.0157
2998.00,0.0158
2997.00,0.0159
2996.00,0.0160
2995.00,0.0161
2994.00,0.0163
2993.00,0.0165
2992.00,0.0167
2991.00,0.0169
2990.00,0.0171
2989.00,0.0173
2988.00,0.0174
2987.00,0.0175
2986.00,0.0176
2985.00,0.0176
2984.00,0.0176
2983.00,0.0176
2982.00,0.0177
2981.00,0.0179
2980.00,0.0182
2979.00,0.0186
2978.00,0.0190
2977.00,0.0194
2976.00,0.0197
2975.00,0.0200
2974.00,0.0201
2973.00,0.0203
2972.00,0.0204
2971.00,0.0206
2970.00,0.0207
2969.00,0.0210
2968.00,0.0213
2967.00,0.0216
2966.00,0.0220
2965.00,0.0225
2964.00,0.0231
2963.00,0.0238
2962.00,0.0246
2961.00,0.0254
2960.00,0.0262
2959.00,0.0270
2958.00,0.0278
2957.00,0.0284
2956.00,0.0290
2955.00,0.0294
2954.00,0.0297
2953.00,0.0298
2952.00,0.0298
2951.00,0.0296
2950.00,0.0292
2949.00,0.0288
2948.00,0.0283
2947.00,0.0278
2946.00,0.0275
2945.00,0.0274
2944.00,0.0275
2943.00,0.0279
2942.00,0.0284
2941.00,0.0290
2940.00,0.0297
2939.00,0.0305
2938.00,0.0313
2937.00,0.0322
2936.00,0.0331
2935.00,0.0342
2934.00,0.0353
2933.00,0.0366
2932.00,0.0380
2931.00,0.0394
2930.00,0.0408
2929.00,0.0421
2928.00,0.0432
2927.00,0.0441
2926.00,0.0447
2925.00,0.0450
2924.00,0.0451
2923.00,0.0449
2922.00,0.0445
2921.00,0.0440
2920.00,0.0433
2919.00,0.0425
2918.00,0.0416
2917.00,0.0406
2916.00,0.0397
2915.00,0.0387
2914.00,0.0376
2913.00,0.0366
2912.00,0.0355
2911.00,0.0343
2910.00,0.0332
2909.00,0.0321
2908.00,0.0311
2907.00,0.0301
2906.00,0.0292
2905.00,0.0284
2904.00,0.0277
2903.00,0.0271
2902.00,0.0265
2901.00,0.0260
2900.00,0.0256
2899.00,0.0252
2898.00,0.0248
2897.00,0.0244
2896.00,0.0241
2895.00,0.0238
2894.00,0.0235
2893.00,0.0232
2892.00,0.0230
2891.00,0.0228
2890.00,0.0227
2889.00,0.0225
2888.00,0.0225
2887.00,0.0224
2886.00,0.0224
2885.00,0.0223
2884.00,0.0222
2883.00,0.0222
2882.00,0.0222
2881.00,0.0222
2880.00,0.0223
2879.00,0.0225
2878.00,0.0227
2877.00,0.0230
2876.00,0.0234
2875.00,0.0238
2874.00,0.0243
2873.00,0.0247
2872.00,0.0251
2871.00,0.0254
2870.00,0.0254
2869.00,0.0253
2868.00,0.0249
2867.00,0.0246
2866.00,0.0243
2865.00,0.0241
2864.00,0.0242
2863.00,0.0246
2862.00,0.0251
2861.00,0.0257
2860.00,0.0264
2859.00,0.0270
2858.00,0.0275
2857.00,0.0277
2856.00,0.0278
2855.00,0.0275
2854.00,0.0271
2853.00,0.0265
2852.00,0.0258
2851.00,0.0250
2850.00,0.0241
2849.00,0.0233
2848.00,0.0226
2847.00,0.0219
2846.00,0.0214
2845.00,0.0209
2844.00,0.0206
2843.00,0.0204
2842.00,0.0201
2841.00,0.0199
2840.00,0.0197
2839.00,0.0194
2838.00,0.0193
2837.00,0.0193
2836.00,0.0193
2835.00,0.0194
2834.00,0.0194
2833.00,0.0193
2832.00,0.0191
2831.00,0.0187
2830.00,0.0183
2829.00,0.0177
2828.00,0.0171
2827.00,0.0166
2826.00,0.0160
2825.00,0.0155
2824.00,0.0150
2823.00,0.0146
2822.00,0.0143
2821.00,0.0140
2820.00,0.0138
2819.00,0.0136
2818.00,0.0134
2817.00,0.0133
2816.00,0.0131
2815.00,0.0130
2814.00,0.0128
2813.00,0.0127
2812.00,0.0126
2811.00,0.0125
2810.00,0.0124
2809.00,0.0123
2808.00,0.0123
2807.00,0.0122
2806.00,0.0121
2805.00,0.0121
2804.00,0.0120
2803.00,0.0120
2802.00,0.0119
2801.00,0.0119
2800.00,0.0119
2799.00,0.0118
2798.00,0.0118
2797.00,0.0117
2796.00,0.0117
2795.00,0.0117
2794.00,0.0117
2793.00,0.0116
2792.00,0.0116
2791.00,0.0116
2790.00,0.0116
2789.00,0.0116
2788.00,0.0116
2787.00,0.0116
2786.00,0.0115
2785.00,0.0115
2784.00,0.0116
2783.00,0.0116
2782.00,0.0116
2781.00,0.0116
2780.00,0.0116
2779.00,0.0117
2778.00,0.0117
2777.00,0.0117
2776.00,0.0118
2775.00,0.0118
2774.00,0.0119
2773.00,0.0119
2772.00,0.0120
2771.00,0.0120
2770.00,0.0120
2769.00,0.0120
2768.00,0.0121
2767.00,0.0121
2766.00,0.0122
2765.00,0.0122
2764.00,0.0123
2763.00,0.0123
2762.00,0.0123
2761.00,0.0123
2760.00,0.0123
2759.00,0.0124
2758.00,0.0124
2757.00,0.0124
2756.00,0.0124
2755.00,0.0125
2754.00,0.0125
2753.00,0.0125
2752.00,0.0125
2751.00,0.0125
2750.00,0.0125
2749.00,0.0125
2748.00,0.0125
2747.00,0.0125
2746.00,0.0125
2745.00,0.0126
2744.00,0.0126
2743.00,0.0126
2742.00,0.0126
2741.00,0.0126
2740.00,0.0126
2739.00,0.0126
2738.00,0.0127
2737.00,0.0127
2736.00,0.0128
2735.00,0.0128
2734.00,0.0129
2733.00,0.0129
2732.00,0.0129
2731.00,0.0130
2730.00,0.0130
2729.00,0.0130
2728.00,0.0130
2727.00,0.0130
2726.00,0.0130
2725.00,0.0130
2724.00,0.0130
2723.00,0.0130
2722.00,0.0130
2721.00,0.0130
2720.00,0.0130
2719.00,0.0130
2718.00,0.0130
2717.00,0.0130
2716.00,0.0130
2715.00,0.0130
2714.00,0.0130
2713.00,0.0130
2712.00,0.0130
2711.00,0.0130
2710.00,0.0130
2709.00,0.0131
2708.00,0.0131
2707.00,0.0131
2706.00,0.0131
2705.00,0.0131
2704.00,0.0131
2703.00,0.0131
2702.00,0.0131
2701.00,0.0131
2700.00,0.0131
2699.00,0.0132
2698.00,0.0131
2697.00,0.0131
2696.00,0.0131
2695.00,0.0131
2694.00,0.0132
2693.00,0.0132
2692.00,0.0132
2691.00,0.0132
2690.00,0.0132
2689.00,0.0132
2688.00,0.0132
2687.00,0.0132
2686.00,0.0132
2685.00,0.0132
2684.00,0.0132
2683.00,0.0131
2682.00,0.0131
2681.00,0.0131
2680.00,0.0131
2679.00,0.0131
2678.00,0.0131
2677.00,0.0131
2676.00,0.0131
2675.00,0.0131
2674.00,0.0131
2673.00,0.0131
2672.00,0.0131
2671.00,0.0131
2670.00,0.0132
2669.00,0.0132
2668.00,0.0132
2667.00,0.0132
2666.00,0.0133
2665.00,0.0133
2664.00,0.0134
2663.00,0.0135
2662.00,0.0135
2661.00,0.0135
2660.00,0.0135
2659.00,0.0135
2658.00,0.0135
2657.00,0.0135
2656.00,0.0135
2655.00,0.0135
2654.00,0.0134
2653.00,0.0134
2652.00,0.0134
2651.00,0.0134
2650.00,0.0133
2649.00,0.0133
2648.00,0.0133
2647.00,0.0132
2646.00,0.0132
2645.00,0.0132
2644.00,0.0132
2643.00,0.0132
2642.00,0.0132
2641.00,0.0132
2640.00,0.0131
2639.00,0.0131
2638.00,0.0131
2637.00,0.0131
2636.00,0.0131
2635.00,0.0131
2634.00,0.0130
2633.00,0.0130
2632.00,0.0129
2631.00,0.0129
2630.00,0.0129
2629.00,0.0129
2628.00,0.0129
2627.00,0.0129
2626.00,0.0129
2625.00,0.0128
2624.00,0.0128
2623.00,0.0128
2622.00,0.0128
2621.00,0.0128
2620.00,0.0127
2619.00,0.0127
2618.00,0.0127
2617.00,0.0127
2616.00,0.0126
2615.00,0.0126
2614.00,0.0126
2613.00,0.0125
2612.00,0.0125
2611.00,0.0125
2610.00,0.0125
2609.00,0.0125
2608.00,0.0125
2607.00,0.0124
2606.00,0.0124
2605.00,0.0123
2604.00,0.0123
2603.00,0.0123
2602.00,0.0122
2601.00,0.0122
2600.00,0.0122
2599.00,0.0121
2598.00,0.0121
2597.00,0.0120
2596.00,0.0120
2595.00,0.0120
2594.00,0.0119
2593.00,0.0119
2592.00,0.0118
2591.00,0.0118
2590.00,0.0117
2589.00,0.0117
2588.00,0.0117
2587.00,0.0117
2586.00,0.0116
2585.00,0.0116
2584.00,0.0115
2583.00,0.0115
2582.00,0.0114
2581.00,0.0114
2580.00,0.0113
2579.00,0.0113
2578.00,0.0113
2577.00,0.0114
2576.00,0.0114
2575.00,0.0113
2574.00,0.0113
2573.00,0.0113
2572.00,0.0113
2571.00,0.0113
2570.00,0.0113
2569.00,0.0113
2568.00,0.0114
2567.00,0.0114
2566.00,0.0114
2565.00,0.0114
2564.00,0.0114
2563.00,0.0114
2562.00,0.0115
2561.00,0.0115
2560.00,0.0115
2559.00,0.0115
2558.00,0.0116
2557.00,0.0116
2556.00,0.0116
2555.00,0.0116
2554.00,0.0116
2553.00,0.0116
2552.00,0.0116
2551.00,0.0115
2550.00,0.0115
2549.00,0.0114
2548.00,0.0114
2547.00,0.0114
2546.00,0.0113
2545.00,0.0113
2544.00,0.0112
2543.00,0.0112
2542.00,0.0111
2541.00,0.0110
2540.00,0.0110
2539.00,0.0109
2538.00,0.0109
2537.00,0.0108
2536.00,0.0108
2535.00,0.0108
2534.00,0.0107
2533.00,0.0107
2532.00,0.0106
2531.00,0.0106
2530.00,0.0106
2529.00,0.0105
2528.00,0.0105
2527.00,0.0105
2526.00,0.0105
2525.00,0.0105
2524.00,0.0104
2523.00,0.0104
2522.00,0.0104
2521.00,0.0103
2520.00,0.0103
2519.00,0.0103
2518.00,0.0102
2517.00,0.0102
2516.00,0.0101
2515.00,0.0101
2514.00,0.0100
2513.00,0.0100
2512.00,0.0100
2511.00,0.0099
2510.00,0.0098
2509.00,0.0098
2508.00,0.0097
2507.00,0.0096
2506.00,0.0096
2505.00,0.0096
2504.00,0.0096
2503.00,0.0096
2502.00,0.0096
2501.00,0.0095
2500.00,0.0095
2499.00,0.0095
2498.00,0.0095
2497.00,0.0095
2496.00,0.0095
2495.00,0.0095
2494.00,0.0095
2493.00,0.0095
2492.00,0.0094
2491.00,0.0094
2490.00,0.0094
2489.00,0.0094
2488.00,0.0093
2487.00,0.0093
2486.00,0.0094
2485.00,0.0094
2484.00,0.0094
2483.00,0.0094
2482.00,0.0094
2481.00,0.0094
2480.00,0.0094
2479.00,0.0093
2478.00,0.0093
2477.00,0.0094
2476.00,0.0094
2475.00,0.0094
2474.00,0.0093
2473.00,0.0093
2472.00,0.0092
2471.00,0.0092
2470.00,0.0092
2469.00,0.0092
2468.00,0.0092
2467.00,0.0092
2466.00,0.0092
2465.00,0.0092
2464.00,0.0092
2463.00,0.0093
2462.00,0.0093
2461.00,0.0094
2460.00,0.0094
2459.00,0.0094
2458.00,0.0095
2457.00,0.0095
2456.00,0.0095
2455.00,0.0095
2454.00,0.0095
2453.00,0.0095
2452.00,0.0095
2451.00,0.0095
2450.00,0.0095
2449.00,0.0095
2448.00,0.0095
2447.00,0.0095
2446.00,0.0095
2445.00,0.0095
2444.00,0.0095
2443.00,0.0095
2442.00,0.0095
2441.00,0.0095
2440.00,0.0094
2439.00,0.0094
2438.00,0.0094
2437.00,0.0094
2436.00,0.0094
2435.00,0.0093
2434.00,0.0093
2433.00,0.0093
2432.00,0.0093
2431.00,0.0093
2430.00,0.0093
2429.00,0.0093
2428.00,0.0093
2427.00,0.0093
2426.00,0.0092
2425.00,0.0092
2424.00,0.0092
2423.00,0.0091
2422.00,0.0091
2421.00,0.0091
2420.00,0.0090
2419.00,0.0090
2418.00,0.0090
2417.00,0.0090
2416.00,0.0089
2415.00,0.0089
2414.00,0.0088
2413.00,0.0088
2412.00,0.0088
2411.00,0.0087
2410.00,0.0086
2409.00,0.0085
2408.00,0.0084
2407.00,0.0083
2406.00,0.0083
2405.00,0.0082
2404.00,0.0082
2403.00,0.0081
2402.00,0.0081
2401.00,0.0080
2400.00,0.0080
2399.00,0.0079
2398.00,0.0078
2397.00,0.0078
2396.00,0.0077
2395.00,0.0076
2394.00,0.0076
2393.00,0.0076
2392.00,0.0075
2391.00,0.0075
2390.00,0.0074
2389.00,0.0074
2388.00,0.0073
2387.00,0.0073
2386.00,0.0072
2385.00,0.0071
2384.00,0.0070
2383.00,0.0069
2382.00,0.0069
2381.00,0.0068
2380.00,0.0067
2379.00,0.0067
2378.00,0.0066
2377.00,0.0066
2376.00,0.0066
2375.00,0.0066
2374.00,0.0065
2373.00,0.0065
2372.00,0.0064
2371.00,0.0064
2370.00,0.0063
2369.00,0.0062
2368.00,0.0061
2367.00,0.0061
2366.00,0.0060
2365.00,0.0061
2364.00,0.0061
2363.00,0.0061
2362.00,0.0061
2361.00,0.0061
2360.00,0.0060
2359.00,0.0060
2358.00,0.0060
2357.00,0.0059
2356.00,0.0059
2355.00,0.0058
2354.00,0.0058
2353.00,0.0058
2352.00,0.0057
2351.00,0.0056
2350.00,0.0056
2349.00,0.0057
2348.00,0.0057
2347.00,0.0058
2346.00,0.0058
2345.00,0.0058
2344.00,0.0057
2343.00,0.0057
2342.00,0.0057
2341.00,0.0057
2340.00,0.0057
2339.00,0.0056
2338.00,0.0056
2337.00,0.0055
2336.00,0.0055
2335.00,0.0055
2334.00,0.0054
2333.00,0.0054
2332.00,0.0054
2331.00,0.0054
2330.00,0.0054
2329.00,0.0056
2328.00,0.0059
2327.00,0.0063
2326.00,0.0066
2325.00,0.0067
2324.00,0.0066
2323.00,0.0063
2322.00,0.0060
2321.00,0.0058
2320.00,0.0057
2319.00,0.0055
2318.00,0.0054
2317.00,0.0054
2316.00,0.0053
2315.00,0.0053
2314.00,0.0053
2313.00,0.0053
2312.00,0.0052
2311.00,0.0051
2310.00,0.0051
2309.00,0.0050
2308.00,0.0049
2307.00,0.0049
2306.00,0.0049
2305.00,0.0049
2304.00,0.0049
2303.00,0.0049
2302.00,0.0049
2301.00,0.0049
2300.00,0.0049
2299.00,0.0049
2298.00,0.0049
2297.00,0.0050
2296.00,0.0050
2295.00,0.0050
2294.00,0.0051
2293.00,0.0052
2292.00,0.0053
2291.00,0.0054
2290.00,0.0054
2289.00,0.0054
2288.00,0.0054
2287.00,0.0054
2286.00,0.0054
2285.00,0.0053
2284.00,0.0052
2283.00,0.0051
2282.00,0.0050
2281.00,0.0050
2280.00,0.0049
2279.00,0.0048
2278.00,0.0047
2277.00,0.0046
2276.00,0.0046
2275.00,0.0046
2274.00,0.0046
2273.00,0.0046
2272.00,0.0045
2271.00,0.0045
2270.00,0.0044
2269.00,0.0044
2268.00,0.0044
2267.00,0.0043
2266.00,0.0043
2265.00,0.0043
2264.00,0.0042
2263.00,0.0042
2262.00,0.0042
2261.00,0.0042
2260.00,0.0042
2259.00,0.0041
2258.00,0.0041
2257.00,0.0040
2256.00,0.0038
2255.00,0.0037
2254.00,0.0037
2253.00,0.0038
2252.00,0.0039
2251.00,0.0039
2250.00,0.0039
2249.00,0.0038
2248.00,0.0037
2247.00,0.0037
2246.00,0.0037
2245.00,0.0037
2244.00,0.0038
2243.00,0.0038
2242.00,0.0038
2241.00,0.0039
2240.00,0.0039
2239.00,0.0039
2238.00,0.0039
2237.00,0.0039
2236.00,0.0038
2235.00,0.0037
2234.00,0.0036
2233.00,0.0035
2232.00,0.0035
2231.00,0.0036
2230.00,0.0037
2229.00,0.0037
2228.00,0.0037
2227.00,0.0037
2226.00,0.0037
2225.00,0.0036
2224.00,0.0036
2223.00,0.0035
2222.00,0.0034
2221.00,0.0033
2220.00,0.0033
2219.00,0.0034
2218.00,0.0034
2217.00,0.0035
2216.00,0.0035
2215.00,0.0034
2214.00,0.0034
2213.00,0.0032
2212.00,0.0031
2211.00,0.0030
2210.00,0.0030
2209.00,0.0031
2208.00,0.0032
2207.00,0.0033
2206.00,0.0033
2205.00,0.0032
2204.00,0.0031
2203.00,0.0031
2202.00,0.0030
2201.00,0.0030
2200.00,0.0030
2199.00,0.0030
2198.00,0.0032
2197.00,0.0033
2196.00,0.0034
2195.00,0.0035
2194.00,0.0035
2193.00,0.0036
2192.00,0.0036
2191.00,0.0037
2190.00,0.0037
2189.00,0.0037
2188.00,0.0036
2187.00,0.0035
2186.00,0.0034
2185.00,0.0032
2184.00,0.0030
2183.00,0.0028
2182.00,0.0027
2181.00,0.0028
2180.00,0.0030
2179.00,0.0030
2178.00,0.0028
2177.00,0.0027
2176.00,0.0027
2175.00,0.0027
2174.00,0.0028
2173.00,0.0030
2172.00,0.0031
2171.00,0.0032
2170.00,0.0034
2169.00,0.0037
2168.00,0.0039
2167.00,0.0041
2166.00,0.0042
2165.00,0.0043
2164.00,0.0045
2163.00,0.0045
2162.00,0.0039
2161.00,0.0026
2160.00,0.0009
2159.00,-0.0004
2158.00,-0.0011
2157.00,-0.0010
2156.00,-0.0008
2155.00,-0.0005
2154.00,-0.0003
2153.00,-0.0001
2152.00,0.0002
2151.00,0.0005
2150.00,0.0006
2149.00,0.0007
2148.00,0.0006
2147.00,0.0005
2146.00,0.0005
2145.00,0.0005
2144.00,0.0007
2143.00,0.0008
2142.00,0.0009
2141.00,0.0009
2140.00,0.0009
2139.00,0.0007
2138.00,0.0005
2137.00,0.0003
2136.00,0.0000
2135.00,-0.0001
2134.00,-0.0002
2133.00,-0.0000
2132.00,0.0002
2131.00,0.0003
2130.00,0.0004
2129.00,0.0005
2128.00,0.0006
2127.00,0.0008
2126.00,0.0009
2125.00,0.0011
2124.00,0.0012
2123.00,0.0013
2122.00,0.0014
2121.00,0.0015
2120.00,0.0016
2119.00,0.0017
2118.00,0.0018
2117.00,0.0019
2116.00,0.0021
2115.00,0.0021
2114.00,0.0021
2113.00,0.0021
2112.00,0.0020
2111.00,0.0019
2110.00,0.0018
2109.00,0.0018
2108.00,0.0018
2107.00,0.0019
2106.00,0.0019
2105.00,0.0020
2104.00,0.0020
2103.00,0.0019
2102.00,0.0019
2101.00,0.0018
2100.00,0.0018
2099.00,0.0018
2098.00,0.0017
2097.00,0.0015
2096.00,0.0014
2095.00,0.0013
2094.00,0.0013
2093.00,0.0014
2092.00,0.0016
2091.00,0.0017
2090.00,0.0018
2089.00,0.0018
2088.00,0.0018
2087.00,0.0018
2086.00,0.0018
2085.00,0.0018
2084.00,0.0019
2083.00,0.0019
2082.00,0.0020
2081.00,0.0021
2080.00,0.0022
2079.00,0.0021
2078.00,0.0020
2077.00,0.0020
2076.00,0.0019
2075.00,0.0019
2074.00,0.0019
2073.00,0.0018
2072.00,0.0018
2071.00,0.0018
2070.00,0.0018
2069.00,0.0018
2068.00,0.0017
2067.00,0.0017
2066.00,0.0016
2065.00,0.0015
2064.00,0.0015
2063.00,0.0014
2062.00,0.0014
2061.00,0.0015
2060.00,0.0016
2059.00,0.0017
2058.00,0.0017
2057.00,0.0016
2056.00,0.0016
2055.00,0.0016
2054.00,0.0019
2053.00,0.0023
2052.00,0.0027
2051.00,0.0028
2050.00,0.0026
2049.00,0.0022
2048.00,0.0020
2047.00,0.0020
2046.00,0.0020
2045.00,0.0021
2044.00,0.0022
2043.00,0.0022
2042.00,0.0022
2041.00,0.0023
2040.00,0.0022
2039.00,0.0021
2038.00,0.0020
2037.00,0.0019
2036.00,0.0019
2035.00,0.0018
2034.00,0.0017
2033.00,0.0014
2032.00,0.0013
2031.00,0.0012
2030.00,0.0011
2029.00,0.0012
2028.00,0.0012
2027.00,0.0012
2026.00,0.0012
2025.00,0.0012
2024.00,0.0013
2023.00,0.0012
2022.00,0.0011
2021.00,0.0010
2020.00,0.0011
2019.00,0.0011
2018.00,0.0012
2017.00,0.0012
2016.00,0.0013
2015.00,0.0014
2014.00,0.0015
2013.00,0.0015
2012.00,0.0016
2011.00,0.0016
2010.00,0.0014
2009.00,0.0011
2008.00,0.0008
2007.00,0.0005
2006.00,0.0002
2005.00,0.0002
2004.00,0.0004
2003.00,0.0007
2002.00,0.0009
2001.00,0.0011
2000.00,0.0012
1999.00,0.0011
1998.00,0.0010
1997.00,0.0010
1996.00,0.0011
1995.00,0.0012
1994.00,0.0014
1993.00,0.0015
1992.00,0.0016
1991.00,0.0016
1990.00,0.0017
1989.00,0.0017
1988.00,0.0017
1987.00,0.0017
1986.00,0.0017
1985.00,0.0019
1984.00,0.0021
1983.00,0.0024
1982.00,0.0027
1981.00,0.0028
1980.00,0.0026
1979.00,0.0020
1978.00,0.0012
1977.00,0.0007
1976.00,0.0004
1975.00,0.0004
1974.00,0.0003
1973.00,0.0003
1972.00,0.0004
1971.00,0.0004
1970.00,0.0003
1969.00,0.0003
1968.00,0.0003
1967.00,0.0003
1966.00,0.0004
1965.00,0.0005
1964.00,0.0006
1963.00,0.0006
1962.00,0.0004
1961.00,0.0003
1960.00,0.0002
1959.00,0.0003
1958.00,0.0004
1957.00,0.0005
1956.00,0.0006
1955.00,0.0007
1954.00,0.0008
1953.00,0.0009
1952.00,0.0010
1951.00,0.0010
1950.00,0.0009
1949.00,0.0009
1948.00,0.0009
1947.00,0.0009
1946.00,0.0009
1945.00,0.0009
1944.00,0.0008
1943.00,0.0008
1942.00,0.0007
1941.00,0.0008
1940.00,0.0008
1939.00,0.0008
1938.00,0.0008
1937.00,0.0008
1936.00,0.0009
1935.00,0.0009
1934.00,0.0009
1933.00,0.0009
1932.00,0.0009
1931.00,0.0008
1930.00,0.0008
1929.00,0.0008
1928.00,0.0009
1927.00,0.0009
1926.00,0.0009
1925.00,0.0009
1924.00,0.0010
1923.00,0.0011
1922.00,0.0011
1921.00,0.0012
1920.00,0.0012
1919.00,0.0012
1918.00,0.0012
1917.00,0.0012
1916.00,0.0012
1915.00,0.0012
1914.00,0.0012
1913.00,0.0012
1912.00,0.0013
1911.00,0.0013
1910.00,0.0012
1909.00,0.0012
1908.00,0.0012
1907.00,0.0012
1906.00,0.0012
1905.00,0.0012
1904.00,0.0012
1903.00,0.0012
1902.00,0.0012
1901.00,0.0011
1900.00,0.0011
1899.00,0.0011
1898.00,0.0011
1897.00,0.0011
1896.00,0.0011
1895.00,0.0011
1894.00,0.0011
1893.00,0.0011
1892.00,0.0011
1891.00,0.0011
1890.00,0.0011
1889.00,0.0012
1888.00,0.0012
1887.00,0.0012
1886.00,0.0012
1885.00,0.0012
1884.00,0.0012
1883.00,0.0013
1882.00,0.0013
1881.00,0.0013
1880.00,0.0013
1879.00,0.0012
1878.00,0.0012
1877.00,0.0012
1876.00,0.0012
1875.00,0.0012
1874.00,0.0012
1873.00,0.0013
1872.00,0.0014
1871.00,0.0014
1870.00,0.0014
1869.00,0.0014
1868.00,0.0014
1867.00,0.0014
1866.00,0.0014
1865.00,0.0014
1864.00,0.0014
1863.00,0.0013
1862.00,0.0013
1861.00,0.0013
1860.00,0.0014
1859.00,0.0014
1858.00,0.0014
1857.00,0.0014
1856.00,0.0014
1855.00,0.0014
1854.00,0.0014
1853.00,0.0014
1852.00,0.0014
1851.00,0.0014
1850.00,0.0014
1849.00,0.0014
1848.00,0.0014
1847.00,0.0014
1846.00,0.0014
1845.00,0.0014
1844.00,0.0014
1843.00,0.0015
1842.00,0.0014
1841.00,0.0014
1840.00,0.0014
1839.00,0.0015
1838.00,0.0015
1837.00,0.0015
1836.00,0.0015
1835.00,0.0014
1834.00,0.0014
1833.00,0.0014
1832.00,0.0014
1831.00,0.0014
1830.00,0.0014
1829.00,0.0014
1828.00,0.0014
1827.00,0.0014
1826.00,0.0014
1825.00,0.0015
1824.00,0.0015
1823.00,0.0015
1822.00,0.0015
1821.00,0.0014
1820.00,0.0014
1819.00,0.0013
1818.00,0.0012
1817.00,0.0012
1816.00,0.0012
1815.00,0.0012
1814.00,0.0013
1813.00,0.0013
1812.00,0.0014
1811.00,0.0015
1810.00,0.0015
1809.00,0.0016
1808.00,0.0016
1807.00,0.0016
1806.00,0.0016
1805.00,0.0017
1804.00,0.0017
1803.00,0.0018
1802.00,0.0018
1801.00,0.0018
1800.00,0.0018
1799.00,0.0018
1798.00,0.0018
1797.00,0.0018
1796.00,0.0019
1795.00,0.0019
1794.00,0.0020
1793.00,0.0020
1792.00,0.0021
1791.00,0.0022
1790.00,0.0022
1789.00,0.0022
1788.00,0.0023
1787.00,0.0024
1786.00,0.0024
1785.00,0.0025
1784.00,0.0025
1783.00,0.0025
1782.00,0.0025
1781.00,0.0025
1780.00,0.0025
1779.00,0.0024
1778.00,0.0024
1777.00,0.0024
1776.00,0.0025
1775.00,0.0025
1774.00,0.0025
1773.00,0.0025
1772.00,0.0025
1771.00,0.0025
1770.00,0.0025
1769.00,0.0025
1768.00,0.0025
1767.00,0.0024
1766.00,0.0024
1765.00,0.0024
1764.00,0.0024
1763.00,0.0024
1762.00,0.0024
1761.00,0.0024
1760.00,0.0024
1759.00,0.0024
1758.00,0.0024
1757.00,0.0024
1756.00,0.0024
1755.00,0.0023
1754.00,0.0023
1753.00,0.0023
1752.00,0.0024
1751.00,0.0024
1750.00,0.0025
1749.00,0.0025
1748.00,0.0025
1747.00,0.0025
1746.00,0.0025
1745.00,0.0026
1744.00,0.0026
1743.00,0.0026
1742.00,0.0026
1741.00,0.0026
1740.00,0.0026
1739.00,0.0026
1738.00,0.0026
1737.00,0.0026
1736.00,0.0027
1735.00,0.0027
1734.00,0.0027
1733.00,0.0028
1732.00,0.0028
1731.00,0.0028
1730.00,0.0029
1729.00,0.0029
1728.00,0.0030
1727.00,0.0030
1726.00,0.0030
1725.00,0.0030
1724.00,0.0031
1723.00,0.0031
1722.00,0.0032
1721.00,0.0032
1720.00,0.0032
1719.00,0.0033
1718.00,0.0033
1717.00,0.0033
1716.00,0.0034
1715.00,0.0034
1714.00,0.0034
1713.00,0.0035
1712.00,0.0035
1711.00,0.0035
1710.00,0.0035
1709.00,0.0036
1708.00,0.0036
1707.00,0.0036
1706.00,0.0037
1705.00,0.0037
1704.00,0.0038
1703.00,0.0038
1702.00,0.0038
1701.00,0.0038
1700.00,0.0038
1699.00,0.0039
1698.00,0.0038
1697.00,0.0039
1696.00,0.0039
1695.00,0.0040
1694.00,0.0040
1693.00,0.0040
1692.00,0.0041
1691.00,0.0041
1690.00,0.0042
1689.00,0.0043
1688.00,0.0043
1687.00,0.0044
1686.00,0.0044
1685.00,0.0045
1684.00,0.0046
1683.00,0.0048
1682.00,0.0049
1681.00,0.0050
1680.00,0.0051
1679.00,0.0052
1678.00,0.0053
1677.00,0.0055
1676.00,0.0056
1675.00,0.0058
1674.00,0.0060
1673.00,0.0061
1672.00,0.0064
1671.00,0.0066
1670.00,0.0069
1669.00,0.0073
1668.00,0.0076
1667.00,0.0080
1666.00,0.0083
1665.00,0.0087
1664.00,0.0091
1663.00,0.0096
1662.00,0.0101
1661.00,0.0106
1660.00,0.0112
1659.00,0.0118
1658.00,0.0124
1657.00,0.0132
1656.00,0.0141
1655.00,0.0150
1654.00,0.0159
1653.00,0.0171
1652.00,0.0184
1651.00,0.0199
1650.00,0.0214
1649.00,0.0231
1648.00,0.0252
1647.00,0.0278
1646.00,0.0308
1645.00,0.0340
1644.00,0.0374
1643.00,0.0408
1642.00,0.0440
1641.00,0.0471
1640.00,0.0500
1639.00,0.0527
1638.00,0.0553
1637.00,0.0578
1636.00,0.0599
1635.00,0.0617
1634.00,0.0632
1633.00,0.0646
1632.00,0.0655
1631.00,0.0657
1630.00,0.0649
1629.00,0.0631
1628.00,0.0605
1627.00,0.0576
1626.00,0.0548
1625.00,0.0520
1624.00,0.0489
1623.00,0.0456
1622.00,0.0426
1621.00,0.0404
1620.00,0.0388
1619.00,0.0374
1618.00,0.0356
1617.00,0.0335
1616.00,0.0315
1615.00,0.0300
1614.00,0.0290
1613.00,0.0283
1612.00,0.0276
1611.00,0.0268
1610.00,0.0261
1609.00,0.0255
1608.00,0.0250
1607.00,0.0246
1606.00,0.0243
1605.00,0.0242
1604.00,0.0241
1603.00,0.0242
1602.00,0.0243
1601.00,0.0247
1600.00,0.0252
1599.00,0.0259
1598.00,0.0267
1597.00,0.0279
1596.00,0.0295
1595.00,0.0313
1594.00,0.0336
1593.00,0.0363
1592.00,0.0393
1591.00,0.0426
1590.00,0.0459
1589.00,0.0491
1588.00,0.0522
1587.00,0.0550
1586.00,0.0574
1585.00,0.0597
1584.00,0.0618
1583.00,0.0637
1582.00,0.0654
1581.00,0.0671
1580.00,0.0687
1579.00,0.0702
1578.00,0.0712
1577.00,0.0714
1576.00,0.0708
1575.00,0.0702
1574.00,0.0701
1573.00,0.0704
1572.00,0.0707
1571.00,0.0702
1570.00,0.0686
1569.00,0.0667
1568.00,0.0652
1567.00,0.0640
1566.00,0.0628
1565.00,0.0613
1564.00,0.0597
1563.00,0.0585
1562.00,0.0576
1561.00,0.0565
1560.00,0.0541
1559.00,0.0498
1558.00,0.0457
1557.00,0.0434
1556.00,0.0422
1555.00,0.0409
1554.00,0.0392
1553.00,0.0376
1552.00,0.0362
1551.00,0.0349
1550.00,0.0335
1549.00,0.0321
1548.00,0.0310
1547.00,0.0301
1546.00,0.0292
1545.00,0.0283
1544.00,0.0275
1543.00,0.0268
1542.00,0.0260
1541.00,0.0251
1540.00,0.0240
1539.00,0.0230
1538.00,0.0225
1537.00,0.0225
1536.00,0.0225
1535.00,0.0226
1534.00,0.0224
1533.00,0.0223
1532.00,0.0224
1531.00,0.0227
1530.00,0.0232
1529.00,0.0238
1528.00,0.0244
1527.00,0.0250
1526.00,0.0254
1525.00,0.0257
1524.00,0.0257
1523.00,0.0255
1522.00,0.0248
1521.00,0.0237
1520.00,0.0226
1519.00,0.0217
1518.00,0.0207
1517.00,0.0195
1516.00,0.0184
1515.00,0.0175
1514.00,0.0168
1513.00,0.0163
1512.00,0.0158
1511.00,0.0155
1510.00,0.0152
1509.00,0.0150
1508.00,0.0146
1507.00,0.0141
1506.00,0.0135
1505.00,0.0130
1504.00,0.0128
1503.00,0.0127
1502.00,0.0126
1501.00,0.0124
1500.00,0.0123
1499.00,0.0121
1498.00,0.0119
1497.00,0.0116
1496.00,0.0114
1495.00,0.0113
1494.00,0.0111
1493.00,0.0111
1492.00,0.0111
1491.00,0.0111
1490.00,0.0111
1489.00,0.0111
1488.00,0.0111
1487.00,0.0111
1486.00,0.0111
1485.00,0.0113
1484.00,0.0115
1483.00,0.0117
1482.00,0.0120
1481.00,0.0124
1480.00,0.0129
1479.00,0.0135
1478.00,0.0141
1477.00,0.0148
1476.00,0.0155
1475.00,0.0162
1474.00,0.0170
1473.00,0.0180
1472.00,0.0194
1471.00,0.0211
1470.00,0.0227
1469.00,0.0240
1468.00,0.0250
1467.00,0.0254
1466.00,0.0252
1465.00,0.0248
1464.00,0.0247
1463.00,0.0253
1462.00,0.0264
1461.00,0.0280
1460.00,0.0300
1459.00,0.0323
1458.00,0.0347
1457.00,0.0374
1456.00,0.0401
1455.00,0.0429
1454.00,0.0458
1453.00,0.0490
1452.00,0.0526
1451.00,0.0563
1450.00,0.0598
1449.00,0.0631
1448.00,0.0659
1447.00,0.0681
1446.00,0.0699
1445.00,0.0713
1444.00,0.0721
1443.00,0.0720
1442.00,0.0712
1441.00,0.0697
1440.00,0.0680
1439.00,0.0660
1438.00,0.0635
1437.00,0.0604
1436.00,0.0572
1435.00,0.0548
1434.00,0.0532
1433.00,0.0518
1432.00,0.0502
1431.00,0.0481
1430.00,0.0458
1429.00,0.0435
1428.00,0.0414
1427.00,0.0397
1426.00,0.0382
1425.00,0.0369
1424.00,0.0356
1423.00,0.0345
1422.00,0.0339
1421.00,0.0334
1420.00,0.0330
1419.00,0.0324
1418.00,0.0321
1417.00,0.0319
1416.00,0.0320
1415.00,0.0321
1414.00,0.0322
1413.00,0.0323
1412.00,0.0325
1411.00,0.0327
1410.00,0.0329
1409.00,0.0332
1408.00,0.0335
1407.00,0.0338
1406.00,0.0341
1405.00,0.0344
1404.00,0.0346
1403.00,0.0348
1402.00,0.0351
1401.00,0.0353
1400.00,0.0353
1399.00,0.0352
1398.00,0.0350
1397.00,0.0348
1396.00,0.0344
1395.00,0.0339
1394.00,0.0332
1393.00,0.0325
1392.00,0.0320
1391.00,0.0315
1390.00,0.0311
1389.00,0.0307
1388.00,0.0302
1387.00,0.0298
1386.00,0.0295
1385.00,0.0295
1384.00,0.0300
1383.00,0.0309
1382.00,0.0323
1381.00,0.0341
1380.00,0.0361
1379.00,0.0380
1378.00,0.0394
1377.00,0.0401
1376.00,0.0401
1375.00,0.0394
1374.00,0.0380
1373.00,0.0367
1372.00,0.0357
1371.00,0.0353
1370.00,0.0355
1369.00,0.0360
1368.00,0.0365
1367.00,0.0369
1366.00,0.0369
1365.00,0.0366
1364.00,0.0360
1363.00,0.0352
1362.00,0.0346
1361.00,0.0342
1360.00,0.0340
1359.00,0.0342
1358.00,0.0347
1357.00,0.0355
1356.00,0.0367
1355.00,0.0381
1354.00,0.0396
1353.00,0.0412
1352.00,0.0426
1351.00,0.0437
1350.00,0.0444
1349.00,0.0446
1348.00,0.0442
1347.00,0.0434
1346.00,0.0422
1345.00,0.0410
1344.00,0.0399
1343.00,0.0391
1342.00,0.0386
1341.00,0.0384
1340.00,0.0386
1339.00,0.0391
1338.00,0.0398
1337.00,0.0405
1336.00,0.0409
1335.00,0.0410
1334.00,0.0405
1333.00,0.0395
1332.00,0.0383
1331.00,0.0372
1330.00,0.0364
1329.00,0.0362
1328.00,0.0366
1327.00,0.0376
1326.00,0.0391
1325.00,0.0411
1324.00,0.0435
1323.00,0.0463
1322.00,0.0491
1321.00,0.0517
1320.00,0.0537
1319.00,0.0548
1318.00,0.0545
1317.00,0.0531
1316.00,0.0508
1315.00,0.0480
1314.00,0.0450
1313.00,0.0423
1312.00,0.0400
1311.00,0.0382
1310.00,0.0369
1309.00,0.0363
1308.00,0.0363
1307.00,0.0366
1306.00,0.0370
1305.00,0.0373
1304.00,0.0371
1303.00,0.0364
1302.00,0.0355
1301.00,0.0345
1300.00,0.0337
1299.00,0.0332
1298.00,0.0330
1297.00,0.0330
1296.00,0.0332
1295.00,0.0334
1294.00,0.0338
1293.00,0.0344
1292.00,0.0353
1291.00,0.0366
1290.00,0.0381
1289.00,0.0397
1288.00,0.0413
1287.00,0.0427
1286.00,0.0440
1285.00,0.0454
1284.00,0.0470
1283.00,0.0486
1282.00,0.0500
1281.00,0.0510
1280.00,0.0512
1279.00,0.0505
1278.00,0.0488
1277.00,0.0464
1276.00,0.0436
1275.00,0.0406
1274.00,0.0377
1273.00,0.0350
1272.00,0.0326
1271.00,0.0304
1270.00,0.0286
1269.00,0.0270
1268.00,0.0255
1267.00,0.0243
1266.00,0.0232
1265.00,0.0223
1264.00,0.0215
1263.00,0.0210
1262.00,0.0206
1261.00,0.0204
1260.00,0.0204
1259.00,0.0208
1258.00,0.0215
1257.00,0.0226
1256.00,0.0240
1255.00,0.0258
1254.00,0.0275
1253.00,0.0291
1252.00,0.0302
1251.00,0.0311
1250.00,0.0319
1249.00,0.0331
1248.00,0.0347
1247.00,0.0369
1246.00,0.0391
1245.00,0.0410
1244.00,0.0421
1243.00,0.0422
1242.00,0.0412
1241.00,0.0393
1240.00,0.0369
1239.00,0.0343
1238.00,0.0318
1237.00,0.0296
1236.00,0.0278
1235.00,0.0264
1234.00,0.0255
1233.00,0.0252
1232.00,0.0255
1231.00,0.0263
1230.00,0.0272
1229.00,0.0281
1228.00,0.0284
1227.00,0.0281
1226.00,0.0273
1225.00,0.0262
1224.00,0.0253
1223.00,0.0247
1222.00,0.0246
1221.00,0.0250
1220.00,0.0256
1219.00,0.0260
1218.00,0.0261
1217.00,0.0256
1216.00,0.0247
1215.00,0.0237
1214.00,0.0229
1213.00,0.0227
1212.00,0.0232
1211.00,0.0246
1210.00,0.0271
1209.00,0.0306
1208.00,0.0347
1207.00,0.0387
1206.00,0.0416
1205.00,0.0427
1204.00,0.0417
1203.00,0.0392
1202.00,0.0358
1201.00,0.0321
1200.00,0.0287
1199.00,0.0257
1198.00,0.0232
1197.00,0.0213
1196.00,0.0199
1195.00,0.0190
1194.00,0.0184
1193.00,0.0182
1192.00,0.0183
1191.00,0.0185
1190.00,0.0188
1189.00,0.0189
1188.00,0.0189
1187.00,0.0188
1186.00,0.0186
1185.00,0.0183
1184.00,0.0182
1183.00,0.0181
1182.00,0.0183
1181.00,0.0189
1180.00,0.0200
1179.00,0.0217
1178.00,0.0240
1177.00,0.0266
1176.00,0.0296
1175.00,0.0327
1174.00,0.0356
1173.00,0.0383
1172.00,0.0401
1171.00,0.0406
1170.00,0.0396
1169.00,0.0375
1168.00,0.0346
1167.00,0.0315
1166.00,0.0285
1165.00,0.0258
1164.00,0.0237
1163.00,0.0219
1162.00,0.0205
1161.00,0.0195
1160.00,0.0188
1159.00,0.0183
1158.00,0.0181
1157.00,0.0180
1156.00,0.0182
1155.00,0.0188
1154.00,0.0198
1153.00,0.0217
1152.00,0.0245
1151.00,0.0281
1150.00,0.0317
1149.00,0.0342
1148.00,0.0345
1147.00,0.0324
1146.00,0.0285
1145.00,0.0240
1144.00,0.0201
1143.00,0.0170
1142.00,0.0150
1141.00,0.0137
1140.00,0.0129
1139.00,0.0125
1138.00,0.0123
1137.00,0.0121
1136.00,0.0120
1135.00,0.0117
1134.00,0.0114
1133.00,0.0109
1132.00,0.0105
1131.00,0.0100
1130.00,0.0095
1129.00,0.0090
1128.00,0.0087
1127.00,0.0084
1126.00,0.0081
1125.00,0.0079
1124.00,0.0078
1123.00,0.0077
1122.00,0.0076
1121.00,0.0075
1120.00,0.0075
1119.00,0.0075
1118.00,0.0075
1117.00,0.0076
1116.00,0.0077
1115.00,0.0078
1114.00,0.0080
1113.00,0.0082
1112.00,0.0085
1111.00,0.0089
1110.00,0.0093
1109.00,0.0098
1108.00,0.0103
1107.00,0.0108
1106.00,0.0114
1105.00,0.0120
1104.00,0.0127
1103.00,0.0135
1102.00,0.0142
1101.00,0.0149
1100.00,0.0153
1099.00,0.0154
1098.00,0.0150
1097.00,0.0144
1096.00,0.0137
1095.00,0.0129
1094.00,0.0123
1093.00,0.0117
1092.00,0.0113
1091.00,0.0109
1090.00,0.0105
1089.00,0.0103
1088.00,0.0102
1087.00,0.0102
1086.00,0.0104
1085.00,0.0105
1084.00,0.0108
1083.00,0.0109
1082.00,0.0110
1081.00,0.0111
1080.00,0.0110
1079.00,0.0109
1078.00,0.0106
1077.00,0.0102
1076.00,0.0098
1075.00,0.0095
1074.00,0.0093
1073.00,0.0091
1072.00,0.0090
1071.00,0.0090
1070.00,0.0091
1069.00,0.0093
1068.00,0.0096
1067.00,0.0102
1066.00,0.0108
1065.00,0.0117
1064.00,0.0128
1063.00,0.0142
1062.00,0.0158
1061.00,0.0179
1060.00,0.0204
1059.00,0.0233
1058.00,0.0268
1057.00,0.0308
1056.00,0.0350
1055.00,0.0387
1054.00,0.0409
1053.00,0.0411
1052.00,0.0393
1051.00,0.0360
1050.00,0.0323
1049.00,0.0289
1048.00,0.0265
1047.00,0.0250
1046.00,0.0244
1045.00,0.0245
1044.00,0.0251
1043.00,0.0261
1042.00,0.0275
1041.00,0.0294
1040.00,0.0317
1039.00,0.0346
1038.00,0.0380
1037.00,0.0417
1036.00,0.0455
1035.00,0.0489
1034.00,0.0515
1033.00,0.0531
1032.00,0.0536
1031.00,0.0529
1030.00,0.0511
1029.00,0.0484
1028.00,0.0449
1027.00,0.0410
1026.00,0.0371
1025.00,0.0335
1024.00,0.0304
1023.00,0.0279
1022.00,0.0259
1021.00,0.0243
1020.00,0.0231
1019.00,0.0219
1018.00,0.0208
1017.00,0.0198
1016.00,0.0189
1015.00,0.0182
1014.00,0.0175
1013.00,0.0170
1012.00,0.0166
1011.00,0.0163
1010.00,0.0159
1009.00,0.0155
1008.00,0.0151
1007.00,0.0146
1006.00,0.0141
1005.00,0.0139
1004.00,0.0140
1003.00,0.0146
1002.00,0.0157
1001.00,0.0171
1000.00,0.0185
999.00,0.0193
998.00,0.0192
997.00,0.0183
996.00,0.0169
995.00,0.0155
994.00,0.0144
993.00,0.0137
992.00,0.0134
991.00,0.0134
990.00,0.0135
989.00,0.0136
988.00,0.0138
987.00,0.0140
986.00,0.0141
985.00,0.0141
984.00,0.0139
983.00,0.0135
982.00,0.0130
981.00,0.0124
980.00,0.0119
979.00,0.0115
978.00,0.0111
977.00,0.0108
976.00,0.0106
975.00,0.0105
974.00,0.0105
973.00,0.0106
972.00,0.0108
971.00,0.0110
970.00,0.0112
969.00,0.0114
968.00,0.0116
967.00,0.0119
966.00,0.0123
965.00,0.0129
964.00,0.0139
963.00,0.0150
962.00,0.0161
961.00,0.0170
960.00,0.0176
959.00,0.0178
958.00,0.0178
957.00,0.0175
956.00,0.0172
955.00,0.0167
954.00,0.0163
953.00,0.0159
952.00,0.0156
951.00,0.0154
950.00,0.0152
949.00,0.0151
948.00,0.0150
947.00,0.0149
946.00,0.0149
945.00,0.0151
944.00,0.0153
943.00,0.0155
942.00,0.0156
941.00,0.0155
940.00,0.0153
939.00,0.0149
938.00,0.0144
937.00,0.0139
936.00,0.0135
935.00,0.0132
934.00,0.0131
933.00,0.0131
932.00,0.0133
931.00,0.0137
930.00,0.0141
929.00,0.0146
928.00,0.0151
927.00,0.0156
926.00,0.0160
925.00,0.0163
924.00,0.0167
923.00,0.0172
922.00,0.0177
921.00,0.0185
920.00,0.0195
919.00,0.0204
918.00,0.0213
917.00,0.0220
916.00,0.0227
915.00,0.0232
914.00,0.0234
913.00,0.0230
912.00,0.0222
911.00,0.0212
910.00,0.0201
909.00,0.0194
908.00,0.0191
907.00,0.0194
906.00,0.0201
905.00,0.0213
904.00,0.0226
903.00,0.0238
902.00,0.0245
901.00,0.0248
900.00,0.0245
899.00,0.0239
898.00,0.0232
897.00,0.0228
896.00,0.0230
895.00,0.0242
894.00,0.0267
893.00,0.0311
892.00,0.0372
891.00,0.0438
890.00,0.0489
889.00,0.0512
888.00,0.0507
887.00,0.0492
886.00,0.0482
885.00,0.0480
884.00,0.0477
883.00,0.0459
882.00,0.0426
881.00,0.0385
880.00,0.0348
879.00,0.0319
878.00,0.0297
877.00,0.0282
876.00,0.0272
875.00,0.0265
874.00,0.0259
873.00,0.0256
872.00,0.0256
871.00,0.0258
870.00,0.0261
869.00,0.0267
868.00,0.0277
867.00,0.0292
866.00,0.0314
865.00,0.0344
864.00,0.0380
863.00,0.0415
862.00,0.0444
861.00,0.0462
860.00,0.0469
859.00,0.0469
858.00,0.0466
857.00,0.0465
856.00,0.0462
855.00,0.0454
854.00,0.0440
853.00,0.0422
852.00,0.0402
851.00,0.0386
850.00,0.0374
849.00,0.0367
848.00,0.0367
847.00,0.0369
846.00,0.0375
845.00,0.0382
844.00,0.0389
843.00,0.0393
842.00,0.0394
841.00,0.0394
840.00,0.0395
839.00,0.0396
838.00,0.0391
837.00,0.0380
836.00,0.0363
835.00,0.0342
834.00,0.0322
833.00,0.0307
832.00,0.0298
831.00,0.0294
830.00,0.0294
829.00,0.0296
828.00,0.0295
827.00,0.0289
826.00,0.0275
825.00,0.0258
824.00,0.0240
823.00,0.0225
822.00,0.0212
821.00,0.0202
820.00,0.0195
819.00,0.0189
818.00,0.0183
817.00,0.0179
816.00,0.0177
815.00,0.0176
814.00,0.0177
813.00,0.0180
812.00,0.0184
811.00,0.0189
810.00,0.0196
809.00,0.0207
808.00,0.0225
807.00,0.0247
806.00,0.0272
805.00,0.0294
804.00,0.0308
803.00,0.0310
802.00,0.0303
801.00,0.0294
800.00,0.0289
799.00,0.0291
798.00,0.0298
797.00,0.0308
796.00,0.0319
795.00,0.0326
794.00,0.0324
793.00,0.0313
792.00,0.0297
791.00,0.0277
790.00,0.0258
789.00,0.0242
788.00,0.0231
787.00,0.0223
786.00,0.0217
785.00,0.0212
784.00,0.0208
783.00,0.0205
782.00,0.0202
781.00,0.0199
780.00,0.0199
779.00,0.0199
778.00,0.0200
777.00,0.0202
776.00,0.0206
775.00,0.0211
774.00,0.0216
773.00,0.0221
772.00,0.0225
771.00,0.0228
770.00,0.0229
769.00,0.0229
768.00,0.0228
767.00,0.0226
766.00,0.0222
765.00,0.0218
764.00,0.0214
763.00,0.0210
762.00,0.0205
761.00,0.0201
760.00,0.0198
759.00,0.0197
758.00,0.0196
757.00,0.0196
756.00,0.0196
755.00,0.0196
754.00,0.0193
753.00,0.0187
752.00,0.0180
751.00,0.0172
750.00,0.0164
749.00,0.0159
748.00,0.0157
747.00,0.0156
746.00,0.0157
745.00,0.0158
744.00,0.0162
743.00,0.0165
742.00,0.0169
741.00,0.0174
740.00,0.0181
739.00,0.0189
738.00,0.0198
737.00,0.0210
736.00,0.0224
735.00,0.0239
734.00,0.0251
733.00,0.0259
732.00,0.0258
731.00,0.0250
730.00,0.0236
729.00,0.0221
728.00,0.0209
727.00,0.0199
726.00,0.0191
725.00,0.0185
724.00,0.0182
723.00,0.0179
722.00,0.0176
721.00,0.0174
720.00,0.0174
719.00,0.0174
718.00,0.0174
717.00,0.0173
716.00,0.0174
715.00,0.0174
714.00,0.0174
713.00,0.0175
712.00,0.0176
711.00,0.0176
710.00,0.0174
709.00,0.0173
708.00,0.0173
707.00,0.0172
706.00,0.0171
705.00,0.0170
704.00,0.0170
703.00,0.0169
702.00,0.0169
701.00,0.0169
700.00,0.0171
699.00,0.0171
698.00,0.0172
697.00,0.0172
696.00,0.0174
695.00,0.0176
694.00,0.0177
693.00,0.0179
692.00,0.0182
691.00,0.0186
690.00,0.0189
689.00,0.0194
688.00,0.0199
687.00,0.0205
686.00,0.0210
685.00,0.0216
684.00,0.0222
683.00,0.0228
682.00,0.0234
681.00,0.0240
680.00,0.0245
679.00,0.0249
678.00,0.0250
677.00,0.0249
676.00,0.0247
675.00,0.0244
674.00,0.0242
673.00,0.0241
672.00,0.0241
671.00,0.0243
670.00,0.0242
669.00,0.0238
668.00,0.0230
667.00,0.0217
666.00,0.0203
665.00,0.0192
664.00,0.0184
663.00,0.0177
662.00,0.0172
661.00,0.0169
660.00,0.0168
659.00,0.0167
658.00,0.0164
657.00,0.0162
656.00,0.0161
655.00,0.0161
654.00,0.0161
653.00,0.0164
652.00,0.0168
651.00,0.0171
650.00,0.0173
649.00,0.0172
648.00,0.0171
647.00,0.0168
646.00,0.0165
645.00,0.0163
644.00,0.0162
643.00,0.0162
642.00,0.0162
641.00,0.0163
640.00,0.0166
639.00,0.0169
638.00,0.0172
637.00,0.0175
636.00,0.0178
635.00,0.0181
634.00,0.0182
633.00,0.0182
632.00,0.0182
631.00,0.0182
630.00,0.0179
629.00,0.0175
628.00,0.0173
627.00,0.0170
626.00,0.0166
625.00,0.0162
624.00,0.0159
623.00,0.0157
622.00,0.0155
621.00,0.0155
620.00,0.0158
619.00,0.0162
618.00,0.0168
617.00,0.0176
616.00,0.0184
615.00,0.0190
614.00,0.0191
613.00,0.0189
612.00,0.0187
611.00,0.0185
610.00,0.0182
609.00,0.0180
608.00,0.0178
607.00,0.0176
606.00,0.0174
605.00,0.0171
604.00,0.0170
603.00,0.0168
602.00,0.0164
601.00,0.0162
600.00,0.0162
599.00,0.0162
598.00,0.0163
597.00,0.0164
596.00,0.0167
595.00,0.0169
594.00,0.0170
593.00,0.0169
592.00,0.0169
591.00,0.0168
590.00,0.0166
589.00,0.0163
588.00,0.0162
587.00,0.0162
586.00,0.0162
585.00,0.0166
584.00,0.0175
583.00,0.0190
582.00,0.0212
581.00,0.0243
580.00,0.0276
579.00,0.0299
578.00,0.0304
577.00,0.0288
576.00,0.0258
575.00,0.0224
574.00,0.0193
573.00,0.0169
572.00,0.0153
571.00,0.0142
570.00,0.0135
569.00,0.0129
568.00,0.0127
567.00,0.0125
566.00,0.0123
565.00,0.0122
564.00,0.0125
563.00,0.0128
562.00,0.0132
561.00,0.0136
560.00,0.0144
559.00,0.0152
558.00,0.0163
557.00,0.0180
556.00,0.0205
555.00,0.0237
554.00,0.0270
553.00,0.0298
552.00,0.0314
551.00,0.0311
550.00,0.0290
549.00,0.0262
548.00,0.0237
547.00,0.0220
546.00,0.0208
545.00,0.0203
544.00,0.0203
543.00,0.0204
542.00,0.0205
541.00,0.0209
540.00,0.0220
539.00,0.0236
538.00,0.0255
537.00,0.0277
536.00,0.0297
535.00,0.0307
534.00,0.0300
533.00,0.0280
532.00,0.0255
531.00,0.0231
530.00,0.0216
529.00,0.0216
528.00,0.0232
527.00,0.0252
526.00,0.0264
525.00,0.0265
524.00,0.0261
523.00,0.0255
522.00,0.0246
521.00,0.0235
520.00,0.0219
519.00,0.0200
518.00,0.0180
517.00,0.0165
516.00,0.0158
515.00,0.0155
514.00,0.0154
513.00,0.0155
512.00,0.0158
511.00,0.0162
510.00,0.0164
509.00,0.0169
508.00,0.0177
507.00,0.0187
506.00,0.0195
505.00,0.0207
504.00,0.0223
503.00,0.0240
502.00,0.0255
501.00,0.0272
500.00,0.0291
499.00,0.0311
498.00,0.0331
497.00,0.0350
496.00,0.0372
495.00,0.0392
494.00,0.0408
493.00,0.0424
492.00,0.0441
491.00,0.0457
490.00,0.0466
489.00,0.0472
488.00,0.0477
487.00,0.0478
486.00,0.0474
485.00,0.0471
484.00,0.0471
483.00,0.0471
482.00,0.0468
481.00,0.0467
480.00,0.0471
479.00,0.0475
478.00,0.0477
477.00,0.0477
476.00,0.0479
475.00,0.0480
474.00,0.0477
473.00,0.0476
472.00,0.0477
471.00,0.0476
470.00,0.0469
469.00,0.0463
468.00,0.0463
467.00,0.0465
466.00,0.0464
465.00,0.0461
464.00,0.0457
463.00,0.0445
462.00,0.0423
461.00,0.0400
460.00,0.0383
459.00,0.0369
458.00,0.0353
457.00,0.0342
456.00,0.0338
455.00,0.0336
454.00,0.0330
453.00,0.0325
452.00,0.0324
451.00,0.0323
450.00,0.0318
449.00,0.0313
448.00,0.0312
447.00,0.0312
446.00,0.0308
445.00,0.0306
444.00,0.0307
443.00,0.0306
442.00,0.0300
441.00,0.0293
440.00,0.0292
439.00,0.0290
438.00,0.0284
437.00,0.0281
436.00,0.0285
435.00,0.0287
434.00,0.0279
433.00,0.0265
432.00,0.0252
431.00,0.0238
430.00,0.0221
429.00,0.0209
428.00,0.0206
427.00,0.0207
426.00,0.0203
425.00,0.0198
424.00,0.0198
423.00,0.0197
422.00,0.0193
421.00,0.0192
420.00,0.0200
419.00,0.0205
418.00,0.0195
417.00,0.0185
416.00,0.0185
415.00,0.0185
414.00,0.0180
413.00,0.0175
412.00,0.0176
411.00,0.0176
410.00,0.0170
409.00,0.0170
408.00,0.0177
407.00,0.0179
406.00,0.0170
405.00,0.0167
404.00,0.0181
403.00,0.0192
402.00,0.0186
401.00,0.0179
400.00,0.0193
