Created as New Dataset,Sample 854 By YargerLab Date Monday, July 21 2025
cm-1,A
4000.00,0.0185
3999.00,0.0185
3998.00,0.0185
3997.00,0.0185
3996.00,0.0185
3995.00,0.0185
3994.00,0.0185
3993.00,0.0185
3992.00,0.0185
3991.00,0.0185
3990.00,0.0184
3989.00,0.0184
3988.00,0.0184
3987.00,0.0185
3986.00,0.0185
3985.00,0.0185
3984.00,0.0185
3983.00,0.0185
3982.00,0.0185
3981.00,0.0185
3980.00,0.0184
3979.00,0.0184
3978.00,0.0184
3977.00,0.0183
3976.00,0.0183
3975.00,0.0183
3974.00,0.0183
3973.00,0.0183
3972.00,0.0184
3971.00,0.0184
3970.00,0.0184
3969.00,0.0184
3968.00,0.0184
3967.00,0.0184
3966.00,0.0183
3965.00,0.0183
3964.00,0.0183
3963.00,0.0183
3962.00,0.0183
3961.00,0.0183
3960.00,0.0183
3959.00,0.0182
3958.00,0.0182
3957.00,0.0182
3956.00,0.0182
3955.00,0.0182
3954.00,0.0182
3953.00,0.0182
3952.00,0.0182
3951.00,0.0182
3950.00,0.0182
3949.00,0.0181
3948.00,0.0181
3947.00,0.0181
3946.00,0.0181
3945.00,0.0181
3944.00,0.0181
3943.00,0.0181
3942.00,0.0181
3941.00,0.0181
3940.00,0.0181
3939.00,0.0181
3938.00,0.0180
3937.00,0.0180
3936.00,0.0180
3935.00,0.0180
3934.00,0.0180
3933.00,0.0180
3932.00,0.0180
3931.00,0.0180
3930.00,0.0180
3929.00,0.0180
3928.00,0.0180
3927.00,0.0180
3926.00,0.0180
3925.00,0.0180
3924.00,0.0180
3923.00,0.0180
3922.00,0.0180
3921.00,0.0180
3920.00,0.0180
3919.00,0.0179
3918.00,0.0179
3917.00,0.0179
3916.00,0.0179
3915.00,0.0179
3914.00,0.0179
3913.00,0.0179
3912.00,0.0179
3911.00,0.0179
3910.00,0.0179
3909.00,0.0179
3908.00,0.0179
3907.00,0.0179
3906.00,0.0178
3905.00,0.0178
3904.00,0.0178
3903.00,0.0177
3902.00,0.0177
3901.00,0.0177
3900.00,0.0177
3899.00,0.0178
3898.00,0.0178
3897.00,0.0178
3896.00,0.0178
3895.00,0.0177
3894.00,0.0177
3893.00,0.0177
3892.00,0.0177
3891.00,0.0177
3890.00,0.0177
3889.00,0.0176
3888.00,0.0176
3887.00,0.0176
3886.00,0.0176
3885.00,0.0176
3884.00,0.0176
3883.00,0.0176
3882.00,0.0176
3881.00,0.0176
3880.00,0.0176
3879.00,0.0176
3878.00,0.0176
3877.00,0.0176
3876.00,0.0176
3875.00,0.0176
3874.00,0.0176
3873.00,0.0176
3872.00,0.0175
3871.00,0.0175
3870.00,0.0174
3869.00,0.0175
3868.00,0.0174
3867.00,0.0174
3866.00,0.0174
3865.00,0.0174
3864.00,0.0174
3863.00,0.0174
3862.00,0.0174
3861.00,0.0174
3860.00,0.0174
3859.00,0.0174
3858.00,0.0174
3857.00,0.0174
3856.00,0.0174
3855.00,0.0173
3854.00,0.0173
3853.00,0.0173
3852.00,0.0173
3851.00,0.0173
3850.00,0.0173
3849.00,0.0173
3848.00,0.0173
3847.00,0.0173
3846.00,0.0173
3845.00,0.0173
3844.00,0.0173
3843.00,0.0173
3842.00,0.0173
3841.00,0.0173
3840.00,0.0173
3839.00,0.0173
3838.00,0.0173
3837.00,0.0173
3836.00,0.0172
3835.00,0.0172
3834.00,0.0172
3833.00,0.0172
3832.00,0.0172
3831.00,0.0172
3830.00,0.0172
3829.00,0.0172
3828.00,0.0172
3827.00,0.0172
3826.00,0.0172
3825.00,0.0172
3824.00,0.0172
3823.00,0.0171
3822.00,0.0170
3821.00,0.0170
3820.00,0.0171
3819.00,0.0171
3818.00,0.0170
3817.00,0.0170
3816.00,0.0171
3815.00,0.0171
3814.00,0.0172
3813.00,0.0172
3812.00,0.0171
3811.00,0.0171
3810.00,0.0171
3809.00,0.0171
3808.00,0.0171
3807.00,0.0171
3806.00,0.0171
3805.00,0.0170
3804.00,0.0170
3803.00,0.0169
3802.00,0.0169
3801.00,0.0169
3800.00,0.0169
3799.00,0.0169
3798.00,0.0169
3797.00,0.0169
3796.00,0.0170
3795.00,0.0170
3794.00,0.0170
3793.00,0.0170
3792.00,0.0170
3791.00,0.0170
3790.00,0.0170
3789.00,0.0170
3788.00,0.0170
3787.00,0.0170
3786.00,0.0170
3785.00,0.0170
3784.00,0.0170
3783.00,0.0170
3782.00,0.0170
3781.00,0.0170
3780.00,0.0169
3779.00,0.0170
3778.00,0.0170
3777.00,0.0170
3776.00,0.0169
3775.00,0.0169
3774.00,0.0169
3773.00,0.0169
3772.00,0.0168
3771.00,0.0168
3770.00,0.0168
3769.00,0.0168
3768.00,0.0168
3767.00,0.0168
3766.00,0.0167
3765.00,0.0167
3764.00,0.0167
3763.00,0.0167
3762.00,0.0167
3761.00,0.0167
3760.00,0.0167
3759.00,0.0167
3758.00,0.0167
3757.00,0.0167
3756.00,0.0166
3755.00,0.0166
3754.00,0.0165
3753.00,0.0165
3752.00,0.0164
3751.00,0.0164
3750.00,0.0163
3749.00,0.0163
3748.00,0.0163
3747.00,0.0163
3746.00,0.0163
3745.00,0.0164
3744.00,0.0164
3743.00,0.0164
3742.00,0.0164
3741.00,0.0164
3740.00,0.0163
3739.00,0.0163
3738.00,0.0163
3737.00,0.0163
3736.00,0.0163
3735.00,0.0163
3734.00,0.0163
3733.00,0.0163
3732.00,0.0163
3731.00,0.0163
3730.00,0.0163
3729.00,0.0163
3728.00,0.0163
3727.00,0.0163
3726.00,0.0163
3725.00,0.0163
3724.00,0.0163
3723.00,0.0163
3722.00,0.0163
3721.00,0.0163
3720.00,0.0163
3719.00,0.0163
3718.00,0.0162
3717.00,0.0162
3716.00,0.0162
3715.00,0.0162
3714.00,0.0162
3713.00,0.0162
3712.00,0.0162
3711.00,0.0162
3710.00,0.0161
3709.00,0.0161
3708.00,0.0161
3707.00,0.0161
3706.00,0.0161
3705.00,0.0161
3704.00,0.0161
3703.00,0.0162
3702.00,0.0162
3701.00,0.0162
3700.00,0.0162
3699.00,0.0162
3698.00,0.0162
3697.00,0.0161
3696.00,0.0161
3695.00,0.0161
3694.00,0.0161
3693.00,0.0160
3692.00,0.0160
3691.00,0.0160
3690.00,0.0160
3689.00,0.0160
3688.00,0.0160
3687.00,0.0160
3686.00,0.0161
3685.00,0.0161
3684.00,0.0161
3683.00,0.0162
3682.00,0.0162
3681.00,0.0163
3680.00,0.0163
3679.00,0.0163
3678.00,0.0162
3677.00,0.0162
3676.00,0.0161
3675.00,0.0161
3674.00,0.0161
3673.00,0.0160
3672.00,0.0160
3671.00,0.0160
3670.00,0.0161
3669.00,0.0161
3668.00,0.0162
3667.00,0.0162
3666.00,0.0162
3665.00,0.0163
3664.00,0.0163
3663.00,0.0163
3662.00,0.0164
3661.00,0.0164
3660.00,0.0164
3659.00,0.0164
3658.00,0.0163
3657.00,0.0163
3656.00,0.0163
3655.00,0.0162
3654.00,0.0162
3653.00,0.0162
3652.00,0.0162
3651.00,0.0161
3650.00,0.0160
3649.00,0.0160
3648.00,0.0160
3647.00,0.0160
3646.00,0.0161
3645.00,0.0161
3644.00,0.0162
3643.00,0.0163
3642.00,0.0163
3641.00,0.0163
3640.00,0.0163
3639.00,0.0163
3638.00,0.0163
3637.00,0.0163
3636.00,0.0163
3635.00,0.0163
3634.00,0.0163
3633.00,0.0163
3632.00,0.0163
3631.00,0.0162
3630.00,0.0162
3629.00,0.0162
3628.00,0.0162
3627.00,0.0163
3626.00,0.0163
3625.00,0.0163
3624.00,0.0163
3623.00,0.0163
3622.00,0.0163
3621.00,0.0163
3620.00,0.0163
3619.00,0.0163
3618.00,0.0163
3617.00,0.0163
3616.00,0.0163
3615.00,0.0163
3614.00,0.0163
3613.00,0.0163
3612.00,0.0164
3611.00,0.0164
3610.00,0.0164
3609.00,0.0165
3608.00,0.0165
3607.00,0.0166
3606.00,0.0166
3605.00,0.0166
3604.00,0.0166
3603.00,0.0166
3602.00,0.0166
3601.00,0.0167
3600.00,0.0167
3599.00,0.0167
3598.00,0.0167
3597.00,0.0167
3596.00,0.0168
3595.00,0.0168
3594.00,0.0168
3593.00,0.0168
3592.00,0.0168
3591.00,0.0168
3590.00,0.0167
3589.00,0.0168
3588.00,0.0168
3587.00,0.0168
3586.00,0.0168
3585.00,0.0168
3584.00,0.0169
3583.00,0.0169
3582.00,0.0169
3581.00,0.0169
3580.00,0.0170
3579.00,0.0170
3578.00,0.0170
3577.00,0.0170
3576.00,0.0171
3575.00,0.0171
3574.00,0.0171
3573.00,0.0172
3572.00,0.0172
3571.00,0.0172
3570.00,0.0172
3569.00,0.0172
3568.00,0.0172
3567.00,0.0172
3566.00,0.0172
3565.00,0.0172
3564.00,0.0172
3563.00,0.0173
3562.00,0.0173
3561.00,0.0174
3560.00,0.0174
3559.00,0.0175
3558.00,0.0175
3557.00,0.0175
3556.00,0.0176
3555.00,0.0176
3554.00,0.0176
3553.00,0.0177
3552.00,0.0177
3551.00,0.0177
3550.00,0.0176
3549.00,0.0176
3548.00,0.0177
3547.00,0.0177
3546.00,0.0178
3545.00,0.0178
3544.00,0.0179
3543.00,0.0179
3542.00,0.0179
3541.00,0.0179
3540.00,0.0179
3539.00,0.0180
3538.00,0.0180
3537.00,0.0181
3536.00,0.0181
3535.00,0.0181
3534.00,0.0181
3533.00,0.0181
3532.00,0.0181
3531.00,0.0181
3530.00,0.0182
3529.00,0.0182
3528.00,0.0182
3527.00,0.0183
3526.00,0.0183
3525.00,0.0183
3524.00,0.0183
3523.00,0.0184
3522.00,0.0184
3521.00,0.0184
3520.00,0.0184
3519.00,0.0185
3518.00,0.0185
3517.00,0.0186
3516.00,0.0186
3515.00,0.0187
3514.00,0.0187
3513.00,0.0187
3512.00,0.0187
3511.00,0.0187
3510.00,0.0188
3509.00,0.0188
3508.00,0.0189
3507.00,0.0189
3506.00,0.0189
3505.00,0.0190
3504.00,0.0190
3503.00,0.0191
3502.00,0.0191
3501.00,0.0192
3500.00,0.0192
3499.00,0.0193
3498.00,0.0193
3497.00,0.0194
3496.00,0.0194
3495.00,0.0195
3494.00,0.0195
3493.00,0.0195
3492.00,0.0196
3491.00,0.0196
3490.00,0.0197
3489.00,0.0197
3488.00,0.0198
3487.00,0.0198
3486.00,0.0198
3485.00,0.0198
3484.00,0.0199
3483.00,0.0199
3482.00,0.0200
3481.00,0.0200
3480.00,0.0201
3479.00,0.0202
3478.00,0.0202
3477.00,0.0203
3476.00,0.0203
3475.00,0.0204
3474.00,0.0204
3473.00,0.0205
3472.00,0.0205
3471.00,0.0206
3470.00,0.0207
3469.00,0.0207
3468.00,0.0208
3467.00,0.0208
3466.00,0.0208
3465.00,0.0208
3464.00,0.0208
3463.00,0.0209
3462.00,0.0209
3461.00,0.0209
3460.00,0.0210
3459.00,0.0210
3458.00,0.0211
3457.00,0.0211
3456.00,0.0212
3455.00,0.0212
3454.00,0.0213
3453.00,0.0213
3452.00,0.0213
3451.00,0.0214
3450.00,0.0214
3449.00,0.0214
3448.00,0.0214
3447.00,0.0215
3446.00,0.0215
3445.00,0.0215
3444.00,0.0216
3443.00,0.0216
3442.00,0.0216
3441.00,0.0216
3440.00,0.0217
3439.00,0.0217
3438.00,0.0218
3437.00,0.0218
3436.00,0.0219
3435.00,0.0219
3434.00,0.0219
3433.00,0.0219
3432.00,0.0219
3431.00,0.0219
3430.00,0.0219
3429.00,0.0219
3428.00,0.0219
3427.00,0.0219
3426.00,0.0219
3425.00,0.0219
3424.00,0.0219
3423.00,0.0219
3422.00,0.0220
3421.00,0.0220
3420.00,0.0220
3419.00,0.0220
3418.00,0.0221
3417.00,0.0221
3416.00,0.0221
3415.00,0.0222
3414.00,0.0222
3413.00,0.0222
3412.00,0.0222
3411.00,0.0222
3410.00,0.0222
3409.00,0.0223
3408.00,0.0223
3407.00,0.0223
3406.00,0.0223
3405.00,0.0223
3404.00,0.0224
3403.00,0.0224
3402.00,0.0224
3401.00,0.0224
3400.00,0.0225
3399.00,0.0225
3398.00,0.0225
3397.00,0.0225
3396.00,0.0225
3395.00,0.0226
3394.00,0.0226
3393.00,0.0226
3392.00,0.0226
3391.00,0.0226
3390.00,0.0226
3389.00,0.0227
3388.00,0.0227
3387.00,0.0227
3386.00,0.0228
3385.00,0.0228
3384.00,0.0228
3383.00,0.0228
3382.00,0.0228
3381.00,0.0228
3380.00,0.0229
3379.00,0.0229
3378.00,0.0230
3377.00,0.0230
3376.00,0.0230
3375.00,0.0230
3374.00,0.0230
3373.00,0.0231
3372.00,0.0231
3371.00,0.0231
3370.00,0.0231
3369.00,0.0231
3368.00,0.0232
3367.00,0.0232
3366.00,0.0233
3365.00,0.0233
3364.00,0.0234
3363.00,0.0234
3362.00,0.0234
3361.00,0.0234
3360.00,0.0234
3359.00,0.0234
3358.00,0.0235
3357.00,0.0235
3356.00,0.0235
3355.00,0.0235
3354.00,0.0235
3353.00,0.0235
3352.00,0.0235
3351.00,0.0235
3350.00,0.0236
3349.00,0.0237
3348.00,0.0237
3347.00,0.0238
3346.00,0.0238
3345.00,0.0238
3344.00,0.0238
3343.00,0.0238
3342.00,0.0238
3341.00,0.0237
3340.00,0.0237
3339.00,0.0238
3338.00,0.0238
3337.00,0.0239
3336.00,0.0239
3335.00,0.0240
3334.00,0.0240
3333.00,0.0241
3332.00,0.0241
3331.00,0.0241
3330.00,0.0241
3329.00,0.0241
3328.00,0.0241
3327.00,0.0241
3326.00,0.0241
3325.00,0.0241
3324.00,0.0241
3323.00,0.0242
3322.00,0.0242
3321.00,0.0243
3320.00,0.0243
3319.00,0.0243
3318.00,0.0244
3317.00,0.0244
3316.00,0.0244
3315.00,0.0243
3314.00,0.0243
3313.00,0.0243
3312.00,0.0243
3311.00,0.0242
3310.00,0.0242
3309.00,0.0241
3308.00,0.0241
3307.00,0.0241
3306.00,0.0241
3305.00,0.0242
3304.00,0.0243
3303.00,0.0244
3302.00,0.0244
3301.00,0.0245
3300.00,0.0245
3299.00,0.0244
3298.00,0.0244
3297.00,0.0243
3296.00,0.0243
3295.00,0.0243
3294.00,0.0243
3293.00,0.0243
3292.00,0.0243
3291.00,0.0244
3290.00,0.0244
3289.00,0.0244
3288.00,0.0244
3287.00,0.0244
3286.00,0.0244
3285.00,0.0244
3284.00,0.0244
3283.00,0.0244
3282.00,0.0244
3281.00,0.0244
3280.00,0.0244
3279.00,0.0244
3278.00,0.0244
3277.00,0.0243
3276.00,0.0243
3275.00,0.0243
3274.00,0.0243
3273.00,0.0242
3272.00,0.0242
3271.00,0.0242
3270.00,0.0242
3269.00,0.0242
3268.00,0.0243
3267.00,0.0243
3266.00,0.0243
3265.00,0.0242
3264.00,0.0242
3263.00,0.0242
3262.00,0.0242
3261.00,0.0241
3260.00,0.0241
3259.00,0.0241
3258.00,0.0241
3257.00,0.0241
3256.00,0.0241
3255.00,0.0241
3254.00,0.0241
3253.00,0.0241
3252.00,0.0241
3251.00,0.0240
3250.00,0.0240
3249.00,0.0240
3248.00,0.0240
3247.00,0.0240
3246.00,0.0240
3245.00,0.0240
3244.00,0.0240
3243.00,0.0240
3242.00,0.0240
3241.00,0.0239
3240.00,0.0239
3239.00,0.0239
3238.00,0.0239
3237.00,0.0239
3236.00,0.0238
3235.00,0.0238
3234.00,0.0238
3233.00,0.0238
3232.00,0.0238
3231.00,0.0237
3230.00,0.0237
3229.00,0.0237
3228.00,0.0237
3227.00,0.0237
3226.00,0.0237
3225.00,0.0236
3224.00,0.0236
3223.00,0.0236
3222.00,0.0236
3221.00,0.0236
3220.00,0.0235
3219.00,0.0235
3218.00,0.0234
3217.00,0.0234
3216.00,0.0234
3215.00,0.0233
3214.00,0.0233
3213.00,0.0233
3212.00,0.0233
3211.00,0.0233
3210.00,0.0233
3209.00,0.0233
3208.00,0.0233
3207.00,0.0232
3206.00,0.0232
3205.00,0.0232
3204.00,0.0232
3203.00,0.0232
3202.00,0.0231
3201.00,0.0231
3200.00,0.0231
3199.00,0.0231
3198.00,0.0231
3197.00,0.0230
3196.00,0.0230
3195.00,0.0230
3194.00,0.0230
3193.00,0.0229
3192.00,0.0229
3191.00,0.0229
3190.00,0.0229
3189.00,0.0228
3188.00,0.0228
3187.00,0.0228
3186.00,0.0227
3185.00,0.0227
3184.00,0.0227
3183.00,0.0226
3182.00,0.0226
3181.00,0.0226
3180.00,0.0225
3179.00,0.0225
3178.00,0.0224
3177.00,0.0224
3176.00,0.0223
3175.00,0.0223
3174.00,0.0222
3173.00,0.0222
3172.00,0.0221
3171.00,0.0221
3170.00,0.0220
3169.00,0.0220
3168.00,0.0220
3167.00,0.0219
3166.00,0.0219
3165.00,0.0218
3164.00,0.0218
3163.00,0.0217
3162.00,0.0217
3161.00,0.0217
3160.00,0.0216
3159.00,0.0215
3158.00,0.0215
3157.00,0.0214
3156.00,0.0214
3155.00,0.0214
3154.00,0.0213
3153.00,0.0213
3152.00,0.0213
3151.00,0.0212
3150.00,0.0211
3149.00,0.0210
3148.00,0.0210
3147.00,0.0209
3146.00,0.0209
3145.00,0.0208
3144.00,0.0208
3143.00,0.0208
3142.00,0.0207
3141.00,0.0207
3140.00,0.0206
3139.00,0.0206
3138.00,0.0205
3137.00,0.0205
3136.00,0.0204
3135.00,0.0204
3134.00,0.0204
3133.00,0.0203
3132.00,0.0203
3131.00,0.0203
3130.00,0.0202
3129.00,0.0202
3128.00,0.0201
3127.00,0.0201
3126.00,0.0200
3125.00,0.0199
3124.00,0.0199
3123.00,0.0199
3122.00,0.0199
3121.00,0.0199
3120.00,0.0198
3119.00,0.0198
3118.00,0.0198
3117.00,0.0198
3116.00,0.0197
3115.00,0.0196
3114.00,0.0195
3113.00,0.0195
3112.00,0.0194
3111.00,0.0194
3110.00,0.0194
3109.00,0.0194
3108.00,0.0193
3107.00,0.0192
3106.00,0.0191
3105.00,0.0190
3104.00,0.0190
3103.00,0.0190
3102.00,0.0189
3101.00,0.0189
3100.00,0.0189
3099.00,0.0188
3098.00,0.0188
3097.00,0.0187
3096.00,0.0187
3095.00,0.0186
3094.00,0.0186
3093.00,0.0186
3092.00,0.0186
3091.00,0.0186
3090.00,0.0186
3089.00,0.0186
3088.00,0.0186
3087.00,0.0185
3086.00,0.0185
3085.00,0.0185
3084.00,0.0185
3083.00,0.0185
3082.00,0.0185
3081.00,0.0186
3080.00,0.0186
3079.00,0.0186
3078.00,0.0186
3077.00,0.0186
3076.00,0.0185
3075.00,0.0184
3074.00,0.0184
3073.00,0.0184
3072.00,0.0184
3071.00,0.0183
3070.00,0.0183
3069.00,0.0183
3068.00,0.0182
3067.00,0.0182
3066.00,0.0181
3065.00,0.0179
3064.00,0.0178
3063.00,0.0177
3062.00,0.0176
3061.00,0.0175
3060.00,0.0174
3059.00,0.0174
3058.00,0.0173
3057.00,0.0173
3056.00,0.0172
3055.00,0.0172
3054.00,0.0171
3053.00,0.0171
3052.00,0.0170
3051.00,0.0170
3050.00,0.0170
3049.00,0.0170
3048.00,0.0170
3047.00,0.0169
3046.00,0.0169
3045.00,0.0169
3044.00,0.0169
3043.00,0.0169
3042.00,0.0169
3041.00,0.0168
3040.00,0.0168
3039.00,0.0167
3038.00,0.0167
3037.00,0.0166
3036.00,0.0166
3035.00,0.0166
3034.00,0.0166
3033.00,0.0166
3032.00,0.0165
3031.00,0.0165
3030.00,0.0165
3029.00,0.0164
3028.00,0.0164
3027.00,0.0164
3026.00,0.0164
3025.00,0.0164
3024.00,0.0164
3023.00,0.0164
3022.00,0.0165
3021.00,0.0165
3020.00,0.0165
3019.00,0.0165
3018.00,0.0165
3017.00,0.0166
3016.00,0.0167
3015.00,0.0168
3014.00,0.0168
3013.00,0.0169
3012.00,0.0170
3011.00,0.0170
3010.00,0.0170
3009.00,0.0171
3008.00,0.0172
3007.00,0.0173
3006.00,0.0175
3005.00,0.0176
3004.00,0.0178
3003.00,0.0179
3002.00,0.0181
3001.00,0.0182
3000.00,0.0184
2999.00,0.0187
2998.00,0.0189
2997.00,0.0191
2996.00,0.0193
2995.00,0.0195
2994.00,0.0197
2993.00,0.0199
2992.00,0.0202
2991.00,0.0204
2990.00,0.0206
2989.00,0.0209
2988.00,0.0211
2987.00,0.0214
2986.00,0.0216
2985.00,0.0219
2984.00,0.0223
2983.00,0.0226
2982.00,0.0229
2981.00,0.0232
2980.00,0.0234
2979.00,0.0235
2978.00,0.0237
2977.00,0.0239
2976.00,0.0241
2975.00,0.0243
2974.00,0.0246
2973.00,0.0249
2972.00,0.0253
2971.00,0.0256
2970.00,0.0259
2969.00,0.0263
2968.00,0.0266
2967.00,0.0270
2966.00,0.0274
2965.00,0.0278
2964.00,0.0282
2963.00,0.0286
2962.00,0.0290
2961.00,0.0293
2960.00,0.0296
2959.00,0.0298
2958.00,0.0300
2957.00,0.0302
2956.00,0.0303
2955.00,0.0303
2954.00,0.0303
2953.00,0.0303
2952.00,0.0303
2951.00,0.0301
2950.00,0.0300
2949.00,0.0298
2948.00,0.0297
2947.00,0.0296
2946.00,0.0296
2945.00,0.0296
2944.00,0.0296
2943.00,0.0297
2942.00,0.0298
2941.00,0.0300
2940.00,0.0303
2939.00,0.0306
2938.00,0.0310
2937.00,0.0314
2936.00,0.0319
2935.00,0.0323
2934.00,0.0328
2933.00,0.0333
2932.00,0.0338
2931.00,0.0342
2930.00,0.0346
2929.00,0.0349
2928.00,0.0352
2927.00,0.0355
2926.00,0.0357
2925.00,0.0358
2924.00,0.0358
2923.00,0.0359
2922.00,0.0358
2921.00,0.0357
2920.00,0.0355
2919.00,0.0353
2918.00,0.0350
2917.00,0.0347
2916.00,0.0344
2915.00,0.0340
2914.00,0.0336
2913.00,0.0332
2912.00,0.0328
2911.00,0.0324
2910.00,0.0319
2909.00,0.0315
2908.00,0.0311
2907.00,0.0307
2906.00,0.0303
2905.00,0.0300
2904.00,0.0297
2903.00,0.0294
2902.00,0.0292
2901.00,0.0290
2900.00,0.0288
2899.00,0.0286
2898.00,0.0284
2897.00,0.0283
2896.00,0.0282
2895.00,0.0280
2894.00,0.0279
2893.00,0.0278
2892.00,0.0277
2891.00,0.0275
2890.00,0.0274
2889.00,0.0272
2888.00,0.0271
2887.00,0.0270
2886.00,0.0269
2885.00,0.0268
2884.00,0.0267
2883.00,0.0267
2882.00,0.0266
2881.00,0.0265
2880.00,0.0265
2879.00,0.0265
2878.00,0.0265
2877.00,0.0265
2876.00,0.0265
2875.00,0.0266
2874.00,0.0267
2873.00,0.0267
2872.00,0.0268
2871.00,0.0268
2870.00,0.0268
2869.00,0.0267
2868.00,0.0267
2867.00,0.0266
2866.00,0.0266
2865.00,0.0266
2864.00,0.0266
2863.00,0.0267
2862.00,0.0269
2861.00,0.0270
2860.00,0.0272
2859.00,0.0274
2858.00,0.0276
2857.00,0.0277
2856.00,0.0277
2855.00,0.0276
2854.00,0.0273
2853.00,0.0270
2852.00,0.0266
2851.00,0.0261
2850.00,0.0256
2849.00,0.0250
2848.00,0.0244
2847.00,0.0237
2846.00,0.0231
2845.00,0.0226
2844.00,0.0220
2843.00,0.0215
2842.00,0.0210
2841.00,0.0206
2840.00,0.0203
2839.00,0.0200
2838.00,0.0198
2837.00,0.0196
2836.00,0.0195
2835.00,0.0194
2834.00,0.0193
2833.00,0.0193
2832.00,0.0192
2831.00,0.0191
2830.00,0.0189
2829.00,0.0188
2828.00,0.0185
2827.00,0.0183
2826.00,0.0180
2825.00,0.0177
2824.00,0.0174
2823.00,0.0171
2822.00,0.0168
2821.00,0.0165
2820.00,0.0163
2819.00,0.0160
2818.00,0.0158
2817.00,0.0156
2816.00,0.0154
2815.00,0.0153
2814.00,0.0151
2813.00,0.0150
2812.00,0.0149
2811.00,0.0148
2810.00,0.0147
2809.00,0.0147
2808.00,0.0146
2807.00,0.0145
2806.00,0.0144
2805.00,0.0143
2804.00,0.0143
2803.00,0.0142
2802.00,0.0142
2801.00,0.0141
2800.00,0.0141
2799.00,0.0140
2798.00,0.0140
2797.00,0.0139
2796.00,0.0139
2795.00,0.0138
2794.00,0.0138
2793.00,0.0138
2792.00,0.0137
2791.00,0.0137
2790.00,0.0136
2789.00,0.0136
2788.00,0.0135
2787.00,0.0135
2786.00,0.0135
2785.00,0.0135
2784.00,0.0134
2783.00,0.0134
2782.00,0.0134
2781.00,0.0133
2780.00,0.0133
2779.00,0.0132
2778.00,0.0132
2777.00,0.0132
2776.00,0.0132
2775.00,0.0132
2774.00,0.0132
2773.00,0.0131
2772.00,0.0131
2771.00,0.0131
2770.00,0.0131
2769.00,0.0130
2768.00,0.0130
2767.00,0.0130
2766.00,0.0130
2765.00,0.0130
2764.00,0.0129
2763.00,0.0129
2762.00,0.0129
2761.00,0.0129
2760.00,0.0129
2759.00,0.0129
2758.00,0.0129
2757.00,0.0129
2756.00,0.0129
2755.00,0.0129
2754.00,0.0129
2753.00,0.0129
2752.00,0.0129
2751.00,0.0129
2750.00,0.0129
2749.00,0.0128
2748.00,0.0128
2747.00,0.0128
2746.00,0.0128
2745.00,0.0128
2744.00,0.0128
2743.00,0.0128
2742.00,0.0128
2741.00,0.0128
2740.00,0.0128
2739.00,0.0128
2738.00,0.0128
2737.00,0.0128
2736.00,0.0129
2735.00,0.0128
2734.00,0.0128
2733.00,0.0128
2732.00,0.0128
2731.00,0.0128
2730.00,0.0128
2729.00,0.0128
2728.00,0.0129
2727.00,0.0129
2726.00,0.0129
2725.00,0.0129
2724.00,0.0128
2723.00,0.0128
2722.00,0.0128
2721.00,0.0128
2720.00,0.0127
2719.00,0.0127
2718.00,0.0127
2717.00,0.0126
2716.00,0.0126
2715.00,0.0126
2714.00,0.0125
2713.00,0.0125
2712.00,0.0125
2711.00,0.0125
2710.00,0.0125
2709.00,0.0125
2708.00,0.0124
2707.00,0.0124
2706.00,0.0124
2705.00,0.0124
2704.00,0.0124
2703.00,0.0124
2702.00,0.0124
2701.00,0.0123
2700.00,0.0123
2699.00,0.0123
2698.00,0.0123
2697.00,0.0123
2696.00,0.0123
2695.00,0.0123
2694.00,0.0123
2693.00,0.0123
2692.00,0.0123
2691.00,0.0122
2690.00,0.0122
2689.00,0.0122
2688.00,0.0122
2687.00,0.0122
2686.00,0.0122
2685.00,0.0122
2684.00,0.0122
2683.00,0.0122
2682.00,0.0121
2681.00,0.0121
2680.00,0.0121
2679.00,0.0121
2678.00,0.0121
2677.00,0.0121
2676.00,0.0121
2675.00,0.0121
2674.00,0.0121
2673.00,0.0121
2672.00,0.0121
2671.00,0.0120
2670.00,0.0120
2669.00,0.0121
2668.00,0.0121
2667.00,0.0121
2666.00,0.0121
2665.00,0.0122
2664.00,0.0122
2663.00,0.0122
2662.00,0.0122
2661.00,0.0123
2660.00,0.0123
2659.00,0.0123
2658.00,0.0122
2657.00,0.0122
2656.00,0.0122
2655.00,0.0122
2654.00,0.0121
2653.00,0.0121
2652.00,0.0121
2651.00,0.0121
2650.00,0.0121
2649.00,0.0121
2648.00,0.0121
2647.00,0.0120
2646.00,0.0120
2645.00,0.0120
2644.00,0.0119
2643.00,0.0119
2642.00,0.0119
2641.00,0.0118
2640.00,0.0118
2639.00,0.0118
2638.00,0.0118
2637.00,0.0117
2636.00,0.0117
2635.00,0.0117
2634.00,0.0117
2633.00,0.0117
2632.00,0.0117
2631.00,0.0117
2630.00,0.0116
2629.00,0.0116
2628.00,0.0115
2627.00,0.0115
2626.00,0.0115
2625.00,0.0114
2624.00,0.0114
2623.00,0.0113
2622.00,0.0113
2621.00,0.0113
2620.00,0.0113
2619.00,0.0113
2618.00,0.0112
2617.00,0.0112
2616.00,0.0112
2615.00,0.0112
2614.00,0.0111
2613.00,0.0111
2612.00,0.0111
2611.00,0.0111
2610.00,0.0111
2609.00,0.0110
2608.00,0.0110
2607.00,0.0109
2606.00,0.0109
2605.00,0.0109
2604.00,0.0108
2603.00,0.0108
2602.00,0.0108
2601.00,0.0108
2600.00,0.0108
2599.00,0.0108
2598.00,0.0108
2597.00,0.0108
2596.00,0.0107
2595.00,0.0107
2594.00,0.0107
2593.00,0.0107
2592.00,0.0107
2591.00,0.0107
2590.00,0.0107
2589.00,0.0107
2588.00,0.0107
2587.00,0.0106
2586.00,0.0106
2585.00,0.0106
2584.00,0.0105
2583.00,0.0105
2582.00,0.0105
2581.00,0.0105
2580.00,0.0105
2579.00,0.0105
2578.00,0.0105
2577.00,0.0105
2576.00,0.0105
2575.00,0.0104
2574.00,0.0104
2573.00,0.0104
2572.00,0.0104
2571.00,0.0104
2570.00,0.0104
2569.00,0.0103
2568.00,0.0103
2567.00,0.0103
2566.00,0.0102
2565.00,0.0102
2564.00,0.0102
2563.00,0.0101
2562.00,0.0101
2561.00,0.0101
2560.00,0.0101
2559.00,0.0101
2558.00,0.0101
2557.00,0.0101
2556.00,0.0101
2555.00,0.0101
2554.00,0.0101
2553.00,0.0101
2552.00,0.0100
2551.00,0.0100
2550.00,0.0099
2549.00,0.0099
2548.00,0.0098
2547.00,0.0098
2546.00,0.0098
2545.00,0.0098
2544.00,0.0098
2543.00,0.0098
2542.00,0.0098
2541.00,0.0098
2540.00,0.0098
2539.00,0.0098
2538.00,0.0098
2537.00,0.0097
2536.00,0.0097
2535.00,0.0097
2534.00,0.0096
2533.00,0.0096
2532.00,0.0096
2531.00,0.0097
2530.00,0.0096
2529.00,0.0096
2528.00,0.0096
2527.00,0.0096
2526.00,0.0096
2525.00,0.0095
2524.00,0.0095
2523.00,0.0095
2522.00,0.0095
2521.00,0.0095
2520.00,0.0094
2519.00,0.0094
2518.00,0.0094
2517.00,0.0094
2516.00,0.0093
2515.00,0.0093
2514.00,0.0093
2513.00,0.0093
2512.00,0.0093
2511.00,0.0093
2510.00,0.0093
2509.00,0.0093
2508.00,0.0093
2507.00,0.0093
2506.00,0.0092
2505.00,0.0092
2504.00,0.0092
2503.00,0.0092
2502.00,0.0091
2501.00,0.0091
2500.00,0.0091
2499.00,0.0091
2498.00,0.0091
2497.00,0.0091
2496.00,0.0091
2495.00,0.0091
2494.00,0.0091
2493.00,0.0091
2492.00,0.0091
2491.00,0.0090
2490.00,0.0090
2489.00,0.0090
2488.00,0.0089
2487.00,0.0089
2486.00,0.0088
2485.00,0.0088
2484.00,0.0088
2483.00,0.0088
2482.00,0.0088
2481.00,0.0088
2480.00,0.0088
2479.00,0.0088
2478.00,0.0087
2477.00,0.0087
2476.00,0.0088
2475.00,0.0088
2474.00,0.0088
2473.00,0.0088
2472.00,0.0088
2471.00,0.0088
2470.00,0.0088
2469.00,0.0088
2468.00,0.0088
2467.00,0.0087
2466.00,0.0087
2465.00,0.0087
2464.00,0.0087
2463.00,0.0087
2462.00,0.0088
2461.00,0.0088
2460.00,0.0088
2459.00,0.0088
2458.00,0.0088
2457.00,0.0088
2456.00,0.0087
2455.00,0.0087
2454.00,0.0087
2453.00,0.0087
2452.00,0.0087
2451.00,0.0087
2450.00,0.0087
2449.00,0.0087
2448.00,0.0086
2447.00,0.0086
2446.00,0.0086
2445.00,0.0086
2444.00,0.0086
2443.00,0.0085
2442.00,0.0085
2441.00,0.0085
2440.00,0.0084
2439.00,0.0084
2438.00,0.0084
2437.00,0.0083
2436.00,0.0083
2435.00,0.0083
2434.00,0.0083
2433.00,0.0083
2432.00,0.0083
2431.00,0.0083
2430.00,0.0083
2429.00,0.0082
2428.00,0.0082
2427.00,0.0082
2426.00,0.0082
2425.00,0.0081
2424.00,0.0081
2423.00,0.0081
2422.00,0.0081
2421.00,0.0081
2420.00,0.0082
2419.00,0.0082
2418.00,0.0082
2417.00,0.0082
2416.00,0.0081
2415.00,0.0081
2414.00,0.0081
2413.00,0.0081
2412.00,0.0080
2411.00,0.0080
2410.00,0.0080
2409.00,0.0080
2408.00,0.0080
2407.00,0.0079
2406.00,0.0079
2405.00,0.0079
2404.00,0.0079
2403.00,0.0078
2402.00,0.0078
2401.00,0.0078
2400.00,0.0078
2399.00,0.0078
2398.00,0.0078
2397.00,0.0079
2396.00,0.0078
2395.00,0.0078
2394.00,0.0078
2393.00,0.0078
2392.00,0.0078
2391.00,0.0078
2390.00,0.0078
2389.00,0.0078
2388.00,0.0077
2387.00,0.0077
2386.00,0.0076
2385.00,0.0076
2384.00,0.0075
2383.00,0.0075
2382.00,0.0074
2381.00,0.0074
2380.00,0.0074
2379.00,0.0074
2378.00,0.0074
2377.00,0.0074
2376.00,0.0074
2375.00,0.0074
2374.00,0.0074
2373.00,0.0074
2372.00,0.0073
2371.00,0.0073
2370.00,0.0072
2369.00,0.0072
2368.00,0.0072
2367.00,0.0072
2366.00,0.0072
2365.00,0.0072
2364.00,0.0072
2363.00,0.0072
2362.00,0.0072
2361.00,0.0072
2360.00,0.0073
2359.00,0.0073
2358.00,0.0073
2357.00,0.0073
2356.00,0.0073
2355.00,0.0073
2354.00,0.0072
2353.00,0.0072
2352.00,0.0072
2351.00,0.0071
2350.00,0.0071
2349.00,0.0072
2348.00,0.0074
2347.00,0.0076
2346.00,0.0077
2345.00,0.0077
2344.00,0.0076
2343.00,0.0075
2342.00,0.0074
2341.00,0.0075
2340.00,0.0075
2339.00,0.0075
2338.00,0.0076
2337.00,0.0076
2336.00,0.0076
2335.00,0.0075
2334.00,0.0075
2333.00,0.0075
2332.00,0.0074
2331.00,0.0074
2330.00,0.0074
2329.00,0.0076
2328.00,0.0079
2327.00,0.0083
2326.00,0.0086
2325.00,0.0087
2324.00,0.0087
2323.00,0.0084
2322.00,0.0082
2321.00,0.0081
2320.00,0.0079
2319.00,0.0079
2318.00,0.0078
2317.00,0.0078
2316.00,0.0078
2315.00,0.0078
2314.00,0.0077
2313.00,0.0077
2312.00,0.0077
2311.00,0.0076
2310.00,0.0075
2309.00,0.0075
2308.00,0.0074
2307.00,0.0075
2306.00,0.0075
2305.00,0.0076
2304.00,0.0076
2303.00,0.0076
2302.00,0.0076
2301.00,0.0076
2300.00,0.0077
2299.00,0.0077
2298.00,0.0078
2297.00,0.0078
2296.00,0.0079
2295.00,0.0079
2294.00,0.0080
2293.00,0.0081
2292.00,0.0081
2291.00,0.0082
2290.00,0.0083
2289.00,0.0084
2288.00,0.0084
2287.00,0.0084
2286.00,0.0084
2285.00,0.0083
2284.00,0.0083
2283.00,0.0082
2282.00,0.0081
2281.00,0.0080
2280.00,0.0080
2279.00,0.0079
2278.00,0.0079
2277.00,0.0078
2276.00,0.0078
2275.00,0.0077
2274.00,0.0077
2273.00,0.0077
2272.00,0.0077
2271.00,0.0077
2270.00,0.0077
2269.00,0.0076
2268.00,0.0075
2267.00,0.0074
2266.00,0.0074
2265.00,0.0073
2264.00,0.0073
2263.00,0.0073
2262.00,0.0074
2261.00,0.0074
2260.00,0.0074
2259.00,0.0074
2258.00,0.0074
2257.00,0.0073
2256.00,0.0072
2255.00,0.0070
2254.00,0.0070
2253.00,0.0070
2252.00,0.0070
2251.00,0.0070
2250.00,0.0070
2249.00,0.0070
2248.00,0.0070
2247.00,0.0070
2246.00,0.0071
2245.00,0.0072
2244.00,0.0072
2243.00,0.0072
2242.00,0.0071
2241.00,0.0071
2240.00,0.0070
2239.00,0.0070
2238.00,0.0070
2237.00,0.0070
2236.00,0.0071
2235.00,0.0070
2234.00,0.0070
2233.00,0.0069
2232.00,0.0069
2231.00,0.0068
2230.00,0.0068
2229.00,0.0068
2228.00,0.0069
2227.00,0.0069
2226.00,0.0069
2225.00,0.0069
2224.00,0.0069
2223.00,0.0069
2222.00,0.0068
2221.00,0.0068
2220.00,0.0068
2219.00,0.0068
2218.00,0.0068
2217.00,0.0067
2216.00,0.0067
2215.00,0.0067
2214.00,0.0066
2213.00,0.0066
2212.00,0.0066
2211.00,0.0066
2210.00,0.0066
2209.00,0.0067
2208.00,0.0067
2207.00,0.0067
2206.00,0.0067
2205.00,0.0067
2204.00,0.0068
2203.00,0.0068
2202.00,0.0069
2201.00,0.0068
2200.00,0.0068
2199.00,0.0068
2198.00,0.0068
2197.00,0.0069
2196.00,0.0070
2195.00,0.0070
2194.00,0.0069
2193.00,0.0069
2192.00,0.0069
2191.00,0.0069
2190.00,0.0070
2189.00,0.0070
2188.00,0.0070
2187.00,0.0069
2186.00,0.0068
2185.00,0.0066
2184.00,0.0063
2183.00,0.0060
2182.00,0.0058
2181.00,0.0058
2180.00,0.0060
2179.00,0.0063
2178.00,0.0063
2177.00,0.0062
2176.00,0.0062
2175.00,0.0061
2174.00,0.0062
2173.00,0.0063
2172.00,0.0065
2171.00,0.0067
2170.00,0.0069
2169.00,0.0072
2168.00,0.0073
2167.00,0.0073
2166.00,0.0072
2165.00,0.0073
2164.00,0.0074
2163.00,0.0074
2162.00,0.0070
2161.00,0.0059
2160.00,0.0045
2159.00,0.0034
2158.00,0.0029
2157.00,0.0030
2156.00,0.0032
2155.00,0.0035
2154.00,0.0037
2153.00,0.0038
2152.00,0.0040
2151.00,0.0042
2150.00,0.0042
2149.00,0.0043
2148.00,0.0044
2147.00,0.0044
2146.00,0.0045
2145.00,0.0044
2144.00,0.0044
2143.00,0.0044
2142.00,0.0045
2141.00,0.0046
2140.00,0.0048
2139.00,0.0048
2138.00,0.0047
2137.00,0.0045
2136.00,0.0043
2135.00,0.0042
2134.00,0.0041
2133.00,0.0042
2132.00,0.0044
2131.00,0.0045
2130.00,0.0047
2129.00,0.0049
2128.00,0.0051
2127.00,0.0052
2126.00,0.0053
2125.00,0.0054
2124.00,0.0055
2123.00,0.0056
2122.00,0.0057
2121.00,0.0057
2120.00,0.0058
2119.00,0.0059
2118.00,0.0061
2117.00,0.0062
2116.00,0.0062
2115.00,0.0062
2114.00,0.0062
2113.00,0.0061
2112.00,0.0061
2111.00,0.0061
2110.00,0.0061
2109.00,0.0061
2108.00,0.0061
2107.00,0.0061
2106.00,0.0061
2105.00,0.0061
2104.00,0.0061
2103.00,0.0061
2102.00,0.0061
2101.00,0.0061
2100.00,0.0061
2099.00,0.0061
2098.00,0.0060
2097.00,0.0059
2096.00,0.0058
2095.00,0.0057
2094.00,0.0057
2093.00,0.0057
2092.00,0.0057
2091.00,0.0058
2090.00,0.0059
2089.00,0.0060
2088.00,0.0061
2087.00,0.0061
2086.00,0.0061
2085.00,0.0062
2084.00,0.0062
2083.00,0.0062
2082.00,0.0062
2081.00,0.0062
2080.00,0.0062
2079.00,0.0062
2078.00,0.0062
2077.00,0.0061
2076.00,0.0061
2075.00,0.0060
2074.00,0.0060
2073.00,0.0059
2072.00,0.0059
2071.00,0.0059
2070.00,0.0059
2069.00,0.0058
2068.00,0.0058
2067.00,0.0059
2066.00,0.0059
2065.00,0.0059
2064.00,0.0059
2063.00,0.0059
2062.00,0.0057
2061.00,0.0056
2060.00,0.0056
2059.00,0.0056
2058.00,0.0056
2057.00,0.0057
2056.00,0.0057
2055.00,0.0058
2054.00,0.0060
2053.00,0.0064
2052.00,0.0067
2051.00,0.0068
2050.00,0.0065
2049.00,0.0061
2048.00,0.0058
2047.00,0.0056
2046.00,0.0055
2045.00,0.0054
2044.00,0.0053
2043.00,0.0054
2042.00,0.0055
2041.00,0.0056
2040.00,0.0058
2039.00,0.0059
2038.00,0.0059
2037.00,0.0057
2036.00,0.0056
2035.00,0.0054
2034.00,0.0052
2033.00,0.0051
2032.00,0.0051
2031.00,0.0050
2030.00,0.0050
2029.00,0.0049
2028.00,0.0049
2027.00,0.0048
2026.00,0.0047
2025.00,0.0047
2024.00,0.0047
2023.00,0.0048
2022.00,0.0049
2021.00,0.0050
2020.00,0.0049
2019.00,0.0048
2018.00,0.0047
2017.00,0.0047
2016.00,0.0046
2015.00,0.0047
2014.00,0.0047
2013.00,0.0049
2012.00,0.0051
2011.00,0.0052
2010.00,0.0052
2009.00,0.0050
2008.00,0.0048
2007.00,0.0045
2006.00,0.0044
2005.00,0.0044
2004.00,0.0045
2003.00,0.0046
2002.00,0.0047
2001.00,0.0048
2000.00,0.0050
1999.00,0.0051
1998.00,0.0051
1997.00,0.0051
1996.00,0.0052
1995.00,0.0053
1994.00,0.0053
1993.00,0.0054
1992.00,0.0055
1991.00,0.0056
1990.00,0.0056
1989.00,0.0057
1988.00,0.0057
1987.00,0.0057
1986.00,0.0058
1985.00,0.0059
1984.00,0.0062
1983.00,0.0065
1982.00,0.0067
1981.00,0.0067
1980.00,0.0064
1979.00,0.0058
1978.00,0.0051
1977.00,0.0047
1976.00,0.0045
1975.00,0.0044
1974.00,0.0044
1973.00,0.0045
1972.00,0.0046
1971.00,0.0047
1970.00,0.0048
1969.00,0.0049
1968.00,0.0048
1967.00,0.0047
1966.00,0.0046
1965.00,0.0045
1964.00,0.0045
1963.00,0.0043
1962.00,0.0042
1961.00,0.0041
1960.00,0.0041
1959.00,0.0041
1958.00,0.0042
1957.00,0.0043
1956.00,0.0044
1955.00,0.0045
1954.00,0.0045
1953.00,0.0045
1952.00,0.0046
1951.00,0.0046
1950.00,0.0047
1949.00,0.0048
1948.00,0.0048
1947.00,0.0048
1946.00,0.0046
1945.00,0.0046
1944.00,0.0046
1943.00,0.0046
1942.00,0.0047
1941.00,0.0047
1940.00,0.0048
1939.00,0.0049
1938.00,0.0049
1937.00,0.0050
1936.00,0.0050
1935.00,0.0050
1934.00,0.0049
1933.00,0.0049
1932.00,0.0049
1931.00,0.0049
1930.00,0.0049
1929.00,0.0049
1928.00,0.0050
1927.00,0.0050
1926.00,0.0049
1925.00,0.0050
1924.00,0.0050
1923.00,0.0051
1922.00,0.0051
1921.00,0.0052
1920.00,0.0052
1919.00,0.0052
1918.00,0.0052
1917.00,0.0051
1916.00,0.0052
1915.00,0.0052
1914.00,0.0053
1913.00,0.0053
1912.00,0.0053
1911.00,0.0053
1910.00,0.0053
1909.00,0.0053
1908.00,0.0053
1907.00,0.0053
1906.00,0.0053
1905.00,0.0053
1904.00,0.0054
1903.00,0.0054
1902.00,0.0054
1901.00,0.0054
1900.00,0.0054
1899.00,0.0054
1898.00,0.0054
1897.00,0.0054
1896.00,0.0054
1895.00,0.0054
1894.00,0.0053
1893.00,0.0053
1892.00,0.0054
1891.00,0.0054
1890.00,0.0055
1889.00,0.0054
1888.00,0.0054
1887.00,0.0054
1886.00,0.0054
1885.00,0.0054
1884.00,0.0055
1883.00,0.0055
1882.00,0.0055
1881.00,0.0055
1880.00,0.0055
1879.00,0.0055
1878.00,0.0055
1877.00,0.0055
1876.00,0.0055
1875.00,0.0054
1874.00,0.0054
1873.00,0.0054
1872.00,0.0054
1871.00,0.0055
1870.00,0.0055
1869.00,0.0055
1868.00,0.0055
1867.00,0.0055
1866.00,0.0055
1865.00,0.0054
1864.00,0.0055
1863.00,0.0055
1862.00,0.0055
1861.00,0.0055
1860.00,0.0055
1859.00,0.0055
1858.00,0.0055
1857.00,0.0055
1856.00,0.0055
1855.00,0.0055
1854.00,0.0055
1853.00,0.0055
1852.00,0.0055
1851.00,0.0055
1850.00,0.0055
1849.00,0.0055
1848.00,0.0056
1847.00,0.0056
1846.00,0.0056
1845.00,0.0056
1844.00,0.0056
1843.00,0.0056
1842.00,0.0056
1841.00,0.0056
1840.00,0.0056
1839.00,0.0056
1838.00,0.0055
1837.00,0.0055
1836.00,0.0055
1835.00,0.0055
1834.00,0.0056
1833.00,0.0056
1832.00,0.0057
1831.00,0.0057
1830.00,0.0057
1829.00,0.0057
1828.00,0.0057
1827.00,0.0057
1826.00,0.0057
1825.00,0.0057
1824.00,0.0057
1823.00,0.0057
1822.00,0.0056
1821.00,0.0056
1820.00,0.0055
1819.00,0.0055
1818.00,0.0054
1817.00,0.0053
1816.00,0.0054
1815.00,0.0054
1814.00,0.0055
1813.00,0.0056
1812.00,0.0056
1811.00,0.0057
1810.00,0.0057
1809.00,0.0057
1808.00,0.0057
1807.00,0.0057
1806.00,0.0057
1805.00,0.0057
1804.00,0.0058
1803.00,0.0058
1802.00,0.0058
1801.00,0.0058
1800.00,0.0058
1799.00,0.0058
1798.00,0.0058
1797.00,0.0058
1796.00,0.0058
1795.00,0.0059
1794.00,0.0059
1793.00,0.0058
1792.00,0.0059
1791.00,0.0059
1790.00,0.0059
1789.00,0.0059
1788.00,0.0059
1787.00,0.0060
1786.00,0.0060
1785.00,0.0060
1784.00,0.0060
1783.00,0.0060
1782.00,0.0060
1781.00,0.0060
1780.00,0.0060
1779.00,0.0060
1778.00,0.0060
1777.00,0.0060
1776.00,0.0061
1775.00,0.0061
1774.00,0.0061
1773.00,0.0061
1772.00,0.0061
1771.00,0.0061
1770.00,0.0061
1769.00,0.0062
1768.00,0.0062
1767.00,0.0062
1766.00,0.0062
1765.00,0.0062
1764.00,0.0063
1763.00,0.0063
1762.00,0.0063
1761.00,0.0062
1760.00,0.0063
1759.00,0.0063
1758.00,0.0063
1757.00,0.0063
1756.00,0.0063
1755.00,0.0064
1754.00,0.0064
1753.00,0.0064
1752.00,0.0065
1751.00,0.0065
1750.00,0.0064
1749.00,0.0064
1748.00,0.0064
1747.00,0.0065
1746.00,0.0065
1745.00,0.0066
1744.00,0.0066
1743.00,0.0067
1742.00,0.0067
1741.00,0.0067
1740.00,0.0067
1739.00,0.0068
1738.00,0.0069
1737.00,0.0070
1736.00,0.0071
1735.00,0.0071
1734.00,0.0071
1733.00,0.0071
1732.00,0.0072
1731.00,0.0073
1730.00,0.0073
1729.00,0.0074
1728.00,0.0075
1727.00,0.0076
1726.00,0.0076
1725.00,0.0077
1724.00,0.0079
1723.00,0.0080
1722.00,0.0081
1721.00,0.0083
1720.00,0.0085
1719.00,0.0086
1718.00,0.0087
1717.00,0.0088
1716.00,0.0090
1715.00,0.0092
1714.00,0.0094
1713.00,0.0097
1712.00,0.0100
1711.00,0.0104
1710.00,0.0107
1709.00,0.0112
1708.00,0.0117
1707.00,0.0123
1706.00,0.0131
1705.00,0.0139
1704.00,0.0148
1703.00,0.0156
1702.00,0.0166
1701.00,0.0182
1700.00,0.0202
1699.00,0.0220
1698.00,0.0234
1697.00,0.0251
1696.00,0.0277
1695.00,0.0305
1694.00,0.0328
1693.00,0.0347
1692.00,0.0367
1691.00,0.0390
1690.00,0.0413
1689.00,0.0436
1688.00,0.0457
1687.00,0.0473
1686.00,0.0490
1685.00,0.0510
1684.00,0.0535
1683.00,0.0554
1682.00,0.0564
1681.00,0.0571
1680.00,0.0577
1679.00,0.0582
1678.00,0.0587
1677.00,0.0592
1676.00,0.0599
1675.00,0.0607
1674.00,0.0615
1673.00,0.0621
1672.00,0.0628
1671.00,0.0637
1670.00,0.0651
1669.00,0.0668
1668.00,0.0683
1667.00,0.0695
1666.00,0.0705
1665.00,0.0715
1664.00,0.0727
1663.00,0.0741
1662.00,0.0754
1661.00,0.0764
1660.00,0.0770
1659.00,0.0774
1658.00,0.0777
1657.00,0.0777
1656.00,0.0775
1655.00,0.0772
1654.00,0.0768
1653.00,0.0763
1652.00,0.0754
1651.00,0.0741
1650.00,0.0726
1649.00,0.0711
1648.00,0.0692
1647.00,0.0672
1646.00,0.0649
1645.00,0.0627
1644.00,0.0606
1643.00,0.0584
1642.00,0.0561
1641.00,0.0538
1640.00,0.0515
1639.00,0.0493
1638.00,0.0471
1637.00,0.0450
1636.00,0.0427
1635.00,0.0408
1634.00,0.0392
1633.00,0.0381
1632.00,0.0372
1631.00,0.0365
1630.00,0.0359
1629.00,0.0356
1628.00,0.0354
1627.00,0.0352
1626.00,0.0351
1625.00,0.0349
1624.00,0.0346
1623.00,0.0344
1622.00,0.0342
1621.00,0.0339
1620.00,0.0334
1619.00,0.0330
1618.00,0.0325
1617.00,0.0318
1616.00,0.0309
1615.00,0.0300
1614.00,0.0291
1613.00,0.0280
1612.00,0.0269
1611.00,0.0258
1610.00,0.0248
1609.00,0.0238
1608.00,0.0229
1607.00,0.0222
1606.00,0.0217
1605.00,0.0213
1604.00,0.0211
1603.00,0.0211
1602.00,0.0213
1601.00,0.0217
1600.00,0.0222
1599.00,0.0229
1598.00,0.0236
1597.00,0.0244
1596.00,0.0252
1595.00,0.0260
1594.00,0.0267
1593.00,0.0273
1592.00,0.0277
1591.00,0.0280
1590.00,0.0283
1589.00,0.0285
1588.00,0.0286
1587.00,0.0286
1586.00,0.0284
1585.00,0.0281
1584.00,0.0277
1583.00,0.0271
1582.00,0.0263
1581.00,0.0255
1580.00,0.0246
1579.00,0.0237
1578.00,0.0228
1577.00,0.0218
1576.00,0.0208
1575.00,0.0198
1574.00,0.0191
1573.00,0.0185
1572.00,0.0179
1571.00,0.0173
1570.00,0.0167
1569.00,0.0161
1568.00,0.0156
1567.00,0.0151
1566.00,0.0147
1565.00,0.0144
1564.00,0.0141
1563.00,0.0138
1562.00,0.0137
1561.00,0.0136
1560.00,0.0134
1559.00,0.0130
1558.00,0.0128
1557.00,0.0127
1556.00,0.0125
1555.00,0.0123
1554.00,0.0121
1553.00,0.0120
1552.00,0.0119
1551.00,0.0118
1550.00,0.0118
1549.00,0.0117
1548.00,0.0117
1547.00,0.0117
1546.00,0.0117
1545.00,0.0117
1544.00,0.0117
1543.00,0.0117
1542.00,0.0117
1541.00,0.0117
1540.00,0.0117
1539.00,0.0117
1538.00,0.0117
1537.00,0.0117
1536.00,0.0117
1535.00,0.0117
1534.00,0.0117
1533.00,0.0117
1532.00,0.0117
1531.00,0.0117
1530.00,0.0117
1529.00,0.0118
1528.00,0.0119
1527.00,0.0119
1526.00,0.0120
1525.00,0.0121
1524.00,0.0122
1523.00,0.0123
1522.00,0.0124
1521.00,0.0124
1520.00,0.0125
1519.00,0.0125
1518.00,0.0125
1517.00,0.0125
1516.00,0.0125
1515.00,0.0125
1514.00,0.0124
1513.00,0.0124
1512.00,0.0124
1511.00,0.0124
1510.00,0.0124
1509.00,0.0124
1508.00,0.0125
1507.00,0.0128
1506.00,0.0132
1505.00,0.0135
1504.00,0.0138
1503.00,0.0142
1502.00,0.0147
1501.00,0.0154
1500.00,0.0161
1499.00,0.0170
1498.00,0.0178
1497.00,0.0186
1496.00,0.0193
1495.00,0.0198
1494.00,0.0200
1493.00,0.0200
1492.00,0.0198
1491.00,0.0194
1490.00,0.0187
1489.00,0.0178
1488.00,0.0170
1487.00,0.0161
1486.00,0.0153
1485.00,0.0147
1484.00,0.0142
1483.00,0.0137
1482.00,0.0134
1481.00,0.0132
1480.00,0.0131
1479.00,0.0131
1478.00,0.0133
1477.00,0.0136
1476.00,0.0140
1475.00,0.0145
1474.00,0.0153
1473.00,0.0164
1472.00,0.0179
1471.00,0.0195
1470.00,0.0211
1469.00,0.0227
1468.00,0.0245
1467.00,0.0265
1466.00,0.0287
1465.00,0.0310
1464.00,0.0332
1463.00,0.0347
1462.00,0.0355
1461.00,0.0360
1460.00,0.0362
1459.00,0.0359
1458.00,0.0353
1457.00,0.0345
1456.00,0.0337
1455.00,0.0330
1454.00,0.0327
1453.00,0.0327
1452.00,0.0329
1451.00,0.0334
1450.00,0.0343
1449.00,0.0354
1448.00,0.0369
1447.00,0.0385
1446.00,0.0400
1445.00,0.0415
1444.00,0.0430
1443.00,0.0445
1442.00,0.0459
1441.00,0.0471
1440.00,0.0482
1439.00,0.0490
1438.00,0.0499
1437.00,0.0509
1436.00,0.0518
1435.00,0.0525
1434.00,0.0531
1433.00,0.0538
1432.00,0.0547
1431.00,0.0559
1430.00,0.0571
1429.00,0.0583
1428.00,0.0592
1427.00,0.0598
1426.00,0.0601
1425.00,0.0603
1424.00,0.0603
1423.00,0.0600
1422.00,0.0592
1421.00,0.0580
1420.00,0.0560
1419.00,0.0531
1418.00,0.0499
1417.00,0.0466
1416.00,0.0435
1415.00,0.0405
1414.00,0.0377
1413.00,0.0352
1412.00,0.0330
1411.00,0.0310
1410.00,0.0294
1409.00,0.0281
1408.00,0.0270
1407.00,0.0262
1406.00,0.0255
1405.00,0.0250
1404.00,0.0245
1403.00,0.0242
1402.00,0.0240
1401.00,0.0238
1400.00,0.0236
1399.00,0.0236
1398.00,0.0236
1397.00,0.0236
1396.00,0.0236
1395.00,0.0236
1394.00,0.0238
1393.00,0.0238
1392.00,0.0239
1391.00,0.0240
1390.00,0.0242
1389.00,0.0245
1388.00,0.0248
1387.00,0.0251
1386.00,0.0256
1385.00,0.0260
1384.00,0.0266
1383.00,0.0273
1382.00,0.0281
1381.00,0.0291
1380.00,0.0300
1379.00,0.0310
1378.00,0.0319
1377.00,0.0326
1376.00,0.0331
1375.00,0.0334
1374.00,0.0333
1373.00,0.0330
1372.00,0.0324
1371.00,0.0317
1370.00,0.0311
1369.00,0.0304
1368.00,0.0297
1367.00,0.0290
1366.00,0.0284
1365.00,0.0277
1364.00,0.0270
1363.00,0.0263
1362.00,0.0257
1361.00,0.0251
1360.00,0.0246
1359.00,0.0242
1358.00,0.0238
1357.00,0.0235
1356.00,0.0233
1355.00,0.0231
1354.00,0.0229
1353.00,0.0227
1352.00,0.0225
1351.00,0.0223
1350.00,0.0222
1349.00,0.0220
1348.00,0.0218
1347.00,0.0216
1346.00,0.0215
1345.00,0.0213
1344.00,0.0212
1343.00,0.0211
1342.00,0.0211
1341.00,0.0210
1340.00,0.0210
1339.00,0.0210
1338.00,0.0210
1337.00,0.0210
1336.00,0.0211
1335.00,0.0212
1334.00,0.0213
1333.00,0.0214
1332.00,0.0215
1331.00,0.0216
1330.00,0.0219
1329.00,0.0221
1328.00,0.0224
1327.00,0.0229
1326.00,0.0234
1325.00,0.0240
1324.00,0.0246
1323.00,0.0253
1322.00,0.0260
1321.00,0.0266
1320.00,0.0272
1319.00,0.0276
1318.00,0.0279
1317.00,0.0280
1316.00,0.0279
1315.00,0.0277
1314.00,0.0274
1313.00,0.0270
1312.00,0.0265
1311.00,0.0261
1310.00,0.0258
1309.00,0.0255
1308.00,0.0252
1307.00,0.0251
1306.00,0.0251
1305.00,0.0252
1304.00,0.0254
1303.00,0.0259
1302.00,0.0266
1301.00,0.0276
1300.00,0.0290
1299.00,0.0308
1298.00,0.0330
1297.00,0.0356
1296.00,0.0386
1295.00,0.0417
1294.00,0.0448
1293.00,0.0477
1292.00,0.0503
1291.00,0.0524
1290.00,0.0540
1289.00,0.0551
1288.00,0.0556
1287.00,0.0556
1286.00,0.0552
1285.00,0.0543
1284.00,0.0532
1283.00,0.0518
1282.00,0.0504
1281.00,0.0492
1280.00,0.0482
1279.00,0.0474
1278.00,0.0471
1277.00,0.0469
1276.00,0.0470
1275.00,0.0471
1274.00,0.0472
1273.00,0.0472
1272.00,0.0471
1271.00,0.0466
1270.00,0.0459
1269.00,0.0450
1268.00,0.0438
1267.00,0.0425
1266.00,0.0412
1265.00,0.0400
1264.00,0.0387
1263.00,0.0376
1262.00,0.0367
1261.00,0.0360
1260.00,0.0355
1259.00,0.0353
1258.00,0.0352
1257.00,0.0354
1256.00,0.0357
1255.00,0.0360
1254.00,0.0365
1253.00,0.0369
1252.00,0.0372
1251.00,0.0374
1250.00,0.0375
1249.00,0.0376
1248.00,0.0376
1247.00,0.0375
1246.00,0.0373
1245.00,0.0371
1244.00,0.0368
1243.00,0.0365
1242.00,0.0360
1241.00,0.0355
1240.00,0.0349
1239.00,0.0344
1238.00,0.0338
1237.00,0.0333
1236.00,0.0329
1235.00,0.0325
1234.00,0.0322
1233.00,0.0319
1232.00,0.0317
1231.00,0.0315
1230.00,0.0314
1229.00,0.0313
1228.00,0.0312
1227.00,0.0312
1226.00,0.0311
1225.00,0.0310
1224.00,0.0308
1223.00,0.0306
1222.00,0.0304
1221.00,0.0301
1220.00,0.0298
1219.00,0.0294
1218.00,0.0291
1217.00,0.0287
1216.00,0.0283
1215.00,0.0279
1214.00,0.0275
1213.00,0.0271
1212.00,0.0266
1211.00,0.0262
1210.00,0.0259
1209.00,0.0256
1208.00,0.0253
1207.00,0.0252
1206.00,0.0252
1205.00,0.0252
1204.00,0.0252
1203.00,0.0252
1202.00,0.0250
1201.00,0.0248
1200.00,0.0244
1199.00,0.0239
1198.00,0.0235
1197.00,0.0230
1196.00,0.0226
1195.00,0.0223
1194.00,0.0220
1193.00,0.0217
1192.00,0.0215
1191.00,0.0214
1190.00,0.0213
1189.00,0.0212
1188.00,0.0211
1187.00,0.0210
1186.00,0.0209
1185.00,0.0207
1184.00,0.0206
1183.00,0.0205
1182.00,0.0205
1181.00,0.0205
1180.00,0.0207
1179.00,0.0210
1178.00,0.0214
1177.00,0.0219
1176.00,0.0225
1175.00,0.0230
1174.00,0.0236
1173.00,0.0240
1172.00,0.0242
1171.00,0.0243
1170.00,0.0241
1169.00,0.0238
1168.00,0.0233
1167.00,0.0226
1166.00,0.0220
1165.00,0.0214
1164.00,0.0207
1163.00,0.0202
1162.00,0.0198
1161.00,0.0196
1160.00,0.0195
1159.00,0.0197
1158.00,0.0201
1157.00,0.0208
1156.00,0.0215
1155.00,0.0223
1154.00,0.0230
1153.00,0.0235
1152.00,0.0237
1151.00,0.0235
1150.00,0.0231
1149.00,0.0224
1148.00,0.0215
1147.00,0.0204
1146.00,0.0193
1145.00,0.0182
1144.00,0.0172
1143.00,0.0163
1142.00,0.0157
1141.00,0.0153
1140.00,0.0149
1139.00,0.0147
1138.00,0.0146
1137.00,0.0146
1136.00,0.0145
1135.00,0.0144
1134.00,0.0142
1133.00,0.0141
1132.00,0.0139
1131.00,0.0138
1130.00,0.0136
1129.00,0.0135
1128.00,0.0134
1127.00,0.0133
1126.00,0.0133
1125.00,0.0133
1124.00,0.0132
1123.00,0.0132
1122.00,0.0132
1121.00,0.0133
1120.00,0.0133
1119.00,0.0134
1118.00,0.0135
1117.00,0.0135
1116.00,0.0136
1115.00,0.0137
1114.00,0.0138
1113.00,0.0139
1112.00,0.0140
1111.00,0.0140
1110.00,0.0141
1109.00,0.0142
1108.00,0.0142
1107.00,0.0143
1106.00,0.0143
1105.00,0.0144
1104.00,0.0145
1103.00,0.0145
1102.00,0.0147
1101.00,0.0148
1100.00,0.0150
1099.00,0.0152
1098.00,0.0153
1097.00,0.0155
1096.00,0.0155
1095.00,0.0155
1094.00,0.0155
1093.00,0.0153
1092.00,0.0150
1091.00,0.0148
1090.00,0.0145
1089.00,0.0143
1088.00,0.0142
1087.00,0.0141
1086.00,0.0141
1085.00,0.0142
1084.00,0.0143
1083.00,0.0145
1082.00,0.0147
1081.00,0.0150
1080.00,0.0152
1079.00,0.0154
1078.00,0.0156
1077.00,0.0157
1076.00,0.0158
1075.00,0.0158
1074.00,0.0157
1073.00,0.0156
1072.00,0.0153
1071.00,0.0151
1070.00,0.0149
1069.00,0.0147
1068.00,0.0146
1067.00,0.0145
1066.00,0.0146
1065.00,0.0148
1064.00,0.0151
1063.00,0.0156
1062.00,0.0164
1061.00,0.0175
1060.00,0.0189
1059.00,0.0205
1058.00,0.0224
1057.00,0.0241
1056.00,0.0254
1055.00,0.0262
1054.00,0.0263
1053.00,0.0256
1052.00,0.0244
1051.00,0.0229
1050.00,0.0213
1049.00,0.0199
1048.00,0.0188
1047.00,0.0180
1046.00,0.0176
1045.00,0.0176
1044.00,0.0178
1043.00,0.0182
1042.00,0.0188
1041.00,0.0196
1040.00,0.0207
1039.00,0.0220
1038.00,0.0236
1037.00,0.0255
1036.00,0.0275
1035.00,0.0296
1034.00,0.0316
1033.00,0.0335
1032.00,0.0350
1031.00,0.0360
1030.00,0.0366
1029.00,0.0365
1028.00,0.0360
1027.00,0.0350
1026.00,0.0337
1025.00,0.0322
1024.00,0.0308
1023.00,0.0295
1022.00,0.0285
1021.00,0.0276
1020.00,0.0269
1019.00,0.0263
1018.00,0.0257
1017.00,0.0251
1016.00,0.0243
1015.00,0.0235
1014.00,0.0227
1013.00,0.0218
1012.00,0.0210
1011.00,0.0202
1010.00,0.0197
1009.00,0.0193
1008.00,0.0189
1007.00,0.0187
1006.00,0.0186
1005.00,0.0185
1004.00,0.0185
1003.00,0.0184
1002.00,0.0183
1001.00,0.0181
1000.00,0.0178
999.00,0.0175
998.00,0.0172
997.00,0.0169
996.00,0.0165
995.00,0.0162
994.00,0.0159
993.00,0.0157
992.00,0.0156
991.00,0.0156
990.00,0.0157
989.00,0.0157
988.00,0.0156
987.00,0.0156
986.00,0.0154
985.00,0.0152
984.00,0.0149
983.00,0.0146
982.00,0.0144
981.00,0.0141
980.00,0.0139
979.00,0.0138
978.00,0.0136
977.00,0.0136
976.00,0.0135
975.00,0.0135
974.00,0.0135
973.00,0.0135
972.00,0.0135
971.00,0.0135
970.00,0.0135
969.00,0.0136
968.00,0.0136
967.00,0.0137
966.00,0.0137
965.00,0.0138
964.00,0.0137
963.00,0.0137
962.00,0.0136
961.00,0.0135
960.00,0.0133
959.00,0.0131
958.00,0.0128
957.00,0.0124
956.00,0.0120
955.00,0.0117
954.00,0.0113
953.00,0.0110
952.00,0.0106
951.00,0.0104
950.00,0.0103
949.00,0.0102
948.00,0.0101
947.00,0.0100
946.00,0.0099
945.00,0.0099
944.00,0.0098
943.00,0.0098
942.00,0.0099
941.00,0.0100
940.00,0.0101
939.00,0.0103
938.00,0.0106
937.00,0.0110
936.00,0.0113
935.00,0.0116
934.00,0.0118
933.00,0.0120
932.00,0.0120
931.00,0.0120
930.00,0.0118
929.00,0.0116
928.00,0.0114
927.00,0.0112
926.00,0.0110
925.00,0.0109
924.00,0.0108
923.00,0.0107
922.00,0.0107
921.00,0.0107
920.00,0.0107
919.00,0.0108
918.00,0.0109
917.00,0.0110
916.00,0.0111
915.00,0.0113
914.00,0.0115
913.00,0.0116
912.00,0.0118
911.00,0.0119
910.00,0.0121
909.00,0.0124
908.00,0.0126
907.00,0.0130
906.00,0.0135
905.00,0.0141
904.00,0.0147
903.00,0.0153
902.00,0.0160
901.00,0.0165
900.00,0.0169
899.00,0.0173
898.00,0.0177
897.00,0.0181
896.00,0.0185
895.00,0.0189
894.00,0.0192
893.00,0.0196
892.00,0.0200
891.00,0.0204
890.00,0.0208
889.00,0.0212
888.00,0.0216
887.00,0.0219
886.00,0.0222
885.00,0.0224
884.00,0.0225
883.00,0.0225
882.00,0.0224
881.00,0.0222
880.00,0.0218
879.00,0.0214
878.00,0.0210
877.00,0.0205
876.00,0.0200
875.00,0.0194
874.00,0.0190
873.00,0.0185
872.00,0.0181
871.00,0.0178
870.00,0.0176
869.00,0.0174
868.00,0.0174
867.00,0.0174
866.00,0.0176
865.00,0.0178
864.00,0.0180
863.00,0.0182
862.00,0.0184
861.00,0.0187
860.00,0.0190
859.00,0.0194
858.00,0.0199
857.00,0.0203
856.00,0.0208
855.00,0.0213
854.00,0.0218
853.00,0.0223
852.00,0.0227
851.00,0.0230
850.00,0.0233
849.00,0.0235
848.00,0.0237
847.00,0.0238
846.00,0.0240
845.00,0.0242
844.00,0.0243
843.00,0.0243
842.00,0.0243
841.00,0.0243
840.00,0.0244
839.00,0.0245
838.00,0.0247
837.00,0.0249
836.00,0.0251
835.00,0.0253
834.00,0.0255
833.00,0.0257
832.00,0.0259
831.00,0.0260
830.00,0.0261
829.00,0.0261
828.00,0.0259
827.00,0.0255
826.00,0.0251
825.00,0.0246
824.00,0.0240
823.00,0.0233
822.00,0.0227
821.00,0.0220
820.00,0.0213
819.00,0.0207
818.00,0.0202
817.00,0.0197
816.00,0.0193
815.00,0.0190
814.00,0.0188
813.00,0.0186
812.00,0.0185
811.00,0.0184
810.00,0.0184
809.00,0.0185
808.00,0.0187
807.00,0.0189
806.00,0.0192
805.00,0.0193
804.00,0.0193
803.00,0.0191
802.00,0.0188
801.00,0.0184
800.00,0.0181
799.00,0.0179
798.00,0.0178
797.00,0.0178
796.00,0.0178
795.00,0.0179
794.00,0.0179
793.00,0.0180
792.00,0.0179
791.00,0.0177
790.00,0.0175
789.00,0.0172
788.00,0.0170
787.00,0.0167
786.00,0.0166
785.00,0.0165
784.00,0.0164
783.00,0.0162
782.00,0.0162
781.00,0.0162
780.00,0.0162
779.00,0.0164
778.00,0.0167
777.00,0.0169
776.00,0.0172
775.00,0.0174
774.00,0.0176
773.00,0.0178
772.00,0.0180
771.00,0.0181
770.00,0.0181
769.00,0.0182
768.00,0.0182
767.00,0.0182
766.00,0.0183
765.00,0.0185
764.00,0.0186
763.00,0.0188
762.00,0.0191
761.00,0.0195
760.00,0.0199
759.00,0.0203
758.00,0.0207
757.00,0.0211
756.00,0.0213
755.00,0.0214
754.00,0.0214
753.00,0.0214
752.00,0.0213
751.00,0.0211
750.00,0.0210
749.00,0.0210
748.00,0.0210
747.00,0.0210
746.00,0.0212
745.00,0.0213
744.00,0.0214
743.00,0.0216
742.00,0.0218
741.00,0.0222
740.00,0.0224
739.00,0.0227
738.00,0.0230
737.00,0.0234
736.00,0.0236
735.00,0.0239
734.00,0.0241
733.00,0.0242
732.00,0.0242
731.00,0.0241
730.00,0.0239
729.00,0.0236
728.00,0.0232
727.00,0.0228
726.00,0.0225
725.00,0.0221
724.00,0.0217
723.00,0.0214
722.00,0.0211
721.00,0.0208
720.00,0.0206
719.00,0.0204
718.00,0.0202
717.00,0.0201
716.00,0.0200
715.00,0.0199
714.00,0.0199
713.00,0.0199
712.00,0.0199
711.00,0.0199
710.00,0.0199
709.00,0.0198
708.00,0.0197
707.00,0.0197
706.00,0.0197
705.00,0.0198
704.00,0.0199
703.00,0.0199
702.00,0.0200
701.00,0.0200
700.00,0.0201
699.00,0.0201
698.00,0.0202
697.00,0.0203
696.00,0.0205
695.00,0.0206
694.00,0.0208
693.00,0.0209
692.00,0.0210
691.00,0.0211
690.00,0.0213
689.00,0.0216
688.00,0.0219
687.00,0.0222
686.00,0.0225
685.00,0.0228
684.00,0.0231
683.00,0.0234
682.00,0.0236
681.00,0.0238
680.00,0.0240
679.00,0.0243
678.00,0.0246
677.00,0.0248
676.00,0.0250
675.00,0.0252
674.00,0.0254
673.00,0.0256
672.00,0.0257
671.00,0.0258
670.00,0.0259
669.00,0.0262
668.00,0.0265
667.00,0.0268
666.00,0.0271
665.00,0.0274
664.00,0.0277
663.00,0.0281
662.00,0.0284
661.00,0.0287
660.00,0.0290
659.00,0.0294
658.00,0.0299
657.00,0.0305
656.00,0.0310
655.00,0.0314
654.00,0.0318
653.00,0.0322
652.00,0.0326
651.00,0.0329
650.00,0.0331
649.00,0.0333
648.00,0.0333
647.00,0.0332
646.00,0.0330
645.00,0.0328
644.00,0.0324
643.00,0.0320
642.00,0.0316
641.00,0.0310
640.00,0.0303
639.00,0.0296
638.00,0.0291
637.00,0.0286
636.00,0.0281
635.00,0.0275
634.00,0.0270
633.00,0.0265
632.00,0.0260
631.00,0.0256
630.00,0.0253
629.00,0.0251
628.00,0.0249
627.00,0.0246
626.00,0.0244
625.00,0.0241
624.00,0.0238
623.00,0.0235
622.00,0.0234
621.00,0.0234
620.00,0.0234
619.00,0.0234
618.00,0.0235
617.00,0.0237
616.00,0.0237
615.00,0.0238
614.00,0.0239
613.00,0.0239
612.00,0.0238
611.00,0.0238
610.00,0.0239
609.00,0.0240
608.00,0.0241
607.00,0.0242
606.00,0.0243
605.00,0.0245
604.00,0.0245
603.00,0.0246
602.00,0.0247
601.00,0.0248
600.00,0.0248
599.00,0.0248
598.00,0.0250
597.00,0.0252
596.00,0.0252
595.00,0.0251
594.00,0.0251
593.00,0.0253
592.00,0.0254
591.00,0.0256
590.00,0.0259
589.00,0.0262
588.00,0.0264
587.00,0.0267
586.00,0.0271
585.00,0.0276
584.00,0.0280
583.00,0.0284
582.00,0.0290
581.00,0.0295
580.00,0.0300
579.00,0.0304
578.00,0.0306
577.00,0.0308
576.00,0.0308
575.00,0.0307
574.00,0.0307
573.00,0.0305
572.00,0.0301
571.00,0.0297
570.00,0.0296
569.00,0.0294
568.00,0.0291
567.00,0.0287
566.00,0.0284
565.00,0.0282
564.00,0.0280
563.00,0.0277
562.00,0.0276
561.00,0.0275
560.00,0.0274
559.00,0.0274
558.00,0.0275
557.00,0.0278
556.00,0.0281
555.00,0.0284
554.00,0.0288
553.00,0.0290
552.00,0.0290
551.00,0.0289
550.00,0.0287
549.00,0.0285
548.00,0.0281
547.00,0.0276
546.00,0.0273
545.00,0.0270
544.00,0.0266
543.00,0.0263
542.00,0.0262
541.00,0.0260
540.00,0.0259
539.00,0.0258
538.00,0.0259
537.00,0.0261
536.00,0.0261
535.00,0.0261
534.00,0.0262
533.00,0.0262
532.00,0.0260
531.00,0.0259
530.00,0.0259
529.00,0.0261
528.00,0.0263
527.00,0.0267
526.00,0.0274
525.00,0.0279
524.00,0.0280
523.00,0.0278
522.00,0.0275
521.00,0.0270
520.00,0.0264
519.00,0.0257
518.00,0.0251
517.00,0.0246
516.00,0.0242
515.00,0.0239
514.00,0.0238
513.00,0.0237
512.00,0.0234
511.00,0.0232
510.00,0.0231
509.00,0.0229
508.00,0.0227
507.00,0.0225
506.00,0.0226
505.00,0.0226
504.00,0.0224
503.00,0.0223
502.00,0.0224
501.00,0.0225
500.00,0.0225
499.00,0.0226
498.00,0.0229
497.00,0.0232
496.00,0.0233
495.00,0.0233
494.00,0.0235
493.00,0.0238
492.00,0.0240
491.00,0.0243
490.00,0.0246
489.00,0.0247
488.00,0.0246
487.00,0.0246
486.00,0.0248
485.00,0.0249
484.00,0.0248
483.00,0.0248
482.00,0.0250
481.00,0.0253
480.00,0.0255
479.00,0.0255
478.00,0.0257
477.00,0.0257
476.00,0.0256
475.00,0.0256
474.00,0.0259
473.00,0.0262
472.00,0.0261
471.00,0.0259
470.00,0.0260
469.00,0.0259
468.00,0.0257
467.00,0.0255
466.00,0.0255
465.00,0.0255
464.00,0.0252
463.00,0.0249
462.00,0.0249
461.00,0.0248
460.00,0.0244
459.00,0.0241
458.00,0.0240
457.00,0.0238
456.00,0.0233
455.00,0.0229
454.00,0.0229
453.00,0.0229
452.00,0.0228
451.00,0.0228
450.00,0.0233
449.00,0.0239
448.00,0.0242
447.00,0.0241
446.00,0.0242
445.00,0.0242
444.00,0.0239
443.00,0.0238
442.00,0.0241
441.00,0.0242
440.00,0.0240
439.00,0.0238
438.00,0.0238
437.00,0.0238
436.00,0.0237
435.00,0.0235
434.00,0.0236
433.00,0.0238
432.00,0.0237
431.00,0.0237
430.00,0.0238
429.00,0.0238
428.00,0.0236
427.00,0.0236
426.00,0.0242
425.00,0.0247
424.00,0.0248
423.00,0.0245
422.00,0.0246
421.00,0.0246
420.00,0.0244
419.00,0.0243
418.00,0.0248
417.00,0.0250
416.00,0.0246
415.00,0.0246
414.00,0.0248
413.00,0.0247
412.00,0.0237
411.00,0.0231
410.00,0.0237
409.00,0.0245
408.00,0.0245
407.00,0.0239
406.00,0.0235
405.00,0.0230
404.00,0.0222
403.00,0.0220
402.00,0.0230
401.00,0.0239
400.00,0.0239
