Created as New Dataset,Sample 671 By YargerLab Date Wednesday, June 11 2025
cm-1,A
4000.00,0.0029
3999.00,0.0029
3998.00,0.0029
3997.00,0.0029
3996.00,0.0028
3995.00,0.0028
3994.00,0.0028
3993.00,0.0028
3992.00,0.0028
3991.00,0.0028
3990.00,0.0028
3989.00,0.0027
3988.00,0.0027
3987.00,0.0027
3986.00,0.0027
3985.00,0.0027
3984.00,0.0027
3983.00,0.0027
3982.00,0.0028
3981.00,0.0028
3980.00,0.0028
3979.00,0.0028
3978.00,0.0028
3977.00,0.0028
3976.00,0.0028
3975.00,0.0028
3974.00,0.0028
3973.00,0.0027
3972.00,0.0027
3971.00,0.0027
3970.00,0.0027
3969.00,0.0027
3968.00,0.0027
3967.00,0.0027
3966.00,0.0027
3965.00,0.0027
3964.00,0.0027
3963.00,0.0027
3962.00,0.0028
3961.00,0.0028
3960.00,0.0028
3959.00,0.0028
3958.00,0.0028
3957.00,0.0027
3956.00,0.0027
3955.00,0.0027
3954.00,0.0027
3953.00,0.0027
3952.00,0.0027
3951.00,0.0027
3950.00,0.0027
3949.00,0.0027
3948.00,0.0027
3947.00,0.0027
3946.00,0.0027
3945.00,0.0027
3944.00,0.0027
3943.00,0.0027
3942.00,0.0027
3941.00,0.0027
3940.00,0.0027
3939.00,0.0027
3938.00,0.0027
3937.00,0.0027
3936.00,0.0027
3935.00,0.0027
3934.00,0.0027
3933.00,0.0027
3932.00,0.0027
3931.00,0.0027
3930.00,0.0027
3929.00,0.0027
3928.00,0.0027
3927.00,0.0027
3926.00,0.0027
3925.00,0.0027
3924.00,0.0027
3923.00,0.0027
3922.00,0.0026
3921.00,0.0026
3920.00,0.0026
3919.00,0.0026
3918.00,0.0026
3917.00,0.0026
3916.00,0.0026
3915.00,0.0026
3914.00,0.0027
3913.00,0.0027
3912.00,0.0027
3911.00,0.0027
3910.00,0.0027
3909.00,0.0027
3908.00,0.0027
3907.00,0.0026
3906.00,0.0026
3905.00,0.0026
3904.00,0.0025
3903.00,0.0025
3902.00,0.0024
3901.00,0.0024
3900.00,0.0025
3899.00,0.0025
3898.00,0.0026
3897.00,0.0026
3896.00,0.0026
3895.00,0.0026
3894.00,0.0026
3893.00,0.0026
3892.00,0.0026
3891.00,0.0026
3890.00,0.0026
3889.00,0.0025
3888.00,0.0025
3887.00,0.0025
3886.00,0.0026
3885.00,0.0026
3884.00,0.0025
3883.00,0.0025
3882.00,0.0025
3881.00,0.0025
3880.00,0.0025
3879.00,0.0025
3878.00,0.0025
3877.00,0.0025
3876.00,0.0025
3875.00,0.0026
3874.00,0.0026
3873.00,0.0026
3872.00,0.0025
3871.00,0.0025
3870.00,0.0025
3869.00,0.0025
3868.00,0.0025
3867.00,0.0025
3866.00,0.0025
3865.00,0.0025
3864.00,0.0025
3863.00,0.0025
3862.00,0.0025
3861.00,0.0025
3860.00,0.0025
3859.00,0.0025
3858.00,0.0025
3857.00,0.0024
3856.00,0.0024
3855.00,0.0024
3854.00,0.0024
3853.00,0.0024
3852.00,0.0024
3851.00,0.0024
3850.00,0.0025
3849.00,0.0025
3848.00,0.0025
3847.00,0.0026
3846.00,0.0026
3845.00,0.0026
3844.00,0.0026
3843.00,0.0026
3842.00,0.0025
3841.00,0.0025
3840.00,0.0025
3839.00,0.0025
3838.00,0.0025
3837.00,0.0025
3836.00,0.0025
3835.00,0.0025
3834.00,0.0025
3833.00,0.0025
3832.00,0.0025
3831.00,0.0026
3830.00,0.0026
3829.00,0.0026
3828.00,0.0026
3827.00,0.0026
3826.00,0.0026
3825.00,0.0026
3824.00,0.0025
3823.00,0.0025
3822.00,0.0025
3821.00,0.0025
3820.00,0.0025
3819.00,0.0025
3818.00,0.0025
3817.00,0.0025
3816.00,0.0026
3815.00,0.0026
3814.00,0.0026
3813.00,0.0026
3812.00,0.0026
3811.00,0.0026
3810.00,0.0026
3809.00,0.0026
3808.00,0.0026
3807.00,0.0027
3806.00,0.0026
3805.00,0.0026
3804.00,0.0026
3803.00,0.0026
3802.00,0.0026
3801.00,0.0026
3800.00,0.0026
3799.00,0.0026
3798.00,0.0026
3797.00,0.0026
3796.00,0.0026
3795.00,0.0026
3794.00,0.0026
3793.00,0.0026
3792.00,0.0026
3791.00,0.0026
3790.00,0.0027
3789.00,0.0027
3788.00,0.0027
3787.00,0.0027
3786.00,0.0027
3785.00,0.0026
3784.00,0.0026
3783.00,0.0026
3782.00,0.0026
3781.00,0.0026
3780.00,0.0026
3779.00,0.0026
3778.00,0.0027
3777.00,0.0027
3776.00,0.0027
3775.00,0.0027
3774.00,0.0027
3773.00,0.0026
3772.00,0.0026
3771.00,0.0026
3770.00,0.0026
3769.00,0.0026
3768.00,0.0026
3767.00,0.0026
3766.00,0.0026
3765.00,0.0026
3764.00,0.0026
3763.00,0.0026
3762.00,0.0026
3761.00,0.0026
3760.00,0.0026
3759.00,0.0026
3758.00,0.0026
3757.00,0.0026
3756.00,0.0026
3755.00,0.0026
3754.00,0.0025
3753.00,0.0025
3752.00,0.0025
3751.00,0.0025
3750.00,0.0024
3749.00,0.0024
3748.00,0.0023
3747.00,0.0023
3746.00,0.0023
3745.00,0.0023
3744.00,0.0024
3743.00,0.0024
3742.00,0.0024
3741.00,0.0024
3740.00,0.0024
3739.00,0.0024
3738.00,0.0024
3737.00,0.0024
3736.00,0.0024
3735.00,0.0024
3734.00,0.0024
3733.00,0.0024
3732.00,0.0024
3731.00,0.0024
3730.00,0.0025
3729.00,0.0025
3728.00,0.0025
3727.00,0.0025
3726.00,0.0025
3725.00,0.0025
3724.00,0.0025
3723.00,0.0024
3722.00,0.0025
3721.00,0.0025
3720.00,0.0025
3719.00,0.0025
3718.00,0.0025
3717.00,0.0025
3716.00,0.0025
3715.00,0.0025
3714.00,0.0025
3713.00,0.0025
3712.00,0.0025
3711.00,0.0025
3710.00,0.0025
3709.00,0.0025
3708.00,0.0025
3707.00,0.0025
3706.00,0.0025
3705.00,0.0025
3704.00,0.0025
3703.00,0.0025
3702.00,0.0025
3701.00,0.0025
3700.00,0.0025
3699.00,0.0025
3698.00,0.0025
3697.00,0.0026
3696.00,0.0026
3695.00,0.0025
3694.00,0.0025
3693.00,0.0025
3692.00,0.0024
3691.00,0.0023
3690.00,0.0023
3689.00,0.0022
3688.00,0.0022
3687.00,0.0023
3686.00,0.0023
3685.00,0.0023
3684.00,0.0023
3683.00,0.0022
3682.00,0.0022
3681.00,0.0022
3680.00,0.0021
3679.00,0.0021
3678.00,0.0020
3677.00,0.0019
3676.00,0.0019
3675.00,0.0018
3674.00,0.0018
3673.00,0.0017
3672.00,0.0017
3671.00,0.0017
3670.00,0.0017
3669.00,0.0017
3668.00,0.0016
3667.00,0.0017
3666.00,0.0017
3665.00,0.0017
3664.00,0.0017
3663.00,0.0018
3662.00,0.0018
3661.00,0.0017
3660.00,0.0017
3659.00,0.0017
3658.00,0.0017
3657.00,0.0017
3656.00,0.0017
3655.00,0.0017
3654.00,0.0017
3653.00,0.0017
3652.00,0.0017
3651.00,0.0017
3650.00,0.0017
3649.00,0.0017
3648.00,0.0017
3647.00,0.0018
3646.00,0.0018
3645.00,0.0019
3644.00,0.0019
3643.00,0.0020
3642.00,0.0020
3641.00,0.0020
3640.00,0.0020
3639.00,0.0020
3638.00,0.0020
3637.00,0.0020
3636.00,0.0020
3635.00,0.0021
3634.00,0.0021
3633.00,0.0022
3632.00,0.0022
3631.00,0.0022
3630.00,0.0022
3629.00,0.0022
3628.00,0.0022
3627.00,0.0022
3626.00,0.0023
3625.00,0.0023
3624.00,0.0024
3623.00,0.0025
3622.00,0.0025
3621.00,0.0025
3620.00,0.0024
3619.00,0.0024
3618.00,0.0024
3617.00,0.0024
3616.00,0.0025
3615.00,0.0025
3614.00,0.0025
3613.00,0.0024
3612.00,0.0024
3611.00,0.0024
3610.00,0.0024
3609.00,0.0024
3608.00,0.0025
3607.00,0.0025
3606.00,0.0025
3605.00,0.0026
3604.00,0.0026
3603.00,0.0026
3602.00,0.0026
3601.00,0.0026
3600.00,0.0026
3599.00,0.0026
3598.00,0.0026
3597.00,0.0026
3596.00,0.0026
3595.00,0.0026
3594.00,0.0026
3593.00,0.0026
3592.00,0.0026
3591.00,0.0026
3590.00,0.0026
3589.00,0.0026
3588.00,0.0026
3587.00,0.0026
3586.00,0.0026
3585.00,0.0026
3584.00,0.0027
3583.00,0.0027
3582.00,0.0027
3581.00,0.0028
3580.00,0.0028
3579.00,0.0028
3578.00,0.0028
3577.00,0.0027
3576.00,0.0027
3575.00,0.0027
3574.00,0.0027
3573.00,0.0027
3572.00,0.0027
3571.00,0.0027
3570.00,0.0026
3569.00,0.0026
3568.00,0.0026
3567.00,0.0026
3566.00,0.0026
3565.00,0.0026
3564.00,0.0026
3563.00,0.0027
3562.00,0.0027
3561.00,0.0027
3560.00,0.0026
3559.00,0.0026
3558.00,0.0026
3557.00,0.0026
3556.00,0.0026
3555.00,0.0027
3554.00,0.0027
3553.00,0.0027
3552.00,0.0027
3551.00,0.0027
3550.00,0.0027
3549.00,0.0027
3548.00,0.0028
3547.00,0.0028
3546.00,0.0028
3545.00,0.0028
3544.00,0.0028
3543.00,0.0028
3542.00,0.0028
3541.00,0.0028
3540.00,0.0028
3539.00,0.0028
3538.00,0.0028
3537.00,0.0028
3536.00,0.0028
3535.00,0.0028
3534.00,0.0028
3533.00,0.0028
3532.00,0.0028
3531.00,0.0028
3530.00,0.0028
3529.00,0.0028
3528.00,0.0028
3527.00,0.0029
3526.00,0.0029
3525.00,0.0029
3524.00,0.0029
3523.00,0.0029
3522.00,0.0029
3521.00,0.0029
3520.00,0.0029
3519.00,0.0029
3518.00,0.0029
3517.00,0.0029
3516.00,0.0030
3515.00,0.0030
3514.00,0.0030
3513.00,0.0030
3512.00,0.0030
3511.00,0.0030
3510.00,0.0030
3509.00,0.0030
3508.00,0.0030
3507.00,0.0030
3506.00,0.0030
3505.00,0.0030
3504.00,0.0031
3503.00,0.0031
3502.00,0.0031
3501.00,0.0031
3500.00,0.0031
3499.00,0.0031
3498.00,0.0030
3497.00,0.0030
3496.00,0.0030
3495.00,0.0030
3494.00,0.0030
3493.00,0.0031
3492.00,0.0031
3491.00,0.0031
3490.00,0.0031
3489.00,0.0031
3488.00,0.0031
3487.00,0.0031
3486.00,0.0031
3485.00,0.0031
3484.00,0.0031
3483.00,0.0031
3482.00,0.0031
3481.00,0.0031
3480.00,0.0031
3479.00,0.0032
3478.00,0.0032
3477.00,0.0032
3476.00,0.0032
3475.00,0.0032
3474.00,0.0032
3473.00,0.0032
3472.00,0.0032
3471.00,0.0032
3470.00,0.0032
3469.00,0.0033
3468.00,0.0032
3467.00,0.0032
3466.00,0.0032
3465.00,0.0032
3464.00,0.0032
3463.00,0.0032
3462.00,0.0032
3461.00,0.0032
3460.00,0.0032
3459.00,0.0032
3458.00,0.0032
3457.00,0.0032
3456.00,0.0032
3455.00,0.0032
3454.00,0.0032
3453.00,0.0032
3452.00,0.0033
3451.00,0.0033
3450.00,0.0032
3449.00,0.0032
3448.00,0.0032
3447.00,0.0032
3446.00,0.0032
3445.00,0.0033
3444.00,0.0033
3443.00,0.0033
3442.00,0.0033
3441.00,0.0033
3440.00,0.0033
3439.00,0.0033
3438.00,0.0033
3437.00,0.0033
3436.00,0.0033
3435.00,0.0033
3434.00,0.0033
3433.00,0.0032
3432.00,0.0032
3431.00,0.0032
3430.00,0.0032
3429.00,0.0032
3428.00,0.0032
3427.00,0.0032
3426.00,0.0032
3425.00,0.0032
3424.00,0.0032
3423.00,0.0032
3422.00,0.0032
3421.00,0.0032
3420.00,0.0032
3419.00,0.0032
3418.00,0.0032
3417.00,0.0032
3416.00,0.0032
3415.00,0.0032
3414.00,0.0032
3413.00,0.0032
3412.00,0.0032
3411.00,0.0032
3410.00,0.0032
3409.00,0.0032
3408.00,0.0032
3407.00,0.0032
3406.00,0.0032
3405.00,0.0032
3404.00,0.0032
3403.00,0.0032
3402.00,0.0032
3401.00,0.0032
3400.00,0.0032
3399.00,0.0032
3398.00,0.0032
3397.00,0.0032
3396.00,0.0033
3395.00,0.0033
3394.00,0.0033
3393.00,0.0033
3392.00,0.0032
3391.00,0.0032
3390.00,0.0032
3389.00,0.0032
3388.00,0.0032
3387.00,0.0032
3386.00,0.0032
3385.00,0.0032
3384.00,0.0032
3383.00,0.0033
3382.00,0.0032
3381.00,0.0032
3380.00,0.0032
3379.00,0.0032
3378.00,0.0032
3377.00,0.0032
3376.00,0.0032
3375.00,0.0032
3374.00,0.0032
3373.00,0.0032
3372.00,0.0032
3371.00,0.0032
3370.00,0.0033
3369.00,0.0033
3368.00,0.0033
3367.00,0.0032
3366.00,0.0032
3365.00,0.0032
3364.00,0.0032
3363.00,0.0032
3362.00,0.0032
3361.00,0.0032
3360.00,0.0032
3359.00,0.0032
3358.00,0.0032
3357.00,0.0032
3356.00,0.0031
3355.00,0.0031
3354.00,0.0031
3353.00,0.0031
3352.00,0.0031
3351.00,0.0032
3350.00,0.0032
3349.00,0.0032
3348.00,0.0032
3347.00,0.0032
3346.00,0.0032
3345.00,0.0032
3344.00,0.0032
3343.00,0.0032
3342.00,0.0032
3341.00,0.0032
3340.00,0.0032
3339.00,0.0032
3338.00,0.0032
3337.00,0.0032
3336.00,0.0032
3335.00,0.0031
3334.00,0.0031
3333.00,0.0031
3332.00,0.0031
3331.00,0.0031
3330.00,0.0031
3329.00,0.0031
3328.00,0.0031
3327.00,0.0031
3326.00,0.0031
3325.00,0.0031
3324.00,0.0031
3323.00,0.0031
3322.00,0.0031
3321.00,0.0031
3320.00,0.0031
3319.00,0.0031
3318.00,0.0031
3317.00,0.0032
3316.00,0.0032
3315.00,0.0032
3314.00,0.0032
3313.00,0.0032
3312.00,0.0032
3311.00,0.0031
3310.00,0.0031
3309.00,0.0031
3308.00,0.0031
3307.00,0.0031
3306.00,0.0031
3305.00,0.0031
3304.00,0.0031
3303.00,0.0031
3302.00,0.0031
3301.00,0.0031
3300.00,0.0031
3299.00,0.0031
3298.00,0.0031
3297.00,0.0031
3296.00,0.0031
3295.00,0.0031
3294.00,0.0031
3293.00,0.0031
3292.00,0.0031
3291.00,0.0031
3290.00,0.0031
3289.00,0.0031
3288.00,0.0031
3287.00,0.0031
3286.00,0.0031
3285.00,0.0031
3284.00,0.0031
3283.00,0.0031
3282.00,0.0031
3281.00,0.0031
3280.00,0.0031
3279.00,0.0031
3278.00,0.0031
3277.00,0.0031
3276.00,0.0031
3275.00,0.0031
3274.00,0.0031
3273.00,0.0031
3272.00,0.0031
3271.00,0.0031
3270.00,0.0031
3269.00,0.0031
3268.00,0.0030
3267.00,0.0030
3266.00,0.0030
3265.00,0.0030
3264.00,0.0031
3263.00,0.0030
3262.00,0.0030
3261.00,0.0030
3260.00,0.0030
3259.00,0.0030
3258.00,0.0030
3257.00,0.0030
3256.00,0.0030
3255.00,0.0030
3254.00,0.0030
3253.00,0.0030
3252.00,0.0030
3251.00,0.0030
3250.00,0.0030
3249.00,0.0030
3248.00,0.0030
3247.00,0.0030
3246.00,0.0030
3245.00,0.0030
3244.00,0.0030
3243.00,0.0030
3242.00,0.0029
3241.00,0.0029
3240.00,0.0029
3239.00,0.0029
3238.00,0.0029
3237.00,0.0029
3236.00,0.0030
3235.00,0.0030
3234.00,0.0029
3233.00,0.0029
3232.00,0.0029
3231.00,0.0029
3230.00,0.0029
3229.00,0.0029
3228.00,0.0029
3227.00,0.0029
3226.00,0.0029
3225.00,0.0029
3224.00,0.0029
3223.00,0.0029
3222.00,0.0029
3221.00,0.0029
3220.00,0.0029
3219.00,0.0029
3218.00,0.0029
3217.00,0.0030
3216.00,0.0030
3215.00,0.0030
3214.00,0.0030
3213.00,0.0030
3212.00,0.0030
3211.00,0.0030
3210.00,0.0030
3209.00,0.0030
3208.00,0.0030
3207.00,0.0030
3206.00,0.0030
3205.00,0.0030
3204.00,0.0030
3203.00,0.0030
3202.00,0.0030
3201.00,0.0030
3200.00,0.0030
3199.00,0.0030
3198.00,0.0030
3197.00,0.0030
3196.00,0.0030
3195.00,0.0030
3194.00,0.0030
3193.00,0.0029
3192.00,0.0029
3191.00,0.0029
3190.00,0.0029
3189.00,0.0029
3188.00,0.0029
3187.00,0.0029
3186.00,0.0028
3185.00,0.0028
3184.00,0.0028
3183.00,0.0028
3182.00,0.0028
3181.00,0.0028
3180.00,0.0028
3179.00,0.0028
3178.00,0.0028
3177.00,0.0028
3176.00,0.0028
3175.00,0.0028
3174.00,0.0029
3173.00,0.0029
3172.00,0.0029
3171.00,0.0029
3170.00,0.0030
3169.00,0.0030
3168.00,0.0030
3167.00,0.0031
3166.00,0.0031
3165.00,0.0031
3164.00,0.0031
3163.00,0.0031
3162.00,0.0031
3161.00,0.0031
3160.00,0.0031
3159.00,0.0031
3158.00,0.0030
3157.00,0.0030
3156.00,0.0030
3155.00,0.0030
3154.00,0.0029
3153.00,0.0029
3152.00,0.0028
3151.00,0.0028
3150.00,0.0028
3149.00,0.0028
3148.00,0.0028
3147.00,0.0028
3146.00,0.0028
3145.00,0.0029
3144.00,0.0029
3143.00,0.0029
3142.00,0.0029
3141.00,0.0029
3140.00,0.0028
3139.00,0.0028
3138.00,0.0028
3137.00,0.0029
3136.00,0.0029
3135.00,0.0029
3134.00,0.0029
3133.00,0.0029
3132.00,0.0029
3131.00,0.0029
3130.00,0.0029
3129.00,0.0030
3128.00,0.0030
3127.00,0.0030
3126.00,0.0030
3125.00,0.0030
3124.00,0.0030
3123.00,0.0031
3122.00,0.0031
3121.00,0.0032
3120.00,0.0033
3119.00,0.0033
3118.00,0.0034
3117.00,0.0035
3116.00,0.0036
3115.00,0.0037
3114.00,0.0039
3113.00,0.0041
3112.00,0.0044
3111.00,0.0047
3110.00,0.0050
3109.00,0.0054
3108.00,0.0057
3107.00,0.0060
3106.00,0.0063
3105.00,0.0065
3104.00,0.0066
3103.00,0.0067
3102.00,0.0067
3101.00,0.0066
3100.00,0.0065
3099.00,0.0064
3098.00,0.0063
3097.00,0.0062
3096.00,0.0063
3095.00,0.0064
3094.00,0.0066
3093.00,0.0070
3092.00,0.0075
3091.00,0.0082
3090.00,0.0090
3089.00,0.0099
3088.00,0.0110
3087.00,0.0122
3086.00,0.0133
3085.00,0.0143
3084.00,0.0150
3083.00,0.0154
3082.00,0.0155
3081.00,0.0152
3080.00,0.0146
3079.00,0.0139
3078.00,0.0132
3077.00,0.0125
3076.00,0.0120
3075.00,0.0117
3074.00,0.0115
3073.00,0.0115
3072.00,0.0116
3071.00,0.0119
3070.00,0.0124
3069.00,0.0131
3068.00,0.0139
3067.00,0.0149
3066.00,0.0160
3065.00,0.0172
3064.00,0.0184
3063.00,0.0195
3062.00,0.0204
3061.00,0.0210
3060.00,0.0212
3059.00,0.0211
3058.00,0.0205
3057.00,0.0196
3056.00,0.0185
3055.00,0.0173
3054.00,0.0162
3053.00,0.0151
3052.00,0.0141
3051.00,0.0132
3050.00,0.0125
3049.00,0.0119
3048.00,0.0115
3047.00,0.0112
3046.00,0.0110
3045.00,0.0110
3044.00,0.0111
3043.00,0.0113
3042.00,0.0117
3041.00,0.0123
3040.00,0.0129
3039.00,0.0138
3038.00,0.0148
3037.00,0.0160
3036.00,0.0175
3035.00,0.0193
3034.00,0.0214
3033.00,0.0238
3032.00,0.0264
3031.00,0.0293
3030.00,0.0323
3029.00,0.0352
3028.00,0.0377
3027.00,0.0396
3026.00,0.0406
3025.00,0.0406
3024.00,0.0394
3023.00,0.0373
3022.00,0.0343
3021.00,0.0310
3020.00,0.0275
3019.00,0.0241
3018.00,0.0211
3017.00,0.0185
3016.00,0.0162
3015.00,0.0144
3014.00,0.0129
3013.00,0.0117
3012.00,0.0108
3011.00,0.0100
3010.00,0.0095
3009.00,0.0092
3008.00,0.0090
3007.00,0.0090
3006.00,0.0090
3005.00,0.0091
3004.00,0.0092
3003.00,0.0092
3002.00,0.0091
3001.00,0.0087
3000.00,0.0082
2999.00,0.0075
2998.00,0.0066
2997.00,0.0057
2996.00,0.0049
2995.00,0.0041
2994.00,0.0035
2993.00,0.0029
2992.00,0.0025
2991.00,0.0021
2990.00,0.0019
2989.00,0.0017
2988.00,0.0015
2987.00,0.0012
2986.00,0.0008
2985.00,0.0002
2984.00,-0.0005
2983.00,-0.0012
2982.00,-0.0017
2981.00,-0.0018
2980.00,-0.0015
2979.00,-0.0011
2978.00,-0.0005
2977.00,-0.0001
2976.00,0.0003
2975.00,0.0005
2974.00,0.0006
2973.00,0.0006
2972.00,0.0007
2971.00,0.0009
2970.00,0.0013
2969.00,0.0018
2968.00,0.0023
2967.00,0.0027
2966.00,0.0032
2965.00,0.0036
2964.00,0.0040
2963.00,0.0044
2962.00,0.0048
2961.00,0.0052
2960.00,0.0056
2959.00,0.0060
2958.00,0.0065
2957.00,0.0070
2956.00,0.0076
2955.00,0.0082
2954.00,0.0088
2953.00,0.0094
2952.00,0.0102
2951.00,0.0109
2950.00,0.0117
2949.00,0.0126
2948.00,0.0135
2947.00,0.0145
2946.00,0.0156
2945.00,0.0168
2944.00,0.0180
2943.00,0.0192
2942.00,0.0205
2941.00,0.0219
2940.00,0.0234
2939.00,0.0249
2938.00,0.0265
2937.00,0.0282
2936.00,0.0299
2935.00,0.0316
2934.00,0.0334
2933.00,0.0352
2932.00,0.0369
2931.00,0.0387
2930.00,0.0403
2929.00,0.0419
2928.00,0.0433
2927.00,0.0446
2926.00,0.0456
2925.00,0.0464
2924.00,0.0470
2923.00,0.0474
2922.00,0.0476
2921.00,0.0475
2920.00,0.0472
2919.00,0.0468
2918.00,0.0461
2917.00,0.0454
2916.00,0.0445
2915.00,0.0435
2914.00,0.0424
2913.00,0.0413
2912.00,0.0401
2911.00,0.0388
2910.00,0.0376
2909.00,0.0363
2908.00,0.0350
2907.00,0.0338
2906.00,0.0325
2905.00,0.0312
2904.00,0.0299
2903.00,0.0286
2902.00,0.0274
2901.00,0.0261
2900.00,0.0249
2899.00,0.0237
2898.00,0.0226
2897.00,0.0215
2896.00,0.0206
2895.00,0.0197
2894.00,0.0189
2893.00,0.0182
2892.00,0.0175
2891.00,0.0169
2890.00,0.0163
2889.00,0.0158
2888.00,0.0154
2887.00,0.0150
2886.00,0.0146
2885.00,0.0142
2884.00,0.0138
2883.00,0.0135
2882.00,0.0132
2881.00,0.0130
2880.00,0.0127
2879.00,0.0125
2878.00,0.0123
2877.00,0.0121
2876.00,0.0119
2875.00,0.0117
2874.00,0.0115
2873.00,0.0114
2872.00,0.0113
2871.00,0.0112
2870.00,0.0112
2869.00,0.0112
2868.00,0.0113
2867.00,0.0115
2866.00,0.0117
2865.00,0.0121
2864.00,0.0125
2863.00,0.0130
2862.00,0.0136
2861.00,0.0143
2860.00,0.0150
2859.00,0.0158
2858.00,0.0166
2857.00,0.0174
2856.00,0.0182
2855.00,0.0189
2854.00,0.0196
2853.00,0.0202
2852.00,0.0207
2851.00,0.0211
2850.00,0.0213
2849.00,0.0213
2848.00,0.0212
2847.00,0.0208
2846.00,0.0202
2845.00,0.0194
2844.00,0.0185
2843.00,0.0174
2842.00,0.0162
2841.00,0.0150
2840.00,0.0137
2839.00,0.0125
2838.00,0.0114
2837.00,0.0104
2836.00,0.0095
2835.00,0.0088
2834.00,0.0081
2833.00,0.0076
2832.00,0.0072
2831.00,0.0068
2830.00,0.0065
2829.00,0.0063
2828.00,0.0061
2827.00,0.0059
2826.00,0.0058
2825.00,0.0057
2824.00,0.0055
2823.00,0.0055
2822.00,0.0054
2821.00,0.0053
2820.00,0.0053
2819.00,0.0052
2818.00,0.0052
2817.00,0.0052
2816.00,0.0051
2815.00,0.0051
2814.00,0.0050
2813.00,0.0050
2812.00,0.0050
2811.00,0.0049
2810.00,0.0049
2809.00,0.0049
2808.00,0.0049
2807.00,0.0049
2806.00,0.0048
2805.00,0.0048
2804.00,0.0047
2803.00,0.0047
2802.00,0.0046
2801.00,0.0046
2800.00,0.0045
2799.00,0.0045
2798.00,0.0045
2797.00,0.0044
2796.00,0.0044
2795.00,0.0044
2794.00,0.0043
2793.00,0.0043
2792.00,0.0043
2791.00,0.0043
2790.00,0.0042
2789.00,0.0042
2788.00,0.0042
2787.00,0.0042
2786.00,0.0042
2785.00,0.0042
2784.00,0.0042
2783.00,0.0042
2782.00,0.0042
2781.00,0.0042
2780.00,0.0042
2779.00,0.0042
2778.00,0.0041
2777.00,0.0041
2776.00,0.0041
2775.00,0.0040
2774.00,0.0040
2773.00,0.0040
2772.00,0.0040
2771.00,0.0039
2770.00,0.0039
2769.00,0.0039
2768.00,0.0039
2767.00,0.0039
2766.00,0.0039
2765.00,0.0038
2764.00,0.0038
2763.00,0.0038
2762.00,0.0038
2761.00,0.0038
2760.00,0.0038
2759.00,0.0038
2758.00,0.0037
2757.00,0.0037
2756.00,0.0037
2755.00,0.0037
2754.00,0.0037
2753.00,0.0037
2752.00,0.0037
2751.00,0.0037
2750.00,0.0037
2749.00,0.0037
2748.00,0.0037
2747.00,0.0037
2746.00,0.0037
2745.00,0.0037
2744.00,0.0037
2743.00,0.0037
2742.00,0.0037
2741.00,0.0037
2740.00,0.0036
2739.00,0.0036
2738.00,0.0036
2737.00,0.0036
2736.00,0.0036
2735.00,0.0036
2734.00,0.0036
2733.00,0.0037
2732.00,0.0037
2731.00,0.0037
2730.00,0.0037
2729.00,0.0037
2728.00,0.0037
2727.00,0.0037
2726.00,0.0037
2725.00,0.0037
2724.00,0.0037
2723.00,0.0037
2722.00,0.0037
2721.00,0.0037
2720.00,0.0037
2719.00,0.0037
2718.00,0.0037
2717.00,0.0037
2716.00,0.0037
2715.00,0.0037
2714.00,0.0037
2713.00,0.0037
2712.00,0.0037
2711.00,0.0037
2710.00,0.0037
2709.00,0.0037
2708.00,0.0037
2707.00,0.0037
2706.00,0.0037
2705.00,0.0037
2704.00,0.0037
2703.00,0.0037
2702.00,0.0037
2701.00,0.0037
2700.00,0.0037
2699.00,0.0037
2698.00,0.0037
2697.00,0.0036
2696.00,0.0037
2695.00,0.0037
2694.00,0.0037
2693.00,0.0037
2692.00,0.0037
2691.00,0.0037
2690.00,0.0037
2689.00,0.0037
2688.00,0.0037
2687.00,0.0037
2686.00,0.0037
2685.00,0.0037
2684.00,0.0037
2683.00,0.0037
2682.00,0.0037
2681.00,0.0036
2680.00,0.0036
2679.00,0.0036
2678.00,0.0036
2677.00,0.0036
2676.00,0.0036
2675.00,0.0036
2674.00,0.0036
2673.00,0.0036
2672.00,0.0036
2671.00,0.0036
2670.00,0.0036
2669.00,0.0036
2668.00,0.0036
2667.00,0.0036
2666.00,0.0037
2665.00,0.0037
2664.00,0.0038
2663.00,0.0039
2662.00,0.0039
2661.00,0.0040
2660.00,0.0040
2659.00,0.0040
2658.00,0.0040
2657.00,0.0040
2656.00,0.0041
2655.00,0.0041
2654.00,0.0041
2653.00,0.0041
2652.00,0.0041
2651.00,0.0041
2650.00,0.0041
2649.00,0.0041
2648.00,0.0041
2647.00,0.0041
2646.00,0.0041
2645.00,0.0041
2644.00,0.0041
2643.00,0.0041
2642.00,0.0041
2641.00,0.0041
2640.00,0.0041
2639.00,0.0041
2638.00,0.0041
2637.00,0.0042
2636.00,0.0042
2635.00,0.0042
2634.00,0.0042
2633.00,0.0042
2632.00,0.0042
2631.00,0.0042
2630.00,0.0042
2629.00,0.0042
2628.00,0.0042
2627.00,0.0041
2626.00,0.0041
2625.00,0.0040
2624.00,0.0040
2623.00,0.0039
2622.00,0.0039
2621.00,0.0039
2620.00,0.0039
2619.00,0.0039
2618.00,0.0039
2617.00,0.0038
2616.00,0.0038
2615.00,0.0038
2614.00,0.0038
2613.00,0.0039
2612.00,0.0039
2611.00,0.0039
2610.00,0.0039
2609.00,0.0039
2608.00,0.0039
2607.00,0.0039
2606.00,0.0039
2605.00,0.0040
2604.00,0.0040
2603.00,0.0040
2602.00,0.0040
2601.00,0.0039
2600.00,0.0039
2599.00,0.0039
2598.00,0.0038
2597.00,0.0038
2596.00,0.0038
2595.00,0.0037
2594.00,0.0037
2593.00,0.0036
2592.00,0.0036
2591.00,0.0036
2590.00,0.0036
2589.00,0.0036
2588.00,0.0036
2587.00,0.0036
2586.00,0.0036
2585.00,0.0036
2584.00,0.0036
2583.00,0.0037
2582.00,0.0036
2581.00,0.0036
2580.00,0.0036
2579.00,0.0036
2578.00,0.0036
2577.00,0.0035
2576.00,0.0035
2575.00,0.0034
2574.00,0.0034
2573.00,0.0034
2572.00,0.0034
2571.00,0.0034
2570.00,0.0034
2569.00,0.0033
2568.00,0.0033
2567.00,0.0033
2566.00,0.0033
2565.00,0.0033
2564.00,0.0033
2563.00,0.0033
2562.00,0.0033
2561.00,0.0033
2560.00,0.0033
2559.00,0.0033
2558.00,0.0033
2557.00,0.0033
2556.00,0.0033
2555.00,0.0033
2554.00,0.0032
2553.00,0.0032
2552.00,0.0032
2551.00,0.0032
2550.00,0.0032
2549.00,0.0032
2548.00,0.0032
2547.00,0.0032
2546.00,0.0032
2545.00,0.0032
2544.00,0.0032
2543.00,0.0032
2542.00,0.0032
2541.00,0.0032
2540.00,0.0032
2539.00,0.0032
2538.00,0.0032
2537.00,0.0032
2536.00,0.0031
2535.00,0.0031
2534.00,0.0031
2533.00,0.0030
2532.00,0.0030
2531.00,0.0031
2530.00,0.0031
2529.00,0.0031
2528.00,0.0031
2527.00,0.0031
2526.00,0.0031
2525.00,0.0031
2524.00,0.0031
2523.00,0.0031
2522.00,0.0031
2521.00,0.0030
2520.00,0.0030
2519.00,0.0030
2518.00,0.0030
2517.00,0.0030
2516.00,0.0030
2515.00,0.0031
2514.00,0.0031
2513.00,0.0031
2512.00,0.0031
2511.00,0.0031
2510.00,0.0031
2509.00,0.0031
2508.00,0.0031
2507.00,0.0031
2506.00,0.0031
2505.00,0.0031
2504.00,0.0031
2503.00,0.0031
2502.00,0.0031
2501.00,0.0030
2500.00,0.0030
2499.00,0.0030
2498.00,0.0030
2497.00,0.0030
2496.00,0.0030
2495.00,0.0030
2494.00,0.0030
2493.00,0.0030
2492.00,0.0029
2491.00,0.0029
2490.00,0.0029
2489.00,0.0029
2488.00,0.0029
2487.00,0.0029
2486.00,0.0029
2485.00,0.0029
2484.00,0.0029
2483.00,0.0028
2482.00,0.0028
2481.00,0.0028
2480.00,0.0028
2479.00,0.0028
2478.00,0.0028
2477.00,0.0028
2476.00,0.0028
2475.00,0.0028
2474.00,0.0028
2473.00,0.0028
2472.00,0.0028
2471.00,0.0028
2470.00,0.0028
2469.00,0.0028
2468.00,0.0028
2467.00,0.0028
2466.00,0.0028
2465.00,0.0028
2464.00,0.0028
2463.00,0.0028
2462.00,0.0028
2461.00,0.0028
2460.00,0.0028
2459.00,0.0028
2458.00,0.0028
2457.00,0.0028
2456.00,0.0028
2455.00,0.0028
2454.00,0.0028
2453.00,0.0028
2452.00,0.0028
2451.00,0.0028
2450.00,0.0028
2449.00,0.0028
2448.00,0.0028
2447.00,0.0028
2446.00,0.0028
2445.00,0.0027
2444.00,0.0028
2443.00,0.0028
2442.00,0.0028
2441.00,0.0027
2440.00,0.0027
2439.00,0.0027
2438.00,0.0027
2437.00,0.0027
2436.00,0.0027
2435.00,0.0027
2434.00,0.0027
2433.00,0.0026
2432.00,0.0026
2431.00,0.0026
2430.00,0.0026
2429.00,0.0026
2428.00,0.0026
2427.00,0.0025
2426.00,0.0025
2425.00,0.0025
2424.00,0.0025
2423.00,0.0025
2422.00,0.0025
2421.00,0.0025
2420.00,0.0025
2419.00,0.0024
2418.00,0.0024
2417.00,0.0024
2416.00,0.0024
2415.00,0.0024
2414.00,0.0025
2413.00,0.0025
2412.00,0.0025
2411.00,0.0025
2410.00,0.0024
2409.00,0.0024
2408.00,0.0023
2407.00,0.0023
2406.00,0.0023
2405.00,0.0023
2404.00,0.0024
2403.00,0.0024
2402.00,0.0024
2401.00,0.0024
2400.00,0.0023
2399.00,0.0023
2398.00,0.0023
2397.00,0.0023
2396.00,0.0023
2395.00,0.0023
2394.00,0.0022
2393.00,0.0022
2392.00,0.0022
2391.00,0.0022
2390.00,0.0022
2389.00,0.0022
2388.00,0.0023
2387.00,0.0023
2386.00,0.0023
2385.00,0.0023
2384.00,0.0023
2383.00,0.0023
2382.00,0.0023
2381.00,0.0023
2380.00,0.0023
2379.00,0.0024
2378.00,0.0024
2377.00,0.0024
2376.00,0.0024
2375.00,0.0024
2374.00,0.0024
2373.00,0.0024
2372.00,0.0024
2371.00,0.0023
2370.00,0.0023
2369.00,0.0023
2368.00,0.0023
2367.00,0.0023
2366.00,0.0023
2365.00,0.0024
2364.00,0.0025
2363.00,0.0026
2362.00,0.0027
2361.00,0.0027
2360.00,0.0027
2359.00,0.0028
2358.00,0.0028
2357.00,0.0028
2356.00,0.0028
2355.00,0.0028
2354.00,0.0029
2353.00,0.0029
2352.00,0.0029
2351.00,0.0029
2350.00,0.0030
2349.00,0.0030
2348.00,0.0031
2347.00,0.0031
2346.00,0.0032
2345.00,0.0032
2344.00,0.0032
2343.00,0.0033
2342.00,0.0033
2341.00,0.0034
2340.00,0.0035
2339.00,0.0035
2338.00,0.0036
2337.00,0.0036
2336.00,0.0036
2335.00,0.0035
2334.00,0.0034
2333.00,0.0034
2332.00,0.0033
2331.00,0.0032
2330.00,0.0033
2329.00,0.0034
2328.00,0.0038
2327.00,0.0042
2326.00,0.0046
2325.00,0.0047
2324.00,0.0046
2323.00,0.0044
2322.00,0.0042
2321.00,0.0040
2320.00,0.0039
2319.00,0.0039
2318.00,0.0038
2317.00,0.0038
2316.00,0.0038
2315.00,0.0037
2314.00,0.0037
2313.00,0.0037
2312.00,0.0037
2311.00,0.0036
2310.00,0.0036
2309.00,0.0035
2308.00,0.0035
2307.00,0.0034
2306.00,0.0034
2305.00,0.0034
2304.00,0.0034
2303.00,0.0033
2302.00,0.0033
2301.00,0.0034
2300.00,0.0034
2299.00,0.0034
2298.00,0.0034
2297.00,0.0034
2296.00,0.0034
2295.00,0.0035
2294.00,0.0036
2293.00,0.0037
2292.00,0.0038
2291.00,0.0039
2290.00,0.0040
2289.00,0.0040
2288.00,0.0040
2287.00,0.0040
2286.00,0.0040
2285.00,0.0039
2284.00,0.0037
2283.00,0.0036
2282.00,0.0035
2281.00,0.0035
2280.00,0.0034
2279.00,0.0034
2278.00,0.0033
2277.00,0.0032
2276.00,0.0031
2275.00,0.0031
2274.00,0.0031
2273.00,0.0031
2272.00,0.0031
2271.00,0.0031
2270.00,0.0031
2269.00,0.0030
2268.00,0.0029
2267.00,0.0028
2266.00,0.0028
2265.00,0.0028
2264.00,0.0029
2263.00,0.0029
2262.00,0.0030
2261.00,0.0031
2260.00,0.0032
2259.00,0.0033
2258.00,0.0032
2257.00,0.0031
2256.00,0.0030
2255.00,0.0029
2254.00,0.0028
2253.00,0.0028
2252.00,0.0027
2251.00,0.0027
2250.00,0.0027
2249.00,0.0027
2248.00,0.0027
2247.00,0.0027
2246.00,0.0028
2245.00,0.0028
2244.00,0.0028
2243.00,0.0027
2242.00,0.0027
2241.00,0.0027
2240.00,0.0027
2239.00,0.0027
2238.00,0.0026
2237.00,0.0026
2236.00,0.0025
2235.00,0.0026
2234.00,0.0026
2233.00,0.0026
2232.00,0.0027
2231.00,0.0026
2230.00,0.0026
2229.00,0.0025
2228.00,0.0026
2227.00,0.0026
2226.00,0.0027
2225.00,0.0026
2224.00,0.0026
2223.00,0.0025
2222.00,0.0025
2221.00,0.0025
2220.00,0.0025
2219.00,0.0026
2218.00,0.0026
2217.00,0.0025
2216.00,0.0024
2215.00,0.0024
2214.00,0.0024
2213.00,0.0024
2212.00,0.0024
2211.00,0.0023
2210.00,0.0023
2209.00,0.0023
2208.00,0.0023
2207.00,0.0023
2206.00,0.0024
2205.00,0.0024
2204.00,0.0025
2203.00,0.0025
2202.00,0.0025
2201.00,0.0024
2200.00,0.0023
2199.00,0.0023
2198.00,0.0023
2197.00,0.0024
2196.00,0.0025
2195.00,0.0025
2194.00,0.0026
2193.00,0.0026
2192.00,0.0026
2191.00,0.0025
2190.00,0.0025
2189.00,0.0025
2188.00,0.0026
2187.00,0.0027
2186.00,0.0026
2185.00,0.0024
2184.00,0.0021
2183.00,0.0019
2182.00,0.0019
2181.00,0.0019
2180.00,0.0021
2179.00,0.0022
2178.00,0.0023
2177.00,0.0022
2176.00,0.0021
2175.00,0.0020
2174.00,0.0021
2173.00,0.0022
2172.00,0.0025
2171.00,0.0028
2170.00,0.0031
2169.00,0.0033
2168.00,0.0034
2167.00,0.0034
2166.00,0.0034
2165.00,0.0035
2164.00,0.0036
2163.00,0.0035
2162.00,0.0030
2161.00,0.0018
2160.00,0.0002
2159.00,-0.0010
2158.00,-0.0015
2157.00,-0.0014
2156.00,-0.0010
2155.00,-0.0006
2154.00,-0.0003
2153.00,-0.0001
2152.00,0.0000
2151.00,0.0001
2150.00,0.0003
2149.00,0.0003
2148.00,0.0003
2147.00,0.0002
2146.00,0.0002
2145.00,0.0001
2144.00,0.0001
2143.00,0.0002
2142.00,0.0002
2141.00,0.0003
2140.00,0.0004
2139.00,0.0003
2138.00,0.0002
2137.00,-0.0000
2136.00,-0.0003
2135.00,-0.0004
2134.00,-0.0004
2133.00,-0.0002
2132.00,-0.0000
2131.00,0.0002
2130.00,0.0003
2129.00,0.0004
2128.00,0.0006
2127.00,0.0008
2126.00,0.0010
2125.00,0.0011
2124.00,0.0012
2123.00,0.0012
2122.00,0.0013
2121.00,0.0014
2120.00,0.0016
2119.00,0.0017
2118.00,0.0018
2117.00,0.0019
2116.00,0.0019
2115.00,0.0020
2114.00,0.0021
2113.00,0.0021
2112.00,0.0021
2111.00,0.0021
2110.00,0.0021
2109.00,0.0020
2108.00,0.0019
2107.00,0.0019
2106.00,0.0020
2105.00,0.0020
2104.00,0.0021
2103.00,0.0021
2102.00,0.0020
2101.00,0.0020
2100.00,0.0019
2099.00,0.0018
2098.00,0.0017
2097.00,0.0015
2096.00,0.0014
2095.00,0.0013
2094.00,0.0013
2093.00,0.0014
2092.00,0.0016
2091.00,0.0017
2090.00,0.0017
2089.00,0.0018
2088.00,0.0020
2087.00,0.0021
2086.00,0.0021
2085.00,0.0021
2084.00,0.0021
2083.00,0.0021
2082.00,0.0022
2081.00,0.0022
2080.00,0.0021
2079.00,0.0021
2078.00,0.0021
2077.00,0.0021
2076.00,0.0021
2075.00,0.0021
2074.00,0.0021
2073.00,0.0021
2072.00,0.0021
2071.00,0.0021
2070.00,0.0020
2069.00,0.0020
2068.00,0.0020
2067.00,0.0019
2066.00,0.0019
2065.00,0.0018
2064.00,0.0017
2063.00,0.0017
2062.00,0.0016
2061.00,0.0015
2060.00,0.0014
2059.00,0.0014
2058.00,0.0015
2057.00,0.0016
2056.00,0.0016
2055.00,0.0017
2054.00,0.0020
2053.00,0.0025
2052.00,0.0028
2051.00,0.0028
2050.00,0.0025
2049.00,0.0022
2048.00,0.0019
2047.00,0.0018
2046.00,0.0017
2045.00,0.0018
2044.00,0.0019
2043.00,0.0020
2042.00,0.0020
2041.00,0.0019
2040.00,0.0018
2039.00,0.0017
2038.00,0.0017
2037.00,0.0016
2036.00,0.0015
2035.00,0.0013
2034.00,0.0012
2033.00,0.0012
2032.00,0.0013
2031.00,0.0014
2030.00,0.0013
2029.00,0.0012
2028.00,0.0012
2027.00,0.0012
2026.00,0.0013
2025.00,0.0013
2024.00,0.0012
2023.00,0.0011
2022.00,0.0010
2021.00,0.0009
2020.00,0.0008
2019.00,0.0009
2018.00,0.0010
2017.00,0.0011
2016.00,0.0011
2015.00,0.0011
2014.00,0.0011
2013.00,0.0011
2012.00,0.0011
2011.00,0.0011
2010.00,0.0011
2009.00,0.0009
2008.00,0.0006
2007.00,0.0003
2006.00,0.0002
2005.00,0.0003
2004.00,0.0006
2003.00,0.0008
2002.00,0.0010
2001.00,0.0011
2000.00,0.0013
1999.00,0.0015
1998.00,0.0016
1997.00,0.0017
1996.00,0.0018
1995.00,0.0018
1994.00,0.0018
1993.00,0.0018
1992.00,0.0018
1991.00,0.0020
1990.00,0.0023
1989.00,0.0025
1988.00,0.0026
1987.00,0.0026
1986.00,0.0027
1985.00,0.0028
1984.00,0.0029
1983.00,0.0032
1982.00,0.0035
1981.00,0.0037
1980.00,0.0035
1979.00,0.0029
1978.00,0.0023
1977.00,0.0017
1976.00,0.0015
1975.00,0.0014
1974.00,0.0015
1973.00,0.0015
1972.00,0.0016
1971.00,0.0017
1970.00,0.0018
1969.00,0.0019
1968.00,0.0020
1967.00,0.0021
1966.00,0.0022
1965.00,0.0024
1964.00,0.0026
1963.00,0.0028
1962.00,0.0030
1961.00,0.0030
1960.00,0.0031
1959.00,0.0032
1958.00,0.0034
1957.00,0.0036
1956.00,0.0038
1955.00,0.0040
1954.00,0.0042
1953.00,0.0044
1952.00,0.0047
1951.00,0.0049
1950.00,0.0051
1949.00,0.0053
1948.00,0.0055
1947.00,0.0057
1946.00,0.0060
1945.00,0.0061
1944.00,0.0062
1943.00,0.0062
1942.00,0.0062
1941.00,0.0060
1940.00,0.0059
1939.00,0.0057
1938.00,0.0055
1937.00,0.0053
1936.00,0.0051
1935.00,0.0048
1934.00,0.0044
1933.00,0.0040
1932.00,0.0036
1931.00,0.0033
1930.00,0.0031
1929.00,0.0029
1928.00,0.0028
1927.00,0.0026
1926.00,0.0025
1925.00,0.0024
1924.00,0.0023
1923.00,0.0023
1922.00,0.0023
1921.00,0.0022
1920.00,0.0022
1919.00,0.0022
1918.00,0.0022
1917.00,0.0021
1916.00,0.0020
1915.00,0.0020
1914.00,0.0020
1913.00,0.0020
1912.00,0.0020
1911.00,0.0020
1910.00,0.0020
1909.00,0.0020
1908.00,0.0020
1907.00,0.0020
1906.00,0.0020
1905.00,0.0021
1904.00,0.0021
1903.00,0.0022
1902.00,0.0023
1901.00,0.0024
1900.00,0.0024
1899.00,0.0025
1898.00,0.0026
1897.00,0.0028
1896.00,0.0030
1895.00,0.0031
1894.00,0.0033
1893.00,0.0034
1892.00,0.0036
1891.00,0.0037
1890.00,0.0039
1889.00,0.0041
1888.00,0.0043
1887.00,0.0044
1886.00,0.0046
1885.00,0.0047
1884.00,0.0048
1883.00,0.0049
1882.00,0.0050
1881.00,0.0051
1880.00,0.0052
1879.00,0.0052
1878.00,0.0053
1877.00,0.0054
1876.00,0.0055
1875.00,0.0056
1874.00,0.0057
1873.00,0.0058
1872.00,0.0058
1871.00,0.0059
1870.00,0.0059
1869.00,0.0059
1868.00,0.0058
1867.00,0.0057
1866.00,0.0056
1865.00,0.0054
1864.00,0.0052
1863.00,0.0050
1862.00,0.0048
1861.00,0.0045
1860.00,0.0043
1859.00,0.0040
1858.00,0.0037
1857.00,0.0034
1856.00,0.0032
1855.00,0.0031
1854.00,0.0029
1853.00,0.0028
1852.00,0.0027
1851.00,0.0026
1850.00,0.0025
1849.00,0.0025
1848.00,0.0024
1847.00,0.0024
1846.00,0.0023
1845.00,0.0022
1844.00,0.0022
1843.00,0.0022
1842.00,0.0022
1841.00,0.0022
1840.00,0.0022
1839.00,0.0022
1838.00,0.0023
1837.00,0.0023
1836.00,0.0023
1835.00,0.0023
1834.00,0.0024
1833.00,0.0024
1832.00,0.0025
1831.00,0.0026
1830.00,0.0027
1829.00,0.0029
1828.00,0.0030
1827.00,0.0031
1826.00,0.0033
1825.00,0.0034
1824.00,0.0035
1823.00,0.0037
1822.00,0.0038
1821.00,0.0039
1820.00,0.0040
1819.00,0.0041
1818.00,0.0041
1817.00,0.0043
1816.00,0.0044
1815.00,0.0047
1814.00,0.0049
1813.00,0.0051
1812.00,0.0053
1811.00,0.0055
1810.00,0.0057
1809.00,0.0059
1808.00,0.0061
1807.00,0.0063
1806.00,0.0064
1805.00,0.0066
1804.00,0.0067
1803.00,0.0068
1802.00,0.0068
1801.00,0.0067
1800.00,0.0066
1799.00,0.0064
1798.00,0.0063
1797.00,0.0061
1796.00,0.0059
1795.00,0.0056
1794.00,0.0054
1793.00,0.0051
1792.00,0.0049
1791.00,0.0046
1790.00,0.0043
1789.00,0.0041
1788.00,0.0039
1787.00,0.0038
1786.00,0.0037
1785.00,0.0036
1784.00,0.0036
1783.00,0.0035
1782.00,0.0035
1781.00,0.0036
1780.00,0.0036
1779.00,0.0036
1778.00,0.0036
1777.00,0.0036
1776.00,0.0036
1775.00,0.0036
1774.00,0.0037
1773.00,0.0037
1772.00,0.0037
1771.00,0.0038
1770.00,0.0038
1769.00,0.0038
1768.00,0.0038
1767.00,0.0038
1766.00,0.0039
1765.00,0.0039
1764.00,0.0041
1763.00,0.0042
1762.00,0.0044
1761.00,0.0046
1760.00,0.0048
1759.00,0.0049
1758.00,0.0051
1757.00,0.0054
1756.00,0.0056
1755.00,0.0058
1754.00,0.0060
1753.00,0.0063
1752.00,0.0065
1751.00,0.0068
1750.00,0.0070
1749.00,0.0071
1748.00,0.0072
1747.00,0.0074
1746.00,0.0075
1745.00,0.0076
1744.00,0.0076
1743.00,0.0076
1742.00,0.0075
1741.00,0.0074
1740.00,0.0074
1739.00,0.0073
1738.00,0.0073
1737.00,0.0072
1736.00,0.0072
1735.00,0.0071
1734.00,0.0071
1733.00,0.0069
1732.00,0.0067
1731.00,0.0065
1730.00,0.0064
1729.00,0.0062
1728.00,0.0061
1727.00,0.0060
1726.00,0.0059
1725.00,0.0058
1724.00,0.0058
1723.00,0.0057
1722.00,0.0056
1721.00,0.0055
1720.00,0.0055
1719.00,0.0055
1718.00,0.0055
1717.00,0.0055
1716.00,0.0054
1715.00,0.0052
1714.00,0.0051
1713.00,0.0051
1712.00,0.0050
1711.00,0.0050
1710.00,0.0049
1709.00,0.0049
1708.00,0.0048
1707.00,0.0048
1706.00,0.0048
1705.00,0.0048
1704.00,0.0048
1703.00,0.0047
1702.00,0.0047
1701.00,0.0047
1700.00,0.0047
1699.00,0.0046
1698.00,0.0046
1697.00,0.0046
1696.00,0.0046
1695.00,0.0045
1694.00,0.0045
1693.00,0.0044
1692.00,0.0044
1691.00,0.0045
1690.00,0.0046
1689.00,0.0046
1688.00,0.0047
1687.00,0.0047
1686.00,0.0048
1685.00,0.0049
1684.00,0.0049
1683.00,0.0050
1682.00,0.0050
1681.00,0.0051
1680.00,0.0051
1679.00,0.0052
1678.00,0.0052
1677.00,0.0052
1676.00,0.0053
1675.00,0.0054
1674.00,0.0054
1673.00,0.0054
1672.00,0.0054
1671.00,0.0054
1670.00,0.0054
1669.00,0.0054
1668.00,0.0054
1667.00,0.0054
1666.00,0.0054
1665.00,0.0054
1664.00,0.0053
1663.00,0.0053
1662.00,0.0052
1661.00,0.0051
1660.00,0.0050
1659.00,0.0049
1658.00,0.0049
1657.00,0.0048
1656.00,0.0048
1655.00,0.0047
1654.00,0.0047
1653.00,0.0046
1652.00,0.0045
1651.00,0.0044
1650.00,0.0043
1649.00,0.0043
1648.00,0.0042
1647.00,0.0042
1646.00,0.0042
1645.00,0.0041
1644.00,0.0041
1643.00,0.0040
1642.00,0.0040
1641.00,0.0040
1640.00,0.0040
1639.00,0.0040
1638.00,0.0040
1637.00,0.0040
1636.00,0.0040
1635.00,0.0040
1634.00,0.0040
1633.00,0.0040
1632.00,0.0041
1631.00,0.0041
1630.00,0.0041
1629.00,0.0042
1628.00,0.0043
1627.00,0.0044
1626.00,0.0044
1625.00,0.0045
1624.00,0.0046
1623.00,0.0047
1622.00,0.0048
1621.00,0.0049
1620.00,0.0050
1619.00,0.0051
1618.00,0.0053
1617.00,0.0055
1616.00,0.0059
1615.00,0.0062
1614.00,0.0066
1613.00,0.0072
1612.00,0.0079
1611.00,0.0090
1610.00,0.0106
1609.00,0.0126
1608.00,0.0154
1607.00,0.0189
1606.00,0.0229
1605.00,0.0273
1604.00,0.0318
1603.00,0.0357
1602.00,0.0382
1601.00,0.0389
1600.00,0.0376
1599.00,0.0346
1598.00,0.0307
1597.00,0.0265
1596.00,0.0228
1595.00,0.0196
1594.00,0.0172
1593.00,0.0153
1592.00,0.0138
1591.00,0.0127
1590.00,0.0119
1589.00,0.0115
1588.00,0.0117
1587.00,0.0125
1586.00,0.0138
1585.00,0.0152
1584.00,0.0162
1583.00,0.0164
1582.00,0.0156
1581.00,0.0141
1580.00,0.0122
1579.00,0.0106
1578.00,0.0092
1577.00,0.0082
1576.00,0.0073
1575.00,0.0066
1574.00,0.0062
1573.00,0.0058
1572.00,0.0055
1571.00,0.0053
1570.00,0.0051
1569.00,0.0049
1568.00,0.0048
1567.00,0.0047
1566.00,0.0046
1565.00,0.0045
1564.00,0.0045
1563.00,0.0045
1562.00,0.0045
1561.00,0.0045
1560.00,0.0044
1559.00,0.0045
1558.00,0.0046
1557.00,0.0047
1556.00,0.0048
1555.00,0.0049
1554.00,0.0051
1553.00,0.0052
1552.00,0.0054
1551.00,0.0056
1550.00,0.0058
1549.00,0.0059
1548.00,0.0061
1547.00,0.0063
1546.00,0.0065
1545.00,0.0067
1544.00,0.0067
1543.00,0.0067
1542.00,0.0067
1541.00,0.0066
1540.00,0.0066
1539.00,0.0065
1538.00,0.0063
1537.00,0.0062
1536.00,0.0060
1535.00,0.0059
1534.00,0.0057
1533.00,0.0055
1532.00,0.0053
1531.00,0.0051
1530.00,0.0050
1529.00,0.0049
1528.00,0.0048
1527.00,0.0047
1526.00,0.0046
1525.00,0.0045
1524.00,0.0045
1523.00,0.0045
1522.00,0.0046
1521.00,0.0046
1520.00,0.0046
1519.00,0.0047
1518.00,0.0047
1517.00,0.0048
1516.00,0.0049
1515.00,0.0050
1514.00,0.0052
1513.00,0.0053
1512.00,0.0055
1511.00,0.0057
1510.00,0.0059
1509.00,0.0061
1508.00,0.0063
1507.00,0.0067
1506.00,0.0073
1505.00,0.0080
1504.00,0.0088
1503.00,0.0098
1502.00,0.0113
1501.00,0.0134
1500.00,0.0166
1499.00,0.0217
1498.00,0.0298
1497.00,0.0424
1496.00,0.0587
1495.00,0.0757
1494.00,0.0892
1493.00,0.0963
1492.00,0.0953
1491.00,0.0860
1490.00,0.0715
1489.00,0.0567
1488.00,0.0448
1487.00,0.0361
1486.00,0.0297
1485.00,0.0249
1484.00,0.0211
1483.00,0.0181
1482.00,0.0157
1481.00,0.0139
1480.00,0.0127
1479.00,0.0118
1478.00,0.0111
1477.00,0.0105
1476.00,0.0101
1475.00,0.0097
1474.00,0.0094
1473.00,0.0093
1472.00,0.0093
1471.00,0.0093
1470.00,0.0095
1469.00,0.0097
1468.00,0.0100
1467.00,0.0102
1466.00,0.0105
1465.00,0.0109
1464.00,0.0115
1463.00,0.0123
1462.00,0.0133
1461.00,0.0147
1460.00,0.0168
1459.00,0.0205
1458.00,0.0277
1457.00,0.0402
1456.00,0.0561
1455.00,0.0716
1454.00,0.0846
1453.00,0.0942
1452.00,0.0986
1451.00,0.0972
1450.00,0.0913
1449.00,0.0835
1448.00,0.0757
1447.00,0.0689
1446.00,0.0632
1445.00,0.0582
1444.00,0.0534
1443.00,0.0488
1442.00,0.0446
1441.00,0.0409
1440.00,0.0377
1439.00,0.0348
1438.00,0.0319
1437.00,0.0288
1436.00,0.0257
1435.00,0.0229
1434.00,0.0208
1433.00,0.0189
1432.00,0.0171
1431.00,0.0156
1430.00,0.0142
1429.00,0.0131
1428.00,0.0122
1427.00,0.0116
1426.00,0.0110
1425.00,0.0106
1424.00,0.0101
1423.00,0.0098
1422.00,0.0096
1421.00,0.0095
1420.00,0.0093
1419.00,0.0091
1418.00,0.0088
1417.00,0.0086
1416.00,0.0083
1415.00,0.0081
1414.00,0.0080
1413.00,0.0079
1412.00,0.0078
1411.00,0.0076
1410.00,0.0075
1409.00,0.0074
1408.00,0.0073
1407.00,0.0072
1406.00,0.0071
1405.00,0.0070
1404.00,0.0068
1403.00,0.0067
1402.00,0.0066
1401.00,0.0065
1400.00,0.0064
1399.00,0.0064
1398.00,0.0064
1397.00,0.0065
1396.00,0.0065
1395.00,0.0067
1394.00,0.0070
1393.00,0.0073
1392.00,0.0078
1391.00,0.0083
1390.00,0.0090
1389.00,0.0096
1388.00,0.0103
1387.00,0.0110
1386.00,0.0117
1385.00,0.0123
1384.00,0.0129
1383.00,0.0135
1382.00,0.0141
1381.00,0.0147
1380.00,0.0153
1379.00,0.0160
1378.00,0.0167
1377.00,0.0174
1376.00,0.0180
1375.00,0.0186
1374.00,0.0190
1373.00,0.0193
1372.00,0.0195
1371.00,0.0195
1370.00,0.0195
1369.00,0.0195
1368.00,0.0194
1367.00,0.0193
1366.00,0.0192
1365.00,0.0191
1364.00,0.0190
1363.00,0.0188
1362.00,0.0186
1361.00,0.0183
1360.00,0.0180
1359.00,0.0177
1358.00,0.0174
1357.00,0.0172
1356.00,0.0170
1355.00,0.0168
1354.00,0.0167
1353.00,0.0167
1352.00,0.0167
1351.00,0.0167
1350.00,0.0167
1349.00,0.0167
1348.00,0.0166
1347.00,0.0164
1346.00,0.0162
1345.00,0.0159
1344.00,0.0156
1343.00,0.0153
1342.00,0.0151
1341.00,0.0149
1340.00,0.0148
1339.00,0.0146
1338.00,0.0146
1337.00,0.0146
1336.00,0.0148
1335.00,0.0150
1334.00,0.0155
1333.00,0.0159
1332.00,0.0164
1331.00,0.0168
1330.00,0.0172
1329.00,0.0174
1328.00,0.0174
1327.00,0.0173
1326.00,0.0171
1325.00,0.0168
1324.00,0.0166
1323.00,0.0163
1322.00,0.0162
1321.00,0.0161
1320.00,0.0160
1319.00,0.0160
1318.00,0.0162
1317.00,0.0163
1316.00,0.0165
1315.00,0.0168
1314.00,0.0170
1313.00,0.0171
1312.00,0.0171
1311.00,0.0170
1310.00,0.0169
1309.00,0.0166
1308.00,0.0164
1307.00,0.0161
1306.00,0.0158
1305.00,0.0155
1304.00,0.0152
1303.00,0.0149
1302.00,0.0146
1301.00,0.0143
1300.00,0.0140
1299.00,0.0138
1298.00,0.0136
1297.00,0.0135
1296.00,0.0134
1295.00,0.0133
1294.00,0.0132
1293.00,0.0131
1292.00,0.0130
1291.00,0.0128
1290.00,0.0127
1289.00,0.0126
1288.00,0.0124
1287.00,0.0123
1286.00,0.0122
1285.00,0.0121
1284.00,0.0120
1283.00,0.0120
1282.00,0.0120
1281.00,0.0119
1280.00,0.0117
1279.00,0.0116
1278.00,0.0113
1277.00,0.0111
1276.00,0.0107
1275.00,0.0104
1274.00,0.0101
1273.00,0.0099
1272.00,0.0096
1271.00,0.0093
1270.00,0.0090
1269.00,0.0088
1268.00,0.0086
1267.00,0.0085
1266.00,0.0083
1265.00,0.0082
1264.00,0.0081
1263.00,0.0080
1262.00,0.0080
1261.00,0.0079
1260.00,0.0079
1259.00,0.0079
1258.00,0.0079
1257.00,0.0078
1256.00,0.0078
1255.00,0.0078
1254.00,0.0078
1253.00,0.0078
1252.00,0.0078
1251.00,0.0079
1250.00,0.0080
1249.00,0.0081
1248.00,0.0081
1247.00,0.0082
1246.00,0.0083
1245.00,0.0083
1244.00,0.0083
1243.00,0.0083
1242.00,0.0083
1241.00,0.0083
1240.00,0.0082
1239.00,0.0082
1238.00,0.0082
1237.00,0.0082
1236.00,0.0082
1235.00,0.0082
1234.00,0.0083
1233.00,0.0083
1232.00,0.0084
1231.00,0.0084
1230.00,0.0085
1229.00,0.0086
1228.00,0.0087
1227.00,0.0088
1226.00,0.0089
1225.00,0.0090
1224.00,0.0090
1223.00,0.0090
1222.00,0.0091
1221.00,0.0091
1220.00,0.0091
1219.00,0.0091
1218.00,0.0092
1217.00,0.0092
1216.00,0.0093
1215.00,0.0093
1214.00,0.0095
1213.00,0.0096
1212.00,0.0098
1211.00,0.0100
1210.00,0.0102
1209.00,0.0105
1208.00,0.0107
1207.00,0.0110
1206.00,0.0113
1205.00,0.0117
1204.00,0.0120
1203.00,0.0124
1202.00,0.0128
1201.00,0.0131
1200.00,0.0134
1199.00,0.0137
1198.00,0.0139
1197.00,0.0140
1196.00,0.0141
1195.00,0.0141
1194.00,0.0142
1193.00,0.0142
1192.00,0.0143
1191.00,0.0143
1190.00,0.0144
1189.00,0.0146
1188.00,0.0148
1187.00,0.0153
1186.00,0.0160
1185.00,0.0168
1184.00,0.0177
1183.00,0.0185
1182.00,0.0190
1181.00,0.0191
1180.00,0.0185
1179.00,0.0175
1178.00,0.0162
1177.00,0.0147
1176.00,0.0134
1175.00,0.0123
1174.00,0.0114
1173.00,0.0108
1172.00,0.0104
1171.00,0.0101
1170.00,0.0099
1169.00,0.0097
1168.00,0.0096
1167.00,0.0096
1166.00,0.0096
1165.00,0.0097
1164.00,0.0098
1163.00,0.0101
1162.00,0.0106
1161.00,0.0112
1160.00,0.0122
1159.00,0.0134
1158.00,0.0147
1157.00,0.0161
1156.00,0.0172
1155.00,0.0178
1154.00,0.0177
1153.00,0.0169
1152.00,0.0155
1151.00,0.0139
1150.00,0.0123
1149.00,0.0109
1148.00,0.0098
1147.00,0.0089
1146.00,0.0083
1145.00,0.0078
1144.00,0.0074
1143.00,0.0071
1142.00,0.0068
1141.00,0.0066
1140.00,0.0064
1139.00,0.0062
1138.00,0.0061
1137.00,0.0061
1136.00,0.0061
1135.00,0.0061
1134.00,0.0062
1133.00,0.0062
1132.00,0.0063
1131.00,0.0063
1130.00,0.0064
1129.00,0.0065
1128.00,0.0066
1127.00,0.0066
1126.00,0.0067
1125.00,0.0069
1124.00,0.0070
1123.00,0.0071
1122.00,0.0073
1121.00,0.0076
1120.00,0.0079
1119.00,0.0082
1118.00,0.0086
1117.00,0.0090
1116.00,0.0093
1115.00,0.0096
1114.00,0.0099
1113.00,0.0101
1112.00,0.0102
1111.00,0.0102
1110.00,0.0102
1109.00,0.0102
1108.00,0.0100
1107.00,0.0099
1106.00,0.0099
1105.00,0.0099
1104.00,0.0099
1103.00,0.0100
1102.00,0.0101
1101.00,0.0102
1100.00,0.0103
1099.00,0.0104
1098.00,0.0105
1097.00,0.0107
1096.00,0.0108
1095.00,0.0109
1094.00,0.0110
1093.00,0.0111
1092.00,0.0112
1091.00,0.0113
1090.00,0.0115
1089.00,0.0118
1088.00,0.0121
1087.00,0.0124
1086.00,0.0129
1085.00,0.0135
1084.00,0.0140
1083.00,0.0146
1082.00,0.0152
1081.00,0.0158
1080.00,0.0164
1079.00,0.0170
1078.00,0.0177
1077.00,0.0185
1076.00,0.0194
1075.00,0.0205
1074.00,0.0217
1073.00,0.0228
1072.00,0.0239
1071.00,0.0247
1070.00,0.0254
1069.00,0.0257
1068.00,0.0256
1067.00,0.0252
1066.00,0.0245
1065.00,0.0235
1064.00,0.0224
1063.00,0.0213
1062.00,0.0203
1061.00,0.0194
1060.00,0.0185
1059.00,0.0177
1058.00,0.0171
1057.00,0.0165
1056.00,0.0159
1055.00,0.0155
1054.00,0.0151
1053.00,0.0148
1052.00,0.0145
1051.00,0.0142
1050.00,0.0140
1049.00,0.0138
1048.00,0.0137
1047.00,0.0135
1046.00,0.0134
1045.00,0.0133
1044.00,0.0132
1043.00,0.0132
1042.00,0.0133
1041.00,0.0136
1040.00,0.0140
1039.00,0.0148
1038.00,0.0160
1037.00,0.0178
1036.00,0.0203
1035.00,0.0237
1034.00,0.0278
1033.00,0.0324
1032.00,0.0371
1031.00,0.0414
1030.00,0.0450
1029.00,0.0474
1028.00,0.0483
1027.00,0.0474
1026.00,0.0451
1025.00,0.0419
1024.00,0.0383
1023.00,0.0350
1022.00,0.0322
1021.00,0.0299
1020.00,0.0279
1019.00,0.0262
1018.00,0.0248
1017.00,0.0235
1016.00,0.0224
1015.00,0.0215
1014.00,0.0207
1013.00,0.0200
1012.00,0.0193
1011.00,0.0188
1010.00,0.0185
1009.00,0.0183
1008.00,0.0183
1007.00,0.0186
1006.00,0.0191
1005.00,0.0196
1004.00,0.0199
1003.00,0.0199
1002.00,0.0194
1001.00,0.0184
1000.00,0.0171
999.00,0.0159
998.00,0.0150
997.00,0.0144
996.00,0.0140
995.00,0.0138
994.00,0.0138
993.00,0.0138
992.00,0.0138
991.00,0.0139
990.00,0.0141
989.00,0.0143
988.00,0.0146
987.00,0.0150
986.00,0.0155
985.00,0.0160
984.00,0.0164
983.00,0.0168
982.00,0.0172
981.00,0.0174
980.00,0.0174
979.00,0.0172
978.00,0.0169
977.00,0.0165
976.00,0.0159
975.00,0.0153
974.00,0.0148
973.00,0.0146
972.00,0.0145
971.00,0.0146
970.00,0.0150
969.00,0.0156
968.00,0.0162
967.00,0.0168
966.00,0.0173
965.00,0.0176
964.00,0.0176
963.00,0.0174
962.00,0.0169
961.00,0.0162
960.00,0.0153
959.00,0.0144
958.00,0.0135
957.00,0.0128
956.00,0.0123
955.00,0.0120
954.00,0.0119
953.00,0.0119
952.00,0.0120
951.00,0.0122
950.00,0.0124
949.00,0.0127
948.00,0.0129
947.00,0.0132
946.00,0.0134
945.00,0.0136
944.00,0.0137
943.00,0.0137
942.00,0.0136
941.00,0.0135
940.00,0.0131
939.00,0.0128
938.00,0.0124
937.00,0.0120
936.00,0.0115
935.00,0.0111
934.00,0.0107
933.00,0.0104
932.00,0.0102
931.00,0.0100
930.00,0.0099
929.00,0.0099
928.00,0.0099
927.00,0.0100
926.00,0.0102
925.00,0.0104
924.00,0.0107
923.00,0.0109
922.00,0.0113
921.00,0.0118
920.00,0.0123
919.00,0.0129
918.00,0.0137
917.00,0.0147
916.00,0.0160
915.00,0.0174
914.00,0.0192
913.00,0.0212
912.00,0.0233
911.00,0.0254
910.00,0.0276
909.00,0.0295
908.00,0.0308
907.00,0.0316
906.00,0.0317
905.00,0.0310
904.00,0.0296
903.00,0.0277
902.00,0.0255
901.00,0.0231
900.00,0.0207
899.00,0.0185
898.00,0.0166
897.00,0.0150
896.00,0.0137
895.00,0.0127
894.00,0.0121
893.00,0.0115
892.00,0.0110
891.00,0.0106
890.00,0.0102
889.00,0.0099
888.00,0.0096
887.00,0.0093
886.00,0.0091
885.00,0.0089
884.00,0.0087
883.00,0.0085
882.00,0.0085
881.00,0.0084
880.00,0.0083
879.00,0.0082
878.00,0.0081
877.00,0.0080
876.00,0.0079
875.00,0.0079
874.00,0.0078
873.00,0.0077
872.00,0.0076
871.00,0.0074
870.00,0.0073
869.00,0.0073
868.00,0.0073
867.00,0.0072
866.00,0.0072
865.00,0.0072
864.00,0.0071
863.00,0.0071
862.00,0.0071
861.00,0.0072
860.00,0.0072
859.00,0.0073
858.00,0.0075
857.00,0.0076
856.00,0.0077
855.00,0.0079
854.00,0.0081
853.00,0.0085
852.00,0.0090
851.00,0.0096
850.00,0.0104
849.00,0.0113
848.00,0.0122
847.00,0.0132
846.00,0.0141
845.00,0.0149
844.00,0.0155
843.00,0.0159
842.00,0.0161
841.00,0.0161
840.00,0.0157
839.00,0.0151
838.00,0.0143
837.00,0.0133
836.00,0.0122
835.00,0.0111
834.00,0.0101
833.00,0.0092
832.00,0.0085
831.00,0.0079
830.00,0.0076
829.00,0.0073
828.00,0.0071
827.00,0.0069
826.00,0.0069
825.00,0.0068
824.00,0.0067
823.00,0.0067
822.00,0.0067
821.00,0.0067
820.00,0.0067
819.00,0.0068
818.00,0.0069
817.00,0.0070
816.00,0.0070
815.00,0.0070
814.00,0.0071
813.00,0.0071
812.00,0.0071
811.00,0.0071
810.00,0.0072
809.00,0.0073
808.00,0.0073
807.00,0.0074
806.00,0.0075
805.00,0.0076
804.00,0.0077
803.00,0.0078
802.00,0.0081
801.00,0.0084
800.00,0.0086
799.00,0.0090
798.00,0.0094
797.00,0.0098
796.00,0.0103
795.00,0.0109
794.00,0.0116
793.00,0.0124
792.00,0.0131
791.00,0.0139
790.00,0.0148
789.00,0.0158
788.00,0.0168
787.00,0.0179
786.00,0.0190
785.00,0.0202
784.00,0.0215
783.00,0.0228
782.00,0.0245
781.00,0.0264
780.00,0.0285
779.00,0.0309
778.00,0.0338
777.00,0.0369
776.00,0.0404
775.00,0.0442
774.00,0.0484
773.00,0.0530
772.00,0.0578
771.00,0.0630
770.00,0.0685
769.00,0.0742
768.00,0.0799
767.00,0.0855
766.00,0.0910
765.00,0.0964
764.00,0.1017
763.00,0.1072
762.00,0.1129
761.00,0.1187
760.00,0.1244
759.00,0.1296
758.00,0.1342
757.00,0.1376
756.00,0.1397
755.00,0.1406
754.00,0.1406
753.00,0.1401
752.00,0.1393
751.00,0.1386
750.00,0.1382
749.00,0.1376
748.00,0.1364
747.00,0.1339
746.00,0.1297
745.00,0.1234
744.00,0.1153
743.00,0.1060
742.00,0.0965
741.00,0.0872
740.00,0.0786
739.00,0.0707
738.00,0.0636
737.00,0.0570
736.00,0.0506
735.00,0.0445
734.00,0.0389
733.00,0.0337
732.00,0.0292
731.00,0.0254
730.00,0.0225
729.00,0.0204
728.00,0.0187
727.00,0.0176
726.00,0.0168
725.00,0.0162
724.00,0.0157
723.00,0.0154
722.00,0.0154
721.00,0.0155
720.00,0.0156
719.00,0.0160
718.00,0.0166
717.00,0.0174
716.00,0.0185
715.00,0.0201
714.00,0.0224
713.00,0.0256
712.00,0.0300
711.00,0.0360
710.00,0.0443
709.00,0.0551
708.00,0.0689
707.00,0.0859
706.00,0.1065
705.00,0.1306
704.00,0.1582
703.00,0.1895
702.00,0.2246
701.00,0.2634
700.00,0.3051
699.00,0.3491
698.00,0.3935
697.00,0.4337
696.00,0.4612
695.00,0.4668
694.00,0.4460
693.00,0.4026
692.00,0.3477
691.00,0.2928
690.00,0.2451
689.00,0.2064
688.00,0.1760
687.00,0.1526
686.00,0.1347
685.00,0.1205
684.00,0.1088
683.00,0.0992
682.00,0.0913
681.00,0.0846
680.00,0.0788
679.00,0.0739
678.00,0.0698
677.00,0.0663
676.00,0.0632
675.00,0.0605
674.00,0.0581
673.00,0.0560
672.00,0.0541
671.00,0.0524
670.00,0.0509
669.00,0.0493
668.00,0.0473
667.00,0.0453
666.00,0.0436
665.00,0.0419
664.00,0.0400
663.00,0.0382
662.00,0.0366
661.00,0.0351
660.00,0.0335
659.00,0.0320
658.00,0.0307
657.00,0.0295
656.00,0.0282
655.00,0.0271
654.00,0.0261
653.00,0.0252
652.00,0.0242
651.00,0.0235
650.00,0.0229
649.00,0.0222
648.00,0.0216
647.00,0.0210
646.00,0.0206
645.00,0.0202
644.00,0.0199
643.00,0.0196
642.00,0.0195
641.00,0.0196
640.00,0.0197
639.00,0.0200
638.00,0.0204
637.00,0.0210
636.00,0.0215
635.00,0.0221
634.00,0.0228
633.00,0.0233
632.00,0.0237
631.00,0.0240
630.00,0.0245
629.00,0.0249
628.00,0.0252
627.00,0.0254
626.00,0.0257
625.00,0.0261
624.00,0.0265
623.00,0.0271
622.00,0.0277
621.00,0.0281
620.00,0.0279
619.00,0.0272
618.00,0.0264
617.00,0.0255
616.00,0.0247
615.00,0.0239
614.00,0.0235
613.00,0.0232
612.00,0.0229
611.00,0.0227
610.00,0.0225
609.00,0.0222
608.00,0.0218
607.00,0.0215
606.00,0.0215
605.00,0.0215
604.00,0.0215
603.00,0.0215
602.00,0.0217
601.00,0.0220
600.00,0.0221
599.00,0.0222
598.00,0.0225
597.00,0.0227
596.00,0.0229
595.00,0.0231
594.00,0.0236
593.00,0.0241
592.00,0.0246
591.00,0.0249
590.00,0.0254
589.00,0.0257
588.00,0.0260
587.00,0.0265
586.00,0.0271
585.00,0.0276
584.00,0.0281
583.00,0.0287
582.00,0.0296
581.00,0.0307
580.00,0.0318
579.00,0.0331
578.00,0.0346
577.00,0.0363
576.00,0.0380
575.00,0.0397
574.00,0.0416
573.00,0.0435
572.00,0.0453
571.00,0.0471
570.00,0.0490
569.00,0.0508
568.00,0.0525
567.00,0.0542
566.00,0.0559
565.00,0.0575
564.00,0.0590
563.00,0.0606
562.00,0.0625
561.00,0.0644
560.00,0.0662
559.00,0.0681
558.00,0.0700
557.00,0.0720
556.00,0.0738
555.00,0.0757
554.00,0.0777
553.00,0.0799
552.00,0.0821
551.00,0.0845
550.00,0.0874
549.00,0.0906
548.00,0.0940
547.00,0.0978
546.00,0.1019
545.00,0.1062
544.00,0.1105
543.00,0.1148
542.00,0.1191
541.00,0.1229
540.00,0.1258
539.00,0.1276
538.00,0.1281
537.00,0.1268
536.00,0.1239
535.00,0.1195
534.00,0.1141
533.00,0.1079
532.00,0.1012
531.00,0.0944
530.00,0.0878
529.00,0.0817
528.00,0.0759
527.00,0.0707
526.00,0.0661
525.00,0.0618
524.00,0.0577
523.00,0.0543
522.00,0.0515
521.00,0.0492
520.00,0.0471
519.00,0.0453
518.00,0.0438
517.00,0.0422
516.00,0.0406
515.00,0.0391
514.00,0.0381
513.00,0.0370
512.00,0.0357
511.00,0.0344
510.00,0.0334
509.00,0.0323
508.00,0.0311
507.00,0.0300
506.00,0.0293
505.00,0.0287
504.00,0.0278
503.00,0.0269
502.00,0.0261
501.00,0.0252
500.00,0.0242
499.00,0.0235
498.00,0.0232
497.00,0.0230
496.00,0.0225
495.00,0.0221
494.00,0.0219
493.00,0.0216
492.00,0.0209
491.00,0.0202
490.00,0.0198
489.00,0.0194
488.00,0.0189
487.00,0.0185
486.00,0.0184
485.00,0.0183
484.00,0.0180
483.00,0.0178
482.00,0.0179
481.00,0.0178
480.00,0.0174
479.00,0.0171
478.00,0.0172
477.00,0.0172
476.00,0.0168
475.00,0.0165
474.00,0.0166
473.00,0.0165
472.00,0.0159
471.00,0.0154
470.00,0.0153
469.00,0.0153
468.00,0.0151
467.00,0.0149
466.00,0.0152
465.00,0.0154
464.00,0.0152
463.00,0.0152
462.00,0.0155
461.00,0.0157
460.00,0.0152
459.00,0.0149
458.00,0.0151
457.00,0.0153
456.00,0.0150
455.00,0.0147
454.00,0.0147
453.00,0.0148
452.00,0.0144
451.00,0.0141
450.00,0.0142
449.00,0.0142
448.00,0.0138
447.00,0.0137
446.00,0.0142
445.00,0.0146
444.00,0.0142
443.00,0.0138
442.00,0.0138
441.00,0.0136
440.00,0.0130
439.00,0.0127
438.00,0.0132
437.00,0.0137
436.00,0.0137
435.00,0.0137
434.00,0.0141
433.00,0.0142
432.00,0.0134
431.00,0.0127
430.00,0.0125
429.00,0.0124
428.00,0.0117
427.00,0.0113
426.00,0.0117
425.00,0.0122
424.00,0.0120
423.00,0.0120
422.00,0.0129
421.00,0.0137
420.00,0.0134
419.00,0.0128
418.00,0.0130
417.00,0.0130
416.00,0.0122
415.00,0.0119
414.00,0.0128
413.00,0.0138
412.00,0.0139
411.00,0.0138
410.00,0.0145
409.00,0.0149
408.00,0.0145
407.00,0.0144
406.00,0.0154
405.00,0.0160
404.00,0.0146
403.00,0.0129
402.00,0.0129
401.00,0.0134
400.00,0.0131
