Created as New Dataset,Sample 913 By YargerLab Date Thursday, July 24 2025
cm-1,A
4000.00,0.0050
3999.00,0.0050
3998.00,0.0050
3997.00,0.0050
3996.00,0.0050
3995.00,0.0050
3994.00,0.0051
3993.00,0.0051
3992.00,0.0050
3991.00,0.0050
3990.00,0.0050
3989.00,0.0050
3988.00,0.0050
3987.00,0.0050
3986.00,0.0050
3985.00,0.0050
3984.00,0.0050
3983.00,0.0050
3982.00,0.0050
3981.00,0.0050
3980.00,0.0050
3979.00,0.0050
3978.00,0.0050
3977.00,0.0050
3976.00,0.0050
3975.00,0.0050
3974.00,0.0049
3973.00,0.0049
3972.00,0.0049
3971.00,0.0049
3970.00,0.0049
3969.00,0.0049
3968.00,0.0049
3967.00,0.0050
3966.00,0.0050
3965.00,0.0050
3964.00,0.0050
3963.00,0.0050
3962.00,0.0050
3961.00,0.0050
3960.00,0.0050
3959.00,0.0049
3958.00,0.0049
3957.00,0.0049
3956.00,0.0049
3955.00,0.0049
3954.00,0.0049
3953.00,0.0049
3952.00,0.0049
3951.00,0.0050
3950.00,0.0050
3949.00,0.0050
3948.00,0.0050
3947.00,0.0050
3946.00,0.0050
3945.00,0.0050
3944.00,0.0050
3943.00,0.0050
3942.00,0.0050
3941.00,0.0050
3940.00,0.0049
3939.00,0.0049
3938.00,0.0049
3937.00,0.0049
3936.00,0.0049
3935.00,0.0049
3934.00,0.0049
3933.00,0.0049
3932.00,0.0050
3931.00,0.0050
3930.00,0.0049
3929.00,0.0049
3928.00,0.0049
3927.00,0.0049
3926.00,0.0050
3925.00,0.0050
3924.00,0.0050
3923.00,0.0050
3922.00,0.0050
3921.00,0.0049
3920.00,0.0049
3919.00,0.0049
3918.00,0.0049
3917.00,0.0049
3916.00,0.0049
3915.00,0.0049
3914.00,0.0049
3913.00,0.0050
3912.00,0.0050
3911.00,0.0050
3910.00,0.0050
3909.00,0.0050
3908.00,0.0049
3907.00,0.0049
3906.00,0.0049
3905.00,0.0049
3904.00,0.0049
3903.00,0.0049
3902.00,0.0049
3901.00,0.0049
3900.00,0.0049
3899.00,0.0049
3898.00,0.0050
3897.00,0.0050
3896.00,0.0050
3895.00,0.0050
3894.00,0.0050
3893.00,0.0050
3892.00,0.0050
3891.00,0.0050
3890.00,0.0050
3889.00,0.0050
3888.00,0.0049
3887.00,0.0049
3886.00,0.0050
3885.00,0.0050
3884.00,0.0050
3883.00,0.0050
3882.00,0.0050
3881.00,0.0050
3880.00,0.0050
3879.00,0.0050
3878.00,0.0050
3877.00,0.0049
3876.00,0.0049
3875.00,0.0049
3874.00,0.0049
3873.00,0.0049
3872.00,0.0049
3871.00,0.0049
3870.00,0.0049
3869.00,0.0049
3868.00,0.0049
3867.00,0.0049
3866.00,0.0049
3865.00,0.0049
3864.00,0.0049
3863.00,0.0049
3862.00,0.0049
3861.00,0.0049
3860.00,0.0049
3859.00,0.0049
3858.00,0.0049
3857.00,0.0049
3856.00,0.0049
3855.00,0.0049
3854.00,0.0048
3853.00,0.0048
3852.00,0.0048
3851.00,0.0048
3850.00,0.0048
3849.00,0.0048
3848.00,0.0049
3847.00,0.0049
3846.00,0.0050
3845.00,0.0050
3844.00,0.0050
3843.00,0.0050
3842.00,0.0049
3841.00,0.0049
3840.00,0.0049
3839.00,0.0049
3838.00,0.0049
3837.00,0.0049
3836.00,0.0050
3835.00,0.0050
3834.00,0.0050
3833.00,0.0050
3832.00,0.0050
3831.00,0.0050
3830.00,0.0049
3829.00,0.0049
3828.00,0.0049
3827.00,0.0049
3826.00,0.0050
3825.00,0.0050
3824.00,0.0050
3823.00,0.0050
3822.00,0.0050
3821.00,0.0050
3820.00,0.0050
3819.00,0.0050
3818.00,0.0050
3817.00,0.0049
3816.00,0.0049
3815.00,0.0049
3814.00,0.0049
3813.00,0.0049
3812.00,0.0049
3811.00,0.0049
3810.00,0.0050
3809.00,0.0050
3808.00,0.0049
3807.00,0.0049
3806.00,0.0049
3805.00,0.0049
3804.00,0.0049
3803.00,0.0049
3802.00,0.0049
3801.00,0.0049
3800.00,0.0049
3799.00,0.0049
3798.00,0.0049
3797.00,0.0050
3796.00,0.0050
3795.00,0.0050
3794.00,0.0050
3793.00,0.0050
3792.00,0.0050
3791.00,0.0050
3790.00,0.0051
3789.00,0.0050
3788.00,0.0050
3787.00,0.0050
3786.00,0.0050
3785.00,0.0050
3784.00,0.0050
3783.00,0.0050
3782.00,0.0050
3781.00,0.0050
3780.00,0.0050
3779.00,0.0049
3778.00,0.0049
3777.00,0.0050
3776.00,0.0050
3775.00,0.0050
3774.00,0.0050
3773.00,0.0050
3772.00,0.0050
3771.00,0.0051
3770.00,0.0051
3769.00,0.0051
3768.00,0.0051
3767.00,0.0051
3766.00,0.0051
3765.00,0.0051
3764.00,0.0051
3763.00,0.0051
3762.00,0.0050
3761.00,0.0050
3760.00,0.0050
3759.00,0.0050
3758.00,0.0050
3757.00,0.0050
3756.00,0.0050
3755.00,0.0050
3754.00,0.0050
3753.00,0.0049
3752.00,0.0049
3751.00,0.0049
3750.00,0.0049
3749.00,0.0048
3748.00,0.0048
3747.00,0.0048
3746.00,0.0048
3745.00,0.0048
3744.00,0.0049
3743.00,0.0049
3742.00,0.0049
3741.00,0.0049
3740.00,0.0049
3739.00,0.0048
3738.00,0.0048
3737.00,0.0047
3736.00,0.0047
3735.00,0.0047
3734.00,0.0048
3733.00,0.0048
3732.00,0.0048
3731.00,0.0048
3730.00,0.0048
3729.00,0.0049
3728.00,0.0049
3727.00,0.0049
3726.00,0.0049
3725.00,0.0050
3724.00,0.0049
3723.00,0.0049
3722.00,0.0049
3721.00,0.0049
3720.00,0.0049
3719.00,0.0049
3718.00,0.0050
3717.00,0.0050
3716.00,0.0050
3715.00,0.0050
3714.00,0.0050
3713.00,0.0050
3712.00,0.0050
3711.00,0.0050
3710.00,0.0049
3709.00,0.0049
3708.00,0.0048
3707.00,0.0048
3706.00,0.0048
3705.00,0.0048
3704.00,0.0048
3703.00,0.0049
3702.00,0.0049
3701.00,0.0049
3700.00,0.0049
3699.00,0.0048
3698.00,0.0048
3697.00,0.0048
3696.00,0.0048
3695.00,0.0048
3694.00,0.0048
3693.00,0.0048
3692.00,0.0048
3691.00,0.0048
3690.00,0.0048
3689.00,0.0048
3688.00,0.0048
3687.00,0.0048
3686.00,0.0049
3685.00,0.0049
3684.00,0.0049
3683.00,0.0049
3682.00,0.0050
3681.00,0.0050
3680.00,0.0050
3679.00,0.0050
3678.00,0.0050
3677.00,0.0050
3676.00,0.0049
3675.00,0.0050
3674.00,0.0050
3673.00,0.0050
3672.00,0.0050
3671.00,0.0050
3670.00,0.0050
3669.00,0.0050
3668.00,0.0050
3667.00,0.0051
3666.00,0.0051
3665.00,0.0051
3664.00,0.0051
3663.00,0.0051
3662.00,0.0051
3661.00,0.0051
3660.00,0.0051
3659.00,0.0052
3658.00,0.0052
3657.00,0.0052
3656.00,0.0052
3655.00,0.0053
3654.00,0.0053
3653.00,0.0053
3652.00,0.0053
3651.00,0.0053
3650.00,0.0053
3649.00,0.0053
3648.00,0.0054
3647.00,0.0054
3646.00,0.0054
3645.00,0.0054
3644.00,0.0055
3643.00,0.0055
3642.00,0.0056
3641.00,0.0056
3640.00,0.0057
3639.00,0.0057
3638.00,0.0058
3637.00,0.0058
3636.00,0.0059
3635.00,0.0059
3634.00,0.0059
3633.00,0.0059
3632.00,0.0059
3631.00,0.0060
3630.00,0.0060
3629.00,0.0060
3628.00,0.0061
3627.00,0.0061
3626.00,0.0062
3625.00,0.0062
3624.00,0.0063
3623.00,0.0063
3622.00,0.0064
3621.00,0.0065
3620.00,0.0065
3619.00,0.0066
3618.00,0.0067
3617.00,0.0067
3616.00,0.0067
3615.00,0.0068
3614.00,0.0068
3613.00,0.0069
3612.00,0.0069
3611.00,0.0070
3610.00,0.0071
3609.00,0.0071
3608.00,0.0072
3607.00,0.0073
3606.00,0.0074
3605.00,0.0074
3604.00,0.0075
3603.00,0.0075
3602.00,0.0076
3601.00,0.0076
3600.00,0.0077
3599.00,0.0077
3598.00,0.0078
3597.00,0.0078
3596.00,0.0079
3595.00,0.0080
3594.00,0.0081
3593.00,0.0082
3592.00,0.0083
3591.00,0.0084
3590.00,0.0084
3589.00,0.0085
3588.00,0.0086
3587.00,0.0086
3586.00,0.0087
3585.00,0.0088
3584.00,0.0089
3583.00,0.0090
3582.00,0.0091
3581.00,0.0092
3580.00,0.0093
3579.00,0.0094
3578.00,0.0095
3577.00,0.0096
3576.00,0.0097
3575.00,0.0098
3574.00,0.0099
3573.00,0.0100
3572.00,0.0101
3571.00,0.0102
3570.00,0.0102
3569.00,0.0103
3568.00,0.0104
3567.00,0.0105
3566.00,0.0106
3565.00,0.0107
3564.00,0.0108
3563.00,0.0109
3562.00,0.0110
3561.00,0.0111
3560.00,0.0112
3559.00,0.0113
3558.00,0.0113
3557.00,0.0114
3556.00,0.0115
3555.00,0.0116
3554.00,0.0117
3553.00,0.0118
3552.00,0.0118
3551.00,0.0119
3550.00,0.0120
3549.00,0.0121
3548.00,0.0121
3547.00,0.0122
3546.00,0.0123
3545.00,0.0123
3544.00,0.0124
3543.00,0.0124
3542.00,0.0125
3541.00,0.0125
3540.00,0.0126
3539.00,0.0126
3538.00,0.0127
3537.00,0.0128
3536.00,0.0128
3535.00,0.0129
3534.00,0.0129
3533.00,0.0130
3532.00,0.0130
3531.00,0.0131
3530.00,0.0131
3529.00,0.0131
3528.00,0.0132
3527.00,0.0132
3526.00,0.0132
3525.00,0.0133
3524.00,0.0133
3523.00,0.0133
3522.00,0.0134
3521.00,0.0134
3520.00,0.0134
3519.00,0.0134
3518.00,0.0135
3517.00,0.0135
3516.00,0.0135
3515.00,0.0136
3514.00,0.0136
3513.00,0.0136
3512.00,0.0137
3511.00,0.0137
3510.00,0.0137
3509.00,0.0137
3508.00,0.0138
3507.00,0.0138
3506.00,0.0138
3505.00,0.0138
3504.00,0.0138
3503.00,0.0138
3502.00,0.0138
3501.00,0.0139
3500.00,0.0139
3499.00,0.0139
3498.00,0.0139
3497.00,0.0139
3496.00,0.0139
3495.00,0.0139
3494.00,0.0139
3493.00,0.0139
3492.00,0.0139
3491.00,0.0140
3490.00,0.0140
3489.00,0.0140
3488.00,0.0140
3487.00,0.0141
3486.00,0.0141
3485.00,0.0141
3484.00,0.0141
3483.00,0.0141
3482.00,0.0141
3481.00,0.0141
3480.00,0.0141
3479.00,0.0141
3478.00,0.0141
3477.00,0.0141
3476.00,0.0141
3475.00,0.0142
3474.00,0.0142
3473.00,0.0142
3472.00,0.0142
3471.00,0.0142
3470.00,0.0142
3469.00,0.0142
3468.00,0.0142
3467.00,0.0142
3466.00,0.0142
3465.00,0.0142
3464.00,0.0142
3463.00,0.0143
3462.00,0.0143
3461.00,0.0143
3460.00,0.0142
3459.00,0.0142
3458.00,0.0142
3457.00,0.0142
3456.00,0.0142
3455.00,0.0142
3454.00,0.0143
3453.00,0.0143
3452.00,0.0143
3451.00,0.0143
3450.00,0.0143
3449.00,0.0143
3448.00,0.0143
3447.00,0.0143
3446.00,0.0143
3445.00,0.0143
3444.00,0.0143
3443.00,0.0143
3442.00,0.0143
3441.00,0.0143
3440.00,0.0143
3439.00,0.0143
3438.00,0.0143
3437.00,0.0143
3436.00,0.0143
3435.00,0.0143
3434.00,0.0142
3433.00,0.0142
3432.00,0.0142
3431.00,0.0141
3430.00,0.0141
3429.00,0.0141
3428.00,0.0141
3427.00,0.0140
3426.00,0.0140
3425.00,0.0140
3424.00,0.0140
3423.00,0.0140
3422.00,0.0140
3421.00,0.0140
3420.00,0.0140
3419.00,0.0140
3418.00,0.0139
3417.00,0.0139
3416.00,0.0138
3415.00,0.0138
3414.00,0.0137
3413.00,0.0137
3412.00,0.0137
3411.00,0.0137
3410.00,0.0137
3409.00,0.0136
3408.00,0.0136
3407.00,0.0136
3406.00,0.0135
3405.00,0.0135
3404.00,0.0135
3403.00,0.0135
3402.00,0.0134
3401.00,0.0134
3400.00,0.0133
3399.00,0.0133
3398.00,0.0133
3397.00,0.0133
3396.00,0.0133
3395.00,0.0132
3394.00,0.0132
3393.00,0.0131
3392.00,0.0131
3391.00,0.0131
3390.00,0.0130
3389.00,0.0130
3388.00,0.0130
3387.00,0.0130
3386.00,0.0130
3385.00,0.0129
3384.00,0.0129
3383.00,0.0129
3382.00,0.0128
3381.00,0.0128
3380.00,0.0127
3379.00,0.0127
3378.00,0.0127
3377.00,0.0126
3376.00,0.0126
3375.00,0.0126
3374.00,0.0126
3373.00,0.0125
3372.00,0.0124
3371.00,0.0123
3370.00,0.0122
3369.00,0.0122
3368.00,0.0122
3367.00,0.0122
3366.00,0.0123
3365.00,0.0123
3364.00,0.0123
3363.00,0.0123
3362.00,0.0123
3361.00,0.0122
3360.00,0.0122
3359.00,0.0122
3358.00,0.0122
3357.00,0.0122
3356.00,0.0121
3355.00,0.0121
3354.00,0.0121
3353.00,0.0120
3352.00,0.0119
3351.00,0.0119
3350.00,0.0119
3349.00,0.0119
3348.00,0.0120
3347.00,0.0120
3346.00,0.0119
3345.00,0.0119
3344.00,0.0118
3343.00,0.0118
3342.00,0.0117
3341.00,0.0117
3340.00,0.0116
3339.00,0.0116
3338.00,0.0116
3337.00,0.0116
3336.00,0.0117
3335.00,0.0117
3334.00,0.0117
3333.00,0.0117
3332.00,0.0117
3331.00,0.0117
3330.00,0.0117
3329.00,0.0116
3328.00,0.0115
3327.00,0.0114
3326.00,0.0113
3325.00,0.0114
3324.00,0.0114
3323.00,0.0114
3322.00,0.0115
3321.00,0.0115
3320.00,0.0114
3319.00,0.0114
3318.00,0.0114
3317.00,0.0113
3316.00,0.0113
3315.00,0.0112
3314.00,0.0112
3313.00,0.0111
3312.00,0.0110
3311.00,0.0109
3310.00,0.0108
3309.00,0.0106
3308.00,0.0105
3307.00,0.0104
3306.00,0.0104
3305.00,0.0104
3304.00,0.0106
3303.00,0.0107
3302.00,0.0108
3301.00,0.0108
3300.00,0.0108
3299.00,0.0107
3298.00,0.0106
3297.00,0.0106
3296.00,0.0105
3295.00,0.0104
3294.00,0.0104
3293.00,0.0103
3292.00,0.0103
3291.00,0.0104
3290.00,0.0104
3289.00,0.0104
3288.00,0.0104
3287.00,0.0104
3286.00,0.0104
3285.00,0.0104
3284.00,0.0104
3283.00,0.0103
3282.00,0.0103
3281.00,0.0102
3280.00,0.0102
3279.00,0.0101
3278.00,0.0101
3277.00,0.0100
3276.00,0.0099
3275.00,0.0099
3274.00,0.0098
3273.00,0.0097
3272.00,0.0097
3271.00,0.0096
3270.00,0.0096
3269.00,0.0096
3268.00,0.0097
3267.00,0.0097
3266.00,0.0097
3265.00,0.0096
3264.00,0.0096
3263.00,0.0095
3262.00,0.0095
3261.00,0.0094
3260.00,0.0094
3259.00,0.0093
3258.00,0.0093
3257.00,0.0092
3256.00,0.0092
3255.00,0.0092
3254.00,0.0091
3253.00,0.0091
3252.00,0.0091
3251.00,0.0091
3250.00,0.0090
3249.00,0.0090
3248.00,0.0089
3247.00,0.0089
3246.00,0.0088
3245.00,0.0088
3244.00,0.0088
3243.00,0.0088
3242.00,0.0088
3241.00,0.0087
3240.00,0.0087
3239.00,0.0086
3238.00,0.0086
3237.00,0.0085
3236.00,0.0085
3235.00,0.0084
3234.00,0.0084
3233.00,0.0083
3232.00,0.0083
3231.00,0.0083
3230.00,0.0083
3229.00,0.0083
3228.00,0.0083
3227.00,0.0083
3226.00,0.0082
3225.00,0.0082
3224.00,0.0082
3223.00,0.0081
3222.00,0.0081
3221.00,0.0080
3220.00,0.0080
3219.00,0.0080
3218.00,0.0080
3217.00,0.0079
3216.00,0.0079
3215.00,0.0079
3214.00,0.0079
3213.00,0.0078
3212.00,0.0078
3211.00,0.0078
3210.00,0.0077
3209.00,0.0077
3208.00,0.0077
3207.00,0.0077
3206.00,0.0076
3205.00,0.0076
3204.00,0.0076
3203.00,0.0076
3202.00,0.0076
3201.00,0.0075
3200.00,0.0075
3199.00,0.0075
3198.00,0.0075
3197.00,0.0074
3196.00,0.0074
3195.00,0.0074
3194.00,0.0073
3193.00,0.0073
3192.00,0.0073
3191.00,0.0073
3190.00,0.0073
3189.00,0.0073
3188.00,0.0073
3187.00,0.0072
3186.00,0.0072
3185.00,0.0072
3184.00,0.0072
3183.00,0.0072
3182.00,0.0071
3181.00,0.0071
3180.00,0.0071
3179.00,0.0070
3178.00,0.0070
3177.00,0.0070
3176.00,0.0070
3175.00,0.0070
3174.00,0.0070
3173.00,0.0070
3172.00,0.0070
3171.00,0.0070
3170.00,0.0070
3169.00,0.0069
3168.00,0.0069
3167.00,0.0069
3166.00,0.0069
3165.00,0.0069
3164.00,0.0068
3163.00,0.0068
3162.00,0.0068
3161.00,0.0068
3160.00,0.0068
3159.00,0.0068
3158.00,0.0068
3157.00,0.0068
3156.00,0.0068
3155.00,0.0067
3154.00,0.0067
3153.00,0.0067
3152.00,0.0067
3151.00,0.0067
3150.00,0.0067
3149.00,0.0067
3148.00,0.0067
3147.00,0.0066
3146.00,0.0066
3145.00,0.0066
3144.00,0.0066
3143.00,0.0066
3142.00,0.0066
3141.00,0.0066
3140.00,0.0066
3139.00,0.0066
3138.00,0.0066
3137.00,0.0065
3136.00,0.0065
3135.00,0.0065
3134.00,0.0065
3133.00,0.0065
3132.00,0.0065
3131.00,0.0065
3130.00,0.0065
3129.00,0.0064
3128.00,0.0064
3127.00,0.0064
3126.00,0.0064
3125.00,0.0064
3124.00,0.0064
3123.00,0.0064
3122.00,0.0064
3121.00,0.0064
3120.00,0.0064
3119.00,0.0063
3118.00,0.0063
3117.00,0.0063
3116.00,0.0064
3115.00,0.0064
3114.00,0.0064
3113.00,0.0064
3112.00,0.0064
3111.00,0.0064
3110.00,0.0064
3109.00,0.0064
3108.00,0.0064
3107.00,0.0064
3106.00,0.0064
3105.00,0.0063
3104.00,0.0063
3103.00,0.0063
3102.00,0.0063
3101.00,0.0063
3100.00,0.0063
3099.00,0.0063
3098.00,0.0062
3097.00,0.0062
3096.00,0.0062
3095.00,0.0062
3094.00,0.0062
3093.00,0.0062
3092.00,0.0062
3091.00,0.0062
3090.00,0.0062
3089.00,0.0062
3088.00,0.0062
3087.00,0.0062
3086.00,0.0062
3085.00,0.0062
3084.00,0.0062
3083.00,0.0061
3082.00,0.0061
3081.00,0.0061
3080.00,0.0060
3079.00,0.0060
3078.00,0.0060
3077.00,0.0060
3076.00,0.0060
3075.00,0.0060
3074.00,0.0060
3073.00,0.0060
3072.00,0.0060
3071.00,0.0060
3070.00,0.0061
3069.00,0.0061
3068.00,0.0061
3067.00,0.0061
3066.00,0.0061
3065.00,0.0061
3064.00,0.0061
3063.00,0.0061
3062.00,0.0061
3061.00,0.0060
3060.00,0.0060
3059.00,0.0060
3058.00,0.0060
3057.00,0.0060
3056.00,0.0060
3055.00,0.0060
3054.00,0.0060
3053.00,0.0060
3052.00,0.0060
3051.00,0.0060
3050.00,0.0060
3049.00,0.0061
3048.00,0.0061
3047.00,0.0061
3046.00,0.0060
3045.00,0.0060
3044.00,0.0060
3043.00,0.0060
3042.00,0.0060
3041.00,0.0061
3040.00,0.0061
3039.00,0.0061
3038.00,0.0061
3037.00,0.0061
3036.00,0.0061
3035.00,0.0061
3034.00,0.0060
3033.00,0.0061
3032.00,0.0061
3031.00,0.0061
3030.00,0.0061
3029.00,0.0062
3028.00,0.0062
3027.00,0.0062
3026.00,0.0062
3025.00,0.0063
3024.00,0.0063
3023.00,0.0063
3022.00,0.0064
3021.00,0.0064
3020.00,0.0064
3019.00,0.0065
3018.00,0.0065
3017.00,0.0066
3016.00,0.0066
3015.00,0.0067
3014.00,0.0068
3013.00,0.0068
3012.00,0.0069
3011.00,0.0070
3010.00,0.0071
3009.00,0.0072
3008.00,0.0073
3007.00,0.0074
3006.00,0.0075
3005.00,0.0077
3004.00,0.0078
3003.00,0.0080
3002.00,0.0081
3001.00,0.0083
3000.00,0.0085
2999.00,0.0087
2998.00,0.0089
2997.00,0.0091
2996.00,0.0094
2995.00,0.0096
2994.00,0.0099
2993.00,0.0102
2992.00,0.0105
2991.00,0.0108
2990.00,0.0110
2989.00,0.0113
2988.00,0.0116
2987.00,0.0119
2986.00,0.0121
2985.00,0.0123
2984.00,0.0124
2983.00,0.0126
2982.00,0.0127
2981.00,0.0129
2980.00,0.0132
2979.00,0.0134
2978.00,0.0137
2977.00,0.0140
2976.00,0.0143
2975.00,0.0145
2974.00,0.0146
2973.00,0.0148
2972.00,0.0149
2971.00,0.0151
2970.00,0.0153
2969.00,0.0154
2968.00,0.0156
2967.00,0.0158
2966.00,0.0160
2965.00,0.0161
2964.00,0.0163
2963.00,0.0164
2962.00,0.0166
2961.00,0.0167
2960.00,0.0169
2959.00,0.0170
2958.00,0.0171
2957.00,0.0173
2956.00,0.0174
2955.00,0.0175
2954.00,0.0177
2953.00,0.0178
2952.00,0.0179
2951.00,0.0180
2950.00,0.0181
2949.00,0.0182
2948.00,0.0182
2947.00,0.0181
2946.00,0.0180
2945.00,0.0179
2944.00,0.0177
2943.00,0.0176
2942.00,0.0174
2941.00,0.0172
2940.00,0.0170
2939.00,0.0168
2938.00,0.0166
2937.00,0.0165
2936.00,0.0163
2935.00,0.0162
2934.00,0.0161
2933.00,0.0160
2932.00,0.0159
2931.00,0.0159
2930.00,0.0158
2929.00,0.0158
2928.00,0.0158
2927.00,0.0158
2926.00,0.0159
2925.00,0.0159
2924.00,0.0159
2923.00,0.0159
2922.00,0.0159
2921.00,0.0159
2920.00,0.0159
2919.00,0.0158
2918.00,0.0158
2917.00,0.0157
2916.00,0.0157
2915.00,0.0157
2914.00,0.0158
2913.00,0.0158
2912.00,0.0158
2911.00,0.0157
2910.00,0.0157
2909.00,0.0156
2908.00,0.0155
2907.00,0.0154
2906.00,0.0153
2905.00,0.0153
2904.00,0.0152
2903.00,0.0152
2902.00,0.0151
2901.00,0.0151
2900.00,0.0152
2899.00,0.0152
2898.00,0.0152
2897.00,0.0153
2896.00,0.0154
2895.00,0.0154
2894.00,0.0155
2893.00,0.0156
2892.00,0.0157
2891.00,0.0158
2890.00,0.0158
2889.00,0.0159
2888.00,0.0159
2887.00,0.0160
2886.00,0.0160
2885.00,0.0161
2884.00,0.0161
2883.00,0.0161
2882.00,0.0162
2881.00,0.0162
2880.00,0.0162
2879.00,0.0162
2878.00,0.0161
2877.00,0.0161
2876.00,0.0160
2875.00,0.0159
2874.00,0.0157
2873.00,0.0156
2872.00,0.0156
2871.00,0.0155
2870.00,0.0154
2869.00,0.0154
2868.00,0.0153
2867.00,0.0152
2866.00,0.0151
2865.00,0.0150
2864.00,0.0148
2863.00,0.0147
2862.00,0.0145
2861.00,0.0143
2860.00,0.0141
2859.00,0.0139
2858.00,0.0137
2857.00,0.0135
2856.00,0.0133
2855.00,0.0130
2854.00,0.0128
2853.00,0.0125
2852.00,0.0123
2851.00,0.0121
2850.00,0.0119
2849.00,0.0117
2848.00,0.0116
2847.00,0.0116
2846.00,0.0116
2845.00,0.0116
2844.00,0.0115
2843.00,0.0115
2842.00,0.0114
2841.00,0.0113
2840.00,0.0112
2839.00,0.0110
2838.00,0.0109
2837.00,0.0108
2836.00,0.0107
2835.00,0.0106
2834.00,0.0105
2833.00,0.0104
2832.00,0.0102
2831.00,0.0101
2830.00,0.0099
2829.00,0.0098
2828.00,0.0096
2827.00,0.0095
2826.00,0.0093
2825.00,0.0092
2824.00,0.0090
2823.00,0.0089
2822.00,0.0088
2821.00,0.0087
2820.00,0.0086
2819.00,0.0086
2818.00,0.0085
2817.00,0.0084
2816.00,0.0083
2815.00,0.0082
2814.00,0.0082
2813.00,0.0081
2812.00,0.0080
2811.00,0.0080
2810.00,0.0080
2809.00,0.0079
2808.00,0.0079
2807.00,0.0079
2806.00,0.0078
2805.00,0.0078
2804.00,0.0077
2803.00,0.0077
2802.00,0.0076
2801.00,0.0076
2800.00,0.0076
2799.00,0.0076
2798.00,0.0075
2797.00,0.0075
2796.00,0.0075
2795.00,0.0075
2794.00,0.0075
2793.00,0.0074
2792.00,0.0074
2791.00,0.0074
2790.00,0.0074
2789.00,0.0074
2788.00,0.0073
2787.00,0.0073
2786.00,0.0073
2785.00,0.0073
2784.00,0.0073
2783.00,0.0073
2782.00,0.0073
2781.00,0.0073
2780.00,0.0072
2779.00,0.0072
2778.00,0.0072
2777.00,0.0072
2776.00,0.0072
2775.00,0.0071
2774.00,0.0071
2773.00,0.0071
2772.00,0.0071
2771.00,0.0071
2770.00,0.0070
2769.00,0.0070
2768.00,0.0070
2767.00,0.0070
2766.00,0.0070
2765.00,0.0070
2764.00,0.0069
2763.00,0.0069
2762.00,0.0069
2761.00,0.0069
2760.00,0.0069
2759.00,0.0069
2758.00,0.0069
2757.00,0.0069
2756.00,0.0069
2755.00,0.0069
2754.00,0.0069
2753.00,0.0069
2752.00,0.0069
2751.00,0.0069
2750.00,0.0069
2749.00,0.0068
2748.00,0.0068
2747.00,0.0068
2746.00,0.0068
2745.00,0.0068
2744.00,0.0068
2743.00,0.0069
2742.00,0.0069
2741.00,0.0069
2740.00,0.0069
2739.00,0.0069
2738.00,0.0068
2737.00,0.0068
2736.00,0.0068
2735.00,0.0068
2734.00,0.0068
2733.00,0.0068
2732.00,0.0068
2731.00,0.0068
2730.00,0.0068
2729.00,0.0068
2728.00,0.0067
2727.00,0.0067
2726.00,0.0067
2725.00,0.0067
2724.00,0.0067
2723.00,0.0067
2722.00,0.0067
2721.00,0.0067
2720.00,0.0067
2719.00,0.0067
2718.00,0.0067
2717.00,0.0067
2716.00,0.0067
2715.00,0.0067
2714.00,0.0066
2713.00,0.0066
2712.00,0.0066
2711.00,0.0066
2710.00,0.0066
2709.00,0.0066
2708.00,0.0066
2707.00,0.0066
2706.00,0.0066
2705.00,0.0066
2704.00,0.0066
2703.00,0.0066
2702.00,0.0066
2701.00,0.0066
2700.00,0.0066
2699.00,0.0066
2698.00,0.0066
2697.00,0.0066
2696.00,0.0065
2695.00,0.0065
2694.00,0.0065
2693.00,0.0065
2692.00,0.0065
2691.00,0.0065
2690.00,0.0065
2689.00,0.0065
2688.00,0.0065
2687.00,0.0065
2686.00,0.0065
2685.00,0.0065
2684.00,0.0065
2683.00,0.0065
2682.00,0.0064
2681.00,0.0064
2680.00,0.0064
2679.00,0.0064
2678.00,0.0064
2677.00,0.0064
2676.00,0.0064
2675.00,0.0064
2674.00,0.0064
2673.00,0.0064
2672.00,0.0064
2671.00,0.0065
2670.00,0.0065
2669.00,0.0065
2668.00,0.0065
2667.00,0.0066
2666.00,0.0066
2665.00,0.0066
2664.00,0.0067
2663.00,0.0067
2662.00,0.0068
2661.00,0.0068
2660.00,0.0068
2659.00,0.0069
2658.00,0.0069
2657.00,0.0069
2656.00,0.0069
2655.00,0.0069
2654.00,0.0069
2653.00,0.0069
2652.00,0.0069
2651.00,0.0069
2650.00,0.0069
2649.00,0.0069
2648.00,0.0069
2647.00,0.0069
2646.00,0.0069
2645.00,0.0069
2644.00,0.0069
2643.00,0.0069
2642.00,0.0069
2641.00,0.0069
2640.00,0.0069
2639.00,0.0069
2638.00,0.0068
2637.00,0.0068
2636.00,0.0068
2635.00,0.0068
2634.00,0.0068
2633.00,0.0068
2632.00,0.0068
2631.00,0.0068
2630.00,0.0068
2629.00,0.0068
2628.00,0.0068
2627.00,0.0068
2626.00,0.0068
2625.00,0.0068
2624.00,0.0068
2623.00,0.0068
2622.00,0.0068
2621.00,0.0068
2620.00,0.0068
2619.00,0.0068
2618.00,0.0068
2617.00,0.0067
2616.00,0.0067
2615.00,0.0067
2614.00,0.0067
2613.00,0.0067
2612.00,0.0067
2611.00,0.0067
2610.00,0.0067
2609.00,0.0067
2608.00,0.0066
2607.00,0.0066
2606.00,0.0066
2605.00,0.0066
2604.00,0.0066
2603.00,0.0066
2602.00,0.0066
2601.00,0.0066
2600.00,0.0066
2599.00,0.0066
2598.00,0.0066
2597.00,0.0066
2596.00,0.0066
2595.00,0.0066
2594.00,0.0066
2593.00,0.0066
2592.00,0.0066
2591.00,0.0066
2590.00,0.0066
2589.00,0.0066
2588.00,0.0066
2587.00,0.0066
2586.00,0.0066
2585.00,0.0066
2584.00,0.0066
2583.00,0.0066
2582.00,0.0066
2581.00,0.0066
2580.00,0.0067
2579.00,0.0067
2578.00,0.0067
2577.00,0.0067
2576.00,0.0067
2575.00,0.0067
2574.00,0.0066
2573.00,0.0066
2572.00,0.0066
2571.00,0.0066
2570.00,0.0066
2569.00,0.0067
2568.00,0.0067
2567.00,0.0067
2566.00,0.0067
2565.00,0.0067
2564.00,0.0066
2563.00,0.0066
2562.00,0.0066
2561.00,0.0066
2560.00,0.0066
2559.00,0.0066
2558.00,0.0066
2557.00,0.0066
2556.00,0.0066
2555.00,0.0065
2554.00,0.0065
2553.00,0.0065
2552.00,0.0065
2551.00,0.0065
2550.00,0.0064
2549.00,0.0064
2548.00,0.0064
2547.00,0.0064
2546.00,0.0064
2545.00,0.0064
2544.00,0.0063
2543.00,0.0063
2542.00,0.0063
2541.00,0.0063
2540.00,0.0063
2539.00,0.0063
2538.00,0.0063
2537.00,0.0063
2536.00,0.0063
2535.00,0.0064
2534.00,0.0064
2533.00,0.0064
2532.00,0.0064
2531.00,0.0063
2530.00,0.0063
2529.00,0.0063
2528.00,0.0063
2527.00,0.0063
2526.00,0.0063
2525.00,0.0062
2524.00,0.0062
2523.00,0.0062
2522.00,0.0062
2521.00,0.0062
2520.00,0.0062
2519.00,0.0062
2518.00,0.0062
2517.00,0.0062
2516.00,0.0062
2515.00,0.0062
2514.00,0.0062
2513.00,0.0062
2512.00,0.0062
2511.00,0.0062
2510.00,0.0062
2509.00,0.0062
2508.00,0.0062
2507.00,0.0062
2506.00,0.0062
2505.00,0.0062
2504.00,0.0062
2503.00,0.0062
2502.00,0.0061
2501.00,0.0061
2500.00,0.0061
2499.00,0.0061
2498.00,0.0061
2497.00,0.0061
2496.00,0.0062
2495.00,0.0062
2494.00,0.0062
2493.00,0.0061
2492.00,0.0061
2491.00,0.0061
2490.00,0.0061
2489.00,0.0061
2488.00,0.0061
2487.00,0.0062
2486.00,0.0061
2485.00,0.0061
2484.00,0.0061
2483.00,0.0061
2482.00,0.0061
2481.00,0.0061
2480.00,0.0061
2479.00,0.0061
2478.00,0.0061
2477.00,0.0061
2476.00,0.0060
2475.00,0.0060
2474.00,0.0060
2473.00,0.0060
2472.00,0.0060
2471.00,0.0060
2470.00,0.0061
2469.00,0.0061
2468.00,0.0061
2467.00,0.0061
2466.00,0.0060
2465.00,0.0060
2464.00,0.0060
2463.00,0.0060
2462.00,0.0061
2461.00,0.0062
2460.00,0.0062
2459.00,0.0062
2458.00,0.0062
2457.00,0.0062
2456.00,0.0062
2455.00,0.0062
2454.00,0.0062
2453.00,0.0062
2452.00,0.0062
2451.00,0.0061
2450.00,0.0061
2449.00,0.0061
2448.00,0.0061
2447.00,0.0061
2446.00,0.0061
2445.00,0.0061
2444.00,0.0061
2443.00,0.0061
2442.00,0.0061
2441.00,0.0061
2440.00,0.0061
2439.00,0.0061
2438.00,0.0061
2437.00,0.0061
2436.00,0.0061
2435.00,0.0061
2434.00,0.0061
2433.00,0.0060
2432.00,0.0060
2431.00,0.0060
2430.00,0.0060
2429.00,0.0060
2428.00,0.0061
2427.00,0.0061
2426.00,0.0061
2425.00,0.0061
2424.00,0.0060
2423.00,0.0060
2422.00,0.0060
2421.00,0.0060
2420.00,0.0060
2419.00,0.0060
2418.00,0.0060
2417.00,0.0060
2416.00,0.0060
2415.00,0.0060
2414.00,0.0060
2413.00,0.0060
2412.00,0.0061
2411.00,0.0061
2410.00,0.0060
2409.00,0.0060
2408.00,0.0059
2407.00,0.0059
2406.00,0.0059
2405.00,0.0059
2404.00,0.0059
2403.00,0.0059
2402.00,0.0059
2401.00,0.0059
2400.00,0.0059
2399.00,0.0059
2398.00,0.0059
2397.00,0.0059
2396.00,0.0059
2395.00,0.0059
2394.00,0.0059
2393.00,0.0059
2392.00,0.0059
2391.00,0.0059
2390.00,0.0058
2389.00,0.0058
2388.00,0.0058
2387.00,0.0058
2386.00,0.0057
2385.00,0.0057
2384.00,0.0057
2383.00,0.0056
2382.00,0.0056
2381.00,0.0055
2380.00,0.0055
2379.00,0.0055
2378.00,0.0055
2377.00,0.0055
2376.00,0.0055
2375.00,0.0055
2374.00,0.0055
2373.00,0.0054
2372.00,0.0054
2371.00,0.0054
2370.00,0.0053
2369.00,0.0053
2368.00,0.0053
2367.00,0.0053
2366.00,0.0053
2365.00,0.0054
2364.00,0.0054
2363.00,0.0054
2362.00,0.0054
2361.00,0.0054
2360.00,0.0054
2359.00,0.0055
2358.00,0.0054
2357.00,0.0054
2356.00,0.0055
2355.00,0.0055
2354.00,0.0055
2353.00,0.0055
2352.00,0.0055
2351.00,0.0055
2350.00,0.0055
2349.00,0.0056
2348.00,0.0057
2347.00,0.0058
2346.00,0.0058
2345.00,0.0058
2344.00,0.0058
2343.00,0.0057
2342.00,0.0056
2341.00,0.0056
2340.00,0.0057
2339.00,0.0058
2338.00,0.0059
2337.00,0.0060
2336.00,0.0060
2335.00,0.0060
2334.00,0.0060
2333.00,0.0060
2332.00,0.0060
2331.00,0.0060
2330.00,0.0061
2329.00,0.0062
2328.00,0.0065
2327.00,0.0069
2326.00,0.0072
2325.00,0.0073
2324.00,0.0072
2323.00,0.0071
2322.00,0.0069
2321.00,0.0067
2320.00,0.0066
2319.00,0.0065
2318.00,0.0065
2317.00,0.0064
2316.00,0.0064
2315.00,0.0064
2314.00,0.0064
2313.00,0.0064
2312.00,0.0064
2311.00,0.0063
2310.00,0.0062
2309.00,0.0062
2308.00,0.0062
2307.00,0.0062
2306.00,0.0062
2305.00,0.0062
2304.00,0.0063
2303.00,0.0063
2302.00,0.0063
2301.00,0.0063
2300.00,0.0064
2299.00,0.0064
2298.00,0.0065
2297.00,0.0065
2296.00,0.0066
2295.00,0.0066
2294.00,0.0067
2293.00,0.0067
2292.00,0.0068
2291.00,0.0068
2290.00,0.0069
2289.00,0.0070
2288.00,0.0071
2287.00,0.0071
2286.00,0.0071
2285.00,0.0071
2284.00,0.0070
2283.00,0.0069
2282.00,0.0069
2281.00,0.0068
2280.00,0.0068
2279.00,0.0068
2278.00,0.0067
2277.00,0.0067
2276.00,0.0067
2275.00,0.0067
2274.00,0.0067
2273.00,0.0067
2272.00,0.0067
2271.00,0.0066
2270.00,0.0065
2269.00,0.0064
2268.00,0.0064
2267.00,0.0064
2266.00,0.0063
2265.00,0.0063
2264.00,0.0063
2263.00,0.0064
2262.00,0.0065
2261.00,0.0066
2260.00,0.0067
2259.00,0.0068
2258.00,0.0067
2257.00,0.0066
2256.00,0.0064
2255.00,0.0063
2254.00,0.0062
2253.00,0.0062
2252.00,0.0062
2251.00,0.0062
2250.00,0.0063
2249.00,0.0062
2248.00,0.0062
2247.00,0.0061
2246.00,0.0061
2245.00,0.0061
2244.00,0.0062
2243.00,0.0063
2242.00,0.0063
2241.00,0.0064
2240.00,0.0064
2239.00,0.0065
2238.00,0.0064
2237.00,0.0064
2236.00,0.0064
2235.00,0.0064
2234.00,0.0064
2233.00,0.0063
2232.00,0.0063
2231.00,0.0062
2230.00,0.0062
2229.00,0.0063
2228.00,0.0063
2227.00,0.0062
2226.00,0.0062
2225.00,0.0063
2224.00,0.0063
2223.00,0.0064
2222.00,0.0063
2221.00,0.0063
2220.00,0.0063
2219.00,0.0062
2218.00,0.0062
2217.00,0.0061
2216.00,0.0062
2215.00,0.0062
2214.00,0.0063
2213.00,0.0063
2212.00,0.0063
2211.00,0.0063
2210.00,0.0063
2209.00,0.0063
2208.00,0.0064
2207.00,0.0064
2206.00,0.0065
2205.00,0.0065
2204.00,0.0066
2203.00,0.0066
2202.00,0.0065
2201.00,0.0064
2200.00,0.0064
2199.00,0.0063
2198.00,0.0063
2197.00,0.0064
2196.00,0.0065
2195.00,0.0065
2194.00,0.0065
2193.00,0.0064
2192.00,0.0064
2191.00,0.0065
2190.00,0.0065
2189.00,0.0066
2188.00,0.0066
2187.00,0.0066
2186.00,0.0065
2185.00,0.0064
2184.00,0.0063
2183.00,0.0062
2182.00,0.0061
2181.00,0.0061
2180.00,0.0061
2179.00,0.0061
2178.00,0.0060
2177.00,0.0059
2176.00,0.0058
2175.00,0.0059
2174.00,0.0060
2173.00,0.0062
2172.00,0.0065
2171.00,0.0067
2170.00,0.0070
2169.00,0.0071
2168.00,0.0073
2167.00,0.0073
2166.00,0.0074
2165.00,0.0076
2164.00,0.0078
2163.00,0.0079
2162.00,0.0074
2161.00,0.0062
2160.00,0.0048
2159.00,0.0036
2158.00,0.0030
2157.00,0.0030
2156.00,0.0034
2155.00,0.0037
2154.00,0.0040
2153.00,0.0044
2152.00,0.0047
2151.00,0.0047
2150.00,0.0047
2149.00,0.0046
2148.00,0.0046
2147.00,0.0045
2146.00,0.0045
2145.00,0.0045
2144.00,0.0045
2143.00,0.0045
2142.00,0.0044
2141.00,0.0044
2140.00,0.0045
2139.00,0.0045
2138.00,0.0044
2137.00,0.0043
2136.00,0.0041
2135.00,0.0040
2134.00,0.0040
2133.00,0.0041
2132.00,0.0044
2131.00,0.0047
2130.00,0.0049
2129.00,0.0051
2128.00,0.0052
2127.00,0.0052
2126.00,0.0052
2125.00,0.0052
2124.00,0.0053
2123.00,0.0054
2122.00,0.0054
2121.00,0.0055
2120.00,0.0057
2119.00,0.0058
2118.00,0.0060
2117.00,0.0061
2116.00,0.0062
2115.00,0.0062
2114.00,0.0062
2113.00,0.0062
2112.00,0.0061
2111.00,0.0061
2110.00,0.0060
2109.00,0.0060
2108.00,0.0060
2107.00,0.0061
2106.00,0.0061
2105.00,0.0062
2104.00,0.0062
2103.00,0.0062
2102.00,0.0062
2101.00,0.0062
2100.00,0.0062
2099.00,0.0061
2098.00,0.0060
2097.00,0.0059
2096.00,0.0058
2095.00,0.0057
2094.00,0.0057
2093.00,0.0057
2092.00,0.0058
2091.00,0.0058
2090.00,0.0059
2089.00,0.0060
2088.00,0.0061
2087.00,0.0061
2086.00,0.0062
2085.00,0.0062
2084.00,0.0062
2083.00,0.0062
2082.00,0.0062
2081.00,0.0062
2080.00,0.0062
2079.00,0.0062
2078.00,0.0062
2077.00,0.0062
2076.00,0.0062
2075.00,0.0061
2074.00,0.0061
2073.00,0.0060
2072.00,0.0060
2071.00,0.0060
2070.00,0.0060
2069.00,0.0060
2068.00,0.0059
2067.00,0.0059
2066.00,0.0059
2065.00,0.0059
2064.00,0.0059
2063.00,0.0058
2062.00,0.0057
2061.00,0.0057
2060.00,0.0058
2059.00,0.0058
2058.00,0.0059
2057.00,0.0059
2056.00,0.0059
2055.00,0.0059
2054.00,0.0062
2053.00,0.0066
2052.00,0.0070
2051.00,0.0070
2050.00,0.0068
2049.00,0.0064
2048.00,0.0061
2047.00,0.0059
2046.00,0.0058
2045.00,0.0057
2044.00,0.0058
2043.00,0.0058
2042.00,0.0059
2041.00,0.0060
2040.00,0.0062
2039.00,0.0064
2038.00,0.0064
2037.00,0.0063
2036.00,0.0062
2035.00,0.0059
2034.00,0.0056
2033.00,0.0054
2032.00,0.0053
2031.00,0.0052
2030.00,0.0052
2029.00,0.0052
2028.00,0.0053
2027.00,0.0055
2026.00,0.0055
2025.00,0.0054
2024.00,0.0054
2023.00,0.0053
2022.00,0.0052
2021.00,0.0052
2020.00,0.0053
2019.00,0.0055
2018.00,0.0055
2017.00,0.0055
2016.00,0.0055
2015.00,0.0054
2014.00,0.0053
2013.00,0.0053
2012.00,0.0053
2011.00,0.0053
2010.00,0.0052
2009.00,0.0051
2008.00,0.0049
2007.00,0.0047
2006.00,0.0045
2005.00,0.0045
2004.00,0.0045
2003.00,0.0046
2002.00,0.0046
2001.00,0.0046
2000.00,0.0046
1999.00,0.0047
1998.00,0.0048
1997.00,0.0050
1996.00,0.0051
1995.00,0.0053
1994.00,0.0053
1993.00,0.0054
1992.00,0.0054
1991.00,0.0053
1990.00,0.0053
1989.00,0.0053
1988.00,0.0054
1987.00,0.0056
1986.00,0.0058
1985.00,0.0059
1984.00,0.0060
1983.00,0.0062
1982.00,0.0063
1981.00,0.0063
1980.00,0.0060
1979.00,0.0055
1978.00,0.0050
1977.00,0.0047
1976.00,0.0047
1975.00,0.0047
1974.00,0.0046
1973.00,0.0044
1972.00,0.0044
1971.00,0.0044
1970.00,0.0045
1969.00,0.0046
1968.00,0.0046
1967.00,0.0046
1966.00,0.0045
1965.00,0.0043
1964.00,0.0044
1963.00,0.0044
1962.00,0.0044
1961.00,0.0043
1960.00,0.0042
1959.00,0.0041
1958.00,0.0040
1957.00,0.0041
1956.00,0.0043
1955.00,0.0045
1954.00,0.0047
1953.00,0.0048
1952.00,0.0048
1951.00,0.0047
1950.00,0.0046
1949.00,0.0045
1948.00,0.0046
1947.00,0.0046
1946.00,0.0045
1945.00,0.0045
1944.00,0.0045
1943.00,0.0045
1942.00,0.0044
1941.00,0.0044
1940.00,0.0045
1939.00,0.0045
1938.00,0.0045
1937.00,0.0045
1936.00,0.0045
1935.00,0.0045
1934.00,0.0045
1933.00,0.0045
1932.00,0.0045
1931.00,0.0045
1930.00,0.0045
1929.00,0.0045
1928.00,0.0045
1927.00,0.0045
1926.00,0.0045
1925.00,0.0045
1924.00,0.0045
1923.00,0.0046
1922.00,0.0047
1921.00,0.0048
1920.00,0.0049
1919.00,0.0049
1918.00,0.0048
1917.00,0.0048
1916.00,0.0047
1915.00,0.0047
1914.00,0.0047
1913.00,0.0046
1912.00,0.0047
1911.00,0.0047
1910.00,0.0047
1909.00,0.0047
1908.00,0.0047
1907.00,0.0048
1906.00,0.0047
1905.00,0.0047
1904.00,0.0046
1903.00,0.0046
1902.00,0.0046
1901.00,0.0046
1900.00,0.0046
1899.00,0.0046
1898.00,0.0046
1897.00,0.0047
1896.00,0.0047
1895.00,0.0047
1894.00,0.0047
1893.00,0.0048
1892.00,0.0048
1891.00,0.0048
1890.00,0.0048
1889.00,0.0048
1888.00,0.0047
1887.00,0.0047
1886.00,0.0047
1885.00,0.0046
1884.00,0.0047
1883.00,0.0047
1882.00,0.0047
1881.00,0.0047
1880.00,0.0047
1879.00,0.0047
1878.00,0.0047
1877.00,0.0047
1876.00,0.0047
1875.00,0.0047
1874.00,0.0047
1873.00,0.0047
1872.00,0.0047
1871.00,0.0047
1870.00,0.0047
1869.00,0.0047
1868.00,0.0047
1867.00,0.0047
1866.00,0.0047
1865.00,0.0047
1864.00,0.0047
1863.00,0.0047
1862.00,0.0046
1861.00,0.0046
1860.00,0.0047
1859.00,0.0047
1858.00,0.0047
1857.00,0.0047
1856.00,0.0047
1855.00,0.0047
1854.00,0.0047
1853.00,0.0046
1852.00,0.0046
1851.00,0.0046
1850.00,0.0046
1849.00,0.0046
1848.00,0.0046
1847.00,0.0047
1846.00,0.0047
1845.00,0.0046
1844.00,0.0046
1843.00,0.0046
1842.00,0.0046
1841.00,0.0046
1840.00,0.0046
1839.00,0.0046
1838.00,0.0045
1837.00,0.0045
1836.00,0.0045
1835.00,0.0046
1834.00,0.0046
1833.00,0.0046
1832.00,0.0046
1831.00,0.0046
1830.00,0.0046
1829.00,0.0046
1828.00,0.0046
1827.00,0.0046
1826.00,0.0046
1825.00,0.0046
1824.00,0.0046
1823.00,0.0046
1822.00,0.0046
1821.00,0.0045
1820.00,0.0044
1819.00,0.0043
1818.00,0.0042
1817.00,0.0041
1816.00,0.0042
1815.00,0.0042
1814.00,0.0043
1813.00,0.0043
1812.00,0.0043
1811.00,0.0044
1810.00,0.0044
1809.00,0.0044
1808.00,0.0044
1807.00,0.0044
1806.00,0.0044
1805.00,0.0044
1804.00,0.0044
1803.00,0.0044
1802.00,0.0044
1801.00,0.0044
1800.00,0.0044
1799.00,0.0044
1798.00,0.0044
1797.00,0.0044
1796.00,0.0044
1795.00,0.0044
1794.00,0.0044
1793.00,0.0043
1792.00,0.0043
1791.00,0.0044
1790.00,0.0043
1789.00,0.0043
1788.00,0.0043
1787.00,0.0043
1786.00,0.0043
1785.00,0.0043
1784.00,0.0043
1783.00,0.0044
1782.00,0.0044
1781.00,0.0044
1780.00,0.0044
1779.00,0.0043
1778.00,0.0043
1777.00,0.0043
1776.00,0.0044
1775.00,0.0044
1774.00,0.0044
1773.00,0.0044
1772.00,0.0044
1771.00,0.0044
1770.00,0.0044
1769.00,0.0043
1768.00,0.0043
1767.00,0.0043
1766.00,0.0043
1765.00,0.0043
1764.00,0.0044
1763.00,0.0044
1762.00,0.0044
1761.00,0.0044
1760.00,0.0044
1759.00,0.0044
1758.00,0.0044
1757.00,0.0044
1756.00,0.0044
1755.00,0.0045
1754.00,0.0045
1753.00,0.0045
1752.00,0.0045
1751.00,0.0045
1750.00,0.0045
1749.00,0.0045
1748.00,0.0046
1747.00,0.0046
1746.00,0.0046
1745.00,0.0046
1744.00,0.0047
1743.00,0.0047
1742.00,0.0047
1741.00,0.0047
1740.00,0.0047
1739.00,0.0047
1738.00,0.0047
1737.00,0.0048
1736.00,0.0048
1735.00,0.0049
1734.00,0.0049
1733.00,0.0049
1732.00,0.0050
1731.00,0.0051
1730.00,0.0051
1729.00,0.0051
1728.00,0.0052
1727.00,0.0053
1726.00,0.0053
1725.00,0.0054
1724.00,0.0055
1723.00,0.0057
1722.00,0.0058
1721.00,0.0060
1720.00,0.0062
1719.00,0.0064
1718.00,0.0066
1717.00,0.0068
1716.00,0.0071
1715.00,0.0074
1714.00,0.0076
1713.00,0.0080
1712.00,0.0084
1711.00,0.0090
1710.00,0.0095
1709.00,0.0102
1708.00,0.0110
1707.00,0.0120
1706.00,0.0131
1705.00,0.0143
1704.00,0.0157
1703.00,0.0169
1702.00,0.0183
1701.00,0.0203
1700.00,0.0230
1699.00,0.0256
1698.00,0.0278
1697.00,0.0301
1696.00,0.0331
1695.00,0.0364
1694.00,0.0395
1693.00,0.0422
1692.00,0.0451
1691.00,0.0482
1690.00,0.0515
1689.00,0.0548
1688.00,0.0580
1687.00,0.0609
1686.00,0.0640
1685.00,0.0677
1684.00,0.0719
1683.00,0.0758
1682.00,0.0788
1681.00,0.0815
1680.00,0.0843
1679.00,0.0870
1678.00,0.0894
1677.00,0.0919
1676.00,0.0944
1675.00,0.0971
1674.00,0.0993
1673.00,0.1013
1672.00,0.1031
1671.00,0.1048
1670.00,0.1063
1669.00,0.1078
1668.00,0.1092
1667.00,0.1103
1666.00,0.1113
1665.00,0.1123
1664.00,0.1132
1663.00,0.1140
1662.00,0.1147
1661.00,0.1153
1660.00,0.1158
1659.00,0.1163
1658.00,0.1166
1657.00,0.1168
1656.00,0.1170
1655.00,0.1170
1654.00,0.1164
1653.00,0.1149
1652.00,0.1133
1651.00,0.1121
1650.00,0.1110
1649.00,0.1096
1648.00,0.1075
1647.00,0.1045
1646.00,0.1012
1645.00,0.0979
1644.00,0.0950
1643.00,0.0921
1642.00,0.0891
1641.00,0.0860
1640.00,0.0830
1639.00,0.0801
1638.00,0.0773
1637.00,0.0742
1636.00,0.0707
1635.00,0.0673
1634.00,0.0645
1633.00,0.0621
1632.00,0.0600
1631.00,0.0579
1630.00,0.0558
1629.00,0.0537
1628.00,0.0516
1627.00,0.0498
1626.00,0.0481
1625.00,0.0465
1624.00,0.0449
1623.00,0.0433
1622.00,0.0419
1621.00,0.0407
1620.00,0.0395
1619.00,0.0384
1618.00,0.0372
1617.00,0.0359
1616.00,0.0347
1615.00,0.0336
1614.00,0.0327
1613.00,0.0318
1612.00,0.0309
1611.00,0.0300
1610.00,0.0291
1609.00,0.0283
1608.00,0.0275
1607.00,0.0268
1606.00,0.0260
1605.00,0.0253
1604.00,0.0247
1603.00,0.0240
1602.00,0.0234
1601.00,0.0228
1600.00,0.0222
1599.00,0.0217
1598.00,0.0212
1597.00,0.0207
1596.00,0.0202
1595.00,0.0198
1594.00,0.0193
1593.00,0.0189
1592.00,0.0184
1591.00,0.0180
1590.00,0.0176
1589.00,0.0172
1588.00,0.0168
1587.00,0.0164
1586.00,0.0161
1585.00,0.0158
1584.00,0.0155
1583.00,0.0152
1582.00,0.0150
1581.00,0.0148
1580.00,0.0147
1579.00,0.0145
1578.00,0.0144
1577.00,0.0143
1576.00,0.0141
1575.00,0.0140
1574.00,0.0139
1573.00,0.0138
1572.00,0.0136
1571.00,0.0135
1570.00,0.0134
1569.00,0.0133
1568.00,0.0132
1567.00,0.0131
1566.00,0.0130
1565.00,0.0129
1564.00,0.0128
1563.00,0.0128
1562.00,0.0127
1561.00,0.0126
1560.00,0.0125
1559.00,0.0125
1558.00,0.0124
1557.00,0.0123
1556.00,0.0123
1555.00,0.0122
1554.00,0.0121
1553.00,0.0120
1552.00,0.0119
1551.00,0.0118
1550.00,0.0117
1549.00,0.0116
1548.00,0.0114
1547.00,0.0113
1546.00,0.0112
1545.00,0.0112
1544.00,0.0112
1543.00,0.0111
1542.00,0.0111
1541.00,0.0110
1540.00,0.0109
1539.00,0.0109
1538.00,0.0108
1537.00,0.0108
1536.00,0.0107
1535.00,0.0106
1534.00,0.0106
1533.00,0.0106
1532.00,0.0106
1531.00,0.0106
1530.00,0.0106
1529.00,0.0106
1528.00,0.0106
1527.00,0.0106
1526.00,0.0106
1525.00,0.0105
1524.00,0.0105
1523.00,0.0105
1522.00,0.0105
1521.00,0.0106
1520.00,0.0106
1519.00,0.0106
1518.00,0.0106
1517.00,0.0107
1516.00,0.0107
1515.00,0.0107
1514.00,0.0108
1513.00,0.0109
1512.00,0.0112
1511.00,0.0115
1510.00,0.0118
1509.00,0.0122
1508.00,0.0128
1507.00,0.0134
1506.00,0.0142
1505.00,0.0150
1504.00,0.0158
1503.00,0.0166
1502.00,0.0175
1501.00,0.0186
1500.00,0.0197
1499.00,0.0209
1498.00,0.0221
1497.00,0.0233
1496.00,0.0242
1495.00,0.0249
1494.00,0.0254
1493.00,0.0256
1492.00,0.0255
1491.00,0.0252
1490.00,0.0246
1489.00,0.0238
1488.00,0.0228
1487.00,0.0217
1486.00,0.0206
1485.00,0.0195
1484.00,0.0186
1483.00,0.0178
1482.00,0.0170
1481.00,0.0164
1480.00,0.0160
1479.00,0.0158
1478.00,0.0157
1477.00,0.0159
1476.00,0.0163
1475.00,0.0168
1474.00,0.0176
1473.00,0.0187
1472.00,0.0202
1471.00,0.0219
1470.00,0.0237
1469.00,0.0256
1468.00,0.0278
1467.00,0.0302
1466.00,0.0329
1465.00,0.0358
1464.00,0.0385
1463.00,0.0407
1462.00,0.0422
1461.00,0.0431
1460.00,0.0436
1459.00,0.0434
1458.00,0.0423
1457.00,0.0403
1456.00,0.0381
1455.00,0.0361
1454.00,0.0345
1453.00,0.0332
1452.00,0.0321
1451.00,0.0312
1450.00,0.0308
1449.00,0.0308
1448.00,0.0313
1447.00,0.0321
1446.00,0.0333
1445.00,0.0348
1444.00,0.0366
1443.00,0.0387
1442.00,0.0409
1441.00,0.0432
1440.00,0.0454
1439.00,0.0475
1438.00,0.0497
1437.00,0.0519
1436.00,0.0540
1435.00,0.0557
1434.00,0.0569
1433.00,0.0579
1432.00,0.0589
1431.00,0.0600
1430.00,0.0611
1429.00,0.0626
1428.00,0.0644
1427.00,0.0664
1426.00,0.0686
1425.00,0.0710
1424.00,0.0733
1423.00,0.0752
1422.00,0.0763
1421.00,0.0767
1420.00,0.0761
1419.00,0.0743
1418.00,0.0715
1417.00,0.0683
1416.00,0.0646
1415.00,0.0606
1414.00,0.0565
1413.00,0.0524
1412.00,0.0484
1411.00,0.0446
1410.00,0.0412
1409.00,0.0382
1408.00,0.0356
1407.00,0.0333
1406.00,0.0312
1405.00,0.0294
1404.00,0.0277
1403.00,0.0262
1402.00,0.0251
1401.00,0.0241
1400.00,0.0232
1399.00,0.0224
1398.00,0.0218
1397.00,0.0213
1396.00,0.0209
1395.00,0.0205
1394.00,0.0202
1393.00,0.0200
1392.00,0.0200
1391.00,0.0200
1390.00,0.0202
1389.00,0.0204
1388.00,0.0208
1387.00,0.0213
1386.00,0.0219
1385.00,0.0225
1384.00,0.0231
1383.00,0.0237
1382.00,0.0244
1381.00,0.0251
1380.00,0.0259
1379.00,0.0266
1378.00,0.0272
1377.00,0.0278
1376.00,0.0283
1375.00,0.0287
1374.00,0.0290
1373.00,0.0292
1372.00,0.0292
1371.00,0.0291
1370.00,0.0290
1369.00,0.0287
1368.00,0.0283
1367.00,0.0279
1366.00,0.0274
1365.00,0.0268
1364.00,0.0262
1363.00,0.0254
1362.00,0.0246
1361.00,0.0238
1360.00,0.0229
1359.00,0.0222
1358.00,0.0215
1357.00,0.0208
1356.00,0.0202
1355.00,0.0196
1354.00,0.0191
1353.00,0.0186
1352.00,0.0182
1351.00,0.0178
1350.00,0.0174
1349.00,0.0171
1348.00,0.0168
1347.00,0.0166
1346.00,0.0164
1345.00,0.0162
1344.00,0.0161
1343.00,0.0160
1342.00,0.0160
1341.00,0.0160
1340.00,0.0160
1339.00,0.0161
1338.00,0.0162
1337.00,0.0163
1336.00,0.0164
1335.00,0.0166
1334.00,0.0169
1333.00,0.0172
1332.00,0.0176
1331.00,0.0180
1330.00,0.0185
1329.00,0.0191
1328.00,0.0198
1327.00,0.0206
1326.00,0.0214
1325.00,0.0224
1324.00,0.0234
1323.00,0.0244
1322.00,0.0255
1321.00,0.0265
1320.00,0.0275
1319.00,0.0283
1318.00,0.0290
1317.00,0.0295
1316.00,0.0298
1315.00,0.0299
1314.00,0.0298
1313.00,0.0294
1312.00,0.0289
1311.00,0.0284
1310.00,0.0278
1309.00,0.0273
1308.00,0.0268
1307.00,0.0265
1306.00,0.0263
1305.00,0.0264
1304.00,0.0267
1303.00,0.0273
1302.00,0.0282
1301.00,0.0294
1300.00,0.0311
1299.00,0.0332
1298.00,0.0357
1297.00,0.0387
1296.00,0.0423
1295.00,0.0462
1294.00,0.0505
1293.00,0.0549
1292.00,0.0595
1291.00,0.0640
1290.00,0.0683
1289.00,0.0721
1288.00,0.0754
1287.00,0.0780
1286.00,0.0798
1285.00,0.0808
1284.00,0.0810
1283.00,0.0805
1282.00,0.0794
1281.00,0.0781
1280.00,0.0768
1279.00,0.0758
1278.00,0.0751
1277.00,0.0748
1276.00,0.0750
1275.00,0.0756
1274.00,0.0764
1273.00,0.0773
1272.00,0.0781
1271.00,0.0786
1270.00,0.0787
1269.00,0.0783
1268.00,0.0775
1267.00,0.0762
1266.00,0.0745
1265.00,0.0724
1264.00,0.0700
1263.00,0.0675
1262.00,0.0648
1261.00,0.0621
1260.00,0.0595
1259.00,0.0569
1258.00,0.0545
1257.00,0.0522
1256.00,0.0501
1255.00,0.0482
1254.00,0.0464
1253.00,0.0448
1252.00,0.0434
1251.00,0.0421
1250.00,0.0410
1249.00,0.0401
1248.00,0.0393
1247.00,0.0386
1246.00,0.0381
1245.00,0.0376
1244.00,0.0373
1243.00,0.0371
1242.00,0.0370
1241.00,0.0370
1240.00,0.0372
1239.00,0.0374
1238.00,0.0377
1237.00,0.0382
1236.00,0.0386
1235.00,0.0391
1234.00,0.0396
1233.00,0.0401
1232.00,0.0406
1231.00,0.0409
1230.00,0.0412
1229.00,0.0415
1228.00,0.0416
1227.00,0.0416
1226.00,0.0415
1225.00,0.0414
1224.00,0.0412
1223.00,0.0410
1222.00,0.0408
1221.00,0.0405
1220.00,0.0402
1219.00,0.0399
1218.00,0.0395
1217.00,0.0391
1216.00,0.0386
1215.00,0.0381
1214.00,0.0375
1213.00,0.0369
1212.00,0.0363
1211.00,0.0357
1210.00,0.0351
1209.00,0.0345
1208.00,0.0339
1207.00,0.0333
1206.00,0.0327
1205.00,0.0322
1204.00,0.0317
1203.00,0.0313
1202.00,0.0309
1201.00,0.0304
1200.00,0.0300
1199.00,0.0296
1198.00,0.0293
1197.00,0.0289
1196.00,0.0286
1195.00,0.0283
1194.00,0.0280
1193.00,0.0278
1192.00,0.0275
1191.00,0.0272
1190.00,0.0270
1189.00,0.0268
1188.00,0.0266
1187.00,0.0264
1186.00,0.0263
1185.00,0.0263
1184.00,0.0262
1183.00,0.0262
1182.00,0.0262
1181.00,0.0262
1180.00,0.0263
1179.00,0.0263
1178.00,0.0265
1177.00,0.0267
1176.00,0.0270
1175.00,0.0274
1174.00,0.0278
1173.00,0.0282
1172.00,0.0286
1171.00,0.0289
1170.00,0.0293
1169.00,0.0296
1168.00,0.0297
1167.00,0.0298
1166.00,0.0297
1165.00,0.0295
1164.00,0.0293
1163.00,0.0289
1162.00,0.0285
1161.00,0.0281
1160.00,0.0276
1159.00,0.0271
1158.00,0.0266
1157.00,0.0261
1156.00,0.0256
1155.00,0.0252
1154.00,0.0247
1153.00,0.0243
1152.00,0.0239
1151.00,0.0235
1150.00,0.0231
1149.00,0.0228
1148.00,0.0225
1147.00,0.0222
1146.00,0.0219
1145.00,0.0216
1144.00,0.0213
1143.00,0.0210
1142.00,0.0207
1141.00,0.0204
1140.00,0.0201
1139.00,0.0198
1138.00,0.0195
1137.00,0.0193
1136.00,0.0191
1135.00,0.0189
1134.00,0.0188
1133.00,0.0187
1132.00,0.0186
1131.00,0.0186
1130.00,0.0185
1129.00,0.0185
1128.00,0.0185
1127.00,0.0185
1126.00,0.0186
1125.00,0.0186
1124.00,0.0186
1123.00,0.0186
1122.00,0.0186
1121.00,0.0186
1120.00,0.0186
1119.00,0.0186
1118.00,0.0186
1117.00,0.0187
1116.00,0.0187
1115.00,0.0187
1114.00,0.0187
1113.00,0.0187
1112.00,0.0187
1111.00,0.0187
1110.00,0.0187
1109.00,0.0187
1108.00,0.0187
1107.00,0.0186
1106.00,0.0186
1105.00,0.0186
1104.00,0.0186
1103.00,0.0186
1102.00,0.0186
1101.00,0.0186
1100.00,0.0186
1099.00,0.0185
1098.00,0.0185
1097.00,0.0186
1096.00,0.0186
1095.00,0.0186
1094.00,0.0186
1093.00,0.0186
1092.00,0.0185
1091.00,0.0185
1090.00,0.0185
1089.00,0.0185
1088.00,0.0185
1087.00,0.0185
1086.00,0.0185
1085.00,0.0185
1084.00,0.0185
1083.00,0.0185
1082.00,0.0185
1081.00,0.0186
1080.00,0.0187
1079.00,0.0189
1078.00,0.0191
1077.00,0.0193
1076.00,0.0194
1075.00,0.0194
1074.00,0.0195
1073.00,0.0195
1072.00,0.0194
1071.00,0.0193
1070.00,0.0191
1069.00,0.0189
1068.00,0.0187
1067.00,0.0185
1066.00,0.0183
1065.00,0.0182
1064.00,0.0180
1063.00,0.0179
1062.00,0.0178
1061.00,0.0177
1060.00,0.0175
1059.00,0.0174
1058.00,0.0173
1057.00,0.0172
1056.00,0.0171
1055.00,0.0170
1054.00,0.0170
1053.00,0.0169
1052.00,0.0169
1051.00,0.0169
1050.00,0.0170
1049.00,0.0171
1048.00,0.0172
1047.00,0.0172
1046.00,0.0172
1045.00,0.0172
1044.00,0.0172
1043.00,0.0172
1042.00,0.0172
1041.00,0.0172
1040.00,0.0171
1039.00,0.0171
1038.00,0.0171
1037.00,0.0171
1036.00,0.0172
1035.00,0.0172
1034.00,0.0172
1033.00,0.0172
1032.00,0.0173
1031.00,0.0174
1030.00,0.0175
1029.00,0.0176
1028.00,0.0178
1027.00,0.0181
1026.00,0.0185
1025.00,0.0189
1024.00,0.0193
1023.00,0.0197
1022.00,0.0202
1021.00,0.0206
1020.00,0.0210
1019.00,0.0213
1018.00,0.0214
1017.00,0.0215
1016.00,0.0214
1015.00,0.0211
1014.00,0.0207
1013.00,0.0203
1012.00,0.0197
1011.00,0.0192
1010.00,0.0188
1009.00,0.0186
1008.00,0.0184
1007.00,0.0184
1006.00,0.0185
1005.00,0.0187
1004.00,0.0190
1003.00,0.0192
1002.00,0.0194
1001.00,0.0195
1000.00,0.0195
999.00,0.0193
998.00,0.0190
997.00,0.0187
996.00,0.0183
995.00,0.0180
994.00,0.0177
993.00,0.0174
992.00,0.0171
991.00,0.0168
990.00,0.0166
989.00,0.0164
988.00,0.0163
987.00,0.0162
986.00,0.0161
985.00,0.0160
984.00,0.0159
983.00,0.0157
982.00,0.0156
981.00,0.0155
980.00,0.0154
979.00,0.0153
978.00,0.0153
977.00,0.0152
976.00,0.0150
975.00,0.0149
974.00,0.0148
973.00,0.0146
972.00,0.0145
971.00,0.0144
970.00,0.0143
969.00,0.0142
968.00,0.0141
967.00,0.0140
966.00,0.0139
965.00,0.0139
964.00,0.0138
963.00,0.0138
962.00,0.0138
961.00,0.0138
960.00,0.0137
959.00,0.0137
958.00,0.0137
957.00,0.0136
956.00,0.0136
955.00,0.0136
954.00,0.0136
953.00,0.0135
952.00,0.0135
951.00,0.0134
950.00,0.0135
949.00,0.0135
948.00,0.0136
947.00,0.0136
946.00,0.0137
945.00,0.0138
944.00,0.0139
943.00,0.0140
942.00,0.0142
941.00,0.0146
940.00,0.0150
939.00,0.0155
938.00,0.0160
937.00,0.0165
936.00,0.0170
935.00,0.0174
934.00,0.0178
933.00,0.0180
932.00,0.0181
931.00,0.0179
930.00,0.0177
929.00,0.0174
928.00,0.0172
927.00,0.0169
926.00,0.0168
925.00,0.0166
924.00,0.0164
923.00,0.0162
922.00,0.0160
921.00,0.0159
920.00,0.0158
919.00,0.0157
918.00,0.0156
917.00,0.0155
916.00,0.0154
915.00,0.0154
914.00,0.0153
913.00,0.0152
912.00,0.0152
911.00,0.0152
910.00,0.0152
909.00,0.0153
908.00,0.0153
907.00,0.0154
906.00,0.0155
905.00,0.0156
904.00,0.0157
903.00,0.0159
902.00,0.0162
901.00,0.0164
900.00,0.0166
899.00,0.0167
898.00,0.0169
897.00,0.0169
896.00,0.0170
895.00,0.0169
894.00,0.0169
893.00,0.0167
892.00,0.0166
891.00,0.0163
890.00,0.0161
889.00,0.0158
888.00,0.0156
887.00,0.0154
886.00,0.0152
885.00,0.0150
884.00,0.0148
883.00,0.0147
882.00,0.0146
881.00,0.0145
880.00,0.0144
879.00,0.0144
878.00,0.0143
877.00,0.0143
876.00,0.0143
875.00,0.0144
874.00,0.0144
873.00,0.0145
872.00,0.0145
871.00,0.0146
870.00,0.0147
869.00,0.0148
868.00,0.0149
867.00,0.0151
866.00,0.0153
865.00,0.0156
864.00,0.0158
863.00,0.0161
862.00,0.0164
861.00,0.0167
860.00,0.0172
859.00,0.0177
858.00,0.0183
857.00,0.0189
856.00,0.0194
855.00,0.0201
854.00,0.0208
853.00,0.0215
852.00,0.0222
851.00,0.0228
850.00,0.0234
849.00,0.0240
848.00,0.0244
847.00,0.0248
846.00,0.0251
845.00,0.0253
844.00,0.0253
843.00,0.0253
842.00,0.0252
841.00,0.0249
840.00,0.0246
839.00,0.0242
838.00,0.0238
837.00,0.0233
836.00,0.0228
835.00,0.0223
834.00,0.0218
833.00,0.0212
832.00,0.0207
831.00,0.0201
830.00,0.0197
829.00,0.0192
828.00,0.0188
827.00,0.0184
826.00,0.0180
825.00,0.0176
824.00,0.0172
823.00,0.0168
822.00,0.0164
821.00,0.0162
820.00,0.0160
819.00,0.0158
818.00,0.0156
817.00,0.0154
816.00,0.0152
815.00,0.0150
814.00,0.0148
813.00,0.0147
812.00,0.0145
811.00,0.0144
810.00,0.0143
809.00,0.0142
808.00,0.0140
807.00,0.0139
806.00,0.0139
805.00,0.0138
804.00,0.0137
803.00,0.0137
802.00,0.0136
801.00,0.0136
800.00,0.0135
799.00,0.0135
798.00,0.0135
797.00,0.0135
796.00,0.0135
795.00,0.0136
794.00,0.0136
793.00,0.0136
792.00,0.0136
791.00,0.0136
790.00,0.0136
789.00,0.0137
788.00,0.0137
787.00,0.0138
786.00,0.0140
785.00,0.0141
784.00,0.0141
783.00,0.0142
782.00,0.0143
781.00,0.0144
780.00,0.0145
779.00,0.0146
778.00,0.0147
777.00,0.0147
776.00,0.0148
775.00,0.0149
774.00,0.0150
773.00,0.0151
772.00,0.0153
771.00,0.0154
770.00,0.0156
769.00,0.0158
768.00,0.0159
767.00,0.0161
766.00,0.0163
765.00,0.0165
764.00,0.0168
763.00,0.0170
762.00,0.0173
761.00,0.0176
760.00,0.0179
759.00,0.0182
758.00,0.0185
757.00,0.0189
756.00,0.0192
755.00,0.0195
754.00,0.0199
753.00,0.0203
752.00,0.0207
751.00,0.0211
750.00,0.0215
749.00,0.0218
748.00,0.0222
747.00,0.0226
746.00,0.0229
745.00,0.0233
744.00,0.0237
743.00,0.0241
742.00,0.0245
741.00,0.0248
740.00,0.0251
739.00,0.0255
738.00,0.0258
737.00,0.0262
736.00,0.0265
735.00,0.0267
734.00,0.0268
733.00,0.0268
732.00,0.0266
731.00,0.0263
730.00,0.0259
729.00,0.0254
728.00,0.0248
727.00,0.0243
726.00,0.0237
725.00,0.0232
724.00,0.0228
723.00,0.0223
722.00,0.0219
721.00,0.0215
720.00,0.0212
719.00,0.0209
718.00,0.0207
717.00,0.0206
716.00,0.0205
715.00,0.0204
714.00,0.0203
713.00,0.0202
712.00,0.0201
711.00,0.0201
710.00,0.0200
709.00,0.0200
708.00,0.0201
707.00,0.0201
706.00,0.0202
705.00,0.0202
704.00,0.0203
703.00,0.0204
702.00,0.0205
701.00,0.0206
700.00,0.0208
699.00,0.0209
698.00,0.0210
697.00,0.0212
696.00,0.0214
695.00,0.0217
694.00,0.0219
693.00,0.0221
692.00,0.0223
691.00,0.0226
690.00,0.0229
689.00,0.0232
688.00,0.0235
687.00,0.0239
686.00,0.0242
685.00,0.0245
684.00,0.0248
683.00,0.0252
682.00,0.0255
681.00,0.0259
680.00,0.0263
679.00,0.0267
678.00,0.0270
677.00,0.0273
676.00,0.0277
675.00,0.0281
674.00,0.0286
673.00,0.0290
672.00,0.0295
671.00,0.0300
670.00,0.0305
669.00,0.0312
668.00,0.0321
667.00,0.0330
666.00,0.0336
665.00,0.0341
664.00,0.0348
663.00,0.0356
662.00,0.0364
661.00,0.0372
660.00,0.0381
659.00,0.0389
658.00,0.0398
657.00,0.0406
656.00,0.0415
655.00,0.0424
654.00,0.0432
653.00,0.0440
652.00,0.0447
651.00,0.0453
650.00,0.0457
649.00,0.0460
648.00,0.0462
647.00,0.0463
646.00,0.0462
645.00,0.0461
644.00,0.0458
643.00,0.0454
642.00,0.0449
641.00,0.0443
640.00,0.0437
639.00,0.0431
638.00,0.0424
637.00,0.0418
636.00,0.0413
635.00,0.0407
634.00,0.0402
633.00,0.0398
632.00,0.0393
631.00,0.0389
630.00,0.0385
629.00,0.0381
628.00,0.0378
627.00,0.0375
626.00,0.0372
625.00,0.0370
624.00,0.0368
623.00,0.0366
622.00,0.0365
621.00,0.0364
620.00,0.0362
619.00,0.0362
618.00,0.0362
617.00,0.0362
616.00,0.0362
615.00,0.0362
614.00,0.0363
613.00,0.0363
612.00,0.0364
611.00,0.0364
610.00,0.0364
609.00,0.0364
608.00,0.0363
607.00,0.0363
606.00,0.0364
605.00,0.0365
604.00,0.0366
603.00,0.0368
602.00,0.0369
601.00,0.0371
600.00,0.0372
599.00,0.0373
598.00,0.0374
597.00,0.0376
596.00,0.0380
595.00,0.0384
594.00,0.0388
593.00,0.0392
592.00,0.0396
591.00,0.0401
590.00,0.0406
589.00,0.0412
588.00,0.0419
587.00,0.0426
586.00,0.0433
585.00,0.0440
584.00,0.0448
583.00,0.0456
582.00,0.0465
581.00,0.0475
580.00,0.0485
579.00,0.0494
578.00,0.0501
577.00,0.0507
576.00,0.0512
575.00,0.0515
574.00,0.0518
573.00,0.0520
572.00,0.0522
571.00,0.0524
570.00,0.0524
569.00,0.0523
568.00,0.0520
567.00,0.0516
566.00,0.0512
565.00,0.0508
564.00,0.0503
563.00,0.0496
562.00,0.0490
561.00,0.0485
560.00,0.0480
559.00,0.0475
558.00,0.0470
557.00,0.0466
556.00,0.0463
555.00,0.0460
554.00,0.0455
553.00,0.0451
552.00,0.0448
551.00,0.0445
550.00,0.0443
549.00,0.0441
548.00,0.0438
547.00,0.0436
546.00,0.0433
545.00,0.0430
544.00,0.0427
543.00,0.0424
542.00,0.0421
541.00,0.0419
540.00,0.0418
539.00,0.0417
538.00,0.0416
537.00,0.0415
536.00,0.0414
535.00,0.0413
534.00,0.0413
533.00,0.0413
532.00,0.0414
531.00,0.0415
530.00,0.0415
529.00,0.0414
528.00,0.0413
527.00,0.0412
526.00,0.0411
525.00,0.0412
524.00,0.0415
523.00,0.0417
522.00,0.0419
521.00,0.0419
520.00,0.0419
519.00,0.0417
518.00,0.0416
517.00,0.0415
516.00,0.0415
515.00,0.0415
514.00,0.0415
513.00,0.0415
512.00,0.0415
511.00,0.0415
510.00,0.0413
509.00,0.0412
508.00,0.0410
507.00,0.0410
506.00,0.0410
505.00,0.0413
504.00,0.0417
503.00,0.0419
502.00,0.0419
501.00,0.0418
500.00,0.0417
499.00,0.0418
498.00,0.0420
497.00,0.0420
496.00,0.0420
495.00,0.0419
494.00,0.0419
493.00,0.0422
492.00,0.0425
491.00,0.0429
490.00,0.0432
489.00,0.0435
488.00,0.0436
487.00,0.0436
486.00,0.0436
485.00,0.0436
484.00,0.0435
483.00,0.0435
482.00,0.0435
481.00,0.0436
480.00,0.0435
479.00,0.0435
478.00,0.0436
477.00,0.0437
476.00,0.0438
475.00,0.0438
474.00,0.0437
473.00,0.0437
472.00,0.0438
471.00,0.0440
470.00,0.0442
469.00,0.0442
468.00,0.0442
467.00,0.0442
466.00,0.0441
465.00,0.0441
464.00,0.0441
463.00,0.0440
462.00,0.0440
461.00,0.0439
460.00,0.0440
459.00,0.0443
458.00,0.0445
457.00,0.0443
456.00,0.0438
455.00,0.0432
454.00,0.0429
453.00,0.0428
452.00,0.0429
451.00,0.0430
450.00,0.0431
449.00,0.0431
448.00,0.0429
447.00,0.0425
446.00,0.0422
445.00,0.0420
444.00,0.0419
443.00,0.0417
442.00,0.0416
441.00,0.0416
440.00,0.0417
439.00,0.0417
438.00,0.0417
437.00,0.0417
436.00,0.0415
435.00,0.0413
434.00,0.0410
433.00,0.0406
432.00,0.0402
431.00,0.0398
430.00,0.0397
429.00,0.0399
428.00,0.0401
427.00,0.0402
426.00,0.0399
425.00,0.0394
424.00,0.0389
423.00,0.0385
422.00,0.0384
421.00,0.0384
420.00,0.0386
419.00,0.0387
418.00,0.0388
417.00,0.0389
416.00,0.0390
415.00,0.0390
414.00,0.0388
413.00,0.0386
412.00,0.0383
411.00,0.0380
410.00,0.0378
409.00,0.0375
408.00,0.0370
407.00,0.0364
406.00,0.0358
405.00,0.0355
404.00,0.0357
403.00,0.0362
402.00,0.0370
401.00,0.0378
400.00,0.0382
