Created as New Dataset,Sample 967 By YargerLab Date Wednesday, July 30 2025
cm-1,A
4000.00,0.0030
3999.00,0.0031
3998.00,0.0031
3997.00,0.0031
3996.00,0.0031
3995.00,0.0031
3994.00,0.0031
3993.00,0.0031
3992.00,0.0031
3991.00,0.0031
3990.00,0.0031
3989.00,0.0031
3988.00,0.0031
3987.00,0.0031
3986.00,0.0031
3985.00,0.0031
3984.00,0.0031
3983.00,0.0031
3982.00,0.0031
3981.00,0.0031
3980.00,0.0031
3979.00,0.0031
3978.00,0.0031
3977.00,0.0031
3976.00,0.0031
3975.00,0.0031
3974.00,0.0031
3973.00,0.0031
3972.00,0.0031
3971.00,0.0031
3970.00,0.0031
3969.00,0.0031
3968.00,0.0031
3967.00,0.0031
3966.00,0.0031
3965.00,0.0031
3964.00,0.0031
3963.00,0.0031
3962.00,0.0031
3961.00,0.0030
3960.00,0.0030
3959.00,0.0031
3958.00,0.0031
3957.00,0.0031
3956.00,0.0031
3955.00,0.0031
3954.00,0.0031
3953.00,0.0031
3952.00,0.0031
3951.00,0.0031
3950.00,0.0031
3949.00,0.0031
3948.00,0.0031
3947.00,0.0031
3946.00,0.0031
3945.00,0.0031
3944.00,0.0031
3943.00,0.0031
3942.00,0.0031
3941.00,0.0031
3940.00,0.0031
3939.00,0.0031
3938.00,0.0031
3937.00,0.0031
3936.00,0.0031
3935.00,0.0032
3934.00,0.0031
3933.00,0.0031
3932.00,0.0031
3931.00,0.0031
3930.00,0.0031
3929.00,0.0032
3928.00,0.0032
3927.00,0.0031
3926.00,0.0031
3925.00,0.0031
3924.00,0.0031
3923.00,0.0031
3922.00,0.0032
3921.00,0.0032
3920.00,0.0032
3919.00,0.0032
3918.00,0.0032
3917.00,0.0032
3916.00,0.0031
3915.00,0.0031
3914.00,0.0031
3913.00,0.0031
3912.00,0.0031
3911.00,0.0031
3910.00,0.0031
3909.00,0.0031
3908.00,0.0032
3907.00,0.0032
3906.00,0.0032
3905.00,0.0033
3904.00,0.0033
3903.00,0.0033
3902.00,0.0033
3901.00,0.0032
3900.00,0.0032
3899.00,0.0031
3898.00,0.0031
3897.00,0.0031
3896.00,0.0031
3895.00,0.0031
3894.00,0.0032
3893.00,0.0032
3892.00,0.0032
3891.00,0.0032
3890.00,0.0032
3889.00,0.0033
3888.00,0.0032
3887.00,0.0032
3886.00,0.0031
3885.00,0.0031
3884.00,0.0032
3883.00,0.0032
3882.00,0.0032
3881.00,0.0032
3880.00,0.0032
3879.00,0.0032
3878.00,0.0032
3877.00,0.0032
3876.00,0.0031
3875.00,0.0031
3874.00,0.0032
3873.00,0.0032
3872.00,0.0033
3871.00,0.0033
3870.00,0.0033
3869.00,0.0033
3868.00,0.0033
3867.00,0.0033
3866.00,0.0032
3865.00,0.0032
3864.00,0.0032
3863.00,0.0032
3862.00,0.0032
3861.00,0.0032
3860.00,0.0032
3859.00,0.0032
3858.00,0.0033
3857.00,0.0033
3856.00,0.0034
3855.00,0.0034
3854.00,0.0033
3853.00,0.0033
3852.00,0.0034
3851.00,0.0034
3850.00,0.0033
3849.00,0.0032
3848.00,0.0032
3847.00,0.0032
3846.00,0.0032
3845.00,0.0032
3844.00,0.0032
3843.00,0.0032
3842.00,0.0033
3841.00,0.0033
3840.00,0.0033
3839.00,0.0033
3838.00,0.0033
3837.00,0.0033
3836.00,0.0033
3835.00,0.0033
3834.00,0.0033
3833.00,0.0032
3832.00,0.0032
3831.00,0.0032
3830.00,0.0032
3829.00,0.0032
3828.00,0.0032
3827.00,0.0032
3826.00,0.0033
3825.00,0.0033
3824.00,0.0034
3823.00,0.0033
3822.00,0.0033
3821.00,0.0033
3820.00,0.0034
3819.00,0.0034
3818.00,0.0034
3817.00,0.0033
3816.00,0.0033
3815.00,0.0033
3814.00,0.0033
3813.00,0.0032
3812.00,0.0032
3811.00,0.0032
3810.00,0.0032
3809.00,0.0032
3808.00,0.0032
3807.00,0.0032
3806.00,0.0032
3805.00,0.0033
3804.00,0.0033
3803.00,0.0033
3802.00,0.0032
3801.00,0.0032
3800.00,0.0033
3799.00,0.0033
3798.00,0.0032
3797.00,0.0032
3796.00,0.0031
3795.00,0.0032
3794.00,0.0031
3793.00,0.0031
3792.00,0.0031
3791.00,0.0031
3790.00,0.0031
3789.00,0.0031
3788.00,0.0032
3787.00,0.0032
3786.00,0.0031
3785.00,0.0031
3784.00,0.0032
3783.00,0.0032
3782.00,0.0032
3781.00,0.0032
3780.00,0.0032
3779.00,0.0032
3778.00,0.0032
3777.00,0.0032
3776.00,0.0032
3775.00,0.0032
3774.00,0.0032
3773.00,0.0032
3772.00,0.0032
3771.00,0.0031
3770.00,0.0031
3769.00,0.0031
3768.00,0.0031
3767.00,0.0032
3766.00,0.0031
3765.00,0.0031
3764.00,0.0032
3763.00,0.0032
3762.00,0.0032
3761.00,0.0032
3760.00,0.0032
3759.00,0.0032
3758.00,0.0032
3757.00,0.0033
3756.00,0.0033
3755.00,0.0034
3754.00,0.0034
3753.00,0.0035
3752.00,0.0035
3751.00,0.0035
3750.00,0.0035
3749.00,0.0035
3748.00,0.0035
3747.00,0.0034
3746.00,0.0033
3745.00,0.0032
3744.00,0.0032
3743.00,0.0033
3742.00,0.0033
3741.00,0.0033
3740.00,0.0032
3739.00,0.0033
3738.00,0.0033
3737.00,0.0033
3736.00,0.0033
3735.00,0.0033
3734.00,0.0032
3733.00,0.0032
3732.00,0.0032
3731.00,0.0031
3730.00,0.0031
3729.00,0.0031
3728.00,0.0031
3727.00,0.0031
3726.00,0.0031
3725.00,0.0031
3724.00,0.0031
3723.00,0.0031
3722.00,0.0030
3721.00,0.0030
3720.00,0.0030
3719.00,0.0030
3718.00,0.0031
3717.00,0.0031
3716.00,0.0031
3715.00,0.0032
3714.00,0.0032
3713.00,0.0032
3712.00,0.0032
3711.00,0.0032
3710.00,0.0032
3709.00,0.0032
3708.00,0.0032
3707.00,0.0031
3706.00,0.0031
3705.00,0.0030
3704.00,0.0030
3703.00,0.0030
3702.00,0.0030
3701.00,0.0030
3700.00,0.0030
3699.00,0.0030
3698.00,0.0030
3697.00,0.0030
3696.00,0.0030
3695.00,0.0030
3694.00,0.0030
3693.00,0.0031
3692.00,0.0031
3691.00,0.0031
3690.00,0.0031
3689.00,0.0031
3688.00,0.0031
3687.00,0.0031
3686.00,0.0031
3685.00,0.0030
3684.00,0.0030
3683.00,0.0030
3682.00,0.0030
3681.00,0.0030
3680.00,0.0031
3679.00,0.0032
3678.00,0.0032
3677.00,0.0032
3676.00,0.0032
3675.00,0.0032
3674.00,0.0033
3673.00,0.0033
3672.00,0.0033
3671.00,0.0032
3670.00,0.0032
3669.00,0.0032
3668.00,0.0032
3667.00,0.0031
3666.00,0.0031
3665.00,0.0030
3664.00,0.0030
3663.00,0.0031
3662.00,0.0031
3661.00,0.0031
3660.00,0.0032
3659.00,0.0032
3658.00,0.0033
3657.00,0.0032
3656.00,0.0032
3655.00,0.0033
3654.00,0.0033
3653.00,0.0034
3652.00,0.0034
3651.00,0.0035
3650.00,0.0035
3649.00,0.0034
3648.00,0.0034
3647.00,0.0034
3646.00,0.0034
3645.00,0.0033
3644.00,0.0033
3643.00,0.0033
3642.00,0.0033
3641.00,0.0033
3640.00,0.0033
3639.00,0.0034
3638.00,0.0034
3637.00,0.0034
3636.00,0.0034
3635.00,0.0034
3634.00,0.0035
3633.00,0.0036
3632.00,0.0036
3631.00,0.0036
3630.00,0.0036
3629.00,0.0035
3628.00,0.0035
3627.00,0.0036
3626.00,0.0036
3625.00,0.0035
3624.00,0.0035
3623.00,0.0036
3622.00,0.0036
3621.00,0.0037
3620.00,0.0037
3619.00,0.0037
3618.00,0.0037
3617.00,0.0037
3616.00,0.0037
3615.00,0.0036
3614.00,0.0037
3613.00,0.0037
3612.00,0.0037
3611.00,0.0038
3610.00,0.0038
3609.00,0.0038
3608.00,0.0038
3607.00,0.0038
3606.00,0.0038
3605.00,0.0038
3604.00,0.0038
3603.00,0.0039
3602.00,0.0039
3601.00,0.0039
3600.00,0.0040
3599.00,0.0040
3598.00,0.0040
3597.00,0.0040
3596.00,0.0039
3595.00,0.0039
3594.00,0.0039
3593.00,0.0040
3592.00,0.0040
3591.00,0.0041
3590.00,0.0041
3589.00,0.0041
3588.00,0.0041
3587.00,0.0041
3586.00,0.0041
3585.00,0.0041
3584.00,0.0041
3583.00,0.0041
3582.00,0.0041
3581.00,0.0041
3580.00,0.0042
3579.00,0.0042
3578.00,0.0042
3577.00,0.0043
3576.00,0.0043
3575.00,0.0043
3574.00,0.0044
3573.00,0.0044
3572.00,0.0045
3571.00,0.0045
3570.00,0.0046
3569.00,0.0046
3568.00,0.0046
3567.00,0.0046
3566.00,0.0046
3565.00,0.0045
3564.00,0.0045
3563.00,0.0045
3562.00,0.0046
3561.00,0.0046
3560.00,0.0046
3559.00,0.0046
3558.00,0.0046
3557.00,0.0047
3556.00,0.0047
3555.00,0.0048
3554.00,0.0048
3553.00,0.0048
3552.00,0.0048
3551.00,0.0048
3550.00,0.0049
3549.00,0.0049
3548.00,0.0050
3547.00,0.0050
3546.00,0.0050
3545.00,0.0050
3544.00,0.0050
3543.00,0.0050
3542.00,0.0050
3541.00,0.0051
3540.00,0.0051
3539.00,0.0052
3538.00,0.0052
3537.00,0.0052
3536.00,0.0052
3535.00,0.0052
3534.00,0.0053
3533.00,0.0053
3532.00,0.0053
3531.00,0.0054
3530.00,0.0054
3529.00,0.0054
3528.00,0.0054
3527.00,0.0054
3526.00,0.0055
3525.00,0.0055
3524.00,0.0055
3523.00,0.0055
3522.00,0.0055
3521.00,0.0055
3520.00,0.0055
3519.00,0.0055
3518.00,0.0056
3517.00,0.0056
3516.00,0.0056
3515.00,0.0056
3514.00,0.0057
3513.00,0.0057
3512.00,0.0057
3511.00,0.0057
3510.00,0.0057
3509.00,0.0058
3508.00,0.0058
3507.00,0.0058
3506.00,0.0058
3505.00,0.0058
3504.00,0.0059
3503.00,0.0058
3502.00,0.0058
3501.00,0.0058
3500.00,0.0058
3499.00,0.0059
3498.00,0.0059
3497.00,0.0059
3496.00,0.0059
3495.00,0.0060
3494.00,0.0060
3493.00,0.0060
3492.00,0.0060
3491.00,0.0060
3490.00,0.0060
3489.00,0.0060
3488.00,0.0060
3487.00,0.0061
3486.00,0.0061
3485.00,0.0061
3484.00,0.0061
3483.00,0.0061
3482.00,0.0061
3481.00,0.0061
3480.00,0.0061
3479.00,0.0061
3478.00,0.0062
3477.00,0.0062
3476.00,0.0062
3475.00,0.0062
3474.00,0.0062
3473.00,0.0062
3472.00,0.0062
3471.00,0.0062
3470.00,0.0062
3469.00,0.0063
3468.00,0.0063
3467.00,0.0063
3466.00,0.0063
3465.00,0.0063
3464.00,0.0063
3463.00,0.0063
3462.00,0.0063
3461.00,0.0063
3460.00,0.0063
3459.00,0.0063
3458.00,0.0063
3457.00,0.0063
3456.00,0.0064
3455.00,0.0064
3454.00,0.0064
3453.00,0.0064
3452.00,0.0065
3451.00,0.0065
3450.00,0.0066
3449.00,0.0066
3448.00,0.0066
3447.00,0.0066
3446.00,0.0065
3445.00,0.0065
3444.00,0.0065
3443.00,0.0066
3442.00,0.0066
3441.00,0.0066
3440.00,0.0067
3439.00,0.0067
3438.00,0.0067
3437.00,0.0068
3436.00,0.0068
3435.00,0.0068
3434.00,0.0069
3433.00,0.0069
3432.00,0.0069
3431.00,0.0069
3430.00,0.0069
3429.00,0.0069
3428.00,0.0069
3427.00,0.0069
3426.00,0.0069
3425.00,0.0070
3424.00,0.0070
3423.00,0.0071
3422.00,0.0071
3421.00,0.0071
3420.00,0.0071
3419.00,0.0072
3418.00,0.0072
3417.00,0.0072
3416.00,0.0073
3415.00,0.0073
3414.00,0.0074
3413.00,0.0074
3412.00,0.0074
3411.00,0.0075
3410.00,0.0075
3409.00,0.0075
3408.00,0.0076
3407.00,0.0076
3406.00,0.0076
3405.00,0.0076
3404.00,0.0077
3403.00,0.0077
3402.00,0.0078
3401.00,0.0078
3400.00,0.0078
3399.00,0.0078
3398.00,0.0078
3397.00,0.0079
3396.00,0.0079
3395.00,0.0079
3394.00,0.0080
3393.00,0.0080
3392.00,0.0080
3391.00,0.0081
3390.00,0.0081
3389.00,0.0081
3388.00,0.0081
3387.00,0.0082
3386.00,0.0082
3385.00,0.0082
3384.00,0.0083
3383.00,0.0083
3382.00,0.0083
3381.00,0.0084
3380.00,0.0084
3379.00,0.0084
3378.00,0.0085
3377.00,0.0085
3376.00,0.0086
3375.00,0.0086
3374.00,0.0086
3373.00,0.0086
3372.00,0.0087
3371.00,0.0088
3370.00,0.0088
3369.00,0.0089
3368.00,0.0089
3367.00,0.0090
3366.00,0.0090
3365.00,0.0090
3364.00,0.0091
3363.00,0.0091
3362.00,0.0092
3361.00,0.0093
3360.00,0.0093
3359.00,0.0094
3358.00,0.0094
3357.00,0.0095
3356.00,0.0096
3355.00,0.0097
3354.00,0.0097
3353.00,0.0098
3352.00,0.0099
3351.00,0.0099
3350.00,0.0100
3349.00,0.0101
3348.00,0.0102
3347.00,0.0102
3346.00,0.0103
3345.00,0.0104
3344.00,0.0106
3343.00,0.0107
3342.00,0.0108
3341.00,0.0110
3340.00,0.0111
3339.00,0.0112
3338.00,0.0113
3337.00,0.0114
3336.00,0.0115
3335.00,0.0116
3334.00,0.0118
3333.00,0.0119
3332.00,0.0120
3331.00,0.0122
3330.00,0.0123
3329.00,0.0125
3328.00,0.0127
3327.00,0.0129
3326.00,0.0131
3325.00,0.0132
3324.00,0.0134
3323.00,0.0136
3322.00,0.0138
3321.00,0.0140
3320.00,0.0142
3319.00,0.0144
3318.00,0.0146
3317.00,0.0148
3316.00,0.0150
3315.00,0.0152
3314.00,0.0154
3313.00,0.0157
3312.00,0.0159
3311.00,0.0161
3310.00,0.0164
3309.00,0.0166
3308.00,0.0169
3307.00,0.0171
3306.00,0.0173
3305.00,0.0176
3304.00,0.0178
3303.00,0.0180
3302.00,0.0182
3301.00,0.0185
3300.00,0.0187
3299.00,0.0190
3298.00,0.0193
3297.00,0.0195
3296.00,0.0197
3295.00,0.0199
3294.00,0.0202
3293.00,0.0204
3292.00,0.0206
3291.00,0.0207
3290.00,0.0209
3289.00,0.0210
3288.00,0.0212
3287.00,0.0213
3286.00,0.0214
3285.00,0.0215
3284.00,0.0216
3283.00,0.0217
3282.00,0.0218
3281.00,0.0218
3280.00,0.0218
3279.00,0.0218
3278.00,0.0218
3277.00,0.0218
3276.00,0.0218
3275.00,0.0217
3274.00,0.0216
3273.00,0.0215
3272.00,0.0214
3271.00,0.0213
3270.00,0.0211
3269.00,0.0210
3268.00,0.0208
3267.00,0.0206
3266.00,0.0205
3265.00,0.0203
3264.00,0.0201
3263.00,0.0199
3262.00,0.0197
3261.00,0.0195
3260.00,0.0193
3259.00,0.0191
3258.00,0.0189
3257.00,0.0187
3256.00,0.0185
3255.00,0.0183
3254.00,0.0181
3253.00,0.0179
3252.00,0.0177
3251.00,0.0175
3250.00,0.0174
3249.00,0.0172
3248.00,0.0170
3247.00,0.0169
3246.00,0.0167
3245.00,0.0165
3244.00,0.0164
3243.00,0.0162
3242.00,0.0161
3241.00,0.0160
3240.00,0.0158
3239.00,0.0157
3238.00,0.0156
3237.00,0.0154
3236.00,0.0153
3235.00,0.0152
3234.00,0.0151
3233.00,0.0149
3232.00,0.0148
3231.00,0.0147
3230.00,0.0146
3229.00,0.0145
3228.00,0.0144
3227.00,0.0142
3226.00,0.0141
3225.00,0.0140
3224.00,0.0139
3223.00,0.0139
3222.00,0.0138
3221.00,0.0137
3220.00,0.0136
3219.00,0.0135
3218.00,0.0134
3217.00,0.0133
3216.00,0.0132
3215.00,0.0131
3214.00,0.0130
3213.00,0.0129
3212.00,0.0128
3211.00,0.0127
3210.00,0.0126
3209.00,0.0126
3208.00,0.0125
3207.00,0.0124
3206.00,0.0124
3205.00,0.0123
3204.00,0.0122
3203.00,0.0121
3202.00,0.0120
3201.00,0.0119
3200.00,0.0118
3199.00,0.0118
3198.00,0.0117
3197.00,0.0116
3196.00,0.0115
3195.00,0.0115
3194.00,0.0114
3193.00,0.0113
3192.00,0.0112
3191.00,0.0111
3190.00,0.0110
3189.00,0.0110
3188.00,0.0109
3187.00,0.0108
3186.00,0.0108
3185.00,0.0107
3184.00,0.0106
3183.00,0.0105
3182.00,0.0104
3181.00,0.0104
3180.00,0.0104
3179.00,0.0103
3178.00,0.0102
3177.00,0.0102
3176.00,0.0101
3175.00,0.0100
3174.00,0.0100
3173.00,0.0099
3172.00,0.0098
3171.00,0.0097
3170.00,0.0097
3169.00,0.0096
3168.00,0.0096
3167.00,0.0095
3166.00,0.0095
3165.00,0.0095
3164.00,0.0094
3163.00,0.0094
3162.00,0.0093
3161.00,0.0093
3160.00,0.0092
3159.00,0.0092
3158.00,0.0092
3157.00,0.0091
3156.00,0.0091
3155.00,0.0090
3154.00,0.0090
3153.00,0.0089
3152.00,0.0089
3151.00,0.0088
3150.00,0.0088
3149.00,0.0088
3148.00,0.0088
3147.00,0.0087
3146.00,0.0086
3145.00,0.0086
3144.00,0.0085
3143.00,0.0085
3142.00,0.0085
3141.00,0.0085
3140.00,0.0085
3139.00,0.0084
3138.00,0.0084
3137.00,0.0084
3136.00,0.0084
3135.00,0.0084
3134.00,0.0084
3133.00,0.0084
3132.00,0.0083
3131.00,0.0083
3130.00,0.0083
3129.00,0.0083
3128.00,0.0083
3127.00,0.0083
3126.00,0.0083
3125.00,0.0083
3124.00,0.0083
3123.00,0.0083
3122.00,0.0083
3121.00,0.0083
3120.00,0.0083
3119.00,0.0083
3118.00,0.0083
3117.00,0.0083
3116.00,0.0083
3115.00,0.0083
3114.00,0.0083
3113.00,0.0083
3112.00,0.0083
3111.00,0.0084
3110.00,0.0084
3109.00,0.0084
3108.00,0.0084
3107.00,0.0084
3106.00,0.0085
3105.00,0.0085
3104.00,0.0085
3103.00,0.0086
3102.00,0.0086
3101.00,0.0086
3100.00,0.0086
3099.00,0.0086
3098.00,0.0086
3097.00,0.0086
3096.00,0.0086
3095.00,0.0087
3094.00,0.0087
3093.00,0.0087
3092.00,0.0087
3091.00,0.0088
3090.00,0.0088
3089.00,0.0088
3088.00,0.0088
3087.00,0.0089
3086.00,0.0089
3085.00,0.0089
3084.00,0.0090
3083.00,0.0090
3082.00,0.0090
3081.00,0.0090
3080.00,0.0090
3079.00,0.0090
3078.00,0.0090
3077.00,0.0090
3076.00,0.0090
3075.00,0.0090
3074.00,0.0090
3073.00,0.0090
3072.00,0.0090
3071.00,0.0090
3070.00,0.0091
3069.00,0.0091
3068.00,0.0091
3067.00,0.0091
3066.00,0.0091
3065.00,0.0091
3064.00,0.0091
3063.00,0.0091
3062.00,0.0090
3061.00,0.0090
3060.00,0.0089
3059.00,0.0089
3058.00,0.0089
3057.00,0.0088
3056.00,0.0088
3055.00,0.0087
3054.00,0.0087
3053.00,0.0087
3052.00,0.0086
3051.00,0.0086
3050.00,0.0085
3049.00,0.0085
3048.00,0.0085
3047.00,0.0084
3046.00,0.0084
3045.00,0.0084
3044.00,0.0083
3043.00,0.0083
3042.00,0.0082
3041.00,0.0082
3040.00,0.0081
3039.00,0.0081
3038.00,0.0081
3037.00,0.0081
3036.00,0.0080
3035.00,0.0079
3034.00,0.0079
3033.00,0.0078
3032.00,0.0078
3031.00,0.0078
3030.00,0.0077
3029.00,0.0077
3028.00,0.0077
3027.00,0.0077
3026.00,0.0076
3025.00,0.0076
3024.00,0.0076
3023.00,0.0075
3022.00,0.0075
3021.00,0.0075
3020.00,0.0075
3019.00,0.0074
3018.00,0.0074
3017.00,0.0074
3016.00,0.0074
3015.00,0.0073
3014.00,0.0073
3013.00,0.0073
3012.00,0.0072
3011.00,0.0072
3010.00,0.0072
3009.00,0.0072
3008.00,0.0072
3007.00,0.0072
3006.00,0.0072
3005.00,0.0072
3004.00,0.0072
3003.00,0.0072
3002.00,0.0072
3001.00,0.0072
3000.00,0.0072
2999.00,0.0072
2998.00,0.0072
2997.00,0.0072
2996.00,0.0072
2995.00,0.0072
2994.00,0.0072
2993.00,0.0072
2992.00,0.0072
2991.00,0.0072
2990.00,0.0072
2989.00,0.0072
2988.00,0.0072
2987.00,0.0072
2986.00,0.0072
2985.00,0.0072
2984.00,0.0072
2983.00,0.0073
2982.00,0.0073
2981.00,0.0073
2980.00,0.0072
2979.00,0.0072
2978.00,0.0072
2977.00,0.0071
2976.00,0.0071
2975.00,0.0071
2974.00,0.0070
2973.00,0.0069
2972.00,0.0069
2971.00,0.0068
2970.00,0.0067
2969.00,0.0067
2968.00,0.0066
2967.00,0.0065
2966.00,0.0064
2965.00,0.0063
2964.00,0.0061
2963.00,0.0060
2962.00,0.0059
2961.00,0.0058
2960.00,0.0057
2959.00,0.0056
2958.00,0.0055
2957.00,0.0055
2956.00,0.0054
2955.00,0.0054
2954.00,0.0054
2953.00,0.0054
2952.00,0.0054
2951.00,0.0055
2950.00,0.0055
2949.00,0.0056
2948.00,0.0056
2947.00,0.0056
2946.00,0.0056
2945.00,0.0056
2944.00,0.0056
2943.00,0.0056
2942.00,0.0056
2941.00,0.0056
2940.00,0.0056
2939.00,0.0056
2938.00,0.0055
2937.00,0.0054
2936.00,0.0053
2935.00,0.0052
2934.00,0.0051
2933.00,0.0050
2932.00,0.0048
2931.00,0.0047
2930.00,0.0045
2929.00,0.0044
2928.00,0.0042
2927.00,0.0041
2926.00,0.0040
2925.00,0.0039
2924.00,0.0038
2923.00,0.0037
2922.00,0.0036
2921.00,0.0036
2920.00,0.0036
2919.00,0.0036
2918.00,0.0036
2917.00,0.0037
2916.00,0.0038
2915.00,0.0039
2914.00,0.0040
2913.00,0.0042
2912.00,0.0043
2911.00,0.0044
2910.00,0.0045
2909.00,0.0045
2908.00,0.0045
2907.00,0.0045
2906.00,0.0045
2905.00,0.0045
2904.00,0.0045
2903.00,0.0045
2902.00,0.0045
2901.00,0.0045
2900.00,0.0045
2899.00,0.0045
2898.00,0.0045
2897.00,0.0045
2896.00,0.0045
2895.00,0.0044
2894.00,0.0044
2893.00,0.0044
2892.00,0.0044
2891.00,0.0044
2890.00,0.0044
2889.00,0.0044
2888.00,0.0044
2887.00,0.0045
2886.00,0.0045
2885.00,0.0045
2884.00,0.0045
2883.00,0.0046
2882.00,0.0046
2881.00,0.0046
2880.00,0.0047
2879.00,0.0047
2878.00,0.0047
2877.00,0.0047
2876.00,0.0047
2875.00,0.0047
2874.00,0.0048
2873.00,0.0048
2872.00,0.0048
2871.00,0.0048
2870.00,0.0048
2869.00,0.0048
2868.00,0.0048
2867.00,0.0048
2866.00,0.0047
2865.00,0.0047
2864.00,0.0046
2863.00,0.0045
2862.00,0.0044
2861.00,0.0043
2860.00,0.0042
2859.00,0.0041
2858.00,0.0041
2857.00,0.0040
2856.00,0.0040
2855.00,0.0040
2854.00,0.0039
2853.00,0.0039
2852.00,0.0039
2851.00,0.0040
2850.00,0.0040
2849.00,0.0041
2848.00,0.0042
2847.00,0.0044
2846.00,0.0046
2845.00,0.0048
2844.00,0.0050
2843.00,0.0052
2842.00,0.0053
2841.00,0.0054
2840.00,0.0054
2839.00,0.0055
2838.00,0.0055
2837.00,0.0056
2836.00,0.0056
2835.00,0.0056
2834.00,0.0057
2833.00,0.0057
2832.00,0.0057
2831.00,0.0057
2830.00,0.0057
2829.00,0.0058
2828.00,0.0058
2827.00,0.0058
2826.00,0.0058
2825.00,0.0058
2824.00,0.0058
2823.00,0.0059
2822.00,0.0059
2821.00,0.0059
2820.00,0.0059
2819.00,0.0059
2818.00,0.0059
2817.00,0.0059
2816.00,0.0059
2815.00,0.0059
2814.00,0.0059
2813.00,0.0059
2812.00,0.0059
2811.00,0.0059
2810.00,0.0059
2809.00,0.0059
2808.00,0.0060
2807.00,0.0060
2806.00,0.0060
2805.00,0.0060
2804.00,0.0059
2803.00,0.0059
2802.00,0.0059
2801.00,0.0059
2800.00,0.0060
2799.00,0.0060
2798.00,0.0060
2797.00,0.0060
2796.00,0.0060
2795.00,0.0060
2794.00,0.0060
2793.00,0.0060
2792.00,0.0061
2791.00,0.0061
2790.00,0.0061
2789.00,0.0061
2788.00,0.0061
2787.00,0.0061
2786.00,0.0061
2785.00,0.0061
2784.00,0.0061
2783.00,0.0061
2782.00,0.0061
2781.00,0.0061
2780.00,0.0061
2779.00,0.0061
2778.00,0.0061
2777.00,0.0061
2776.00,0.0061
2775.00,0.0061
2774.00,0.0061
2773.00,0.0061
2772.00,0.0061
2771.00,0.0061
2770.00,0.0061
2769.00,0.0061
2768.00,0.0061
2767.00,0.0061
2766.00,0.0061
2765.00,0.0061
2764.00,0.0061
2763.00,0.0061
2762.00,0.0060
2761.00,0.0060
2760.00,0.0060
2759.00,0.0060
2758.00,0.0060
2757.00,0.0060
2756.00,0.0060
2755.00,0.0060
2754.00,0.0060
2753.00,0.0060
2752.00,0.0060
2751.00,0.0060
2750.00,0.0060
2749.00,0.0060
2748.00,0.0060
2747.00,0.0060
2746.00,0.0060
2745.00,0.0060
2744.00,0.0060
2743.00,0.0060
2742.00,0.0060
2741.00,0.0060
2740.00,0.0059
2739.00,0.0059
2738.00,0.0059
2737.00,0.0059
2736.00,0.0059
2735.00,0.0059
2734.00,0.0059
2733.00,0.0059
2732.00,0.0059
2731.00,0.0058
2730.00,0.0058
2729.00,0.0058
2728.00,0.0058
2727.00,0.0058
2726.00,0.0058
2725.00,0.0058
2724.00,0.0058
2723.00,0.0058
2722.00,0.0058
2721.00,0.0058
2720.00,0.0058
2719.00,0.0058
2718.00,0.0058
2717.00,0.0058
2716.00,0.0058
2715.00,0.0057
2714.00,0.0057
2713.00,0.0057
2712.00,0.0057
2711.00,0.0057
2710.00,0.0057
2709.00,0.0057
2708.00,0.0057
2707.00,0.0057
2706.00,0.0057
2705.00,0.0057
2704.00,0.0057
2703.00,0.0057
2702.00,0.0056
2701.00,0.0056
2700.00,0.0056
2699.00,0.0056
2698.00,0.0056
2697.00,0.0056
2696.00,0.0056
2695.00,0.0056
2694.00,0.0056
2693.00,0.0056
2692.00,0.0056
2691.00,0.0056
2690.00,0.0056
2689.00,0.0056
2688.00,0.0056
2687.00,0.0056
2686.00,0.0056
2685.00,0.0056
2684.00,0.0056
2683.00,0.0056
2682.00,0.0056
2681.00,0.0056
2680.00,0.0056
2679.00,0.0056
2678.00,0.0056
2677.00,0.0056
2676.00,0.0056
2675.00,0.0056
2674.00,0.0056
2673.00,0.0056
2672.00,0.0056
2671.00,0.0056
2670.00,0.0056
2669.00,0.0056
2668.00,0.0056
2667.00,0.0056
2666.00,0.0057
2665.00,0.0057
2664.00,0.0058
2663.00,0.0058
2662.00,0.0058
2661.00,0.0059
2660.00,0.0059
2659.00,0.0059
2658.00,0.0060
2657.00,0.0060
2656.00,0.0060
2655.00,0.0060
2654.00,0.0060
2653.00,0.0060
2652.00,0.0060
2651.00,0.0060
2650.00,0.0060
2649.00,0.0060
2648.00,0.0060
2647.00,0.0060
2646.00,0.0060
2645.00,0.0060
2644.00,0.0060
2643.00,0.0060
2642.00,0.0060
2641.00,0.0060
2640.00,0.0060
2639.00,0.0060
2638.00,0.0060
2637.00,0.0060
2636.00,0.0060
2635.00,0.0060
2634.00,0.0060
2633.00,0.0060
2632.00,0.0060
2631.00,0.0059
2630.00,0.0059
2629.00,0.0059
2628.00,0.0059
2627.00,0.0060
2626.00,0.0060
2625.00,0.0060
2624.00,0.0060
2623.00,0.0060
2622.00,0.0060
2621.00,0.0060
2620.00,0.0060
2619.00,0.0060
2618.00,0.0059
2617.00,0.0059
2616.00,0.0059
2615.00,0.0059
2614.00,0.0059
2613.00,0.0059
2612.00,0.0059
2611.00,0.0059
2610.00,0.0059
2609.00,0.0059
2608.00,0.0059
2607.00,0.0059
2606.00,0.0059
2605.00,0.0059
2604.00,0.0058
2603.00,0.0058
2602.00,0.0057
2601.00,0.0057
2600.00,0.0057
2599.00,0.0057
2598.00,0.0057
2597.00,0.0057
2596.00,0.0057
2595.00,0.0057
2594.00,0.0057
2593.00,0.0057
2592.00,0.0056
2591.00,0.0056
2590.00,0.0056
2589.00,0.0056
2588.00,0.0056
2587.00,0.0056
2586.00,0.0056
2585.00,0.0056
2584.00,0.0056
2583.00,0.0056
2582.00,0.0056
2581.00,0.0056
2580.00,0.0055
2579.00,0.0055
2578.00,0.0055
2577.00,0.0055
2576.00,0.0055
2575.00,0.0054
2574.00,0.0055
2573.00,0.0055
2572.00,0.0055
2571.00,0.0055
2570.00,0.0055
2569.00,0.0055
2568.00,0.0055
2567.00,0.0055
2566.00,0.0054
2565.00,0.0054
2564.00,0.0054
2563.00,0.0054
2562.00,0.0053
2561.00,0.0053
2560.00,0.0053
2559.00,0.0054
2558.00,0.0054
2557.00,0.0054
2556.00,0.0054
2555.00,0.0054
2554.00,0.0054
2553.00,0.0053
2552.00,0.0053
2551.00,0.0053
2550.00,0.0053
2549.00,0.0053
2548.00,0.0053
2547.00,0.0053
2546.00,0.0053
2545.00,0.0053
2544.00,0.0053
2543.00,0.0053
2542.00,0.0053
2541.00,0.0053
2540.00,0.0053
2539.00,0.0053
2538.00,0.0053
2537.00,0.0053
2536.00,0.0053
2535.00,0.0053
2534.00,0.0053
2533.00,0.0052
2532.00,0.0052
2531.00,0.0052
2530.00,0.0052
2529.00,0.0052
2528.00,0.0053
2527.00,0.0053
2526.00,0.0053
2525.00,0.0052
2524.00,0.0052
2523.00,0.0052
2522.00,0.0052
2521.00,0.0052
2520.00,0.0052
2519.00,0.0053
2518.00,0.0053
2517.00,0.0052
2516.00,0.0052
2515.00,0.0052
2514.00,0.0052
2513.00,0.0052
2512.00,0.0052
2511.00,0.0052
2510.00,0.0052
2509.00,0.0052
2508.00,0.0052
2507.00,0.0052
2506.00,0.0052
2505.00,0.0052
2504.00,0.0052
2503.00,0.0052
2502.00,0.0052
2501.00,0.0051
2500.00,0.0051
2499.00,0.0051
2498.00,0.0051
2497.00,0.0051
2496.00,0.0052
2495.00,0.0052
2494.00,0.0051
2493.00,0.0051
2492.00,0.0051
2491.00,0.0051
2490.00,0.0051
2489.00,0.0051
2488.00,0.0051
2487.00,0.0052
2486.00,0.0052
2485.00,0.0052
2484.00,0.0051
2483.00,0.0051
2482.00,0.0051
2481.00,0.0052
2480.00,0.0052
2479.00,0.0052
2478.00,0.0052
2477.00,0.0052
2476.00,0.0051
2475.00,0.0051
2474.00,0.0051
2473.00,0.0051
2472.00,0.0052
2471.00,0.0052
2470.00,0.0051
2469.00,0.0051
2468.00,0.0051
2467.00,0.0051
2466.00,0.0051
2465.00,0.0051
2464.00,0.0051
2463.00,0.0051
2462.00,0.0051
2461.00,0.0052
2460.00,0.0052
2459.00,0.0053
2458.00,0.0053
2457.00,0.0053
2456.00,0.0053
2455.00,0.0053
2454.00,0.0053
2453.00,0.0053
2452.00,0.0053
2451.00,0.0053
2450.00,0.0053
2449.00,0.0053
2448.00,0.0052
2447.00,0.0052
2446.00,0.0052
2445.00,0.0052
2444.00,0.0051
2443.00,0.0051
2442.00,0.0051
2441.00,0.0051
2440.00,0.0051
2439.00,0.0050
2438.00,0.0050
2437.00,0.0050
2436.00,0.0050
2435.00,0.0050
2434.00,0.0050
2433.00,0.0050
2432.00,0.0050
2431.00,0.0050
2430.00,0.0050
2429.00,0.0050
2428.00,0.0050
2427.00,0.0050
2426.00,0.0050
2425.00,0.0050
2424.00,0.0049
2423.00,0.0049
2422.00,0.0048
2421.00,0.0048
2420.00,0.0048
2419.00,0.0048
2418.00,0.0048
2417.00,0.0048
2416.00,0.0048
2415.00,0.0048
2414.00,0.0049
2413.00,0.0049
2412.00,0.0049
2411.00,0.0049
2410.00,0.0049
2409.00,0.0049
2408.00,0.0048
2407.00,0.0048
2406.00,0.0047
2405.00,0.0047
2404.00,0.0047
2403.00,0.0047
2402.00,0.0047
2401.00,0.0047
2400.00,0.0047
2399.00,0.0047
2398.00,0.0047
2397.00,0.0047
2396.00,0.0047
2395.00,0.0047
2394.00,0.0047
2393.00,0.0047
2392.00,0.0047
2391.00,0.0047
2390.00,0.0047
2389.00,0.0046
2388.00,0.0046
2387.00,0.0046
2386.00,0.0046
2385.00,0.0046
2384.00,0.0045
2383.00,0.0045
2382.00,0.0044
2381.00,0.0043
2380.00,0.0043
2379.00,0.0043
2378.00,0.0043
2377.00,0.0043
2376.00,0.0043
2375.00,0.0043
2374.00,0.0043
2373.00,0.0043
2372.00,0.0043
2371.00,0.0043
2370.00,0.0042
2369.00,0.0042
2368.00,0.0041
2367.00,0.0041
2366.00,0.0042
2365.00,0.0043
2364.00,0.0043
2363.00,0.0044
2362.00,0.0043
2361.00,0.0043
2360.00,0.0043
2359.00,0.0043
2358.00,0.0042
2357.00,0.0042
2356.00,0.0042
2355.00,0.0043
2354.00,0.0043
2353.00,0.0043
2352.00,0.0043
2351.00,0.0043
2350.00,0.0043
2349.00,0.0044
2348.00,0.0044
2347.00,0.0045
2346.00,0.0046
2345.00,0.0046
2344.00,0.0046
2343.00,0.0046
2342.00,0.0046
2341.00,0.0046
2340.00,0.0046
2339.00,0.0046
2338.00,0.0047
2337.00,0.0047
2336.00,0.0047
2335.00,0.0047
2334.00,0.0046
2333.00,0.0046
2332.00,0.0045
2331.00,0.0045
2330.00,0.0046
2329.00,0.0047
2328.00,0.0050
2327.00,0.0053
2326.00,0.0057
2325.00,0.0058
2324.00,0.0058
2323.00,0.0056
2322.00,0.0054
2321.00,0.0052
2320.00,0.0051
2319.00,0.0050
2318.00,0.0050
2317.00,0.0050
2316.00,0.0050
2315.00,0.0050
2314.00,0.0050
2313.00,0.0050
2312.00,0.0049
2311.00,0.0049
2310.00,0.0049
2309.00,0.0049
2308.00,0.0049
2307.00,0.0049
2306.00,0.0049
2305.00,0.0049
2304.00,0.0050
2303.00,0.0051
2302.00,0.0051
2301.00,0.0051
2300.00,0.0051
2299.00,0.0051
2298.00,0.0052
2297.00,0.0052
2296.00,0.0053
2295.00,0.0054
2294.00,0.0055
2293.00,0.0056
2292.00,0.0056
2291.00,0.0057
2290.00,0.0057
2289.00,0.0058
2288.00,0.0058
2287.00,0.0058
2286.00,0.0058
2285.00,0.0058
2284.00,0.0058
2283.00,0.0057
2282.00,0.0057
2281.00,0.0056
2280.00,0.0056
2279.00,0.0055
2278.00,0.0055
2277.00,0.0055
2276.00,0.0056
2275.00,0.0055
2274.00,0.0055
2273.00,0.0055
2272.00,0.0054
2271.00,0.0054
2270.00,0.0054
2269.00,0.0054
2268.00,0.0053
2267.00,0.0052
2266.00,0.0051
2265.00,0.0051
2264.00,0.0052
2263.00,0.0052
2262.00,0.0052
2261.00,0.0052
2260.00,0.0052
2259.00,0.0052
2258.00,0.0051
2257.00,0.0051
2256.00,0.0051
2255.00,0.0051
2254.00,0.0050
2253.00,0.0051
2252.00,0.0051
2251.00,0.0051
2250.00,0.0051
2249.00,0.0051
2248.00,0.0052
2247.00,0.0052
2246.00,0.0052
2245.00,0.0051
2244.00,0.0051
2243.00,0.0051
2242.00,0.0051
2241.00,0.0052
2240.00,0.0052
2239.00,0.0052
2238.00,0.0052
2237.00,0.0051
2236.00,0.0051
2235.00,0.0051
2234.00,0.0051
2233.00,0.0051
2232.00,0.0051
2231.00,0.0051
2230.00,0.0051
2229.00,0.0051
2228.00,0.0051
2227.00,0.0051
2226.00,0.0051
2225.00,0.0051
2224.00,0.0050
2223.00,0.0049
2222.00,0.0048
2221.00,0.0048
2220.00,0.0048
2219.00,0.0049
2218.00,0.0049
2217.00,0.0049
2216.00,0.0049
2215.00,0.0049
2214.00,0.0049
2213.00,0.0049
2212.00,0.0050
2211.00,0.0050
2210.00,0.0050
2209.00,0.0050
2208.00,0.0051
2207.00,0.0051
2206.00,0.0050
2205.00,0.0050
2204.00,0.0049
2203.00,0.0050
2202.00,0.0051
2201.00,0.0052
2200.00,0.0053
2199.00,0.0053
2198.00,0.0052
2197.00,0.0052
2196.00,0.0052
2195.00,0.0052
2194.00,0.0053
2193.00,0.0053
2192.00,0.0054
2191.00,0.0055
2190.00,0.0055
2189.00,0.0055
2188.00,0.0055
2187.00,0.0055
2186.00,0.0054
2185.00,0.0053
2184.00,0.0051
2183.00,0.0049
2182.00,0.0047
2181.00,0.0047
2180.00,0.0048
2179.00,0.0049
2178.00,0.0049
2177.00,0.0048
2176.00,0.0046
2175.00,0.0046
2174.00,0.0046
2173.00,0.0047
2172.00,0.0049
2171.00,0.0051
2170.00,0.0054
2169.00,0.0057
2168.00,0.0060
2167.00,0.0061
2166.00,0.0061
2165.00,0.0060
2164.00,0.0061
2163.00,0.0062
2162.00,0.0060
2161.00,0.0052
2160.00,0.0041
2159.00,0.0030
2158.00,0.0024
2157.00,0.0021
2156.00,0.0021
2155.00,0.0022
2154.00,0.0025
2153.00,0.0028
2152.00,0.0031
2151.00,0.0033
2150.00,0.0034
2149.00,0.0034
2148.00,0.0034
2147.00,0.0034
2146.00,0.0034
2145.00,0.0034
2144.00,0.0033
2143.00,0.0034
2142.00,0.0034
2141.00,0.0035
2140.00,0.0036
2139.00,0.0036
2138.00,0.0035
2137.00,0.0034
2136.00,0.0031
2135.00,0.0030
2134.00,0.0029
2133.00,0.0029
2132.00,0.0030
2131.00,0.0031
2130.00,0.0032
2129.00,0.0034
2128.00,0.0036
2127.00,0.0038
2126.00,0.0040
2125.00,0.0041
2124.00,0.0042
2123.00,0.0043
2122.00,0.0043
2121.00,0.0043
2120.00,0.0044
2119.00,0.0044
2118.00,0.0045
2117.00,0.0045
2116.00,0.0046
2115.00,0.0047
2114.00,0.0048
2113.00,0.0048
2112.00,0.0048
2111.00,0.0047
2110.00,0.0046
2109.00,0.0045
2108.00,0.0045
2107.00,0.0045
2106.00,0.0045
2105.00,0.0044
2104.00,0.0044
2103.00,0.0045
2102.00,0.0045
2101.00,0.0046
2100.00,0.0047
2099.00,0.0047
2098.00,0.0046
2097.00,0.0045
2096.00,0.0043
2095.00,0.0042
2094.00,0.0042
2093.00,0.0042
2092.00,0.0043
2091.00,0.0043
2090.00,0.0043
2089.00,0.0044
2088.00,0.0045
2087.00,0.0046
2086.00,0.0046
2085.00,0.0046
2084.00,0.0047
2083.00,0.0048
2082.00,0.0048
2081.00,0.0049
2080.00,0.0049
2079.00,0.0049
2078.00,0.0048
2077.00,0.0048
2076.00,0.0047
2075.00,0.0046
2074.00,0.0046
2073.00,0.0046
2072.00,0.0046
2071.00,0.0046
2070.00,0.0046
2069.00,0.0046
2068.00,0.0045
2067.00,0.0045
2066.00,0.0045
2065.00,0.0045
2064.00,0.0045
2063.00,0.0045
2062.00,0.0045
2061.00,0.0045
2060.00,0.0045
2059.00,0.0045
2058.00,0.0046
2057.00,0.0046
2056.00,0.0046
2055.00,0.0047
2054.00,0.0048
2053.00,0.0051
2052.00,0.0055
2051.00,0.0057
2050.00,0.0057
2049.00,0.0055
2048.00,0.0052
2047.00,0.0050
2046.00,0.0050
2045.00,0.0050
2044.00,0.0050
2043.00,0.0051
2042.00,0.0051
2041.00,0.0050
2040.00,0.0050
2039.00,0.0050
2038.00,0.0050
2037.00,0.0050
2036.00,0.0048
2035.00,0.0047
2034.00,0.0045
2033.00,0.0044
2032.00,0.0044
2031.00,0.0043
2030.00,0.0043
2029.00,0.0042
2028.00,0.0042
2027.00,0.0041
2026.00,0.0039
2025.00,0.0037
2024.00,0.0036
2023.00,0.0036
2022.00,0.0037
2021.00,0.0039
2020.00,0.0040
2019.00,0.0041
2018.00,0.0040
2017.00,0.0039
2016.00,0.0038
2015.00,0.0038
2014.00,0.0039
2013.00,0.0040
2012.00,0.0040
2011.00,0.0040
2010.00,0.0039
2009.00,0.0036
2008.00,0.0034
2007.00,0.0031
2006.00,0.0030
2005.00,0.0031
2004.00,0.0033
2003.00,0.0036
2002.00,0.0038
2001.00,0.0039
2000.00,0.0039
1999.00,0.0039
1998.00,0.0038
1997.00,0.0038
1996.00,0.0038
1995.00,0.0038
1994.00,0.0038
1993.00,0.0039
1992.00,0.0042
1991.00,0.0044
1990.00,0.0046
1989.00,0.0047
1988.00,0.0047
1987.00,0.0047
1986.00,0.0048
1985.00,0.0049
1984.00,0.0050
1983.00,0.0052
1982.00,0.0054
1981.00,0.0054
1980.00,0.0052
1979.00,0.0046
1978.00,0.0039
1977.00,0.0034
1976.00,0.0032
1975.00,0.0031
1974.00,0.0031
1973.00,0.0031
1972.00,0.0032
1971.00,0.0032
1970.00,0.0032
1969.00,0.0031
1968.00,0.0031
1967.00,0.0032
1966.00,0.0033
1965.00,0.0035
1964.00,0.0036
1963.00,0.0036
1962.00,0.0034
1961.00,0.0032
1960.00,0.0031
1959.00,0.0030
1958.00,0.0030
1957.00,0.0031
1956.00,0.0032
1955.00,0.0033
1954.00,0.0034
1953.00,0.0034
1952.00,0.0034
1951.00,0.0034
1950.00,0.0034
1949.00,0.0033
1948.00,0.0032
1947.00,0.0032
1946.00,0.0031
1945.00,0.0031
1944.00,0.0030
1943.00,0.0031
1942.00,0.0031
1941.00,0.0031
1940.00,0.0031
1939.00,0.0031
1938.00,0.0031
1937.00,0.0031
1936.00,0.0032
1935.00,0.0033
1934.00,0.0033
1933.00,0.0033
1932.00,0.0033
1931.00,0.0034
1930.00,0.0033
1929.00,0.0033
1928.00,0.0033
1927.00,0.0034
1926.00,0.0033
1925.00,0.0033
1924.00,0.0033
1923.00,0.0033
1922.00,0.0033
1921.00,0.0033
1920.00,0.0033
1919.00,0.0033
1918.00,0.0034
1917.00,0.0035
1916.00,0.0035
1915.00,0.0035
1914.00,0.0035
1913.00,0.0035
1912.00,0.0034
1911.00,0.0034
1910.00,0.0034
1909.00,0.0034
1908.00,0.0034
1907.00,0.0034
1906.00,0.0034
1905.00,0.0034
1904.00,0.0035
1903.00,0.0035
1902.00,0.0035
1901.00,0.0034
1900.00,0.0034
1899.00,0.0033
1898.00,0.0033
1897.00,0.0033
1896.00,0.0033
1895.00,0.0034
1894.00,0.0035
1893.00,0.0035
1892.00,0.0034
1891.00,0.0034
1890.00,0.0033
1889.00,0.0034
1888.00,0.0035
1887.00,0.0035
1886.00,0.0034
1885.00,0.0034
1884.00,0.0034
1883.00,0.0034
1882.00,0.0033
1881.00,0.0033
1880.00,0.0033
1879.00,0.0033
1878.00,0.0033
1877.00,0.0034
1876.00,0.0034
1875.00,0.0034
1874.00,0.0034
1873.00,0.0033
1872.00,0.0032
1871.00,0.0031
1870.00,0.0031
1869.00,0.0032
1868.00,0.0033
1867.00,0.0034
1866.00,0.0034
1865.00,0.0033
1864.00,0.0033
1863.00,0.0032
1862.00,0.0033
1861.00,0.0033
1860.00,0.0033
1859.00,0.0033
1858.00,0.0032
1857.00,0.0032
1856.00,0.0032
1855.00,0.0032
1854.00,0.0032
1853.00,0.0032
1852.00,0.0031
1851.00,0.0031
1850.00,0.0030
1849.00,0.0030
1848.00,0.0030
1847.00,0.0029
1846.00,0.0028
1845.00,0.0029
1844.00,0.0030
1843.00,0.0032
1842.00,0.0032
1841.00,0.0031
1840.00,0.0031
1839.00,0.0030
1838.00,0.0030
1837.00,0.0030
1836.00,0.0031
1835.00,0.0031
1834.00,0.0031
1833.00,0.0030
1832.00,0.0029
1831.00,0.0029
1830.00,0.0029
1829.00,0.0031
1828.00,0.0031
1827.00,0.0030
1826.00,0.0029
1825.00,0.0029
1824.00,0.0030
1823.00,0.0031
1822.00,0.0031
1821.00,0.0030
1820.00,0.0030
1819.00,0.0029
1818.00,0.0027
1817.00,0.0027
1816.00,0.0027
1815.00,0.0027
1814.00,0.0028
1813.00,0.0028
1812.00,0.0028
1811.00,0.0028
1810.00,0.0029
1809.00,0.0030
1808.00,0.0030
1807.00,0.0031
1806.00,0.0031
1805.00,0.0030
1804.00,0.0030
1803.00,0.0028
1802.00,0.0028
1801.00,0.0027
1800.00,0.0028
1799.00,0.0029
1798.00,0.0030
1797.00,0.0029
1796.00,0.0028
1795.00,0.0028
1794.00,0.0027
1793.00,0.0028
1792.00,0.0029
1791.00,0.0030
1790.00,0.0030
1789.00,0.0030
1788.00,0.0029
1787.00,0.0028
1786.00,0.0028
1785.00,0.0028
1784.00,0.0028
1783.00,0.0028
1782.00,0.0028
1781.00,0.0028
1780.00,0.0029
1779.00,0.0029
1778.00,0.0029
1777.00,0.0028
1776.00,0.0027
1775.00,0.0026
1774.00,0.0026
1773.00,0.0027
1772.00,0.0030
1771.00,0.0032
1770.00,0.0030
1769.00,0.0028
1768.00,0.0027
1767.00,0.0027
1766.00,0.0027
1765.00,0.0026
1764.00,0.0025
1763.00,0.0024
1762.00,0.0025
1761.00,0.0026
1760.00,0.0026
1759.00,0.0025
1758.00,0.0024
1757.00,0.0024
1756.00,0.0025
1755.00,0.0025
1754.00,0.0023
1753.00,0.0022
1752.00,0.0021
1751.00,0.0021
1750.00,0.0022
1749.00,0.0022
1748.00,0.0022
1747.00,0.0022
1746.00,0.0021
1745.00,0.0021
1744.00,0.0020
1743.00,0.0020
1742.00,0.0019
1741.00,0.0019
1740.00,0.0021
1739.00,0.0022
1738.00,0.0022
1737.00,0.0020
1736.00,0.0018
1735.00,0.0019
1734.00,0.0023
1733.00,0.0027
1732.00,0.0028
1731.00,0.0026
1730.00,0.0023
1729.00,0.0023
1728.00,0.0023
1727.00,0.0024
1726.00,0.0024
1725.00,0.0024
1724.00,0.0025
1723.00,0.0026
1722.00,0.0026
1721.00,0.0025
1720.00,0.0024
1719.00,0.0025
1718.00,0.0029
1717.00,0.0034
1716.00,0.0038
1715.00,0.0039
1714.00,0.0039
1713.00,0.0040
1712.00,0.0042
1711.00,0.0045
1710.00,0.0048
1709.00,0.0052
1708.00,0.0057
1707.00,0.0063
1706.00,0.0072
1705.00,0.0082
1704.00,0.0092
1703.00,0.0100
1702.00,0.0108
1701.00,0.0117
1700.00,0.0126
1699.00,0.0133
1698.00,0.0135
1697.00,0.0135
1696.00,0.0133
1695.00,0.0131
1694.00,0.0128
1693.00,0.0125
1692.00,0.0122
1691.00,0.0121
1690.00,0.0121
1689.00,0.0120
1688.00,0.0120
1687.00,0.0122
1686.00,0.0125
1685.00,0.0128
1684.00,0.0130
1683.00,0.0131
1682.00,0.0131
1681.00,0.0131
1680.00,0.0135
1679.00,0.0139
1678.00,0.0143
1677.00,0.0147
1676.00,0.0152
1675.00,0.0155
1674.00,0.0159
1673.00,0.0163
1672.00,0.0168
1671.00,0.0172
1670.00,0.0176
1669.00,0.0179
1668.00,0.0182
1667.00,0.0186
1666.00,0.0191
1665.00,0.0197
1664.00,0.0202
1663.00,0.0207
1662.00,0.0211
1661.00,0.0215
1660.00,0.0220
1659.00,0.0227
1658.00,0.0235
1657.00,0.0243
1656.00,0.0253
1655.00,0.0264
1654.00,0.0271
1653.00,0.0270
1652.00,0.0271
1651.00,0.0276
1650.00,0.0282
1649.00,0.0290
1648.00,0.0298
1647.00,0.0302
1646.00,0.0304
1645.00,0.0308
1644.00,0.0314
1643.00,0.0322
1642.00,0.0330
1641.00,0.0338
1640.00,0.0347
1639.00,0.0357
1638.00,0.0367
1637.00,0.0375
1636.00,0.0378
1635.00,0.0377
1634.00,0.0379
1633.00,0.0385
1632.00,0.0395
1631.00,0.0406
1630.00,0.0416
1629.00,0.0423
1628.00,0.0428
1627.00,0.0433
1626.00,0.0438
1625.00,0.0444
1624.00,0.0447
1623.00,0.0445
1622.00,0.0444
1621.00,0.0446
1620.00,0.0453
1619.00,0.0461
1618.00,0.0464
1617.00,0.0457
1616.00,0.0444
1615.00,0.0432
1614.00,0.0426
1613.00,0.0422
1612.00,0.0418
1611.00,0.0412
1610.00,0.0404
1609.00,0.0393
1608.00,0.0383
1607.00,0.0372
1606.00,0.0361
1605.00,0.0351
1604.00,0.0341
1603.00,0.0331
1602.00,0.0321
1601.00,0.0311
1600.00,0.0302
1599.00,0.0294
1598.00,0.0287
1597.00,0.0280
1596.00,0.0273
1595.00,0.0266
1594.00,0.0258
1593.00,0.0251
1592.00,0.0245
1591.00,0.0239
1590.00,0.0232
1589.00,0.0227
1588.00,0.0221
1587.00,0.0217
1586.00,0.0212
1585.00,0.0209
1584.00,0.0207
1583.00,0.0204
1582.00,0.0203
1581.00,0.0202
1580.00,0.0202
1579.00,0.0203
1578.00,0.0205
1577.00,0.0207
1576.00,0.0207
1575.00,0.0207
1574.00,0.0207
1573.00,0.0207
1572.00,0.0209
1571.00,0.0212
1570.00,0.0214
1569.00,0.0216
1568.00,0.0219
1567.00,0.0223
1566.00,0.0227
1565.00,0.0232
1564.00,0.0237
1563.00,0.0243
1562.00,0.0250
1561.00,0.0260
1560.00,0.0267
1559.00,0.0265
1558.00,0.0262
1557.00,0.0264
1556.00,0.0267
1555.00,0.0271
1554.00,0.0275
1553.00,0.0280
1552.00,0.0284
1551.00,0.0287
1550.00,0.0290
1549.00,0.0294
1548.00,0.0299
1547.00,0.0305
1546.00,0.0311
1545.00,0.0316
1544.00,0.0321
1543.00,0.0327
1542.00,0.0334
1541.00,0.0338
1540.00,0.0339
1539.00,0.0338
1538.00,0.0340
1537.00,0.0345
1536.00,0.0353
1535.00,0.0359
1534.00,0.0363
1533.00,0.0364
1532.00,0.0366
1531.00,0.0372
1530.00,0.0379
1529.00,0.0387
1528.00,0.0393
1527.00,0.0396
1526.00,0.0400
1525.00,0.0405
1524.00,0.0412
1523.00,0.0420
1522.00,0.0423
1521.00,0.0423
1520.00,0.0424
1519.00,0.0429
1518.00,0.0436
1517.00,0.0440
1516.00,0.0443
1515.00,0.0446
1514.00,0.0451
1513.00,0.0456
1512.00,0.0459
1511.00,0.0461
1510.00,0.0464
1509.00,0.0468
1508.00,0.0465
1507.00,0.0451
1506.00,0.0433
1505.00,0.0424
1504.00,0.0424
1503.00,0.0426
1502.00,0.0428
1501.00,0.0428
1500.00,0.0425
1499.00,0.0420
1498.00,0.0413
1497.00,0.0403
1496.00,0.0391
1495.00,0.0382
1494.00,0.0376
1493.00,0.0373
1492.00,0.0369
1491.00,0.0362
1490.00,0.0351
1489.00,0.0339
1488.00,0.0330
1487.00,0.0324
1486.00,0.0319
1485.00,0.0314
1484.00,0.0311
1483.00,0.0306
1482.00,0.0301
1481.00,0.0295
1480.00,0.0289
1479.00,0.0284
1478.00,0.0280
1477.00,0.0274
1476.00,0.0269
1475.00,0.0264
1474.00,0.0259
1473.00,0.0253
1472.00,0.0246
1471.00,0.0240
1470.00,0.0237
1469.00,0.0236
1468.00,0.0235
1467.00,0.0234
1466.00,0.0232
1465.00,0.0229
1464.00,0.0228
1463.00,0.0228
1462.00,0.0230
1461.00,0.0233
1460.00,0.0237
1459.00,0.0241
1458.00,0.0243
1457.00,0.0243
1456.00,0.0244
1455.00,0.0248
1454.00,0.0254
1453.00,0.0260
1452.00,0.0267
1451.00,0.0273
1450.00,0.0278
1449.00,0.0282
1448.00,0.0284
1447.00,0.0286
1446.00,0.0287
1445.00,0.0290
1444.00,0.0292
1443.00,0.0293
1442.00,0.0293
1441.00,0.0294
1440.00,0.0294
1439.00,0.0294
1438.00,0.0291
1437.00,0.0285
1436.00,0.0275
1435.00,0.0269
1434.00,0.0265
1433.00,0.0263
1432.00,0.0259
1431.00,0.0254
1430.00,0.0249
1429.00,0.0243
1428.00,0.0239
1427.00,0.0236
1426.00,0.0234
1425.00,0.0232
1424.00,0.0229
1423.00,0.0228
1422.00,0.0228
1421.00,0.0228
1420.00,0.0228
1419.00,0.0226
1418.00,0.0224
1417.00,0.0224
1416.00,0.0226
1415.00,0.0228
1414.00,0.0230
1413.00,0.0232
1412.00,0.0233
1411.00,0.0233
1410.00,0.0234
1409.00,0.0235
1408.00,0.0236
1407.00,0.0236
1406.00,0.0235
1405.00,0.0234
1404.00,0.0232
1403.00,0.0232
1402.00,0.0232
1401.00,0.0232
1400.00,0.0231
1399.00,0.0230
1398.00,0.0228
1397.00,0.0228
1396.00,0.0227
1395.00,0.0227
1394.00,0.0226
1393.00,0.0226
1392.00,0.0227
1391.00,0.0228
1390.00,0.0229
1389.00,0.0229
1388.00,0.0227
1387.00,0.0225
1386.00,0.0223
1385.00,0.0223
1384.00,0.0223
1383.00,0.0223
1382.00,0.0223
1381.00,0.0222
1380.00,0.0221
1379.00,0.0220
1378.00,0.0219
1377.00,0.0219
1376.00,0.0219
1375.00,0.0219
1374.00,0.0218
1373.00,0.0218
1372.00,0.0219
1371.00,0.0220
1370.00,0.0221
1369.00,0.0222
1368.00,0.0222
1367.00,0.0221
1366.00,0.0220
1365.00,0.0218
1364.00,0.0214
1363.00,0.0209
1362.00,0.0204
1361.00,0.0201
1360.00,0.0199
1359.00,0.0198
1358.00,0.0198
1357.00,0.0199
1356.00,0.0199
1355.00,0.0198
1354.00,0.0198
1353.00,0.0197
1352.00,0.0197
1351.00,0.0196
1350.00,0.0196
1349.00,0.0195
1348.00,0.0195
1347.00,0.0195
1346.00,0.0194
1345.00,0.0195
1344.00,0.0197
1343.00,0.0199
1342.00,0.0201
1341.00,0.0201
1340.00,0.0200
1339.00,0.0199
1338.00,0.0198
1337.00,0.0199
1336.00,0.0199
1335.00,0.0200
1334.00,0.0200
1333.00,0.0200
1332.00,0.0200
1331.00,0.0199
1330.00,0.0199
1329.00,0.0198
1328.00,0.0197
1327.00,0.0196
1326.00,0.0195
1325.00,0.0193
1324.00,0.0192
1323.00,0.0191
1322.00,0.0190
1321.00,0.0189
1320.00,0.0188
1319.00,0.0187
1318.00,0.0186
1317.00,0.0186
1316.00,0.0186
1315.00,0.0186
1314.00,0.0186
1313.00,0.0186
1312.00,0.0186
1311.00,0.0186
1310.00,0.0186
1309.00,0.0186
1308.00,0.0186
1307.00,0.0186
1306.00,0.0185
1305.00,0.0185
1304.00,0.0184
1303.00,0.0184
1302.00,0.0183
1301.00,0.0182
1300.00,0.0181
1299.00,0.0181
1298.00,0.0180
1297.00,0.0179
1296.00,0.0177
1295.00,0.0176
1294.00,0.0175
1293.00,0.0174
1292.00,0.0173
1291.00,0.0172
1290.00,0.0171
1289.00,0.0171
1288.00,0.0171
1287.00,0.0171
1286.00,0.0171
1285.00,0.0171
1284.00,0.0172
1283.00,0.0172
1282.00,0.0173
1281.00,0.0174
1280.00,0.0176
1279.00,0.0178
1278.00,0.0181
1277.00,0.0184
1276.00,0.0187
1275.00,0.0191
1274.00,0.0196
1273.00,0.0200
1272.00,0.0205
1271.00,0.0209
1270.00,0.0213
1269.00,0.0217
1268.00,0.0221
1267.00,0.0225
1266.00,0.0228
1265.00,0.0231
1264.00,0.0233
1263.00,0.0234
1262.00,0.0236
1261.00,0.0237
1260.00,0.0238
1259.00,0.0239
1258.00,0.0240
1257.00,0.0241
1256.00,0.0242
1255.00,0.0243
1254.00,0.0243
1253.00,0.0244
1252.00,0.0245
1251.00,0.0245
1250.00,0.0246
1249.00,0.0247
1248.00,0.0248
1247.00,0.0250
1246.00,0.0251
1245.00,0.0252
1244.00,0.0254
1243.00,0.0256
1242.00,0.0258
1241.00,0.0261
1240.00,0.0263
1239.00,0.0266
1238.00,0.0268
1237.00,0.0271
1236.00,0.0274
1235.00,0.0278
1234.00,0.0281
1233.00,0.0284
1232.00,0.0287
1231.00,0.0290
1230.00,0.0292
1229.00,0.0294
1228.00,0.0295
1227.00,0.0295
1226.00,0.0295
1225.00,0.0294
1224.00,0.0293
1223.00,0.0292
1222.00,0.0290
1221.00,0.0288
1220.00,0.0286
1219.00,0.0284
1218.00,0.0282
1217.00,0.0279
1216.00,0.0277
1215.00,0.0274
1214.00,0.0271
1213.00,0.0268
1212.00,0.0264
1211.00,0.0261
1210.00,0.0257
1209.00,0.0253
1208.00,0.0249
1207.00,0.0246
1206.00,0.0242
1205.00,0.0237
1204.00,0.0233
1203.00,0.0229
1202.00,0.0225
1201.00,0.0222
1200.00,0.0218
1199.00,0.0214
1198.00,0.0211
1197.00,0.0208
1196.00,0.0204
1195.00,0.0201
1194.00,0.0199
1193.00,0.0197
1192.00,0.0195
1191.00,0.0194
1190.00,0.0193
1189.00,0.0191
1188.00,0.0190
1187.00,0.0189
1186.00,0.0188
1185.00,0.0188
1184.00,0.0187
1183.00,0.0187
1182.00,0.0187
1181.00,0.0187
1180.00,0.0188
1179.00,0.0188
1178.00,0.0190
1177.00,0.0192
1176.00,0.0194
1175.00,0.0197
1174.00,0.0199
1173.00,0.0202
1172.00,0.0204
1171.00,0.0206
1170.00,0.0208
1169.00,0.0209
1168.00,0.0209
1167.00,0.0210
1166.00,0.0210
1165.00,0.0210
1164.00,0.0210
1163.00,0.0210
1162.00,0.0209
1161.00,0.0208
1160.00,0.0208
1159.00,0.0207
1158.00,0.0205
1157.00,0.0204
1156.00,0.0202
1155.00,0.0199
1154.00,0.0197
1153.00,0.0194
1152.00,0.0191
1151.00,0.0188
1150.00,0.0185
1149.00,0.0182
1148.00,0.0180
1147.00,0.0177
1146.00,0.0175
1145.00,0.0173
1144.00,0.0171
1143.00,0.0170
1142.00,0.0169
1141.00,0.0168
1140.00,0.0168
1139.00,0.0168
1138.00,0.0167
1137.00,0.0166
1136.00,0.0165
1135.00,0.0163
1134.00,0.0162
1133.00,0.0160
1132.00,0.0159
1131.00,0.0157
1130.00,0.0155
1129.00,0.0154
1128.00,0.0152
1127.00,0.0149
1126.00,0.0146
1125.00,0.0143
1124.00,0.0139
1123.00,0.0135
1122.00,0.0130
1121.00,0.0127
1120.00,0.0123
1119.00,0.0121
1118.00,0.0121
1117.00,0.0122
1116.00,0.0123
1115.00,0.0126
1114.00,0.0128
1113.00,0.0132
1112.00,0.0135
1111.00,0.0138
1110.00,0.0140
1109.00,0.0143
1108.00,0.0145
1107.00,0.0148
1106.00,0.0150
1105.00,0.0153
1104.00,0.0156
1103.00,0.0157
1102.00,0.0158
1101.00,0.0157
1100.00,0.0157
1099.00,0.0156
1098.00,0.0156
1097.00,0.0156
1096.00,0.0156
1095.00,0.0156
1094.00,0.0156
1093.00,0.0156
1092.00,0.0157
1091.00,0.0158
1090.00,0.0159
1089.00,0.0161
1088.00,0.0163
1087.00,0.0166
1086.00,0.0168
1085.00,0.0171
1084.00,0.0173
1083.00,0.0176
1082.00,0.0178
1081.00,0.0181
1080.00,0.0184
1079.00,0.0186
1078.00,0.0189
1077.00,0.0192
1076.00,0.0194
1075.00,0.0196
1074.00,0.0198
1073.00,0.0200
1072.00,0.0202
1071.00,0.0203
1070.00,0.0204
1069.00,0.0205
1068.00,0.0205
1067.00,0.0205
1066.00,0.0204
1065.00,0.0202
1064.00,0.0200
1063.00,0.0198
1062.00,0.0196
1061.00,0.0194
1060.00,0.0194
1059.00,0.0194
1058.00,0.0194
1057.00,0.0195
1056.00,0.0195
1055.00,0.0195
1054.00,0.0195
1053.00,0.0194
1052.00,0.0194
1051.00,0.0194
1050.00,0.0193
1049.00,0.0193
1048.00,0.0192
1047.00,0.0192
1046.00,0.0191
1045.00,0.0190
1044.00,0.0189
1043.00,0.0188
1042.00,0.0187
1041.00,0.0186
1040.00,0.0185
1039.00,0.0184
1038.00,0.0183
1037.00,0.0182
1036.00,0.0181
1035.00,0.0180
1034.00,0.0178
1033.00,0.0176
1032.00,0.0175
1031.00,0.0174
1030.00,0.0173
1029.00,0.0171
1028.00,0.0170
1027.00,0.0168
1026.00,0.0167
1025.00,0.0166
1024.00,0.0165
1023.00,0.0164
1022.00,0.0164
1021.00,0.0164
1020.00,0.0164
1019.00,0.0165
1018.00,0.0165
1017.00,0.0166
1016.00,0.0167
1015.00,0.0168
1014.00,0.0168
1013.00,0.0169
1012.00,0.0169
1011.00,0.0170
1010.00,0.0171
1009.00,0.0171
1008.00,0.0172
1007.00,0.0173
1006.00,0.0174
1005.00,0.0176
1004.00,0.0177
1003.00,0.0179
1002.00,0.0181
1001.00,0.0183
1000.00,0.0185
999.00,0.0187
998.00,0.0189
997.00,0.0190
996.00,0.0191
995.00,0.0191
994.00,0.0191
993.00,0.0189
992.00,0.0187
991.00,0.0185
990.00,0.0182
989.00,0.0180
988.00,0.0178
987.00,0.0177
986.00,0.0176
985.00,0.0175
984.00,0.0175
983.00,0.0176
982.00,0.0178
981.00,0.0180
980.00,0.0182
979.00,0.0183
978.00,0.0185
977.00,0.0186
976.00,0.0188
975.00,0.0188
974.00,0.0188
973.00,0.0188
972.00,0.0186
971.00,0.0185
970.00,0.0182
969.00,0.0180
968.00,0.0177
967.00,0.0175
966.00,0.0173
965.00,0.0172
964.00,0.0171
963.00,0.0169
962.00,0.0168
961.00,0.0166
960.00,0.0165
959.00,0.0163
958.00,0.0162
957.00,0.0161
956.00,0.0160
955.00,0.0158
954.00,0.0157
953.00,0.0156
952.00,0.0155
951.00,0.0154
950.00,0.0152
949.00,0.0152
948.00,0.0151
947.00,0.0150
946.00,0.0150
945.00,0.0149
944.00,0.0149
943.00,0.0149
942.00,0.0149
941.00,0.0149
940.00,0.0149
939.00,0.0149
938.00,0.0148
937.00,0.0148
936.00,0.0148
935.00,0.0148
934.00,0.0147
933.00,0.0148
932.00,0.0148
931.00,0.0148
930.00,0.0148
929.00,0.0148
928.00,0.0148
927.00,0.0148
926.00,0.0148
925.00,0.0148
924.00,0.0148
923.00,0.0147
922.00,0.0146
921.00,0.0145
920.00,0.0143
919.00,0.0142
918.00,0.0141
917.00,0.0140
916.00,0.0139
915.00,0.0139
914.00,0.0138
913.00,0.0137
912.00,0.0136
911.00,0.0135
910.00,0.0134
909.00,0.0134
908.00,0.0133
907.00,0.0133
906.00,0.0133
905.00,0.0132
904.00,0.0132
903.00,0.0131
902.00,0.0130
901.00,0.0130
900.00,0.0130
899.00,0.0130
898.00,0.0130
897.00,0.0129
896.00,0.0129
895.00,0.0129
894.00,0.0129
893.00,0.0129
892.00,0.0129
891.00,0.0129
890.00,0.0128
889.00,0.0128
888.00,0.0128
887.00,0.0128
886.00,0.0128
885.00,0.0128
884.00,0.0127
883.00,0.0127
882.00,0.0127
881.00,0.0127
880.00,0.0126
879.00,0.0126
878.00,0.0126
877.00,0.0125
876.00,0.0125
875.00,0.0124
874.00,0.0123
873.00,0.0123
872.00,0.0122
871.00,0.0122
870.00,0.0122
869.00,0.0122
868.00,0.0122
867.00,0.0121
866.00,0.0121
865.00,0.0121
864.00,0.0121
863.00,0.0121
862.00,0.0121
861.00,0.0122
860.00,0.0123
859.00,0.0124
858.00,0.0125
857.00,0.0125
856.00,0.0126
855.00,0.0127
854.00,0.0128
853.00,0.0129
852.00,0.0130
851.00,0.0130
850.00,0.0129
849.00,0.0128
848.00,0.0126
847.00,0.0124
846.00,0.0122
845.00,0.0121
844.00,0.0119
843.00,0.0118
842.00,0.0118
841.00,0.0119
840.00,0.0121
839.00,0.0123
838.00,0.0125
837.00,0.0127
836.00,0.0129
835.00,0.0130
834.00,0.0132
833.00,0.0134
832.00,0.0135
831.00,0.0136
830.00,0.0137
829.00,0.0138
828.00,0.0138
827.00,0.0138
826.00,0.0138
825.00,0.0138
824.00,0.0137
823.00,0.0136
822.00,0.0136
821.00,0.0135
820.00,0.0135
819.00,0.0135
818.00,0.0135
817.00,0.0135
816.00,0.0134
815.00,0.0134
814.00,0.0134
813.00,0.0133
812.00,0.0133
811.00,0.0133
810.00,0.0133
809.00,0.0133
808.00,0.0133
807.00,0.0134
806.00,0.0134
805.00,0.0134
804.00,0.0134
803.00,0.0135
802.00,0.0135
801.00,0.0134
800.00,0.0134
799.00,0.0133
798.00,0.0133
797.00,0.0133
796.00,0.0134
795.00,0.0135
794.00,0.0135
793.00,0.0136
792.00,0.0137
791.00,0.0138
790.00,0.0140
789.00,0.0141
788.00,0.0142
787.00,0.0143
786.00,0.0145
785.00,0.0146
784.00,0.0148
783.00,0.0149
782.00,0.0150
781.00,0.0151
780.00,0.0152
779.00,0.0152
778.00,0.0153
777.00,0.0154
776.00,0.0156
775.00,0.0158
774.00,0.0159
773.00,0.0161
772.00,0.0162
771.00,0.0164
770.00,0.0165
769.00,0.0167
768.00,0.0169
767.00,0.0170
766.00,0.0170
765.00,0.0170
764.00,0.0171
763.00,0.0171
762.00,0.0172
761.00,0.0173
760.00,0.0174
759.00,0.0175
758.00,0.0176
757.00,0.0177
756.00,0.0178
755.00,0.0179
754.00,0.0180
753.00,0.0182
752.00,0.0183
751.00,0.0184
750.00,0.0186
749.00,0.0188
748.00,0.0189
747.00,0.0191
746.00,0.0193
745.00,0.0195
744.00,0.0197
743.00,0.0200
742.00,0.0203
741.00,0.0205
740.00,0.0207
739.00,0.0209
738.00,0.0211
737.00,0.0214
736.00,0.0217
735.00,0.0220
734.00,0.0222
733.00,0.0225
732.00,0.0227
731.00,0.0230
730.00,0.0233
729.00,0.0236
728.00,0.0239
727.00,0.0242
726.00,0.0245
725.00,0.0247
724.00,0.0250
723.00,0.0251
722.00,0.0253
721.00,0.0254
720.00,0.0256
719.00,0.0258
718.00,0.0260
717.00,0.0263
716.00,0.0265
715.00,0.0267
714.00,0.0269
713.00,0.0271
712.00,0.0273
711.00,0.0274
710.00,0.0276
709.00,0.0278
708.00,0.0280
707.00,0.0282
706.00,0.0284
705.00,0.0286
704.00,0.0289
703.00,0.0291
702.00,0.0294
701.00,0.0296
700.00,0.0298
699.00,0.0299
698.00,0.0300
697.00,0.0301
696.00,0.0301
695.00,0.0302
694.00,0.0303
693.00,0.0304
692.00,0.0305
691.00,0.0307
690.00,0.0308
689.00,0.0309
688.00,0.0310
687.00,0.0310
686.00,0.0311
685.00,0.0311
684.00,0.0311
683.00,0.0312
682.00,0.0312
681.00,0.0313
680.00,0.0314
679.00,0.0314
678.00,0.0313
677.00,0.0313
676.00,0.0313
675.00,0.0313
674.00,0.0313
673.00,0.0313
672.00,0.0314
671.00,0.0315
670.00,0.0316
669.00,0.0316
668.00,0.0313
667.00,0.0311
666.00,0.0312
665.00,0.0313
664.00,0.0315
663.00,0.0316
662.00,0.0316
661.00,0.0316
660.00,0.0318
659.00,0.0319
658.00,0.0320
657.00,0.0320
656.00,0.0321
655.00,0.0323
654.00,0.0324
653.00,0.0326
652.00,0.0328
651.00,0.0329
650.00,0.0329
649.00,0.0330
648.00,0.0331
647.00,0.0333
646.00,0.0334
645.00,0.0335
644.00,0.0337
643.00,0.0337
642.00,0.0338
641.00,0.0340
640.00,0.0341
639.00,0.0341
638.00,0.0341
637.00,0.0341
636.00,0.0343
635.00,0.0344
634.00,0.0346
633.00,0.0347
632.00,0.0348
631.00,0.0349
630.00,0.0350
629.00,0.0351
628.00,0.0352
627.00,0.0352
626.00,0.0352
625.00,0.0351
624.00,0.0351
623.00,0.0351
622.00,0.0351
621.00,0.0352
620.00,0.0352
619.00,0.0352
618.00,0.0352
617.00,0.0352
616.00,0.0352
615.00,0.0353
614.00,0.0355
613.00,0.0356
612.00,0.0356
611.00,0.0356
610.00,0.0356
609.00,0.0355
608.00,0.0354
607.00,0.0352
606.00,0.0350
605.00,0.0348
604.00,0.0346
603.00,0.0344
602.00,0.0342
601.00,0.0340
600.00,0.0338
599.00,0.0336
598.00,0.0334
597.00,0.0332
596.00,0.0330
595.00,0.0329
594.00,0.0329
593.00,0.0328
592.00,0.0328
591.00,0.0327
590.00,0.0326
589.00,0.0324
588.00,0.0323
587.00,0.0322
586.00,0.0321
585.00,0.0321
584.00,0.0321
583.00,0.0321
582.00,0.0322
581.00,0.0322
580.00,0.0321
579.00,0.0320
578.00,0.0319
577.00,0.0319
576.00,0.0319
575.00,0.0319
574.00,0.0319
573.00,0.0321
572.00,0.0323
571.00,0.0325
570.00,0.0326
569.00,0.0328
568.00,0.0331
567.00,0.0333
566.00,0.0336
565.00,0.0339
564.00,0.0343
563.00,0.0346
562.00,0.0351
561.00,0.0356
560.00,0.0362
559.00,0.0368
558.00,0.0374
557.00,0.0379
556.00,0.0384
555.00,0.0388
554.00,0.0393
553.00,0.0397
552.00,0.0401
551.00,0.0403
550.00,0.0404
549.00,0.0403
548.00,0.0402
547.00,0.0400
546.00,0.0400
545.00,0.0399
544.00,0.0399
543.00,0.0398
542.00,0.0397
541.00,0.0395
540.00,0.0393
539.00,0.0392
538.00,0.0391
537.00,0.0391
536.00,0.0390
535.00,0.0388
534.00,0.0385
533.00,0.0383
532.00,0.0380
531.00,0.0377
530.00,0.0374
529.00,0.0372
528.00,0.0371
527.00,0.0369
526.00,0.0368
525.00,0.0368
524.00,0.0368
523.00,0.0369
522.00,0.0369
521.00,0.0368
520.00,0.0367
519.00,0.0366
518.00,0.0365
517.00,0.0365
516.00,0.0365
515.00,0.0365
514.00,0.0366
513.00,0.0366
512.00,0.0365
511.00,0.0364
510.00,0.0363
509.00,0.0362
508.00,0.0362
507.00,0.0361
506.00,0.0359
505.00,0.0357
504.00,0.0355
503.00,0.0354
502.00,0.0352
501.00,0.0352
500.00,0.0354
499.00,0.0355
498.00,0.0356
497.00,0.0357
496.00,0.0357
495.00,0.0358
494.00,0.0358
493.00,0.0360
492.00,0.0362
491.00,0.0363
490.00,0.0363
489.00,0.0363
488.00,0.0363
487.00,0.0363
486.00,0.0361
485.00,0.0359
484.00,0.0357
483.00,0.0357
482.00,0.0357
481.00,0.0357
480.00,0.0357
479.00,0.0356
478.00,0.0353
477.00,0.0349
476.00,0.0345
475.00,0.0342
474.00,0.0340
473.00,0.0341
472.00,0.0343
471.00,0.0345
470.00,0.0346
469.00,0.0345
468.00,0.0344
467.00,0.0344
466.00,0.0344
465.00,0.0345
464.00,0.0343
463.00,0.0341
462.00,0.0339
461.00,0.0339
460.00,0.0340
459.00,0.0341
458.00,0.0338
457.00,0.0334
456.00,0.0330
455.00,0.0328
454.00,0.0326
453.00,0.0326
452.00,0.0326
451.00,0.0328
450.00,0.0328
449.00,0.0327
448.00,0.0325
447.00,0.0324
446.00,0.0323
445.00,0.0321
444.00,0.0319
443.00,0.0317
442.00,0.0317
441.00,0.0320
440.00,0.0323
439.00,0.0323
438.00,0.0319
437.00,0.0314
436.00,0.0310
435.00,0.0308
434.00,0.0310
433.00,0.0314
432.00,0.0317
431.00,0.0319
430.00,0.0322
429.00,0.0325
428.00,0.0330
427.00,0.0334
426.00,0.0338
425.00,0.0339
424.00,0.0337
423.00,0.0332
422.00,0.0325
421.00,0.0318
420.00,0.0311
419.00,0.0303
418.00,0.0298
417.00,0.0298
416.00,0.0302
415.00,0.0306
414.00,0.0309
413.00,0.0310
412.00,0.0311
411.00,0.0311
410.00,0.0310
409.00,0.0308
408.00,0.0302
407.00,0.0294
406.00,0.0285
405.00,0.0278
404.00,0.0275
403.00,0.0273
402.00,0.0272
401.00,0.0273
400.00,0.0273
