Created as New Dataset,Sample 708 By YargerLab Date Wednesday, June 18 2025
cm-1,A
4000.00,0.0014
3999.00,0.0014
3998.00,0.0014
3997.00,0.0014
3996.00,0.0014
3995.00,0.0014
3994.00,0.0014
3993.00,0.0014
3992.00,0.0014
3991.00,0.0014
3990.00,0.0014
3989.00,0.0014
3988.00,0.0014
3987.00,0.0013
3986.00,0.0013
3985.00,0.0013
3984.00,0.0013
3983.00,0.0013
3982.00,0.0014
3981.00,0.0014
3980.00,0.0014
3979.00,0.0014
3978.00,0.0014
3977.00,0.0014
3976.00,0.0014
3975.00,0.0013
3974.00,0.0013
3973.00,0.0013
3972.00,0.0013
3971.00,0.0013
3970.00,0.0013
3969.00,0.0013
3968.00,0.0013
3967.00,0.0014
3966.00,0.0014
3965.00,0.0013
3964.00,0.0013
3963.00,0.0013
3962.00,0.0013
3961.00,0.0013
3960.00,0.0013
3959.00,0.0013
3958.00,0.0013
3957.00,0.0013
3956.00,0.0013
3955.00,0.0013
3954.00,0.0013
3953.00,0.0014
3952.00,0.0014
3951.00,0.0014
3950.00,0.0014
3949.00,0.0014
3948.00,0.0013
3947.00,0.0013
3946.00,0.0013
3945.00,0.0013
3944.00,0.0013
3943.00,0.0013
3942.00,0.0013
3941.00,0.0013
3940.00,0.0013
3939.00,0.0013
3938.00,0.0014
3937.00,0.0013
3936.00,0.0013
3935.00,0.0013
3934.00,0.0013
3933.00,0.0013
3932.00,0.0013
3931.00,0.0013
3930.00,0.0013
3929.00,0.0013
3928.00,0.0013
3927.00,0.0013
3926.00,0.0013
3925.00,0.0013
3924.00,0.0013
3923.00,0.0013
3922.00,0.0013
3921.00,0.0013
3920.00,0.0013
3919.00,0.0013
3918.00,0.0013
3917.00,0.0013
3916.00,0.0012
3915.00,0.0012
3914.00,0.0012
3913.00,0.0012
3912.00,0.0012
3911.00,0.0013
3910.00,0.0013
3909.00,0.0013
3908.00,0.0012
3907.00,0.0012
3906.00,0.0012
3905.00,0.0012
3904.00,0.0012
3903.00,0.0012
3902.00,0.0012
3901.00,0.0012
3900.00,0.0012
3899.00,0.0012
3898.00,0.0013
3897.00,0.0013
3896.00,0.0013
3895.00,0.0013
3894.00,0.0012
3893.00,0.0012
3892.00,0.0012
3891.00,0.0012
3890.00,0.0012
3889.00,0.0012
3888.00,0.0012
3887.00,0.0012
3886.00,0.0012
3885.00,0.0012
3884.00,0.0012
3883.00,0.0012
3882.00,0.0012
3881.00,0.0012
3880.00,0.0012
3879.00,0.0012
3878.00,0.0012
3877.00,0.0012
3876.00,0.0012
3875.00,0.0012
3874.00,0.0012
3873.00,0.0012
3872.00,0.0012
3871.00,0.0012
3870.00,0.0012
3869.00,0.0012
3868.00,0.0013
3867.00,0.0013
3866.00,0.0013
3865.00,0.0012
3864.00,0.0012
3863.00,0.0012
3862.00,0.0013
3861.00,0.0013
3860.00,0.0013
3859.00,0.0012
3858.00,0.0012
3857.00,0.0013
3856.00,0.0013
3855.00,0.0013
3854.00,0.0012
3853.00,0.0012
3852.00,0.0012
3851.00,0.0012
3850.00,0.0012
3849.00,0.0012
3848.00,0.0012
3847.00,0.0012
3846.00,0.0012
3845.00,0.0012
3844.00,0.0012
3843.00,0.0012
3842.00,0.0012
3841.00,0.0012
3840.00,0.0012
3839.00,0.0012
3838.00,0.0012
3837.00,0.0012
3836.00,0.0012
3835.00,0.0012
3834.00,0.0012
3833.00,0.0012
3832.00,0.0012
3831.00,0.0012
3830.00,0.0012
3829.00,0.0012
3828.00,0.0012
3827.00,0.0012
3826.00,0.0012
3825.00,0.0012
3824.00,0.0012
3823.00,0.0011
3822.00,0.0011
3821.00,0.0011
3820.00,0.0012
3819.00,0.0012
3818.00,0.0013
3817.00,0.0012
3816.00,0.0012
3815.00,0.0012
3814.00,0.0012
3813.00,0.0012
3812.00,0.0012
3811.00,0.0012
3810.00,0.0012
3809.00,0.0012
3808.00,0.0012
3807.00,0.0012
3806.00,0.0012
3805.00,0.0012
3804.00,0.0012
3803.00,0.0011
3802.00,0.0011
3801.00,0.0011
3800.00,0.0012
3799.00,0.0012
3798.00,0.0012
3797.00,0.0012
3796.00,0.0012
3795.00,0.0012
3794.00,0.0012
3793.00,0.0012
3792.00,0.0012
3791.00,0.0012
3790.00,0.0012
3789.00,0.0012
3788.00,0.0012
3787.00,0.0012
3786.00,0.0011
3785.00,0.0011
3784.00,0.0011
3783.00,0.0012
3782.00,0.0012
3781.00,0.0012
3780.00,0.0012
3779.00,0.0012
3778.00,0.0012
3777.00,0.0012
3776.00,0.0012
3775.00,0.0012
3774.00,0.0012
3773.00,0.0012
3772.00,0.0012
3771.00,0.0012
3770.00,0.0012
3769.00,0.0012
3768.00,0.0012
3767.00,0.0012
3766.00,0.0012
3765.00,0.0012
3764.00,0.0012
3763.00,0.0012
3762.00,0.0012
3761.00,0.0012
3760.00,0.0012
3759.00,0.0012
3758.00,0.0012
3757.00,0.0012
3756.00,0.0012
3755.00,0.0012
3754.00,0.0012
3753.00,0.0012
3752.00,0.0012
3751.00,0.0012
3750.00,0.0011
3749.00,0.0011
3748.00,0.0011
3747.00,0.0011
3746.00,0.0011
3745.00,0.0011
3744.00,0.0011
3743.00,0.0011
3742.00,0.0011
3741.00,0.0011
3740.00,0.0010
3739.00,0.0010
3738.00,0.0010
3737.00,0.0010
3736.00,0.0010
3735.00,0.0010
3734.00,0.0010
3733.00,0.0010
3732.00,0.0010
3731.00,0.0010
3730.00,0.0010
3729.00,0.0010
3728.00,0.0010
3727.00,0.0010
3726.00,0.0010
3725.00,0.0010
3724.00,0.0009
3723.00,0.0009
3722.00,0.0009
3721.00,0.0010
3720.00,0.0010
3719.00,0.0010
3718.00,0.0010
3717.00,0.0011
3716.00,0.0011
3715.00,0.0011
3714.00,0.0011
3713.00,0.0010
3712.00,0.0010
3711.00,0.0009
3710.00,0.0009
3709.00,0.0009
3708.00,0.0009
3707.00,0.0009
3706.00,0.0009
3705.00,0.0009
3704.00,0.0009
3703.00,0.0010
3702.00,0.0010
3701.00,0.0010
3700.00,0.0010
3699.00,0.0011
3698.00,0.0010
3697.00,0.0010
3696.00,0.0010
3695.00,0.0010
3694.00,0.0010
3693.00,0.0010
3692.00,0.0010
3691.00,0.0010
3690.00,0.0010
3689.00,0.0010
3688.00,0.0010
3687.00,0.0010
3686.00,0.0010
3685.00,0.0010
3684.00,0.0010
3683.00,0.0010
3682.00,0.0010
3681.00,0.0010
3680.00,0.0010
3679.00,0.0010
3678.00,0.0010
3677.00,0.0010
3676.00,0.0009
3675.00,0.0009
3674.00,0.0009
3673.00,0.0009
3672.00,0.0009
3671.00,0.0009
3670.00,0.0009
3669.00,0.0009
3668.00,0.0010
3667.00,0.0010
3666.00,0.0010
3665.00,0.0010
3664.00,0.0010
3663.00,0.0010
3662.00,0.0010
3661.00,0.0010
3660.00,0.0010
3659.00,0.0010
3658.00,0.0010
3657.00,0.0010
3656.00,0.0009
3655.00,0.0009
3654.00,0.0009
3653.00,0.0009
3652.00,0.0008
3651.00,0.0008
3650.00,0.0008
3649.00,0.0008
3648.00,0.0008
3647.00,0.0009
3646.00,0.0010
3645.00,0.0010
3644.00,0.0010
3643.00,0.0010
3642.00,0.0010
3641.00,0.0010
3640.00,0.0010
3639.00,0.0010
3638.00,0.0010
3637.00,0.0010
3636.00,0.0010
3635.00,0.0009
3634.00,0.0009
3633.00,0.0010
3632.00,0.0010
3631.00,0.0010
3630.00,0.0010
3629.00,0.0010
3628.00,0.0010
3627.00,0.0011
3626.00,0.0010
3625.00,0.0010
3624.00,0.0010
3623.00,0.0010
3622.00,0.0010
3621.00,0.0010
3620.00,0.0010
3619.00,0.0010
3618.00,0.0010
3617.00,0.0011
3616.00,0.0011
3615.00,0.0011
3614.00,0.0012
3613.00,0.0012
3612.00,0.0012
3611.00,0.0012
3610.00,0.0012
3609.00,0.0012
3608.00,0.0012
3607.00,0.0012
3606.00,0.0012
3605.00,0.0012
3604.00,0.0012
3603.00,0.0012
3602.00,0.0012
3601.00,0.0012
3600.00,0.0012
3599.00,0.0012
3598.00,0.0012
3597.00,0.0012
3596.00,0.0012
3595.00,0.0012
3594.00,0.0013
3593.00,0.0013
3592.00,0.0013
3591.00,0.0013
3590.00,0.0013
3589.00,0.0013
3588.00,0.0013
3587.00,0.0013
3586.00,0.0013
3585.00,0.0014
3584.00,0.0014
3583.00,0.0014
3582.00,0.0014
3581.00,0.0014
3580.00,0.0014
3579.00,0.0014
3578.00,0.0014
3577.00,0.0014
3576.00,0.0015
3575.00,0.0015
3574.00,0.0015
3573.00,0.0016
3572.00,0.0016
3571.00,0.0016
3570.00,0.0016
3569.00,0.0016
3568.00,0.0016
3567.00,0.0016
3566.00,0.0016
3565.00,0.0016
3564.00,0.0016
3563.00,0.0017
3562.00,0.0017
3561.00,0.0018
3560.00,0.0018
3559.00,0.0018
3558.00,0.0019
3557.00,0.0019
3556.00,0.0019
3555.00,0.0019
3554.00,0.0019
3553.00,0.0020
3552.00,0.0020
3551.00,0.0020
3550.00,0.0021
3549.00,0.0021
3548.00,0.0021
3547.00,0.0022
3546.00,0.0022
3545.00,0.0022
3544.00,0.0023
3543.00,0.0023
3542.00,0.0023
3541.00,0.0023
3540.00,0.0024
3539.00,0.0024
3538.00,0.0024
3537.00,0.0025
3536.00,0.0025
3535.00,0.0026
3534.00,0.0026
3533.00,0.0027
3532.00,0.0027
3531.00,0.0027
3530.00,0.0028
3529.00,0.0028
3528.00,0.0029
3527.00,0.0029
3526.00,0.0029
3525.00,0.0030
3524.00,0.0030
3523.00,0.0031
3522.00,0.0031
3521.00,0.0032
3520.00,0.0032
3519.00,0.0033
3518.00,0.0034
3517.00,0.0035
3516.00,0.0036
3515.00,0.0037
3514.00,0.0038
3513.00,0.0038
3512.00,0.0039
3511.00,0.0040
3510.00,0.0040
3509.00,0.0041
3508.00,0.0042
3507.00,0.0043
3506.00,0.0044
3505.00,0.0045
3504.00,0.0046
3503.00,0.0048
3502.00,0.0049
3501.00,0.0050
3500.00,0.0051
3499.00,0.0052
3498.00,0.0053
3497.00,0.0055
3496.00,0.0056
3495.00,0.0058
3494.00,0.0060
3493.00,0.0061
3492.00,0.0063
3491.00,0.0065
3490.00,0.0066
3489.00,0.0068
3488.00,0.0070
3487.00,0.0072
3486.00,0.0075
3485.00,0.0077
3484.00,0.0079
3483.00,0.0081
3482.00,0.0083
3481.00,0.0085
3480.00,0.0088
3479.00,0.0090
3478.00,0.0093
3477.00,0.0096
3476.00,0.0099
3475.00,0.0102
3474.00,0.0105
3473.00,0.0108
3472.00,0.0112
3471.00,0.0116
3470.00,0.0121
3469.00,0.0126
3468.00,0.0132
3467.00,0.0139
3466.00,0.0146
3465.00,0.0155
3464.00,0.0164
3463.00,0.0175
3462.00,0.0186
3461.00,0.0200
3460.00,0.0215
3459.00,0.0231
3458.00,0.0248
3457.00,0.0267
3456.00,0.0286
3455.00,0.0305
3454.00,0.0323
3453.00,0.0340
3452.00,0.0353
3451.00,0.0363
3450.00,0.0369
3449.00,0.0371
3448.00,0.0370
3447.00,0.0364
3446.00,0.0356
3445.00,0.0345
3444.00,0.0332
3443.00,0.0318
3442.00,0.0304
3441.00,0.0289
3440.00,0.0274
3439.00,0.0260
3438.00,0.0246
3437.00,0.0234
3436.00,0.0222
3435.00,0.0210
3434.00,0.0200
3433.00,0.0190
3432.00,0.0181
3431.00,0.0173
3430.00,0.0166
3429.00,0.0159
3428.00,0.0153
3427.00,0.0147
3426.00,0.0142
3425.00,0.0137
3424.00,0.0133
3423.00,0.0129
3422.00,0.0126
3421.00,0.0123
3420.00,0.0120
3419.00,0.0118
3418.00,0.0116
3417.00,0.0113
3416.00,0.0112
3415.00,0.0110
3414.00,0.0108
3413.00,0.0106
3412.00,0.0105
3411.00,0.0104
3410.00,0.0103
3409.00,0.0102
3408.00,0.0101
3407.00,0.0100
3406.00,0.0100
3405.00,0.0099
3404.00,0.0098
3403.00,0.0098
3402.00,0.0097
3401.00,0.0097
3400.00,0.0096
3399.00,0.0096
3398.00,0.0095
3397.00,0.0095
3396.00,0.0094
3395.00,0.0094
3394.00,0.0094
3393.00,0.0094
3392.00,0.0094
3391.00,0.0094
3390.00,0.0094
3389.00,0.0093
3388.00,0.0093
3387.00,0.0093
3386.00,0.0093
3385.00,0.0093
3384.00,0.0093
3383.00,0.0093
3382.00,0.0093
3381.00,0.0093
3380.00,0.0093
3379.00,0.0093
3378.00,0.0093
3377.00,0.0093
3376.00,0.0092
3375.00,0.0092
3374.00,0.0092
3373.00,0.0093
3372.00,0.0093
3371.00,0.0093
3370.00,0.0093
3369.00,0.0093
3368.00,0.0094
3367.00,0.0094
3366.00,0.0094
3365.00,0.0094
3364.00,0.0095
3363.00,0.0095
3362.00,0.0095
3361.00,0.0096
3360.00,0.0096
3359.00,0.0096
3358.00,0.0096
3357.00,0.0096
3356.00,0.0096
3355.00,0.0097
3354.00,0.0097
3353.00,0.0098
3352.00,0.0098
3351.00,0.0099
3350.00,0.0099
3349.00,0.0099
3348.00,0.0099
3347.00,0.0100
3346.00,0.0100
3345.00,0.0100
3344.00,0.0100
3343.00,0.0101
3342.00,0.0101
3341.00,0.0101
3340.00,0.0102
3339.00,0.0102
3338.00,0.0102
3337.00,0.0103
3336.00,0.0103
3335.00,0.0103
3334.00,0.0103
3333.00,0.0104
3332.00,0.0104
3331.00,0.0105
3330.00,0.0105
3329.00,0.0106
3328.00,0.0106
3327.00,0.0107
3326.00,0.0107
3325.00,0.0107
3324.00,0.0108
3323.00,0.0109
3322.00,0.0109
3321.00,0.0110
3320.00,0.0111
3319.00,0.0111
3318.00,0.0112
3317.00,0.0112
3316.00,0.0113
3315.00,0.0113
3314.00,0.0114
3313.00,0.0114
3312.00,0.0114
3311.00,0.0115
3310.00,0.0115
3309.00,0.0116
3308.00,0.0117
3307.00,0.0117
3306.00,0.0118
3305.00,0.0119
3304.00,0.0120
3303.00,0.0120
3302.00,0.0121
3301.00,0.0122
3300.00,0.0123
3299.00,0.0123
3298.00,0.0124
3297.00,0.0124
3296.00,0.0125
3295.00,0.0125
3294.00,0.0126
3293.00,0.0127
3292.00,0.0128
3291.00,0.0129
3290.00,0.0130
3289.00,0.0131
3288.00,0.0132
3287.00,0.0133
3286.00,0.0134
3285.00,0.0136
3284.00,0.0137
3283.00,0.0138
3282.00,0.0138
3281.00,0.0139
3280.00,0.0140
3279.00,0.0140
3278.00,0.0141
3277.00,0.0141
3276.00,0.0142
3275.00,0.0142
3274.00,0.0143
3273.00,0.0143
3272.00,0.0143
3271.00,0.0144
3270.00,0.0146
3269.00,0.0148
3268.00,0.0150
3267.00,0.0152
3266.00,0.0153
3265.00,0.0154
3264.00,0.0155
3263.00,0.0155
3262.00,0.0156
3261.00,0.0156
3260.00,0.0156
3259.00,0.0157
3258.00,0.0157
3257.00,0.0158
3256.00,0.0158
3255.00,0.0159
3254.00,0.0161
3253.00,0.0162
3252.00,0.0163
3251.00,0.0163
3250.00,0.0163
3249.00,0.0163
3248.00,0.0163
3247.00,0.0164
3246.00,0.0165
3245.00,0.0166
3244.00,0.0167
3243.00,0.0168
3242.00,0.0169
3241.00,0.0169
3240.00,0.0170
3239.00,0.0171
3238.00,0.0171
3237.00,0.0172
3236.00,0.0172
3235.00,0.0173
3234.00,0.0174
3233.00,0.0175
3232.00,0.0176
3231.00,0.0177
3230.00,0.0178
3229.00,0.0179
3228.00,0.0180
3227.00,0.0180
3226.00,0.0181
3225.00,0.0182
3224.00,0.0183
3223.00,0.0184
3222.00,0.0184
3221.00,0.0185
3220.00,0.0185
3219.00,0.0186
3218.00,0.0186
3217.00,0.0187
3216.00,0.0188
3215.00,0.0189
3214.00,0.0190
3213.00,0.0191
3212.00,0.0192
3211.00,0.0193
3210.00,0.0193
3209.00,0.0194
3208.00,0.0195
3207.00,0.0196
3206.00,0.0197
3205.00,0.0198
3204.00,0.0199
3203.00,0.0200
3202.00,0.0201
3201.00,0.0202
3200.00,0.0203
3199.00,0.0203
3198.00,0.0204
3197.00,0.0204
3196.00,0.0205
3195.00,0.0206
3194.00,0.0206
3193.00,0.0207
3192.00,0.0207
3191.00,0.0208
3190.00,0.0208
3189.00,0.0209
3188.00,0.0209
3187.00,0.0210
3186.00,0.0211
3185.00,0.0211
3184.00,0.0212
3183.00,0.0213
3182.00,0.0213
3181.00,0.0213
3180.00,0.0214
3179.00,0.0214
3178.00,0.0215
3177.00,0.0216
3176.00,0.0216
3175.00,0.0216
3174.00,0.0216
3173.00,0.0217
3172.00,0.0217
3171.00,0.0217
3170.00,0.0217
3169.00,0.0218
3168.00,0.0218
3167.00,0.0219
3166.00,0.0219
3165.00,0.0220
3164.00,0.0220
3163.00,0.0220
3162.00,0.0220
3161.00,0.0220
3160.00,0.0220
3159.00,0.0220
3158.00,0.0221
3157.00,0.0221
3156.00,0.0220
3155.00,0.0220
3154.00,0.0219
3153.00,0.0220
3152.00,0.0221
3151.00,0.0222
3150.00,0.0224
3149.00,0.0225
3148.00,0.0226
3147.00,0.0227
3146.00,0.0228
3145.00,0.0229
3144.00,0.0230
3143.00,0.0230
3142.00,0.0230
3141.00,0.0231
3140.00,0.0231
3139.00,0.0232
3138.00,0.0233
3137.00,0.0234
3136.00,0.0235
3135.00,0.0236
3134.00,0.0236
3133.00,0.0237
3132.00,0.0237
3131.00,0.0238
3130.00,0.0238
3129.00,0.0239
3128.00,0.0240
3127.00,0.0240
3126.00,0.0241
3125.00,0.0241
3124.00,0.0241
3123.00,0.0240
3122.00,0.0240
3121.00,0.0240
3120.00,0.0240
3119.00,0.0240
3118.00,0.0241
3117.00,0.0242
3116.00,0.0243
3115.00,0.0244
3114.00,0.0245
3113.00,0.0246
3112.00,0.0247
3111.00,0.0247
3110.00,0.0248
3109.00,0.0248
3108.00,0.0249
3107.00,0.0250
3106.00,0.0251
3105.00,0.0252
3104.00,0.0252
3103.00,0.0253
3102.00,0.0253
3101.00,0.0253
3100.00,0.0253
3099.00,0.0254
3098.00,0.0254
3097.00,0.0254
3096.00,0.0255
3095.00,0.0255
3094.00,0.0255
3093.00,0.0255
3092.00,0.0255
3091.00,0.0255
3090.00,0.0255
3089.00,0.0256
3088.00,0.0256
3087.00,0.0256
3086.00,0.0256
3085.00,0.0257
3084.00,0.0257
3083.00,0.0258
3082.00,0.0259
3081.00,0.0260
3080.00,0.0261
3079.00,0.0262
3078.00,0.0264
3077.00,0.0266
3076.00,0.0269
3075.00,0.0271
3074.00,0.0273
3073.00,0.0274
3072.00,0.0276
3071.00,0.0276
3070.00,0.0276
3069.00,0.0275
3068.00,0.0273
3067.00,0.0271
3066.00,0.0269
3065.00,0.0266
3064.00,0.0264
3063.00,0.0261
3062.00,0.0258
3061.00,0.0254
3060.00,0.0251
3059.00,0.0248
3058.00,0.0245
3057.00,0.0243
3056.00,0.0241
3055.00,0.0239
3054.00,0.0237
3053.00,0.0236
3052.00,0.0234
3051.00,0.0233
3050.00,0.0232
3049.00,0.0231
3048.00,0.0230
3047.00,0.0229
3046.00,0.0228
3045.00,0.0227
3044.00,0.0226
3043.00,0.0226
3042.00,0.0225
3041.00,0.0225
3040.00,0.0225
3039.00,0.0224
3038.00,0.0224
3037.00,0.0224
3036.00,0.0223
3035.00,0.0222
3034.00,0.0222
3033.00,0.0221
3032.00,0.0220
3031.00,0.0219
3030.00,0.0219
3029.00,0.0218
3028.00,0.0217
3027.00,0.0216
3026.00,0.0215
3025.00,0.0214
3024.00,0.0213
3023.00,0.0212
3022.00,0.0211
3021.00,0.0211
3020.00,0.0210
3019.00,0.0209
3018.00,0.0209
3017.00,0.0208
3016.00,0.0207
3015.00,0.0207
3014.00,0.0207
3013.00,0.0207
3012.00,0.0207
3011.00,0.0207
3010.00,0.0207
3009.00,0.0207
3008.00,0.0207
3007.00,0.0208
3006.00,0.0208
3005.00,0.0208
3004.00,0.0209
3003.00,0.0210
3002.00,0.0211
3001.00,0.0212
3000.00,0.0213
2999.00,0.0214
2998.00,0.0216
2997.00,0.0218
2996.00,0.0220
2995.00,0.0223
2994.00,0.0226
2993.00,0.0229
2992.00,0.0232
2991.00,0.0235
2990.00,0.0238
2989.00,0.0240
2988.00,0.0242
2987.00,0.0243
2986.00,0.0245
2985.00,0.0247
2984.00,0.0249
2983.00,0.0251
2982.00,0.0254
2981.00,0.0258
2980.00,0.0262
2979.00,0.0267
2978.00,0.0272
2977.00,0.0277
2976.00,0.0281
2975.00,0.0285
2974.00,0.0287
2973.00,0.0290
2972.00,0.0292
2971.00,0.0294
2970.00,0.0297
2969.00,0.0301
2968.00,0.0305
2967.00,0.0310
2966.00,0.0316
2965.00,0.0323
2964.00,0.0331
2963.00,0.0341
2962.00,0.0351
2961.00,0.0363
2960.00,0.0374
2959.00,0.0385
2958.00,0.0394
2957.00,0.0402
2956.00,0.0409
2955.00,0.0414
2954.00,0.0416
2953.00,0.0417
2952.00,0.0416
2951.00,0.0412
2950.00,0.0407
2949.00,0.0400
2948.00,0.0393
2947.00,0.0388
2946.00,0.0385
2945.00,0.0384
2944.00,0.0387
2943.00,0.0392
2942.00,0.0400
2941.00,0.0409
2940.00,0.0420
2939.00,0.0431
2938.00,0.0444
2937.00,0.0457
2936.00,0.0471
2935.00,0.0486
2934.00,0.0503
2933.00,0.0522
2932.00,0.0541
2931.00,0.0561
2930.00,0.0580
2929.00,0.0598
2928.00,0.0612
2927.00,0.0622
2926.00,0.0628
2925.00,0.0631
2924.00,0.0630
2923.00,0.0626
2922.00,0.0619
2921.00,0.0610
2920.00,0.0599
2919.00,0.0587
2918.00,0.0573
2917.00,0.0559
2916.00,0.0545
2915.00,0.0531
2914.00,0.0516
2913.00,0.0500
2912.00,0.0485
2911.00,0.0469
2910.00,0.0454
2909.00,0.0439
2908.00,0.0425
2907.00,0.0412
2906.00,0.0400
2905.00,0.0390
2904.00,0.0381
2903.00,0.0372
2902.00,0.0365
2901.00,0.0359
2900.00,0.0353
2899.00,0.0347
2898.00,0.0342
2897.00,0.0338
2896.00,0.0333
2895.00,0.0329
2894.00,0.0326
2893.00,0.0323
2892.00,0.0320
2891.00,0.0318
2890.00,0.0316
2889.00,0.0314
2888.00,0.0312
2887.00,0.0311
2886.00,0.0310
2885.00,0.0309
2884.00,0.0309
2883.00,0.0308
2882.00,0.0308
2881.00,0.0309
2880.00,0.0310
2879.00,0.0312
2878.00,0.0315
2877.00,0.0319
2876.00,0.0324
2875.00,0.0330
2874.00,0.0336
2873.00,0.0343
2872.00,0.0348
2871.00,0.0350
2870.00,0.0350
2869.00,0.0346
2868.00,0.0341
2867.00,0.0336
2866.00,0.0333
2865.00,0.0333
2864.00,0.0336
2863.00,0.0342
2862.00,0.0349
2861.00,0.0358
2860.00,0.0367
2859.00,0.0375
2858.00,0.0381
2857.00,0.0382
2856.00,0.0380
2855.00,0.0375
2854.00,0.0367
2853.00,0.0357
2852.00,0.0346
2851.00,0.0334
2850.00,0.0322
2849.00,0.0311
2848.00,0.0301
2847.00,0.0292
2846.00,0.0284
2845.00,0.0278
2844.00,0.0274
2843.00,0.0269
2842.00,0.0265
2841.00,0.0261
2840.00,0.0258
2839.00,0.0255
2838.00,0.0253
2837.00,0.0253
2836.00,0.0254
2835.00,0.0255
2834.00,0.0254
2833.00,0.0252
2832.00,0.0249
2831.00,0.0243
2830.00,0.0236
2829.00,0.0229
2828.00,0.0221
2827.00,0.0213
2826.00,0.0206
2825.00,0.0199
2824.00,0.0193
2823.00,0.0188
2822.00,0.0184
2821.00,0.0181
2820.00,0.0178
2819.00,0.0175
2818.00,0.0172
2817.00,0.0170
2816.00,0.0169
2815.00,0.0167
2814.00,0.0165
2813.00,0.0164
2812.00,0.0162
2811.00,0.0161
2810.00,0.0159
2809.00,0.0158
2808.00,0.0157
2807.00,0.0157
2806.00,0.0156
2805.00,0.0155
2804.00,0.0155
2803.00,0.0154
2802.00,0.0153
2801.00,0.0153
2800.00,0.0152
2799.00,0.0151
2798.00,0.0151
2797.00,0.0151
2796.00,0.0151
2795.00,0.0150
2794.00,0.0150
2793.00,0.0149
2792.00,0.0149
2791.00,0.0149
2790.00,0.0149
2789.00,0.0148
2788.00,0.0148
2787.00,0.0148
2786.00,0.0148
2785.00,0.0148
2784.00,0.0148
2783.00,0.0149
2782.00,0.0149
2781.00,0.0149
2780.00,0.0150
2779.00,0.0150
2778.00,0.0150
2777.00,0.0151
2776.00,0.0151
2775.00,0.0152
2774.00,0.0152
2773.00,0.0153
2772.00,0.0153
2771.00,0.0154
2770.00,0.0154
2769.00,0.0154
2768.00,0.0155
2767.00,0.0155
2766.00,0.0156
2765.00,0.0156
2764.00,0.0157
2763.00,0.0157
2762.00,0.0158
2761.00,0.0158
2760.00,0.0159
2759.00,0.0159
2758.00,0.0159
2757.00,0.0160
2756.00,0.0160
2755.00,0.0160
2754.00,0.0160
2753.00,0.0160
2752.00,0.0160
2751.00,0.0160
2750.00,0.0160
2749.00,0.0160
2748.00,0.0160
2747.00,0.0160
2746.00,0.0161
2745.00,0.0161
2744.00,0.0161
2743.00,0.0161
2742.00,0.0161
2741.00,0.0162
2740.00,0.0162
2739.00,0.0162
2738.00,0.0163
2737.00,0.0163
2736.00,0.0164
2735.00,0.0165
2734.00,0.0165
2733.00,0.0166
2732.00,0.0166
2731.00,0.0166
2730.00,0.0166
2729.00,0.0167
2728.00,0.0167
2727.00,0.0167
2726.00,0.0167
2725.00,0.0167
2724.00,0.0167
2723.00,0.0167
2722.00,0.0167
2721.00,0.0167
2720.00,0.0167
2719.00,0.0167
2718.00,0.0166
2717.00,0.0166
2716.00,0.0166
2715.00,0.0166
2714.00,0.0166
2713.00,0.0166
2712.00,0.0166
2711.00,0.0166
2710.00,0.0166
2709.00,0.0166
2708.00,0.0166
2707.00,0.0166
2706.00,0.0167
2705.00,0.0167
2704.00,0.0167
2703.00,0.0167
2702.00,0.0168
2701.00,0.0168
2700.00,0.0168
2699.00,0.0168
2698.00,0.0168
2697.00,0.0168
2696.00,0.0168
2695.00,0.0168
2694.00,0.0168
2693.00,0.0168
2692.00,0.0169
2691.00,0.0169
2690.00,0.0169
2689.00,0.0169
2688.00,0.0168
2687.00,0.0168
2686.00,0.0168
2685.00,0.0168
2684.00,0.0168
2683.00,0.0168
2682.00,0.0167
2681.00,0.0167
2680.00,0.0167
2679.00,0.0167
2678.00,0.0167
2677.00,0.0167
2676.00,0.0167
2675.00,0.0167
2674.00,0.0167
2673.00,0.0167
2672.00,0.0168
2671.00,0.0168
2670.00,0.0168
2669.00,0.0168
2668.00,0.0168
2667.00,0.0168
2666.00,0.0169
2665.00,0.0169
2664.00,0.0170
2663.00,0.0170
2662.00,0.0171
2661.00,0.0171
2660.00,0.0171
2659.00,0.0170
2658.00,0.0170
2657.00,0.0170
2656.00,0.0170
2655.00,0.0169
2654.00,0.0169
2653.00,0.0169
2652.00,0.0168
2651.00,0.0168
2650.00,0.0168
2649.00,0.0168
2648.00,0.0167
2647.00,0.0167
2646.00,0.0167
2645.00,0.0166
2644.00,0.0166
2643.00,0.0165
2642.00,0.0165
2641.00,0.0165
2640.00,0.0165
2639.00,0.0164
2638.00,0.0164
2637.00,0.0164
2636.00,0.0163
2635.00,0.0163
2634.00,0.0163
2633.00,0.0162
2632.00,0.0162
2631.00,0.0162
2630.00,0.0161
2629.00,0.0161
2628.00,0.0161
2627.00,0.0161
2626.00,0.0160
2625.00,0.0160
2624.00,0.0160
2623.00,0.0159
2622.00,0.0159
2621.00,0.0159
2620.00,0.0158
2619.00,0.0158
2618.00,0.0158
2617.00,0.0158
2616.00,0.0158
2615.00,0.0157
2614.00,0.0157
2613.00,0.0157
2612.00,0.0156
2611.00,0.0156
2610.00,0.0155
2609.00,0.0155
2608.00,0.0155
2607.00,0.0155
2606.00,0.0154
2605.00,0.0154
2604.00,0.0154
2603.00,0.0153
2602.00,0.0153
2601.00,0.0152
2600.00,0.0152
2599.00,0.0151
2598.00,0.0151
2597.00,0.0150
2596.00,0.0149
2595.00,0.0149
2594.00,0.0148
2593.00,0.0147
2592.00,0.0147
2591.00,0.0146
2590.00,0.0146
2589.00,0.0146
2588.00,0.0145
2587.00,0.0145
2586.00,0.0145
2585.00,0.0145
2584.00,0.0144
2583.00,0.0144
2582.00,0.0143
2581.00,0.0143
2580.00,0.0142
2579.00,0.0142
2578.00,0.0142
2577.00,0.0141
2576.00,0.0141
2575.00,0.0141
2574.00,0.0141
2573.00,0.0141
2572.00,0.0141
2571.00,0.0141
2570.00,0.0142
2569.00,0.0142
2568.00,0.0142
2567.00,0.0142
2566.00,0.0142
2565.00,0.0142
2564.00,0.0143
2563.00,0.0143
2562.00,0.0143
2561.00,0.0143
2560.00,0.0143
2559.00,0.0143
2558.00,0.0144
2557.00,0.0144
2556.00,0.0144
2555.00,0.0144
2554.00,0.0144
2553.00,0.0144
2552.00,0.0144
2551.00,0.0144
2550.00,0.0143
2549.00,0.0143
2548.00,0.0142
2547.00,0.0142
2546.00,0.0141
2545.00,0.0141
2544.00,0.0140
2543.00,0.0139
2542.00,0.0138
2541.00,0.0138
2540.00,0.0137
2539.00,0.0136
2538.00,0.0136
2537.00,0.0135
2536.00,0.0135
2535.00,0.0134
2534.00,0.0133
2533.00,0.0133
2532.00,0.0132
2531.00,0.0132
2530.00,0.0131
2529.00,0.0131
2528.00,0.0130
2527.00,0.0130
2526.00,0.0129
2525.00,0.0129
2524.00,0.0129
2523.00,0.0129
2522.00,0.0129
2521.00,0.0129
2520.00,0.0128
2519.00,0.0128
2518.00,0.0127
2517.00,0.0126
2516.00,0.0126
2515.00,0.0125
2514.00,0.0125
2513.00,0.0124
2512.00,0.0123
2511.00,0.0122
2510.00,0.0122
2509.00,0.0121
2508.00,0.0121
2507.00,0.0121
2506.00,0.0120
2505.00,0.0120
2504.00,0.0120
2503.00,0.0120
2502.00,0.0119
2501.00,0.0119
2500.00,0.0118
2499.00,0.0118
2498.00,0.0117
2497.00,0.0117
2496.00,0.0117
2495.00,0.0117
2494.00,0.0117
2493.00,0.0117
2492.00,0.0116
2491.00,0.0116
2490.00,0.0116
2489.00,0.0116
2488.00,0.0117
2487.00,0.0117
2486.00,0.0117
2485.00,0.0117
2484.00,0.0116
2483.00,0.0116
2482.00,0.0115
2481.00,0.0115
2480.00,0.0115
2479.00,0.0115
2478.00,0.0115
2477.00,0.0116
2476.00,0.0116
2475.00,0.0115
2474.00,0.0115
2473.00,0.0115
2472.00,0.0114
2471.00,0.0114
2470.00,0.0114
2469.00,0.0114
2468.00,0.0114
2467.00,0.0114
2466.00,0.0114
2465.00,0.0114
2464.00,0.0114
2463.00,0.0114
2462.00,0.0115
2461.00,0.0115
2460.00,0.0116
2459.00,0.0116
2458.00,0.0117
2457.00,0.0117
2456.00,0.0117
2455.00,0.0117
2454.00,0.0117
2453.00,0.0117
2452.00,0.0117
2451.00,0.0117
2450.00,0.0117
2449.00,0.0117
2448.00,0.0117
2447.00,0.0116
2446.00,0.0116
2445.00,0.0116
2444.00,0.0116
2443.00,0.0117
2442.00,0.0117
2441.00,0.0116
2440.00,0.0116
2439.00,0.0116
2438.00,0.0116
2437.00,0.0116
2436.00,0.0116
2435.00,0.0115
2434.00,0.0115
2433.00,0.0114
2432.00,0.0114
2431.00,0.0114
2430.00,0.0114
2429.00,0.0114
2428.00,0.0113
2427.00,0.0113
2426.00,0.0113
2425.00,0.0113
2424.00,0.0113
2423.00,0.0112
2422.00,0.0112
2421.00,0.0111
2420.00,0.0111
2419.00,0.0110
2418.00,0.0110
2417.00,0.0109
2416.00,0.0109
2415.00,0.0109
2414.00,0.0108
2413.00,0.0108
2412.00,0.0107
2411.00,0.0107
2410.00,0.0106
2409.00,0.0105
2408.00,0.0103
2407.00,0.0102
2406.00,0.0100
2405.00,0.0099
2404.00,0.0099
2403.00,0.0099
2402.00,0.0098
2401.00,0.0098
2400.00,0.0097
2399.00,0.0096
2398.00,0.0096
2397.00,0.0095
2396.00,0.0094
2395.00,0.0093
2394.00,0.0093
2393.00,0.0092
2392.00,0.0091
2391.00,0.0091
2390.00,0.0090
2389.00,0.0089
2388.00,0.0087
2387.00,0.0086
2386.00,0.0085
2385.00,0.0084
2384.00,0.0083
2383.00,0.0081
2382.00,0.0080
2381.00,0.0079
2380.00,0.0079
2379.00,0.0078
2378.00,0.0077
2377.00,0.0077
2376.00,0.0076
2375.00,0.0076
2374.00,0.0075
2373.00,0.0074
2372.00,0.0073
2371.00,0.0072
2370.00,0.0072
2369.00,0.0071
2368.00,0.0070
2367.00,0.0069
2366.00,0.0069
2365.00,0.0068
2364.00,0.0068
2363.00,0.0068
2362.00,0.0068
2361.00,0.0068
2360.00,0.0067
2359.00,0.0066
2358.00,0.0065
2357.00,0.0065
2356.00,0.0065
2355.00,0.0065
2354.00,0.0064
2353.00,0.0063
2352.00,0.0062
2351.00,0.0062
2350.00,0.0062
2349.00,0.0062
2348.00,0.0063
2347.00,0.0063
2346.00,0.0063
2345.00,0.0062
2344.00,0.0062
2343.00,0.0061
2342.00,0.0061
2341.00,0.0061
2340.00,0.0061
2339.00,0.0062
2338.00,0.0061
2337.00,0.0061
2336.00,0.0061
2335.00,0.0061
2334.00,0.0060
2333.00,0.0060
2332.00,0.0059
2331.00,0.0059
2330.00,0.0059
2329.00,0.0061
2328.00,0.0064
2327.00,0.0068
2326.00,0.0072
2325.00,0.0072
2324.00,0.0070
2323.00,0.0068
2322.00,0.0065
2321.00,0.0064
2320.00,0.0062
2319.00,0.0061
2318.00,0.0060
2317.00,0.0059
2316.00,0.0058
2315.00,0.0057
2314.00,0.0056
2313.00,0.0055
2312.00,0.0054
2311.00,0.0054
2310.00,0.0053
2309.00,0.0053
2308.00,0.0053
2307.00,0.0053
2306.00,0.0053
2305.00,0.0053
2304.00,0.0053
2303.00,0.0053
2302.00,0.0053
2301.00,0.0053
2300.00,0.0053
2299.00,0.0053
2298.00,0.0053
2297.00,0.0053
2296.00,0.0054
2295.00,0.0054
2294.00,0.0055
2293.00,0.0056
2292.00,0.0057
2291.00,0.0058
2290.00,0.0059
2289.00,0.0059
2288.00,0.0060
2287.00,0.0060
2286.00,0.0059
2285.00,0.0058
2284.00,0.0057
2283.00,0.0056
2282.00,0.0055
2281.00,0.0055
2280.00,0.0054
2279.00,0.0053
2278.00,0.0052
2277.00,0.0051
2276.00,0.0051
2275.00,0.0050
2274.00,0.0050
2273.00,0.0050
2272.00,0.0050
2271.00,0.0049
2270.00,0.0048
2269.00,0.0047
2268.00,0.0047
2267.00,0.0046
2266.00,0.0045
2265.00,0.0045
2264.00,0.0045
2263.00,0.0046
2262.00,0.0046
2261.00,0.0046
2260.00,0.0046
2259.00,0.0046
2258.00,0.0045
2257.00,0.0044
2256.00,0.0042
2255.00,0.0040
2254.00,0.0040
2253.00,0.0040
2252.00,0.0040
2251.00,0.0040
2250.00,0.0041
2249.00,0.0041
2248.00,0.0041
2247.00,0.0040
2246.00,0.0040
2245.00,0.0040
2244.00,0.0041
2243.00,0.0041
2242.00,0.0041
2241.00,0.0041
2240.00,0.0041
2239.00,0.0041
2238.00,0.0041
2237.00,0.0040
2236.00,0.0040
2235.00,0.0040
2234.00,0.0040
2233.00,0.0039
2232.00,0.0039
2231.00,0.0038
2230.00,0.0037
2229.00,0.0037
2228.00,0.0037
2227.00,0.0037
2226.00,0.0038
2225.00,0.0038
2224.00,0.0038
2223.00,0.0037
2222.00,0.0036
2221.00,0.0036
2220.00,0.0035
2219.00,0.0034
2218.00,0.0034
2217.00,0.0035
2216.00,0.0036
2215.00,0.0037
2214.00,0.0037
2213.00,0.0037
2212.00,0.0037
2211.00,0.0036
2210.00,0.0036
2209.00,0.0036
2208.00,0.0036
2207.00,0.0036
2206.00,0.0035
2205.00,0.0034
2204.00,0.0034
2203.00,0.0033
2202.00,0.0033
2201.00,0.0033
2200.00,0.0034
2199.00,0.0033
2198.00,0.0033
2197.00,0.0032
2196.00,0.0032
2195.00,0.0032
2194.00,0.0032
2193.00,0.0033
2192.00,0.0034
2191.00,0.0035
2190.00,0.0036
2189.00,0.0037
2188.00,0.0037
2187.00,0.0037
2186.00,0.0036
2185.00,0.0034
2184.00,0.0032
2183.00,0.0029
2182.00,0.0027
2181.00,0.0028
2180.00,0.0029
2179.00,0.0029
2178.00,0.0027
2177.00,0.0024
2176.00,0.0023
2175.00,0.0024
2174.00,0.0025
2173.00,0.0027
2172.00,0.0030
2171.00,0.0033
2170.00,0.0036
2169.00,0.0039
2168.00,0.0040
2167.00,0.0041
2166.00,0.0041
2165.00,0.0043
2164.00,0.0044
2163.00,0.0043
2162.00,0.0035
2161.00,0.0020
2160.00,0.0003
2159.00,-0.0010
2158.00,-0.0015
2157.00,-0.0015
2156.00,-0.0012
2155.00,-0.0009
2154.00,-0.0005
2153.00,-0.0002
2152.00,0.0002
2151.00,0.0003
2150.00,0.0003
2149.00,0.0003
2148.00,0.0003
2147.00,0.0002
2146.00,0.0002
2145.00,0.0002
2144.00,0.0002
2143.00,0.0001
2142.00,0.0001
2141.00,0.0000
2140.00,0.0000
2139.00,0.0000
2138.00,-0.0001
2137.00,-0.0002
2136.00,-0.0004
2135.00,-0.0006
2134.00,-0.0006
2133.00,-0.0005
2132.00,-0.0002
2131.00,-0.0000
2130.00,0.0002
2129.00,0.0004
2128.00,0.0005
2127.00,0.0007
2126.00,0.0007
2125.00,0.0009
2124.00,0.0010
2123.00,0.0012
2122.00,0.0013
2121.00,0.0014
2120.00,0.0015
2119.00,0.0016
2118.00,0.0016
2117.00,0.0018
2116.00,0.0019
2115.00,0.0020
2114.00,0.0020
2113.00,0.0019
2112.00,0.0019
2111.00,0.0018
2110.00,0.0017
2109.00,0.0017
2108.00,0.0017
2107.00,0.0017
2106.00,0.0017
2105.00,0.0018
2104.00,0.0018
2103.00,0.0018
2102.00,0.0018
2101.00,0.0017
2100.00,0.0017
2099.00,0.0016
2098.00,0.0014
2097.00,0.0012
2096.00,0.0010
2095.00,0.0010
2094.00,0.0011
2093.00,0.0012
2092.00,0.0014
2091.00,0.0015
2090.00,0.0015
2089.00,0.0015
2088.00,0.0015
2087.00,0.0015
2086.00,0.0015
2085.00,0.0016
2084.00,0.0016
2083.00,0.0016
2082.00,0.0016
2081.00,0.0016
2080.00,0.0016
2079.00,0.0016
2078.00,0.0016
2077.00,0.0016
2076.00,0.0016
2075.00,0.0015
2074.00,0.0014
2073.00,0.0013
2072.00,0.0012
2071.00,0.0012
2070.00,0.0012
2069.00,0.0012
2068.00,0.0012
2067.00,0.0012
2066.00,0.0011
2065.00,0.0011
2064.00,0.0011
2063.00,0.0010
2062.00,0.0010
2061.00,0.0010
2060.00,0.0011
2059.00,0.0011
2058.00,0.0012
2057.00,0.0012
2056.00,0.0013
2055.00,0.0015
2054.00,0.0018
2053.00,0.0023
2052.00,0.0027
2051.00,0.0027
2050.00,0.0024
2049.00,0.0021
2048.00,0.0019
2047.00,0.0018
2046.00,0.0017
2045.00,0.0016
2044.00,0.0015
2043.00,0.0015
2042.00,0.0015
2041.00,0.0016
2040.00,0.0018
2039.00,0.0018
2038.00,0.0018
2037.00,0.0017
2036.00,0.0015
2035.00,0.0013
2034.00,0.0011
2033.00,0.0009
2032.00,0.0010
2031.00,0.0010
2030.00,0.0010
2029.00,0.0011
2028.00,0.0011
2027.00,0.0011
2026.00,0.0010
2025.00,0.0010
2024.00,0.0009
2023.00,0.0009
2022.00,0.0009
2021.00,0.0009
2020.00,0.0010
2019.00,0.0010
2018.00,0.0010
2017.00,0.0010
2016.00,0.0010
2015.00,0.0009
2014.00,0.0008
2013.00,0.0007
2012.00,0.0008
2011.00,0.0009
2010.00,0.0008
2009.00,0.0007
2008.00,0.0004
2007.00,0.0001
2006.00,-0.0000
2005.00,0.0001
2004.00,0.0003
2003.00,0.0005
2002.00,0.0006
2001.00,0.0006
2000.00,0.0007
1999.00,0.0007
1998.00,0.0008
1997.00,0.0010
1996.00,0.0012
1995.00,0.0013
1994.00,0.0014
1993.00,0.0017
1992.00,0.0019
1991.00,0.0020
1990.00,0.0020
1989.00,0.0020
1988.00,0.0020
1987.00,0.0020
1986.00,0.0020
1985.00,0.0021
1984.00,0.0024
1983.00,0.0027
1982.00,0.0031
1981.00,0.0033
1980.00,0.0031
1979.00,0.0024
1978.00,0.0015
1977.00,0.0008
1976.00,0.0005
1975.00,0.0003
1974.00,0.0002
1973.00,0.0002
1972.00,0.0002
1971.00,0.0002
1970.00,0.0003
1969.00,0.0003
1968.00,0.0004
1967.00,0.0004
1966.00,0.0003
1965.00,0.0002
1964.00,0.0002
1963.00,0.0002
1962.00,0.0001
1961.00,0.0000
1960.00,0.0000
1959.00,0.0000
1958.00,0.0000
1957.00,0.0002
1956.00,0.0003
1955.00,0.0004
1954.00,0.0005
1953.00,0.0005
1952.00,0.0005
1951.00,0.0005
1950.00,0.0004
1949.00,0.0004
1948.00,0.0004
1947.00,0.0005
1946.00,0.0005
1945.00,0.0006
1944.00,0.0007
1943.00,0.0007
1942.00,0.0007
1941.00,0.0007
1940.00,0.0007
1939.00,0.0007
1938.00,0.0006
1937.00,0.0006
1936.00,0.0006
1935.00,0.0006
1934.00,0.0006
1933.00,0.0006
1932.00,0.0007
1931.00,0.0007
1930.00,0.0006
1929.00,0.0006
1928.00,0.0006
1927.00,0.0006
1926.00,0.0007
1925.00,0.0007
1924.00,0.0008
1923.00,0.0009
1922.00,0.0009
1921.00,0.0010
1920.00,0.0010
1919.00,0.0010
1918.00,0.0010
1917.00,0.0010
1916.00,0.0010
1915.00,0.0010
1914.00,0.0010
1913.00,0.0009
1912.00,0.0009
1911.00,0.0009
1910.00,0.0009
1909.00,0.0009
1908.00,0.0010
1907.00,0.0010
1906.00,0.0010
1905.00,0.0010
1904.00,0.0010
1903.00,0.0010
1902.00,0.0009
1901.00,0.0009
1900.00,0.0010
1899.00,0.0010
1898.00,0.0010
1897.00,0.0011
1896.00,0.0011
1895.00,0.0011
1894.00,0.0010
1893.00,0.0010
1892.00,0.0010
1891.00,0.0010
1890.00,0.0010
1889.00,0.0010
1888.00,0.0010
1887.00,0.0010
1886.00,0.0010
1885.00,0.0010
1884.00,0.0010
1883.00,0.0010
1882.00,0.0010
1881.00,0.0010
1880.00,0.0010
1879.00,0.0010
1878.00,0.0011
1877.00,0.0011
1876.00,0.0011
1875.00,0.0011
1874.00,0.0011
1873.00,0.0011
1872.00,0.0011
1871.00,0.0012
1870.00,0.0012
1869.00,0.0013
1868.00,0.0013
1867.00,0.0012
1866.00,0.0012
1865.00,0.0012
1864.00,0.0012
1863.00,0.0012
1862.00,0.0012
1861.00,0.0012
1860.00,0.0012
1859.00,0.0012
1858.00,0.0012
1857.00,0.0012
1856.00,0.0013
1855.00,0.0012
1854.00,0.0012
1853.00,0.0012
1852.00,0.0012
1851.00,0.0012
1850.00,0.0012
1849.00,0.0012
1848.00,0.0013
1847.00,0.0014
1846.00,0.0014
1845.00,0.0015
1844.00,0.0015
1843.00,0.0015
1842.00,0.0014
1841.00,0.0014
1840.00,0.0014
1839.00,0.0014
1838.00,0.0013
1837.00,0.0013
1836.00,0.0013
1835.00,0.0013
1834.00,0.0013
1833.00,0.0013
1832.00,0.0014
1831.00,0.0014
1830.00,0.0014
1829.00,0.0014
1828.00,0.0015
1827.00,0.0015
1826.00,0.0015
1825.00,0.0015
1824.00,0.0015
1823.00,0.0015
1822.00,0.0015
1821.00,0.0014
1820.00,0.0013
1819.00,0.0012
1818.00,0.0011
1817.00,0.0011
1816.00,0.0012
1815.00,0.0013
1814.00,0.0013
1813.00,0.0014
1812.00,0.0015
1811.00,0.0016
1810.00,0.0016
1809.00,0.0016
1808.00,0.0016
1807.00,0.0016
1806.00,0.0016
1805.00,0.0016
1804.00,0.0017
1803.00,0.0018
1802.00,0.0018
1801.00,0.0019
1800.00,0.0020
1799.00,0.0020
1798.00,0.0019
1797.00,0.0020
1796.00,0.0020
1795.00,0.0021
1794.00,0.0022
1793.00,0.0023
1792.00,0.0024
1791.00,0.0025
1790.00,0.0025
1789.00,0.0026
1788.00,0.0027
1787.00,0.0029
1786.00,0.0030
1785.00,0.0031
1784.00,0.0031
1783.00,0.0031
1782.00,0.0030
1781.00,0.0029
1780.00,0.0029
1779.00,0.0029
1778.00,0.0028
1777.00,0.0028
1776.00,0.0029
1775.00,0.0030
1774.00,0.0030
1773.00,0.0030
1772.00,0.0030
1771.00,0.0030
1770.00,0.0030
1769.00,0.0031
1768.00,0.0031
1767.00,0.0030
1766.00,0.0030
1765.00,0.0029
1764.00,0.0030
1763.00,0.0030
1762.00,0.0030
1761.00,0.0031
1760.00,0.0031
1759.00,0.0031
1758.00,0.0031
1757.00,0.0031
1756.00,0.0031
1755.00,0.0031
1754.00,0.0031
1753.00,0.0030
1752.00,0.0031
1751.00,0.0031
1750.00,0.0031
1749.00,0.0032
1748.00,0.0033
1747.00,0.0033
1746.00,0.0034
1745.00,0.0034
1744.00,0.0035
1743.00,0.0036
1742.00,0.0036
1741.00,0.0036
1740.00,0.0036
1739.00,0.0037
1738.00,0.0037
1737.00,0.0038
1736.00,0.0039
1735.00,0.0039
1734.00,0.0040
1733.00,0.0041
1732.00,0.0042
1731.00,0.0043
1730.00,0.0044
1729.00,0.0046
1728.00,0.0047
1727.00,0.0047
1726.00,0.0048
1725.00,0.0049
1724.00,0.0050
1723.00,0.0052
1722.00,0.0053
1721.00,0.0054
1720.00,0.0056
1719.00,0.0057
1718.00,0.0057
1717.00,0.0059
1716.00,0.0060
1715.00,0.0062
1714.00,0.0063
1713.00,0.0063
1712.00,0.0064
1711.00,0.0064
1710.00,0.0064
1709.00,0.0065
1708.00,0.0066
1707.00,0.0067
1706.00,0.0068
1705.00,0.0070
1704.00,0.0071
1703.00,0.0071
1702.00,0.0072
1701.00,0.0074
1700.00,0.0077
1699.00,0.0078
1698.00,0.0079
1697.00,0.0080
1696.00,0.0083
1695.00,0.0087
1694.00,0.0090
1693.00,0.0093
1692.00,0.0096
1691.00,0.0099
1690.00,0.0102
1689.00,0.0105
1688.00,0.0108
1687.00,0.0109
1686.00,0.0110
1685.00,0.0113
1684.00,0.0119
1683.00,0.0124
1682.00,0.0126
1681.00,0.0127
1680.00,0.0129
1679.00,0.0130
1678.00,0.0131
1677.00,0.0134
1676.00,0.0137
1675.00,0.0142
1674.00,0.0146
1673.00,0.0149
1672.00,0.0152
1671.00,0.0157
1670.00,0.0163
1669.00,0.0171
1668.00,0.0178
1667.00,0.0182
1666.00,0.0186
1665.00,0.0190
1664.00,0.0196
1663.00,0.0204
1662.00,0.0212
1661.00,0.0219
1660.00,0.0226
1659.00,0.0233
1658.00,0.0239
1657.00,0.0246
1656.00,0.0252
1655.00,0.0261
1654.00,0.0279
1653.00,0.0308
1652.00,0.0336
1651.00,0.0351
1650.00,0.0363
1649.00,0.0381
1648.00,0.0411
1647.00,0.0458
1646.00,0.0514
1645.00,0.0567
1644.00,0.0616
1643.00,0.0661
1642.00,0.0704
1641.00,0.0745
1640.00,0.0783
1639.00,0.0815
1638.00,0.0846
1637.00,0.0887
1636.00,0.0943
1635.00,0.0997
1634.00,0.1030
1633.00,0.1039
1632.00,0.1034
1631.00,0.1019
1630.00,0.0996
1629.00,0.0963
1628.00,0.0923
1627.00,0.0878
1626.00,0.0832
1625.00,0.0786
1624.00,0.0741
1623.00,0.0698
1622.00,0.0659
1621.00,0.0624
1620.00,0.0593
1619.00,0.0564
1618.00,0.0538
1617.00,0.0515
1616.00,0.0495
1615.00,0.0477
1614.00,0.0461
1613.00,0.0446
1612.00,0.0432
1611.00,0.0420
1610.00,0.0409
1609.00,0.0401
1608.00,0.0394
1607.00,0.0388
1606.00,0.0383
1605.00,0.0380
1604.00,0.0379
1603.00,0.0380
1602.00,0.0383
1601.00,0.0388
1600.00,0.0396
1599.00,0.0406
1598.00,0.0419
1597.00,0.0438
1596.00,0.0461
1595.00,0.0491
1594.00,0.0527
1593.00,0.0569
1592.00,0.0617
1591.00,0.0667
1590.00,0.0719
1589.00,0.0769
1588.00,0.0816
1587.00,0.0859
1586.00,0.0897
1585.00,0.0932
1584.00,0.0965
1583.00,0.0995
1582.00,0.1021
1581.00,0.1042
1580.00,0.1057
1579.00,0.1066
1578.00,0.1072
1577.00,0.1081
1576.00,0.1093
1575.00,0.1098
1574.00,0.1090
1573.00,0.1073
1572.00,0.1054
1571.00,0.1036
1570.00,0.1018
1569.00,0.1000
1568.00,0.0978
1567.00,0.0952
1566.00,0.0922
1565.00,0.0891
1564.00,0.0860
1563.00,0.0828
1562.00,0.0795
1561.00,0.0761
1560.00,0.0729
1559.00,0.0698
1558.00,0.0669
1557.00,0.0639
1556.00,0.0611
1555.00,0.0583
1554.00,0.0556
1553.00,0.0531
1552.00,0.0508
1551.00,0.0487
1550.00,0.0466
1549.00,0.0447
1548.00,0.0430
1547.00,0.0413
1546.00,0.0398
1545.00,0.0385
1544.00,0.0373
1543.00,0.0362
1542.00,0.0351
1541.00,0.0342
1540.00,0.0336
1539.00,0.0331
1538.00,0.0324
1537.00,0.0318
1536.00,0.0313
1535.00,0.0310
1534.00,0.0310
1533.00,0.0313
1532.00,0.0317
1531.00,0.0321
1530.00,0.0324
1529.00,0.0331
1528.00,0.0339
1527.00,0.0348
1526.00,0.0355
1525.00,0.0358
1524.00,0.0357
1523.00,0.0352
1522.00,0.0343
1521.00,0.0332
1520.00,0.0319
1519.00,0.0304
1518.00,0.0288
1517.00,0.0272
1516.00,0.0258
1515.00,0.0246
1514.00,0.0236
1513.00,0.0227
1512.00,0.0220
1511.00,0.0214
1510.00,0.0208
1509.00,0.0203
1508.00,0.0199
1507.00,0.0197
1506.00,0.0194
1505.00,0.0191
1504.00,0.0187
1503.00,0.0183
1502.00,0.0180
1501.00,0.0177
1500.00,0.0175
1499.00,0.0173
1498.00,0.0171
1497.00,0.0170
1496.00,0.0170
1495.00,0.0169
1494.00,0.0167
1493.00,0.0165
1492.00,0.0164
1491.00,0.0163
1490.00,0.0163
1489.00,0.0164
1488.00,0.0164
1487.00,0.0164
1486.00,0.0164
1485.00,0.0165
1484.00,0.0167
1483.00,0.0171
1482.00,0.0176
1481.00,0.0182
1480.00,0.0189
1479.00,0.0197
1478.00,0.0205
1477.00,0.0215
1476.00,0.0225
1475.00,0.0236
1474.00,0.0249
1473.00,0.0270
1472.00,0.0297
1471.00,0.0325
1470.00,0.0347
1469.00,0.0364
1468.00,0.0375
1467.00,0.0378
1466.00,0.0377
1465.00,0.0378
1464.00,0.0385
1463.00,0.0396
1462.00,0.0411
1461.00,0.0430
1460.00,0.0453
1459.00,0.0484
1458.00,0.0527
1457.00,0.0584
1456.00,0.0641
1455.00,0.0685
1454.00,0.0723
1453.00,0.0768
1452.00,0.0819
1451.00,0.0873
1450.00,0.0926
1449.00,0.0979
1448.00,0.1030
1447.00,0.1071
1446.00,0.1099
1445.00,0.1117
1444.00,0.1124
1443.00,0.1119
1442.00,0.1102
1441.00,0.1073
1440.00,0.1037
1439.00,0.0997
1438.00,0.0957
1437.00,0.0922
1436.00,0.0891
1435.00,0.0863
1434.00,0.0834
1433.00,0.0806
1432.00,0.0776
1431.00,0.0745
1430.00,0.0713
1429.00,0.0682
1428.00,0.0653
1427.00,0.0626
1426.00,0.0601
1425.00,0.0580
1424.00,0.0562
1423.00,0.0546
1422.00,0.0532
1421.00,0.0521
1420.00,0.0513
1419.00,0.0510
1418.00,0.0508
1417.00,0.0506
1416.00,0.0502
1415.00,0.0500
1414.00,0.0498
1413.00,0.0498
1412.00,0.0499
1411.00,0.0501
1410.00,0.0504
1409.00,0.0507
1408.00,0.0509
1407.00,0.0513
1406.00,0.0518
1405.00,0.0524
1404.00,0.0530
1403.00,0.0534
1402.00,0.0535
1401.00,0.0536
1400.00,0.0536
1399.00,0.0536
1398.00,0.0535
1397.00,0.0530
1396.00,0.0525
1395.00,0.0519
1394.00,0.0513
1393.00,0.0505
1392.00,0.0496
1391.00,0.0487
1390.00,0.0478
1389.00,0.0472
1388.00,0.0467
1387.00,0.0465
1386.00,0.0466
1385.00,0.0469
1384.00,0.0477
1383.00,0.0492
1382.00,0.0515
1381.00,0.0543
1380.00,0.0574
1379.00,0.0601
1378.00,0.0619
1377.00,0.0627
1376.00,0.0623
1375.00,0.0610
1374.00,0.0591
1373.00,0.0573
1372.00,0.0559
1371.00,0.0553
1370.00,0.0555
1369.00,0.0561
1368.00,0.0569
1367.00,0.0571
1366.00,0.0568
1365.00,0.0560
1364.00,0.0549
1363.00,0.0540
1362.00,0.0532
1361.00,0.0527
1360.00,0.0525
1359.00,0.0527
1358.00,0.0533
1357.00,0.0545
1356.00,0.0562
1355.00,0.0583
1354.00,0.0606
1353.00,0.0629
1352.00,0.0648
1351.00,0.0663
1350.00,0.0672
1349.00,0.0672
1348.00,0.0665
1347.00,0.0650
1346.00,0.0632
1345.00,0.0613
1344.00,0.0596
1343.00,0.0583
1342.00,0.0575
1341.00,0.0573
1340.00,0.0579
1339.00,0.0589
1338.00,0.0601
1337.00,0.0612
1336.00,0.0617
1335.00,0.0616
1334.00,0.0606
1333.00,0.0590
1332.00,0.0572
1331.00,0.0556
1330.00,0.0547
1329.00,0.0546
1328.00,0.0554
1327.00,0.0570
1326.00,0.0594
1325.00,0.0626
1324.00,0.0664
1323.00,0.0706
1322.00,0.0749
1321.00,0.0787
1320.00,0.0816
1319.00,0.0829
1318.00,0.0821
1317.00,0.0795
1316.00,0.0756
1315.00,0.0711
1314.00,0.0667
1313.00,0.0626
1312.00,0.0593
1311.00,0.0567
1310.00,0.0550
1309.00,0.0542
1308.00,0.0543
1307.00,0.0548
1306.00,0.0554
1305.00,0.0556
1304.00,0.0552
1303.00,0.0541
1302.00,0.0526
1301.00,0.0513
1300.00,0.0503
1299.00,0.0499
1298.00,0.0499
1297.00,0.0503
1296.00,0.0509
1295.00,0.0516
1294.00,0.0525
1293.00,0.0537
1292.00,0.0553
1291.00,0.0573
1290.00,0.0596
1289.00,0.0619
1288.00,0.0641
1287.00,0.0661
1286.00,0.0681
1285.00,0.0702
1284.00,0.0725
1283.00,0.0748
1282.00,0.0767
1281.00,0.0779
1280.00,0.0778
1279.00,0.0763
1278.00,0.0734
1277.00,0.0695
1276.00,0.0652
1275.00,0.0607
1274.00,0.0564
1273.00,0.0525
1272.00,0.0491
1271.00,0.0461
1270.00,0.0434
1269.00,0.0411
1268.00,0.0390
1267.00,0.0372
1266.00,0.0356
1265.00,0.0343
1264.00,0.0332
1263.00,0.0325
1262.00,0.0320
1261.00,0.0318
1260.00,0.0319
1259.00,0.0325
1258.00,0.0336
1257.00,0.0352
1256.00,0.0375
1255.00,0.0400
1254.00,0.0426
1253.00,0.0448
1252.00,0.0465
1251.00,0.0478
1250.00,0.0490
1249.00,0.0509
1248.00,0.0536
1247.00,0.0569
1246.00,0.0602
1245.00,0.0628
1244.00,0.0642
1243.00,0.0638
1242.00,0.0619
1241.00,0.0587
1240.00,0.0549
1239.00,0.0509
1238.00,0.0472
1237.00,0.0440
1236.00,0.0414
1235.00,0.0395
1234.00,0.0384
1233.00,0.0381
1232.00,0.0387
1231.00,0.0399
1230.00,0.0414
1229.00,0.0425
1228.00,0.0428
1227.00,0.0421
1226.00,0.0407
1225.00,0.0392
1224.00,0.0378
1223.00,0.0371
1222.00,0.0370
1221.00,0.0375
1220.00,0.0383
1219.00,0.0387
1218.00,0.0385
1217.00,0.0376
1216.00,0.0362
1215.00,0.0349
1214.00,0.0339
1213.00,0.0338
1212.00,0.0347
1211.00,0.0370
1210.00,0.0408
1209.00,0.0461
1208.00,0.0522
1207.00,0.0579
1206.00,0.0617
1205.00,0.0625
1204.00,0.0605
1203.00,0.0563
1202.00,0.0511
1201.00,0.0456
1200.00,0.0407
1199.00,0.0365
1198.00,0.0332
1197.00,0.0306
1196.00,0.0287
1195.00,0.0275
1194.00,0.0268
1193.00,0.0266
1192.00,0.0267
1191.00,0.0271
1190.00,0.0274
1189.00,0.0275
1188.00,0.0274
1187.00,0.0272
1186.00,0.0269
1185.00,0.0266
1184.00,0.0264
1183.00,0.0264
1182.00,0.0268
1181.00,0.0278
1180.00,0.0295
1179.00,0.0320
1178.00,0.0354
1177.00,0.0393
1176.00,0.0436
1175.00,0.0480
1174.00,0.0523
1173.00,0.0560
1172.00,0.0584
1171.00,0.0587
1170.00,0.0569
1169.00,0.0534
1168.00,0.0491
1167.00,0.0447
1166.00,0.0406
1165.00,0.0370
1164.00,0.0341
1163.00,0.0318
1162.00,0.0300
1161.00,0.0287
1160.00,0.0279
1159.00,0.0274
1158.00,0.0271
1157.00,0.0272
1156.00,0.0276
1155.00,0.0284
1154.00,0.0300
1153.00,0.0327
1152.00,0.0368
1151.00,0.0419
1150.00,0.0466
1149.00,0.0495
1148.00,0.0490
1147.00,0.0451
1146.00,0.0391
1145.00,0.0328
1144.00,0.0274
1143.00,0.0235
1142.00,0.0208
1141.00,0.0193
1140.00,0.0184
1139.00,0.0179
1138.00,0.0176
1137.00,0.0174
1136.00,0.0172
1135.00,0.0169
1134.00,0.0165
1133.00,0.0159
1132.00,0.0153
1131.00,0.0146
1130.00,0.0140
1129.00,0.0135
1128.00,0.0130
1127.00,0.0127
1126.00,0.0123
1125.00,0.0121
1124.00,0.0119
1123.00,0.0118
1122.00,0.0117
1121.00,0.0117
1120.00,0.0117
1119.00,0.0118
1118.00,0.0119
1117.00,0.0120
1116.00,0.0122
1115.00,0.0124
1114.00,0.0127
1113.00,0.0131
1112.00,0.0135
1111.00,0.0141
1110.00,0.0147
1109.00,0.0153
1108.00,0.0160
1107.00,0.0167
1106.00,0.0175
1105.00,0.0183
1104.00,0.0193
1103.00,0.0203
1102.00,0.0213
1101.00,0.0221
1100.00,0.0227
1099.00,0.0227
1098.00,0.0221
1097.00,0.0213
1096.00,0.0203
1095.00,0.0193
1094.00,0.0185
1093.00,0.0178
1092.00,0.0173
1091.00,0.0168
1090.00,0.0163
1089.00,0.0160
1088.00,0.0158
1087.00,0.0158
1086.00,0.0159
1085.00,0.0161
1084.00,0.0164
1083.00,0.0167
1082.00,0.0168
1081.00,0.0168
1080.00,0.0167
1079.00,0.0164
1078.00,0.0160
1077.00,0.0155
1076.00,0.0150
1075.00,0.0147
1074.00,0.0144
1073.00,0.0142
1072.00,0.0141
1071.00,0.0141
1070.00,0.0142
1069.00,0.0145
1068.00,0.0150
1067.00,0.0157
1066.00,0.0166
1065.00,0.0178
1064.00,0.0194
1063.00,0.0214
1062.00,0.0238
1061.00,0.0269
1060.00,0.0305
1059.00,0.0349
1058.00,0.0401
1057.00,0.0460
1056.00,0.0521
1055.00,0.0573
1054.00,0.0601
1053.00,0.0598
1052.00,0.0566
1051.00,0.0515
1050.00,0.0461
1049.00,0.0415
1048.00,0.0383
1047.00,0.0365
1046.00,0.0358
1045.00,0.0361
1044.00,0.0371
1043.00,0.0386
1042.00,0.0408
1041.00,0.0436
1040.00,0.0472
1039.00,0.0516
1038.00,0.0566
1037.00,0.0622
1036.00,0.0679
1035.00,0.0729
1034.00,0.0766
1033.00,0.0787
1032.00,0.0789
1031.00,0.0774
1030.00,0.0742
1029.00,0.0696
1028.00,0.0640
1027.00,0.0580
1026.00,0.0520
1025.00,0.0466
1024.00,0.0422
1023.00,0.0387
1022.00,0.0359
1021.00,0.0337
1020.00,0.0319
1019.00,0.0303
1018.00,0.0287
1017.00,0.0273
1016.00,0.0260
1015.00,0.0249
1014.00,0.0240
1013.00,0.0233
1012.00,0.0228
1011.00,0.0224
1010.00,0.0219
1009.00,0.0214
1008.00,0.0208
1007.00,0.0200
1006.00,0.0194
1005.00,0.0191
1004.00,0.0194
1003.00,0.0204
1002.00,0.0220
1001.00,0.0240
1000.00,0.0258
999.00,0.0268
998.00,0.0265
997.00,0.0250
996.00,0.0231
995.00,0.0212
994.00,0.0198
993.00,0.0190
992.00,0.0187
991.00,0.0187
990.00,0.0188
989.00,0.0191
988.00,0.0194
987.00,0.0197
986.00,0.0199
985.00,0.0199
984.00,0.0196
983.00,0.0190
982.00,0.0183
981.00,0.0176
980.00,0.0169
979.00,0.0164
978.00,0.0159
977.00,0.0155
976.00,0.0153
975.00,0.0152
974.00,0.0152
973.00,0.0154
972.00,0.0157
971.00,0.0160
970.00,0.0163
969.00,0.0166
968.00,0.0169
967.00,0.0173
966.00,0.0179
965.00,0.0188
964.00,0.0200
963.00,0.0215
962.00,0.0229
961.00,0.0241
960.00,0.0249
959.00,0.0253
958.00,0.0253
957.00,0.0250
956.00,0.0244
955.00,0.0238
954.00,0.0233
953.00,0.0229
952.00,0.0226
951.00,0.0224
950.00,0.0221
949.00,0.0219
948.00,0.0217
947.00,0.0216
946.00,0.0216
945.00,0.0218
944.00,0.0221
943.00,0.0224
942.00,0.0225
941.00,0.0224
940.00,0.0220
939.00,0.0215
938.00,0.0208
937.00,0.0202
936.00,0.0198
935.00,0.0195
934.00,0.0194
933.00,0.0195
932.00,0.0198
931.00,0.0202
930.00,0.0208
929.00,0.0214
928.00,0.0221
927.00,0.0228
926.00,0.0233
925.00,0.0239
924.00,0.0244
923.00,0.0250
922.00,0.0258
921.00,0.0269
920.00,0.0282
919.00,0.0295
918.00,0.0307
917.00,0.0317
916.00,0.0327
915.00,0.0334
914.00,0.0336
913.00,0.0331
912.00,0.0319
911.00,0.0303
910.00,0.0288
909.00,0.0278
908.00,0.0276
907.00,0.0281
906.00,0.0293
905.00,0.0311
904.00,0.0330
903.00,0.0346
902.00,0.0356
901.00,0.0359
900.00,0.0356
899.00,0.0348
898.00,0.0339
897.00,0.0334
896.00,0.0340
895.00,0.0360
894.00,0.0402
893.00,0.0470
892.00,0.0564
891.00,0.0663
890.00,0.0735
889.00,0.0761
888.00,0.0747
887.00,0.0722
886.00,0.0709
885.00,0.0708
884.00,0.0699
883.00,0.0665
882.00,0.0609
881.00,0.0545
880.00,0.0490
879.00,0.0448
878.00,0.0420
877.00,0.0402
876.00,0.0389
875.00,0.0379
874.00,0.0371
873.00,0.0367
872.00,0.0367
871.00,0.0370
870.00,0.0377
869.00,0.0388
868.00,0.0405
867.00,0.0430
866.00,0.0465
865.00,0.0512
864.00,0.0566
863.00,0.0619
862.00,0.0661
861.00,0.0686
860.00,0.0694
859.00,0.0693
858.00,0.0689
857.00,0.0685
856.00,0.0680
855.00,0.0667
854.00,0.0645
853.00,0.0618
852.00,0.0590
851.00,0.0566
850.00,0.0549
849.00,0.0540
848.00,0.0538
847.00,0.0543
846.00,0.0551
845.00,0.0562
844.00,0.0572
843.00,0.0578
842.00,0.0581
841.00,0.0584
840.00,0.0588
839.00,0.0590
838.00,0.0582
837.00,0.0562
836.00,0.0533
835.00,0.0500
834.00,0.0470
833.00,0.0447
832.00,0.0434
831.00,0.0430
830.00,0.0431
829.00,0.0433
828.00,0.0431
827.00,0.0420
826.00,0.0399
825.00,0.0372
824.00,0.0346
823.00,0.0323
822.00,0.0305
821.00,0.0291
820.00,0.0280
819.00,0.0271
818.00,0.0262
817.00,0.0257
816.00,0.0254
815.00,0.0254
814.00,0.0255
813.00,0.0260
812.00,0.0266
811.00,0.0274
810.00,0.0284
809.00,0.0301
808.00,0.0327
807.00,0.0361
806.00,0.0399
805.00,0.0432
804.00,0.0450
803.00,0.0450
802.00,0.0437
801.00,0.0423
800.00,0.0417
799.00,0.0421
798.00,0.0434
797.00,0.0451
796.00,0.0466
795.00,0.0473
794.00,0.0466
793.00,0.0446
792.00,0.0419
791.00,0.0389
790.00,0.0362
789.00,0.0339
788.00,0.0324
787.00,0.0313
786.00,0.0305
785.00,0.0299
784.00,0.0294
783.00,0.0290
782.00,0.0286
781.00,0.0284
780.00,0.0283
779.00,0.0284
778.00,0.0287
777.00,0.0290
776.00,0.0296
775.00,0.0303
774.00,0.0311
773.00,0.0318
772.00,0.0325
771.00,0.0330
770.00,0.0332
769.00,0.0332
768.00,0.0329
767.00,0.0325
766.00,0.0319
765.00,0.0312
764.00,0.0305
763.00,0.0298
762.00,0.0293
761.00,0.0288
760.00,0.0285
759.00,0.0284
758.00,0.0283
757.00,0.0283
756.00,0.0284
755.00,0.0284
754.00,0.0279
753.00,0.0271
752.00,0.0259
751.00,0.0247
750.00,0.0236
749.00,0.0230
748.00,0.0227
747.00,0.0228
746.00,0.0230
745.00,0.0233
744.00,0.0238
743.00,0.0243
742.00,0.0250
741.00,0.0258
740.00,0.0269
739.00,0.0283
738.00,0.0298
737.00,0.0316
736.00,0.0337
735.00,0.0358
734.00,0.0375
733.00,0.0384
732.00,0.0381
731.00,0.0366
730.00,0.0344
729.00,0.0321
728.00,0.0303
727.00,0.0289
726.00,0.0279
725.00,0.0272
724.00,0.0267
723.00,0.0263
722.00,0.0259
721.00,0.0256
720.00,0.0255
719.00,0.0254
718.00,0.0254
717.00,0.0254
716.00,0.0254
715.00,0.0256
714.00,0.0257
713.00,0.0258
712.00,0.0259
711.00,0.0259
710.00,0.0257
709.00,0.0255
708.00,0.0254
707.00,0.0253
706.00,0.0251
705.00,0.0250
704.00,0.0250
703.00,0.0251
702.00,0.0251
701.00,0.0251
700.00,0.0253
699.00,0.0255
698.00,0.0257
697.00,0.0259
696.00,0.0261
695.00,0.0264
694.00,0.0267
693.00,0.0270
692.00,0.0274
691.00,0.0280
690.00,0.0285
689.00,0.0292
688.00,0.0300
687.00,0.0309
686.00,0.0318
685.00,0.0328
684.00,0.0339
683.00,0.0349
682.00,0.0358
681.00,0.0366
680.00,0.0372
679.00,0.0377
678.00,0.0378
677.00,0.0377
676.00,0.0376
675.00,0.0373
674.00,0.0370
673.00,0.0368
672.00,0.0367
671.00,0.0367
670.00,0.0366
669.00,0.0362
668.00,0.0352
667.00,0.0336
666.00,0.0316
665.00,0.0298
664.00,0.0284
663.00,0.0273
662.00,0.0266
661.00,0.0263
660.00,0.0261
659.00,0.0259
658.00,0.0256
657.00,0.0253
656.00,0.0252
655.00,0.0253
654.00,0.0255
653.00,0.0258
652.00,0.0264
651.00,0.0269
650.00,0.0271
649.00,0.0272
648.00,0.0271
647.00,0.0268
646.00,0.0263
645.00,0.0259
644.00,0.0258
643.00,0.0258
642.00,0.0258
641.00,0.0260
640.00,0.0264
639.00,0.0268
638.00,0.0273
637.00,0.0277
636.00,0.0283
635.00,0.0288
634.00,0.0291
633.00,0.0292
632.00,0.0291
631.00,0.0288
630.00,0.0282
629.00,0.0276
628.00,0.0272
627.00,0.0267
626.00,0.0262
625.00,0.0257
624.00,0.0254
623.00,0.0251
622.00,0.0249
621.00,0.0249
620.00,0.0253
619.00,0.0260
618.00,0.0269
617.00,0.0281
616.00,0.0293
615.00,0.0300
614.00,0.0301
613.00,0.0298
612.00,0.0293
611.00,0.0288
610.00,0.0283
609.00,0.0280
608.00,0.0279
607.00,0.0277
606.00,0.0274
605.00,0.0270
604.00,0.0267
603.00,0.0263
602.00,0.0260
601.00,0.0257
600.00,0.0256
599.00,0.0257
598.00,0.0258
597.00,0.0262
596.00,0.0267
595.00,0.0271
594.00,0.0272
593.00,0.0271
592.00,0.0270
591.00,0.0268
590.00,0.0264
589.00,0.0262
588.00,0.0262
587.00,0.0263
586.00,0.0266
585.00,0.0272
584.00,0.0287
583.00,0.0311
582.00,0.0347
581.00,0.0393
580.00,0.0442
579.00,0.0476
578.00,0.0480
577.00,0.0454
576.00,0.0408
575.00,0.0356
574.00,0.0310
573.00,0.0275
572.00,0.0253
571.00,0.0238
570.00,0.0228
569.00,0.0221
568.00,0.0217
567.00,0.0215
566.00,0.0213
565.00,0.0213
564.00,0.0217
563.00,0.0223
562.00,0.0230
561.00,0.0238
560.00,0.0249
559.00,0.0262
558.00,0.0279
557.00,0.0305
556.00,0.0344
555.00,0.0394
554.00,0.0446
553.00,0.0487
552.00,0.0505
551.00,0.0493
550.00,0.0455
549.00,0.0408
548.00,0.0368
547.00,0.0341
546.00,0.0325
545.00,0.0320
544.00,0.0322
543.00,0.0324
542.00,0.0325
541.00,0.0330
540.00,0.0345
539.00,0.0369
538.00,0.0401
537.00,0.0438
536.00,0.0471
535.00,0.0486
534.00,0.0473
533.00,0.0440
532.00,0.0399
531.00,0.0362
530.00,0.0341
529.00,0.0342
528.00,0.0363
527.00,0.0391
526.00,0.0409
525.00,0.0411
524.00,0.0405
523.00,0.0396
522.00,0.0382
521.00,0.0363
520.00,0.0338
519.00,0.0309
518.00,0.0280
517.00,0.0260
516.00,0.0250
515.00,0.0246
514.00,0.0243
513.00,0.0244
512.00,0.0248
511.00,0.0254
510.00,0.0259
509.00,0.0266
508.00,0.0277
507.00,0.0290
506.00,0.0304
505.00,0.0321
504.00,0.0342
503.00,0.0366
502.00,0.0390
501.00,0.0416
500.00,0.0447
499.00,0.0479
498.00,0.0510
497.00,0.0544
496.00,0.0581
495.00,0.0616
494.00,0.0646
493.00,0.0673
492.00,0.0700
491.00,0.0721
490.00,0.0733
489.00,0.0739
488.00,0.0742
487.00,0.0740
486.00,0.0733
485.00,0.0725
484.00,0.0723
483.00,0.0722
482.00,0.0718
481.00,0.0716
480.00,0.0717
479.00,0.0718
478.00,0.0717
477.00,0.0717
476.00,0.0722
475.00,0.0726
474.00,0.0722
473.00,0.0715
472.00,0.0709
471.00,0.0704
470.00,0.0696
469.00,0.0692
468.00,0.0694
467.00,0.0695
466.00,0.0691
465.00,0.0684
464.00,0.0674
463.00,0.0654
462.00,0.0623
461.00,0.0591
460.00,0.0567
459.00,0.0548
458.00,0.0528
457.00,0.0512
456.00,0.0505
455.00,0.0501
454.00,0.0497
453.00,0.0496
452.00,0.0496
451.00,0.0493
450.00,0.0483
449.00,0.0473
448.00,0.0468
447.00,0.0464
446.00,0.0457
445.00,0.0453
444.00,0.0452
443.00,0.0449
442.00,0.0439
441.00,0.0432
440.00,0.0433
439.00,0.0437
438.00,0.0439
437.00,0.0440
436.00,0.0442
435.00,0.0437
434.00,0.0421
433.00,0.0404
432.00,0.0391
431.00,0.0377
430.00,0.0361
429.00,0.0350
428.00,0.0349
427.00,0.0348
426.00,0.0341
425.00,0.0334
424.00,0.0334
423.00,0.0335
422.00,0.0329
421.00,0.0325
420.00,0.0332
419.00,0.0339
418.00,0.0335
417.00,0.0326
416.00,0.0321
415.00,0.0312
414.00,0.0298
413.00,0.0290
412.00,0.0294
411.00,0.0295
410.00,0.0286
409.00,0.0278
408.00,0.0282
407.00,0.0289
406.00,0.0286
405.00,0.0283
404.00,0.0291
403.00,0.0300
402.00,0.0302
401.00,0.0305
400.00,0.0320
