Created as New Dataset,Sample 572 By YargerLab Date Thursday, June 05 2025
cm-1,A
4000.00,0.0008
3999.00,0.0007
3998.00,0.0007
3997.00,0.0007
3996.00,0.0007
3995.00,0.0007
3994.00,0.0007
3993.00,0.0007
3992.00,0.0007
3991.00,0.0007
3990.00,0.0007
3989.00,0.0007
3988.00,0.0007
3987.00,0.0007
3986.00,0.0007
3985.00,0.0007
3984.00,0.0007
3983.00,0.0007
3982.00,0.0007
3981.00,0.0007
3980.00,0.0007
3979.00,0.0007
3978.00,0.0007
3977.00,0.0008
3976.00,0.0008
3975.00,0.0008
3974.00,0.0007
3973.00,0.0007
3972.00,0.0007
3971.00,0.0007
3970.00,0.0007
3969.00,0.0007
3968.00,0.0007
3967.00,0.0007
3966.00,0.0007
3965.00,0.0007
3964.00,0.0007
3963.00,0.0008
3962.00,0.0007
3961.00,0.0007
3960.00,0.0007
3959.00,0.0007
3958.00,0.0007
3957.00,0.0007
3956.00,0.0007
3955.00,0.0007
3954.00,0.0007
3953.00,0.0007
3952.00,0.0007
3951.00,0.0007
3950.00,0.0007
3949.00,0.0007
3948.00,0.0007
3947.00,0.0007
3946.00,0.0007
3945.00,0.0007
3944.00,0.0007
3943.00,0.0007
3942.00,0.0006
3941.00,0.0006
3940.00,0.0007
3939.00,0.0007
3938.00,0.0007
3937.00,0.0007
3936.00,0.0007
3935.00,0.0007
3934.00,0.0007
3933.00,0.0007
3932.00,0.0007
3931.00,0.0006
3930.00,0.0006
3929.00,0.0007
3928.00,0.0007
3927.00,0.0007
3926.00,0.0007
3925.00,0.0006
3924.00,0.0006
3923.00,0.0006
3922.00,0.0007
3921.00,0.0007
3920.00,0.0007
3919.00,0.0007
3918.00,0.0007
3917.00,0.0007
3916.00,0.0007
3915.00,0.0006
3914.00,0.0006
3913.00,0.0006
3912.00,0.0006
3911.00,0.0007
3910.00,0.0007
3909.00,0.0007
3908.00,0.0006
3907.00,0.0006
3906.00,0.0006
3905.00,0.0006
3904.00,0.0006
3903.00,0.0006
3902.00,0.0006
3901.00,0.0006
3900.00,0.0006
3899.00,0.0006
3898.00,0.0006
3897.00,0.0006
3896.00,0.0006
3895.00,0.0006
3894.00,0.0006
3893.00,0.0006
3892.00,0.0006
3891.00,0.0006
3890.00,0.0006
3889.00,0.0006
3888.00,0.0006
3887.00,0.0006
3886.00,0.0006
3885.00,0.0005
3884.00,0.0005
3883.00,0.0005
3882.00,0.0005
3881.00,0.0005
3880.00,0.0005
3879.00,0.0006
3878.00,0.0006
3877.00,0.0006
3876.00,0.0007
3875.00,0.0006
3874.00,0.0006
3873.00,0.0006
3872.00,0.0006
3871.00,0.0006
3870.00,0.0006
3869.00,0.0006
3868.00,0.0006
3867.00,0.0006
3866.00,0.0006
3865.00,0.0006
3864.00,0.0005
3863.00,0.0005
3862.00,0.0005
3861.00,0.0005
3860.00,0.0005
3859.00,0.0005
3858.00,0.0005
3857.00,0.0006
3856.00,0.0007
3855.00,0.0007
3854.00,0.0008
3853.00,0.0007
3852.00,0.0007
3851.00,0.0006
3850.00,0.0006
3849.00,0.0006
3848.00,0.0005
3847.00,0.0005
3846.00,0.0005
3845.00,0.0005
3844.00,0.0005
3843.00,0.0005
3842.00,0.0005
3841.00,0.0005
3840.00,0.0005
3839.00,0.0005
3838.00,0.0005
3837.00,0.0005
3836.00,0.0005
3835.00,0.0005
3834.00,0.0005
3833.00,0.0005
3832.00,0.0005
3831.00,0.0005
3830.00,0.0005
3829.00,0.0006
3828.00,0.0006
3827.00,0.0005
3826.00,0.0005
3825.00,0.0005
3824.00,0.0006
3823.00,0.0006
3822.00,0.0005
3821.00,0.0005
3820.00,0.0005
3819.00,0.0005
3818.00,0.0005
3817.00,0.0005
3816.00,0.0005
3815.00,0.0005
3814.00,0.0005
3813.00,0.0006
3812.00,0.0006
3811.00,0.0006
3810.00,0.0006
3809.00,0.0006
3808.00,0.0006
3807.00,0.0005
3806.00,0.0005
3805.00,0.0005
3804.00,0.0005
3803.00,0.0005
3802.00,0.0005
3801.00,0.0005
3800.00,0.0005
3799.00,0.0005
3798.00,0.0005
3797.00,0.0005
3796.00,0.0005
3795.00,0.0005
3794.00,0.0005
3793.00,0.0006
3792.00,0.0006
3791.00,0.0005
3790.00,0.0005
3789.00,0.0005
3788.00,0.0005
3787.00,0.0006
3786.00,0.0006
3785.00,0.0006
3784.00,0.0006
3783.00,0.0006
3782.00,0.0006
3781.00,0.0006
3780.00,0.0006
3779.00,0.0006
3778.00,0.0006
3777.00,0.0006
3776.00,0.0006
3775.00,0.0007
3774.00,0.0007
3773.00,0.0007
3772.00,0.0006
3771.00,0.0006
3770.00,0.0006
3769.00,0.0006
3768.00,0.0006
3767.00,0.0006
3766.00,0.0006
3765.00,0.0006
3764.00,0.0006
3763.00,0.0006
3762.00,0.0005
3761.00,0.0006
3760.00,0.0006
3759.00,0.0006
3758.00,0.0006
3757.00,0.0006
3756.00,0.0006
3755.00,0.0005
3754.00,0.0005
3753.00,0.0005
3752.00,0.0005
3751.00,0.0006
3750.00,0.0006
3749.00,0.0006
3748.00,0.0006
3747.00,0.0006
3746.00,0.0006
3745.00,0.0006
3744.00,0.0006
3743.00,0.0006
3742.00,0.0005
3741.00,0.0005
3740.00,0.0005
3739.00,0.0005
3738.00,0.0005
3737.00,0.0005
3736.00,0.0005
3735.00,0.0004
3734.00,0.0004
3733.00,0.0005
3732.00,0.0005
3731.00,0.0005
3730.00,0.0006
3729.00,0.0006
3728.00,0.0006
3727.00,0.0006
3726.00,0.0006
3725.00,0.0006
3724.00,0.0006
3723.00,0.0006
3722.00,0.0006
3721.00,0.0006
3720.00,0.0006
3719.00,0.0006
3718.00,0.0006
3717.00,0.0006
3716.00,0.0006
3715.00,0.0006
3714.00,0.0007
3713.00,0.0007
3712.00,0.0007
3711.00,0.0007
3710.00,0.0007
3709.00,0.0007
3708.00,0.0007
3707.00,0.0007
3706.00,0.0007
3705.00,0.0007
3704.00,0.0007
3703.00,0.0007
3702.00,0.0007
3701.00,0.0007
3700.00,0.0007
3699.00,0.0007
3698.00,0.0008
3697.00,0.0008
3696.00,0.0008
3695.00,0.0008
3694.00,0.0008
3693.00,0.0008
3692.00,0.0008
3691.00,0.0009
3690.00,0.0009
3689.00,0.0009
3688.00,0.0009
3687.00,0.0010
3686.00,0.0010
3685.00,0.0010
3684.00,0.0011
3683.00,0.0011
3682.00,0.0011
3681.00,0.0011
3680.00,0.0011
3679.00,0.0011
3678.00,0.0012
3677.00,0.0012
3676.00,0.0012
3675.00,0.0012
3674.00,0.0012
3673.00,0.0013
3672.00,0.0014
3671.00,0.0014
3670.00,0.0015
3669.00,0.0016
3668.00,0.0017
3667.00,0.0017
3666.00,0.0017
3665.00,0.0018
3664.00,0.0018
3663.00,0.0019
3662.00,0.0020
3661.00,0.0020
3660.00,0.0021
3659.00,0.0021
3658.00,0.0022
3657.00,0.0022
3656.00,0.0023
3655.00,0.0023
3654.00,0.0023
3653.00,0.0024
3652.00,0.0024
3651.00,0.0025
3650.00,0.0026
3649.00,0.0027
3648.00,0.0029
3647.00,0.0030
3646.00,0.0031
3645.00,0.0031
3644.00,0.0032
3643.00,0.0032
3642.00,0.0033
3641.00,0.0034
3640.00,0.0034
3639.00,0.0035
3638.00,0.0036
3637.00,0.0037
3636.00,0.0038
3635.00,0.0038
3634.00,0.0039
3633.00,0.0039
3632.00,0.0040
3631.00,0.0041
3630.00,0.0042
3629.00,0.0044
3628.00,0.0046
3627.00,0.0047
3626.00,0.0048
3625.00,0.0048
3624.00,0.0048
3623.00,0.0048
3622.00,0.0048
3621.00,0.0048
3620.00,0.0050
3619.00,0.0051
3618.00,0.0053
3617.00,0.0054
3616.00,0.0055
3615.00,0.0056
3614.00,0.0057
3613.00,0.0058
3612.00,0.0059
3611.00,0.0060
3610.00,0.0061
3609.00,0.0062
3608.00,0.0064
3607.00,0.0065
3606.00,0.0066
3605.00,0.0066
3604.00,0.0067
3603.00,0.0068
3602.00,0.0069
3601.00,0.0070
3600.00,0.0071
3599.00,0.0072
3598.00,0.0073
3597.00,0.0074
3596.00,0.0075
3595.00,0.0075
3594.00,0.0076
3593.00,0.0078
3592.00,0.0078
3591.00,0.0079
3590.00,0.0080
3589.00,0.0082
3588.00,0.0084
3587.00,0.0085
3586.00,0.0087
3585.00,0.0088
3584.00,0.0089
3583.00,0.0090
3582.00,0.0091
3581.00,0.0092
3580.00,0.0093
3579.00,0.0094
3578.00,0.0095
3577.00,0.0096
3576.00,0.0097
3575.00,0.0099
3574.00,0.0100
3573.00,0.0100
3572.00,0.0101
3571.00,0.0102
3570.00,0.0102
3569.00,0.0103
3568.00,0.0104
3567.00,0.0106
3566.00,0.0108
3565.00,0.0109
3564.00,0.0111
3563.00,0.0112
3562.00,0.0113
3561.00,0.0114
3560.00,0.0115
3559.00,0.0116
3558.00,0.0118
3557.00,0.0119
3556.00,0.0120
3555.00,0.0121
3554.00,0.0122
3553.00,0.0124
3552.00,0.0125
3551.00,0.0126
3550.00,0.0128
3549.00,0.0128
3548.00,0.0129
3547.00,0.0130
3546.00,0.0132
3545.00,0.0133
3544.00,0.0135
3543.00,0.0136
3542.00,0.0137
3541.00,0.0138
3540.00,0.0139
3539.00,0.0140
3538.00,0.0141
3537.00,0.0142
3536.00,0.0144
3535.00,0.0145
3534.00,0.0146
3533.00,0.0147
3532.00,0.0147
3531.00,0.0148
3530.00,0.0149
3529.00,0.0151
3528.00,0.0152
3527.00,0.0153
3526.00,0.0154
3525.00,0.0156
3524.00,0.0157
3523.00,0.0158
3522.00,0.0159
3521.00,0.0160
3520.00,0.0161
3519.00,0.0162
3518.00,0.0163
3517.00,0.0164
3516.00,0.0165
3515.00,0.0166
3514.00,0.0167
3513.00,0.0168
3512.00,0.0169
3511.00,0.0171
3510.00,0.0172
3509.00,0.0174
3508.00,0.0175
3507.00,0.0176
3506.00,0.0176
3505.00,0.0177
3504.00,0.0179
3503.00,0.0180
3502.00,0.0182
3501.00,0.0183
3500.00,0.0184
3499.00,0.0185
3498.00,0.0185
3497.00,0.0186
3496.00,0.0188
3495.00,0.0189
3494.00,0.0190
3493.00,0.0192
3492.00,0.0193
3491.00,0.0194
3490.00,0.0195
3489.00,0.0196
3488.00,0.0197
3487.00,0.0198
3486.00,0.0199
3485.00,0.0200
3484.00,0.0201
3483.00,0.0202
3482.00,0.0204
3481.00,0.0205
3480.00,0.0206
3479.00,0.0207
3478.00,0.0208
3477.00,0.0209
3476.00,0.0210
3475.00,0.0212
3474.00,0.0213
3473.00,0.0214
3472.00,0.0216
3471.00,0.0217
3470.00,0.0218
3469.00,0.0219
3468.00,0.0220
3467.00,0.0222
3466.00,0.0223
3465.00,0.0224
3464.00,0.0225
3463.00,0.0226
3462.00,0.0228
3461.00,0.0229
3460.00,0.0230
3459.00,0.0231
3458.00,0.0232
3457.00,0.0233
3456.00,0.0234
3455.00,0.0235
3454.00,0.0236
3453.00,0.0237
3452.00,0.0238
3451.00,0.0239
3450.00,0.0241
3449.00,0.0242
3448.00,0.0243
3447.00,0.0245
3446.00,0.0246
3445.00,0.0247
3444.00,0.0248
3443.00,0.0248
3442.00,0.0250
3441.00,0.0251
3440.00,0.0252
3439.00,0.0254
3438.00,0.0255
3437.00,0.0256
3436.00,0.0258
3435.00,0.0258
3434.00,0.0259
3433.00,0.0261
3432.00,0.0262
3431.00,0.0263
3430.00,0.0264
3429.00,0.0266
3428.00,0.0267
3427.00,0.0268
3426.00,0.0269
3425.00,0.0270
3424.00,0.0271
3423.00,0.0273
3422.00,0.0274
3421.00,0.0275
3420.00,0.0277
3419.00,0.0278
3418.00,0.0279
3417.00,0.0280
3416.00,0.0282
3415.00,0.0283
3414.00,0.0284
3413.00,0.0285
3412.00,0.0287
3411.00,0.0288
3410.00,0.0289
3409.00,0.0290
3408.00,0.0291
3407.00,0.0292
3406.00,0.0293
3405.00,0.0294
3404.00,0.0295
3403.00,0.0296
3402.00,0.0298
3401.00,0.0299
3400.00,0.0300
3399.00,0.0302
3398.00,0.0303
3397.00,0.0304
3396.00,0.0306
3395.00,0.0307
3394.00,0.0308
3393.00,0.0309
3392.00,0.0310
3391.00,0.0312
3390.00,0.0313
3389.00,0.0314
3388.00,0.0316
3387.00,0.0317
3386.00,0.0319
3385.00,0.0320
3384.00,0.0321
3383.00,0.0323
3382.00,0.0324
3381.00,0.0325
3380.00,0.0326
3379.00,0.0328
3378.00,0.0329
3377.00,0.0331
3376.00,0.0332
3375.00,0.0334
3374.00,0.0335
3373.00,0.0337
3372.00,0.0338
3371.00,0.0339
3370.00,0.0340
3369.00,0.0342
3368.00,0.0344
3367.00,0.0346
3366.00,0.0348
3365.00,0.0350
3364.00,0.0352
3363.00,0.0354
3362.00,0.0355
3361.00,0.0357
3360.00,0.0359
3359.00,0.0361
3358.00,0.0363
3357.00,0.0365
3356.00,0.0367
3355.00,0.0369
3354.00,0.0370
3353.00,0.0372
3352.00,0.0373
3351.00,0.0375
3350.00,0.0377
3349.00,0.0380
3348.00,0.0382
3347.00,0.0384
3346.00,0.0386
3345.00,0.0388
3344.00,0.0389
3343.00,0.0391
3342.00,0.0394
3341.00,0.0396
3340.00,0.0398
3339.00,0.0400
3338.00,0.0403
3337.00,0.0405
3336.00,0.0408
3335.00,0.0411
3334.00,0.0414
3333.00,0.0417
3332.00,0.0420
3331.00,0.0422
3330.00,0.0425
3329.00,0.0427
3328.00,0.0430
3327.00,0.0432
3326.00,0.0435
3325.00,0.0438
3324.00,0.0441
3323.00,0.0445
3322.00,0.0448
3321.00,0.0452
3320.00,0.0455
3319.00,0.0458
3318.00,0.0462
3317.00,0.0465
3316.00,0.0468
3315.00,0.0471
3314.00,0.0475
3313.00,0.0478
3312.00,0.0481
3311.00,0.0484
3310.00,0.0487
3309.00,0.0491
3308.00,0.0494
3307.00,0.0498
3306.00,0.0502
3305.00,0.0506
3304.00,0.0511
3303.00,0.0515
3302.00,0.0520
3301.00,0.0524
3300.00,0.0528
3299.00,0.0532
3298.00,0.0535
3297.00,0.0538
3296.00,0.0542
3295.00,0.0545
3294.00,0.0549
3293.00,0.0553
3292.00,0.0558
3291.00,0.0562
3290.00,0.0567
3289.00,0.0571
3288.00,0.0574
3287.00,0.0578
3286.00,0.0581
3285.00,0.0584
3284.00,0.0587
3283.00,0.0590
3282.00,0.0592
3281.00,0.0595
3280.00,0.0597
3279.00,0.0599
3278.00,0.0600
3277.00,0.0601
3276.00,0.0602
3275.00,0.0602
3274.00,0.0602
3273.00,0.0602
3272.00,0.0602
3271.00,0.0602
3270.00,0.0602
3269.00,0.0602
3268.00,0.0601
3267.00,0.0600
3266.00,0.0598
3265.00,0.0596
3264.00,0.0593
3263.00,0.0591
3262.00,0.0588
3261.00,0.0585
3260.00,0.0581
3259.00,0.0578
3258.00,0.0574
3257.00,0.0570
3256.00,0.0566
3255.00,0.0562
3254.00,0.0559
3253.00,0.0556
3252.00,0.0552
3251.00,0.0548
3250.00,0.0544
3249.00,0.0539
3248.00,0.0535
3247.00,0.0532
3246.00,0.0529
3245.00,0.0526
3244.00,0.0523
3243.00,0.0521
3242.00,0.0518
3241.00,0.0514
3240.00,0.0511
3239.00,0.0508
3238.00,0.0504
3237.00,0.0500
3236.00,0.0496
3235.00,0.0492
3234.00,0.0489
3233.00,0.0487
3232.00,0.0485
3231.00,0.0484
3230.00,0.0482
3229.00,0.0480
3228.00,0.0478
3227.00,0.0476
3226.00,0.0474
3225.00,0.0472
3224.00,0.0469
3223.00,0.0467
3222.00,0.0464
3221.00,0.0462
3220.00,0.0460
3219.00,0.0458
3218.00,0.0457
3217.00,0.0455
3216.00,0.0453
3215.00,0.0451
3214.00,0.0449
3213.00,0.0448
3212.00,0.0446
3211.00,0.0444
3210.00,0.0443
3209.00,0.0441
3208.00,0.0439
3207.00,0.0437
3206.00,0.0436
3205.00,0.0434
3204.00,0.0432
3203.00,0.0431
3202.00,0.0429
3201.00,0.0427
3200.00,0.0426
3199.00,0.0424
3198.00,0.0423
3197.00,0.0422
3196.00,0.0420
3195.00,0.0419
3194.00,0.0417
3193.00,0.0415
3192.00,0.0413
3191.00,0.0411
3190.00,0.0410
3189.00,0.0408
3188.00,0.0407
3187.00,0.0405
3186.00,0.0404
3185.00,0.0403
3184.00,0.0401
3183.00,0.0399
3182.00,0.0397
3181.00,0.0396
3180.00,0.0394
3179.00,0.0393
3178.00,0.0391
3177.00,0.0390
3176.00,0.0389
3175.00,0.0387
3174.00,0.0386
3173.00,0.0384
3172.00,0.0383
3171.00,0.0381
3170.00,0.0379
3169.00,0.0378
3168.00,0.0377
3167.00,0.0375
3166.00,0.0374
3165.00,0.0372
3164.00,0.0371
3163.00,0.0369
3162.00,0.0368
3161.00,0.0366
3160.00,0.0365
3159.00,0.0364
3158.00,0.0362
3157.00,0.0360
3156.00,0.0358
3155.00,0.0356
3154.00,0.0354
3153.00,0.0353
3152.00,0.0352
3151.00,0.0351
3150.00,0.0351
3149.00,0.0351
3148.00,0.0350
3147.00,0.0349
3146.00,0.0348
3145.00,0.0347
3144.00,0.0346
3143.00,0.0344
3142.00,0.0342
3141.00,0.0341
3140.00,0.0339
3139.00,0.0338
3138.00,0.0338
3137.00,0.0338
3136.00,0.0337
3135.00,0.0337
3134.00,0.0336
3133.00,0.0335
3132.00,0.0334
3131.00,0.0334
3130.00,0.0333
3129.00,0.0332
3128.00,0.0332
3127.00,0.0332
3126.00,0.0331
3125.00,0.0330
3124.00,0.0329
3123.00,0.0328
3122.00,0.0326
3121.00,0.0325
3120.00,0.0325
3119.00,0.0324
3118.00,0.0324
3117.00,0.0325
3116.00,0.0325
3115.00,0.0326
3114.00,0.0327
3113.00,0.0327
3112.00,0.0327
3111.00,0.0327
3110.00,0.0327
3109.00,0.0327
3108.00,0.0327
3107.00,0.0328
3106.00,0.0329
3105.00,0.0329
3104.00,0.0330
3103.00,0.0330
3102.00,0.0330
3101.00,0.0330
3100.00,0.0330
3099.00,0.0331
3098.00,0.0332
3097.00,0.0332
3096.00,0.0333
3095.00,0.0333
3094.00,0.0333
3093.00,0.0333
3092.00,0.0333
3091.00,0.0333
3090.00,0.0333
3089.00,0.0333
3088.00,0.0334
3087.00,0.0333
3086.00,0.0333
3085.00,0.0332
3084.00,0.0332
3083.00,0.0332
3082.00,0.0332
3081.00,0.0332
3080.00,0.0332
3079.00,0.0332
3078.00,0.0332
3077.00,0.0333
3076.00,0.0334
3075.00,0.0335
3074.00,0.0335
3073.00,0.0334
3072.00,0.0334
3071.00,0.0332
3070.00,0.0331
3069.00,0.0329
3068.00,0.0328
3067.00,0.0327
3066.00,0.0327
3065.00,0.0327
3064.00,0.0327
3063.00,0.0326
3062.00,0.0326
3061.00,0.0325
3060.00,0.0323
3059.00,0.0321
3058.00,0.0319
3057.00,0.0318
3056.00,0.0316
3055.00,0.0314
3054.00,0.0313
3053.00,0.0311
3052.00,0.0309
3051.00,0.0307
3050.00,0.0306
3049.00,0.0305
3048.00,0.0304
3047.00,0.0302
3046.00,0.0300
3045.00,0.0297
3044.00,0.0296
3043.00,0.0294
3042.00,0.0293
3041.00,0.0292
3040.00,0.0292
3039.00,0.0291
3038.00,0.0290
3037.00,0.0288
3036.00,0.0286
3035.00,0.0284
3034.00,0.0283
3033.00,0.0282
3032.00,0.0282
3031.00,0.0281
3030.00,0.0281
3029.00,0.0280
3028.00,0.0278
3027.00,0.0276
3026.00,0.0274
3025.00,0.0273
3024.00,0.0271
3023.00,0.0270
3022.00,0.0268
3021.00,0.0266
3020.00,0.0265
3019.00,0.0263
3018.00,0.0261
3017.00,0.0259
3016.00,0.0257
3015.00,0.0256
3014.00,0.0255
3013.00,0.0254
3012.00,0.0254
3011.00,0.0253
3010.00,0.0253
3009.00,0.0252
3008.00,0.0252
3007.00,0.0251
3006.00,0.0250
3005.00,0.0249
3004.00,0.0248
3003.00,0.0248
3002.00,0.0247
3001.00,0.0247
3000.00,0.0246
2999.00,0.0246
2998.00,0.0245
2997.00,0.0246
2996.00,0.0246
2995.00,0.0247
2994.00,0.0247
2993.00,0.0248
2992.00,0.0250
2991.00,0.0252
2990.00,0.0254
2989.00,0.0256
2988.00,0.0258
2987.00,0.0260
2986.00,0.0261
2985.00,0.0263
2984.00,0.0264
2983.00,0.0265
2982.00,0.0267
2981.00,0.0270
2980.00,0.0273
2979.00,0.0278
2978.00,0.0282
2977.00,0.0287
2976.00,0.0291
2975.00,0.0295
2974.00,0.0299
2973.00,0.0303
2972.00,0.0306
2971.00,0.0310
2970.00,0.0315
2969.00,0.0319
2968.00,0.0323
2967.00,0.0327
2966.00,0.0330
2965.00,0.0333
2964.00,0.0335
2963.00,0.0337
2962.00,0.0338
2961.00,0.0339
2960.00,0.0339
2959.00,0.0339
2958.00,0.0339
2957.00,0.0337
2956.00,0.0335
2955.00,0.0333
2954.00,0.0330
2953.00,0.0328
2952.00,0.0325
2951.00,0.0323
2950.00,0.0322
2949.00,0.0320
2948.00,0.0320
2947.00,0.0319
2946.00,0.0320
2945.00,0.0321
2944.00,0.0323
2943.00,0.0325
2942.00,0.0328
2941.00,0.0331
2940.00,0.0334
2939.00,0.0337
2938.00,0.0339
2937.00,0.0342
2936.00,0.0345
2935.00,0.0347
2934.00,0.0349
2933.00,0.0350
2932.00,0.0352
2931.00,0.0353
2930.00,0.0353
2929.00,0.0354
2928.00,0.0355
2927.00,0.0355
2926.00,0.0355
2925.00,0.0355
2924.00,0.0355
2923.00,0.0354
2922.00,0.0352
2921.00,0.0350
2920.00,0.0348
2919.00,0.0345
2918.00,0.0341
2917.00,0.0337
2916.00,0.0332
2915.00,0.0327
2914.00,0.0322
2913.00,0.0318
2912.00,0.0313
2911.00,0.0309
2910.00,0.0305
2909.00,0.0301
2908.00,0.0297
2907.00,0.0294
2906.00,0.0291
2905.00,0.0288
2904.00,0.0286
2903.00,0.0283
2902.00,0.0281
2901.00,0.0279
2900.00,0.0277
2899.00,0.0275
2898.00,0.0273
2897.00,0.0272
2896.00,0.0270
2895.00,0.0269
2894.00,0.0267
2893.00,0.0266
2892.00,0.0265
2891.00,0.0264
2890.00,0.0263
2889.00,0.0262
2888.00,0.0262
2887.00,0.0262
2886.00,0.0262
2885.00,0.0263
2884.00,0.0263
2883.00,0.0265
2882.00,0.0266
2881.00,0.0268
2880.00,0.0269
2879.00,0.0271
2878.00,0.0272
2877.00,0.0274
2876.00,0.0274
2875.00,0.0275
2874.00,0.0274
2873.00,0.0274
2872.00,0.0273
2871.00,0.0271
2870.00,0.0269
2869.00,0.0267
2868.00,0.0264
2867.00,0.0262
2866.00,0.0259
2865.00,0.0257
2864.00,0.0255
2863.00,0.0254
2862.00,0.0253
2861.00,0.0252
2860.00,0.0251
2859.00,0.0251
2858.00,0.0251
2857.00,0.0251
2856.00,0.0252
2855.00,0.0252
2854.00,0.0252
2853.00,0.0252
2852.00,0.0250
2851.00,0.0248
2850.00,0.0245
2849.00,0.0241
2848.00,0.0237
2847.00,0.0233
2846.00,0.0229
2845.00,0.0225
2844.00,0.0221
2843.00,0.0217
2842.00,0.0214
2841.00,0.0211
2840.00,0.0209
2839.00,0.0207
2838.00,0.0205
2837.00,0.0204
2836.00,0.0203
2835.00,0.0202
2834.00,0.0201
2833.00,0.0200
2832.00,0.0199
2831.00,0.0199
2830.00,0.0198
2829.00,0.0197
2828.00,0.0197
2827.00,0.0196
2826.00,0.0196
2825.00,0.0195
2824.00,0.0194
2823.00,0.0194
2822.00,0.0193
2821.00,0.0193
2820.00,0.0192
2819.00,0.0192
2818.00,0.0191
2817.00,0.0191
2816.00,0.0190
2815.00,0.0190
2814.00,0.0190
2813.00,0.0189
2812.00,0.0188
2811.00,0.0188
2810.00,0.0188
2809.00,0.0187
2808.00,0.0187
2807.00,0.0187
2806.00,0.0186
2805.00,0.0186
2804.00,0.0185
2803.00,0.0185
2802.00,0.0184
2801.00,0.0184
2800.00,0.0183
2799.00,0.0182
2798.00,0.0182
2797.00,0.0182
2796.00,0.0181
2795.00,0.0181
2794.00,0.0181
2793.00,0.0180
2792.00,0.0179
2791.00,0.0178
2790.00,0.0178
2789.00,0.0177
2788.00,0.0177
2787.00,0.0176
2786.00,0.0176
2785.00,0.0175
2784.00,0.0175
2783.00,0.0174
2782.00,0.0173
2781.00,0.0172
2780.00,0.0171
2779.00,0.0170
2778.00,0.0169
2777.00,0.0168
2776.00,0.0167
2775.00,0.0166
2774.00,0.0165
2773.00,0.0165
2772.00,0.0164
2771.00,0.0164
2770.00,0.0163
2769.00,0.0162
2768.00,0.0161
2767.00,0.0160
2766.00,0.0159
2765.00,0.0158
2764.00,0.0157
2763.00,0.0157
2762.00,0.0156
2761.00,0.0155
2760.00,0.0154
2759.00,0.0154
2758.00,0.0153
2757.00,0.0152
2756.00,0.0151
2755.00,0.0151
2754.00,0.0150
2753.00,0.0149
2752.00,0.0149
2751.00,0.0148
2750.00,0.0148
2749.00,0.0147
2748.00,0.0147
2747.00,0.0146
2746.00,0.0146
2745.00,0.0145
2744.00,0.0145
2743.00,0.0144
2742.00,0.0144
2741.00,0.0144
2740.00,0.0143
2739.00,0.0142
2738.00,0.0142
2737.00,0.0141
2736.00,0.0141
2735.00,0.0140
2734.00,0.0140
2733.00,0.0140
2732.00,0.0139
2731.00,0.0139
2730.00,0.0138
2729.00,0.0138
2728.00,0.0137
2727.00,0.0136
2726.00,0.0136
2725.00,0.0136
2724.00,0.0135
2723.00,0.0135
2722.00,0.0135
2721.00,0.0134
2720.00,0.0134
2719.00,0.0133
2718.00,0.0133
2717.00,0.0132
2716.00,0.0132
2715.00,0.0132
2714.00,0.0131
2713.00,0.0130
2712.00,0.0130
2711.00,0.0129
2710.00,0.0129
2709.00,0.0129
2708.00,0.0129
2707.00,0.0128
2706.00,0.0128
2705.00,0.0128
2704.00,0.0127
2703.00,0.0127
2702.00,0.0126
2701.00,0.0126
2700.00,0.0126
2699.00,0.0126
2698.00,0.0125
2697.00,0.0125
2696.00,0.0125
2695.00,0.0124
2694.00,0.0124
2693.00,0.0124
2692.00,0.0123
2691.00,0.0123
2690.00,0.0122
2689.00,0.0122
2688.00,0.0121
2687.00,0.0121
2686.00,0.0121
2685.00,0.0120
2684.00,0.0120
2683.00,0.0119
2682.00,0.0119
2681.00,0.0118
2680.00,0.0118
2679.00,0.0117
2678.00,0.0117
2677.00,0.0117
2676.00,0.0116
2675.00,0.0116
2674.00,0.0115
2673.00,0.0115
2672.00,0.0114
2671.00,0.0114
2670.00,0.0113
2669.00,0.0113
2668.00,0.0113
2667.00,0.0112
2666.00,0.0112
2665.00,0.0113
2664.00,0.0113
2663.00,0.0113
2662.00,0.0112
2661.00,0.0112
2660.00,0.0112
2659.00,0.0112
2658.00,0.0112
2657.00,0.0112
2656.00,0.0111
2655.00,0.0111
2654.00,0.0110
2653.00,0.0110
2652.00,0.0110
2651.00,0.0110
2650.00,0.0109
2649.00,0.0109
2648.00,0.0108
2647.00,0.0108
2646.00,0.0108
2645.00,0.0107
2644.00,0.0107
2643.00,0.0106
2642.00,0.0106
2641.00,0.0105
2640.00,0.0105
2639.00,0.0104
2638.00,0.0104
2637.00,0.0104
2636.00,0.0103
2635.00,0.0103
2634.00,0.0103
2633.00,0.0102
2632.00,0.0102
2631.00,0.0102
2630.00,0.0101
2629.00,0.0101
2628.00,0.0101
2627.00,0.0100
2626.00,0.0100
2625.00,0.0100
2624.00,0.0099
2623.00,0.0098
2622.00,0.0098
2621.00,0.0098
2620.00,0.0097
2619.00,0.0097
2618.00,0.0097
2617.00,0.0097
2616.00,0.0097
2615.00,0.0096
2614.00,0.0096
2613.00,0.0095
2612.00,0.0095
2611.00,0.0095
2610.00,0.0094
2609.00,0.0094
2608.00,0.0093
2607.00,0.0092
2606.00,0.0092
2605.00,0.0092
2604.00,0.0092
2603.00,0.0091
2602.00,0.0091
2601.00,0.0091
2600.00,0.0091
2599.00,0.0090
2598.00,0.0090
2597.00,0.0090
2596.00,0.0090
2595.00,0.0089
2594.00,0.0089
2593.00,0.0088
2592.00,0.0088
2591.00,0.0087
2590.00,0.0087
2589.00,0.0086
2588.00,0.0086
2587.00,0.0086
2586.00,0.0086
2585.00,0.0085
2584.00,0.0085
2583.00,0.0085
2582.00,0.0085
2581.00,0.0085
2580.00,0.0084
2579.00,0.0084
2578.00,0.0083
2577.00,0.0083
2576.00,0.0083
2575.00,0.0083
2574.00,0.0082
2573.00,0.0082
2572.00,0.0082
2571.00,0.0082
2570.00,0.0081
2569.00,0.0081
2568.00,0.0081
2567.00,0.0080
2566.00,0.0080
2565.00,0.0080
2564.00,0.0079
2563.00,0.0079
2562.00,0.0079
2561.00,0.0078
2560.00,0.0078
2559.00,0.0078
2558.00,0.0078
2557.00,0.0078
2556.00,0.0078
2555.00,0.0077
2554.00,0.0077
2553.00,0.0077
2552.00,0.0076
2551.00,0.0076
2550.00,0.0076
2549.00,0.0075
2548.00,0.0075
2547.00,0.0075
2546.00,0.0075
2545.00,0.0075
2544.00,0.0075
2543.00,0.0075
2542.00,0.0074
2541.00,0.0073
2540.00,0.0073
2539.00,0.0073
2538.00,0.0072
2537.00,0.0072
2536.00,0.0072
2535.00,0.0072
2534.00,0.0072
2533.00,0.0071
2532.00,0.0071
2531.00,0.0071
2530.00,0.0071
2529.00,0.0071
2528.00,0.0070
2527.00,0.0070
2526.00,0.0069
2525.00,0.0069
2524.00,0.0069
2523.00,0.0069
2522.00,0.0069
2521.00,0.0069
2520.00,0.0069
2519.00,0.0069
2518.00,0.0069
2517.00,0.0068
2516.00,0.0068
2515.00,0.0067
2514.00,0.0067
2513.00,0.0066
2512.00,0.0066
2511.00,0.0066
2510.00,0.0067
2509.00,0.0067
2508.00,0.0067
2507.00,0.0067
2506.00,0.0066
2505.00,0.0066
2504.00,0.0065
2503.00,0.0065
2502.00,0.0065
2501.00,0.0064
2500.00,0.0064
2499.00,0.0064
2498.00,0.0064
2497.00,0.0063
2496.00,0.0063
2495.00,0.0063
2494.00,0.0063
2493.00,0.0062
2492.00,0.0062
2491.00,0.0062
2490.00,0.0062
2489.00,0.0061
2488.00,0.0061
2487.00,0.0061
2486.00,0.0061
2485.00,0.0061
2484.00,0.0060
2483.00,0.0060
2482.00,0.0060
2481.00,0.0059
2480.00,0.0059
2479.00,0.0059
2478.00,0.0058
2477.00,0.0058
2476.00,0.0058
2475.00,0.0058
2474.00,0.0058
2473.00,0.0058
2472.00,0.0058
2471.00,0.0058
2470.00,0.0057
2469.00,0.0057
2468.00,0.0057
2467.00,0.0057
2466.00,0.0057
2465.00,0.0057
2464.00,0.0056
2463.00,0.0056
2462.00,0.0056
2461.00,0.0056
2460.00,0.0056
2459.00,0.0056
2458.00,0.0056
2457.00,0.0056
2456.00,0.0056
2455.00,0.0055
2454.00,0.0055
2453.00,0.0055
2452.00,0.0055
2451.00,0.0055
2450.00,0.0054
2449.00,0.0054
2448.00,0.0054
2447.00,0.0053
2446.00,0.0052
2445.00,0.0052
2444.00,0.0052
2443.00,0.0051
2442.00,0.0051
2441.00,0.0050
2440.00,0.0050
2439.00,0.0050
2438.00,0.0049
2437.00,0.0049
2436.00,0.0049
2435.00,0.0048
2434.00,0.0048
2433.00,0.0048
2432.00,0.0049
2431.00,0.0049
2430.00,0.0048
2429.00,0.0048
2428.00,0.0048
2427.00,0.0047
2426.00,0.0047
2425.00,0.0046
2424.00,0.0046
2423.00,0.0046
2422.00,0.0046
2421.00,0.0046
2420.00,0.0046
2419.00,0.0045
2418.00,0.0045
2417.00,0.0045
2416.00,0.0045
2415.00,0.0045
2414.00,0.0045
2413.00,0.0045
2412.00,0.0045
2411.00,0.0045
2410.00,0.0044
2409.00,0.0044
2408.00,0.0043
2407.00,0.0043
2406.00,0.0042
2405.00,0.0042
2404.00,0.0042
2403.00,0.0042
2402.00,0.0042
2401.00,0.0041
2400.00,0.0041
2399.00,0.0041
2398.00,0.0041
2397.00,0.0041
2396.00,0.0040
2395.00,0.0040
2394.00,0.0040
2393.00,0.0040
2392.00,0.0040
2391.00,0.0040
2390.00,0.0040
2389.00,0.0039
2388.00,0.0039
2387.00,0.0038
2386.00,0.0038
2385.00,0.0037
2384.00,0.0037
2383.00,0.0036
2382.00,0.0035
2381.00,0.0035
2380.00,0.0035
2379.00,0.0035
2378.00,0.0035
2377.00,0.0035
2376.00,0.0035
2375.00,0.0035
2374.00,0.0035
2373.00,0.0035
2372.00,0.0035
2371.00,0.0034
2370.00,0.0033
2369.00,0.0033
2368.00,0.0033
2367.00,0.0033
2366.00,0.0033
2365.00,0.0033
2364.00,0.0034
2363.00,0.0034
2362.00,0.0035
2361.00,0.0035
2360.00,0.0035
2359.00,0.0035
2358.00,0.0034
2357.00,0.0034
2356.00,0.0034
2355.00,0.0034
2354.00,0.0035
2353.00,0.0034
2352.00,0.0034
2351.00,0.0034
2350.00,0.0034
2349.00,0.0035
2348.00,0.0036
2347.00,0.0037
2346.00,0.0038
2345.00,0.0037
2344.00,0.0037
2343.00,0.0037
2342.00,0.0037
2341.00,0.0037
2340.00,0.0037
2339.00,0.0037
2338.00,0.0037
2337.00,0.0037
2336.00,0.0038
2335.00,0.0038
2334.00,0.0038
2333.00,0.0037
2332.00,0.0037
2331.00,0.0036
2330.00,0.0036
2329.00,0.0038
2328.00,0.0041
2327.00,0.0045
2326.00,0.0048
2325.00,0.0049
2324.00,0.0048
2323.00,0.0045
2322.00,0.0043
2321.00,0.0041
2320.00,0.0040
2319.00,0.0039
2318.00,0.0039
2317.00,0.0039
2316.00,0.0039
2315.00,0.0039
2314.00,0.0039
2313.00,0.0038
2312.00,0.0038
2311.00,0.0037
2310.00,0.0037
2309.00,0.0036
2308.00,0.0036
2307.00,0.0036
2306.00,0.0036
2305.00,0.0036
2304.00,0.0037
2303.00,0.0037
2302.00,0.0037
2301.00,0.0038
2300.00,0.0038
2299.00,0.0039
2298.00,0.0039
2297.00,0.0040
2296.00,0.0040
2295.00,0.0041
2294.00,0.0041
2293.00,0.0042
2292.00,0.0042
2291.00,0.0043
2290.00,0.0043
2289.00,0.0044
2288.00,0.0044
2287.00,0.0044
2286.00,0.0044
2285.00,0.0044
2284.00,0.0043
2283.00,0.0042
2282.00,0.0042
2281.00,0.0042
2280.00,0.0041
2279.00,0.0041
2278.00,0.0041
2277.00,0.0041
2276.00,0.0040
2275.00,0.0040
2274.00,0.0039
2273.00,0.0039
2272.00,0.0038
2271.00,0.0037
2270.00,0.0037
2269.00,0.0036
2268.00,0.0036
2267.00,0.0035
2266.00,0.0035
2265.00,0.0035
2264.00,0.0035
2263.00,0.0036
2262.00,0.0036
2261.00,0.0036
2260.00,0.0035
2259.00,0.0035
2258.00,0.0035
2257.00,0.0034
2256.00,0.0034
2255.00,0.0033
2254.00,0.0032
2253.00,0.0032
2252.00,0.0033
2251.00,0.0033
2250.00,0.0032
2249.00,0.0032
2248.00,0.0032
2247.00,0.0032
2246.00,0.0033
2245.00,0.0033
2244.00,0.0033
2243.00,0.0033
2242.00,0.0033
2241.00,0.0034
2240.00,0.0034
2239.00,0.0034
2238.00,0.0034
2237.00,0.0033
2236.00,0.0033
2235.00,0.0033
2234.00,0.0033
2233.00,0.0033
2232.00,0.0034
2231.00,0.0034
2230.00,0.0034
2229.00,0.0033
2228.00,0.0033
2227.00,0.0032
2226.00,0.0031
2225.00,0.0031
2224.00,0.0031
2223.00,0.0030
2222.00,0.0030
2221.00,0.0030
2220.00,0.0031
2219.00,0.0031
2218.00,0.0032
2217.00,0.0032
2216.00,0.0033
2215.00,0.0034
2214.00,0.0033
2213.00,0.0033
2212.00,0.0032
2211.00,0.0031
2210.00,0.0030
2209.00,0.0029
2208.00,0.0029
2207.00,0.0029
2206.00,0.0029
2205.00,0.0030
2204.00,0.0030
2203.00,0.0031
2202.00,0.0031
2201.00,0.0032
2200.00,0.0033
2199.00,0.0033
2198.00,0.0032
2197.00,0.0032
2196.00,0.0032
2195.00,0.0033
2194.00,0.0033
2193.00,0.0033
2192.00,0.0033
2191.00,0.0033
2190.00,0.0033
2189.00,0.0033
2188.00,0.0033
2187.00,0.0033
2186.00,0.0032
2185.00,0.0031
2184.00,0.0030
2183.00,0.0028
2182.00,0.0028
2181.00,0.0029
2180.00,0.0030
2179.00,0.0030
2178.00,0.0027
2177.00,0.0024
2176.00,0.0022
2175.00,0.0021
2174.00,0.0023
2173.00,0.0026
2172.00,0.0029
2171.00,0.0031
2170.00,0.0032
2169.00,0.0033
2168.00,0.0034
2167.00,0.0034
2166.00,0.0034
2165.00,0.0035
2164.00,0.0036
2163.00,0.0037
2162.00,0.0033
2161.00,0.0022
2160.00,0.0009
2159.00,-0.0003
2158.00,-0.0009
2157.00,-0.0008
2156.00,-0.0004
2155.00,-0.0001
2154.00,0.0002
2153.00,0.0005
2152.00,0.0008
2151.00,0.0009
2150.00,0.0009
2149.00,0.0010
2148.00,0.0010
2147.00,0.0010
2146.00,0.0010
2145.00,0.0011
2144.00,0.0012
2143.00,0.0013
2142.00,0.0012
2141.00,0.0013
2140.00,0.0013
2139.00,0.0014
2138.00,0.0013
2137.00,0.0011
2136.00,0.0009
2135.00,0.0007
2134.00,0.0007
2133.00,0.0008
2132.00,0.0010
2131.00,0.0012
2130.00,0.0014
2129.00,0.0016
2128.00,0.0018
2127.00,0.0019
2126.00,0.0020
2125.00,0.0021
2124.00,0.0022
2123.00,0.0023
2122.00,0.0024
2121.00,0.0025
2120.00,0.0026
2119.00,0.0026
2118.00,0.0027
2117.00,0.0028
2116.00,0.0029
2115.00,0.0029
2114.00,0.0030
2113.00,0.0030
2112.00,0.0030
2111.00,0.0030
2110.00,0.0030
2109.00,0.0029
2108.00,0.0029
2107.00,0.0028
2106.00,0.0028
2105.00,0.0028
2104.00,0.0028
2103.00,0.0028
2102.00,0.0028
2101.00,0.0028
2100.00,0.0028
2099.00,0.0027
2098.00,0.0026
2097.00,0.0025
2096.00,0.0025
2095.00,0.0025
2094.00,0.0025
2093.00,0.0026
2092.00,0.0027
2091.00,0.0028
2090.00,0.0028
2089.00,0.0029
2088.00,0.0029
2087.00,0.0030
2086.00,0.0030
2085.00,0.0030
2084.00,0.0030
2083.00,0.0030
2082.00,0.0029
2081.00,0.0030
2080.00,0.0030
2079.00,0.0031
2078.00,0.0031
2077.00,0.0030
2076.00,0.0029
2075.00,0.0028
2074.00,0.0027
2073.00,0.0027
2072.00,0.0027
2071.00,0.0027
2070.00,0.0026
2069.00,0.0026
2068.00,0.0026
2067.00,0.0026
2066.00,0.0025
2065.00,0.0026
2064.00,0.0026
2063.00,0.0026
2062.00,0.0025
2061.00,0.0025
2060.00,0.0026
2059.00,0.0026
2058.00,0.0026
2057.00,0.0026
2056.00,0.0026
2055.00,0.0027
2054.00,0.0029
2053.00,0.0032
2052.00,0.0034
2051.00,0.0034
2050.00,0.0031
2049.00,0.0028
2048.00,0.0026
2047.00,0.0025
2046.00,0.0025
2045.00,0.0025
2044.00,0.0025
2043.00,0.0025
2042.00,0.0024
2041.00,0.0023
2040.00,0.0023
2039.00,0.0023
2038.00,0.0022
2037.00,0.0023
2036.00,0.0023
2035.00,0.0022
2034.00,0.0020
2033.00,0.0018
2032.00,0.0017
2031.00,0.0015
2030.00,0.0013
2029.00,0.0013
2028.00,0.0014
2027.00,0.0015
2026.00,0.0014
2025.00,0.0014
2024.00,0.0014
2023.00,0.0014
2022.00,0.0014
2021.00,0.0015
2020.00,0.0016
2019.00,0.0015
2018.00,0.0013
2017.00,0.0011
2016.00,0.0010
2015.00,0.0010
2014.00,0.0010
2013.00,0.0012
2012.00,0.0014
2011.00,0.0014
2010.00,0.0013
2009.00,0.0011
2008.00,0.0009
2007.00,0.0007
2006.00,0.0006
2005.00,0.0006
2004.00,0.0008
2003.00,0.0009
2002.00,0.0010
2001.00,0.0012
2000.00,0.0013
1999.00,0.0014
1998.00,0.0014
1997.00,0.0016
1996.00,0.0017
1995.00,0.0018
1994.00,0.0018
1993.00,0.0018
1992.00,0.0018
1991.00,0.0019
1990.00,0.0019
1989.00,0.0020
1988.00,0.0021
1987.00,0.0022
1986.00,0.0022
1985.00,0.0022
1984.00,0.0023
1983.00,0.0025
1982.00,0.0026
1981.00,0.0027
1980.00,0.0026
1979.00,0.0021
1978.00,0.0014
1977.00,0.0010
1976.00,0.0007
1975.00,0.0005
1974.00,0.0003
1973.00,0.0002
1972.00,0.0003
1971.00,0.0004
1970.00,0.0005
1969.00,0.0007
1968.00,0.0010
1967.00,0.0011
1966.00,0.0011
1965.00,0.0011
1964.00,0.0010
1963.00,0.0008
1962.00,0.0005
1961.00,0.0003
1960.00,0.0002
1959.00,0.0001
1958.00,0.0002
1957.00,0.0003
1956.00,0.0006
1955.00,0.0008
1954.00,0.0008
1953.00,0.0008
1952.00,0.0008
1951.00,0.0008
1950.00,0.0007
1949.00,0.0007
1948.00,0.0008
1947.00,0.0009
1946.00,0.0010
1945.00,0.0011
1944.00,0.0012
1943.00,0.0012
1942.00,0.0011
1941.00,0.0010
1940.00,0.0010
1939.00,0.0011
1938.00,0.0011
1937.00,0.0012
1936.00,0.0012
1935.00,0.0012
1934.00,0.0012
1933.00,0.0012
1932.00,0.0013
1931.00,0.0013
1930.00,0.0012
1929.00,0.0013
1928.00,0.0013
1927.00,0.0014
1926.00,0.0014
1925.00,0.0015
1924.00,0.0016
1923.00,0.0017
1922.00,0.0016
1921.00,0.0016
1920.00,0.0017
1919.00,0.0017
1918.00,0.0016
1917.00,0.0015
1916.00,0.0015
1915.00,0.0015
1914.00,0.0016
1913.00,0.0017
1912.00,0.0017
1911.00,0.0018
1910.00,0.0018
1909.00,0.0018
1908.00,0.0019
1907.00,0.0018
1906.00,0.0018
1905.00,0.0018
1904.00,0.0018
1903.00,0.0018
1902.00,0.0018
1901.00,0.0018
1900.00,0.0019
1899.00,0.0019
1898.00,0.0019
1897.00,0.0020
1896.00,0.0020
1895.00,0.0020
1894.00,0.0020
1893.00,0.0020
1892.00,0.0020
1891.00,0.0021
1890.00,0.0021
1889.00,0.0021
1888.00,0.0020
1887.00,0.0019
1886.00,0.0019
1885.00,0.0020
1884.00,0.0020
1883.00,0.0021
1882.00,0.0021
1881.00,0.0021
1880.00,0.0021
1879.00,0.0021
1878.00,0.0021
1877.00,0.0021
1876.00,0.0022
1875.00,0.0022
1874.00,0.0022
1873.00,0.0023
1872.00,0.0024
1871.00,0.0024
1870.00,0.0024
1869.00,0.0023
1868.00,0.0021
1867.00,0.0019
1866.00,0.0018
1865.00,0.0019
1864.00,0.0021
1863.00,0.0022
1862.00,0.0023
1861.00,0.0023
1860.00,0.0024
1859.00,0.0024
1858.00,0.0023
1857.00,0.0023
1856.00,0.0023
1855.00,0.0023
1854.00,0.0023
1853.00,0.0024
1852.00,0.0024
1851.00,0.0024
1850.00,0.0023
1849.00,0.0023
1848.00,0.0024
1847.00,0.0023
1846.00,0.0023
1845.00,0.0023
1844.00,0.0023
1843.00,0.0023
1842.00,0.0024
1841.00,0.0024
1840.00,0.0025
1839.00,0.0025
1838.00,0.0025
1837.00,0.0025
1836.00,0.0025
1835.00,0.0026
1834.00,0.0026
1833.00,0.0027
1832.00,0.0029
1831.00,0.0030
1830.00,0.0029
1829.00,0.0027
1828.00,0.0026
1827.00,0.0026
1826.00,0.0028
1825.00,0.0029
1824.00,0.0028
1823.00,0.0027
1822.00,0.0028
1821.00,0.0029
1820.00,0.0030
1819.00,0.0030
1818.00,0.0029
1817.00,0.0029
1816.00,0.0029
1815.00,0.0030
1814.00,0.0030
1813.00,0.0032
1812.00,0.0033
1811.00,0.0034
1810.00,0.0033
1809.00,0.0033
1808.00,0.0033
1807.00,0.0033
1806.00,0.0034
1805.00,0.0035
1804.00,0.0036
1803.00,0.0037
1802.00,0.0037
1801.00,0.0037
1800.00,0.0037
1799.00,0.0036
1798.00,0.0036
1797.00,0.0036
1796.00,0.0038
1795.00,0.0039
1794.00,0.0039
1793.00,0.0037
1792.00,0.0036
1791.00,0.0033
1790.00,0.0036
1789.00,0.0041
1788.00,0.0039
1787.00,0.0040
1786.00,0.0041
1785.00,0.0041
1784.00,0.0040
1783.00,0.0041
1782.00,0.0042
1781.00,0.0044
1780.00,0.0044
1779.00,0.0044
1778.00,0.0043
1777.00,0.0044
1776.00,0.0046
1775.00,0.0047
1774.00,0.0046
1773.00,0.0044
1772.00,0.0041
1771.00,0.0039
1770.00,0.0039
1769.00,0.0042
1768.00,0.0045
1767.00,0.0046
1766.00,0.0047
1765.00,0.0050
1764.00,0.0053
1763.00,0.0055
1762.00,0.0055
1761.00,0.0054
1760.00,0.0054
1759.00,0.0056
1758.00,0.0059
1757.00,0.0061
1756.00,0.0062
1755.00,0.0063
1754.00,0.0065
1753.00,0.0067
1752.00,0.0069
1751.00,0.0070
1750.00,0.0071
1749.00,0.0073
1748.00,0.0078
1747.00,0.0081
1746.00,0.0084
1745.00,0.0087
1744.00,0.0090
1743.00,0.0092
1742.00,0.0093
1741.00,0.0095
1740.00,0.0096
1739.00,0.0098
1738.00,0.0100
1737.00,0.0101
1736.00,0.0103
1735.00,0.0104
1734.00,0.0107
1733.00,0.0110
1732.00,0.0114
1731.00,0.0116
1730.00,0.0119
1729.00,0.0121
1728.00,0.0124
1727.00,0.0127
1726.00,0.0129
1725.00,0.0133
1724.00,0.0137
1723.00,0.0140
1722.00,0.0142
1721.00,0.0145
1720.00,0.0148
1719.00,0.0151
1718.00,0.0151
1717.00,0.0152
1716.00,0.0156
1715.00,0.0163
1714.00,0.0172
1713.00,0.0182
1712.00,0.0192
1711.00,0.0202
1710.00,0.0211
1709.00,0.0221
1708.00,0.0232
1707.00,0.0245
1706.00,0.0261
1705.00,0.0278
1704.00,0.0292
1703.00,0.0305
1702.00,0.0321
1701.00,0.0349
1700.00,0.0388
1699.00,0.0418
1698.00,0.0441
1697.00,0.0467
1696.00,0.0495
1695.00,0.0517
1694.00,0.0529
1693.00,0.0541
1692.00,0.0555
1691.00,0.0569
1690.00,0.0582
1689.00,0.0595
1688.00,0.0604
1687.00,0.0610
1686.00,0.0617
1685.00,0.0635
1684.00,0.0664
1683.00,0.0688
1682.00,0.0705
1681.00,0.0723
1680.00,0.0743
1679.00,0.0759
1678.00,0.0771
1677.00,0.0784
1676.00,0.0802
1675.00,0.0825
1674.00,0.0845
1673.00,0.0859
1672.00,0.0875
1671.00,0.0895
1670.00,0.0921
1669.00,0.0949
1668.00,0.0972
1667.00,0.0988
1666.00,0.1002
1665.00,0.1018
1664.00,0.1041
1663.00,0.1070
1662.00,0.1100
1661.00,0.1125
1660.00,0.1147
1659.00,0.1167
1658.00,0.1184
1657.00,0.1195
1656.00,0.1200
1655.00,0.1203
1654.00,0.1227
1653.00,0.1273
1652.00,0.1301
1651.00,0.1304
1650.00,0.1305
1649.00,0.1308
1648.00,0.1316
1647.00,0.1330
1646.00,0.1340
1645.00,0.1342
1644.00,0.1340
1643.00,0.1340
1642.00,0.1341
1641.00,0.1342
1640.00,0.1343
1639.00,0.1341
1638.00,0.1340
1637.00,0.1347
1636.00,0.1370
1635.00,0.1398
1634.00,0.1415
1633.00,0.1427
1632.00,0.1439
1631.00,0.1454
1630.00,0.1473
1629.00,0.1498
1628.00,0.1529
1627.00,0.1557
1626.00,0.1580
1625.00,0.1602
1624.00,0.1632
1623.00,0.1667
1622.00,0.1693
1621.00,0.1702
1620.00,0.1699
1619.00,0.1690
1618.00,0.1681
1617.00,0.1673
1616.00,0.1660
1615.00,0.1637
1614.00,0.1605
1613.00,0.1569
1612.00,0.1528
1611.00,0.1486
1610.00,0.1442
1609.00,0.1397
1608.00,0.1353
1607.00,0.1311
1606.00,0.1271
1605.00,0.1234
1604.00,0.1200
1603.00,0.1169
1602.00,0.1143
1601.00,0.1118
1600.00,0.1095
1599.00,0.1075
1598.00,0.1058
1597.00,0.1042
1596.00,0.1028
1595.00,0.1016
1594.00,0.1006
1593.00,0.0995
1592.00,0.0985
1591.00,0.0976
1590.00,0.0969
1589.00,0.0962
1588.00,0.0955
1587.00,0.0950
1586.00,0.0947
1585.00,0.0944
1584.00,0.0941
1583.00,0.0940
1582.00,0.0940
1581.00,0.0940
1580.00,0.0938
1579.00,0.0934
1578.00,0.0933
1577.00,0.0937
1576.00,0.0947
1575.00,0.0957
1574.00,0.0964
1573.00,0.0969
1572.00,0.0974
1571.00,0.0982
1570.00,0.0998
1569.00,0.1016
1568.00,0.1028
1567.00,0.1037
1566.00,0.1049
1565.00,0.1063
1564.00,0.1075
1563.00,0.1079
1562.00,0.1076
1561.00,0.1072
1560.00,0.1085
1559.00,0.1133
1558.00,0.1178
1557.00,0.1195
1556.00,0.1207
1555.00,0.1227
1554.00,0.1250
1553.00,0.1271
1552.00,0.1288
1551.00,0.1307
1550.00,0.1330
1549.00,0.1349
1548.00,0.1361
1547.00,0.1368
1546.00,0.1376
1545.00,0.1388
1544.00,0.1399
1543.00,0.1405
1542.00,0.1411
1541.00,0.1428
1540.00,0.1458
1539.00,0.1483
1538.00,0.1492
1537.00,0.1492
1536.00,0.1491
1535.00,0.1495
1534.00,0.1509
1533.00,0.1527
1532.00,0.1537
1531.00,0.1537
1530.00,0.1534
1529.00,0.1533
1528.00,0.1533
1527.00,0.1535
1526.00,0.1536
1525.00,0.1532
1524.00,0.1522
1523.00,0.1515
1522.00,0.1516
1521.00,0.1522
1520.00,0.1521
1519.00,0.1516
1518.00,0.1512
1517.00,0.1513
1516.00,0.1510
1515.00,0.1497
1514.00,0.1475
1513.00,0.1449
1512.00,0.1421
1511.00,0.1391
1510.00,0.1358
1509.00,0.1323
1508.00,0.1289
1507.00,0.1260
1506.00,0.1228
1505.00,0.1192
1504.00,0.1162
1503.00,0.1138
1502.00,0.1113
1501.00,0.1086
1500.00,0.1059
1499.00,0.1032
1498.00,0.1005
1497.00,0.0978
1496.00,0.0952
1495.00,0.0927
1494.00,0.0904
1493.00,0.0883
1492.00,0.0861
1491.00,0.0841
1490.00,0.0821
1489.00,0.0802
1488.00,0.0783
1487.00,0.0766
1486.00,0.0750
1485.00,0.0736
1484.00,0.0724
1483.00,0.0714
1482.00,0.0707
1481.00,0.0700
1480.00,0.0695
1479.00,0.0691
1478.00,0.0689
1477.00,0.0689
1476.00,0.0690
1475.00,0.0692
1474.00,0.0697
1473.00,0.0707
1472.00,0.0721
1471.00,0.0733
1470.00,0.0740
1469.00,0.0746
1468.00,0.0750
1467.00,0.0751
1466.00,0.0752
1465.00,0.0754
1464.00,0.0756
1463.00,0.0757
1462.00,0.0758
1461.00,0.0758
1460.00,0.0758
1459.00,0.0760
1458.00,0.0767
1457.00,0.0780
1456.00,0.0791
1455.00,0.0797
1454.00,0.0802
1453.00,0.0807
1452.00,0.0809
1451.00,0.0809
1450.00,0.0807
1449.00,0.0806
1448.00,0.0805
1447.00,0.0804
1446.00,0.0801
1445.00,0.0797
1444.00,0.0793
1443.00,0.0790
1442.00,0.0786
1441.00,0.0781
1440.00,0.0774
1439.00,0.0766
1438.00,0.0757
1437.00,0.0748
1436.00,0.0740
1435.00,0.0732
1434.00,0.0725
1433.00,0.0717
1432.00,0.0710
1431.00,0.0703
1430.00,0.0697
1429.00,0.0692
1428.00,0.0688
1427.00,0.0685
1426.00,0.0685
1425.00,0.0687
1424.00,0.0690
1423.00,0.0694
1422.00,0.0695
1421.00,0.0696
1420.00,0.0701
1419.00,0.0712
1418.00,0.0725
1417.00,0.0736
1416.00,0.0746
1415.00,0.0756
1414.00,0.0765
1413.00,0.0773
1412.00,0.0782
1411.00,0.0792
1410.00,0.0800
1409.00,0.0807
1408.00,0.0814
1407.00,0.0821
1406.00,0.0829
1405.00,0.0837
1404.00,0.0845
1403.00,0.0850
1402.00,0.0853
1401.00,0.0856
1400.00,0.0861
1399.00,0.0867
1398.00,0.0871
1397.00,0.0873
1396.00,0.0875
1395.00,0.0879
1394.00,0.0882
1393.00,0.0884
1392.00,0.0884
1391.00,0.0884
1390.00,0.0883
1389.00,0.0881
1388.00,0.0879
1387.00,0.0877
1386.00,0.0873
1385.00,0.0866
1384.00,0.0859
1383.00,0.0850
1382.00,0.0842
1381.00,0.0833
1380.00,0.0824
1379.00,0.0816
1378.00,0.0807
1377.00,0.0799
1376.00,0.0791
1375.00,0.0785
1374.00,0.0780
1373.00,0.0775
1372.00,0.0769
1371.00,0.0763
1370.00,0.0757
1369.00,0.0751
1368.00,0.0743
1367.00,0.0733
1366.00,0.0722
1365.00,0.0711
1364.00,0.0702
1363.00,0.0695
1362.00,0.0688
1361.00,0.0683
1360.00,0.0679
1359.00,0.0677
1358.00,0.0677
1357.00,0.0679
1356.00,0.0683
1355.00,0.0688
1354.00,0.0693
1353.00,0.0698
1352.00,0.0703
1351.00,0.0707
1350.00,0.0711
1349.00,0.0713
1348.00,0.0714
1347.00,0.0714
1346.00,0.0712
1345.00,0.0710
1344.00,0.0706
1343.00,0.0702
1342.00,0.0699
1341.00,0.0695
1340.00,0.0692
1339.00,0.0688
1338.00,0.0684
1337.00,0.0679
1336.00,0.0674
1335.00,0.0669
1334.00,0.0665
1333.00,0.0661
1332.00,0.0658
1331.00,0.0656
1330.00,0.0654
1329.00,0.0653
1328.00,0.0652
1327.00,0.0651
1326.00,0.0651
1325.00,0.0651
1324.00,0.0652
1323.00,0.0652
1322.00,0.0653
1321.00,0.0654
1320.00,0.0654
1319.00,0.0655
1318.00,0.0656
1317.00,0.0656
1316.00,0.0655
1315.00,0.0655
1314.00,0.0655
1313.00,0.0654
1312.00,0.0653
1311.00,0.0652
1310.00,0.0650
1309.00,0.0649
1308.00,0.0647
1307.00,0.0646
1306.00,0.0644
1305.00,0.0643
1304.00,0.0642
1303.00,0.0641
1302.00,0.0640
1301.00,0.0640
1300.00,0.0639
1299.00,0.0640
1298.00,0.0640
1297.00,0.0641
1296.00,0.0642
1295.00,0.0644
1294.00,0.0645
1293.00,0.0647
1292.00,0.0648
1291.00,0.0649
1290.00,0.0651
1289.00,0.0652
1288.00,0.0653
1287.00,0.0654
1286.00,0.0655
1285.00,0.0656
1284.00,0.0656
1283.00,0.0657
1282.00,0.0657
1281.00,0.0658
1280.00,0.0658
1279.00,0.0657
1278.00,0.0657
1277.00,0.0656
1276.00,0.0655
1275.00,0.0654
1274.00,0.0654
1273.00,0.0654
1272.00,0.0654
1271.00,0.0655
1270.00,0.0657
1269.00,0.0659
1268.00,0.0662
1267.00,0.0665
1266.00,0.0670
1265.00,0.0674
1264.00,0.0680
1263.00,0.0686
1262.00,0.0692
1261.00,0.0699
1260.00,0.0706
1259.00,0.0712
1258.00,0.0719
1257.00,0.0726
1256.00,0.0733
1255.00,0.0740
1254.00,0.0747
1253.00,0.0754
1252.00,0.0760
1251.00,0.0767
1250.00,0.0773
1249.00,0.0779
1248.00,0.0785
1247.00,0.0791
1246.00,0.0797
1245.00,0.0802
1244.00,0.0806
1243.00,0.0811
1242.00,0.0815
1241.00,0.0818
1240.00,0.0821
1239.00,0.0824
1238.00,0.0827
1237.00,0.0829
1236.00,0.0830
1235.00,0.0831
1234.00,0.0831
1233.00,0.0830
1232.00,0.0829
1231.00,0.0827
1230.00,0.0825
1229.00,0.0821
1228.00,0.0817
1227.00,0.0813
1226.00,0.0809
1225.00,0.0803
1224.00,0.0798
1223.00,0.0791
1222.00,0.0785
1221.00,0.0777
1220.00,0.0769
1219.00,0.0761
1218.00,0.0752
1217.00,0.0742
1216.00,0.0732
1215.00,0.0722
1214.00,0.0711
1213.00,0.0700
1212.00,0.0689
1211.00,0.0678
1210.00,0.0668
1209.00,0.0658
1208.00,0.0647
1207.00,0.0638
1206.00,0.0629
1205.00,0.0621
1204.00,0.0612
1203.00,0.0605
1202.00,0.0598
1201.00,0.0591
1200.00,0.0584
1199.00,0.0578
1198.00,0.0573
1197.00,0.0568
1196.00,0.0564
1195.00,0.0560
1194.00,0.0557
1193.00,0.0553
1192.00,0.0549
1191.00,0.0546
1190.00,0.0543
1189.00,0.0541
1188.00,0.0538
1187.00,0.0536
1186.00,0.0534
1185.00,0.0533
1184.00,0.0531
1183.00,0.0530
1182.00,0.0530
1181.00,0.0531
1180.00,0.0532
1179.00,0.0534
1178.00,0.0538
1177.00,0.0542
1176.00,0.0547
1175.00,0.0553
1174.00,0.0559
1173.00,0.0565
1172.00,0.0569
1171.00,0.0573
1170.00,0.0576
1169.00,0.0578
1168.00,0.0579
1167.00,0.0581
1166.00,0.0584
1165.00,0.0586
1164.00,0.0588
1163.00,0.0591
1162.00,0.0595
1161.00,0.0598
1160.00,0.0601
1159.00,0.0604
1158.00,0.0607
1157.00,0.0609
1156.00,0.0610
1155.00,0.0611
1154.00,0.0611
1153.00,0.0611
1152.00,0.0609
1151.00,0.0607
1150.00,0.0605
1149.00,0.0603
1148.00,0.0600
1147.00,0.0598
1146.00,0.0596
1145.00,0.0594
1144.00,0.0592
1143.00,0.0591
1142.00,0.0591
1141.00,0.0591
1140.00,0.0592
1139.00,0.0594
1138.00,0.0596
1137.00,0.0599
1136.00,0.0602
1135.00,0.0606
1134.00,0.0611
1133.00,0.0617
1132.00,0.0623
1131.00,0.0629
1130.00,0.0636
1129.00,0.0643
1128.00,0.0649
1127.00,0.0655
1126.00,0.0662
1125.00,0.0667
1124.00,0.0673
1123.00,0.0678
1122.00,0.0683
1121.00,0.0688
1120.00,0.0693
1119.00,0.0698
1118.00,0.0703
1117.00,0.0707
1116.00,0.0711
1115.00,0.0715
1114.00,0.0719
1113.00,0.0723
1112.00,0.0727
1111.00,0.0730
1110.00,0.0734
1109.00,0.0737
1108.00,0.0740
1107.00,0.0744
1106.00,0.0747
1105.00,0.0750
1104.00,0.0753
1103.00,0.0756
1102.00,0.0759
1101.00,0.0762
1100.00,0.0765
1099.00,0.0769
1098.00,0.0774
1097.00,0.0779
1096.00,0.0785
1095.00,0.0791
1094.00,0.0799
1093.00,0.0807
1092.00,0.0816
1091.00,0.0825
1090.00,0.0835
1089.00,0.0845
1088.00,0.0856
1087.00,0.0866
1086.00,0.0877
1085.00,0.0888
1084.00,0.0898
1083.00,0.0908
1082.00,0.0917
1081.00,0.0926
1080.00,0.0934
1079.00,0.0941
1078.00,0.0946
1077.00,0.0951
1076.00,0.0955
1075.00,0.0958
1074.00,0.0960
1073.00,0.0961
1072.00,0.0962
1071.00,0.0963
1070.00,0.0964
1069.00,0.0965
1068.00,0.0967
1067.00,0.0968
1066.00,0.0970
1065.00,0.0972
1064.00,0.0973
1063.00,0.0974
1062.00,0.0975
1061.00,0.0975
1060.00,0.0974
1059.00,0.0973
1058.00,0.0972
1057.00,0.0971
1056.00,0.0968
1055.00,0.0966
1054.00,0.0962
1053.00,0.0959
1052.00,0.0955
1051.00,0.0951
1050.00,0.0948
1049.00,0.0943
1048.00,0.0939
1047.00,0.0933
1046.00,0.0928
1045.00,0.0923
1044.00,0.0917
1043.00,0.0911
1042.00,0.0905
1041.00,0.0898
1040.00,0.0891
1039.00,0.0884
1038.00,0.0877
1037.00,0.0871
1036.00,0.0865
1035.00,0.0861
1034.00,0.0857
1033.00,0.0853
1032.00,0.0850
1031.00,0.0847
1030.00,0.0844
1029.00,0.0840
1028.00,0.0835
1027.00,0.0829
1026.00,0.0823
1025.00,0.0816
1024.00,0.0808
1023.00,0.0799
1022.00,0.0789
1021.00,0.0780
1020.00,0.0769
1019.00,0.0759
1018.00,0.0750
1017.00,0.0739
1016.00,0.0728
1015.00,0.0717
1014.00,0.0707
1013.00,0.0696
1012.00,0.0686
1011.00,0.0675
1010.00,0.0665
1009.00,0.0656
1008.00,0.0646
1007.00,0.0636
1006.00,0.0627
1005.00,0.0618
1004.00,0.0610
1003.00,0.0603
1002.00,0.0595
1001.00,0.0588
1000.00,0.0580
999.00,0.0573
998.00,0.0567
997.00,0.0561
996.00,0.0555
995.00,0.0549
994.00,0.0544
993.00,0.0539
992.00,0.0534
991.00,0.0529
990.00,0.0526
989.00,0.0523
988.00,0.0521
987.00,0.0521
986.00,0.0522
985.00,0.0524
984.00,0.0526
983.00,0.0530
982.00,0.0535
981.00,0.0540
980.00,0.0546
979.00,0.0551
978.00,0.0557
977.00,0.0563
976.00,0.0568
975.00,0.0572
974.00,0.0576
973.00,0.0578
972.00,0.0578
971.00,0.0578
970.00,0.0577
969.00,0.0574
968.00,0.0571
967.00,0.0567
966.00,0.0563
965.00,0.0559
964.00,0.0555
963.00,0.0551
962.00,0.0547
961.00,0.0543
960.00,0.0539
959.00,0.0535
958.00,0.0532
957.00,0.0529
956.00,0.0525
955.00,0.0523
954.00,0.0521
953.00,0.0519
952.00,0.0517
951.00,0.0515
950.00,0.0513
949.00,0.0512
948.00,0.0511
947.00,0.0510
946.00,0.0510
945.00,0.0510
944.00,0.0509
943.00,0.0509
942.00,0.0509
941.00,0.0509
940.00,0.0509
939.00,0.0509
938.00,0.0509
937.00,0.0509
936.00,0.0508
935.00,0.0508
934.00,0.0507
933.00,0.0507
932.00,0.0505
931.00,0.0503
930.00,0.0502
929.00,0.0499
928.00,0.0496
927.00,0.0493
926.00,0.0491
925.00,0.0488
924.00,0.0485
923.00,0.0482
922.00,0.0479
921.00,0.0476
920.00,0.0473
919.00,0.0470
918.00,0.0468
917.00,0.0466
916.00,0.0463
915.00,0.0461
914.00,0.0459
913.00,0.0458
912.00,0.0456
911.00,0.0455
910.00,0.0454
909.00,0.0455
908.00,0.0455
907.00,0.0456
906.00,0.0457
905.00,0.0458
904.00,0.0459
903.00,0.0460
902.00,0.0461
901.00,0.0462
900.00,0.0463
899.00,0.0465
898.00,0.0466
897.00,0.0468
896.00,0.0468
895.00,0.0470
894.00,0.0471
893.00,0.0472
892.00,0.0473
891.00,0.0474
890.00,0.0475
889.00,0.0475
888.00,0.0476
887.00,0.0477
886.00,0.0478
885.00,0.0479
884.00,0.0480
883.00,0.0480
882.00,0.0481
881.00,0.0482
880.00,0.0481
879.00,0.0481
878.00,0.0481
877.00,0.0481
876.00,0.0481
875.00,0.0481
874.00,0.0481
873.00,0.0480
872.00,0.0480
871.00,0.0479
870.00,0.0480
869.00,0.0480
868.00,0.0481
867.00,0.0482
866.00,0.0483
865.00,0.0485
864.00,0.0487
863.00,0.0489
862.00,0.0492
861.00,0.0495
860.00,0.0498
859.00,0.0502
858.00,0.0506
857.00,0.0511
856.00,0.0515
855.00,0.0520
854.00,0.0525
853.00,0.0529
852.00,0.0533
851.00,0.0536
850.00,0.0539
849.00,0.0541
848.00,0.0542
847.00,0.0543
846.00,0.0544
845.00,0.0545
844.00,0.0547
843.00,0.0550
842.00,0.0555
841.00,0.0560
840.00,0.0565
839.00,0.0570
838.00,0.0575
837.00,0.0581
836.00,0.0586
835.00,0.0591
834.00,0.0597
833.00,0.0603
832.00,0.0608
831.00,0.0613
830.00,0.0617
829.00,0.0621
828.00,0.0624
827.00,0.0626
826.00,0.0628
825.00,0.0630
824.00,0.0630
823.00,0.0631
822.00,0.0633
821.00,0.0634
820.00,0.0636
819.00,0.0637
818.00,0.0640
817.00,0.0643
816.00,0.0645
815.00,0.0649
814.00,0.0653
813.00,0.0657
812.00,0.0661
811.00,0.0664
810.00,0.0668
809.00,0.0672
808.00,0.0675
807.00,0.0679
806.00,0.0683
805.00,0.0688
804.00,0.0693
803.00,0.0699
802.00,0.0706
801.00,0.0712
800.00,0.0717
799.00,0.0721
798.00,0.0725
797.00,0.0729
796.00,0.0733
795.00,0.0738
794.00,0.0744
793.00,0.0751
792.00,0.0759
791.00,0.0767
790.00,0.0776
789.00,0.0786
788.00,0.0795
787.00,0.0804
786.00,0.0813
785.00,0.0821
784.00,0.0829
783.00,0.0836
782.00,0.0843
781.00,0.0848
780.00,0.0852
779.00,0.0856
778.00,0.0860
777.00,0.0864
776.00,0.0866
775.00,0.0869
774.00,0.0872
773.00,0.0876
772.00,0.0879
771.00,0.0883
770.00,0.0887
769.00,0.0891
768.00,0.0894
767.00,0.0897
766.00,0.0900
765.00,0.0903
764.00,0.0906
763.00,0.0909
762.00,0.0913
761.00,0.0916
760.00,0.0918
759.00,0.0920
758.00,0.0923
757.00,0.0925
756.00,0.0928
755.00,0.0932
754.00,0.0936
753.00,0.0941
752.00,0.0946
751.00,0.0951
750.00,0.0958
749.00,0.0964
748.00,0.0970
747.00,0.0975
746.00,0.0979
745.00,0.0984
744.00,0.0987
743.00,0.0991
742.00,0.0995
741.00,0.0999
740.00,0.1002
739.00,0.1005
738.00,0.1010
737.00,0.1015
736.00,0.1019
735.00,0.1025
734.00,0.1032
733.00,0.1040
732.00,0.1047
731.00,0.1056
730.00,0.1066
729.00,0.1078
728.00,0.1089
727.00,0.1102
726.00,0.1117
725.00,0.1132
724.00,0.1147
723.00,0.1161
722.00,0.1175
721.00,0.1188
720.00,0.1200
719.00,0.1211
718.00,0.1221
717.00,0.1232
716.00,0.1241
715.00,0.1251
714.00,0.1261
713.00,0.1271
712.00,0.1280
711.00,0.1290
710.00,0.1301
709.00,0.1311
708.00,0.1322
707.00,0.1334
706.00,0.1347
705.00,0.1360
704.00,0.1372
703.00,0.1383
702.00,0.1395
701.00,0.1405
700.00,0.1414
699.00,0.1420
698.00,0.1425
697.00,0.1427
696.00,0.1426
695.00,0.1425
694.00,0.1424
693.00,0.1422
692.00,0.1421
691.00,0.1421
690.00,0.1422
689.00,0.1423
688.00,0.1424
687.00,0.1425
686.00,0.1427
685.00,0.1429
684.00,0.1430
683.00,0.1432
682.00,0.1434
681.00,0.1436
680.00,0.1437
679.00,0.1440
678.00,0.1443
677.00,0.1446
676.00,0.1449
675.00,0.1451
674.00,0.1454
673.00,0.1457
672.00,0.1457
671.00,0.1456
670.00,0.1455
669.00,0.1460
668.00,0.1472
667.00,0.1485
666.00,0.1491
665.00,0.1491
664.00,0.1491
663.00,0.1493
662.00,0.1498
661.00,0.1503
660.00,0.1505
659.00,0.1508
658.00,0.1512
657.00,0.1515
656.00,0.1518
655.00,0.1522
654.00,0.1526
653.00,0.1529
652.00,0.1532
651.00,0.1536
650.00,0.1541
649.00,0.1545
648.00,0.1549
647.00,0.1554
646.00,0.1558
645.00,0.1563
644.00,0.1567
643.00,0.1570
642.00,0.1574
641.00,0.1578
640.00,0.1580
639.00,0.1583
638.00,0.1587
637.00,0.1591
636.00,0.1594
635.00,0.1597
634.00,0.1602
633.00,0.1605
632.00,0.1609
631.00,0.1613
630.00,0.1618
629.00,0.1622
628.00,0.1626
627.00,0.1631
626.00,0.1636
625.00,0.1642
624.00,0.1647
623.00,0.1653
622.00,0.1659
621.00,0.1663
620.00,0.1666
619.00,0.1668
618.00,0.1670
617.00,0.1672
616.00,0.1673
615.00,0.1674
614.00,0.1677
613.00,0.1679
612.00,0.1679
611.00,0.1680
610.00,0.1681
609.00,0.1682
608.00,0.1681
607.00,0.1682
606.00,0.1684
605.00,0.1686
604.00,0.1686
603.00,0.1685
602.00,0.1687
601.00,0.1690
600.00,0.1693
599.00,0.1694
598.00,0.1696
597.00,0.1697
596.00,0.1697
595.00,0.1698
594.00,0.1702
593.00,0.1705
592.00,0.1707
591.00,0.1709
590.00,0.1713
589.00,0.1715
588.00,0.1715
587.00,0.1716
586.00,0.1719
585.00,0.1723
584.00,0.1728
583.00,0.1733
582.00,0.1739
581.00,0.1744
580.00,0.1747
579.00,0.1749
578.00,0.1753
577.00,0.1758
576.00,0.1764
575.00,0.1769
574.00,0.1775
573.00,0.1779
572.00,0.1780
571.00,0.1781
570.00,0.1784
569.00,0.1788
568.00,0.1791
567.00,0.1796
566.00,0.1802
565.00,0.1807
564.00,0.1811
563.00,0.1815
562.00,0.1821
561.00,0.1827
560.00,0.1830
559.00,0.1833
558.00,0.1837
557.00,0.1842
556.00,0.1845
555.00,0.1848
554.00,0.1852
553.00,0.1856
552.00,0.1860
551.00,0.1865
550.00,0.1873
549.00,0.1879
548.00,0.1882
547.00,0.1885
546.00,0.1889
545.00,0.1894
544.00,0.1897
543.00,0.1901
542.00,0.1908
541.00,0.1913
540.00,0.1917
539.00,0.1920
538.00,0.1923
537.00,0.1926
536.00,0.1928
535.00,0.1932
534.00,0.1938
533.00,0.1943
532.00,0.1946
531.00,0.1949
530.00,0.1953
529.00,0.1956
528.00,0.1956
527.00,0.1956
526.00,0.1959
525.00,0.1962
524.00,0.1964
523.00,0.1967
522.00,0.1970
521.00,0.1971
520.00,0.1970
519.00,0.1968
518.00,0.1968
517.00,0.1967
516.00,0.1966
515.00,0.1965
514.00,0.1966
513.00,0.1965
512.00,0.1962
511.00,0.1960
510.00,0.1959
509.00,0.1958
508.00,0.1954
507.00,0.1953
506.00,0.1955
505.00,0.1956
504.00,0.1954
503.00,0.1952
502.00,0.1951
501.00,0.1952
500.00,0.1951
499.00,0.1952
498.00,0.1955
497.00,0.1955
496.00,0.1954
495.00,0.1954
494.00,0.1956
493.00,0.1957
492.00,0.1954
491.00,0.1953
490.00,0.1954
489.00,0.1955
488.00,0.1952
487.00,0.1949
486.00,0.1949
485.00,0.1949
484.00,0.1948
483.00,0.1948
482.00,0.1950
481.00,0.1950
480.00,0.1946
479.00,0.1942
478.00,0.1942
477.00,0.1942
476.00,0.1938
475.00,0.1935
474.00,0.1936
473.00,0.1938
472.00,0.1939
471.00,0.1941
470.00,0.1946
469.00,0.1948
468.00,0.1947
467.00,0.1945
466.00,0.1948
465.00,0.1950
464.00,0.1950
463.00,0.1949
462.00,0.1950
461.00,0.1948
460.00,0.1941
459.00,0.1937
458.00,0.1942
457.00,0.1947
456.00,0.1947
455.00,0.1944
454.00,0.1942
453.00,0.1941
452.00,0.1936
451.00,0.1933
450.00,0.1932
449.00,0.1930
448.00,0.1924
447.00,0.1919
446.00,0.1918
445.00,0.1915
444.00,0.1910
443.00,0.1908
442.00,0.1911
441.00,0.1911
440.00,0.1905
439.00,0.1898
438.00,0.1895
437.00,0.1891
436.00,0.1882
435.00,0.1878
434.00,0.1882
433.00,0.1887
432.00,0.1885
431.00,0.1881
430.00,0.1882
429.00,0.1884
428.00,0.1881
427.00,0.1877
426.00,0.1878
425.00,0.1878
424.00,0.1874
423.00,0.1874
422.00,0.1879
421.00,0.1877
420.00,0.1864
419.00,0.1859
418.00,0.1872
417.00,0.1882
416.00,0.1879
415.00,0.1876
414.00,0.1879
413.00,0.1879
412.00,0.1867
411.00,0.1855
410.00,0.1855
409.00,0.1854
408.00,0.1844
407.00,0.1836
406.00,0.1841
405.00,0.1846
404.00,0.1842
403.00,0.1839
402.00,0.1848
401.00,0.1852
400.00,0.1839
