Created as New Dataset,Sample 556 By YargerLab Date Thursday, June 05 2025
cm-1,A
4000.00,0.0008
3999.00,0.0008
3998.00,0.0008
3997.00,0.0008
3996.00,0.0008
3995.00,0.0008
3994.00,0.0008
3993.00,0.0008
3992.00,0.0008
3991.00,0.0008
3990.00,0.0008
3989.00,0.0008
3988.00,0.0008
3987.00,0.0008
3986.00,0.0008
3985.00,0.0008
3984.00,0.0008
3983.00,0.0008
3982.00,0.0008
3981.00,0.0008
3980.00,0.0008
3979.00,0.0008
3978.00,0.0008
3977.00,0.0008
3976.00,0.0008
3975.00,0.0008
3974.00,0.0008
3973.00,0.0008
3972.00,0.0008
3971.00,0.0008
3970.00,0.0008
3969.00,0.0008
3968.00,0.0008
3967.00,0.0008
3966.00,0.0008
3965.00,0.0008
3964.00,0.0008
3963.00,0.0008
3962.00,0.0008
3961.00,0.0008
3960.00,0.0008
3959.00,0.0008
3958.00,0.0008
3957.00,0.0008
3956.00,0.0008
3955.00,0.0007
3954.00,0.0008
3953.00,0.0008
3952.00,0.0008
3951.00,0.0008
3950.00,0.0008
3949.00,0.0007
3948.00,0.0007
3947.00,0.0007
3946.00,0.0008
3945.00,0.0008
3944.00,0.0008
3943.00,0.0008
3942.00,0.0008
3941.00,0.0008
3940.00,0.0008
3939.00,0.0008
3938.00,0.0008
3937.00,0.0008
3936.00,0.0008
3935.00,0.0008
3934.00,0.0008
3933.00,0.0008
3932.00,0.0008
3931.00,0.0008
3930.00,0.0008
3929.00,0.0008
3928.00,0.0008
3927.00,0.0008
3926.00,0.0008
3925.00,0.0008
3924.00,0.0007
3923.00,0.0008
3922.00,0.0008
3921.00,0.0008
3920.00,0.0008
3919.00,0.0008
3918.00,0.0008
3917.00,0.0008
3916.00,0.0008
3915.00,0.0008
3914.00,0.0008
3913.00,0.0008
3912.00,0.0008
3911.00,0.0008
3910.00,0.0007
3909.00,0.0007
3908.00,0.0007
3907.00,0.0008
3906.00,0.0008
3905.00,0.0009
3904.00,0.0010
3903.00,0.0010
3902.00,0.0010
3901.00,0.0010
3900.00,0.0010
3899.00,0.0009
3898.00,0.0009
3897.00,0.0008
3896.00,0.0008
3895.00,0.0008
3894.00,0.0008
3893.00,0.0008
3892.00,0.0008
3891.00,0.0008
3890.00,0.0008
3889.00,0.0008
3888.00,0.0008
3887.00,0.0008
3886.00,0.0008
3885.00,0.0008
3884.00,0.0008
3883.00,0.0009
3882.00,0.0009
3881.00,0.0009
3880.00,0.0008
3879.00,0.0008
3878.00,0.0008
3877.00,0.0008
3876.00,0.0008
3875.00,0.0008
3874.00,0.0008
3873.00,0.0008
3872.00,0.0009
3871.00,0.0009
3870.00,0.0009
3869.00,0.0009
3868.00,0.0009
3867.00,0.0010
3866.00,0.0010
3865.00,0.0009
3864.00,0.0009
3863.00,0.0008
3862.00,0.0008
3861.00,0.0007
3860.00,0.0007
3859.00,0.0008
3858.00,0.0008
3857.00,0.0009
3856.00,0.0011
3855.00,0.0012
3854.00,0.0012
3853.00,0.0011
3852.00,0.0011
3851.00,0.0011
3850.00,0.0010
3849.00,0.0009
3848.00,0.0008
3847.00,0.0008
3846.00,0.0007
3845.00,0.0007
3844.00,0.0008
3843.00,0.0008
3842.00,0.0008
3841.00,0.0009
3840.00,0.0009
3839.00,0.0009
3838.00,0.0009
3837.00,0.0009
3836.00,0.0009
3835.00,0.0009
3834.00,0.0009
3833.00,0.0008
3832.00,0.0008
3831.00,0.0007
3830.00,0.0007
3829.00,0.0007
3828.00,0.0007
3827.00,0.0007
3826.00,0.0007
3825.00,0.0007
3824.00,0.0008
3823.00,0.0008
3822.00,0.0008
3821.00,0.0008
3820.00,0.0008
3819.00,0.0008
3818.00,0.0009
3817.00,0.0009
3816.00,0.0008
3815.00,0.0008
3814.00,0.0007
3813.00,0.0007
3812.00,0.0007
3811.00,0.0007
3810.00,0.0008
3809.00,0.0008
3808.00,0.0008
3807.00,0.0008
3806.00,0.0009
3805.00,0.0009
3804.00,0.0009
3803.00,0.0009
3802.00,0.0009
3801.00,0.0009
3800.00,0.0008
3799.00,0.0008
3798.00,0.0008
3797.00,0.0008
3796.00,0.0007
3795.00,0.0007
3794.00,0.0007
3793.00,0.0007
3792.00,0.0007
3791.00,0.0007
3790.00,0.0007
3789.00,0.0006
3788.00,0.0007
3787.00,0.0007
3786.00,0.0007
3785.00,0.0007
3784.00,0.0007
3783.00,0.0007
3782.00,0.0007
3781.00,0.0007
3780.00,0.0007
3779.00,0.0007
3778.00,0.0007
3777.00,0.0007
3776.00,0.0008
3775.00,0.0008
3774.00,0.0008
3773.00,0.0008
3772.00,0.0009
3771.00,0.0008
3770.00,0.0008
3769.00,0.0008
3768.00,0.0008
3767.00,0.0008
3766.00,0.0008
3765.00,0.0008
3764.00,0.0008
3763.00,0.0008
3762.00,0.0008
3761.00,0.0009
3760.00,0.0009
3759.00,0.0009
3758.00,0.0009
3757.00,0.0009
3756.00,0.0009
3755.00,0.0009
3754.00,0.0010
3753.00,0.0011
3752.00,0.0011
3751.00,0.0011
3750.00,0.0011
3749.00,0.0012
3748.00,0.0013
3747.00,0.0013
3746.00,0.0013
3745.00,0.0012
3744.00,0.0011
3743.00,0.0011
3742.00,0.0011
3741.00,0.0010
3740.00,0.0010
3739.00,0.0010
3738.00,0.0010
3737.00,0.0010
3736.00,0.0010
3735.00,0.0009
3734.00,0.0009
3733.00,0.0009
3732.00,0.0009
3731.00,0.0009
3730.00,0.0008
3729.00,0.0008
3728.00,0.0008
3727.00,0.0008
3726.00,0.0008
3725.00,0.0008
3724.00,0.0008
3723.00,0.0008
3722.00,0.0008
3721.00,0.0008
3720.00,0.0008
3719.00,0.0008
3718.00,0.0008
3717.00,0.0008
3716.00,0.0009
3715.00,0.0009
3714.00,0.0009
3713.00,0.0010
3712.00,0.0010
3711.00,0.0010
3710.00,0.0010
3709.00,0.0010
3708.00,0.0010
3707.00,0.0009
3706.00,0.0009
3705.00,0.0009
3704.00,0.0009
3703.00,0.0009
3702.00,0.0009
3701.00,0.0009
3700.00,0.0009
3699.00,0.0009
3698.00,0.0009
3697.00,0.0009
3696.00,0.0009
3695.00,0.0009
3694.00,0.0010
3693.00,0.0011
3692.00,0.0011
3691.00,0.0012
3690.00,0.0012
3689.00,0.0013
3688.00,0.0013
3687.00,0.0013
3686.00,0.0013
3685.00,0.0013
3684.00,0.0013
3683.00,0.0012
3682.00,0.0013
3681.00,0.0013
3680.00,0.0014
3679.00,0.0015
3678.00,0.0016
3677.00,0.0017
3676.00,0.0017
3675.00,0.0017
3674.00,0.0018
3673.00,0.0019
3672.00,0.0019
3671.00,0.0020
3670.00,0.0020
3669.00,0.0020
3668.00,0.0020
3667.00,0.0021
3666.00,0.0021
3665.00,0.0021
3664.00,0.0021
3663.00,0.0021
3662.00,0.0022
3661.00,0.0023
3660.00,0.0023
3659.00,0.0024
3658.00,0.0025
3657.00,0.0025
3656.00,0.0026
3655.00,0.0027
3654.00,0.0028
3653.00,0.0030
3652.00,0.0031
3651.00,0.0032
3650.00,0.0033
3649.00,0.0034
3648.00,0.0035
3647.00,0.0036
3646.00,0.0036
3645.00,0.0036
3644.00,0.0036
3643.00,0.0036
3642.00,0.0036
3641.00,0.0036
3640.00,0.0037
3639.00,0.0037
3638.00,0.0038
3637.00,0.0039
3636.00,0.0040
3635.00,0.0041
3634.00,0.0042
3633.00,0.0042
3632.00,0.0043
3631.00,0.0045
3630.00,0.0046
3629.00,0.0048
3628.00,0.0050
3627.00,0.0051
3626.00,0.0052
3625.00,0.0052
3624.00,0.0051
3623.00,0.0051
3622.00,0.0051
3621.00,0.0052
3620.00,0.0054
3619.00,0.0055
3618.00,0.0057
3617.00,0.0058
3616.00,0.0059
3615.00,0.0060
3614.00,0.0060
3613.00,0.0062
3612.00,0.0063
3611.00,0.0064
3610.00,0.0065
3609.00,0.0067
3608.00,0.0068
3607.00,0.0069
3606.00,0.0069
3605.00,0.0070
3604.00,0.0070
3603.00,0.0070
3602.00,0.0071
3601.00,0.0071
3600.00,0.0072
3599.00,0.0073
3598.00,0.0074
3597.00,0.0075
3596.00,0.0076
3595.00,0.0077
3594.00,0.0078
3593.00,0.0080
3592.00,0.0081
3591.00,0.0082
3590.00,0.0083
3589.00,0.0084
3588.00,0.0086
3587.00,0.0088
3586.00,0.0090
3585.00,0.0091
3584.00,0.0091
3583.00,0.0092
3582.00,0.0092
3581.00,0.0093
3580.00,0.0094
3579.00,0.0095
3578.00,0.0096
3577.00,0.0097
3576.00,0.0098
3575.00,0.0099
3574.00,0.0100
3573.00,0.0101
3572.00,0.0102
3571.00,0.0102
3570.00,0.0104
3569.00,0.0105
3568.00,0.0107
3567.00,0.0110
3566.00,0.0112
3565.00,0.0113
3564.00,0.0113
3563.00,0.0114
3562.00,0.0114
3561.00,0.0115
3560.00,0.0115
3559.00,0.0116
3558.00,0.0118
3557.00,0.0119
3556.00,0.0120
3555.00,0.0122
3554.00,0.0123
3553.00,0.0124
3552.00,0.0125
3551.00,0.0126
3550.00,0.0127
3549.00,0.0128
3548.00,0.0129
3547.00,0.0130
3546.00,0.0132
3545.00,0.0134
3544.00,0.0135
3543.00,0.0136
3542.00,0.0136
3541.00,0.0137
3540.00,0.0137
3539.00,0.0138
3538.00,0.0139
3537.00,0.0140
3536.00,0.0141
3535.00,0.0143
3534.00,0.0144
3533.00,0.0145
3532.00,0.0146
3531.00,0.0147
3530.00,0.0148
3529.00,0.0149
3528.00,0.0150
3527.00,0.0151
3526.00,0.0153
3525.00,0.0154
3524.00,0.0155
3523.00,0.0156
3522.00,0.0157
3521.00,0.0158
3520.00,0.0159
3519.00,0.0160
3518.00,0.0161
3517.00,0.0161
3516.00,0.0162
3515.00,0.0163
3514.00,0.0164
3513.00,0.0165
3512.00,0.0166
3511.00,0.0168
3510.00,0.0169
3509.00,0.0170
3508.00,0.0171
3507.00,0.0172
3506.00,0.0173
3505.00,0.0174
3504.00,0.0176
3503.00,0.0177
3502.00,0.0179
3501.00,0.0180
3500.00,0.0181
3499.00,0.0181
3498.00,0.0182
3497.00,0.0183
3496.00,0.0184
3495.00,0.0185
3494.00,0.0187
3493.00,0.0188
3492.00,0.0189
3491.00,0.0190
3490.00,0.0191
3489.00,0.0192
3488.00,0.0193
3487.00,0.0194
3486.00,0.0195
3485.00,0.0196
3484.00,0.0197
3483.00,0.0198
3482.00,0.0200
3481.00,0.0201
3480.00,0.0202
3479.00,0.0203
3478.00,0.0204
3477.00,0.0205
3476.00,0.0206
3475.00,0.0207
3474.00,0.0209
3473.00,0.0210
3472.00,0.0211
3471.00,0.0212
3470.00,0.0214
3469.00,0.0215
3468.00,0.0216
3467.00,0.0217
3466.00,0.0218
3465.00,0.0219
3464.00,0.0220
3463.00,0.0221
3462.00,0.0222
3461.00,0.0224
3460.00,0.0225
3459.00,0.0226
3458.00,0.0227
3457.00,0.0228
3456.00,0.0229
3455.00,0.0230
3454.00,0.0231
3453.00,0.0232
3452.00,0.0233
3451.00,0.0234
3450.00,0.0235
3449.00,0.0236
3448.00,0.0238
3447.00,0.0239
3446.00,0.0241
3445.00,0.0242
3444.00,0.0243
3443.00,0.0244
3442.00,0.0245
3441.00,0.0246
3440.00,0.0247
3439.00,0.0248
3438.00,0.0249
3437.00,0.0251
3436.00,0.0252
3435.00,0.0252
3434.00,0.0253
3433.00,0.0255
3432.00,0.0256
3431.00,0.0257
3430.00,0.0259
3429.00,0.0260
3428.00,0.0261
3427.00,0.0262
3426.00,0.0263
3425.00,0.0264
3424.00,0.0265
3423.00,0.0267
3422.00,0.0268
3421.00,0.0270
3420.00,0.0271
3419.00,0.0272
3418.00,0.0273
3417.00,0.0275
3416.00,0.0276
3415.00,0.0277
3414.00,0.0278
3413.00,0.0279
3412.00,0.0280
3411.00,0.0281
3410.00,0.0282
3409.00,0.0283
3408.00,0.0284
3407.00,0.0285
3406.00,0.0286
3405.00,0.0287
3404.00,0.0289
3403.00,0.0290
3402.00,0.0291
3401.00,0.0292
3400.00,0.0293
3399.00,0.0295
3398.00,0.0296
3397.00,0.0297
3396.00,0.0298
3395.00,0.0299
3394.00,0.0300
3393.00,0.0302
3392.00,0.0303
3391.00,0.0304
3390.00,0.0305
3389.00,0.0306
3388.00,0.0308
3387.00,0.0309
3386.00,0.0310
3385.00,0.0312
3384.00,0.0313
3383.00,0.0314
3382.00,0.0315
3381.00,0.0316
3380.00,0.0318
3379.00,0.0319
3378.00,0.0320
3377.00,0.0322
3376.00,0.0323
3375.00,0.0325
3374.00,0.0326
3373.00,0.0327
3372.00,0.0329
3371.00,0.0330
3370.00,0.0331
3369.00,0.0333
3368.00,0.0334
3367.00,0.0337
3366.00,0.0339
3365.00,0.0341
3364.00,0.0342
3363.00,0.0344
3362.00,0.0346
3361.00,0.0347
3360.00,0.0349
3359.00,0.0351
3358.00,0.0353
3357.00,0.0354
3356.00,0.0356
3355.00,0.0358
3354.00,0.0360
3353.00,0.0361
3352.00,0.0363
3351.00,0.0365
3350.00,0.0367
3349.00,0.0370
3348.00,0.0372
3347.00,0.0374
3346.00,0.0375
3345.00,0.0377
3344.00,0.0379
3343.00,0.0381
3342.00,0.0383
3341.00,0.0385
3340.00,0.0387
3339.00,0.0389
3338.00,0.0392
3337.00,0.0395
3336.00,0.0397
3335.00,0.0400
3334.00,0.0402
3333.00,0.0405
3332.00,0.0407
3331.00,0.0410
3330.00,0.0412
3329.00,0.0415
3328.00,0.0417
3327.00,0.0420
3326.00,0.0422
3325.00,0.0425
3324.00,0.0428
3323.00,0.0431
3322.00,0.0435
3321.00,0.0438
3320.00,0.0441
3319.00,0.0444
3318.00,0.0447
3317.00,0.0451
3316.00,0.0454
3315.00,0.0457
3314.00,0.0460
3313.00,0.0463
3312.00,0.0466
3311.00,0.0469
3310.00,0.0472
3309.00,0.0476
3308.00,0.0479
3307.00,0.0482
3306.00,0.0486
3305.00,0.0490
3304.00,0.0494
3303.00,0.0498
3302.00,0.0502
3301.00,0.0506
3300.00,0.0509
3299.00,0.0512
3298.00,0.0516
3297.00,0.0519
3296.00,0.0522
3295.00,0.0525
3294.00,0.0529
3293.00,0.0532
3292.00,0.0536
3291.00,0.0540
3290.00,0.0543
3289.00,0.0547
3288.00,0.0549
3287.00,0.0552
3286.00,0.0554
3285.00,0.0557
3284.00,0.0559
3283.00,0.0561
3282.00,0.0563
3281.00,0.0565
3280.00,0.0567
3279.00,0.0568
3278.00,0.0568
3277.00,0.0569
3276.00,0.0569
3275.00,0.0569
3274.00,0.0569
3273.00,0.0568
3272.00,0.0567
3271.00,0.0567
3270.00,0.0566
3269.00,0.0566
3268.00,0.0564
3267.00,0.0563
3266.00,0.0561
3265.00,0.0559
3264.00,0.0557
3263.00,0.0554
3262.00,0.0551
3261.00,0.0549
3260.00,0.0545
3259.00,0.0542
3258.00,0.0538
3257.00,0.0534
3256.00,0.0531
3255.00,0.0528
3254.00,0.0525
3253.00,0.0521
3252.00,0.0518
3251.00,0.0514
3250.00,0.0510
3249.00,0.0506
3248.00,0.0503
3247.00,0.0500
3246.00,0.0497
3245.00,0.0494
3244.00,0.0492
3243.00,0.0489
3242.00,0.0485
3241.00,0.0482
3240.00,0.0479
3239.00,0.0476
3238.00,0.0473
3237.00,0.0469
3236.00,0.0465
3235.00,0.0462
3234.00,0.0459
3233.00,0.0457
3232.00,0.0455
3231.00,0.0453
3230.00,0.0451
3229.00,0.0449
3228.00,0.0447
3227.00,0.0445
3226.00,0.0442
3225.00,0.0440
3224.00,0.0437
3223.00,0.0435
3222.00,0.0432
3221.00,0.0430
3220.00,0.0428
3219.00,0.0426
3218.00,0.0424
3217.00,0.0422
3216.00,0.0420
3215.00,0.0418
3214.00,0.0416
3213.00,0.0413
3212.00,0.0411
3211.00,0.0409
3210.00,0.0407
3209.00,0.0405
3208.00,0.0403
3207.00,0.0401
3206.00,0.0399
3205.00,0.0397
3204.00,0.0395
3203.00,0.0393
3202.00,0.0390
3201.00,0.0388
3200.00,0.0386
3199.00,0.0385
3198.00,0.0383
3197.00,0.0382
3196.00,0.0380
3195.00,0.0378
3194.00,0.0376
3193.00,0.0374
3192.00,0.0372
3191.00,0.0370
3190.00,0.0368
3189.00,0.0366
3188.00,0.0364
3187.00,0.0362
3186.00,0.0360
3185.00,0.0358
3184.00,0.0356
3183.00,0.0354
3182.00,0.0352
3181.00,0.0350
3180.00,0.0348
3179.00,0.0346
3178.00,0.0344
3177.00,0.0343
3176.00,0.0341
3175.00,0.0340
3174.00,0.0338
3173.00,0.0336
3172.00,0.0334
3171.00,0.0332
3170.00,0.0330
3169.00,0.0328
3168.00,0.0327
3167.00,0.0325
3166.00,0.0324
3165.00,0.0322
3164.00,0.0320
3163.00,0.0318
3162.00,0.0317
3161.00,0.0315
3160.00,0.0314
3159.00,0.0312
3158.00,0.0310
3157.00,0.0308
3156.00,0.0307
3155.00,0.0305
3154.00,0.0303
3153.00,0.0301
3152.00,0.0300
3151.00,0.0299
3150.00,0.0298
3149.00,0.0297
3148.00,0.0296
3147.00,0.0295
3146.00,0.0294
3145.00,0.0292
3144.00,0.0291
3143.00,0.0290
3142.00,0.0289
3141.00,0.0287
3140.00,0.0286
3139.00,0.0285
3138.00,0.0284
3137.00,0.0283
3136.00,0.0283
3135.00,0.0282
3134.00,0.0281
3133.00,0.0280
3132.00,0.0279
3131.00,0.0278
3130.00,0.0277
3129.00,0.0277
3128.00,0.0277
3127.00,0.0276
3126.00,0.0276
3125.00,0.0275
3124.00,0.0274
3123.00,0.0273
3122.00,0.0272
3121.00,0.0271
3120.00,0.0270
3119.00,0.0270
3118.00,0.0270
3117.00,0.0270
3116.00,0.0270
3115.00,0.0271
3114.00,0.0271
3113.00,0.0272
3112.00,0.0272
3111.00,0.0272
3110.00,0.0272
3109.00,0.0272
3108.00,0.0272
3107.00,0.0273
3106.00,0.0273
3105.00,0.0274
3104.00,0.0274
3103.00,0.0274
3102.00,0.0275
3101.00,0.0275
3100.00,0.0276
3099.00,0.0276
3098.00,0.0277
3097.00,0.0278
3096.00,0.0279
3095.00,0.0279
3094.00,0.0279
3093.00,0.0279
3092.00,0.0279
3091.00,0.0279
3090.00,0.0280
3089.00,0.0280
3088.00,0.0281
3087.00,0.0281
3086.00,0.0281
3085.00,0.0280
3084.00,0.0280
3083.00,0.0280
3082.00,0.0280
3081.00,0.0280
3080.00,0.0280
3079.00,0.0280
3078.00,0.0281
3077.00,0.0281
3076.00,0.0282
3075.00,0.0282
3074.00,0.0281
3073.00,0.0281
3072.00,0.0281
3071.00,0.0280
3070.00,0.0279
3069.00,0.0278
3068.00,0.0277
3067.00,0.0276
3066.00,0.0276
3065.00,0.0275
3064.00,0.0275
3063.00,0.0274
3062.00,0.0273
3061.00,0.0272
3060.00,0.0271
3059.00,0.0269
3058.00,0.0268
3057.00,0.0266
3056.00,0.0265
3055.00,0.0263
3054.00,0.0261
3053.00,0.0259
3052.00,0.0257
3051.00,0.0256
3050.00,0.0255
3049.00,0.0254
3048.00,0.0252
3047.00,0.0250
3046.00,0.0248
3045.00,0.0246
3044.00,0.0245
3043.00,0.0243
3042.00,0.0242
3041.00,0.0242
3040.00,0.0241
3039.00,0.0240
3038.00,0.0239
3037.00,0.0237
3036.00,0.0236
3035.00,0.0234
3034.00,0.0233
3033.00,0.0232
3032.00,0.0232
3031.00,0.0231
3030.00,0.0230
3029.00,0.0229
3028.00,0.0228
3027.00,0.0226
3026.00,0.0225
3025.00,0.0223
3024.00,0.0222
3023.00,0.0221
3022.00,0.0220
3021.00,0.0218
3020.00,0.0217
3019.00,0.0215
3018.00,0.0214
3017.00,0.0212
3016.00,0.0211
3015.00,0.0210
3014.00,0.0209
3013.00,0.0209
3012.00,0.0209
3011.00,0.0209
3010.00,0.0208
3009.00,0.0208
3008.00,0.0208
3007.00,0.0208
3006.00,0.0208
3005.00,0.0207
3004.00,0.0207
3003.00,0.0207
3002.00,0.0207
3001.00,0.0207
3000.00,0.0208
2999.00,0.0208
2998.00,0.0208
2997.00,0.0209
2996.00,0.0210
2995.00,0.0211
2994.00,0.0212
2993.00,0.0214
2992.00,0.0216
2991.00,0.0218
2990.00,0.0220
2989.00,0.0222
2988.00,0.0225
2987.00,0.0228
2986.00,0.0230
2985.00,0.0233
2984.00,0.0236
2983.00,0.0239
2982.00,0.0242
2981.00,0.0245
2980.00,0.0248
2979.00,0.0252
2978.00,0.0256
2977.00,0.0260
2976.00,0.0264
2975.00,0.0268
2974.00,0.0272
2973.00,0.0275
2972.00,0.0279
2971.00,0.0282
2970.00,0.0286
2969.00,0.0289
2968.00,0.0293
2967.00,0.0296
2966.00,0.0298
2965.00,0.0300
2964.00,0.0302
2963.00,0.0303
2962.00,0.0304
2961.00,0.0304
2960.00,0.0304
2959.00,0.0303
2958.00,0.0301
2957.00,0.0300
2956.00,0.0298
2955.00,0.0295
2954.00,0.0293
2953.00,0.0291
2952.00,0.0289
2951.00,0.0287
2950.00,0.0286
2949.00,0.0285
2948.00,0.0284
2947.00,0.0285
2946.00,0.0285
2945.00,0.0286
2944.00,0.0288
2943.00,0.0290
2942.00,0.0292
2941.00,0.0295
2940.00,0.0297
2939.00,0.0300
2938.00,0.0302
2937.00,0.0305
2936.00,0.0307
2935.00,0.0309
2934.00,0.0311
2933.00,0.0312
2932.00,0.0313
2931.00,0.0313
2930.00,0.0312
2929.00,0.0312
2928.00,0.0312
2927.00,0.0311
2926.00,0.0310
2925.00,0.0308
2924.00,0.0306
2923.00,0.0303
2922.00,0.0300
2921.00,0.0297
2920.00,0.0294
2919.00,0.0290
2918.00,0.0286
2917.00,0.0282
2916.00,0.0278
2915.00,0.0274
2914.00,0.0270
2913.00,0.0267
2912.00,0.0263
2911.00,0.0260
2910.00,0.0257
2909.00,0.0254
2908.00,0.0251
2907.00,0.0248
2906.00,0.0245
2905.00,0.0243
2904.00,0.0240
2903.00,0.0238
2902.00,0.0236
2901.00,0.0234
2900.00,0.0233
2899.00,0.0231
2898.00,0.0229
2897.00,0.0227
2896.00,0.0226
2895.00,0.0224
2894.00,0.0223
2893.00,0.0222
2892.00,0.0221
2891.00,0.0220
2890.00,0.0219
2889.00,0.0219
2888.00,0.0219
2887.00,0.0219
2886.00,0.0219
2885.00,0.0219
2884.00,0.0220
2883.00,0.0221
2882.00,0.0222
2881.00,0.0224
2880.00,0.0225
2879.00,0.0226
2878.00,0.0227
2877.00,0.0228
2876.00,0.0228
2875.00,0.0228
2874.00,0.0227
2873.00,0.0227
2872.00,0.0225
2871.00,0.0224
2870.00,0.0221
2869.00,0.0219
2868.00,0.0216
2867.00,0.0213
2866.00,0.0211
2865.00,0.0209
2864.00,0.0206
2863.00,0.0204
2862.00,0.0203
2861.00,0.0201
2860.00,0.0200
2859.00,0.0199
2858.00,0.0199
2857.00,0.0198
2856.00,0.0197
2855.00,0.0196
2854.00,0.0195
2853.00,0.0193
2852.00,0.0190
2851.00,0.0187
2850.00,0.0184
2849.00,0.0181
2848.00,0.0178
2847.00,0.0175
2846.00,0.0172
2845.00,0.0169
2844.00,0.0167
2843.00,0.0165
2842.00,0.0163
2841.00,0.0161
2840.00,0.0159
2839.00,0.0157
2838.00,0.0156
2837.00,0.0155
2836.00,0.0154
2835.00,0.0153
2834.00,0.0152
2833.00,0.0151
2832.00,0.0150
2831.00,0.0149
2830.00,0.0148
2829.00,0.0148
2828.00,0.0147
2827.00,0.0147
2826.00,0.0146
2825.00,0.0145
2824.00,0.0145
2823.00,0.0144
2822.00,0.0144
2821.00,0.0143
2820.00,0.0142
2819.00,0.0142
2818.00,0.0141
2817.00,0.0141
2816.00,0.0140
2815.00,0.0140
2814.00,0.0140
2813.00,0.0139
2812.00,0.0139
2811.00,0.0138
2810.00,0.0137
2809.00,0.0137
2808.00,0.0136
2807.00,0.0136
2806.00,0.0135
2805.00,0.0135
2804.00,0.0134
2803.00,0.0134
2802.00,0.0133
2801.00,0.0133
2800.00,0.0132
2799.00,0.0132
2798.00,0.0131
2797.00,0.0131
2796.00,0.0131
2795.00,0.0130
2794.00,0.0130
2793.00,0.0129
2792.00,0.0129
2791.00,0.0128
2790.00,0.0128
2789.00,0.0127
2788.00,0.0127
2787.00,0.0127
2786.00,0.0126
2785.00,0.0126
2784.00,0.0125
2783.00,0.0125
2782.00,0.0124
2781.00,0.0124
2780.00,0.0123
2779.00,0.0123
2778.00,0.0122
2777.00,0.0122
2776.00,0.0121
2775.00,0.0121
2774.00,0.0120
2773.00,0.0120
2772.00,0.0120
2771.00,0.0120
2770.00,0.0119
2769.00,0.0119
2768.00,0.0118
2767.00,0.0118
2766.00,0.0117
2765.00,0.0116
2764.00,0.0116
2763.00,0.0115
2762.00,0.0115
2761.00,0.0115
2760.00,0.0114
2759.00,0.0114
2758.00,0.0113
2757.00,0.0113
2756.00,0.0112
2755.00,0.0112
2754.00,0.0111
2753.00,0.0111
2752.00,0.0111
2751.00,0.0110
2750.00,0.0110
2749.00,0.0110
2748.00,0.0110
2747.00,0.0109
2746.00,0.0109
2745.00,0.0108
2744.00,0.0108
2743.00,0.0107
2742.00,0.0107
2741.00,0.0107
2740.00,0.0106
2739.00,0.0106
2738.00,0.0105
2737.00,0.0105
2736.00,0.0104
2735.00,0.0104
2734.00,0.0104
2733.00,0.0104
2732.00,0.0103
2731.00,0.0103
2730.00,0.0102
2729.00,0.0101
2728.00,0.0101
2727.00,0.0100
2726.00,0.0100
2725.00,0.0100
2724.00,0.0099
2723.00,0.0099
2722.00,0.0099
2721.00,0.0098
2720.00,0.0098
2719.00,0.0097
2718.00,0.0096
2717.00,0.0096
2716.00,0.0096
2715.00,0.0095
2714.00,0.0095
2713.00,0.0094
2712.00,0.0094
2711.00,0.0093
2710.00,0.0093
2709.00,0.0093
2708.00,0.0093
2707.00,0.0092
2706.00,0.0092
2705.00,0.0092
2704.00,0.0092
2703.00,0.0091
2702.00,0.0091
2701.00,0.0091
2700.00,0.0091
2699.00,0.0091
2698.00,0.0090
2697.00,0.0090
2696.00,0.0090
2695.00,0.0090
2694.00,0.0089
2693.00,0.0089
2692.00,0.0089
2691.00,0.0089
2690.00,0.0089
2689.00,0.0089
2688.00,0.0089
2687.00,0.0088
2686.00,0.0088
2685.00,0.0088
2684.00,0.0088
2683.00,0.0087
2682.00,0.0087
2681.00,0.0087
2680.00,0.0087
2679.00,0.0087
2678.00,0.0087
2677.00,0.0087
2676.00,0.0087
2675.00,0.0087
2674.00,0.0087
2673.00,0.0086
2672.00,0.0086
2671.00,0.0086
2670.00,0.0085
2669.00,0.0085
2668.00,0.0085
2667.00,0.0086
2666.00,0.0086
2665.00,0.0087
2664.00,0.0087
2663.00,0.0088
2662.00,0.0088
2661.00,0.0088
2660.00,0.0088
2659.00,0.0088
2658.00,0.0088
2657.00,0.0088
2656.00,0.0088
2655.00,0.0088
2654.00,0.0088
2653.00,0.0088
2652.00,0.0088
2651.00,0.0088
2650.00,0.0087
2649.00,0.0087
2648.00,0.0087
2647.00,0.0087
2646.00,0.0087
2645.00,0.0086
2644.00,0.0086
2643.00,0.0086
2642.00,0.0086
2641.00,0.0085
2640.00,0.0085
2639.00,0.0085
2638.00,0.0085
2637.00,0.0085
2636.00,0.0084
2635.00,0.0084
2634.00,0.0084
2633.00,0.0084
2632.00,0.0084
2631.00,0.0083
2630.00,0.0083
2629.00,0.0083
2628.00,0.0083
2627.00,0.0083
2626.00,0.0083
2625.00,0.0082
2624.00,0.0082
2623.00,0.0081
2622.00,0.0081
2621.00,0.0080
2620.00,0.0080
2619.00,0.0080
2618.00,0.0080
2617.00,0.0080
2616.00,0.0079
2615.00,0.0079
2614.00,0.0079
2613.00,0.0079
2612.00,0.0078
2611.00,0.0078
2610.00,0.0078
2609.00,0.0078
2608.00,0.0077
2607.00,0.0077
2606.00,0.0076
2605.00,0.0076
2604.00,0.0075
2603.00,0.0075
2602.00,0.0075
2601.00,0.0075
2600.00,0.0075
2599.00,0.0074
2598.00,0.0074
2597.00,0.0074
2596.00,0.0074
2595.00,0.0073
2594.00,0.0073
2593.00,0.0073
2592.00,0.0073
2591.00,0.0072
2590.00,0.0072
2589.00,0.0071
2588.00,0.0071
2587.00,0.0071
2586.00,0.0071
2585.00,0.0070
2584.00,0.0070
2583.00,0.0070
2582.00,0.0070
2581.00,0.0070
2580.00,0.0070
2579.00,0.0069
2578.00,0.0069
2577.00,0.0069
2576.00,0.0069
2575.00,0.0069
2574.00,0.0068
2573.00,0.0068
2572.00,0.0067
2571.00,0.0067
2570.00,0.0066
2569.00,0.0066
2568.00,0.0066
2567.00,0.0067
2566.00,0.0066
2565.00,0.0066
2564.00,0.0066
2563.00,0.0065
2562.00,0.0065
2561.00,0.0065
2560.00,0.0065
2559.00,0.0065
2558.00,0.0065
2557.00,0.0065
2556.00,0.0064
2555.00,0.0064
2554.00,0.0064
2553.00,0.0063
2552.00,0.0063
2551.00,0.0063
2550.00,0.0063
2549.00,0.0062
2548.00,0.0062
2547.00,0.0062
2546.00,0.0062
2545.00,0.0062
2544.00,0.0062
2543.00,0.0062
2542.00,0.0061
2541.00,0.0061
2540.00,0.0061
2539.00,0.0060
2538.00,0.0060
2537.00,0.0060
2536.00,0.0060
2535.00,0.0060
2534.00,0.0060
2533.00,0.0060
2532.00,0.0060
2531.00,0.0059
2530.00,0.0059
2529.00,0.0059
2528.00,0.0059
2527.00,0.0058
2526.00,0.0058
2525.00,0.0058
2524.00,0.0057
2523.00,0.0057
2522.00,0.0057
2521.00,0.0057
2520.00,0.0058
2519.00,0.0058
2518.00,0.0058
2517.00,0.0058
2516.00,0.0058
2515.00,0.0057
2514.00,0.0057
2513.00,0.0057
2512.00,0.0057
2511.00,0.0056
2510.00,0.0056
2509.00,0.0056
2508.00,0.0056
2507.00,0.0056
2506.00,0.0055
2505.00,0.0055
2504.00,0.0055
2503.00,0.0055
2502.00,0.0055
2501.00,0.0055
2500.00,0.0055
2499.00,0.0055
2498.00,0.0055
2497.00,0.0055
2496.00,0.0055
2495.00,0.0055
2494.00,0.0055
2493.00,0.0054
2492.00,0.0054
2491.00,0.0054
2490.00,0.0054
2489.00,0.0053
2488.00,0.0053
2487.00,0.0053
2486.00,0.0052
2485.00,0.0052
2484.00,0.0052
2483.00,0.0052
2482.00,0.0052
2481.00,0.0051
2480.00,0.0051
2479.00,0.0051
2478.00,0.0051
2477.00,0.0051
2476.00,0.0051
2475.00,0.0051
2474.00,0.0050
2473.00,0.0050
2472.00,0.0050
2471.00,0.0050
2470.00,0.0050
2469.00,0.0050
2468.00,0.0050
2467.00,0.0050
2466.00,0.0050
2465.00,0.0049
2464.00,0.0049
2463.00,0.0049
2462.00,0.0049
2461.00,0.0049
2460.00,0.0049
2459.00,0.0050
2458.00,0.0050
2457.00,0.0050
2456.00,0.0050
2455.00,0.0050
2454.00,0.0049
2453.00,0.0049
2452.00,0.0049
2451.00,0.0048
2450.00,0.0048
2449.00,0.0048
2448.00,0.0048
2447.00,0.0048
2446.00,0.0047
2445.00,0.0047
2444.00,0.0046
2443.00,0.0046
2442.00,0.0045
2441.00,0.0045
2440.00,0.0045
2439.00,0.0045
2438.00,0.0045
2437.00,0.0045
2436.00,0.0044
2435.00,0.0044
2434.00,0.0043
2433.00,0.0043
2432.00,0.0043
2431.00,0.0043
2430.00,0.0043
2429.00,0.0043
2428.00,0.0043
2427.00,0.0042
2426.00,0.0042
2425.00,0.0042
2424.00,0.0041
2423.00,0.0041
2422.00,0.0041
2421.00,0.0041
2420.00,0.0040
2419.00,0.0040
2418.00,0.0040
2417.00,0.0040
2416.00,0.0040
2415.00,0.0040
2414.00,0.0040
2413.00,0.0040
2412.00,0.0040
2411.00,0.0040
2410.00,0.0039
2409.00,0.0039
2408.00,0.0038
2407.00,0.0037
2406.00,0.0037
2405.00,0.0037
2404.00,0.0037
2403.00,0.0037
2402.00,0.0037
2401.00,0.0036
2400.00,0.0036
2399.00,0.0036
2398.00,0.0036
2397.00,0.0036
2396.00,0.0036
2395.00,0.0035
2394.00,0.0035
2393.00,0.0035
2392.00,0.0035
2391.00,0.0035
2390.00,0.0035
2389.00,0.0034
2388.00,0.0034
2387.00,0.0034
2386.00,0.0033
2385.00,0.0033
2384.00,0.0032
2383.00,0.0032
2382.00,0.0031
2381.00,0.0030
2380.00,0.0030
2379.00,0.0029
2378.00,0.0029
2377.00,0.0029
2376.00,0.0029
2375.00,0.0029
2374.00,0.0029
2373.00,0.0029
2372.00,0.0029
2371.00,0.0028
2370.00,0.0028
2369.00,0.0027
2368.00,0.0027
2367.00,0.0027
2366.00,0.0027
2365.00,0.0028
2364.00,0.0028
2363.00,0.0028
2362.00,0.0029
2361.00,0.0028
2360.00,0.0028
2359.00,0.0028
2358.00,0.0028
2357.00,0.0028
2356.00,0.0028
2355.00,0.0028
2354.00,0.0028
2353.00,0.0028
2352.00,0.0028
2351.00,0.0028
2350.00,0.0027
2349.00,0.0028
2348.00,0.0029
2347.00,0.0030
2346.00,0.0031
2345.00,0.0032
2344.00,0.0032
2343.00,0.0031
2342.00,0.0031
2341.00,0.0031
2340.00,0.0031
2339.00,0.0032
2338.00,0.0032
2337.00,0.0032
2336.00,0.0032
2335.00,0.0032
2334.00,0.0032
2333.00,0.0032
2332.00,0.0032
2331.00,0.0032
2330.00,0.0032
2329.00,0.0034
2328.00,0.0038
2327.00,0.0042
2326.00,0.0045
2325.00,0.0046
2324.00,0.0045
2323.00,0.0043
2322.00,0.0040
2321.00,0.0038
2320.00,0.0037
2319.00,0.0036
2318.00,0.0035
2317.00,0.0035
2316.00,0.0035
2315.00,0.0035
2314.00,0.0034
2313.00,0.0034
2312.00,0.0033
2311.00,0.0032
2310.00,0.0032
2309.00,0.0031
2308.00,0.0031
2307.00,0.0031
2306.00,0.0031
2305.00,0.0032
2304.00,0.0032
2303.00,0.0033
2302.00,0.0033
2301.00,0.0034
2300.00,0.0034
2299.00,0.0035
2298.00,0.0036
2297.00,0.0036
2296.00,0.0037
2295.00,0.0038
2294.00,0.0039
2293.00,0.0040
2292.00,0.0040
2291.00,0.0041
2290.00,0.0042
2289.00,0.0042
2288.00,0.0043
2287.00,0.0043
2286.00,0.0043
2285.00,0.0042
2284.00,0.0042
2283.00,0.0041
2282.00,0.0041
2281.00,0.0040
2280.00,0.0040
2279.00,0.0039
2278.00,0.0039
2277.00,0.0038
2276.00,0.0038
2275.00,0.0038
2274.00,0.0037
2273.00,0.0037
2272.00,0.0036
2271.00,0.0036
2270.00,0.0035
2269.00,0.0034
2268.00,0.0033
2267.00,0.0033
2266.00,0.0033
2265.00,0.0033
2264.00,0.0033
2263.00,0.0033
2262.00,0.0033
2261.00,0.0033
2260.00,0.0033
2259.00,0.0033
2258.00,0.0032
2257.00,0.0031
2256.00,0.0030
2255.00,0.0029
2254.00,0.0030
2253.00,0.0030
2252.00,0.0031
2251.00,0.0031
2250.00,0.0031
2249.00,0.0031
2248.00,0.0031
2247.00,0.0031
2246.00,0.0031
2245.00,0.0032
2244.00,0.0032
2243.00,0.0031
2242.00,0.0030
2241.00,0.0030
2240.00,0.0030
2239.00,0.0029
2238.00,0.0029
2237.00,0.0029
2236.00,0.0029
2235.00,0.0030
2234.00,0.0030
2233.00,0.0030
2232.00,0.0031
2231.00,0.0032
2230.00,0.0032
2229.00,0.0032
2228.00,0.0031
2227.00,0.0031
2226.00,0.0031
2225.00,0.0031
2224.00,0.0032
2223.00,0.0032
2222.00,0.0032
2221.00,0.0030
2220.00,0.0029
2219.00,0.0028
2218.00,0.0028
2217.00,0.0029
2216.00,0.0031
2215.00,0.0032
2214.00,0.0033
2213.00,0.0033
2212.00,0.0032
2211.00,0.0031
2210.00,0.0030
2209.00,0.0028
2208.00,0.0027
2207.00,0.0027
2206.00,0.0028
2205.00,0.0028
2204.00,0.0029
2203.00,0.0029
2202.00,0.0029
2201.00,0.0030
2200.00,0.0031
2199.00,0.0032
2198.00,0.0032
2197.00,0.0032
2196.00,0.0032
2195.00,0.0032
2194.00,0.0032
2193.00,0.0032
2192.00,0.0032
2191.00,0.0033
2190.00,0.0033
2189.00,0.0033
2188.00,0.0032
2187.00,0.0031
2186.00,0.0030
2185.00,0.0027
2184.00,0.0025
2183.00,0.0022
2182.00,0.0022
2181.00,0.0024
2180.00,0.0027
2179.00,0.0029
2178.00,0.0028
2177.00,0.0026
2176.00,0.0024
2175.00,0.0022
2174.00,0.0022
2173.00,0.0024
2172.00,0.0029
2171.00,0.0034
2170.00,0.0037
2169.00,0.0039
2168.00,0.0040
2167.00,0.0039
2166.00,0.0038
2165.00,0.0039
2164.00,0.0041
2163.00,0.0041
2162.00,0.0033
2161.00,0.0019
2160.00,0.0002
2159.00,-0.0011
2158.00,-0.0017
2157.00,-0.0015
2156.00,-0.0011
2155.00,-0.0008
2154.00,-0.0004
2153.00,0.0000
2152.00,0.0004
2151.00,0.0006
2150.00,0.0007
2149.00,0.0007
2148.00,0.0006
2147.00,0.0005
2146.00,0.0005
2145.00,0.0005
2144.00,0.0007
2143.00,0.0008
2142.00,0.0009
2141.00,0.0010
2140.00,0.0011
2139.00,0.0011
2138.00,0.0009
2137.00,0.0006
2136.00,0.0003
2135.00,0.0001
2134.00,0.0001
2133.00,0.0002
2132.00,0.0004
2131.00,0.0007
2130.00,0.0010
2129.00,0.0013
2128.00,0.0015
2127.00,0.0016
2126.00,0.0017
2125.00,0.0018
2124.00,0.0019
2123.00,0.0020
2122.00,0.0021
2121.00,0.0022
2120.00,0.0023
2119.00,0.0024
2118.00,0.0025
2117.00,0.0026
2116.00,0.0027
2115.00,0.0028
2114.00,0.0028
2113.00,0.0028
2112.00,0.0029
2111.00,0.0029
2110.00,0.0028
2109.00,0.0027
2108.00,0.0027
2107.00,0.0026
2106.00,0.0026
2105.00,0.0026
2104.00,0.0026
2103.00,0.0027
2102.00,0.0027
2101.00,0.0027
2100.00,0.0027
2099.00,0.0026
2098.00,0.0024
2097.00,0.0023
2096.00,0.0021
2095.00,0.0020
2094.00,0.0021
2093.00,0.0022
2092.00,0.0024
2091.00,0.0025
2090.00,0.0025
2089.00,0.0026
2088.00,0.0026
2087.00,0.0027
2086.00,0.0027
2085.00,0.0028
2084.00,0.0028
2083.00,0.0028
2082.00,0.0028
2081.00,0.0029
2080.00,0.0029
2079.00,0.0029
2078.00,0.0029
2077.00,0.0029
2076.00,0.0028
2075.00,0.0028
2074.00,0.0027
2073.00,0.0026
2072.00,0.0026
2071.00,0.0026
2070.00,0.0026
2069.00,0.0027
2068.00,0.0027
2067.00,0.0027
2066.00,0.0027
2065.00,0.0027
2064.00,0.0027
2063.00,0.0027
2062.00,0.0027
2061.00,0.0027
2060.00,0.0027
2059.00,0.0027
2058.00,0.0026
2057.00,0.0025
2056.00,0.0025
2055.00,0.0026
2054.00,0.0030
2053.00,0.0034
2052.00,0.0037
2051.00,0.0036
2050.00,0.0032
2049.00,0.0028
2048.00,0.0026
2047.00,0.0025
2046.00,0.0023
2045.00,0.0023
2044.00,0.0023
2043.00,0.0024
2042.00,0.0025
2041.00,0.0025
2040.00,0.0025
2039.00,0.0024
2038.00,0.0022
2037.00,0.0022
2036.00,0.0022
2035.00,0.0020
2034.00,0.0018
2033.00,0.0017
2032.00,0.0016
2031.00,0.0014
2030.00,0.0013
2029.00,0.0014
2028.00,0.0015
2027.00,0.0016
2026.00,0.0016
2025.00,0.0015
2024.00,0.0016
2023.00,0.0015
2022.00,0.0014
2021.00,0.0014
2020.00,0.0015
2019.00,0.0014
2018.00,0.0013
2017.00,0.0012
2016.00,0.0013
2015.00,0.0014
2014.00,0.0016
2013.00,0.0018
2012.00,0.0019
2011.00,0.0020
2010.00,0.0018
2009.00,0.0016
2008.00,0.0013
2007.00,0.0009
2006.00,0.0007
2005.00,0.0007
2004.00,0.0008
2003.00,0.0010
2002.00,0.0012
2001.00,0.0014
2000.00,0.0015
1999.00,0.0016
1998.00,0.0017
1997.00,0.0018
1996.00,0.0020
1995.00,0.0021
1994.00,0.0021
1993.00,0.0021
1992.00,0.0023
1991.00,0.0024
1990.00,0.0026
1989.00,0.0026
1988.00,0.0026
1987.00,0.0026
1986.00,0.0026
1985.00,0.0027
1984.00,0.0029
1983.00,0.0032
1982.00,0.0035
1981.00,0.0035
1980.00,0.0033
1979.00,0.0026
1978.00,0.0019
1977.00,0.0014
1976.00,0.0012
1975.00,0.0010
1974.00,0.0009
1973.00,0.0009
1972.00,0.0009
1971.00,0.0009
1970.00,0.0009
1969.00,0.0011
1968.00,0.0012
1967.00,0.0013
1966.00,0.0013
1965.00,0.0013
1964.00,0.0013
1963.00,0.0012
1962.00,0.0010
1961.00,0.0010
1960.00,0.0009
1959.00,0.0009
1958.00,0.0009
1957.00,0.0010
1956.00,0.0011
1955.00,0.0013
1954.00,0.0013
1953.00,0.0013
1952.00,0.0012
1951.00,0.0012
1950.00,0.0012
1949.00,0.0013
1948.00,0.0014
1947.00,0.0015
1946.00,0.0014
1945.00,0.0014
1944.00,0.0014
1943.00,0.0014
1942.00,0.0014
1941.00,0.0014
1940.00,0.0015
1939.00,0.0015
1938.00,0.0015
1937.00,0.0015
1936.00,0.0016
1935.00,0.0016
1934.00,0.0016
1933.00,0.0017
1932.00,0.0017
1931.00,0.0017
1930.00,0.0016
1929.00,0.0016
1928.00,0.0017
1927.00,0.0018
1926.00,0.0018
1925.00,0.0019
1924.00,0.0019
1923.00,0.0020
1922.00,0.0020
1921.00,0.0021
1920.00,0.0021
1919.00,0.0021
1918.00,0.0020
1917.00,0.0019
1916.00,0.0020
1915.00,0.0020
1914.00,0.0021
1913.00,0.0021
1912.00,0.0021
1911.00,0.0021
1910.00,0.0021
1909.00,0.0022
1908.00,0.0022
1907.00,0.0022
1906.00,0.0022
1905.00,0.0022
1904.00,0.0021
1903.00,0.0021
1902.00,0.0020
1901.00,0.0020
1900.00,0.0021
1899.00,0.0021
1898.00,0.0021
1897.00,0.0022
1896.00,0.0022
1895.00,0.0022
1894.00,0.0022
1893.00,0.0022
1892.00,0.0023
1891.00,0.0023
1890.00,0.0022
1889.00,0.0022
1888.00,0.0022
1887.00,0.0022
1886.00,0.0022
1885.00,0.0023
1884.00,0.0024
1883.00,0.0024
1882.00,0.0023
1881.00,0.0023
1880.00,0.0023
1879.00,0.0023
1878.00,0.0023
1877.00,0.0023
1876.00,0.0024
1875.00,0.0024
1874.00,0.0025
1873.00,0.0025
1872.00,0.0025
1871.00,0.0024
1870.00,0.0023
1869.00,0.0022
1868.00,0.0021
1867.00,0.0021
1866.00,0.0022
1865.00,0.0023
1864.00,0.0024
1863.00,0.0024
1862.00,0.0025
1861.00,0.0025
1860.00,0.0025
1859.00,0.0025
1858.00,0.0024
1857.00,0.0024
1856.00,0.0024
1855.00,0.0024
1854.00,0.0024
1853.00,0.0024
1852.00,0.0024
1851.00,0.0025
1850.00,0.0025
1849.00,0.0025
1848.00,0.0026
1847.00,0.0025
1846.00,0.0025
1845.00,0.0025
1844.00,0.0025
1843.00,0.0026
1842.00,0.0023
1841.00,0.0023
1840.00,0.0026
1839.00,0.0027
1838.00,0.0027
1837.00,0.0027
1836.00,0.0027
1835.00,0.0027
1834.00,0.0027
1833.00,0.0027
1832.00,0.0027
1831.00,0.0027
1830.00,0.0026
1829.00,0.0025
1828.00,0.0026
1827.00,0.0027
1826.00,0.0027
1825.00,0.0027
1824.00,0.0028
1823.00,0.0028
1822.00,0.0029
1821.00,0.0029
1820.00,0.0029
1819.00,0.0029
1818.00,0.0028
1817.00,0.0028
1816.00,0.0028
1815.00,0.0029
1814.00,0.0030
1813.00,0.0031
1812.00,0.0032
1811.00,0.0032
1810.00,0.0032
1809.00,0.0033
1808.00,0.0033
1807.00,0.0034
1806.00,0.0034
1805.00,0.0035
1804.00,0.0035
1803.00,0.0035
1802.00,0.0036
1801.00,0.0036
1800.00,0.0036
1799.00,0.0036
1798.00,0.0037
1797.00,0.0037
1796.00,0.0038
1795.00,0.0039
1794.00,0.0039
1793.00,0.0039
1792.00,0.0039
1791.00,0.0040
1790.00,0.0038
1789.00,0.0038
1788.00,0.0040
1787.00,0.0041
1786.00,0.0041
1785.00,0.0041
1784.00,0.0042
1783.00,0.0042
1782.00,0.0043
1781.00,0.0044
1780.00,0.0045
1779.00,0.0045
1778.00,0.0045
1777.00,0.0045
1776.00,0.0046
1775.00,0.0046
1774.00,0.0046
1773.00,0.0044
1772.00,0.0043
1771.00,0.0043
1770.00,0.0044
1769.00,0.0046
1768.00,0.0048
1767.00,0.0050
1766.00,0.0052
1765.00,0.0054
1764.00,0.0056
1763.00,0.0057
1762.00,0.0058
1761.00,0.0059
1760.00,0.0060
1759.00,0.0063
1758.00,0.0065
1757.00,0.0067
1756.00,0.0069
1755.00,0.0072
1754.00,0.0074
1753.00,0.0077
1752.00,0.0079
1751.00,0.0081
1750.00,0.0083
1749.00,0.0086
1748.00,0.0091
1747.00,0.0095
1746.00,0.0099
1745.00,0.0103
1744.00,0.0107
1743.00,0.0111
1742.00,0.0114
1741.00,0.0117
1740.00,0.0120
1739.00,0.0124
1738.00,0.0127
1737.00,0.0131
1736.00,0.0135
1735.00,0.0138
1734.00,0.0140
1733.00,0.0144
1732.00,0.0150
1731.00,0.0158
1730.00,0.0164
1729.00,0.0170
1728.00,0.0174
1727.00,0.0178
1726.00,0.0181
1725.00,0.0185
1724.00,0.0189
1723.00,0.0193
1722.00,0.0196
1721.00,0.0198
1720.00,0.0200
1719.00,0.0202
1718.00,0.0204
1717.00,0.0208
1716.00,0.0214
1715.00,0.0219
1714.00,0.0224
1713.00,0.0230
1712.00,0.0236
1711.00,0.0242
1710.00,0.0248
1709.00,0.0254
1708.00,0.0262
1707.00,0.0271
1706.00,0.0283
1705.00,0.0297
1704.00,0.0310
1703.00,0.0321
1702.00,0.0334
1701.00,0.0357
1700.00,0.0388
1699.00,0.0414
1698.00,0.0434
1697.00,0.0454
1696.00,0.0477
1695.00,0.0496
1694.00,0.0507
1693.00,0.0515
1692.00,0.0524
1691.00,0.0535
1690.00,0.0546
1689.00,0.0557
1688.00,0.0566
1687.00,0.0572
1686.00,0.0580
1685.00,0.0596
1684.00,0.0623
1683.00,0.0645
1682.00,0.0658
1681.00,0.0671
1680.00,0.0686
1679.00,0.0699
1678.00,0.0709
1677.00,0.0719
1676.00,0.0735
1675.00,0.0754
1674.00,0.0770
1673.00,0.0782
1672.00,0.0794
1671.00,0.0810
1670.00,0.0831
1669.00,0.0854
1668.00,0.0874
1667.00,0.0887
1666.00,0.0897
1665.00,0.0909
1664.00,0.0925
1663.00,0.0946
1662.00,0.0968
1661.00,0.0986
1660.00,0.1001
1659.00,0.1014
1658.00,0.1025
1657.00,0.1030
1656.00,0.1032
1655.00,0.1036
1654.00,0.1058
1653.00,0.1097
1652.00,0.1121
1651.00,0.1124
1650.00,0.1121
1649.00,0.1122
1648.00,0.1132
1647.00,0.1151
1646.00,0.1168
1645.00,0.1177
1644.00,0.1181
1643.00,0.1185
1642.00,0.1190
1641.00,0.1197
1640.00,0.1203
1639.00,0.1207
1638.00,0.1211
1637.00,0.1225
1636.00,0.1253
1635.00,0.1285
1634.00,0.1306
1633.00,0.1319
1632.00,0.1331
1631.00,0.1345
1630.00,0.1363
1629.00,0.1385
1628.00,0.1409
1627.00,0.1430
1626.00,0.1446
1625.00,0.1459
1624.00,0.1476
1623.00,0.1495
1622.00,0.1505
1621.00,0.1503
1620.00,0.1492
1619.00,0.1477
1618.00,0.1463
1617.00,0.1448
1616.00,0.1428
1615.00,0.1400
1614.00,0.1367
1613.00,0.1331
1612.00,0.1292
1611.00,0.1252
1610.00,0.1211
1609.00,0.1169
1608.00,0.1127
1607.00,0.1087
1606.00,0.1047
1605.00,0.1010
1604.00,0.0974
1603.00,0.0941
1602.00,0.0910
1601.00,0.0881
1600.00,0.0854
1599.00,0.0829
1598.00,0.0807
1597.00,0.0786
1596.00,0.0766
1595.00,0.0748
1594.00,0.0732
1593.00,0.0717
1592.00,0.0702
1591.00,0.0689
1590.00,0.0678
1589.00,0.0668
1588.00,0.0659
1587.00,0.0651
1586.00,0.0646
1585.00,0.0642
1584.00,0.0638
1583.00,0.0637
1582.00,0.0637
1581.00,0.0637
1580.00,0.0636
1579.00,0.0636
1578.00,0.0638
1577.00,0.0645
1576.00,0.0657
1575.00,0.0669
1574.00,0.0677
1573.00,0.0682
1572.00,0.0687
1571.00,0.0696
1570.00,0.0712
1569.00,0.0729
1568.00,0.0743
1567.00,0.0755
1566.00,0.0767
1565.00,0.0782
1564.00,0.0794
1563.00,0.0801
1562.00,0.0803
1561.00,0.0804
1560.00,0.0818
1559.00,0.0857
1558.00,0.0895
1557.00,0.0912
1556.00,0.0922
1555.00,0.0938
1554.00,0.0958
1553.00,0.0975
1552.00,0.0989
1551.00,0.1005
1550.00,0.1024
1549.00,0.1041
1548.00,0.1052
1547.00,0.1059
1546.00,0.1068
1545.00,0.1080
1544.00,0.1091
1543.00,0.1099
1542.00,0.1109
1541.00,0.1126
1540.00,0.1155
1539.00,0.1180
1538.00,0.1189
1537.00,0.1190
1536.00,0.1189
1535.00,0.1193
1534.00,0.1206
1533.00,0.1224
1532.00,0.1234
1531.00,0.1237
1530.00,0.1238
1529.00,0.1240
1528.00,0.1243
1527.00,0.1247
1526.00,0.1251
1525.00,0.1251
1524.00,0.1246
1523.00,0.1244
1522.00,0.1249
1521.00,0.1259
1520.00,0.1261
1519.00,0.1258
1518.00,0.1256
1517.00,0.1258
1516.00,0.1258
1515.00,0.1250
1514.00,0.1234
1513.00,0.1216
1512.00,0.1195
1511.00,0.1172
1510.00,0.1148
1509.00,0.1123
1508.00,0.1099
1507.00,0.1080
1506.00,0.1059
1505.00,0.1032
1504.00,0.1006
1503.00,0.0984
1502.00,0.0962
1501.00,0.0938
1500.00,0.0915
1499.00,0.0892
1498.00,0.0870
1497.00,0.0849
1496.00,0.0828
1495.00,0.0806
1494.00,0.0785
1493.00,0.0763
1492.00,0.0742
1491.00,0.0721
1490.00,0.0702
1489.00,0.0684
1488.00,0.0668
1487.00,0.0652
1486.00,0.0637
1485.00,0.0623
1484.00,0.0610
1483.00,0.0599
1482.00,0.0590
1481.00,0.0582
1480.00,0.0576
1479.00,0.0571
1478.00,0.0567
1477.00,0.0565
1476.00,0.0565
1475.00,0.0567
1474.00,0.0572
1473.00,0.0581
1472.00,0.0593
1471.00,0.0603
1470.00,0.0608
1469.00,0.0612
1468.00,0.0613
1467.00,0.0614
1466.00,0.0614
1465.00,0.0617
1464.00,0.0621
1463.00,0.0624
1462.00,0.0626
1461.00,0.0626
1460.00,0.0626
1459.00,0.0628
1458.00,0.0636
1457.00,0.0651
1456.00,0.0664
1455.00,0.0670
1454.00,0.0673
1453.00,0.0676
1452.00,0.0677
1451.00,0.0678
1450.00,0.0677
1449.00,0.0676
1448.00,0.0677
1447.00,0.0677
1446.00,0.0675
1445.00,0.0672
1444.00,0.0669
1443.00,0.0666
1442.00,0.0663
1441.00,0.0659
1440.00,0.0653
1439.00,0.0646
1438.00,0.0639
1437.00,0.0633
1436.00,0.0627
1435.00,0.0621
1434.00,0.0615
1433.00,0.0608
1432.00,0.0601
1431.00,0.0595
1430.00,0.0589
1429.00,0.0585
1428.00,0.0582
1427.00,0.0579
1426.00,0.0577
1425.00,0.0577
1424.00,0.0579
1423.00,0.0582
1422.00,0.0582
1421.00,0.0582
1420.00,0.0586
1419.00,0.0594
1418.00,0.0604
1417.00,0.0611
1416.00,0.0617
1415.00,0.0623
1414.00,0.0628
1413.00,0.0632
1412.00,0.0637
1411.00,0.0643
1410.00,0.0647
1409.00,0.0650
1408.00,0.0652
1407.00,0.0655
1406.00,0.0658
1405.00,0.0661
1404.00,0.0664
1403.00,0.0666
1402.00,0.0665
1401.00,0.0665
1400.00,0.0666
1399.00,0.0668
1398.00,0.0670
1397.00,0.0670
1396.00,0.0672
1395.00,0.0674
1394.00,0.0676
1393.00,0.0677
1392.00,0.0678
1391.00,0.0678
1390.00,0.0677
1389.00,0.0676
1388.00,0.0675
1387.00,0.0674
1386.00,0.0671
1385.00,0.0666
1384.00,0.0660
1383.00,0.0653
1382.00,0.0646
1381.00,0.0640
1380.00,0.0633
1379.00,0.0628
1378.00,0.0622
1377.00,0.0616
1376.00,0.0611
1375.00,0.0608
1374.00,0.0606
1373.00,0.0605
1372.00,0.0603
1371.00,0.0601
1370.00,0.0598
1369.00,0.0596
1368.00,0.0592
1367.00,0.0586
1366.00,0.0579
1365.00,0.0571
1364.00,0.0564
1363.00,0.0559
1362.00,0.0556
1361.00,0.0552
1360.00,0.0548
1359.00,0.0544
1358.00,0.0541
1357.00,0.0538
1356.00,0.0536
1355.00,0.0534
1354.00,0.0533
1353.00,0.0531
1352.00,0.0530
1351.00,0.0529
1350.00,0.0529
1349.00,0.0528
1348.00,0.0527
1347.00,0.0527
1346.00,0.0527
1345.00,0.0527
1344.00,0.0526
1343.00,0.0525
1342.00,0.0524
1341.00,0.0524
1340.00,0.0524
1339.00,0.0525
1338.00,0.0525
1337.00,0.0523
1336.00,0.0521
1335.00,0.0519
1334.00,0.0517
1333.00,0.0515
1332.00,0.0514
1331.00,0.0513
1330.00,0.0512
1329.00,0.0511
1328.00,0.0511
1327.00,0.0511
1326.00,0.0511
1325.00,0.0512
1324.00,0.0513
1323.00,0.0514
1322.00,0.0515
1321.00,0.0516
1320.00,0.0517
1319.00,0.0519
1318.00,0.0520
1317.00,0.0521
1316.00,0.0521
1315.00,0.0522
1314.00,0.0523
1313.00,0.0523
1312.00,0.0523
1311.00,0.0523
1310.00,0.0523
1309.00,0.0522
1308.00,0.0522
1307.00,0.0522
1306.00,0.0521
1305.00,0.0521
1304.00,0.0521
1303.00,0.0521
1302.00,0.0522
1301.00,0.0522
1300.00,0.0523
1299.00,0.0524
1298.00,0.0526
1297.00,0.0527
1296.00,0.0530
1295.00,0.0532
1294.00,0.0534
1293.00,0.0536
1292.00,0.0539
1291.00,0.0541
1290.00,0.0544
1289.00,0.0547
1288.00,0.0549
1287.00,0.0551
1286.00,0.0554
1285.00,0.0556
1284.00,0.0558
1283.00,0.0559
1282.00,0.0561
1281.00,0.0563
1280.00,0.0565
1279.00,0.0566
1278.00,0.0567
1277.00,0.0568
1276.00,0.0569
1275.00,0.0569
1274.00,0.0570
1273.00,0.0571
1272.00,0.0572
1271.00,0.0574
1270.00,0.0576
1269.00,0.0578
1268.00,0.0581
1267.00,0.0584
1266.00,0.0588
1265.00,0.0592
1264.00,0.0596
1263.00,0.0600
1262.00,0.0606
1261.00,0.0611
1260.00,0.0616
1259.00,0.0621
1258.00,0.0627
1257.00,0.0632
1256.00,0.0638
1255.00,0.0643
1254.00,0.0649
1253.00,0.0654
1252.00,0.0660
1251.00,0.0665
1250.00,0.0671
1249.00,0.0677
1248.00,0.0682
1247.00,0.0688
1246.00,0.0693
1245.00,0.0699
1244.00,0.0704
1243.00,0.0709
1242.00,0.0715
1241.00,0.0719
1240.00,0.0724
1239.00,0.0729
1238.00,0.0733
1237.00,0.0737
1236.00,0.0740
1235.00,0.0743
1234.00,0.0746
1233.00,0.0748
1232.00,0.0749
1231.00,0.0750
1230.00,0.0751
1229.00,0.0750
1228.00,0.0750
1227.00,0.0749
1226.00,0.0747
1225.00,0.0745
1224.00,0.0743
1223.00,0.0740
1222.00,0.0736
1221.00,0.0733
1220.00,0.0729
1219.00,0.0724
1218.00,0.0720
1217.00,0.0714
1216.00,0.0708
1215.00,0.0701
1214.00,0.0695
1213.00,0.0688
1212.00,0.0681
1211.00,0.0674
1210.00,0.0667
1209.00,0.0660
1208.00,0.0653
1207.00,0.0646
1206.00,0.0640
1205.00,0.0633
1204.00,0.0627
1203.00,0.0621
1202.00,0.0616
1201.00,0.0611
1200.00,0.0606
1199.00,0.0601
1198.00,0.0597
1197.00,0.0593
1196.00,0.0590
1195.00,0.0586
1194.00,0.0583
1193.00,0.0580
1192.00,0.0577
1191.00,0.0574
1190.00,0.0572
1189.00,0.0570
1188.00,0.0567
1187.00,0.0566
1186.00,0.0564
1185.00,0.0563
1184.00,0.0562
1183.00,0.0562
1182.00,0.0562
1181.00,0.0563
1180.00,0.0564
1179.00,0.0566
1178.00,0.0568
1177.00,0.0571
1176.00,0.0574
1175.00,0.0578
1174.00,0.0582
1173.00,0.0586
1172.00,0.0589
1171.00,0.0591
1170.00,0.0593
1169.00,0.0594
1168.00,0.0595
1167.00,0.0597
1166.00,0.0599
1165.00,0.0602
1164.00,0.0604
1163.00,0.0607
1162.00,0.0610
1161.00,0.0613
1160.00,0.0615
1159.00,0.0617
1158.00,0.0620
1157.00,0.0621
1156.00,0.0621
1155.00,0.0620
1154.00,0.0619
1153.00,0.0616
1152.00,0.0612
1151.00,0.0608
1150.00,0.0604
1149.00,0.0599
1148.00,0.0593
1147.00,0.0587
1146.00,0.0581
1145.00,0.0575
1144.00,0.0569
1143.00,0.0563
1142.00,0.0558
1141.00,0.0554
1140.00,0.0550
1139.00,0.0547
1138.00,0.0544
1137.00,0.0542
1136.00,0.0540
1135.00,0.0539
1134.00,0.0539
1133.00,0.0540
1132.00,0.0541
1131.00,0.0543
1130.00,0.0545
1129.00,0.0547
1128.00,0.0549
1127.00,0.0552
1126.00,0.0554
1125.00,0.0556
1124.00,0.0558
1123.00,0.0560
1122.00,0.0563
1121.00,0.0565
1120.00,0.0566
1119.00,0.0568
1118.00,0.0569
1117.00,0.0571
1116.00,0.0572
1115.00,0.0573
1114.00,0.0575
1113.00,0.0576
1112.00,0.0577
1111.00,0.0579
1110.00,0.0581
1109.00,0.0583
1108.00,0.0584
1107.00,0.0587
1106.00,0.0589
1105.00,0.0592
1104.00,0.0594
1103.00,0.0596
1102.00,0.0598
1101.00,0.0601
1100.00,0.0603
1099.00,0.0606
1098.00,0.0610
1097.00,0.0613
1096.00,0.0617
1095.00,0.0622
1094.00,0.0628
1093.00,0.0635
1092.00,0.0641
1091.00,0.0649
1090.00,0.0657
1089.00,0.0667
1088.00,0.0676
1087.00,0.0686
1086.00,0.0696
1085.00,0.0705
1084.00,0.0714
1083.00,0.0723
1082.00,0.0732
1081.00,0.0739
1080.00,0.0745
1079.00,0.0750
1078.00,0.0753
1077.00,0.0755
1076.00,0.0755
1075.00,0.0755
1074.00,0.0754
1073.00,0.0753
1072.00,0.0751
1071.00,0.0750
1070.00,0.0750
1069.00,0.0750
1068.00,0.0752
1067.00,0.0754
1066.00,0.0757
1065.00,0.0761
1064.00,0.0764
1063.00,0.0769
1062.00,0.0774
1061.00,0.0778
1060.00,0.0782
1059.00,0.0786
1058.00,0.0790
1057.00,0.0792
1056.00,0.0794
1055.00,0.0795
1054.00,0.0795
1053.00,0.0795
1052.00,0.0795
1051.00,0.0794
1050.00,0.0794
1049.00,0.0793
1048.00,0.0791
1047.00,0.0789
1046.00,0.0787
1045.00,0.0785
1044.00,0.0783
1043.00,0.0781
1042.00,0.0779
1041.00,0.0777
1040.00,0.0774
1039.00,0.0771
1038.00,0.0769
1037.00,0.0767
1036.00,0.0765
1035.00,0.0764
1034.00,0.0763
1033.00,0.0762
1032.00,0.0761
1031.00,0.0760
1030.00,0.0759
1029.00,0.0757
1028.00,0.0755
1027.00,0.0753
1026.00,0.0750
1025.00,0.0747
1024.00,0.0743
1023.00,0.0737
1022.00,0.0732
1021.00,0.0725
1020.00,0.0718
1019.00,0.0711
1018.00,0.0704
1017.00,0.0697
1016.00,0.0689
1015.00,0.0681
1014.00,0.0673
1013.00,0.0665
1012.00,0.0657
1011.00,0.0650
1010.00,0.0642
1009.00,0.0635
1008.00,0.0628
1007.00,0.0620
1006.00,0.0614
1005.00,0.0607
1004.00,0.0601
1003.00,0.0594
1002.00,0.0588
1001.00,0.0581
1000.00,0.0574
999.00,0.0567
998.00,0.0561
997.00,0.0553
996.00,0.0545
995.00,0.0537
994.00,0.0529
993.00,0.0520
992.00,0.0511
991.00,0.0502
990.00,0.0495
989.00,0.0487
988.00,0.0479
987.00,0.0472
986.00,0.0466
985.00,0.0461
984.00,0.0455
983.00,0.0451
982.00,0.0447
981.00,0.0444
980.00,0.0441
979.00,0.0439
978.00,0.0438
977.00,0.0438
976.00,0.0439
975.00,0.0440
974.00,0.0441
973.00,0.0441
972.00,0.0441
971.00,0.0441
970.00,0.0442
969.00,0.0443
968.00,0.0443
967.00,0.0443
966.00,0.0444
965.00,0.0444
964.00,0.0443
963.00,0.0442
962.00,0.0442
961.00,0.0441
960.00,0.0439
959.00,0.0438
958.00,0.0436
957.00,0.0435
956.00,0.0433
955.00,0.0432
954.00,0.0431
953.00,0.0430
952.00,0.0429
951.00,0.0429
950.00,0.0429
949.00,0.0429
948.00,0.0429
947.00,0.0430
946.00,0.0431
945.00,0.0433
944.00,0.0434
943.00,0.0436
942.00,0.0438
941.00,0.0440
940.00,0.0442
939.00,0.0444
938.00,0.0446
937.00,0.0448
936.00,0.0449
935.00,0.0451
934.00,0.0452
933.00,0.0453
932.00,0.0454
931.00,0.0454
930.00,0.0455
929.00,0.0455
928.00,0.0454
927.00,0.0453
926.00,0.0452
925.00,0.0450
924.00,0.0449
923.00,0.0447
922.00,0.0446
921.00,0.0444
920.00,0.0442
919.00,0.0440
918.00,0.0439
917.00,0.0437
916.00,0.0435
915.00,0.0433
914.00,0.0431
913.00,0.0429
912.00,0.0427
911.00,0.0425
910.00,0.0424
909.00,0.0423
908.00,0.0421
907.00,0.0420
906.00,0.0419
905.00,0.0418
904.00,0.0416
903.00,0.0415
902.00,0.0414
901.00,0.0413
900.00,0.0412
899.00,0.0411
898.00,0.0410
897.00,0.0410
896.00,0.0409
895.00,0.0408
894.00,0.0407
893.00,0.0406
892.00,0.0405
891.00,0.0404
890.00,0.0404
889.00,0.0404
888.00,0.0403
887.00,0.0403
886.00,0.0402
885.00,0.0402
884.00,0.0402
883.00,0.0401
882.00,0.0402
881.00,0.0402
880.00,0.0401
879.00,0.0401
878.00,0.0400
877.00,0.0400
876.00,0.0399
875.00,0.0398
874.00,0.0398
873.00,0.0397
872.00,0.0396
871.00,0.0396
870.00,0.0397
869.00,0.0397
868.00,0.0397
867.00,0.0398
866.00,0.0400
865.00,0.0402
864.00,0.0404
863.00,0.0405
862.00,0.0407
861.00,0.0409
860.00,0.0411
859.00,0.0414
858.00,0.0417
857.00,0.0419
856.00,0.0422
855.00,0.0424
854.00,0.0427
853.00,0.0429
852.00,0.0430
851.00,0.0432
850.00,0.0434
849.00,0.0434
848.00,0.0434
847.00,0.0433
846.00,0.0434
845.00,0.0435
844.00,0.0435
843.00,0.0437
842.00,0.0439
841.00,0.0442
840.00,0.0444
839.00,0.0447
838.00,0.0451
837.00,0.0454
836.00,0.0458
835.00,0.0461
834.00,0.0465
833.00,0.0469
832.00,0.0472
831.00,0.0475
830.00,0.0478
829.00,0.0481
828.00,0.0483
827.00,0.0485
826.00,0.0487
825.00,0.0488
824.00,0.0488
823.00,0.0488
822.00,0.0489
821.00,0.0490
820.00,0.0491
819.00,0.0493
818.00,0.0496
817.00,0.0499
816.00,0.0501
815.00,0.0503
814.00,0.0506
813.00,0.0509
812.00,0.0511
811.00,0.0513
810.00,0.0516
809.00,0.0518
808.00,0.0521
807.00,0.0523
806.00,0.0527
805.00,0.0530
804.00,0.0533
803.00,0.0536
802.00,0.0541
801.00,0.0545
800.00,0.0548
799.00,0.0551
798.00,0.0555
797.00,0.0558
796.00,0.0562
795.00,0.0566
794.00,0.0571
793.00,0.0577
792.00,0.0582
791.00,0.0587
790.00,0.0593
789.00,0.0600
788.00,0.0605
787.00,0.0611
786.00,0.0617
785.00,0.0622
784.00,0.0626
783.00,0.0630
782.00,0.0634
781.00,0.0637
780.00,0.0638
779.00,0.0640
778.00,0.0642
777.00,0.0644
776.00,0.0646
775.00,0.0648
774.00,0.0650
773.00,0.0652
772.00,0.0654
771.00,0.0656
770.00,0.0658
769.00,0.0660
768.00,0.0661
767.00,0.0662
766.00,0.0664
765.00,0.0666
764.00,0.0668
763.00,0.0670
762.00,0.0673
761.00,0.0676
760.00,0.0678
759.00,0.0681
758.00,0.0685
757.00,0.0688
756.00,0.0691
755.00,0.0694
754.00,0.0698
753.00,0.0702
752.00,0.0706
751.00,0.0710
750.00,0.0715
749.00,0.0720
748.00,0.0724
747.00,0.0728
746.00,0.0732
745.00,0.0735
744.00,0.0738
743.00,0.0741
742.00,0.0745
741.00,0.0749
740.00,0.0752
739.00,0.0754
738.00,0.0758
737.00,0.0762
736.00,0.0766
735.00,0.0771
734.00,0.0776
733.00,0.0781
732.00,0.0786
731.00,0.0793
730.00,0.0801
729.00,0.0809
728.00,0.0817
727.00,0.0825
726.00,0.0835
725.00,0.0845
724.00,0.0855
723.00,0.0864
722.00,0.0874
721.00,0.0883
720.00,0.0892
719.00,0.0900
718.00,0.0909
717.00,0.0918
716.00,0.0926
715.00,0.0934
714.00,0.0942
713.00,0.0950
712.00,0.0958
711.00,0.0965
710.00,0.0973
709.00,0.0981
708.00,0.0989
707.00,0.0998
706.00,0.1007
705.00,0.1017
704.00,0.1027
703.00,0.1035
702.00,0.1044
701.00,0.1052
700.00,0.1058
699.00,0.1063
698.00,0.1067
697.00,0.1069
696.00,0.1069
695.00,0.1068
694.00,0.1067
693.00,0.1066
692.00,0.1065
691.00,0.1064
690.00,0.1064
689.00,0.1065
688.00,0.1065
687.00,0.1066
686.00,0.1068
685.00,0.1070
684.00,0.1070
683.00,0.1071
682.00,0.1073
681.00,0.1074
680.00,0.1076
679.00,0.1077
678.00,0.1079
677.00,0.1081
676.00,0.1081
675.00,0.1083
674.00,0.1086
673.00,0.1088
672.00,0.1088
671.00,0.1087
670.00,0.1088
669.00,0.1092
668.00,0.1100
667.00,0.1107
666.00,0.1110
665.00,0.1108
664.00,0.1107
663.00,0.1108
662.00,0.1111
661.00,0.1114
660.00,0.1116
659.00,0.1118
658.00,0.1121
657.00,0.1123
656.00,0.1124
655.00,0.1125
654.00,0.1127
653.00,0.1129
652.00,0.1130
651.00,0.1132
650.00,0.1135
649.00,0.1137
648.00,0.1139
647.00,0.1141
646.00,0.1144
645.00,0.1147
644.00,0.1149
643.00,0.1152
642.00,0.1155
641.00,0.1157
640.00,0.1159
639.00,0.1161
638.00,0.1163
637.00,0.1165
636.00,0.1167
635.00,0.1170
634.00,0.1174
633.00,0.1178
632.00,0.1180
631.00,0.1183
630.00,0.1187
629.00,0.1190
628.00,0.1192
627.00,0.1194
626.00,0.1198
625.00,0.1200
624.00,0.1202
623.00,0.1204
622.00,0.1207
621.00,0.1209
620.00,0.1210
619.00,0.1210
618.00,0.1212
617.00,0.1214
616.00,0.1215
615.00,0.1217
614.00,0.1218
613.00,0.1218
612.00,0.1214
611.00,0.1209
610.00,0.1208
609.00,0.1210
608.00,0.1213
607.00,0.1217
606.00,0.1220
605.00,0.1222
604.00,0.1222
603.00,0.1222
602.00,0.1223
601.00,0.1225
600.00,0.1226
599.00,0.1227
598.00,0.1229
597.00,0.1231
596.00,0.1232
595.00,0.1233
594.00,0.1234
593.00,0.1236
592.00,0.1237
591.00,0.1239
590.00,0.1242
589.00,0.1245
588.00,0.1247
587.00,0.1249
586.00,0.1252
585.00,0.1256
584.00,0.1258
583.00,0.1261
582.00,0.1266
581.00,0.1269
580.00,0.1272
579.00,0.1274
578.00,0.1279
577.00,0.1283
576.00,0.1285
575.00,0.1287
574.00,0.1289
573.00,0.1290
572.00,0.1289
571.00,0.1290
570.00,0.1293
569.00,0.1296
568.00,0.1299
567.00,0.1303
566.00,0.1308
565.00,0.1311
564.00,0.1312
563.00,0.1313
562.00,0.1316
561.00,0.1319
560.00,0.1320
559.00,0.1322
558.00,0.1324
557.00,0.1327
556.00,0.1328
555.00,0.1331
554.00,0.1334
553.00,0.1337
552.00,0.1338
551.00,0.1340
550.00,0.1345
549.00,0.1349
548.00,0.1352
547.00,0.1354
546.00,0.1357
545.00,0.1360
544.00,0.1361
543.00,0.1363
542.00,0.1367
541.00,0.1371
540.00,0.1374
539.00,0.1377
538.00,0.1382
537.00,0.1385
536.00,0.1386
535.00,0.1387
534.00,0.1389
533.00,0.1391
532.00,0.1391
531.00,0.1393
530.00,0.1398
529.00,0.1401
528.00,0.1401
527.00,0.1401
526.00,0.1403
525.00,0.1406
524.00,0.1406
523.00,0.1408
522.00,0.1412
521.00,0.1415
520.00,0.1417
519.00,0.1419
518.00,0.1422
517.00,0.1426
516.00,0.1426
515.00,0.1427
514.00,0.1429
513.00,0.1430
512.00,0.1429
511.00,0.1430
510.00,0.1433
509.00,0.1435
508.00,0.1433
507.00,0.1432
506.00,0.1433
505.00,0.1434
504.00,0.1432
503.00,0.1430
502.00,0.1431
501.00,0.1432
500.00,0.1432
499.00,0.1432
498.00,0.1435
497.00,0.1437
496.00,0.1436
495.00,0.1437
494.00,0.1440
493.00,0.1442
492.00,0.1441
491.00,0.1440
490.00,0.1443
489.00,0.1444
488.00,0.1441
487.00,0.1438
486.00,0.1438
485.00,0.1438
484.00,0.1437
483.00,0.1438
482.00,0.1442
481.00,0.1444
480.00,0.1441
479.00,0.1438
478.00,0.1438
477.00,0.1436
476.00,0.1431
475.00,0.1426
474.00,0.1427
473.00,0.1428
472.00,0.1427
471.00,0.1427
470.00,0.1431
469.00,0.1433
468.00,0.1430
467.00,0.1428
466.00,0.1431
465.00,0.1434
464.00,0.1433
463.00,0.1433
462.00,0.1435
461.00,0.1435
460.00,0.1428
459.00,0.1424
458.00,0.1427
457.00,0.1430
456.00,0.1427
455.00,0.1426
454.00,0.1428
453.00,0.1429
452.00,0.1425
451.00,0.1421
450.00,0.1423
449.00,0.1424
448.00,0.1419
447.00,0.1414
446.00,0.1412
445.00,0.1409
444.00,0.1402
443.00,0.1399
442.00,0.1402
441.00,0.1403
440.00,0.1398
439.00,0.1392
438.00,0.1392
437.00,0.1390
436.00,0.1383
435.00,0.1377
434.00,0.1378
433.00,0.1379
432.00,0.1377
431.00,0.1378
430.00,0.1385
429.00,0.1388
428.00,0.1382
427.00,0.1374
426.00,0.1372
425.00,0.1367
424.00,0.1357
423.00,0.1351
422.00,0.1356
421.00,0.1358
420.00,0.1352
419.00,0.1353
418.00,0.1369
417.00,0.1379
416.00,0.1373
415.00,0.1366
414.00,0.1369
413.00,0.1372
412.00,0.1362
411.00,0.1351
410.00,0.1350
409.00,0.1351
408.00,0.1347
407.00,0.1345
406.00,0.1352
405.00,0.1352
404.00,0.1334
403.00,0.1317
402.00,0.1315
401.00,0.1314
400.00,0.1304
