Created as New Dataset,Sample 068 By YargerLab Date Wednesday, August 13 2025
cm-1,A
4000.00,0.0023
3999.00,0.0023
3998.00,0.0023
3997.00,0.0023
3996.00,0.0023
3995.00,0.0023
3994.00,0.0023
3993.00,0.0024
3992.00,0.0024
3991.00,0.0024
3990.00,0.0023
3989.00,0.0023
3988.00,0.0023
3987.00,0.0023
3986.00,0.0023
3985.00,0.0023
3984.00,0.0023
3983.00,0.0023
3982.00,0.0023
3981.00,0.0023
3980.00,0.0023
3979.00,0.0024
3978.00,0.0024
3977.00,0.0023
3976.00,0.0023
3975.00,0.0023
3974.00,0.0023
3973.00,0.0023
3972.00,0.0023
3971.00,0.0023
3970.00,0.0024
3969.00,0.0024
3968.00,0.0024
3967.00,0.0024
3966.00,0.0024
3965.00,0.0023
3964.00,0.0023
3963.00,0.0023
3962.00,0.0023
3961.00,0.0023
3960.00,0.0023
3959.00,0.0023
3958.00,0.0023
3957.00,0.0023
3956.00,0.0023
3955.00,0.0023
3954.00,0.0023
3953.00,0.0023
3952.00,0.0024
3951.00,0.0024
3950.00,0.0024
3949.00,0.0024
3948.00,0.0024
3947.00,0.0024
3946.00,0.0025
3945.00,0.0025
3944.00,0.0025
3943.00,0.0025
3942.00,0.0024
3941.00,0.0024
3940.00,0.0024
3939.00,0.0024
3938.00,0.0024
3937.00,0.0024
3936.00,0.0024
3935.00,0.0024
3934.00,0.0024
3933.00,0.0024
3932.00,0.0024
3931.00,0.0024
3930.00,0.0024
3929.00,0.0024
3928.00,0.0025
3927.00,0.0025
3926.00,0.0025
3925.00,0.0025
3924.00,0.0025
3923.00,0.0025
3922.00,0.0025
3921.00,0.0025
3920.00,0.0025
3919.00,0.0025
3918.00,0.0025
3917.00,0.0024
3916.00,0.0024
3915.00,0.0024
3914.00,0.0024
3913.00,0.0023
3912.00,0.0023
3911.00,0.0023
3910.00,0.0024
3909.00,0.0024
3908.00,0.0025
3907.00,0.0025
3906.00,0.0026
3905.00,0.0026
3904.00,0.0027
3903.00,0.0027
3902.00,0.0027
3901.00,0.0027
3900.00,0.0027
3899.00,0.0027
3898.00,0.0026
3897.00,0.0026
3896.00,0.0026
3895.00,0.0026
3894.00,0.0026
3893.00,0.0026
3892.00,0.0026
3891.00,0.0026
3890.00,0.0025
3889.00,0.0026
3888.00,0.0026
3887.00,0.0026
3886.00,0.0026
3885.00,0.0026
3884.00,0.0026
3883.00,0.0026
3882.00,0.0026
3881.00,0.0026
3880.00,0.0026
3879.00,0.0026
3878.00,0.0026
3877.00,0.0026
3876.00,0.0026
3875.00,0.0026
3874.00,0.0026
3873.00,0.0027
3872.00,0.0027
3871.00,0.0027
3870.00,0.0027
3869.00,0.0028
3868.00,0.0028
3867.00,0.0028
3866.00,0.0028
3865.00,0.0027
3864.00,0.0027
3863.00,0.0027
3862.00,0.0026
3861.00,0.0026
3860.00,0.0026
3859.00,0.0027
3858.00,0.0027
3857.00,0.0028
3856.00,0.0029
3855.00,0.0030
3854.00,0.0030
3853.00,0.0030
3852.00,0.0031
3851.00,0.0031
3850.00,0.0030
3849.00,0.0029
3848.00,0.0028
3847.00,0.0027
3846.00,0.0027
3845.00,0.0026
3844.00,0.0026
3843.00,0.0027
3842.00,0.0027
3841.00,0.0028
3840.00,0.0028
3839.00,0.0029
3838.00,0.0029
3837.00,0.0030
3836.00,0.0030
3835.00,0.0030
3834.00,0.0029
3833.00,0.0028
3832.00,0.0028
3831.00,0.0027
3830.00,0.0027
3829.00,0.0026
3828.00,0.0026
3827.00,0.0026
3826.00,0.0026
3825.00,0.0026
3824.00,0.0027
3823.00,0.0028
3822.00,0.0028
3821.00,0.0028
3820.00,0.0029
3819.00,0.0029
3818.00,0.0029
3817.00,0.0029
3816.00,0.0028
3815.00,0.0028
3814.00,0.0027
3813.00,0.0027
3812.00,0.0026
3811.00,0.0026
3810.00,0.0026
3809.00,0.0026
3808.00,0.0026
3807.00,0.0026
3806.00,0.0026
3805.00,0.0027
3804.00,0.0028
3803.00,0.0029
3802.00,0.0029
3801.00,0.0029
3800.00,0.0029
3799.00,0.0029
3798.00,0.0028
3797.00,0.0027
3796.00,0.0026
3795.00,0.0026
3794.00,0.0025
3793.00,0.0025
3792.00,0.0024
3791.00,0.0024
3790.00,0.0024
3789.00,0.0024
3788.00,0.0024
3787.00,0.0024
3786.00,0.0024
3785.00,0.0024
3784.00,0.0024
3783.00,0.0025
3782.00,0.0025
3781.00,0.0025
3780.00,0.0025
3779.00,0.0025
3778.00,0.0025
3777.00,0.0025
3776.00,0.0025
3775.00,0.0025
3774.00,0.0025
3773.00,0.0025
3772.00,0.0025
3771.00,0.0025
3770.00,0.0025
3769.00,0.0026
3768.00,0.0026
3767.00,0.0026
3766.00,0.0026
3765.00,0.0026
3764.00,0.0026
3763.00,0.0026
3762.00,0.0027
3761.00,0.0027
3760.00,0.0027
3759.00,0.0027
3758.00,0.0027
3757.00,0.0028
3756.00,0.0028
3755.00,0.0029
3754.00,0.0030
3753.00,0.0031
3752.00,0.0032
3751.00,0.0032
3750.00,0.0032
3749.00,0.0033
3748.00,0.0033
3747.00,0.0034
3746.00,0.0033
3745.00,0.0032
3744.00,0.0031
3743.00,0.0031
3742.00,0.0030
3741.00,0.0029
3740.00,0.0029
3739.00,0.0030
3738.00,0.0030
3737.00,0.0030
3736.00,0.0030
3735.00,0.0030
3734.00,0.0029
3733.00,0.0029
3732.00,0.0028
3731.00,0.0028
3730.00,0.0027
3729.00,0.0027
3728.00,0.0026
3727.00,0.0026
3726.00,0.0026
3725.00,0.0027
3724.00,0.0026
3723.00,0.0026
3722.00,0.0026
3721.00,0.0026
3720.00,0.0025
3719.00,0.0025
3718.00,0.0025
3717.00,0.0025
3716.00,0.0025
3715.00,0.0026
3714.00,0.0026
3713.00,0.0027
3712.00,0.0027
3711.00,0.0027
3710.00,0.0026
3709.00,0.0026
3708.00,0.0026
3707.00,0.0026
3706.00,0.0025
3705.00,0.0024
3704.00,0.0024
3703.00,0.0024
3702.00,0.0024
3701.00,0.0024
3700.00,0.0024
3699.00,0.0024
3698.00,0.0024
3697.00,0.0024
3696.00,0.0024
3695.00,0.0024
3694.00,0.0025
3693.00,0.0026
3692.00,0.0026
3691.00,0.0027
3690.00,0.0027
3689.00,0.0028
3688.00,0.0029
3687.00,0.0029
3686.00,0.0029
3685.00,0.0029
3684.00,0.0028
3683.00,0.0028
3682.00,0.0028
3681.00,0.0028
3680.00,0.0028
3679.00,0.0029
3678.00,0.0030
3677.00,0.0031
3676.00,0.0032
3675.00,0.0032
3674.00,0.0033
3673.00,0.0034
3672.00,0.0034
3671.00,0.0034
3670.00,0.0033
3669.00,0.0033
3668.00,0.0032
3667.00,0.0031
3666.00,0.0031
3665.00,0.0030
3664.00,0.0030
3663.00,0.0029
3662.00,0.0029
3661.00,0.0029
3660.00,0.0030
3659.00,0.0030
3658.00,0.0031
3657.00,0.0031
3656.00,0.0032
3655.00,0.0032
3654.00,0.0033
3653.00,0.0034
3652.00,0.0035
3651.00,0.0036
3650.00,0.0038
3649.00,0.0038
3648.00,0.0038
3647.00,0.0039
3646.00,0.0038
3645.00,0.0038
3644.00,0.0037
3643.00,0.0036
3642.00,0.0035
3641.00,0.0035
3640.00,0.0035
3639.00,0.0035
3638.00,0.0035
3637.00,0.0036
3636.00,0.0036
3635.00,0.0036
3634.00,0.0037
3633.00,0.0038
3632.00,0.0038
3631.00,0.0040
3630.00,0.0041
3629.00,0.0041
3628.00,0.0042
3627.00,0.0042
3626.00,0.0042
3625.00,0.0042
3624.00,0.0042
3623.00,0.0042
3622.00,0.0042
3621.00,0.0042
3620.00,0.0043
3619.00,0.0043
3618.00,0.0044
3617.00,0.0045
3616.00,0.0046
3615.00,0.0046
3614.00,0.0046
3613.00,0.0047
3612.00,0.0047
3611.00,0.0047
3610.00,0.0048
3609.00,0.0048
3608.00,0.0048
3607.00,0.0048
3606.00,0.0048
3605.00,0.0048
3604.00,0.0048
3603.00,0.0048
3602.00,0.0048
3601.00,0.0049
3600.00,0.0049
3599.00,0.0049
3598.00,0.0050
3597.00,0.0050
3596.00,0.0051
3595.00,0.0052
3594.00,0.0052
3593.00,0.0053
3592.00,0.0053
3591.00,0.0053
3590.00,0.0054
3589.00,0.0055
3588.00,0.0056
3587.00,0.0057
3586.00,0.0057
3585.00,0.0058
3584.00,0.0058
3583.00,0.0058
3582.00,0.0058
3581.00,0.0058
3580.00,0.0058
3579.00,0.0058
3578.00,0.0058
3577.00,0.0059
3576.00,0.0060
3575.00,0.0060
3574.00,0.0061
3573.00,0.0062
3572.00,0.0063
3571.00,0.0063
3570.00,0.0064
3569.00,0.0065
3568.00,0.0066
3567.00,0.0068
3566.00,0.0069
3565.00,0.0070
3564.00,0.0070
3563.00,0.0071
3562.00,0.0071
3561.00,0.0071
3560.00,0.0071
3559.00,0.0071
3558.00,0.0071
3557.00,0.0071
3556.00,0.0071
3555.00,0.0072
3554.00,0.0072
3553.00,0.0073
3552.00,0.0074
3551.00,0.0074
3550.00,0.0075
3549.00,0.0075
3548.00,0.0076
3547.00,0.0077
3546.00,0.0078
3545.00,0.0079
3544.00,0.0079
3543.00,0.0080
3542.00,0.0080
3541.00,0.0080
3540.00,0.0079
3539.00,0.0079
3538.00,0.0079
3537.00,0.0080
3536.00,0.0080
3535.00,0.0081
3534.00,0.0081
3533.00,0.0081
3532.00,0.0081
3531.00,0.0082
3530.00,0.0082
3529.00,0.0083
3528.00,0.0084
3527.00,0.0085
3526.00,0.0086
3525.00,0.0087
3524.00,0.0087
3523.00,0.0087
3522.00,0.0087
3521.00,0.0087
3520.00,0.0087
3519.00,0.0087
3518.00,0.0088
3517.00,0.0088
3516.00,0.0088
3515.00,0.0088
3514.00,0.0088
3513.00,0.0088
3512.00,0.0089
3511.00,0.0089
3510.00,0.0089
3509.00,0.0090
3508.00,0.0090
3507.00,0.0091
3506.00,0.0091
3505.00,0.0091
3504.00,0.0091
3503.00,0.0092
3502.00,0.0093
3501.00,0.0093
3500.00,0.0093
3499.00,0.0093
3498.00,0.0093
3497.00,0.0094
3496.00,0.0094
3495.00,0.0094
3494.00,0.0095
3493.00,0.0095
3492.00,0.0095
3491.00,0.0095
3490.00,0.0095
3489.00,0.0095
3488.00,0.0095
3487.00,0.0095
3486.00,0.0096
3485.00,0.0096
3484.00,0.0096
3483.00,0.0097
3482.00,0.0097
3481.00,0.0098
3480.00,0.0098
3479.00,0.0098
3478.00,0.0098
3477.00,0.0099
3476.00,0.0099
3475.00,0.0099
3474.00,0.0100
3473.00,0.0100
3472.00,0.0100
3471.00,0.0100
3470.00,0.0100
3469.00,0.0100
3468.00,0.0101
3467.00,0.0101
3466.00,0.0101
3465.00,0.0101
3464.00,0.0101
3463.00,0.0101
3462.00,0.0101
3461.00,0.0101
3460.00,0.0101
3459.00,0.0101
3458.00,0.0102
3457.00,0.0102
3456.00,0.0102
3455.00,0.0102
3454.00,0.0103
3453.00,0.0103
3452.00,0.0103
3451.00,0.0103
3450.00,0.0103
3449.00,0.0103
3448.00,0.0104
3447.00,0.0104
3446.00,0.0105
3445.00,0.0105
3444.00,0.0105
3443.00,0.0105
3442.00,0.0105
3441.00,0.0105
3440.00,0.0105
3439.00,0.0105
3438.00,0.0105
3437.00,0.0105
3436.00,0.0105
3435.00,0.0105
3434.00,0.0105
3433.00,0.0105
3432.00,0.0106
3431.00,0.0106
3430.00,0.0106
3429.00,0.0106
3428.00,0.0105
3427.00,0.0105
3426.00,0.0105
3425.00,0.0105
3424.00,0.0105
3423.00,0.0106
3422.00,0.0106
3421.00,0.0106
3420.00,0.0106
3419.00,0.0107
3418.00,0.0107
3417.00,0.0107
3416.00,0.0106
3415.00,0.0106
3414.00,0.0106
3413.00,0.0106
3412.00,0.0106
3411.00,0.0106
3410.00,0.0106
3409.00,0.0106
3408.00,0.0106
3407.00,0.0106
3406.00,0.0106
3405.00,0.0107
3404.00,0.0107
3403.00,0.0107
3402.00,0.0107
3401.00,0.0107
3400.00,0.0107
3399.00,0.0107
3398.00,0.0107
3397.00,0.0107
3396.00,0.0107
3395.00,0.0107
3394.00,0.0107
3393.00,0.0107
3392.00,0.0107
3391.00,0.0107
3390.00,0.0107
3389.00,0.0107
3388.00,0.0107
3387.00,0.0107
3386.00,0.0107
3385.00,0.0107
3384.00,0.0107
3383.00,0.0107
3382.00,0.0107
3381.00,0.0107
3380.00,0.0107
3379.00,0.0107
3378.00,0.0107
3377.00,0.0107
3376.00,0.0107
3375.00,0.0107
3374.00,0.0107
3373.00,0.0107
3372.00,0.0107
3371.00,0.0106
3370.00,0.0106
3369.00,0.0106
3368.00,0.0106
3367.00,0.0106
3366.00,0.0107
3365.00,0.0107
3364.00,0.0107
3363.00,0.0107
3362.00,0.0106
3361.00,0.0107
3360.00,0.0107
3359.00,0.0107
3358.00,0.0107
3357.00,0.0107
3356.00,0.0107
3355.00,0.0107
3354.00,0.0107
3353.00,0.0106
3352.00,0.0106
3351.00,0.0105
3350.00,0.0106
3349.00,0.0106
3348.00,0.0107
3347.00,0.0107
3346.00,0.0107
3345.00,0.0107
3344.00,0.0106
3343.00,0.0106
3342.00,0.0106
3341.00,0.0106
3340.00,0.0106
3339.00,0.0106
3338.00,0.0106
3337.00,0.0107
3336.00,0.0108
3335.00,0.0108
3334.00,0.0108
3333.00,0.0108
3332.00,0.0108
3331.00,0.0108
3330.00,0.0108
3329.00,0.0108
3328.00,0.0107
3327.00,0.0107
3326.00,0.0108
3325.00,0.0108
3324.00,0.0109
3323.00,0.0109
3322.00,0.0109
3321.00,0.0109
3320.00,0.0109
3319.00,0.0109
3318.00,0.0110
3317.00,0.0110
3316.00,0.0110
3315.00,0.0110
3314.00,0.0110
3313.00,0.0109
3312.00,0.0109
3311.00,0.0109
3310.00,0.0108
3309.00,0.0107
3308.00,0.0107
3307.00,0.0107
3306.00,0.0107
3305.00,0.0108
3304.00,0.0109
3303.00,0.0110
3302.00,0.0111
3301.00,0.0111
3300.00,0.0111
3299.00,0.0111
3298.00,0.0111
3297.00,0.0110
3296.00,0.0110
3295.00,0.0110
3294.00,0.0110
3293.00,0.0110
3292.00,0.0110
3291.00,0.0111
3290.00,0.0112
3289.00,0.0112
3288.00,0.0113
3287.00,0.0113
3286.00,0.0113
3285.00,0.0113
3284.00,0.0113
3283.00,0.0113
3282.00,0.0113
3281.00,0.0113
3280.00,0.0113
3279.00,0.0113
3278.00,0.0113
3277.00,0.0112
3276.00,0.0112
3275.00,0.0112
3274.00,0.0112
3273.00,0.0112
3272.00,0.0111
3271.00,0.0111
3270.00,0.0111
3269.00,0.0112
3268.00,0.0112
3267.00,0.0112
3266.00,0.0112
3265.00,0.0113
3264.00,0.0113
3263.00,0.0113
3262.00,0.0113
3261.00,0.0113
3260.00,0.0113
3259.00,0.0113
3258.00,0.0112
3257.00,0.0112
3256.00,0.0112
3255.00,0.0112
3254.00,0.0112
3253.00,0.0112
3252.00,0.0112
3251.00,0.0112
3250.00,0.0112
3249.00,0.0112
3248.00,0.0112
3247.00,0.0112
3246.00,0.0112
3245.00,0.0113
3244.00,0.0113
3243.00,0.0113
3242.00,0.0113
3241.00,0.0113
3240.00,0.0113
3239.00,0.0113
3238.00,0.0112
3237.00,0.0112
3236.00,0.0111
3235.00,0.0111
3234.00,0.0111
3233.00,0.0111
3232.00,0.0112
3231.00,0.0112
3230.00,0.0112
3229.00,0.0112
3228.00,0.0111
3227.00,0.0111
3226.00,0.0112
3225.00,0.0112
3224.00,0.0112
3223.00,0.0112
3222.00,0.0111
3221.00,0.0111
3220.00,0.0111
3219.00,0.0111
3218.00,0.0110
3217.00,0.0110
3216.00,0.0110
3215.00,0.0110
3214.00,0.0110
3213.00,0.0110
3212.00,0.0110
3211.00,0.0109
3210.00,0.0109
3209.00,0.0109
3208.00,0.0109
3207.00,0.0109
3206.00,0.0109
3205.00,0.0108
3204.00,0.0108
3203.00,0.0107
3202.00,0.0107
3201.00,0.0107
3200.00,0.0107
3199.00,0.0107
3198.00,0.0107
3197.00,0.0107
3196.00,0.0107
3195.00,0.0107
3194.00,0.0107
3193.00,0.0107
3192.00,0.0107
3191.00,0.0106
3190.00,0.0106
3189.00,0.0106
3188.00,0.0106
3187.00,0.0106
3186.00,0.0106
3185.00,0.0106
3184.00,0.0106
3183.00,0.0106
3182.00,0.0106
3181.00,0.0105
3180.00,0.0105
3179.00,0.0105
3178.00,0.0105
3177.00,0.0105
3176.00,0.0105
3175.00,0.0105
3174.00,0.0105
3173.00,0.0105
3172.00,0.0105
3171.00,0.0105
3170.00,0.0104
3169.00,0.0104
3168.00,0.0104
3167.00,0.0104
3166.00,0.0104
3165.00,0.0104
3164.00,0.0103
3163.00,0.0103
3162.00,0.0103
3161.00,0.0102
3160.00,0.0102
3159.00,0.0102
3158.00,0.0102
3157.00,0.0102
3156.00,0.0102
3155.00,0.0101
3154.00,0.0101
3153.00,0.0101
3152.00,0.0100
3151.00,0.0101
3150.00,0.0100
3149.00,0.0100
3148.00,0.0100
3147.00,0.0100
3146.00,0.0099
3145.00,0.0099
3144.00,0.0099
3143.00,0.0098
3142.00,0.0098
3141.00,0.0098
3140.00,0.0098
3139.00,0.0098
3138.00,0.0098
3137.00,0.0098
3136.00,0.0098
3135.00,0.0098
3134.00,0.0097
3133.00,0.0097
3132.00,0.0098
3131.00,0.0098
3130.00,0.0098
3129.00,0.0097
3128.00,0.0097
3127.00,0.0097
3126.00,0.0097
3125.00,0.0097
3124.00,0.0097
3123.00,0.0097
3122.00,0.0097
3121.00,0.0097
3120.00,0.0097
3119.00,0.0097
3118.00,0.0097
3117.00,0.0096
3116.00,0.0096
3115.00,0.0096
3114.00,0.0096
3113.00,0.0095
3112.00,0.0095
3111.00,0.0095
3110.00,0.0094
3109.00,0.0094
3108.00,0.0094
3107.00,0.0094
3106.00,0.0094
3105.00,0.0093
3104.00,0.0093
3103.00,0.0093
3102.00,0.0093
3101.00,0.0093
3100.00,0.0093
3099.00,0.0093
3098.00,0.0093
3097.00,0.0093
3096.00,0.0092
3095.00,0.0092
3094.00,0.0092
3093.00,0.0092
3092.00,0.0093
3091.00,0.0093
3090.00,0.0093
3089.00,0.0092
3088.00,0.0092
3087.00,0.0092
3086.00,0.0092
3085.00,0.0093
3084.00,0.0093
3083.00,0.0093
3082.00,0.0093
3081.00,0.0093
3080.00,0.0093
3079.00,0.0093
3078.00,0.0092
3077.00,0.0092
3076.00,0.0092
3075.00,0.0092
3074.00,0.0091
3073.00,0.0091
3072.00,0.0091
3071.00,0.0091
3070.00,0.0091
3069.00,0.0091
3068.00,0.0091
3067.00,0.0090
3066.00,0.0090
3065.00,0.0090
3064.00,0.0089
3063.00,0.0089
3062.00,0.0089
3061.00,0.0088
3060.00,0.0088
3059.00,0.0088
3058.00,0.0088
3057.00,0.0087
3056.00,0.0087
3055.00,0.0086
3054.00,0.0086
3053.00,0.0086
3052.00,0.0086
3051.00,0.0086
3050.00,0.0086
3049.00,0.0085
3048.00,0.0086
3047.00,0.0086
3046.00,0.0086
3045.00,0.0085
3044.00,0.0085
3043.00,0.0085
3042.00,0.0085
3041.00,0.0085
3040.00,0.0084
3039.00,0.0084
3038.00,0.0084
3037.00,0.0084
3036.00,0.0084
3035.00,0.0084
3034.00,0.0084
3033.00,0.0083
3032.00,0.0083
3031.00,0.0083
3030.00,0.0083
3029.00,0.0083
3028.00,0.0083
3027.00,0.0082
3026.00,0.0082
3025.00,0.0082
3024.00,0.0082
3023.00,0.0082
3022.00,0.0081
3021.00,0.0081
3020.00,0.0081
3019.00,0.0081
3018.00,0.0081
3017.00,0.0081
3016.00,0.0081
3015.00,0.0081
3014.00,0.0082
3013.00,0.0082
3012.00,0.0083
3011.00,0.0083
3010.00,0.0084
3009.00,0.0085
3008.00,0.0086
3007.00,0.0087
3006.00,0.0088
3005.00,0.0089
3004.00,0.0091
3003.00,0.0092
3002.00,0.0094
3001.00,0.0097
3000.00,0.0099
2999.00,0.0101
2998.00,0.0103
2997.00,0.0106
2996.00,0.0109
2995.00,0.0112
2994.00,0.0115
2993.00,0.0118
2992.00,0.0122
2991.00,0.0125
2990.00,0.0128
2989.00,0.0131
2988.00,0.0134
2987.00,0.0137
2986.00,0.0140
2985.00,0.0142
2984.00,0.0144
2983.00,0.0147
2982.00,0.0149
2981.00,0.0150
2980.00,0.0152
2979.00,0.0154
2978.00,0.0155
2977.00,0.0157
2976.00,0.0158
2975.00,0.0160
2974.00,0.0161
2973.00,0.0162
2972.00,0.0164
2971.00,0.0166
2970.00,0.0167
2969.00,0.0169
2968.00,0.0172
2967.00,0.0174
2966.00,0.0176
2965.00,0.0179
2964.00,0.0181
2963.00,0.0184
2962.00,0.0186
2961.00,0.0189
2960.00,0.0191
2959.00,0.0194
2958.00,0.0196
2957.00,0.0198
2956.00,0.0200
2955.00,0.0201
2954.00,0.0202
2953.00,0.0203
2952.00,0.0203
2951.00,0.0203
2950.00,0.0203
2949.00,0.0202
2948.00,0.0202
2947.00,0.0202
2946.00,0.0202
2945.00,0.0202
2944.00,0.0202
2943.00,0.0203
2942.00,0.0203
2941.00,0.0204
2940.00,0.0205
2939.00,0.0206
2938.00,0.0207
2937.00,0.0209
2936.00,0.0210
2935.00,0.0212
2934.00,0.0213
2933.00,0.0214
2932.00,0.0215
2931.00,0.0216
2930.00,0.0217
2929.00,0.0218
2928.00,0.0219
2927.00,0.0220
2926.00,0.0219
2925.00,0.0219
2924.00,0.0218
2923.00,0.0218
2922.00,0.0216
2921.00,0.0215
2920.00,0.0213
2919.00,0.0211
2918.00,0.0209
2917.00,0.0206
2916.00,0.0203
2915.00,0.0200
2914.00,0.0197
2913.00,0.0193
2912.00,0.0190
2911.00,0.0187
2910.00,0.0183
2909.00,0.0180
2908.00,0.0178
2907.00,0.0175
2906.00,0.0173
2905.00,0.0171
2904.00,0.0170
2903.00,0.0168
2902.00,0.0167
2901.00,0.0166
2900.00,0.0165
2899.00,0.0165
2898.00,0.0164
2897.00,0.0163
2896.00,0.0163
2895.00,0.0163
2894.00,0.0162
2893.00,0.0162
2892.00,0.0162
2891.00,0.0162
2890.00,0.0162
2889.00,0.0161
2888.00,0.0161
2887.00,0.0161
2886.00,0.0161
2885.00,0.0161
2884.00,0.0161
2883.00,0.0161
2882.00,0.0161
2881.00,0.0161
2880.00,0.0162
2879.00,0.0163
2878.00,0.0164
2877.00,0.0164
2876.00,0.0165
2875.00,0.0166
2874.00,0.0167
2873.00,0.0168
2872.00,0.0169
2871.00,0.0170
2870.00,0.0170
2869.00,0.0170
2868.00,0.0170
2867.00,0.0169
2866.00,0.0169
2865.00,0.0168
2864.00,0.0168
2863.00,0.0168
2862.00,0.0168
2861.00,0.0168
2860.00,0.0168
2859.00,0.0168
2858.00,0.0167
2857.00,0.0165
2856.00,0.0163
2855.00,0.0161
2854.00,0.0158
2853.00,0.0155
2852.00,0.0151
2851.00,0.0147
2850.00,0.0143
2849.00,0.0140
2848.00,0.0136
2847.00,0.0133
2846.00,0.0129
2845.00,0.0126
2844.00,0.0123
2843.00,0.0119
2842.00,0.0116
2841.00,0.0113
2840.00,0.0109
2839.00,0.0107
2838.00,0.0104
2837.00,0.0102
2836.00,0.0101
2835.00,0.0099
2834.00,0.0097
2833.00,0.0096
2832.00,0.0094
2831.00,0.0093
2830.00,0.0091
2829.00,0.0090
2828.00,0.0088
2827.00,0.0087
2826.00,0.0085
2825.00,0.0084
2824.00,0.0083
2823.00,0.0081
2822.00,0.0080
2821.00,0.0079
2820.00,0.0078
2819.00,0.0077
2818.00,0.0076
2817.00,0.0076
2816.00,0.0075
2815.00,0.0074
2814.00,0.0074
2813.00,0.0073
2812.00,0.0072
2811.00,0.0071
2810.00,0.0071
2809.00,0.0071
2808.00,0.0070
2807.00,0.0070
2806.00,0.0069
2805.00,0.0069
2804.00,0.0068
2803.00,0.0068
2802.00,0.0068
2801.00,0.0067
2800.00,0.0067
2799.00,0.0066
2798.00,0.0066
2797.00,0.0066
2796.00,0.0065
2795.00,0.0065
2794.00,0.0065
2793.00,0.0065
2792.00,0.0064
2791.00,0.0064
2790.00,0.0064
2789.00,0.0063
2788.00,0.0063
2787.00,0.0063
2786.00,0.0063
2785.00,0.0062
2784.00,0.0062
2783.00,0.0062
2782.00,0.0062
2781.00,0.0061
2780.00,0.0061
2779.00,0.0061
2778.00,0.0061
2777.00,0.0060
2776.00,0.0060
2775.00,0.0060
2774.00,0.0060
2773.00,0.0060
2772.00,0.0060
2771.00,0.0060
2770.00,0.0060
2769.00,0.0060
2768.00,0.0059
2767.00,0.0059
2766.00,0.0059
2765.00,0.0059
2764.00,0.0059
2763.00,0.0059
2762.00,0.0059
2761.00,0.0059
2760.00,0.0059
2759.00,0.0059
2758.00,0.0059
2757.00,0.0059
2756.00,0.0059
2755.00,0.0059
2754.00,0.0059
2753.00,0.0059
2752.00,0.0059
2751.00,0.0059
2750.00,0.0059
2749.00,0.0059
2748.00,0.0059
2747.00,0.0059
2746.00,0.0059
2745.00,0.0060
2744.00,0.0060
2743.00,0.0060
2742.00,0.0060
2741.00,0.0060
2740.00,0.0060
2739.00,0.0060
2738.00,0.0060
2737.00,0.0060
2736.00,0.0060
2735.00,0.0059
2734.00,0.0059
2733.00,0.0060
2732.00,0.0060
2731.00,0.0060
2730.00,0.0060
2729.00,0.0059
2728.00,0.0059
2727.00,0.0059
2726.00,0.0058
2725.00,0.0058
2724.00,0.0059
2723.00,0.0059
2722.00,0.0059
2721.00,0.0058
2720.00,0.0058
2719.00,0.0058
2718.00,0.0058
2717.00,0.0058
2716.00,0.0058
2715.00,0.0058
2714.00,0.0057
2713.00,0.0057
2712.00,0.0057
2711.00,0.0057
2710.00,0.0057
2709.00,0.0057
2708.00,0.0056
2707.00,0.0056
2706.00,0.0056
2705.00,0.0056
2704.00,0.0055
2703.00,0.0055
2702.00,0.0055
2701.00,0.0055
2700.00,0.0055
2699.00,0.0055
2698.00,0.0055
2697.00,0.0054
2696.00,0.0054
2695.00,0.0054
2694.00,0.0054
2693.00,0.0054
2692.00,0.0054
2691.00,0.0054
2690.00,0.0053
2689.00,0.0053
2688.00,0.0053
2687.00,0.0053
2686.00,0.0053
2685.00,0.0053
2684.00,0.0053
2683.00,0.0052
2682.00,0.0052
2681.00,0.0053
2680.00,0.0053
2679.00,0.0053
2678.00,0.0053
2677.00,0.0052
2676.00,0.0052
2675.00,0.0052
2674.00,0.0052
2673.00,0.0052
2672.00,0.0052
2671.00,0.0052
2670.00,0.0052
2669.00,0.0052
2668.00,0.0052
2667.00,0.0052
2666.00,0.0053
2665.00,0.0053
2664.00,0.0053
2663.00,0.0054
2662.00,0.0054
2661.00,0.0054
2660.00,0.0054
2659.00,0.0054
2658.00,0.0055
2657.00,0.0055
2656.00,0.0055
2655.00,0.0055
2654.00,0.0055
2653.00,0.0055
2652.00,0.0055
2651.00,0.0055
2650.00,0.0054
2649.00,0.0054
2648.00,0.0054
2647.00,0.0054
2646.00,0.0054
2645.00,0.0054
2644.00,0.0054
2643.00,0.0054
2642.00,0.0054
2641.00,0.0053
2640.00,0.0053
2639.00,0.0053
2638.00,0.0053
2637.00,0.0053
2636.00,0.0053
2635.00,0.0053
2634.00,0.0053
2633.00,0.0053
2632.00,0.0052
2631.00,0.0052
2630.00,0.0052
2629.00,0.0052
2628.00,0.0052
2627.00,0.0052
2626.00,0.0051
2625.00,0.0051
2624.00,0.0051
2623.00,0.0051
2622.00,0.0051
2621.00,0.0051
2620.00,0.0051
2619.00,0.0051
2618.00,0.0050
2617.00,0.0050
2616.00,0.0050
2615.00,0.0050
2614.00,0.0050
2613.00,0.0049
2612.00,0.0049
2611.00,0.0049
2610.00,0.0049
2609.00,0.0049
2608.00,0.0049
2607.00,0.0049
2606.00,0.0049
2605.00,0.0048
2604.00,0.0048
2603.00,0.0048
2602.00,0.0048
2601.00,0.0047
2600.00,0.0047
2599.00,0.0047
2598.00,0.0047
2597.00,0.0047
2596.00,0.0047
2595.00,0.0047
2594.00,0.0047
2593.00,0.0047
2592.00,0.0047
2591.00,0.0047
2590.00,0.0047
2589.00,0.0047
2588.00,0.0047
2587.00,0.0046
2586.00,0.0046
2585.00,0.0046
2584.00,0.0046
2583.00,0.0046
2582.00,0.0046
2581.00,0.0046
2580.00,0.0046
2579.00,0.0045
2578.00,0.0045
2577.00,0.0045
2576.00,0.0045
2575.00,0.0045
2574.00,0.0046
2573.00,0.0045
2572.00,0.0045
2571.00,0.0045
2570.00,0.0044
2569.00,0.0044
2568.00,0.0044
2567.00,0.0043
2566.00,0.0043
2565.00,0.0043
2564.00,0.0044
2563.00,0.0044
2562.00,0.0044
2561.00,0.0043
2560.00,0.0043
2559.00,0.0043
2558.00,0.0042
2557.00,0.0042
2556.00,0.0041
2555.00,0.0041
2554.00,0.0041
2553.00,0.0041
2552.00,0.0042
2551.00,0.0042
2550.00,0.0042
2549.00,0.0041
2548.00,0.0041
2547.00,0.0041
2546.00,0.0041
2545.00,0.0041
2544.00,0.0041
2543.00,0.0041
2542.00,0.0041
2541.00,0.0040
2540.00,0.0040
2539.00,0.0040
2538.00,0.0040
2537.00,0.0040
2536.00,0.0040
2535.00,0.0039
2534.00,0.0039
2533.00,0.0039
2532.00,0.0039
2531.00,0.0039
2530.00,0.0039
2529.00,0.0039
2528.00,0.0039
2527.00,0.0039
2526.00,0.0038
2525.00,0.0038
2524.00,0.0037
2523.00,0.0037
2522.00,0.0036
2521.00,0.0036
2520.00,0.0036
2519.00,0.0037
2518.00,0.0037
2517.00,0.0037
2516.00,0.0036
2515.00,0.0036
2514.00,0.0036
2513.00,0.0036
2512.00,0.0036
2511.00,0.0036
2510.00,0.0036
2509.00,0.0035
2508.00,0.0035
2507.00,0.0035
2506.00,0.0035
2505.00,0.0036
2504.00,0.0036
2503.00,0.0036
2502.00,0.0035
2501.00,0.0035
2500.00,0.0035
2499.00,0.0035
2498.00,0.0035
2497.00,0.0035
2496.00,0.0035
2495.00,0.0035
2494.00,0.0035
2493.00,0.0034
2492.00,0.0034
2491.00,0.0034
2490.00,0.0034
2489.00,0.0034
2488.00,0.0034
2487.00,0.0034
2486.00,0.0033
2485.00,0.0033
2484.00,0.0033
2483.00,0.0033
2482.00,0.0033
2481.00,0.0033
2480.00,0.0033
2479.00,0.0033
2478.00,0.0034
2477.00,0.0034
2476.00,0.0034
2475.00,0.0033
2474.00,0.0033
2473.00,0.0033
2472.00,0.0033
2471.00,0.0033
2470.00,0.0033
2469.00,0.0033
2468.00,0.0034
2467.00,0.0034
2466.00,0.0034
2465.00,0.0034
2464.00,0.0035
2463.00,0.0035
2462.00,0.0035
2461.00,0.0035
2460.00,0.0035
2459.00,0.0035
2458.00,0.0035
2457.00,0.0035
2456.00,0.0035
2455.00,0.0035
2454.00,0.0035
2453.00,0.0035
2452.00,0.0035
2451.00,0.0034
2450.00,0.0034
2449.00,0.0034
2448.00,0.0034
2447.00,0.0034
2446.00,0.0033
2445.00,0.0033
2444.00,0.0033
2443.00,0.0033
2442.00,0.0033
2441.00,0.0033
2440.00,0.0032
2439.00,0.0032
2438.00,0.0032
2437.00,0.0033
2436.00,0.0033
2435.00,0.0033
2434.00,0.0032
2433.00,0.0032
2432.00,0.0032
2431.00,0.0032
2430.00,0.0032
2429.00,0.0032
2428.00,0.0032
2427.00,0.0032
2426.00,0.0032
2425.00,0.0032
2424.00,0.0031
2423.00,0.0031
2422.00,0.0031
2421.00,0.0031
2420.00,0.0031
2419.00,0.0031
2418.00,0.0031
2417.00,0.0031
2416.00,0.0031
2415.00,0.0031
2414.00,0.0031
2413.00,0.0031
2412.00,0.0031
2411.00,0.0031
2410.00,0.0030
2409.00,0.0030
2408.00,0.0029
2407.00,0.0029
2406.00,0.0029
2405.00,0.0029
2404.00,0.0028
2403.00,0.0028
2402.00,0.0028
2401.00,0.0029
2400.00,0.0029
2399.00,0.0029
2398.00,0.0028
2397.00,0.0028
2396.00,0.0028
2395.00,0.0028
2394.00,0.0028
2393.00,0.0028
2392.00,0.0028
2391.00,0.0028
2390.00,0.0028
2389.00,0.0028
2388.00,0.0028
2387.00,0.0027
2386.00,0.0027
2385.00,0.0026
2384.00,0.0026
2383.00,0.0025
2382.00,0.0025
2381.00,0.0024
2380.00,0.0024
2379.00,0.0025
2378.00,0.0024
2377.00,0.0024
2376.00,0.0024
2375.00,0.0024
2374.00,0.0024
2373.00,0.0024
2372.00,0.0024
2371.00,0.0023
2370.00,0.0023
2369.00,0.0023
2368.00,0.0023
2367.00,0.0023
2366.00,0.0023
2365.00,0.0023
2364.00,0.0024
2363.00,0.0024
2362.00,0.0024
2361.00,0.0024
2360.00,0.0024
2359.00,0.0024
2358.00,0.0024
2357.00,0.0024
2356.00,0.0024
2355.00,0.0024
2354.00,0.0024
2353.00,0.0024
2352.00,0.0024
2351.00,0.0024
2350.00,0.0025
2349.00,0.0026
2348.00,0.0026
2347.00,0.0027
2346.00,0.0027
2345.00,0.0027
2344.00,0.0027
2343.00,0.0027
2342.00,0.0027
2341.00,0.0028
2340.00,0.0029
2339.00,0.0030
2338.00,0.0030
2337.00,0.0030
2336.00,0.0030
2335.00,0.0030
2334.00,0.0030
2333.00,0.0030
2332.00,0.0029
2331.00,0.0029
2330.00,0.0030
2329.00,0.0032
2328.00,0.0036
2327.00,0.0040
2326.00,0.0043
2325.00,0.0044
2324.00,0.0043
2323.00,0.0040
2322.00,0.0038
2321.00,0.0037
2320.00,0.0036
2319.00,0.0035
2318.00,0.0034
2317.00,0.0034
2316.00,0.0034
2315.00,0.0033
2314.00,0.0033
2313.00,0.0033
2312.00,0.0032
2311.00,0.0032
2310.00,0.0032
2309.00,0.0033
2308.00,0.0033
2307.00,0.0033
2306.00,0.0033
2305.00,0.0033
2304.00,0.0033
2303.00,0.0034
2302.00,0.0034
2301.00,0.0034
2300.00,0.0035
2299.00,0.0035
2298.00,0.0036
2297.00,0.0037
2296.00,0.0038
2295.00,0.0039
2294.00,0.0040
2293.00,0.0041
2292.00,0.0041
2291.00,0.0042
2290.00,0.0042
2289.00,0.0043
2288.00,0.0044
2287.00,0.0044
2286.00,0.0043
2285.00,0.0042
2284.00,0.0041
2283.00,0.0041
2282.00,0.0040
2281.00,0.0040
2280.00,0.0039
2279.00,0.0039
2278.00,0.0039
2277.00,0.0038
2276.00,0.0038
2275.00,0.0038
2274.00,0.0038
2273.00,0.0037
2272.00,0.0037
2271.00,0.0037
2270.00,0.0036
2269.00,0.0035
2268.00,0.0034
2267.00,0.0034
2266.00,0.0034
2265.00,0.0034
2264.00,0.0034
2263.00,0.0034
2262.00,0.0034
2261.00,0.0034
2260.00,0.0034
2259.00,0.0034
2258.00,0.0033
2257.00,0.0033
2256.00,0.0032
2255.00,0.0031
2254.00,0.0031
2253.00,0.0031
2252.00,0.0032
2251.00,0.0032
2250.00,0.0032
2249.00,0.0032
2248.00,0.0032
2247.00,0.0032
2246.00,0.0032
2245.00,0.0033
2244.00,0.0033
2243.00,0.0034
2242.00,0.0035
2241.00,0.0035
2240.00,0.0035
2239.00,0.0035
2238.00,0.0035
2237.00,0.0034
2236.00,0.0034
2235.00,0.0033
2234.00,0.0033
2233.00,0.0034
2232.00,0.0034
2231.00,0.0034
2230.00,0.0034
2229.00,0.0033
2228.00,0.0033
2227.00,0.0034
2226.00,0.0034
2225.00,0.0034
2224.00,0.0035
2223.00,0.0036
2222.00,0.0036
2221.00,0.0036
2220.00,0.0034
2219.00,0.0033
2218.00,0.0033
2217.00,0.0032
2216.00,0.0033
2215.00,0.0033
2214.00,0.0034
2213.00,0.0034
2212.00,0.0035
2211.00,0.0035
2210.00,0.0035
2209.00,0.0034
2208.00,0.0032
2207.00,0.0031
2206.00,0.0031
2205.00,0.0031
2204.00,0.0033
2203.00,0.0034
2202.00,0.0035
2201.00,0.0035
2200.00,0.0035
2199.00,0.0035
2198.00,0.0035
2197.00,0.0035
2196.00,0.0035
2195.00,0.0035
2194.00,0.0034
2193.00,0.0034
2192.00,0.0035
2191.00,0.0036
2190.00,0.0037
2189.00,0.0037
2188.00,0.0038
2187.00,0.0038
2186.00,0.0037
2185.00,0.0034
2184.00,0.0031
2183.00,0.0029
2182.00,0.0027
2181.00,0.0028
2180.00,0.0030
2179.00,0.0032
2178.00,0.0032
2177.00,0.0031
2176.00,0.0029
2175.00,0.0029
2174.00,0.0031
2173.00,0.0034
2172.00,0.0037
2171.00,0.0040
2170.00,0.0041
2169.00,0.0042
2168.00,0.0043
2167.00,0.0044
2166.00,0.0045
2165.00,0.0046
2164.00,0.0048
2163.00,0.0047
2162.00,0.0040
2161.00,0.0026
2160.00,0.0008
2159.00,-0.0005
2158.00,-0.0009
2157.00,-0.0007
2156.00,-0.0002
2155.00,0.0003
2154.00,0.0006
2153.00,0.0008
2152.00,0.0010
2151.00,0.0012
2150.00,0.0011
2149.00,0.0011
2148.00,0.0011
2147.00,0.0011
2146.00,0.0010
2145.00,0.0010
2144.00,0.0010
2143.00,0.0011
2142.00,0.0012
2141.00,0.0013
2140.00,0.0014
2139.00,0.0013
2138.00,0.0011
2137.00,0.0008
2136.00,0.0006
2135.00,0.0005
2134.00,0.0005
2133.00,0.0006
2132.00,0.0009
2131.00,0.0011
2130.00,0.0014
2129.00,0.0016
2128.00,0.0019
2127.00,0.0020
2126.00,0.0021
2125.00,0.0021
2124.00,0.0022
2123.00,0.0022
2122.00,0.0022
2121.00,0.0023
2120.00,0.0024
2119.00,0.0025
2118.00,0.0026
2117.00,0.0027
2116.00,0.0028
2115.00,0.0028
2114.00,0.0028
2113.00,0.0028
2112.00,0.0028
2111.00,0.0028
2110.00,0.0028
2109.00,0.0028
2108.00,0.0029
2107.00,0.0029
2106.00,0.0030
2105.00,0.0030
2104.00,0.0031
2103.00,0.0030
2102.00,0.0030
2101.00,0.0030
2100.00,0.0030
2099.00,0.0029
2098.00,0.0028
2097.00,0.0027
2096.00,0.0025
2095.00,0.0025
2094.00,0.0025
2093.00,0.0025
2092.00,0.0026
2091.00,0.0026
2090.00,0.0027
2089.00,0.0028
2088.00,0.0030
2087.00,0.0030
2086.00,0.0031
2085.00,0.0031
2084.00,0.0032
2083.00,0.0032
2082.00,0.0032
2081.00,0.0032
2080.00,0.0032
2079.00,0.0032
2078.00,0.0032
2077.00,0.0032
2076.00,0.0033
2075.00,0.0032
2074.00,0.0032
2073.00,0.0031
2072.00,0.0030
2071.00,0.0029
2070.00,0.0029
2069.00,0.0028
2068.00,0.0028
2067.00,0.0028
2066.00,0.0028
2065.00,0.0028
2064.00,0.0029
2063.00,0.0029
2062.00,0.0028
2061.00,0.0028
2060.00,0.0029
2059.00,0.0030
2058.00,0.0030
2057.00,0.0030
2056.00,0.0031
2055.00,0.0031
2054.00,0.0034
2053.00,0.0038
2052.00,0.0041
2051.00,0.0041
2050.00,0.0038
2049.00,0.0035
2048.00,0.0033
2047.00,0.0033
2046.00,0.0032
2045.00,0.0032
2044.00,0.0032
2043.00,0.0032
2042.00,0.0031
2041.00,0.0031
2040.00,0.0032
2039.00,0.0032
2038.00,0.0031
2037.00,0.0030
2036.00,0.0028
2035.00,0.0026
2034.00,0.0024
2033.00,0.0023
2032.00,0.0023
2031.00,0.0022
2030.00,0.0021
2029.00,0.0020
2028.00,0.0021
2027.00,0.0022
2026.00,0.0022
2025.00,0.0021
2024.00,0.0020
2023.00,0.0020
2022.00,0.0019
2021.00,0.0019
2020.00,0.0020
2019.00,0.0021
2018.00,0.0021
2017.00,0.0021
2016.00,0.0021
2015.00,0.0021
2014.00,0.0021
2013.00,0.0021
2012.00,0.0021
2011.00,0.0021
2010.00,0.0020
2009.00,0.0019
2008.00,0.0016
2007.00,0.0013
2006.00,0.0011
2005.00,0.0011
2004.00,0.0014
2003.00,0.0016
2002.00,0.0018
2001.00,0.0020
2000.00,0.0022
1999.00,0.0023
1998.00,0.0023
1997.00,0.0024
1996.00,0.0024
1995.00,0.0025
1994.00,0.0024
1993.00,0.0024
1992.00,0.0025
1991.00,0.0026
1990.00,0.0026
1989.00,0.0027
1988.00,0.0028
1987.00,0.0029
1986.00,0.0030
1985.00,0.0031
1984.00,0.0034
1983.00,0.0037
1982.00,0.0039
1981.00,0.0040
1980.00,0.0038
1979.00,0.0033
1978.00,0.0026
1977.00,0.0020
1976.00,0.0017
1975.00,0.0016
1974.00,0.0015
1973.00,0.0015
1972.00,0.0016
1971.00,0.0017
1970.00,0.0017
1969.00,0.0017
1968.00,0.0016
1967.00,0.0016
1966.00,0.0015
1965.00,0.0016
1964.00,0.0018
1963.00,0.0017
1962.00,0.0015
1961.00,0.0013
1960.00,0.0011
1959.00,0.0010
1958.00,0.0011
1957.00,0.0014
1956.00,0.0016
1955.00,0.0018
1954.00,0.0018
1953.00,0.0019
1952.00,0.0019
1951.00,0.0019
1950.00,0.0018
1949.00,0.0017
1948.00,0.0017
1947.00,0.0017
1946.00,0.0017
1945.00,0.0018
1944.00,0.0019
1943.00,0.0019
1942.00,0.0019
1941.00,0.0019
1940.00,0.0019
1939.00,0.0018
1938.00,0.0018
1937.00,0.0018
1936.00,0.0019
1935.00,0.0019
1934.00,0.0020
1933.00,0.0020
1932.00,0.0021
1931.00,0.0021
1930.00,0.0021
1929.00,0.0021
1928.00,0.0021
1927.00,0.0020
1926.00,0.0020
1925.00,0.0020
1924.00,0.0021
1923.00,0.0022
1922.00,0.0023
1921.00,0.0023
1920.00,0.0023
1919.00,0.0023
1918.00,0.0022
1917.00,0.0022
1916.00,0.0022
1915.00,0.0021
1914.00,0.0021
1913.00,0.0021
1912.00,0.0021
1911.00,0.0022
1910.00,0.0022
1909.00,0.0022
1908.00,0.0022
1907.00,0.0022
1906.00,0.0022
1905.00,0.0022
1904.00,0.0022
1903.00,0.0023
1902.00,0.0023
1901.00,0.0023
1900.00,0.0023
1899.00,0.0023
1898.00,0.0023
1897.00,0.0024
1896.00,0.0025
1895.00,0.0025
1894.00,0.0025
1893.00,0.0024
1892.00,0.0024
1891.00,0.0024
1890.00,0.0024
1889.00,0.0023
1888.00,0.0023
1887.00,0.0023
1886.00,0.0023
1885.00,0.0023
1884.00,0.0024
1883.00,0.0024
1882.00,0.0024
1881.00,0.0024
1880.00,0.0024
1879.00,0.0024
1878.00,0.0023
1877.00,0.0023
1876.00,0.0023
1875.00,0.0023
1874.00,0.0023
1873.00,0.0024
1872.00,0.0025
1871.00,0.0025
1870.00,0.0024
1869.00,0.0023
1868.00,0.0023
1867.00,0.0024
1866.00,0.0023
1865.00,0.0024
1864.00,0.0024
1863.00,0.0024
1862.00,0.0024
1861.00,0.0024
1860.00,0.0024
1859.00,0.0024
1858.00,0.0023
1857.00,0.0024
1856.00,0.0024
1855.00,0.0024
1854.00,0.0024
1853.00,0.0024
1852.00,0.0025
1851.00,0.0025
1850.00,0.0025
1849.00,0.0025
1848.00,0.0025
1847.00,0.0025
1846.00,0.0024
1845.00,0.0024
1844.00,0.0024
1843.00,0.0024
1842.00,0.0024
1841.00,0.0024
1840.00,0.0024
1839.00,0.0025
1838.00,0.0025
1837.00,0.0025
1836.00,0.0025
1835.00,0.0026
1834.00,0.0026
1833.00,0.0026
1832.00,0.0026
1831.00,0.0026
1830.00,0.0025
1829.00,0.0025
1828.00,0.0025
1827.00,0.0025
1826.00,0.0024
1825.00,0.0024
1824.00,0.0025
1823.00,0.0025
1822.00,0.0024
1821.00,0.0024
1820.00,0.0023
1819.00,0.0022
1818.00,0.0021
1817.00,0.0021
1816.00,0.0021
1815.00,0.0022
1814.00,0.0023
1813.00,0.0024
1812.00,0.0024
1811.00,0.0025
1810.00,0.0025
1809.00,0.0026
1808.00,0.0026
1807.00,0.0026
1806.00,0.0026
1805.00,0.0026
1804.00,0.0026
1803.00,0.0026
1802.00,0.0026
1801.00,0.0026
1800.00,0.0026
1799.00,0.0026
1798.00,0.0026
1797.00,0.0026
1796.00,0.0026
1795.00,0.0027
1794.00,0.0027
1793.00,0.0026
1792.00,0.0027
1791.00,0.0027
1790.00,0.0026
1789.00,0.0026
1788.00,0.0026
1787.00,0.0027
1786.00,0.0027
1785.00,0.0028
1784.00,0.0028
1783.00,0.0028
1782.00,0.0028
1781.00,0.0028
1780.00,0.0028
1779.00,0.0028
1778.00,0.0028
1777.00,0.0028
1776.00,0.0029
1775.00,0.0029
1774.00,0.0029
1773.00,0.0029
1772.00,0.0029
1771.00,0.0029
1770.00,0.0029
1769.00,0.0029
1768.00,0.0029
1767.00,0.0029
1766.00,0.0029
1765.00,0.0029
1764.00,0.0030
1763.00,0.0031
1762.00,0.0031
1761.00,0.0031
1760.00,0.0031
1759.00,0.0031
1758.00,0.0031
1757.00,0.0031
1756.00,0.0031
1755.00,0.0031
1754.00,0.0031
1753.00,0.0031
1752.00,0.0031
1751.00,0.0032
1750.00,0.0031
1749.00,0.0031
1748.00,0.0032
1747.00,0.0032
1746.00,0.0033
1745.00,0.0033
1744.00,0.0034
1743.00,0.0034
1742.00,0.0034
1741.00,0.0035
1740.00,0.0035
1739.00,0.0036
1738.00,0.0037
1737.00,0.0037
1736.00,0.0037
1735.00,0.0038
1734.00,0.0038
1733.00,0.0039
1732.00,0.0040
1731.00,0.0041
1730.00,0.0042
1729.00,0.0043
1728.00,0.0045
1727.00,0.0047
1726.00,0.0048
1725.00,0.0049
1724.00,0.0051
1723.00,0.0053
1722.00,0.0054
1721.00,0.0055
1720.00,0.0056
1719.00,0.0058
1718.00,0.0060
1717.00,0.0062
1716.00,0.0065
1715.00,0.0068
1714.00,0.0070
1713.00,0.0073
1712.00,0.0078
1711.00,0.0082
1710.00,0.0086
1709.00,0.0091
1708.00,0.0097
1707.00,0.0104
1706.00,0.0113
1705.00,0.0123
1704.00,0.0132
1703.00,0.0138
1702.00,0.0147
1701.00,0.0164
1700.00,0.0189
1699.00,0.0210
1698.00,0.0225
1697.00,0.0243
1696.00,0.0273
1695.00,0.0307
1694.00,0.0334
1693.00,0.0354
1692.00,0.0376
1691.00,0.0403
1690.00,0.0434
1689.00,0.0465
1688.00,0.0490
1687.00,0.0508
1686.00,0.0529
1685.00,0.0568
1684.00,0.0625
1683.00,0.0670
1682.00,0.0690
1681.00,0.0702
1680.00,0.0715
1679.00,0.0728
1678.00,0.0737
1677.00,0.0747
1676.00,0.0765
1675.00,0.0788
1674.00,0.0805
1673.00,0.0810
1672.00,0.0812
1671.00,0.0821
1670.00,0.0842
1669.00,0.0868
1668.00,0.0887
1667.00,0.0895
1666.00,0.0896
1665.00,0.0899
1664.00,0.0912
1663.00,0.0936
1662.00,0.0962
1661.00,0.0979
1660.00,0.0988
1659.00,0.0992
1658.00,0.0992
1657.00,0.0986
1656.00,0.0975
1655.00,0.0967
1654.00,0.0986
1653.00,0.1031
1652.00,0.1054
1651.00,0.1037
1650.00,0.1004
1649.00,0.0974
1648.00,0.0954
1647.00,0.0946
1646.00,0.0936
1645.00,0.0914
1644.00,0.0884
1643.00,0.0851
1642.00,0.0818
1641.00,0.0785
1640.00,0.0753
1639.00,0.0720
1638.00,0.0688
1637.00,0.0659
1636.00,0.0634
1635.00,0.0612
1634.00,0.0588
1633.00,0.0562
1632.00,0.0535
1631.00,0.0512
1630.00,0.0493
1629.00,0.0478
1628.00,0.0469
1627.00,0.0462
1626.00,0.0458
1625.00,0.0458
1624.00,0.0465
1623.00,0.0479
1622.00,0.0491
1621.00,0.0496
1620.00,0.0494
1619.00,0.0490
1618.00,0.0486
1617.00,0.0483
1616.00,0.0479
1615.00,0.0470
1614.00,0.0458
1613.00,0.0445
1612.00,0.0434
1611.00,0.0426
1610.00,0.0418
1609.00,0.0407
1608.00,0.0393
1607.00,0.0377
1606.00,0.0358
1605.00,0.0338
1604.00,0.0317
1603.00,0.0298
1602.00,0.0280
1601.00,0.0264
1600.00,0.0251
1599.00,0.0241
1598.00,0.0233
1597.00,0.0227
1596.00,0.0225
1595.00,0.0226
1594.00,0.0231
1593.00,0.0239
1592.00,0.0250
1591.00,0.0265
1590.00,0.0281
1589.00,0.0298
1588.00,0.0313
1587.00,0.0324
1586.00,0.0330
1585.00,0.0330
1584.00,0.0325
1583.00,0.0315
1582.00,0.0302
1581.00,0.0287
1580.00,0.0271
1579.00,0.0257
1578.00,0.0244
1577.00,0.0232
1576.00,0.0223
1575.00,0.0215
1574.00,0.0208
1573.00,0.0200
1572.00,0.0193
1571.00,0.0188
1570.00,0.0183
1569.00,0.0179
1568.00,0.0174
1567.00,0.0169
1566.00,0.0164
1565.00,0.0160
1564.00,0.0156
1563.00,0.0152
1562.00,0.0148
1561.00,0.0143
1560.00,0.0139
1559.00,0.0137
1558.00,0.0137
1557.00,0.0134
1556.00,0.0130
1555.00,0.0128
1554.00,0.0126
1553.00,0.0125
1552.00,0.0124
1551.00,0.0122
1550.00,0.0121
1549.00,0.0120
1548.00,0.0118
1547.00,0.0117
1546.00,0.0116
1545.00,0.0115
1544.00,0.0114
1543.00,0.0112
1542.00,0.0110
1541.00,0.0109
1540.00,0.0109
1539.00,0.0110
1538.00,0.0109
1537.00,0.0108
1536.00,0.0106
1535.00,0.0106
1534.00,0.0107
1533.00,0.0108
1532.00,0.0108
1531.00,0.0108
1530.00,0.0107
1529.00,0.0107
1528.00,0.0108
1527.00,0.0109
1526.00,0.0111
1525.00,0.0112
1524.00,0.0113
1523.00,0.0114
1522.00,0.0117
1521.00,0.0121
1520.00,0.0124
1519.00,0.0125
1518.00,0.0126
1517.00,0.0129
1516.00,0.0132
1515.00,0.0133
1514.00,0.0133
1513.00,0.0133
1512.00,0.0134
1511.00,0.0134
1510.00,0.0134
1509.00,0.0135
1508.00,0.0137
1507.00,0.0143
1506.00,0.0151
1505.00,0.0158
1504.00,0.0164
1503.00,0.0170
1502.00,0.0180
1501.00,0.0192
1500.00,0.0206
1499.00,0.0222
1498.00,0.0239
1497.00,0.0255
1496.00,0.0267
1495.00,0.0273
1494.00,0.0273
1493.00,0.0268
1492.00,0.0261
1491.00,0.0252
1490.00,0.0241
1489.00,0.0228
1488.00,0.0214
1487.00,0.0200
1486.00,0.0187
1485.00,0.0176
1484.00,0.0166
1483.00,0.0157
1482.00,0.0150
1481.00,0.0146
1480.00,0.0142
1479.00,0.0141
1478.00,0.0141
1477.00,0.0143
1476.00,0.0146
1475.00,0.0152
1474.00,0.0161
1473.00,0.0176
1472.00,0.0197
1471.00,0.0218
1470.00,0.0238
1469.00,0.0258
1468.00,0.0279
1467.00,0.0304
1466.00,0.0334
1465.00,0.0368
1464.00,0.0400
1463.00,0.0422
1462.00,0.0433
1461.00,0.0438
1460.00,0.0438
1459.00,0.0434
1458.00,0.0426
1457.00,0.0414
1456.00,0.0398
1455.00,0.0380
1454.00,0.0364
1453.00,0.0351
1452.00,0.0343
1451.00,0.0340
1450.00,0.0341
1449.00,0.0349
1448.00,0.0363
1447.00,0.0380
1446.00,0.0398
1445.00,0.0415
1444.00,0.0434
1443.00,0.0453
1442.00,0.0471
1441.00,0.0488
1440.00,0.0500
1439.00,0.0511
1438.00,0.0524
1437.00,0.0543
1436.00,0.0564
1435.00,0.0575
1434.00,0.0579
1433.00,0.0580
1432.00,0.0583
1431.00,0.0589
1430.00,0.0597
1429.00,0.0608
1428.00,0.0620
1427.00,0.0631
1426.00,0.0644
1425.00,0.0661
1424.00,0.0679
1423.00,0.0690
1422.00,0.0691
1421.00,0.0683
1420.00,0.0668
1419.00,0.0645
1418.00,0.0615
1417.00,0.0580
1416.00,0.0544
1415.00,0.0510
1414.00,0.0479
1413.00,0.0454
1412.00,0.0433
1411.00,0.0417
1410.00,0.0407
1409.00,0.0400
1408.00,0.0397
1407.00,0.0396
1406.00,0.0399
1405.00,0.0404
1404.00,0.0408
1403.00,0.0409
1402.00,0.0406
1401.00,0.0400
1400.00,0.0390
1399.00,0.0376
1398.00,0.0360
1397.00,0.0341
1396.00,0.0321
1395.00,0.0302
1394.00,0.0286
1393.00,0.0272
1392.00,0.0261
1391.00,0.0252
1390.00,0.0246
1389.00,0.0243
1388.00,0.0243
1387.00,0.0246
1386.00,0.0251
1385.00,0.0257
1384.00,0.0264
1383.00,0.0272
1382.00,0.0281
1381.00,0.0289
1380.00,0.0295
1379.00,0.0300
1378.00,0.0302
1377.00,0.0302
1376.00,0.0300
1375.00,0.0298
1374.00,0.0295
1373.00,0.0292
1372.00,0.0287
1371.00,0.0282
1370.00,0.0278
1369.00,0.0275
1368.00,0.0272
1367.00,0.0270
1366.00,0.0270
1365.00,0.0271
1364.00,0.0274
1363.00,0.0279
1362.00,0.0284
1361.00,0.0285
1360.00,0.0282
1359.00,0.0275
1358.00,0.0264
1357.00,0.0252
1356.00,0.0238
1355.00,0.0226
1354.00,0.0216
1353.00,0.0208
1352.00,0.0202
1351.00,0.0198
1350.00,0.0195
1349.00,0.0193
1348.00,0.0191
1347.00,0.0190
1346.00,0.0188
1345.00,0.0187
1344.00,0.0186
1343.00,0.0186
1342.00,0.0186
1341.00,0.0186
1340.00,0.0187
1339.00,0.0189
1338.00,0.0191
1337.00,0.0193
1336.00,0.0196
1335.00,0.0198
1334.00,0.0201
1333.00,0.0204
1332.00,0.0207
1331.00,0.0211
1330.00,0.0216
1329.00,0.0220
1328.00,0.0226
1327.00,0.0231
1326.00,0.0238
1325.00,0.0246
1324.00,0.0253
1323.00,0.0261
1322.00,0.0268
1321.00,0.0275
1320.00,0.0280
1319.00,0.0284
1318.00,0.0286
1317.00,0.0286
1316.00,0.0284
1315.00,0.0280
1314.00,0.0276
1313.00,0.0271
1312.00,0.0266
1311.00,0.0263
1310.00,0.0261
1309.00,0.0260
1308.00,0.0261
1307.00,0.0263
1306.00,0.0267
1305.00,0.0272
1304.00,0.0279
1303.00,0.0288
1302.00,0.0300
1301.00,0.0316
1300.00,0.0336
1299.00,0.0361
1298.00,0.0392
1297.00,0.0428
1296.00,0.0468
1295.00,0.0512
1294.00,0.0556
1293.00,0.0600
1292.00,0.0642
1291.00,0.0680
1290.00,0.0713
1289.00,0.0740
1288.00,0.0761
1287.00,0.0774
1286.00,0.0780
1285.00,0.0777
1284.00,0.0768
1283.00,0.0754
1282.00,0.0736
1281.00,0.0718
1280.00,0.0702
1279.00,0.0688
1278.00,0.0679
1277.00,0.0673
1276.00,0.0671
1275.00,0.0670
1274.00,0.0670
1273.00,0.0668
1272.00,0.0663
1271.00,0.0654
1270.00,0.0640
1269.00,0.0623
1268.00,0.0602
1267.00,0.0578
1266.00,0.0552
1265.00,0.0526
1264.00,0.0500
1263.00,0.0475
1262.00,0.0452
1261.00,0.0429
1260.00,0.0409
1259.00,0.0390
1258.00,0.0372
1257.00,0.0357
1256.00,0.0343
1255.00,0.0330
1254.00,0.0320
1253.00,0.0311
1252.00,0.0304
1251.00,0.0299
1250.00,0.0296
1249.00,0.0296
1248.00,0.0298
1247.00,0.0302
1246.00,0.0308
1245.00,0.0316
1244.00,0.0324
1243.00,0.0332
1242.00,0.0340
1241.00,0.0347
1240.00,0.0352
1239.00,0.0356
1238.00,0.0360
1237.00,0.0363
1236.00,0.0366
1235.00,0.0369
1234.00,0.0371
1233.00,0.0372
1232.00,0.0373
1231.00,0.0372
1230.00,0.0371
1229.00,0.0370
1228.00,0.0368
1227.00,0.0366
1226.00,0.0365
1225.00,0.0365
1224.00,0.0365
1223.00,0.0366
1222.00,0.0367
1221.00,0.0369
1220.00,0.0369
1219.00,0.0369
1218.00,0.0368
1217.00,0.0364
1216.00,0.0357
1215.00,0.0348
1214.00,0.0337
1213.00,0.0325
1212.00,0.0312
1211.00,0.0300
1210.00,0.0290
1209.00,0.0280
1208.00,0.0272
1207.00,0.0266
1206.00,0.0262
1205.00,0.0260
1204.00,0.0260
1203.00,0.0261
1202.00,0.0266
1201.00,0.0272
1200.00,0.0279
1199.00,0.0288
1198.00,0.0297
1197.00,0.0307
1196.00,0.0314
1195.00,0.0320
1194.00,0.0321
1193.00,0.0319
1192.00,0.0312
1191.00,0.0303
1190.00,0.0291
1189.00,0.0279
1188.00,0.0267
1187.00,0.0255
1186.00,0.0245
1185.00,0.0237
1184.00,0.0229
1183.00,0.0223
1182.00,0.0219
1181.00,0.0217
1180.00,0.0215
1179.00,0.0214
1178.00,0.0214
1177.00,0.0215
1176.00,0.0216
1175.00,0.0218
1174.00,0.0220
1173.00,0.0222
1172.00,0.0224
1171.00,0.0226
1170.00,0.0227
1169.00,0.0228
1168.00,0.0228
1167.00,0.0229
1166.00,0.0231
1165.00,0.0233
1164.00,0.0237
1163.00,0.0243
1162.00,0.0252
1161.00,0.0261
1160.00,0.0271
1159.00,0.0281
1158.00,0.0288
1157.00,0.0293
1156.00,0.0294
1155.00,0.0291
1154.00,0.0285
1153.00,0.0276
1152.00,0.0265
1151.00,0.0252
1150.00,0.0239
1149.00,0.0226
1148.00,0.0213
1147.00,0.0201
1146.00,0.0192
1145.00,0.0183
1144.00,0.0176
1143.00,0.0171
1142.00,0.0167
1141.00,0.0165
1140.00,0.0164
1139.00,0.0165
1138.00,0.0169
1137.00,0.0176
1136.00,0.0186
1135.00,0.0200
1134.00,0.0218
1133.00,0.0237
1132.00,0.0256
1131.00,0.0271
1130.00,0.0281
1129.00,0.0283
1128.00,0.0276
1127.00,0.0263
1126.00,0.0246
1125.00,0.0229
1124.00,0.0213
1123.00,0.0199
1122.00,0.0189
1121.00,0.0181
1120.00,0.0175
1119.00,0.0171
1118.00,0.0168
1117.00,0.0167
1116.00,0.0166
1115.00,0.0166
1114.00,0.0166
1113.00,0.0167
1112.00,0.0168
1111.00,0.0169
1110.00,0.0170
1109.00,0.0172
1108.00,0.0175
1107.00,0.0178
1106.00,0.0183
1105.00,0.0189
1104.00,0.0195
1103.00,0.0201
1102.00,0.0207
1101.00,0.0210
1100.00,0.0211
1099.00,0.0210
1098.00,0.0206
1097.00,0.0201
1096.00,0.0196
1095.00,0.0190
1094.00,0.0184
1093.00,0.0179
1092.00,0.0174
1091.00,0.0170
1090.00,0.0167
1089.00,0.0165
1088.00,0.0163
1087.00,0.0162
1086.00,0.0162
1085.00,0.0162
1084.00,0.0162
1083.00,0.0164
1082.00,0.0166
1081.00,0.0168
1080.00,0.0170
1079.00,0.0174
1078.00,0.0179
1077.00,0.0185
1076.00,0.0190
1075.00,0.0196
1074.00,0.0202
1073.00,0.0209
1072.00,0.0215
1071.00,0.0224
1070.00,0.0235
1069.00,0.0248
1068.00,0.0263
1067.00,0.0281
1066.00,0.0302
1065.00,0.0324
1064.00,0.0348
1063.00,0.0373
1062.00,0.0399
1061.00,0.0424
1060.00,0.0445
1059.00,0.0460
1058.00,0.0468
1057.00,0.0467
1056.00,0.0456
1055.00,0.0438
1054.00,0.0414
1053.00,0.0385
1052.00,0.0355
1051.00,0.0327
1050.00,0.0303
1049.00,0.0282
1048.00,0.0265
1047.00,0.0251
1046.00,0.0241
1045.00,0.0232
1044.00,0.0226
1043.00,0.0221
1042.00,0.0219
1041.00,0.0217
1040.00,0.0216
1039.00,0.0215
1038.00,0.0215
1037.00,0.0217
1036.00,0.0218
1035.00,0.0221
1034.00,0.0226
1033.00,0.0231
1032.00,0.0235
1031.00,0.0239
1030.00,0.0240
1029.00,0.0239
1028.00,0.0234
1027.00,0.0228
1026.00,0.0222
1025.00,0.0216
1024.00,0.0212
1023.00,0.0209
1022.00,0.0208
1021.00,0.0208
1020.00,0.0208
1019.00,0.0208
1018.00,0.0207
1017.00,0.0205
1016.00,0.0202
1015.00,0.0197
1014.00,0.0193
1013.00,0.0188
1012.00,0.0184
1011.00,0.0182
1010.00,0.0182
1009.00,0.0184
1008.00,0.0187
1007.00,0.0192
1006.00,0.0198
1005.00,0.0205
1004.00,0.0209
1003.00,0.0212
1002.00,0.0213
1001.00,0.0212
1000.00,0.0209
999.00,0.0205
998.00,0.0201
997.00,0.0197
996.00,0.0192
995.00,0.0189
994.00,0.0186
993.00,0.0182
992.00,0.0179
991.00,0.0175
990.00,0.0172
989.00,0.0168
988.00,0.0164
987.00,0.0160
986.00,0.0157
985.00,0.0154
984.00,0.0151
983.00,0.0149
982.00,0.0147
981.00,0.0146
980.00,0.0146
979.00,0.0145
978.00,0.0146
977.00,0.0146
976.00,0.0145
975.00,0.0144
974.00,0.0143
973.00,0.0141
972.00,0.0139
971.00,0.0137
970.00,0.0136
969.00,0.0134
968.00,0.0132
967.00,0.0129
966.00,0.0128
965.00,0.0127
964.00,0.0125
963.00,0.0124
962.00,0.0122
961.00,0.0120
960.00,0.0118
959.00,0.0116
958.00,0.0115
957.00,0.0114
956.00,0.0112
955.00,0.0111
954.00,0.0110
953.00,0.0109
952.00,0.0108
951.00,0.0108
950.00,0.0109
949.00,0.0110
948.00,0.0111
947.00,0.0112
946.00,0.0114
945.00,0.0115
944.00,0.0117
943.00,0.0119
942.00,0.0123
941.00,0.0128
940.00,0.0133
939.00,0.0139
938.00,0.0145
937.00,0.0151
936.00,0.0157
935.00,0.0162
934.00,0.0166
933.00,0.0168
932.00,0.0168
931.00,0.0167
930.00,0.0166
929.00,0.0164
928.00,0.0163
927.00,0.0162
926.00,0.0162
925.00,0.0161
924.00,0.0160
923.00,0.0158
922.00,0.0157
921.00,0.0156
920.00,0.0153
919.00,0.0151
918.00,0.0149
917.00,0.0147
916.00,0.0144
915.00,0.0142
914.00,0.0140
913.00,0.0139
912.00,0.0137
911.00,0.0136
910.00,0.0137
909.00,0.0138
908.00,0.0140
907.00,0.0143
906.00,0.0146
905.00,0.0150
904.00,0.0154
903.00,0.0159
902.00,0.0165
901.00,0.0171
900.00,0.0176
899.00,0.0180
898.00,0.0183
897.00,0.0185
896.00,0.0185
895.00,0.0183
894.00,0.0181
893.00,0.0177
892.00,0.0172
891.00,0.0168
890.00,0.0166
889.00,0.0163
888.00,0.0161
887.00,0.0160
886.00,0.0161
885.00,0.0162
884.00,0.0163
883.00,0.0165
882.00,0.0169
881.00,0.0173
880.00,0.0177
879.00,0.0182
878.00,0.0189
877.00,0.0196
876.00,0.0203
875.00,0.0210
874.00,0.0217
873.00,0.0224
872.00,0.0229
871.00,0.0232
870.00,0.0235
869.00,0.0237
868.00,0.0237
867.00,0.0237
866.00,0.0237
865.00,0.0238
864.00,0.0239
863.00,0.0239
862.00,0.0240
861.00,0.0241
860.00,0.0241
859.00,0.0243
858.00,0.0245
857.00,0.0248
856.00,0.0251
855.00,0.0255
854.00,0.0260
853.00,0.0265
852.00,0.0269
851.00,0.0273
850.00,0.0278
849.00,0.0282
848.00,0.0285
847.00,0.0288
846.00,0.0290
845.00,0.0292
844.00,0.0293
843.00,0.0293
842.00,0.0294
841.00,0.0293
840.00,0.0292
839.00,0.0292
838.00,0.0292
837.00,0.0292
836.00,0.0292
835.00,0.0293
834.00,0.0294
833.00,0.0295
832.00,0.0296
831.00,0.0296
830.00,0.0297
829.00,0.0298
828.00,0.0298
827.00,0.0298
826.00,0.0298
825.00,0.0298
824.00,0.0297
823.00,0.0298
822.00,0.0300
821.00,0.0302
820.00,0.0303
819.00,0.0305
818.00,0.0307
817.00,0.0308
816.00,0.0308
815.00,0.0307
814.00,0.0305
813.00,0.0302
812.00,0.0296
811.00,0.0287
810.00,0.0277
809.00,0.0265
808.00,0.0252
807.00,0.0239
806.00,0.0228
805.00,0.0218
804.00,0.0209
803.00,0.0202
802.00,0.0198
801.00,0.0195
800.00,0.0192
799.00,0.0190
798.00,0.0190
797.00,0.0189
796.00,0.0189
795.00,0.0190
794.00,0.0191
793.00,0.0192
792.00,0.0193
791.00,0.0193
790.00,0.0194
789.00,0.0194
788.00,0.0194
787.00,0.0193
786.00,0.0194
785.00,0.0194
784.00,0.0195
783.00,0.0195
782.00,0.0197
781.00,0.0200
780.00,0.0202
779.00,0.0205
778.00,0.0208
777.00,0.0210
776.00,0.0210
775.00,0.0209
774.00,0.0207
773.00,0.0206
772.00,0.0204
771.00,0.0204
770.00,0.0205
769.00,0.0207
768.00,0.0209
767.00,0.0211
766.00,0.0213
765.00,0.0216
764.00,0.0218
763.00,0.0222
762.00,0.0226
761.00,0.0229
760.00,0.0232
759.00,0.0235
758.00,0.0240
757.00,0.0244
756.00,0.0248
755.00,0.0252
754.00,0.0257
753.00,0.0261
752.00,0.0264
751.00,0.0268
750.00,0.0273
749.00,0.0278
748.00,0.0282
747.00,0.0286
746.00,0.0292
745.00,0.0298
744.00,0.0304
743.00,0.0310
742.00,0.0318
741.00,0.0327
740.00,0.0336
739.00,0.0345
738.00,0.0354
737.00,0.0360
736.00,0.0362
735.00,0.0360
734.00,0.0356
733.00,0.0350
732.00,0.0341
731.00,0.0333
730.00,0.0326
729.00,0.0319
728.00,0.0312
727.00,0.0305
726.00,0.0299
725.00,0.0294
724.00,0.0287
723.00,0.0282
722.00,0.0278
721.00,0.0274
720.00,0.0271
719.00,0.0269
718.00,0.0269
717.00,0.0269
716.00,0.0268
715.00,0.0268
714.00,0.0268
713.00,0.0267
712.00,0.0266
711.00,0.0265
710.00,0.0264
709.00,0.0263
708.00,0.0261
707.00,0.0259
706.00,0.0259
705.00,0.0260
704.00,0.0261
703.00,0.0261
702.00,0.0262
701.00,0.0263
700.00,0.0264
699.00,0.0266
698.00,0.0271
697.00,0.0277
696.00,0.0283
695.00,0.0289
694.00,0.0296
693.00,0.0303
692.00,0.0308
691.00,0.0312
690.00,0.0315
689.00,0.0317
688.00,0.0317
687.00,0.0317
686.00,0.0317
685.00,0.0317
684.00,0.0316
683.00,0.0316
682.00,0.0316
681.00,0.0316
680.00,0.0316
679.00,0.0317
678.00,0.0320
677.00,0.0323
676.00,0.0325
675.00,0.0328
674.00,0.0332
673.00,0.0337
672.00,0.0341
671.00,0.0344
670.00,0.0350
669.00,0.0359
668.00,0.0369
667.00,0.0379
666.00,0.0383
665.00,0.0386
664.00,0.0388
663.00,0.0393
662.00,0.0401
661.00,0.0409
660.00,0.0417
659.00,0.0425
658.00,0.0433
657.00,0.0441
656.00,0.0447
655.00,0.0454
654.00,0.0462
653.00,0.0470
652.00,0.0476
651.00,0.0482
650.00,0.0487
649.00,0.0490
648.00,0.0491
647.00,0.0489
646.00,0.0487
645.00,0.0483
644.00,0.0478
643.00,0.0472
642.00,0.0466
641.00,0.0460
640.00,0.0452
639.00,0.0445
638.00,0.0439
637.00,0.0433
636.00,0.0427
635.00,0.0421
634.00,0.0416
633.00,0.0412
632.00,0.0408
631.00,0.0404
630.00,0.0402
629.00,0.0401
628.00,0.0399
627.00,0.0398
626.00,0.0398
625.00,0.0397
624.00,0.0396
623.00,0.0395
622.00,0.0394
621.00,0.0394
620.00,0.0392
619.00,0.0390
618.00,0.0390
617.00,0.0388
616.00,0.0386
615.00,0.0384
614.00,0.0384
613.00,0.0384
612.00,0.0384
611.00,0.0386
610.00,0.0389
609.00,0.0392
608.00,0.0392
607.00,0.0392
606.00,0.0394
605.00,0.0396
604.00,0.0397
603.00,0.0399
602.00,0.0403
601.00,0.0406
600.00,0.0408
599.00,0.0409
598.00,0.0410
597.00,0.0410
596.00,0.0409
595.00,0.0408
594.00,0.0408
593.00,0.0409
592.00,0.0410
591.00,0.0413
590.00,0.0421
589.00,0.0429
588.00,0.0438
587.00,0.0449
586.00,0.0464
585.00,0.0480
584.00,0.0494
583.00,0.0506
582.00,0.0516
581.00,0.0522
580.00,0.0525
579.00,0.0527
578.00,0.0530
577.00,0.0531
576.00,0.0529
575.00,0.0527
574.00,0.0527
573.00,0.0526
572.00,0.0524
571.00,0.0522
570.00,0.0523
569.00,0.0523
568.00,0.0521
567.00,0.0520
566.00,0.0520
565.00,0.0517
564.00,0.0512
563.00,0.0506
562.00,0.0501
561.00,0.0496
560.00,0.0491
559.00,0.0487
558.00,0.0486
557.00,0.0484
556.00,0.0480
555.00,0.0475
554.00,0.0471
553.00,0.0466
552.00,0.0460
551.00,0.0456
550.00,0.0454
549.00,0.0453
548.00,0.0448
547.00,0.0444
546.00,0.0442
545.00,0.0438
544.00,0.0433
543.00,0.0430
542.00,0.0430
541.00,0.0430
540.00,0.0428
539.00,0.0426
538.00,0.0428
537.00,0.0431
536.00,0.0434
535.00,0.0439
534.00,0.0446
533.00,0.0452
532.00,0.0455
531.00,0.0456
530.00,0.0458
529.00,0.0456
528.00,0.0450
527.00,0.0445
526.00,0.0443
525.00,0.0441
524.00,0.0435
523.00,0.0429
522.00,0.0426
521.00,0.0422
520.00,0.0417
519.00,0.0412
518.00,0.0411
517.00,0.0410
516.00,0.0406
515.00,0.0405
514.00,0.0407
513.00,0.0409
512.00,0.0409
511.00,0.0409
510.00,0.0412
509.00,0.0415
508.00,0.0415
507.00,0.0415
506.00,0.0417
505.00,0.0416
504.00,0.0411
503.00,0.0406
502.00,0.0406
501.00,0.0406
500.00,0.0404
499.00,0.0401
498.00,0.0402
497.00,0.0404
496.00,0.0404
495.00,0.0405
494.00,0.0409
493.00,0.0412
492.00,0.0412
491.00,0.0412
490.00,0.0416
489.00,0.0419
488.00,0.0418
487.00,0.0415
486.00,0.0417
485.00,0.0419
484.00,0.0418
483.00,0.0415
482.00,0.0416
481.00,0.0415
480.00,0.0413
479.00,0.0411
478.00,0.0414
477.00,0.0416
476.00,0.0415
475.00,0.0415
474.00,0.0418
473.00,0.0419
472.00,0.0417
471.00,0.0416
470.00,0.0420
469.00,0.0421
468.00,0.0417
467.00,0.0412
466.00,0.0413
465.00,0.0413
464.00,0.0408
463.00,0.0404
462.00,0.0405
461.00,0.0407
460.00,0.0406
459.00,0.0407
458.00,0.0413
457.00,0.0415
456.00,0.0409
455.00,0.0402
454.00,0.0402
453.00,0.0402
452.00,0.0398
451.00,0.0396
450.00,0.0399
449.00,0.0400
448.00,0.0395
447.00,0.0391
446.00,0.0394
445.00,0.0395
444.00,0.0388
443.00,0.0382
442.00,0.0382
441.00,0.0382
440.00,0.0377
439.00,0.0373
438.00,0.0377
437.00,0.0380
436.00,0.0377
435.00,0.0375
434.00,0.0378
433.00,0.0379
432.00,0.0375
431.00,0.0373
430.00,0.0379
429.00,0.0383
428.00,0.0377
427.00,0.0371
426.00,0.0372
425.00,0.0373
424.00,0.0367
423.00,0.0362
422.00,0.0367
421.00,0.0376
420.00,0.0377
419.00,0.0380
418.00,0.0391
417.00,0.0394
416.00,0.0382
415.00,0.0373
414.00,0.0376
413.00,0.0379
412.00,0.0373
411.00,0.0371
410.00,0.0385
409.00,0.0398
408.00,0.0395
407.00,0.0389
406.00,0.0395
405.00,0.0399
404.00,0.0386
403.00,0.0367
402.00,0.0359
401.00,0.0350
400.00,0.0334
