Created as New Dataset,Sample 978 By YargerLab Date Wednesday, July 30 2025
cm-1,A
4000.00,0.0022
3999.00,0.0022
3998.00,0.0022
3997.00,0.0022
3996.00,0.0022
3995.00,0.0022
3994.00,0.0022
3993.00,0.0022
3992.00,0.0022
3991.00,0.0022
3990.00,0.0022
3989.00,0.0022
3988.00,0.0022
3987.00,0.0022
3986.00,0.0022
3985.00,0.0022
3984.00,0.0022
3983.00,0.0022
3982.00,0.0022
3981.00,0.0022
3980.00,0.0022
3979.00,0.0022
3978.00,0.0022
3977.00,0.0022
3976.00,0.0022
3975.00,0.0022
3974.00,0.0022
3973.00,0.0022
3972.00,0.0022
3971.00,0.0022
3970.00,0.0022
3969.00,0.0022
3968.00,0.0022
3967.00,0.0022
3966.00,0.0022
3965.00,0.0022
3964.00,0.0022
3963.00,0.0022
3962.00,0.0022
3961.00,0.0021
3960.00,0.0021
3959.00,0.0021
3958.00,0.0021
3957.00,0.0021
3956.00,0.0021
3955.00,0.0022
3954.00,0.0022
3953.00,0.0022
3952.00,0.0022
3951.00,0.0021
3950.00,0.0021
3949.00,0.0022
3948.00,0.0022
3947.00,0.0022
3946.00,0.0022
3945.00,0.0021
3944.00,0.0021
3943.00,0.0021
3942.00,0.0022
3941.00,0.0022
3940.00,0.0021
3939.00,0.0021
3938.00,0.0021
3937.00,0.0021
3936.00,0.0021
3935.00,0.0021
3934.00,0.0021
3933.00,0.0021
3932.00,0.0021
3931.00,0.0021
3930.00,0.0021
3929.00,0.0021
3928.00,0.0021
3927.00,0.0021
3926.00,0.0021
3925.00,0.0021
3924.00,0.0021
3923.00,0.0021
3922.00,0.0021
3921.00,0.0021
3920.00,0.0021
3919.00,0.0022
3918.00,0.0022
3917.00,0.0022
3916.00,0.0022
3915.00,0.0022
3914.00,0.0022
3913.00,0.0022
3912.00,0.0022
3911.00,0.0021
3910.00,0.0021
3909.00,0.0021
3908.00,0.0021
3907.00,0.0021
3906.00,0.0021
3905.00,0.0021
3904.00,0.0021
3903.00,0.0022
3902.00,0.0021
3901.00,0.0021
3900.00,0.0021
3899.00,0.0021
3898.00,0.0021
3897.00,0.0021
3896.00,0.0022
3895.00,0.0022
3894.00,0.0022
3893.00,0.0021
3892.00,0.0021
3891.00,0.0021
3890.00,0.0022
3889.00,0.0022
3888.00,0.0022
3887.00,0.0022
3886.00,0.0021
3885.00,0.0021
3884.00,0.0021
3883.00,0.0021
3882.00,0.0021
3881.00,0.0021
3880.00,0.0022
3879.00,0.0022
3878.00,0.0022
3877.00,0.0021
3876.00,0.0021
3875.00,0.0021
3874.00,0.0021
3873.00,0.0021
3872.00,0.0021
3871.00,0.0021
3870.00,0.0021
3869.00,0.0021
3868.00,0.0021
3867.00,0.0021
3866.00,0.0021
3865.00,0.0021
3864.00,0.0021
3863.00,0.0022
3862.00,0.0022
3861.00,0.0022
3860.00,0.0022
3859.00,0.0022
3858.00,0.0022
3857.00,0.0022
3856.00,0.0022
3855.00,0.0021
3854.00,0.0021
3853.00,0.0021
3852.00,0.0021
3851.00,0.0021
3850.00,0.0021
3849.00,0.0021
3848.00,0.0021
3847.00,0.0021
3846.00,0.0021
3845.00,0.0021
3844.00,0.0021
3843.00,0.0021
3842.00,0.0022
3841.00,0.0022
3840.00,0.0022
3839.00,0.0022
3838.00,0.0022
3837.00,0.0022
3836.00,0.0022
3835.00,0.0022
3834.00,0.0022
3833.00,0.0022
3832.00,0.0021
3831.00,0.0022
3830.00,0.0022
3829.00,0.0022
3828.00,0.0022
3827.00,0.0022
3826.00,0.0022
3825.00,0.0022
3824.00,0.0022
3823.00,0.0022
3822.00,0.0022
3821.00,0.0022
3820.00,0.0022
3819.00,0.0022
3818.00,0.0022
3817.00,0.0022
3816.00,0.0021
3815.00,0.0021
3814.00,0.0021
3813.00,0.0021
3812.00,0.0021
3811.00,0.0021
3810.00,0.0021
3809.00,0.0021
3808.00,0.0021
3807.00,0.0022
3806.00,0.0022
3805.00,0.0022
3804.00,0.0022
3803.00,0.0021
3802.00,0.0021
3801.00,0.0021
3800.00,0.0021
3799.00,0.0021
3798.00,0.0021
3797.00,0.0021
3796.00,0.0021
3795.00,0.0021
3794.00,0.0021
3793.00,0.0021
3792.00,0.0021
3791.00,0.0021
3790.00,0.0021
3789.00,0.0021
3788.00,0.0021
3787.00,0.0021
3786.00,0.0021
3785.00,0.0021
3784.00,0.0021
3783.00,0.0021
3782.00,0.0022
3781.00,0.0022
3780.00,0.0022
3779.00,0.0022
3778.00,0.0022
3777.00,0.0022
3776.00,0.0021
3775.00,0.0021
3774.00,0.0021
3773.00,0.0021
3772.00,0.0021
3771.00,0.0022
3770.00,0.0022
3769.00,0.0022
3768.00,0.0022
3767.00,0.0022
3766.00,0.0022
3765.00,0.0021
3764.00,0.0021
3763.00,0.0021
3762.00,0.0021
3761.00,0.0021
3760.00,0.0021
3759.00,0.0021
3758.00,0.0021
3757.00,0.0021
3756.00,0.0022
3755.00,0.0022
3754.00,0.0022
3753.00,0.0022
3752.00,0.0023
3751.00,0.0023
3750.00,0.0023
3749.00,0.0023
3748.00,0.0023
3747.00,0.0023
3746.00,0.0023
3745.00,0.0022
3744.00,0.0022
3743.00,0.0022
3742.00,0.0022
3741.00,0.0021
3740.00,0.0021
3739.00,0.0021
3738.00,0.0022
3737.00,0.0022
3736.00,0.0021
3735.00,0.0021
3734.00,0.0021
3733.00,0.0021
3732.00,0.0021
3731.00,0.0021
3730.00,0.0021
3729.00,0.0021
3728.00,0.0021
3727.00,0.0021
3726.00,0.0021
3725.00,0.0021
3724.00,0.0021
3723.00,0.0021
3722.00,0.0021
3721.00,0.0021
3720.00,0.0021
3719.00,0.0021
3718.00,0.0021
3717.00,0.0021
3716.00,0.0021
3715.00,0.0021
3714.00,0.0021
3713.00,0.0021
3712.00,0.0021
3711.00,0.0021
3710.00,0.0021
3709.00,0.0021
3708.00,0.0021
3707.00,0.0020
3706.00,0.0020
3705.00,0.0020
3704.00,0.0020
3703.00,0.0020
3702.00,0.0019
3701.00,0.0019
3700.00,0.0019
3699.00,0.0019
3698.00,0.0019
3697.00,0.0019
3696.00,0.0019
3695.00,0.0019
3694.00,0.0020
3693.00,0.0021
3692.00,0.0021
3691.00,0.0021
3690.00,0.0022
3689.00,0.0022
3688.00,0.0022
3687.00,0.0023
3686.00,0.0023
3685.00,0.0023
3684.00,0.0023
3683.00,0.0023
3682.00,0.0023
3681.00,0.0023
3680.00,0.0024
3679.00,0.0024
3678.00,0.0025
3677.00,0.0025
3676.00,0.0025
3675.00,0.0025
3674.00,0.0025
3673.00,0.0025
3672.00,0.0025
3671.00,0.0025
3670.00,0.0025
3669.00,0.0025
3668.00,0.0025
3667.00,0.0025
3666.00,0.0025
3665.00,0.0026
3664.00,0.0026
3663.00,0.0026
3662.00,0.0026
3661.00,0.0026
3660.00,0.0026
3659.00,0.0027
3658.00,0.0027
3657.00,0.0027
3656.00,0.0028
3655.00,0.0028
3654.00,0.0029
3653.00,0.0029
3652.00,0.0029
3651.00,0.0030
3650.00,0.0030
3649.00,0.0030
3648.00,0.0031
3647.00,0.0031
3646.00,0.0031
3645.00,0.0031
3644.00,0.0031
3643.00,0.0031
3642.00,0.0031
3641.00,0.0031
3640.00,0.0031
3639.00,0.0032
3638.00,0.0032
3637.00,0.0032
3636.00,0.0033
3635.00,0.0033
3634.00,0.0034
3633.00,0.0034
3632.00,0.0034
3631.00,0.0034
3630.00,0.0034
3629.00,0.0035
3628.00,0.0035
3627.00,0.0036
3626.00,0.0036
3625.00,0.0036
3624.00,0.0036
3623.00,0.0036
3622.00,0.0036
3621.00,0.0037
3620.00,0.0037
3619.00,0.0037
3618.00,0.0038
3617.00,0.0039
3616.00,0.0039
3615.00,0.0040
3614.00,0.0040
3613.00,0.0041
3612.00,0.0041
3611.00,0.0041
3610.00,0.0042
3609.00,0.0042
3608.00,0.0042
3607.00,0.0042
3606.00,0.0043
3605.00,0.0043
3604.00,0.0043
3603.00,0.0044
3602.00,0.0044
3601.00,0.0045
3600.00,0.0045
3599.00,0.0046
3598.00,0.0046
3597.00,0.0046
3596.00,0.0047
3595.00,0.0048
3594.00,0.0048
3593.00,0.0049
3592.00,0.0049
3591.00,0.0050
3590.00,0.0050
3589.00,0.0051
3588.00,0.0051
3587.00,0.0053
3586.00,0.0053
3585.00,0.0054
3584.00,0.0054
3583.00,0.0055
3582.00,0.0055
3581.00,0.0056
3580.00,0.0056
3579.00,0.0057
3578.00,0.0058
3577.00,0.0058
3576.00,0.0059
3575.00,0.0059
3574.00,0.0059
3573.00,0.0060
3572.00,0.0061
3571.00,0.0061
3570.00,0.0062
3569.00,0.0063
3568.00,0.0063
3567.00,0.0064
3566.00,0.0065
3565.00,0.0066
3564.00,0.0067
3563.00,0.0067
3562.00,0.0067
3561.00,0.0068
3560.00,0.0068
3559.00,0.0069
3558.00,0.0069
3557.00,0.0070
3556.00,0.0070
3555.00,0.0071
3554.00,0.0071
3553.00,0.0072
3552.00,0.0072
3551.00,0.0073
3550.00,0.0073
3549.00,0.0074
3548.00,0.0074
3547.00,0.0075
3546.00,0.0076
3545.00,0.0076
3544.00,0.0076
3543.00,0.0077
3542.00,0.0077
3541.00,0.0077
3540.00,0.0077
3539.00,0.0077
3538.00,0.0078
3537.00,0.0078
3536.00,0.0079
3535.00,0.0080
3534.00,0.0080
3533.00,0.0080
3532.00,0.0080
3531.00,0.0081
3530.00,0.0081
3529.00,0.0081
3528.00,0.0082
3527.00,0.0082
3526.00,0.0082
3525.00,0.0083
3524.00,0.0083
3523.00,0.0084
3522.00,0.0084
3521.00,0.0085
3520.00,0.0085
3519.00,0.0085
3518.00,0.0085
3517.00,0.0086
3516.00,0.0086
3515.00,0.0087
3514.00,0.0087
3513.00,0.0087
3512.00,0.0088
3511.00,0.0088
3510.00,0.0088
3509.00,0.0089
3508.00,0.0089
3507.00,0.0089
3506.00,0.0090
3505.00,0.0090
3504.00,0.0091
3503.00,0.0091
3502.00,0.0092
3501.00,0.0092
3500.00,0.0092
3499.00,0.0092
3498.00,0.0092
3497.00,0.0092
3496.00,0.0092
3495.00,0.0093
3494.00,0.0093
3493.00,0.0094
3492.00,0.0094
3491.00,0.0095
3490.00,0.0095
3489.00,0.0095
3488.00,0.0096
3487.00,0.0096
3486.00,0.0096
3485.00,0.0096
3484.00,0.0096
3483.00,0.0096
3482.00,0.0096
3481.00,0.0097
3480.00,0.0098
3479.00,0.0098
3478.00,0.0099
3477.00,0.0099
3476.00,0.0099
3475.00,0.0099
3474.00,0.0099
3473.00,0.0099
3472.00,0.0100
3471.00,0.0100
3470.00,0.0100
3469.00,0.0100
3468.00,0.0101
3467.00,0.0101
3466.00,0.0101
3465.00,0.0101
3464.00,0.0101
3463.00,0.0101
3462.00,0.0102
3461.00,0.0102
3460.00,0.0102
3459.00,0.0102
3458.00,0.0103
3457.00,0.0103
3456.00,0.0103
3455.00,0.0103
3454.00,0.0103
3453.00,0.0103
3452.00,0.0103
3451.00,0.0103
3450.00,0.0103
3449.00,0.0103
3448.00,0.0103
3447.00,0.0104
3446.00,0.0104
3445.00,0.0104
3444.00,0.0104
3443.00,0.0104
3442.00,0.0104
3441.00,0.0104
3440.00,0.0104
3439.00,0.0104
3438.00,0.0104
3437.00,0.0104
3436.00,0.0104
3435.00,0.0104
3434.00,0.0104
3433.00,0.0104
3432.00,0.0104
3431.00,0.0104
3430.00,0.0104
3429.00,0.0104
3428.00,0.0104
3427.00,0.0104
3426.00,0.0104
3425.00,0.0104
3424.00,0.0104
3423.00,0.0104
3422.00,0.0104
3421.00,0.0104
3420.00,0.0104
3419.00,0.0104
3418.00,0.0104
3417.00,0.0104
3416.00,0.0104
3415.00,0.0104
3414.00,0.0104
3413.00,0.0104
3412.00,0.0104
3411.00,0.0104
3410.00,0.0104
3409.00,0.0104
3408.00,0.0104
3407.00,0.0104
3406.00,0.0104
3405.00,0.0103
3404.00,0.0103
3403.00,0.0103
3402.00,0.0103
3401.00,0.0103
3400.00,0.0103
3399.00,0.0103
3398.00,0.0104
3397.00,0.0104
3396.00,0.0104
3395.00,0.0104
3394.00,0.0104
3393.00,0.0104
3392.00,0.0104
3391.00,0.0104
3390.00,0.0104
3389.00,0.0105
3388.00,0.0105
3387.00,0.0106
3386.00,0.0106
3385.00,0.0106
3384.00,0.0106
3383.00,0.0106
3382.00,0.0106
3381.00,0.0106
3380.00,0.0106
3379.00,0.0106
3378.00,0.0106
3377.00,0.0106
3376.00,0.0106
3375.00,0.0106
3374.00,0.0106
3373.00,0.0105
3372.00,0.0105
3371.00,0.0104
3370.00,0.0104
3369.00,0.0104
3368.00,0.0104
3367.00,0.0104
3366.00,0.0105
3365.00,0.0106
3364.00,0.0107
3363.00,0.0107
3362.00,0.0107
3361.00,0.0107
3360.00,0.0107
3359.00,0.0108
3358.00,0.0108
3357.00,0.0109
3356.00,0.0109
3355.00,0.0108
3354.00,0.0108
3353.00,0.0107
3352.00,0.0107
3351.00,0.0107
3350.00,0.0107
3349.00,0.0108
3348.00,0.0108
3347.00,0.0109
3346.00,0.0108
3345.00,0.0108
3344.00,0.0108
3343.00,0.0108
3342.00,0.0108
3341.00,0.0108
3340.00,0.0107
3339.00,0.0107
3338.00,0.0108
3337.00,0.0108
3336.00,0.0109
3335.00,0.0110
3334.00,0.0110
3333.00,0.0110
3332.00,0.0110
3331.00,0.0110
3330.00,0.0110
3329.00,0.0109
3328.00,0.0109
3327.00,0.0108
3326.00,0.0108
3325.00,0.0108
3324.00,0.0109
3323.00,0.0110
3322.00,0.0110
3321.00,0.0111
3320.00,0.0111
3319.00,0.0111
3318.00,0.0111
3317.00,0.0111
3316.00,0.0110
3315.00,0.0110
3314.00,0.0110
3313.00,0.0110
3312.00,0.0110
3311.00,0.0109
3310.00,0.0108
3309.00,0.0107
3308.00,0.0106
3307.00,0.0106
3306.00,0.0107
3305.00,0.0108
3304.00,0.0109
3303.00,0.0110
3302.00,0.0111
3301.00,0.0111
3300.00,0.0111
3299.00,0.0111
3298.00,0.0110
3297.00,0.0109
3296.00,0.0109
3295.00,0.0109
3294.00,0.0109
3293.00,0.0109
3292.00,0.0110
3291.00,0.0110
3290.00,0.0111
3289.00,0.0112
3288.00,0.0112
3287.00,0.0112
3286.00,0.0112
3285.00,0.0112
3284.00,0.0112
3283.00,0.0112
3282.00,0.0112
3281.00,0.0112
3280.00,0.0112
3279.00,0.0112
3278.00,0.0112
3277.00,0.0112
3276.00,0.0112
3275.00,0.0111
3274.00,0.0111
3273.00,0.0111
3272.00,0.0110
3271.00,0.0110
3270.00,0.0111
3269.00,0.0111
3268.00,0.0112
3267.00,0.0112
3266.00,0.0113
3265.00,0.0113
3264.00,0.0113
3263.00,0.0113
3262.00,0.0113
3261.00,0.0113
3260.00,0.0113
3259.00,0.0112
3258.00,0.0112
3257.00,0.0112
3256.00,0.0111
3255.00,0.0111
3254.00,0.0112
3253.00,0.0112
3252.00,0.0113
3251.00,0.0113
3250.00,0.0112
3249.00,0.0112
3248.00,0.0112
3247.00,0.0112
3246.00,0.0112
3245.00,0.0112
3244.00,0.0112
3243.00,0.0113
3242.00,0.0113
3241.00,0.0113
3240.00,0.0113
3239.00,0.0113
3238.00,0.0113
3237.00,0.0113
3236.00,0.0112
3235.00,0.0112
3234.00,0.0112
3233.00,0.0112
3232.00,0.0112
3231.00,0.0112
3230.00,0.0113
3229.00,0.0113
3228.00,0.0113
3227.00,0.0112
3226.00,0.0112
3225.00,0.0112
3224.00,0.0112
3223.00,0.0112
3222.00,0.0112
3221.00,0.0112
3220.00,0.0112
3219.00,0.0112
3218.00,0.0112
3217.00,0.0112
3216.00,0.0112
3215.00,0.0112
3214.00,0.0112
3213.00,0.0112
3212.00,0.0112
3211.00,0.0112
3210.00,0.0111
3209.00,0.0111
3208.00,0.0111
3207.00,0.0110
3206.00,0.0110
3205.00,0.0110
3204.00,0.0110
3203.00,0.0110
3202.00,0.0110
3201.00,0.0110
3200.00,0.0110
3199.00,0.0110
3198.00,0.0110
3197.00,0.0110
3196.00,0.0110
3195.00,0.0110
3194.00,0.0110
3193.00,0.0110
3192.00,0.0110
3191.00,0.0110
3190.00,0.0110
3189.00,0.0109
3188.00,0.0109
3187.00,0.0109
3186.00,0.0109
3185.00,0.0109
3184.00,0.0109
3183.00,0.0109
3182.00,0.0109
3181.00,0.0109
3180.00,0.0109
3179.00,0.0109
3178.00,0.0109
3177.00,0.0109
3176.00,0.0109
3175.00,0.0109
3174.00,0.0109
3173.00,0.0108
3172.00,0.0108
3171.00,0.0108
3170.00,0.0108
3169.00,0.0108
3168.00,0.0108
3167.00,0.0108
3166.00,0.0108
3165.00,0.0108
3164.00,0.0107
3163.00,0.0107
3162.00,0.0107
3161.00,0.0107
3160.00,0.0106
3159.00,0.0106
3158.00,0.0106
3157.00,0.0105
3156.00,0.0105
3155.00,0.0105
3154.00,0.0105
3153.00,0.0105
3152.00,0.0105
3151.00,0.0105
3150.00,0.0104
3149.00,0.0104
3148.00,0.0104
3147.00,0.0104
3146.00,0.0103
3145.00,0.0103
3144.00,0.0103
3143.00,0.0103
3142.00,0.0103
3141.00,0.0103
3140.00,0.0103
3139.00,0.0103
3138.00,0.0103
3137.00,0.0102
3136.00,0.0102
3135.00,0.0102
3134.00,0.0102
3133.00,0.0102
3132.00,0.0102
3131.00,0.0101
3130.00,0.0101
3129.00,0.0101
3128.00,0.0101
3127.00,0.0101
3126.00,0.0101
3125.00,0.0101
3124.00,0.0101
3123.00,0.0101
3122.00,0.0101
3121.00,0.0101
3120.00,0.0101
3119.00,0.0101
3118.00,0.0101
3117.00,0.0101
3116.00,0.0100
3115.00,0.0100
3114.00,0.0100
3113.00,0.0100
3112.00,0.0099
3111.00,0.0099
3110.00,0.0098
3109.00,0.0098
3108.00,0.0098
3107.00,0.0098
3106.00,0.0097
3105.00,0.0097
3104.00,0.0097
3103.00,0.0097
3102.00,0.0096
3101.00,0.0096
3100.00,0.0096
3099.00,0.0096
3098.00,0.0096
3097.00,0.0096
3096.00,0.0096
3095.00,0.0096
3094.00,0.0097
3093.00,0.0096
3092.00,0.0096
3091.00,0.0096
3090.00,0.0096
3089.00,0.0097
3088.00,0.0097
3087.00,0.0097
3086.00,0.0097
3085.00,0.0097
3084.00,0.0097
3083.00,0.0097
3082.00,0.0097
3081.00,0.0097
3080.00,0.0097
3079.00,0.0097
3078.00,0.0096
3077.00,0.0096
3076.00,0.0096
3075.00,0.0096
3074.00,0.0096
3073.00,0.0096
3072.00,0.0096
3071.00,0.0096
3070.00,0.0095
3069.00,0.0095
3068.00,0.0094
3067.00,0.0094
3066.00,0.0094
3065.00,0.0093
3064.00,0.0093
3063.00,0.0093
3062.00,0.0093
3061.00,0.0093
3060.00,0.0092
3059.00,0.0092
3058.00,0.0092
3057.00,0.0092
3056.00,0.0092
3055.00,0.0092
3054.00,0.0092
3053.00,0.0092
3052.00,0.0091
3051.00,0.0091
3050.00,0.0091
3049.00,0.0090
3048.00,0.0090
3047.00,0.0090
3046.00,0.0090
3045.00,0.0090
3044.00,0.0090
3043.00,0.0090
3042.00,0.0090
3041.00,0.0089
3040.00,0.0089
3039.00,0.0089
3038.00,0.0089
3037.00,0.0089
3036.00,0.0089
3035.00,0.0089
3034.00,0.0089
3033.00,0.0089
3032.00,0.0089
3031.00,0.0089
3030.00,0.0089
3029.00,0.0089
3028.00,0.0088
3027.00,0.0088
3026.00,0.0088
3025.00,0.0088
3024.00,0.0088
3023.00,0.0088
3022.00,0.0088
3021.00,0.0088
3020.00,0.0088
3019.00,0.0088
3018.00,0.0089
3017.00,0.0089
3016.00,0.0089
3015.00,0.0090
3014.00,0.0090
3013.00,0.0091
3012.00,0.0092
3011.00,0.0093
3010.00,0.0094
3009.00,0.0096
3008.00,0.0097
3007.00,0.0099
3006.00,0.0101
3005.00,0.0103
3004.00,0.0105
3003.00,0.0107
3002.00,0.0110
3001.00,0.0113
3000.00,0.0116
2999.00,0.0120
2998.00,0.0123
2997.00,0.0127
2996.00,0.0131
2995.00,0.0136
2994.00,0.0140
2993.00,0.0145
2992.00,0.0150
2991.00,0.0155
2990.00,0.0160
2989.00,0.0165
2988.00,0.0170
2987.00,0.0175
2986.00,0.0180
2985.00,0.0184
2984.00,0.0189
2983.00,0.0193
2982.00,0.0197
2981.00,0.0200
2980.00,0.0204
2979.00,0.0207
2978.00,0.0209
2977.00,0.0212
2976.00,0.0214
2975.00,0.0216
2974.00,0.0218
2973.00,0.0220
2972.00,0.0222
2971.00,0.0224
2970.00,0.0227
2969.00,0.0229
2968.00,0.0232
2967.00,0.0235
2966.00,0.0238
2965.00,0.0242
2964.00,0.0245
2963.00,0.0249
2962.00,0.0252
2961.00,0.0256
2960.00,0.0259
2959.00,0.0263
2958.00,0.0266
2957.00,0.0268
2956.00,0.0271
2955.00,0.0272
2954.00,0.0274
2953.00,0.0275
2952.00,0.0275
2951.00,0.0274
2950.00,0.0274
2949.00,0.0273
2948.00,0.0272
2947.00,0.0271
2946.00,0.0270
2945.00,0.0270
2944.00,0.0270
2943.00,0.0271
2942.00,0.0271
2941.00,0.0273
2940.00,0.0274
2939.00,0.0276
2938.00,0.0278
2937.00,0.0281
2936.00,0.0284
2935.00,0.0287
2934.00,0.0290
2933.00,0.0293
2932.00,0.0296
2931.00,0.0299
2930.00,0.0301
2929.00,0.0304
2928.00,0.0306
2927.00,0.0307
2926.00,0.0307
2925.00,0.0308
2924.00,0.0307
2923.00,0.0306
2922.00,0.0305
2921.00,0.0303
2920.00,0.0300
2919.00,0.0297
2918.00,0.0293
2917.00,0.0288
2916.00,0.0283
2915.00,0.0278
2914.00,0.0273
2913.00,0.0267
2912.00,0.0262
2911.00,0.0256
2910.00,0.0250
2909.00,0.0245
2908.00,0.0240
2907.00,0.0236
2906.00,0.0232
2905.00,0.0229
2904.00,0.0225
2903.00,0.0223
2902.00,0.0220
2901.00,0.0218
2900.00,0.0217
2899.00,0.0216
2898.00,0.0215
2897.00,0.0214
2896.00,0.0213
2895.00,0.0213
2894.00,0.0212
2893.00,0.0212
2892.00,0.0211
2891.00,0.0211
2890.00,0.0210
2889.00,0.0210
2888.00,0.0209
2887.00,0.0208
2886.00,0.0208
2885.00,0.0208
2884.00,0.0208
2883.00,0.0208
2882.00,0.0208
2881.00,0.0209
2880.00,0.0209
2879.00,0.0210
2878.00,0.0211
2877.00,0.0213
2876.00,0.0214
2875.00,0.0215
2874.00,0.0217
2873.00,0.0219
2872.00,0.0220
2871.00,0.0220
2870.00,0.0220
2869.00,0.0220
2868.00,0.0219
2867.00,0.0218
2866.00,0.0218
2865.00,0.0218
2864.00,0.0218
2863.00,0.0218
2862.00,0.0219
2861.00,0.0219
2860.00,0.0220
2859.00,0.0220
2858.00,0.0219
2857.00,0.0218
2856.00,0.0215
2855.00,0.0212
2854.00,0.0208
2853.00,0.0204
2852.00,0.0199
2851.00,0.0193
2850.00,0.0188
2849.00,0.0182
2848.00,0.0176
2847.00,0.0170
2846.00,0.0164
2845.00,0.0159
2844.00,0.0153
2843.00,0.0148
2842.00,0.0143
2841.00,0.0138
2840.00,0.0134
2839.00,0.0130
2838.00,0.0127
2837.00,0.0124
2836.00,0.0121
2835.00,0.0118
2834.00,0.0116
2833.00,0.0113
2832.00,0.0110
2831.00,0.0108
2830.00,0.0106
2829.00,0.0104
2828.00,0.0102
2827.00,0.0100
2826.00,0.0098
2825.00,0.0096
2824.00,0.0094
2823.00,0.0092
2822.00,0.0091
2821.00,0.0089
2820.00,0.0088
2819.00,0.0086
2818.00,0.0085
2817.00,0.0084
2816.00,0.0083
2815.00,0.0082
2814.00,0.0080
2813.00,0.0079
2812.00,0.0078
2811.00,0.0077
2810.00,0.0076
2809.00,0.0075
2808.00,0.0074
2807.00,0.0074
2806.00,0.0073
2805.00,0.0072
2804.00,0.0071
2803.00,0.0071
2802.00,0.0070
2801.00,0.0069
2800.00,0.0069
2799.00,0.0068
2798.00,0.0068
2797.00,0.0067
2796.00,0.0067
2795.00,0.0066
2794.00,0.0066
2793.00,0.0065
2792.00,0.0065
2791.00,0.0064
2790.00,0.0064
2789.00,0.0063
2788.00,0.0063
2787.00,0.0063
2786.00,0.0062
2785.00,0.0062
2784.00,0.0062
2783.00,0.0061
2782.00,0.0061
2781.00,0.0061
2780.00,0.0060
2779.00,0.0060
2778.00,0.0059
2777.00,0.0059
2776.00,0.0059
2775.00,0.0058
2774.00,0.0058
2773.00,0.0058
2772.00,0.0058
2771.00,0.0058
2770.00,0.0058
2769.00,0.0057
2768.00,0.0057
2767.00,0.0057
2766.00,0.0057
2765.00,0.0056
2764.00,0.0056
2763.00,0.0056
2762.00,0.0056
2761.00,0.0056
2760.00,0.0056
2759.00,0.0056
2758.00,0.0056
2757.00,0.0056
2756.00,0.0056
2755.00,0.0056
2754.00,0.0056
2753.00,0.0056
2752.00,0.0056
2751.00,0.0056
2750.00,0.0056
2749.00,0.0056
2748.00,0.0056
2747.00,0.0056
2746.00,0.0056
2745.00,0.0056
2744.00,0.0057
2743.00,0.0057
2742.00,0.0057
2741.00,0.0057
2740.00,0.0057
2739.00,0.0057
2738.00,0.0057
2737.00,0.0057
2736.00,0.0057
2735.00,0.0057
2734.00,0.0057
2733.00,0.0057
2732.00,0.0057
2731.00,0.0057
2730.00,0.0057
2729.00,0.0057
2728.00,0.0056
2727.00,0.0056
2726.00,0.0056
2725.00,0.0056
2724.00,0.0055
2723.00,0.0055
2722.00,0.0055
2721.00,0.0055
2720.00,0.0055
2719.00,0.0054
2718.00,0.0054
2717.00,0.0054
2716.00,0.0054
2715.00,0.0054
2714.00,0.0054
2713.00,0.0053
2712.00,0.0053
2711.00,0.0053
2710.00,0.0053
2709.00,0.0053
2708.00,0.0053
2707.00,0.0052
2706.00,0.0052
2705.00,0.0052
2704.00,0.0051
2703.00,0.0051
2702.00,0.0051
2701.00,0.0051
2700.00,0.0051
2699.00,0.0051
2698.00,0.0051
2697.00,0.0050
2696.00,0.0050
2695.00,0.0050
2694.00,0.0050
2693.00,0.0050
2692.00,0.0050
2691.00,0.0049
2690.00,0.0049
2689.00,0.0049
2688.00,0.0049
2687.00,0.0049
2686.00,0.0048
2685.00,0.0048
2684.00,0.0048
2683.00,0.0048
2682.00,0.0048
2681.00,0.0048
2680.00,0.0048
2679.00,0.0048
2678.00,0.0048
2677.00,0.0048
2676.00,0.0047
2675.00,0.0047
2674.00,0.0047
2673.00,0.0047
2672.00,0.0047
2671.00,0.0047
2670.00,0.0047
2669.00,0.0047
2668.00,0.0047
2667.00,0.0048
2666.00,0.0048
2665.00,0.0048
2664.00,0.0049
2663.00,0.0049
2662.00,0.0049
2661.00,0.0049
2660.00,0.0050
2659.00,0.0050
2658.00,0.0050
2657.00,0.0050
2656.00,0.0050
2655.00,0.0050
2654.00,0.0050
2653.00,0.0050
2652.00,0.0050
2651.00,0.0050
2650.00,0.0050
2649.00,0.0050
2648.00,0.0050
2647.00,0.0049
2646.00,0.0049
2645.00,0.0049
2644.00,0.0049
2643.00,0.0049
2642.00,0.0048
2641.00,0.0048
2640.00,0.0048
2639.00,0.0048
2638.00,0.0048
2637.00,0.0048
2636.00,0.0048
2635.00,0.0047
2634.00,0.0047
2633.00,0.0046
2632.00,0.0046
2631.00,0.0046
2630.00,0.0047
2629.00,0.0047
2628.00,0.0047
2627.00,0.0046
2626.00,0.0046
2625.00,0.0046
2624.00,0.0046
2623.00,0.0045
2622.00,0.0045
2621.00,0.0045
2620.00,0.0045
2619.00,0.0045
2618.00,0.0045
2617.00,0.0045
2616.00,0.0045
2615.00,0.0044
2614.00,0.0044
2613.00,0.0044
2612.00,0.0044
2611.00,0.0044
2610.00,0.0044
2609.00,0.0044
2608.00,0.0043
2607.00,0.0043
2606.00,0.0042
2605.00,0.0042
2604.00,0.0042
2603.00,0.0043
2602.00,0.0043
2601.00,0.0043
2600.00,0.0042
2599.00,0.0042
2598.00,0.0042
2597.00,0.0042
2596.00,0.0042
2595.00,0.0042
2594.00,0.0041
2593.00,0.0041
2592.00,0.0041
2591.00,0.0041
2590.00,0.0041
2589.00,0.0041
2588.00,0.0041
2587.00,0.0041
2586.00,0.0041
2585.00,0.0041
2584.00,0.0041
2583.00,0.0041
2582.00,0.0040
2581.00,0.0040
2580.00,0.0040
2579.00,0.0040
2578.00,0.0040
2577.00,0.0041
2576.00,0.0041
2575.00,0.0041
2574.00,0.0040
2573.00,0.0040
2572.00,0.0040
2571.00,0.0040
2570.00,0.0040
2569.00,0.0040
2568.00,0.0039
2567.00,0.0039
2566.00,0.0038
2565.00,0.0038
2564.00,0.0039
2563.00,0.0039
2562.00,0.0039
2561.00,0.0039
2560.00,0.0039
2559.00,0.0039
2558.00,0.0038
2557.00,0.0038
2556.00,0.0037
2555.00,0.0037
2554.00,0.0036
2553.00,0.0036
2552.00,0.0036
2551.00,0.0036
2550.00,0.0036
2549.00,0.0036
2548.00,0.0036
2547.00,0.0036
2546.00,0.0035
2545.00,0.0035
2544.00,0.0035
2543.00,0.0035
2542.00,0.0036
2541.00,0.0036
2540.00,0.0035
2539.00,0.0035
2538.00,0.0035
2537.00,0.0035
2536.00,0.0034
2535.00,0.0034
2534.00,0.0034
2533.00,0.0034
2532.00,0.0034
2531.00,0.0034
2530.00,0.0034
2529.00,0.0033
2528.00,0.0033
2527.00,0.0032
2526.00,0.0032
2525.00,0.0032
2524.00,0.0032
2523.00,0.0032
2522.00,0.0031
2521.00,0.0031
2520.00,0.0032
2519.00,0.0032
2518.00,0.0032
2517.00,0.0031
2516.00,0.0031
2515.00,0.0030
2514.00,0.0029
2513.00,0.0029
2512.00,0.0029
2511.00,0.0029
2510.00,0.0029
2509.00,0.0029
2508.00,0.0029
2507.00,0.0029
2506.00,0.0029
2505.00,0.0029
2504.00,0.0028
2503.00,0.0028
2502.00,0.0028
2501.00,0.0028
2500.00,0.0029
2499.00,0.0029
2498.00,0.0029
2497.00,0.0029
2496.00,0.0028
2495.00,0.0028
2494.00,0.0028
2493.00,0.0027
2492.00,0.0028
2491.00,0.0028
2490.00,0.0028
2489.00,0.0028
2488.00,0.0028
2487.00,0.0028
2486.00,0.0028
2485.00,0.0027
2484.00,0.0027
2483.00,0.0027
2482.00,0.0027
2481.00,0.0027
2480.00,0.0027
2479.00,0.0027
2478.00,0.0027
2477.00,0.0027
2476.00,0.0027
2475.00,0.0027
2474.00,0.0026
2473.00,0.0026
2472.00,0.0026
2471.00,0.0026
2470.00,0.0026
2469.00,0.0026
2468.00,0.0026
2467.00,0.0026
2466.00,0.0027
2465.00,0.0027
2464.00,0.0027
2463.00,0.0027
2462.00,0.0028
2461.00,0.0028
2460.00,0.0028
2459.00,0.0028
2458.00,0.0028
2457.00,0.0028
2456.00,0.0028
2455.00,0.0028
2454.00,0.0028
2453.00,0.0028
2452.00,0.0027
2451.00,0.0027
2450.00,0.0027
2449.00,0.0027
2448.00,0.0027
2447.00,0.0027
2446.00,0.0027
2445.00,0.0027
2444.00,0.0027
2443.00,0.0027
2442.00,0.0027
2441.00,0.0026
2440.00,0.0026
2439.00,0.0026
2438.00,0.0025
2437.00,0.0025
2436.00,0.0025
2435.00,0.0026
2434.00,0.0026
2433.00,0.0026
2432.00,0.0026
2431.00,0.0026
2430.00,0.0026
2429.00,0.0026
2428.00,0.0026
2427.00,0.0026
2426.00,0.0026
2425.00,0.0025
2424.00,0.0024
2423.00,0.0024
2422.00,0.0024
2421.00,0.0024
2420.00,0.0025
2419.00,0.0025
2418.00,0.0025
2417.00,0.0025
2416.00,0.0025
2415.00,0.0025
2414.00,0.0025
2413.00,0.0025
2412.00,0.0025
2411.00,0.0025
2410.00,0.0025
2409.00,0.0024
2408.00,0.0024
2407.00,0.0023
2406.00,0.0023
2405.00,0.0022
2404.00,0.0022
2403.00,0.0022
2402.00,0.0022
2401.00,0.0022
2400.00,0.0023
2399.00,0.0023
2398.00,0.0023
2397.00,0.0023
2396.00,0.0022
2395.00,0.0022
2394.00,0.0022
2393.00,0.0022
2392.00,0.0022
2391.00,0.0022
2390.00,0.0022
2389.00,0.0021
2388.00,0.0021
2387.00,0.0021
2386.00,0.0020
2385.00,0.0019
2384.00,0.0019
2383.00,0.0018
2382.00,0.0017
2381.00,0.0017
2380.00,0.0016
2379.00,0.0016
2378.00,0.0016
2377.00,0.0017
2376.00,0.0018
2375.00,0.0018
2374.00,0.0018
2373.00,0.0018
2372.00,0.0017
2371.00,0.0017
2370.00,0.0016
2369.00,0.0016
2368.00,0.0016
2367.00,0.0016
2366.00,0.0017
2365.00,0.0018
2364.00,0.0018
2363.00,0.0018
2362.00,0.0018
2361.00,0.0018
2360.00,0.0018
2359.00,0.0018
2358.00,0.0018
2357.00,0.0018
2356.00,0.0018
2355.00,0.0019
2354.00,0.0019
2353.00,0.0019
2352.00,0.0019
2351.00,0.0019
2350.00,0.0019
2349.00,0.0020
2348.00,0.0021
2347.00,0.0021
2346.00,0.0021
2345.00,0.0021
2344.00,0.0022
2343.00,0.0022
2342.00,0.0022
2341.00,0.0023
2340.00,0.0023
2339.00,0.0023
2338.00,0.0023
2337.00,0.0024
2336.00,0.0024
2335.00,0.0024
2334.00,0.0023
2333.00,0.0022
2332.00,0.0022
2331.00,0.0022
2330.00,0.0023
2329.00,0.0025
2328.00,0.0029
2327.00,0.0033
2326.00,0.0036
2325.00,0.0037
2324.00,0.0036
2323.00,0.0034
2322.00,0.0032
2321.00,0.0030
2320.00,0.0030
2319.00,0.0029
2318.00,0.0029
2317.00,0.0029
2316.00,0.0028
2315.00,0.0028
2314.00,0.0027
2313.00,0.0026
2312.00,0.0026
2311.00,0.0025
2310.00,0.0025
2309.00,0.0025
2308.00,0.0025
2307.00,0.0025
2306.00,0.0025
2305.00,0.0025
2304.00,0.0026
2303.00,0.0026
2302.00,0.0027
2301.00,0.0027
2300.00,0.0028
2299.00,0.0028
2298.00,0.0029
2297.00,0.0029
2296.00,0.0030
2295.00,0.0031
2294.00,0.0032
2293.00,0.0032
2292.00,0.0033
2291.00,0.0033
2290.00,0.0034
2289.00,0.0034
2288.00,0.0035
2287.00,0.0035
2286.00,0.0035
2285.00,0.0034
2284.00,0.0033
2283.00,0.0032
2282.00,0.0032
2281.00,0.0032
2280.00,0.0032
2279.00,0.0032
2278.00,0.0032
2277.00,0.0031
2276.00,0.0030
2275.00,0.0030
2274.00,0.0031
2273.00,0.0031
2272.00,0.0031
2271.00,0.0031
2270.00,0.0030
2269.00,0.0029
2268.00,0.0028
2267.00,0.0027
2266.00,0.0026
2265.00,0.0025
2264.00,0.0024
2263.00,0.0024
2262.00,0.0024
2261.00,0.0025
2260.00,0.0026
2259.00,0.0026
2258.00,0.0026
2257.00,0.0025
2256.00,0.0025
2255.00,0.0025
2254.00,0.0025
2253.00,0.0025
2252.00,0.0026
2251.00,0.0026
2250.00,0.0026
2249.00,0.0026
2248.00,0.0026
2247.00,0.0026
2246.00,0.0026
2245.00,0.0026
2244.00,0.0026
2243.00,0.0026
2242.00,0.0026
2241.00,0.0026
2240.00,0.0026
2239.00,0.0026
2238.00,0.0026
2237.00,0.0026
2236.00,0.0026
2235.00,0.0026
2234.00,0.0026
2233.00,0.0026
2232.00,0.0026
2231.00,0.0026
2230.00,0.0025
2229.00,0.0025
2228.00,0.0025
2227.00,0.0024
2226.00,0.0023
2225.00,0.0023
2224.00,0.0024
2223.00,0.0024
2222.00,0.0025
2221.00,0.0024
2220.00,0.0024
2219.00,0.0023
2218.00,0.0023
2217.00,0.0023
2216.00,0.0024
2215.00,0.0024
2214.00,0.0024
2213.00,0.0025
2212.00,0.0026
2211.00,0.0026
2210.00,0.0026
2209.00,0.0025
2208.00,0.0025
2207.00,0.0025
2206.00,0.0024
2205.00,0.0024
2204.00,0.0024
2203.00,0.0024
2202.00,0.0024
2201.00,0.0025
2200.00,0.0026
2199.00,0.0026
2198.00,0.0026
2197.00,0.0026
2196.00,0.0026
2195.00,0.0025
2194.00,0.0025
2193.00,0.0025
2192.00,0.0027
2191.00,0.0028
2190.00,0.0028
2189.00,0.0028
2188.00,0.0028
2187.00,0.0027
2186.00,0.0026
2185.00,0.0024
2184.00,0.0022
2183.00,0.0020
2182.00,0.0020
2181.00,0.0021
2180.00,0.0023
2179.00,0.0024
2178.00,0.0022
2177.00,0.0019
2176.00,0.0016
2175.00,0.0016
2174.00,0.0017
2173.00,0.0020
2172.00,0.0024
2171.00,0.0028
2170.00,0.0031
2169.00,0.0033
2168.00,0.0035
2167.00,0.0035
2166.00,0.0034
2165.00,0.0034
2164.00,0.0036
2163.00,0.0036
2162.00,0.0031
2161.00,0.0020
2160.00,0.0007
2159.00,-0.0004
2158.00,-0.0009
2157.00,-0.0009
2156.00,-0.0007
2155.00,-0.0003
2154.00,-0.0000
2153.00,0.0003
2152.00,0.0005
2151.00,0.0006
2150.00,0.0006
2149.00,0.0005
2148.00,0.0005
2147.00,0.0004
2146.00,0.0004
2145.00,0.0004
2144.00,0.0004
2143.00,0.0005
2142.00,0.0006
2141.00,0.0006
2140.00,0.0007
2139.00,0.0006
2138.00,0.0004
2137.00,0.0002
2136.00,-0.0000
2135.00,-0.0001
2134.00,-0.0001
2133.00,0.0001
2132.00,0.0003
2131.00,0.0004
2130.00,0.0005
2129.00,0.0006
2128.00,0.0007
2127.00,0.0009
2126.00,0.0010
2125.00,0.0011
2124.00,0.0012
2123.00,0.0013
2122.00,0.0014
2121.00,0.0014
2120.00,0.0015
2119.00,0.0016
2118.00,0.0018
2117.00,0.0019
2116.00,0.0020
2115.00,0.0021
2114.00,0.0020
2113.00,0.0020
2112.00,0.0020
2111.00,0.0020
2110.00,0.0020
2109.00,0.0020
2108.00,0.0020
2107.00,0.0020
2106.00,0.0020
2105.00,0.0021
2104.00,0.0022
2103.00,0.0023
2102.00,0.0023
2101.00,0.0022
2100.00,0.0022
2099.00,0.0021
2098.00,0.0020
2097.00,0.0019
2096.00,0.0018
2095.00,0.0017
2094.00,0.0017
2093.00,0.0018
2092.00,0.0019
2091.00,0.0020
2090.00,0.0020
2089.00,0.0020
2088.00,0.0021
2087.00,0.0022
2086.00,0.0022
2085.00,0.0022
2084.00,0.0022
2083.00,0.0022
2082.00,0.0022
2081.00,0.0023
2080.00,0.0024
2079.00,0.0025
2078.00,0.0025
2077.00,0.0025
2076.00,0.0026
2075.00,0.0026
2074.00,0.0026
2073.00,0.0025
2072.00,0.0024
2071.00,0.0023
2070.00,0.0021
2069.00,0.0020
2068.00,0.0020
2067.00,0.0020
2066.00,0.0019
2065.00,0.0019
2064.00,0.0018
2063.00,0.0018
2062.00,0.0018
2061.00,0.0018
2060.00,0.0020
2059.00,0.0020
2058.00,0.0020
2057.00,0.0020
2056.00,0.0020
2055.00,0.0021
2054.00,0.0024
2053.00,0.0028
2052.00,0.0031
2051.00,0.0031
2050.00,0.0028
2049.00,0.0024
2048.00,0.0023
2047.00,0.0023
2046.00,0.0023
2045.00,0.0023
2044.00,0.0024
2043.00,0.0023
2042.00,0.0023
2041.00,0.0022
2040.00,0.0022
2039.00,0.0022
2038.00,0.0021
2037.00,0.0020
2036.00,0.0020
2035.00,0.0018
2034.00,0.0017
2033.00,0.0016
2032.00,0.0016
2031.00,0.0015
2030.00,0.0013
2029.00,0.0012
2028.00,0.0012
2027.00,0.0013
2026.00,0.0014
2025.00,0.0016
2024.00,0.0018
2023.00,0.0018
2022.00,0.0018
2021.00,0.0017
2020.00,0.0016
2019.00,0.0014
2018.00,0.0012
2017.00,0.0011
2016.00,0.0012
2015.00,0.0013
2014.00,0.0014
2013.00,0.0014
2012.00,0.0015
2011.00,0.0015
2010.00,0.0014
2009.00,0.0012
2008.00,0.0010
2007.00,0.0008
2006.00,0.0007
2005.00,0.0008
2004.00,0.0009
2003.00,0.0010
2002.00,0.0010
2001.00,0.0010
2000.00,0.0012
1999.00,0.0014
1998.00,0.0015
1997.00,0.0016
1996.00,0.0018
1995.00,0.0020
1994.00,0.0020
1993.00,0.0020
1992.00,0.0020
1991.00,0.0020
1990.00,0.0019
1989.00,0.0020
1988.00,0.0021
1987.00,0.0022
1986.00,0.0023
1985.00,0.0024
1984.00,0.0026
1983.00,0.0028
1982.00,0.0029
1981.00,0.0030
1980.00,0.0028
1979.00,0.0024
1978.00,0.0017
1977.00,0.0011
1976.00,0.0007
1975.00,0.0005
1974.00,0.0004
1973.00,0.0005
1972.00,0.0008
1971.00,0.0011
1970.00,0.0013
1969.00,0.0014
1968.00,0.0015
1967.00,0.0014
1966.00,0.0011
1965.00,0.0009
1964.00,0.0007
1963.00,0.0006
1962.00,0.0005
1961.00,0.0004
1960.00,0.0004
1959.00,0.0004
1958.00,0.0005
1957.00,0.0006
1956.00,0.0008
1955.00,0.0008
1954.00,0.0008
1953.00,0.0008
1952.00,0.0008
1951.00,0.0008
1950.00,0.0008
1949.00,0.0008
1948.00,0.0010
1947.00,0.0011
1946.00,0.0011
1945.00,0.0011
1944.00,0.0011
1943.00,0.0011
1942.00,0.0010
1941.00,0.0010
1940.00,0.0010
1939.00,0.0011
1938.00,0.0011
1937.00,0.0011
1936.00,0.0012
1935.00,0.0012
1934.00,0.0013
1933.00,0.0013
1932.00,0.0014
1931.00,0.0014
1930.00,0.0014
1929.00,0.0013
1928.00,0.0012
1927.00,0.0012
1926.00,0.0012
1925.00,0.0014
1924.00,0.0016
1923.00,0.0017
1922.00,0.0017
1921.00,0.0017
1920.00,0.0017
1919.00,0.0017
1918.00,0.0016
1917.00,0.0015
1916.00,0.0015
1915.00,0.0015
1914.00,0.0015
1913.00,0.0015
1912.00,0.0016
1911.00,0.0017
1910.00,0.0017
1909.00,0.0017
1908.00,0.0017
1907.00,0.0017
1906.00,0.0016
1905.00,0.0016
1904.00,0.0016
1903.00,0.0016
1902.00,0.0016
1901.00,0.0016
1900.00,0.0017
1899.00,0.0017
1898.00,0.0017
1897.00,0.0018
1896.00,0.0018
1895.00,0.0018
1894.00,0.0018
1893.00,0.0018
1892.00,0.0018
1891.00,0.0018
1890.00,0.0018
1889.00,0.0018
1888.00,0.0017
1887.00,0.0017
1886.00,0.0017
1885.00,0.0017
1884.00,0.0017
1883.00,0.0017
1882.00,0.0017
1881.00,0.0017
1880.00,0.0017
1879.00,0.0018
1878.00,0.0017
1877.00,0.0017
1876.00,0.0017
1875.00,0.0017
1874.00,0.0017
1873.00,0.0017
1872.00,0.0018
1871.00,0.0019
1870.00,0.0020
1869.00,0.0020
1868.00,0.0020
1867.00,0.0019
1866.00,0.0019
1865.00,0.0018
1864.00,0.0019
1863.00,0.0019
1862.00,0.0019
1861.00,0.0018
1860.00,0.0018
1859.00,0.0018
1858.00,0.0018
1857.00,0.0018
1856.00,0.0019
1855.00,0.0019
1854.00,0.0019
1853.00,0.0019
1852.00,0.0020
1851.00,0.0020
1850.00,0.0020
1849.00,0.0020
1848.00,0.0021
1847.00,0.0021
1846.00,0.0020
1845.00,0.0019
1844.00,0.0018
1843.00,0.0017
1842.00,0.0017
1841.00,0.0018
1840.00,0.0020
1839.00,0.0021
1838.00,0.0021
1837.00,0.0020
1836.00,0.0020
1835.00,0.0020
1834.00,0.0020
1833.00,0.0020
1832.00,0.0021
1831.00,0.0021
1830.00,0.0020
1829.00,0.0020
1828.00,0.0020
1827.00,0.0021
1826.00,0.0021
1825.00,0.0021
1824.00,0.0020
1823.00,0.0020
1822.00,0.0020
1821.00,0.0019
1820.00,0.0019
1819.00,0.0018
1818.00,0.0017
1817.00,0.0017
1816.00,0.0017
1815.00,0.0018
1814.00,0.0019
1813.00,0.0021
1812.00,0.0022
1811.00,0.0023
1810.00,0.0022
1809.00,0.0022
1808.00,0.0022
1807.00,0.0022
1806.00,0.0022
1805.00,0.0022
1804.00,0.0022
1803.00,0.0023
1802.00,0.0023
1801.00,0.0023
1800.00,0.0023
1799.00,0.0024
1798.00,0.0024
1797.00,0.0025
1796.00,0.0025
1795.00,0.0025
1794.00,0.0024
1793.00,0.0024
1792.00,0.0023
1791.00,0.0023
1790.00,0.0023
1789.00,0.0023
1788.00,0.0024
1787.00,0.0024
1786.00,0.0024
1785.00,0.0024
1784.00,0.0025
1783.00,0.0026
1782.00,0.0027
1781.00,0.0027
1780.00,0.0027
1779.00,0.0027
1778.00,0.0027
1777.00,0.0027
1776.00,0.0028
1775.00,0.0029
1774.00,0.0029
1773.00,0.0029
1772.00,0.0028
1771.00,0.0027
1770.00,0.0027
1769.00,0.0028
1768.00,0.0028
1767.00,0.0029
1766.00,0.0029
1765.00,0.0030
1764.00,0.0031
1763.00,0.0031
1762.00,0.0030
1761.00,0.0030
1760.00,0.0031
1759.00,0.0032
1758.00,0.0032
1757.00,0.0032
1756.00,0.0032
1755.00,0.0033
1754.00,0.0034
1753.00,0.0035
1752.00,0.0037
1751.00,0.0039
1750.00,0.0040
1749.00,0.0041
1748.00,0.0042
1747.00,0.0043
1746.00,0.0043
1745.00,0.0043
1744.00,0.0044
1743.00,0.0044
1742.00,0.0042
1741.00,0.0042
1740.00,0.0043
1739.00,0.0043
1738.00,0.0043
1737.00,0.0044
1736.00,0.0044
1735.00,0.0045
1734.00,0.0045
1733.00,0.0047
1732.00,0.0051
1731.00,0.0053
1730.00,0.0054
1729.00,0.0054
1728.00,0.0055
1727.00,0.0057
1726.00,0.0058
1725.00,0.0060
1724.00,0.0063
1723.00,0.0065
1722.00,0.0066
1721.00,0.0068
1720.00,0.0071
1719.00,0.0076
1718.00,0.0080
1717.00,0.0083
1716.00,0.0087
1715.00,0.0091
1714.00,0.0095
1713.00,0.0100
1712.00,0.0107
1711.00,0.0114
1710.00,0.0121
1709.00,0.0130
1708.00,0.0142
1707.00,0.0155
1706.00,0.0171
1705.00,0.0188
1704.00,0.0204
1703.00,0.0216
1702.00,0.0230
1701.00,0.0259
1700.00,0.0304
1699.00,0.0346
1698.00,0.0378
1697.00,0.0412
1696.00,0.0458
1695.00,0.0508
1694.00,0.0552
1693.00,0.0589
1692.00,0.0624
1691.00,0.0664
1690.00,0.0707
1689.00,0.0749
1688.00,0.0784
1687.00,0.0810
1686.00,0.0835
1685.00,0.0877
1684.00,0.0937
1683.00,0.0988
1682.00,0.1016
1681.00,0.1032
1680.00,0.1046
1679.00,0.1056
1678.00,0.1061
1677.00,0.1064
1676.00,0.1074
1675.00,0.1090
1674.00,0.1104
1673.00,0.1108
1672.00,0.1105
1671.00,0.1104
1670.00,0.1110
1669.00,0.1120
1668.00,0.1129
1667.00,0.1132
1666.00,0.1129
1665.00,0.1125
1664.00,0.1126
1663.00,0.1134
1662.00,0.1146
1661.00,0.1154
1660.00,0.1156
1659.00,0.1154
1658.00,0.1148
1657.00,0.1137
1656.00,0.1121
1655.00,0.1104
1654.00,0.1097
1653.00,0.1107
1652.00,0.1114
1651.00,0.1104
1650.00,0.1080
1649.00,0.1050
1648.00,0.1018
1647.00,0.0988
1646.00,0.0958
1645.00,0.0928
1644.00,0.0896
1643.00,0.0861
1642.00,0.0824
1641.00,0.0787
1640.00,0.0752
1639.00,0.0717
1638.00,0.0684
1637.00,0.0649
1636.00,0.0614
1635.00,0.0583
1634.00,0.0559
1633.00,0.0539
1632.00,0.0519
1631.00,0.0499
1630.00,0.0483
1629.00,0.0470
1628.00,0.0462
1627.00,0.0458
1626.00,0.0458
1625.00,0.0463
1624.00,0.0475
1623.00,0.0491
1622.00,0.0507
1621.00,0.0518
1620.00,0.0522
1619.00,0.0522
1618.00,0.0519
1617.00,0.0513
1616.00,0.0505
1615.00,0.0495
1614.00,0.0483
1613.00,0.0472
1612.00,0.0461
1611.00,0.0453
1610.00,0.0443
1609.00,0.0432
1608.00,0.0416
1607.00,0.0397
1606.00,0.0376
1605.00,0.0353
1604.00,0.0330
1603.00,0.0309
1602.00,0.0288
1601.00,0.0270
1600.00,0.0255
1599.00,0.0244
1598.00,0.0235
1597.00,0.0230
1596.00,0.0228
1595.00,0.0230
1594.00,0.0236
1593.00,0.0246
1592.00,0.0260
1591.00,0.0279
1590.00,0.0299
1589.00,0.0321
1588.00,0.0340
1587.00,0.0355
1586.00,0.0364
1585.00,0.0366
1584.00,0.0360
1583.00,0.0350
1582.00,0.0334
1581.00,0.0317
1580.00,0.0299
1579.00,0.0283
1578.00,0.0267
1577.00,0.0252
1576.00,0.0237
1575.00,0.0226
1574.00,0.0218
1573.00,0.0211
1572.00,0.0204
1571.00,0.0197
1570.00,0.0190
1569.00,0.0184
1568.00,0.0178
1567.00,0.0174
1566.00,0.0170
1565.00,0.0165
1564.00,0.0160
1563.00,0.0155
1562.00,0.0148
1561.00,0.0141
1560.00,0.0138
1559.00,0.0134
1558.00,0.0130
1557.00,0.0129
1556.00,0.0129
1555.00,0.0128
1554.00,0.0127
1553.00,0.0126
1552.00,0.0125
1551.00,0.0125
1550.00,0.0124
1549.00,0.0121
1548.00,0.0119
1547.00,0.0118
1546.00,0.0118
1545.00,0.0118
1544.00,0.0118
1543.00,0.0117
1542.00,0.0117
1541.00,0.0118
1540.00,0.0115
1539.00,0.0111
1538.00,0.0110
1537.00,0.0110
1536.00,0.0111
1535.00,0.0111
1534.00,0.0111
1533.00,0.0110
1532.00,0.0110
1531.00,0.0111
1530.00,0.0112
1529.00,0.0113
1528.00,0.0115
1527.00,0.0116
1526.00,0.0118
1525.00,0.0119
1524.00,0.0121
1523.00,0.0124
1522.00,0.0127
1521.00,0.0129
1520.00,0.0132
1519.00,0.0136
1518.00,0.0141
1517.00,0.0145
1516.00,0.0147
1515.00,0.0148
1514.00,0.0149
1513.00,0.0151
1512.00,0.0153
1511.00,0.0156
1510.00,0.0159
1509.00,0.0163
1508.00,0.0167
1507.00,0.0168
1506.00,0.0171
1505.00,0.0177
1504.00,0.0187
1503.00,0.0198
1502.00,0.0210
1501.00,0.0225
1500.00,0.0241
1499.00,0.0260
1498.00,0.0281
1497.00,0.0300
1496.00,0.0315
1495.00,0.0324
1494.00,0.0327
1493.00,0.0325
1492.00,0.0319
1491.00,0.0310
1490.00,0.0298
1489.00,0.0282
1488.00,0.0264
1487.00,0.0245
1486.00,0.0228
1485.00,0.0214
1484.00,0.0201
1483.00,0.0191
1482.00,0.0182
1481.00,0.0176
1480.00,0.0171
1479.00,0.0169
1478.00,0.0169
1477.00,0.0172
1476.00,0.0177
1475.00,0.0184
1474.00,0.0195
1473.00,0.0212
1472.00,0.0235
1471.00,0.0259
1470.00,0.0284
1469.00,0.0310
1468.00,0.0337
1467.00,0.0367
1466.00,0.0401
1465.00,0.0441
1464.00,0.0480
1463.00,0.0509
1462.00,0.0528
1461.00,0.0539
1460.00,0.0543
1459.00,0.0539
1458.00,0.0528
1457.00,0.0509
1456.00,0.0486
1455.00,0.0466
1454.00,0.0447
1453.00,0.0430
1452.00,0.0417
1451.00,0.0408
1450.00,0.0406
1449.00,0.0411
1448.00,0.0423
1447.00,0.0440
1446.00,0.0458
1445.00,0.0477
1444.00,0.0497
1443.00,0.0519
1442.00,0.0540
1441.00,0.0561
1440.00,0.0578
1439.00,0.0593
1438.00,0.0611
1437.00,0.0638
1436.00,0.0668
1435.00,0.0691
1434.00,0.0706
1433.00,0.0715
1432.00,0.0724
1431.00,0.0734
1430.00,0.0746
1429.00,0.0760
1428.00,0.0774
1427.00,0.0790
1426.00,0.0808
1425.00,0.0831
1424.00,0.0855
1423.00,0.0871
1422.00,0.0877
1421.00,0.0872
1420.00,0.0858
1419.00,0.0834
1418.00,0.0801
1417.00,0.0762
1416.00,0.0717
1415.00,0.0671
1414.00,0.0628
1413.00,0.0590
1412.00,0.0558
1411.00,0.0532
1410.00,0.0513
1409.00,0.0500
1408.00,0.0491
1407.00,0.0487
1406.00,0.0486
1405.00,0.0488
1404.00,0.0491
1403.00,0.0490
1402.00,0.0487
1401.00,0.0480
1400.00,0.0469
1399.00,0.0453
1398.00,0.0434
1397.00,0.0412
1396.00,0.0388
1395.00,0.0363
1394.00,0.0341
1393.00,0.0323
1392.00,0.0310
1391.00,0.0299
1390.00,0.0292
1389.00,0.0288
1388.00,0.0288
1387.00,0.0291
1386.00,0.0298
1385.00,0.0306
1384.00,0.0316
1383.00,0.0327
1382.00,0.0339
1381.00,0.0351
1380.00,0.0361
1379.00,0.0368
1378.00,0.0373
1377.00,0.0375
1376.00,0.0374
1375.00,0.0373
1374.00,0.0370
1373.00,0.0366
1372.00,0.0361
1371.00,0.0356
1370.00,0.0351
1369.00,0.0346
1368.00,0.0341
1367.00,0.0337
1366.00,0.0336
1365.00,0.0336
1364.00,0.0340
1363.00,0.0344
1362.00,0.0349
1361.00,0.0349
1360.00,0.0344
1359.00,0.0333
1358.00,0.0319
1357.00,0.0302
1356.00,0.0285
1355.00,0.0268
1354.00,0.0254
1353.00,0.0244
1352.00,0.0235
1351.00,0.0229
1350.00,0.0225
1349.00,0.0222
1348.00,0.0219
1347.00,0.0217
1346.00,0.0215
1345.00,0.0214
1344.00,0.0214
1343.00,0.0214
1342.00,0.0215
1341.00,0.0217
1340.00,0.0219
1339.00,0.0220
1338.00,0.0222
1337.00,0.0224
1336.00,0.0226
1335.00,0.0230
1334.00,0.0233
1333.00,0.0238
1332.00,0.0242
1331.00,0.0248
1330.00,0.0253
1329.00,0.0260
1328.00,0.0266
1327.00,0.0274
1326.00,0.0283
1325.00,0.0292
1324.00,0.0302
1323.00,0.0312
1322.00,0.0322
1321.00,0.0331
1320.00,0.0339
1319.00,0.0345
1318.00,0.0348
1317.00,0.0349
1316.00,0.0347
1315.00,0.0343
1314.00,0.0338
1313.00,0.0332
1312.00,0.0325
1311.00,0.0320
1310.00,0.0316
1309.00,0.0315
1308.00,0.0315
1307.00,0.0318
1306.00,0.0322
1305.00,0.0329
1304.00,0.0337
1303.00,0.0348
1302.00,0.0362
1301.00,0.0380
1300.00,0.0402
1299.00,0.0429
1298.00,0.0462
1297.00,0.0501
1296.00,0.0545
1295.00,0.0593
1294.00,0.0644
1293.00,0.0696
1292.00,0.0747
1291.00,0.0796
1290.00,0.0840
1289.00,0.0880
1288.00,0.0912
1287.00,0.0936
1286.00,0.0951
1285.00,0.0956
1284.00,0.0952
1283.00,0.0940
1282.00,0.0922
1281.00,0.0900
1280.00,0.0878
1279.00,0.0859
1278.00,0.0845
1277.00,0.0837
1276.00,0.0833
1275.00,0.0834
1274.00,0.0838
1273.00,0.0841
1272.00,0.0842
1271.00,0.0839
1270.00,0.0831
1269.00,0.0816
1268.00,0.0795
1267.00,0.0769
1266.00,0.0740
1265.00,0.0708
1264.00,0.0675
1263.00,0.0642
1262.00,0.0609
1261.00,0.0578
1260.00,0.0548
1259.00,0.0520
1258.00,0.0494
1257.00,0.0470
1256.00,0.0448
1255.00,0.0429
1254.00,0.0413
1253.00,0.0399
1252.00,0.0388
1251.00,0.0379
1250.00,0.0373
1249.00,0.0370
1248.00,0.0370
1247.00,0.0373
1246.00,0.0379
1245.00,0.0387
1244.00,0.0397
1243.00,0.0407
1242.00,0.0418
1241.00,0.0427
1240.00,0.0436
1239.00,0.0443
1238.00,0.0449
1237.00,0.0455
1236.00,0.0459
1235.00,0.0463
1234.00,0.0466
1233.00,0.0469
1232.00,0.0469
1231.00,0.0469
1230.00,0.0468
1229.00,0.0466
1228.00,0.0463
1227.00,0.0460
1226.00,0.0457
1225.00,0.0455
1224.00,0.0453
1223.00,0.0452
1222.00,0.0451
1221.00,0.0451
1220.00,0.0450
1219.00,0.0448
1218.00,0.0444
1217.00,0.0438
1216.00,0.0430
1215.00,0.0418
1214.00,0.0405
1213.00,0.0390
1212.00,0.0375
1211.00,0.0359
1210.00,0.0345
1209.00,0.0332
1208.00,0.0321
1207.00,0.0312
1206.00,0.0306
1205.00,0.0302
1204.00,0.0301
1203.00,0.0303
1202.00,0.0308
1201.00,0.0315
1200.00,0.0324
1199.00,0.0334
1198.00,0.0346
1197.00,0.0358
1196.00,0.0369
1195.00,0.0377
1194.00,0.0382
1193.00,0.0381
1192.00,0.0375
1191.00,0.0364
1190.00,0.0350
1189.00,0.0335
1188.00,0.0319
1187.00,0.0304
1186.00,0.0292
1185.00,0.0280
1184.00,0.0271
1183.00,0.0263
1182.00,0.0258
1181.00,0.0254
1180.00,0.0251
1179.00,0.0249
1178.00,0.0249
1177.00,0.0250
1176.00,0.0251
1175.00,0.0254
1174.00,0.0258
1173.00,0.0261
1172.00,0.0265
1171.00,0.0268
1170.00,0.0272
1169.00,0.0275
1168.00,0.0276
1167.00,0.0278
1166.00,0.0281
1165.00,0.0285
1164.00,0.0290
1163.00,0.0297
1162.00,0.0307
1161.00,0.0319
1160.00,0.0331
1159.00,0.0343
1158.00,0.0353
1157.00,0.0360
1156.00,0.0361
1155.00,0.0356
1154.00,0.0347
1153.00,0.0335
1152.00,0.0319
1151.00,0.0302
1150.00,0.0285
1149.00,0.0268
1148.00,0.0252
1147.00,0.0237
1146.00,0.0224
1145.00,0.0213
1144.00,0.0203
1143.00,0.0196
1142.00,0.0190
1141.00,0.0186
1140.00,0.0185
1139.00,0.0186
1138.00,0.0191
1137.00,0.0198
1136.00,0.0210
1135.00,0.0227
1134.00,0.0249
1133.00,0.0273
1132.00,0.0297
1131.00,0.0317
1130.00,0.0329
1129.00,0.0332
1128.00,0.0325
1127.00,0.0309
1126.00,0.0288
1125.00,0.0266
1124.00,0.0245
1123.00,0.0228
1122.00,0.0214
1121.00,0.0204
1120.00,0.0196
1119.00,0.0191
1118.00,0.0188
1117.00,0.0186
1116.00,0.0184
1115.00,0.0184
1114.00,0.0185
1113.00,0.0187
1112.00,0.0188
1111.00,0.0190
1110.00,0.0193
1109.00,0.0195
1108.00,0.0198
1107.00,0.0203
1106.00,0.0209
1105.00,0.0216
1104.00,0.0223
1103.00,0.0231
1102.00,0.0239
1101.00,0.0245
1100.00,0.0247
1099.00,0.0246
1098.00,0.0242
1097.00,0.0236
1096.00,0.0228
1095.00,0.0220
1094.00,0.0212
1093.00,0.0205
1092.00,0.0198
1091.00,0.0191
1090.00,0.0186
1089.00,0.0182
1088.00,0.0179
1087.00,0.0177
1086.00,0.0175
1085.00,0.0175
1084.00,0.0175
1083.00,0.0176
1082.00,0.0178
1081.00,0.0181
1080.00,0.0185
1079.00,0.0190
1078.00,0.0196
1077.00,0.0202
1076.00,0.0209
1075.00,0.0216
1074.00,0.0223
1073.00,0.0230
1072.00,0.0238
1071.00,0.0248
1070.00,0.0261
1069.00,0.0276
1068.00,0.0294
1067.00,0.0315
1066.00,0.0338
1065.00,0.0365
1064.00,0.0393
1063.00,0.0423
1062.00,0.0453
1061.00,0.0481
1060.00,0.0505
1059.00,0.0524
1058.00,0.0534
1057.00,0.0534
1056.00,0.0524
1055.00,0.0504
1054.00,0.0478
1053.00,0.0446
1052.00,0.0412
1051.00,0.0380
1050.00,0.0351
1049.00,0.0327
1048.00,0.0308
1047.00,0.0294
1046.00,0.0285
1045.00,0.0280
1044.00,0.0277
1043.00,0.0276
1042.00,0.0277
1041.00,0.0279
1040.00,0.0281
1039.00,0.0284
1038.00,0.0287
1037.00,0.0291
1036.00,0.0294
1035.00,0.0298
1034.00,0.0303
1033.00,0.0308
1032.00,0.0313
1031.00,0.0316
1030.00,0.0316
1029.00,0.0312
1028.00,0.0304
1027.00,0.0294
1026.00,0.0284
1025.00,0.0275
1024.00,0.0268
1023.00,0.0263
1022.00,0.0260
1021.00,0.0259
1020.00,0.0258
1019.00,0.0257
1018.00,0.0256
1017.00,0.0254
1016.00,0.0250
1015.00,0.0244
1014.00,0.0237
1013.00,0.0228
1012.00,0.0220
1011.00,0.0213
1010.00,0.0209
1009.00,0.0208
1008.00,0.0209
1007.00,0.0214
1006.00,0.0221
1005.00,0.0229
1004.00,0.0236
1003.00,0.0241
1002.00,0.0243
1001.00,0.0241
1000.00,0.0237
999.00,0.0231
998.00,0.0225
997.00,0.0218
996.00,0.0212
995.00,0.0206
994.00,0.0200
993.00,0.0195
992.00,0.0189
991.00,0.0184
990.00,0.0179
989.00,0.0174
988.00,0.0169
987.00,0.0164
986.00,0.0159
985.00,0.0155
984.00,0.0151
983.00,0.0149
982.00,0.0148
981.00,0.0148
980.00,0.0147
979.00,0.0147
978.00,0.0147
977.00,0.0147
976.00,0.0147
975.00,0.0146
974.00,0.0146
973.00,0.0144
972.00,0.0142
971.00,0.0139
970.00,0.0137
969.00,0.0135
968.00,0.0132
967.00,0.0131
966.00,0.0129
965.00,0.0128
964.00,0.0126
963.00,0.0124
962.00,0.0123
961.00,0.0122
960.00,0.0120
959.00,0.0118
958.00,0.0117
957.00,0.0116
956.00,0.0114
955.00,0.0112
954.00,0.0111
953.00,0.0110
952.00,0.0109
951.00,0.0108
950.00,0.0109
949.00,0.0110
948.00,0.0111
947.00,0.0111
946.00,0.0113
945.00,0.0114
944.00,0.0116
943.00,0.0119
942.00,0.0124
941.00,0.0129
940.00,0.0135
939.00,0.0142
938.00,0.0151
937.00,0.0160
936.00,0.0169
935.00,0.0177
934.00,0.0183
933.00,0.0187
932.00,0.0188
931.00,0.0186
930.00,0.0184
929.00,0.0181
928.00,0.0179
927.00,0.0178
926.00,0.0177
925.00,0.0177
924.00,0.0175
923.00,0.0172
922.00,0.0169
921.00,0.0166
920.00,0.0163
919.00,0.0160
918.00,0.0157
917.00,0.0154
916.00,0.0149
915.00,0.0145
914.00,0.0142
913.00,0.0139
912.00,0.0137
911.00,0.0136
910.00,0.0137
909.00,0.0139
908.00,0.0140
907.00,0.0143
906.00,0.0148
905.00,0.0153
904.00,0.0159
903.00,0.0167
902.00,0.0175
901.00,0.0183
900.00,0.0189
899.00,0.0195
898.00,0.0200
897.00,0.0202
896.00,0.0202
895.00,0.0200
894.00,0.0197
893.00,0.0192
892.00,0.0186
891.00,0.0180
890.00,0.0176
889.00,0.0172
888.00,0.0169
887.00,0.0167
886.00,0.0168
885.00,0.0169
884.00,0.0171
883.00,0.0173
882.00,0.0177
881.00,0.0182
880.00,0.0188
879.00,0.0195
878.00,0.0204
877.00,0.0212
876.00,0.0221
875.00,0.0229
874.00,0.0239
873.00,0.0247
872.00,0.0253
871.00,0.0258
870.00,0.0261
869.00,0.0263
868.00,0.0263
867.00,0.0262
866.00,0.0262
865.00,0.0262
864.00,0.0261
863.00,0.0262
862.00,0.0264
861.00,0.0265
860.00,0.0267
859.00,0.0269
858.00,0.0273
857.00,0.0277
856.00,0.0282
855.00,0.0288
854.00,0.0296
853.00,0.0303
852.00,0.0310
851.00,0.0316
850.00,0.0323
849.00,0.0329
848.00,0.0334
847.00,0.0338
846.00,0.0343
845.00,0.0346
844.00,0.0348
843.00,0.0348
842.00,0.0349
841.00,0.0349
840.00,0.0348
839.00,0.0346
838.00,0.0345
837.00,0.0344
836.00,0.0343
835.00,0.0342
834.00,0.0342
833.00,0.0342
832.00,0.0342
831.00,0.0341
830.00,0.0340
829.00,0.0339
828.00,0.0337
827.00,0.0334
826.00,0.0332
825.00,0.0331
824.00,0.0330
823.00,0.0331
822.00,0.0332
821.00,0.0334
820.00,0.0336
819.00,0.0339
818.00,0.0342
817.00,0.0344
816.00,0.0346
815.00,0.0346
814.00,0.0345
813.00,0.0341
812.00,0.0334
811.00,0.0324
810.00,0.0311
809.00,0.0295
808.00,0.0277
807.00,0.0258
806.00,0.0241
805.00,0.0226
804.00,0.0213
803.00,0.0202
802.00,0.0195
801.00,0.0190
800.00,0.0185
799.00,0.0183
798.00,0.0181
797.00,0.0180
796.00,0.0178
795.00,0.0178
794.00,0.0178
793.00,0.0179
792.00,0.0178
791.00,0.0178
790.00,0.0179
789.00,0.0179
788.00,0.0179
787.00,0.0180
786.00,0.0180
785.00,0.0181
784.00,0.0181
783.00,0.0182
782.00,0.0184
781.00,0.0187
780.00,0.0190
779.00,0.0194
778.00,0.0198
777.00,0.0200
776.00,0.0199
775.00,0.0197
774.00,0.0194
773.00,0.0192
772.00,0.0190
771.00,0.0189
770.00,0.0190
769.00,0.0192
768.00,0.0194
767.00,0.0196
766.00,0.0200
765.00,0.0204
764.00,0.0207
763.00,0.0211
762.00,0.0215
761.00,0.0220
760.00,0.0225
759.00,0.0229
758.00,0.0235
757.00,0.0240
756.00,0.0244
755.00,0.0249
754.00,0.0255
753.00,0.0261
752.00,0.0265
751.00,0.0270
750.00,0.0275
749.00,0.0280
748.00,0.0284
747.00,0.0289
746.00,0.0295
745.00,0.0302
744.00,0.0310
743.00,0.0318
742.00,0.0328
741.00,0.0339
740.00,0.0350
739.00,0.0362
738.00,0.0373
737.00,0.0380
736.00,0.0382
735.00,0.0380
734.00,0.0374
733.00,0.0366
732.00,0.0355
731.00,0.0344
730.00,0.0334
729.00,0.0325
728.00,0.0314
727.00,0.0305
726.00,0.0296
725.00,0.0287
724.00,0.0279
723.00,0.0271
722.00,0.0265
721.00,0.0261
720.00,0.0256
719.00,0.0253
718.00,0.0251
717.00,0.0249
716.00,0.0247
715.00,0.0246
714.00,0.0246
713.00,0.0246
712.00,0.0244
711.00,0.0243
710.00,0.0241
709.00,0.0239
708.00,0.0237
707.00,0.0236
706.00,0.0237
705.00,0.0238
704.00,0.0238
703.00,0.0237
702.00,0.0237
701.00,0.0238
700.00,0.0239
699.00,0.0242
698.00,0.0247
697.00,0.0254
696.00,0.0261
695.00,0.0268
694.00,0.0276
693.00,0.0284
692.00,0.0290
691.00,0.0295
690.00,0.0299
689.00,0.0302
688.00,0.0303
687.00,0.0302
686.00,0.0301
685.00,0.0299
684.00,0.0296
683.00,0.0295
682.00,0.0295
681.00,0.0296
680.00,0.0297
679.00,0.0298
678.00,0.0300
677.00,0.0303
676.00,0.0307
675.00,0.0311
674.00,0.0317
673.00,0.0322
672.00,0.0326
671.00,0.0330
670.00,0.0335
669.00,0.0343
668.00,0.0354
667.00,0.0367
666.00,0.0375
665.00,0.0381
664.00,0.0386
663.00,0.0394
662.00,0.0404
661.00,0.0413
660.00,0.0422
659.00,0.0432
658.00,0.0442
657.00,0.0453
656.00,0.0463
655.00,0.0473
654.00,0.0483
653.00,0.0492
652.00,0.0499
651.00,0.0505
650.00,0.0510
649.00,0.0513
648.00,0.0513
647.00,0.0511
646.00,0.0507
645.00,0.0502
644.00,0.0496
643.00,0.0490
642.00,0.0483
641.00,0.0475
640.00,0.0464
639.00,0.0453
638.00,0.0443
637.00,0.0434
636.00,0.0425
635.00,0.0418
634.00,0.0412
633.00,0.0406
632.00,0.0399
631.00,0.0393
630.00,0.0389
629.00,0.0386
628.00,0.0382
627.00,0.0380
626.00,0.0380
625.00,0.0380
624.00,0.0378
623.00,0.0375
622.00,0.0373
621.00,0.0371
620.00,0.0368
619.00,0.0365
618.00,0.0364
617.00,0.0361
616.00,0.0358
615.00,0.0356
614.00,0.0356
613.00,0.0356
612.00,0.0356
611.00,0.0358
610.00,0.0361
609.00,0.0364
608.00,0.0366
607.00,0.0367
606.00,0.0370
605.00,0.0373
604.00,0.0375
603.00,0.0378
602.00,0.0383
601.00,0.0386
600.00,0.0386
599.00,0.0386
598.00,0.0386
597.00,0.0386
596.00,0.0386
595.00,0.0386
594.00,0.0387
593.00,0.0388
592.00,0.0389
591.00,0.0392
590.00,0.0399
589.00,0.0410
588.00,0.0422
587.00,0.0438
586.00,0.0457
585.00,0.0478
584.00,0.0496
583.00,0.0510
582.00,0.0523
581.00,0.0532
580.00,0.0536
579.00,0.0540
578.00,0.0543
577.00,0.0545
576.00,0.0546
575.00,0.0546
574.00,0.0548
573.00,0.0548
572.00,0.0547
571.00,0.0546
570.00,0.0547
569.00,0.0546
568.00,0.0542
567.00,0.0537
566.00,0.0533
565.00,0.0528
564.00,0.0522
563.00,0.0515
562.00,0.0509
561.00,0.0501
560.00,0.0492
559.00,0.0485
558.00,0.0480
557.00,0.0477
556.00,0.0472
555.00,0.0466
554.00,0.0461
553.00,0.0455
552.00,0.0449
551.00,0.0443
550.00,0.0440
549.00,0.0437
548.00,0.0432
547.00,0.0427
546.00,0.0423
545.00,0.0417
544.00,0.0409
543.00,0.0404
542.00,0.0401
541.00,0.0400
540.00,0.0398
539.00,0.0397
538.00,0.0400
537.00,0.0404
536.00,0.0408
535.00,0.0413
534.00,0.0422
533.00,0.0429
532.00,0.0434
531.00,0.0436
530.00,0.0437
529.00,0.0434
528.00,0.0426
527.00,0.0418
526.00,0.0413
525.00,0.0408
524.00,0.0401
523.00,0.0395
522.00,0.0392
521.00,0.0390
520.00,0.0386
519.00,0.0382
518.00,0.0382
517.00,0.0381
516.00,0.0378
515.00,0.0376
514.00,0.0377
513.00,0.0379
512.00,0.0378
511.00,0.0379
510.00,0.0382
509.00,0.0385
508.00,0.0386
507.00,0.0387
506.00,0.0389
505.00,0.0389
504.00,0.0385
503.00,0.0382
502.00,0.0381
501.00,0.0379
500.00,0.0375
499.00,0.0371
498.00,0.0372
497.00,0.0372
496.00,0.0370
495.00,0.0369
494.00,0.0371
493.00,0.0374
492.00,0.0373
491.00,0.0374
490.00,0.0378
489.00,0.0383
488.00,0.0383
487.00,0.0383
486.00,0.0387
485.00,0.0390
484.00,0.0390
483.00,0.0389
482.00,0.0391
481.00,0.0392
480.00,0.0390
479.00,0.0387
478.00,0.0389
477.00,0.0390
476.00,0.0389
475.00,0.0388
474.00,0.0391
473.00,0.0393
472.00,0.0390
471.00,0.0387
470.00,0.0390
469.00,0.0393
468.00,0.0391
467.00,0.0388
466.00,0.0390
465.00,0.0390
464.00,0.0386
463.00,0.0382
462.00,0.0385
461.00,0.0387
460.00,0.0384
459.00,0.0382
458.00,0.0383
457.00,0.0382
456.00,0.0377
455.00,0.0374
454.00,0.0377
453.00,0.0380
452.00,0.0378
451.00,0.0374
450.00,0.0374
449.00,0.0375
448.00,0.0372
447.00,0.0370
446.00,0.0374
445.00,0.0376
444.00,0.0373
443.00,0.0370
442.00,0.0372
441.00,0.0372
440.00,0.0364
439.00,0.0357
438.00,0.0355
437.00,0.0353
436.00,0.0346
435.00,0.0341
434.00,0.0342
433.00,0.0345
432.00,0.0343
431.00,0.0343
430.00,0.0350
429.00,0.0354
428.00,0.0348
427.00,0.0341
426.00,0.0342
425.00,0.0345
424.00,0.0343
423.00,0.0344
422.00,0.0354
421.00,0.0363
420.00,0.0363
419.00,0.0364
418.00,0.0375
417.00,0.0378
416.00,0.0369
415.00,0.0361
414.00,0.0363
413.00,0.0366
412.00,0.0358
411.00,0.0352
410.00,0.0356
409.00,0.0358
408.00,0.0348
407.00,0.0339
406.00,0.0343
405.00,0.0345
404.00,0.0334
403.00,0.0328
402.00,0.0344
401.00,0.0363
400.00,0.0367
