Created as New Dataset,Sample 1051 By YargerLab Date Monday, August 04 2025
cm-1,A
4000.00,0.0024
3999.00,0.0024
3998.00,0.0024
3997.00,0.0024
3996.00,0.0024
3995.00,0.0024
3994.00,0.0024
3993.00,0.0024
3992.00,0.0024
3991.00,0.0024
3990.00,0.0024
3989.00,0.0024
3988.00,0.0024
3987.00,0.0024
3986.00,0.0024
3985.00,0.0024
3984.00,0.0024
3983.00,0.0024
3982.00,0.0024
3981.00,0.0024
3980.00,0.0024
3979.00,0.0024
3978.00,0.0024
3977.00,0.0024
3976.00,0.0024
3975.00,0.0024
3974.00,0.0024
3973.00,0.0024
3972.00,0.0024
3971.00,0.0024
3970.00,0.0024
3969.00,0.0024
3968.00,0.0024
3967.00,0.0024
3966.00,0.0024
3965.00,0.0024
3964.00,0.0023
3963.00,0.0023
3962.00,0.0023
3961.00,0.0023
3960.00,0.0023
3959.00,0.0023
3958.00,0.0023
3957.00,0.0024
3956.00,0.0024
3955.00,0.0024
3954.00,0.0024
3953.00,0.0024
3952.00,0.0024
3951.00,0.0024
3950.00,0.0023
3949.00,0.0023
3948.00,0.0023
3947.00,0.0023
3946.00,0.0023
3945.00,0.0023
3944.00,0.0023
3943.00,0.0023
3942.00,0.0023
3941.00,0.0023
3940.00,0.0023
3939.00,0.0023
3938.00,0.0023
3937.00,0.0023
3936.00,0.0023
3935.00,0.0023
3934.00,0.0023
3933.00,0.0023
3932.00,0.0023
3931.00,0.0023
3930.00,0.0023
3929.00,0.0023
3928.00,0.0023
3927.00,0.0023
3926.00,0.0023
3925.00,0.0023
3924.00,0.0024
3923.00,0.0024
3922.00,0.0024
3921.00,0.0023
3920.00,0.0023
3919.00,0.0023
3918.00,0.0023
3917.00,0.0023
3916.00,0.0023
3915.00,0.0023
3914.00,0.0023
3913.00,0.0023
3912.00,0.0023
3911.00,0.0024
3910.00,0.0024
3909.00,0.0023
3908.00,0.0023
3907.00,0.0023
3906.00,0.0023
3905.00,0.0023
3904.00,0.0023
3903.00,0.0023
3902.00,0.0023
3901.00,0.0023
3900.00,0.0023
3899.00,0.0023
3898.00,0.0023
3897.00,0.0023
3896.00,0.0023
3895.00,0.0023
3894.00,0.0023
3893.00,0.0023
3892.00,0.0023
3891.00,0.0023
3890.00,0.0023
3889.00,0.0023
3888.00,0.0022
3887.00,0.0022
3886.00,0.0022
3885.00,0.0023
3884.00,0.0023
3883.00,0.0023
3882.00,0.0023
3881.00,0.0023
3880.00,0.0023
3879.00,0.0023
3878.00,0.0023
3877.00,0.0023
3876.00,0.0023
3875.00,0.0023
3874.00,0.0023
3873.00,0.0023
3872.00,0.0023
3871.00,0.0023
3870.00,0.0023
3869.00,0.0023
3868.00,0.0023
3867.00,0.0023
3866.00,0.0023
3865.00,0.0022
3864.00,0.0022
3863.00,0.0022
3862.00,0.0023
3861.00,0.0023
3860.00,0.0023
3859.00,0.0023
3858.00,0.0023
3857.00,0.0023
3856.00,0.0023
3855.00,0.0023
3854.00,0.0023
3853.00,0.0023
3852.00,0.0022
3851.00,0.0022
3850.00,0.0022
3849.00,0.0022
3848.00,0.0023
3847.00,0.0023
3846.00,0.0023
3845.00,0.0023
3844.00,0.0023
3843.00,0.0023
3842.00,0.0023
3841.00,0.0023
3840.00,0.0023
3839.00,0.0022
3838.00,0.0022
3837.00,0.0022
3836.00,0.0022
3835.00,0.0022
3834.00,0.0023
3833.00,0.0023
3832.00,0.0023
3831.00,0.0023
3830.00,0.0023
3829.00,0.0023
3828.00,0.0023
3827.00,0.0023
3826.00,0.0023
3825.00,0.0023
3824.00,0.0023
3823.00,0.0023
3822.00,0.0023
3821.00,0.0023
3820.00,0.0023
3819.00,0.0023
3818.00,0.0022
3817.00,0.0022
3816.00,0.0022
3815.00,0.0022
3814.00,0.0022
3813.00,0.0023
3812.00,0.0023
3811.00,0.0023
3810.00,0.0023
3809.00,0.0023
3808.00,0.0023
3807.00,0.0023
3806.00,0.0023
3805.00,0.0023
3804.00,0.0022
3803.00,0.0022
3802.00,0.0022
3801.00,0.0022
3800.00,0.0022
3799.00,0.0022
3798.00,0.0022
3797.00,0.0022
3796.00,0.0023
3795.00,0.0023
3794.00,0.0023
3793.00,0.0023
3792.00,0.0023
3791.00,0.0023
3790.00,0.0023
3789.00,0.0023
3788.00,0.0023
3787.00,0.0023
3786.00,0.0023
3785.00,0.0023
3784.00,0.0023
3783.00,0.0023
3782.00,0.0023
3781.00,0.0023
3780.00,0.0023
3779.00,0.0023
3778.00,0.0023
3777.00,0.0023
3776.00,0.0023
3775.00,0.0023
3774.00,0.0023
3773.00,0.0023
3772.00,0.0023
3771.00,0.0023
3770.00,0.0023
3769.00,0.0023
3768.00,0.0023
3767.00,0.0023
3766.00,0.0023
3765.00,0.0023
3764.00,0.0023
3763.00,0.0024
3762.00,0.0023
3761.00,0.0023
3760.00,0.0023
3759.00,0.0023
3758.00,0.0023
3757.00,0.0023
3756.00,0.0023
3755.00,0.0023
3754.00,0.0023
3753.00,0.0022
3752.00,0.0022
3751.00,0.0022
3750.00,0.0022
3749.00,0.0022
3748.00,0.0022
3747.00,0.0022
3746.00,0.0022
3745.00,0.0022
3744.00,0.0022
3743.00,0.0022
3742.00,0.0022
3741.00,0.0022
3740.00,0.0022
3739.00,0.0022
3738.00,0.0021
3737.00,0.0021
3736.00,0.0021
3735.00,0.0021
3734.00,0.0021
3733.00,0.0021
3732.00,0.0021
3731.00,0.0021
3730.00,0.0021
3729.00,0.0021
3728.00,0.0022
3727.00,0.0022
3726.00,0.0022
3725.00,0.0022
3724.00,0.0022
3723.00,0.0022
3722.00,0.0022
3721.00,0.0022
3720.00,0.0022
3719.00,0.0022
3718.00,0.0022
3717.00,0.0022
3716.00,0.0022
3715.00,0.0022
3714.00,0.0022
3713.00,0.0022
3712.00,0.0022
3711.00,0.0022
3710.00,0.0022
3709.00,0.0021
3708.00,0.0021
3707.00,0.0021
3706.00,0.0021
3705.00,0.0021
3704.00,0.0021
3703.00,0.0021
3702.00,0.0021
3701.00,0.0021
3700.00,0.0022
3699.00,0.0022
3698.00,0.0022
3697.00,0.0022
3696.00,0.0022
3695.00,0.0022
3694.00,0.0022
3693.00,0.0022
3692.00,0.0022
3691.00,0.0022
3690.00,0.0022
3689.00,0.0022
3688.00,0.0022
3687.00,0.0022
3686.00,0.0021
3685.00,0.0021
3684.00,0.0021
3683.00,0.0022
3682.00,0.0022
3681.00,0.0022
3680.00,0.0023
3679.00,0.0023
3678.00,0.0022
3677.00,0.0022
3676.00,0.0022
3675.00,0.0022
3674.00,0.0022
3673.00,0.0022
3672.00,0.0022
3671.00,0.0022
3670.00,0.0022
3669.00,0.0022
3668.00,0.0022
3667.00,0.0022
3666.00,0.0022
3665.00,0.0023
3664.00,0.0023
3663.00,0.0024
3662.00,0.0024
3661.00,0.0024
3660.00,0.0024
3659.00,0.0023
3658.00,0.0023
3657.00,0.0023
3656.00,0.0023
3655.00,0.0023
3654.00,0.0023
3653.00,0.0023
3652.00,0.0023
3651.00,0.0023
3650.00,0.0024
3649.00,0.0023
3648.00,0.0023
3647.00,0.0023
3646.00,0.0023
3645.00,0.0023
3644.00,0.0024
3643.00,0.0024
3642.00,0.0025
3641.00,0.0025
3640.00,0.0025
3639.00,0.0025
3638.00,0.0025
3637.00,0.0025
3636.00,0.0025
3635.00,0.0026
3634.00,0.0026
3633.00,0.0026
3632.00,0.0026
3631.00,0.0026
3630.00,0.0026
3629.00,0.0026
3628.00,0.0026
3627.00,0.0026
3626.00,0.0026
3625.00,0.0026
3624.00,0.0026
3623.00,0.0027
3622.00,0.0027
3621.00,0.0027
3620.00,0.0027
3619.00,0.0028
3618.00,0.0028
3617.00,0.0028
3616.00,0.0028
3615.00,0.0028
3614.00,0.0028
3613.00,0.0028
3612.00,0.0028
3611.00,0.0029
3610.00,0.0029
3609.00,0.0029
3608.00,0.0030
3607.00,0.0030
3606.00,0.0030
3605.00,0.0030
3604.00,0.0030
3603.00,0.0031
3602.00,0.0031
3601.00,0.0031
3600.00,0.0031
3599.00,0.0031
3598.00,0.0031
3597.00,0.0031
3596.00,0.0031
3595.00,0.0031
3594.00,0.0032
3593.00,0.0033
3592.00,0.0033
3591.00,0.0033
3590.00,0.0034
3589.00,0.0034
3588.00,0.0033
3587.00,0.0033
3586.00,0.0033
3585.00,0.0034
3584.00,0.0034
3583.00,0.0034
3582.00,0.0034
3581.00,0.0035
3580.00,0.0035
3579.00,0.0036
3578.00,0.0036
3577.00,0.0036
3576.00,0.0036
3575.00,0.0037
3574.00,0.0037
3573.00,0.0038
3572.00,0.0038
3571.00,0.0038
3570.00,0.0038
3569.00,0.0038
3568.00,0.0038
3567.00,0.0038
3566.00,0.0038
3565.00,0.0039
3564.00,0.0040
3563.00,0.0040
3562.00,0.0041
3561.00,0.0041
3560.00,0.0042
3559.00,0.0042
3558.00,0.0043
3557.00,0.0043
3556.00,0.0043
3555.00,0.0043
3554.00,0.0043
3553.00,0.0043
3552.00,0.0044
3551.00,0.0044
3550.00,0.0045
3549.00,0.0045
3548.00,0.0046
3547.00,0.0046
3546.00,0.0046
3545.00,0.0047
3544.00,0.0047
3543.00,0.0048
3542.00,0.0048
3541.00,0.0048
3540.00,0.0049
3539.00,0.0049
3538.00,0.0049
3537.00,0.0050
3536.00,0.0050
3535.00,0.0051
3534.00,0.0051
3533.00,0.0051
3532.00,0.0052
3531.00,0.0052
3530.00,0.0052
3529.00,0.0052
3528.00,0.0053
3527.00,0.0053
3526.00,0.0054
3525.00,0.0054
3524.00,0.0054
3523.00,0.0055
3522.00,0.0055
3521.00,0.0056
3520.00,0.0056
3519.00,0.0057
3518.00,0.0057
3517.00,0.0057
3516.00,0.0058
3515.00,0.0058
3514.00,0.0058
3513.00,0.0058
3512.00,0.0058
3511.00,0.0059
3510.00,0.0059
3509.00,0.0060
3508.00,0.0060
3507.00,0.0061
3506.00,0.0061
3505.00,0.0062
3504.00,0.0062
3503.00,0.0063
3502.00,0.0063
3501.00,0.0063
3500.00,0.0064
3499.00,0.0064
3498.00,0.0065
3497.00,0.0065
3496.00,0.0066
3495.00,0.0067
3494.00,0.0067
3493.00,0.0068
3492.00,0.0068
3491.00,0.0068
3490.00,0.0069
3489.00,0.0069
3488.00,0.0070
3487.00,0.0071
3486.00,0.0071
3485.00,0.0072
3484.00,0.0073
3483.00,0.0073
3482.00,0.0074
3481.00,0.0075
3480.00,0.0075
3479.00,0.0076
3478.00,0.0076
3477.00,0.0077
3476.00,0.0078
3475.00,0.0079
3474.00,0.0080
3473.00,0.0081
3472.00,0.0082
3471.00,0.0082
3470.00,0.0083
3469.00,0.0084
3468.00,0.0085
3467.00,0.0085
3466.00,0.0086
3465.00,0.0087
3464.00,0.0088
3463.00,0.0089
3462.00,0.0090
3461.00,0.0091
3460.00,0.0092
3459.00,0.0093
3458.00,0.0093
3457.00,0.0094
3456.00,0.0095
3455.00,0.0096
3454.00,0.0097
3453.00,0.0098
3452.00,0.0099
3451.00,0.0100
3450.00,0.0101
3449.00,0.0102
3448.00,0.0103
3447.00,0.0104
3446.00,0.0105
3445.00,0.0106
3444.00,0.0107
3443.00,0.0108
3442.00,0.0109
3441.00,0.0110
3440.00,0.0112
3439.00,0.0113
3438.00,0.0114
3437.00,0.0116
3436.00,0.0117
3435.00,0.0118
3434.00,0.0120
3433.00,0.0121
3432.00,0.0122
3431.00,0.0124
3430.00,0.0125
3429.00,0.0127
3428.00,0.0128
3427.00,0.0130
3426.00,0.0131
3425.00,0.0133
3424.00,0.0135
3423.00,0.0136
3422.00,0.0138
3421.00,0.0140
3420.00,0.0141
3419.00,0.0143
3418.00,0.0144
3417.00,0.0146
3416.00,0.0147
3415.00,0.0148
3414.00,0.0150
3413.00,0.0151
3412.00,0.0152
3411.00,0.0154
3410.00,0.0155
3409.00,0.0156
3408.00,0.0157
3407.00,0.0158
3406.00,0.0159
3405.00,0.0160
3404.00,0.0160
3403.00,0.0161
3402.00,0.0161
3401.00,0.0161
3400.00,0.0161
3399.00,0.0161
3398.00,0.0161
3397.00,0.0161
3396.00,0.0161
3395.00,0.0160
3394.00,0.0160
3393.00,0.0160
3392.00,0.0159
3391.00,0.0159
3390.00,0.0158
3389.00,0.0157
3388.00,0.0156
3387.00,0.0155
3386.00,0.0154
3385.00,0.0153
3384.00,0.0152
3383.00,0.0151
3382.00,0.0150
3381.00,0.0149
3380.00,0.0148
3379.00,0.0147
3378.00,0.0146
3377.00,0.0145
3376.00,0.0144
3375.00,0.0143
3374.00,0.0142
3373.00,0.0140
3372.00,0.0140
3371.00,0.0139
3370.00,0.0138
3369.00,0.0137
3368.00,0.0136
3367.00,0.0135
3366.00,0.0134
3365.00,0.0133
3364.00,0.0133
3363.00,0.0132
3362.00,0.0131
3361.00,0.0130
3360.00,0.0129
3359.00,0.0128
3358.00,0.0128
3357.00,0.0127
3356.00,0.0127
3355.00,0.0127
3354.00,0.0126
3353.00,0.0125
3352.00,0.0125
3351.00,0.0124
3350.00,0.0123
3349.00,0.0123
3348.00,0.0123
3347.00,0.0123
3346.00,0.0122
3345.00,0.0122
3344.00,0.0121
3343.00,0.0121
3342.00,0.0120
3341.00,0.0120
3340.00,0.0120
3339.00,0.0120
3338.00,0.0120
3337.00,0.0120
3336.00,0.0120
3335.00,0.0119
3334.00,0.0119
3333.00,0.0119
3332.00,0.0119
3331.00,0.0119
3330.00,0.0119
3329.00,0.0119
3328.00,0.0119
3327.00,0.0119
3326.00,0.0119
3325.00,0.0119
3324.00,0.0120
3323.00,0.0120
3322.00,0.0120
3321.00,0.0120
3320.00,0.0120
3319.00,0.0120
3318.00,0.0120
3317.00,0.0120
3316.00,0.0121
3315.00,0.0121
3314.00,0.0121
3313.00,0.0122
3312.00,0.0122
3311.00,0.0122
3310.00,0.0122
3309.00,0.0122
3308.00,0.0122
3307.00,0.0123
3306.00,0.0123
3305.00,0.0124
3304.00,0.0125
3303.00,0.0126
3302.00,0.0126
3301.00,0.0127
3300.00,0.0128
3299.00,0.0128
3298.00,0.0128
3297.00,0.0128
3296.00,0.0129
3295.00,0.0129
3294.00,0.0130
3293.00,0.0130
3292.00,0.0131
3291.00,0.0132
3290.00,0.0133
3289.00,0.0133
3288.00,0.0134
3287.00,0.0134
3286.00,0.0135
3285.00,0.0135
3284.00,0.0136
3283.00,0.0136
3282.00,0.0137
3281.00,0.0137
3280.00,0.0138
3279.00,0.0139
3278.00,0.0140
3277.00,0.0140
3276.00,0.0141
3275.00,0.0141
3274.00,0.0141
3273.00,0.0142
3272.00,0.0142
3271.00,0.0143
3270.00,0.0143
3269.00,0.0144
3268.00,0.0145
3267.00,0.0145
3266.00,0.0146
3265.00,0.0146
3264.00,0.0147
3263.00,0.0147
3262.00,0.0148
3261.00,0.0148
3260.00,0.0149
3259.00,0.0150
3258.00,0.0150
3257.00,0.0151
3256.00,0.0151
3255.00,0.0152
3254.00,0.0153
3253.00,0.0153
3252.00,0.0154
3251.00,0.0154
3250.00,0.0155
3249.00,0.0155
3248.00,0.0155
3247.00,0.0156
3246.00,0.0156
3245.00,0.0157
3244.00,0.0157
3243.00,0.0157
3242.00,0.0158
3241.00,0.0158
3240.00,0.0158
3239.00,0.0158
3238.00,0.0158
3237.00,0.0158
3236.00,0.0158
3235.00,0.0158
3234.00,0.0157
3233.00,0.0158
3232.00,0.0158
3231.00,0.0158
3230.00,0.0158
3229.00,0.0158
3228.00,0.0158
3227.00,0.0158
3226.00,0.0157
3225.00,0.0157
3224.00,0.0157
3223.00,0.0156
3222.00,0.0156
3221.00,0.0156
3220.00,0.0155
3219.00,0.0155
3218.00,0.0154
3217.00,0.0154
3216.00,0.0153
3215.00,0.0153
3214.00,0.0152
3213.00,0.0152
3212.00,0.0151
3211.00,0.0151
3210.00,0.0150
3209.00,0.0149
3208.00,0.0148
3207.00,0.0147
3206.00,0.0146
3205.00,0.0145
3204.00,0.0144
3203.00,0.0143
3202.00,0.0142
3201.00,0.0141
3200.00,0.0140
3199.00,0.0140
3198.00,0.0139
3197.00,0.0138
3196.00,0.0137
3195.00,0.0136
3194.00,0.0135
3193.00,0.0134
3192.00,0.0133
3191.00,0.0132
3190.00,0.0131
3189.00,0.0130
3188.00,0.0129
3187.00,0.0128
3186.00,0.0127
3185.00,0.0126
3184.00,0.0125
3183.00,0.0125
3182.00,0.0124
3181.00,0.0122
3180.00,0.0121
3179.00,0.0120
3178.00,0.0119
3177.00,0.0118
3176.00,0.0118
3175.00,0.0117
3174.00,0.0116
3173.00,0.0115
3172.00,0.0114
3171.00,0.0113
3170.00,0.0112
3169.00,0.0111
3168.00,0.0110
3167.00,0.0109
3166.00,0.0108
3165.00,0.0106
3164.00,0.0105
3163.00,0.0104
3162.00,0.0103
3161.00,0.0102
3160.00,0.0101
3159.00,0.0100
3158.00,0.0099
3157.00,0.0098
3156.00,0.0097
3155.00,0.0096
3154.00,0.0094
3153.00,0.0093
3152.00,0.0092
3151.00,0.0091
3150.00,0.0091
3149.00,0.0090
3148.00,0.0090
3147.00,0.0089
3146.00,0.0088
3145.00,0.0087
3144.00,0.0086
3143.00,0.0085
3142.00,0.0084
3141.00,0.0083
3140.00,0.0082
3139.00,0.0082
3138.00,0.0081
3137.00,0.0081
3136.00,0.0080
3135.00,0.0079
3134.00,0.0079
3133.00,0.0078
3132.00,0.0077
3131.00,0.0076
3130.00,0.0076
3129.00,0.0075
3128.00,0.0074
3127.00,0.0074
3126.00,0.0073
3125.00,0.0073
3124.00,0.0072
3123.00,0.0072
3122.00,0.0071
3121.00,0.0071
3120.00,0.0071
3119.00,0.0070
3118.00,0.0070
3117.00,0.0069
3116.00,0.0068
3115.00,0.0068
3114.00,0.0067
3113.00,0.0066
3112.00,0.0066
3111.00,0.0065
3110.00,0.0065
3109.00,0.0064
3108.00,0.0063
3107.00,0.0063
3106.00,0.0062
3105.00,0.0062
3104.00,0.0061
3103.00,0.0060
3102.00,0.0060
3101.00,0.0059
3100.00,0.0059
3099.00,0.0059
3098.00,0.0059
3097.00,0.0059
3096.00,0.0058
3095.00,0.0058
3094.00,0.0058
3093.00,0.0058
3092.00,0.0058
3091.00,0.0059
3090.00,0.0059
3089.00,0.0059
3088.00,0.0059
3087.00,0.0059
3086.00,0.0059
3085.00,0.0059
3084.00,0.0059
3083.00,0.0059
3082.00,0.0059
3081.00,0.0058
3080.00,0.0058
3079.00,0.0058
3078.00,0.0058
3077.00,0.0058
3076.00,0.0058
3075.00,0.0057
3074.00,0.0057
3073.00,0.0056
3072.00,0.0056
3071.00,0.0056
3070.00,0.0056
3069.00,0.0056
3068.00,0.0056
3067.00,0.0056
3066.00,0.0056
3065.00,0.0056
3064.00,0.0056
3063.00,0.0056
3062.00,0.0056
3061.00,0.0056
3060.00,0.0056
3059.00,0.0056
3058.00,0.0057
3057.00,0.0057
3056.00,0.0057
3055.00,0.0057
3054.00,0.0058
3053.00,0.0058
3052.00,0.0057
3051.00,0.0057
3050.00,0.0057
3049.00,0.0056
3048.00,0.0056
3047.00,0.0056
3046.00,0.0056
3045.00,0.0056
3044.00,0.0056
3043.00,0.0056
3042.00,0.0056
3041.00,0.0057
3040.00,0.0057
3039.00,0.0058
3038.00,0.0058
3037.00,0.0059
3036.00,0.0060
3035.00,0.0060
3034.00,0.0061
3033.00,0.0061
3032.00,0.0061
3031.00,0.0061
3030.00,0.0061
3029.00,0.0060
3028.00,0.0060
3027.00,0.0059
3026.00,0.0058
3025.00,0.0057
3024.00,0.0056
3023.00,0.0056
3022.00,0.0055
3021.00,0.0054
3020.00,0.0054
3019.00,0.0053
3018.00,0.0053
3017.00,0.0052
3016.00,0.0052
3015.00,0.0052
3014.00,0.0052
3013.00,0.0053
3012.00,0.0053
3011.00,0.0053
3010.00,0.0054
3009.00,0.0054
3008.00,0.0055
3007.00,0.0056
3006.00,0.0057
3005.00,0.0058
3004.00,0.0060
3003.00,0.0062
3002.00,0.0063
3001.00,0.0065
3000.00,0.0068
2999.00,0.0070
2998.00,0.0073
2997.00,0.0076
2996.00,0.0080
2995.00,0.0083
2994.00,0.0086
2993.00,0.0088
2992.00,0.0091
2991.00,0.0093
2990.00,0.0094
2989.00,0.0096
2988.00,0.0098
2987.00,0.0100
2986.00,0.0103
2985.00,0.0106
2984.00,0.0110
2983.00,0.0115
2982.00,0.0121
2981.00,0.0127
2980.00,0.0132
2979.00,0.0137
2978.00,0.0139
2977.00,0.0141
2976.00,0.0143
2975.00,0.0146
2974.00,0.0151
2973.00,0.0158
2972.00,0.0165
2971.00,0.0172
2970.00,0.0178
2969.00,0.0182
2968.00,0.0185
2967.00,0.0188
2966.00,0.0191
2965.00,0.0194
2964.00,0.0199
2963.00,0.0203
2962.00,0.0207
2961.00,0.0210
2960.00,0.0211
2959.00,0.0210
2958.00,0.0208
2957.00,0.0203
2956.00,0.0197
2955.00,0.0190
2954.00,0.0184
2953.00,0.0177
2952.00,0.0172
2951.00,0.0167
2950.00,0.0164
2949.00,0.0162
2948.00,0.0162
2947.00,0.0162
2946.00,0.0164
2945.00,0.0167
2944.00,0.0171
2943.00,0.0176
2942.00,0.0181
2941.00,0.0187
2940.00,0.0194
2939.00,0.0201
2938.00,0.0210
2937.00,0.0221
2936.00,0.0232
2935.00,0.0245
2934.00,0.0259
2933.00,0.0273
2932.00,0.0287
2931.00,0.0300
2930.00,0.0312
2929.00,0.0323
2928.00,0.0331
2927.00,0.0335
2926.00,0.0337
2925.00,0.0335
2924.00,0.0331
2923.00,0.0325
2922.00,0.0317
2921.00,0.0309
2920.00,0.0299
2919.00,0.0289
2918.00,0.0279
2917.00,0.0269
2916.00,0.0259
2915.00,0.0249
2914.00,0.0240
2913.00,0.0232
2912.00,0.0224
2911.00,0.0217
2910.00,0.0211
2909.00,0.0205
2908.00,0.0199
2907.00,0.0194
2906.00,0.0189
2905.00,0.0184
2904.00,0.0179
2903.00,0.0175
2902.00,0.0171
2901.00,0.0167
2900.00,0.0163
2899.00,0.0160
2898.00,0.0156
2897.00,0.0153
2896.00,0.0150
2895.00,0.0148
2894.00,0.0145
2893.00,0.0143
2892.00,0.0141
2891.00,0.0138
2890.00,0.0136
2889.00,0.0134
2888.00,0.0133
2887.00,0.0131
2886.00,0.0129
2885.00,0.0128
2884.00,0.0127
2883.00,0.0127
2882.00,0.0128
2881.00,0.0129
2880.00,0.0131
2879.00,0.0134
2878.00,0.0137
2877.00,0.0142
2876.00,0.0147
2875.00,0.0152
2874.00,0.0156
2873.00,0.0159
2872.00,0.0160
2871.00,0.0161
2870.00,0.0160
2869.00,0.0159
2868.00,0.0158
2867.00,0.0159
2866.00,0.0160
2865.00,0.0164
2864.00,0.0169
2863.00,0.0177
2862.00,0.0186
2861.00,0.0198
2860.00,0.0209
2859.00,0.0220
2858.00,0.0230
2857.00,0.0237
2856.00,0.0241
2855.00,0.0243
2854.00,0.0243
2853.00,0.0241
2852.00,0.0236
2851.00,0.0230
2850.00,0.0220
2849.00,0.0209
2848.00,0.0196
2847.00,0.0183
2846.00,0.0170
2845.00,0.0158
2844.00,0.0147
2843.00,0.0138
2842.00,0.0129
2841.00,0.0121
2840.00,0.0115
2839.00,0.0109
2838.00,0.0104
2837.00,0.0100
2836.00,0.0096
2835.00,0.0093
2834.00,0.0090
2833.00,0.0087
2832.00,0.0085
2831.00,0.0083
2830.00,0.0081
2829.00,0.0079
2828.00,0.0077
2827.00,0.0075
2826.00,0.0073
2825.00,0.0071
2824.00,0.0070
2823.00,0.0069
2822.00,0.0068
2821.00,0.0067
2820.00,0.0066
2819.00,0.0065
2818.00,0.0064
2817.00,0.0063
2816.00,0.0063
2815.00,0.0062
2814.00,0.0061
2813.00,0.0060
2812.00,0.0060
2811.00,0.0059
2810.00,0.0058
2809.00,0.0058
2808.00,0.0058
2807.00,0.0058
2806.00,0.0057
2805.00,0.0057
2804.00,0.0057
2803.00,0.0056
2802.00,0.0056
2801.00,0.0055
2800.00,0.0055
2799.00,0.0054
2798.00,0.0053
2797.00,0.0053
2796.00,0.0053
2795.00,0.0052
2794.00,0.0051
2793.00,0.0051
2792.00,0.0050
2791.00,0.0050
2790.00,0.0050
2789.00,0.0049
2788.00,0.0049
2787.00,0.0049
2786.00,0.0049
2785.00,0.0048
2784.00,0.0048
2783.00,0.0048
2782.00,0.0047
2781.00,0.0047
2780.00,0.0047
2779.00,0.0047
2778.00,0.0047
2777.00,0.0046
2776.00,0.0046
2775.00,0.0046
2774.00,0.0045
2773.00,0.0045
2772.00,0.0045
2771.00,0.0045
2770.00,0.0045
2769.00,0.0045
2768.00,0.0045
2767.00,0.0045
2766.00,0.0045
2765.00,0.0045
2764.00,0.0044
2763.00,0.0044
2762.00,0.0045
2761.00,0.0045
2760.00,0.0045
2759.00,0.0045
2758.00,0.0045
2757.00,0.0045
2756.00,0.0045
2755.00,0.0045
2754.00,0.0045
2753.00,0.0045
2752.00,0.0044
2751.00,0.0044
2750.00,0.0044
2749.00,0.0044
2748.00,0.0044
2747.00,0.0045
2746.00,0.0045
2745.00,0.0045
2744.00,0.0046
2743.00,0.0046
2742.00,0.0046
2741.00,0.0046
2740.00,0.0046
2739.00,0.0047
2738.00,0.0047
2737.00,0.0047
2736.00,0.0048
2735.00,0.0048
2734.00,0.0049
2733.00,0.0049
2732.00,0.0050
2731.00,0.0050
2730.00,0.0050
2729.00,0.0050
2728.00,0.0050
2727.00,0.0050
2726.00,0.0049
2725.00,0.0049
2724.00,0.0048
2723.00,0.0048
2722.00,0.0048
2721.00,0.0047
2720.00,0.0048
2719.00,0.0047
2718.00,0.0047
2717.00,0.0047
2716.00,0.0047
2715.00,0.0047
2714.00,0.0046
2713.00,0.0046
2712.00,0.0046
2711.00,0.0046
2710.00,0.0046
2709.00,0.0046
2708.00,0.0046
2707.00,0.0046
2706.00,0.0046
2705.00,0.0046
2704.00,0.0045
2703.00,0.0045
2702.00,0.0045
2701.00,0.0045
2700.00,0.0045
2699.00,0.0045
2698.00,0.0044
2697.00,0.0044
2696.00,0.0044
2695.00,0.0044
2694.00,0.0044
2693.00,0.0043
2692.00,0.0043
2691.00,0.0043
2690.00,0.0043
2689.00,0.0043
2688.00,0.0043
2687.00,0.0043
2686.00,0.0042
2685.00,0.0042
2684.00,0.0042
2683.00,0.0042
2682.00,0.0042
2681.00,0.0042
2680.00,0.0042
2679.00,0.0042
2678.00,0.0042
2677.00,0.0042
2676.00,0.0042
2675.00,0.0042
2674.00,0.0042
2673.00,0.0042
2672.00,0.0042
2671.00,0.0043
2670.00,0.0043
2669.00,0.0043
2668.00,0.0043
2667.00,0.0043
2666.00,0.0044
2665.00,0.0044
2664.00,0.0045
2663.00,0.0045
2662.00,0.0045
2661.00,0.0046
2660.00,0.0046
2659.00,0.0047
2658.00,0.0047
2657.00,0.0047
2656.00,0.0047
2655.00,0.0047
2654.00,0.0047
2653.00,0.0047
2652.00,0.0048
2651.00,0.0048
2650.00,0.0048
2649.00,0.0048
2648.00,0.0047
2647.00,0.0047
2646.00,0.0047
2645.00,0.0047
2644.00,0.0047
2643.00,0.0048
2642.00,0.0047
2641.00,0.0047
2640.00,0.0047
2639.00,0.0047
2638.00,0.0046
2637.00,0.0046
2636.00,0.0046
2635.00,0.0045
2634.00,0.0045
2633.00,0.0045
2632.00,0.0045
2631.00,0.0045
2630.00,0.0045
2629.00,0.0044
2628.00,0.0044
2627.00,0.0043
2626.00,0.0043
2625.00,0.0043
2624.00,0.0042
2623.00,0.0042
2622.00,0.0042
2621.00,0.0042
2620.00,0.0042
2619.00,0.0042
2618.00,0.0042
2617.00,0.0042
2616.00,0.0042
2615.00,0.0041
2614.00,0.0041
2613.00,0.0041
2612.00,0.0041
2611.00,0.0042
2610.00,0.0042
2609.00,0.0042
2608.00,0.0041
2607.00,0.0041
2606.00,0.0041
2605.00,0.0041
2604.00,0.0042
2603.00,0.0042
2602.00,0.0042
2601.00,0.0042
2600.00,0.0043
2599.00,0.0043
2598.00,0.0043
2597.00,0.0043
2596.00,0.0043
2595.00,0.0043
2594.00,0.0043
2593.00,0.0043
2592.00,0.0043
2591.00,0.0043
2590.00,0.0043
2589.00,0.0043
2588.00,0.0043
2587.00,0.0043
2586.00,0.0043
2585.00,0.0043
2584.00,0.0042
2583.00,0.0042
2582.00,0.0042
2581.00,0.0042
2580.00,0.0042
2579.00,0.0042
2578.00,0.0042
2577.00,0.0042
2576.00,0.0042
2575.00,0.0042
2574.00,0.0041
2573.00,0.0041
2572.00,0.0041
2571.00,0.0041
2570.00,0.0041
2569.00,0.0041
2568.00,0.0041
2567.00,0.0042
2566.00,0.0041
2565.00,0.0041
2564.00,0.0041
2563.00,0.0040
2562.00,0.0040
2561.00,0.0040
2560.00,0.0040
2559.00,0.0039
2558.00,0.0039
2557.00,0.0039
2556.00,0.0039
2555.00,0.0038
2554.00,0.0038
2553.00,0.0038
2552.00,0.0038
2551.00,0.0037
2550.00,0.0038
2549.00,0.0038
2548.00,0.0038
2547.00,0.0038
2546.00,0.0038
2545.00,0.0038
2544.00,0.0038
2543.00,0.0038
2542.00,0.0038
2541.00,0.0038
2540.00,0.0038
2539.00,0.0038
2538.00,0.0038
2537.00,0.0038
2536.00,0.0038
2535.00,0.0038
2534.00,0.0037
2533.00,0.0038
2532.00,0.0038
2531.00,0.0038
2530.00,0.0038
2529.00,0.0037
2528.00,0.0037
2527.00,0.0037
2526.00,0.0036
2525.00,0.0036
2524.00,0.0036
2523.00,0.0036
2522.00,0.0036
2521.00,0.0035
2520.00,0.0035
2519.00,0.0035
2518.00,0.0035
2517.00,0.0035
2516.00,0.0035
2515.00,0.0035
2514.00,0.0035
2513.00,0.0035
2512.00,0.0035
2511.00,0.0034
2510.00,0.0034
2509.00,0.0034
2508.00,0.0034
2507.00,0.0034
2506.00,0.0034
2505.00,0.0034
2504.00,0.0034
2503.00,0.0034
2502.00,0.0034
2501.00,0.0033
2500.00,0.0033
2499.00,0.0033
2498.00,0.0033
2497.00,0.0033
2496.00,0.0033
2495.00,0.0033
2494.00,0.0033
2493.00,0.0033
2492.00,0.0033
2491.00,0.0033
2490.00,0.0033
2489.00,0.0033
2488.00,0.0033
2487.00,0.0033
2486.00,0.0033
2485.00,0.0033
2484.00,0.0032
2483.00,0.0032
2482.00,0.0032
2481.00,0.0032
2480.00,0.0032
2479.00,0.0032
2478.00,0.0032
2477.00,0.0032
2476.00,0.0032
2475.00,0.0032
2474.00,0.0032
2473.00,0.0032
2472.00,0.0032
2471.00,0.0032
2470.00,0.0032
2469.00,0.0032
2468.00,0.0032
2467.00,0.0032
2466.00,0.0031
2465.00,0.0031
2464.00,0.0031
2463.00,0.0032
2462.00,0.0032
2461.00,0.0032
2460.00,0.0032
2459.00,0.0032
2458.00,0.0032
2457.00,0.0033
2456.00,0.0033
2455.00,0.0033
2454.00,0.0033
2453.00,0.0033
2452.00,0.0032
2451.00,0.0032
2450.00,0.0032
2449.00,0.0032
2448.00,0.0032
2447.00,0.0032
2446.00,0.0031
2445.00,0.0031
2444.00,0.0031
2443.00,0.0031
2442.00,0.0032
2441.00,0.0032
2440.00,0.0032
2439.00,0.0031
2438.00,0.0031
2437.00,0.0031
2436.00,0.0030
2435.00,0.0030
2434.00,0.0030
2433.00,0.0030
2432.00,0.0030
2431.00,0.0030
2430.00,0.0030
2429.00,0.0030
2428.00,0.0030
2427.00,0.0030
2426.00,0.0030
2425.00,0.0030
2424.00,0.0030
2423.00,0.0030
2422.00,0.0030
2421.00,0.0030
2420.00,0.0029
2419.00,0.0029
2418.00,0.0029
2417.00,0.0029
2416.00,0.0029
2415.00,0.0029
2414.00,0.0029
2413.00,0.0029
2412.00,0.0029
2411.00,0.0029
2410.00,0.0030
2409.00,0.0030
2408.00,0.0030
2407.00,0.0029
2406.00,0.0029
2405.00,0.0029
2404.00,0.0029
2403.00,0.0029
2402.00,0.0029
2401.00,0.0029
2400.00,0.0029
2399.00,0.0029
2398.00,0.0029
2397.00,0.0029
2396.00,0.0029
2395.00,0.0029
2394.00,0.0029
2393.00,0.0029
2392.00,0.0028
2391.00,0.0028
2390.00,0.0028
2389.00,0.0027
2388.00,0.0027
2387.00,0.0027
2386.00,0.0027
2385.00,0.0027
2384.00,0.0027
2383.00,0.0027
2382.00,0.0026
2381.00,0.0026
2380.00,0.0026
2379.00,0.0025
2378.00,0.0026
2377.00,0.0026
2376.00,0.0026
2375.00,0.0027
2374.00,0.0027
2373.00,0.0027
2372.00,0.0026
2371.00,0.0026
2370.00,0.0026
2369.00,0.0025
2368.00,0.0025
2367.00,0.0025
2366.00,0.0025
2365.00,0.0026
2364.00,0.0026
2363.00,0.0027
2362.00,0.0027
2361.00,0.0027
2360.00,0.0027
2359.00,0.0027
2358.00,0.0027
2357.00,0.0027
2356.00,0.0028
2355.00,0.0027
2354.00,0.0027
2353.00,0.0027
2352.00,0.0027
2351.00,0.0027
2350.00,0.0028
2349.00,0.0028
2348.00,0.0029
2347.00,0.0029
2346.00,0.0029
2345.00,0.0029
2344.00,0.0029
2343.00,0.0029
2342.00,0.0030
2341.00,0.0030
2340.00,0.0030
2339.00,0.0030
2338.00,0.0030
2337.00,0.0030
2336.00,0.0030
2335.00,0.0030
2334.00,0.0030
2333.00,0.0029
2332.00,0.0029
2331.00,0.0029
2330.00,0.0029
2329.00,0.0031
2328.00,0.0033
2327.00,0.0037
2326.00,0.0040
2325.00,0.0041
2324.00,0.0040
2323.00,0.0039
2322.00,0.0037
2321.00,0.0035
2320.00,0.0034
2319.00,0.0033
2318.00,0.0033
2317.00,0.0033
2316.00,0.0033
2315.00,0.0033
2314.00,0.0033
2313.00,0.0032
2312.00,0.0032
2311.00,0.0031
2310.00,0.0031
2309.00,0.0031
2308.00,0.0031
2307.00,0.0031
2306.00,0.0031
2305.00,0.0031
2304.00,0.0031
2303.00,0.0032
2302.00,0.0032
2301.00,0.0032
2300.00,0.0033
2299.00,0.0033
2298.00,0.0034
2297.00,0.0034
2296.00,0.0035
2295.00,0.0035
2294.00,0.0036
2293.00,0.0037
2292.00,0.0038
2291.00,0.0039
2290.00,0.0039
2289.00,0.0040
2288.00,0.0040
2287.00,0.0040
2286.00,0.0040
2285.00,0.0040
2284.00,0.0039
2283.00,0.0038
2282.00,0.0037
2281.00,0.0036
2280.00,0.0036
2279.00,0.0035
2278.00,0.0034
2277.00,0.0034
2276.00,0.0033
2275.00,0.0032
2274.00,0.0032
2273.00,0.0032
2272.00,0.0032
2271.00,0.0031
2270.00,0.0031
2269.00,0.0031
2268.00,0.0030
2267.00,0.0030
2266.00,0.0029
2265.00,0.0029
2264.00,0.0029
2263.00,0.0029
2262.00,0.0029
2261.00,0.0029
2260.00,0.0029
2259.00,0.0028
2258.00,0.0028
2257.00,0.0028
2256.00,0.0028
2255.00,0.0028
2254.00,0.0028
2253.00,0.0028
2252.00,0.0029
2251.00,0.0029
2250.00,0.0028
2249.00,0.0028
2248.00,0.0028
2247.00,0.0028
2246.00,0.0028
2245.00,0.0029
2244.00,0.0030
2243.00,0.0030
2242.00,0.0030
2241.00,0.0030
2240.00,0.0030
2239.00,0.0030
2238.00,0.0029
2237.00,0.0029
2236.00,0.0029
2235.00,0.0028
2234.00,0.0028
2233.00,0.0029
2232.00,0.0029
2231.00,0.0029
2230.00,0.0029
2229.00,0.0029
2228.00,0.0029
2227.00,0.0029
2226.00,0.0029
2225.00,0.0029
2224.00,0.0028
2223.00,0.0028
2222.00,0.0027
2221.00,0.0027
2220.00,0.0027
2219.00,0.0027
2218.00,0.0028
2217.00,0.0029
2216.00,0.0029
2215.00,0.0029
2214.00,0.0029
2213.00,0.0028
2212.00,0.0028
2211.00,0.0028
2210.00,0.0029
2209.00,0.0029
2208.00,0.0029
2207.00,0.0029
2206.00,0.0029
2205.00,0.0028
2204.00,0.0028
2203.00,0.0027
2202.00,0.0027
2201.00,0.0026
2200.00,0.0026
2199.00,0.0025
2198.00,0.0025
2197.00,0.0026
2196.00,0.0026
2195.00,0.0027
2194.00,0.0027
2193.00,0.0027
2192.00,0.0028
2191.00,0.0029
2190.00,0.0030
2189.00,0.0031
2188.00,0.0032
2187.00,0.0032
2186.00,0.0031
2185.00,0.0029
2184.00,0.0027
2183.00,0.0025
2182.00,0.0024
2181.00,0.0024
2180.00,0.0024
2179.00,0.0025
2178.00,0.0025
2177.00,0.0025
2176.00,0.0026
2175.00,0.0026
2174.00,0.0027
2173.00,0.0029
2172.00,0.0031
2171.00,0.0033
2170.00,0.0036
2169.00,0.0037
2168.00,0.0038
2167.00,0.0037
2166.00,0.0036
2165.00,0.0036
2164.00,0.0036
2163.00,0.0036
2162.00,0.0034
2161.00,0.0027
2160.00,0.0018
2159.00,0.0010
2158.00,0.0005
2157.00,0.0005
2156.00,0.0005
2155.00,0.0006
2154.00,0.0007
2153.00,0.0007
2152.00,0.0008
2151.00,0.0009
2150.00,0.0010
2149.00,0.0011
2148.00,0.0011
2147.00,0.0010
2146.00,0.0010
2145.00,0.0009
2144.00,0.0010
2143.00,0.0011
2142.00,0.0013
2141.00,0.0015
2140.00,0.0016
2139.00,0.0015
2138.00,0.0013
2137.00,0.0011
2136.00,0.0008
2135.00,0.0006
2134.00,0.0006
2133.00,0.0007
2132.00,0.0009
2131.00,0.0012
2130.00,0.0013
2129.00,0.0014
2128.00,0.0014
2127.00,0.0015
2126.00,0.0016
2125.00,0.0018
2124.00,0.0019
2123.00,0.0020
2122.00,0.0020
2121.00,0.0021
2120.00,0.0021
2119.00,0.0022
2118.00,0.0023
2117.00,0.0024
2116.00,0.0025
2115.00,0.0025
2114.00,0.0025
2113.00,0.0025
2112.00,0.0024
2111.00,0.0024
2110.00,0.0024
2109.00,0.0024
2108.00,0.0024
2107.00,0.0023
2106.00,0.0023
2105.00,0.0022
2104.00,0.0022
2103.00,0.0022
2102.00,0.0023
2101.00,0.0023
2100.00,0.0022
2099.00,0.0021
2098.00,0.0020
2097.00,0.0018
2096.00,0.0017
2095.00,0.0017
2094.00,0.0018
2093.00,0.0019
2092.00,0.0020
2091.00,0.0021
2090.00,0.0021
2089.00,0.0022
2088.00,0.0022
2087.00,0.0023
2086.00,0.0023
2085.00,0.0024
2084.00,0.0025
2083.00,0.0025
2082.00,0.0025
2081.00,0.0025
2080.00,0.0025
2079.00,0.0025
2078.00,0.0026
2077.00,0.0027
2076.00,0.0027
2075.00,0.0027
2074.00,0.0027
2073.00,0.0027
2072.00,0.0026
2071.00,0.0025
2070.00,0.0024
2069.00,0.0024
2068.00,0.0024
2067.00,0.0023
2066.00,0.0023
2065.00,0.0022
2064.00,0.0021
2063.00,0.0020
2062.00,0.0020
2061.00,0.0020
2060.00,0.0020
2059.00,0.0021
2058.00,0.0021
2057.00,0.0021
2056.00,0.0021
2055.00,0.0021
2054.00,0.0022
2053.00,0.0025
2052.00,0.0029
2051.00,0.0030
2050.00,0.0028
2049.00,0.0025
2048.00,0.0021
2047.00,0.0019
2046.00,0.0019
2045.00,0.0020
2044.00,0.0022
2043.00,0.0023
2042.00,0.0022
2041.00,0.0022
2040.00,0.0023
2039.00,0.0024
2038.00,0.0025
2037.00,0.0026
2036.00,0.0025
2035.00,0.0023
2034.00,0.0020
2033.00,0.0017
2032.00,0.0016
2031.00,0.0015
2030.00,0.0014
2029.00,0.0014
2028.00,0.0014
2027.00,0.0014
2026.00,0.0015
2025.00,0.0016
2024.00,0.0016
2023.00,0.0016
2022.00,0.0015
2021.00,0.0015
2020.00,0.0015
2019.00,0.0016
2018.00,0.0016
2017.00,0.0016
2016.00,0.0015
2015.00,0.0014
2014.00,0.0014
2013.00,0.0014
2012.00,0.0015
2011.00,0.0016
2010.00,0.0016
2009.00,0.0015
2008.00,0.0013
2007.00,0.0011
2006.00,0.0010
2005.00,0.0010
2004.00,0.0010
2003.00,0.0011
2002.00,0.0012
2001.00,0.0013
2000.00,0.0015
1999.00,0.0015
1998.00,0.0015
1997.00,0.0015
1996.00,0.0016
1995.00,0.0018
1994.00,0.0019
1993.00,0.0021
1992.00,0.0022
1991.00,0.0022
1990.00,0.0022
1989.00,0.0022
1988.00,0.0022
1987.00,0.0023
1986.00,0.0024
1985.00,0.0025
1984.00,0.0026
1983.00,0.0027
1982.00,0.0029
1981.00,0.0030
1980.00,0.0028
1979.00,0.0024
1978.00,0.0019
1977.00,0.0014
1976.00,0.0013
1975.00,0.0013
1974.00,0.0013
1973.00,0.0013
1972.00,0.0014
1971.00,0.0015
1970.00,0.0017
1969.00,0.0018
1968.00,0.0018
1967.00,0.0016
1966.00,0.0015
1965.00,0.0014
1964.00,0.0014
1963.00,0.0014
1962.00,0.0013
1961.00,0.0012
1960.00,0.0012
1959.00,0.0012
1958.00,0.0012
1957.00,0.0013
1956.00,0.0014
1955.00,0.0014
1954.00,0.0014
1953.00,0.0014
1952.00,0.0014
1951.00,0.0014
1950.00,0.0013
1949.00,0.0013
1948.00,0.0013
1947.00,0.0013
1946.00,0.0014
1945.00,0.0014
1944.00,0.0015
1943.00,0.0015
1942.00,0.0015
1941.00,0.0016
1940.00,0.0016
1939.00,0.0016
1938.00,0.0017
1937.00,0.0017
1936.00,0.0017
1935.00,0.0017
1934.00,0.0017
1933.00,0.0017
1932.00,0.0018
1931.00,0.0018
1930.00,0.0018
1929.00,0.0018
1928.00,0.0018
1927.00,0.0018
1926.00,0.0018
1925.00,0.0018
1924.00,0.0018
1923.00,0.0019
1922.00,0.0019
1921.00,0.0019
1920.00,0.0020
1919.00,0.0020
1918.00,0.0020
1917.00,0.0020
1916.00,0.0021
1915.00,0.0021
1914.00,0.0022
1913.00,0.0023
1912.00,0.0024
1911.00,0.0026
1910.00,0.0028
1909.00,0.0029
1908.00,0.0030
1907.00,0.0030
1906.00,0.0029
1905.00,0.0027
1904.00,0.0026
1903.00,0.0025
1902.00,0.0024
1901.00,0.0023
1900.00,0.0023
1899.00,0.0023
1898.00,0.0024
1897.00,0.0025
1896.00,0.0026
1895.00,0.0027
1894.00,0.0027
1893.00,0.0027
1892.00,0.0026
1891.00,0.0026
1890.00,0.0025
1889.00,0.0024
1888.00,0.0024
1887.00,0.0024
1886.00,0.0023
1885.00,0.0023
1884.00,0.0023
1883.00,0.0023
1882.00,0.0023
1881.00,0.0023
1880.00,0.0023
1879.00,0.0023
1878.00,0.0022
1877.00,0.0022
1876.00,0.0022
1875.00,0.0022
1874.00,0.0022
1873.00,0.0022
1872.00,0.0022
1871.00,0.0023
1870.00,0.0023
1869.00,0.0023
1868.00,0.0023
1867.00,0.0023
1866.00,0.0022
1865.00,0.0022
1864.00,0.0023
1863.00,0.0023
1862.00,0.0023
1861.00,0.0024
1860.00,0.0024
1859.00,0.0024
1858.00,0.0024
1857.00,0.0024
1856.00,0.0024
1855.00,0.0024
1854.00,0.0024
1853.00,0.0024
1852.00,0.0024
1851.00,0.0025
1850.00,0.0026
1849.00,0.0027
1848.00,0.0027
1847.00,0.0028
1846.00,0.0027
1845.00,0.0027
1844.00,0.0026
1843.00,0.0025
1842.00,0.0025
1841.00,0.0025
1840.00,0.0025
1839.00,0.0024
1838.00,0.0024
1837.00,0.0024
1836.00,0.0024
1835.00,0.0023
1834.00,0.0023
1833.00,0.0023
1832.00,0.0023
1831.00,0.0024
1830.00,0.0023
1829.00,0.0023
1828.00,0.0023
1827.00,0.0024
1826.00,0.0024
1825.00,0.0024
1824.00,0.0024
1823.00,0.0024
1822.00,0.0024
1821.00,0.0024
1820.00,0.0024
1819.00,0.0023
1818.00,0.0022
1817.00,0.0022
1816.00,0.0022
1815.00,0.0022
1814.00,0.0023
1813.00,0.0023
1812.00,0.0024
1811.00,0.0024
1810.00,0.0024
1809.00,0.0025
1808.00,0.0025
1807.00,0.0025
1806.00,0.0025
1805.00,0.0025
1804.00,0.0025
1803.00,0.0026
1802.00,0.0026
1801.00,0.0026
1800.00,0.0026
1799.00,0.0026
1798.00,0.0027
1797.00,0.0027
1796.00,0.0028
1795.00,0.0028
1794.00,0.0028
1793.00,0.0028
1792.00,0.0027
1791.00,0.0027
1790.00,0.0027
1789.00,0.0027
1788.00,0.0027
1787.00,0.0027
1786.00,0.0027
1785.00,0.0027
1784.00,0.0027
1783.00,0.0027
1782.00,0.0028
1781.00,0.0028
1780.00,0.0028
1779.00,0.0029
1778.00,0.0029
1777.00,0.0029
1776.00,0.0030
1775.00,0.0030
1774.00,0.0030
1773.00,0.0030
1772.00,0.0030
1771.00,0.0030
1770.00,0.0030
1769.00,0.0031
1768.00,0.0031
1767.00,0.0030
1766.00,0.0030
1765.00,0.0029
1764.00,0.0030
1763.00,0.0030
1762.00,0.0031
1761.00,0.0031
1760.00,0.0032
1759.00,0.0032
1758.00,0.0032
1757.00,0.0032
1756.00,0.0031
1755.00,0.0030
1754.00,0.0030
1753.00,0.0031
1752.00,0.0031
1751.00,0.0031
1750.00,0.0031
1749.00,0.0031
1748.00,0.0031
1747.00,0.0032
1746.00,0.0032
1745.00,0.0033
1744.00,0.0033
1743.00,0.0033
1742.00,0.0033
1741.00,0.0032
1740.00,0.0032
1739.00,0.0031
1738.00,0.0031
1737.00,0.0032
1736.00,0.0032
1735.00,0.0033
1734.00,0.0033
1733.00,0.0034
1732.00,0.0035
1731.00,0.0036
1730.00,0.0037
1729.00,0.0037
1728.00,0.0037
1727.00,0.0038
1726.00,0.0039
1725.00,0.0039
1724.00,0.0040
1723.00,0.0041
1722.00,0.0041
1721.00,0.0041
1720.00,0.0042
1719.00,0.0042
1718.00,0.0042
1717.00,0.0043
1716.00,0.0044
1715.00,0.0045
1714.00,0.0046
1713.00,0.0047
1712.00,0.0049
1711.00,0.0050
1710.00,0.0051
1709.00,0.0051
1708.00,0.0052
1707.00,0.0053
1706.00,0.0054
1705.00,0.0056
1704.00,0.0057
1703.00,0.0058
1702.00,0.0059
1701.00,0.0061
1700.00,0.0065
1699.00,0.0069
1698.00,0.0073
1697.00,0.0078
1696.00,0.0083
1695.00,0.0089
1694.00,0.0094
1693.00,0.0099
1692.00,0.0104
1691.00,0.0110
1690.00,0.0116
1689.00,0.0122
1688.00,0.0127
1687.00,0.0130
1686.00,0.0135
1685.00,0.0141
1684.00,0.0149
1683.00,0.0156
1682.00,0.0161
1681.00,0.0166
1680.00,0.0170
1679.00,0.0175
1678.00,0.0178
1677.00,0.0182
1676.00,0.0187
1675.00,0.0192
1674.00,0.0197
1673.00,0.0201
1672.00,0.0205
1671.00,0.0209
1670.00,0.0215
1669.00,0.0220
1668.00,0.0225
1667.00,0.0229
1666.00,0.0231
1665.00,0.0234
1664.00,0.0238
1663.00,0.0242
1662.00,0.0247
1661.00,0.0250
1660.00,0.0254
1659.00,0.0256
1658.00,0.0258
1657.00,0.0258
1656.00,0.0259
1655.00,0.0259
1654.00,0.0261
1653.00,0.0265
1652.00,0.0268
1651.00,0.0269
1650.00,0.0269
1649.00,0.0269
1648.00,0.0270
1647.00,0.0271
1646.00,0.0270
1645.00,0.0270
1644.00,0.0269
1643.00,0.0268
1642.00,0.0267
1641.00,0.0266
1640.00,0.0264
1639.00,0.0262
1638.00,0.0258
1637.00,0.0255
1636.00,0.0253
1635.00,0.0253
1634.00,0.0255
1633.00,0.0260
1632.00,0.0267
1631.00,0.0278
1630.00,0.0294
1629.00,0.0315
1628.00,0.0342
1627.00,0.0370
1626.00,0.0395
1625.00,0.0418
1624.00,0.0439
1623.00,0.0457
1622.00,0.0468
1621.00,0.0470
1620.00,0.0466
1619.00,0.0456
1618.00,0.0438
1617.00,0.0413
1616.00,0.0389
1615.00,0.0373
1614.00,0.0366
1613.00,0.0365
1612.00,0.0368
1611.00,0.0370
1610.00,0.0368
1609.00,0.0360
1608.00,0.0346
1607.00,0.0329
1606.00,0.0309
1605.00,0.0289
1604.00,0.0269
1603.00,0.0250
1602.00,0.0233
1601.00,0.0217
1600.00,0.0204
1599.00,0.0194
1598.00,0.0186
1597.00,0.0181
1596.00,0.0179
1595.00,0.0179
1594.00,0.0183
1593.00,0.0190
1592.00,0.0202
1591.00,0.0218
1590.00,0.0237
1589.00,0.0258
1588.00,0.0280
1587.00,0.0300
1586.00,0.0317
1585.00,0.0329
1584.00,0.0336
1583.00,0.0339
1582.00,0.0337
1581.00,0.0331
1580.00,0.0323
1579.00,0.0313
1578.00,0.0301
1577.00,0.0285
1576.00,0.0268
1575.00,0.0252
1574.00,0.0241
1573.00,0.0232
1572.00,0.0225
1571.00,0.0218
1570.00,0.0212
1569.00,0.0206
1568.00,0.0200
1567.00,0.0193
1566.00,0.0184
1565.00,0.0173
1564.00,0.0162
1563.00,0.0151
1562.00,0.0142
1561.00,0.0133
1560.00,0.0123
1559.00,0.0112
1558.00,0.0104
1557.00,0.0100
1556.00,0.0099
1555.00,0.0097
1554.00,0.0096
1553.00,0.0094
1552.00,0.0093
1551.00,0.0092
1550.00,0.0090
1549.00,0.0088
1548.00,0.0087
1547.00,0.0086
1546.00,0.0085
1545.00,0.0084
1544.00,0.0082
1543.00,0.0079
1542.00,0.0077
1541.00,0.0075
1540.00,0.0074
1539.00,0.0073
1538.00,0.0073
1537.00,0.0074
1536.00,0.0074
1535.00,0.0074
1534.00,0.0074
1533.00,0.0073
1532.00,0.0072
1531.00,0.0072
1530.00,0.0072
1529.00,0.0072
1528.00,0.0072
1527.00,0.0073
1526.00,0.0073
1525.00,0.0073
1524.00,0.0074
1523.00,0.0075
1522.00,0.0077
1521.00,0.0080
1520.00,0.0082
1519.00,0.0085
1518.00,0.0088
1517.00,0.0092
1516.00,0.0097
1515.00,0.0100
1514.00,0.0104
1513.00,0.0108
1512.00,0.0111
1511.00,0.0114
1510.00,0.0117
1509.00,0.0118
1508.00,0.0119
1507.00,0.0120
1506.00,0.0121
1505.00,0.0124
1504.00,0.0128
1503.00,0.0134
1502.00,0.0141
1501.00,0.0152
1500.00,0.0168
1499.00,0.0188
1498.00,0.0212
1497.00,0.0235
1496.00,0.0248
1495.00,0.0250
1494.00,0.0243
1493.00,0.0230
1492.00,0.0214
1491.00,0.0197
1490.00,0.0179
1489.00,0.0163
1488.00,0.0150
1487.00,0.0138
1486.00,0.0129
1485.00,0.0122
1484.00,0.0117
1483.00,0.0112
1482.00,0.0109
1481.00,0.0106
1480.00,0.0105
1479.00,0.0104
1478.00,0.0105
1477.00,0.0107
1476.00,0.0110
1475.00,0.0113
1474.00,0.0119
1473.00,0.0129
1472.00,0.0144
1471.00,0.0162
1470.00,0.0183
1469.00,0.0206
1468.00,0.0229
1467.00,0.0250
1466.00,0.0266
1465.00,0.0276
1464.00,0.0280
1463.00,0.0280
1462.00,0.0279
1461.00,0.0279
1460.00,0.0279
1459.00,0.0278
1458.00,0.0274
1457.00,0.0267
1456.00,0.0257
1455.00,0.0248
1454.00,0.0242
1453.00,0.0239
1452.00,0.0237
1451.00,0.0238
1450.00,0.0241
1449.00,0.0246
1448.00,0.0253
1447.00,0.0261
1446.00,0.0270
1445.00,0.0281
1444.00,0.0294
1443.00,0.0306
1442.00,0.0319
1441.00,0.0329
1440.00,0.0337
1439.00,0.0344
1438.00,0.0351
1437.00,0.0358
1436.00,0.0366
1435.00,0.0373
1434.00,0.0381
1433.00,0.0389
1432.00,0.0397
1431.00,0.0404
1430.00,0.0409
1429.00,0.0413
1428.00,0.0415
1427.00,0.0415
1426.00,0.0413
1425.00,0.0411
1424.00,0.0407
1423.00,0.0402
1422.00,0.0396
1421.00,0.0389
1420.00,0.0379
1419.00,0.0366
1418.00,0.0350
1417.00,0.0336
1416.00,0.0322
1415.00,0.0310
1414.00,0.0299
1413.00,0.0291
1412.00,0.0286
1411.00,0.0284
1410.00,0.0286
1409.00,0.0291
1408.00,0.0300
1407.00,0.0312
1406.00,0.0328
1405.00,0.0347
1404.00,0.0365
1403.00,0.0381
1402.00,0.0393
1401.00,0.0402
1400.00,0.0406
1399.00,0.0403
1398.00,0.0394
1397.00,0.0380
1396.00,0.0362
1395.00,0.0341
1394.00,0.0318
1393.00,0.0298
1392.00,0.0282
1391.00,0.0271
1390.00,0.0265
1389.00,0.0267
1388.00,0.0274
1387.00,0.0281
1386.00,0.0283
1385.00,0.0278
1384.00,0.0269
1383.00,0.0262
1382.00,0.0259
1381.00,0.0260
1380.00,0.0263
1379.00,0.0265
1378.00,0.0265
1377.00,0.0262
1376.00,0.0255
1375.00,0.0244
1374.00,0.0231
1373.00,0.0219
1372.00,0.0211
1371.00,0.0209
1370.00,0.0214
1369.00,0.0224
1368.00,0.0240
1367.00,0.0257
1366.00,0.0272
1365.00,0.0282
1364.00,0.0289
1363.00,0.0297
1362.00,0.0310
1361.00,0.0326
1360.00,0.0337
1359.00,0.0337
1358.00,0.0324
1357.00,0.0306
1356.00,0.0287
1355.00,0.0272
1354.00,0.0261
1353.00,0.0255
1352.00,0.0251
1351.00,0.0249
1350.00,0.0250
1349.00,0.0252
1348.00,0.0253
1347.00,0.0254
1346.00,0.0252
1345.00,0.0248
1344.00,0.0242
1343.00,0.0235
1342.00,0.0227
1341.00,0.0218
1340.00,0.0209
1339.00,0.0201
1338.00,0.0194
1337.00,0.0190
1336.00,0.0188
1335.00,0.0190
1334.00,0.0194
1333.00,0.0199
1332.00,0.0205
1331.00,0.0210
1330.00,0.0214
1329.00,0.0216
1328.00,0.0217
1327.00,0.0216
1326.00,0.0214
1325.00,0.0212
1324.00,0.0211
1323.00,0.0210
1322.00,0.0209
1321.00,0.0209
1320.00,0.0209
1319.00,0.0207
1318.00,0.0204
1317.00,0.0200
1316.00,0.0196
1315.00,0.0191
1314.00,0.0188
1313.00,0.0185
1312.00,0.0184
1311.00,0.0185
1310.00,0.0189
1309.00,0.0195
1308.00,0.0204
1307.00,0.0216
1306.00,0.0231
1305.00,0.0249
1304.00,0.0271
1303.00,0.0294
1302.00,0.0314
1301.00,0.0329
1300.00,0.0337
1299.00,0.0338
1298.00,0.0337
1297.00,0.0337
1296.00,0.0340
1295.00,0.0345
1294.00,0.0352
1293.00,0.0357
1292.00,0.0361
1291.00,0.0363
1290.00,0.0366
1289.00,0.0371
1288.00,0.0378
1287.00,0.0388
1286.00,0.0399
1285.00,0.0409
1284.00,0.0416
1283.00,0.0418
1282.00,0.0414
1281.00,0.0404
1280.00,0.0390
1279.00,0.0373
1278.00,0.0357
1277.00,0.0342
1276.00,0.0329
1275.00,0.0319
1274.00,0.0311
1273.00,0.0304
1272.00,0.0297
1271.00,0.0290
1270.00,0.0283
1269.00,0.0275
1268.00,0.0268
1267.00,0.0261
1266.00,0.0254
1265.00,0.0246
1264.00,0.0238
1263.00,0.0230
1262.00,0.0222
1261.00,0.0214
1260.00,0.0206
1259.00,0.0200
1258.00,0.0194
1257.00,0.0189
1256.00,0.0185
1255.00,0.0182
1254.00,0.0180
1253.00,0.0179
1252.00,0.0180
1251.00,0.0183
1250.00,0.0188
1249.00,0.0196
1248.00,0.0205
1247.00,0.0217
1246.00,0.0229
1245.00,0.0241
1244.00,0.0252
1243.00,0.0260
1242.00,0.0267
1241.00,0.0273
1240.00,0.0280
1239.00,0.0290
1238.00,0.0303
1237.00,0.0318
1236.00,0.0334
1235.00,0.0348
1234.00,0.0357
1233.00,0.0360
1232.00,0.0356
1231.00,0.0346
1230.00,0.0333
1229.00,0.0317
1228.00,0.0302
1227.00,0.0289
1226.00,0.0277
1225.00,0.0268
1224.00,0.0260
1223.00,0.0254
1222.00,0.0250
1221.00,0.0249
1220.00,0.0251
1219.00,0.0255
1218.00,0.0261
1217.00,0.0268
1216.00,0.0275
1215.00,0.0280
1214.00,0.0281
1213.00,0.0278
1212.00,0.0270
1211.00,0.0258
1210.00,0.0245
1209.00,0.0232
1208.00,0.0220
1207.00,0.0212
1206.00,0.0207
1205.00,0.0206
1204.00,0.0210
1203.00,0.0219
1202.00,0.0231
1201.00,0.0247
1200.00,0.0265
1199.00,0.0285
1198.00,0.0306
1197.00,0.0328
1196.00,0.0348
1195.00,0.0361
1194.00,0.0367
1193.00,0.0364
1192.00,0.0354
1191.00,0.0338
1190.00,0.0318
1189.00,0.0296
1188.00,0.0274
1187.00,0.0252
1186.00,0.0232
1185.00,0.0214
1184.00,0.0200
1183.00,0.0188
1182.00,0.0179
1181.00,0.0172
1180.00,0.0166
1179.00,0.0162
1178.00,0.0159
1177.00,0.0156
1176.00,0.0154
1175.00,0.0153
1174.00,0.0152
1173.00,0.0151
1172.00,0.0151
1171.00,0.0151
1170.00,0.0150
1169.00,0.0150
1168.00,0.0150
1167.00,0.0150
1166.00,0.0151
1165.00,0.0153
1164.00,0.0156
1163.00,0.0161
1162.00,0.0170
1161.00,0.0182
1160.00,0.0201
1159.00,0.0226
1158.00,0.0257
1157.00,0.0291
1156.00,0.0321
1155.00,0.0341
1154.00,0.0345
1153.00,0.0332
1152.00,0.0304
1151.00,0.0269
1150.00,0.0234
1149.00,0.0204
1148.00,0.0181
1147.00,0.0165
1146.00,0.0154
1145.00,0.0148
1144.00,0.0143
1143.00,0.0140
1142.00,0.0139
1141.00,0.0139
1140.00,0.0141
1139.00,0.0144
1138.00,0.0151
1137.00,0.0160
1136.00,0.0173
1135.00,0.0192
1134.00,0.0219
1133.00,0.0253
1132.00,0.0292
1131.00,0.0333
1130.00,0.0369
1129.00,0.0394
1128.00,0.0406
1127.00,0.0405
1126.00,0.0393
1125.00,0.0374
1124.00,0.0349
1123.00,0.0320
1122.00,0.0289
1121.00,0.0261
1120.00,0.0238
1119.00,0.0220
1118.00,0.0208
1117.00,0.0201
1116.00,0.0197
1115.00,0.0195
1114.00,0.0192
1113.00,0.0189
1112.00,0.0184
1111.00,0.0178
1110.00,0.0173
1109.00,0.0169
1108.00,0.0166
1107.00,0.0166
1106.00,0.0170
1105.00,0.0180
1104.00,0.0195
1103.00,0.0215
1102.00,0.0239
1101.00,0.0262
1100.00,0.0277
1099.00,0.0282
1098.00,0.0274
1097.00,0.0257
1096.00,0.0234
1095.00,0.0209
1094.00,0.0187
1093.00,0.0169
1092.00,0.0155
1091.00,0.0144
1090.00,0.0136
1089.00,0.0131
1088.00,0.0126
1087.00,0.0123
1086.00,0.0121
1085.00,0.0120
1084.00,0.0118
1083.00,0.0117
1082.00,0.0117
1081.00,0.0117
1080.00,0.0117
1079.00,0.0118
1078.00,0.0120
1077.00,0.0121
1076.00,0.0122
1075.00,0.0124
1074.00,0.0126
1073.00,0.0128
1072.00,0.0131
1071.00,0.0135
1070.00,0.0139
1069.00,0.0144
1068.00,0.0149
1067.00,0.0155
1066.00,0.0162
1065.00,0.0170
1064.00,0.0181
1063.00,0.0194
1062.00,0.0212
1061.00,0.0236
1060.00,0.0266
1059.00,0.0302
1058.00,0.0344
1057.00,0.0389
1056.00,0.0431
1055.00,0.0467
1054.00,0.0493
1053.00,0.0510
1052.00,0.0521
1051.00,0.0528
1050.00,0.0531
1049.00,0.0530
1048.00,0.0521
1047.00,0.0504
1046.00,0.0480
1045.00,0.0451
1044.00,0.0417
1043.00,0.0383
1042.00,0.0351
1041.00,0.0323
1040.00,0.0301
1039.00,0.0286
1038.00,0.0278
1037.00,0.0276
1036.00,0.0277
1035.00,0.0281
1034.00,0.0287
1033.00,0.0297
1032.00,0.0313
1031.00,0.0338
1030.00,0.0373
1029.00,0.0412
1028.00,0.0449
1027.00,0.0475
1026.00,0.0482
1025.00,0.0470
1024.00,0.0442
1023.00,0.0405
1022.00,0.0366
1021.00,0.0329
1020.00,0.0297
1019.00,0.0270
1018.00,0.0248
1017.00,0.0230
1016.00,0.0215
1015.00,0.0202
1014.00,0.0192
1013.00,0.0184
1012.00,0.0179
1011.00,0.0177
1010.00,0.0180
1009.00,0.0188
1008.00,0.0200
1007.00,0.0215
1006.00,0.0231
1005.00,0.0246
1004.00,0.0256
1003.00,0.0262
1002.00,0.0261
1001.00,0.0255
1000.00,0.0246
999.00,0.0237
998.00,0.0229
997.00,0.0221
996.00,0.0215
995.00,0.0209
994.00,0.0204
993.00,0.0198
992.00,0.0190
991.00,0.0181
990.00,0.0171
989.00,0.0161
988.00,0.0153
987.00,0.0145
986.00,0.0139
985.00,0.0134
984.00,0.0130
983.00,0.0127
982.00,0.0125
981.00,0.0124
980.00,0.0123
979.00,0.0123
978.00,0.0123
977.00,0.0123
976.00,0.0123
975.00,0.0123
974.00,0.0122
973.00,0.0122
972.00,0.0121
971.00,0.0120
970.00,0.0119
969.00,0.0118
968.00,0.0118
967.00,0.0119
966.00,0.0120
965.00,0.0123
964.00,0.0125
963.00,0.0128
962.00,0.0128
961.00,0.0127
960.00,0.0122
959.00,0.0116
958.00,0.0109
957.00,0.0104
956.00,0.0099
955.00,0.0095
954.00,0.0093
953.00,0.0091
952.00,0.0090
951.00,0.0091
950.00,0.0094
949.00,0.0097
948.00,0.0100
947.00,0.0101
946.00,0.0100
945.00,0.0099
944.00,0.0100
943.00,0.0102
942.00,0.0106
941.00,0.0112
940.00,0.0117
939.00,0.0122
938.00,0.0125
937.00,0.0129
936.00,0.0132
935.00,0.0135
934.00,0.0139
933.00,0.0142
932.00,0.0143
931.00,0.0141
930.00,0.0138
929.00,0.0134
928.00,0.0131
927.00,0.0131
926.00,0.0133
925.00,0.0137
924.00,0.0144
923.00,0.0151
922.00,0.0156
921.00,0.0157
920.00,0.0153
919.00,0.0144
918.00,0.0133
917.00,0.0123
916.00,0.0114
915.00,0.0107
914.00,0.0102
913.00,0.0099
912.00,0.0096
911.00,0.0095
910.00,0.0094
909.00,0.0095
908.00,0.0096
907.00,0.0098
906.00,0.0101
905.00,0.0106
904.00,0.0114
903.00,0.0125
902.00,0.0138
901.00,0.0152
900.00,0.0164
899.00,0.0171
898.00,0.0170
897.00,0.0164
896.00,0.0154
895.00,0.0146
894.00,0.0142
893.00,0.0145
892.00,0.0155
891.00,0.0167
890.00,0.0174
889.00,0.0170
888.00,0.0157
887.00,0.0140
886.00,0.0127
885.00,0.0119
884.00,0.0116
883.00,0.0115
882.00,0.0117
881.00,0.0120
880.00,0.0125
879.00,0.0134
878.00,0.0147
877.00,0.0166
876.00,0.0189
875.00,0.0217
874.00,0.0248
873.00,0.0281
872.00,0.0312
871.00,0.0338
870.00,0.0354
869.00,0.0356
868.00,0.0345
867.00,0.0326
866.00,0.0304
865.00,0.0282
864.00,0.0262
863.00,0.0243
862.00,0.0225
861.00,0.0209
860.00,0.0197
859.00,0.0190
858.00,0.0190
857.00,0.0198
856.00,0.0211
855.00,0.0228
854.00,0.0245
853.00,0.0262
852.00,0.0280
851.00,0.0298
850.00,0.0315
849.00,0.0325
848.00,0.0324
847.00,0.0313
846.00,0.0295
845.00,0.0276
844.00,0.0259
843.00,0.0245
842.00,0.0236
841.00,0.0232
840.00,0.0232
839.00,0.0239
838.00,0.0253
837.00,0.0273
836.00,0.0295
835.00,0.0314
834.00,0.0328
833.00,0.0333
832.00,0.0329
831.00,0.0317
830.00,0.0296
829.00,0.0270
828.00,0.0242
827.00,0.0218
826.00,0.0202
825.00,0.0198
824.00,0.0210
823.00,0.0242
822.00,0.0290
821.00,0.0340
820.00,0.0376
819.00,0.0395
818.00,0.0408
817.00,0.0428
816.00,0.0445
815.00,0.0441
814.00,0.0404
813.00,0.0345
812.00,0.0285
811.00,0.0237
810.00,0.0204
809.00,0.0181
808.00,0.0165
807.00,0.0154
806.00,0.0146
805.00,0.0140
804.00,0.0135
803.00,0.0132
802.00,0.0130
801.00,0.0127
800.00,0.0125
799.00,0.0123
798.00,0.0122
797.00,0.0120
796.00,0.0120
795.00,0.0120
794.00,0.0119
793.00,0.0119
792.00,0.0119
791.00,0.0118
790.00,0.0118
789.00,0.0118
788.00,0.0119
787.00,0.0119
786.00,0.0119
785.00,0.0120
784.00,0.0120
783.00,0.0120
782.00,0.0121
781.00,0.0123
780.00,0.0125
779.00,0.0129
778.00,0.0135
777.00,0.0144
776.00,0.0156
775.00,0.0166
774.00,0.0171
773.00,0.0169
772.00,0.0161
771.00,0.0153
770.00,0.0146
769.00,0.0143
768.00,0.0142
767.00,0.0141
766.00,0.0142
765.00,0.0144
764.00,0.0147
763.00,0.0152
762.00,0.0157
761.00,0.0163
760.00,0.0167
759.00,0.0169
758.00,0.0170
757.00,0.0168
756.00,0.0166
755.00,0.0164
754.00,0.0163
753.00,0.0163
752.00,0.0164
751.00,0.0165
750.00,0.0166
749.00,0.0168
748.00,0.0171
747.00,0.0174
746.00,0.0177
745.00,0.0180
744.00,0.0184
743.00,0.0189
742.00,0.0195
741.00,0.0204
740.00,0.0215
739.00,0.0231
738.00,0.0252
737.00,0.0277
736.00,0.0301
735.00,0.0317
734.00,0.0322
733.00,0.0316
732.00,0.0307
731.00,0.0302
730.00,0.0302
729.00,0.0305
728.00,0.0304
727.00,0.0297
726.00,0.0282
725.00,0.0264
724.00,0.0246
723.00,0.0233
722.00,0.0224
721.00,0.0220
720.00,0.0220
719.00,0.0224
718.00,0.0232
717.00,0.0242
716.00,0.0251
715.00,0.0258
714.00,0.0259
713.00,0.0257
712.00,0.0252
711.00,0.0246
710.00,0.0240
709.00,0.0235
708.00,0.0232
707.00,0.0230
706.00,0.0230
705.00,0.0232
704.00,0.0235
703.00,0.0240
702.00,0.0246
701.00,0.0252
700.00,0.0258
699.00,0.0264
698.00,0.0267
697.00,0.0267
696.00,0.0264
695.00,0.0260
694.00,0.0255
693.00,0.0253
692.00,0.0255
691.00,0.0262
690.00,0.0272
689.00,0.0282
688.00,0.0289
687.00,0.0290
686.00,0.0286
685.00,0.0280
684.00,0.0274
683.00,0.0270
682.00,0.0268
681.00,0.0269
680.00,0.0272
679.00,0.0276
678.00,0.0282
677.00,0.0289
676.00,0.0298
675.00,0.0308
674.00,0.0318
673.00,0.0328
672.00,0.0336
671.00,0.0341
670.00,0.0343
669.00,0.0343
668.00,0.0339
667.00,0.0336
666.00,0.0334
665.00,0.0335
664.00,0.0339
663.00,0.0345
662.00,0.0350
661.00,0.0352
660.00,0.0351
659.00,0.0346
658.00,0.0340
657.00,0.0333
656.00,0.0328
655.00,0.0324
654.00,0.0323
653.00,0.0322
652.00,0.0322
651.00,0.0323
650.00,0.0323
649.00,0.0324
648.00,0.0324
647.00,0.0324
646.00,0.0324
645.00,0.0324
644.00,0.0323
643.00,0.0321
642.00,0.0320
641.00,0.0318
640.00,0.0317
639.00,0.0315
638.00,0.0314
637.00,0.0313
636.00,0.0312
635.00,0.0310
634.00,0.0309
633.00,0.0308
632.00,0.0307
631.00,0.0306
630.00,0.0307
629.00,0.0308
628.00,0.0310
627.00,0.0313
626.00,0.0317
625.00,0.0322
624.00,0.0328
623.00,0.0335
622.00,0.0342
621.00,0.0349
620.00,0.0353
619.00,0.0354
618.00,0.0350
617.00,0.0343
616.00,0.0334
615.00,0.0324
614.00,0.0315
613.00,0.0309
612.00,0.0305
611.00,0.0306
610.00,0.0310
609.00,0.0318
608.00,0.0331
607.00,0.0348
606.00,0.0366
605.00,0.0384
604.00,0.0400
603.00,0.0411
602.00,0.0418
601.00,0.0421
600.00,0.0422
599.00,0.0421
598.00,0.0420
597.00,0.0419
596.00,0.0418
595.00,0.0417
594.00,0.0416
593.00,0.0415
592.00,0.0413
591.00,0.0411
590.00,0.0407
589.00,0.0404
588.00,0.0402
587.00,0.0400
586.00,0.0400
585.00,0.0401
584.00,0.0403
583.00,0.0406
582.00,0.0410
581.00,0.0415
580.00,0.0424
579.00,0.0437
578.00,0.0452
577.00,0.0466
576.00,0.0474
575.00,0.0471
574.00,0.0461
573.00,0.0446
572.00,0.0433
571.00,0.0420
570.00,0.0411
569.00,0.0404
568.00,0.0400
567.00,0.0400
566.00,0.0403
565.00,0.0410
564.00,0.0418
563.00,0.0427
562.00,0.0437
561.00,0.0445
560.00,0.0452
559.00,0.0454
558.00,0.0450
557.00,0.0443
556.00,0.0434
555.00,0.0425
554.00,0.0417
553.00,0.0412
552.00,0.0411
551.00,0.0415
550.00,0.0424
549.00,0.0437
548.00,0.0452
547.00,0.0465
546.00,0.0472
545.00,0.0472
544.00,0.0466
543.00,0.0456
542.00,0.0445
541.00,0.0434
540.00,0.0426
539.00,0.0419
538.00,0.0414
537.00,0.0412
536.00,0.0413
535.00,0.0418
534.00,0.0426
533.00,0.0435
532.00,0.0443
531.00,0.0447
530.00,0.0446
529.00,0.0438
528.00,0.0427
527.00,0.0414
526.00,0.0402
525.00,0.0392
524.00,0.0385
523.00,0.0379
522.00,0.0374
521.00,0.0369
520.00,0.0365
519.00,0.0362
518.00,0.0359
517.00,0.0356
516.00,0.0353
515.00,0.0351
514.00,0.0349
513.00,0.0349
512.00,0.0351
511.00,0.0354
510.00,0.0356
509.00,0.0358
508.00,0.0360
507.00,0.0362
506.00,0.0363
505.00,0.0362
504.00,0.0360
503.00,0.0356
502.00,0.0352
501.00,0.0348
500.00,0.0346
499.00,0.0344
498.00,0.0343
497.00,0.0343
496.00,0.0344
495.00,0.0346
494.00,0.0350
493.00,0.0353
492.00,0.0356
491.00,0.0356
490.00,0.0354
489.00,0.0351
488.00,0.0347
487.00,0.0343
486.00,0.0340
485.00,0.0338
484.00,0.0339
483.00,0.0339
482.00,0.0339
481.00,0.0338
480.00,0.0337
479.00,0.0335
478.00,0.0333
477.00,0.0330
476.00,0.0327
475.00,0.0325
474.00,0.0322
473.00,0.0321
472.00,0.0322
471.00,0.0324
470.00,0.0326
469.00,0.0327
468.00,0.0329
467.00,0.0331
466.00,0.0333
465.00,0.0333
464.00,0.0332
463.00,0.0330
462.00,0.0328
461.00,0.0328
460.00,0.0330
459.00,0.0333
458.00,0.0336
457.00,0.0335
456.00,0.0333
455.00,0.0331
454.00,0.0331
453.00,0.0331
452.00,0.0331
451.00,0.0329
450.00,0.0326
449.00,0.0324
448.00,0.0325
447.00,0.0327
446.00,0.0330
445.00,0.0331
444.00,0.0330
443.00,0.0327
442.00,0.0324
441.00,0.0323
440.00,0.0322
439.00,0.0323
438.00,0.0325
437.00,0.0326
436.00,0.0326
435.00,0.0325
434.00,0.0322
433.00,0.0319
432.00,0.0317
431.00,0.0314
430.00,0.0313
429.00,0.0311
428.00,0.0310
427.00,0.0308
426.00,0.0307
425.00,0.0308
424.00,0.0312
423.00,0.0316
422.00,0.0317
421.00,0.0314
420.00,0.0310
419.00,0.0309
418.00,0.0315
417.00,0.0323
416.00,0.0327
415.00,0.0328
414.00,0.0329
413.00,0.0333
412.00,0.0340
411.00,0.0344
410.00,0.0341
409.00,0.0336
408.00,0.0332
407.00,0.0329
406.00,0.0324
405.00,0.0317
404.00,0.0312
403.00,0.0310
402.00,0.0312
401.00,0.0317
400.00,0.0319
