Created as New Dataset,Sample 947 By YargerLab Date Monday, July 28 2025
cm-1,A
4000.00,0.0043
3999.00,0.0043
3998.00,0.0043
3997.00,0.0043
3996.00,0.0043
3995.00,0.0043
3994.00,0.0043
3993.00,0.0043
3992.00,0.0043
3991.00,0.0043
3990.00,0.0043
3989.00,0.0043
3988.00,0.0043
3987.00,0.0043
3986.00,0.0043
3985.00,0.0043
3984.00,0.0043
3983.00,0.0043
3982.00,0.0043
3981.00,0.0043
3980.00,0.0043
3979.00,0.0043
3978.00,0.0043
3977.00,0.0043
3976.00,0.0043
3975.00,0.0043
3974.00,0.0043
3973.00,0.0043
3972.00,0.0043
3971.00,0.0043
3970.00,0.0043
3969.00,0.0043
3968.00,0.0043
3967.00,0.0043
3966.00,0.0044
3965.00,0.0044
3964.00,0.0043
3963.00,0.0043
3962.00,0.0043
3961.00,0.0043
3960.00,0.0043
3959.00,0.0043
3958.00,0.0043
3957.00,0.0043
3956.00,0.0043
3955.00,0.0043
3954.00,0.0043
3953.00,0.0043
3952.00,0.0043
3951.00,0.0043
3950.00,0.0043
3949.00,0.0043
3948.00,0.0043
3947.00,0.0043
3946.00,0.0043
3945.00,0.0043
3944.00,0.0043
3943.00,0.0043
3942.00,0.0043
3941.00,0.0043
3940.00,0.0043
3939.00,0.0043
3938.00,0.0043
3937.00,0.0043
3936.00,0.0043
3935.00,0.0043
3934.00,0.0043
3933.00,0.0043
3932.00,0.0043
3931.00,0.0043
3930.00,0.0043
3929.00,0.0043
3928.00,0.0043
3927.00,0.0043
3926.00,0.0043
3925.00,0.0043
3924.00,0.0043
3923.00,0.0042
3922.00,0.0042
3921.00,0.0042
3920.00,0.0043
3919.00,0.0043
3918.00,0.0043
3917.00,0.0043
3916.00,0.0043
3915.00,0.0043
3914.00,0.0043
3913.00,0.0043
3912.00,0.0043
3911.00,0.0043
3910.00,0.0043
3909.00,0.0043
3908.00,0.0043
3907.00,0.0043
3906.00,0.0043
3905.00,0.0043
3904.00,0.0043
3903.00,0.0043
3902.00,0.0042
3901.00,0.0042
3900.00,0.0042
3899.00,0.0042
3898.00,0.0042
3897.00,0.0043
3896.00,0.0043
3895.00,0.0043
3894.00,0.0043
3893.00,0.0043
3892.00,0.0043
3891.00,0.0043
3890.00,0.0043
3889.00,0.0043
3888.00,0.0043
3887.00,0.0043
3886.00,0.0042
3885.00,0.0042
3884.00,0.0042
3883.00,0.0042
3882.00,0.0042
3881.00,0.0042
3880.00,0.0042
3879.00,0.0042
3878.00,0.0042
3877.00,0.0042
3876.00,0.0042
3875.00,0.0042
3874.00,0.0042
3873.00,0.0043
3872.00,0.0043
3871.00,0.0043
3870.00,0.0042
3869.00,0.0042
3868.00,0.0042
3867.00,0.0042
3866.00,0.0042
3865.00,0.0042
3864.00,0.0043
3863.00,0.0043
3862.00,0.0043
3861.00,0.0043
3860.00,0.0043
3859.00,0.0043
3858.00,0.0043
3857.00,0.0043
3856.00,0.0043
3855.00,0.0043
3854.00,0.0042
3853.00,0.0042
3852.00,0.0043
3851.00,0.0043
3850.00,0.0042
3849.00,0.0042
3848.00,0.0042
3847.00,0.0042
3846.00,0.0042
3845.00,0.0042
3844.00,0.0042
3843.00,0.0042
3842.00,0.0042
3841.00,0.0042
3840.00,0.0043
3839.00,0.0043
3838.00,0.0043
3837.00,0.0043
3836.00,0.0043
3835.00,0.0042
3834.00,0.0042
3833.00,0.0042
3832.00,0.0042
3831.00,0.0042
3830.00,0.0043
3829.00,0.0042
3828.00,0.0042
3827.00,0.0042
3826.00,0.0042
3825.00,0.0042
3824.00,0.0043
3823.00,0.0042
3822.00,0.0042
3821.00,0.0042
3820.00,0.0043
3819.00,0.0043
3818.00,0.0043
3817.00,0.0042
3816.00,0.0042
3815.00,0.0042
3814.00,0.0042
3813.00,0.0043
3812.00,0.0043
3811.00,0.0042
3810.00,0.0042
3809.00,0.0042
3808.00,0.0042
3807.00,0.0042
3806.00,0.0043
3805.00,0.0043
3804.00,0.0043
3803.00,0.0043
3802.00,0.0042
3801.00,0.0042
3800.00,0.0042
3799.00,0.0042
3798.00,0.0042
3797.00,0.0041
3796.00,0.0042
3795.00,0.0042
3794.00,0.0042
3793.00,0.0043
3792.00,0.0043
3791.00,0.0043
3790.00,0.0043
3789.00,0.0043
3788.00,0.0043
3787.00,0.0042
3786.00,0.0042
3785.00,0.0042
3784.00,0.0042
3783.00,0.0042
3782.00,0.0043
3781.00,0.0043
3780.00,0.0043
3779.00,0.0043
3778.00,0.0043
3777.00,0.0042
3776.00,0.0042
3775.00,0.0042
3774.00,0.0042
3773.00,0.0043
3772.00,0.0043
3771.00,0.0043
3770.00,0.0043
3769.00,0.0043
3768.00,0.0043
3767.00,0.0043
3766.00,0.0043
3765.00,0.0043
3764.00,0.0043
3763.00,0.0043
3762.00,0.0043
3761.00,0.0043
3760.00,0.0043
3759.00,0.0043
3758.00,0.0043
3757.00,0.0043
3756.00,0.0043
3755.00,0.0043
3754.00,0.0043
3753.00,0.0043
3752.00,0.0043
3751.00,0.0044
3750.00,0.0043
3749.00,0.0043
3748.00,0.0043
3747.00,0.0043
3746.00,0.0043
3745.00,0.0042
3744.00,0.0042
3743.00,0.0042
3742.00,0.0042
3741.00,0.0042
3740.00,0.0042
3739.00,0.0042
3738.00,0.0042
3737.00,0.0042
3736.00,0.0042
3735.00,0.0042
3734.00,0.0041
3733.00,0.0041
3732.00,0.0041
3731.00,0.0041
3730.00,0.0041
3729.00,0.0041
3728.00,0.0041
3727.00,0.0041
3726.00,0.0041
3725.00,0.0041
3724.00,0.0041
3723.00,0.0041
3722.00,0.0041
3721.00,0.0042
3720.00,0.0042
3719.00,0.0042
3718.00,0.0042
3717.00,0.0042
3716.00,0.0042
3715.00,0.0042
3714.00,0.0042
3713.00,0.0042
3712.00,0.0042
3711.00,0.0042
3710.00,0.0042
3709.00,0.0042
3708.00,0.0041
3707.00,0.0041
3706.00,0.0041
3705.00,0.0041
3704.00,0.0041
3703.00,0.0041
3702.00,0.0041
3701.00,0.0040
3700.00,0.0040
3699.00,0.0040
3698.00,0.0041
3697.00,0.0041
3696.00,0.0041
3695.00,0.0041
3694.00,0.0041
3693.00,0.0041
3692.00,0.0041
3691.00,0.0041
3690.00,0.0041
3689.00,0.0041
3688.00,0.0041
3687.00,0.0041
3686.00,0.0042
3685.00,0.0042
3684.00,0.0042
3683.00,0.0043
3682.00,0.0043
3681.00,0.0043
3680.00,0.0043
3679.00,0.0044
3678.00,0.0044
3677.00,0.0044
3676.00,0.0043
3675.00,0.0043
3674.00,0.0043
3673.00,0.0043
3672.00,0.0043
3671.00,0.0043
3670.00,0.0043
3669.00,0.0043
3668.00,0.0043
3667.00,0.0043
3666.00,0.0044
3665.00,0.0044
3664.00,0.0045
3663.00,0.0045
3662.00,0.0045
3661.00,0.0045
3660.00,0.0045
3659.00,0.0045
3658.00,0.0045
3657.00,0.0045
3656.00,0.0045
3655.00,0.0045
3654.00,0.0045
3653.00,0.0045
3652.00,0.0046
3651.00,0.0046
3650.00,0.0046
3649.00,0.0046
3648.00,0.0046
3647.00,0.0046
3646.00,0.0046
3645.00,0.0046
3644.00,0.0046
3643.00,0.0046
3642.00,0.0047
3641.00,0.0047
3640.00,0.0047
3639.00,0.0047
3638.00,0.0048
3637.00,0.0048
3636.00,0.0048
3635.00,0.0048
3634.00,0.0048
3633.00,0.0048
3632.00,0.0048
3631.00,0.0049
3630.00,0.0049
3629.00,0.0049
3628.00,0.0049
3627.00,0.0049
3626.00,0.0050
3625.00,0.0050
3624.00,0.0050
3623.00,0.0050
3622.00,0.0051
3621.00,0.0051
3620.00,0.0051
3619.00,0.0052
3618.00,0.0052
3617.00,0.0052
3616.00,0.0053
3615.00,0.0053
3614.00,0.0053
3613.00,0.0054
3612.00,0.0055
3611.00,0.0055
3610.00,0.0056
3609.00,0.0056
3608.00,0.0057
3607.00,0.0057
3606.00,0.0057
3605.00,0.0057
3604.00,0.0058
3603.00,0.0058
3602.00,0.0059
3601.00,0.0059
3600.00,0.0060
3599.00,0.0060
3598.00,0.0060
3597.00,0.0060
3596.00,0.0061
3595.00,0.0061
3594.00,0.0062
3593.00,0.0063
3592.00,0.0063
3591.00,0.0064
3590.00,0.0064
3589.00,0.0064
3588.00,0.0065
3587.00,0.0065
3586.00,0.0066
3585.00,0.0066
3584.00,0.0067
3583.00,0.0068
3582.00,0.0068
3581.00,0.0069
3580.00,0.0070
3579.00,0.0070
3578.00,0.0071
3577.00,0.0072
3576.00,0.0073
3575.00,0.0073
3574.00,0.0074
3573.00,0.0075
3572.00,0.0075
3571.00,0.0076
3570.00,0.0077
3569.00,0.0077
3568.00,0.0077
3567.00,0.0078
3566.00,0.0078
3565.00,0.0079
3564.00,0.0079
3563.00,0.0080
3562.00,0.0081
3561.00,0.0082
3560.00,0.0083
3559.00,0.0083
3558.00,0.0084
3557.00,0.0084
3556.00,0.0085
3555.00,0.0085
3554.00,0.0086
3553.00,0.0087
3552.00,0.0087
3551.00,0.0088
3550.00,0.0089
3549.00,0.0090
3548.00,0.0090
3547.00,0.0091
3546.00,0.0091
3545.00,0.0092
3544.00,0.0093
3543.00,0.0093
3542.00,0.0094
3541.00,0.0094
3540.00,0.0095
3539.00,0.0095
3538.00,0.0096
3537.00,0.0097
3536.00,0.0098
3535.00,0.0099
3534.00,0.0099
3533.00,0.0100
3532.00,0.0100
3531.00,0.0100
3530.00,0.0101
3529.00,0.0101
3528.00,0.0102
3527.00,0.0102
3526.00,0.0103
3525.00,0.0103
3524.00,0.0104
3523.00,0.0104
3522.00,0.0105
3521.00,0.0105
3520.00,0.0105
3519.00,0.0106
3518.00,0.0106
3517.00,0.0106
3516.00,0.0106
3515.00,0.0107
3514.00,0.0107
3513.00,0.0107
3512.00,0.0108
3511.00,0.0108
3510.00,0.0108
3509.00,0.0109
3508.00,0.0109
3507.00,0.0110
3506.00,0.0110
3505.00,0.0110
3504.00,0.0110
3503.00,0.0111
3502.00,0.0111
3501.00,0.0111
3500.00,0.0111
3499.00,0.0112
3498.00,0.0112
3497.00,0.0112
3496.00,0.0113
3495.00,0.0113
3494.00,0.0114
3493.00,0.0114
3492.00,0.0115
3491.00,0.0115
3490.00,0.0116
3489.00,0.0116
3488.00,0.0116
3487.00,0.0117
3486.00,0.0117
3485.00,0.0117
3484.00,0.0118
3483.00,0.0119
3482.00,0.0119
3481.00,0.0120
3480.00,0.0120
3479.00,0.0121
3478.00,0.0121
3477.00,0.0122
3476.00,0.0122
3475.00,0.0123
3474.00,0.0124
3473.00,0.0124
3472.00,0.0125
3471.00,0.0126
3470.00,0.0126
3469.00,0.0127
3468.00,0.0128
3467.00,0.0128
3466.00,0.0129
3465.00,0.0129
3464.00,0.0130
3463.00,0.0131
3462.00,0.0131
3461.00,0.0132
3460.00,0.0133
3459.00,0.0133
3458.00,0.0134
3457.00,0.0134
3456.00,0.0135
3455.00,0.0136
3454.00,0.0137
3453.00,0.0137
3452.00,0.0138
3451.00,0.0139
3450.00,0.0139
3449.00,0.0140
3448.00,0.0141
3447.00,0.0141
3446.00,0.0142
3445.00,0.0143
3444.00,0.0144
3443.00,0.0145
3442.00,0.0146
3441.00,0.0146
3440.00,0.0147
3439.00,0.0148
3438.00,0.0148
3437.00,0.0149
3436.00,0.0150
3435.00,0.0151
3434.00,0.0152
3433.00,0.0153
3432.00,0.0154
3431.00,0.0155
3430.00,0.0156
3429.00,0.0157
3428.00,0.0158
3427.00,0.0158
3426.00,0.0159
3425.00,0.0160
3424.00,0.0161
3423.00,0.0162
3422.00,0.0163
3421.00,0.0164
3420.00,0.0166
3419.00,0.0167
3418.00,0.0168
3417.00,0.0169
3416.00,0.0170
3415.00,0.0171
3414.00,0.0171
3413.00,0.0172
3412.00,0.0173
3411.00,0.0174
3410.00,0.0175
3409.00,0.0176
3408.00,0.0177
3407.00,0.0177
3406.00,0.0178
3405.00,0.0178
3404.00,0.0178
3403.00,0.0178
3402.00,0.0179
3401.00,0.0179
3400.00,0.0179
3399.00,0.0179
3398.00,0.0179
3397.00,0.0179
3396.00,0.0179
3395.00,0.0178
3394.00,0.0178
3393.00,0.0178
3392.00,0.0177
3391.00,0.0177
3390.00,0.0176
3389.00,0.0176
3388.00,0.0175
3387.00,0.0174
3386.00,0.0174
3385.00,0.0173
3384.00,0.0172
3383.00,0.0171
3382.00,0.0170
3381.00,0.0169
3380.00,0.0168
3379.00,0.0168
3378.00,0.0167
3377.00,0.0166
3376.00,0.0166
3375.00,0.0165
3374.00,0.0164
3373.00,0.0163
3372.00,0.0162
3371.00,0.0160
3370.00,0.0159
3369.00,0.0158
3368.00,0.0157
3367.00,0.0157
3366.00,0.0157
3365.00,0.0157
3364.00,0.0156
3363.00,0.0156
3362.00,0.0155
3361.00,0.0154
3360.00,0.0153
3359.00,0.0153
3358.00,0.0152
3357.00,0.0152
3356.00,0.0151
3355.00,0.0151
3354.00,0.0150
3353.00,0.0149
3352.00,0.0148
3351.00,0.0147
3350.00,0.0147
3349.00,0.0147
3348.00,0.0147
3347.00,0.0147
3346.00,0.0146
3345.00,0.0146
3344.00,0.0146
3343.00,0.0145
3342.00,0.0145
3341.00,0.0145
3340.00,0.0144
3339.00,0.0144
3338.00,0.0143
3337.00,0.0143
3336.00,0.0144
3335.00,0.0144
3334.00,0.0144
3333.00,0.0144
3332.00,0.0144
3331.00,0.0144
3330.00,0.0144
3329.00,0.0143
3328.00,0.0142
3327.00,0.0142
3326.00,0.0141
3325.00,0.0141
3324.00,0.0142
3323.00,0.0142
3322.00,0.0142
3321.00,0.0143
3320.00,0.0143
3319.00,0.0143
3318.00,0.0143
3317.00,0.0143
3316.00,0.0143
3315.00,0.0143
3314.00,0.0143
3313.00,0.0143
3312.00,0.0142
3311.00,0.0142
3310.00,0.0141
3309.00,0.0140
3308.00,0.0140
3307.00,0.0140
3306.00,0.0140
3305.00,0.0141
3304.00,0.0142
3303.00,0.0143
3302.00,0.0144
3301.00,0.0144
3300.00,0.0145
3299.00,0.0144
3298.00,0.0144
3297.00,0.0144
3296.00,0.0143
3295.00,0.0143
3294.00,0.0143
3293.00,0.0144
3292.00,0.0145
3291.00,0.0146
3290.00,0.0146
3289.00,0.0147
3288.00,0.0147
3287.00,0.0148
3286.00,0.0148
3285.00,0.0148
3284.00,0.0149
3283.00,0.0149
3282.00,0.0149
3281.00,0.0149
3280.00,0.0149
3279.00,0.0149
3278.00,0.0149
3277.00,0.0149
3276.00,0.0149
3275.00,0.0149
3274.00,0.0149
3273.00,0.0149
3272.00,0.0149
3271.00,0.0149
3270.00,0.0150
3269.00,0.0150
3268.00,0.0151
3267.00,0.0152
3266.00,0.0152
3265.00,0.0152
3264.00,0.0152
3263.00,0.0152
3262.00,0.0153
3261.00,0.0153
3260.00,0.0153
3259.00,0.0153
3258.00,0.0154
3257.00,0.0154
3256.00,0.0154
3255.00,0.0154
3254.00,0.0155
3253.00,0.0155
3252.00,0.0155
3251.00,0.0155
3250.00,0.0155
3249.00,0.0155
3248.00,0.0155
3247.00,0.0155
3246.00,0.0156
3245.00,0.0156
3244.00,0.0157
3243.00,0.0157
3242.00,0.0157
3241.00,0.0157
3240.00,0.0157
3239.00,0.0156
3238.00,0.0156
3237.00,0.0155
3236.00,0.0155
3235.00,0.0155
3234.00,0.0154
3233.00,0.0154
3232.00,0.0154
3231.00,0.0154
3230.00,0.0154
3229.00,0.0154
3228.00,0.0154
3227.00,0.0154
3226.00,0.0154
3225.00,0.0154
3224.00,0.0153
3223.00,0.0153
3222.00,0.0153
3221.00,0.0152
3220.00,0.0152
3219.00,0.0151
3218.00,0.0150
3217.00,0.0150
3216.00,0.0149
3215.00,0.0149
3214.00,0.0148
3213.00,0.0148
3212.00,0.0147
3211.00,0.0146
3210.00,0.0146
3209.00,0.0145
3208.00,0.0144
3207.00,0.0143
3206.00,0.0143
3205.00,0.0142
3204.00,0.0141
3203.00,0.0140
3202.00,0.0139
3201.00,0.0138
3200.00,0.0138
3199.00,0.0137
3198.00,0.0136
3197.00,0.0135
3196.00,0.0135
3195.00,0.0134
3194.00,0.0133
3193.00,0.0133
3192.00,0.0132
3191.00,0.0131
3190.00,0.0130
3189.00,0.0129
3188.00,0.0129
3187.00,0.0128
3186.00,0.0127
3185.00,0.0126
3184.00,0.0125
3183.00,0.0125
3182.00,0.0124
3181.00,0.0123
3180.00,0.0123
3179.00,0.0122
3178.00,0.0121
3177.00,0.0120
3176.00,0.0119
3175.00,0.0118
3174.00,0.0117
3173.00,0.0117
3172.00,0.0116
3171.00,0.0115
3170.00,0.0115
3169.00,0.0114
3168.00,0.0113
3167.00,0.0112
3166.00,0.0111
3165.00,0.0110
3164.00,0.0109
3163.00,0.0108
3162.00,0.0107
3161.00,0.0107
3160.00,0.0106
3159.00,0.0105
3158.00,0.0105
3157.00,0.0104
3156.00,0.0103
3155.00,0.0102
3154.00,0.0101
3153.00,0.0100
3152.00,0.0099
3151.00,0.0099
3150.00,0.0098
3149.00,0.0098
3148.00,0.0097
3147.00,0.0096
3146.00,0.0096
3145.00,0.0095
3144.00,0.0094
3143.00,0.0094
3142.00,0.0093
3141.00,0.0092
3140.00,0.0092
3139.00,0.0091
3138.00,0.0090
3137.00,0.0090
3136.00,0.0089
3135.00,0.0089
3134.00,0.0088
3133.00,0.0088
3132.00,0.0087
3131.00,0.0087
3130.00,0.0086
3129.00,0.0086
3128.00,0.0086
3127.00,0.0085
3126.00,0.0085
3125.00,0.0084
3124.00,0.0084
3123.00,0.0083
3122.00,0.0083
3121.00,0.0083
3120.00,0.0083
3119.00,0.0082
3118.00,0.0081
3117.00,0.0081
3116.00,0.0080
3115.00,0.0080
3114.00,0.0079
3113.00,0.0079
3112.00,0.0079
3111.00,0.0078
3110.00,0.0078
3109.00,0.0077
3108.00,0.0077
3107.00,0.0077
3106.00,0.0076
3105.00,0.0076
3104.00,0.0075
3103.00,0.0075
3102.00,0.0075
3101.00,0.0074
3100.00,0.0074
3099.00,0.0074
3098.00,0.0074
3097.00,0.0074
3096.00,0.0073
3095.00,0.0073
3094.00,0.0073
3093.00,0.0073
3092.00,0.0073
3091.00,0.0074
3090.00,0.0074
3089.00,0.0074
3088.00,0.0074
3087.00,0.0074
3086.00,0.0074
3085.00,0.0074
3084.00,0.0074
3083.00,0.0073
3082.00,0.0074
3081.00,0.0074
3080.00,0.0073
3079.00,0.0073
3078.00,0.0073
3077.00,0.0073
3076.00,0.0072
3075.00,0.0072
3074.00,0.0072
3073.00,0.0072
3072.00,0.0072
3071.00,0.0072
3070.00,0.0072
3069.00,0.0071
3068.00,0.0071
3067.00,0.0071
3066.00,0.0071
3065.00,0.0071
3064.00,0.0071
3063.00,0.0071
3062.00,0.0071
3061.00,0.0071
3060.00,0.0071
3059.00,0.0071
3058.00,0.0071
3057.00,0.0071
3056.00,0.0072
3055.00,0.0071
3054.00,0.0071
3053.00,0.0071
3052.00,0.0071
3051.00,0.0071
3050.00,0.0071
3049.00,0.0071
3048.00,0.0071
3047.00,0.0071
3046.00,0.0071
3045.00,0.0071
3044.00,0.0071
3043.00,0.0071
3042.00,0.0071
3041.00,0.0072
3040.00,0.0072
3039.00,0.0072
3038.00,0.0073
3037.00,0.0073
3036.00,0.0074
3035.00,0.0074
3034.00,0.0075
3033.00,0.0075
3032.00,0.0075
3031.00,0.0075
3030.00,0.0074
3029.00,0.0074
3028.00,0.0074
3027.00,0.0073
3026.00,0.0073
3025.00,0.0073
3024.00,0.0072
3023.00,0.0072
3022.00,0.0072
3021.00,0.0072
3020.00,0.0072
3019.00,0.0071
3018.00,0.0071
3017.00,0.0072
3016.00,0.0072
3015.00,0.0072
3014.00,0.0072
3013.00,0.0073
3012.00,0.0074
3011.00,0.0075
3010.00,0.0076
3009.00,0.0077
3008.00,0.0079
3007.00,0.0080
3006.00,0.0082
3005.00,0.0084
3004.00,0.0086
3003.00,0.0089
3002.00,0.0092
3001.00,0.0094
3000.00,0.0097
2999.00,0.0101
2998.00,0.0104
2997.00,0.0108
2996.00,0.0112
2995.00,0.0115
2994.00,0.0119
2993.00,0.0122
2992.00,0.0126
2991.00,0.0129
2990.00,0.0132
2989.00,0.0135
2988.00,0.0139
2987.00,0.0142
2986.00,0.0146
2985.00,0.0150
2984.00,0.0155
2983.00,0.0161
2982.00,0.0167
2981.00,0.0172
2980.00,0.0177
2979.00,0.0180
2978.00,0.0182
2977.00,0.0184
2976.00,0.0186
2975.00,0.0189
2974.00,0.0193
2973.00,0.0199
2972.00,0.0205
2971.00,0.0210
2970.00,0.0215
2969.00,0.0218
2968.00,0.0221
2967.00,0.0223
2966.00,0.0225
2965.00,0.0228
2964.00,0.0231
2963.00,0.0234
2962.00,0.0237
2961.00,0.0239
2960.00,0.0240
2959.00,0.0240
2958.00,0.0238
2957.00,0.0235
2956.00,0.0232
2955.00,0.0227
2954.00,0.0223
2953.00,0.0219
2952.00,0.0216
2951.00,0.0213
2950.00,0.0210
2949.00,0.0208
2948.00,0.0207
2947.00,0.0207
2946.00,0.0208
2945.00,0.0210
2944.00,0.0212
2943.00,0.0215
2942.00,0.0218
2941.00,0.0222
2940.00,0.0227
2939.00,0.0232
2938.00,0.0238
2937.00,0.0245
2936.00,0.0254
2935.00,0.0262
2934.00,0.0272
2933.00,0.0281
2932.00,0.0291
2931.00,0.0299
2930.00,0.0307
2929.00,0.0313
2928.00,0.0316
2927.00,0.0317
2926.00,0.0316
2925.00,0.0312
2924.00,0.0306
2923.00,0.0299
2922.00,0.0291
2921.00,0.0282
2920.00,0.0273
2919.00,0.0264
2918.00,0.0256
2917.00,0.0248
2916.00,0.0242
2915.00,0.0236
2914.00,0.0231
2913.00,0.0226
2912.00,0.0222
2911.00,0.0218
2910.00,0.0215
2909.00,0.0211
2908.00,0.0207
2907.00,0.0203
2906.00,0.0200
2905.00,0.0196
2904.00,0.0193
2903.00,0.0190
2902.00,0.0188
2901.00,0.0185
2900.00,0.0183
2899.00,0.0181
2898.00,0.0179
2897.00,0.0177
2896.00,0.0176
2895.00,0.0174
2894.00,0.0173
2893.00,0.0172
2892.00,0.0171
2891.00,0.0170
2890.00,0.0169
2889.00,0.0168
2888.00,0.0167
2887.00,0.0166
2886.00,0.0165
2885.00,0.0165
2884.00,0.0164
2883.00,0.0164
2882.00,0.0165
2881.00,0.0166
2880.00,0.0167
2879.00,0.0169
2878.00,0.0172
2877.00,0.0175
2876.00,0.0178
2875.00,0.0181
2874.00,0.0183
2873.00,0.0185
2872.00,0.0187
2871.00,0.0187
2870.00,0.0186
2869.00,0.0185
2868.00,0.0184
2867.00,0.0183
2866.00,0.0183
2865.00,0.0185
2864.00,0.0188
2863.00,0.0193
2862.00,0.0198
2861.00,0.0205
2860.00,0.0211
2859.00,0.0217
2858.00,0.0221
2857.00,0.0223
2856.00,0.0223
2855.00,0.0221
2854.00,0.0217
2853.00,0.0212
2852.00,0.0206
2851.00,0.0198
2850.00,0.0189
2849.00,0.0180
2848.00,0.0171
2847.00,0.0163
2846.00,0.0156
2845.00,0.0149
2844.00,0.0143
2843.00,0.0138
2842.00,0.0132
2841.00,0.0127
2840.00,0.0122
2839.00,0.0119
2838.00,0.0115
2837.00,0.0112
2836.00,0.0110
2835.00,0.0108
2834.00,0.0105
2833.00,0.0103
2832.00,0.0101
2831.00,0.0099
2830.00,0.0097
2829.00,0.0095
2828.00,0.0093
2827.00,0.0092
2826.00,0.0090
2825.00,0.0088
2824.00,0.0087
2823.00,0.0085
2822.00,0.0084
2821.00,0.0083
2820.00,0.0082
2819.00,0.0080
2818.00,0.0079
2817.00,0.0079
2816.00,0.0078
2815.00,0.0077
2814.00,0.0077
2813.00,0.0076
2812.00,0.0075
2811.00,0.0075
2810.00,0.0075
2809.00,0.0074
2808.00,0.0074
2807.00,0.0074
2806.00,0.0073
2805.00,0.0072
2804.00,0.0072
2803.00,0.0071
2802.00,0.0070
2801.00,0.0070
2800.00,0.0070
2799.00,0.0070
2798.00,0.0069
2797.00,0.0069
2796.00,0.0069
2795.00,0.0068
2794.00,0.0068
2793.00,0.0067
2792.00,0.0067
2791.00,0.0067
2790.00,0.0066
2789.00,0.0066
2788.00,0.0066
2787.00,0.0065
2786.00,0.0065
2785.00,0.0065
2784.00,0.0064
2783.00,0.0064
2782.00,0.0064
2781.00,0.0064
2780.00,0.0064
2779.00,0.0064
2778.00,0.0063
2777.00,0.0063
2776.00,0.0063
2775.00,0.0062
2774.00,0.0062
2773.00,0.0062
2772.00,0.0062
2771.00,0.0062
2770.00,0.0061
2769.00,0.0061
2768.00,0.0061
2767.00,0.0061
2766.00,0.0061
2765.00,0.0061
2764.00,0.0061
2763.00,0.0061
2762.00,0.0061
2761.00,0.0061
2760.00,0.0062
2759.00,0.0062
2758.00,0.0061
2757.00,0.0061
2756.00,0.0061
2755.00,0.0061
2754.00,0.0061
2753.00,0.0061
2752.00,0.0061
2751.00,0.0061
2750.00,0.0061
2749.00,0.0061
2748.00,0.0061
2747.00,0.0061
2746.00,0.0061
2745.00,0.0061
2744.00,0.0061
2743.00,0.0062
2742.00,0.0062
2741.00,0.0062
2740.00,0.0062
2739.00,0.0062
2738.00,0.0062
2737.00,0.0063
2736.00,0.0063
2735.00,0.0063
2734.00,0.0063
2733.00,0.0064
2732.00,0.0064
2731.00,0.0064
2730.00,0.0064
2729.00,0.0064
2728.00,0.0064
2727.00,0.0064
2726.00,0.0064
2725.00,0.0063
2724.00,0.0063
2723.00,0.0063
2722.00,0.0062
2721.00,0.0062
2720.00,0.0062
2719.00,0.0062
2718.00,0.0062
2717.00,0.0062
2716.00,0.0062
2715.00,0.0062
2714.00,0.0062
2713.00,0.0062
2712.00,0.0061
2711.00,0.0061
2710.00,0.0061
2709.00,0.0061
2708.00,0.0061
2707.00,0.0060
2706.00,0.0060
2705.00,0.0060
2704.00,0.0060
2703.00,0.0060
2702.00,0.0060
2701.00,0.0060
2700.00,0.0060
2699.00,0.0060
2698.00,0.0060
2697.00,0.0059
2696.00,0.0059
2695.00,0.0059
2694.00,0.0059
2693.00,0.0059
2692.00,0.0058
2691.00,0.0058
2690.00,0.0058
2689.00,0.0058
2688.00,0.0058
2687.00,0.0058
2686.00,0.0058
2685.00,0.0058
2684.00,0.0058
2683.00,0.0058
2682.00,0.0058
2681.00,0.0058
2680.00,0.0057
2679.00,0.0057
2678.00,0.0057
2677.00,0.0057
2676.00,0.0057
2675.00,0.0057
2674.00,0.0057
2673.00,0.0057
2672.00,0.0058
2671.00,0.0058
2670.00,0.0058
2669.00,0.0058
2668.00,0.0059
2667.00,0.0059
2666.00,0.0059
2665.00,0.0060
2664.00,0.0060
2663.00,0.0061
2662.00,0.0061
2661.00,0.0061
2660.00,0.0062
2659.00,0.0063
2658.00,0.0063
2657.00,0.0063
2656.00,0.0063
2655.00,0.0063
2654.00,0.0063
2653.00,0.0063
2652.00,0.0063
2651.00,0.0063
2650.00,0.0063
2649.00,0.0063
2648.00,0.0063
2647.00,0.0063
2646.00,0.0063
2645.00,0.0063
2644.00,0.0063
2643.00,0.0063
2642.00,0.0063
2641.00,0.0063
2640.00,0.0063
2639.00,0.0063
2638.00,0.0063
2637.00,0.0063
2636.00,0.0062
2635.00,0.0062
2634.00,0.0062
2633.00,0.0061
2632.00,0.0061
2631.00,0.0061
2630.00,0.0061
2629.00,0.0061
2628.00,0.0061
2627.00,0.0060
2626.00,0.0060
2625.00,0.0060
2624.00,0.0060
2623.00,0.0059
2622.00,0.0059
2621.00,0.0059
2620.00,0.0059
2619.00,0.0059
2618.00,0.0059
2617.00,0.0059
2616.00,0.0059
2615.00,0.0059
2614.00,0.0059
2613.00,0.0059
2612.00,0.0059
2611.00,0.0059
2610.00,0.0059
2609.00,0.0059
2608.00,0.0059
2607.00,0.0058
2606.00,0.0058
2605.00,0.0058
2604.00,0.0058
2603.00,0.0059
2602.00,0.0059
2601.00,0.0059
2600.00,0.0059
2599.00,0.0059
2598.00,0.0059
2597.00,0.0059
2596.00,0.0059
2595.00,0.0059
2594.00,0.0059
2593.00,0.0059
2592.00,0.0059
2591.00,0.0059
2590.00,0.0059
2589.00,0.0059
2588.00,0.0059
2587.00,0.0059
2586.00,0.0059
2585.00,0.0059
2584.00,0.0059
2583.00,0.0059
2582.00,0.0059
2581.00,0.0059
2580.00,0.0059
2579.00,0.0059
2578.00,0.0058
2577.00,0.0058
2576.00,0.0058
2575.00,0.0058
2574.00,0.0058
2573.00,0.0058
2572.00,0.0058
2571.00,0.0057
2570.00,0.0057
2569.00,0.0057
2568.00,0.0058
2567.00,0.0058
2566.00,0.0057
2565.00,0.0057
2564.00,0.0057
2563.00,0.0057
2562.00,0.0057
2561.00,0.0057
2560.00,0.0057
2559.00,0.0056
2558.00,0.0056
2557.00,0.0056
2556.00,0.0056
2555.00,0.0056
2554.00,0.0056
2553.00,0.0056
2552.00,0.0056
2551.00,0.0056
2550.00,0.0056
2549.00,0.0056
2548.00,0.0055
2547.00,0.0055
2546.00,0.0055
2545.00,0.0055
2544.00,0.0054
2543.00,0.0054
2542.00,0.0054
2541.00,0.0054
2540.00,0.0055
2539.00,0.0055
2538.00,0.0055
2537.00,0.0054
2536.00,0.0054
2535.00,0.0054
2534.00,0.0054
2533.00,0.0054
2532.00,0.0054
2531.00,0.0054
2530.00,0.0054
2529.00,0.0053
2528.00,0.0053
2527.00,0.0053
2526.00,0.0053
2525.00,0.0053
2524.00,0.0053
2523.00,0.0053
2522.00,0.0053
2521.00,0.0053
2520.00,0.0053
2519.00,0.0053
2518.00,0.0053
2517.00,0.0053
2516.00,0.0053
2515.00,0.0053
2514.00,0.0052
2513.00,0.0052
2512.00,0.0052
2511.00,0.0052
2510.00,0.0052
2509.00,0.0051
2508.00,0.0051
2507.00,0.0051
2506.00,0.0051
2505.00,0.0051
2504.00,0.0051
2503.00,0.0051
2502.00,0.0050
2501.00,0.0050
2500.00,0.0050
2499.00,0.0050
2498.00,0.0050
2497.00,0.0050
2496.00,0.0051
2495.00,0.0051
2494.00,0.0051
2493.00,0.0050
2492.00,0.0050
2491.00,0.0049
2490.00,0.0049
2489.00,0.0049
2488.00,0.0049
2487.00,0.0050
2486.00,0.0050
2485.00,0.0050
2484.00,0.0049
2483.00,0.0049
2482.00,0.0049
2481.00,0.0048
2480.00,0.0049
2479.00,0.0049
2478.00,0.0049
2477.00,0.0049
2476.00,0.0049
2475.00,0.0049
2474.00,0.0049
2473.00,0.0049
2472.00,0.0049
2471.00,0.0049
2470.00,0.0049
2469.00,0.0048
2468.00,0.0048
2467.00,0.0049
2466.00,0.0049
2465.00,0.0049
2464.00,0.0049
2463.00,0.0049
2462.00,0.0049
2461.00,0.0049
2460.00,0.0050
2459.00,0.0050
2458.00,0.0050
2457.00,0.0050
2456.00,0.0051
2455.00,0.0051
2454.00,0.0050
2453.00,0.0050
2452.00,0.0050
2451.00,0.0049
2450.00,0.0049
2449.00,0.0049
2448.00,0.0048
2447.00,0.0048
2446.00,0.0048
2445.00,0.0048
2444.00,0.0048
2443.00,0.0048
2442.00,0.0048
2441.00,0.0048
2440.00,0.0048
2439.00,0.0048
2438.00,0.0047
2437.00,0.0047
2436.00,0.0047
2435.00,0.0047
2434.00,0.0047
2433.00,0.0047
2432.00,0.0047
2431.00,0.0047
2430.00,0.0047
2429.00,0.0047
2428.00,0.0047
2427.00,0.0047
2426.00,0.0047
2425.00,0.0047
2424.00,0.0047
2423.00,0.0047
2422.00,0.0047
2421.00,0.0047
2420.00,0.0048
2419.00,0.0048
2418.00,0.0047
2417.00,0.0047
2416.00,0.0047
2415.00,0.0047
2414.00,0.0047
2413.00,0.0047
2412.00,0.0047
2411.00,0.0047
2410.00,0.0047
2409.00,0.0046
2408.00,0.0046
2407.00,0.0046
2406.00,0.0046
2405.00,0.0046
2404.00,0.0046
2403.00,0.0046
2402.00,0.0046
2401.00,0.0046
2400.00,0.0046
2399.00,0.0046
2398.00,0.0045
2397.00,0.0045
2396.00,0.0045
2395.00,0.0045
2394.00,0.0045
2393.00,0.0045
2392.00,0.0045
2391.00,0.0045
2390.00,0.0045
2389.00,0.0045
2388.00,0.0044
2387.00,0.0044
2386.00,0.0044
2385.00,0.0043
2384.00,0.0042
2383.00,0.0042
2382.00,0.0041
2381.00,0.0041
2380.00,0.0040
2379.00,0.0040
2378.00,0.0040
2377.00,0.0040
2376.00,0.0040
2375.00,0.0040
2374.00,0.0040
2373.00,0.0040
2372.00,0.0040
2371.00,0.0040
2370.00,0.0040
2369.00,0.0040
2368.00,0.0040
2367.00,0.0039
2366.00,0.0039
2365.00,0.0039
2364.00,0.0039
2363.00,0.0040
2362.00,0.0040
2361.00,0.0040
2360.00,0.0040
2359.00,0.0040
2358.00,0.0040
2357.00,0.0040
2356.00,0.0040
2355.00,0.0040
2354.00,0.0040
2353.00,0.0040
2352.00,0.0040
2351.00,0.0040
2350.00,0.0041
2349.00,0.0042
2348.00,0.0042
2347.00,0.0042
2346.00,0.0041
2345.00,0.0041
2344.00,0.0041
2343.00,0.0042
2342.00,0.0042
2341.00,0.0043
2340.00,0.0044
2339.00,0.0044
2338.00,0.0044
2337.00,0.0044
2336.00,0.0044
2335.00,0.0044
2334.00,0.0044
2333.00,0.0044
2332.00,0.0043
2331.00,0.0043
2330.00,0.0043
2329.00,0.0045
2328.00,0.0049
2327.00,0.0053
2326.00,0.0057
2325.00,0.0058
2324.00,0.0057
2323.00,0.0055
2322.00,0.0053
2321.00,0.0052
2320.00,0.0051
2319.00,0.0050
2318.00,0.0050
2317.00,0.0050
2316.00,0.0050
2315.00,0.0050
2314.00,0.0049
2313.00,0.0048
2312.00,0.0048
2311.00,0.0048
2310.00,0.0048
2309.00,0.0048
2308.00,0.0048
2307.00,0.0048
2306.00,0.0048
2305.00,0.0049
2304.00,0.0049
2303.00,0.0049
2302.00,0.0049
2301.00,0.0049
2300.00,0.0049
2299.00,0.0049
2298.00,0.0050
2297.00,0.0051
2296.00,0.0051
2295.00,0.0052
2294.00,0.0053
2293.00,0.0054
2292.00,0.0055
2291.00,0.0055
2290.00,0.0056
2289.00,0.0056
2288.00,0.0056
2287.00,0.0056
2286.00,0.0056
2285.00,0.0055
2284.00,0.0055
2283.00,0.0055
2282.00,0.0054
2281.00,0.0054
2280.00,0.0053
2279.00,0.0052
2278.00,0.0051
2277.00,0.0050
2276.00,0.0050
2275.00,0.0050
2274.00,0.0050
2273.00,0.0050
2272.00,0.0050
2271.00,0.0049
2270.00,0.0049
2269.00,0.0049
2268.00,0.0049
2267.00,0.0048
2266.00,0.0048
2265.00,0.0047
2264.00,0.0047
2263.00,0.0047
2262.00,0.0047
2261.00,0.0048
2260.00,0.0048
2259.00,0.0048
2258.00,0.0048
2257.00,0.0047
2256.00,0.0046
2255.00,0.0046
2254.00,0.0046
2253.00,0.0046
2252.00,0.0047
2251.00,0.0047
2250.00,0.0047
2249.00,0.0047
2248.00,0.0047
2247.00,0.0046
2246.00,0.0046
2245.00,0.0046
2244.00,0.0046
2243.00,0.0046
2242.00,0.0046
2241.00,0.0046
2240.00,0.0046
2239.00,0.0046
2238.00,0.0047
2237.00,0.0048
2236.00,0.0048
2235.00,0.0048
2234.00,0.0048
2233.00,0.0047
2232.00,0.0047
2231.00,0.0047
2230.00,0.0046
2229.00,0.0046
2228.00,0.0046
2227.00,0.0046
2226.00,0.0047
2225.00,0.0047
2224.00,0.0048
2223.00,0.0048
2222.00,0.0047
2221.00,0.0047
2220.00,0.0047
2219.00,0.0047
2218.00,0.0047
2217.00,0.0047
2216.00,0.0047
2215.00,0.0046
2214.00,0.0046
2213.00,0.0046
2212.00,0.0047
2211.00,0.0047
2210.00,0.0047
2209.00,0.0047
2208.00,0.0047
2207.00,0.0047
2206.00,0.0046
2205.00,0.0045
2204.00,0.0044
2203.00,0.0044
2202.00,0.0044
2201.00,0.0045
2200.00,0.0046
2199.00,0.0047
2198.00,0.0047
2197.00,0.0047
2196.00,0.0047
2195.00,0.0047
2194.00,0.0047
2193.00,0.0047
2192.00,0.0047
2191.00,0.0047
2190.00,0.0048
2189.00,0.0049
2188.00,0.0049
2187.00,0.0049
2186.00,0.0049
2185.00,0.0047
2184.00,0.0046
2183.00,0.0044
2182.00,0.0043
2181.00,0.0043
2180.00,0.0043
2179.00,0.0043
2178.00,0.0043
2177.00,0.0043
2176.00,0.0043
2175.00,0.0043
2174.00,0.0045
2173.00,0.0047
2172.00,0.0049
2171.00,0.0051
2170.00,0.0053
2169.00,0.0054
2168.00,0.0056
2167.00,0.0057
2166.00,0.0057
2165.00,0.0056
2164.00,0.0057
2163.00,0.0056
2162.00,0.0053
2161.00,0.0045
2160.00,0.0033
2159.00,0.0023
2158.00,0.0017
2157.00,0.0015
2156.00,0.0016
2155.00,0.0019
2154.00,0.0022
2153.00,0.0025
2152.00,0.0027
2151.00,0.0029
2150.00,0.0029
2149.00,0.0029
2148.00,0.0029
2147.00,0.0028
2146.00,0.0027
2145.00,0.0027
2144.00,0.0027
2143.00,0.0028
2142.00,0.0028
2141.00,0.0028
2140.00,0.0029
2139.00,0.0029
2138.00,0.0028
2137.00,0.0027
2136.00,0.0025
2135.00,0.0023
2134.00,0.0023
2133.00,0.0024
2132.00,0.0027
2131.00,0.0030
2130.00,0.0032
2129.00,0.0033
2128.00,0.0035
2127.00,0.0035
2126.00,0.0035
2125.00,0.0035
2124.00,0.0036
2123.00,0.0037
2122.00,0.0038
2121.00,0.0038
2120.00,0.0039
2119.00,0.0039
2118.00,0.0040
2117.00,0.0041
2116.00,0.0042
2115.00,0.0042
2114.00,0.0042
2113.00,0.0041
2112.00,0.0041
2111.00,0.0041
2110.00,0.0041
2109.00,0.0041
2108.00,0.0041
2107.00,0.0041
2106.00,0.0040
2105.00,0.0040
2104.00,0.0040
2103.00,0.0041
2102.00,0.0041
2101.00,0.0041
2100.00,0.0041
2099.00,0.0040
2098.00,0.0039
2097.00,0.0038
2096.00,0.0036
2095.00,0.0036
2094.00,0.0037
2093.00,0.0038
2092.00,0.0039
2091.00,0.0039
2090.00,0.0040
2089.00,0.0040
2088.00,0.0041
2087.00,0.0041
2086.00,0.0042
2085.00,0.0042
2084.00,0.0043
2083.00,0.0044
2082.00,0.0044
2081.00,0.0044
2080.00,0.0044
2079.00,0.0043
2078.00,0.0043
2077.00,0.0043
2076.00,0.0042
2075.00,0.0042
2074.00,0.0042
2073.00,0.0041
2072.00,0.0041
2071.00,0.0041
2070.00,0.0040
2069.00,0.0040
2068.00,0.0040
2067.00,0.0040
2066.00,0.0040
2065.00,0.0040
2064.00,0.0039
2063.00,0.0039
2062.00,0.0039
2061.00,0.0038
2060.00,0.0038
2059.00,0.0038
2058.00,0.0038
2057.00,0.0038
2056.00,0.0038
2055.00,0.0038
2054.00,0.0041
2053.00,0.0045
2052.00,0.0049
2051.00,0.0049
2050.00,0.0046
2049.00,0.0041
2048.00,0.0039
2047.00,0.0038
2046.00,0.0039
2045.00,0.0039
2044.00,0.0040
2043.00,0.0040
2042.00,0.0041
2041.00,0.0042
2040.00,0.0043
2039.00,0.0044
2038.00,0.0044
2037.00,0.0043
2036.00,0.0040
2035.00,0.0038
2034.00,0.0036
2033.00,0.0034
2032.00,0.0033
2031.00,0.0032
2030.00,0.0031
2029.00,0.0031
2028.00,0.0031
2027.00,0.0032
2026.00,0.0032
2025.00,0.0031
2024.00,0.0031
2023.00,0.0031
2022.00,0.0031
2021.00,0.0032
2020.00,0.0034
2019.00,0.0034
2018.00,0.0034
2017.00,0.0033
2016.00,0.0032
2015.00,0.0031
2014.00,0.0030
2013.00,0.0031
2012.00,0.0032
2011.00,0.0033
2010.00,0.0032
2009.00,0.0029
2008.00,0.0026
2007.00,0.0024
2006.00,0.0023
2005.00,0.0024
2004.00,0.0027
2003.00,0.0029
2002.00,0.0030
2001.00,0.0031
2000.00,0.0032
1999.00,0.0033
1998.00,0.0034
1997.00,0.0035
1996.00,0.0036
1995.00,0.0037
1994.00,0.0038
1993.00,0.0039
1992.00,0.0040
1991.00,0.0040
1990.00,0.0041
1989.00,0.0042
1988.00,0.0043
1987.00,0.0043
1986.00,0.0042
1985.00,0.0042
1984.00,0.0043
1983.00,0.0045
1982.00,0.0049
1981.00,0.0050
1980.00,0.0049
1979.00,0.0043
1978.00,0.0036
1977.00,0.0030
1976.00,0.0026
1975.00,0.0024
1974.00,0.0024
1973.00,0.0026
1972.00,0.0028
1971.00,0.0029
1970.00,0.0029
1969.00,0.0028
1968.00,0.0028
1967.00,0.0028
1966.00,0.0028
1965.00,0.0028
1964.00,0.0029
1963.00,0.0028
1962.00,0.0026
1961.00,0.0025
1960.00,0.0024
1959.00,0.0024
1958.00,0.0024
1957.00,0.0025
1956.00,0.0027
1955.00,0.0028
1954.00,0.0028
1953.00,0.0029
1952.00,0.0029
1951.00,0.0030
1950.00,0.0030
1949.00,0.0030
1948.00,0.0030
1947.00,0.0030
1946.00,0.0029
1945.00,0.0029
1944.00,0.0030
1943.00,0.0030
1942.00,0.0030
1941.00,0.0030
1940.00,0.0031
1939.00,0.0031
1938.00,0.0031
1937.00,0.0031
1936.00,0.0031
1935.00,0.0031
1934.00,0.0031
1933.00,0.0031
1932.00,0.0031
1931.00,0.0030
1930.00,0.0030
1929.00,0.0029
1928.00,0.0029
1927.00,0.0030
1926.00,0.0030
1925.00,0.0031
1924.00,0.0032
1923.00,0.0033
1922.00,0.0033
1921.00,0.0033
1920.00,0.0034
1919.00,0.0034
1918.00,0.0034
1917.00,0.0034
1916.00,0.0034
1915.00,0.0035
1914.00,0.0036
1913.00,0.0037
1912.00,0.0038
1911.00,0.0039
1910.00,0.0041
1909.00,0.0041
1908.00,0.0042
1907.00,0.0041
1906.00,0.0039
1905.00,0.0038
1904.00,0.0037
1903.00,0.0036
1902.00,0.0036
1901.00,0.0036
1900.00,0.0036
1899.00,0.0036
1898.00,0.0037
1897.00,0.0037
1896.00,0.0038
1895.00,0.0038
1894.00,0.0038
1893.00,0.0038
1892.00,0.0038
1891.00,0.0038
1890.00,0.0037
1889.00,0.0037
1888.00,0.0037
1887.00,0.0037
1886.00,0.0037
1885.00,0.0037
1884.00,0.0036
1883.00,0.0036
1882.00,0.0036
1881.00,0.0036
1880.00,0.0036
1879.00,0.0036
1878.00,0.0036
1877.00,0.0036
1876.00,0.0036
1875.00,0.0037
1874.00,0.0036
1873.00,0.0036
1872.00,0.0036
1871.00,0.0036
1870.00,0.0036
1869.00,0.0036
1868.00,0.0036
1867.00,0.0036
1866.00,0.0036
1865.00,0.0036
1864.00,0.0036
1863.00,0.0036
1862.00,0.0036
1861.00,0.0036
1860.00,0.0036
1859.00,0.0037
1858.00,0.0037
1857.00,0.0037
1856.00,0.0037
1855.00,0.0037
1854.00,0.0037
1853.00,0.0037
1852.00,0.0038
1851.00,0.0038
1850.00,0.0039
1849.00,0.0039
1848.00,0.0039
1847.00,0.0039
1846.00,0.0039
1845.00,0.0038
1844.00,0.0038
1843.00,0.0037
1842.00,0.0036
1841.00,0.0037
1840.00,0.0037
1839.00,0.0038
1838.00,0.0038
1837.00,0.0038
1836.00,0.0038
1835.00,0.0038
1834.00,0.0037
1833.00,0.0036
1832.00,0.0036
1831.00,0.0036
1830.00,0.0036
1829.00,0.0036
1828.00,0.0036
1827.00,0.0036
1826.00,0.0037
1825.00,0.0038
1824.00,0.0038
1823.00,0.0038
1822.00,0.0038
1821.00,0.0037
1820.00,0.0036
1819.00,0.0035
1818.00,0.0035
1817.00,0.0035
1816.00,0.0035
1815.00,0.0036
1814.00,0.0037
1813.00,0.0037
1812.00,0.0038
1811.00,0.0038
1810.00,0.0038
1809.00,0.0037
1808.00,0.0037
1807.00,0.0038
1806.00,0.0038
1805.00,0.0038
1804.00,0.0038
1803.00,0.0038
1802.00,0.0038
1801.00,0.0038
1800.00,0.0038
1799.00,0.0039
1798.00,0.0039
1797.00,0.0040
1796.00,0.0040
1795.00,0.0040
1794.00,0.0040
1793.00,0.0040
1792.00,0.0040
1791.00,0.0039
1790.00,0.0039
1789.00,0.0040
1788.00,0.0040
1787.00,0.0041
1786.00,0.0041
1785.00,0.0041
1784.00,0.0041
1783.00,0.0041
1782.00,0.0041
1781.00,0.0041
1780.00,0.0042
1779.00,0.0041
1778.00,0.0042
1777.00,0.0042
1776.00,0.0043
1775.00,0.0043
1774.00,0.0043
1773.00,0.0043
1772.00,0.0043
1771.00,0.0042
1770.00,0.0042
1769.00,0.0042
1768.00,0.0043
1767.00,0.0043
1766.00,0.0043
1765.00,0.0043
1764.00,0.0044
1763.00,0.0044
1762.00,0.0044
1761.00,0.0044
1760.00,0.0045
1759.00,0.0045
1758.00,0.0045
1757.00,0.0045
1756.00,0.0045
1755.00,0.0045
1754.00,0.0045
1753.00,0.0045
1752.00,0.0046
1751.00,0.0046
1750.00,0.0046
1749.00,0.0046
1748.00,0.0047
1747.00,0.0047
1746.00,0.0048
1745.00,0.0048
1744.00,0.0049
1743.00,0.0049
1742.00,0.0048
1741.00,0.0048
1740.00,0.0048
1739.00,0.0048
1738.00,0.0048
1737.00,0.0048
1736.00,0.0049
1735.00,0.0051
1734.00,0.0052
1733.00,0.0052
1732.00,0.0053
1731.00,0.0055
1730.00,0.0056
1729.00,0.0057
1728.00,0.0058
1727.00,0.0058
1726.00,0.0060
1725.00,0.0061
1724.00,0.0063
1723.00,0.0065
1722.00,0.0065
1721.00,0.0065
1720.00,0.0067
1719.00,0.0069
1718.00,0.0072
1717.00,0.0074
1716.00,0.0076
1715.00,0.0078
1714.00,0.0080
1713.00,0.0083
1712.00,0.0087
1711.00,0.0091
1710.00,0.0095
1709.00,0.0099
1708.00,0.0104
1707.00,0.0109
1706.00,0.0116
1705.00,0.0123
1704.00,0.0130
1703.00,0.0136
1702.00,0.0143
1701.00,0.0155
1700.00,0.0171
1699.00,0.0188
1698.00,0.0204
1697.00,0.0222
1696.00,0.0243
1695.00,0.0264
1694.00,0.0282
1693.00,0.0299
1692.00,0.0318
1691.00,0.0339
1690.00,0.0361
1689.00,0.0382
1688.00,0.0402
1687.00,0.0421
1686.00,0.0441
1685.00,0.0467
1684.00,0.0496
1683.00,0.0521
1682.00,0.0541
1681.00,0.0560
1680.00,0.0580
1679.00,0.0598
1678.00,0.0613
1677.00,0.0628
1676.00,0.0646
1675.00,0.0666
1674.00,0.0683
1673.00,0.0697
1672.00,0.0710
1671.00,0.0724
1670.00,0.0738
1669.00,0.0752
1668.00,0.0764
1667.00,0.0774
1666.00,0.0783
1665.00,0.0790
1664.00,0.0799
1663.00,0.0808
1662.00,0.0816
1661.00,0.0822
1660.00,0.0827
1659.00,0.0831
1658.00,0.0833
1657.00,0.0834
1656.00,0.0833
1655.00,0.0833
1654.00,0.0830
1653.00,0.0823
1652.00,0.0813
1651.00,0.0804
1650.00,0.0795
1649.00,0.0784
1648.00,0.0771
1647.00,0.0751
1646.00,0.0728
1645.00,0.0706
1644.00,0.0687
1643.00,0.0668
1642.00,0.0649
1641.00,0.0628
1640.00,0.0606
1639.00,0.0586
1638.00,0.0565
1637.00,0.0544
1636.00,0.0522
1635.00,0.0501
1634.00,0.0485
1633.00,0.0476
1632.00,0.0472
1631.00,0.0472
1630.00,0.0475
1629.00,0.0484
1628.00,0.0498
1627.00,0.0514
1626.00,0.0529
1625.00,0.0542
1624.00,0.0552
1623.00,0.0558
1622.00,0.0559
1621.00,0.0553
1620.00,0.0542
1619.00,0.0527
1618.00,0.0506
1617.00,0.0479
1616.00,0.0452
1615.00,0.0433
1614.00,0.0422
1613.00,0.0417
1612.00,0.0414
1611.00,0.0410
1610.00,0.0402
1609.00,0.0388
1608.00,0.0371
1607.00,0.0351
1606.00,0.0330
1605.00,0.0309
1604.00,0.0289
1603.00,0.0271
1602.00,0.0255
1601.00,0.0241
1600.00,0.0229
1599.00,0.0220
1598.00,0.0213
1597.00,0.0209
1596.00,0.0206
1595.00,0.0207
1594.00,0.0210
1593.00,0.0216
1592.00,0.0227
1591.00,0.0241
1590.00,0.0258
1589.00,0.0276
1588.00,0.0294
1587.00,0.0309
1586.00,0.0321
1585.00,0.0328
1584.00,0.0330
1583.00,0.0328
1582.00,0.0322
1581.00,0.0312
1580.00,0.0301
1579.00,0.0290
1578.00,0.0279
1577.00,0.0266
1576.00,0.0250
1575.00,0.0235
1574.00,0.0223
1573.00,0.0214
1572.00,0.0208
1571.00,0.0202
1570.00,0.0197
1569.00,0.0191
1568.00,0.0186
1567.00,0.0181
1566.00,0.0175
1565.00,0.0167
1564.00,0.0159
1563.00,0.0150
1562.00,0.0143
1561.00,0.0135
1560.00,0.0127
1559.00,0.0120
1558.00,0.0113
1557.00,0.0109
1556.00,0.0108
1555.00,0.0108
1554.00,0.0108
1553.00,0.0106
1552.00,0.0105
1551.00,0.0104
1550.00,0.0102
1549.00,0.0100
1548.00,0.0098
1547.00,0.0096
1546.00,0.0095
1545.00,0.0094
1544.00,0.0092
1543.00,0.0091
1542.00,0.0089
1541.00,0.0089
1540.00,0.0089
1539.00,0.0089
1538.00,0.0088
1537.00,0.0088
1536.00,0.0088
1535.00,0.0088
1534.00,0.0088
1533.00,0.0088
1532.00,0.0087
1531.00,0.0088
1530.00,0.0089
1529.00,0.0089
1528.00,0.0090
1527.00,0.0090
1526.00,0.0090
1525.00,0.0090
1524.00,0.0091
1523.00,0.0093
1522.00,0.0095
1521.00,0.0097
1520.00,0.0098
1519.00,0.0099
1518.00,0.0103
1517.00,0.0107
1516.00,0.0110
1515.00,0.0113
1514.00,0.0116
1513.00,0.0120
1512.00,0.0124
1511.00,0.0127
1510.00,0.0131
1509.00,0.0134
1508.00,0.0139
1507.00,0.0144
1506.00,0.0147
1505.00,0.0153
1504.00,0.0160
1503.00,0.0169
1502.00,0.0180
1501.00,0.0193
1500.00,0.0209
1499.00,0.0229
1498.00,0.0251
1497.00,0.0272
1496.00,0.0286
1495.00,0.0289
1494.00,0.0285
1493.00,0.0276
1492.00,0.0264
1491.00,0.0250
1490.00,0.0235
1489.00,0.0220
1488.00,0.0205
1487.00,0.0192
1486.00,0.0181
1485.00,0.0172
1484.00,0.0164
1483.00,0.0157
1482.00,0.0152
1481.00,0.0148
1480.00,0.0145
1479.00,0.0143
1478.00,0.0144
1477.00,0.0146
1476.00,0.0150
1475.00,0.0155
1474.00,0.0163
1473.00,0.0177
1472.00,0.0194
1471.00,0.0216
1470.00,0.0239
1469.00,0.0265
1468.00,0.0292
1467.00,0.0319
1466.00,0.0344
1465.00,0.0366
1464.00,0.0383
1463.00,0.0395
1462.00,0.0403
1461.00,0.0408
1460.00,0.0410
1459.00,0.0408
1458.00,0.0400
1457.00,0.0385
1456.00,0.0366
1455.00,0.0351
1454.00,0.0339
1453.00,0.0331
1452.00,0.0325
1451.00,0.0322
1450.00,0.0323
1449.00,0.0327
1448.00,0.0334
1447.00,0.0345
1446.00,0.0358
1445.00,0.0374
1444.00,0.0392
1443.00,0.0412
1442.00,0.0432
1441.00,0.0452
1440.00,0.0469
1439.00,0.0483
1438.00,0.0498
1437.00,0.0514
1436.00,0.0530
1435.00,0.0544
1434.00,0.0555
1433.00,0.0566
1432.00,0.0576
1431.00,0.0585
1430.00,0.0594
1429.00,0.0603
1428.00,0.0614
1427.00,0.0624
1426.00,0.0635
1425.00,0.0646
1424.00,0.0655
1423.00,0.0659
1422.00,0.0659
1421.00,0.0654
1420.00,0.0641
1419.00,0.0620
1418.00,0.0593
1417.00,0.0564
1416.00,0.0535
1415.00,0.0506
1414.00,0.0477
1413.00,0.0451
1412.00,0.0429
1411.00,0.0411
1410.00,0.0398
1409.00,0.0389
1408.00,0.0386
1407.00,0.0386
1406.00,0.0391
1405.00,0.0399
1404.00,0.0408
1403.00,0.0415
1402.00,0.0419
1401.00,0.0421
1400.00,0.0417
1399.00,0.0409
1398.00,0.0396
1397.00,0.0380
1396.00,0.0361
1395.00,0.0341
1394.00,0.0321
1393.00,0.0305
1392.00,0.0292
1391.00,0.0284
1390.00,0.0281
1389.00,0.0284
1388.00,0.0291
1387.00,0.0300
1386.00,0.0305
1385.00,0.0306
1384.00,0.0303
1383.00,0.0302
1382.00,0.0305
1381.00,0.0310
1380.00,0.0316
1379.00,0.0320
1378.00,0.0322
1377.00,0.0321
1376.00,0.0317
1375.00,0.0311
1374.00,0.0303
1373.00,0.0295
1372.00,0.0290
1371.00,0.0288
1370.00,0.0290
1369.00,0.0295
1368.00,0.0304
1367.00,0.0314
1366.00,0.0323
1365.00,0.0329
1364.00,0.0333
1363.00,0.0336
1362.00,0.0342
1361.00,0.0349
1360.00,0.0350
1359.00,0.0343
1358.00,0.0328
1357.00,0.0309
1356.00,0.0292
1355.00,0.0278
1354.00,0.0268
1353.00,0.0260
1352.00,0.0255
1351.00,0.0251
1350.00,0.0250
1349.00,0.0249
1348.00,0.0248
1347.00,0.0246
1346.00,0.0243
1345.00,0.0239
1344.00,0.0234
1343.00,0.0229
1342.00,0.0223
1341.00,0.0218
1340.00,0.0212
1339.00,0.0207
1338.00,0.0204
1337.00,0.0201
1336.00,0.0201
1335.00,0.0203
1334.00,0.0207
1333.00,0.0212
1332.00,0.0217
1331.00,0.0222
1330.00,0.0227
1329.00,0.0231
1328.00,0.0235
1327.00,0.0239
1326.00,0.0243
1325.00,0.0248
1324.00,0.0252
1323.00,0.0258
1322.00,0.0264
1321.00,0.0271
1320.00,0.0277
1319.00,0.0282
1318.00,0.0284
1317.00,0.0285
1316.00,0.0283
1315.00,0.0281
1314.00,0.0278
1313.00,0.0274
1312.00,0.0270
1311.00,0.0268
1310.00,0.0267
1309.00,0.0268
1308.00,0.0272
1307.00,0.0278
1306.00,0.0288
1305.00,0.0301
1304.00,0.0317
1303.00,0.0334
1302.00,0.0352
1301.00,0.0367
1300.00,0.0381
1299.00,0.0393
1298.00,0.0408
1297.00,0.0426
1296.00,0.0449
1295.00,0.0476
1294.00,0.0506
1293.00,0.0536
1292.00,0.0565
1291.00,0.0593
1290.00,0.0620
1289.00,0.0644
1288.00,0.0666
1287.00,0.0685
1286.00,0.0700
1285.00,0.0709
1284.00,0.0711
1283.00,0.0707
1282.00,0.0697
1281.00,0.0682
1280.00,0.0665
1279.00,0.0648
1278.00,0.0634
1277.00,0.0625
1276.00,0.0619
1275.00,0.0617
1274.00,0.0617
1273.00,0.0618
1272.00,0.0617
1271.00,0.0614
1270.00,0.0608
1269.00,0.0600
1268.00,0.0588
1267.00,0.0573
1266.00,0.0556
1265.00,0.0537
1264.00,0.0516
1263.00,0.0494
1262.00,0.0473
1261.00,0.0452
1260.00,0.0431
1259.00,0.0412
1258.00,0.0394
1257.00,0.0378
1256.00,0.0364
1255.00,0.0352
1254.00,0.0342
1253.00,0.0333
1252.00,0.0327
1251.00,0.0322
1250.00,0.0321
1249.00,0.0322
1248.00,0.0325
1247.00,0.0331
1246.00,0.0338
1245.00,0.0346
1244.00,0.0353
1243.00,0.0359
1242.00,0.0364
1241.00,0.0369
1240.00,0.0376
1239.00,0.0384
1238.00,0.0394
1237.00,0.0407
1236.00,0.0420
1235.00,0.0431
1234.00,0.0439
1233.00,0.0443
1232.00,0.0442
1231.00,0.0438
1230.00,0.0430
1229.00,0.0422
1228.00,0.0412
1227.00,0.0403
1226.00,0.0395
1225.00,0.0387
1224.00,0.0380
1223.00,0.0375
1222.00,0.0371
1221.00,0.0369
1220.00,0.0368
1219.00,0.0369
1218.00,0.0371
1217.00,0.0374
1216.00,0.0376
1215.00,0.0377
1214.00,0.0375
1213.00,0.0369
1212.00,0.0360
1211.00,0.0348
1210.00,0.0335
1209.00,0.0322
1208.00,0.0311
1207.00,0.0302
1206.00,0.0296
1205.00,0.0293
1204.00,0.0293
1203.00,0.0297
1202.00,0.0305
1201.00,0.0315
1200.00,0.0327
1199.00,0.0341
1198.00,0.0356
1197.00,0.0371
1196.00,0.0383
1195.00,0.0391
1194.00,0.0392
1193.00,0.0386
1192.00,0.0374
1191.00,0.0359
1190.00,0.0343
1189.00,0.0325
1188.00,0.0307
1187.00,0.0291
1186.00,0.0277
1185.00,0.0264
1184.00,0.0254
1183.00,0.0246
1182.00,0.0240
1181.00,0.0236
1180.00,0.0233
1179.00,0.0231
1178.00,0.0230
1177.00,0.0230
1176.00,0.0231
1175.00,0.0232
1174.00,0.0234
1173.00,0.0236
1172.00,0.0238
1171.00,0.0239
1170.00,0.0241
1169.00,0.0243
1168.00,0.0244
1167.00,0.0245
1166.00,0.0246
1165.00,0.0247
1164.00,0.0250
1163.00,0.0253
1162.00,0.0259
1161.00,0.0269
1160.00,0.0283
1159.00,0.0302
1158.00,0.0326
1157.00,0.0352
1156.00,0.0373
1155.00,0.0385
1154.00,0.0384
1153.00,0.0368
1152.00,0.0341
1151.00,0.0310
1150.00,0.0280
1149.00,0.0254
1148.00,0.0234
1147.00,0.0219
1146.00,0.0209
1145.00,0.0202
1144.00,0.0196
1143.00,0.0192
1142.00,0.0189
1141.00,0.0187
1140.00,0.0186
1139.00,0.0187
1138.00,0.0191
1137.00,0.0197
1136.00,0.0207
1135.00,0.0222
1134.00,0.0243
1133.00,0.0271
1132.00,0.0303
1131.00,0.0336
1130.00,0.0364
1129.00,0.0382
1128.00,0.0387
1127.00,0.0380
1126.00,0.0365
1125.00,0.0345
1124.00,0.0320
1123.00,0.0295
1122.00,0.0272
1121.00,0.0251
1120.00,0.0233
1119.00,0.0221
1118.00,0.0213
1117.00,0.0208
1116.00,0.0205
1115.00,0.0204
1114.00,0.0203
1113.00,0.0202
1112.00,0.0199
1111.00,0.0195
1110.00,0.0191
1109.00,0.0189
1108.00,0.0187
1107.00,0.0188
1106.00,0.0192
1105.00,0.0199
1104.00,0.0210
1103.00,0.0225
1102.00,0.0243
1101.00,0.0259
1100.00,0.0270
1099.00,0.0272
1098.00,0.0266
1097.00,0.0253
1096.00,0.0236
1095.00,0.0218
1094.00,0.0202
1093.00,0.0189
1092.00,0.0179
1091.00,0.0171
1090.00,0.0166
1089.00,0.0162
1088.00,0.0159
1087.00,0.0157
1086.00,0.0156
1085.00,0.0156
1084.00,0.0155
1083.00,0.0155
1082.00,0.0156
1081.00,0.0157
1080.00,0.0158
1079.00,0.0159
1078.00,0.0162
1077.00,0.0165
1076.00,0.0167
1075.00,0.0169
1074.00,0.0171
1073.00,0.0173
1072.00,0.0175
1071.00,0.0177
1070.00,0.0180
1069.00,0.0183
1068.00,0.0187
1067.00,0.0192
1066.00,0.0198
1065.00,0.0206
1064.00,0.0216
1063.00,0.0229
1062.00,0.0246
1061.00,0.0268
1060.00,0.0294
1059.00,0.0326
1058.00,0.0362
1057.00,0.0399
1056.00,0.0433
1055.00,0.0461
1054.00,0.0480
1053.00,0.0491
1052.00,0.0497
1051.00,0.0500
1050.00,0.0498
1049.00,0.0491
1048.00,0.0477
1047.00,0.0456
1046.00,0.0429
1045.00,0.0400
1044.00,0.0369
1043.00,0.0339
1042.00,0.0314
1041.00,0.0292
1040.00,0.0275
1039.00,0.0263
1038.00,0.0257
1037.00,0.0256
1036.00,0.0257
1035.00,0.0261
1034.00,0.0268
1033.00,0.0278
1032.00,0.0294
1031.00,0.0316
1030.00,0.0346
1029.00,0.0379
1028.00,0.0409
1027.00,0.0427
1026.00,0.0430
1025.00,0.0416
1024.00,0.0389
1023.00,0.0358
1022.00,0.0328
1021.00,0.0303
1020.00,0.0282
1019.00,0.0265
1018.00,0.0252
1017.00,0.0241
1016.00,0.0230
1015.00,0.0220
1014.00,0.0211
1013.00,0.0203
1012.00,0.0197
1011.00,0.0194
1010.00,0.0194
1009.00,0.0198
1008.00,0.0204
1007.00,0.0214
1006.00,0.0226
1005.00,0.0237
1004.00,0.0246
1003.00,0.0250
1002.00,0.0250
1001.00,0.0246
1000.00,0.0240
999.00,0.0232
998.00,0.0225
997.00,0.0218
996.00,0.0212
995.00,0.0206
994.00,0.0201
993.00,0.0196
992.00,0.0189
991.00,0.0182
990.00,0.0176
989.00,0.0169
988.00,0.0163
987.00,0.0157
986.00,0.0153
985.00,0.0149
984.00,0.0145
983.00,0.0143
982.00,0.0141
981.00,0.0140
980.00,0.0139
979.00,0.0138
978.00,0.0138
977.00,0.0138
976.00,0.0137
975.00,0.0137
974.00,0.0137
973.00,0.0136
972.00,0.0135
971.00,0.0134
970.00,0.0134
969.00,0.0134
968.00,0.0133
967.00,0.0133
966.00,0.0133
965.00,0.0134
964.00,0.0135
963.00,0.0136
962.00,0.0137
961.00,0.0136
960.00,0.0133
959.00,0.0129
958.00,0.0125
957.00,0.0122
956.00,0.0118
955.00,0.0116
954.00,0.0115
953.00,0.0114
952.00,0.0113
951.00,0.0113
950.00,0.0114
949.00,0.0116
948.00,0.0117
947.00,0.0118
946.00,0.0118
945.00,0.0119
944.00,0.0120
943.00,0.0124
942.00,0.0128
941.00,0.0134
940.00,0.0139
939.00,0.0145
938.00,0.0151
937.00,0.0156
936.00,0.0161
935.00,0.0166
934.00,0.0170
933.00,0.0173
932.00,0.0173
931.00,0.0170
930.00,0.0167
929.00,0.0163
928.00,0.0160
927.00,0.0158
926.00,0.0159
925.00,0.0161
924.00,0.0163
923.00,0.0165
922.00,0.0167
921.00,0.0166
920.00,0.0161
919.00,0.0154
918.00,0.0147
917.00,0.0140
916.00,0.0134
915.00,0.0130
914.00,0.0127
913.00,0.0125
912.00,0.0123
911.00,0.0121
910.00,0.0121
909.00,0.0122
908.00,0.0122
907.00,0.0124
906.00,0.0128
905.00,0.0132
904.00,0.0139
903.00,0.0147
902.00,0.0157
901.00,0.0168
900.00,0.0176
899.00,0.0181
898.00,0.0181
897.00,0.0177
896.00,0.0171
895.00,0.0165
894.00,0.0162
893.00,0.0163
892.00,0.0168
891.00,0.0173
890.00,0.0176
889.00,0.0173
888.00,0.0163
887.00,0.0151
886.00,0.0142
885.00,0.0135
884.00,0.0132
883.00,0.0130
882.00,0.0131
881.00,0.0134
880.00,0.0138
879.00,0.0144
878.00,0.0155
877.00,0.0169
876.00,0.0187
875.00,0.0208
874.00,0.0233
873.00,0.0259
872.00,0.0283
871.00,0.0301
870.00,0.0312
869.00,0.0311
868.00,0.0300
867.00,0.0285
866.00,0.0269
865.00,0.0255
864.00,0.0241
863.00,0.0229
862.00,0.0219
861.00,0.0210
860.00,0.0204
859.00,0.0203
858.00,0.0207
857.00,0.0216
856.00,0.0228
855.00,0.0244
854.00,0.0259
853.00,0.0274
852.00,0.0287
851.00,0.0301
850.00,0.0314
849.00,0.0322
848.00,0.0322
847.00,0.0316
846.00,0.0306
845.00,0.0296
844.00,0.0286
843.00,0.0277
842.00,0.0271
841.00,0.0268
840.00,0.0267
839.00,0.0271
838.00,0.0279
837.00,0.0291
836.00,0.0303
835.00,0.0312
834.00,0.0317
833.00,0.0317
832.00,0.0310
831.00,0.0298
830.00,0.0281
829.00,0.0261
828.00,0.0240
827.00,0.0223
826.00,0.0211
825.00,0.0208
824.00,0.0215
823.00,0.0237
822.00,0.0272
821.00,0.0307
820.00,0.0330
819.00,0.0342
818.00,0.0352
817.00,0.0366
816.00,0.0374
815.00,0.0363
814.00,0.0330
813.00,0.0285
812.00,0.0243
811.00,0.0211
810.00,0.0189
809.00,0.0173
808.00,0.0160
807.00,0.0151
806.00,0.0144
805.00,0.0138
804.00,0.0133
803.00,0.0130
802.00,0.0127
801.00,0.0125
800.00,0.0123
799.00,0.0121
798.00,0.0121
797.00,0.0120
796.00,0.0120
795.00,0.0119
794.00,0.0120
793.00,0.0120
792.00,0.0121
791.00,0.0121
790.00,0.0122
789.00,0.0122
788.00,0.0122
787.00,0.0122
786.00,0.0122
785.00,0.0123
784.00,0.0123
783.00,0.0124
782.00,0.0126
781.00,0.0128
780.00,0.0130
779.00,0.0133
778.00,0.0139
777.00,0.0146
776.00,0.0153
775.00,0.0159
774.00,0.0163
773.00,0.0162
772.00,0.0157
771.00,0.0152
770.00,0.0149
769.00,0.0148
768.00,0.0147
767.00,0.0148
766.00,0.0150
765.00,0.0153
764.00,0.0156
763.00,0.0160
762.00,0.0166
761.00,0.0171
760.00,0.0176
759.00,0.0179
758.00,0.0182
757.00,0.0184
756.00,0.0184
755.00,0.0185
754.00,0.0187
753.00,0.0190
752.00,0.0192
751.00,0.0196
750.00,0.0200
749.00,0.0204
748.00,0.0207
747.00,0.0210
746.00,0.0214
745.00,0.0218
744.00,0.0223
743.00,0.0228
742.00,0.0236
741.00,0.0244
740.00,0.0254
739.00,0.0267
738.00,0.0284
737.00,0.0304
736.00,0.0322
735.00,0.0334
734.00,0.0338
733.00,0.0334
732.00,0.0326
731.00,0.0319
730.00,0.0315
729.00,0.0311
728.00,0.0305
727.00,0.0294
726.00,0.0280
725.00,0.0265
724.00,0.0251
723.00,0.0239
722.00,0.0231
721.00,0.0227
720.00,0.0224
719.00,0.0225
718.00,0.0229
717.00,0.0235
716.00,0.0240
715.00,0.0242
714.00,0.0242
713.00,0.0240
712.00,0.0235
711.00,0.0231
710.00,0.0228
709.00,0.0226
708.00,0.0225
707.00,0.0224
706.00,0.0226
705.00,0.0228
704.00,0.0230
703.00,0.0234
702.00,0.0238
701.00,0.0244
700.00,0.0248
699.00,0.0252
698.00,0.0256
697.00,0.0258
696.00,0.0257
695.00,0.0257
694.00,0.0257
693.00,0.0258
692.00,0.0261
691.00,0.0267
690.00,0.0275
689.00,0.0283
688.00,0.0288
687.00,0.0290
686.00,0.0290
685.00,0.0287
684.00,0.0285
683.00,0.0283
682.00,0.0285
681.00,0.0288
680.00,0.0292
679.00,0.0296
678.00,0.0302
677.00,0.0309
676.00,0.0317
675.00,0.0326
674.00,0.0337
673.00,0.0347
672.00,0.0355
671.00,0.0361
670.00,0.0365
669.00,0.0368
668.00,0.0370
667.00,0.0375
666.00,0.0380
665.00,0.0385
664.00,0.0390
663.00,0.0397
662.00,0.0405
661.00,0.0411
660.00,0.0415
659.00,0.0417
658.00,0.0420
657.00,0.0422
656.00,0.0424
655.00,0.0426
654.00,0.0430
653.00,0.0435
652.00,0.0438
651.00,0.0441
650.00,0.0444
649.00,0.0446
648.00,0.0447
647.00,0.0447
646.00,0.0446
645.00,0.0443
644.00,0.0438
643.00,0.0433
642.00,0.0429
641.00,0.0425
640.00,0.0419
639.00,0.0414
638.00,0.0409
637.00,0.0405
636.00,0.0400
635.00,0.0396
634.00,0.0393
633.00,0.0390
632.00,0.0386
631.00,0.0384
630.00,0.0382
629.00,0.0381
628.00,0.0379
627.00,0.0379
626.00,0.0381
625.00,0.0383
624.00,0.0385
623.00,0.0389
622.00,0.0393
621.00,0.0398
620.00,0.0400
619.00,0.0399
618.00,0.0396
617.00,0.0391
616.00,0.0385
615.00,0.0378
614.00,0.0374
613.00,0.0371
612.00,0.0369
611.00,0.0369
610.00,0.0373
609.00,0.0379
608.00,0.0388
607.00,0.0399
606.00,0.0413
605.00,0.0426
604.00,0.0436
603.00,0.0444
602.00,0.0450
601.00,0.0453
600.00,0.0453
599.00,0.0453
598.00,0.0454
597.00,0.0456
596.00,0.0457
595.00,0.0458
594.00,0.0461
593.00,0.0463
592.00,0.0463
591.00,0.0463
590.00,0.0465
589.00,0.0468
588.00,0.0470
587.00,0.0473
586.00,0.0479
585.00,0.0486
584.00,0.0492
583.00,0.0500
582.00,0.0509
581.00,0.0519
580.00,0.0529
579.00,0.0540
578.00,0.0553
577.00,0.0564
576.00,0.0570
575.00,0.0570
574.00,0.0565
573.00,0.0557
572.00,0.0547
571.00,0.0539
570.00,0.0534
569.00,0.0529
568.00,0.0525
567.00,0.0522
566.00,0.0523
565.00,0.0524
564.00,0.0524
563.00,0.0526
562.00,0.0531
561.00,0.0535
560.00,0.0535
559.00,0.0532
558.00,0.0527
557.00,0.0519
556.00,0.0508
555.00,0.0499
554.00,0.0493
553.00,0.0489
552.00,0.0486
551.00,0.0486
550.00,0.0492
549.00,0.0500
548.00,0.0507
547.00,0.0512
546.00,0.0514
545.00,0.0512
544.00,0.0504
543.00,0.0494
542.00,0.0486
541.00,0.0478
540.00,0.0470
539.00,0.0465
538.00,0.0464
537.00,0.0464
536.00,0.0465
535.00,0.0468
534.00,0.0475
533.00,0.0484
532.00,0.0490
531.00,0.0493
530.00,0.0492
529.00,0.0488
528.00,0.0480
527.00,0.0471
526.00,0.0464
525.00,0.0457
524.00,0.0448
523.00,0.0441
522.00,0.0438
521.00,0.0436
520.00,0.0433
519.00,0.0431
518.00,0.0431
517.00,0.0430
516.00,0.0426
515.00,0.0423
514.00,0.0423
513.00,0.0424
512.00,0.0422
511.00,0.0422
510.00,0.0423
509.00,0.0425
508.00,0.0425
507.00,0.0426
506.00,0.0430
505.00,0.0433
504.00,0.0430
503.00,0.0427
502.00,0.0425
501.00,0.0422
500.00,0.0418
499.00,0.0417
498.00,0.0419
497.00,0.0423
496.00,0.0424
495.00,0.0426
494.00,0.0431
493.00,0.0435
492.00,0.0434
491.00,0.0431
490.00,0.0431
489.00,0.0430
488.00,0.0428
487.00,0.0426
486.00,0.0426
485.00,0.0426
484.00,0.0423
483.00,0.0422
482.00,0.0425
481.00,0.0427
480.00,0.0425
479.00,0.0422
478.00,0.0423
477.00,0.0422
476.00,0.0419
475.00,0.0418
474.00,0.0421
473.00,0.0423
472.00,0.0420
471.00,0.0418
470.00,0.0420
469.00,0.0422
468.00,0.0420
467.00,0.0420
466.00,0.0425
465.00,0.0430
464.00,0.0429
463.00,0.0426
462.00,0.0427
461.00,0.0427
460.00,0.0424
459.00,0.0420
458.00,0.0420
457.00,0.0417
456.00,0.0409
455.00,0.0404
454.00,0.0407
453.00,0.0412
452.00,0.0412
451.00,0.0410
450.00,0.0409
449.00,0.0406
448.00,0.0400
447.00,0.0396
446.00,0.0399
445.00,0.0401
444.00,0.0397
443.00,0.0392
442.00,0.0394
441.00,0.0397
440.00,0.0394
439.00,0.0393
438.00,0.0398
437.00,0.0402
436.00,0.0400
435.00,0.0397
434.00,0.0399
433.00,0.0399
432.00,0.0392
431.00,0.0384
430.00,0.0384
429.00,0.0387
428.00,0.0384
427.00,0.0379
426.00,0.0377
425.00,0.0374
424.00,0.0365
423.00,0.0360
422.00,0.0365
421.00,0.0371
420.00,0.0370
419.00,0.0368
418.00,0.0372
417.00,0.0373
416.00,0.0368
415.00,0.0367
414.00,0.0378
413.00,0.0390
412.00,0.0391
411.00,0.0391
410.00,0.0398
409.00,0.0404
408.00,0.0398
407.00,0.0387
406.00,0.0382
405.00,0.0374
404.00,0.0357
403.00,0.0346
402.00,0.0349
401.00,0.0351
400.00,0.0339
