Created as New Dataset,Sample 116 By YargerLab Date Friday, August 15 2025
cm-1,A
4000.00,0.0021
3999.00,0.0021
3998.00,0.0021
3997.00,0.0021
3996.00,0.0021
3995.00,0.0021
3994.00,0.0021
3993.00,0.0021
3992.00,0.0021
3991.00,0.0021
3990.00,0.0021
3989.00,0.0021
3988.00,0.0021
3987.00,0.0021
3986.00,0.0021
3985.00,0.0021
3984.00,0.0021
3983.00,0.0021
3982.00,0.0021
3981.00,0.0021
3980.00,0.0021
3979.00,0.0021
3978.00,0.0021
3977.00,0.0021
3976.00,0.0021
3975.00,0.0021
3974.00,0.0021
3973.00,0.0021
3972.00,0.0021
3971.00,0.0021
3970.00,0.0021
3969.00,0.0021
3968.00,0.0021
3967.00,0.0021
3966.00,0.0022
3965.00,0.0021
3964.00,0.0021
3963.00,0.0021
3962.00,0.0021
3961.00,0.0021
3960.00,0.0021
3959.00,0.0021
3958.00,0.0021
3957.00,0.0021
3956.00,0.0021
3955.00,0.0021
3954.00,0.0021
3953.00,0.0021
3952.00,0.0021
3951.00,0.0020
3950.00,0.0020
3949.00,0.0020
3948.00,0.0020
3947.00,0.0020
3946.00,0.0020
3945.00,0.0020
3944.00,0.0020
3943.00,0.0020
3942.00,0.0020
3941.00,0.0020
3940.00,0.0020
3939.00,0.0020
3938.00,0.0020
3937.00,0.0020
3936.00,0.0020
3935.00,0.0020
3934.00,0.0021
3933.00,0.0021
3932.00,0.0020
3931.00,0.0020
3930.00,0.0020
3929.00,0.0020
3928.00,0.0020
3927.00,0.0020
3926.00,0.0020
3925.00,0.0020
3924.00,0.0021
3923.00,0.0021
3922.00,0.0021
3921.00,0.0020
3920.00,0.0020
3919.00,0.0020
3918.00,0.0020
3917.00,0.0020
3916.00,0.0020
3915.00,0.0020
3914.00,0.0020
3913.00,0.0020
3912.00,0.0020
3911.00,0.0020
3910.00,0.0020
3909.00,0.0020
3908.00,0.0020
3907.00,0.0020
3906.00,0.0020
3905.00,0.0020
3904.00,0.0020
3903.00,0.0020
3902.00,0.0020
3901.00,0.0019
3900.00,0.0019
3899.00,0.0019
3898.00,0.0019
3897.00,0.0019
3896.00,0.0019
3895.00,0.0020
3894.00,0.0020
3893.00,0.0019
3892.00,0.0019
3891.00,0.0020
3890.00,0.0020
3889.00,0.0020
3888.00,0.0019
3887.00,0.0019
3886.00,0.0019
3885.00,0.0019
3884.00,0.0019
3883.00,0.0019
3882.00,0.0019
3881.00,0.0018
3880.00,0.0019
3879.00,0.0019
3878.00,0.0019
3877.00,0.0019
3876.00,0.0019
3875.00,0.0019
3874.00,0.0019
3873.00,0.0019
3872.00,0.0019
3871.00,0.0019
3870.00,0.0019
3869.00,0.0019
3868.00,0.0019
3867.00,0.0019
3866.00,0.0019
3865.00,0.0019
3864.00,0.0019
3863.00,0.0019
3862.00,0.0019
3861.00,0.0019
3860.00,0.0019
3859.00,0.0019
3858.00,0.0019
3857.00,0.0019
3856.00,0.0019
3855.00,0.0019
3854.00,0.0019
3853.00,0.0019
3852.00,0.0018
3851.00,0.0018
3850.00,0.0018
3849.00,0.0018
3848.00,0.0019
3847.00,0.0019
3846.00,0.0019
3845.00,0.0019
3844.00,0.0020
3843.00,0.0020
3842.00,0.0020
3841.00,0.0019
3840.00,0.0019
3839.00,0.0019
3838.00,0.0018
3837.00,0.0019
3836.00,0.0019
3835.00,0.0019
3834.00,0.0019
3833.00,0.0019
3832.00,0.0019
3831.00,0.0019
3830.00,0.0020
3829.00,0.0019
3828.00,0.0019
3827.00,0.0019
3826.00,0.0019
3825.00,0.0019
3824.00,0.0019
3823.00,0.0018
3822.00,0.0018
3821.00,0.0018
3820.00,0.0018
3819.00,0.0018
3818.00,0.0018
3817.00,0.0018
3816.00,0.0019
3815.00,0.0019
3814.00,0.0019
3813.00,0.0019
3812.00,0.0019
3811.00,0.0019
3810.00,0.0019
3809.00,0.0019
3808.00,0.0019
3807.00,0.0019
3806.00,0.0019
3805.00,0.0019
3804.00,0.0019
3803.00,0.0018
3802.00,0.0018
3801.00,0.0019
3800.00,0.0019
3799.00,0.0019
3798.00,0.0019
3797.00,0.0019
3796.00,0.0019
3795.00,0.0019
3794.00,0.0019
3793.00,0.0019
3792.00,0.0019
3791.00,0.0020
3790.00,0.0020
3789.00,0.0020
3788.00,0.0020
3787.00,0.0020
3786.00,0.0020
3785.00,0.0020
3784.00,0.0020
3783.00,0.0020
3782.00,0.0020
3781.00,0.0020
3780.00,0.0019
3779.00,0.0019
3778.00,0.0019
3777.00,0.0020
3776.00,0.0020
3775.00,0.0020
3774.00,0.0020
3773.00,0.0020
3772.00,0.0020
3771.00,0.0020
3770.00,0.0020
3769.00,0.0019
3768.00,0.0019
3767.00,0.0019
3766.00,0.0019
3765.00,0.0020
3764.00,0.0020
3763.00,0.0020
3762.00,0.0020
3761.00,0.0020
3760.00,0.0020
3759.00,0.0020
3758.00,0.0020
3757.00,0.0020
3756.00,0.0020
3755.00,0.0020
3754.00,0.0020
3753.00,0.0020
3752.00,0.0020
3751.00,0.0019
3750.00,0.0019
3749.00,0.0018
3748.00,0.0018
3747.00,0.0018
3746.00,0.0017
3745.00,0.0018
3744.00,0.0018
3743.00,0.0019
3742.00,0.0019
3741.00,0.0019
3740.00,0.0019
3739.00,0.0019
3738.00,0.0019
3737.00,0.0019
3736.00,0.0018
3735.00,0.0018
3734.00,0.0017
3733.00,0.0017
3732.00,0.0017
3731.00,0.0017
3730.00,0.0017
3729.00,0.0018
3728.00,0.0018
3727.00,0.0019
3726.00,0.0019
3725.00,0.0019
3724.00,0.0019
3723.00,0.0018
3722.00,0.0019
3721.00,0.0019
3720.00,0.0019
3719.00,0.0019
3718.00,0.0019
3717.00,0.0019
3716.00,0.0019
3715.00,0.0018
3714.00,0.0018
3713.00,0.0018
3712.00,0.0018
3711.00,0.0018
3710.00,0.0017
3709.00,0.0018
3708.00,0.0018
3707.00,0.0018
3706.00,0.0018
3705.00,0.0018
3704.00,0.0018
3703.00,0.0018
3702.00,0.0018
3701.00,0.0019
3700.00,0.0019
3699.00,0.0019
3698.00,0.0019
3697.00,0.0019
3696.00,0.0019
3695.00,0.0019
3694.00,0.0019
3693.00,0.0019
3692.00,0.0019
3691.00,0.0019
3690.00,0.0019
3689.00,0.0019
3688.00,0.0019
3687.00,0.0019
3686.00,0.0019
3685.00,0.0019
3684.00,0.0019
3683.00,0.0019
3682.00,0.0020
3681.00,0.0020
3680.00,0.0020
3679.00,0.0021
3678.00,0.0021
3677.00,0.0021
3676.00,0.0021
3675.00,0.0021
3674.00,0.0021
3673.00,0.0021
3672.00,0.0021
3671.00,0.0021
3670.00,0.0021
3669.00,0.0021
3668.00,0.0021
3667.00,0.0021
3666.00,0.0021
3665.00,0.0021
3664.00,0.0022
3663.00,0.0022
3662.00,0.0022
3661.00,0.0022
3660.00,0.0022
3659.00,0.0022
3658.00,0.0022
3657.00,0.0022
3656.00,0.0022
3655.00,0.0022
3654.00,0.0022
3653.00,0.0022
3652.00,0.0021
3651.00,0.0021
3650.00,0.0021
3649.00,0.0021
3648.00,0.0022
3647.00,0.0022
3646.00,0.0022
3645.00,0.0023
3644.00,0.0023
3643.00,0.0024
3642.00,0.0024
3641.00,0.0025
3640.00,0.0025
3639.00,0.0025
3638.00,0.0026
3637.00,0.0026
3636.00,0.0026
3635.00,0.0026
3634.00,0.0026
3633.00,0.0026
3632.00,0.0026
3631.00,0.0025
3630.00,0.0025
3629.00,0.0026
3628.00,0.0026
3627.00,0.0026
3626.00,0.0026
3625.00,0.0027
3624.00,0.0027
3623.00,0.0027
3622.00,0.0027
3621.00,0.0026
3620.00,0.0026
3619.00,0.0027
3618.00,0.0027
3617.00,0.0028
3616.00,0.0029
3615.00,0.0029
3614.00,0.0029
3613.00,0.0029
3612.00,0.0030
3611.00,0.0029
3610.00,0.0029
3609.00,0.0029
3608.00,0.0029
3607.00,0.0030
3606.00,0.0030
3605.00,0.0030
3604.00,0.0030
3603.00,0.0030
3602.00,0.0030
3601.00,0.0030
3600.00,0.0030
3599.00,0.0031
3598.00,0.0031
3597.00,0.0031
3596.00,0.0031
3595.00,0.0031
3594.00,0.0031
3593.00,0.0032
3592.00,0.0032
3591.00,0.0031
3590.00,0.0031
3589.00,0.0030
3588.00,0.0030
3587.00,0.0031
3586.00,0.0031
3585.00,0.0032
3584.00,0.0032
3583.00,0.0032
3582.00,0.0033
3581.00,0.0033
3580.00,0.0033
3579.00,0.0033
3578.00,0.0033
3577.00,0.0033
3576.00,0.0033
3575.00,0.0034
3574.00,0.0034
3573.00,0.0034
3572.00,0.0035
3571.00,0.0035
3570.00,0.0035
3569.00,0.0035
3568.00,0.0034
3567.00,0.0035
3566.00,0.0035
3565.00,0.0036
3564.00,0.0036
3563.00,0.0037
3562.00,0.0037
3561.00,0.0037
3560.00,0.0038
3559.00,0.0038
3558.00,0.0038
3557.00,0.0039
3556.00,0.0039
3555.00,0.0040
3554.00,0.0040
3553.00,0.0041
3552.00,0.0041
3551.00,0.0041
3550.00,0.0041
3549.00,0.0042
3548.00,0.0042
3547.00,0.0043
3546.00,0.0043
3545.00,0.0044
3544.00,0.0045
3543.00,0.0045
3542.00,0.0046
3541.00,0.0046
3540.00,0.0047
3539.00,0.0047
3538.00,0.0048
3537.00,0.0048
3536.00,0.0048
3535.00,0.0049
3534.00,0.0049
3533.00,0.0050
3532.00,0.0050
3531.00,0.0050
3530.00,0.0051
3529.00,0.0051
3528.00,0.0052
3527.00,0.0052
3526.00,0.0053
3525.00,0.0053
3524.00,0.0054
3523.00,0.0054
3522.00,0.0054
3521.00,0.0055
3520.00,0.0055
3519.00,0.0056
3518.00,0.0056
3517.00,0.0056
3516.00,0.0057
3515.00,0.0057
3514.00,0.0057
3513.00,0.0058
3512.00,0.0058
3511.00,0.0059
3510.00,0.0059
3509.00,0.0059
3508.00,0.0059
3507.00,0.0059
3506.00,0.0059
3505.00,0.0059
3504.00,0.0059
3503.00,0.0059
3502.00,0.0059
3501.00,0.0060
3500.00,0.0060
3499.00,0.0061
3498.00,0.0061
3497.00,0.0061
3496.00,0.0062
3495.00,0.0062
3494.00,0.0062
3493.00,0.0062
3492.00,0.0062
3491.00,0.0063
3490.00,0.0063
3489.00,0.0063
3488.00,0.0063
3487.00,0.0064
3486.00,0.0064
3485.00,0.0064
3484.00,0.0065
3483.00,0.0065
3482.00,0.0065
3481.00,0.0066
3480.00,0.0066
3479.00,0.0066
3478.00,0.0066
3477.00,0.0067
3476.00,0.0067
3475.00,0.0067
3474.00,0.0068
3473.00,0.0069
3472.00,0.0069
3471.00,0.0070
3470.00,0.0070
3469.00,0.0070
3468.00,0.0071
3467.00,0.0071
3466.00,0.0072
3465.00,0.0072
3464.00,0.0073
3463.00,0.0073
3462.00,0.0073
3461.00,0.0074
3460.00,0.0074
3459.00,0.0075
3458.00,0.0075
3457.00,0.0076
3456.00,0.0077
3455.00,0.0077
3454.00,0.0078
3453.00,0.0078
3452.00,0.0079
3451.00,0.0079
3450.00,0.0079
3449.00,0.0080
3448.00,0.0081
3447.00,0.0082
3446.00,0.0082
3445.00,0.0083
3444.00,0.0084
3443.00,0.0085
3442.00,0.0085
3441.00,0.0086
3440.00,0.0087
3439.00,0.0088
3438.00,0.0088
3437.00,0.0089
3436.00,0.0090
3435.00,0.0090
3434.00,0.0091
3433.00,0.0092
3432.00,0.0092
3431.00,0.0093
3430.00,0.0094
3429.00,0.0095
3428.00,0.0096
3427.00,0.0096
3426.00,0.0097
3425.00,0.0098
3424.00,0.0099
3423.00,0.0100
3422.00,0.0101
3421.00,0.0102
3420.00,0.0103
3419.00,0.0104
3418.00,0.0104
3417.00,0.0105
3416.00,0.0106
3415.00,0.0107
3414.00,0.0108
3413.00,0.0109
3412.00,0.0110
3411.00,0.0111
3410.00,0.0112
3409.00,0.0113
3408.00,0.0114
3407.00,0.0115
3406.00,0.0116
3405.00,0.0118
3404.00,0.0119
3403.00,0.0120
3402.00,0.0121
3401.00,0.0122
3400.00,0.0123
3399.00,0.0124
3398.00,0.0125
3397.00,0.0126
3396.00,0.0127
3395.00,0.0128
3394.00,0.0129
3393.00,0.0130
3392.00,0.0132
3391.00,0.0134
3390.00,0.0135
3389.00,0.0137
3388.00,0.0138
3387.00,0.0139
3386.00,0.0141
3385.00,0.0142
3384.00,0.0143
3383.00,0.0145
3382.00,0.0146
3381.00,0.0148
3380.00,0.0149
3379.00,0.0150
3378.00,0.0152
3377.00,0.0153
3376.00,0.0154
3375.00,0.0156
3374.00,0.0157
3373.00,0.0158
3372.00,0.0159
3371.00,0.0160
3370.00,0.0161
3369.00,0.0162
3368.00,0.0164
3367.00,0.0166
3366.00,0.0168
3365.00,0.0170
3364.00,0.0172
3363.00,0.0173
3362.00,0.0175
3361.00,0.0176
3360.00,0.0177
3359.00,0.0179
3358.00,0.0181
3357.00,0.0183
3356.00,0.0185
3355.00,0.0186
3354.00,0.0187
3353.00,0.0188
3352.00,0.0189
3351.00,0.0190
3350.00,0.0192
3349.00,0.0194
3348.00,0.0196
3347.00,0.0197
3346.00,0.0199
3345.00,0.0200
3344.00,0.0201
3343.00,0.0203
3342.00,0.0204
3341.00,0.0205
3340.00,0.0206
3339.00,0.0208
3338.00,0.0210
3337.00,0.0212
3336.00,0.0214
3335.00,0.0216
3334.00,0.0218
3333.00,0.0220
3332.00,0.0222
3331.00,0.0223
3330.00,0.0224
3329.00,0.0225
3328.00,0.0226
3327.00,0.0227
3326.00,0.0228
3325.00,0.0230
3324.00,0.0233
3323.00,0.0235
3322.00,0.0237
3321.00,0.0239
3320.00,0.0240
3319.00,0.0242
3318.00,0.0243
3317.00,0.0244
3316.00,0.0245
3315.00,0.0246
3314.00,0.0247
3313.00,0.0248
3312.00,0.0248
3311.00,0.0248
3310.00,0.0248
3309.00,0.0248
3308.00,0.0249
3307.00,0.0250
3306.00,0.0251
3305.00,0.0253
3304.00,0.0256
3303.00,0.0259
3302.00,0.0261
3301.00,0.0263
3300.00,0.0264
3299.00,0.0265
3298.00,0.0265
3297.00,0.0265
3296.00,0.0265
3295.00,0.0266
3294.00,0.0266
3293.00,0.0267
3292.00,0.0269
3291.00,0.0271
3290.00,0.0272
3289.00,0.0274
3288.00,0.0275
3287.00,0.0276
3286.00,0.0277
3285.00,0.0278
3284.00,0.0278
3283.00,0.0279
3282.00,0.0279
3281.00,0.0280
3280.00,0.0281
3279.00,0.0281
3278.00,0.0282
3277.00,0.0282
3276.00,0.0283
3275.00,0.0283
3274.00,0.0283
3273.00,0.0284
3272.00,0.0284
3271.00,0.0285
3270.00,0.0286
3269.00,0.0287
3268.00,0.0288
3267.00,0.0289
3266.00,0.0289
3265.00,0.0290
3264.00,0.0291
3263.00,0.0291
3262.00,0.0292
3261.00,0.0292
3260.00,0.0293
3259.00,0.0294
3258.00,0.0294
3257.00,0.0294
3256.00,0.0295
3255.00,0.0296
3254.00,0.0296
3253.00,0.0297
3252.00,0.0298
3251.00,0.0299
3250.00,0.0299
3249.00,0.0299
3248.00,0.0298
3247.00,0.0299
3246.00,0.0300
3245.00,0.0301
3244.00,0.0303
3243.00,0.0304
3242.00,0.0304
3241.00,0.0305
3240.00,0.0305
3239.00,0.0305
3238.00,0.0305
3237.00,0.0305
3236.00,0.0305
3235.00,0.0304
3234.00,0.0304
3233.00,0.0305
3232.00,0.0305
3231.00,0.0306
3230.00,0.0307
3229.00,0.0308
3228.00,0.0308
3227.00,0.0308
3226.00,0.0309
3225.00,0.0309
3224.00,0.0310
3223.00,0.0310
3222.00,0.0310
3221.00,0.0310
3220.00,0.0309
3219.00,0.0309
3218.00,0.0309
3217.00,0.0309
3216.00,0.0309
3215.00,0.0310
3214.00,0.0310
3213.00,0.0310
3212.00,0.0310
3211.00,0.0310
3210.00,0.0310
3209.00,0.0310
3208.00,0.0310
3207.00,0.0310
3206.00,0.0310
3205.00,0.0310
3204.00,0.0310
3203.00,0.0310
3202.00,0.0310
3201.00,0.0310
3200.00,0.0310
3199.00,0.0310
3198.00,0.0310
3197.00,0.0310
3196.00,0.0310
3195.00,0.0310
3194.00,0.0311
3193.00,0.0311
3192.00,0.0310
3191.00,0.0310
3190.00,0.0310
3189.00,0.0310
3188.00,0.0310
3187.00,0.0310
3186.00,0.0309
3185.00,0.0310
3184.00,0.0310
3183.00,0.0310
3182.00,0.0309
3181.00,0.0309
3180.00,0.0309
3179.00,0.0309
3178.00,0.0309
3177.00,0.0309
3176.00,0.0309
3175.00,0.0309
3174.00,0.0308
3173.00,0.0308
3172.00,0.0308
3171.00,0.0307
3170.00,0.0307
3169.00,0.0306
3168.00,0.0305
3167.00,0.0305
3166.00,0.0304
3165.00,0.0304
3164.00,0.0303
3163.00,0.0302
3162.00,0.0301
3161.00,0.0300
3160.00,0.0300
3159.00,0.0299
3158.00,0.0298
3157.00,0.0297
3156.00,0.0296
3155.00,0.0295
3154.00,0.0294
3153.00,0.0293
3152.00,0.0293
3151.00,0.0293
3150.00,0.0292
3149.00,0.0292
3148.00,0.0291
3147.00,0.0290
3146.00,0.0290
3145.00,0.0289
3144.00,0.0288
3143.00,0.0287
3142.00,0.0286
3141.00,0.0285
3140.00,0.0284
3139.00,0.0284
3138.00,0.0283
3137.00,0.0283
3136.00,0.0283
3135.00,0.0282
3134.00,0.0282
3133.00,0.0281
3132.00,0.0281
3131.00,0.0280
3130.00,0.0280
3129.00,0.0279
3128.00,0.0279
3127.00,0.0279
3126.00,0.0278
3125.00,0.0278
3124.00,0.0277
3123.00,0.0277
3122.00,0.0276
3121.00,0.0275
3120.00,0.0275
3119.00,0.0274
3118.00,0.0273
3117.00,0.0273
3116.00,0.0272
3115.00,0.0271
3114.00,0.0269
3113.00,0.0268
3112.00,0.0267
3111.00,0.0265
3110.00,0.0264
3109.00,0.0263
3108.00,0.0262
3107.00,0.0261
3106.00,0.0260
3105.00,0.0259
3104.00,0.0258
3103.00,0.0257
3102.00,0.0257
3101.00,0.0256
3100.00,0.0256
3099.00,0.0255
3098.00,0.0255
3097.00,0.0255
3096.00,0.0254
3095.00,0.0254
3094.00,0.0254
3093.00,0.0254
3092.00,0.0254
3091.00,0.0254
3090.00,0.0255
3089.00,0.0255
3088.00,0.0255
3087.00,0.0255
3086.00,0.0255
3085.00,0.0255
3084.00,0.0256
3083.00,0.0256
3082.00,0.0256
3081.00,0.0256
3080.00,0.0257
3079.00,0.0257
3078.00,0.0256
3077.00,0.0256
3076.00,0.0255
3075.00,0.0254
3074.00,0.0253
3073.00,0.0252
3072.00,0.0251
3071.00,0.0249
3070.00,0.0248
3069.00,0.0246
3068.00,0.0245
3067.00,0.0244
3066.00,0.0242
3065.00,0.0241
3064.00,0.0240
3063.00,0.0239
3062.00,0.0238
3061.00,0.0237
3060.00,0.0236
3059.00,0.0235
3058.00,0.0234
3057.00,0.0233
3056.00,0.0232
3055.00,0.0232
3054.00,0.0231
3053.00,0.0231
3052.00,0.0230
3051.00,0.0230
3050.00,0.0229
3049.00,0.0229
3048.00,0.0228
3047.00,0.0228
3046.00,0.0227
3045.00,0.0227
3044.00,0.0226
3043.00,0.0226
3042.00,0.0225
3041.00,0.0225
3040.00,0.0225
3039.00,0.0224
3038.00,0.0224
3037.00,0.0223
3036.00,0.0223
3035.00,0.0223
3034.00,0.0222
3033.00,0.0222
3032.00,0.0222
3031.00,0.0221
3030.00,0.0220
3029.00,0.0219
3028.00,0.0218
3027.00,0.0216
3026.00,0.0214
3025.00,0.0213
3024.00,0.0211
3023.00,0.0209
3022.00,0.0208
3021.00,0.0206
3020.00,0.0205
3019.00,0.0204
3018.00,0.0203
3017.00,0.0202
3016.00,0.0202
3015.00,0.0201
3014.00,0.0201
3013.00,0.0202
3012.00,0.0202
3011.00,0.0203
3010.00,0.0203
3009.00,0.0205
3008.00,0.0206
3007.00,0.0208
3006.00,0.0211
3005.00,0.0213
3004.00,0.0216
3003.00,0.0220
3002.00,0.0224
3001.00,0.0229
3000.00,0.0235
2999.00,0.0241
2998.00,0.0248
2997.00,0.0257
2996.00,0.0266
2995.00,0.0275
2994.00,0.0285
2993.00,0.0296
2992.00,0.0307
2991.00,0.0319
2990.00,0.0330
2989.00,0.0342
2988.00,0.0354
2987.00,0.0365
2986.00,0.0376
2985.00,0.0386
2984.00,0.0395
2983.00,0.0403
2982.00,0.0410
2981.00,0.0417
2980.00,0.0424
2979.00,0.0429
2978.00,0.0434
2977.00,0.0438
2976.00,0.0441
2975.00,0.0444
2974.00,0.0448
2973.00,0.0452
2972.00,0.0457
2971.00,0.0463
2970.00,0.0470
2969.00,0.0478
2968.00,0.0486
2967.00,0.0495
2966.00,0.0505
2965.00,0.0514
2964.00,0.0524
2963.00,0.0533
2962.00,0.0543
2961.00,0.0552
2960.00,0.0560
2959.00,0.0568
2958.00,0.0575
2957.00,0.0580
2956.00,0.0583
2955.00,0.0584
2954.00,0.0582
2953.00,0.0579
2952.00,0.0575
2951.00,0.0569
2950.00,0.0562
2949.00,0.0556
2948.00,0.0552
2947.00,0.0549
2946.00,0.0549
2945.00,0.0552
2944.00,0.0557
2943.00,0.0565
2942.00,0.0575
2941.00,0.0587
2940.00,0.0600
2939.00,0.0615
2938.00,0.0630
2937.00,0.0646
2936.00,0.0663
2935.00,0.0679
2934.00,0.0695
2933.00,0.0710
2932.00,0.0724
2931.00,0.0736
2930.00,0.0746
2929.00,0.0754
2928.00,0.0760
2927.00,0.0763
2926.00,0.0762
2925.00,0.0759
2924.00,0.0753
2923.00,0.0746
2922.00,0.0736
2921.00,0.0724
2920.00,0.0711
2919.00,0.0696
2918.00,0.0680
2917.00,0.0664
2916.00,0.0647
2915.00,0.0630
2914.00,0.0614
2913.00,0.0598
2912.00,0.0582
2911.00,0.0567
2910.00,0.0552
2909.00,0.0539
2908.00,0.0526
2907.00,0.0514
2906.00,0.0503
2905.00,0.0493
2904.00,0.0483
2903.00,0.0475
2902.00,0.0467
2901.00,0.0460
2900.00,0.0453
2899.00,0.0447
2898.00,0.0441
2897.00,0.0436
2896.00,0.0431
2895.00,0.0427
2894.00,0.0422
2893.00,0.0418
2892.00,0.0414
2891.00,0.0410
2890.00,0.0405
2889.00,0.0401
2888.00,0.0398
2887.00,0.0394
2886.00,0.0391
2885.00,0.0389
2884.00,0.0387
2883.00,0.0387
2882.00,0.0387
2881.00,0.0389
2880.00,0.0393
2879.00,0.0397
2878.00,0.0404
2877.00,0.0411
2876.00,0.0419
2875.00,0.0429
2874.00,0.0438
2873.00,0.0447
2872.00,0.0455
2871.00,0.0460
2870.00,0.0464
2869.00,0.0465
2868.00,0.0466
2867.00,0.0467
2866.00,0.0468
2865.00,0.0471
2864.00,0.0477
2863.00,0.0484
2862.00,0.0492
2861.00,0.0501
2860.00,0.0510
2859.00,0.0517
2858.00,0.0522
2857.00,0.0523
2856.00,0.0520
2855.00,0.0514
2854.00,0.0504
2853.00,0.0491
2852.00,0.0476
2851.00,0.0460
2850.00,0.0443
2849.00,0.0425
2848.00,0.0407
2847.00,0.0390
2846.00,0.0372
2845.00,0.0355
2844.00,0.0339
2843.00,0.0323
2842.00,0.0307
2841.00,0.0293
2840.00,0.0280
2839.00,0.0269
2838.00,0.0259
2837.00,0.0251
2836.00,0.0243
2835.00,0.0237
2834.00,0.0231
2833.00,0.0225
2832.00,0.0220
2831.00,0.0215
2830.00,0.0210
2829.00,0.0206
2828.00,0.0202
2827.00,0.0197
2826.00,0.0193
2825.00,0.0190
2824.00,0.0186
2823.00,0.0183
2822.00,0.0180
2821.00,0.0176
2820.00,0.0173
2819.00,0.0171
2818.00,0.0168
2817.00,0.0166
2816.00,0.0163
2815.00,0.0161
2814.00,0.0159
2813.00,0.0157
2812.00,0.0155
2811.00,0.0154
2810.00,0.0152
2809.00,0.0151
2808.00,0.0150
2807.00,0.0149
2806.00,0.0147
2805.00,0.0146
2804.00,0.0145
2803.00,0.0144
2802.00,0.0142
2801.00,0.0141
2800.00,0.0139
2799.00,0.0138
2798.00,0.0137
2797.00,0.0136
2796.00,0.0135
2795.00,0.0134
2794.00,0.0133
2793.00,0.0132
2792.00,0.0131
2791.00,0.0130
2790.00,0.0129
2789.00,0.0129
2788.00,0.0128
2787.00,0.0128
2786.00,0.0127
2785.00,0.0126
2784.00,0.0125
2783.00,0.0124
2782.00,0.0123
2781.00,0.0123
2780.00,0.0122
2779.00,0.0122
2778.00,0.0121
2777.00,0.0120
2776.00,0.0119
2775.00,0.0119
2774.00,0.0118
2773.00,0.0118
2772.00,0.0118
2771.00,0.0117
2770.00,0.0117
2769.00,0.0117
2768.00,0.0116
2767.00,0.0116
2766.00,0.0116
2765.00,0.0116
2764.00,0.0116
2763.00,0.0116
2762.00,0.0116
2761.00,0.0116
2760.00,0.0116
2759.00,0.0117
2758.00,0.0117
2757.00,0.0117
2756.00,0.0117
2755.00,0.0117
2754.00,0.0117
2753.00,0.0117
2752.00,0.0118
2751.00,0.0118
2750.00,0.0118
2749.00,0.0118
2748.00,0.0118
2747.00,0.0119
2746.00,0.0119
2745.00,0.0120
2744.00,0.0120
2743.00,0.0120
2742.00,0.0121
2741.00,0.0121
2740.00,0.0122
2739.00,0.0122
2738.00,0.0122
2737.00,0.0123
2736.00,0.0123
2735.00,0.0124
2734.00,0.0124
2733.00,0.0125
2732.00,0.0125
2731.00,0.0125
2730.00,0.0124
2729.00,0.0124
2728.00,0.0123
2727.00,0.0123
2726.00,0.0122
2725.00,0.0122
2724.00,0.0121
2723.00,0.0120
2722.00,0.0119
2721.00,0.0119
2720.00,0.0118
2719.00,0.0117
2718.00,0.0117
2717.00,0.0116
2716.00,0.0116
2715.00,0.0115
2714.00,0.0114
2713.00,0.0114
2712.00,0.0113
2711.00,0.0113
2710.00,0.0112
2709.00,0.0112
2708.00,0.0111
2707.00,0.0111
2706.00,0.0110
2705.00,0.0110
2704.00,0.0109
2703.00,0.0109
2702.00,0.0108
2701.00,0.0108
2700.00,0.0107
2699.00,0.0107
2698.00,0.0106
2697.00,0.0105
2696.00,0.0105
2695.00,0.0104
2694.00,0.0103
2693.00,0.0103
2692.00,0.0103
2691.00,0.0102
2690.00,0.0102
2689.00,0.0102
2688.00,0.0101
2687.00,0.0101
2686.00,0.0101
2685.00,0.0100
2684.00,0.0100
2683.00,0.0100
2682.00,0.0099
2681.00,0.0099
2680.00,0.0099
2679.00,0.0099
2678.00,0.0099
2677.00,0.0099
2676.00,0.0099
2675.00,0.0098
2674.00,0.0098
2673.00,0.0098
2672.00,0.0098
2671.00,0.0098
2670.00,0.0098
2669.00,0.0098
2668.00,0.0099
2667.00,0.0099
2666.00,0.0099
2665.00,0.0099
2664.00,0.0100
2663.00,0.0100
2662.00,0.0100
2661.00,0.0100
2660.00,0.0099
2659.00,0.0099
2658.00,0.0099
2657.00,0.0099
2656.00,0.0099
2655.00,0.0098
2654.00,0.0098
2653.00,0.0098
2652.00,0.0097
2651.00,0.0097
2650.00,0.0097
2649.00,0.0096
2648.00,0.0096
2647.00,0.0096
2646.00,0.0096
2645.00,0.0095
2644.00,0.0095
2643.00,0.0095
2642.00,0.0094
2641.00,0.0093
2640.00,0.0093
2639.00,0.0092
2638.00,0.0092
2637.00,0.0091
2636.00,0.0091
2635.00,0.0090
2634.00,0.0090
2633.00,0.0090
2632.00,0.0089
2631.00,0.0089
2630.00,0.0089
2629.00,0.0088
2628.00,0.0088
2627.00,0.0088
2626.00,0.0087
2625.00,0.0087
2624.00,0.0087
2623.00,0.0087
2622.00,0.0087
2621.00,0.0087
2620.00,0.0087
2619.00,0.0087
2618.00,0.0086
2617.00,0.0086
2616.00,0.0086
2615.00,0.0086
2614.00,0.0086
2613.00,0.0086
2612.00,0.0086
2611.00,0.0086
2610.00,0.0085
2609.00,0.0085
2608.00,0.0085
2607.00,0.0085
2606.00,0.0084
2605.00,0.0084
2604.00,0.0084
2603.00,0.0084
2602.00,0.0084
2601.00,0.0084
2600.00,0.0083
2599.00,0.0083
2598.00,0.0082
2597.00,0.0082
2596.00,0.0082
2595.00,0.0082
2594.00,0.0082
2593.00,0.0082
2592.00,0.0082
2591.00,0.0082
2590.00,0.0081
2589.00,0.0081
2588.00,0.0081
2587.00,0.0081
2586.00,0.0080
2585.00,0.0080
2584.00,0.0080
2583.00,0.0080
2582.00,0.0080
2581.00,0.0080
2580.00,0.0079
2579.00,0.0079
2578.00,0.0079
2577.00,0.0079
2576.00,0.0079
2575.00,0.0079
2574.00,0.0078
2573.00,0.0078
2572.00,0.0078
2571.00,0.0078
2570.00,0.0078
2569.00,0.0078
2568.00,0.0077
2567.00,0.0077
2566.00,0.0076
2565.00,0.0076
2564.00,0.0076
2563.00,0.0076
2562.00,0.0075
2561.00,0.0075
2560.00,0.0075
2559.00,0.0075
2558.00,0.0074
2557.00,0.0074
2556.00,0.0074
2555.00,0.0073
2554.00,0.0073
2553.00,0.0073
2552.00,0.0073
2551.00,0.0073
2550.00,0.0072
2549.00,0.0072
2548.00,0.0072
2547.00,0.0071
2546.00,0.0071
2545.00,0.0071
2544.00,0.0070
2543.00,0.0070
2542.00,0.0069
2541.00,0.0069
2540.00,0.0069
2539.00,0.0069
2538.00,0.0069
2537.00,0.0069
2536.00,0.0068
2535.00,0.0068
2534.00,0.0067
2533.00,0.0066
2532.00,0.0066
2531.00,0.0066
2530.00,0.0065
2529.00,0.0065
2528.00,0.0065
2527.00,0.0064
2526.00,0.0063
2525.00,0.0063
2524.00,0.0062
2523.00,0.0061
2522.00,0.0060
2521.00,0.0059
2520.00,0.0059
2519.00,0.0059
2518.00,0.0059
2517.00,0.0058
2516.00,0.0058
2515.00,0.0057
2514.00,0.0056
2513.00,0.0056
2512.00,0.0056
2511.00,0.0055
2510.00,0.0055
2509.00,0.0055
2508.00,0.0055
2507.00,0.0054
2506.00,0.0054
2505.00,0.0053
2504.00,0.0053
2503.00,0.0052
2502.00,0.0052
2501.00,0.0052
2500.00,0.0052
2499.00,0.0052
2498.00,0.0052
2497.00,0.0052
2496.00,0.0052
2495.00,0.0052
2494.00,0.0051
2493.00,0.0051
2492.00,0.0051
2491.00,0.0050
2490.00,0.0050
2489.00,0.0050
2488.00,0.0050
2487.00,0.0050
2486.00,0.0050
2485.00,0.0050
2484.00,0.0050
2483.00,0.0050
2482.00,0.0050
2481.00,0.0050
2480.00,0.0050
2479.00,0.0049
2478.00,0.0049
2477.00,0.0049
2476.00,0.0049
2475.00,0.0049
2474.00,0.0049
2473.00,0.0048
2472.00,0.0048
2471.00,0.0048
2470.00,0.0048
2469.00,0.0048
2468.00,0.0048
2467.00,0.0048
2466.00,0.0048
2465.00,0.0048
2464.00,0.0048
2463.00,0.0048
2462.00,0.0048
2461.00,0.0049
2460.00,0.0049
2459.00,0.0050
2458.00,0.0050
2457.00,0.0050
2456.00,0.0049
2455.00,0.0049
2454.00,0.0049
2453.00,0.0049
2452.00,0.0048
2451.00,0.0048
2450.00,0.0048
2449.00,0.0047
2448.00,0.0047
2447.00,0.0047
2446.00,0.0047
2445.00,0.0047
2444.00,0.0047
2443.00,0.0047
2442.00,0.0047
2441.00,0.0047
2440.00,0.0046
2439.00,0.0045
2438.00,0.0045
2437.00,0.0045
2436.00,0.0045
2435.00,0.0045
2434.00,0.0045
2433.00,0.0045
2432.00,0.0045
2431.00,0.0045
2430.00,0.0045
2429.00,0.0045
2428.00,0.0044
2427.00,0.0044
2426.00,0.0044
2425.00,0.0044
2424.00,0.0044
2423.00,0.0044
2422.00,0.0044
2421.00,0.0043
2420.00,0.0043
2419.00,0.0043
2418.00,0.0043
2417.00,0.0042
2416.00,0.0042
2415.00,0.0042
2414.00,0.0042
2413.00,0.0042
2412.00,0.0043
2411.00,0.0043
2410.00,0.0043
2409.00,0.0042
2408.00,0.0042
2407.00,0.0041
2406.00,0.0041
2405.00,0.0040
2404.00,0.0040
2403.00,0.0041
2402.00,0.0041
2401.00,0.0041
2400.00,0.0041
2399.00,0.0041
2398.00,0.0041
2397.00,0.0041
2396.00,0.0041
2395.00,0.0041
2394.00,0.0041
2393.00,0.0040
2392.00,0.0040
2391.00,0.0040
2390.00,0.0039
2389.00,0.0039
2388.00,0.0039
2387.00,0.0038
2386.00,0.0038
2385.00,0.0037
2384.00,0.0037
2383.00,0.0036
2382.00,0.0035
2381.00,0.0035
2380.00,0.0035
2379.00,0.0035
2378.00,0.0035
2377.00,0.0036
2376.00,0.0036
2375.00,0.0036
2374.00,0.0036
2373.00,0.0036
2372.00,0.0036
2371.00,0.0035
2370.00,0.0035
2369.00,0.0035
2368.00,0.0035
2367.00,0.0035
2366.00,0.0035
2365.00,0.0036
2364.00,0.0036
2363.00,0.0037
2362.00,0.0037
2361.00,0.0037
2360.00,0.0037
2359.00,0.0037
2358.00,0.0037
2357.00,0.0037
2356.00,0.0037
2355.00,0.0037
2354.00,0.0037
2353.00,0.0037
2352.00,0.0036
2351.00,0.0036
2350.00,0.0037
2349.00,0.0038
2348.00,0.0039
2347.00,0.0039
2346.00,0.0039
2345.00,0.0038
2344.00,0.0039
2343.00,0.0040
2342.00,0.0040
2341.00,0.0040
2340.00,0.0040
2339.00,0.0040
2338.00,0.0040
2337.00,0.0040
2336.00,0.0040
2335.00,0.0039
2334.00,0.0039
2333.00,0.0038
2332.00,0.0038
2331.00,0.0038
2330.00,0.0039
2329.00,0.0042
2328.00,0.0046
2327.00,0.0050
2326.00,0.0054
2325.00,0.0054
2324.00,0.0053
2323.00,0.0051
2322.00,0.0049
2321.00,0.0047
2320.00,0.0047
2319.00,0.0047
2318.00,0.0046
2317.00,0.0046
2316.00,0.0045
2315.00,0.0044
2314.00,0.0043
2313.00,0.0043
2312.00,0.0042
2311.00,0.0041
2310.00,0.0041
2309.00,0.0041
2308.00,0.0041
2307.00,0.0041
2306.00,0.0041
2305.00,0.0041
2304.00,0.0041
2303.00,0.0041
2302.00,0.0042
2301.00,0.0042
2300.00,0.0043
2299.00,0.0043
2298.00,0.0043
2297.00,0.0044
2296.00,0.0044
2295.00,0.0045
2294.00,0.0046
2293.00,0.0047
2292.00,0.0048
2291.00,0.0049
2290.00,0.0050
2289.00,0.0050
2288.00,0.0050
2287.00,0.0049
2286.00,0.0048
2285.00,0.0047
2284.00,0.0047
2283.00,0.0046
2282.00,0.0045
2281.00,0.0045
2280.00,0.0044
2279.00,0.0044
2278.00,0.0043
2277.00,0.0042
2276.00,0.0042
2275.00,0.0041
2274.00,0.0040
2273.00,0.0040
2272.00,0.0040
2271.00,0.0040
2270.00,0.0039
2269.00,0.0039
2268.00,0.0038
2267.00,0.0037
2266.00,0.0036
2265.00,0.0036
2264.00,0.0036
2263.00,0.0036
2262.00,0.0036
2261.00,0.0037
2260.00,0.0037
2259.00,0.0037
2258.00,0.0036
2257.00,0.0035
2256.00,0.0033
2255.00,0.0033
2254.00,0.0033
2253.00,0.0033
2252.00,0.0033
2251.00,0.0034
2250.00,0.0034
2249.00,0.0035
2248.00,0.0036
2247.00,0.0036
2246.00,0.0037
2245.00,0.0037
2244.00,0.0037
2243.00,0.0038
2242.00,0.0037
2241.00,0.0037
2240.00,0.0037
2239.00,0.0036
2238.00,0.0036
2237.00,0.0035
2236.00,0.0035
2235.00,0.0036
2234.00,0.0036
2233.00,0.0036
2232.00,0.0036
2231.00,0.0036
2230.00,0.0036
2229.00,0.0035
2228.00,0.0035
2227.00,0.0035
2226.00,0.0034
2225.00,0.0035
2224.00,0.0036
2223.00,0.0036
2222.00,0.0035
2221.00,0.0035
2220.00,0.0036
2219.00,0.0036
2218.00,0.0036
2217.00,0.0036
2216.00,0.0036
2215.00,0.0037
2214.00,0.0038
2213.00,0.0038
2212.00,0.0038
2211.00,0.0036
2210.00,0.0035
2209.00,0.0034
2208.00,0.0033
2207.00,0.0032
2206.00,0.0032
2205.00,0.0032
2204.00,0.0033
2203.00,0.0034
2202.00,0.0034
2201.00,0.0034
2200.00,0.0035
2199.00,0.0034
2198.00,0.0034
2197.00,0.0034
2196.00,0.0034
2195.00,0.0034
2194.00,0.0034
2193.00,0.0034
2192.00,0.0034
2191.00,0.0034
2190.00,0.0035
2189.00,0.0036
2188.00,0.0037
2187.00,0.0038
2186.00,0.0038
2185.00,0.0037
2184.00,0.0035
2183.00,0.0032
2182.00,0.0029
2181.00,0.0029
2180.00,0.0030
2179.00,0.0031
2178.00,0.0030
2177.00,0.0029
2176.00,0.0028
2175.00,0.0028
2174.00,0.0028
2173.00,0.0030
2172.00,0.0033
2171.00,0.0036
2170.00,0.0038
2169.00,0.0040
2168.00,0.0041
2167.00,0.0042
2166.00,0.0043
2165.00,0.0044
2164.00,0.0047
2163.00,0.0046
2162.00,0.0039
2161.00,0.0027
2160.00,0.0012
2159.00,0.0001
2158.00,-0.0005
2157.00,-0.0006
2156.00,-0.0004
2155.00,-0.0002
2154.00,0.0000
2153.00,0.0003
2152.00,0.0005
2151.00,0.0007
2150.00,0.0007
2149.00,0.0008
2148.00,0.0008
2147.00,0.0008
2146.00,0.0008
2145.00,0.0008
2144.00,0.0009
2143.00,0.0010
2142.00,0.0010
2141.00,0.0010
2140.00,0.0011
2139.00,0.0011
2138.00,0.0009
2137.00,0.0006
2136.00,0.0004
2135.00,0.0002
2134.00,0.0002
2133.00,0.0003
2132.00,0.0006
2131.00,0.0008
2130.00,0.0009
2129.00,0.0010
2128.00,0.0012
2127.00,0.0013
2126.00,0.0013
2125.00,0.0014
2124.00,0.0015
2123.00,0.0017
2122.00,0.0017
2121.00,0.0018
2120.00,0.0018
2119.00,0.0019
2118.00,0.0020
2117.00,0.0022
2116.00,0.0022
2115.00,0.0023
2114.00,0.0023
2113.00,0.0024
2112.00,0.0024
2111.00,0.0024
2110.00,0.0023
2109.00,0.0022
2108.00,0.0022
2107.00,0.0022
2106.00,0.0023
2105.00,0.0024
2104.00,0.0025
2103.00,0.0025
2102.00,0.0025
2101.00,0.0026
2100.00,0.0026
2099.00,0.0025
2098.00,0.0024
2097.00,0.0023
2096.00,0.0021
2095.00,0.0021
2094.00,0.0021
2093.00,0.0022
2092.00,0.0023
2091.00,0.0024
2090.00,0.0025
2089.00,0.0025
2088.00,0.0026
2087.00,0.0027
2086.00,0.0027
2085.00,0.0028
2084.00,0.0029
2083.00,0.0029
2082.00,0.0029
2081.00,0.0029
2080.00,0.0029
2079.00,0.0028
2078.00,0.0027
2077.00,0.0027
2076.00,0.0028
2075.00,0.0028
2074.00,0.0029
2073.00,0.0029
2072.00,0.0030
2071.00,0.0030
2070.00,0.0030
2069.00,0.0029
2068.00,0.0028
2067.00,0.0027
2066.00,0.0025
2065.00,0.0024
2064.00,0.0024
2063.00,0.0023
2062.00,0.0023
2061.00,0.0024
2060.00,0.0025
2059.00,0.0026
2058.00,0.0026
2057.00,0.0025
2056.00,0.0024
2055.00,0.0025
2054.00,0.0028
2053.00,0.0033
2052.00,0.0036
2051.00,0.0036
2050.00,0.0032
2049.00,0.0027
2048.00,0.0025
2047.00,0.0026
2046.00,0.0027
2045.00,0.0029
2044.00,0.0031
2043.00,0.0032
2042.00,0.0031
2041.00,0.0031
2040.00,0.0030
2039.00,0.0030
2038.00,0.0028
2037.00,0.0027
2036.00,0.0027
2035.00,0.0025
2034.00,0.0023
2033.00,0.0022
2032.00,0.0022
2031.00,0.0023
2030.00,0.0023
2029.00,0.0023
2028.00,0.0025
2027.00,0.0024
2026.00,0.0023
2025.00,0.0023
2024.00,0.0024
2023.00,0.0025
2022.00,0.0024
2021.00,0.0023
2020.00,0.0022
2019.00,0.0022
2018.00,0.0021
2017.00,0.0019
2016.00,0.0019
2015.00,0.0018
2014.00,0.0018
2013.00,0.0019
2012.00,0.0020
2011.00,0.0020
2010.00,0.0018
2009.00,0.0015
2008.00,0.0012
2007.00,0.0009
2006.00,0.0008
2005.00,0.0009
2004.00,0.0012
2003.00,0.0014
2002.00,0.0016
2001.00,0.0017
2000.00,0.0019
1999.00,0.0021
1998.00,0.0022
1997.00,0.0024
1996.00,0.0026
1995.00,0.0027
1994.00,0.0028
1993.00,0.0028
1992.00,0.0029
1991.00,0.0029
1990.00,0.0028
1989.00,0.0027
1988.00,0.0027
1987.00,0.0027
1986.00,0.0028
1985.00,0.0029
1984.00,0.0032
1983.00,0.0035
1982.00,0.0037
1981.00,0.0038
1980.00,0.0036
1979.00,0.0030
1978.00,0.0022
1977.00,0.0017
1976.00,0.0015
1975.00,0.0015
1974.00,0.0014
1973.00,0.0014
1972.00,0.0015
1971.00,0.0015
1970.00,0.0016
1969.00,0.0017
1968.00,0.0019
1967.00,0.0019
1966.00,0.0019
1965.00,0.0019
1964.00,0.0020
1963.00,0.0019
1962.00,0.0017
1961.00,0.0015
1960.00,0.0014
1959.00,0.0013
1958.00,0.0013
1957.00,0.0015
1956.00,0.0017
1955.00,0.0018
1954.00,0.0017
1953.00,0.0016
1952.00,0.0017
1951.00,0.0018
1950.00,0.0018
1949.00,0.0019
1948.00,0.0021
1947.00,0.0022
1946.00,0.0022
1945.00,0.0022
1944.00,0.0023
1943.00,0.0022
1942.00,0.0021
1941.00,0.0021
1940.00,0.0022
1939.00,0.0023
1938.00,0.0023
1937.00,0.0024
1936.00,0.0025
1935.00,0.0026
1934.00,0.0025
1933.00,0.0025
1932.00,0.0026
1931.00,0.0026
1930.00,0.0026
1929.00,0.0025
1928.00,0.0026
1927.00,0.0025
1926.00,0.0025
1925.00,0.0026
1924.00,0.0028
1923.00,0.0029
1922.00,0.0029
1921.00,0.0030
1920.00,0.0030
1919.00,0.0030
1918.00,0.0029
1917.00,0.0029
1916.00,0.0029
1915.00,0.0030
1914.00,0.0030
1913.00,0.0031
1912.00,0.0033
1911.00,0.0033
1910.00,0.0033
1909.00,0.0034
1908.00,0.0034
1907.00,0.0035
1906.00,0.0036
1905.00,0.0036
1904.00,0.0036
1903.00,0.0036
1902.00,0.0036
1901.00,0.0036
1900.00,0.0037
1899.00,0.0037
1898.00,0.0037
1897.00,0.0038
1896.00,0.0038
1895.00,0.0038
1894.00,0.0037
1893.00,0.0037
1892.00,0.0038
1891.00,0.0039
1890.00,0.0038
1889.00,0.0038
1888.00,0.0037
1887.00,0.0037
1886.00,0.0037
1885.00,0.0037
1884.00,0.0037
1883.00,0.0037
1882.00,0.0036
1881.00,0.0036
1880.00,0.0036
1879.00,0.0035
1878.00,0.0035
1877.00,0.0035
1876.00,0.0035
1875.00,0.0034
1874.00,0.0033
1873.00,0.0033
1872.00,0.0034
1871.00,0.0035
1870.00,0.0035
1869.00,0.0035
1868.00,0.0035
1867.00,0.0035
1866.00,0.0034
1865.00,0.0033
1864.00,0.0034
1863.00,0.0034
1862.00,0.0034
1861.00,0.0034
1860.00,0.0035
1859.00,0.0035
1858.00,0.0035
1857.00,0.0035
1856.00,0.0035
1855.00,0.0035
1854.00,0.0035
1853.00,0.0035
1852.00,0.0036
1851.00,0.0037
1850.00,0.0037
1849.00,0.0038
1848.00,0.0039
1847.00,0.0040
1846.00,0.0040
1845.00,0.0039
1844.00,0.0038
1843.00,0.0037
1842.00,0.0037
1841.00,0.0037
1840.00,0.0038
1839.00,0.0038
1838.00,0.0038
1837.00,0.0037
1836.00,0.0037
1835.00,0.0037
1834.00,0.0036
1833.00,0.0037
1832.00,0.0037
1831.00,0.0038
1830.00,0.0037
1829.00,0.0036
1828.00,0.0036
1827.00,0.0036
1826.00,0.0036
1825.00,0.0035
1824.00,0.0035
1823.00,0.0035
1822.00,0.0035
1821.00,0.0034
1820.00,0.0034
1819.00,0.0033
1818.00,0.0032
1817.00,0.0031
1816.00,0.0032
1815.00,0.0033
1814.00,0.0034
1813.00,0.0036
1812.00,0.0037
1811.00,0.0038
1810.00,0.0038
1809.00,0.0037
1808.00,0.0037
1807.00,0.0037
1806.00,0.0037
1805.00,0.0037
1804.00,0.0038
1803.00,0.0039
1802.00,0.0040
1801.00,0.0040
1800.00,0.0041
1799.00,0.0041
1798.00,0.0041
1797.00,0.0041
1796.00,0.0043
1795.00,0.0044
1794.00,0.0044
1793.00,0.0044
1792.00,0.0044
1791.00,0.0043
1790.00,0.0042
1789.00,0.0042
1788.00,0.0043
1787.00,0.0043
1786.00,0.0043
1785.00,0.0043
1784.00,0.0044
1783.00,0.0045
1782.00,0.0046
1781.00,0.0046
1780.00,0.0045
1779.00,0.0045
1778.00,0.0045
1777.00,0.0045
1776.00,0.0047
1775.00,0.0049
1774.00,0.0051
1773.00,0.0051
1772.00,0.0051
1771.00,0.0050
1770.00,0.0048
1769.00,0.0048
1768.00,0.0048
1767.00,0.0048
1766.00,0.0048
1765.00,0.0049
1764.00,0.0050
1763.00,0.0051
1762.00,0.0050
1761.00,0.0051
1760.00,0.0051
1759.00,0.0052
1758.00,0.0052
1757.00,0.0052
1756.00,0.0053
1755.00,0.0053
1754.00,0.0054
1753.00,0.0055
1752.00,0.0056
1751.00,0.0058
1750.00,0.0059
1749.00,0.0059
1748.00,0.0060
1747.00,0.0060
1746.00,0.0059
1745.00,0.0060
1744.00,0.0061
1743.00,0.0062
1742.00,0.0062
1741.00,0.0062
1740.00,0.0063
1739.00,0.0063
1738.00,0.0064
1737.00,0.0066
1736.00,0.0068
1735.00,0.0069
1734.00,0.0070
1733.00,0.0072
1732.00,0.0074
1731.00,0.0076
1730.00,0.0076
1729.00,0.0078
1728.00,0.0079
1727.00,0.0081
1726.00,0.0083
1725.00,0.0085
1724.00,0.0087
1723.00,0.0089
1722.00,0.0091
1721.00,0.0093
1720.00,0.0097
1719.00,0.0101
1718.00,0.0104
1717.00,0.0106
1716.00,0.0108
1715.00,0.0110
1714.00,0.0111
1713.00,0.0113
1712.00,0.0118
1711.00,0.0122
1710.00,0.0127
1709.00,0.0133
1708.00,0.0142
1707.00,0.0151
1706.00,0.0162
1705.00,0.0173
1704.00,0.0185
1703.00,0.0195
1702.00,0.0207
1701.00,0.0229
1700.00,0.0262
1699.00,0.0292
1698.00,0.0315
1697.00,0.0344
1696.00,0.0386
1695.00,0.0432
1694.00,0.0470
1693.00,0.0504
1692.00,0.0538
1691.00,0.0578
1690.00,0.0620
1689.00,0.0662
1688.00,0.0698
1687.00,0.0724
1686.00,0.0750
1685.00,0.0787
1684.00,0.0834
1683.00,0.0869
1682.00,0.0884
1681.00,0.0893
1680.00,0.0902
1679.00,0.0910
1678.00,0.0919
1677.00,0.0931
1676.00,0.0956
1675.00,0.0992
1674.00,0.1028
1673.00,0.1060
1672.00,0.1095
1671.00,0.1143
1670.00,0.1212
1669.00,0.1292
1668.00,0.1365
1667.00,0.1421
1666.00,0.1465
1665.00,0.1509
1664.00,0.1562
1663.00,0.1626
1662.00,0.1685
1661.00,0.1727
1660.00,0.1755
1659.00,0.1772
1658.00,0.1780
1657.00,0.1778
1656.00,0.1769
1655.00,0.1756
1654.00,0.1751
1653.00,0.1753
1652.00,0.1737
1651.00,0.1698
1650.00,0.1647
1649.00,0.1590
1648.00,0.1528
1647.00,0.1459
1646.00,0.1383
1645.00,0.1310
1644.00,0.1241
1643.00,0.1173
1642.00,0.1106
1641.00,0.1042
1640.00,0.0984
1639.00,0.0932
1638.00,0.0884
1637.00,0.0838
1636.00,0.0794
1635.00,0.0756
1634.00,0.0727
1633.00,0.0706
1632.00,0.0692
1631.00,0.0686
1630.00,0.0689
1629.00,0.0707
1628.00,0.0740
1627.00,0.0784
1626.00,0.0834
1625.00,0.0896
1624.00,0.0978
1623.00,0.1072
1622.00,0.1155
1621.00,0.1210
1620.00,0.1242
1619.00,0.1257
1618.00,0.1257
1617.00,0.1242
1616.00,0.1216
1615.00,0.1185
1614.00,0.1156
1613.00,0.1131
1612.00,0.1113
1611.00,0.1098
1610.00,0.1080
1609.00,0.1051
1608.00,0.1008
1607.00,0.0954
1606.00,0.0890
1605.00,0.0822
1604.00,0.0754
1603.00,0.0692
1602.00,0.0635
1601.00,0.0587
1600.00,0.0550
1599.00,0.0522
1598.00,0.0504
1597.00,0.0497
1596.00,0.0502
1595.00,0.0521
1594.00,0.0554
1593.00,0.0603
1592.00,0.0667
1591.00,0.0745
1590.00,0.0834
1589.00,0.0924
1588.00,0.1009
1587.00,0.1079
1586.00,0.1125
1585.00,0.1141
1584.00,0.1129
1583.00,0.1092
1582.00,0.1036
1581.00,0.0970
1580.00,0.0904
1579.00,0.0845
1578.00,0.0789
1577.00,0.0736
1576.00,0.0687
1575.00,0.0648
1574.00,0.0618
1573.00,0.0593
1572.00,0.0571
1571.00,0.0549
1570.00,0.0525
1569.00,0.0502
1568.00,0.0480
1567.00,0.0461
1566.00,0.0442
1565.00,0.0424
1564.00,0.0408
1563.00,0.0394
1562.00,0.0382
1561.00,0.0370
1560.00,0.0360
1559.00,0.0348
1558.00,0.0335
1557.00,0.0324
1556.00,0.0315
1555.00,0.0307
1554.00,0.0300
1553.00,0.0293
1552.00,0.0288
1551.00,0.0283
1550.00,0.0279
1549.00,0.0275
1548.00,0.0271
1547.00,0.0268
1546.00,0.0266
1545.00,0.0265
1544.00,0.0264
1543.00,0.0263
1542.00,0.0263
1541.00,0.0263
1540.00,0.0261
1539.00,0.0257
1538.00,0.0253
1537.00,0.0250
1536.00,0.0249
1535.00,0.0248
1534.00,0.0249
1533.00,0.0250
1532.00,0.0250
1531.00,0.0251
1530.00,0.0253
1529.00,0.0256
1528.00,0.0260
1527.00,0.0265
1526.00,0.0272
1525.00,0.0279
1524.00,0.0287
1523.00,0.0297
1522.00,0.0310
1521.00,0.0325
1520.00,0.0339
1519.00,0.0351
1518.00,0.0363
1517.00,0.0377
1516.00,0.0389
1515.00,0.0398
1514.00,0.0403
1513.00,0.0407
1512.00,0.0409
1511.00,0.0411
1510.00,0.0412
1509.00,0.0413
1508.00,0.0414
1507.00,0.0415
1506.00,0.0416
1505.00,0.0418
1504.00,0.0423
1503.00,0.0434
1502.00,0.0452
1501.00,0.0480
1500.00,0.0519
1499.00,0.0567
1498.00,0.0618
1497.00,0.0665
1496.00,0.0693
1495.00,0.0700
1494.00,0.0689
1493.00,0.0666
1492.00,0.0635
1491.00,0.0598
1490.00,0.0556
1489.00,0.0515
1488.00,0.0475
1487.00,0.0439
1486.00,0.0408
1485.00,0.0383
1484.00,0.0363
1483.00,0.0347
1482.00,0.0335
1481.00,0.0327
1480.00,0.0322
1479.00,0.0321
1478.00,0.0322
1477.00,0.0327
1476.00,0.0335
1475.00,0.0347
1474.00,0.0367
1473.00,0.0400
1472.00,0.0445
1471.00,0.0494
1470.00,0.0543
1469.00,0.0593
1468.00,0.0647
1467.00,0.0706
1466.00,0.0771
1465.00,0.0842
1464.00,0.0905
1463.00,0.0948
1462.00,0.0971
1461.00,0.0979
1460.00,0.0977
1459.00,0.0965
1458.00,0.0942
1457.00,0.0911
1456.00,0.0878
1455.00,0.0848
1454.00,0.0823
1453.00,0.0804
1452.00,0.0794
1451.00,0.0793
1450.00,0.0804
1449.00,0.0828
1448.00,0.0864
1447.00,0.0906
1446.00,0.0946
1445.00,0.0984
1444.00,0.1018
1443.00,0.1048
1442.00,0.1074
1441.00,0.1094
1440.00,0.1108
1439.00,0.1119
1438.00,0.1135
1437.00,0.1163
1436.00,0.1197
1435.00,0.1224
1434.00,0.1242
1433.00,0.1257
1432.00,0.1274
1431.00,0.1295
1430.00,0.1318
1429.00,0.1341
1428.00,0.1359
1427.00,0.1371
1426.00,0.1379
1425.00,0.1386
1424.00,0.1392
1423.00,0.1388
1422.00,0.1371
1421.00,0.1344
1420.00,0.1305
1419.00,0.1254
1418.00,0.1198
1417.00,0.1146
1416.00,0.1100
1415.00,0.1061
1414.00,0.1033
1413.00,0.1016
1412.00,0.1013
1411.00,0.1022
1410.00,0.1042
1409.00,0.1071
1408.00,0.1107
1407.00,0.1149
1406.00,0.1199
1405.00,0.1257
1404.00,0.1311
1403.00,0.1353
1402.00,0.1376
1401.00,0.1383
1400.00,0.1371
1399.00,0.1337
1398.00,0.1283
1397.00,0.1216
1396.00,0.1136
1395.00,0.1048
1394.00,0.0963
1393.00,0.0891
1392.00,0.0832
1391.00,0.0783
1390.00,0.0745
1389.00,0.0717
1388.00,0.0700
1387.00,0.0696
1386.00,0.0705
1385.00,0.0723
1384.00,0.0749
1383.00,0.0782
1382.00,0.0817
1381.00,0.0847
1380.00,0.0867
1379.00,0.0874
1378.00,0.0867
1377.00,0.0849
1376.00,0.0821
1375.00,0.0789
1374.00,0.0756
1373.00,0.0726
1372.00,0.0701
1371.00,0.0682
1370.00,0.0669
1369.00,0.0663
1368.00,0.0664
1367.00,0.0674
1366.00,0.0695
1365.00,0.0728
1364.00,0.0776
1363.00,0.0834
1362.00,0.0890
1361.00,0.0926
1360.00,0.0934
1359.00,0.0913
1358.00,0.0871
1357.00,0.0817
1356.00,0.0759
1355.00,0.0705
1354.00,0.0662
1353.00,0.0628
1352.00,0.0603
1351.00,0.0585
1350.00,0.0571
1349.00,0.0562
1348.00,0.0555
1347.00,0.0550
1346.00,0.0546
1345.00,0.0543
1344.00,0.0540
1343.00,0.0538
1342.00,0.0536
1341.00,0.0535
1340.00,0.0535
1339.00,0.0536
1338.00,0.0538
1337.00,0.0542
1336.00,0.0547
1335.00,0.0553
1334.00,0.0560
1333.00,0.0567
1332.00,0.0574
1331.00,0.0580
1330.00,0.0586
1329.00,0.0590
1328.00,0.0594
1327.00,0.0599
1326.00,0.0604
1325.00,0.0610
1324.00,0.0616
1323.00,0.0623
1322.00,0.0630
1321.00,0.0635
1320.00,0.0639
1319.00,0.0639
1318.00,0.0636
1317.00,0.0630
1316.00,0.0620
1315.00,0.0610
1314.00,0.0600
1313.00,0.0592
1312.00,0.0588
1311.00,0.0589
1310.00,0.0595
1309.00,0.0606
1308.00,0.0622
1307.00,0.0641
1306.00,0.0663
1305.00,0.0687
1304.00,0.0711
1303.00,0.0736
1302.00,0.0763
1301.00,0.0791
1300.00,0.0825
1299.00,0.0868
1298.00,0.0922
1297.00,0.0988
1296.00,0.1065
1295.00,0.1147
1294.00,0.1228
1293.00,0.1302
1292.00,0.1363
1291.00,0.1410
1290.00,0.1442
1289.00,0.1462
1288.00,0.1474
1287.00,0.1478
1286.00,0.1477
1285.00,0.1468
1284.00,0.1452
1283.00,0.1427
1282.00,0.1396
1281.00,0.1359
1280.00,0.1319
1279.00,0.1279
1278.00,0.1241
1277.00,0.1206
1276.00,0.1173
1275.00,0.1141
1274.00,0.1109
1273.00,0.1075
1272.00,0.1038
1271.00,0.0997
1270.00,0.0955
1269.00,0.0912
1268.00,0.0868
1267.00,0.0825
1266.00,0.0785
1265.00,0.0748
1264.00,0.0714
1263.00,0.0682
1262.00,0.0653
1261.00,0.0625
1260.00,0.0598
1259.00,0.0572
1258.00,0.0547
1257.00,0.0525
1256.00,0.0504
1255.00,0.0485
1254.00,0.0471
1253.00,0.0460
1252.00,0.0454
1251.00,0.0454
1250.00,0.0460
1249.00,0.0473
1248.00,0.0494
1247.00,0.0523
1246.00,0.0560
1245.00,0.0604
1244.00,0.0653
1243.00,0.0704
1242.00,0.0755
1241.00,0.0803
1240.00,0.0844
1239.00,0.0879
1238.00,0.0906
1237.00,0.0927
1236.00,0.0942
1235.00,0.0951
1234.00,0.0956
1233.00,0.0955
1232.00,0.0948
1231.00,0.0935
1230.00,0.0920
1229.00,0.0902
1228.00,0.0884
1227.00,0.0865
1226.00,0.0848
1225.00,0.0833
1224.00,0.0821
1223.00,0.0813
1222.00,0.0809
1221.00,0.0808
1220.00,0.0809
1219.00,0.0811
1218.00,0.0811
1217.00,0.0808
1216.00,0.0798
1215.00,0.0781
1214.00,0.0756
1213.00,0.0723
1212.00,0.0686
1211.00,0.0647
1210.00,0.0610
1209.00,0.0577
1208.00,0.0549
1207.00,0.0529
1206.00,0.0518
1205.00,0.0517
1204.00,0.0525
1203.00,0.0544
1202.00,0.0574
1201.00,0.0614
1200.00,0.0662
1199.00,0.0717
1198.00,0.0775
1197.00,0.0835
1196.00,0.0892
1195.00,0.0941
1194.00,0.0976
1193.00,0.0992
1192.00,0.0985
1191.00,0.0957
1190.00,0.0910
1189.00,0.0852
1188.00,0.0789
1187.00,0.0725
1186.00,0.0666
1185.00,0.0613
1184.00,0.0568
1183.00,0.0529
1182.00,0.0498
1181.00,0.0473
1180.00,0.0453
1179.00,0.0438
1178.00,0.0427
1177.00,0.0420
1176.00,0.0415
1175.00,0.0413
1174.00,0.0412
1173.00,0.0412
1172.00,0.0412
1171.00,0.0413
1170.00,0.0414
1169.00,0.0416
1168.00,0.0420
1167.00,0.0428
1166.00,0.0442
1165.00,0.0465
1164.00,0.0498
1163.00,0.0545
1162.00,0.0604
1161.00,0.0674
1160.00,0.0750
1159.00,0.0826
1158.00,0.0892
1157.00,0.0939
1156.00,0.0963
1155.00,0.0962
1154.00,0.0937
1153.00,0.0892
1152.00,0.0834
1151.00,0.0767
1150.00,0.0698
1149.00,0.0631
1148.00,0.0568
1147.00,0.0514
1146.00,0.0469
1145.00,0.0433
1144.00,0.0405
1143.00,0.0385
1142.00,0.0372
1141.00,0.0366
1140.00,0.0365
1139.00,0.0373
1138.00,0.0392
1137.00,0.0422
1136.00,0.0467
1135.00,0.0529
1134.00,0.0609
1133.00,0.0703
1132.00,0.0803
1131.00,0.0897
1130.00,0.0969
1129.00,0.1007
1128.00,0.1002
1127.00,0.0956
1126.00,0.0880
1125.00,0.0789
1124.00,0.0696
1123.00,0.0612
1122.00,0.0543
1121.00,0.0488
1120.00,0.0446
1119.00,0.0416
1118.00,0.0395
1117.00,0.0381
1116.00,0.0372
1115.00,0.0369
1114.00,0.0370
1113.00,0.0374
1112.00,0.0379
1111.00,0.0385
1110.00,0.0392
1109.00,0.0400
1108.00,0.0411
1107.00,0.0425
1106.00,0.0446
1105.00,0.0472
1104.00,0.0504
1103.00,0.0540
1102.00,0.0577
1101.00,0.0607
1100.00,0.0624
1099.00,0.0625
1098.00,0.0610
1097.00,0.0584
1096.00,0.0552
1095.00,0.0518
1094.00,0.0484
1093.00,0.0452
1092.00,0.0421
1091.00,0.0395
1090.00,0.0372
1089.00,0.0355
1088.00,0.0341
1087.00,0.0332
1086.00,0.0326
1085.00,0.0324
1084.00,0.0323
1083.00,0.0326
1082.00,0.0332
1081.00,0.0340
1080.00,0.0351
1079.00,0.0363
1078.00,0.0377
1077.00,0.0394
1076.00,0.0412
1075.00,0.0432
1074.00,0.0455
1073.00,0.0482
1072.00,0.0513
1071.00,0.0550
1070.00,0.0595
1069.00,0.0649
1068.00,0.0712
1067.00,0.0785
1066.00,0.0870
1065.00,0.0963
1064.00,0.1066
1063.00,0.1177
1062.00,0.1293
1061.00,0.1410
1060.00,0.1522
1059.00,0.1623
1058.00,0.1706
1057.00,0.1763
1056.00,0.1788
1055.00,0.1777
1054.00,0.1731
1053.00,0.1654
1052.00,0.1554
1051.00,0.1440
1050.00,0.1321
1049.00,0.1204
1048.00,0.1096
1047.00,0.1001
1046.00,0.0919
1045.00,0.0852
1044.00,0.0798
1043.00,0.0755
1042.00,0.0723
1041.00,0.0698
1040.00,0.0680
1039.00,0.0666
1038.00,0.0658
1037.00,0.0656
1036.00,0.0661
1035.00,0.0675
1034.00,0.0701
1033.00,0.0737
1032.00,0.0778
1031.00,0.0815
1030.00,0.0838
1029.00,0.0839
1028.00,0.0815
1027.00,0.0772
1026.00,0.0721
1025.00,0.0668
1024.00,0.0619
1023.00,0.0579
1022.00,0.0547
1021.00,0.0522
1020.00,0.0502
1019.00,0.0485
1018.00,0.0470
1017.00,0.0457
1016.00,0.0442
1015.00,0.0428
1014.00,0.0415
1013.00,0.0404
1012.00,0.0395
1011.00,0.0392
1010.00,0.0396
1009.00,0.0406
1008.00,0.0423
1007.00,0.0446
1006.00,0.0472
1005.00,0.0497
1004.00,0.0517
1003.00,0.0529
1002.00,0.0533
1001.00,0.0528
1000.00,0.0518
999.00,0.0505
998.00,0.0493
997.00,0.0482
996.00,0.0473
995.00,0.0464
994.00,0.0457
993.00,0.0448
992.00,0.0439
991.00,0.0428
990.00,0.0416
989.00,0.0402
988.00,0.0386
987.00,0.0369
986.00,0.0353
985.00,0.0338
984.00,0.0325
983.00,0.0315
982.00,0.0310
981.00,0.0308
980.00,0.0310
979.00,0.0313
978.00,0.0318
977.00,0.0323
976.00,0.0326
975.00,0.0328
974.00,0.0327
973.00,0.0323
972.00,0.0317
971.00,0.0309
970.00,0.0301
969.00,0.0293
968.00,0.0284
967.00,0.0276
966.00,0.0270
965.00,0.0264
964.00,0.0259
963.00,0.0254
962.00,0.0250
961.00,0.0245
960.00,0.0239
959.00,0.0233
958.00,0.0228
957.00,0.0222
956.00,0.0216
955.00,0.0211
954.00,0.0207
953.00,0.0204
952.00,0.0202
951.00,0.0200
950.00,0.0200
949.00,0.0199
948.00,0.0199
947.00,0.0201
946.00,0.0204
945.00,0.0208
944.00,0.0213
943.00,0.0221
942.00,0.0231
941.00,0.0244
940.00,0.0261
939.00,0.0281
938.00,0.0303
937.00,0.0326
936.00,0.0346
935.00,0.0362
934.00,0.0372
933.00,0.0376
932.00,0.0375
931.00,0.0372
930.00,0.0370
929.00,0.0370
928.00,0.0374
927.00,0.0380
926.00,0.0387
925.00,0.0393
924.00,0.0394
923.00,0.0392
922.00,0.0387
921.00,0.0379
920.00,0.0368
919.00,0.0356
918.00,0.0343
917.00,0.0329
916.00,0.0314
915.00,0.0299
914.00,0.0286
913.00,0.0274
912.00,0.0266
911.00,0.0260
910.00,0.0258
909.00,0.0259
908.00,0.0262
907.00,0.0268
906.00,0.0278
905.00,0.0291
904.00,0.0307
903.00,0.0327
902.00,0.0351
901.00,0.0376
900.00,0.0402
899.00,0.0427
898.00,0.0449
897.00,0.0463
896.00,0.0469
895.00,0.0466
894.00,0.0455
893.00,0.0438
892.00,0.0416
891.00,0.0394
890.00,0.0373
889.00,0.0356
888.00,0.0344
887.00,0.0338
886.00,0.0338
885.00,0.0343
884.00,0.0351
883.00,0.0364
882.00,0.0381
881.00,0.0402
880.00,0.0428
879.00,0.0458
878.00,0.0492
877.00,0.0530
876.00,0.0568
875.00,0.0608
874.00,0.0646
873.00,0.0680
872.00,0.0707
871.00,0.0726
870.00,0.0736
869.00,0.0737
868.00,0.0731
867.00,0.0721
866.00,0.0711
865.00,0.0701
864.00,0.0691
863.00,0.0680
862.00,0.0669
861.00,0.0658
860.00,0.0649
859.00,0.0643
858.00,0.0642
857.00,0.0645
856.00,0.0651
855.00,0.0660
854.00,0.0671
853.00,0.0682
852.00,0.0694
851.00,0.0705
850.00,0.0717
849.00,0.0727
848.00,0.0735
847.00,0.0743
846.00,0.0749
845.00,0.0754
844.00,0.0757
843.00,0.0758
842.00,0.0759
841.00,0.0760
840.00,0.0759
839.00,0.0759
838.00,0.0761
837.00,0.0763
836.00,0.0766
835.00,0.0771
834.00,0.0777
833.00,0.0783
832.00,0.0788
831.00,0.0792
830.00,0.0796
829.00,0.0798
828.00,0.0799
827.00,0.0801
826.00,0.0807
825.00,0.0818
824.00,0.0834
823.00,0.0859
822.00,0.0890
821.00,0.0927
820.00,0.0966
819.00,0.1007
818.00,0.1049
817.00,0.1090
816.00,0.1129
815.00,0.1165
814.00,0.1196
813.00,0.1216
812.00,0.1219
811.00,0.1201
810.00,0.1159
809.00,0.1093
808.00,0.1008
807.00,0.0914
806.00,0.0823
805.00,0.0741
804.00,0.0671
803.00,0.0617
802.00,0.0578
801.00,0.0549
800.00,0.0527
799.00,0.0511
798.00,0.0500
797.00,0.0493
796.00,0.0488
795.00,0.0485
794.00,0.0484
793.00,0.0484
792.00,0.0482
791.00,0.0481
790.00,0.0480
789.00,0.0478
788.00,0.0475
787.00,0.0472
786.00,0.0470
785.00,0.0469
784.00,0.0469
783.00,0.0471
782.00,0.0476
781.00,0.0486
780.00,0.0499
779.00,0.0516
778.00,0.0535
777.00,0.0548
776.00,0.0551
775.00,0.0541
774.00,0.0523
773.00,0.0501
772.00,0.0481
771.00,0.0468
770.00,0.0462
769.00,0.0460
768.00,0.0459
767.00,0.0460
766.00,0.0463
765.00,0.0467
764.00,0.0471
763.00,0.0475
762.00,0.0481
761.00,0.0488
760.00,0.0496
759.00,0.0505
758.00,0.0515
757.00,0.0525
756.00,0.0535
755.00,0.0544
754.00,0.0553
753.00,0.0563
752.00,0.0571
751.00,0.0581
750.00,0.0591
749.00,0.0602
748.00,0.0612
747.00,0.0624
746.00,0.0638
745.00,0.0653
744.00,0.0671
743.00,0.0694
742.00,0.0724
741.00,0.0761
740.00,0.0805
739.00,0.0852
738.00,0.0897
737.00,0.0931
736.00,0.0945
735.00,0.0936
734.00,0.0909
733.00,0.0867
732.00,0.0819
731.00,0.0773
730.00,0.0731
729.00,0.0696
728.00,0.0666
727.00,0.0642
726.00,0.0622
725.00,0.0605
724.00,0.0589
723.00,0.0576
722.00,0.0565
721.00,0.0556
720.00,0.0550
719.00,0.0546
718.00,0.0546
717.00,0.0548
716.00,0.0550
715.00,0.0553
714.00,0.0555
713.00,0.0555
712.00,0.0551
711.00,0.0544
710.00,0.0535
709.00,0.0526
708.00,0.0518
707.00,0.0513
706.00,0.0512
705.00,0.0513
704.00,0.0513
703.00,0.0512
702.00,0.0512
701.00,0.0513
700.00,0.0515
699.00,0.0523
698.00,0.0537
697.00,0.0557
696.00,0.0582
695.00,0.0611
694.00,0.0643
693.00,0.0672
692.00,0.0696
691.00,0.0714
690.00,0.0726
689.00,0.0729
688.00,0.0724
687.00,0.0712
686.00,0.0695
685.00,0.0674
684.00,0.0651
683.00,0.0631
682.00,0.0614
681.00,0.0601
680.00,0.0591
679.00,0.0585
678.00,0.0583
677.00,0.0583
676.00,0.0585
675.00,0.0589
674.00,0.0597
673.00,0.0606
672.00,0.0616
671.00,0.0626
670.00,0.0638
669.00,0.0653
668.00,0.0673
667.00,0.0690
666.00,0.0700
665.00,0.0704
664.00,0.0709
663.00,0.0718
662.00,0.0729
661.00,0.0740
660.00,0.0752
659.00,0.0763
658.00,0.0774
657.00,0.0784
656.00,0.0791
655.00,0.0798
654.00,0.0804
653.00,0.0809
652.00,0.0811
651.00,0.0811
650.00,0.0810
649.00,0.0805
648.00,0.0798
647.00,0.0787
646.00,0.0775
645.00,0.0761
644.00,0.0743
643.00,0.0725
642.00,0.0707
641.00,0.0689
640.00,0.0670
639.00,0.0652
638.00,0.0636
637.00,0.0620
636.00,0.0604
635.00,0.0590
634.00,0.0578
633.00,0.0568
632.00,0.0559
631.00,0.0553
630.00,0.0550
629.00,0.0550
628.00,0.0551
627.00,0.0556
626.00,0.0564
625.00,0.0572
624.00,0.0578
623.00,0.0581
622.00,0.0583
621.00,0.0582
620.00,0.0577
619.00,0.0570
618.00,0.0564
617.00,0.0556
616.00,0.0546
615.00,0.0536
614.00,0.0529
613.00,0.0524
612.00,0.0520
611.00,0.0520
610.00,0.0525
609.00,0.0533
608.00,0.0542
607.00,0.0552
606.00,0.0562
605.00,0.0572
604.00,0.0580
603.00,0.0588
602.00,0.0597
601.00,0.0606
600.00,0.0612
599.00,0.0615
598.00,0.0613
597.00,0.0606
596.00,0.0593
595.00,0.0577
594.00,0.0564
593.00,0.0552
592.00,0.0543
591.00,0.0539
590.00,0.0546
589.00,0.0564
588.00,0.0593
587.00,0.0637
586.00,0.0694
585.00,0.0757
584.00,0.0818
583.00,0.0867
582.00,0.0900
581.00,0.0913
580.00,0.0909
579.00,0.0894
578.00,0.0872
577.00,0.0844
576.00,0.0813
575.00,0.0782
574.00,0.0756
573.00,0.0732
572.00,0.0712
571.00,0.0698
570.00,0.0691
569.00,0.0688
568.00,0.0685
567.00,0.0682
566.00,0.0681
565.00,0.0677
564.00,0.0670
563.00,0.0662
562.00,0.0656
561.00,0.0649
560.00,0.0640
559.00,0.0634
558.00,0.0634
557.00,0.0634
556.00,0.0629
555.00,0.0619
554.00,0.0606
553.00,0.0593
552.00,0.0581
551.00,0.0572
550.00,0.0568
549.00,0.0563
548.00,0.0555
547.00,0.0543
546.00,0.0530
545.00,0.0517
544.00,0.0502
543.00,0.0491
542.00,0.0486
541.00,0.0484
540.00,0.0485
539.00,0.0492
538.00,0.0508
537.00,0.0529
536.00,0.0554
535.00,0.0584
534.00,0.0617
533.00,0.0647
532.00,0.0668
531.00,0.0680
530.00,0.0681
529.00,0.0671
528.00,0.0647
527.00,0.0615
526.00,0.0582
525.00,0.0548
524.00,0.0516
523.00,0.0488
522.00,0.0467
521.00,0.0449
520.00,0.0433
519.00,0.0422
518.00,0.0415
517.00,0.0409
516.00,0.0402
515.00,0.0397
514.00,0.0398
513.00,0.0402
512.00,0.0406
511.00,0.0414
510.00,0.0427
509.00,0.0440
508.00,0.0449
507.00,0.0454
506.00,0.0457
505.00,0.0455
504.00,0.0444
503.00,0.0430
502.00,0.0419
501.00,0.0408
500.00,0.0396
499.00,0.0386
498.00,0.0382
497.00,0.0379
496.00,0.0376
495.00,0.0376
494.00,0.0381
493.00,0.0387
492.00,0.0390
491.00,0.0393
490.00,0.0400
489.00,0.0405
488.00,0.0405
487.00,0.0403
486.00,0.0404
485.00,0.0405
484.00,0.0401
483.00,0.0396
482.00,0.0394
481.00,0.0392
480.00,0.0386
479.00,0.0382
478.00,0.0383
477.00,0.0384
476.00,0.0380
475.00,0.0377
474.00,0.0380
473.00,0.0381
472.00,0.0376
471.00,0.0370
470.00,0.0370
469.00,0.0369
468.00,0.0364
467.00,0.0363
466.00,0.0368
465.00,0.0370
464.00,0.0366
463.00,0.0361
462.00,0.0363
461.00,0.0365
460.00,0.0360
459.00,0.0356
458.00,0.0358
457.00,0.0359
456.00,0.0353
455.00,0.0348
454.00,0.0349
453.00,0.0350
452.00,0.0345
451.00,0.0343
450.00,0.0347
449.00,0.0351
448.00,0.0348
447.00,0.0347
446.00,0.0352
445.00,0.0357
444.00,0.0356
443.00,0.0355
442.00,0.0358
441.00,0.0358
440.00,0.0353
439.00,0.0351
438.00,0.0357
437.00,0.0360
436.00,0.0353
435.00,0.0345
434.00,0.0345
433.00,0.0347
432.00,0.0343
431.00,0.0338
430.00,0.0342
429.00,0.0346
428.00,0.0343
427.00,0.0341
426.00,0.0347
425.00,0.0353
424.00,0.0351
423.00,0.0351
422.00,0.0361
421.00,0.0370
420.00,0.0371
419.00,0.0380
418.00,0.0408
417.00,0.0428
416.00,0.0430
415.00,0.0436
414.00,0.0455
413.00,0.0476
412.00,0.0484
411.00,0.0487
410.00,0.0496
409.00,0.0497
408.00,0.0479
407.00,0.0459
406.00,0.0453
405.00,0.0450
404.00,0.0436
403.00,0.0429
402.00,0.0441
401.00,0.0452
400.00,0.0439
