Created as New Dataset,Sample 740 By YargerLab Date Friday, June 27 2025
cm-1,A
4000.00,0.0017
3999.00,0.0017
3998.00,0.0017
3997.00,0.0017
3996.00,0.0018
3995.00,0.0018
3994.00,0.0018
3993.00,0.0018
3992.00,0.0017
3991.00,0.0017
3990.00,0.0017
3989.00,0.0017
3988.00,0.0017
3987.00,0.0018
3986.00,0.0018
3985.00,0.0018
3984.00,0.0018
3983.00,0.0017
3982.00,0.0017
3981.00,0.0017
3980.00,0.0018
3979.00,0.0018
3978.00,0.0018
3977.00,0.0018
3976.00,0.0018
3975.00,0.0018
3974.00,0.0018
3973.00,0.0018
3972.00,0.0018
3971.00,0.0019
3970.00,0.0019
3969.00,0.0019
3968.00,0.0019
3967.00,0.0019
3966.00,0.0019
3965.00,0.0019
3964.00,0.0018
3963.00,0.0018
3962.00,0.0019
3961.00,0.0019
3960.00,0.0019
3959.00,0.0019
3958.00,0.0019
3957.00,0.0019
3956.00,0.0019
3955.00,0.0019
3954.00,0.0019
3953.00,0.0019
3952.00,0.0019
3951.00,0.0019
3950.00,0.0018
3949.00,0.0018
3948.00,0.0018
3947.00,0.0018
3946.00,0.0018
3945.00,0.0018
3944.00,0.0018
3943.00,0.0018
3942.00,0.0018
3941.00,0.0018
3940.00,0.0018
3939.00,0.0018
3938.00,0.0018
3937.00,0.0018
3936.00,0.0018
3935.00,0.0018
3934.00,0.0018
3933.00,0.0018
3932.00,0.0018
3931.00,0.0018
3930.00,0.0018
3929.00,0.0018
3928.00,0.0018
3927.00,0.0018
3926.00,0.0018
3925.00,0.0018
3924.00,0.0018
3923.00,0.0018
3922.00,0.0018
3921.00,0.0018
3920.00,0.0018
3919.00,0.0018
3918.00,0.0018
3917.00,0.0018
3916.00,0.0018
3915.00,0.0017
3914.00,0.0017
3913.00,0.0017
3912.00,0.0017
3911.00,0.0016
3910.00,0.0017
3909.00,0.0017
3908.00,0.0017
3907.00,0.0018
3906.00,0.0019
3905.00,0.0019
3904.00,0.0019
3903.00,0.0019
3902.00,0.0019
3901.00,0.0019
3900.00,0.0019
3899.00,0.0019
3898.00,0.0018
3897.00,0.0018
3896.00,0.0018
3895.00,0.0018
3894.00,0.0018
3893.00,0.0018
3892.00,0.0018
3891.00,0.0018
3890.00,0.0018
3889.00,0.0018
3888.00,0.0019
3887.00,0.0018
3886.00,0.0018
3885.00,0.0018
3884.00,0.0018
3883.00,0.0018
3882.00,0.0018
3881.00,0.0018
3880.00,0.0017
3879.00,0.0017
3878.00,0.0018
3877.00,0.0018
3876.00,0.0018
3875.00,0.0018
3874.00,0.0018
3873.00,0.0018
3872.00,0.0018
3871.00,0.0019
3870.00,0.0019
3869.00,0.0019
3868.00,0.0019
3867.00,0.0019
3866.00,0.0019
3865.00,0.0019
3864.00,0.0019
3863.00,0.0018
3862.00,0.0018
3861.00,0.0017
3860.00,0.0017
3859.00,0.0017
3858.00,0.0018
3857.00,0.0019
3856.00,0.0021
3855.00,0.0022
3854.00,0.0022
3853.00,0.0022
3852.00,0.0022
3851.00,0.0022
3850.00,0.0021
3849.00,0.0019
3848.00,0.0018
3847.00,0.0018
3846.00,0.0017
3845.00,0.0017
3844.00,0.0017
3843.00,0.0018
3842.00,0.0018
3841.00,0.0019
3840.00,0.0019
3839.00,0.0020
3838.00,0.0020
3837.00,0.0020
3836.00,0.0020
3835.00,0.0019
3834.00,0.0019
3833.00,0.0019
3832.00,0.0018
3831.00,0.0018
3830.00,0.0017
3829.00,0.0017
3828.00,0.0016
3827.00,0.0016
3826.00,0.0016
3825.00,0.0017
3824.00,0.0018
3823.00,0.0018
3822.00,0.0019
3821.00,0.0019
3820.00,0.0019
3819.00,0.0019
3818.00,0.0019
3817.00,0.0018
3816.00,0.0018
3815.00,0.0017
3814.00,0.0017
3813.00,0.0016
3812.00,0.0016
3811.00,0.0016
3810.00,0.0016
3809.00,0.0016
3808.00,0.0016
3807.00,0.0016
3806.00,0.0017
3805.00,0.0017
3804.00,0.0018
3803.00,0.0018
3802.00,0.0018
3801.00,0.0018
3800.00,0.0018
3799.00,0.0018
3798.00,0.0018
3797.00,0.0017
3796.00,0.0016
3795.00,0.0016
3794.00,0.0015
3793.00,0.0015
3792.00,0.0015
3791.00,0.0014
3790.00,0.0014
3789.00,0.0014
3788.00,0.0014
3787.00,0.0014
3786.00,0.0015
3785.00,0.0015
3784.00,0.0015
3783.00,0.0015
3782.00,0.0015
3781.00,0.0015
3780.00,0.0015
3779.00,0.0015
3778.00,0.0015
3777.00,0.0015
3776.00,0.0015
3775.00,0.0015
3774.00,0.0015
3773.00,0.0015
3772.00,0.0015
3771.00,0.0015
3770.00,0.0016
3769.00,0.0016
3768.00,0.0016
3767.00,0.0016
3766.00,0.0015
3765.00,0.0015
3764.00,0.0016
3763.00,0.0016
3762.00,0.0016
3761.00,0.0016
3760.00,0.0016
3759.00,0.0016
3758.00,0.0016
3757.00,0.0016
3756.00,0.0017
3755.00,0.0017
3754.00,0.0018
3753.00,0.0019
3752.00,0.0019
3751.00,0.0019
3750.00,0.0019
3749.00,0.0019
3748.00,0.0020
3747.00,0.0020
3746.00,0.0020
3745.00,0.0019
3744.00,0.0019
3743.00,0.0018
3742.00,0.0018
3741.00,0.0017
3740.00,0.0017
3739.00,0.0017
3738.00,0.0017
3737.00,0.0017
3736.00,0.0017
3735.00,0.0017
3734.00,0.0017
3733.00,0.0017
3732.00,0.0016
3731.00,0.0016
3730.00,0.0016
3729.00,0.0015
3728.00,0.0015
3727.00,0.0015
3726.00,0.0014
3725.00,0.0014
3724.00,0.0014
3723.00,0.0014
3722.00,0.0014
3721.00,0.0014
3720.00,0.0014
3719.00,0.0014
3718.00,0.0014
3717.00,0.0014
3716.00,0.0014
3715.00,0.0014
3714.00,0.0014
3713.00,0.0015
3712.00,0.0015
3711.00,0.0016
3710.00,0.0016
3709.00,0.0016
3708.00,0.0015
3707.00,0.0015
3706.00,0.0014
3705.00,0.0014
3704.00,0.0014
3703.00,0.0014
3702.00,0.0014
3701.00,0.0014
3700.00,0.0014
3699.00,0.0014
3698.00,0.0014
3697.00,0.0013
3696.00,0.0013
3695.00,0.0014
3694.00,0.0014
3693.00,0.0015
3692.00,0.0016
3691.00,0.0016
3690.00,0.0016
3689.00,0.0016
3688.00,0.0016
3687.00,0.0016
3686.00,0.0016
3685.00,0.0015
3684.00,0.0014
3683.00,0.0014
3682.00,0.0014
3681.00,0.0014
3680.00,0.0014
3679.00,0.0015
3678.00,0.0016
3677.00,0.0017
3676.00,0.0017
3675.00,0.0017
3674.00,0.0017
3673.00,0.0018
3672.00,0.0018
3671.00,0.0018
3670.00,0.0018
3669.00,0.0017
3668.00,0.0017
3667.00,0.0016
3666.00,0.0015
3665.00,0.0015
3664.00,0.0014
3663.00,0.0014
3662.00,0.0014
3661.00,0.0014
3660.00,0.0014
3659.00,0.0014
3658.00,0.0014
3657.00,0.0015
3656.00,0.0015
3655.00,0.0015
3654.00,0.0016
3653.00,0.0016
3652.00,0.0017
3651.00,0.0018
3650.00,0.0018
3649.00,0.0018
3648.00,0.0018
3647.00,0.0019
3646.00,0.0019
3645.00,0.0018
3644.00,0.0018
3643.00,0.0017
3642.00,0.0016
3641.00,0.0016
3640.00,0.0016
3639.00,0.0016
3638.00,0.0016
3637.00,0.0017
3636.00,0.0017
3635.00,0.0017
3634.00,0.0018
3633.00,0.0019
3632.00,0.0020
3631.00,0.0021
3630.00,0.0022
3629.00,0.0022
3628.00,0.0023
3627.00,0.0023
3626.00,0.0023
3625.00,0.0024
3624.00,0.0024
3623.00,0.0024
3622.00,0.0024
3621.00,0.0025
3620.00,0.0026
3619.00,0.0028
3618.00,0.0029
3617.00,0.0030
3616.00,0.0030
3615.00,0.0031
3614.00,0.0031
3613.00,0.0031
3612.00,0.0031
3611.00,0.0031
3610.00,0.0031
3609.00,0.0031
3608.00,0.0031
3607.00,0.0031
3606.00,0.0031
3605.00,0.0031
3604.00,0.0031
3603.00,0.0031
3602.00,0.0031
3601.00,0.0031
3600.00,0.0031
3599.00,0.0031
3598.00,0.0032
3597.00,0.0032
3596.00,0.0033
3595.00,0.0033
3594.00,0.0033
3593.00,0.0034
3592.00,0.0034
3591.00,0.0035
3590.00,0.0036
3589.00,0.0037
3588.00,0.0038
3587.00,0.0038
3586.00,0.0039
3585.00,0.0040
3584.00,0.0040
3583.00,0.0040
3582.00,0.0040
3581.00,0.0041
3580.00,0.0041
3579.00,0.0042
3578.00,0.0043
3577.00,0.0044
3576.00,0.0045
3575.00,0.0046
3574.00,0.0047
3573.00,0.0048
3572.00,0.0049
3571.00,0.0050
3570.00,0.0051
3569.00,0.0053
3568.00,0.0054
3567.00,0.0056
3566.00,0.0057
3565.00,0.0058
3564.00,0.0059
3563.00,0.0060
3562.00,0.0061
3561.00,0.0062
3560.00,0.0063
3559.00,0.0064
3558.00,0.0066
3557.00,0.0067
3556.00,0.0068
3555.00,0.0070
3554.00,0.0071
3553.00,0.0072
3552.00,0.0074
3551.00,0.0076
3550.00,0.0077
3549.00,0.0079
3548.00,0.0081
3547.00,0.0082
3546.00,0.0084
3545.00,0.0086
3544.00,0.0087
3543.00,0.0089
3542.00,0.0091
3541.00,0.0093
3540.00,0.0094
3539.00,0.0096
3538.00,0.0098
3537.00,0.0100
3536.00,0.0102
3535.00,0.0104
3534.00,0.0106
3533.00,0.0108
3532.00,0.0110
3531.00,0.0112
3530.00,0.0114
3529.00,0.0116
3528.00,0.0119
3527.00,0.0121
3526.00,0.0123
3525.00,0.0126
3524.00,0.0128
3523.00,0.0130
3522.00,0.0133
3521.00,0.0135
3520.00,0.0138
3519.00,0.0140
3518.00,0.0142
3517.00,0.0145
3516.00,0.0147
3515.00,0.0150
3514.00,0.0153
3513.00,0.0156
3512.00,0.0159
3511.00,0.0162
3510.00,0.0165
3509.00,0.0169
3508.00,0.0172
3507.00,0.0176
3506.00,0.0180
3505.00,0.0184
3504.00,0.0188
3503.00,0.0192
3502.00,0.0196
3501.00,0.0201
3500.00,0.0205
3499.00,0.0210
3498.00,0.0214
3497.00,0.0219
3496.00,0.0224
3495.00,0.0229
3494.00,0.0234
3493.00,0.0239
3492.00,0.0245
3491.00,0.0250
3490.00,0.0256
3489.00,0.0263
3488.00,0.0270
3487.00,0.0276
3486.00,0.0283
3485.00,0.0290
3484.00,0.0298
3483.00,0.0306
3482.00,0.0315
3481.00,0.0325
3480.00,0.0335
3479.00,0.0346
3478.00,0.0358
3477.00,0.0371
3476.00,0.0385
3475.00,0.0400
3474.00,0.0417
3473.00,0.0435
3472.00,0.0454
3471.00,0.0475
3470.00,0.0497
3469.00,0.0521
3468.00,0.0545
3467.00,0.0571
3466.00,0.0596
3465.00,0.0622
3464.00,0.0649
3463.00,0.0674
3462.00,0.0699
3461.00,0.0723
3460.00,0.0745
3459.00,0.0765
3458.00,0.0782
3457.00,0.0797
3456.00,0.0809
3455.00,0.0818
3454.00,0.0824
3453.00,0.0826
3452.00,0.0824
3451.00,0.0818
3450.00,0.0807
3449.00,0.0792
3448.00,0.0773
3447.00,0.0752
3446.00,0.0728
3445.00,0.0704
3444.00,0.0679
3443.00,0.0655
3442.00,0.0632
3441.00,0.0611
3440.00,0.0591
3439.00,0.0573
3438.00,0.0556
3437.00,0.0541
3436.00,0.0528
3435.00,0.0515
3434.00,0.0504
3433.00,0.0494
3432.00,0.0485
3431.00,0.0476
3430.00,0.0469
3429.00,0.0462
3428.00,0.0456
3427.00,0.0450
3426.00,0.0445
3425.00,0.0440
3424.00,0.0436
3423.00,0.0432
3422.00,0.0428
3421.00,0.0424
3420.00,0.0421
3419.00,0.0418
3418.00,0.0415
3417.00,0.0412
3416.00,0.0409
3415.00,0.0407
3414.00,0.0405
3413.00,0.0403
3412.00,0.0401
3411.00,0.0398
3410.00,0.0396
3409.00,0.0394
3408.00,0.0392
3407.00,0.0390
3406.00,0.0388
3405.00,0.0387
3404.00,0.0385
3403.00,0.0384
3402.00,0.0382
3401.00,0.0381
3400.00,0.0379
3399.00,0.0377
3398.00,0.0376
3397.00,0.0374
3396.00,0.0373
3395.00,0.0371
3394.00,0.0370
3393.00,0.0369
3392.00,0.0367
3391.00,0.0366
3390.00,0.0364
3389.00,0.0362
3388.00,0.0361
3387.00,0.0359
3386.00,0.0358
3385.00,0.0357
3384.00,0.0355
3383.00,0.0354
3382.00,0.0353
3381.00,0.0351
3380.00,0.0350
3379.00,0.0349
3378.00,0.0348
3377.00,0.0347
3376.00,0.0346
3375.00,0.0345
3374.00,0.0343
3373.00,0.0342
3372.00,0.0341
3371.00,0.0340
3370.00,0.0339
3369.00,0.0337
3368.00,0.0336
3367.00,0.0335
3366.00,0.0334
3365.00,0.0332
3364.00,0.0331
3363.00,0.0330
3362.00,0.0329
3361.00,0.0328
3360.00,0.0327
3359.00,0.0326
3358.00,0.0325
3357.00,0.0324
3356.00,0.0322
3355.00,0.0321
3354.00,0.0320
3353.00,0.0319
3352.00,0.0318
3351.00,0.0317
3350.00,0.0316
3349.00,0.0315
3348.00,0.0314
3347.00,0.0313
3346.00,0.0311
3345.00,0.0310
3344.00,0.0309
3343.00,0.0308
3342.00,0.0307
3341.00,0.0306
3340.00,0.0305
3339.00,0.0304
3338.00,0.0303
3337.00,0.0303
3336.00,0.0302
3335.00,0.0301
3334.00,0.0300
3333.00,0.0299
3332.00,0.0298
3331.00,0.0297
3330.00,0.0296
3329.00,0.0295
3328.00,0.0294
3327.00,0.0294
3326.00,0.0293
3325.00,0.0293
3324.00,0.0292
3323.00,0.0291
3322.00,0.0291
3321.00,0.0290
3320.00,0.0289
3319.00,0.0289
3318.00,0.0289
3317.00,0.0288
3316.00,0.0288
3315.00,0.0288
3314.00,0.0287
3313.00,0.0287
3312.00,0.0286
3311.00,0.0286
3310.00,0.0285
3309.00,0.0285
3308.00,0.0285
3307.00,0.0284
3306.00,0.0284
3305.00,0.0284
3304.00,0.0284
3303.00,0.0284
3302.00,0.0285
3301.00,0.0285
3300.00,0.0284
3299.00,0.0284
3298.00,0.0284
3297.00,0.0284
3296.00,0.0284
3295.00,0.0284
3294.00,0.0284
3293.00,0.0284
3292.00,0.0284
3291.00,0.0285
3290.00,0.0286
3289.00,0.0287
3288.00,0.0288
3287.00,0.0288
3286.00,0.0289
3285.00,0.0289
3284.00,0.0289
3283.00,0.0290
3282.00,0.0290
3281.00,0.0290
3280.00,0.0291
3279.00,0.0291
3278.00,0.0291
3277.00,0.0291
3276.00,0.0291
3275.00,0.0291
3274.00,0.0291
3273.00,0.0291
3272.00,0.0291
3271.00,0.0292
3270.00,0.0293
3269.00,0.0295
3268.00,0.0297
3267.00,0.0299
3266.00,0.0300
3265.00,0.0302
3264.00,0.0302
3263.00,0.0303
3262.00,0.0304
3261.00,0.0305
3260.00,0.0305
3259.00,0.0305
3258.00,0.0305
3257.00,0.0305
3256.00,0.0306
3255.00,0.0307
3254.00,0.0308
3253.00,0.0309
3252.00,0.0309
3251.00,0.0309
3250.00,0.0309
3249.00,0.0309
3248.00,0.0309
3247.00,0.0309
3246.00,0.0311
3245.00,0.0312
3244.00,0.0313
3243.00,0.0314
3242.00,0.0315
3241.00,0.0316
3240.00,0.0317
3239.00,0.0317
3238.00,0.0318
3237.00,0.0318
3236.00,0.0319
3235.00,0.0319
3234.00,0.0320
3233.00,0.0321
3232.00,0.0323
3231.00,0.0324
3230.00,0.0326
3229.00,0.0327
3228.00,0.0328
3227.00,0.0329
3226.00,0.0329
3225.00,0.0330
3224.00,0.0331
3223.00,0.0331
3222.00,0.0332
3221.00,0.0333
3220.00,0.0334
3219.00,0.0335
3218.00,0.0336
3217.00,0.0337
3216.00,0.0338
3215.00,0.0339
3214.00,0.0341
3213.00,0.0342
3212.00,0.0343
3211.00,0.0345
3210.00,0.0346
3209.00,0.0347
3208.00,0.0348
3207.00,0.0350
3206.00,0.0351
3205.00,0.0352
3204.00,0.0354
3203.00,0.0355
3202.00,0.0356
3201.00,0.0357
3200.00,0.0358
3199.00,0.0359
3198.00,0.0360
3197.00,0.0361
3196.00,0.0362
3195.00,0.0363
3194.00,0.0364
3193.00,0.0364
3192.00,0.0365
3191.00,0.0366
3190.00,0.0367
3189.00,0.0367
3188.00,0.0368
3187.00,0.0370
3186.00,0.0371
3185.00,0.0372
3184.00,0.0373
3183.00,0.0373
3182.00,0.0374
3181.00,0.0374
3180.00,0.0375
3179.00,0.0376
3178.00,0.0376
3177.00,0.0377
3176.00,0.0378
3175.00,0.0379
3174.00,0.0379
3173.00,0.0380
3172.00,0.0380
3171.00,0.0381
3170.00,0.0381
3169.00,0.0381
3168.00,0.0382
3167.00,0.0382
3166.00,0.0382
3165.00,0.0383
3164.00,0.0383
3163.00,0.0383
3162.00,0.0383
3161.00,0.0383
3160.00,0.0383
3159.00,0.0383
3158.00,0.0383
3157.00,0.0382
3156.00,0.0381
3155.00,0.0380
3154.00,0.0379
3153.00,0.0379
3152.00,0.0380
3151.00,0.0382
3150.00,0.0384
3149.00,0.0386
3148.00,0.0388
3147.00,0.0389
3146.00,0.0390
3145.00,0.0391
3144.00,0.0391
3143.00,0.0391
3142.00,0.0391
3141.00,0.0391
3140.00,0.0392
3139.00,0.0392
3138.00,0.0394
3137.00,0.0395
3136.00,0.0396
3135.00,0.0397
3134.00,0.0397
3133.00,0.0397
3132.00,0.0397
3131.00,0.0397
3130.00,0.0397
3129.00,0.0398
3128.00,0.0398
3127.00,0.0399
3126.00,0.0399
3125.00,0.0399
3124.00,0.0398
3123.00,0.0397
3122.00,0.0396
3121.00,0.0395
3120.00,0.0395
3119.00,0.0395
3118.00,0.0395
3117.00,0.0395
3116.00,0.0396
3115.00,0.0397
3114.00,0.0398
3113.00,0.0399
3112.00,0.0399
3111.00,0.0400
3110.00,0.0400
3109.00,0.0401
3108.00,0.0401
3107.00,0.0402
3106.00,0.0404
3105.00,0.0404
3104.00,0.0405
3103.00,0.0405
3102.00,0.0405
3101.00,0.0406
3100.00,0.0406
3099.00,0.0406
3098.00,0.0406
3097.00,0.0407
3096.00,0.0407
3095.00,0.0408
3094.00,0.0408
3093.00,0.0408
3092.00,0.0408
3091.00,0.0409
3090.00,0.0409
3089.00,0.0410
3088.00,0.0412
3087.00,0.0413
3086.00,0.0415
3085.00,0.0418
3084.00,0.0420
3083.00,0.0423
3082.00,0.0426
3081.00,0.0429
3080.00,0.0433
3079.00,0.0437
3078.00,0.0442
3077.00,0.0447
3076.00,0.0453
3075.00,0.0458
3074.00,0.0463
3073.00,0.0467
3072.00,0.0470
3071.00,0.0472
3070.00,0.0472
3069.00,0.0471
3068.00,0.0467
3067.00,0.0463
3066.00,0.0457
3065.00,0.0450
3064.00,0.0443
3063.00,0.0435
3062.00,0.0427
3061.00,0.0419
3060.00,0.0412
3059.00,0.0405
3058.00,0.0399
3057.00,0.0394
3056.00,0.0390
3055.00,0.0387
3054.00,0.0384
3053.00,0.0382
3052.00,0.0379
3051.00,0.0377
3050.00,0.0376
3049.00,0.0374
3048.00,0.0373
3047.00,0.0372
3046.00,0.0371
3045.00,0.0370
3044.00,0.0370
3043.00,0.0370
3042.00,0.0370
3041.00,0.0371
3040.00,0.0372
3039.00,0.0372
3038.00,0.0372
3037.00,0.0372
3036.00,0.0372
3035.00,0.0371
3034.00,0.0370
3033.00,0.0369
3032.00,0.0368
3031.00,0.0367
3030.00,0.0365
3029.00,0.0363
3028.00,0.0361
3027.00,0.0359
3026.00,0.0357
3025.00,0.0355
3024.00,0.0353
3023.00,0.0351
3022.00,0.0349
3021.00,0.0348
3020.00,0.0347
3019.00,0.0346
3018.00,0.0345
3017.00,0.0344
3016.00,0.0344
3015.00,0.0344
3014.00,0.0344
3013.00,0.0344
3012.00,0.0345
3011.00,0.0346
3010.00,0.0347
3009.00,0.0349
3008.00,0.0351
3007.00,0.0353
3006.00,0.0355
3005.00,0.0357
3004.00,0.0360
3003.00,0.0362
3002.00,0.0365
3001.00,0.0369
3000.00,0.0373
2999.00,0.0377
2998.00,0.0382
2997.00,0.0387
2996.00,0.0392
2995.00,0.0399
2994.00,0.0405
2993.00,0.0412
2992.00,0.0418
2991.00,0.0425
2990.00,0.0431
2989.00,0.0437
2988.00,0.0443
2987.00,0.0448
2986.00,0.0454
2985.00,0.0460
2984.00,0.0466
2983.00,0.0474
2982.00,0.0483
2981.00,0.0494
2980.00,0.0506
2979.00,0.0519
2978.00,0.0532
2977.00,0.0546
2976.00,0.0559
2975.00,0.0571
2974.00,0.0583
2973.00,0.0595
2972.00,0.0608
2971.00,0.0622
2970.00,0.0637
2969.00,0.0654
2968.00,0.0672
2967.00,0.0691
2966.00,0.0712
2965.00,0.0735
2964.00,0.0758
2963.00,0.0782
2962.00,0.0806
2961.00,0.0830
2960.00,0.0854
2959.00,0.0875
2958.00,0.0894
2957.00,0.0911
2956.00,0.0924
2955.00,0.0933
2954.00,0.0938
2953.00,0.0937
2952.00,0.0929
2951.00,0.0917
2950.00,0.0900
2949.00,0.0882
2948.00,0.0866
2947.00,0.0853
2946.00,0.0846
2945.00,0.0847
2944.00,0.0856
2943.00,0.0872
2942.00,0.0894
2941.00,0.0922
2940.00,0.0954
2939.00,0.0989
2938.00,0.1028
2937.00,0.1070
2936.00,0.1113
2935.00,0.1159
2934.00,0.1206
2933.00,0.1254
2932.00,0.1303
2931.00,0.1351
2930.00,0.1396
2929.00,0.1437
2928.00,0.1471
2927.00,0.1499
2926.00,0.1518
2925.00,0.1530
2924.00,0.1535
2923.00,0.1534
2922.00,0.1527
2921.00,0.1514
2920.00,0.1497
2919.00,0.1474
2918.00,0.1446
2917.00,0.1413
2916.00,0.1376
2915.00,0.1337
2914.00,0.1295
2913.00,0.1252
2912.00,0.1211
2911.00,0.1171
2910.00,0.1133
2909.00,0.1097
2908.00,0.1063
2907.00,0.1031
2906.00,0.0999
2905.00,0.0969
2904.00,0.0941
2903.00,0.0915
2902.00,0.0891
2901.00,0.0868
2900.00,0.0848
2899.00,0.0829
2898.00,0.0811
2897.00,0.0794
2896.00,0.0780
2895.00,0.0766
2894.00,0.0755
2893.00,0.0744
2892.00,0.0736
2891.00,0.0728
2890.00,0.0721
2889.00,0.0716
2888.00,0.0711
2887.00,0.0707
2886.00,0.0702
2885.00,0.0698
2884.00,0.0694
2883.00,0.0691
2882.00,0.0689
2881.00,0.0689
2880.00,0.0691
2879.00,0.0696
2878.00,0.0704
2877.00,0.0716
2876.00,0.0731
2875.00,0.0748
2874.00,0.0767
2873.00,0.0784
2872.00,0.0797
2871.00,0.0802
2870.00,0.0799
2869.00,0.0790
2868.00,0.0777
2867.00,0.0765
2866.00,0.0758
2865.00,0.0759
2864.00,0.0770
2863.00,0.0788
2862.00,0.0814
2861.00,0.0845
2860.00,0.0877
2859.00,0.0907
2858.00,0.0930
2857.00,0.0944
2856.00,0.0946
2855.00,0.0936
2854.00,0.0915
2853.00,0.0887
2852.00,0.0854
2851.00,0.0817
2850.00,0.0779
2849.00,0.0741
2848.00,0.0706
2847.00,0.0673
2846.00,0.0645
2845.00,0.0621
2844.00,0.0601
2843.00,0.0583
2842.00,0.0567
2841.00,0.0551
2840.00,0.0538
2839.00,0.0529
2838.00,0.0524
2837.00,0.0524
2836.00,0.0528
2835.00,0.0534
2834.00,0.0539
2833.00,0.0541
2832.00,0.0539
2831.00,0.0531
2830.00,0.0517
2829.00,0.0498
2828.00,0.0476
2827.00,0.0453
2826.00,0.0431
2825.00,0.0411
2824.00,0.0393
2823.00,0.0378
2822.00,0.0366
2821.00,0.0355
2820.00,0.0346
2819.00,0.0338
2818.00,0.0332
2817.00,0.0326
2816.00,0.0321
2815.00,0.0316
2814.00,0.0312
2813.00,0.0308
2812.00,0.0305
2811.00,0.0301
2810.00,0.0298
2809.00,0.0295
2808.00,0.0292
2807.00,0.0290
2806.00,0.0287
2805.00,0.0285
2804.00,0.0283
2803.00,0.0281
2802.00,0.0279
2801.00,0.0277
2800.00,0.0276
2799.00,0.0274
2798.00,0.0272
2797.00,0.0271
2796.00,0.0270
2795.00,0.0269
2794.00,0.0268
2793.00,0.0267
2792.00,0.0265
2791.00,0.0264
2790.00,0.0263
2789.00,0.0263
2788.00,0.0262
2787.00,0.0262
2786.00,0.0262
2785.00,0.0262
2784.00,0.0262
2783.00,0.0262
2782.00,0.0262
2781.00,0.0262
2780.00,0.0262
2779.00,0.0262
2778.00,0.0263
2777.00,0.0263
2776.00,0.0264
2775.00,0.0264
2774.00,0.0265
2773.00,0.0266
2772.00,0.0266
2771.00,0.0267
2770.00,0.0268
2769.00,0.0268
2768.00,0.0269
2767.00,0.0270
2766.00,0.0271
2765.00,0.0271
2764.00,0.0272
2763.00,0.0273
2762.00,0.0273
2761.00,0.0274
2760.00,0.0275
2759.00,0.0275
2758.00,0.0276
2757.00,0.0277
2756.00,0.0277
2755.00,0.0278
2754.00,0.0278
2753.00,0.0278
2752.00,0.0279
2751.00,0.0279
2750.00,0.0279
2749.00,0.0280
2748.00,0.0280
2747.00,0.0280
2746.00,0.0281
2745.00,0.0281
2744.00,0.0281
2743.00,0.0282
2742.00,0.0282
2741.00,0.0283
2740.00,0.0284
2739.00,0.0285
2738.00,0.0287
2737.00,0.0288
2736.00,0.0290
2735.00,0.0292
2734.00,0.0293
2733.00,0.0295
2732.00,0.0295
2731.00,0.0296
2730.00,0.0296
2729.00,0.0296
2728.00,0.0296
2727.00,0.0296
2726.00,0.0295
2725.00,0.0294
2724.00,0.0294
2723.00,0.0293
2722.00,0.0291
2721.00,0.0290
2720.00,0.0289
2719.00,0.0289
2718.00,0.0288
2717.00,0.0287
2716.00,0.0287
2715.00,0.0286
2714.00,0.0286
2713.00,0.0285
2712.00,0.0285
2711.00,0.0285
2710.00,0.0284
2709.00,0.0284
2708.00,0.0285
2707.00,0.0285
2706.00,0.0285
2705.00,0.0285
2704.00,0.0285
2703.00,0.0285
2702.00,0.0285
2701.00,0.0285
2700.00,0.0286
2699.00,0.0286
2698.00,0.0286
2697.00,0.0286
2696.00,0.0287
2695.00,0.0287
2694.00,0.0288
2693.00,0.0288
2692.00,0.0288
2691.00,0.0288
2690.00,0.0289
2689.00,0.0289
2688.00,0.0289
2687.00,0.0289
2686.00,0.0290
2685.00,0.0290
2684.00,0.0290
2683.00,0.0289
2682.00,0.0289
2681.00,0.0289
2680.00,0.0288
2679.00,0.0288
2678.00,0.0288
2677.00,0.0288
2676.00,0.0288
2675.00,0.0288
2674.00,0.0288
2673.00,0.0288
2672.00,0.0288
2671.00,0.0289
2670.00,0.0289
2669.00,0.0289
2668.00,0.0290
2667.00,0.0291
2666.00,0.0291
2665.00,0.0291
2664.00,0.0292
2663.00,0.0292
2662.00,0.0291
2661.00,0.0291
2660.00,0.0290
2659.00,0.0290
2658.00,0.0289
2657.00,0.0288
2656.00,0.0287
2655.00,0.0286
2654.00,0.0285
2653.00,0.0284
2652.00,0.0283
2651.00,0.0282
2650.00,0.0282
2649.00,0.0281
2648.00,0.0280
2647.00,0.0280
2646.00,0.0279
2645.00,0.0279
2644.00,0.0278
2643.00,0.0278
2642.00,0.0278
2641.00,0.0277
2640.00,0.0277
2639.00,0.0276
2638.00,0.0276
2637.00,0.0276
2636.00,0.0275
2635.00,0.0275
2634.00,0.0275
2633.00,0.0274
2632.00,0.0274
2631.00,0.0274
2630.00,0.0274
2629.00,0.0274
2628.00,0.0274
2627.00,0.0274
2626.00,0.0273
2625.00,0.0273
2624.00,0.0273
2623.00,0.0272
2622.00,0.0272
2621.00,0.0272
2620.00,0.0271
2619.00,0.0271
2618.00,0.0271
2617.00,0.0271
2616.00,0.0270
2615.00,0.0270
2614.00,0.0269
2613.00,0.0269
2612.00,0.0268
2611.00,0.0268
2610.00,0.0267
2609.00,0.0267
2608.00,0.0266
2607.00,0.0265
2606.00,0.0264
2605.00,0.0264
2604.00,0.0263
2603.00,0.0262
2602.00,0.0261
2601.00,0.0261
2600.00,0.0260
2599.00,0.0259
2598.00,0.0258
2597.00,0.0257
2596.00,0.0257
2595.00,0.0256
2594.00,0.0256
2593.00,0.0255
2592.00,0.0254
2591.00,0.0253
2590.00,0.0252
2589.00,0.0252
2588.00,0.0251
2587.00,0.0251
2586.00,0.0251
2585.00,0.0250
2584.00,0.0250
2583.00,0.0249
2582.00,0.0249
2581.00,0.0248
2580.00,0.0248
2579.00,0.0248
2578.00,0.0247
2577.00,0.0247
2576.00,0.0246
2575.00,0.0246
2574.00,0.0245
2573.00,0.0245
2572.00,0.0246
2571.00,0.0246
2570.00,0.0246
2569.00,0.0246
2568.00,0.0246
2567.00,0.0246
2566.00,0.0247
2565.00,0.0247
2564.00,0.0248
2563.00,0.0248
2562.00,0.0248
2561.00,0.0249
2560.00,0.0249
2559.00,0.0249
2558.00,0.0249
2557.00,0.0250
2556.00,0.0250
2555.00,0.0250
2554.00,0.0250
2553.00,0.0249
2552.00,0.0249
2551.00,0.0249
2550.00,0.0248
2549.00,0.0248
2548.00,0.0247
2547.00,0.0247
2546.00,0.0246
2545.00,0.0245
2544.00,0.0244
2543.00,0.0243
2542.00,0.0242
2541.00,0.0241
2540.00,0.0240
2539.00,0.0239
2538.00,0.0238
2537.00,0.0237
2536.00,0.0236
2535.00,0.0235
2534.00,0.0234
2533.00,0.0234
2532.00,0.0233
2531.00,0.0233
2530.00,0.0232
2529.00,0.0232
2528.00,0.0231
2527.00,0.0231
2526.00,0.0231
2525.00,0.0231
2524.00,0.0231
2523.00,0.0230
2522.00,0.0230
2521.00,0.0229
2520.00,0.0229
2519.00,0.0228
2518.00,0.0228
2517.00,0.0227
2516.00,0.0227
2515.00,0.0226
2514.00,0.0225
2513.00,0.0224
2512.00,0.0223
2511.00,0.0223
2510.00,0.0222
2509.00,0.0222
2508.00,0.0221
2507.00,0.0220
2506.00,0.0219
2505.00,0.0219
2504.00,0.0218
2503.00,0.0218
2502.00,0.0217
2501.00,0.0217
2500.00,0.0216
2499.00,0.0216
2498.00,0.0215
2497.00,0.0215
2496.00,0.0215
2495.00,0.0215
2494.00,0.0215
2493.00,0.0215
2492.00,0.0215
2491.00,0.0215
2490.00,0.0215
2489.00,0.0215
2488.00,0.0215
2487.00,0.0215
2486.00,0.0215
2485.00,0.0215
2484.00,0.0215
2483.00,0.0215
2482.00,0.0215
2481.00,0.0215
2480.00,0.0215
2479.00,0.0214
2478.00,0.0214
2477.00,0.0214
2476.00,0.0213
2475.00,0.0213
2474.00,0.0213
2473.00,0.0213
2472.00,0.0213
2471.00,0.0213
2470.00,0.0213
2469.00,0.0213
2468.00,0.0212
2467.00,0.0211
2466.00,0.0211
2465.00,0.0211
2464.00,0.0211
2463.00,0.0211
2462.00,0.0211
2461.00,0.0212
2460.00,0.0213
2459.00,0.0213
2458.00,0.0213
2457.00,0.0213
2456.00,0.0214
2455.00,0.0214
2454.00,0.0214
2453.00,0.0214
2452.00,0.0214
2451.00,0.0214
2450.00,0.0214
2449.00,0.0214
2448.00,0.0214
2447.00,0.0214
2446.00,0.0214
2445.00,0.0214
2444.00,0.0213
2443.00,0.0213
2442.00,0.0213
2441.00,0.0212
2440.00,0.0212
2439.00,0.0212
2438.00,0.0211
2437.00,0.0211
2436.00,0.0210
2435.00,0.0210
2434.00,0.0209
2433.00,0.0209
2432.00,0.0208
2431.00,0.0208
2430.00,0.0207
2429.00,0.0207
2428.00,0.0207
2427.00,0.0207
2426.00,0.0206
2425.00,0.0206
2424.00,0.0205
2423.00,0.0204
2422.00,0.0204
2421.00,0.0204
2420.00,0.0203
2419.00,0.0203
2418.00,0.0202
2417.00,0.0202
2416.00,0.0201
2415.00,0.0200
2414.00,0.0200
2413.00,0.0199
2412.00,0.0199
2411.00,0.0198
2410.00,0.0197
2409.00,0.0196
2408.00,0.0194
2407.00,0.0193
2406.00,0.0192
2405.00,0.0191
2404.00,0.0190
2403.00,0.0189
2402.00,0.0188
2401.00,0.0187
2400.00,0.0186
2399.00,0.0185
2398.00,0.0184
2397.00,0.0183
2396.00,0.0182
2395.00,0.0182
2394.00,0.0180
2393.00,0.0179
2392.00,0.0179
2391.00,0.0178
2390.00,0.0177
2389.00,0.0176
2388.00,0.0176
2387.00,0.0175
2386.00,0.0174
2385.00,0.0173
2384.00,0.0172
2383.00,0.0171
2382.00,0.0170
2381.00,0.0169
2380.00,0.0168
2379.00,0.0167
2378.00,0.0167
2377.00,0.0167
2376.00,0.0167
2375.00,0.0166
2374.00,0.0165
2373.00,0.0163
2372.00,0.0161
2371.00,0.0160
2370.00,0.0159
2369.00,0.0158
2368.00,0.0157
2367.00,0.0157
2366.00,0.0156
2365.00,0.0156
2364.00,0.0156
2363.00,0.0156
2362.00,0.0155
2361.00,0.0154
2360.00,0.0153
2359.00,0.0152
2358.00,0.0151
2357.00,0.0151
2356.00,0.0150
2355.00,0.0149
2354.00,0.0149
2353.00,0.0148
2352.00,0.0147
2351.00,0.0146
2350.00,0.0145
2349.00,0.0145
2348.00,0.0144
2347.00,0.0144
2346.00,0.0145
2345.00,0.0146
2344.00,0.0145
2343.00,0.0144
2342.00,0.0142
2341.00,0.0141
2340.00,0.0140
2339.00,0.0139
2338.00,0.0138
2337.00,0.0137
2336.00,0.0136
2335.00,0.0135
2334.00,0.0134
2333.00,0.0133
2332.00,0.0132
2331.00,0.0131
2330.00,0.0131
2329.00,0.0132
2328.00,0.0134
2327.00,0.0136
2326.00,0.0138
2325.00,0.0139
2324.00,0.0137
2323.00,0.0135
2322.00,0.0133
2321.00,0.0130
2320.00,0.0128
2319.00,0.0126
2318.00,0.0124
2317.00,0.0123
2316.00,0.0122
2315.00,0.0121
2314.00,0.0120
2313.00,0.0119
2312.00,0.0119
2311.00,0.0118
2310.00,0.0117
2309.00,0.0117
2308.00,0.0116
2307.00,0.0115
2306.00,0.0115
2305.00,0.0114
2304.00,0.0114
2303.00,0.0113
2302.00,0.0112
2301.00,0.0112
2300.00,0.0111
2299.00,0.0111
2298.00,0.0110
2297.00,0.0110
2296.00,0.0109
2295.00,0.0109
2294.00,0.0110
2293.00,0.0110
2292.00,0.0110
2291.00,0.0111
2290.00,0.0110
2289.00,0.0110
2288.00,0.0110
2287.00,0.0109
2286.00,0.0109
2285.00,0.0108
2284.00,0.0107
2283.00,0.0106
2282.00,0.0105
2281.00,0.0104
2280.00,0.0102
2279.00,0.0101
2278.00,0.0101
2277.00,0.0101
2276.00,0.0100
2275.00,0.0100
2274.00,0.0098
2273.00,0.0097
2272.00,0.0097
2271.00,0.0096
2270.00,0.0095
2269.00,0.0094
2268.00,0.0093
2267.00,0.0092
2266.00,0.0091
2265.00,0.0090
2264.00,0.0089
2263.00,0.0090
2262.00,0.0090
2261.00,0.0091
2260.00,0.0092
2259.00,0.0091
2258.00,0.0090
2257.00,0.0088
2256.00,0.0086
2255.00,0.0085
2254.00,0.0084
2253.00,0.0085
2252.00,0.0085
2251.00,0.0086
2250.00,0.0085
2249.00,0.0085
2248.00,0.0085
2247.00,0.0085
2246.00,0.0084
2245.00,0.0083
2244.00,0.0083
2243.00,0.0083
2242.00,0.0083
2241.00,0.0084
2240.00,0.0084
2239.00,0.0084
2238.00,0.0083
2237.00,0.0082
2236.00,0.0082
2235.00,0.0081
2234.00,0.0081
2233.00,0.0082
2232.00,0.0081
2231.00,0.0080
2230.00,0.0079
2229.00,0.0078
2228.00,0.0077
2227.00,0.0076
2226.00,0.0075
2225.00,0.0074
2224.00,0.0074
2223.00,0.0074
2222.00,0.0074
2221.00,0.0074
2220.00,0.0075
2219.00,0.0074
2218.00,0.0073
2217.00,0.0072
2216.00,0.0072
2215.00,0.0072
2214.00,0.0072
2213.00,0.0072
2212.00,0.0072
2211.00,0.0071
2210.00,0.0069
2209.00,0.0068
2208.00,0.0067
2207.00,0.0067
2206.00,0.0067
2205.00,0.0068
2204.00,0.0069
2203.00,0.0069
2202.00,0.0069
2201.00,0.0067
2200.00,0.0066
2199.00,0.0064
2198.00,0.0063
2197.00,0.0063
2196.00,0.0064
2195.00,0.0064
2194.00,0.0064
2193.00,0.0064
2192.00,0.0064
2191.00,0.0064
2190.00,0.0064
2189.00,0.0064
2188.00,0.0065
2187.00,0.0066
2186.00,0.0065
2185.00,0.0064
2184.00,0.0063
2183.00,0.0060
2182.00,0.0058
2181.00,0.0058
2180.00,0.0059
2179.00,0.0060
2178.00,0.0059
2177.00,0.0057
2176.00,0.0056
2175.00,0.0056
2174.00,0.0056
2173.00,0.0057
2172.00,0.0059
2171.00,0.0060
2170.00,0.0062
2169.00,0.0064
2168.00,0.0067
2167.00,0.0068
2166.00,0.0068
2165.00,0.0069
2164.00,0.0071
2163.00,0.0071
2162.00,0.0066
2161.00,0.0055
2160.00,0.0040
2159.00,0.0027
2158.00,0.0019
2157.00,0.0018
2156.00,0.0021
2155.00,0.0024
2154.00,0.0027
2153.00,0.0030
2152.00,0.0032
2151.00,0.0033
2150.00,0.0032
2149.00,0.0032
2148.00,0.0032
2147.00,0.0031
2146.00,0.0030
2145.00,0.0030
2144.00,0.0031
2143.00,0.0031
2142.00,0.0031
2141.00,0.0031
2140.00,0.0031
2139.00,0.0031
2138.00,0.0030
2137.00,0.0029
2136.00,0.0027
2135.00,0.0025
2134.00,0.0024
2133.00,0.0024
2132.00,0.0026
2131.00,0.0028
2130.00,0.0030
2129.00,0.0032
2128.00,0.0033
2127.00,0.0034
2126.00,0.0035
2125.00,0.0036
2124.00,0.0037
2123.00,0.0037
2122.00,0.0037
2121.00,0.0037
2120.00,0.0037
2119.00,0.0038
2118.00,0.0039
2117.00,0.0040
2116.00,0.0041
2115.00,0.0041
2114.00,0.0041
2113.00,0.0040
2112.00,0.0040
2111.00,0.0039
2110.00,0.0038
2109.00,0.0038
2108.00,0.0037
2107.00,0.0036
2106.00,0.0035
2105.00,0.0035
2104.00,0.0035
2103.00,0.0035
2102.00,0.0035
2101.00,0.0036
2100.00,0.0036
2099.00,0.0036
2098.00,0.0035
2097.00,0.0034
2096.00,0.0033
2095.00,0.0032
2094.00,0.0032
2093.00,0.0032
2092.00,0.0034
2091.00,0.0034
2090.00,0.0035
2089.00,0.0036
2088.00,0.0037
2087.00,0.0037
2086.00,0.0037
2085.00,0.0037
2084.00,0.0037
2083.00,0.0037
2082.00,0.0037
2081.00,0.0037
2080.00,0.0037
2079.00,0.0037
2078.00,0.0036
2077.00,0.0035
2076.00,0.0034
2075.00,0.0033
2074.00,0.0031
2073.00,0.0031
2072.00,0.0031
2071.00,0.0030
2070.00,0.0029
2069.00,0.0027
2068.00,0.0026
2067.00,0.0025
2066.00,0.0024
2065.00,0.0023
2064.00,0.0024
2063.00,0.0025
2062.00,0.0025
2061.00,0.0024
2060.00,0.0024
2059.00,0.0024
2058.00,0.0023
2057.00,0.0022
2056.00,0.0021
2055.00,0.0022
2054.00,0.0024
2053.00,0.0029
2052.00,0.0034
2051.00,0.0034
2050.00,0.0031
2049.00,0.0026
2048.00,0.0023
2047.00,0.0022
2046.00,0.0022
2045.00,0.0024
2044.00,0.0025
2043.00,0.0025
2042.00,0.0024
2041.00,0.0024
2040.00,0.0024
2039.00,0.0025
2038.00,0.0024
2037.00,0.0024
2036.00,0.0024
2035.00,0.0023
2034.00,0.0022
2033.00,0.0022
2032.00,0.0022
2031.00,0.0022
2030.00,0.0021
2029.00,0.0021
2028.00,0.0021
2027.00,0.0020
2026.00,0.0019
2025.00,0.0018
2024.00,0.0019
2023.00,0.0020
2022.00,0.0019
2021.00,0.0018
2020.00,0.0019
2019.00,0.0018
2018.00,0.0018
2017.00,0.0019
2016.00,0.0020
2015.00,0.0021
2014.00,0.0021
2013.00,0.0021
2012.00,0.0022
2011.00,0.0022
2010.00,0.0020
2009.00,0.0018
2008.00,0.0016
2007.00,0.0013
2006.00,0.0011
2005.00,0.0011
2004.00,0.0014
2003.00,0.0016
2002.00,0.0017
2001.00,0.0019
2000.00,0.0021
1999.00,0.0023
1998.00,0.0024
1997.00,0.0025
1996.00,0.0026
1995.00,0.0026
1994.00,0.0026
1993.00,0.0027
1992.00,0.0029
1991.00,0.0031
1990.00,0.0033
1989.00,0.0034
1988.00,0.0036
1987.00,0.0035
1986.00,0.0034
1985.00,0.0034
1984.00,0.0037
1983.00,0.0039
1982.00,0.0041
1981.00,0.0041
1980.00,0.0039
1979.00,0.0033
1978.00,0.0025
1977.00,0.0020
1976.00,0.0018
1975.00,0.0016
1974.00,0.0015
1973.00,0.0015
1972.00,0.0016
1971.00,0.0018
1970.00,0.0018
1969.00,0.0019
1968.00,0.0020
1967.00,0.0020
1966.00,0.0019
1965.00,0.0020
1964.00,0.0021
1963.00,0.0021
1962.00,0.0020
1961.00,0.0019
1960.00,0.0019
1959.00,0.0019
1958.00,0.0018
1957.00,0.0019
1956.00,0.0021
1955.00,0.0022
1954.00,0.0023
1953.00,0.0024
1952.00,0.0025
1951.00,0.0025
1950.00,0.0025
1949.00,0.0025
1948.00,0.0025
1947.00,0.0025
1946.00,0.0024
1945.00,0.0024
1944.00,0.0024
1943.00,0.0024
1942.00,0.0024
1941.00,0.0024
1940.00,0.0025
1939.00,0.0025
1938.00,0.0025
1937.00,0.0026
1936.00,0.0026
1935.00,0.0026
1934.00,0.0025
1933.00,0.0024
1932.00,0.0024
1931.00,0.0024
1930.00,0.0025
1929.00,0.0026
1928.00,0.0027
1927.00,0.0027
1926.00,0.0027
1925.00,0.0027
1924.00,0.0028
1923.00,0.0029
1922.00,0.0029
1921.00,0.0030
1920.00,0.0030
1919.00,0.0030
1918.00,0.0030
1917.00,0.0030
1916.00,0.0030
1915.00,0.0029
1914.00,0.0029
1913.00,0.0029
1912.00,0.0030
1911.00,0.0030
1910.00,0.0029
1909.00,0.0029
1908.00,0.0030
1907.00,0.0029
1906.00,0.0029
1905.00,0.0029
1904.00,0.0030
1903.00,0.0030
1902.00,0.0030
1901.00,0.0030
1900.00,0.0031
1899.00,0.0031
1898.00,0.0031
1897.00,0.0031
1896.00,0.0031
1895.00,0.0031
1894.00,0.0030
1893.00,0.0030
1892.00,0.0031
1891.00,0.0032
1890.00,0.0031
1889.00,0.0031
1888.00,0.0031
1887.00,0.0031
1886.00,0.0031
1885.00,0.0031
1884.00,0.0032
1883.00,0.0032
1882.00,0.0032
1881.00,0.0033
1880.00,0.0033
1879.00,0.0033
1878.00,0.0033
1877.00,0.0033
1876.00,0.0033
1875.00,0.0033
1874.00,0.0033
1873.00,0.0033
1872.00,0.0034
1871.00,0.0033
1870.00,0.0033
1869.00,0.0033
1868.00,0.0034
1867.00,0.0034
1866.00,0.0034
1865.00,0.0034
1864.00,0.0034
1863.00,0.0034
1862.00,0.0034
1861.00,0.0034
1860.00,0.0034
1859.00,0.0034
1858.00,0.0034
1857.00,0.0034
1856.00,0.0035
1855.00,0.0034
1854.00,0.0034
1853.00,0.0034
1852.00,0.0034
1851.00,0.0034
1850.00,0.0034
1849.00,0.0035
1848.00,0.0036
1847.00,0.0036
1846.00,0.0036
1845.00,0.0036
1844.00,0.0036
1843.00,0.0037
1842.00,0.0037
1841.00,0.0037
1840.00,0.0037
1839.00,0.0037
1838.00,0.0037
1837.00,0.0037
1836.00,0.0038
1835.00,0.0038
1834.00,0.0038
1833.00,0.0038
1832.00,0.0038
1831.00,0.0038
1830.00,0.0038
1829.00,0.0038
1828.00,0.0038
1827.00,0.0038
1826.00,0.0038
1825.00,0.0038
1824.00,0.0039
1823.00,0.0039
1822.00,0.0039
1821.00,0.0039
1820.00,0.0039
1819.00,0.0038
1818.00,0.0037
1817.00,0.0037
1816.00,0.0038
1815.00,0.0039
1814.00,0.0039
1813.00,0.0040
1812.00,0.0041
1811.00,0.0042
1810.00,0.0042
1809.00,0.0042
1808.00,0.0043
1807.00,0.0044
1806.00,0.0044
1805.00,0.0045
1804.00,0.0046
1803.00,0.0046
1802.00,0.0047
1801.00,0.0047
1800.00,0.0048
1799.00,0.0049
1798.00,0.0050
1797.00,0.0051
1796.00,0.0052
1795.00,0.0053
1794.00,0.0054
1793.00,0.0056
1792.00,0.0058
1791.00,0.0060
1790.00,0.0062
1789.00,0.0064
1788.00,0.0066
1787.00,0.0067
1786.00,0.0068
1785.00,0.0068
1784.00,0.0068
1783.00,0.0068
1782.00,0.0066
1781.00,0.0065
1780.00,0.0065
1779.00,0.0064
1778.00,0.0064
1777.00,0.0064
1776.00,0.0064
1775.00,0.0064
1774.00,0.0064
1773.00,0.0063
1772.00,0.0063
1771.00,0.0062
1770.00,0.0061
1769.00,0.0061
1768.00,0.0061
1767.00,0.0061
1766.00,0.0061
1765.00,0.0061
1764.00,0.0061
1763.00,0.0061
1762.00,0.0061
1761.00,0.0061
1760.00,0.0061
1759.00,0.0061
1758.00,0.0061
1757.00,0.0061
1756.00,0.0061
1755.00,0.0061
1754.00,0.0061
1753.00,0.0061
1752.00,0.0061
1751.00,0.0061
1750.00,0.0061
1749.00,0.0061
1748.00,0.0062
1747.00,0.0062
1746.00,0.0062
1745.00,0.0062
1744.00,0.0063
1743.00,0.0063
1742.00,0.0063
1741.00,0.0063
1740.00,0.0064
1739.00,0.0064
1738.00,0.0064
1737.00,0.0065
1736.00,0.0066
1735.00,0.0067
1734.00,0.0068
1733.00,0.0069
1732.00,0.0071
1731.00,0.0071
1730.00,0.0072
1729.00,0.0073
1728.00,0.0074
1727.00,0.0075
1726.00,0.0076
1725.00,0.0077
1724.00,0.0078
1723.00,0.0078
1722.00,0.0079
1721.00,0.0079
1720.00,0.0080
1719.00,0.0081
1718.00,0.0081
1717.00,0.0082
1716.00,0.0084
1715.00,0.0086
1714.00,0.0087
1713.00,0.0088
1712.00,0.0090
1711.00,0.0091
1710.00,0.0092
1709.00,0.0093
1708.00,0.0094
1707.00,0.0095
1706.00,0.0096
1705.00,0.0097
1704.00,0.0099
1703.00,0.0101
1702.00,0.0102
1701.00,0.0103
1700.00,0.0105
1699.00,0.0107
1698.00,0.0108
1697.00,0.0110
1696.00,0.0112
1695.00,0.0115
1694.00,0.0117
1693.00,0.0118
1692.00,0.0120
1691.00,0.0122
1690.00,0.0124
1689.00,0.0127
1688.00,0.0130
1687.00,0.0132
1686.00,0.0135
1685.00,0.0139
1684.00,0.0145
1683.00,0.0150
1682.00,0.0155
1681.00,0.0159
1680.00,0.0164
1679.00,0.0169
1678.00,0.0173
1677.00,0.0179
1676.00,0.0187
1675.00,0.0196
1674.00,0.0204
1673.00,0.0213
1672.00,0.0222
1671.00,0.0234
1670.00,0.0248
1669.00,0.0265
1668.00,0.0283
1667.00,0.0299
1666.00,0.0313
1665.00,0.0328
1664.00,0.0346
1663.00,0.0368
1662.00,0.0390
1661.00,0.0412
1660.00,0.0434
1659.00,0.0456
1658.00,0.0477
1657.00,0.0497
1656.00,0.0518
1655.00,0.0542
1654.00,0.0581
1653.00,0.0638
1652.00,0.0694
1651.00,0.0733
1650.00,0.0762
1649.00,0.0799
1648.00,0.0858
1647.00,0.0944
1646.00,0.1044
1645.00,0.1141
1644.00,0.1228
1643.00,0.1306
1642.00,0.1376
1641.00,0.1440
1640.00,0.1495
1639.00,0.1543
1638.00,0.1590
1637.00,0.1653
1636.00,0.1744
1635.00,0.1845
1634.00,0.1926
1633.00,0.1980
1632.00,0.2015
1631.00,0.2036
1630.00,0.2039
1629.00,0.2020
1628.00,0.1979
1627.00,0.1919
1626.00,0.1847
1625.00,0.1763
1624.00,0.1670
1623.00,0.1572
1622.00,0.1480
1621.00,0.1400
1620.00,0.1331
1619.00,0.1265
1618.00,0.1199
1617.00,0.1133
1616.00,0.1073
1615.00,0.1022
1614.00,0.0981
1613.00,0.0944
1612.00,0.0908
1611.00,0.0875
1610.00,0.0846
1609.00,0.0821
1608.00,0.0799
1607.00,0.0780
1606.00,0.0765
1605.00,0.0754
1604.00,0.0746
1603.00,0.0742
1602.00,0.0742
1601.00,0.0748
1600.00,0.0758
1599.00,0.0773
1598.00,0.0794
1597.00,0.0824
1596.00,0.0866
1595.00,0.0919
1594.00,0.0987
1593.00,0.1072
1592.00,0.1175
1591.00,0.1292
1590.00,0.1422
1589.00,0.1558
1588.00,0.1692
1587.00,0.1817
1586.00,0.1925
1585.00,0.2015
1584.00,0.2085
1583.00,0.2134
1582.00,0.2162
1581.00,0.2172
1580.00,0.2170
1579.00,0.2157
1578.00,0.2134
1577.00,0.2105
1576.00,0.2075
1575.00,0.2040
1574.00,0.2000
1573.00,0.1955
1572.00,0.1907
1571.00,0.1854
1570.00,0.1793
1569.00,0.1730
1568.00,0.1673
1567.00,0.1618
1566.00,0.1560
1565.00,0.1502
1564.00,0.1446
1563.00,0.1396
1562.00,0.1349
1561.00,0.1300
1560.00,0.1245
1559.00,0.1183
1558.00,0.1127
1557.00,0.1085
1556.00,0.1048
1555.00,0.1010
1554.00,0.0972
1553.00,0.0936
1552.00,0.0903
1551.00,0.0872
1550.00,0.0841
1549.00,0.0813
1548.00,0.0787
1547.00,0.0764
1546.00,0.0742
1545.00,0.0720
1544.00,0.0701
1543.00,0.0684
1542.00,0.0668
1541.00,0.0653
1540.00,0.0640
1539.00,0.0630
1538.00,0.0622
1537.00,0.0615
1536.00,0.0608
1535.00,0.0603
1534.00,0.0602
1533.00,0.0604
1532.00,0.0610
1531.00,0.0616
1530.00,0.0625
1529.00,0.0637
1528.00,0.0654
1527.00,0.0673
1526.00,0.0691
1525.00,0.0706
1524.00,0.0715
1523.00,0.0720
1522.00,0.0720
1521.00,0.0715
1520.00,0.0706
1519.00,0.0690
1518.00,0.0668
1517.00,0.0642
1516.00,0.0617
1515.00,0.0594
1514.00,0.0573
1513.00,0.0553
1512.00,0.0534
1511.00,0.0516
1510.00,0.0499
1509.00,0.0484
1508.00,0.0468
1507.00,0.0453
1506.00,0.0438
1505.00,0.0426
1504.00,0.0417
1503.00,0.0409
1502.00,0.0400
1501.00,0.0391
1500.00,0.0382
1499.00,0.0375
1498.00,0.0367
1497.00,0.0361
1496.00,0.0357
1495.00,0.0353
1494.00,0.0349
1493.00,0.0345
1492.00,0.0342
1491.00,0.0339
1490.00,0.0337
1489.00,0.0336
1488.00,0.0336
1487.00,0.0337
1486.00,0.0338
1485.00,0.0341
1484.00,0.0346
1483.00,0.0352
1482.00,0.0359
1481.00,0.0370
1480.00,0.0382
1479.00,0.0395
1478.00,0.0409
1477.00,0.0425
1476.00,0.0444
1475.00,0.0464
1474.00,0.0488
1473.00,0.0527
1472.00,0.0582
1471.00,0.0643
1470.00,0.0698
1469.00,0.0745
1468.00,0.0778
1467.00,0.0794
1466.00,0.0797
1465.00,0.0799
1464.00,0.0811
1463.00,0.0834
1462.00,0.0867
1461.00,0.0908
1460.00,0.0958
1459.00,0.1020
1458.00,0.1106
1457.00,0.1220
1456.00,0.1336
1455.00,0.1431
1454.00,0.1517
1453.00,0.1616
1452.00,0.1733
1451.00,0.1860
1450.00,0.1989
1449.00,0.2121
1448.00,0.2247
1447.00,0.2354
1446.00,0.2439
1445.00,0.2508
1444.00,0.2561
1443.00,0.2592
1442.00,0.2598
1441.00,0.2578
1440.00,0.2532
1439.00,0.2466
1438.00,0.2385
1437.00,0.2298
1436.00,0.2211
1435.00,0.2132
1434.00,0.2058
1433.00,0.1984
1432.00,0.1904
1431.00,0.1814
1430.00,0.1719
1429.00,0.1624
1428.00,0.1532
1427.00,0.1448
1426.00,0.1368
1425.00,0.1292
1424.00,0.1222
1423.00,0.1162
1422.00,0.1113
1421.00,0.1071
1420.00,0.1034
1419.00,0.1004
1418.00,0.0982
1417.00,0.0965
1416.00,0.0951
1415.00,0.0941
1414.00,0.0934
1413.00,0.0928
1412.00,0.0925
1411.00,0.0924
1410.00,0.0925
1409.00,0.0927
1408.00,0.0930
1407.00,0.0934
1406.00,0.0941
1405.00,0.0949
1404.00,0.0958
1403.00,0.0965
1402.00,0.0971
1401.00,0.0975
1400.00,0.0978
1399.00,0.0980
1398.00,0.0981
1397.00,0.0978
1396.00,0.0973
1395.00,0.0966
1394.00,0.0959
1393.00,0.0950
1392.00,0.0940
1391.00,0.0930
1390.00,0.0920
1389.00,0.0911
1388.00,0.0905
1387.00,0.0904
1386.00,0.0908
1385.00,0.0920
1384.00,0.0944
1383.00,0.0984
1382.00,0.1043
1381.00,0.1115
1380.00,0.1194
1379.00,0.1267
1378.00,0.1321
1377.00,0.1346
1376.00,0.1340
1375.00,0.1304
1374.00,0.1248
1373.00,0.1188
1372.00,0.1140
1371.00,0.1110
1370.00,0.1097
1369.00,0.1097
1368.00,0.1102
1367.00,0.1103
1366.00,0.1095
1365.00,0.1077
1364.00,0.1055
1363.00,0.1033
1362.00,0.1016
1361.00,0.1006
1360.00,0.1002
1359.00,0.1006
1358.00,0.1017
1357.00,0.1037
1356.00,0.1065
1355.00,0.1102
1354.00,0.1144
1353.00,0.1185
1352.00,0.1222
1351.00,0.1253
1350.00,0.1277
1349.00,0.1289
1348.00,0.1287
1347.00,0.1270
1346.00,0.1244
1345.00,0.1213
1344.00,0.1184
1343.00,0.1162
1342.00,0.1149
1341.00,0.1146
1340.00,0.1155
1339.00,0.1173
1338.00,0.1196
1337.00,0.1217
1336.00,0.1232
1335.00,0.1234
1334.00,0.1222
1333.00,0.1198
1332.00,0.1167
1331.00,0.1138
1330.00,0.1117
1329.00,0.1109
1328.00,0.1117
1327.00,0.1140
1326.00,0.1177
1325.00,0.1228
1324.00,0.1291
1323.00,0.1365
1322.00,0.1444
1321.00,0.1524
1320.00,0.1593
1319.00,0.1641
1318.00,0.1657
1317.00,0.1640
1316.00,0.1595
1315.00,0.1531
1314.00,0.1460
1313.00,0.1388
1312.00,0.1325
1311.00,0.1274
1310.00,0.1237
1309.00,0.1218
1308.00,0.1214
1307.00,0.1221
1306.00,0.1232
1305.00,0.1235
1304.00,0.1225
1303.00,0.1201
1302.00,0.1169
1301.00,0.1136
1300.00,0.1109
1299.00,0.1090
1298.00,0.1079
1297.00,0.1074
1296.00,0.1072
1295.00,0.1071
1294.00,0.1073
1293.00,0.1079
1292.00,0.1093
1291.00,0.1116
1290.00,0.1148
1289.00,0.1184
1288.00,0.1222
1287.00,0.1259
1286.00,0.1296
1285.00,0.1334
1284.00,0.1377
1283.00,0.1423
1282.00,0.1469
1281.00,0.1506
1280.00,0.1526
1279.00,0.1520
1278.00,0.1486
1277.00,0.1428
1276.00,0.1354
1275.00,0.1272
1274.00,0.1190
1273.00,0.1114
1272.00,0.1045
1271.00,0.0984
1270.00,0.0930
1269.00,0.0881
1268.00,0.0836
1267.00,0.0795
1266.00,0.0759
1265.00,0.0727
1264.00,0.0700
1263.00,0.0679
1262.00,0.0662
1261.00,0.0651
1260.00,0.0646
1259.00,0.0649
1258.00,0.0661
1257.00,0.0684
1256.00,0.0717
1255.00,0.0761
1254.00,0.0811
1253.00,0.0861
1252.00,0.0907
1251.00,0.0947
1250.00,0.0987
1249.00,0.1036
1248.00,0.1102
1247.00,0.1187
1246.00,0.1283
1245.00,0.1375
1244.00,0.1446
1243.00,0.1485
1242.00,0.1488
1241.00,0.1460
1240.00,0.1411
1239.00,0.1351
1238.00,0.1288
1237.00,0.1227
1236.00,0.1171
1235.00,0.1123
1234.00,0.1084
1233.00,0.1060
1232.00,0.1053
1231.00,0.1063
1230.00,0.1083
1229.00,0.1105
1228.00,0.1121
1227.00,0.1126
1226.00,0.1120
1225.00,0.1108
1224.00,0.1095
1223.00,0.1087
1222.00,0.1086
1221.00,0.1095
1220.00,0.1107
1219.00,0.1118
1218.00,0.1120
1217.00,0.1110
1216.00,0.1090
1215.00,0.1065
1214.00,0.1041
1213.00,0.1025
1212.00,0.1023
1211.00,0.1041
1210.00,0.1083
1209.00,0.1153
1208.00,0.1247
1207.00,0.1350
1206.00,0.1438
1205.00,0.1489
1204.00,0.1489
1203.00,0.1439
1202.00,0.1351
1201.00,0.1245
1200.00,0.1135
1199.00,0.1033
1198.00,0.0944
1197.00,0.0870
1196.00,0.0810
1195.00,0.0765
1194.00,0.0733
1193.00,0.0714
1192.00,0.0703
1191.00,0.0698
1190.00,0.0695
1189.00,0.0691
1188.00,0.0685
1187.00,0.0678
1186.00,0.0673
1185.00,0.0669
1184.00,0.0669
1183.00,0.0674
1182.00,0.0687
1181.00,0.0710
1180.00,0.0748
1179.00,0.0802
1178.00,0.0868
1177.00,0.0943
1176.00,0.1020
1175.00,0.1098
1174.00,0.1176
1173.00,0.1246
1172.00,0.1298
1171.00,0.1317
1170.00,0.1293
1169.00,0.1231
1168.00,0.1145
1167.00,0.1052
1166.00,0.0962
1165.00,0.0883
1164.00,0.0815
1163.00,0.0761
1162.00,0.0718
1161.00,0.0686
1160.00,0.0663
1159.00,0.0647
1158.00,0.0639
1157.00,0.0639
1156.00,0.0649
1155.00,0.0671
1154.00,0.0711
1153.00,0.0777
1152.00,0.0872
1151.00,0.0991
1150.00,0.1111
1149.00,0.1192
1148.00,0.1200
1147.00,0.1124
1146.00,0.0989
1145.00,0.0836
1144.00,0.0700
1143.00,0.0595
1142.00,0.0523
1141.00,0.0476
1140.00,0.0447
1139.00,0.0432
1138.00,0.0425
1137.00,0.0422
1136.00,0.0419
1135.00,0.0413
1134.00,0.0404
1133.00,0.0391
1132.00,0.0376
1131.00,0.0359
1130.00,0.0343
1129.00,0.0328
1128.00,0.0315
1127.00,0.0303
1126.00,0.0293
1125.00,0.0285
1124.00,0.0277
1123.00,0.0271
1122.00,0.0267
1121.00,0.0264
1120.00,0.0262
1119.00,0.0261
1118.00,0.0262
1117.00,0.0264
1116.00,0.0268
1115.00,0.0273
1114.00,0.0279
1113.00,0.0286
1112.00,0.0294
1111.00,0.0303
1110.00,0.0315
1109.00,0.0327
1108.00,0.0339
1107.00,0.0353
1106.00,0.0368
1105.00,0.0384
1104.00,0.0404
1103.00,0.0427
1102.00,0.0453
1101.00,0.0478
1100.00,0.0494
1099.00,0.0501
1098.00,0.0496
1097.00,0.0482
1096.00,0.0465
1095.00,0.0448
1094.00,0.0432
1093.00,0.0418
1092.00,0.0404
1091.00,0.0393
1090.00,0.0383
1089.00,0.0376
1088.00,0.0373
1087.00,0.0375
1086.00,0.0381
1085.00,0.0388
1084.00,0.0395
1083.00,0.0400
1082.00,0.0402
1081.00,0.0402
1080.00,0.0399
1079.00,0.0393
1078.00,0.0384
1077.00,0.0373
1076.00,0.0362
1075.00,0.0352
1074.00,0.0344
1073.00,0.0338
1072.00,0.0333
1071.00,0.0330
1070.00,0.0330
1069.00,0.0333
1068.00,0.0338
1067.00,0.0347
1066.00,0.0360
1065.00,0.0378
1064.00,0.0401
1063.00,0.0431
1062.00,0.0471
1061.00,0.0521
1060.00,0.0583
1059.00,0.0661
1058.00,0.0761
1057.00,0.0885
1056.00,0.1028
1055.00,0.1175
1054.00,0.1296
1053.00,0.1360
1052.00,0.1350
1051.00,0.1274
1050.00,0.1159
1049.00,0.1036
1048.00,0.0927
1047.00,0.0843
1046.00,0.0789
1045.00,0.0761
1044.00,0.0757
1043.00,0.0771
1042.00,0.0800
1041.00,0.0845
1040.00,0.0907
1039.00,0.0990
1038.00,0.1096
1037.00,0.1222
1036.00,0.1360
1035.00,0.1497
1034.00,0.1619
1033.00,0.1715
1032.00,0.1782
1031.00,0.1818
1030.00,0.1825
1029.00,0.1806
1028.00,0.1762
1027.00,0.1697
1026.00,0.1615
1025.00,0.1523
1024.00,0.1429
1023.00,0.1340
1022.00,0.1262
1021.00,0.1199
1020.00,0.1146
1019.00,0.1099
1018.00,0.1052
1017.00,0.1002
1016.00,0.0950
1015.00,0.0899
1014.00,0.0852
1013.00,0.0811
1012.00,0.0777
1011.00,0.0750
1010.00,0.0728
1009.00,0.0708
1008.00,0.0688
1007.00,0.0666
1006.00,0.0642
1005.00,0.0621
1004.00,0.0608
1003.00,0.0610
1002.00,0.0628
1001.00,0.0659
1000.00,0.0694
999.00,0.0716
998.00,0.0715
997.00,0.0687
996.00,0.0644
995.00,0.0599
994.00,0.0562
993.00,0.0536
992.00,0.0522
991.00,0.0518
990.00,0.0519
989.00,0.0525
988.00,0.0533
987.00,0.0539
986.00,0.0543
985.00,0.0540
984.00,0.0529
983.00,0.0511
982.00,0.0489
981.00,0.0466
980.00,0.0445
979.00,0.0428
978.00,0.0415
977.00,0.0405
976.00,0.0398
975.00,0.0394
974.00,0.0394
973.00,0.0396
972.00,0.0401
971.00,0.0408
970.00,0.0415
969.00,0.0423
968.00,0.0432
967.00,0.0444
966.00,0.0462
965.00,0.0486
964.00,0.0517
963.00,0.0552
962.00,0.0585
961.00,0.0610
960.00,0.0621
959.00,0.0619
958.00,0.0604
957.00,0.0581
956.00,0.0553
955.00,0.0524
954.00,0.0498
953.00,0.0477
952.00,0.0460
951.00,0.0447
950.00,0.0438
949.00,0.0431
948.00,0.0427
947.00,0.0424
946.00,0.0422
945.00,0.0421
944.00,0.0419
943.00,0.0417
942.00,0.0412
941.00,0.0406
940.00,0.0397
939.00,0.0387
938.00,0.0378
937.00,0.0371
936.00,0.0367
935.00,0.0367
934.00,0.0370
933.00,0.0377
932.00,0.0388
931.00,0.0401
930.00,0.0417
929.00,0.0433
928.00,0.0447
927.00,0.0460
926.00,0.0469
925.00,0.0476
924.00,0.0481
923.00,0.0489
922.00,0.0502
921.00,0.0519
920.00,0.0541
919.00,0.0567
918.00,0.0594
917.00,0.0622
916.00,0.0652
915.00,0.0679
914.00,0.0695
913.00,0.0696
912.00,0.0679
911.00,0.0654
910.00,0.0630
909.00,0.0615
908.00,0.0616
907.00,0.0634
906.00,0.0668
905.00,0.0718
904.00,0.0775
903.00,0.0830
902.00,0.0869
901.00,0.0886
900.00,0.0884
899.00,0.0873
898.00,0.0865
897.00,0.0875
896.00,0.0917
895.00,0.1004
894.00,0.1146
893.00,0.1337
892.00,0.1552
891.00,0.1742
890.00,0.1860
889.00,0.1885
888.00,0.1839
887.00,0.1765
886.00,0.1694
885.00,0.1626
884.00,0.1545
883.00,0.1441
882.00,0.1319
881.00,0.1199
880.00,0.1095
879.00,0.1013
878.00,0.0951
877.00,0.0904
876.00,0.0869
875.00,0.0843
874.00,0.0826
873.00,0.0817
872.00,0.0817
871.00,0.0825
870.00,0.0840
869.00,0.0864
868.00,0.0898
867.00,0.0947
866.00,0.1014
865.00,0.1100
864.00,0.1200
863.00,0.1300
862.00,0.1381
861.00,0.1429
860.00,0.1443
859.00,0.1434
858.00,0.1419
857.00,0.1405
856.00,0.1389
855.00,0.1366
854.00,0.1331
853.00,0.1290
852.00,0.1249
851.00,0.1216
850.00,0.1194
849.00,0.1183
848.00,0.1180
847.00,0.1184
846.00,0.1191
845.00,0.1198
844.00,0.1201
843.00,0.1201
842.00,0.1200
841.00,0.1205
840.00,0.1218
839.00,0.1239
838.00,0.1255
837.00,0.1258
836.00,0.1240
835.00,0.1207
834.00,0.1167
833.00,0.1131
832.00,0.1106
831.00,0.1094
830.00,0.1091
829.00,0.1087
828.00,0.1072
827.00,0.1040
826.00,0.0993
825.00,0.0935
824.00,0.0877
823.00,0.0824
822.00,0.0780
821.00,0.0742
820.00,0.0710
819.00,0.0682
818.00,0.0658
817.00,0.0639
816.00,0.0625
815.00,0.0616
814.00,0.0614
813.00,0.0616
812.00,0.0622
811.00,0.0630
810.00,0.0642
809.00,0.0663
808.00,0.0700
807.00,0.0758
806.00,0.0836
805.00,0.0916
804.00,0.0977
803.00,0.1000
802.00,0.0986
801.00,0.0952
800.00,0.0920
799.00,0.0906
798.00,0.0914
797.00,0.0941
796.00,0.0974
795.00,0.1000
794.00,0.1006
793.00,0.0987
792.00,0.0944
791.00,0.0889
790.00,0.0833
789.00,0.0784
788.00,0.0746
787.00,0.0718
786.00,0.0698
785.00,0.0682
784.00,0.0667
783.00,0.0652
782.00,0.0639
781.00,0.0628
780.00,0.0621
779.00,0.0619
778.00,0.0620
777.00,0.0626
776.00,0.0635
775.00,0.0646
774.00,0.0659
773.00,0.0671
772.00,0.0681
771.00,0.0686
770.00,0.0686
769.00,0.0680
768.00,0.0669
767.00,0.0655
766.00,0.0640
765.00,0.0624
764.00,0.0609
763.00,0.0595
762.00,0.0584
761.00,0.0576
760.00,0.0571
759.00,0.0569
758.00,0.0570
757.00,0.0574
756.00,0.0580
755.00,0.0587
754.00,0.0592
753.00,0.0592
752.00,0.0585
751.00,0.0573
750.00,0.0559
749.00,0.0545
748.00,0.0533
747.00,0.0521
746.00,0.0511
745.00,0.0503
744.00,0.0500
743.00,0.0501
742.00,0.0507
741.00,0.0519
740.00,0.0537
739.00,0.0563
738.00,0.0596
737.00,0.0635
736.00,0.0677
735.00,0.0718
734.00,0.0748
733.00,0.0761
732.00,0.0752
731.00,0.0725
730.00,0.0688
729.00,0.0651
728.00,0.0618
727.00,0.0593
726.00,0.0575
725.00,0.0561
724.00,0.0550
723.00,0.0540
722.00,0.0531
721.00,0.0523
720.00,0.0516
719.00,0.0512
718.00,0.0509
717.00,0.0508
716.00,0.0508
715.00,0.0509
714.00,0.0512
713.00,0.0514
712.00,0.0515
711.00,0.0515
710.00,0.0513
709.00,0.0510
708.00,0.0508
707.00,0.0507
706.00,0.0507
705.00,0.0507
704.00,0.0507
703.00,0.0508
702.00,0.0510
701.00,0.0512
700.00,0.0515
699.00,0.0518
698.00,0.0522
697.00,0.0526
696.00,0.0531
695.00,0.0537
694.00,0.0543
693.00,0.0550
692.00,0.0558
691.00,0.0567
690.00,0.0578
689.00,0.0590
688.00,0.0604
687.00,0.0619
686.00,0.0636
685.00,0.0654
684.00,0.0672
683.00,0.0690
682.00,0.0708
681.00,0.0725
680.00,0.0739
679.00,0.0750
678.00,0.0758
677.00,0.0762
676.00,0.0763
675.00,0.0761
674.00,0.0758
673.00,0.0757
672.00,0.0759
671.00,0.0762
670.00,0.0766
669.00,0.0767
668.00,0.0758
667.00,0.0736
666.00,0.0709
665.00,0.0683
664.00,0.0657
663.00,0.0634
662.00,0.0616
661.00,0.0605
660.00,0.0598
659.00,0.0594
658.00,0.0592
657.00,0.0590
656.00,0.0587
655.00,0.0587
654.00,0.0590
653.00,0.0596
652.00,0.0605
651.00,0.0615
650.00,0.0625
649.00,0.0633
648.00,0.0635
647.00,0.0632
646.00,0.0627
645.00,0.0621
644.00,0.0616
643.00,0.0614
642.00,0.0614
641.00,0.0616
640.00,0.0619
639.00,0.0623
638.00,0.0627
637.00,0.0632
636.00,0.0635
635.00,0.0638
634.00,0.0641
633.00,0.0641
632.00,0.0640
631.00,0.0637
630.00,0.0633
629.00,0.0629
628.00,0.0623
627.00,0.0616
626.00,0.0608
625.00,0.0600
624.00,0.0592
623.00,0.0584
622.00,0.0579
621.00,0.0575
620.00,0.0575
619.00,0.0580
618.00,0.0591
617.00,0.0608
616.00,0.0626
615.00,0.0642
614.00,0.0651
613.00,0.0651
612.00,0.0644
611.00,0.0633
610.00,0.0624
609.00,0.0618
608.00,0.0616
607.00,0.0615
606.00,0.0615
605.00,0.0614
604.00,0.0613
603.00,0.0614
602.00,0.0615
601.00,0.0616
600.00,0.0618
599.00,0.0621
598.00,0.0626
597.00,0.0632
596.00,0.0637
595.00,0.0642
594.00,0.0642
593.00,0.0639
592.00,0.0633
591.00,0.0626
590.00,0.0619
589.00,0.0612
588.00,0.0606
587.00,0.0603
586.00,0.0605
585.00,0.0615
584.00,0.0637
583.00,0.0676
582.00,0.0738
581.00,0.0825
580.00,0.0926
579.00,0.1015
578.00,0.1060
577.00,0.1041
576.00,0.0967
575.00,0.0866
574.00,0.0769
573.00,0.0690
572.00,0.0630
571.00,0.0587
570.00,0.0558
569.00,0.0538
568.00,0.0525
567.00,0.0516
566.00,0.0511
565.00,0.0510
564.00,0.0513
563.00,0.0521
562.00,0.0533
561.00,0.0549
560.00,0.0568
559.00,0.0594
558.00,0.0630
557.00,0.0680
556.00,0.0749
555.00,0.0842
554.00,0.0952
553.00,0.1061
552.00,0.1140
551.00,0.1164
550.00,0.1126
549.00,0.1046
548.00,0.0956
547.00,0.0880
546.00,0.0829
545.00,0.0801
544.00,0.0790
543.00,0.0788
542.00,0.0791
541.00,0.0799
540.00,0.0815
539.00,0.0844
538.00,0.0889
537.00,0.0949
536.00,0.1016
535.00,0.1071
534.00,0.1094
533.00,0.1075
532.00,0.1024
531.00,0.0964
530.00,0.0922
529.00,0.0914
528.00,0.0944
527.00,0.0994
526.00,0.1036
525.00,0.1049
524.00,0.1036
523.00,0.1012
522.00,0.0982
521.00,0.0940
520.00,0.0879
519.00,0.0808
518.00,0.0744
517.00,0.0696
516.00,0.0664
515.00,0.0643
514.00,0.0630
513.00,0.0624
512.00,0.0621
511.00,0.0623
510.00,0.0627
509.00,0.0636
508.00,0.0647
507.00,0.0660
506.00,0.0675
505.00,0.0692
504.00,0.0712
503.00,0.0737
502.00,0.0769
501.00,0.0804
500.00,0.0842
499.00,0.0882
498.00,0.0927
497.00,0.0974
496.00,0.1023
495.00,0.1073
494.00,0.1125
493.00,0.1180
492.00,0.1236
491.00,0.1291
490.00,0.1345
489.00,0.1392
488.00,0.1434
487.00,0.1468
486.00,0.1498
485.00,0.1526
484.00,0.1554
483.00,0.1581
482.00,0.1607
481.00,0.1633
480.00,0.1660
479.00,0.1685
478.00,0.1708
477.00,0.1727
476.00,0.1741
475.00,0.1748
474.00,0.1748
473.00,0.1739
472.00,0.1727
471.00,0.1716
470.00,0.1709
469.00,0.1705
468.00,0.1701
467.00,0.1698
466.00,0.1693
465.00,0.1683
464.00,0.1662
463.00,0.1627
462.00,0.1578
461.00,0.1522
460.00,0.1466
459.00,0.1415
458.00,0.1372
457.00,0.1340
456.00,0.1318
455.00,0.1301
454.00,0.1286
453.00,0.1269
452.00,0.1253
451.00,0.1238
450.00,0.1224
449.00,0.1211
448.00,0.1196
447.00,0.1181
446.00,0.1166
445.00,0.1151
444.00,0.1136
443.00,0.1123
442.00,0.1113
441.00,0.1106
440.00,0.1101
439.00,0.1099
438.00,0.1102
437.00,0.1111
436.00,0.1120
435.00,0.1123
434.00,0.1116
433.00,0.1099
432.00,0.1074
431.00,0.1046
430.00,0.1019
429.00,0.0995
428.00,0.0974
427.00,0.0956
426.00,0.0941
425.00,0.0928
424.00,0.0917
423.00,0.0906
422.00,0.0895
421.00,0.0883
420.00,0.0869
419.00,0.0857
418.00,0.0847
417.00,0.0837
416.00,0.0827
415.00,0.0819
414.00,0.0811
413.00,0.0802
412.00,0.0792
411.00,0.0784
410.00,0.0778
409.00,0.0771
408.00,0.0761
407.00,0.0756
406.00,0.0759
405.00,0.0768
404.00,0.0778
403.00,0.0783
402.00,0.0784
401.00,0.0782
400.00,0.0781
