Created as New Dataset,Sample 915 By YargerLab Date Thursday, July 24 2025
cm-1,A
4000.00,0.0042
3999.00,0.0042
3998.00,0.0042
3997.00,0.0042
3996.00,0.0042
3995.00,0.0042
3994.00,0.0042
3993.00,0.0042
3992.00,0.0042
3991.00,0.0042
3990.00,0.0042
3989.00,0.0042
3988.00,0.0042
3987.00,0.0042
3986.00,0.0042
3985.00,0.0042
3984.00,0.0042
3983.00,0.0042
3982.00,0.0042
3981.00,0.0042
3980.00,0.0042
3979.00,0.0042
3978.00,0.0042
3977.00,0.0042
3976.00,0.0042
3975.00,0.0042
3974.00,0.0042
3973.00,0.0042
3972.00,0.0042
3971.00,0.0042
3970.00,0.0042
3969.00,0.0042
3968.00,0.0042
3967.00,0.0042
3966.00,0.0042
3965.00,0.0042
3964.00,0.0042
3963.00,0.0042
3962.00,0.0042
3961.00,0.0042
3960.00,0.0042
3959.00,0.0042
3958.00,0.0042
3957.00,0.0042
3956.00,0.0042
3955.00,0.0042
3954.00,0.0042
3953.00,0.0042
3952.00,0.0042
3951.00,0.0042
3950.00,0.0042
3949.00,0.0042
3948.00,0.0042
3947.00,0.0042
3946.00,0.0042
3945.00,0.0042
3944.00,0.0042
3943.00,0.0042
3942.00,0.0042
3941.00,0.0042
3940.00,0.0042
3939.00,0.0042
3938.00,0.0042
3937.00,0.0042
3936.00,0.0042
3935.00,0.0042
3934.00,0.0041
3933.00,0.0041
3932.00,0.0041
3931.00,0.0041
3930.00,0.0042
3929.00,0.0042
3928.00,0.0042
3927.00,0.0042
3926.00,0.0042
3925.00,0.0042
3924.00,0.0042
3923.00,0.0042
3922.00,0.0041
3921.00,0.0041
3920.00,0.0041
3919.00,0.0041
3918.00,0.0041
3917.00,0.0041
3916.00,0.0041
3915.00,0.0041
3914.00,0.0041
3913.00,0.0041
3912.00,0.0041
3911.00,0.0041
3910.00,0.0041
3909.00,0.0041
3908.00,0.0041
3907.00,0.0041
3906.00,0.0041
3905.00,0.0041
3904.00,0.0040
3903.00,0.0040
3902.00,0.0039
3901.00,0.0039
3900.00,0.0039
3899.00,0.0040
3898.00,0.0040
3897.00,0.0041
3896.00,0.0041
3895.00,0.0041
3894.00,0.0041
3893.00,0.0041
3892.00,0.0041
3891.00,0.0041
3890.00,0.0041
3889.00,0.0040
3888.00,0.0040
3887.00,0.0040
3886.00,0.0040
3885.00,0.0040
3884.00,0.0040
3883.00,0.0040
3882.00,0.0040
3881.00,0.0040
3880.00,0.0040
3879.00,0.0040
3878.00,0.0040
3877.00,0.0040
3876.00,0.0040
3875.00,0.0040
3874.00,0.0040
3873.00,0.0041
3872.00,0.0040
3871.00,0.0040
3870.00,0.0040
3869.00,0.0040
3868.00,0.0039
3867.00,0.0039
3866.00,0.0039
3865.00,0.0039
3864.00,0.0039
3863.00,0.0040
3862.00,0.0040
3861.00,0.0040
3860.00,0.0039
3859.00,0.0040
3858.00,0.0040
3857.00,0.0040
3856.00,0.0041
3855.00,0.0041
3854.00,0.0040
3853.00,0.0040
3852.00,0.0040
3851.00,0.0039
3850.00,0.0039
3849.00,0.0039
3848.00,0.0039
3847.00,0.0039
3846.00,0.0039
3845.00,0.0039
3844.00,0.0039
3843.00,0.0039
3842.00,0.0039
3841.00,0.0039
3840.00,0.0039
3839.00,0.0039
3838.00,0.0039
3837.00,0.0039
3836.00,0.0039
3835.00,0.0039
3834.00,0.0040
3833.00,0.0040
3832.00,0.0040
3831.00,0.0040
3830.00,0.0040
3829.00,0.0040
3828.00,0.0040
3827.00,0.0039
3826.00,0.0039
3825.00,0.0039
3824.00,0.0039
3823.00,0.0039
3822.00,0.0039
3821.00,0.0039
3820.00,0.0039
3819.00,0.0039
3818.00,0.0039
3817.00,0.0039
3816.00,0.0039
3815.00,0.0039
3814.00,0.0040
3813.00,0.0040
3812.00,0.0040
3811.00,0.0040
3810.00,0.0040
3809.00,0.0040
3808.00,0.0040
3807.00,0.0039
3806.00,0.0039
3805.00,0.0039
3804.00,0.0039
3803.00,0.0039
3802.00,0.0039
3801.00,0.0039
3800.00,0.0039
3799.00,0.0039
3798.00,0.0039
3797.00,0.0039
3796.00,0.0039
3795.00,0.0040
3794.00,0.0040
3793.00,0.0040
3792.00,0.0041
3791.00,0.0041
3790.00,0.0041
3789.00,0.0041
3788.00,0.0041
3787.00,0.0041
3786.00,0.0041
3785.00,0.0040
3784.00,0.0040
3783.00,0.0040
3782.00,0.0040
3781.00,0.0040
3780.00,0.0040
3779.00,0.0040
3778.00,0.0040
3777.00,0.0040
3776.00,0.0040
3775.00,0.0040
3774.00,0.0040
3773.00,0.0040
3772.00,0.0040
3771.00,0.0040
3770.00,0.0040
3769.00,0.0040
3768.00,0.0040
3767.00,0.0040
3766.00,0.0040
3765.00,0.0040
3764.00,0.0040
3763.00,0.0040
3762.00,0.0039
3761.00,0.0039
3760.00,0.0039
3759.00,0.0039
3758.00,0.0039
3757.00,0.0039
3756.00,0.0039
3755.00,0.0039
3754.00,0.0039
3753.00,0.0038
3752.00,0.0038
3751.00,0.0038
3750.00,0.0037
3749.00,0.0037
3748.00,0.0037
3747.00,0.0037
3746.00,0.0037
3745.00,0.0037
3744.00,0.0037
3743.00,0.0037
3742.00,0.0037
3741.00,0.0037
3740.00,0.0037
3739.00,0.0037
3738.00,0.0036
3737.00,0.0036
3736.00,0.0036
3735.00,0.0036
3734.00,0.0036
3733.00,0.0036
3732.00,0.0036
3731.00,0.0037
3730.00,0.0037
3729.00,0.0038
3728.00,0.0038
3727.00,0.0038
3726.00,0.0038
3725.00,0.0039
3724.00,0.0039
3723.00,0.0039
3722.00,0.0039
3721.00,0.0039
3720.00,0.0039
3719.00,0.0039
3718.00,0.0039
3717.00,0.0039
3716.00,0.0039
3715.00,0.0039
3714.00,0.0039
3713.00,0.0038
3712.00,0.0038
3711.00,0.0037
3710.00,0.0037
3709.00,0.0037
3708.00,0.0037
3707.00,0.0037
3706.00,0.0038
3705.00,0.0038
3704.00,0.0038
3703.00,0.0039
3702.00,0.0039
3701.00,0.0039
3700.00,0.0039
3699.00,0.0039
3698.00,0.0039
3697.00,0.0039
3696.00,0.0039
3695.00,0.0039
3694.00,0.0039
3693.00,0.0038
3692.00,0.0038
3691.00,0.0038
3690.00,0.0038
3689.00,0.0038
3688.00,0.0038
3687.00,0.0038
3686.00,0.0038
3685.00,0.0038
3684.00,0.0038
3683.00,0.0039
3682.00,0.0039
3681.00,0.0039
3680.00,0.0038
3679.00,0.0038
3678.00,0.0038
3677.00,0.0037
3676.00,0.0037
3675.00,0.0038
3674.00,0.0038
3673.00,0.0038
3672.00,0.0038
3671.00,0.0038
3670.00,0.0039
3669.00,0.0039
3668.00,0.0040
3667.00,0.0040
3666.00,0.0040
3665.00,0.0041
3664.00,0.0042
3663.00,0.0042
3662.00,0.0042
3661.00,0.0043
3660.00,0.0043
3659.00,0.0043
3658.00,0.0043
3657.00,0.0043
3656.00,0.0043
3655.00,0.0043
3654.00,0.0042
3653.00,0.0042
3652.00,0.0041
3651.00,0.0041
3650.00,0.0041
3649.00,0.0042
3648.00,0.0042
3647.00,0.0042
3646.00,0.0043
3645.00,0.0044
3644.00,0.0045
3643.00,0.0046
3642.00,0.0047
3641.00,0.0047
3640.00,0.0048
3639.00,0.0048
3638.00,0.0048
3637.00,0.0048
3636.00,0.0048
3635.00,0.0048
3634.00,0.0049
3633.00,0.0049
3632.00,0.0049
3631.00,0.0049
3630.00,0.0049
3629.00,0.0049
3628.00,0.0050
3627.00,0.0050
3626.00,0.0050
3625.00,0.0051
3624.00,0.0051
3623.00,0.0052
3622.00,0.0053
3621.00,0.0053
3620.00,0.0054
3619.00,0.0054
3618.00,0.0055
3617.00,0.0055
3616.00,0.0055
3615.00,0.0055
3614.00,0.0056
3613.00,0.0056
3612.00,0.0056
3611.00,0.0056
3610.00,0.0057
3609.00,0.0057
3608.00,0.0058
3607.00,0.0059
3606.00,0.0059
3605.00,0.0060
3604.00,0.0060
3603.00,0.0061
3602.00,0.0061
3601.00,0.0062
3600.00,0.0062
3599.00,0.0063
3598.00,0.0064
3597.00,0.0064
3596.00,0.0065
3595.00,0.0065
3594.00,0.0066
3593.00,0.0066
3592.00,0.0066
3591.00,0.0067
3590.00,0.0067
3589.00,0.0067
3588.00,0.0068
3587.00,0.0068
3586.00,0.0069
3585.00,0.0069
3584.00,0.0070
3583.00,0.0071
3582.00,0.0071
3581.00,0.0072
3580.00,0.0073
3579.00,0.0073
3578.00,0.0074
3577.00,0.0074
3576.00,0.0075
3575.00,0.0075
3574.00,0.0076
3573.00,0.0076
3572.00,0.0077
3571.00,0.0077
3570.00,0.0077
3569.00,0.0077
3568.00,0.0078
3567.00,0.0078
3566.00,0.0079
3565.00,0.0080
3564.00,0.0080
3563.00,0.0081
3562.00,0.0082
3561.00,0.0083
3560.00,0.0083
3559.00,0.0084
3558.00,0.0084
3557.00,0.0085
3556.00,0.0086
3555.00,0.0086
3554.00,0.0087
3553.00,0.0087
3552.00,0.0088
3551.00,0.0088
3550.00,0.0089
3549.00,0.0089
3548.00,0.0090
3547.00,0.0090
3546.00,0.0091
3545.00,0.0092
3544.00,0.0092
3543.00,0.0093
3542.00,0.0094
3541.00,0.0094
3540.00,0.0095
3539.00,0.0096
3538.00,0.0096
3537.00,0.0097
3536.00,0.0097
3535.00,0.0098
3534.00,0.0099
3533.00,0.0099
3532.00,0.0100
3531.00,0.0100
3530.00,0.0101
3529.00,0.0101
3528.00,0.0101
3527.00,0.0102
3526.00,0.0103
3525.00,0.0104
3524.00,0.0105
3523.00,0.0106
3522.00,0.0106
3521.00,0.0107
3520.00,0.0108
3519.00,0.0109
3518.00,0.0109
3517.00,0.0110
3516.00,0.0111
3515.00,0.0111
3514.00,0.0111
3513.00,0.0112
3512.00,0.0112
3511.00,0.0113
3510.00,0.0114
3509.00,0.0115
3508.00,0.0116
3507.00,0.0116
3506.00,0.0117
3505.00,0.0118
3504.00,0.0119
3503.00,0.0120
3502.00,0.0120
3501.00,0.0121
3500.00,0.0122
3499.00,0.0122
3498.00,0.0123
3497.00,0.0124
3496.00,0.0125
3495.00,0.0126
3494.00,0.0127
3493.00,0.0128
3492.00,0.0128
3491.00,0.0129
3490.00,0.0129
3489.00,0.0130
3488.00,0.0131
3487.00,0.0132
3486.00,0.0133
3485.00,0.0134
3484.00,0.0134
3483.00,0.0135
3482.00,0.0136
3481.00,0.0137
3480.00,0.0138
3479.00,0.0138
3478.00,0.0139
3477.00,0.0139
3476.00,0.0140
3475.00,0.0140
3474.00,0.0141
3473.00,0.0142
3472.00,0.0143
3471.00,0.0144
3470.00,0.0145
3469.00,0.0145
3468.00,0.0146
3467.00,0.0147
3466.00,0.0147
3465.00,0.0148
3464.00,0.0148
3463.00,0.0149
3462.00,0.0150
3461.00,0.0151
3460.00,0.0152
3459.00,0.0152
3458.00,0.0153
3457.00,0.0154
3456.00,0.0154
3455.00,0.0155
3454.00,0.0156
3453.00,0.0156
3452.00,0.0157
3451.00,0.0158
3450.00,0.0158
3449.00,0.0159
3448.00,0.0160
3447.00,0.0160
3446.00,0.0161
3445.00,0.0161
3444.00,0.0162
3443.00,0.0163
3442.00,0.0163
3441.00,0.0164
3440.00,0.0165
3439.00,0.0166
3438.00,0.0167
3437.00,0.0167
3436.00,0.0168
3435.00,0.0169
3434.00,0.0169
3433.00,0.0170
3432.00,0.0171
3431.00,0.0171
3430.00,0.0172
3429.00,0.0172
3428.00,0.0173
3427.00,0.0174
3426.00,0.0175
3425.00,0.0176
3424.00,0.0176
3423.00,0.0177
3422.00,0.0178
3421.00,0.0178
3420.00,0.0179
3419.00,0.0180
3418.00,0.0181
3417.00,0.0181
3416.00,0.0182
3415.00,0.0182
3414.00,0.0183
3413.00,0.0184
3412.00,0.0184
3411.00,0.0185
3410.00,0.0186
3409.00,0.0187
3408.00,0.0188
3407.00,0.0188
3406.00,0.0189
3405.00,0.0190
3404.00,0.0191
3403.00,0.0191
3402.00,0.0192
3401.00,0.0193
3400.00,0.0194
3399.00,0.0194
3398.00,0.0195
3397.00,0.0196
3396.00,0.0196
3395.00,0.0197
3394.00,0.0198
3393.00,0.0199
3392.00,0.0200
3391.00,0.0200
3390.00,0.0201
3389.00,0.0202
3388.00,0.0203
3387.00,0.0204
3386.00,0.0205
3385.00,0.0206
3384.00,0.0207
3383.00,0.0208
3382.00,0.0208
3381.00,0.0209
3380.00,0.0211
3379.00,0.0212
3378.00,0.0213
3377.00,0.0214
3376.00,0.0214
3375.00,0.0215
3374.00,0.0216
3373.00,0.0217
3372.00,0.0218
3371.00,0.0219
3370.00,0.0220
3369.00,0.0221
3368.00,0.0221
3367.00,0.0222
3366.00,0.0223
3365.00,0.0225
3364.00,0.0226
3363.00,0.0227
3362.00,0.0228
3361.00,0.0229
3360.00,0.0230
3359.00,0.0232
3358.00,0.0233
3357.00,0.0234
3356.00,0.0235
3355.00,0.0236
3354.00,0.0237
3353.00,0.0238
3352.00,0.0239
3351.00,0.0240
3350.00,0.0241
3349.00,0.0243
3348.00,0.0244
3347.00,0.0246
3346.00,0.0247
3345.00,0.0248
3344.00,0.0248
3343.00,0.0249
3342.00,0.0250
3341.00,0.0251
3340.00,0.0252
3339.00,0.0252
3338.00,0.0253
3337.00,0.0255
3336.00,0.0256
3335.00,0.0258
3334.00,0.0259
3333.00,0.0261
3332.00,0.0262
3331.00,0.0263
3330.00,0.0264
3329.00,0.0265
3328.00,0.0266
3327.00,0.0267
3326.00,0.0268
3325.00,0.0269
3324.00,0.0270
3323.00,0.0272
3322.00,0.0273
3321.00,0.0274
3320.00,0.0275
3319.00,0.0276
3318.00,0.0278
3317.00,0.0279
3316.00,0.0280
3315.00,0.0281
3314.00,0.0282
3313.00,0.0283
3312.00,0.0284
3311.00,0.0285
3310.00,0.0286
3309.00,0.0288
3308.00,0.0289
3307.00,0.0290
3306.00,0.0291
3305.00,0.0292
3304.00,0.0294
3303.00,0.0296
3302.00,0.0297
3301.00,0.0299
3300.00,0.0300
3299.00,0.0301
3298.00,0.0302
3297.00,0.0303
3296.00,0.0304
3295.00,0.0305
3294.00,0.0306
3293.00,0.0307
3292.00,0.0309
3291.00,0.0310
3290.00,0.0311
3289.00,0.0312
3288.00,0.0313
3287.00,0.0314
3286.00,0.0314
3285.00,0.0315
3284.00,0.0316
3283.00,0.0317
3282.00,0.0317
3281.00,0.0318
3280.00,0.0318
3279.00,0.0318
3278.00,0.0318
3277.00,0.0318
3276.00,0.0318
3275.00,0.0317
3274.00,0.0317
3273.00,0.0317
3272.00,0.0316
3271.00,0.0316
3270.00,0.0316
3269.00,0.0315
3268.00,0.0315
3267.00,0.0315
3266.00,0.0314
3265.00,0.0313
3264.00,0.0312
3263.00,0.0311
3262.00,0.0310
3261.00,0.0309
3260.00,0.0308
3259.00,0.0307
3258.00,0.0305
3257.00,0.0304
3256.00,0.0302
3255.00,0.0301
3254.00,0.0301
3253.00,0.0300
3252.00,0.0299
3251.00,0.0297
3250.00,0.0296
3249.00,0.0294
3248.00,0.0293
3247.00,0.0291
3246.00,0.0290
3245.00,0.0289
3244.00,0.0288
3243.00,0.0287
3242.00,0.0286
3241.00,0.0286
3240.00,0.0285
3239.00,0.0284
3238.00,0.0283
3237.00,0.0282
3236.00,0.0280
3235.00,0.0279
3234.00,0.0278
3233.00,0.0277
3232.00,0.0276
3231.00,0.0276
3230.00,0.0276
3229.00,0.0275
3228.00,0.0274
3227.00,0.0274
3226.00,0.0273
3225.00,0.0272
3224.00,0.0271
3223.00,0.0271
3222.00,0.0270
3221.00,0.0269
3220.00,0.0269
3219.00,0.0268
3218.00,0.0268
3217.00,0.0267
3216.00,0.0266
3215.00,0.0266
3214.00,0.0265
3213.00,0.0265
3212.00,0.0264
3211.00,0.0264
3210.00,0.0263
3209.00,0.0262
3208.00,0.0262
3207.00,0.0261
3206.00,0.0260
3205.00,0.0259
3204.00,0.0259
3203.00,0.0258
3202.00,0.0258
3201.00,0.0257
3200.00,0.0257
3199.00,0.0256
3198.00,0.0256
3197.00,0.0255
3196.00,0.0254
3195.00,0.0253
3194.00,0.0252
3193.00,0.0251
3192.00,0.0250
3191.00,0.0250
3190.00,0.0249
3189.00,0.0248
3188.00,0.0247
3187.00,0.0247
3186.00,0.0246
3185.00,0.0245
3184.00,0.0244
3183.00,0.0244
3182.00,0.0243
3181.00,0.0242
3180.00,0.0241
3179.00,0.0240
3178.00,0.0239
3177.00,0.0238
3176.00,0.0237
3175.00,0.0236
3174.00,0.0235
3173.00,0.0234
3172.00,0.0234
3171.00,0.0233
3170.00,0.0232
3169.00,0.0232
3168.00,0.0231
3167.00,0.0230
3166.00,0.0229
3165.00,0.0228
3164.00,0.0227
3163.00,0.0226
3162.00,0.0225
3161.00,0.0224
3160.00,0.0223
3159.00,0.0222
3158.00,0.0221
3157.00,0.0220
3156.00,0.0219
3155.00,0.0218
3154.00,0.0218
3153.00,0.0217
3152.00,0.0216
3151.00,0.0216
3150.00,0.0215
3149.00,0.0214
3148.00,0.0214
3147.00,0.0213
3146.00,0.0212
3145.00,0.0212
3144.00,0.0211
3143.00,0.0210
3142.00,0.0209
3141.00,0.0208
3140.00,0.0207
3139.00,0.0207
3138.00,0.0206
3137.00,0.0206
3136.00,0.0206
3135.00,0.0205
3134.00,0.0205
3133.00,0.0204
3132.00,0.0204
3131.00,0.0203
3130.00,0.0203
3129.00,0.0202
3128.00,0.0202
3127.00,0.0201
3126.00,0.0201
3125.00,0.0200
3124.00,0.0199
3123.00,0.0199
3122.00,0.0198
3121.00,0.0197
3120.00,0.0197
3119.00,0.0197
3118.00,0.0197
3117.00,0.0196
3116.00,0.0196
3115.00,0.0196
3114.00,0.0196
3113.00,0.0197
3112.00,0.0197
3111.00,0.0196
3110.00,0.0196
3109.00,0.0196
3108.00,0.0196
3107.00,0.0196
3106.00,0.0196
3105.00,0.0196
3104.00,0.0196
3103.00,0.0196
3102.00,0.0196
3101.00,0.0196
3100.00,0.0196
3099.00,0.0196
3098.00,0.0196
3097.00,0.0197
3096.00,0.0197
3095.00,0.0197
3094.00,0.0197
3093.00,0.0197
3092.00,0.0197
3091.00,0.0196
3090.00,0.0196
3089.00,0.0196
3088.00,0.0197
3087.00,0.0197
3086.00,0.0197
3085.00,0.0197
3084.00,0.0196
3083.00,0.0196
3082.00,0.0196
3081.00,0.0196
3080.00,0.0196
3079.00,0.0196
3078.00,0.0196
3077.00,0.0196
3076.00,0.0197
3075.00,0.0197
3074.00,0.0197
3073.00,0.0197
3072.00,0.0196
3071.00,0.0196
3070.00,0.0196
3069.00,0.0195
3068.00,0.0195
3067.00,0.0195
3066.00,0.0195
3065.00,0.0195
3064.00,0.0195
3063.00,0.0195
3062.00,0.0195
3061.00,0.0194
3060.00,0.0194
3059.00,0.0194
3058.00,0.0193
3057.00,0.0192
3056.00,0.0191
3055.00,0.0190
3054.00,0.0189
3053.00,0.0189
3052.00,0.0188
3051.00,0.0188
3050.00,0.0187
3049.00,0.0187
3048.00,0.0186
3047.00,0.0185
3046.00,0.0184
3045.00,0.0183
3044.00,0.0183
3043.00,0.0182
3042.00,0.0181
3041.00,0.0181
3040.00,0.0181
3039.00,0.0181
3038.00,0.0180
3037.00,0.0180
3036.00,0.0179
3035.00,0.0178
3034.00,0.0177
3033.00,0.0176
3032.00,0.0175
3031.00,0.0175
3030.00,0.0175
3029.00,0.0174
3028.00,0.0174
3027.00,0.0173
3026.00,0.0172
3025.00,0.0172
3024.00,0.0171
3023.00,0.0171
3022.00,0.0170
3021.00,0.0169
3020.00,0.0168
3019.00,0.0167
3018.00,0.0166
3017.00,0.0166
3016.00,0.0165
3015.00,0.0164
3014.00,0.0163
3013.00,0.0163
3012.00,0.0162
3011.00,0.0162
3010.00,0.0161
3009.00,0.0161
3008.00,0.0161
3007.00,0.0161
3006.00,0.0160
3005.00,0.0160
3004.00,0.0160
3003.00,0.0159
3002.00,0.0159
3001.00,0.0158
3000.00,0.0158
2999.00,0.0158
2998.00,0.0158
2997.00,0.0157
2996.00,0.0158
2995.00,0.0158
2994.00,0.0158
2993.00,0.0158
2992.00,0.0159
2991.00,0.0160
2990.00,0.0160
2989.00,0.0161
2988.00,0.0162
2987.00,0.0163
2986.00,0.0164
2985.00,0.0164
2984.00,0.0165
2983.00,0.0165
2982.00,0.0166
2981.00,0.0167
2980.00,0.0169
2979.00,0.0171
2978.00,0.0173
2977.00,0.0175
2976.00,0.0176
2975.00,0.0178
2974.00,0.0180
2973.00,0.0181
2972.00,0.0183
2971.00,0.0184
2970.00,0.0186
2969.00,0.0187
2968.00,0.0188
2967.00,0.0189
2966.00,0.0190
2965.00,0.0191
2964.00,0.0191
2963.00,0.0192
2962.00,0.0192
2961.00,0.0192
2960.00,0.0192
2959.00,0.0191
2958.00,0.0191
2957.00,0.0190
2956.00,0.0190
2955.00,0.0189
2954.00,0.0188
2953.00,0.0188
2952.00,0.0187
2951.00,0.0187
2950.00,0.0186
2949.00,0.0186
2948.00,0.0186
2947.00,0.0186
2946.00,0.0187
2945.00,0.0187
2944.00,0.0188
2943.00,0.0188
2942.00,0.0189
2941.00,0.0190
2940.00,0.0190
2939.00,0.0191
2938.00,0.0191
2937.00,0.0191
2936.00,0.0191
2935.00,0.0191
2934.00,0.0190
2933.00,0.0190
2932.00,0.0189
2931.00,0.0188
2930.00,0.0187
2929.00,0.0186
2928.00,0.0185
2927.00,0.0184
2926.00,0.0182
2925.00,0.0181
2924.00,0.0179
2923.00,0.0177
2922.00,0.0176
2921.00,0.0174
2920.00,0.0172
2919.00,0.0171
2918.00,0.0169
2917.00,0.0168
2916.00,0.0168
2915.00,0.0168
2914.00,0.0168
2913.00,0.0169
2912.00,0.0169
2911.00,0.0169
2910.00,0.0169
2909.00,0.0169
2908.00,0.0169
2907.00,0.0169
2906.00,0.0168
2905.00,0.0168
2904.00,0.0167
2903.00,0.0166
2902.00,0.0166
2901.00,0.0165
2900.00,0.0165
2899.00,0.0164
2898.00,0.0163
2897.00,0.0163
2896.00,0.0162
2895.00,0.0161
2894.00,0.0161
2893.00,0.0161
2892.00,0.0161
2891.00,0.0161
2890.00,0.0160
2889.00,0.0160
2888.00,0.0160
2887.00,0.0160
2886.00,0.0160
2885.00,0.0160
2884.00,0.0161
2883.00,0.0161
2882.00,0.0162
2881.00,0.0163
2880.00,0.0163
2879.00,0.0164
2878.00,0.0165
2877.00,0.0165
2876.00,0.0165
2875.00,0.0165
2874.00,0.0165
2873.00,0.0164
2872.00,0.0163
2871.00,0.0163
2870.00,0.0162
2869.00,0.0160
2868.00,0.0159
2867.00,0.0158
2866.00,0.0156
2865.00,0.0155
2864.00,0.0154
2863.00,0.0152
2862.00,0.0151
2861.00,0.0149
2860.00,0.0148
2859.00,0.0147
2858.00,0.0146
2857.00,0.0145
2856.00,0.0144
2855.00,0.0142
2854.00,0.0141
2853.00,0.0139
2852.00,0.0138
2851.00,0.0136
2850.00,0.0135
2849.00,0.0134
2848.00,0.0134
2847.00,0.0135
2846.00,0.0136
2845.00,0.0136
2844.00,0.0137
2843.00,0.0137
2842.00,0.0137
2841.00,0.0137
2840.00,0.0136
2839.00,0.0136
2838.00,0.0135
2837.00,0.0135
2836.00,0.0135
2835.00,0.0134
2834.00,0.0134
2833.00,0.0134
2832.00,0.0134
2831.00,0.0134
2830.00,0.0133
2829.00,0.0133
2828.00,0.0133
2827.00,0.0133
2826.00,0.0133
2825.00,0.0133
2824.00,0.0132
2823.00,0.0132
2822.00,0.0132
2821.00,0.0131
2820.00,0.0131
2819.00,0.0131
2818.00,0.0131
2817.00,0.0131
2816.00,0.0131
2815.00,0.0131
2814.00,0.0130
2813.00,0.0130
2812.00,0.0130
2811.00,0.0130
2810.00,0.0129
2809.00,0.0129
2808.00,0.0129
2807.00,0.0129
2806.00,0.0129
2805.00,0.0128
2804.00,0.0128
2803.00,0.0128
2802.00,0.0128
2801.00,0.0127
2800.00,0.0127
2799.00,0.0127
2798.00,0.0127
2797.00,0.0127
2796.00,0.0126
2795.00,0.0126
2794.00,0.0126
2793.00,0.0125
2792.00,0.0125
2791.00,0.0125
2790.00,0.0125
2789.00,0.0124
2788.00,0.0124
2787.00,0.0124
2786.00,0.0124
2785.00,0.0124
2784.00,0.0124
2783.00,0.0123
2782.00,0.0123
2781.00,0.0123
2780.00,0.0122
2779.00,0.0122
2778.00,0.0122
2777.00,0.0121
2776.00,0.0121
2775.00,0.0121
2774.00,0.0121
2773.00,0.0120
2772.00,0.0120
2771.00,0.0120
2770.00,0.0120
2769.00,0.0119
2768.00,0.0119
2767.00,0.0119
2766.00,0.0119
2765.00,0.0119
2764.00,0.0118
2763.00,0.0118
2762.00,0.0118
2761.00,0.0118
2760.00,0.0118
2759.00,0.0117
2758.00,0.0117
2757.00,0.0117
2756.00,0.0116
2755.00,0.0116
2754.00,0.0116
2753.00,0.0115
2752.00,0.0115
2751.00,0.0115
2750.00,0.0114
2749.00,0.0114
2748.00,0.0114
2747.00,0.0114
2746.00,0.0114
2745.00,0.0114
2744.00,0.0113
2743.00,0.0113
2742.00,0.0113
2741.00,0.0113
2740.00,0.0113
2739.00,0.0112
2738.00,0.0112
2737.00,0.0112
2736.00,0.0112
2735.00,0.0111
2734.00,0.0111
2733.00,0.0111
2732.00,0.0110
2731.00,0.0110
2730.00,0.0110
2729.00,0.0110
2728.00,0.0109
2727.00,0.0109
2726.00,0.0109
2725.00,0.0109
2724.00,0.0108
2723.00,0.0108
2722.00,0.0108
2721.00,0.0108
2720.00,0.0108
2719.00,0.0108
2718.00,0.0107
2717.00,0.0107
2716.00,0.0107
2715.00,0.0107
2714.00,0.0106
2713.00,0.0106
2712.00,0.0106
2711.00,0.0106
2710.00,0.0105
2709.00,0.0105
2708.00,0.0105
2707.00,0.0105
2706.00,0.0104
2705.00,0.0104
2704.00,0.0104
2703.00,0.0104
2702.00,0.0103
2701.00,0.0103
2700.00,0.0103
2699.00,0.0103
2698.00,0.0103
2697.00,0.0103
2696.00,0.0103
2695.00,0.0102
2694.00,0.0102
2693.00,0.0102
2692.00,0.0102
2691.00,0.0102
2690.00,0.0101
2689.00,0.0101
2688.00,0.0101
2687.00,0.0101
2686.00,0.0101
2685.00,0.0100
2684.00,0.0100
2683.00,0.0100
2682.00,0.0100
2681.00,0.0100
2680.00,0.0100
2679.00,0.0100
2678.00,0.0100
2677.00,0.0100
2676.00,0.0100
2675.00,0.0100
2674.00,0.0100
2673.00,0.0099
2672.00,0.0099
2671.00,0.0099
2670.00,0.0099
2669.00,0.0099
2668.00,0.0099
2667.00,0.0099
2666.00,0.0099
2665.00,0.0100
2664.00,0.0100
2663.00,0.0101
2662.00,0.0101
2661.00,0.0101
2660.00,0.0101
2659.00,0.0101
2658.00,0.0101
2657.00,0.0101
2656.00,0.0101
2655.00,0.0101
2654.00,0.0101
2653.00,0.0101
2652.00,0.0102
2651.00,0.0102
2650.00,0.0102
2649.00,0.0101
2648.00,0.0101
2647.00,0.0101
2646.00,0.0100
2645.00,0.0100
2644.00,0.0100
2643.00,0.0100
2642.00,0.0100
2641.00,0.0099
2640.00,0.0099
2639.00,0.0099
2638.00,0.0099
2637.00,0.0099
2636.00,0.0099
2635.00,0.0098
2634.00,0.0098
2633.00,0.0098
2632.00,0.0098
2631.00,0.0098
2630.00,0.0097
2629.00,0.0097
2628.00,0.0097
2627.00,0.0097
2626.00,0.0097
2625.00,0.0097
2624.00,0.0097
2623.00,0.0096
2622.00,0.0096
2621.00,0.0096
2620.00,0.0096
2619.00,0.0096
2618.00,0.0096
2617.00,0.0096
2616.00,0.0095
2615.00,0.0095
2614.00,0.0095
2613.00,0.0094
2612.00,0.0094
2611.00,0.0094
2610.00,0.0094
2609.00,0.0094
2608.00,0.0094
2607.00,0.0094
2606.00,0.0093
2605.00,0.0093
2604.00,0.0093
2603.00,0.0093
2602.00,0.0093
2601.00,0.0092
2600.00,0.0092
2599.00,0.0092
2598.00,0.0091
2597.00,0.0091
2596.00,0.0090
2595.00,0.0090
2594.00,0.0090
2593.00,0.0091
2592.00,0.0091
2591.00,0.0091
2590.00,0.0090
2589.00,0.0090
2588.00,0.0089
2587.00,0.0089
2586.00,0.0089
2585.00,0.0088
2584.00,0.0088
2583.00,0.0088
2582.00,0.0088
2581.00,0.0088
2580.00,0.0088
2579.00,0.0088
2578.00,0.0088
2577.00,0.0088
2576.00,0.0087
2575.00,0.0087
2574.00,0.0086
2573.00,0.0086
2572.00,0.0086
2571.00,0.0086
2570.00,0.0086
2569.00,0.0086
2568.00,0.0086
2567.00,0.0086
2566.00,0.0086
2565.00,0.0086
2564.00,0.0086
2563.00,0.0085
2562.00,0.0085
2561.00,0.0084
2560.00,0.0084
2559.00,0.0084
2558.00,0.0084
2557.00,0.0084
2556.00,0.0084
2555.00,0.0084
2554.00,0.0083
2553.00,0.0083
2552.00,0.0083
2551.00,0.0083
2550.00,0.0083
2549.00,0.0083
2548.00,0.0083
2547.00,0.0083
2546.00,0.0082
2545.00,0.0082
2544.00,0.0082
2543.00,0.0082
2542.00,0.0082
2541.00,0.0082
2540.00,0.0082
2539.00,0.0082
2538.00,0.0082
2537.00,0.0081
2536.00,0.0081
2535.00,0.0081
2534.00,0.0081
2533.00,0.0081
2532.00,0.0080
2531.00,0.0080
2530.00,0.0080
2529.00,0.0080
2528.00,0.0080
2527.00,0.0080
2526.00,0.0080
2525.00,0.0080
2524.00,0.0080
2523.00,0.0080
2522.00,0.0079
2521.00,0.0079
2520.00,0.0079
2519.00,0.0079
2518.00,0.0079
2517.00,0.0079
2516.00,0.0079
2515.00,0.0079
2514.00,0.0078
2513.00,0.0078
2512.00,0.0078
2511.00,0.0078
2510.00,0.0078
2509.00,0.0078
2508.00,0.0078
2507.00,0.0078
2506.00,0.0078
2505.00,0.0078
2504.00,0.0077
2503.00,0.0077
2502.00,0.0077
2501.00,0.0077
2500.00,0.0077
2499.00,0.0078
2498.00,0.0078
2497.00,0.0078
2496.00,0.0078
2495.00,0.0077
2494.00,0.0077
2493.00,0.0077
2492.00,0.0077
2491.00,0.0076
2490.00,0.0076
2489.00,0.0076
2488.00,0.0076
2487.00,0.0076
2486.00,0.0076
2485.00,0.0076
2484.00,0.0076
2483.00,0.0075
2482.00,0.0075
2481.00,0.0075
2480.00,0.0075
2479.00,0.0075
2478.00,0.0075
2477.00,0.0075
2476.00,0.0075
2475.00,0.0075
2474.00,0.0074
2473.00,0.0074
2472.00,0.0074
2471.00,0.0074
2470.00,0.0074
2469.00,0.0074
2468.00,0.0074
2467.00,0.0075
2466.00,0.0075
2465.00,0.0075
2464.00,0.0075
2463.00,0.0075
2462.00,0.0075
2461.00,0.0075
2460.00,0.0075
2459.00,0.0075
2458.00,0.0075
2457.00,0.0076
2456.00,0.0076
2455.00,0.0076
2454.00,0.0076
2453.00,0.0075
2452.00,0.0075
2451.00,0.0075
2450.00,0.0075
2449.00,0.0074
2448.00,0.0074
2447.00,0.0074
2446.00,0.0074
2445.00,0.0074
2444.00,0.0073
2443.00,0.0073
2442.00,0.0073
2441.00,0.0073
2440.00,0.0072
2439.00,0.0072
2438.00,0.0072
2437.00,0.0072
2436.00,0.0072
2435.00,0.0072
2434.00,0.0072
2433.00,0.0071
2432.00,0.0071
2431.00,0.0071
2430.00,0.0071
2429.00,0.0071
2428.00,0.0071
2427.00,0.0071
2426.00,0.0070
2425.00,0.0070
2424.00,0.0070
2423.00,0.0069
2422.00,0.0069
2421.00,0.0069
2420.00,0.0069
2419.00,0.0069
2418.00,0.0069
2417.00,0.0069
2416.00,0.0069
2415.00,0.0069
2414.00,0.0069
2413.00,0.0069
2412.00,0.0069
2411.00,0.0068
2410.00,0.0068
2409.00,0.0068
2408.00,0.0067
2407.00,0.0067
2406.00,0.0066
2405.00,0.0066
2404.00,0.0066
2403.00,0.0066
2402.00,0.0066
2401.00,0.0066
2400.00,0.0066
2399.00,0.0066
2398.00,0.0065
2397.00,0.0065
2396.00,0.0065
2395.00,0.0065
2394.00,0.0065
2393.00,0.0065
2392.00,0.0065
2391.00,0.0065
2390.00,0.0065
2389.00,0.0064
2388.00,0.0064
2387.00,0.0064
2386.00,0.0064
2385.00,0.0063
2384.00,0.0063
2383.00,0.0063
2382.00,0.0062
2381.00,0.0062
2380.00,0.0062
2379.00,0.0062
2378.00,0.0062
2377.00,0.0062
2376.00,0.0062
2375.00,0.0062
2374.00,0.0062
2373.00,0.0062
2372.00,0.0062
2371.00,0.0062
2370.00,0.0062
2369.00,0.0062
2368.00,0.0062
2367.00,0.0062
2366.00,0.0062
2365.00,0.0062
2364.00,0.0062
2363.00,0.0062
2362.00,0.0062
2361.00,0.0062
2360.00,0.0062
2359.00,0.0062
2358.00,0.0063
2357.00,0.0063
2356.00,0.0063
2355.00,0.0063
2354.00,0.0062
2353.00,0.0062
2352.00,0.0063
2351.00,0.0064
2350.00,0.0065
2349.00,0.0066
2348.00,0.0066
2347.00,0.0066
2346.00,0.0066
2345.00,0.0065
2344.00,0.0065
2343.00,0.0065
2342.00,0.0066
2341.00,0.0066
2340.00,0.0066
2339.00,0.0066
2338.00,0.0067
2337.00,0.0067
2336.00,0.0067
2335.00,0.0066
2334.00,0.0066
2333.00,0.0065
2332.00,0.0065
2331.00,0.0065
2330.00,0.0066
2329.00,0.0068
2328.00,0.0072
2327.00,0.0076
2326.00,0.0079
2325.00,0.0081
2324.00,0.0080
2323.00,0.0077
2322.00,0.0075
2321.00,0.0073
2320.00,0.0071
2319.00,0.0070
2318.00,0.0070
2317.00,0.0070
2316.00,0.0069
2315.00,0.0069
2314.00,0.0068
2313.00,0.0068
2312.00,0.0068
2311.00,0.0068
2310.00,0.0067
2309.00,0.0067
2308.00,0.0067
2307.00,0.0067
2306.00,0.0068
2305.00,0.0068
2304.00,0.0069
2303.00,0.0069
2302.00,0.0069
2301.00,0.0070
2300.00,0.0069
2299.00,0.0069
2298.00,0.0069
2297.00,0.0069
2296.00,0.0070
2295.00,0.0071
2294.00,0.0072
2293.00,0.0073
2292.00,0.0074
2291.00,0.0075
2290.00,0.0076
2289.00,0.0076
2288.00,0.0077
2287.00,0.0077
2286.00,0.0076
2285.00,0.0076
2284.00,0.0075
2283.00,0.0074
2282.00,0.0073
2281.00,0.0072
2280.00,0.0072
2279.00,0.0071
2278.00,0.0071
2277.00,0.0071
2276.00,0.0071
2275.00,0.0071
2274.00,0.0071
2273.00,0.0071
2272.00,0.0071
2271.00,0.0070
2270.00,0.0069
2269.00,0.0068
2268.00,0.0067
2267.00,0.0066
2266.00,0.0065
2265.00,0.0065
2264.00,0.0066
2263.00,0.0066
2262.00,0.0067
2261.00,0.0068
2260.00,0.0068
2259.00,0.0068
2258.00,0.0068
2257.00,0.0067
2256.00,0.0066
2255.00,0.0065
2254.00,0.0064
2253.00,0.0064
2252.00,0.0064
2251.00,0.0064
2250.00,0.0065
2249.00,0.0065
2248.00,0.0066
2247.00,0.0067
2246.00,0.0067
2245.00,0.0068
2244.00,0.0067
2243.00,0.0067
2242.00,0.0066
2241.00,0.0066
2240.00,0.0066
2239.00,0.0066
2238.00,0.0066
2237.00,0.0067
2236.00,0.0067
2235.00,0.0066
2234.00,0.0066
2233.00,0.0065
2232.00,0.0064
2231.00,0.0064
2230.00,0.0064
2229.00,0.0064
2228.00,0.0064
2227.00,0.0064
2226.00,0.0065
2225.00,0.0065
2224.00,0.0065
2223.00,0.0065
2222.00,0.0064
2221.00,0.0063
2220.00,0.0063
2219.00,0.0063
2218.00,0.0064
2217.00,0.0064
2216.00,0.0063
2215.00,0.0063
2214.00,0.0063
2213.00,0.0063
2212.00,0.0063
2211.00,0.0064
2210.00,0.0065
2209.00,0.0065
2208.00,0.0065
2207.00,0.0065
2206.00,0.0064
2205.00,0.0064
2204.00,0.0064
2203.00,0.0064
2202.00,0.0064
2201.00,0.0065
2200.00,0.0066
2199.00,0.0066
2198.00,0.0066
2197.00,0.0065
2196.00,0.0065
2195.00,0.0065
2194.00,0.0066
2193.00,0.0066
2192.00,0.0066
2191.00,0.0066
2190.00,0.0065
2189.00,0.0066
2188.00,0.0067
2187.00,0.0067
2186.00,0.0067
2185.00,0.0065
2184.00,0.0063
2183.00,0.0060
2182.00,0.0058
2181.00,0.0058
2180.00,0.0059
2179.00,0.0060
2178.00,0.0060
2177.00,0.0059
2176.00,0.0058
2175.00,0.0058
2174.00,0.0059
2173.00,0.0061
2172.00,0.0064
2171.00,0.0067
2170.00,0.0069
2169.00,0.0071
2168.00,0.0072
2167.00,0.0073
2166.00,0.0073
2165.00,0.0074
2164.00,0.0074
2163.00,0.0073
2162.00,0.0067
2161.00,0.0057
2160.00,0.0043
2159.00,0.0033
2158.00,0.0027
2157.00,0.0028
2156.00,0.0031
2155.00,0.0035
2154.00,0.0038
2153.00,0.0041
2152.00,0.0043
2151.00,0.0044
2150.00,0.0044
2149.00,0.0044
2148.00,0.0044
2147.00,0.0043
2146.00,0.0042
2145.00,0.0042
2144.00,0.0042
2143.00,0.0043
2142.00,0.0043
2141.00,0.0044
2140.00,0.0045
2139.00,0.0045
2138.00,0.0044
2137.00,0.0041
2136.00,0.0039
2135.00,0.0037
2134.00,0.0037
2133.00,0.0038
2132.00,0.0040
2131.00,0.0042
2130.00,0.0044
2129.00,0.0046
2128.00,0.0048
2127.00,0.0049
2126.00,0.0051
2125.00,0.0052
2124.00,0.0053
2123.00,0.0053
2122.00,0.0053
2121.00,0.0053
2120.00,0.0054
2119.00,0.0056
2118.00,0.0057
2117.00,0.0058
2116.00,0.0059
2115.00,0.0060
2114.00,0.0060
2113.00,0.0061
2112.00,0.0061
2111.00,0.0061
2110.00,0.0060
2109.00,0.0059
2108.00,0.0058
2107.00,0.0058
2106.00,0.0058
2105.00,0.0058
2104.00,0.0058
2103.00,0.0058
2102.00,0.0058
2101.00,0.0058
2100.00,0.0057
2099.00,0.0056
2098.00,0.0055
2097.00,0.0053
2096.00,0.0052
2095.00,0.0052
2094.00,0.0052
2093.00,0.0054
2092.00,0.0055
2091.00,0.0056
2090.00,0.0056
2089.00,0.0056
2088.00,0.0057
2087.00,0.0057
2086.00,0.0058
2085.00,0.0059
2084.00,0.0060
2083.00,0.0061
2082.00,0.0061
2081.00,0.0061
2080.00,0.0061
2079.00,0.0061
2078.00,0.0061
2077.00,0.0062
2076.00,0.0062
2075.00,0.0061
2074.00,0.0060
2073.00,0.0059
2072.00,0.0058
2071.00,0.0058
2070.00,0.0058
2069.00,0.0057
2068.00,0.0057
2067.00,0.0057
2066.00,0.0056
2065.00,0.0056
2064.00,0.0055
2063.00,0.0054
2062.00,0.0054
2061.00,0.0054
2060.00,0.0055
2059.00,0.0056
2058.00,0.0056
2057.00,0.0056
2056.00,0.0056
2055.00,0.0057
2054.00,0.0061
2053.00,0.0065
2052.00,0.0069
2051.00,0.0069
2050.00,0.0065
2049.00,0.0060
2048.00,0.0057
2047.00,0.0056
2046.00,0.0055
2045.00,0.0054
2044.00,0.0053
2043.00,0.0054
2042.00,0.0055
2041.00,0.0057
2040.00,0.0058
2039.00,0.0059
2038.00,0.0059
2037.00,0.0057
2036.00,0.0055
2035.00,0.0052
2034.00,0.0050
2033.00,0.0049
2032.00,0.0049
2031.00,0.0049
2030.00,0.0049
2029.00,0.0048
2028.00,0.0047
2027.00,0.0046
2026.00,0.0046
2025.00,0.0047
2024.00,0.0049
2023.00,0.0049
2022.00,0.0048
2021.00,0.0048
2020.00,0.0048
2019.00,0.0048
2018.00,0.0048
2017.00,0.0048
2016.00,0.0049
2015.00,0.0050
2014.00,0.0050
2013.00,0.0050
2012.00,0.0050
2011.00,0.0050
2010.00,0.0049
2009.00,0.0047
2008.00,0.0043
2007.00,0.0040
2006.00,0.0039
2005.00,0.0039
2004.00,0.0040
2003.00,0.0042
2002.00,0.0043
2001.00,0.0044
2000.00,0.0046
1999.00,0.0048
1998.00,0.0049
1997.00,0.0049
1996.00,0.0050
1995.00,0.0049
1994.00,0.0049
1993.00,0.0049
1992.00,0.0050
1991.00,0.0050
1990.00,0.0051
1989.00,0.0052
1988.00,0.0054
1987.00,0.0054
1986.00,0.0054
1985.00,0.0055
1984.00,0.0057
1983.00,0.0060
1982.00,0.0063
1981.00,0.0064
1980.00,0.0061
1979.00,0.0055
1978.00,0.0048
1977.00,0.0043
1976.00,0.0041
1975.00,0.0040
1974.00,0.0039
1973.00,0.0039
1972.00,0.0039
1971.00,0.0040
1970.00,0.0040
1969.00,0.0040
1968.00,0.0040
1967.00,0.0040
1966.00,0.0040
1965.00,0.0040
1964.00,0.0040
1963.00,0.0040
1962.00,0.0039
1961.00,0.0037
1960.00,0.0035
1959.00,0.0035
1958.00,0.0036
1957.00,0.0038
1956.00,0.0041
1955.00,0.0042
1954.00,0.0042
1953.00,0.0042
1952.00,0.0043
1951.00,0.0043
1950.00,0.0042
1949.00,0.0041
1948.00,0.0041
1947.00,0.0042
1946.00,0.0042
1945.00,0.0043
1944.00,0.0043
1943.00,0.0044
1942.00,0.0044
1941.00,0.0044
1940.00,0.0044
1939.00,0.0044
1938.00,0.0044
1937.00,0.0043
1936.00,0.0043
1935.00,0.0043
1934.00,0.0043
1933.00,0.0043
1932.00,0.0043
1931.00,0.0043
1930.00,0.0043
1929.00,0.0043
1928.00,0.0042
1927.00,0.0042
1926.00,0.0042
1925.00,0.0043
1924.00,0.0044
1923.00,0.0045
1922.00,0.0045
1921.00,0.0045
1920.00,0.0045
1919.00,0.0045
1918.00,0.0045
1917.00,0.0045
1916.00,0.0045
1915.00,0.0045
1914.00,0.0045
1913.00,0.0045
1912.00,0.0046
1911.00,0.0046
1910.00,0.0045
1909.00,0.0046
1908.00,0.0046
1907.00,0.0046
1906.00,0.0045
1905.00,0.0046
1904.00,0.0046
1903.00,0.0047
1902.00,0.0047
1901.00,0.0047
1900.00,0.0047
1899.00,0.0046
1898.00,0.0046
1897.00,0.0046
1896.00,0.0046
1895.00,0.0046
1894.00,0.0046
1893.00,0.0046
1892.00,0.0046
1891.00,0.0045
1890.00,0.0046
1889.00,0.0046
1888.00,0.0046
1887.00,0.0047
1886.00,0.0046
1885.00,0.0047
1884.00,0.0047
1883.00,0.0047
1882.00,0.0046
1881.00,0.0046
1880.00,0.0046
1879.00,0.0046
1878.00,0.0046
1877.00,0.0046
1876.00,0.0046
1875.00,0.0047
1874.00,0.0047
1873.00,0.0046
1872.00,0.0046
1871.00,0.0045
1870.00,0.0044
1869.00,0.0044
1868.00,0.0045
1867.00,0.0045
1866.00,0.0046
1865.00,0.0046
1864.00,0.0046
1863.00,0.0046
1862.00,0.0046
1861.00,0.0046
1860.00,0.0046
1859.00,0.0046
1858.00,0.0046
1857.00,0.0046
1856.00,0.0046
1855.00,0.0046
1854.00,0.0046
1853.00,0.0045
1852.00,0.0045
1851.00,0.0045
1850.00,0.0045
1849.00,0.0045
1848.00,0.0045
1847.00,0.0045
1846.00,0.0045
1845.00,0.0044
1844.00,0.0044
1843.00,0.0045
1842.00,0.0045
1841.00,0.0045
1840.00,0.0045
1839.00,0.0045
1838.00,0.0045
1837.00,0.0045
1836.00,0.0045
1835.00,0.0045
1834.00,0.0045
1833.00,0.0045
1832.00,0.0044
1831.00,0.0044
1830.00,0.0044
1829.00,0.0045
1828.00,0.0045
1827.00,0.0046
1826.00,0.0045
1825.00,0.0046
1824.00,0.0046
1823.00,0.0047
1822.00,0.0047
1821.00,0.0046
1820.00,0.0045
1819.00,0.0044
1818.00,0.0043
1817.00,0.0043
1816.00,0.0043
1815.00,0.0044
1814.00,0.0044
1813.00,0.0044
1812.00,0.0044
1811.00,0.0045
1810.00,0.0045
1809.00,0.0045
1808.00,0.0046
1807.00,0.0046
1806.00,0.0046
1805.00,0.0047
1804.00,0.0047
1803.00,0.0047
1802.00,0.0046
1801.00,0.0045
1800.00,0.0045
1799.00,0.0046
1798.00,0.0046
1797.00,0.0047
1796.00,0.0047
1795.00,0.0048
1794.00,0.0047
1793.00,0.0047
1792.00,0.0046
1791.00,0.0046
1790.00,0.0046
1789.00,0.0046
1788.00,0.0047
1787.00,0.0047
1786.00,0.0047
1785.00,0.0047
1784.00,0.0047
1783.00,0.0047
1782.00,0.0047
1781.00,0.0047
1780.00,0.0047
1779.00,0.0047
1778.00,0.0046
1777.00,0.0046
1776.00,0.0047
1775.00,0.0047
1774.00,0.0048
1773.00,0.0047
1772.00,0.0047
1771.00,0.0047
1770.00,0.0047
1769.00,0.0047
1768.00,0.0048
1767.00,0.0048
1766.00,0.0048
1765.00,0.0048
1764.00,0.0048
1763.00,0.0048
1762.00,0.0049
1761.00,0.0049
1760.00,0.0049
1759.00,0.0049
1758.00,0.0050
1757.00,0.0050
1756.00,0.0050
1755.00,0.0051
1754.00,0.0051
1753.00,0.0052
1752.00,0.0053
1751.00,0.0053
1750.00,0.0053
1749.00,0.0052
1748.00,0.0053
1747.00,0.0054
1746.00,0.0055
1745.00,0.0056
1744.00,0.0057
1743.00,0.0057
1742.00,0.0057
1741.00,0.0058
1740.00,0.0058
1739.00,0.0059
1738.00,0.0060
1737.00,0.0062
1736.00,0.0064
1735.00,0.0066
1734.00,0.0068
1733.00,0.0069
1732.00,0.0069
1731.00,0.0069
1730.00,0.0069
1729.00,0.0071
1728.00,0.0073
1727.00,0.0075
1726.00,0.0077
1725.00,0.0079
1724.00,0.0081
1723.00,0.0084
1722.00,0.0086
1721.00,0.0088
1720.00,0.0091
1719.00,0.0095
1718.00,0.0099
1717.00,0.0103
1716.00,0.0106
1715.00,0.0108
1714.00,0.0110
1713.00,0.0114
1712.00,0.0118
1711.00,0.0122
1710.00,0.0127
1709.00,0.0131
1708.00,0.0136
1707.00,0.0142
1706.00,0.0148
1705.00,0.0156
1704.00,0.0165
1703.00,0.0174
1702.00,0.0183
1701.00,0.0192
1700.00,0.0206
1699.00,0.0221
1698.00,0.0234
1697.00,0.0246
1696.00,0.0258
1695.00,0.0269
1694.00,0.0276
1693.00,0.0282
1692.00,0.0289
1691.00,0.0296
1690.00,0.0304
1689.00,0.0313
1688.00,0.0322
1687.00,0.0332
1686.00,0.0342
1685.00,0.0350
1684.00,0.0357
1683.00,0.0365
1682.00,0.0373
1681.00,0.0381
1680.00,0.0390
1679.00,0.0399
1678.00,0.0407
1677.00,0.0415
1676.00,0.0422
1675.00,0.0430
1674.00,0.0439
1673.00,0.0448
1672.00,0.0456
1671.00,0.0464
1670.00,0.0471
1669.00,0.0479
1668.00,0.0489
1667.00,0.0499
1666.00,0.0508
1665.00,0.0517
1664.00,0.0526
1663.00,0.0534
1662.00,0.0543
1661.00,0.0552
1660.00,0.0562
1659.00,0.0572
1658.00,0.0582
1657.00,0.0592
1656.00,0.0603
1655.00,0.0613
1654.00,0.0621
1653.00,0.0627
1652.00,0.0634
1651.00,0.0639
1650.00,0.0643
1649.00,0.0647
1648.00,0.0651
1647.00,0.0655
1646.00,0.0659
1645.00,0.0664
1644.00,0.0669
1643.00,0.0674
1642.00,0.0678
1641.00,0.0682
1640.00,0.0687
1639.00,0.0692
1638.00,0.0697
1637.00,0.0700
1636.00,0.0702
1635.00,0.0706
1634.00,0.0711
1633.00,0.0718
1632.00,0.0725
1631.00,0.0732
1630.00,0.0736
1629.00,0.0740
1628.00,0.0743
1627.00,0.0746
1626.00,0.0748
1625.00,0.0748
1624.00,0.0746
1623.00,0.0741
1622.00,0.0735
1621.00,0.0731
1620.00,0.0726
1619.00,0.0721
1618.00,0.0711
1617.00,0.0696
1616.00,0.0679
1615.00,0.0664
1614.00,0.0651
1613.00,0.0638
1612.00,0.0625
1611.00,0.0611
1610.00,0.0597
1609.00,0.0584
1608.00,0.0571
1607.00,0.0558
1606.00,0.0547
1605.00,0.0536
1604.00,0.0525
1603.00,0.0515
1602.00,0.0507
1601.00,0.0498
1600.00,0.0491
1599.00,0.0483
1598.00,0.0476
1597.00,0.0470
1596.00,0.0464
1595.00,0.0457
1594.00,0.0452
1593.00,0.0447
1592.00,0.0441
1591.00,0.0436
1590.00,0.0432
1589.00,0.0428
1588.00,0.0424
1587.00,0.0421
1586.00,0.0418
1585.00,0.0416
1584.00,0.0414
1583.00,0.0413
1582.00,0.0412
1581.00,0.0412
1580.00,0.0412
1579.00,0.0414
1578.00,0.0417
1577.00,0.0420
1576.00,0.0421
1575.00,0.0422
1574.00,0.0423
1573.00,0.0425
1572.00,0.0427
1571.00,0.0429
1570.00,0.0432
1569.00,0.0436
1568.00,0.0440
1567.00,0.0445
1566.00,0.0449
1565.00,0.0454
1564.00,0.0460
1563.00,0.0467
1562.00,0.0476
1561.00,0.0482
1560.00,0.0484
1559.00,0.0487
1558.00,0.0493
1557.00,0.0501
1556.00,0.0509
1555.00,0.0515
1554.00,0.0522
1553.00,0.0529
1552.00,0.0535
1551.00,0.0542
1550.00,0.0548
1549.00,0.0555
1548.00,0.0562
1547.00,0.0569
1546.00,0.0575
1545.00,0.0581
1544.00,0.0587
1543.00,0.0593
1542.00,0.0598
1541.00,0.0604
1540.00,0.0609
1539.00,0.0615
1538.00,0.0621
1537.00,0.0626
1536.00,0.0629
1535.00,0.0632
1534.00,0.0635
1533.00,0.0638
1532.00,0.0643
1531.00,0.0648
1530.00,0.0652
1529.00,0.0655
1528.00,0.0657
1527.00,0.0659
1526.00,0.0661
1525.00,0.0663
1524.00,0.0665
1523.00,0.0666
1522.00,0.0667
1521.00,0.0668
1520.00,0.0668
1519.00,0.0669
1518.00,0.0670
1517.00,0.0670
1516.00,0.0670
1515.00,0.0669
1514.00,0.0668
1513.00,0.0665
1512.00,0.0660
1511.00,0.0655
1510.00,0.0651
1509.00,0.0646
1508.00,0.0639
1507.00,0.0627
1506.00,0.0615
1505.00,0.0606
1504.00,0.0599
1503.00,0.0592
1502.00,0.0585
1501.00,0.0577
1500.00,0.0569
1499.00,0.0560
1498.00,0.0552
1497.00,0.0543
1496.00,0.0534
1495.00,0.0524
1494.00,0.0515
1493.00,0.0506
1492.00,0.0496
1491.00,0.0485
1490.00,0.0474
1489.00,0.0464
1488.00,0.0455
1487.00,0.0446
1486.00,0.0438
1485.00,0.0431
1484.00,0.0424
1483.00,0.0417
1482.00,0.0410
1481.00,0.0404
1480.00,0.0399
1479.00,0.0395
1478.00,0.0391
1477.00,0.0388
1476.00,0.0387
1475.00,0.0387
1474.00,0.0387
1473.00,0.0387
1472.00,0.0388
1471.00,0.0389
1470.00,0.0391
1469.00,0.0392
1468.00,0.0393
1467.00,0.0393
1466.00,0.0392
1465.00,0.0391
1464.00,0.0392
1463.00,0.0393
1462.00,0.0395
1461.00,0.0398
1460.00,0.0400
1459.00,0.0404
1458.00,0.0408
1457.00,0.0411
1456.00,0.0414
1455.00,0.0416
1454.00,0.0417
1453.00,0.0417
1452.00,0.0417
1451.00,0.0417
1450.00,0.0417
1449.00,0.0416
1448.00,0.0415
1447.00,0.0414
1446.00,0.0414
1445.00,0.0413
1444.00,0.0412
1443.00,0.0410
1442.00,0.0409
1441.00,0.0408
1440.00,0.0406
1439.00,0.0405
1438.00,0.0402
1437.00,0.0398
1436.00,0.0393
1435.00,0.0390
1434.00,0.0387
1433.00,0.0383
1432.00,0.0379
1431.00,0.0374
1430.00,0.0371
1429.00,0.0368
1428.00,0.0367
1427.00,0.0366
1426.00,0.0365
1425.00,0.0365
1424.00,0.0365
1423.00,0.0366
1422.00,0.0368
1421.00,0.0370
1420.00,0.0372
1419.00,0.0373
1418.00,0.0375
1417.00,0.0377
1416.00,0.0379
1415.00,0.0381
1414.00,0.0383
1413.00,0.0386
1412.00,0.0388
1411.00,0.0390
1410.00,0.0393
1409.00,0.0396
1408.00,0.0398
1407.00,0.0400
1406.00,0.0403
1405.00,0.0405
1404.00,0.0407
1403.00,0.0410
1402.00,0.0412
1401.00,0.0414
1400.00,0.0415
1399.00,0.0417
1398.00,0.0419
1397.00,0.0421
1396.00,0.0423
1395.00,0.0424
1394.00,0.0425
1393.00,0.0426
1392.00,0.0427
1391.00,0.0428
1390.00,0.0429
1389.00,0.0429
1388.00,0.0429
1387.00,0.0427
1386.00,0.0426
1385.00,0.0423
1384.00,0.0420
1383.00,0.0417
1382.00,0.0413
1381.00,0.0409
1380.00,0.0406
1379.00,0.0402
1378.00,0.0399
1377.00,0.0396
1376.00,0.0393
1375.00,0.0391
1374.00,0.0388
1373.00,0.0387
1372.00,0.0386
1371.00,0.0385
1370.00,0.0384
1369.00,0.0382
1368.00,0.0379
1367.00,0.0376
1366.00,0.0372
1365.00,0.0369
1364.00,0.0365
1363.00,0.0361
1362.00,0.0358
1361.00,0.0355
1360.00,0.0353
1359.00,0.0351
1358.00,0.0349
1357.00,0.0347
1356.00,0.0345
1355.00,0.0343
1354.00,0.0342
1353.00,0.0341
1352.00,0.0341
1351.00,0.0340
1350.00,0.0339
1349.00,0.0339
1348.00,0.0338
1347.00,0.0338
1346.00,0.0338
1345.00,0.0338
1344.00,0.0338
1343.00,0.0338
1342.00,0.0338
1341.00,0.0338
1340.00,0.0338
1339.00,0.0338
1338.00,0.0338
1337.00,0.0338
1336.00,0.0337
1335.00,0.0336
1334.00,0.0336
1333.00,0.0335
1332.00,0.0334
1331.00,0.0333
1330.00,0.0333
1329.00,0.0332
1328.00,0.0332
1327.00,0.0332
1326.00,0.0332
1325.00,0.0332
1324.00,0.0332
1323.00,0.0332
1322.00,0.0332
1321.00,0.0332
1320.00,0.0333
1319.00,0.0333
1318.00,0.0334
1317.00,0.0335
1316.00,0.0335
1315.00,0.0336
1314.00,0.0336
1313.00,0.0337
1312.00,0.0337
1311.00,0.0337
1310.00,0.0337
1309.00,0.0337
1308.00,0.0337
1307.00,0.0337
1306.00,0.0337
1305.00,0.0336
1304.00,0.0336
1303.00,0.0336
1302.00,0.0336
1301.00,0.0336
1300.00,0.0335
1299.00,0.0335
1298.00,0.0334
1297.00,0.0334
1296.00,0.0334
1295.00,0.0333
1294.00,0.0334
1293.00,0.0334
1292.00,0.0334
1291.00,0.0335
1290.00,0.0336
1289.00,0.0337
1288.00,0.0338
1287.00,0.0340
1286.00,0.0341
1285.00,0.0342
1284.00,0.0342
1283.00,0.0343
1282.00,0.0344
1281.00,0.0344
1280.00,0.0344
1279.00,0.0345
1278.00,0.0345
1277.00,0.0346
1276.00,0.0346
1275.00,0.0346
1274.00,0.0347
1273.00,0.0348
1272.00,0.0348
1271.00,0.0349
1270.00,0.0350
1269.00,0.0351
1268.00,0.0353
1267.00,0.0354
1266.00,0.0356
1265.00,0.0358
1264.00,0.0359
1263.00,0.0361
1262.00,0.0364
1261.00,0.0366
1260.00,0.0369
1259.00,0.0371
1258.00,0.0374
1257.00,0.0377
1256.00,0.0380
1255.00,0.0383
1254.00,0.0386
1253.00,0.0389
1252.00,0.0392
1251.00,0.0395
1250.00,0.0399
1249.00,0.0402
1248.00,0.0405
1247.00,0.0409
1246.00,0.0412
1245.00,0.0415
1244.00,0.0418
1243.00,0.0420
1242.00,0.0423
1241.00,0.0426
1240.00,0.0429
1239.00,0.0431
1238.00,0.0434
1237.00,0.0437
1236.00,0.0438
1235.00,0.0440
1234.00,0.0441
1233.00,0.0442
1232.00,0.0442
1231.00,0.0443
1230.00,0.0443
1229.00,0.0443
1228.00,0.0443
1227.00,0.0442
1226.00,0.0441
1225.00,0.0439
1224.00,0.0438
1223.00,0.0436
1222.00,0.0434
1221.00,0.0432
1220.00,0.0429
1219.00,0.0427
1218.00,0.0424
1217.00,0.0422
1216.00,0.0418
1215.00,0.0415
1214.00,0.0411
1213.00,0.0407
1212.00,0.0403
1211.00,0.0399
1210.00,0.0395
1209.00,0.0390
1208.00,0.0386
1207.00,0.0381
1206.00,0.0377
1205.00,0.0373
1204.00,0.0368
1203.00,0.0364
1202.00,0.0359
1201.00,0.0355
1200.00,0.0351
1199.00,0.0347
1198.00,0.0344
1197.00,0.0341
1196.00,0.0337
1195.00,0.0333
1194.00,0.0330
1193.00,0.0327
1192.00,0.0324
1191.00,0.0321
1190.00,0.0319
1189.00,0.0316
1188.00,0.0314
1187.00,0.0312
1186.00,0.0310
1185.00,0.0309
1184.00,0.0307
1183.00,0.0306
1182.00,0.0306
1181.00,0.0305
1180.00,0.0305
1179.00,0.0305
1178.00,0.0306
1177.00,0.0307
1176.00,0.0309
1175.00,0.0311
1174.00,0.0313
1173.00,0.0315
1172.00,0.0317
1171.00,0.0319
1170.00,0.0321
1169.00,0.0323
1168.00,0.0325
1167.00,0.0327
1166.00,0.0330
1165.00,0.0332
1164.00,0.0335
1163.00,0.0338
1162.00,0.0341
1161.00,0.0343
1160.00,0.0346
1159.00,0.0348
1158.00,0.0350
1157.00,0.0352
1156.00,0.0352
1155.00,0.0353
1154.00,0.0353
1153.00,0.0353
1152.00,0.0352
1151.00,0.0351
1150.00,0.0350
1149.00,0.0348
1148.00,0.0346
1147.00,0.0344
1146.00,0.0343
1145.00,0.0341
1144.00,0.0339
1143.00,0.0337
1142.00,0.0335
1141.00,0.0333
1140.00,0.0331
1139.00,0.0329
1138.00,0.0328
1137.00,0.0327
1136.00,0.0327
1135.00,0.0326
1134.00,0.0327
1133.00,0.0328
1132.00,0.0329
1131.00,0.0330
1130.00,0.0332
1129.00,0.0334
1128.00,0.0335
1127.00,0.0337
1126.00,0.0340
1125.00,0.0342
1124.00,0.0344
1123.00,0.0346
1122.00,0.0348
1121.00,0.0350
1120.00,0.0352
1119.00,0.0354
1118.00,0.0357
1117.00,0.0359
1116.00,0.0361
1115.00,0.0363
1114.00,0.0366
1113.00,0.0368
1112.00,0.0371
1111.00,0.0373
1110.00,0.0376
1109.00,0.0379
1108.00,0.0381
1107.00,0.0384
1106.00,0.0386
1105.00,0.0389
1104.00,0.0390
1103.00,0.0392
1102.00,0.0395
1101.00,0.0397
1100.00,0.0398
1099.00,0.0400
1098.00,0.0403
1097.00,0.0406
1096.00,0.0408
1095.00,0.0411
1094.00,0.0415
1093.00,0.0418
1092.00,0.0422
1091.00,0.0426
1090.00,0.0431
1089.00,0.0436
1088.00,0.0441
1087.00,0.0445
1086.00,0.0450
1085.00,0.0455
1084.00,0.0459
1083.00,0.0463
1082.00,0.0466
1081.00,0.0469
1080.00,0.0470
1079.00,0.0471
1078.00,0.0471
1077.00,0.0471
1076.00,0.0469
1075.00,0.0468
1074.00,0.0466
1073.00,0.0464
1072.00,0.0462
1071.00,0.0461
1070.00,0.0461
1069.00,0.0460
1068.00,0.0460
1067.00,0.0460
1066.00,0.0460
1065.00,0.0462
1064.00,0.0463
1063.00,0.0464
1062.00,0.0467
1061.00,0.0469
1060.00,0.0470
1059.00,0.0472
1058.00,0.0474
1057.00,0.0476
1056.00,0.0477
1055.00,0.0478
1054.00,0.0480
1053.00,0.0481
1052.00,0.0482
1051.00,0.0483
1050.00,0.0483
1049.00,0.0484
1048.00,0.0484
1047.00,0.0483
1046.00,0.0483
1045.00,0.0483
1044.00,0.0483
1043.00,0.0482
1042.00,0.0482
1041.00,0.0481
1040.00,0.0480
1039.00,0.0480
1038.00,0.0480
1037.00,0.0479
1036.00,0.0479
1035.00,0.0479
1034.00,0.0480
1033.00,0.0480
1032.00,0.0481
1031.00,0.0482
1030.00,0.0482
1029.00,0.0483
1028.00,0.0483
1027.00,0.0484
1026.00,0.0484
1025.00,0.0484
1024.00,0.0483
1023.00,0.0482
1022.00,0.0481
1021.00,0.0479
1020.00,0.0476
1019.00,0.0473
1018.00,0.0470
1017.00,0.0467
1016.00,0.0463
1015.00,0.0459
1014.00,0.0456
1013.00,0.0452
1012.00,0.0448
1011.00,0.0444
1010.00,0.0440
1009.00,0.0437
1008.00,0.0433
1007.00,0.0429
1006.00,0.0426
1005.00,0.0423
1004.00,0.0420
1003.00,0.0417
1002.00,0.0415
1001.00,0.0411
1000.00,0.0408
999.00,0.0404
998.00,0.0400
997.00,0.0395
996.00,0.0391
995.00,0.0386
994.00,0.0381
993.00,0.0376
992.00,0.0371
991.00,0.0365
990.00,0.0360
989.00,0.0355
988.00,0.0350
987.00,0.0345
986.00,0.0341
985.00,0.0336
984.00,0.0332
983.00,0.0328
982.00,0.0325
981.00,0.0322
980.00,0.0319
979.00,0.0318
978.00,0.0316
977.00,0.0316
976.00,0.0315
975.00,0.0315
974.00,0.0315
973.00,0.0316
972.00,0.0316
971.00,0.0317
970.00,0.0317
969.00,0.0318
968.00,0.0319
967.00,0.0320
966.00,0.0320
965.00,0.0321
964.00,0.0320
963.00,0.0319
962.00,0.0318
961.00,0.0317
960.00,0.0315
959.00,0.0314
958.00,0.0313
957.00,0.0311
956.00,0.0309
955.00,0.0307
954.00,0.0305
953.00,0.0302
952.00,0.0300
951.00,0.0299
950.00,0.0298
949.00,0.0297
948.00,0.0295
947.00,0.0294
946.00,0.0294
945.00,0.0294
944.00,0.0293
943.00,0.0293
942.00,0.0294
941.00,0.0295
940.00,0.0296
939.00,0.0296
938.00,0.0298
937.00,0.0299
936.00,0.0299
935.00,0.0300
934.00,0.0300
933.00,0.0301
932.00,0.0301
931.00,0.0300
930.00,0.0300
929.00,0.0300
928.00,0.0299
927.00,0.0298
926.00,0.0298
925.00,0.0298
924.00,0.0297
923.00,0.0296
922.00,0.0295
921.00,0.0294
920.00,0.0292
919.00,0.0291
918.00,0.0291
917.00,0.0290
916.00,0.0288
915.00,0.0287
914.00,0.0285
913.00,0.0283
912.00,0.0281
911.00,0.0279
910.00,0.0278
909.00,0.0276
908.00,0.0275
907.00,0.0273
906.00,0.0273
905.00,0.0272
904.00,0.0271
903.00,0.0270
902.00,0.0270
901.00,0.0270
900.00,0.0269
899.00,0.0269
898.00,0.0270
897.00,0.0270
896.00,0.0270
895.00,0.0270
894.00,0.0270
893.00,0.0270
892.00,0.0270
891.00,0.0269
890.00,0.0269
889.00,0.0269
888.00,0.0269
887.00,0.0269
886.00,0.0269
885.00,0.0269
884.00,0.0269
883.00,0.0269
882.00,0.0269
881.00,0.0268
880.00,0.0268
879.00,0.0267
878.00,0.0267
877.00,0.0267
876.00,0.0267
875.00,0.0267
874.00,0.0268
873.00,0.0268
872.00,0.0268
871.00,0.0268
870.00,0.0269
869.00,0.0269
868.00,0.0269
867.00,0.0269
866.00,0.0269
865.00,0.0270
864.00,0.0271
863.00,0.0272
862.00,0.0273
861.00,0.0274
860.00,0.0275
859.00,0.0275
858.00,0.0277
857.00,0.0278
856.00,0.0279
855.00,0.0280
854.00,0.0282
853.00,0.0283
852.00,0.0283
851.00,0.0283
850.00,0.0284
849.00,0.0285
848.00,0.0285
847.00,0.0285
846.00,0.0287
845.00,0.0288
844.00,0.0288
843.00,0.0289
842.00,0.0290
841.00,0.0291
840.00,0.0292
839.00,0.0292
838.00,0.0293
837.00,0.0295
836.00,0.0296
835.00,0.0297
834.00,0.0300
833.00,0.0301
832.00,0.0302
831.00,0.0303
830.00,0.0304
829.00,0.0305
828.00,0.0305
827.00,0.0305
826.00,0.0306
825.00,0.0306
824.00,0.0306
823.00,0.0306
822.00,0.0307
821.00,0.0308
820.00,0.0309
819.00,0.0309
818.00,0.0310
817.00,0.0310
816.00,0.0310
815.00,0.0310
814.00,0.0311
813.00,0.0312
812.00,0.0312
811.00,0.0313
810.00,0.0314
809.00,0.0315
808.00,0.0315
807.00,0.0316
806.00,0.0317
805.00,0.0318
804.00,0.0319
803.00,0.0320
802.00,0.0322
801.00,0.0324
800.00,0.0326
799.00,0.0328
798.00,0.0330
797.00,0.0332
796.00,0.0333
795.00,0.0334
794.00,0.0336
793.00,0.0338
792.00,0.0339
791.00,0.0342
790.00,0.0345
789.00,0.0348
788.00,0.0351
787.00,0.0354
786.00,0.0357
785.00,0.0360
784.00,0.0363
783.00,0.0365
782.00,0.0368
781.00,0.0371
780.00,0.0372
779.00,0.0373
778.00,0.0374
777.00,0.0374
776.00,0.0373
775.00,0.0372
774.00,0.0372
773.00,0.0372
772.00,0.0372
771.00,0.0372
770.00,0.0374
769.00,0.0375
768.00,0.0375
767.00,0.0376
766.00,0.0377
765.00,0.0379
764.00,0.0380
763.00,0.0381
762.00,0.0383
761.00,0.0384
760.00,0.0386
759.00,0.0387
758.00,0.0389
757.00,0.0390
756.00,0.0391
755.00,0.0392
754.00,0.0394
753.00,0.0396
752.00,0.0397
751.00,0.0399
750.00,0.0400
749.00,0.0402
748.00,0.0404
747.00,0.0406
746.00,0.0408
745.00,0.0410
744.00,0.0411
743.00,0.0412
742.00,0.0414
741.00,0.0415
740.00,0.0415
739.00,0.0416
738.00,0.0417
737.00,0.0418
736.00,0.0419
735.00,0.0420
734.00,0.0422
733.00,0.0424
732.00,0.0425
731.00,0.0426
730.00,0.0429
729.00,0.0431
728.00,0.0433
727.00,0.0436
726.00,0.0440
725.00,0.0443
724.00,0.0445
723.00,0.0447
722.00,0.0449
721.00,0.0452
720.00,0.0455
719.00,0.0458
718.00,0.0462
717.00,0.0466
716.00,0.0468
715.00,0.0471
714.00,0.0474
713.00,0.0478
712.00,0.0481
711.00,0.0484
710.00,0.0488
709.00,0.0492
708.00,0.0496
707.00,0.0499
706.00,0.0504
705.00,0.0509
704.00,0.0513
703.00,0.0516
702.00,0.0521
701.00,0.0524
700.00,0.0526
699.00,0.0528
698.00,0.0531
697.00,0.0532
696.00,0.0533
695.00,0.0533
694.00,0.0533
693.00,0.0533
692.00,0.0532
691.00,0.0532
690.00,0.0533
689.00,0.0534
688.00,0.0534
687.00,0.0535
686.00,0.0536
685.00,0.0537
684.00,0.0538
683.00,0.0539
682.00,0.0541
681.00,0.0542
680.00,0.0543
679.00,0.0544
678.00,0.0546
677.00,0.0548
676.00,0.0549
675.00,0.0550
674.00,0.0551
673.00,0.0553
672.00,0.0555
671.00,0.0557
670.00,0.0560
669.00,0.0563
668.00,0.0564
667.00,0.0565
666.00,0.0567
665.00,0.0569
664.00,0.0570
663.00,0.0572
662.00,0.0575
661.00,0.0577
660.00,0.0578
659.00,0.0579
658.00,0.0581
657.00,0.0582
656.00,0.0582
655.00,0.0583
654.00,0.0585
653.00,0.0587
652.00,0.0588
651.00,0.0589
650.00,0.0591
649.00,0.0592
648.00,0.0592
647.00,0.0593
646.00,0.0595
645.00,0.0597
644.00,0.0598
643.00,0.0599
642.00,0.0601
641.00,0.0602
640.00,0.0602
639.00,0.0603
638.00,0.0604
637.00,0.0604
636.00,0.0604
635.00,0.0604
634.00,0.0605
633.00,0.0607
632.00,0.0607
631.00,0.0608
630.00,0.0610
629.00,0.0611
628.00,0.0612
627.00,0.0613
626.00,0.0616
625.00,0.0618
624.00,0.0620
623.00,0.0622
622.00,0.0625
621.00,0.0626
620.00,0.0627
619.00,0.0628
618.00,0.0629
617.00,0.0631
616.00,0.0631
615.00,0.0632
614.00,0.0634
613.00,0.0637
612.00,0.0638
611.00,0.0639
610.00,0.0640
609.00,0.0640
608.00,0.0640
607.00,0.0640
606.00,0.0642
605.00,0.0643
604.00,0.0643
603.00,0.0643
602.00,0.0645
601.00,0.0648
600.00,0.0649
599.00,0.0650
598.00,0.0652
597.00,0.0655
596.00,0.0656
595.00,0.0656
594.00,0.0658
593.00,0.0658
592.00,0.0658
591.00,0.0660
590.00,0.0662
589.00,0.0666
588.00,0.0668
587.00,0.0670
586.00,0.0673
585.00,0.0675
584.00,0.0676
583.00,0.0678
582.00,0.0681
581.00,0.0683
580.00,0.0684
579.00,0.0685
578.00,0.0687
577.00,0.0689
576.00,0.0689
575.00,0.0689
574.00,0.0691
573.00,0.0693
572.00,0.0694
571.00,0.0695
570.00,0.0697
569.00,0.0699
568.00,0.0699
567.00,0.0699
566.00,0.0701
565.00,0.0702
564.00,0.0702
563.00,0.0701
562.00,0.0703
561.00,0.0705
560.00,0.0705
559.00,0.0705
558.00,0.0707
557.00,0.0709
556.00,0.0708
555.00,0.0709
554.00,0.0712
553.00,0.0714
552.00,0.0715
551.00,0.0717
550.00,0.0720
549.00,0.0722
548.00,0.0723
547.00,0.0724
546.00,0.0726
545.00,0.0728
544.00,0.0728
543.00,0.0728
542.00,0.0729
541.00,0.0730
540.00,0.0730
539.00,0.0731
538.00,0.0734
537.00,0.0736
536.00,0.0738
535.00,0.0739
534.00,0.0743
533.00,0.0747
532.00,0.0748
531.00,0.0749
530.00,0.0752
529.00,0.0753
528.00,0.0753
527.00,0.0754
526.00,0.0757
525.00,0.0758
524.00,0.0757
523.00,0.0756
522.00,0.0757
521.00,0.0758
520.00,0.0758
519.00,0.0758
518.00,0.0759
517.00,0.0758
516.00,0.0756
515.00,0.0756
514.00,0.0758
513.00,0.0759
512.00,0.0757
511.00,0.0756
510.00,0.0756
509.00,0.0755
508.00,0.0752
507.00,0.0749
506.00,0.0749
505.00,0.0749
504.00,0.0747
503.00,0.0746
502.00,0.0748
501.00,0.0749
500.00,0.0748
499.00,0.0748
498.00,0.0751
497.00,0.0753
496.00,0.0753
495.00,0.0752
494.00,0.0753
493.00,0.0756
492.00,0.0756
491.00,0.0757
490.00,0.0760
489.00,0.0759
488.00,0.0756
487.00,0.0752
486.00,0.0751
485.00,0.0752
484.00,0.0750
483.00,0.0750
482.00,0.0752
481.00,0.0752
480.00,0.0749
479.00,0.0747
478.00,0.0750
477.00,0.0751
476.00,0.0749
475.00,0.0748
474.00,0.0750
473.00,0.0751
472.00,0.0748
471.00,0.0746
470.00,0.0748
469.00,0.0749
468.00,0.0747
467.00,0.0746
466.00,0.0749
465.00,0.0751
464.00,0.0748
463.00,0.0746
462.00,0.0746
461.00,0.0746
460.00,0.0741
459.00,0.0736
458.00,0.0735
457.00,0.0733
456.00,0.0728
455.00,0.0727
454.00,0.0733
453.00,0.0737
452.00,0.0733
451.00,0.0729
450.00,0.0728
449.00,0.0728
448.00,0.0725
447.00,0.0723
446.00,0.0724
445.00,0.0724
444.00,0.0719
443.00,0.0716
442.00,0.0719
441.00,0.0721
440.00,0.0718
439.00,0.0716
438.00,0.0719
437.00,0.0722
436.00,0.0719
435.00,0.0717
434.00,0.0718
433.00,0.0718
432.00,0.0713
431.00,0.0711
430.00,0.0716
429.00,0.0720
428.00,0.0717
427.00,0.0714
426.00,0.0717
425.00,0.0718
424.00,0.0711
423.00,0.0705
422.00,0.0707
421.00,0.0712
420.00,0.0711
419.00,0.0711
418.00,0.0716
417.00,0.0715
416.00,0.0703
415.00,0.0695
414.00,0.0697
413.00,0.0700
412.00,0.0697
411.00,0.0695
410.00,0.0699
409.00,0.0698
408.00,0.0685
407.00,0.0676
406.00,0.0684
405.00,0.0690
404.00,0.0682
403.00,0.0676
402.00,0.0689
401.00,0.0704
400.00,0.0701
