Created as New Dataset,Sample 974 By YargerLab Date Wednesday, July 30 2025
cm-1,A
4000.00,0.0007
3999.00,0.0007
3998.00,0.0007
3997.00,0.0007
3996.00,0.0007
3995.00,0.0007
3994.00,0.0007
3993.00,0.0007
3992.00,0.0007
3991.00,0.0007
3990.00,0.0007
3989.00,0.0007
3988.00,0.0007
3987.00,0.0008
3986.00,0.0008
3985.00,0.0008
3984.00,0.0008
3983.00,0.0007
3982.00,0.0007
3981.00,0.0007
3980.00,0.0007
3979.00,0.0007
3978.00,0.0007
3977.00,0.0007
3976.00,0.0007
3975.00,0.0007
3974.00,0.0007
3973.00,0.0007
3972.00,0.0006
3971.00,0.0006
3970.00,0.0006
3969.00,0.0006
3968.00,0.0007
3967.00,0.0007
3966.00,0.0007
3965.00,0.0007
3964.00,0.0007
3963.00,0.0007
3962.00,0.0007
3961.00,0.0007
3960.00,0.0007
3959.00,0.0007
3958.00,0.0007
3957.00,0.0007
3956.00,0.0007
3955.00,0.0007
3954.00,0.0007
3953.00,0.0007
3952.00,0.0007
3951.00,0.0007
3950.00,0.0007
3949.00,0.0007
3948.00,0.0007
3947.00,0.0007
3946.00,0.0007
3945.00,0.0007
3944.00,0.0007
3943.00,0.0007
3942.00,0.0007
3941.00,0.0007
3940.00,0.0007
3939.00,0.0007
3938.00,0.0007
3937.00,0.0007
3936.00,0.0007
3935.00,0.0007
3934.00,0.0007
3933.00,0.0007
3932.00,0.0006
3931.00,0.0006
3930.00,0.0006
3929.00,0.0006
3928.00,0.0007
3927.00,0.0007
3926.00,0.0007
3925.00,0.0007
3924.00,0.0007
3923.00,0.0007
3922.00,0.0007
3921.00,0.0007
3920.00,0.0007
3919.00,0.0007
3918.00,0.0007
3917.00,0.0007
3916.00,0.0007
3915.00,0.0007
3914.00,0.0007
3913.00,0.0007
3912.00,0.0007
3911.00,0.0007
3910.00,0.0007
3909.00,0.0006
3908.00,0.0006
3907.00,0.0006
3906.00,0.0007
3905.00,0.0007
3904.00,0.0007
3903.00,0.0007
3902.00,0.0007
3901.00,0.0006
3900.00,0.0006
3899.00,0.0006
3898.00,0.0006
3897.00,0.0006
3896.00,0.0006
3895.00,0.0006
3894.00,0.0006
3893.00,0.0006
3892.00,0.0006
3891.00,0.0007
3890.00,0.0007
3889.00,0.0007
3888.00,0.0007
3887.00,0.0006
3886.00,0.0006
3885.00,0.0006
3884.00,0.0007
3883.00,0.0006
3882.00,0.0006
3881.00,0.0006
3880.00,0.0006
3879.00,0.0007
3878.00,0.0007
3877.00,0.0007
3876.00,0.0007
3875.00,0.0007
3874.00,0.0007
3873.00,0.0007
3872.00,0.0007
3871.00,0.0007
3870.00,0.0007
3869.00,0.0007
3868.00,0.0007
3867.00,0.0006
3866.00,0.0006
3865.00,0.0006
3864.00,0.0006
3863.00,0.0006
3862.00,0.0006
3861.00,0.0007
3860.00,0.0007
3859.00,0.0007
3858.00,0.0007
3857.00,0.0006
3856.00,0.0006
3855.00,0.0006
3854.00,0.0006
3853.00,0.0006
3852.00,0.0006
3851.00,0.0006
3850.00,0.0006
3849.00,0.0006
3848.00,0.0006
3847.00,0.0007
3846.00,0.0007
3845.00,0.0007
3844.00,0.0007
3843.00,0.0007
3842.00,0.0007
3841.00,0.0007
3840.00,0.0007
3839.00,0.0007
3838.00,0.0007
3837.00,0.0007
3836.00,0.0006
3835.00,0.0006
3834.00,0.0006
3833.00,0.0006
3832.00,0.0006
3831.00,0.0006
3830.00,0.0007
3829.00,0.0007
3828.00,0.0007
3827.00,0.0007
3826.00,0.0007
3825.00,0.0007
3824.00,0.0007
3823.00,0.0007
3822.00,0.0007
3821.00,0.0007
3820.00,0.0007
3819.00,0.0007
3818.00,0.0006
3817.00,0.0006
3816.00,0.0006
3815.00,0.0007
3814.00,0.0007
3813.00,0.0007
3812.00,0.0006
3811.00,0.0006
3810.00,0.0006
3809.00,0.0006
3808.00,0.0006
3807.00,0.0007
3806.00,0.0007
3805.00,0.0007
3804.00,0.0006
3803.00,0.0006
3802.00,0.0006
3801.00,0.0006
3800.00,0.0006
3799.00,0.0006
3798.00,0.0006
3797.00,0.0006
3796.00,0.0006
3795.00,0.0007
3794.00,0.0007
3793.00,0.0007
3792.00,0.0007
3791.00,0.0007
3790.00,0.0008
3789.00,0.0008
3788.00,0.0008
3787.00,0.0008
3786.00,0.0007
3785.00,0.0007
3784.00,0.0007
3783.00,0.0007
3782.00,0.0007
3781.00,0.0007
3780.00,0.0007
3779.00,0.0007
3778.00,0.0007
3777.00,0.0007
3776.00,0.0007
3775.00,0.0007
3774.00,0.0007
3773.00,0.0007
3772.00,0.0007
3771.00,0.0007
3770.00,0.0008
3769.00,0.0008
3768.00,0.0007
3767.00,0.0007
3766.00,0.0007
3765.00,0.0007
3764.00,0.0007
3763.00,0.0007
3762.00,0.0007
3761.00,0.0007
3760.00,0.0007
3759.00,0.0007
3758.00,0.0007
3757.00,0.0007
3756.00,0.0007
3755.00,0.0007
3754.00,0.0007
3753.00,0.0007
3752.00,0.0007
3751.00,0.0007
3750.00,0.0007
3749.00,0.0007
3748.00,0.0007
3747.00,0.0006
3746.00,0.0006
3745.00,0.0006
3744.00,0.0006
3743.00,0.0007
3742.00,0.0007
3741.00,0.0007
3740.00,0.0007
3739.00,0.0007
3738.00,0.0007
3737.00,0.0007
3736.00,0.0007
3735.00,0.0006
3734.00,0.0006
3733.00,0.0006
3732.00,0.0006
3731.00,0.0007
3730.00,0.0007
3729.00,0.0007
3728.00,0.0007
3727.00,0.0007
3726.00,0.0007
3725.00,0.0007
3724.00,0.0007
3723.00,0.0007
3722.00,0.0007
3721.00,0.0007
3720.00,0.0007
3719.00,0.0006
3718.00,0.0006
3717.00,0.0006
3716.00,0.0006
3715.00,0.0007
3714.00,0.0007
3713.00,0.0007
3712.00,0.0007
3711.00,0.0007
3710.00,0.0007
3709.00,0.0007
3708.00,0.0007
3707.00,0.0006
3706.00,0.0007
3705.00,0.0007
3704.00,0.0006
3703.00,0.0006
3702.00,0.0006
3701.00,0.0006
3700.00,0.0006
3699.00,0.0006
3698.00,0.0006
3697.00,0.0006
3696.00,0.0006
3695.00,0.0006
3694.00,0.0006
3693.00,0.0007
3692.00,0.0007
3691.00,0.0007
3690.00,0.0007
3689.00,0.0007
3688.00,0.0007
3687.00,0.0007
3686.00,0.0007
3685.00,0.0007
3684.00,0.0007
3683.00,0.0007
3682.00,0.0007
3681.00,0.0007
3680.00,0.0008
3679.00,0.0008
3678.00,0.0008
3677.00,0.0008
3676.00,0.0008
3675.00,0.0008
3674.00,0.0009
3673.00,0.0008
3672.00,0.0008
3671.00,0.0008
3670.00,0.0008
3669.00,0.0008
3668.00,0.0008
3667.00,0.0008
3666.00,0.0008
3665.00,0.0008
3664.00,0.0009
3663.00,0.0009
3662.00,0.0010
3661.00,0.0010
3660.00,0.0010
3659.00,0.0010
3658.00,0.0009
3657.00,0.0009
3656.00,0.0010
3655.00,0.0010
3654.00,0.0010
3653.00,0.0011
3652.00,0.0011
3651.00,0.0011
3650.00,0.0012
3649.00,0.0012
3648.00,0.0011
3647.00,0.0011
3646.00,0.0011
3645.00,0.0011
3644.00,0.0012
3643.00,0.0012
3642.00,0.0013
3641.00,0.0013
3640.00,0.0013
3639.00,0.0014
3638.00,0.0014
3637.00,0.0014
3636.00,0.0014
3635.00,0.0014
3634.00,0.0015
3633.00,0.0015
3632.00,0.0015
3631.00,0.0014
3630.00,0.0014
3629.00,0.0014
3628.00,0.0015
3627.00,0.0015
3626.00,0.0015
3625.00,0.0015
3624.00,0.0016
3623.00,0.0016
3622.00,0.0016
3621.00,0.0016
3620.00,0.0016
3619.00,0.0016
3618.00,0.0016
3617.00,0.0017
3616.00,0.0017
3615.00,0.0017
3614.00,0.0018
3613.00,0.0018
3612.00,0.0019
3611.00,0.0019
3610.00,0.0019
3609.00,0.0020
3608.00,0.0020
3607.00,0.0021
3606.00,0.0021
3605.00,0.0021
3604.00,0.0022
3603.00,0.0022
3602.00,0.0022
3601.00,0.0022
3600.00,0.0023
3599.00,0.0023
3598.00,0.0023
3597.00,0.0023
3596.00,0.0024
3595.00,0.0024
3594.00,0.0024
3593.00,0.0025
3592.00,0.0025
3591.00,0.0025
3590.00,0.0026
3589.00,0.0026
3588.00,0.0027
3587.00,0.0027
3586.00,0.0028
3585.00,0.0028
3584.00,0.0028
3583.00,0.0029
3582.00,0.0029
3581.00,0.0030
3580.00,0.0030
3579.00,0.0030
3578.00,0.0031
3577.00,0.0031
3576.00,0.0031
3575.00,0.0032
3574.00,0.0032
3573.00,0.0033
3572.00,0.0033
3571.00,0.0034
3570.00,0.0035
3569.00,0.0035
3568.00,0.0035
3567.00,0.0036
3566.00,0.0036
3565.00,0.0036
3564.00,0.0037
3563.00,0.0037
3562.00,0.0037
3561.00,0.0037
3560.00,0.0038
3559.00,0.0038
3558.00,0.0038
3557.00,0.0039
3556.00,0.0039
3555.00,0.0040
3554.00,0.0040
3553.00,0.0041
3552.00,0.0041
3551.00,0.0042
3550.00,0.0042
3549.00,0.0042
3548.00,0.0043
3547.00,0.0043
3546.00,0.0043
3545.00,0.0044
3544.00,0.0044
3543.00,0.0044
3542.00,0.0044
3541.00,0.0044
3540.00,0.0045
3539.00,0.0045
3538.00,0.0045
3537.00,0.0046
3536.00,0.0046
3535.00,0.0047
3534.00,0.0047
3533.00,0.0047
3532.00,0.0047
3531.00,0.0047
3530.00,0.0047
3529.00,0.0048
3528.00,0.0048
3527.00,0.0048
3526.00,0.0049
3525.00,0.0049
3524.00,0.0049
3523.00,0.0050
3522.00,0.0050
3521.00,0.0050
3520.00,0.0050
3519.00,0.0050
3518.00,0.0050
3517.00,0.0051
3516.00,0.0051
3515.00,0.0051
3514.00,0.0052
3513.00,0.0052
3512.00,0.0052
3511.00,0.0052
3510.00,0.0052
3509.00,0.0052
3508.00,0.0053
3507.00,0.0053
3506.00,0.0053
3505.00,0.0053
3504.00,0.0054
3503.00,0.0054
3502.00,0.0054
3501.00,0.0055
3500.00,0.0055
3499.00,0.0055
3498.00,0.0055
3497.00,0.0055
3496.00,0.0055
3495.00,0.0055
3494.00,0.0056
3493.00,0.0056
3492.00,0.0056
3491.00,0.0056
3490.00,0.0057
3489.00,0.0057
3488.00,0.0057
3487.00,0.0057
3486.00,0.0057
3485.00,0.0057
3484.00,0.0057
3483.00,0.0057
3482.00,0.0057
3481.00,0.0057
3480.00,0.0058
3479.00,0.0058
3478.00,0.0059
3477.00,0.0059
3476.00,0.0059
3475.00,0.0059
3474.00,0.0059
3473.00,0.0059
3472.00,0.0059
3471.00,0.0060
3470.00,0.0060
3469.00,0.0060
3468.00,0.0060
3467.00,0.0060
3466.00,0.0060
3465.00,0.0060
3464.00,0.0060
3463.00,0.0060
3462.00,0.0061
3461.00,0.0061
3460.00,0.0061
3459.00,0.0061
3458.00,0.0061
3457.00,0.0061
3456.00,0.0061
3455.00,0.0061
3454.00,0.0061
3453.00,0.0061
3452.00,0.0061
3451.00,0.0062
3450.00,0.0062
3449.00,0.0062
3448.00,0.0062
3447.00,0.0062
3446.00,0.0062
3445.00,0.0062
3444.00,0.0062
3443.00,0.0061
3442.00,0.0061
3441.00,0.0062
3440.00,0.0062
3439.00,0.0062
3438.00,0.0062
3437.00,0.0062
3436.00,0.0062
3435.00,0.0062
3434.00,0.0062
3433.00,0.0062
3432.00,0.0062
3431.00,0.0062
3430.00,0.0062
3429.00,0.0062
3428.00,0.0061
3427.00,0.0061
3426.00,0.0061
3425.00,0.0061
3424.00,0.0061
3423.00,0.0061
3422.00,0.0061
3421.00,0.0061
3420.00,0.0061
3419.00,0.0061
3418.00,0.0061
3417.00,0.0061
3416.00,0.0061
3415.00,0.0061
3414.00,0.0061
3413.00,0.0061
3412.00,0.0061
3411.00,0.0061
3410.00,0.0061
3409.00,0.0060
3408.00,0.0060
3407.00,0.0060
3406.00,0.0060
3405.00,0.0060
3404.00,0.0060
3403.00,0.0060
3402.00,0.0060
3401.00,0.0060
3400.00,0.0059
3399.00,0.0059
3398.00,0.0060
3397.00,0.0060
3396.00,0.0059
3395.00,0.0059
3394.00,0.0059
3393.00,0.0059
3392.00,0.0059
3391.00,0.0059
3390.00,0.0059
3389.00,0.0059
3388.00,0.0059
3387.00,0.0060
3386.00,0.0060
3385.00,0.0060
3384.00,0.0060
3383.00,0.0059
3382.00,0.0059
3381.00,0.0059
3380.00,0.0059
3379.00,0.0059
3378.00,0.0058
3377.00,0.0058
3376.00,0.0058
3375.00,0.0058
3374.00,0.0058
3373.00,0.0058
3372.00,0.0058
3371.00,0.0058
3370.00,0.0057
3369.00,0.0057
3368.00,0.0057
3367.00,0.0057
3366.00,0.0057
3365.00,0.0057
3364.00,0.0057
3363.00,0.0057
3362.00,0.0057
3361.00,0.0057
3360.00,0.0057
3359.00,0.0057
3358.00,0.0057
3357.00,0.0057
3356.00,0.0057
3355.00,0.0057
3354.00,0.0057
3353.00,0.0057
3352.00,0.0056
3351.00,0.0056
3350.00,0.0056
3349.00,0.0056
3348.00,0.0056
3347.00,0.0056
3346.00,0.0056
3345.00,0.0056
3344.00,0.0056
3343.00,0.0056
3342.00,0.0056
3341.00,0.0056
3340.00,0.0056
3339.00,0.0056
3338.00,0.0055
3337.00,0.0055
3336.00,0.0056
3335.00,0.0056
3334.00,0.0056
3333.00,0.0056
3332.00,0.0056
3331.00,0.0056
3330.00,0.0056
3329.00,0.0055
3328.00,0.0055
3327.00,0.0055
3326.00,0.0055
3325.00,0.0055
3324.00,0.0055
3323.00,0.0055
3322.00,0.0055
3321.00,0.0055
3320.00,0.0055
3319.00,0.0055
3318.00,0.0055
3317.00,0.0055
3316.00,0.0055
3315.00,0.0054
3314.00,0.0054
3313.00,0.0054
3312.00,0.0054
3311.00,0.0054
3310.00,0.0054
3309.00,0.0053
3308.00,0.0053
3307.00,0.0053
3306.00,0.0052
3305.00,0.0053
3304.00,0.0053
3303.00,0.0053
3302.00,0.0053
3301.00,0.0054
3300.00,0.0053
3299.00,0.0053
3298.00,0.0053
3297.00,0.0053
3296.00,0.0052
3295.00,0.0053
3294.00,0.0053
3293.00,0.0053
3292.00,0.0053
3291.00,0.0053
3290.00,0.0053
3289.00,0.0053
3288.00,0.0053
3287.00,0.0053
3286.00,0.0053
3285.00,0.0053
3284.00,0.0053
3283.00,0.0053
3282.00,0.0053
3281.00,0.0053
3280.00,0.0053
3279.00,0.0053
3278.00,0.0052
3277.00,0.0052
3276.00,0.0052
3275.00,0.0052
3274.00,0.0052
3273.00,0.0052
3272.00,0.0052
3271.00,0.0051
3270.00,0.0051
3269.00,0.0051
3268.00,0.0051
3267.00,0.0051
3266.00,0.0051
3265.00,0.0051
3264.00,0.0051
3263.00,0.0051
3262.00,0.0051
3261.00,0.0051
3260.00,0.0051
3259.00,0.0051
3258.00,0.0051
3257.00,0.0051
3256.00,0.0051
3255.00,0.0051
3254.00,0.0051
3253.00,0.0051
3252.00,0.0051
3251.00,0.0051
3250.00,0.0050
3249.00,0.0050
3248.00,0.0049
3247.00,0.0049
3246.00,0.0049
3245.00,0.0049
3244.00,0.0049
3243.00,0.0049
3242.00,0.0049
3241.00,0.0049
3240.00,0.0049
3239.00,0.0049
3238.00,0.0049
3237.00,0.0049
3236.00,0.0049
3235.00,0.0048
3234.00,0.0048
3233.00,0.0048
3232.00,0.0048
3231.00,0.0048
3230.00,0.0048
3229.00,0.0048
3228.00,0.0048
3227.00,0.0048
3226.00,0.0048
3225.00,0.0048
3224.00,0.0048
3223.00,0.0048
3222.00,0.0047
3221.00,0.0047
3220.00,0.0047
3219.00,0.0047
3218.00,0.0047
3217.00,0.0047
3216.00,0.0047
3215.00,0.0047
3214.00,0.0047
3213.00,0.0047
3212.00,0.0046
3211.00,0.0046
3210.00,0.0046
3209.00,0.0046
3208.00,0.0046
3207.00,0.0045
3206.00,0.0045
3205.00,0.0045
3204.00,0.0045
3203.00,0.0045
3202.00,0.0045
3201.00,0.0045
3200.00,0.0045
3199.00,0.0045
3198.00,0.0045
3197.00,0.0045
3196.00,0.0045
3195.00,0.0045
3194.00,0.0045
3193.00,0.0044
3192.00,0.0044
3191.00,0.0044
3190.00,0.0044
3189.00,0.0044
3188.00,0.0044
3187.00,0.0044
3186.00,0.0044
3185.00,0.0044
3184.00,0.0044
3183.00,0.0043
3182.00,0.0043
3181.00,0.0043
3180.00,0.0043
3179.00,0.0042
3178.00,0.0042
3177.00,0.0042
3176.00,0.0042
3175.00,0.0042
3174.00,0.0042
3173.00,0.0043
3172.00,0.0043
3171.00,0.0043
3170.00,0.0043
3169.00,0.0043
3168.00,0.0042
3167.00,0.0042
3166.00,0.0042
3165.00,0.0042
3164.00,0.0042
3163.00,0.0042
3162.00,0.0042
3161.00,0.0042
3160.00,0.0041
3159.00,0.0041
3158.00,0.0041
3157.00,0.0041
3156.00,0.0041
3155.00,0.0041
3154.00,0.0041
3153.00,0.0041
3152.00,0.0041
3151.00,0.0040
3150.00,0.0040
3149.00,0.0040
3148.00,0.0040
3147.00,0.0040
3146.00,0.0040
3145.00,0.0040
3144.00,0.0040
3143.00,0.0040
3142.00,0.0040
3141.00,0.0040
3140.00,0.0040
3139.00,0.0040
3138.00,0.0040
3137.00,0.0040
3136.00,0.0040
3135.00,0.0039
3134.00,0.0039
3133.00,0.0039
3132.00,0.0039
3131.00,0.0038
3130.00,0.0038
3129.00,0.0038
3128.00,0.0039
3127.00,0.0039
3126.00,0.0039
3125.00,0.0039
3124.00,0.0038
3123.00,0.0038
3122.00,0.0038
3121.00,0.0038
3120.00,0.0038
3119.00,0.0038
3118.00,0.0038
3117.00,0.0038
3116.00,0.0038
3115.00,0.0038
3114.00,0.0038
3113.00,0.0038
3112.00,0.0038
3111.00,0.0038
3110.00,0.0037
3109.00,0.0037
3108.00,0.0037
3107.00,0.0037
3106.00,0.0037
3105.00,0.0037
3104.00,0.0037
3103.00,0.0037
3102.00,0.0036
3101.00,0.0036
3100.00,0.0036
3099.00,0.0036
3098.00,0.0036
3097.00,0.0036
3096.00,0.0036
3095.00,0.0036
3094.00,0.0036
3093.00,0.0036
3092.00,0.0036
3091.00,0.0036
3090.00,0.0036
3089.00,0.0036
3088.00,0.0036
3087.00,0.0036
3086.00,0.0036
3085.00,0.0036
3084.00,0.0036
3083.00,0.0036
3082.00,0.0036
3081.00,0.0036
3080.00,0.0036
3079.00,0.0036
3078.00,0.0036
3077.00,0.0036
3076.00,0.0036
3075.00,0.0036
3074.00,0.0036
3073.00,0.0036
3072.00,0.0036
3071.00,0.0036
3070.00,0.0036
3069.00,0.0035
3068.00,0.0035
3067.00,0.0035
3066.00,0.0034
3065.00,0.0034
3064.00,0.0034
3063.00,0.0034
3062.00,0.0034
3061.00,0.0034
3060.00,0.0034
3059.00,0.0034
3058.00,0.0034
3057.00,0.0034
3056.00,0.0034
3055.00,0.0034
3054.00,0.0034
3053.00,0.0034
3052.00,0.0034
3051.00,0.0034
3050.00,0.0034
3049.00,0.0034
3048.00,0.0034
3047.00,0.0034
3046.00,0.0034
3045.00,0.0034
3044.00,0.0033
3043.00,0.0033
3042.00,0.0033
3041.00,0.0033
3040.00,0.0033
3039.00,0.0033
3038.00,0.0033
3037.00,0.0033
3036.00,0.0033
3035.00,0.0033
3034.00,0.0033
3033.00,0.0033
3032.00,0.0033
3031.00,0.0033
3030.00,0.0033
3029.00,0.0033
3028.00,0.0033
3027.00,0.0033
3026.00,0.0033
3025.00,0.0033
3024.00,0.0033
3023.00,0.0033
3022.00,0.0033
3021.00,0.0034
3020.00,0.0034
3019.00,0.0034
3018.00,0.0034
3017.00,0.0035
3016.00,0.0035
3015.00,0.0035
3014.00,0.0035
3013.00,0.0035
3012.00,0.0036
3011.00,0.0036
3010.00,0.0037
3009.00,0.0038
3008.00,0.0038
3007.00,0.0039
3006.00,0.0040
3005.00,0.0041
3004.00,0.0042
3003.00,0.0043
3002.00,0.0045
3001.00,0.0046
3000.00,0.0047
2999.00,0.0049
2998.00,0.0051
2997.00,0.0052
2996.00,0.0054
2995.00,0.0056
2994.00,0.0058
2993.00,0.0059
2992.00,0.0061
2991.00,0.0064
2990.00,0.0066
2989.00,0.0068
2988.00,0.0070
2987.00,0.0072
2986.00,0.0074
2985.00,0.0076
2984.00,0.0078
2983.00,0.0079
2982.00,0.0081
2981.00,0.0082
2980.00,0.0083
2979.00,0.0085
2978.00,0.0086
2977.00,0.0087
2976.00,0.0088
2975.00,0.0088
2974.00,0.0089
2973.00,0.0090
2972.00,0.0091
2971.00,0.0092
2970.00,0.0093
2969.00,0.0094
2968.00,0.0095
2967.00,0.0097
2966.00,0.0098
2965.00,0.0099
2964.00,0.0101
2963.00,0.0102
2962.00,0.0103
2961.00,0.0104
2960.00,0.0106
2959.00,0.0107
2958.00,0.0108
2957.00,0.0109
2956.00,0.0110
2955.00,0.0111
2954.00,0.0112
2953.00,0.0112
2952.00,0.0113
2951.00,0.0113
2950.00,0.0113
2949.00,0.0113
2948.00,0.0112
2947.00,0.0112
2946.00,0.0112
2945.00,0.0112
2944.00,0.0111
2943.00,0.0111
2942.00,0.0111
2941.00,0.0110
2940.00,0.0110
2939.00,0.0111
2938.00,0.0111
2937.00,0.0111
2936.00,0.0112
2935.00,0.0113
2934.00,0.0114
2933.00,0.0114
2932.00,0.0115
2931.00,0.0116
2930.00,0.0117
2929.00,0.0118
2928.00,0.0118
2927.00,0.0118
2926.00,0.0119
2925.00,0.0118
2924.00,0.0118
2923.00,0.0118
2922.00,0.0117
2921.00,0.0116
2920.00,0.0116
2919.00,0.0115
2918.00,0.0114
2917.00,0.0113
2916.00,0.0112
2915.00,0.0110
2914.00,0.0108
2913.00,0.0107
2912.00,0.0105
2911.00,0.0103
2910.00,0.0101
2909.00,0.0099
2908.00,0.0098
2907.00,0.0096
2906.00,0.0095
2905.00,0.0094
2904.00,0.0093
2903.00,0.0092
2902.00,0.0092
2901.00,0.0091
2900.00,0.0091
2899.00,0.0091
2898.00,0.0091
2897.00,0.0091
2896.00,0.0091
2895.00,0.0091
2894.00,0.0091
2893.00,0.0091
2892.00,0.0091
2891.00,0.0091
2890.00,0.0090
2889.00,0.0090
2888.00,0.0090
2887.00,0.0090
2886.00,0.0090
2885.00,0.0089
2884.00,0.0089
2883.00,0.0089
2882.00,0.0089
2881.00,0.0090
2880.00,0.0090
2879.00,0.0090
2878.00,0.0090
2877.00,0.0090
2876.00,0.0090
2875.00,0.0091
2874.00,0.0091
2873.00,0.0091
2872.00,0.0091
2871.00,0.0091
2870.00,0.0091
2869.00,0.0091
2868.00,0.0090
2867.00,0.0090
2866.00,0.0089
2865.00,0.0089
2864.00,0.0088
2863.00,0.0088
2862.00,0.0088
2861.00,0.0088
2860.00,0.0087
2859.00,0.0087
2858.00,0.0086
2857.00,0.0085
2856.00,0.0084
2855.00,0.0083
2854.00,0.0081
2853.00,0.0079
2852.00,0.0077
2851.00,0.0075
2850.00,0.0073
2849.00,0.0070
2848.00,0.0068
2847.00,0.0066
2846.00,0.0064
2845.00,0.0063
2844.00,0.0061
2843.00,0.0059
2842.00,0.0057
2841.00,0.0056
2840.00,0.0055
2839.00,0.0053
2838.00,0.0052
2837.00,0.0051
2836.00,0.0049
2835.00,0.0048
2834.00,0.0047
2833.00,0.0046
2832.00,0.0045
2831.00,0.0045
2830.00,0.0044
2829.00,0.0043
2828.00,0.0042
2827.00,0.0041
2826.00,0.0040
2825.00,0.0039
2824.00,0.0039
2823.00,0.0038
2822.00,0.0037
2821.00,0.0036
2820.00,0.0036
2819.00,0.0035
2818.00,0.0035
2817.00,0.0034
2816.00,0.0034
2815.00,0.0034
2814.00,0.0033
2813.00,0.0033
2812.00,0.0032
2811.00,0.0031
2810.00,0.0031
2809.00,0.0030
2808.00,0.0030
2807.00,0.0030
2806.00,0.0029
2805.00,0.0029
2804.00,0.0029
2803.00,0.0028
2802.00,0.0028
2801.00,0.0027
2800.00,0.0027
2799.00,0.0027
2798.00,0.0027
2797.00,0.0026
2796.00,0.0026
2795.00,0.0026
2794.00,0.0026
2793.00,0.0026
2792.00,0.0025
2791.00,0.0025
2790.00,0.0025
2789.00,0.0024
2788.00,0.0024
2787.00,0.0024
2786.00,0.0024
2785.00,0.0024
2784.00,0.0024
2783.00,0.0024
2782.00,0.0024
2781.00,0.0024
2780.00,0.0023
2779.00,0.0023
2778.00,0.0023
2777.00,0.0023
2776.00,0.0022
2775.00,0.0022
2774.00,0.0022
2773.00,0.0022
2772.00,0.0022
2771.00,0.0022
2770.00,0.0022
2769.00,0.0022
2768.00,0.0022
2767.00,0.0022
2766.00,0.0021
2765.00,0.0021
2764.00,0.0021
2763.00,0.0021
2762.00,0.0021
2761.00,0.0021
2760.00,0.0021
2759.00,0.0021
2758.00,0.0021
2757.00,0.0021
2756.00,0.0021
2755.00,0.0021
2754.00,0.0021
2753.00,0.0021
2752.00,0.0021
2751.00,0.0021
2750.00,0.0021
2749.00,0.0021
2748.00,0.0021
2747.00,0.0021
2746.00,0.0021
2745.00,0.0021
2744.00,0.0021
2743.00,0.0021
2742.00,0.0021
2741.00,0.0021
2740.00,0.0021
2739.00,0.0021
2738.00,0.0021
2737.00,0.0021
2736.00,0.0021
2735.00,0.0021
2734.00,0.0021
2733.00,0.0021
2732.00,0.0021
2731.00,0.0021
2730.00,0.0021
2729.00,0.0021
2728.00,0.0021
2727.00,0.0021
2726.00,0.0021
2725.00,0.0021
2724.00,0.0020
2723.00,0.0020
2722.00,0.0020
2721.00,0.0020
2720.00,0.0020
2719.00,0.0020
2718.00,0.0020
2717.00,0.0020
2716.00,0.0020
2715.00,0.0020
2714.00,0.0020
2713.00,0.0020
2712.00,0.0020
2711.00,0.0020
2710.00,0.0020
2709.00,0.0020
2708.00,0.0020
2707.00,0.0019
2706.00,0.0019
2705.00,0.0019
2704.00,0.0019
2703.00,0.0019
2702.00,0.0019
2701.00,0.0019
2700.00,0.0019
2699.00,0.0019
2698.00,0.0019
2697.00,0.0019
2696.00,0.0019
2695.00,0.0018
2694.00,0.0018
2693.00,0.0018
2692.00,0.0018
2691.00,0.0018
2690.00,0.0018
2689.00,0.0018
2688.00,0.0018
2687.00,0.0018
2686.00,0.0018
2685.00,0.0018
2684.00,0.0018
2683.00,0.0018
2682.00,0.0018
2681.00,0.0018
2680.00,0.0018
2679.00,0.0018
2678.00,0.0018
2677.00,0.0018
2676.00,0.0018
2675.00,0.0017
2674.00,0.0017
2673.00,0.0017
2672.00,0.0017
2671.00,0.0018
2670.00,0.0018
2669.00,0.0018
2668.00,0.0018
2667.00,0.0018
2666.00,0.0018
2665.00,0.0019
2664.00,0.0019
2663.00,0.0019
2662.00,0.0020
2661.00,0.0020
2660.00,0.0020
2659.00,0.0020
2658.00,0.0021
2657.00,0.0021
2656.00,0.0021
2655.00,0.0021
2654.00,0.0021
2653.00,0.0021
2652.00,0.0021
2651.00,0.0021
2650.00,0.0020
2649.00,0.0020
2648.00,0.0020
2647.00,0.0020
2646.00,0.0020
2645.00,0.0020
2644.00,0.0020
2643.00,0.0020
2642.00,0.0020
2641.00,0.0020
2640.00,0.0020
2639.00,0.0020
2638.00,0.0020
2637.00,0.0020
2636.00,0.0020
2635.00,0.0020
2634.00,0.0019
2633.00,0.0019
2632.00,0.0019
2631.00,0.0019
2630.00,0.0019
2629.00,0.0019
2628.00,0.0018
2627.00,0.0018
2626.00,0.0019
2625.00,0.0019
2624.00,0.0018
2623.00,0.0018
2622.00,0.0018
2621.00,0.0018
2620.00,0.0018
2619.00,0.0018
2618.00,0.0018
2617.00,0.0018
2616.00,0.0018
2615.00,0.0018
2614.00,0.0017
2613.00,0.0017
2612.00,0.0017
2611.00,0.0017
2610.00,0.0017
2609.00,0.0016
2608.00,0.0016
2607.00,0.0016
2606.00,0.0016
2605.00,0.0016
2604.00,0.0016
2603.00,0.0016
2602.00,0.0016
2601.00,0.0016
2600.00,0.0016
2599.00,0.0016
2598.00,0.0016
2597.00,0.0016
2596.00,0.0016
2595.00,0.0016
2594.00,0.0016
2593.00,0.0015
2592.00,0.0016
2591.00,0.0016
2590.00,0.0016
2589.00,0.0016
2588.00,0.0016
2587.00,0.0016
2586.00,0.0015
2585.00,0.0015
2584.00,0.0015
2583.00,0.0015
2582.00,0.0015
2581.00,0.0015
2580.00,0.0015
2579.00,0.0015
2578.00,0.0015
2577.00,0.0015
2576.00,0.0015
2575.00,0.0015
2574.00,0.0015
2573.00,0.0015
2572.00,0.0015
2571.00,0.0015
2570.00,0.0015
2569.00,0.0015
2568.00,0.0015
2567.00,0.0014
2566.00,0.0014
2565.00,0.0014
2564.00,0.0014
2563.00,0.0014
2562.00,0.0015
2561.00,0.0015
2560.00,0.0015
2559.00,0.0014
2558.00,0.0014
2557.00,0.0014
2556.00,0.0013
2555.00,0.0013
2554.00,0.0013
2553.00,0.0013
2552.00,0.0012
2551.00,0.0013
2550.00,0.0013
2549.00,0.0013
2548.00,0.0013
2547.00,0.0013
2546.00,0.0012
2545.00,0.0012
2544.00,0.0012
2543.00,0.0012
2542.00,0.0012
2541.00,0.0012
2540.00,0.0012
2539.00,0.0012
2538.00,0.0012
2537.00,0.0012
2536.00,0.0012
2535.00,0.0011
2534.00,0.0011
2533.00,0.0011
2532.00,0.0011
2531.00,0.0011
2530.00,0.0011
2529.00,0.0011
2528.00,0.0011
2527.00,0.0011
2526.00,0.0011
2525.00,0.0011
2524.00,0.0011
2523.00,0.0011
2522.00,0.0010
2521.00,0.0010
2520.00,0.0011
2519.00,0.0011
2518.00,0.0011
2517.00,0.0011
2516.00,0.0010
2515.00,0.0010
2514.00,0.0010
2513.00,0.0010
2512.00,0.0010
2511.00,0.0010
2510.00,0.0010
2509.00,0.0010
2508.00,0.0010
2507.00,0.0009
2506.00,0.0009
2505.00,0.0009
2504.00,0.0009
2503.00,0.0009
2502.00,0.0009
2501.00,0.0009
2500.00,0.0009
2499.00,0.0009
2498.00,0.0009
2497.00,0.0009
2496.00,0.0009
2495.00,0.0009
2494.00,0.0009
2493.00,0.0009
2492.00,0.0009
2491.00,0.0010
2490.00,0.0010
2489.00,0.0010
2488.00,0.0010
2487.00,0.0010
2486.00,0.0010
2485.00,0.0009
2484.00,0.0009
2483.00,0.0008
2482.00,0.0008
2481.00,0.0008
2480.00,0.0009
2479.00,0.0009
2478.00,0.0009
2477.00,0.0009
2476.00,0.0009
2475.00,0.0009
2474.00,0.0009
2473.00,0.0009
2472.00,0.0009
2471.00,0.0009
2470.00,0.0009
2469.00,0.0009
2468.00,0.0009
2467.00,0.0009
2466.00,0.0009
2465.00,0.0009
2464.00,0.0009
2463.00,0.0010
2462.00,0.0010
2461.00,0.0010
2460.00,0.0010
2459.00,0.0010
2458.00,0.0010
2457.00,0.0010
2456.00,0.0010
2455.00,0.0010
2454.00,0.0010
2453.00,0.0010
2452.00,0.0009
2451.00,0.0009
2450.00,0.0009
2449.00,0.0009
2448.00,0.0009
2447.00,0.0009
2446.00,0.0009
2445.00,0.0009
2444.00,0.0009
2443.00,0.0009
2442.00,0.0009
2441.00,0.0009
2440.00,0.0009
2439.00,0.0009
2438.00,0.0009
2437.00,0.0008
2436.00,0.0009
2435.00,0.0009
2434.00,0.0009
2433.00,0.0009
2432.00,0.0009
2431.00,0.0009
2430.00,0.0008
2429.00,0.0008
2428.00,0.0008
2427.00,0.0008
2426.00,0.0008
2425.00,0.0007
2424.00,0.0007
2423.00,0.0007
2422.00,0.0007
2421.00,0.0007
2420.00,0.0007
2419.00,0.0007
2418.00,0.0007
2417.00,0.0008
2416.00,0.0008
2415.00,0.0008
2414.00,0.0008
2413.00,0.0007
2412.00,0.0007
2411.00,0.0007
2410.00,0.0007
2409.00,0.0008
2408.00,0.0007
2407.00,0.0007
2406.00,0.0006
2405.00,0.0006
2404.00,0.0005
2403.00,0.0005
2402.00,0.0005
2401.00,0.0005
2400.00,0.0006
2399.00,0.0006
2398.00,0.0006
2397.00,0.0006
2396.00,0.0006
2395.00,0.0006
2394.00,0.0006
2393.00,0.0006
2392.00,0.0006
2391.00,0.0006
2390.00,0.0006
2389.00,0.0005
2388.00,0.0005
2387.00,0.0005
2386.00,0.0004
2385.00,0.0004
2384.00,0.0004
2383.00,0.0004
2382.00,0.0004
2381.00,0.0004
2380.00,0.0003
2379.00,0.0003
2378.00,0.0003
2377.00,0.0003
2376.00,0.0004
2375.00,0.0004
2374.00,0.0004
2373.00,0.0004
2372.00,0.0003
2371.00,0.0003
2370.00,0.0002
2369.00,0.0003
2368.00,0.0003
2367.00,0.0004
2366.00,0.0004
2365.00,0.0005
2364.00,0.0005
2363.00,0.0006
2362.00,0.0006
2361.00,0.0006
2360.00,0.0006
2359.00,0.0006
2358.00,0.0005
2357.00,0.0005
2356.00,0.0005
2355.00,0.0006
2354.00,0.0006
2353.00,0.0006
2352.00,0.0006
2351.00,0.0006
2350.00,0.0006
2349.00,0.0007
2348.00,0.0008
2347.00,0.0010
2346.00,0.0011
2345.00,0.0011
2344.00,0.0010
2343.00,0.0009
2342.00,0.0008
2341.00,0.0008
2340.00,0.0009
2339.00,0.0009
2338.00,0.0009
2337.00,0.0009
2336.00,0.0008
2335.00,0.0008
2334.00,0.0007
2333.00,0.0007
2332.00,0.0007
2331.00,0.0007
2330.00,0.0008
2329.00,0.0009
2328.00,0.0012
2327.00,0.0016
2326.00,0.0018
2325.00,0.0020
2324.00,0.0019
2323.00,0.0017
2322.00,0.0015
2321.00,0.0014
2320.00,0.0013
2319.00,0.0012
2318.00,0.0011
2317.00,0.0011
2316.00,0.0011
2315.00,0.0011
2314.00,0.0011
2313.00,0.0011
2312.00,0.0011
2311.00,0.0011
2310.00,0.0011
2309.00,0.0011
2308.00,0.0011
2307.00,0.0011
2306.00,0.0011
2305.00,0.0011
2304.00,0.0011
2303.00,0.0012
2302.00,0.0012
2301.00,0.0013
2300.00,0.0013
2299.00,0.0013
2298.00,0.0014
2297.00,0.0014
2296.00,0.0014
2295.00,0.0014
2294.00,0.0015
2293.00,0.0016
2292.00,0.0016
2291.00,0.0017
2290.00,0.0017
2289.00,0.0018
2288.00,0.0018
2287.00,0.0018
2286.00,0.0018
2285.00,0.0017
2284.00,0.0017
2283.00,0.0016
2282.00,0.0016
2281.00,0.0016
2280.00,0.0016
2279.00,0.0016
2278.00,0.0015
2277.00,0.0015
2276.00,0.0015
2275.00,0.0015
2274.00,0.0015
2273.00,0.0016
2272.00,0.0015
2271.00,0.0015
2270.00,0.0014
2269.00,0.0013
2268.00,0.0012
2267.00,0.0011
2266.00,0.0010
2265.00,0.0010
2264.00,0.0010
2263.00,0.0010
2262.00,0.0010
2261.00,0.0011
2260.00,0.0012
2259.00,0.0012
2258.00,0.0012
2257.00,0.0011
2256.00,0.0010
2255.00,0.0009
2254.00,0.0008
2253.00,0.0008
2252.00,0.0008
2251.00,0.0009
2250.00,0.0009
2249.00,0.0010
2248.00,0.0011
2247.00,0.0011
2246.00,0.0011
2245.00,0.0012
2244.00,0.0012
2243.00,0.0012
2242.00,0.0012
2241.00,0.0011
2240.00,0.0011
2239.00,0.0010
2238.00,0.0010
2237.00,0.0010
2236.00,0.0011
2235.00,0.0012
2234.00,0.0012
2233.00,0.0013
2232.00,0.0012
2231.00,0.0012
2230.00,0.0011
2229.00,0.0010
2228.00,0.0010
2227.00,0.0010
2226.00,0.0010
2225.00,0.0010
2224.00,0.0010
2223.00,0.0011
2222.00,0.0011
2221.00,0.0011
2220.00,0.0011
2219.00,0.0010
2218.00,0.0009
2217.00,0.0008
2216.00,0.0008
2215.00,0.0008
2214.00,0.0009
2213.00,0.0010
2212.00,0.0010
2211.00,0.0010
2210.00,0.0010
2209.00,0.0010
2208.00,0.0010
2207.00,0.0009
2206.00,0.0010
2205.00,0.0010
2204.00,0.0010
2203.00,0.0009
2202.00,0.0009
2201.00,0.0009
2200.00,0.0010
2199.00,0.0010
2198.00,0.0011
2197.00,0.0011
2196.00,0.0012
2195.00,0.0012
2194.00,0.0013
2193.00,0.0014
2192.00,0.0014
2191.00,0.0014
2190.00,0.0014
2189.00,0.0014
2188.00,0.0013
2187.00,0.0012
2186.00,0.0011
2185.00,0.0009
2184.00,0.0008
2183.00,0.0007
2182.00,0.0007
2181.00,0.0007
2180.00,0.0008
2179.00,0.0009
2178.00,0.0008
2177.00,0.0006
2176.00,0.0005
2175.00,0.0005
2174.00,0.0006
2173.00,0.0007
2172.00,0.0009
2171.00,0.0011
2170.00,0.0013
2169.00,0.0016
2168.00,0.0018
2167.00,0.0019
2166.00,0.0020
2165.00,0.0021
2164.00,0.0023
2163.00,0.0024
2162.00,0.0019
2161.00,0.0009
2160.00,-0.0003
2159.00,-0.0015
2158.00,-0.0020
2157.00,-0.0020
2156.00,-0.0016
2155.00,-0.0012
2154.00,-0.0008
2153.00,-0.0005
2152.00,-0.0002
2151.00,-0.0002
2150.00,-0.0002
2149.00,-0.0003
2148.00,-0.0004
2147.00,-0.0005
2146.00,-0.0006
2145.00,-0.0006
2144.00,-0.0005
2143.00,-0.0005
2142.00,-0.0005
2141.00,-0.0004
2140.00,-0.0004
2139.00,-0.0005
2138.00,-0.0007
2137.00,-0.0009
2136.00,-0.0011
2135.00,-0.0011
2134.00,-0.0011
2133.00,-0.0009
2132.00,-0.0008
2131.00,-0.0006
2130.00,-0.0005
2129.00,-0.0004
2128.00,-0.0003
2127.00,-0.0002
2126.00,-0.0001
2125.00,-0.0001
2124.00,0.0000
2123.00,0.0001
2122.00,0.0002
2121.00,0.0003
2120.00,0.0004
2119.00,0.0005
2118.00,0.0006
2117.00,0.0007
2116.00,0.0008
2115.00,0.0008
2114.00,0.0008
2113.00,0.0008
2112.00,0.0007
2111.00,0.0007
2110.00,0.0007
2109.00,0.0007
2108.00,0.0008
2107.00,0.0008
2106.00,0.0008
2105.00,0.0009
2104.00,0.0010
2103.00,0.0010
2102.00,0.0010
2101.00,0.0009
2100.00,0.0009
2099.00,0.0008
2098.00,0.0007
2097.00,0.0006
2096.00,0.0004
2095.00,0.0004
2094.00,0.0003
2093.00,0.0004
2092.00,0.0004
2091.00,0.0005
2090.00,0.0006
2089.00,0.0007
2088.00,0.0008
2087.00,0.0008
2086.00,0.0009
2085.00,0.0008
2084.00,0.0008
2083.00,0.0009
2082.00,0.0009
2081.00,0.0009
2080.00,0.0010
2079.00,0.0010
2078.00,0.0011
2077.00,0.0011
2076.00,0.0011
2075.00,0.0011
2074.00,0.0011
2073.00,0.0010
2072.00,0.0010
2071.00,0.0009
2070.00,0.0009
2069.00,0.0008
2068.00,0.0009
2067.00,0.0009
2066.00,0.0008
2065.00,0.0008
2064.00,0.0007
2063.00,0.0007
2062.00,0.0006
2061.00,0.0006
2060.00,0.0006
2059.00,0.0007
2058.00,0.0008
2057.00,0.0008
2056.00,0.0009
2055.00,0.0010
2054.00,0.0012
2053.00,0.0016
2052.00,0.0020
2051.00,0.0020
2050.00,0.0017
2049.00,0.0014
2048.00,0.0012
2047.00,0.0011
2046.00,0.0010
2045.00,0.0010
2044.00,0.0011
2043.00,0.0011
2042.00,0.0011
2041.00,0.0011
2040.00,0.0011
2039.00,0.0012
2038.00,0.0011
2037.00,0.0010
2036.00,0.0010
2035.00,0.0008
2034.00,0.0007
2033.00,0.0006
2032.00,0.0006
2031.00,0.0005
2030.00,0.0004
2029.00,0.0002
2028.00,0.0002
2027.00,0.0002
2026.00,0.0002
2025.00,0.0003
2024.00,0.0003
2023.00,0.0003
2022.00,0.0003
2021.00,0.0003
2020.00,0.0002
2019.00,0.0002
2018.00,0.0001
2017.00,0.0000
2016.00,0.0001
2015.00,0.0002
2014.00,0.0002
2013.00,0.0003
2012.00,0.0004
2011.00,0.0005
2010.00,0.0004
2009.00,0.0003
2008.00,0.0001
2007.00,-0.0001
2006.00,-0.0002
2005.00,-0.0002
2004.00,-0.0002
2003.00,-0.0001
2002.00,-0.0000
2001.00,0.0000
2000.00,0.0002
1999.00,0.0004
1998.00,0.0005
1997.00,0.0006
1996.00,0.0007
1995.00,0.0007
1994.00,0.0008
1993.00,0.0008
1992.00,0.0007
1991.00,0.0007
1990.00,0.0006
1989.00,0.0006
1988.00,0.0006
1987.00,0.0007
1986.00,0.0007
1985.00,0.0009
1984.00,0.0012
1983.00,0.0015
1982.00,0.0017
1981.00,0.0017
1980.00,0.0016
1979.00,0.0012
1978.00,0.0006
1977.00,0.0000
1976.00,-0.0003
1975.00,-0.0004
1974.00,-0.0004
1973.00,-0.0003
1972.00,-0.0002
1971.00,-0.0000
1970.00,0.0001
1969.00,0.0001
1968.00,0.0001
1967.00,0.0001
1966.00,-0.0001
1965.00,-0.0002
1964.00,-0.0002
1963.00,-0.0002
1962.00,-0.0003
1961.00,-0.0004
1960.00,-0.0005
1959.00,-0.0005
1958.00,-0.0005
1957.00,-0.0004
1956.00,-0.0003
1955.00,-0.0002
1954.00,-0.0002
1953.00,-0.0002
1952.00,-0.0002
1951.00,-0.0003
1950.00,-0.0003
1949.00,-0.0002
1948.00,-0.0001
1947.00,-0.0001
1946.00,-0.0001
1945.00,-0.0002
1944.00,-0.0002
1943.00,-0.0001
1942.00,-0.0001
1941.00,-0.0001
1940.00,-0.0001
1939.00,-0.0001
1938.00,-0.0001
1937.00,-0.0001
1936.00,-0.0001
1935.00,-0.0001
1934.00,-0.0000
1933.00,-0.0000
1932.00,-0.0000
1931.00,0.0000
1930.00,0.0001
1929.00,0.0000
1928.00,-0.0000
1927.00,-0.0001
1926.00,-0.0001
1925.00,-0.0001
1924.00,-0.0000
1923.00,0.0001
1922.00,0.0001
1921.00,0.0002
1920.00,0.0002
1919.00,0.0003
1918.00,0.0002
1917.00,0.0002
1916.00,0.0002
1915.00,0.0002
1914.00,0.0002
1913.00,0.0002
1912.00,0.0002
1911.00,0.0002
1910.00,0.0003
1909.00,0.0003
1908.00,0.0003
1907.00,0.0003
1906.00,0.0003
1905.00,0.0002
1904.00,0.0002
1903.00,0.0003
1902.00,0.0003
1901.00,0.0003
1900.00,0.0003
1899.00,0.0003
1898.00,0.0003
1897.00,0.0003
1896.00,0.0003
1895.00,0.0003
1894.00,0.0003
1893.00,0.0003
1892.00,0.0004
1891.00,0.0004
1890.00,0.0003
1889.00,0.0003
1888.00,0.0003
1887.00,0.0003
1886.00,0.0003
1885.00,0.0002
1884.00,0.0002
1883.00,0.0003
1882.00,0.0002
1881.00,0.0003
1880.00,0.0003
1879.00,0.0003
1878.00,0.0003
1877.00,0.0003
1876.00,0.0003
1875.00,0.0003
1874.00,0.0003
1873.00,0.0003
1872.00,0.0004
1871.00,0.0004
1870.00,0.0004
1869.00,0.0004
1868.00,0.0004
1867.00,0.0004
1866.00,0.0004
1865.00,0.0004
1864.00,0.0004
1863.00,0.0004
1862.00,0.0004
1861.00,0.0003
1860.00,0.0003
1859.00,0.0004
1858.00,0.0004
1857.00,0.0004
1856.00,0.0005
1855.00,0.0005
1854.00,0.0005
1853.00,0.0005
1852.00,0.0005
1851.00,0.0005
1850.00,0.0005
1849.00,0.0005
1848.00,0.0005
1847.00,0.0005
1846.00,0.0005
1845.00,0.0005
1844.00,0.0004
1843.00,0.0004
1842.00,0.0004
1841.00,0.0004
1840.00,0.0004
1839.00,0.0005
1838.00,0.0005
1837.00,0.0005
1836.00,0.0005
1835.00,0.0005
1834.00,0.0005
1833.00,0.0005
1832.00,0.0005
1831.00,0.0005
1830.00,0.0005
1829.00,0.0004
1828.00,0.0004
1827.00,0.0005
1826.00,0.0005
1825.00,0.0006
1824.00,0.0006
1823.00,0.0006
1822.00,0.0005
1821.00,0.0005
1820.00,0.0004
1819.00,0.0004
1818.00,0.0003
1817.00,0.0003
1816.00,0.0003
1815.00,0.0003
1814.00,0.0004
1813.00,0.0005
1812.00,0.0005
1811.00,0.0006
1810.00,0.0006
1809.00,0.0006
1808.00,0.0006
1807.00,0.0006
1806.00,0.0006
1805.00,0.0006
1804.00,0.0006
1803.00,0.0006
1802.00,0.0006
1801.00,0.0007
1800.00,0.0007
1799.00,0.0007
1798.00,0.0007
1797.00,0.0007
1796.00,0.0007
1795.00,0.0007
1794.00,0.0007
1793.00,0.0007
1792.00,0.0007
1791.00,0.0007
1790.00,0.0007
1789.00,0.0007
1788.00,0.0008
1787.00,0.0008
1786.00,0.0008
1785.00,0.0009
1784.00,0.0009
1783.00,0.0009
1782.00,0.0009
1781.00,0.0009
1780.00,0.0009
1779.00,0.0009
1778.00,0.0009
1777.00,0.0009
1776.00,0.0009
1775.00,0.0009
1774.00,0.0009
1773.00,0.0009
1772.00,0.0009
1771.00,0.0009
1770.00,0.0009
1769.00,0.0010
1768.00,0.0010
1767.00,0.0011
1766.00,0.0011
1765.00,0.0011
1764.00,0.0011
1763.00,0.0011
1762.00,0.0011
1761.00,0.0011
1760.00,0.0011
1759.00,0.0012
1758.00,0.0012
1757.00,0.0012
1756.00,0.0013
1755.00,0.0013
1754.00,0.0013
1753.00,0.0013
1752.00,0.0013
1751.00,0.0014
1750.00,0.0014
1749.00,0.0014
1748.00,0.0015
1747.00,0.0015
1746.00,0.0015
1745.00,0.0015
1744.00,0.0015
1743.00,0.0015
1742.00,0.0015
1741.00,0.0015
1740.00,0.0015
1739.00,0.0016
1738.00,0.0016
1737.00,0.0016
1736.00,0.0016
1735.00,0.0016
1734.00,0.0017
1733.00,0.0017
1732.00,0.0019
1731.00,0.0020
1730.00,0.0021
1729.00,0.0021
1728.00,0.0022
1727.00,0.0023
1726.00,0.0023
1725.00,0.0024
1724.00,0.0025
1723.00,0.0026
1722.00,0.0027
1721.00,0.0027
1720.00,0.0028
1719.00,0.0030
1718.00,0.0032
1717.00,0.0033
1716.00,0.0035
1715.00,0.0037
1714.00,0.0039
1713.00,0.0042
1712.00,0.0045
1711.00,0.0048
1710.00,0.0051
1709.00,0.0055
1708.00,0.0059
1707.00,0.0065
1706.00,0.0071
1705.00,0.0078
1704.00,0.0085
1703.00,0.0090
1702.00,0.0096
1701.00,0.0107
1700.00,0.0124
1699.00,0.0139
1698.00,0.0151
1697.00,0.0164
1696.00,0.0181
1695.00,0.0200
1694.00,0.0217
1693.00,0.0232
1692.00,0.0247
1691.00,0.0262
1690.00,0.0279
1689.00,0.0296
1688.00,0.0311
1687.00,0.0323
1686.00,0.0334
1685.00,0.0349
1684.00,0.0368
1683.00,0.0387
1682.00,0.0401
1681.00,0.0411
1680.00,0.0421
1679.00,0.0430
1678.00,0.0437
1677.00,0.0443
1676.00,0.0450
1675.00,0.0458
1674.00,0.0466
1673.00,0.0472
1672.00,0.0476
1671.00,0.0479
1670.00,0.0483
1669.00,0.0487
1668.00,0.0493
1667.00,0.0498
1666.00,0.0501
1665.00,0.0504
1664.00,0.0506
1663.00,0.0509
1662.00,0.0513
1661.00,0.0517
1660.00,0.0520
1659.00,0.0522
1658.00,0.0523
1657.00,0.0524
1656.00,0.0522
1655.00,0.0518
1654.00,0.0512
1653.00,0.0508
1652.00,0.0507
1651.00,0.0507
1650.00,0.0504
1649.00,0.0497
1648.00,0.0487
1647.00,0.0474
1646.00,0.0461
1645.00,0.0449
1644.00,0.0438
1643.00,0.0427
1642.00,0.0413
1641.00,0.0399
1640.00,0.0384
1639.00,0.0370
1638.00,0.0356
1637.00,0.0340
1636.00,0.0322
1635.00,0.0306
1634.00,0.0293
1633.00,0.0283
1632.00,0.0273
1631.00,0.0264
1630.00,0.0254
1629.00,0.0245
1628.00,0.0238
1627.00,0.0233
1626.00,0.0229
1625.00,0.0227
1624.00,0.0227
1623.00,0.0229
1622.00,0.0231
1621.00,0.0232
1620.00,0.0233
1619.00,0.0232
1618.00,0.0229
1617.00,0.0224
1616.00,0.0218
1615.00,0.0213
1614.00,0.0208
1613.00,0.0204
1612.00,0.0199
1611.00,0.0195
1610.00,0.0190
1609.00,0.0185
1608.00,0.0178
1607.00,0.0170
1606.00,0.0162
1605.00,0.0153
1604.00,0.0144
1603.00,0.0136
1602.00,0.0128
1601.00,0.0120
1600.00,0.0114
1599.00,0.0109
1598.00,0.0106
1597.00,0.0103
1596.00,0.0101
1595.00,0.0101
1594.00,0.0102
1593.00,0.0104
1592.00,0.0108
1591.00,0.0114
1590.00,0.0120
1589.00,0.0127
1588.00,0.0132
1587.00,0.0137
1586.00,0.0139
1585.00,0.0140
1584.00,0.0138
1583.00,0.0134
1582.00,0.0128
1581.00,0.0122
1580.00,0.0116
1579.00,0.0110
1578.00,0.0104
1577.00,0.0098
1576.00,0.0092
1575.00,0.0088
1574.00,0.0085
1573.00,0.0083
1572.00,0.0081
1571.00,0.0078
1570.00,0.0076
1569.00,0.0073
1568.00,0.0071
1567.00,0.0070
1566.00,0.0068
1565.00,0.0067
1564.00,0.0065
1563.00,0.0063
1562.00,0.0061
1561.00,0.0058
1560.00,0.0056
1559.00,0.0055
1558.00,0.0053
1557.00,0.0052
1556.00,0.0052
1555.00,0.0052
1554.00,0.0052
1553.00,0.0052
1552.00,0.0052
1551.00,0.0051
1550.00,0.0051
1549.00,0.0050
1548.00,0.0050
1547.00,0.0049
1546.00,0.0048
1545.00,0.0048
1544.00,0.0047
1543.00,0.0046
1542.00,0.0046
1541.00,0.0046
1540.00,0.0046
1539.00,0.0045
1538.00,0.0045
1537.00,0.0045
1536.00,0.0045
1535.00,0.0045
1534.00,0.0045
1533.00,0.0045
1532.00,0.0045
1531.00,0.0046
1530.00,0.0046
1529.00,0.0047
1528.00,0.0047
1527.00,0.0047
1526.00,0.0048
1525.00,0.0048
1524.00,0.0049
1523.00,0.0049
1522.00,0.0050
1521.00,0.0051
1520.00,0.0052
1519.00,0.0054
1518.00,0.0055
1517.00,0.0057
1516.00,0.0058
1515.00,0.0059
1514.00,0.0060
1513.00,0.0060
1512.00,0.0062
1511.00,0.0063
1510.00,0.0064
1509.00,0.0065
1508.00,0.0067
1507.00,0.0070
1506.00,0.0073
1505.00,0.0077
1504.00,0.0081
1503.00,0.0087
1502.00,0.0093
1501.00,0.0099
1500.00,0.0107
1499.00,0.0115
1498.00,0.0123
1497.00,0.0132
1496.00,0.0138
1495.00,0.0143
1494.00,0.0145
1493.00,0.0144
1492.00,0.0142
1491.00,0.0138
1490.00,0.0132
1489.00,0.0125
1488.00,0.0118
1487.00,0.0111
1486.00,0.0104
1485.00,0.0098
1484.00,0.0092
1483.00,0.0087
1482.00,0.0083
1481.00,0.0080
1480.00,0.0078
1479.00,0.0077
1478.00,0.0077
1477.00,0.0078
1476.00,0.0080
1475.00,0.0083
1474.00,0.0088
1473.00,0.0096
1472.00,0.0106
1471.00,0.0117
1470.00,0.0129
1469.00,0.0141
1468.00,0.0153
1467.00,0.0167
1466.00,0.0182
1465.00,0.0199
1464.00,0.0216
1463.00,0.0228
1462.00,0.0237
1461.00,0.0243
1460.00,0.0245
1459.00,0.0243
1458.00,0.0237
1457.00,0.0227
1456.00,0.0215
1455.00,0.0206
1454.00,0.0198
1453.00,0.0192
1452.00,0.0186
1451.00,0.0182
1450.00,0.0181
1449.00,0.0183
1448.00,0.0187
1447.00,0.0194
1446.00,0.0203
1445.00,0.0212
1444.00,0.0222
1443.00,0.0232
1442.00,0.0243
1441.00,0.0253
1440.00,0.0263
1439.00,0.0271
1438.00,0.0279
1437.00,0.0288
1436.00,0.0299
1435.00,0.0307
1434.00,0.0313
1433.00,0.0317
1432.00,0.0320
1431.00,0.0323
1430.00,0.0327
1429.00,0.0333
1428.00,0.0340
1427.00,0.0348
1426.00,0.0356
1425.00,0.0366
1424.00,0.0377
1423.00,0.0385
1422.00,0.0389
1421.00,0.0389
1420.00,0.0383
1419.00,0.0372
1418.00,0.0357
1417.00,0.0340
1416.00,0.0322
1415.00,0.0302
1414.00,0.0282
1413.00,0.0264
1412.00,0.0248
1411.00,0.0234
1410.00,0.0223
1409.00,0.0214
1408.00,0.0208
1407.00,0.0203
1406.00,0.0200
1405.00,0.0198
1404.00,0.0196
1403.00,0.0194
1402.00,0.0192
1401.00,0.0189
1400.00,0.0183
1399.00,0.0176
1398.00,0.0169
1397.00,0.0161
1396.00,0.0152
1395.00,0.0144
1394.00,0.0136
1393.00,0.0131
1392.00,0.0127
1391.00,0.0124
1390.00,0.0122
1389.00,0.0121
1388.00,0.0122
1387.00,0.0124
1386.00,0.0127
1385.00,0.0131
1384.00,0.0135
1383.00,0.0139
1382.00,0.0144
1381.00,0.0149
1380.00,0.0153
1379.00,0.0156
1378.00,0.0159
1377.00,0.0161
1376.00,0.0162
1375.00,0.0162
1374.00,0.0162
1373.00,0.0161
1372.00,0.0160
1371.00,0.0159
1370.00,0.0157
1369.00,0.0154
1368.00,0.0152
1367.00,0.0150
1366.00,0.0148
1365.00,0.0147
1364.00,0.0146
1363.00,0.0146
1362.00,0.0145
1361.00,0.0144
1360.00,0.0141
1359.00,0.0137
1358.00,0.0132
1357.00,0.0125
1356.00,0.0119
1355.00,0.0112
1354.00,0.0107
1353.00,0.0103
1352.00,0.0100
1351.00,0.0098
1350.00,0.0096
1349.00,0.0095
1348.00,0.0094
1347.00,0.0093
1346.00,0.0093
1345.00,0.0093
1344.00,0.0094
1343.00,0.0094
1342.00,0.0094
1341.00,0.0094
1340.00,0.0094
1339.00,0.0094
1338.00,0.0095
1337.00,0.0095
1336.00,0.0097
1335.00,0.0098
1334.00,0.0100
1333.00,0.0102
1332.00,0.0105
1331.00,0.0107
1330.00,0.0110
1329.00,0.0114
1328.00,0.0117
1327.00,0.0122
1326.00,0.0126
1325.00,0.0131
1324.00,0.0136
1323.00,0.0141
1322.00,0.0146
1321.00,0.0150
1320.00,0.0154
1319.00,0.0157
1318.00,0.0160
1317.00,0.0161
1316.00,0.0160
1315.00,0.0159
1314.00,0.0157
1313.00,0.0154
1312.00,0.0151
1311.00,0.0148
1310.00,0.0146
1309.00,0.0145
1308.00,0.0144
1307.00,0.0145
1306.00,0.0146
1305.00,0.0148
1304.00,0.0152
1303.00,0.0157
1302.00,0.0163
1301.00,0.0171
1300.00,0.0181
1299.00,0.0193
1298.00,0.0208
1297.00,0.0225
1296.00,0.0245
1295.00,0.0266
1294.00,0.0288
1293.00,0.0311
1292.00,0.0333
1291.00,0.0355
1290.00,0.0374
1289.00,0.0391
1288.00,0.0405
1287.00,0.0416
1286.00,0.0422
1285.00,0.0425
1284.00,0.0424
1283.00,0.0420
1282.00,0.0413
1281.00,0.0406
1280.00,0.0398
1279.00,0.0391
1278.00,0.0386
1277.00,0.0384
1276.00,0.0383
1275.00,0.0385
1274.00,0.0387
1273.00,0.0389
1272.00,0.0390
1271.00,0.0390
1270.00,0.0387
1269.00,0.0381
1268.00,0.0374
1267.00,0.0363
1266.00,0.0351
1265.00,0.0338
1264.00,0.0323
1263.00,0.0309
1262.00,0.0294
1261.00,0.0280
1260.00,0.0266
1259.00,0.0254
1258.00,0.0242
1257.00,0.0231
1256.00,0.0221
1255.00,0.0212
1254.00,0.0204
1253.00,0.0197
1252.00,0.0191
1251.00,0.0186
1250.00,0.0183
1249.00,0.0180
1248.00,0.0179
1247.00,0.0179
1246.00,0.0181
1245.00,0.0183
1244.00,0.0186
1243.00,0.0189
1242.00,0.0192
1241.00,0.0195
1240.00,0.0198
1239.00,0.0200
1238.00,0.0202
1237.00,0.0205
1236.00,0.0207
1235.00,0.0209
1234.00,0.0211
1233.00,0.0213
1232.00,0.0214
1231.00,0.0214
1230.00,0.0214
1229.00,0.0214
1228.00,0.0214
1227.00,0.0213
1226.00,0.0212
1225.00,0.0211
1224.00,0.0211
1223.00,0.0210
1222.00,0.0210
1221.00,0.0209
1220.00,0.0209
1219.00,0.0207
1218.00,0.0206
1217.00,0.0203
1216.00,0.0199
1215.00,0.0195
1214.00,0.0190
1213.00,0.0184
1212.00,0.0178
1211.00,0.0172
1210.00,0.0166
1209.00,0.0161
1208.00,0.0156
1207.00,0.0152
1206.00,0.0149
1205.00,0.0147
1204.00,0.0146
1203.00,0.0146
1202.00,0.0147
1201.00,0.0148
1200.00,0.0151
1199.00,0.0153
1198.00,0.0156
1197.00,0.0159
1196.00,0.0162
1195.00,0.0164
1194.00,0.0164
1193.00,0.0163
1192.00,0.0161
1191.00,0.0157
1190.00,0.0152
1189.00,0.0147
1188.00,0.0142
1187.00,0.0137
1186.00,0.0133
1185.00,0.0130
1184.00,0.0127
1183.00,0.0125
1182.00,0.0123
1181.00,0.0122
1180.00,0.0122
1179.00,0.0122
1178.00,0.0122
1177.00,0.0123
1176.00,0.0124
1175.00,0.0125
1174.00,0.0128
1173.00,0.0130
1172.00,0.0132
1171.00,0.0133
1170.00,0.0135
1169.00,0.0136
1168.00,0.0137
1167.00,0.0137
1166.00,0.0137
1165.00,0.0138
1164.00,0.0139
1163.00,0.0141
1162.00,0.0143
1161.00,0.0146
1160.00,0.0149
1159.00,0.0153
1158.00,0.0155
1157.00,0.0156
1156.00,0.0156
1155.00,0.0154
1154.00,0.0151
1153.00,0.0146
1152.00,0.0141
1151.00,0.0135
1150.00,0.0129
1149.00,0.0123
1148.00,0.0117
1147.00,0.0112
1146.00,0.0107
1145.00,0.0103
1144.00,0.0099
1143.00,0.0096
1142.00,0.0093
1141.00,0.0091
1140.00,0.0090
1139.00,0.0090
1138.00,0.0091
1137.00,0.0094
1136.00,0.0097
1135.00,0.0103
1134.00,0.0110
1133.00,0.0119
1132.00,0.0127
1131.00,0.0133
1130.00,0.0138
1129.00,0.0139
1128.00,0.0137
1127.00,0.0132
1126.00,0.0126
1125.00,0.0119
1124.00,0.0113
1123.00,0.0108
1122.00,0.0104
1121.00,0.0102
1120.00,0.0100
1119.00,0.0099
1118.00,0.0099
1117.00,0.0099
1116.00,0.0099
1115.00,0.0099
1114.00,0.0099
1113.00,0.0100
1112.00,0.0100
1111.00,0.0101
1110.00,0.0101
1109.00,0.0102
1108.00,0.0102
1107.00,0.0104
1106.00,0.0106
1105.00,0.0108
1104.00,0.0110
1103.00,0.0112
1102.00,0.0115
1101.00,0.0116
1100.00,0.0117
1099.00,0.0116
1098.00,0.0114
1097.00,0.0112
1096.00,0.0109
1095.00,0.0106
1094.00,0.0103
1093.00,0.0100
1092.00,0.0098
1091.00,0.0096
1090.00,0.0095
1089.00,0.0094
1088.00,0.0093
1087.00,0.0092
1086.00,0.0091
1085.00,0.0091
1084.00,0.0091
1083.00,0.0091
1082.00,0.0092
1081.00,0.0094
1080.00,0.0095
1079.00,0.0097
1078.00,0.0099
1077.00,0.0102
1076.00,0.0105
1075.00,0.0107
1074.00,0.0110
1073.00,0.0112
1072.00,0.0115
1071.00,0.0118
1070.00,0.0122
1069.00,0.0127
1068.00,0.0133
1067.00,0.0140
1066.00,0.0148
1065.00,0.0157
1064.00,0.0167
1063.00,0.0177
1062.00,0.0188
1061.00,0.0197
1060.00,0.0204
1059.00,0.0210
1058.00,0.0212
1057.00,0.0211
1056.00,0.0207
1055.00,0.0200
1054.00,0.0191
1053.00,0.0180
1052.00,0.0169
1051.00,0.0159
1050.00,0.0150
1049.00,0.0143
1048.00,0.0138
1047.00,0.0135
1046.00,0.0133
1045.00,0.0132
1044.00,0.0133
1043.00,0.0134
1042.00,0.0135
1041.00,0.0137
1040.00,0.0139
1039.00,0.0140
1038.00,0.0142
1037.00,0.0144
1036.00,0.0146
1035.00,0.0148
1034.00,0.0150
1033.00,0.0151
1032.00,0.0152
1031.00,0.0152
1030.00,0.0152
1029.00,0.0151
1028.00,0.0148
1027.00,0.0145
1026.00,0.0142
1025.00,0.0139
1024.00,0.0136
1023.00,0.0135
1022.00,0.0134
1021.00,0.0134
1020.00,0.0135
1019.00,0.0134
1018.00,0.0134
1017.00,0.0132
1016.00,0.0130
1015.00,0.0127
1014.00,0.0123
1013.00,0.0119
1012.00,0.0115
1011.00,0.0112
1010.00,0.0109
1009.00,0.0108
1008.00,0.0108
1007.00,0.0109
1006.00,0.0111
1005.00,0.0114
1004.00,0.0118
1003.00,0.0120
1002.00,0.0121
1001.00,0.0120
1000.00,0.0119
999.00,0.0116
998.00,0.0113
997.00,0.0110
996.00,0.0107
995.00,0.0104
994.00,0.0101
993.00,0.0099
992.00,0.0096
991.00,0.0093
990.00,0.0091
989.00,0.0089
988.00,0.0087
987.00,0.0085
986.00,0.0083
985.00,0.0081
984.00,0.0080
983.00,0.0078
982.00,0.0078
981.00,0.0077
980.00,0.0077
979.00,0.0077
978.00,0.0076
977.00,0.0076
976.00,0.0076
975.00,0.0075
974.00,0.0075
973.00,0.0075
972.00,0.0074
971.00,0.0073
970.00,0.0071
969.00,0.0070
968.00,0.0069
967.00,0.0068
966.00,0.0068
965.00,0.0067
964.00,0.0067
963.00,0.0066
962.00,0.0065
961.00,0.0065
960.00,0.0064
959.00,0.0063
958.00,0.0063
957.00,0.0061
956.00,0.0060
955.00,0.0060
954.00,0.0059
953.00,0.0059
952.00,0.0059
951.00,0.0059
950.00,0.0059
949.00,0.0059
948.00,0.0059
947.00,0.0060
946.00,0.0060
945.00,0.0061
944.00,0.0062
943.00,0.0063
942.00,0.0065
941.00,0.0067
940.00,0.0070
939.00,0.0073
938.00,0.0077
937.00,0.0081
936.00,0.0085
935.00,0.0088
934.00,0.0091
933.00,0.0093
932.00,0.0093
931.00,0.0092
930.00,0.0091
929.00,0.0089
928.00,0.0088
927.00,0.0087
926.00,0.0086
925.00,0.0085
924.00,0.0085
923.00,0.0083
922.00,0.0082
921.00,0.0080
920.00,0.0079
919.00,0.0078
918.00,0.0076
917.00,0.0075
916.00,0.0073
915.00,0.0072
914.00,0.0070
913.00,0.0069
912.00,0.0068
911.00,0.0068
910.00,0.0069
909.00,0.0069
908.00,0.0070
907.00,0.0071
906.00,0.0073
905.00,0.0075
904.00,0.0077
903.00,0.0080
902.00,0.0083
901.00,0.0087
900.00,0.0089
899.00,0.0092
898.00,0.0094
897.00,0.0095
896.00,0.0095
895.00,0.0094
894.00,0.0093
893.00,0.0091
892.00,0.0089
891.00,0.0086
890.00,0.0085
889.00,0.0084
888.00,0.0082
887.00,0.0081
886.00,0.0081
885.00,0.0081
884.00,0.0081
883.00,0.0082
882.00,0.0083
881.00,0.0084
880.00,0.0086
879.00,0.0088
878.00,0.0091
877.00,0.0094
876.00,0.0097
875.00,0.0099
874.00,0.0102
873.00,0.0105
872.00,0.0107
871.00,0.0108
870.00,0.0110
869.00,0.0111
868.00,0.0111
867.00,0.0112
866.00,0.0112
865.00,0.0112
864.00,0.0112
863.00,0.0113
862.00,0.0114
861.00,0.0115
860.00,0.0116
859.00,0.0117
858.00,0.0119
857.00,0.0122
856.00,0.0125
855.00,0.0128
854.00,0.0131
853.00,0.0135
852.00,0.0138
851.00,0.0142
850.00,0.0145
849.00,0.0148
848.00,0.0151
847.00,0.0153
846.00,0.0155
845.00,0.0156
844.00,0.0157
843.00,0.0158
842.00,0.0158
841.00,0.0157
840.00,0.0156
839.00,0.0155
838.00,0.0153
837.00,0.0152
836.00,0.0151
835.00,0.0150
834.00,0.0150
833.00,0.0149
832.00,0.0147
831.00,0.0146
830.00,0.0145
829.00,0.0144
828.00,0.0143
827.00,0.0142
826.00,0.0140
825.00,0.0139
824.00,0.0138
823.00,0.0138
822.00,0.0138
821.00,0.0137
820.00,0.0137
819.00,0.0137
818.00,0.0137
817.00,0.0136
816.00,0.0136
815.00,0.0135
814.00,0.0134
813.00,0.0131
812.00,0.0128
811.00,0.0124
810.00,0.0119
809.00,0.0114
808.00,0.0109
807.00,0.0103
806.00,0.0098
805.00,0.0093
804.00,0.0090
803.00,0.0087
802.00,0.0085
801.00,0.0083
800.00,0.0082
799.00,0.0081
798.00,0.0081
797.00,0.0080
796.00,0.0080
795.00,0.0080
794.00,0.0080
793.00,0.0081
792.00,0.0081
791.00,0.0081
790.00,0.0081
789.00,0.0082
788.00,0.0082
787.00,0.0083
786.00,0.0083
785.00,0.0083
784.00,0.0084
783.00,0.0084
782.00,0.0085
781.00,0.0086
780.00,0.0087
779.00,0.0088
778.00,0.0090
777.00,0.0091
776.00,0.0091
775.00,0.0092
774.00,0.0091
773.00,0.0091
772.00,0.0090
771.00,0.0090
770.00,0.0091
769.00,0.0091
768.00,0.0092
767.00,0.0093
766.00,0.0095
765.00,0.0096
764.00,0.0098
763.00,0.0100
762.00,0.0102
761.00,0.0105
760.00,0.0107
759.00,0.0109
758.00,0.0112
757.00,0.0114
756.00,0.0116
755.00,0.0119
754.00,0.0121
753.00,0.0123
752.00,0.0125
751.00,0.0128
750.00,0.0130
749.00,0.0133
748.00,0.0135
747.00,0.0137
746.00,0.0139
745.00,0.0142
744.00,0.0145
743.00,0.0148
742.00,0.0152
741.00,0.0157
740.00,0.0161
739.00,0.0165
738.00,0.0169
737.00,0.0172
736.00,0.0173
735.00,0.0173
734.00,0.0171
733.00,0.0169
732.00,0.0166
731.00,0.0163
730.00,0.0159
729.00,0.0156
728.00,0.0151
727.00,0.0147
726.00,0.0144
725.00,0.0140
724.00,0.0137
723.00,0.0133
722.00,0.0131
721.00,0.0128
720.00,0.0126
719.00,0.0124
718.00,0.0123
717.00,0.0123
716.00,0.0123
715.00,0.0123
714.00,0.0123
713.00,0.0123
712.00,0.0123
711.00,0.0122
710.00,0.0121
709.00,0.0121
708.00,0.0120
707.00,0.0119
706.00,0.0119
705.00,0.0119
704.00,0.0120
703.00,0.0119
702.00,0.0120
701.00,0.0120
700.00,0.0121
699.00,0.0123
698.00,0.0124
697.00,0.0126
696.00,0.0129
695.00,0.0131
694.00,0.0134
693.00,0.0137
692.00,0.0139
691.00,0.0142
690.00,0.0144
689.00,0.0145
688.00,0.0147
687.00,0.0148
686.00,0.0149
685.00,0.0150
684.00,0.0151
683.00,0.0151
682.00,0.0151
681.00,0.0152
680.00,0.0152
679.00,0.0153
678.00,0.0154
677.00,0.0156
676.00,0.0158
675.00,0.0161
674.00,0.0164
673.00,0.0166
672.00,0.0168
671.00,0.0170
670.00,0.0171
669.00,0.0173
668.00,0.0176
667.00,0.0179
666.00,0.0183
665.00,0.0188
664.00,0.0193
663.00,0.0198
662.00,0.0202
661.00,0.0207
660.00,0.0211
659.00,0.0214
658.00,0.0218
657.00,0.0222
656.00,0.0227
655.00,0.0232
654.00,0.0237
653.00,0.0241
652.00,0.0245
651.00,0.0248
650.00,0.0251
649.00,0.0253
648.00,0.0254
647.00,0.0253
646.00,0.0252
645.00,0.0251
644.00,0.0249
643.00,0.0247
642.00,0.0245
641.00,0.0241
640.00,0.0236
639.00,0.0231
638.00,0.0227
637.00,0.0223
636.00,0.0220
635.00,0.0217
634.00,0.0215
633.00,0.0212
632.00,0.0209
631.00,0.0206
630.00,0.0204
629.00,0.0202
628.00,0.0200
627.00,0.0199
626.00,0.0199
625.00,0.0199
624.00,0.0199
623.00,0.0197
622.00,0.0196
621.00,0.0194
620.00,0.0194
619.00,0.0193
618.00,0.0192
617.00,0.0191
616.00,0.0190
615.00,0.0189
614.00,0.0189
613.00,0.0190
612.00,0.0191
611.00,0.0192
610.00,0.0194
609.00,0.0195
608.00,0.0196
607.00,0.0197
606.00,0.0197
605.00,0.0198
604.00,0.0199
603.00,0.0200
602.00,0.0201
601.00,0.0201
600.00,0.0202
599.00,0.0202
598.00,0.0203
597.00,0.0204
596.00,0.0206
595.00,0.0207
594.00,0.0208
593.00,0.0209
592.00,0.0209
591.00,0.0210
590.00,0.0213
589.00,0.0217
588.00,0.0221
587.00,0.0225
586.00,0.0231
585.00,0.0238
584.00,0.0245
583.00,0.0251
582.00,0.0256
581.00,0.0260
580.00,0.0263
579.00,0.0266
578.00,0.0268
577.00,0.0270
576.00,0.0272
575.00,0.0273
574.00,0.0274
573.00,0.0275
572.00,0.0276
571.00,0.0277
570.00,0.0277
569.00,0.0277
568.00,0.0275
567.00,0.0272
566.00,0.0269
565.00,0.0266
564.00,0.0263
563.00,0.0260
562.00,0.0258
561.00,0.0255
560.00,0.0254
559.00,0.0252
558.00,0.0250
557.00,0.0248
556.00,0.0246
555.00,0.0244
554.00,0.0242
553.00,0.0241
552.00,0.0239
551.00,0.0237
550.00,0.0234
549.00,0.0232
548.00,0.0231
547.00,0.0231
546.00,0.0230
545.00,0.0229
544.00,0.0227
543.00,0.0225
542.00,0.0224
541.00,0.0222
540.00,0.0222
539.00,0.0221
538.00,0.0221
537.00,0.0221
536.00,0.0222
535.00,0.0223
534.00,0.0225
533.00,0.0228
532.00,0.0231
531.00,0.0233
530.00,0.0233
529.00,0.0232
528.00,0.0230
527.00,0.0228
526.00,0.0227
525.00,0.0226
524.00,0.0224
523.00,0.0222
522.00,0.0220
521.00,0.0219
520.00,0.0219
519.00,0.0219
518.00,0.0218
517.00,0.0218
516.00,0.0218
515.00,0.0217
514.00,0.0216
513.00,0.0216
512.00,0.0216
511.00,0.0217
510.00,0.0219
509.00,0.0221
508.00,0.0222
507.00,0.0222
506.00,0.0222
505.00,0.0222
504.00,0.0221
503.00,0.0219
502.00,0.0218
501.00,0.0218
500.00,0.0219
499.00,0.0220
498.00,0.0221
497.00,0.0222
496.00,0.0222
495.00,0.0222
494.00,0.0221
493.00,0.0219
492.00,0.0218
491.00,0.0219
490.00,0.0222
489.00,0.0224
488.00,0.0226
487.00,0.0227
486.00,0.0227
485.00,0.0228
484.00,0.0229
483.00,0.0230
482.00,0.0231
481.00,0.0233
480.00,0.0233
479.00,0.0231
478.00,0.0230
477.00,0.0228
476.00,0.0227
475.00,0.0226
474.00,0.0226
473.00,0.0226
472.00,0.0227
471.00,0.0229
470.00,0.0230
469.00,0.0229
468.00,0.0227
467.00,0.0226
466.00,0.0226
465.00,0.0229
464.00,0.0231
463.00,0.0232
462.00,0.0232
461.00,0.0232
460.00,0.0231
459.00,0.0231
458.00,0.0229
457.00,0.0226
456.00,0.0223
455.00,0.0222
454.00,0.0223
453.00,0.0225
452.00,0.0227
451.00,0.0228
450.00,0.0226
449.00,0.0225
448.00,0.0223
447.00,0.0222
446.00,0.0220
445.00,0.0220
444.00,0.0221
443.00,0.0223
442.00,0.0224
441.00,0.0223
440.00,0.0220
439.00,0.0215
438.00,0.0212
437.00,0.0209
436.00,0.0207
435.00,0.0206
434.00,0.0204
433.00,0.0203
432.00,0.0203
431.00,0.0203
430.00,0.0202
429.00,0.0199
428.00,0.0194
427.00,0.0192
426.00,0.0195
425.00,0.0200
424.00,0.0204
423.00,0.0203
422.00,0.0200
421.00,0.0196
420.00,0.0192
419.00,0.0191
418.00,0.0191
417.00,0.0192
416.00,0.0191
415.00,0.0191
414.00,0.0191
413.00,0.0193
412.00,0.0195
411.00,0.0197
410.00,0.0197
409.00,0.0193
408.00,0.0189
407.00,0.0186
406.00,0.0186
405.00,0.0187
404.00,0.0188
403.00,0.0189
402.00,0.0191
401.00,0.0192
400.00,0.0190
