Created as New Dataset,Sample 573 By YargerLab Date Thursday, June 05 2025
cm-1,A
4000.00,0.0007
3999.00,0.0007
3998.00,0.0007
3997.00,0.0007
3996.00,0.0006
3995.00,0.0006
3994.00,0.0006
3993.00,0.0006
3992.00,0.0006
3991.00,0.0007
3990.00,0.0007
3989.00,0.0007
3988.00,0.0007
3987.00,0.0007
3986.00,0.0007
3985.00,0.0007
3984.00,0.0007
3983.00,0.0007
3982.00,0.0007
3981.00,0.0007
3980.00,0.0007
3979.00,0.0007
3978.00,0.0007
3977.00,0.0007
3976.00,0.0007
3975.00,0.0007
3974.00,0.0007
3973.00,0.0007
3972.00,0.0007
3971.00,0.0007
3970.00,0.0006
3969.00,0.0006
3968.00,0.0006
3967.00,0.0007
3966.00,0.0007
3965.00,0.0007
3964.00,0.0007
3963.00,0.0007
3962.00,0.0007
3961.00,0.0007
3960.00,0.0007
3959.00,0.0007
3958.00,0.0007
3957.00,0.0007
3956.00,0.0006
3955.00,0.0006
3954.00,0.0006
3953.00,0.0006
3952.00,0.0007
3951.00,0.0007
3950.00,0.0007
3949.00,0.0006
3948.00,0.0006
3947.00,0.0006
3946.00,0.0006
3945.00,0.0006
3944.00,0.0006
3943.00,0.0006
3942.00,0.0006
3941.00,0.0006
3940.00,0.0006
3939.00,0.0006
3938.00,0.0006
3937.00,0.0006
3936.00,0.0006
3935.00,0.0006
3934.00,0.0006
3933.00,0.0006
3932.00,0.0006
3931.00,0.0006
3930.00,0.0006
3929.00,0.0006
3928.00,0.0006
3927.00,0.0006
3926.00,0.0006
3925.00,0.0006
3924.00,0.0006
3923.00,0.0006
3922.00,0.0006
3921.00,0.0006
3920.00,0.0006
3919.00,0.0006
3918.00,0.0006
3917.00,0.0006
3916.00,0.0006
3915.00,0.0006
3914.00,0.0006
3913.00,0.0006
3912.00,0.0006
3911.00,0.0006
3910.00,0.0006
3909.00,0.0006
3908.00,0.0006
3907.00,0.0006
3906.00,0.0006
3905.00,0.0007
3904.00,0.0007
3903.00,0.0007
3902.00,0.0006
3901.00,0.0006
3900.00,0.0006
3899.00,0.0006
3898.00,0.0006
3897.00,0.0006
3896.00,0.0006
3895.00,0.0006
3894.00,0.0005
3893.00,0.0005
3892.00,0.0005
3891.00,0.0005
3890.00,0.0005
3889.00,0.0005
3888.00,0.0005
3887.00,0.0005
3886.00,0.0005
3885.00,0.0005
3884.00,0.0005
3883.00,0.0005
3882.00,0.0005
3881.00,0.0005
3880.00,0.0005
3879.00,0.0005
3878.00,0.0005
3877.00,0.0005
3876.00,0.0005
3875.00,0.0005
3874.00,0.0005
3873.00,0.0005
3872.00,0.0005
3871.00,0.0005
3870.00,0.0005
3869.00,0.0006
3868.00,0.0006
3867.00,0.0006
3866.00,0.0006
3865.00,0.0005
3864.00,0.0005
3863.00,0.0005
3862.00,0.0005
3861.00,0.0005
3860.00,0.0005
3859.00,0.0005
3858.00,0.0005
3857.00,0.0005
3856.00,0.0006
3855.00,0.0007
3854.00,0.0006
3853.00,0.0006
3852.00,0.0006
3851.00,0.0006
3850.00,0.0006
3849.00,0.0005
3848.00,0.0005
3847.00,0.0005
3846.00,0.0005
3845.00,0.0005
3844.00,0.0005
3843.00,0.0005
3842.00,0.0005
3841.00,0.0005
3840.00,0.0005
3839.00,0.0005
3838.00,0.0005
3837.00,0.0005
3836.00,0.0005
3835.00,0.0005
3834.00,0.0005
3833.00,0.0005
3832.00,0.0005
3831.00,0.0005
3830.00,0.0005
3829.00,0.0005
3828.00,0.0004
3827.00,0.0004
3826.00,0.0004
3825.00,0.0004
3824.00,0.0004
3823.00,0.0005
3822.00,0.0005
3821.00,0.0004
3820.00,0.0004
3819.00,0.0004
3818.00,0.0005
3817.00,0.0005
3816.00,0.0005
3815.00,0.0005
3814.00,0.0005
3813.00,0.0005
3812.00,0.0005
3811.00,0.0005
3810.00,0.0005
3809.00,0.0005
3808.00,0.0005
3807.00,0.0005
3806.00,0.0005
3805.00,0.0005
3804.00,0.0005
3803.00,0.0004
3802.00,0.0004
3801.00,0.0004
3800.00,0.0004
3799.00,0.0004
3798.00,0.0004
3797.00,0.0004
3796.00,0.0005
3795.00,0.0005
3794.00,0.0005
3793.00,0.0006
3792.00,0.0006
3791.00,0.0006
3790.00,0.0005
3789.00,0.0005
3788.00,0.0005
3787.00,0.0005
3786.00,0.0005
3785.00,0.0005
3784.00,0.0005
3783.00,0.0005
3782.00,0.0005
3781.00,0.0006
3780.00,0.0006
3779.00,0.0006
3778.00,0.0006
3777.00,0.0006
3776.00,0.0006
3775.00,0.0006
3774.00,0.0006
3773.00,0.0006
3772.00,0.0006
3771.00,0.0006
3770.00,0.0005
3769.00,0.0005
3768.00,0.0005
3767.00,0.0006
3766.00,0.0005
3765.00,0.0005
3764.00,0.0005
3763.00,0.0005
3762.00,0.0005
3761.00,0.0005
3760.00,0.0006
3759.00,0.0006
3758.00,0.0006
3757.00,0.0006
3756.00,0.0006
3755.00,0.0006
3754.00,0.0006
3753.00,0.0006
3752.00,0.0006
3751.00,0.0006
3750.00,0.0006
3749.00,0.0006
3748.00,0.0006
3747.00,0.0007
3746.00,0.0007
3745.00,0.0007
3744.00,0.0006
3743.00,0.0006
3742.00,0.0006
3741.00,0.0005
3740.00,0.0005
3739.00,0.0005
3738.00,0.0005
3737.00,0.0005
3736.00,0.0005
3735.00,0.0005
3734.00,0.0005
3733.00,0.0005
3732.00,0.0005
3731.00,0.0005
3730.00,0.0006
3729.00,0.0006
3728.00,0.0006
3727.00,0.0006
3726.00,0.0006
3725.00,0.0006
3724.00,0.0006
3723.00,0.0006
3722.00,0.0006
3721.00,0.0006
3720.00,0.0006
3719.00,0.0006
3718.00,0.0006
3717.00,0.0006
3716.00,0.0007
3715.00,0.0007
3714.00,0.0007
3713.00,0.0007
3712.00,0.0007
3711.00,0.0007
3710.00,0.0007
3709.00,0.0007
3708.00,0.0007
3707.00,0.0007
3706.00,0.0007
3705.00,0.0007
3704.00,0.0007
3703.00,0.0007
3702.00,0.0007
3701.00,0.0007
3700.00,0.0007
3699.00,0.0008
3698.00,0.0008
3697.00,0.0008
3696.00,0.0008
3695.00,0.0008
3694.00,0.0008
3693.00,0.0008
3692.00,0.0008
3691.00,0.0008
3690.00,0.0008
3689.00,0.0008
3688.00,0.0009
3687.00,0.0010
3686.00,0.0011
3685.00,0.0011
3684.00,0.0011
3683.00,0.0011
3682.00,0.0011
3681.00,0.0011
3680.00,0.0012
3679.00,0.0012
3678.00,0.0012
3677.00,0.0013
3676.00,0.0013
3675.00,0.0013
3674.00,0.0013
3673.00,0.0013
3672.00,0.0014
3671.00,0.0015
3670.00,0.0016
3669.00,0.0017
3668.00,0.0018
3667.00,0.0018
3666.00,0.0018
3665.00,0.0018
3664.00,0.0019
3663.00,0.0019
3662.00,0.0020
3661.00,0.0021
3660.00,0.0022
3659.00,0.0022
3658.00,0.0022
3657.00,0.0023
3656.00,0.0023
3655.00,0.0024
3654.00,0.0024
3653.00,0.0024
3652.00,0.0025
3651.00,0.0026
3650.00,0.0027
3649.00,0.0028
3648.00,0.0030
3647.00,0.0032
3646.00,0.0033
3645.00,0.0033
3644.00,0.0034
3643.00,0.0034
3642.00,0.0034
3641.00,0.0035
3640.00,0.0036
3639.00,0.0037
3638.00,0.0038
3637.00,0.0038
3636.00,0.0039
3635.00,0.0040
3634.00,0.0041
3633.00,0.0042
3632.00,0.0042
3631.00,0.0043
3630.00,0.0044
3629.00,0.0046
3628.00,0.0048
3627.00,0.0049
3626.00,0.0050
3625.00,0.0050
3624.00,0.0050
3623.00,0.0050
3622.00,0.0050
3621.00,0.0051
3620.00,0.0052
3619.00,0.0054
3618.00,0.0056
3617.00,0.0057
3616.00,0.0058
3615.00,0.0059
3614.00,0.0060
3613.00,0.0062
3612.00,0.0063
3611.00,0.0064
3610.00,0.0065
3609.00,0.0067
3608.00,0.0068
3607.00,0.0069
3606.00,0.0070
3605.00,0.0071
3604.00,0.0071
3603.00,0.0072
3602.00,0.0073
3601.00,0.0074
3600.00,0.0075
3599.00,0.0076
3598.00,0.0077
3597.00,0.0078
3596.00,0.0079
3595.00,0.0081
3594.00,0.0082
3593.00,0.0083
3592.00,0.0083
3591.00,0.0084
3590.00,0.0085
3589.00,0.0086
3588.00,0.0088
3587.00,0.0090
3586.00,0.0092
3585.00,0.0094
3584.00,0.0095
3583.00,0.0096
3582.00,0.0096
3581.00,0.0097
3580.00,0.0098
3579.00,0.0100
3578.00,0.0101
3577.00,0.0102
3576.00,0.0103
3575.00,0.0104
3574.00,0.0105
3573.00,0.0106
3572.00,0.0106
3571.00,0.0107
3570.00,0.0108
3569.00,0.0109
3568.00,0.0111
3567.00,0.0113
3566.00,0.0115
3565.00,0.0117
3564.00,0.0118
3563.00,0.0119
3562.00,0.0120
3561.00,0.0121
3560.00,0.0122
3559.00,0.0124
3558.00,0.0125
3557.00,0.0126
3556.00,0.0127
3555.00,0.0128
3554.00,0.0129
3553.00,0.0131
3552.00,0.0132
3551.00,0.0134
3550.00,0.0135
3549.00,0.0136
3548.00,0.0137
3547.00,0.0138
3546.00,0.0140
3545.00,0.0141
3544.00,0.0143
3543.00,0.0144
3542.00,0.0144
3541.00,0.0145
3540.00,0.0146
3539.00,0.0147
3538.00,0.0149
3537.00,0.0150
3536.00,0.0152
3535.00,0.0153
3534.00,0.0154
3533.00,0.0155
3532.00,0.0156
3531.00,0.0156
3530.00,0.0158
3529.00,0.0159
3528.00,0.0160
3527.00,0.0162
3526.00,0.0163
3525.00,0.0164
3524.00,0.0166
3523.00,0.0167
3522.00,0.0168
3521.00,0.0169
3520.00,0.0170
3519.00,0.0171
3518.00,0.0172
3517.00,0.0173
3516.00,0.0174
3515.00,0.0175
3514.00,0.0176
3513.00,0.0178
3512.00,0.0179
3511.00,0.0180
3510.00,0.0182
3509.00,0.0183
3508.00,0.0184
3507.00,0.0185
3506.00,0.0186
3505.00,0.0187
3504.00,0.0189
3503.00,0.0190
3502.00,0.0192
3501.00,0.0193
3500.00,0.0194
3499.00,0.0195
3498.00,0.0196
3497.00,0.0197
3496.00,0.0198
3495.00,0.0200
3494.00,0.0201
3493.00,0.0202
3492.00,0.0203
3491.00,0.0204
3490.00,0.0205
3489.00,0.0207
3488.00,0.0208
3487.00,0.0209
3486.00,0.0210
3485.00,0.0211
3484.00,0.0212
3483.00,0.0213
3482.00,0.0215
3481.00,0.0217
3480.00,0.0218
3479.00,0.0219
3478.00,0.0220
3477.00,0.0221
3476.00,0.0222
3475.00,0.0224
3474.00,0.0225
3473.00,0.0226
3472.00,0.0228
3471.00,0.0229
3470.00,0.0230
3469.00,0.0232
3468.00,0.0233
3467.00,0.0234
3466.00,0.0235
3465.00,0.0236
3464.00,0.0237
3463.00,0.0239
3462.00,0.0240
3461.00,0.0242
3460.00,0.0243
3459.00,0.0244
3458.00,0.0245
3457.00,0.0246
3456.00,0.0247
3455.00,0.0248
3454.00,0.0249
3453.00,0.0250
3452.00,0.0252
3451.00,0.0253
3450.00,0.0254
3449.00,0.0255
3448.00,0.0257
3447.00,0.0258
3446.00,0.0260
3445.00,0.0261
3444.00,0.0262
3443.00,0.0263
3442.00,0.0264
3441.00,0.0265
3440.00,0.0267
3439.00,0.0268
3438.00,0.0270
3437.00,0.0271
3436.00,0.0272
3435.00,0.0273
3434.00,0.0274
3433.00,0.0275
3432.00,0.0276
3431.00,0.0277
3430.00,0.0279
3429.00,0.0280
3428.00,0.0282
3427.00,0.0283
3426.00,0.0284
3425.00,0.0285
3424.00,0.0286
3423.00,0.0287
3422.00,0.0289
3421.00,0.0290
3420.00,0.0292
3419.00,0.0293
3418.00,0.0294
3417.00,0.0296
3416.00,0.0297
3415.00,0.0298
3414.00,0.0299
3413.00,0.0301
3412.00,0.0302
3411.00,0.0303
3410.00,0.0304
3409.00,0.0306
3408.00,0.0307
3407.00,0.0308
3406.00,0.0309
3405.00,0.0310
3404.00,0.0312
3403.00,0.0313
3402.00,0.0314
3401.00,0.0316
3400.00,0.0317
3399.00,0.0318
3398.00,0.0320
3397.00,0.0321
3396.00,0.0322
3395.00,0.0324
3394.00,0.0325
3393.00,0.0326
3392.00,0.0327
3391.00,0.0329
3390.00,0.0330
3389.00,0.0332
3388.00,0.0333
3387.00,0.0335
3386.00,0.0336
3385.00,0.0338
3384.00,0.0339
3383.00,0.0341
3382.00,0.0342
3381.00,0.0344
3380.00,0.0345
3379.00,0.0346
3378.00,0.0348
3377.00,0.0349
3376.00,0.0351
3375.00,0.0352
3374.00,0.0354
3373.00,0.0355
3372.00,0.0357
3371.00,0.0358
3370.00,0.0359
3369.00,0.0361
3368.00,0.0363
3367.00,0.0365
3366.00,0.0367
3365.00,0.0369
3364.00,0.0372
3363.00,0.0374
3362.00,0.0375
3361.00,0.0377
3360.00,0.0379
3359.00,0.0381
3358.00,0.0383
3357.00,0.0385
3356.00,0.0387
3355.00,0.0389
3354.00,0.0390
3353.00,0.0392
3352.00,0.0394
3351.00,0.0396
3350.00,0.0398
3349.00,0.0401
3348.00,0.0403
3347.00,0.0405
3346.00,0.0407
3345.00,0.0409
3344.00,0.0411
3343.00,0.0413
3342.00,0.0415
3341.00,0.0417
3340.00,0.0420
3339.00,0.0422
3338.00,0.0425
3337.00,0.0428
3336.00,0.0431
3335.00,0.0433
3334.00,0.0436
3333.00,0.0439
3332.00,0.0442
3331.00,0.0445
3330.00,0.0447
3329.00,0.0450
3328.00,0.0452
3327.00,0.0455
3326.00,0.0458
3325.00,0.0461
3324.00,0.0465
3323.00,0.0469
3322.00,0.0472
3321.00,0.0476
3320.00,0.0479
3319.00,0.0482
3318.00,0.0485
3317.00,0.0489
3316.00,0.0492
3315.00,0.0496
3314.00,0.0499
3313.00,0.0502
3312.00,0.0505
3311.00,0.0508
3310.00,0.0512
3309.00,0.0515
3308.00,0.0519
3307.00,0.0523
3306.00,0.0527
3305.00,0.0532
3304.00,0.0536
3303.00,0.0541
3302.00,0.0546
3301.00,0.0551
3300.00,0.0555
3299.00,0.0558
3298.00,0.0562
3297.00,0.0565
3296.00,0.0569
3295.00,0.0573
3294.00,0.0577
3293.00,0.0581
3292.00,0.0586
3291.00,0.0590
3290.00,0.0595
3289.00,0.0599
3288.00,0.0603
3287.00,0.0606
3286.00,0.0609
3285.00,0.0612
3284.00,0.0615
3283.00,0.0618
3282.00,0.0621
3281.00,0.0624
3280.00,0.0626
3279.00,0.0628
3278.00,0.0629
3277.00,0.0630
3276.00,0.0631
3275.00,0.0631
3274.00,0.0632
3273.00,0.0631
3272.00,0.0631
3271.00,0.0631
3270.00,0.0631
3269.00,0.0631
3268.00,0.0630
3267.00,0.0629
3266.00,0.0627
3265.00,0.0625
3264.00,0.0622
3263.00,0.0619
3262.00,0.0616
3261.00,0.0613
3260.00,0.0610
3259.00,0.0606
3258.00,0.0602
3257.00,0.0598
3256.00,0.0594
3255.00,0.0591
3254.00,0.0587
3253.00,0.0584
3252.00,0.0580
3251.00,0.0576
3250.00,0.0572
3249.00,0.0567
3248.00,0.0563
3247.00,0.0559
3246.00,0.0556
3245.00,0.0553
3244.00,0.0550
3243.00,0.0547
3242.00,0.0544
3241.00,0.0541
3240.00,0.0538
3239.00,0.0534
3238.00,0.0530
3237.00,0.0526
3236.00,0.0522
3235.00,0.0518
3234.00,0.0515
3233.00,0.0512
3232.00,0.0511
3231.00,0.0509
3230.00,0.0508
3229.00,0.0506
3228.00,0.0504
3227.00,0.0501
3226.00,0.0499
3225.00,0.0496
3224.00,0.0494
3223.00,0.0491
3222.00,0.0489
3221.00,0.0487
3220.00,0.0485
3219.00,0.0483
3218.00,0.0481
3217.00,0.0478
3216.00,0.0476
3215.00,0.0474
3214.00,0.0473
3213.00,0.0471
3212.00,0.0470
3211.00,0.0468
3210.00,0.0466
3209.00,0.0464
3208.00,0.0462
3207.00,0.0461
3206.00,0.0459
3205.00,0.0457
3204.00,0.0455
3203.00,0.0454
3202.00,0.0452
3201.00,0.0450
3200.00,0.0448
3199.00,0.0447
3198.00,0.0445
3197.00,0.0444
3196.00,0.0442
3195.00,0.0440
3194.00,0.0438
3193.00,0.0436
3192.00,0.0435
3191.00,0.0433
3190.00,0.0432
3189.00,0.0430
3188.00,0.0428
3187.00,0.0427
3186.00,0.0425
3185.00,0.0424
3184.00,0.0422
3183.00,0.0420
3182.00,0.0418
3181.00,0.0417
3180.00,0.0415
3179.00,0.0414
3178.00,0.0412
3177.00,0.0411
3176.00,0.0410
3175.00,0.0408
3174.00,0.0406
3173.00,0.0404
3172.00,0.0403
3171.00,0.0401
3170.00,0.0399
3169.00,0.0398
3168.00,0.0396
3167.00,0.0395
3166.00,0.0393
3165.00,0.0392
3164.00,0.0390
3163.00,0.0389
3162.00,0.0387
3161.00,0.0386
3160.00,0.0384
3159.00,0.0383
3158.00,0.0381
3157.00,0.0380
3156.00,0.0378
3155.00,0.0375
3154.00,0.0373
3153.00,0.0372
3152.00,0.0371
3151.00,0.0370
3150.00,0.0370
3149.00,0.0369
3148.00,0.0368
3147.00,0.0367
3146.00,0.0366
3145.00,0.0365
3144.00,0.0363
3143.00,0.0362
3142.00,0.0360
3141.00,0.0359
3140.00,0.0357
3139.00,0.0356
3138.00,0.0356
3137.00,0.0356
3136.00,0.0355
3135.00,0.0355
3134.00,0.0354
3133.00,0.0353
3132.00,0.0352
3131.00,0.0351
3130.00,0.0350
3129.00,0.0350
3128.00,0.0349
3127.00,0.0349
3126.00,0.0349
3125.00,0.0348
3124.00,0.0347
3123.00,0.0345
3122.00,0.0344
3121.00,0.0343
3120.00,0.0342
3119.00,0.0342
3118.00,0.0341
3117.00,0.0342
3116.00,0.0342
3115.00,0.0343
3114.00,0.0344
3113.00,0.0344
3112.00,0.0344
3111.00,0.0344
3110.00,0.0344
3109.00,0.0344
3108.00,0.0345
3107.00,0.0345
3106.00,0.0346
3105.00,0.0347
3104.00,0.0347
3103.00,0.0347
3102.00,0.0347
3101.00,0.0347
3100.00,0.0347
3099.00,0.0348
3098.00,0.0349
3097.00,0.0349
3096.00,0.0350
3095.00,0.0350
3094.00,0.0351
3093.00,0.0350
3092.00,0.0350
3091.00,0.0350
3090.00,0.0350
3089.00,0.0350
3088.00,0.0351
3087.00,0.0351
3086.00,0.0350
3085.00,0.0350
3084.00,0.0350
3083.00,0.0350
3082.00,0.0350
3081.00,0.0349
3080.00,0.0349
3079.00,0.0349
3078.00,0.0350
3077.00,0.0350
3076.00,0.0351
3075.00,0.0352
3074.00,0.0352
3073.00,0.0351
3072.00,0.0351
3071.00,0.0350
3070.00,0.0348
3069.00,0.0346
3068.00,0.0345
3067.00,0.0344
3066.00,0.0344
3065.00,0.0344
3064.00,0.0344
3063.00,0.0343
3062.00,0.0342
3061.00,0.0341
3060.00,0.0340
3059.00,0.0338
3058.00,0.0336
3057.00,0.0334
3056.00,0.0332
3055.00,0.0331
3054.00,0.0329
3053.00,0.0327
3052.00,0.0325
3051.00,0.0323
3050.00,0.0322
3049.00,0.0321
3048.00,0.0320
3047.00,0.0317
3046.00,0.0315
3045.00,0.0313
3044.00,0.0311
3043.00,0.0309
3042.00,0.0308
3041.00,0.0308
3040.00,0.0307
3039.00,0.0306
3038.00,0.0305
3037.00,0.0303
3036.00,0.0301
3035.00,0.0299
3034.00,0.0298
3033.00,0.0297
3032.00,0.0296
3031.00,0.0295
3030.00,0.0295
3029.00,0.0294
3028.00,0.0292
3027.00,0.0291
3026.00,0.0289
3025.00,0.0287
3024.00,0.0285
3023.00,0.0284
3022.00,0.0282
3021.00,0.0280
3020.00,0.0278
3019.00,0.0276
3018.00,0.0275
3017.00,0.0273
3016.00,0.0271
3015.00,0.0269
3014.00,0.0268
3013.00,0.0267
3012.00,0.0267
3011.00,0.0266
3010.00,0.0266
3009.00,0.0266
3008.00,0.0265
3007.00,0.0264
3006.00,0.0264
3005.00,0.0263
3004.00,0.0262
3003.00,0.0261
3002.00,0.0260
3001.00,0.0259
3000.00,0.0259
2999.00,0.0258
2998.00,0.0258
2997.00,0.0259
2996.00,0.0259
2995.00,0.0260
2994.00,0.0261
2993.00,0.0262
2992.00,0.0263
2991.00,0.0265
2990.00,0.0267
2989.00,0.0269
2988.00,0.0271
2987.00,0.0274
2986.00,0.0276
2985.00,0.0277
2984.00,0.0279
2983.00,0.0280
2982.00,0.0282
2981.00,0.0284
2980.00,0.0288
2979.00,0.0292
2978.00,0.0297
2977.00,0.0302
2976.00,0.0307
2975.00,0.0311
2974.00,0.0315
2973.00,0.0319
2972.00,0.0323
2971.00,0.0327
2970.00,0.0331
2969.00,0.0335
2968.00,0.0339
2967.00,0.0343
2966.00,0.0347
2965.00,0.0350
2964.00,0.0352
2963.00,0.0355
2962.00,0.0356
2961.00,0.0357
2960.00,0.0357
2959.00,0.0357
2958.00,0.0356
2957.00,0.0354
2956.00,0.0352
2955.00,0.0350
2954.00,0.0347
2953.00,0.0344
2952.00,0.0342
2951.00,0.0340
2950.00,0.0339
2949.00,0.0337
2948.00,0.0337
2947.00,0.0336
2946.00,0.0337
2945.00,0.0338
2944.00,0.0340
2943.00,0.0342
2942.00,0.0345
2941.00,0.0348
2940.00,0.0351
2939.00,0.0354
2938.00,0.0357
2937.00,0.0360
2936.00,0.0363
2935.00,0.0365
2934.00,0.0367
2933.00,0.0369
2932.00,0.0370
2931.00,0.0371
2930.00,0.0372
2929.00,0.0373
2928.00,0.0373
2927.00,0.0374
2926.00,0.0374
2925.00,0.0373
2924.00,0.0373
2923.00,0.0372
2922.00,0.0370
2921.00,0.0368
2920.00,0.0365
2919.00,0.0362
2918.00,0.0358
2917.00,0.0354
2916.00,0.0349
2915.00,0.0344
2914.00,0.0339
2913.00,0.0334
2912.00,0.0329
2911.00,0.0325
2910.00,0.0320
2909.00,0.0316
2908.00,0.0313
2907.00,0.0309
2906.00,0.0306
2905.00,0.0303
2904.00,0.0300
2903.00,0.0298
2902.00,0.0295
2901.00,0.0293
2900.00,0.0291
2899.00,0.0289
2898.00,0.0287
2897.00,0.0285
2896.00,0.0284
2895.00,0.0282
2894.00,0.0281
2893.00,0.0279
2892.00,0.0278
2891.00,0.0277
2890.00,0.0276
2889.00,0.0276
2888.00,0.0276
2887.00,0.0276
2886.00,0.0276
2885.00,0.0276
2884.00,0.0277
2883.00,0.0278
2882.00,0.0280
2881.00,0.0281
2880.00,0.0283
2879.00,0.0285
2878.00,0.0286
2877.00,0.0287
2876.00,0.0288
2875.00,0.0288
2874.00,0.0288
2873.00,0.0287
2872.00,0.0286
2871.00,0.0284
2870.00,0.0282
2869.00,0.0280
2868.00,0.0277
2867.00,0.0275
2866.00,0.0272
2865.00,0.0270
2864.00,0.0268
2863.00,0.0267
2862.00,0.0266
2861.00,0.0264
2860.00,0.0264
2859.00,0.0264
2858.00,0.0264
2857.00,0.0264
2856.00,0.0264
2855.00,0.0264
2854.00,0.0264
2853.00,0.0263
2852.00,0.0262
2851.00,0.0260
2850.00,0.0257
2849.00,0.0253
2848.00,0.0249
2847.00,0.0244
2846.00,0.0239
2845.00,0.0235
2844.00,0.0231
2843.00,0.0228
2842.00,0.0225
2841.00,0.0222
2840.00,0.0219
2839.00,0.0217
2838.00,0.0215
2837.00,0.0214
2836.00,0.0213
2835.00,0.0212
2834.00,0.0211
2833.00,0.0210
2832.00,0.0209
2831.00,0.0208
2830.00,0.0207
2829.00,0.0207
2828.00,0.0206
2827.00,0.0205
2826.00,0.0205
2825.00,0.0204
2824.00,0.0204
2823.00,0.0203
2822.00,0.0203
2821.00,0.0202
2820.00,0.0201
2819.00,0.0201
2818.00,0.0200
2817.00,0.0200
2816.00,0.0200
2815.00,0.0199
2814.00,0.0199
2813.00,0.0199
2812.00,0.0198
2811.00,0.0197
2810.00,0.0197
2809.00,0.0196
2808.00,0.0196
2807.00,0.0195
2806.00,0.0195
2805.00,0.0194
2804.00,0.0194
2803.00,0.0194
2802.00,0.0193
2801.00,0.0193
2800.00,0.0192
2799.00,0.0191
2798.00,0.0191
2797.00,0.0190
2796.00,0.0190
2795.00,0.0189
2794.00,0.0189
2793.00,0.0188
2792.00,0.0187
2791.00,0.0187
2790.00,0.0186
2789.00,0.0185
2788.00,0.0185
2787.00,0.0184
2786.00,0.0184
2785.00,0.0183
2784.00,0.0183
2783.00,0.0182
2782.00,0.0181
2781.00,0.0180
2780.00,0.0179
2779.00,0.0178
2778.00,0.0177
2777.00,0.0176
2776.00,0.0175
2775.00,0.0174
2774.00,0.0173
2773.00,0.0173
2772.00,0.0172
2771.00,0.0171
2770.00,0.0170
2769.00,0.0170
2768.00,0.0169
2767.00,0.0167
2766.00,0.0166
2765.00,0.0165
2764.00,0.0165
2763.00,0.0164
2762.00,0.0163
2761.00,0.0162
2760.00,0.0161
2759.00,0.0160
2758.00,0.0160
2757.00,0.0159
2756.00,0.0158
2755.00,0.0157
2754.00,0.0157
2753.00,0.0156
2752.00,0.0156
2751.00,0.0155
2750.00,0.0154
2749.00,0.0154
2748.00,0.0153
2747.00,0.0152
2746.00,0.0152
2745.00,0.0151
2744.00,0.0151
2743.00,0.0150
2742.00,0.0150
2741.00,0.0150
2740.00,0.0149
2739.00,0.0149
2738.00,0.0148
2737.00,0.0147
2736.00,0.0147
2735.00,0.0147
2734.00,0.0146
2733.00,0.0146
2732.00,0.0145
2731.00,0.0145
2730.00,0.0144
2729.00,0.0144
2728.00,0.0143
2727.00,0.0142
2726.00,0.0142
2725.00,0.0141
2724.00,0.0141
2723.00,0.0141
2722.00,0.0140
2721.00,0.0140
2720.00,0.0139
2719.00,0.0139
2718.00,0.0138
2717.00,0.0138
2716.00,0.0137
2715.00,0.0137
2714.00,0.0136
2713.00,0.0136
2712.00,0.0135
2711.00,0.0135
2710.00,0.0134
2709.00,0.0134
2708.00,0.0134
2707.00,0.0133
2706.00,0.0133
2705.00,0.0133
2704.00,0.0132
2703.00,0.0132
2702.00,0.0132
2701.00,0.0132
2700.00,0.0131
2699.00,0.0131
2698.00,0.0130
2697.00,0.0130
2696.00,0.0129
2695.00,0.0129
2694.00,0.0129
2693.00,0.0129
2692.00,0.0128
2691.00,0.0128
2690.00,0.0128
2689.00,0.0127
2688.00,0.0126
2687.00,0.0126
2686.00,0.0125
2685.00,0.0125
2684.00,0.0124
2683.00,0.0124
2682.00,0.0123
2681.00,0.0123
2680.00,0.0123
2679.00,0.0122
2678.00,0.0122
2677.00,0.0121
2676.00,0.0121
2675.00,0.0120
2674.00,0.0120
2673.00,0.0119
2672.00,0.0119
2671.00,0.0118
2670.00,0.0118
2669.00,0.0117
2668.00,0.0117
2667.00,0.0117
2666.00,0.0117
2665.00,0.0117
2664.00,0.0117
2663.00,0.0117
2662.00,0.0117
2661.00,0.0117
2660.00,0.0117
2659.00,0.0117
2658.00,0.0117
2657.00,0.0116
2656.00,0.0116
2655.00,0.0116
2654.00,0.0115
2653.00,0.0115
2652.00,0.0114
2651.00,0.0114
2650.00,0.0114
2649.00,0.0113
2648.00,0.0113
2647.00,0.0112
2646.00,0.0112
2645.00,0.0111
2644.00,0.0111
2643.00,0.0110
2642.00,0.0110
2641.00,0.0109
2640.00,0.0109
2639.00,0.0109
2638.00,0.0108
2637.00,0.0108
2636.00,0.0108
2635.00,0.0107
2634.00,0.0107
2633.00,0.0106
2632.00,0.0106
2631.00,0.0105
2630.00,0.0105
2629.00,0.0105
2628.00,0.0104
2627.00,0.0104
2626.00,0.0104
2625.00,0.0104
2624.00,0.0103
2623.00,0.0103
2622.00,0.0102
2621.00,0.0102
2620.00,0.0101
2619.00,0.0101
2618.00,0.0101
2617.00,0.0101
2616.00,0.0100
2615.00,0.0100
2614.00,0.0100
2613.00,0.0099
2612.00,0.0099
2611.00,0.0099
2610.00,0.0098
2609.00,0.0098
2608.00,0.0097
2607.00,0.0097
2606.00,0.0096
2605.00,0.0096
2604.00,0.0096
2603.00,0.0095
2602.00,0.0095
2601.00,0.0095
2600.00,0.0095
2599.00,0.0094
2598.00,0.0094
2597.00,0.0094
2596.00,0.0093
2595.00,0.0092
2594.00,0.0092
2593.00,0.0092
2592.00,0.0091
2591.00,0.0091
2590.00,0.0091
2589.00,0.0090
2588.00,0.0090
2587.00,0.0090
2586.00,0.0089
2585.00,0.0089
2584.00,0.0088
2583.00,0.0088
2582.00,0.0088
2581.00,0.0087
2580.00,0.0087
2579.00,0.0087
2578.00,0.0087
2577.00,0.0087
2576.00,0.0087
2575.00,0.0086
2574.00,0.0086
2573.00,0.0085
2572.00,0.0085
2571.00,0.0084
2570.00,0.0084
2569.00,0.0084
2568.00,0.0083
2567.00,0.0083
2566.00,0.0083
2565.00,0.0083
2564.00,0.0083
2563.00,0.0083
2562.00,0.0082
2561.00,0.0082
2560.00,0.0082
2559.00,0.0082
2558.00,0.0082
2557.00,0.0082
2556.00,0.0081
2555.00,0.0080
2554.00,0.0080
2553.00,0.0080
2552.00,0.0080
2551.00,0.0079
2550.00,0.0079
2549.00,0.0079
2548.00,0.0079
2547.00,0.0078
2546.00,0.0078
2545.00,0.0078
2544.00,0.0078
2543.00,0.0077
2542.00,0.0077
2541.00,0.0077
2540.00,0.0077
2539.00,0.0076
2538.00,0.0076
2537.00,0.0075
2536.00,0.0075
2535.00,0.0075
2534.00,0.0075
2533.00,0.0075
2532.00,0.0075
2531.00,0.0074
2530.00,0.0074
2529.00,0.0074
2528.00,0.0073
2527.00,0.0073
2526.00,0.0072
2525.00,0.0072
2524.00,0.0072
2523.00,0.0072
2522.00,0.0072
2521.00,0.0072
2520.00,0.0071
2519.00,0.0071
2518.00,0.0071
2517.00,0.0071
2516.00,0.0071
2515.00,0.0070
2514.00,0.0070
2513.00,0.0069
2512.00,0.0069
2511.00,0.0068
2510.00,0.0068
2509.00,0.0069
2508.00,0.0069
2507.00,0.0069
2506.00,0.0069
2505.00,0.0068
2504.00,0.0068
2503.00,0.0067
2502.00,0.0067
2501.00,0.0067
2500.00,0.0067
2499.00,0.0066
2498.00,0.0066
2497.00,0.0066
2496.00,0.0066
2495.00,0.0066
2494.00,0.0065
2493.00,0.0065
2492.00,0.0065
2491.00,0.0064
2490.00,0.0064
2489.00,0.0064
2488.00,0.0064
2487.00,0.0063
2486.00,0.0063
2485.00,0.0063
2484.00,0.0063
2483.00,0.0062
2482.00,0.0062
2481.00,0.0061
2480.00,0.0061
2479.00,0.0061
2478.00,0.0061
2477.00,0.0061
2476.00,0.0061
2475.00,0.0061
2474.00,0.0060
2473.00,0.0060
2472.00,0.0059
2471.00,0.0059
2470.00,0.0059
2469.00,0.0059
2468.00,0.0059
2467.00,0.0059
2466.00,0.0058
2465.00,0.0058
2464.00,0.0058
2463.00,0.0057
2462.00,0.0058
2461.00,0.0058
2460.00,0.0058
2459.00,0.0059
2458.00,0.0059
2457.00,0.0058
2456.00,0.0058
2455.00,0.0057
2454.00,0.0057
2453.00,0.0057
2452.00,0.0057
2451.00,0.0056
2450.00,0.0056
2449.00,0.0056
2448.00,0.0055
2447.00,0.0055
2446.00,0.0054
2445.00,0.0054
2444.00,0.0053
2443.00,0.0053
2442.00,0.0053
2441.00,0.0053
2440.00,0.0053
2439.00,0.0052
2438.00,0.0052
2437.00,0.0051
2436.00,0.0051
2435.00,0.0050
2434.00,0.0050
2433.00,0.0050
2432.00,0.0050
2431.00,0.0050
2430.00,0.0050
2429.00,0.0050
2428.00,0.0050
2427.00,0.0049
2426.00,0.0048
2425.00,0.0048
2424.00,0.0047
2423.00,0.0047
2422.00,0.0047
2421.00,0.0047
2420.00,0.0047
2419.00,0.0047
2418.00,0.0047
2417.00,0.0046
2416.00,0.0046
2415.00,0.0046
2414.00,0.0046
2413.00,0.0046
2412.00,0.0046
2411.00,0.0046
2410.00,0.0045
2409.00,0.0045
2408.00,0.0044
2407.00,0.0043
2406.00,0.0043
2405.00,0.0043
2404.00,0.0043
2403.00,0.0043
2402.00,0.0043
2401.00,0.0043
2400.00,0.0042
2399.00,0.0042
2398.00,0.0042
2397.00,0.0042
2396.00,0.0042
2395.00,0.0041
2394.00,0.0041
2393.00,0.0041
2392.00,0.0041
2391.00,0.0041
2390.00,0.0041
2389.00,0.0041
2388.00,0.0041
2387.00,0.0041
2386.00,0.0040
2385.00,0.0039
2384.00,0.0039
2383.00,0.0038
2382.00,0.0037
2381.00,0.0037
2380.00,0.0037
2379.00,0.0037
2378.00,0.0037
2377.00,0.0037
2376.00,0.0037
2375.00,0.0037
2374.00,0.0037
2373.00,0.0036
2372.00,0.0035
2371.00,0.0035
2370.00,0.0034
2369.00,0.0033
2368.00,0.0033
2367.00,0.0034
2366.00,0.0034
2365.00,0.0034
2364.00,0.0035
2363.00,0.0035
2362.00,0.0035
2361.00,0.0036
2360.00,0.0035
2359.00,0.0035
2358.00,0.0034
2357.00,0.0033
2356.00,0.0033
2355.00,0.0033
2354.00,0.0033
2353.00,0.0032
2352.00,0.0032
2351.00,0.0031
2350.00,0.0032
2349.00,0.0034
2348.00,0.0037
2347.00,0.0039
2346.00,0.0040
2345.00,0.0039
2344.00,0.0038
2343.00,0.0037
2342.00,0.0037
2341.00,0.0037
2340.00,0.0037
2339.00,0.0037
2338.00,0.0037
2337.00,0.0037
2336.00,0.0037
2335.00,0.0037
2334.00,0.0037
2333.00,0.0037
2332.00,0.0036
2331.00,0.0036
2330.00,0.0035
2329.00,0.0037
2328.00,0.0040
2327.00,0.0044
2326.00,0.0047
2325.00,0.0049
2324.00,0.0048
2323.00,0.0045
2322.00,0.0043
2321.00,0.0041
2320.00,0.0040
2319.00,0.0039
2318.00,0.0039
2317.00,0.0039
2316.00,0.0039
2315.00,0.0040
2314.00,0.0039
2313.00,0.0038
2312.00,0.0038
2311.00,0.0037
2310.00,0.0036
2309.00,0.0036
2308.00,0.0036
2307.00,0.0036
2306.00,0.0036
2305.00,0.0037
2304.00,0.0037
2303.00,0.0038
2302.00,0.0038
2301.00,0.0038
2300.00,0.0039
2299.00,0.0040
2298.00,0.0040
2297.00,0.0041
2296.00,0.0041
2295.00,0.0042
2294.00,0.0042
2293.00,0.0043
2292.00,0.0044
2291.00,0.0044
2290.00,0.0045
2289.00,0.0045
2288.00,0.0045
2287.00,0.0046
2286.00,0.0046
2285.00,0.0045
2284.00,0.0045
2283.00,0.0044
2282.00,0.0044
2281.00,0.0043
2280.00,0.0043
2279.00,0.0042
2278.00,0.0041
2277.00,0.0041
2276.00,0.0041
2275.00,0.0041
2274.00,0.0041
2273.00,0.0040
2272.00,0.0040
2271.00,0.0039
2270.00,0.0039
2269.00,0.0038
2268.00,0.0037
2267.00,0.0036
2266.00,0.0035
2265.00,0.0035
2264.00,0.0035
2263.00,0.0036
2262.00,0.0036
2261.00,0.0036
2260.00,0.0036
2259.00,0.0036
2258.00,0.0036
2257.00,0.0036
2256.00,0.0035
2255.00,0.0035
2254.00,0.0034
2253.00,0.0034
2252.00,0.0034
2251.00,0.0034
2250.00,0.0034
2249.00,0.0033
2248.00,0.0034
2247.00,0.0034
2246.00,0.0034
2245.00,0.0035
2244.00,0.0035
2243.00,0.0034
2242.00,0.0034
2241.00,0.0033
2240.00,0.0033
2239.00,0.0032
2238.00,0.0033
2237.00,0.0033
2236.00,0.0034
2235.00,0.0034
2234.00,0.0034
2233.00,0.0035
2232.00,0.0036
2231.00,0.0037
2230.00,0.0036
2229.00,0.0036
2228.00,0.0035
2227.00,0.0033
2226.00,0.0032
2225.00,0.0032
2224.00,0.0032
2223.00,0.0032
2222.00,0.0032
2221.00,0.0032
2220.00,0.0031
2219.00,0.0031
2218.00,0.0031
2217.00,0.0031
2216.00,0.0033
2215.00,0.0033
2214.00,0.0034
2213.00,0.0033
2212.00,0.0033
2211.00,0.0032
2210.00,0.0031
2209.00,0.0030
2208.00,0.0030
2207.00,0.0031
2206.00,0.0031
2205.00,0.0031
2204.00,0.0031
2203.00,0.0031
2202.00,0.0032
2201.00,0.0033
2200.00,0.0034
2199.00,0.0033
2198.00,0.0033
2197.00,0.0032
2196.00,0.0032
2195.00,0.0033
2194.00,0.0033
2193.00,0.0034
2192.00,0.0036
2191.00,0.0037
2190.00,0.0037
2189.00,0.0038
2188.00,0.0037
2187.00,0.0036
2186.00,0.0034
2185.00,0.0031
2184.00,0.0028
2183.00,0.0027
2182.00,0.0026
2181.00,0.0027
2180.00,0.0030
2179.00,0.0031
2178.00,0.0031
2177.00,0.0029
2176.00,0.0026
2175.00,0.0024
2174.00,0.0025
2173.00,0.0028
2172.00,0.0032
2171.00,0.0035
2170.00,0.0036
2169.00,0.0037
2168.00,0.0038
2167.00,0.0038
2166.00,0.0037
2165.00,0.0038
2164.00,0.0040
2163.00,0.0039
2162.00,0.0033
2161.00,0.0021
2160.00,0.0007
2159.00,-0.0005
2158.00,-0.0009
2157.00,-0.0007
2156.00,-0.0003
2155.00,0.0001
2154.00,0.0003
2153.00,0.0006
2152.00,0.0009
2151.00,0.0010
2150.00,0.0011
2149.00,0.0011
2148.00,0.0012
2147.00,0.0013
2146.00,0.0013
2145.00,0.0014
2144.00,0.0014
2143.00,0.0014
2142.00,0.0014
2141.00,0.0014
2140.00,0.0015
2139.00,0.0015
2138.00,0.0014
2137.00,0.0012
2136.00,0.0010
2135.00,0.0008
2134.00,0.0008
2133.00,0.0009
2132.00,0.0011
2131.00,0.0013
2130.00,0.0015
2129.00,0.0017
2128.00,0.0019
2127.00,0.0021
2126.00,0.0022
2125.00,0.0024
2124.00,0.0025
2123.00,0.0025
2122.00,0.0025
2121.00,0.0026
2120.00,0.0027
2119.00,0.0027
2118.00,0.0028
2117.00,0.0029
2116.00,0.0030
2115.00,0.0031
2114.00,0.0032
2113.00,0.0032
2112.00,0.0033
2111.00,0.0032
2110.00,0.0031
2109.00,0.0030
2108.00,0.0030
2107.00,0.0030
2106.00,0.0030
2105.00,0.0029
2104.00,0.0030
2103.00,0.0030
2102.00,0.0030
2101.00,0.0029
2100.00,0.0029
2099.00,0.0028
2098.00,0.0027
2097.00,0.0026
2096.00,0.0026
2095.00,0.0025
2094.00,0.0025
2093.00,0.0026
2092.00,0.0027
2091.00,0.0028
2090.00,0.0028
2089.00,0.0029
2088.00,0.0029
2087.00,0.0029
2086.00,0.0029
2085.00,0.0029
2084.00,0.0030
2083.00,0.0031
2082.00,0.0031
2081.00,0.0031
2080.00,0.0032
2079.00,0.0032
2078.00,0.0031
2077.00,0.0030
2076.00,0.0029
2075.00,0.0028
2074.00,0.0027
2073.00,0.0027
2072.00,0.0028
2071.00,0.0028
2070.00,0.0028
2069.00,0.0027
2068.00,0.0027
2067.00,0.0026
2066.00,0.0026
2065.00,0.0025
2064.00,0.0026
2063.00,0.0026
2062.00,0.0026
2061.00,0.0027
2060.00,0.0028
2059.00,0.0028
2058.00,0.0027
2057.00,0.0027
2056.00,0.0027
2055.00,0.0027
2054.00,0.0029
2053.00,0.0033
2052.00,0.0036
2051.00,0.0035
2050.00,0.0032
2049.00,0.0029
2048.00,0.0028
2047.00,0.0027
2046.00,0.0026
2045.00,0.0025
2044.00,0.0026
2043.00,0.0026
2042.00,0.0026
2041.00,0.0025
2040.00,0.0025
2039.00,0.0024
2038.00,0.0022
2037.00,0.0021
2036.00,0.0021
2035.00,0.0020
2034.00,0.0019
2033.00,0.0017
2032.00,0.0016
2031.00,0.0015
2030.00,0.0014
2029.00,0.0014
2028.00,0.0015
2027.00,0.0016
2026.00,0.0015
2025.00,0.0014
2024.00,0.0014
2023.00,0.0013
2022.00,0.0012
2021.00,0.0013
2020.00,0.0014
2019.00,0.0014
2018.00,0.0014
2017.00,0.0013
2016.00,0.0012
2015.00,0.0012
2014.00,0.0012
2013.00,0.0014
2012.00,0.0016
2011.00,0.0016
2010.00,0.0014
2009.00,0.0012
2008.00,0.0008
2007.00,0.0005
2006.00,0.0003
2005.00,0.0003
2004.00,0.0005
2003.00,0.0007
2002.00,0.0009
2001.00,0.0012
2000.00,0.0014
1999.00,0.0014
1998.00,0.0015
1997.00,0.0016
1996.00,0.0018
1995.00,0.0019
1994.00,0.0019
1993.00,0.0019
1992.00,0.0020
1991.00,0.0021
1990.00,0.0021
1989.00,0.0021
1988.00,0.0021
1987.00,0.0021
1986.00,0.0021
1985.00,0.0022
1984.00,0.0024
1983.00,0.0025
1982.00,0.0026
1981.00,0.0027
1980.00,0.0025
1979.00,0.0022
1978.00,0.0017
1977.00,0.0014
1976.00,0.0011
1975.00,0.0009
1974.00,0.0007
1973.00,0.0006
1972.00,0.0006
1971.00,0.0006
1970.00,0.0006
1969.00,0.0007
1968.00,0.0009
1967.00,0.0010
1966.00,0.0010
1965.00,0.0010
1964.00,0.0010
1963.00,0.0009
1962.00,0.0008
1961.00,0.0006
1960.00,0.0005
1959.00,0.0004
1958.00,0.0003
1957.00,0.0004
1956.00,0.0006
1955.00,0.0007
1954.00,0.0007
1953.00,0.0007
1952.00,0.0007
1951.00,0.0007
1950.00,0.0007
1949.00,0.0008
1948.00,0.0010
1947.00,0.0011
1946.00,0.0011
1945.00,0.0012
1944.00,0.0013
1943.00,0.0013
1942.00,0.0012
1941.00,0.0012
1940.00,0.0012
1939.00,0.0012
1938.00,0.0013
1937.00,0.0013
1936.00,0.0014
1935.00,0.0013
1934.00,0.0013
1933.00,0.0013
1932.00,0.0013
1931.00,0.0013
1930.00,0.0013
1929.00,0.0013
1928.00,0.0014
1927.00,0.0015
1926.00,0.0015
1925.00,0.0016
1924.00,0.0017
1923.00,0.0017
1922.00,0.0017
1921.00,0.0018
1920.00,0.0019
1919.00,0.0019
1918.00,0.0017
1917.00,0.0016
1916.00,0.0015
1915.00,0.0016
1914.00,0.0017
1913.00,0.0018
1912.00,0.0019
1911.00,0.0019
1910.00,0.0019
1909.00,0.0020
1908.00,0.0020
1907.00,0.0020
1906.00,0.0020
1905.00,0.0019
1904.00,0.0019
1903.00,0.0019
1902.00,0.0019
1901.00,0.0019
1900.00,0.0019
1899.00,0.0020
1898.00,0.0020
1897.00,0.0021
1896.00,0.0022
1895.00,0.0022
1894.00,0.0021
1893.00,0.0021
1892.00,0.0022
1891.00,0.0022
1890.00,0.0022
1889.00,0.0021
1888.00,0.0020
1887.00,0.0019
1886.00,0.0019
1885.00,0.0021
1884.00,0.0022
1883.00,0.0022
1882.00,0.0022
1881.00,0.0022
1880.00,0.0022
1879.00,0.0022
1878.00,0.0022
1877.00,0.0022
1876.00,0.0022
1875.00,0.0022
1874.00,0.0022
1873.00,0.0023
1872.00,0.0024
1871.00,0.0024
1870.00,0.0023
1869.00,0.0022
1868.00,0.0020
1867.00,0.0019
1866.00,0.0019
1865.00,0.0020
1864.00,0.0022
1863.00,0.0023
1862.00,0.0024
1861.00,0.0024
1860.00,0.0025
1859.00,0.0025
1858.00,0.0025
1857.00,0.0025
1856.00,0.0025
1855.00,0.0024
1854.00,0.0024
1853.00,0.0024
1852.00,0.0023
1851.00,0.0023
1850.00,0.0023
1849.00,0.0023
1848.00,0.0024
1847.00,0.0024
1846.00,0.0023
1845.00,0.0023
1844.00,0.0024
1843.00,0.0024
1842.00,0.0025
1841.00,0.0026
1840.00,0.0026
1839.00,0.0026
1838.00,0.0026
1837.00,0.0026
1836.00,0.0027
1835.00,0.0027
1834.00,0.0028
1833.00,0.0027
1832.00,0.0028
1831.00,0.0030
1830.00,0.0028
1829.00,0.0026
1828.00,0.0025
1827.00,0.0027
1826.00,0.0028
1825.00,0.0029
1824.00,0.0028
1823.00,0.0027
1822.00,0.0028
1821.00,0.0030
1820.00,0.0031
1819.00,0.0030
1818.00,0.0030
1817.00,0.0030
1816.00,0.0030
1815.00,0.0030
1814.00,0.0031
1813.00,0.0032
1812.00,0.0034
1811.00,0.0034
1810.00,0.0034
1809.00,0.0033
1808.00,0.0034
1807.00,0.0035
1806.00,0.0035
1805.00,0.0036
1804.00,0.0037
1803.00,0.0038
1802.00,0.0038
1801.00,0.0035
1800.00,0.0035
1799.00,0.0036
1798.00,0.0037
1797.00,0.0037
1796.00,0.0037
1795.00,0.0037
1794.00,0.0037
1793.00,0.0037
1792.00,0.0038
1791.00,0.0038
1790.00,0.0039
1789.00,0.0040
1788.00,0.0041
1787.00,0.0041
1786.00,0.0041
1785.00,0.0042
1784.00,0.0042
1783.00,0.0043
1782.00,0.0043
1781.00,0.0043
1780.00,0.0043
1779.00,0.0044
1778.00,0.0043
1777.00,0.0044
1776.00,0.0044
1775.00,0.0044
1774.00,0.0044
1773.00,0.0044
1772.00,0.0045
1771.00,0.0046
1770.00,0.0047
1769.00,0.0049
1768.00,0.0050
1767.00,0.0052
1766.00,0.0052
1765.00,0.0053
1764.00,0.0054
1763.00,0.0055
1762.00,0.0056
1761.00,0.0057
1760.00,0.0059
1759.00,0.0060
1758.00,0.0061
1757.00,0.0062
1756.00,0.0064
1755.00,0.0066
1754.00,0.0068
1753.00,0.0071
1752.00,0.0074
1751.00,0.0074
1750.00,0.0074
1749.00,0.0076
1748.00,0.0079
1747.00,0.0082
1746.00,0.0086
1745.00,0.0089
1744.00,0.0089
1743.00,0.0091
1742.00,0.0093
1741.00,0.0095
1740.00,0.0098
1739.00,0.0101
1738.00,0.0103
1737.00,0.0104
1736.00,0.0105
1735.00,0.0107
1734.00,0.0110
1733.00,0.0113
1732.00,0.0117
1731.00,0.0119
1730.00,0.0121
1729.00,0.0124
1728.00,0.0127
1727.00,0.0130
1726.00,0.0132
1725.00,0.0136
1724.00,0.0140
1723.00,0.0143
1722.00,0.0146
1721.00,0.0149
1720.00,0.0153
1719.00,0.0156
1718.00,0.0156
1717.00,0.0158
1716.00,0.0162
1715.00,0.0168
1714.00,0.0175
1713.00,0.0184
1712.00,0.0195
1711.00,0.0206
1710.00,0.0215
1709.00,0.0225
1708.00,0.0236
1707.00,0.0248
1706.00,0.0263
1705.00,0.0279
1704.00,0.0295
1703.00,0.0311
1702.00,0.0329
1701.00,0.0356
1700.00,0.0391
1699.00,0.0420
1698.00,0.0446
1697.00,0.0477
1696.00,0.0507
1695.00,0.0528
1694.00,0.0539
1693.00,0.0549
1692.00,0.0563
1691.00,0.0576
1690.00,0.0590
1689.00,0.0603
1688.00,0.0613
1687.00,0.0622
1686.00,0.0631
1685.00,0.0648
1684.00,0.0675
1683.00,0.0697
1682.00,0.0713
1681.00,0.0732
1680.00,0.0752
1679.00,0.0769
1678.00,0.0782
1677.00,0.0794
1676.00,0.0811
1675.00,0.0832
1674.00,0.0850
1673.00,0.0865
1672.00,0.0881
1671.00,0.0901
1670.00,0.0926
1669.00,0.0954
1668.00,0.0977
1667.00,0.0995
1666.00,0.1011
1665.00,0.1027
1664.00,0.1049
1663.00,0.1077
1662.00,0.1107
1661.00,0.1132
1660.00,0.1155
1659.00,0.1176
1658.00,0.1193
1657.00,0.1204
1656.00,0.1209
1655.00,0.1214
1654.00,0.1238
1653.00,0.1285
1652.00,0.1314
1651.00,0.1316
1650.00,0.1316
1649.00,0.1317
1648.00,0.1323
1647.00,0.1338
1646.00,0.1351
1645.00,0.1354
1644.00,0.1352
1643.00,0.1352
1642.00,0.1352
1641.00,0.1353
1640.00,0.1353
1639.00,0.1351
1638.00,0.1349
1637.00,0.1356
1636.00,0.1378
1635.00,0.1406
1634.00,0.1423
1633.00,0.1435
1632.00,0.1447
1631.00,0.1462
1630.00,0.1481
1629.00,0.1505
1628.00,0.1534
1627.00,0.1562
1626.00,0.1585
1625.00,0.1607
1624.00,0.1635
1623.00,0.1669
1622.00,0.1695
1621.00,0.1704
1620.00,0.1702
1619.00,0.1694
1618.00,0.1686
1617.00,0.1678
1616.00,0.1665
1615.00,0.1641
1614.00,0.1609
1613.00,0.1572
1612.00,0.1531
1611.00,0.1489
1610.00,0.1445
1609.00,0.1401
1608.00,0.1357
1607.00,0.1316
1606.00,0.1277
1605.00,0.1240
1604.00,0.1206
1603.00,0.1176
1602.00,0.1150
1601.00,0.1125
1600.00,0.1102
1599.00,0.1082
1598.00,0.1065
1597.00,0.1050
1596.00,0.1036
1595.00,0.1024
1594.00,0.1013
1593.00,0.1003
1592.00,0.0993
1591.00,0.0984
1590.00,0.0976
1589.00,0.0970
1588.00,0.0963
1587.00,0.0958
1586.00,0.0955
1585.00,0.0952
1584.00,0.0949
1583.00,0.0948
1582.00,0.0948
1581.00,0.0947
1580.00,0.0945
1579.00,0.0943
1578.00,0.0944
1577.00,0.0949
1576.00,0.0959
1575.00,0.0968
1574.00,0.0974
1573.00,0.0978
1572.00,0.0982
1571.00,0.0990
1570.00,0.1004
1569.00,0.1020
1568.00,0.1033
1567.00,0.1043
1566.00,0.1056
1565.00,0.1070
1564.00,0.1081
1563.00,0.1087
1562.00,0.1086
1561.00,0.1082
1560.00,0.1093
1559.00,0.1137
1558.00,0.1183
1557.00,0.1200
1556.00,0.1214
1555.00,0.1235
1554.00,0.1259
1553.00,0.1279
1552.00,0.1296
1551.00,0.1315
1550.00,0.1337
1549.00,0.1357
1548.00,0.1368
1547.00,0.1375
1546.00,0.1383
1545.00,0.1394
1544.00,0.1405
1543.00,0.1411
1542.00,0.1416
1541.00,0.1432
1540.00,0.1463
1539.00,0.1490
1538.00,0.1499
1537.00,0.1498
1536.00,0.1496
1535.00,0.1498
1534.00,0.1511
1533.00,0.1529
1532.00,0.1540
1531.00,0.1541
1530.00,0.1539
1529.00,0.1537
1528.00,0.1537
1527.00,0.1539
1526.00,0.1540
1525.00,0.1536
1524.00,0.1527
1523.00,0.1519
1522.00,0.1521
1521.00,0.1527
1520.00,0.1527
1519.00,0.1520
1518.00,0.1515
1517.00,0.1515
1516.00,0.1513
1515.00,0.1501
1514.00,0.1480
1513.00,0.1454
1512.00,0.1425
1511.00,0.1395
1510.00,0.1363
1509.00,0.1329
1508.00,0.1297
1507.00,0.1269
1506.00,0.1237
1505.00,0.1199
1504.00,0.1167
1503.00,0.1142
1502.00,0.1117
1501.00,0.1090
1500.00,0.1062
1499.00,0.1035
1498.00,0.1009
1497.00,0.0983
1496.00,0.0958
1495.00,0.0934
1494.00,0.0910
1493.00,0.0888
1492.00,0.0866
1491.00,0.0844
1490.00,0.0825
1489.00,0.0806
1488.00,0.0789
1487.00,0.0771
1486.00,0.0755
1485.00,0.0741
1484.00,0.0729
1483.00,0.0720
1482.00,0.0712
1481.00,0.0706
1480.00,0.0701
1479.00,0.0697
1478.00,0.0694
1477.00,0.0694
1476.00,0.0696
1475.00,0.0699
1474.00,0.0705
1473.00,0.0715
1472.00,0.0728
1471.00,0.0739
1470.00,0.0746
1469.00,0.0752
1468.00,0.0756
1467.00,0.0757
1466.00,0.0758
1465.00,0.0759
1464.00,0.0760
1463.00,0.0762
1462.00,0.0763
1461.00,0.0763
1460.00,0.0764
1459.00,0.0767
1458.00,0.0775
1457.00,0.0789
1456.00,0.0800
1455.00,0.0805
1454.00,0.0810
1453.00,0.0814
1452.00,0.0815
1451.00,0.0815
1450.00,0.0813
1449.00,0.0812
1448.00,0.0811
1447.00,0.0809
1446.00,0.0806
1445.00,0.0802
1444.00,0.0798
1443.00,0.0794
1442.00,0.0790
1441.00,0.0785
1440.00,0.0779
1439.00,0.0772
1438.00,0.0763
1437.00,0.0755
1436.00,0.0746
1435.00,0.0738
1434.00,0.0730
1433.00,0.0723
1432.00,0.0716
1431.00,0.0709
1430.00,0.0702
1429.00,0.0697
1428.00,0.0693
1427.00,0.0690
1426.00,0.0690
1425.00,0.0692
1424.00,0.0696
1423.00,0.0700
1422.00,0.0702
1421.00,0.0704
1420.00,0.0709
1419.00,0.0720
1418.00,0.0733
1417.00,0.0744
1416.00,0.0753
1415.00,0.0762
1414.00,0.0771
1413.00,0.0778
1412.00,0.0787
1411.00,0.0796
1410.00,0.0805
1409.00,0.0812
1408.00,0.0818
1407.00,0.0825
1406.00,0.0832
1405.00,0.0841
1404.00,0.0849
1403.00,0.0854
1402.00,0.0857
1401.00,0.0860
1400.00,0.0864
1399.00,0.0870
1398.00,0.0875
1397.00,0.0878
1396.00,0.0881
1395.00,0.0884
1394.00,0.0887
1393.00,0.0887
1392.00,0.0887
1391.00,0.0886
1390.00,0.0885
1389.00,0.0884
1388.00,0.0882
1387.00,0.0881
1386.00,0.0876
1385.00,0.0870
1384.00,0.0861
1383.00,0.0853
1382.00,0.0844
1381.00,0.0835
1380.00,0.0826
1379.00,0.0818
1378.00,0.0810
1377.00,0.0801
1376.00,0.0794
1375.00,0.0787
1374.00,0.0782
1373.00,0.0777
1372.00,0.0771
1371.00,0.0765
1370.00,0.0760
1369.00,0.0753
1368.00,0.0745
1367.00,0.0735
1366.00,0.0724
1365.00,0.0714
1364.00,0.0705
1363.00,0.0698
1362.00,0.0692
1361.00,0.0687
1360.00,0.0683
1359.00,0.0680
1358.00,0.0680
1357.00,0.0681
1356.00,0.0684
1355.00,0.0689
1354.00,0.0694
1353.00,0.0699
1352.00,0.0703
1351.00,0.0707
1350.00,0.0711
1349.00,0.0713
1348.00,0.0714
1347.00,0.0714
1346.00,0.0713
1345.00,0.0710
1344.00,0.0707
1343.00,0.0703
1342.00,0.0699
1341.00,0.0696
1340.00,0.0694
1339.00,0.0691
1338.00,0.0687
1337.00,0.0682
1336.00,0.0676
1335.00,0.0671
1334.00,0.0666
1333.00,0.0662
1332.00,0.0659
1331.00,0.0657
1330.00,0.0655
1329.00,0.0654
1328.00,0.0653
1327.00,0.0652
1326.00,0.0652
1325.00,0.0652
1324.00,0.0652
1323.00,0.0653
1322.00,0.0654
1321.00,0.0654
1320.00,0.0656
1319.00,0.0657
1318.00,0.0658
1317.00,0.0658
1316.00,0.0657
1315.00,0.0657
1314.00,0.0657
1313.00,0.0656
1312.00,0.0655
1311.00,0.0653
1310.00,0.0651
1309.00,0.0650
1308.00,0.0648
1307.00,0.0647
1306.00,0.0645
1305.00,0.0644
1304.00,0.0643
1303.00,0.0642
1302.00,0.0641
1301.00,0.0640
1300.00,0.0640
1299.00,0.0640
1298.00,0.0641
1297.00,0.0641
1296.00,0.0643
1295.00,0.0644
1294.00,0.0645
1293.00,0.0647
1292.00,0.0648
1291.00,0.0650
1290.00,0.0651
1289.00,0.0652
1288.00,0.0654
1287.00,0.0655
1286.00,0.0656
1285.00,0.0657
1284.00,0.0657
1283.00,0.0657
1282.00,0.0657
1281.00,0.0657
1280.00,0.0657
1279.00,0.0656
1278.00,0.0656
1277.00,0.0655
1276.00,0.0654
1275.00,0.0654
1274.00,0.0653
1273.00,0.0653
1272.00,0.0654
1271.00,0.0655
1270.00,0.0657
1269.00,0.0659
1268.00,0.0661
1267.00,0.0665
1266.00,0.0669
1265.00,0.0674
1264.00,0.0679
1263.00,0.0685
1262.00,0.0691
1261.00,0.0698
1260.00,0.0704
1259.00,0.0711
1258.00,0.0718
1257.00,0.0725
1256.00,0.0731
1255.00,0.0738
1254.00,0.0745
1253.00,0.0751
1252.00,0.0758
1251.00,0.0764
1250.00,0.0771
1249.00,0.0777
1248.00,0.0783
1247.00,0.0788
1246.00,0.0793
1245.00,0.0798
1244.00,0.0803
1243.00,0.0807
1242.00,0.0812
1241.00,0.0815
1240.00,0.0818
1239.00,0.0821
1238.00,0.0823
1237.00,0.0824
1236.00,0.0825
1235.00,0.0826
1234.00,0.0826
1233.00,0.0825
1232.00,0.0824
1231.00,0.0822
1230.00,0.0819
1229.00,0.0816
1228.00,0.0812
1227.00,0.0807
1226.00,0.0803
1225.00,0.0798
1224.00,0.0792
1223.00,0.0786
1222.00,0.0780
1221.00,0.0772
1220.00,0.0764
1219.00,0.0756
1218.00,0.0747
1217.00,0.0738
1216.00,0.0727
1215.00,0.0717
1214.00,0.0706
1213.00,0.0696
1212.00,0.0685
1211.00,0.0674
1210.00,0.0664
1209.00,0.0654
1208.00,0.0644
1207.00,0.0634
1206.00,0.0625
1205.00,0.0617
1204.00,0.0608
1203.00,0.0601
1202.00,0.0594
1201.00,0.0587
1200.00,0.0581
1199.00,0.0575
1198.00,0.0570
1197.00,0.0565
1196.00,0.0560
1195.00,0.0556
1194.00,0.0553
1193.00,0.0549
1192.00,0.0546
1191.00,0.0543
1190.00,0.0540
1189.00,0.0537
1188.00,0.0535
1187.00,0.0533
1186.00,0.0531
1185.00,0.0529
1184.00,0.0527
1183.00,0.0527
1182.00,0.0527
1181.00,0.0527
1180.00,0.0528
1179.00,0.0531
1178.00,0.0534
1177.00,0.0539
1176.00,0.0544
1175.00,0.0550
1174.00,0.0556
1173.00,0.0562
1172.00,0.0566
1171.00,0.0570
1170.00,0.0572
1169.00,0.0574
1168.00,0.0576
1167.00,0.0577
1166.00,0.0579
1165.00,0.0582
1164.00,0.0584
1163.00,0.0587
1162.00,0.0590
1161.00,0.0593
1160.00,0.0596
1159.00,0.0599
1158.00,0.0601
1157.00,0.0603
1156.00,0.0604
1155.00,0.0605
1154.00,0.0605
1153.00,0.0605
1152.00,0.0604
1151.00,0.0602
1150.00,0.0600
1149.00,0.0598
1148.00,0.0595
1147.00,0.0592
1146.00,0.0590
1145.00,0.0588
1144.00,0.0586
1143.00,0.0585
1142.00,0.0585
1141.00,0.0585
1140.00,0.0586
1139.00,0.0588
1138.00,0.0590
1137.00,0.0593
1136.00,0.0597
1135.00,0.0601
1134.00,0.0606
1133.00,0.0611
1132.00,0.0616
1131.00,0.0622
1130.00,0.0628
1129.00,0.0635
1128.00,0.0641
1127.00,0.0647
1126.00,0.0653
1125.00,0.0659
1124.00,0.0664
1123.00,0.0670
1122.00,0.0675
1121.00,0.0680
1120.00,0.0685
1119.00,0.0689
1118.00,0.0693
1117.00,0.0697
1116.00,0.0701
1115.00,0.0706
1114.00,0.0710
1113.00,0.0714
1112.00,0.0717
1111.00,0.0720
1110.00,0.0724
1109.00,0.0727
1108.00,0.0730
1107.00,0.0733
1106.00,0.0737
1105.00,0.0739
1104.00,0.0742
1103.00,0.0744
1102.00,0.0747
1101.00,0.0750
1100.00,0.0753
1099.00,0.0757
1098.00,0.0762
1097.00,0.0767
1096.00,0.0772
1095.00,0.0779
1094.00,0.0786
1093.00,0.0794
1092.00,0.0803
1091.00,0.0812
1090.00,0.0822
1089.00,0.0832
1088.00,0.0842
1087.00,0.0852
1086.00,0.0863
1085.00,0.0873
1084.00,0.0883
1083.00,0.0892
1082.00,0.0902
1081.00,0.0910
1080.00,0.0917
1079.00,0.0923
1078.00,0.0928
1077.00,0.0933
1076.00,0.0936
1075.00,0.0940
1074.00,0.0942
1073.00,0.0943
1072.00,0.0944
1071.00,0.0945
1070.00,0.0946
1069.00,0.0948
1068.00,0.0949
1067.00,0.0951
1066.00,0.0953
1065.00,0.0954
1064.00,0.0955
1063.00,0.0955
1062.00,0.0956
1061.00,0.0956
1060.00,0.0955
1059.00,0.0954
1058.00,0.0954
1057.00,0.0952
1056.00,0.0950
1055.00,0.0948
1054.00,0.0945
1053.00,0.0941
1052.00,0.0937
1051.00,0.0934
1050.00,0.0930
1049.00,0.0926
1048.00,0.0921
1047.00,0.0916
1046.00,0.0912
1045.00,0.0906
1044.00,0.0900
1043.00,0.0894
1042.00,0.0888
1041.00,0.0881
1040.00,0.0874
1039.00,0.0867
1038.00,0.0861
1037.00,0.0856
1036.00,0.0850
1035.00,0.0845
1034.00,0.0841
1033.00,0.0838
1032.00,0.0835
1031.00,0.0832
1030.00,0.0828
1029.00,0.0824
1028.00,0.0819
1027.00,0.0813
1026.00,0.0807
1025.00,0.0800
1024.00,0.0792
1023.00,0.0783
1022.00,0.0774
1021.00,0.0764
1020.00,0.0754
1019.00,0.0744
1018.00,0.0734
1017.00,0.0724
1016.00,0.0713
1015.00,0.0703
1014.00,0.0693
1013.00,0.0683
1012.00,0.0673
1011.00,0.0663
1010.00,0.0653
1009.00,0.0643
1008.00,0.0633
1007.00,0.0624
1006.00,0.0615
1005.00,0.0607
1004.00,0.0599
1003.00,0.0591
1002.00,0.0583
1001.00,0.0575
1000.00,0.0568
999.00,0.0562
998.00,0.0556
997.00,0.0550
996.00,0.0544
995.00,0.0538
994.00,0.0533
993.00,0.0528
992.00,0.0523
991.00,0.0519
990.00,0.0516
989.00,0.0513
988.00,0.0512
987.00,0.0511
986.00,0.0512
985.00,0.0513
984.00,0.0516
983.00,0.0519
982.00,0.0524
981.00,0.0530
980.00,0.0535
979.00,0.0540
978.00,0.0546
977.00,0.0551
976.00,0.0556
975.00,0.0560
974.00,0.0564
973.00,0.0565
972.00,0.0565
971.00,0.0564
970.00,0.0563
969.00,0.0561
968.00,0.0558
967.00,0.0554
966.00,0.0551
965.00,0.0547
964.00,0.0543
963.00,0.0539
962.00,0.0535
961.00,0.0531
960.00,0.0527
959.00,0.0524
958.00,0.0520
957.00,0.0517
956.00,0.0513
955.00,0.0511
954.00,0.0509
953.00,0.0507
952.00,0.0505
951.00,0.0503
950.00,0.0502
949.00,0.0501
948.00,0.0500
947.00,0.0499
946.00,0.0499
945.00,0.0498
944.00,0.0497
943.00,0.0497
942.00,0.0497
941.00,0.0497
940.00,0.0497
939.00,0.0498
938.00,0.0498
937.00,0.0498
936.00,0.0498
935.00,0.0497
934.00,0.0497
933.00,0.0496
932.00,0.0494
931.00,0.0493
930.00,0.0491
929.00,0.0489
928.00,0.0486
927.00,0.0483
926.00,0.0481
925.00,0.0478
924.00,0.0475
923.00,0.0472
922.00,0.0469
921.00,0.0466
920.00,0.0463
919.00,0.0460
918.00,0.0458
917.00,0.0455
916.00,0.0453
915.00,0.0451
914.00,0.0449
913.00,0.0448
912.00,0.0447
911.00,0.0446
910.00,0.0446
909.00,0.0446
908.00,0.0446
907.00,0.0446
906.00,0.0447
905.00,0.0447
904.00,0.0448
903.00,0.0449
902.00,0.0450
901.00,0.0451
900.00,0.0452
899.00,0.0454
898.00,0.0456
897.00,0.0457
896.00,0.0458
895.00,0.0459
894.00,0.0461
893.00,0.0462
892.00,0.0462
891.00,0.0463
890.00,0.0464
889.00,0.0465
888.00,0.0465
887.00,0.0466
886.00,0.0467
885.00,0.0468
884.00,0.0468
883.00,0.0469
882.00,0.0470
881.00,0.0470
880.00,0.0470
879.00,0.0470
878.00,0.0471
877.00,0.0470
876.00,0.0470
875.00,0.0469
874.00,0.0469
873.00,0.0469
872.00,0.0468
871.00,0.0468
870.00,0.0468
869.00,0.0469
868.00,0.0469
867.00,0.0471
866.00,0.0472
865.00,0.0474
864.00,0.0475
863.00,0.0478
862.00,0.0480
861.00,0.0483
860.00,0.0486
859.00,0.0490
858.00,0.0494
857.00,0.0498
856.00,0.0501
855.00,0.0506
854.00,0.0511
853.00,0.0516
852.00,0.0520
851.00,0.0523
850.00,0.0526
849.00,0.0528
848.00,0.0528
847.00,0.0529
846.00,0.0530
845.00,0.0532
844.00,0.0534
843.00,0.0537
842.00,0.0541
841.00,0.0546
840.00,0.0550
839.00,0.0554
838.00,0.0559
837.00,0.0564
836.00,0.0569
835.00,0.0575
834.00,0.0581
833.00,0.0587
832.00,0.0592
831.00,0.0596
830.00,0.0600
829.00,0.0604
828.00,0.0606
827.00,0.0608
826.00,0.0611
825.00,0.0612
824.00,0.0613
823.00,0.0614
822.00,0.0616
821.00,0.0617
820.00,0.0619
819.00,0.0621
818.00,0.0623
817.00,0.0626
816.00,0.0628
815.00,0.0631
814.00,0.0634
813.00,0.0638
812.00,0.0641
811.00,0.0644
810.00,0.0648
809.00,0.0652
808.00,0.0656
807.00,0.0660
806.00,0.0665
805.00,0.0669
804.00,0.0674
803.00,0.0679
802.00,0.0685
801.00,0.0691
800.00,0.0695
799.00,0.0699
798.00,0.0704
797.00,0.0708
796.00,0.0712
795.00,0.0717
794.00,0.0723
793.00,0.0729
792.00,0.0736
791.00,0.0743
790.00,0.0752
789.00,0.0761
788.00,0.0770
787.00,0.0779
786.00,0.0788
785.00,0.0796
784.00,0.0803
783.00,0.0809
782.00,0.0815
781.00,0.0820
780.00,0.0824
779.00,0.0827
778.00,0.0831
777.00,0.0835
776.00,0.0837
775.00,0.0839
774.00,0.0842
773.00,0.0846
772.00,0.0849
771.00,0.0853
770.00,0.0857
769.00,0.0861
768.00,0.0864
767.00,0.0867
766.00,0.0871
765.00,0.0874
764.00,0.0876
763.00,0.0878
762.00,0.0880
761.00,0.0883
760.00,0.0885
759.00,0.0888
758.00,0.0891
757.00,0.0894
756.00,0.0897
755.00,0.0900
754.00,0.0905
753.00,0.0910
752.00,0.0914
751.00,0.0919
750.00,0.0924
749.00,0.0930
748.00,0.0934
747.00,0.0939
746.00,0.0944
745.00,0.0948
744.00,0.0951
743.00,0.0955
742.00,0.0958
741.00,0.0962
740.00,0.0965
739.00,0.0968
738.00,0.0973
737.00,0.0977
736.00,0.0982
735.00,0.0988
734.00,0.0995
733.00,0.1002
732.00,0.1010
731.00,0.1018
730.00,0.1028
729.00,0.1039
728.00,0.1050
727.00,0.1061
726.00,0.1074
725.00,0.1088
724.00,0.1101
723.00,0.1115
722.00,0.1128
721.00,0.1141
720.00,0.1152
719.00,0.1163
718.00,0.1173
717.00,0.1183
716.00,0.1191
715.00,0.1200
714.00,0.1209
713.00,0.1218
712.00,0.1227
711.00,0.1237
710.00,0.1247
709.00,0.1257
708.00,0.1267
707.00,0.1277
706.00,0.1289
705.00,0.1302
704.00,0.1313
703.00,0.1324
702.00,0.1334
701.00,0.1344
700.00,0.1351
699.00,0.1357
698.00,0.1362
697.00,0.1364
696.00,0.1364
695.00,0.1362
694.00,0.1361
693.00,0.1359
692.00,0.1357
691.00,0.1356
690.00,0.1357
689.00,0.1358
688.00,0.1359
687.00,0.1360
686.00,0.1363
685.00,0.1365
684.00,0.1366
683.00,0.1368
682.00,0.1370
681.00,0.1372
680.00,0.1374
679.00,0.1377
678.00,0.1380
677.00,0.1382
676.00,0.1384
675.00,0.1386
674.00,0.1389
673.00,0.1391
672.00,0.1392
671.00,0.1390
670.00,0.1390
669.00,0.1394
668.00,0.1403
667.00,0.1414
666.00,0.1420
665.00,0.1421
664.00,0.1422
663.00,0.1424
662.00,0.1429
661.00,0.1432
660.00,0.1435
659.00,0.1437
658.00,0.1441
657.00,0.1444
656.00,0.1447
655.00,0.1449
654.00,0.1453
653.00,0.1456
652.00,0.1458
651.00,0.1461
650.00,0.1465
649.00,0.1469
648.00,0.1472
647.00,0.1476
646.00,0.1481
645.00,0.1486
644.00,0.1490
643.00,0.1494
642.00,0.1498
641.00,0.1502
640.00,0.1504
639.00,0.1507
638.00,0.1509
637.00,0.1512
636.00,0.1515
635.00,0.1519
634.00,0.1523
633.00,0.1526
632.00,0.1528
631.00,0.1530
630.00,0.1534
629.00,0.1538
628.00,0.1541
627.00,0.1547
626.00,0.1553
625.00,0.1560
624.00,0.1564
623.00,0.1568
622.00,0.1573
621.00,0.1576
620.00,0.1579
619.00,0.1580
618.00,0.1583
617.00,0.1585
616.00,0.1587
615.00,0.1590
614.00,0.1593
613.00,0.1594
612.00,0.1594
611.00,0.1592
610.00,0.1592
609.00,0.1592
608.00,0.1593
607.00,0.1594
606.00,0.1595
605.00,0.1596
604.00,0.1595
603.00,0.1596
602.00,0.1599
601.00,0.1601
600.00,0.1603
599.00,0.1604
598.00,0.1605
597.00,0.1606
596.00,0.1606
595.00,0.1607
594.00,0.1610
593.00,0.1613
592.00,0.1616
591.00,0.1619
590.00,0.1622
589.00,0.1624
588.00,0.1624
587.00,0.1625
586.00,0.1628
585.00,0.1632
584.00,0.1636
583.00,0.1640
582.00,0.1645
581.00,0.1650
580.00,0.1652
579.00,0.1654
578.00,0.1658
577.00,0.1661
576.00,0.1665
575.00,0.1670
574.00,0.1675
573.00,0.1678
572.00,0.1680
571.00,0.1682
570.00,0.1685
569.00,0.1688
568.00,0.1690
567.00,0.1693
566.00,0.1698
565.00,0.1702
564.00,0.1705
563.00,0.1709
562.00,0.1714
561.00,0.1718
560.00,0.1720
559.00,0.1723
558.00,0.1728
557.00,0.1733
556.00,0.1736
555.00,0.1738
554.00,0.1742
553.00,0.1746
552.00,0.1749
551.00,0.1753
550.00,0.1759
549.00,0.1765
548.00,0.1769
547.00,0.1774
546.00,0.1779
545.00,0.1782
544.00,0.1784
543.00,0.1787
542.00,0.1791
541.00,0.1796
540.00,0.1799
539.00,0.1803
538.00,0.1808
537.00,0.1812
536.00,0.1814
535.00,0.1815
534.00,0.1819
533.00,0.1822
532.00,0.1824
531.00,0.1828
530.00,0.1831
529.00,0.1833
528.00,0.1832
527.00,0.1833
526.00,0.1837
525.00,0.1839
524.00,0.1837
523.00,0.1835
522.00,0.1835
521.00,0.1835
520.00,0.1834
519.00,0.1835
518.00,0.1838
517.00,0.1841
516.00,0.1841
515.00,0.1839
514.00,0.1837
513.00,0.1834
512.00,0.1830
511.00,0.1826
510.00,0.1826
509.00,0.1825
508.00,0.1824
507.00,0.1823
506.00,0.1823
505.00,0.1822
504.00,0.1818
503.00,0.1815
502.00,0.1816
501.00,0.1817
500.00,0.1817
499.00,0.1816
498.00,0.1818
497.00,0.1820
496.00,0.1820
495.00,0.1821
494.00,0.1823
493.00,0.1825
492.00,0.1823
491.00,0.1821
490.00,0.1822
489.00,0.1820
488.00,0.1816
487.00,0.1811
486.00,0.1810
485.00,0.1810
484.00,0.1808
483.00,0.1809
482.00,0.1812
481.00,0.1812
480.00,0.1809
479.00,0.1805
478.00,0.1805
477.00,0.1805
476.00,0.1800
475.00,0.1795
474.00,0.1794
473.00,0.1796
472.00,0.1798
471.00,0.1802
470.00,0.1808
469.00,0.1812
468.00,0.1811
467.00,0.1810
466.00,0.1812
465.00,0.1813
464.00,0.1811
463.00,0.1810
462.00,0.1812
461.00,0.1812
460.00,0.1807
459.00,0.1805
458.00,0.1810
457.00,0.1815
456.00,0.1813
455.00,0.1809
454.00,0.1806
453.00,0.1801
452.00,0.1793
451.00,0.1786
450.00,0.1785
449.00,0.1783
448.00,0.1778
447.00,0.1774
446.00,0.1774
445.00,0.1773
444.00,0.1767
443.00,0.1764
442.00,0.1764
441.00,0.1764
440.00,0.1759
439.00,0.1756
438.00,0.1758
437.00,0.1759
436.00,0.1754
435.00,0.1749
434.00,0.1749
433.00,0.1749
432.00,0.1745
431.00,0.1742
430.00,0.1746
429.00,0.1750
428.00,0.1750
427.00,0.1752
426.00,0.1759
425.00,0.1763
424.00,0.1760
423.00,0.1758
422.00,0.1759
421.00,0.1754
420.00,0.1740
419.00,0.1732
418.00,0.1741
417.00,0.1748
416.00,0.1744
415.00,0.1741
414.00,0.1745
413.00,0.1746
412.00,0.1735
411.00,0.1725
410.00,0.1727
409.00,0.1731
408.00,0.1724
407.00,0.1719
406.00,0.1726
405.00,0.1731
404.00,0.1720
403.00,0.1707
402.00,0.1702
401.00,0.1694
400.00,0.1670
