Created as New Dataset,Sample 826 By YargerLab Date Tuesday, July 15 2025
cm-1,A
4000.00,0.0042
3999.00,0.0042
3998.00,0.0042
3997.00,0.0042
3996.00,0.0042
3995.00,0.0042
3994.00,0.0042
3993.00,0.0042
3992.00,0.0042
3991.00,0.0042
3990.00,0.0042
3989.00,0.0042
3988.00,0.0042
3987.00,0.0042
3986.00,0.0042
3985.00,0.0042
3984.00,0.0042
3983.00,0.0042
3982.00,0.0042
3981.00,0.0042
3980.00,0.0042
3979.00,0.0042
3978.00,0.0042
3977.00,0.0042
3976.00,0.0042
3975.00,0.0042
3974.00,0.0042
3973.00,0.0042
3972.00,0.0042
3971.00,0.0042
3970.00,0.0042
3969.00,0.0042
3968.00,0.0041
3967.00,0.0041
3966.00,0.0041
3965.00,0.0042
3964.00,0.0042
3963.00,0.0042
3962.00,0.0042
3961.00,0.0042
3960.00,0.0042
3959.00,0.0042
3958.00,0.0042
3957.00,0.0042
3956.00,0.0042
3955.00,0.0042
3954.00,0.0042
3953.00,0.0042
3952.00,0.0041
3951.00,0.0041
3950.00,0.0042
3949.00,0.0042
3948.00,0.0042
3947.00,0.0042
3946.00,0.0042
3945.00,0.0042
3944.00,0.0042
3943.00,0.0042
3942.00,0.0042
3941.00,0.0042
3940.00,0.0042
3939.00,0.0042
3938.00,0.0042
3937.00,0.0042
3936.00,0.0042
3935.00,0.0042
3934.00,0.0042
3933.00,0.0042
3932.00,0.0041
3931.00,0.0041
3930.00,0.0041
3929.00,0.0041
3928.00,0.0041
3927.00,0.0041
3926.00,0.0041
3925.00,0.0041
3924.00,0.0041
3923.00,0.0041
3922.00,0.0041
3921.00,0.0041
3920.00,0.0041
3919.00,0.0041
3918.00,0.0041
3917.00,0.0041
3916.00,0.0041
3915.00,0.0041
3914.00,0.0041
3913.00,0.0041
3912.00,0.0042
3911.00,0.0042
3910.00,0.0042
3909.00,0.0042
3908.00,0.0042
3907.00,0.0042
3906.00,0.0042
3905.00,0.0041
3904.00,0.0041
3903.00,0.0041
3902.00,0.0040
3901.00,0.0040
3900.00,0.0040
3899.00,0.0040
3898.00,0.0040
3897.00,0.0041
3896.00,0.0041
3895.00,0.0041
3894.00,0.0041
3893.00,0.0041
3892.00,0.0041
3891.00,0.0041
3890.00,0.0041
3889.00,0.0041
3888.00,0.0040
3887.00,0.0040
3886.00,0.0040
3885.00,0.0040
3884.00,0.0040
3883.00,0.0040
3882.00,0.0040
3881.00,0.0040
3880.00,0.0041
3879.00,0.0040
3878.00,0.0040
3877.00,0.0040
3876.00,0.0040
3875.00,0.0040
3874.00,0.0040
3873.00,0.0040
3872.00,0.0039
3871.00,0.0040
3870.00,0.0040
3869.00,0.0040
3868.00,0.0040
3867.00,0.0040
3866.00,0.0040
3865.00,0.0040
3864.00,0.0041
3863.00,0.0040
3862.00,0.0040
3861.00,0.0040
3860.00,0.0041
3859.00,0.0041
3858.00,0.0041
3857.00,0.0040
3856.00,0.0040
3855.00,0.0040
3854.00,0.0040
3853.00,0.0039
3852.00,0.0038
3851.00,0.0038
3850.00,0.0038
3849.00,0.0039
3848.00,0.0039
3847.00,0.0040
3846.00,0.0040
3845.00,0.0041
3844.00,0.0041
3843.00,0.0041
3842.00,0.0041
3841.00,0.0040
3840.00,0.0040
3839.00,0.0040
3838.00,0.0039
3837.00,0.0039
3836.00,0.0039
3835.00,0.0039
3834.00,0.0039
3833.00,0.0040
3832.00,0.0040
3831.00,0.0041
3830.00,0.0041
3829.00,0.0041
3828.00,0.0041
3827.00,0.0041
3826.00,0.0041
3825.00,0.0041
3824.00,0.0041
3823.00,0.0041
3822.00,0.0041
3821.00,0.0041
3820.00,0.0040
3819.00,0.0040
3818.00,0.0039
3817.00,0.0040
3816.00,0.0040
3815.00,0.0040
3814.00,0.0040
3813.00,0.0040
3812.00,0.0040
3811.00,0.0041
3810.00,0.0040
3809.00,0.0040
3808.00,0.0040
3807.00,0.0040
3806.00,0.0040
3805.00,0.0040
3804.00,0.0039
3803.00,0.0039
3802.00,0.0040
3801.00,0.0040
3800.00,0.0040
3799.00,0.0040
3798.00,0.0040
3797.00,0.0040
3796.00,0.0040
3795.00,0.0040
3794.00,0.0040
3793.00,0.0041
3792.00,0.0041
3791.00,0.0041
3790.00,0.0041
3789.00,0.0042
3788.00,0.0042
3787.00,0.0042
3786.00,0.0042
3785.00,0.0041
3784.00,0.0041
3783.00,0.0041
3782.00,0.0041
3781.00,0.0041
3780.00,0.0041
3779.00,0.0041
3778.00,0.0041
3777.00,0.0041
3776.00,0.0041
3775.00,0.0041
3774.00,0.0042
3773.00,0.0042
3772.00,0.0042
3771.00,0.0042
3770.00,0.0042
3769.00,0.0041
3768.00,0.0041
3767.00,0.0041
3766.00,0.0042
3765.00,0.0042
3764.00,0.0042
3763.00,0.0042
3762.00,0.0042
3761.00,0.0042
3760.00,0.0042
3759.00,0.0042
3758.00,0.0042
3757.00,0.0041
3756.00,0.0041
3755.00,0.0041
3754.00,0.0040
3753.00,0.0040
3752.00,0.0040
3751.00,0.0040
3750.00,0.0040
3749.00,0.0040
3748.00,0.0039
3747.00,0.0039
3746.00,0.0038
3745.00,0.0039
3744.00,0.0039
3743.00,0.0039
3742.00,0.0039
3741.00,0.0039
3740.00,0.0040
3739.00,0.0040
3738.00,0.0040
3737.00,0.0040
3736.00,0.0039
3735.00,0.0039
3734.00,0.0038
3733.00,0.0038
3732.00,0.0039
3731.00,0.0039
3730.00,0.0040
3729.00,0.0040
3728.00,0.0041
3727.00,0.0041
3726.00,0.0041
3725.00,0.0041
3724.00,0.0041
3723.00,0.0040
3722.00,0.0040
3721.00,0.0040
3720.00,0.0040
3719.00,0.0040
3718.00,0.0040
3717.00,0.0041
3716.00,0.0040
3715.00,0.0040
3714.00,0.0040
3713.00,0.0040
3712.00,0.0039
3711.00,0.0039
3710.00,0.0039
3709.00,0.0039
3708.00,0.0039
3707.00,0.0040
3706.00,0.0040
3705.00,0.0040
3704.00,0.0040
3703.00,0.0041
3702.00,0.0041
3701.00,0.0041
3700.00,0.0041
3699.00,0.0042
3698.00,0.0042
3697.00,0.0042
3696.00,0.0042
3695.00,0.0042
3694.00,0.0042
3693.00,0.0041
3692.00,0.0041
3691.00,0.0041
3690.00,0.0042
3689.00,0.0042
3688.00,0.0043
3687.00,0.0043
3686.00,0.0044
3685.00,0.0044
3684.00,0.0044
3683.00,0.0044
3682.00,0.0044
3681.00,0.0044
3680.00,0.0044
3679.00,0.0044
3678.00,0.0044
3677.00,0.0044
3676.00,0.0044
3675.00,0.0044
3674.00,0.0043
3673.00,0.0042
3672.00,0.0042
3671.00,0.0043
3670.00,0.0044
3669.00,0.0044
3668.00,0.0045
3667.00,0.0046
3666.00,0.0046
3665.00,0.0047
3664.00,0.0047
3663.00,0.0047
3662.00,0.0047
3661.00,0.0047
3660.00,0.0048
3659.00,0.0048
3658.00,0.0048
3657.00,0.0048
3656.00,0.0048
3655.00,0.0048
3654.00,0.0048
3653.00,0.0048
3652.00,0.0049
3651.00,0.0050
3650.00,0.0050
3649.00,0.0051
3648.00,0.0051
3647.00,0.0051
3646.00,0.0052
3645.00,0.0053
3644.00,0.0054
3643.00,0.0055
3642.00,0.0056
3641.00,0.0057
3640.00,0.0058
3639.00,0.0059
3638.00,0.0059
3637.00,0.0060
3636.00,0.0060
3635.00,0.0061
3634.00,0.0062
3633.00,0.0062
3632.00,0.0062
3631.00,0.0062
3630.00,0.0063
3629.00,0.0064
3628.00,0.0065
3627.00,0.0066
3626.00,0.0066
3625.00,0.0067
3624.00,0.0068
3623.00,0.0068
3622.00,0.0069
3621.00,0.0069
3620.00,0.0070
3619.00,0.0071
3618.00,0.0072
3617.00,0.0073
3616.00,0.0074
3615.00,0.0075
3614.00,0.0076
3613.00,0.0077
3612.00,0.0077
3611.00,0.0078
3610.00,0.0078
3609.00,0.0079
3608.00,0.0080
3607.00,0.0081
3606.00,0.0082
3605.00,0.0083
3604.00,0.0084
3603.00,0.0085
3602.00,0.0086
3601.00,0.0087
3600.00,0.0088
3599.00,0.0089
3598.00,0.0090
3597.00,0.0090
3596.00,0.0091
3595.00,0.0093
3594.00,0.0094
3593.00,0.0095
3592.00,0.0096
3591.00,0.0097
3590.00,0.0098
3589.00,0.0099
3588.00,0.0100
3587.00,0.0101
3586.00,0.0102
3585.00,0.0103
3584.00,0.0104
3583.00,0.0105
3582.00,0.0106
3581.00,0.0107
3580.00,0.0108
3579.00,0.0109
3578.00,0.0110
3577.00,0.0111
3576.00,0.0113
3575.00,0.0114
3574.00,0.0115
3573.00,0.0116
3572.00,0.0117
3571.00,0.0117
3570.00,0.0118
3569.00,0.0119
3568.00,0.0121
3567.00,0.0122
3566.00,0.0124
3565.00,0.0125
3564.00,0.0126
3563.00,0.0127
3562.00,0.0128
3561.00,0.0129
3560.00,0.0130
3559.00,0.0132
3558.00,0.0133
3557.00,0.0133
3556.00,0.0134
3555.00,0.0135
3554.00,0.0136
3553.00,0.0137
3552.00,0.0139
3551.00,0.0139
3550.00,0.0140
3549.00,0.0141
3548.00,0.0142
3547.00,0.0143
3546.00,0.0144
3545.00,0.0145
3544.00,0.0147
3543.00,0.0148
3542.00,0.0148
3541.00,0.0149
3540.00,0.0149
3539.00,0.0150
3538.00,0.0150
3537.00,0.0151
3536.00,0.0153
3535.00,0.0153
3534.00,0.0154
3533.00,0.0155
3532.00,0.0155
3531.00,0.0156
3530.00,0.0156
3529.00,0.0157
3528.00,0.0158
3527.00,0.0159
3526.00,0.0159
3525.00,0.0160
3524.00,0.0161
3523.00,0.0162
3522.00,0.0163
3521.00,0.0163
3520.00,0.0164
3519.00,0.0165
3518.00,0.0165
3517.00,0.0166
3516.00,0.0166
3515.00,0.0167
3514.00,0.0167
3513.00,0.0168
3512.00,0.0168
3511.00,0.0169
3510.00,0.0170
3509.00,0.0171
3508.00,0.0171
3507.00,0.0172
3506.00,0.0172
3505.00,0.0172
3504.00,0.0173
3503.00,0.0174
3502.00,0.0175
3501.00,0.0176
3500.00,0.0176
3499.00,0.0177
3498.00,0.0177
3497.00,0.0178
3496.00,0.0178
3495.00,0.0179
3494.00,0.0179
3493.00,0.0180
3492.00,0.0180
3491.00,0.0181
3490.00,0.0181
3489.00,0.0182
3488.00,0.0183
3487.00,0.0183
3486.00,0.0184
3485.00,0.0184
3484.00,0.0184
3483.00,0.0184
3482.00,0.0185
3481.00,0.0186
3480.00,0.0186
3479.00,0.0187
3478.00,0.0187
3477.00,0.0188
3476.00,0.0188
3475.00,0.0189
3474.00,0.0189
3473.00,0.0190
3472.00,0.0190
3471.00,0.0191
3470.00,0.0191
3469.00,0.0191
3468.00,0.0191
3467.00,0.0192
3466.00,0.0192
3465.00,0.0193
3464.00,0.0193
3463.00,0.0194
3462.00,0.0194
3461.00,0.0195
3460.00,0.0195
3459.00,0.0195
3458.00,0.0195
3457.00,0.0195
3456.00,0.0195
3455.00,0.0196
3454.00,0.0196
3453.00,0.0196
3452.00,0.0196
3451.00,0.0196
3450.00,0.0196
3449.00,0.0196
3448.00,0.0197
3447.00,0.0197
3446.00,0.0197
3445.00,0.0198
3444.00,0.0198
3443.00,0.0198
3442.00,0.0198
3441.00,0.0198
3440.00,0.0199
3439.00,0.0199
3438.00,0.0199
3437.00,0.0199
3436.00,0.0199
3435.00,0.0199
3434.00,0.0199
3433.00,0.0199
3432.00,0.0199
3431.00,0.0199
3430.00,0.0199
3429.00,0.0199
3428.00,0.0199
3427.00,0.0198
3426.00,0.0198
3425.00,0.0198
3424.00,0.0198
3423.00,0.0198
3422.00,0.0198
3421.00,0.0198
3420.00,0.0199
3419.00,0.0199
3418.00,0.0198
3417.00,0.0198
3416.00,0.0198
3415.00,0.0198
3414.00,0.0198
3413.00,0.0198
3412.00,0.0197
3411.00,0.0197
3410.00,0.0197
3409.00,0.0197
3408.00,0.0196
3407.00,0.0196
3406.00,0.0196
3405.00,0.0195
3404.00,0.0195
3403.00,0.0195
3402.00,0.0195
3401.00,0.0195
3400.00,0.0195
3399.00,0.0195
3398.00,0.0195
3397.00,0.0194
3396.00,0.0194
3395.00,0.0194
3394.00,0.0193
3393.00,0.0193
3392.00,0.0193
3391.00,0.0193
3390.00,0.0193
3389.00,0.0193
3388.00,0.0193
3387.00,0.0193
3386.00,0.0193
3385.00,0.0192
3384.00,0.0192
3383.00,0.0192
3382.00,0.0191
3381.00,0.0191
3380.00,0.0191
3379.00,0.0190
3378.00,0.0190
3377.00,0.0190
3376.00,0.0190
3375.00,0.0189
3374.00,0.0189
3373.00,0.0188
3372.00,0.0188
3371.00,0.0187
3370.00,0.0186
3369.00,0.0185
3368.00,0.0185
3367.00,0.0186
3366.00,0.0186
3365.00,0.0187
3364.00,0.0187
3363.00,0.0187
3362.00,0.0187
3361.00,0.0186
3360.00,0.0186
3359.00,0.0186
3358.00,0.0186
3357.00,0.0186
3356.00,0.0186
3355.00,0.0185
3354.00,0.0184
3353.00,0.0183
3352.00,0.0182
3351.00,0.0182
3350.00,0.0182
3349.00,0.0183
3348.00,0.0183
3347.00,0.0183
3346.00,0.0183
3345.00,0.0182
3344.00,0.0182
3343.00,0.0181
3342.00,0.0181
3341.00,0.0181
3340.00,0.0180
3339.00,0.0180
3338.00,0.0180
3337.00,0.0181
3336.00,0.0181
3335.00,0.0181
3334.00,0.0181
3333.00,0.0181
3332.00,0.0181
3331.00,0.0181
3330.00,0.0181
3329.00,0.0180
3328.00,0.0179
3327.00,0.0179
3326.00,0.0178
3325.00,0.0178
3324.00,0.0178
3323.00,0.0179
3322.00,0.0179
3321.00,0.0179
3320.00,0.0179
3319.00,0.0179
3318.00,0.0179
3317.00,0.0179
3316.00,0.0179
3315.00,0.0179
3314.00,0.0178
3313.00,0.0178
3312.00,0.0177
3311.00,0.0176
3310.00,0.0174
3309.00,0.0173
3308.00,0.0173
3307.00,0.0172
3306.00,0.0172
3305.00,0.0173
3304.00,0.0175
3303.00,0.0176
3302.00,0.0177
3301.00,0.0177
3300.00,0.0177
3299.00,0.0176
3298.00,0.0175
3297.00,0.0174
3296.00,0.0173
3295.00,0.0173
3294.00,0.0173
3293.00,0.0173
3292.00,0.0173
3291.00,0.0174
3290.00,0.0174
3289.00,0.0175
3288.00,0.0175
3287.00,0.0175
3286.00,0.0175
3285.00,0.0175
3284.00,0.0175
3283.00,0.0175
3282.00,0.0175
3281.00,0.0175
3280.00,0.0175
3279.00,0.0174
3278.00,0.0174
3277.00,0.0174
3276.00,0.0173
3275.00,0.0172
3274.00,0.0172
3273.00,0.0171
3272.00,0.0170
3271.00,0.0170
3270.00,0.0170
3269.00,0.0171
3268.00,0.0171
3267.00,0.0171
3266.00,0.0171
3265.00,0.0171
3264.00,0.0171
3263.00,0.0171
3262.00,0.0171
3261.00,0.0170
3260.00,0.0170
3259.00,0.0169
3258.00,0.0169
3257.00,0.0168
3256.00,0.0168
3255.00,0.0168
3254.00,0.0168
3253.00,0.0168
3252.00,0.0168
3251.00,0.0168
3250.00,0.0168
3249.00,0.0167
3248.00,0.0167
3247.00,0.0166
3246.00,0.0166
3245.00,0.0166
3244.00,0.0166
3243.00,0.0166
3242.00,0.0166
3241.00,0.0166
3240.00,0.0166
3239.00,0.0165
3238.00,0.0165
3237.00,0.0164
3236.00,0.0164
3235.00,0.0163
3234.00,0.0162
3233.00,0.0162
3232.00,0.0163
3231.00,0.0163
3230.00,0.0163
3229.00,0.0163
3228.00,0.0163
3227.00,0.0163
3226.00,0.0162
3225.00,0.0162
3224.00,0.0162
3223.00,0.0161
3222.00,0.0160
3221.00,0.0160
3220.00,0.0160
3219.00,0.0160
3218.00,0.0159
3217.00,0.0159
3216.00,0.0159
3215.00,0.0159
3214.00,0.0158
3213.00,0.0158
3212.00,0.0158
3211.00,0.0157
3210.00,0.0157
3209.00,0.0157
3208.00,0.0156
3207.00,0.0156
3206.00,0.0156
3205.00,0.0156
3204.00,0.0155
3203.00,0.0155
3202.00,0.0154
3201.00,0.0154
3200.00,0.0154
3199.00,0.0153
3198.00,0.0153
3197.00,0.0153
3196.00,0.0153
3195.00,0.0152
3194.00,0.0152
3193.00,0.0152
3192.00,0.0152
3191.00,0.0151
3190.00,0.0151
3189.00,0.0151
3188.00,0.0150
3187.00,0.0150
3186.00,0.0150
3185.00,0.0150
3184.00,0.0150
3183.00,0.0150
3182.00,0.0149
3181.00,0.0149
3180.00,0.0149
3179.00,0.0149
3178.00,0.0149
3177.00,0.0149
3176.00,0.0149
3175.00,0.0148
3174.00,0.0148
3173.00,0.0148
3172.00,0.0148
3171.00,0.0148
3170.00,0.0147
3169.00,0.0147
3168.00,0.0146
3167.00,0.0146
3166.00,0.0146
3165.00,0.0146
3164.00,0.0145
3163.00,0.0145
3162.00,0.0144
3161.00,0.0144
3160.00,0.0144
3159.00,0.0144
3158.00,0.0144
3157.00,0.0143
3156.00,0.0143
3155.00,0.0142
3154.00,0.0142
3153.00,0.0142
3152.00,0.0142
3151.00,0.0141
3150.00,0.0141
3149.00,0.0141
3148.00,0.0141
3147.00,0.0141
3146.00,0.0140
3145.00,0.0140
3144.00,0.0140
3143.00,0.0139
3142.00,0.0139
3141.00,0.0138
3140.00,0.0138
3139.00,0.0138
3138.00,0.0137
3137.00,0.0137
3136.00,0.0137
3135.00,0.0137
3134.00,0.0137
3133.00,0.0137
3132.00,0.0137
3131.00,0.0137
3130.00,0.0136
3129.00,0.0136
3128.00,0.0136
3127.00,0.0136
3126.00,0.0135
3125.00,0.0135
3124.00,0.0135
3123.00,0.0135
3122.00,0.0135
3121.00,0.0135
3120.00,0.0134
3119.00,0.0134
3118.00,0.0134
3117.00,0.0134
3116.00,0.0134
3115.00,0.0133
3114.00,0.0133
3113.00,0.0133
3112.00,0.0132
3111.00,0.0132
3110.00,0.0132
3109.00,0.0132
3108.00,0.0131
3107.00,0.0131
3106.00,0.0131
3105.00,0.0130
3104.00,0.0130
3103.00,0.0130
3102.00,0.0130
3101.00,0.0129
3100.00,0.0129
3099.00,0.0129
3098.00,0.0129
3097.00,0.0129
3096.00,0.0129
3095.00,0.0129
3094.00,0.0129
3093.00,0.0129
3092.00,0.0129
3091.00,0.0128
3090.00,0.0128
3089.00,0.0128
3088.00,0.0128
3087.00,0.0128
3086.00,0.0128
3085.00,0.0128
3084.00,0.0128
3083.00,0.0128
3082.00,0.0128
3081.00,0.0128
3080.00,0.0128
3079.00,0.0128
3078.00,0.0128
3077.00,0.0127
3076.00,0.0127
3075.00,0.0127
3074.00,0.0127
3073.00,0.0127
3072.00,0.0127
3071.00,0.0126
3070.00,0.0126
3069.00,0.0126
3068.00,0.0125
3067.00,0.0125
3066.00,0.0125
3065.00,0.0124
3064.00,0.0124
3063.00,0.0124
3062.00,0.0124
3061.00,0.0124
3060.00,0.0123
3059.00,0.0123
3058.00,0.0122
3057.00,0.0122
3056.00,0.0122
3055.00,0.0121
3054.00,0.0121
3053.00,0.0121
3052.00,0.0121
3051.00,0.0121
3050.00,0.0121
3049.00,0.0121
3048.00,0.0121
3047.00,0.0120
3046.00,0.0120
3045.00,0.0120
3044.00,0.0120
3043.00,0.0120
3042.00,0.0120
3041.00,0.0119
3040.00,0.0119
3039.00,0.0119
3038.00,0.0119
3037.00,0.0119
3036.00,0.0119
3035.00,0.0119
3034.00,0.0119
3033.00,0.0118
3032.00,0.0118
3031.00,0.0118
3030.00,0.0118
3029.00,0.0118
3028.00,0.0118
3027.00,0.0118
3026.00,0.0117
3025.00,0.0117
3024.00,0.0117
3023.00,0.0117
3022.00,0.0117
3021.00,0.0117
3020.00,0.0117
3019.00,0.0117
3018.00,0.0117
3017.00,0.0117
3016.00,0.0118
3015.00,0.0118
3014.00,0.0119
3013.00,0.0119
3012.00,0.0120
3011.00,0.0120
3010.00,0.0121
3009.00,0.0121
3008.00,0.0122
3007.00,0.0123
3006.00,0.0124
3005.00,0.0126
3004.00,0.0127
3003.00,0.0129
3002.00,0.0131
3001.00,0.0134
3000.00,0.0136
2999.00,0.0139
2998.00,0.0142
2997.00,0.0146
2996.00,0.0150
2995.00,0.0154
2994.00,0.0158
2993.00,0.0163
2992.00,0.0168
2991.00,0.0173
2990.00,0.0178
2989.00,0.0183
2988.00,0.0187
2987.00,0.0191
2986.00,0.0195
2985.00,0.0197
2984.00,0.0198
2983.00,0.0199
2982.00,0.0201
2981.00,0.0204
2980.00,0.0209
2979.00,0.0215
2978.00,0.0220
2977.00,0.0225
2976.00,0.0230
2975.00,0.0234
2974.00,0.0237
2973.00,0.0239
2972.00,0.0242
2971.00,0.0245
2970.00,0.0250
2969.00,0.0255
2968.00,0.0260
2967.00,0.0264
2966.00,0.0269
2965.00,0.0273
2964.00,0.0278
2963.00,0.0282
2962.00,0.0286
2961.00,0.0290
2960.00,0.0294
2959.00,0.0298
2958.00,0.0301
2957.00,0.0304
2956.00,0.0307
2955.00,0.0309
2954.00,0.0310
2953.00,0.0311
2952.00,0.0312
2951.00,0.0312
2950.00,0.0312
2949.00,0.0311
2948.00,0.0311
2947.00,0.0310
2946.00,0.0310
2945.00,0.0310
2944.00,0.0311
2943.00,0.0311
2942.00,0.0312
2941.00,0.0313
2940.00,0.0314
2939.00,0.0316
2938.00,0.0318
2937.00,0.0320
2936.00,0.0323
2935.00,0.0325
2934.00,0.0328
2933.00,0.0331
2932.00,0.0333
2931.00,0.0335
2930.00,0.0337
2929.00,0.0339
2928.00,0.0341
2927.00,0.0342
2926.00,0.0343
2925.00,0.0343
2924.00,0.0342
2923.00,0.0341
2922.00,0.0339
2921.00,0.0336
2920.00,0.0333
2919.00,0.0329
2918.00,0.0325
2917.00,0.0320
2916.00,0.0316
2915.00,0.0310
2914.00,0.0305
2913.00,0.0300
2912.00,0.0295
2911.00,0.0290
2910.00,0.0284
2909.00,0.0280
2908.00,0.0275
2907.00,0.0271
2906.00,0.0267
2905.00,0.0263
2904.00,0.0260
2903.00,0.0258
2902.00,0.0256
2901.00,0.0255
2900.00,0.0254
2899.00,0.0253
2898.00,0.0252
2897.00,0.0251
2896.00,0.0251
2895.00,0.0250
2894.00,0.0250
2893.00,0.0249
2892.00,0.0248
2891.00,0.0248
2890.00,0.0247
2889.00,0.0247
2888.00,0.0246
2887.00,0.0246
2886.00,0.0246
2885.00,0.0246
2884.00,0.0246
2883.00,0.0246
2882.00,0.0247
2881.00,0.0248
2880.00,0.0250
2879.00,0.0251
2878.00,0.0253
2877.00,0.0254
2876.00,0.0255
2875.00,0.0256
2874.00,0.0257
2873.00,0.0258
2872.00,0.0259
2871.00,0.0260
2870.00,0.0260
2869.00,0.0259
2868.00,0.0259
2867.00,0.0258
2866.00,0.0257
2865.00,0.0257
2864.00,0.0257
2863.00,0.0257
2862.00,0.0257
2861.00,0.0257
2860.00,0.0257
2859.00,0.0256
2858.00,0.0255
2857.00,0.0253
2856.00,0.0251
2855.00,0.0247
2854.00,0.0243
2853.00,0.0238
2852.00,0.0233
2851.00,0.0227
2850.00,0.0221
2849.00,0.0216
2848.00,0.0210
2847.00,0.0204
2846.00,0.0199
2845.00,0.0194
2844.00,0.0188
2843.00,0.0183
2842.00,0.0178
2841.00,0.0173
2840.00,0.0169
2839.00,0.0165
2838.00,0.0161
2837.00,0.0158
2836.00,0.0156
2835.00,0.0153
2834.00,0.0150
2833.00,0.0147
2832.00,0.0144
2831.00,0.0142
2830.00,0.0139
2829.00,0.0137
2828.00,0.0134
2827.00,0.0132
2826.00,0.0130
2825.00,0.0128
2824.00,0.0125
2823.00,0.0123
2822.00,0.0121
2821.00,0.0120
2820.00,0.0118
2819.00,0.0117
2818.00,0.0115
2817.00,0.0114
2816.00,0.0112
2815.00,0.0111
2814.00,0.0110
2813.00,0.0109
2812.00,0.0108
2811.00,0.0107
2810.00,0.0107
2809.00,0.0106
2808.00,0.0105
2807.00,0.0105
2806.00,0.0105
2805.00,0.0104
2804.00,0.0103
2803.00,0.0103
2802.00,0.0102
2801.00,0.0101
2800.00,0.0100
2799.00,0.0100
2798.00,0.0099
2797.00,0.0098
2796.00,0.0098
2795.00,0.0098
2794.00,0.0098
2793.00,0.0098
2792.00,0.0097
2791.00,0.0097
2790.00,0.0096
2789.00,0.0096
2788.00,0.0096
2787.00,0.0095
2786.00,0.0095
2785.00,0.0094
2784.00,0.0094
2783.00,0.0094
2782.00,0.0093
2781.00,0.0093
2780.00,0.0093
2779.00,0.0093
2778.00,0.0092
2777.00,0.0092
2776.00,0.0092
2775.00,0.0091
2774.00,0.0091
2773.00,0.0091
2772.00,0.0090
2771.00,0.0090
2770.00,0.0090
2769.00,0.0090
2768.00,0.0090
2767.00,0.0090
2766.00,0.0089
2765.00,0.0089
2764.00,0.0089
2763.00,0.0089
2762.00,0.0089
2761.00,0.0089
2760.00,0.0089
2759.00,0.0089
2758.00,0.0089
2757.00,0.0089
2756.00,0.0089
2755.00,0.0089
2754.00,0.0089
2753.00,0.0089
2752.00,0.0089
2751.00,0.0089
2750.00,0.0089
2749.00,0.0089
2748.00,0.0089
2747.00,0.0089
2746.00,0.0089
2745.00,0.0089
2744.00,0.0090
2743.00,0.0090
2742.00,0.0090
2741.00,0.0090
2740.00,0.0090
2739.00,0.0090
2738.00,0.0090
2737.00,0.0090
2736.00,0.0090
2735.00,0.0090
2734.00,0.0090
2733.00,0.0090
2732.00,0.0090
2731.00,0.0090
2730.00,0.0090
2729.00,0.0089
2728.00,0.0089
2727.00,0.0089
2726.00,0.0089
2725.00,0.0088
2724.00,0.0088
2723.00,0.0088
2722.00,0.0088
2721.00,0.0088
2720.00,0.0088
2719.00,0.0088
2718.00,0.0087
2717.00,0.0087
2716.00,0.0087
2715.00,0.0087
2714.00,0.0087
2713.00,0.0086
2712.00,0.0086
2711.00,0.0086
2710.00,0.0086
2709.00,0.0085
2708.00,0.0085
2707.00,0.0085
2706.00,0.0085
2705.00,0.0085
2704.00,0.0085
2703.00,0.0084
2702.00,0.0084
2701.00,0.0084
2700.00,0.0084
2699.00,0.0084
2698.00,0.0083
2697.00,0.0083
2696.00,0.0083
2695.00,0.0083
2694.00,0.0083
2693.00,0.0082
2692.00,0.0082
2691.00,0.0082
2690.00,0.0082
2689.00,0.0081
2688.00,0.0081
2687.00,0.0081
2686.00,0.0081
2685.00,0.0081
2684.00,0.0081
2683.00,0.0081
2682.00,0.0080
2681.00,0.0080
2680.00,0.0080
2679.00,0.0080
2678.00,0.0080
2677.00,0.0080
2676.00,0.0080
2675.00,0.0080
2674.00,0.0079
2673.00,0.0080
2672.00,0.0080
2671.00,0.0080
2670.00,0.0079
2669.00,0.0079
2668.00,0.0080
2667.00,0.0080
2666.00,0.0080
2665.00,0.0080
2664.00,0.0081
2663.00,0.0081
2662.00,0.0081
2661.00,0.0082
2660.00,0.0082
2659.00,0.0082
2658.00,0.0082
2657.00,0.0083
2656.00,0.0082
2655.00,0.0082
2654.00,0.0082
2653.00,0.0082
2652.00,0.0082
2651.00,0.0082
2650.00,0.0082
2649.00,0.0082
2648.00,0.0082
2647.00,0.0082
2646.00,0.0082
2645.00,0.0082
2644.00,0.0082
2643.00,0.0081
2642.00,0.0081
2641.00,0.0081
2640.00,0.0081
2639.00,0.0081
2638.00,0.0081
2637.00,0.0081
2636.00,0.0081
2635.00,0.0081
2634.00,0.0080
2633.00,0.0080
2632.00,0.0080
2631.00,0.0080
2630.00,0.0079
2629.00,0.0079
2628.00,0.0079
2627.00,0.0078
2626.00,0.0078
2625.00,0.0078
2624.00,0.0078
2623.00,0.0078
2622.00,0.0078
2621.00,0.0078
2620.00,0.0078
2619.00,0.0078
2618.00,0.0078
2617.00,0.0077
2616.00,0.0077
2615.00,0.0077
2614.00,0.0077
2613.00,0.0076
2612.00,0.0077
2611.00,0.0076
2610.00,0.0076
2609.00,0.0076
2608.00,0.0076
2607.00,0.0076
2606.00,0.0076
2605.00,0.0076
2604.00,0.0076
2603.00,0.0075
2602.00,0.0075
2601.00,0.0075
2600.00,0.0075
2599.00,0.0075
2598.00,0.0075
2597.00,0.0075
2596.00,0.0074
2595.00,0.0074
2594.00,0.0074
2593.00,0.0074
2592.00,0.0074
2591.00,0.0074
2590.00,0.0074
2589.00,0.0074
2588.00,0.0074
2587.00,0.0074
2586.00,0.0074
2585.00,0.0073
2584.00,0.0073
2583.00,0.0073
2582.00,0.0073
2581.00,0.0073
2580.00,0.0073
2579.00,0.0073
2578.00,0.0072
2577.00,0.0072
2576.00,0.0072
2575.00,0.0072
2574.00,0.0072
2573.00,0.0072
2572.00,0.0071
2571.00,0.0071
2570.00,0.0071
2569.00,0.0071
2568.00,0.0071
2567.00,0.0071
2566.00,0.0071
2565.00,0.0071
2564.00,0.0071
2563.00,0.0070
2562.00,0.0070
2561.00,0.0070
2560.00,0.0070
2559.00,0.0070
2558.00,0.0069
2557.00,0.0069
2556.00,0.0069
2555.00,0.0069
2554.00,0.0069
2553.00,0.0069
2552.00,0.0069
2551.00,0.0068
2550.00,0.0068
2549.00,0.0068
2548.00,0.0068
2547.00,0.0067
2546.00,0.0067
2545.00,0.0067
2544.00,0.0067
2543.00,0.0067
2542.00,0.0066
2541.00,0.0066
2540.00,0.0066
2539.00,0.0066
2538.00,0.0066
2537.00,0.0066
2536.00,0.0065
2535.00,0.0065
2534.00,0.0065
2533.00,0.0064
2532.00,0.0064
2531.00,0.0064
2530.00,0.0064
2529.00,0.0064
2528.00,0.0064
2527.00,0.0063
2526.00,0.0063
2525.00,0.0063
2524.00,0.0063
2523.00,0.0062
2522.00,0.0062
2521.00,0.0062
2520.00,0.0062
2519.00,0.0062
2518.00,0.0062
2517.00,0.0061
2516.00,0.0061
2515.00,0.0061
2514.00,0.0060
2513.00,0.0060
2512.00,0.0060
2511.00,0.0060
2510.00,0.0059
2509.00,0.0059
2508.00,0.0059
2507.00,0.0059
2506.00,0.0059
2505.00,0.0059
2504.00,0.0059
2503.00,0.0059
2502.00,0.0059
2501.00,0.0059
2500.00,0.0059
2499.00,0.0059
2498.00,0.0059
2497.00,0.0059
2496.00,0.0059
2495.00,0.0059
2494.00,0.0059
2493.00,0.0059
2492.00,0.0059
2491.00,0.0059
2490.00,0.0059
2489.00,0.0059
2488.00,0.0059
2487.00,0.0059
2486.00,0.0059
2485.00,0.0059
2484.00,0.0059
2483.00,0.0059
2482.00,0.0058
2481.00,0.0058
2480.00,0.0058
2479.00,0.0057
2478.00,0.0057
2477.00,0.0057
2476.00,0.0057
2475.00,0.0058
2474.00,0.0058
2473.00,0.0058
2472.00,0.0058
2471.00,0.0057
2470.00,0.0057
2469.00,0.0057
2468.00,0.0057
2467.00,0.0057
2466.00,0.0057
2465.00,0.0057
2464.00,0.0058
2463.00,0.0058
2462.00,0.0059
2461.00,0.0059
2460.00,0.0059
2459.00,0.0059
2458.00,0.0059
2457.00,0.0059
2456.00,0.0059
2455.00,0.0059
2454.00,0.0059
2453.00,0.0059
2452.00,0.0059
2451.00,0.0059
2450.00,0.0059
2449.00,0.0059
2448.00,0.0059
2447.00,0.0059
2446.00,0.0059
2445.00,0.0059
2444.00,0.0058
2443.00,0.0058
2442.00,0.0058
2441.00,0.0058
2440.00,0.0058
2439.00,0.0057
2438.00,0.0057
2437.00,0.0057
2436.00,0.0057
2435.00,0.0057
2434.00,0.0057
2433.00,0.0057
2432.00,0.0057
2431.00,0.0057
2430.00,0.0056
2429.00,0.0056
2428.00,0.0056
2427.00,0.0056
2426.00,0.0056
2425.00,0.0056
2424.00,0.0056
2423.00,0.0056
2422.00,0.0056
2421.00,0.0056
2420.00,0.0056
2419.00,0.0056
2418.00,0.0056
2417.00,0.0056
2416.00,0.0056
2415.00,0.0056
2414.00,0.0056
2413.00,0.0056
2412.00,0.0056
2411.00,0.0056
2410.00,0.0056
2409.00,0.0055
2408.00,0.0055
2407.00,0.0054
2406.00,0.0054
2405.00,0.0054
2404.00,0.0055
2403.00,0.0055
2402.00,0.0055
2401.00,0.0055
2400.00,0.0055
2399.00,0.0055
2398.00,0.0055
2397.00,0.0054
2396.00,0.0054
2395.00,0.0053
2394.00,0.0053
2393.00,0.0053
2392.00,0.0053
2391.00,0.0053
2390.00,0.0053
2389.00,0.0053
2388.00,0.0053
2387.00,0.0052
2386.00,0.0052
2385.00,0.0051
2384.00,0.0051
2383.00,0.0050
2382.00,0.0050
2381.00,0.0050
2380.00,0.0050
2379.00,0.0050
2378.00,0.0050
2377.00,0.0050
2376.00,0.0050
2375.00,0.0050
2374.00,0.0049
2373.00,0.0049
2372.00,0.0049
2371.00,0.0049
2370.00,0.0049
2369.00,0.0049
2368.00,0.0049
2367.00,0.0050
2366.00,0.0050
2365.00,0.0050
2364.00,0.0050
2363.00,0.0050
2362.00,0.0050
2361.00,0.0051
2360.00,0.0051
2359.00,0.0051
2358.00,0.0052
2357.00,0.0052
2356.00,0.0052
2355.00,0.0052
2354.00,0.0052
2353.00,0.0052
2352.00,0.0052
2351.00,0.0052
2350.00,0.0052
2349.00,0.0053
2348.00,0.0054
2347.00,0.0054
2346.00,0.0054
2345.00,0.0054
2344.00,0.0054
2343.00,0.0055
2342.00,0.0055
2341.00,0.0056
2340.00,0.0056
2339.00,0.0057
2338.00,0.0057
2337.00,0.0057
2336.00,0.0057
2335.00,0.0057
2334.00,0.0057
2333.00,0.0057
2332.00,0.0057
2331.00,0.0057
2330.00,0.0058
2329.00,0.0060
2328.00,0.0064
2327.00,0.0069
2326.00,0.0072
2325.00,0.0073
2324.00,0.0072
2323.00,0.0069
2322.00,0.0067
2321.00,0.0066
2320.00,0.0065
2319.00,0.0064
2318.00,0.0063
2317.00,0.0063
2316.00,0.0063
2315.00,0.0062
2314.00,0.0061
2313.00,0.0061
2312.00,0.0060
2311.00,0.0060
2310.00,0.0060
2309.00,0.0060
2308.00,0.0060
2307.00,0.0060
2306.00,0.0060
2305.00,0.0060
2304.00,0.0060
2303.00,0.0061
2302.00,0.0061
2301.00,0.0061
2300.00,0.0062
2299.00,0.0062
2298.00,0.0063
2297.00,0.0064
2296.00,0.0065
2295.00,0.0065
2294.00,0.0066
2293.00,0.0067
2292.00,0.0068
2291.00,0.0068
2290.00,0.0069
2289.00,0.0069
2288.00,0.0070
2287.00,0.0070
2286.00,0.0070
2285.00,0.0069
2284.00,0.0068
2283.00,0.0067
2282.00,0.0066
2281.00,0.0065
2280.00,0.0065
2279.00,0.0065
2278.00,0.0064
2277.00,0.0064
2276.00,0.0064
2275.00,0.0064
2274.00,0.0064
2273.00,0.0064
2272.00,0.0064
2271.00,0.0063
2270.00,0.0062
2269.00,0.0061
2268.00,0.0060
2267.00,0.0059
2266.00,0.0058
2265.00,0.0059
2264.00,0.0060
2263.00,0.0060
2262.00,0.0061
2261.00,0.0061
2260.00,0.0062
2259.00,0.0061
2258.00,0.0060
2257.00,0.0059
2256.00,0.0058
2255.00,0.0057
2254.00,0.0057
2253.00,0.0057
2252.00,0.0057
2251.00,0.0057
2250.00,0.0057
2249.00,0.0057
2248.00,0.0058
2247.00,0.0059
2246.00,0.0059
2245.00,0.0060
2244.00,0.0060
2243.00,0.0060
2242.00,0.0059
2241.00,0.0059
2240.00,0.0060
2239.00,0.0060
2238.00,0.0060
2237.00,0.0060
2236.00,0.0060
2235.00,0.0059
2234.00,0.0059
2233.00,0.0058
2232.00,0.0058
2231.00,0.0057
2230.00,0.0056
2229.00,0.0056
2228.00,0.0056
2227.00,0.0056
2226.00,0.0057
2225.00,0.0057
2224.00,0.0058
2223.00,0.0058
2222.00,0.0057
2221.00,0.0057
2220.00,0.0058
2219.00,0.0059
2218.00,0.0060
2217.00,0.0061
2216.00,0.0061
2215.00,0.0061
2214.00,0.0060
2213.00,0.0059
2212.00,0.0059
2211.00,0.0058
2210.00,0.0058
2209.00,0.0059
2208.00,0.0061
2207.00,0.0061
2206.00,0.0061
2205.00,0.0061
2204.00,0.0061
2203.00,0.0062
2202.00,0.0061
2201.00,0.0061
2200.00,0.0061
2199.00,0.0061
2198.00,0.0061
2197.00,0.0060
2196.00,0.0060
2195.00,0.0060
2194.00,0.0060
2193.00,0.0062
2192.00,0.0064
2191.00,0.0066
2190.00,0.0066
2189.00,0.0065
2188.00,0.0065
2187.00,0.0064
2186.00,0.0063
2185.00,0.0061
2184.00,0.0059
2183.00,0.0056
2182.00,0.0054
2181.00,0.0054
2180.00,0.0056
2179.00,0.0056
2178.00,0.0055
2177.00,0.0054
2176.00,0.0054
2175.00,0.0054
2174.00,0.0056
2173.00,0.0058
2172.00,0.0061
2171.00,0.0064
2170.00,0.0067
2169.00,0.0070
2168.00,0.0073
2167.00,0.0073
2166.00,0.0073
2165.00,0.0073
2164.00,0.0074
2163.00,0.0072
2162.00,0.0065
2161.00,0.0052
2160.00,0.0037
2159.00,0.0026
2158.00,0.0021
2157.00,0.0022
2156.00,0.0026
2155.00,0.0029
2154.00,0.0031
2153.00,0.0034
2152.00,0.0036
2151.00,0.0037
2150.00,0.0037
2149.00,0.0036
2148.00,0.0036
2147.00,0.0037
2146.00,0.0037
2145.00,0.0038
2144.00,0.0039
2143.00,0.0039
2142.00,0.0039
2141.00,0.0039
2140.00,0.0039
2139.00,0.0038
2138.00,0.0036
2137.00,0.0034
2136.00,0.0032
2135.00,0.0032
2134.00,0.0032
2133.00,0.0034
2132.00,0.0036
2131.00,0.0038
2130.00,0.0039
2129.00,0.0041
2128.00,0.0042
2127.00,0.0044
2126.00,0.0045
2125.00,0.0046
2124.00,0.0047
2123.00,0.0048
2122.00,0.0048
2121.00,0.0049
2120.00,0.0051
2119.00,0.0052
2118.00,0.0053
2117.00,0.0053
2116.00,0.0054
2115.00,0.0055
2114.00,0.0055
2113.00,0.0055
2112.00,0.0055
2111.00,0.0055
2110.00,0.0054
2109.00,0.0053
2108.00,0.0053
2107.00,0.0053
2106.00,0.0054
2105.00,0.0054
2104.00,0.0055
2103.00,0.0054
2102.00,0.0054
2101.00,0.0053
2100.00,0.0053
2099.00,0.0052
2098.00,0.0051
2097.00,0.0050
2096.00,0.0049
2095.00,0.0048
2094.00,0.0049
2093.00,0.0051
2092.00,0.0053
2091.00,0.0054
2090.00,0.0055
2089.00,0.0055
2088.00,0.0055
2087.00,0.0055
2086.00,0.0054
2085.00,0.0055
2084.00,0.0056
2083.00,0.0057
2082.00,0.0057
2081.00,0.0058
2080.00,0.0058
2079.00,0.0058
2078.00,0.0057
2077.00,0.0056
2076.00,0.0056
2075.00,0.0055
2074.00,0.0054
2073.00,0.0054
2072.00,0.0053
2071.00,0.0053
2070.00,0.0053
2069.00,0.0053
2068.00,0.0053
2067.00,0.0054
2066.00,0.0054
2065.00,0.0053
2064.00,0.0053
2063.00,0.0052
2062.00,0.0052
2061.00,0.0052
2060.00,0.0052
2059.00,0.0053
2058.00,0.0052
2057.00,0.0052
2056.00,0.0053
2055.00,0.0054
2054.00,0.0057
2053.00,0.0062
2052.00,0.0065
2051.00,0.0065
2050.00,0.0061
2049.00,0.0057
2048.00,0.0055
2047.00,0.0055
2046.00,0.0055
2045.00,0.0055
2044.00,0.0056
2043.00,0.0056
2042.00,0.0055
2041.00,0.0055
2040.00,0.0056
2039.00,0.0056
2038.00,0.0054
2037.00,0.0052
2036.00,0.0051
2035.00,0.0050
2034.00,0.0050
2033.00,0.0050
2032.00,0.0050
2031.00,0.0049
2030.00,0.0047
2029.00,0.0046
2028.00,0.0046
2027.00,0.0046
2026.00,0.0044
2025.00,0.0043
2024.00,0.0043
2023.00,0.0044
2022.00,0.0044
2021.00,0.0045
2020.00,0.0046
2019.00,0.0046
2018.00,0.0045
2017.00,0.0043
2016.00,0.0042
2015.00,0.0042
2014.00,0.0042
2013.00,0.0043
2012.00,0.0045
2011.00,0.0045
2010.00,0.0043
2009.00,0.0040
2008.00,0.0037
2007.00,0.0034
2006.00,0.0033
2005.00,0.0035
2004.00,0.0038
2003.00,0.0041
2002.00,0.0041
2001.00,0.0042
2000.00,0.0043
1999.00,0.0044
1998.00,0.0044
1997.00,0.0045
1996.00,0.0047
1995.00,0.0048
1994.00,0.0049
1993.00,0.0049
1992.00,0.0050
1991.00,0.0051
1990.00,0.0052
1989.00,0.0053
1988.00,0.0054
1987.00,0.0055
1986.00,0.0055
1985.00,0.0056
1984.00,0.0059
1983.00,0.0062
1982.00,0.0065
1981.00,0.0065
1980.00,0.0061
1979.00,0.0053
1978.00,0.0043
1977.00,0.0038
1976.00,0.0036
1975.00,0.0036
1974.00,0.0036
1973.00,0.0036
1972.00,0.0038
1971.00,0.0039
1970.00,0.0038
1969.00,0.0038
1968.00,0.0038
1967.00,0.0037
1966.00,0.0036
1965.00,0.0035
1964.00,0.0035
1963.00,0.0035
1962.00,0.0034
1961.00,0.0032
1960.00,0.0031
1959.00,0.0030
1958.00,0.0030
1957.00,0.0032
1956.00,0.0034
1955.00,0.0035
1954.00,0.0034
1953.00,0.0035
1952.00,0.0035
1951.00,0.0036
1950.00,0.0036
1949.00,0.0036
1948.00,0.0037
1947.00,0.0038
1946.00,0.0038
1945.00,0.0039
1944.00,0.0040
1943.00,0.0040
1942.00,0.0039
1941.00,0.0039
1940.00,0.0040
1939.00,0.0041
1938.00,0.0042
1937.00,0.0042
1936.00,0.0042
1935.00,0.0043
1934.00,0.0042
1933.00,0.0042
1932.00,0.0042
1931.00,0.0042
1930.00,0.0041
1929.00,0.0041
1928.00,0.0042
1927.00,0.0043
1926.00,0.0043
1925.00,0.0043
1924.00,0.0044
1923.00,0.0044
1922.00,0.0044
1921.00,0.0044
1920.00,0.0044
1919.00,0.0044
1918.00,0.0043
1917.00,0.0042
1916.00,0.0042
1915.00,0.0043
1914.00,0.0044
1913.00,0.0044
1912.00,0.0045
1911.00,0.0046
1910.00,0.0045
1909.00,0.0045
1908.00,0.0044
1907.00,0.0044
1906.00,0.0044
1905.00,0.0044
1904.00,0.0045
1903.00,0.0045
1902.00,0.0044
1901.00,0.0044
1900.00,0.0044
1899.00,0.0044
1898.00,0.0045
1897.00,0.0046
1896.00,0.0046
1895.00,0.0045
1894.00,0.0045
1893.00,0.0045
1892.00,0.0046
1891.00,0.0046
1890.00,0.0046
1889.00,0.0045
1888.00,0.0045
1887.00,0.0046
1886.00,0.0045
1885.00,0.0045
1884.00,0.0045
1883.00,0.0044
1882.00,0.0044
1881.00,0.0044
1880.00,0.0045
1879.00,0.0045
1878.00,0.0045
1877.00,0.0045
1876.00,0.0045
1875.00,0.0045
1874.00,0.0044
1873.00,0.0045
1872.00,0.0046
1871.00,0.0047
1870.00,0.0048
1869.00,0.0047
1868.00,0.0046
1867.00,0.0046
1866.00,0.0045
1865.00,0.0044
1864.00,0.0045
1863.00,0.0045
1862.00,0.0045
1861.00,0.0045
1860.00,0.0045
1859.00,0.0045
1858.00,0.0045
1857.00,0.0045
1856.00,0.0046
1855.00,0.0046
1854.00,0.0046
1853.00,0.0046
1852.00,0.0046
1851.00,0.0047
1850.00,0.0047
1849.00,0.0047
1848.00,0.0048
1847.00,0.0048
1846.00,0.0048
1845.00,0.0047
1844.00,0.0045
1843.00,0.0045
1842.00,0.0044
1841.00,0.0045
1840.00,0.0046
1839.00,0.0047
1838.00,0.0046
1837.00,0.0046
1836.00,0.0045
1835.00,0.0045
1834.00,0.0045
1833.00,0.0046
1832.00,0.0048
1831.00,0.0048
1830.00,0.0047
1829.00,0.0046
1828.00,0.0046
1827.00,0.0046
1826.00,0.0047
1825.00,0.0046
1824.00,0.0046
1823.00,0.0046
1822.00,0.0045
1821.00,0.0045
1820.00,0.0044
1819.00,0.0043
1818.00,0.0042
1817.00,0.0041
1816.00,0.0042
1815.00,0.0043
1814.00,0.0044
1813.00,0.0046
1812.00,0.0047
1811.00,0.0047
1810.00,0.0046
1809.00,0.0045
1808.00,0.0045
1807.00,0.0046
1806.00,0.0046
1805.00,0.0046
1804.00,0.0048
1803.00,0.0048
1802.00,0.0048
1801.00,0.0048
1800.00,0.0047
1799.00,0.0047
1798.00,0.0048
1797.00,0.0048
1796.00,0.0049
1795.00,0.0050
1794.00,0.0049
1793.00,0.0049
1792.00,0.0048
1791.00,0.0047
1790.00,0.0047
1789.00,0.0047
1788.00,0.0048
1787.00,0.0049
1786.00,0.0049
1785.00,0.0048
1784.00,0.0049
1783.00,0.0050
1782.00,0.0050
1781.00,0.0050
1780.00,0.0049
1779.00,0.0049
1778.00,0.0049
1777.00,0.0050
1776.00,0.0051
1775.00,0.0053
1774.00,0.0054
1773.00,0.0054
1772.00,0.0052
1771.00,0.0051
1770.00,0.0050
1769.00,0.0050
1768.00,0.0050
1767.00,0.0051
1766.00,0.0051
1765.00,0.0052
1764.00,0.0053
1763.00,0.0054
1762.00,0.0053
1761.00,0.0052
1760.00,0.0053
1759.00,0.0054
1758.00,0.0054
1757.00,0.0054
1756.00,0.0054
1755.00,0.0055
1754.00,0.0056
1753.00,0.0058
1752.00,0.0059
1751.00,0.0061
1750.00,0.0061
1749.00,0.0061
1748.00,0.0061
1747.00,0.0061
1746.00,0.0061
1745.00,0.0062
1744.00,0.0063
1743.00,0.0063
1742.00,0.0063
1741.00,0.0063
1740.00,0.0063
1739.00,0.0063
1738.00,0.0063
1737.00,0.0064
1736.00,0.0067
1735.00,0.0069
1734.00,0.0068
1733.00,0.0068
1732.00,0.0070
1731.00,0.0071
1730.00,0.0072
1729.00,0.0072
1728.00,0.0073
1727.00,0.0075
1726.00,0.0077
1725.00,0.0079
1724.00,0.0081
1723.00,0.0083
1722.00,0.0084
1721.00,0.0086
1720.00,0.0091
1719.00,0.0096
1718.00,0.0099
1717.00,0.0102
1716.00,0.0105
1715.00,0.0108
1714.00,0.0110
1713.00,0.0114
1712.00,0.0120
1711.00,0.0127
1710.00,0.0133
1709.00,0.0140
1708.00,0.0150
1707.00,0.0163
1706.00,0.0176
1705.00,0.0190
1704.00,0.0205
1703.00,0.0217
1702.00,0.0232
1701.00,0.0259
1700.00,0.0300
1699.00,0.0337
1698.00,0.0367
1697.00,0.0400
1696.00,0.0446
1695.00,0.0496
1694.00,0.0539
1693.00,0.0575
1692.00,0.0613
1691.00,0.0657
1690.00,0.0705
1689.00,0.0754
1688.00,0.0798
1687.00,0.0834
1686.00,0.0870
1685.00,0.0925
1684.00,0.0999
1683.00,0.1062
1682.00,0.1099
1681.00,0.1127
1680.00,0.1154
1679.00,0.1180
1678.00,0.1200
1677.00,0.1221
1676.00,0.1250
1675.00,0.1285
1674.00,0.1314
1673.00,0.1331
1672.00,0.1344
1671.00,0.1360
1670.00,0.1384
1669.00,0.1412
1668.00,0.1436
1667.00,0.1451
1666.00,0.1458
1665.00,0.1465
1664.00,0.1478
1663.00,0.1500
1662.00,0.1523
1661.00,0.1539
1660.00,0.1549
1659.00,0.1554
1658.00,0.1555
1657.00,0.1550
1656.00,0.1542
1655.00,0.1533
1654.00,0.1536
1653.00,0.1555
1652.00,0.1564
1651.00,0.1549
1650.00,0.1520
1649.00,0.1488
1648.00,0.1457
1647.00,0.1427
1646.00,0.1396
1645.00,0.1360
1644.00,0.1321
1643.00,0.1278
1642.00,0.1233
1641.00,0.1187
1640.00,0.1142
1639.00,0.1099
1638.00,0.1055
1637.00,0.1010
1636.00,0.0964
1635.00,0.0921
1634.00,0.0883
1633.00,0.0848
1632.00,0.0814
1631.00,0.0782
1630.00,0.0752
1629.00,0.0727
1628.00,0.0706
1627.00,0.0690
1626.00,0.0679
1625.00,0.0673
1624.00,0.0673
1623.00,0.0679
1622.00,0.0686
1621.00,0.0689
1620.00,0.0687
1619.00,0.0682
1618.00,0.0674
1617.00,0.0664
1616.00,0.0651
1615.00,0.0637
1614.00,0.0621
1613.00,0.0605
1612.00,0.0590
1611.00,0.0577
1610.00,0.0565
1609.00,0.0550
1608.00,0.0532
1607.00,0.0511
1606.00,0.0488
1605.00,0.0463
1604.00,0.0439
1603.00,0.0415
1602.00,0.0393
1601.00,0.0373
1600.00,0.0356
1599.00,0.0342
1598.00,0.0332
1597.00,0.0324
1596.00,0.0320
1595.00,0.0319
1594.00,0.0322
1593.00,0.0329
1592.00,0.0340
1591.00,0.0354
1590.00,0.0371
1589.00,0.0388
1588.00,0.0403
1587.00,0.0415
1586.00,0.0421
1585.00,0.0421
1584.00,0.0415
1583.00,0.0403
1582.00,0.0388
1581.00,0.0371
1580.00,0.0355
1579.00,0.0340
1578.00,0.0327
1577.00,0.0312
1576.00,0.0298
1575.00,0.0285
1574.00,0.0276
1573.00,0.0269
1572.00,0.0262
1571.00,0.0255
1570.00,0.0248
1569.00,0.0241
1568.00,0.0235
1567.00,0.0230
1566.00,0.0225
1565.00,0.0220
1564.00,0.0216
1563.00,0.0210
1562.00,0.0205
1561.00,0.0202
1560.00,0.0198
1559.00,0.0194
1558.00,0.0191
1557.00,0.0188
1556.00,0.0185
1555.00,0.0182
1554.00,0.0179
1553.00,0.0177
1552.00,0.0175
1551.00,0.0172
1550.00,0.0171
1549.00,0.0169
1548.00,0.0168
1547.00,0.0166
1546.00,0.0165
1545.00,0.0163
1544.00,0.0162
1543.00,0.0160
1542.00,0.0159
1541.00,0.0158
1540.00,0.0157
1539.00,0.0156
1538.00,0.0156
1537.00,0.0155
1536.00,0.0154
1535.00,0.0153
1534.00,0.0156
1533.00,0.0156
1532.00,0.0155
1531.00,0.0155
1530.00,0.0156
1529.00,0.0158
1528.00,0.0159
1527.00,0.0160
1526.00,0.0162
1525.00,0.0163
1524.00,0.0166
1523.00,0.0169
1522.00,0.0172
1521.00,0.0174
1520.00,0.0176
1519.00,0.0179
1518.00,0.0182
1517.00,0.0185
1516.00,0.0186
1515.00,0.0187
1514.00,0.0189
1513.00,0.0191
1512.00,0.0193
1511.00,0.0197
1510.00,0.0201
1509.00,0.0207
1508.00,0.0213
1507.00,0.0220
1506.00,0.0227
1505.00,0.0237
1504.00,0.0247
1503.00,0.0259
1502.00,0.0274
1501.00,0.0291
1500.00,0.0312
1499.00,0.0334
1498.00,0.0358
1497.00,0.0380
1496.00,0.0396
1495.00,0.0405
1494.00,0.0407
1493.00,0.0404
1492.00,0.0397
1491.00,0.0386
1490.00,0.0370
1489.00,0.0351
1488.00,0.0329
1487.00,0.0308
1486.00,0.0289
1485.00,0.0272
1484.00,0.0258
1483.00,0.0246
1482.00,0.0236
1481.00,0.0229
1480.00,0.0225
1479.00,0.0223
1478.00,0.0224
1477.00,0.0229
1476.00,0.0236
1475.00,0.0246
1474.00,0.0261
1473.00,0.0284
1472.00,0.0313
1471.00,0.0344
1470.00,0.0374
1469.00,0.0405
1468.00,0.0437
1467.00,0.0473
1466.00,0.0514
1465.00,0.0561
1464.00,0.0605
1463.00,0.0636
1462.00,0.0656
1461.00,0.0666
1460.00,0.0668
1459.00,0.0663
1458.00,0.0647
1457.00,0.0621
1456.00,0.0591
1455.00,0.0565
1454.00,0.0544
1453.00,0.0527
1452.00,0.0514
1451.00,0.0507
1450.00,0.0507
1449.00,0.0516
1448.00,0.0533
1447.00,0.0555
1446.00,0.0579
1445.00,0.0604
1444.00,0.0631
1443.00,0.0659
1442.00,0.0688
1441.00,0.0715
1440.00,0.0738
1439.00,0.0758
1438.00,0.0779
1437.00,0.0807
1436.00,0.0835
1435.00,0.0854
1434.00,0.0864
1433.00,0.0869
1432.00,0.0875
1431.00,0.0883
1430.00,0.0895
1429.00,0.0911
1428.00,0.0929
1427.00,0.0949
1426.00,0.0971
1425.00,0.0998
1424.00,0.1023
1423.00,0.1040
1422.00,0.1043
1421.00,0.1033
1420.00,0.1010
1419.00,0.0971
1418.00,0.0922
1417.00,0.0870
1416.00,0.0816
1415.00,0.0762
1414.00,0.0712
1413.00,0.0668
1412.00,0.0631
1411.00,0.0600
1410.00,0.0576
1409.00,0.0559
1408.00,0.0546
1407.00,0.0538
1406.00,0.0534
1405.00,0.0532
1404.00,0.0529
1403.00,0.0526
1402.00,0.0519
1401.00,0.0510
1400.00,0.0496
1399.00,0.0479
1398.00,0.0459
1397.00,0.0438
1396.00,0.0416
1395.00,0.0393
1394.00,0.0373
1393.00,0.0358
1392.00,0.0346
1391.00,0.0338
1390.00,0.0333
1389.00,0.0332
1388.00,0.0334
1387.00,0.0340
1386.00,0.0348
1385.00,0.0358
1384.00,0.0368
1383.00,0.0380
1382.00,0.0392
1381.00,0.0404
1380.00,0.0415
1379.00,0.0423
1378.00,0.0429
1377.00,0.0432
1376.00,0.0432
1375.00,0.0432
1374.00,0.0430
1373.00,0.0426
1372.00,0.0422
1371.00,0.0418
1370.00,0.0414
1369.00,0.0410
1368.00,0.0406
1367.00,0.0402
1366.00,0.0401
1365.00,0.0401
1364.00,0.0402
1363.00,0.0404
1362.00,0.0404
1361.00,0.0402
1360.00,0.0395
1359.00,0.0384
1358.00,0.0371
1357.00,0.0354
1356.00,0.0337
1355.00,0.0321
1354.00,0.0307
1353.00,0.0297
1352.00,0.0288
1351.00,0.0282
1350.00,0.0277
1349.00,0.0273
1348.00,0.0270
1347.00,0.0267
1346.00,0.0265
1345.00,0.0264
1344.00,0.0263
1343.00,0.0263
1342.00,0.0264
1341.00,0.0266
1340.00,0.0268
1339.00,0.0269
1338.00,0.0272
1337.00,0.0274
1336.00,0.0277
1335.00,0.0281
1334.00,0.0286
1333.00,0.0291
1332.00,0.0296
1331.00,0.0302
1330.00,0.0309
1329.00,0.0317
1328.00,0.0326
1327.00,0.0336
1326.00,0.0347
1325.00,0.0359
1324.00,0.0372
1323.00,0.0386
1322.00,0.0399
1321.00,0.0412
1320.00,0.0423
1319.00,0.0432
1318.00,0.0438
1317.00,0.0440
1316.00,0.0439
1315.00,0.0435
1314.00,0.0430
1313.00,0.0423
1312.00,0.0415
1311.00,0.0408
1310.00,0.0403
1309.00,0.0400
1308.00,0.0398
1307.00,0.0399
1306.00,0.0403
1305.00,0.0410
1304.00,0.0419
1303.00,0.0432
1302.00,0.0449
1301.00,0.0472
1300.00,0.0500
1299.00,0.0535
1298.00,0.0578
1297.00,0.0628
1296.00,0.0684
1295.00,0.0745
1294.00,0.0808
1293.00,0.0872
1292.00,0.0934
1291.00,0.0992
1290.00,0.1044
1289.00,0.1088
1288.00,0.1122
1287.00,0.1145
1286.00,0.1157
1285.00,0.1157
1284.00,0.1146
1283.00,0.1128
1282.00,0.1104
1281.00,0.1079
1280.00,0.1055
1279.00,0.1036
1278.00,0.1024
1277.00,0.1017
1276.00,0.1016
1275.00,0.1018
1274.00,0.1022
1273.00,0.1025
1272.00,0.1024
1271.00,0.1017
1270.00,0.1004
1269.00,0.0984
1268.00,0.0957
1267.00,0.0925
1266.00,0.0889
1265.00,0.0850
1264.00,0.0810
1263.00,0.0770
1262.00,0.0732
1261.00,0.0696
1260.00,0.0661
1259.00,0.0629
1258.00,0.0599
1257.00,0.0573
1256.00,0.0548
1255.00,0.0527
1254.00,0.0509
1253.00,0.0493
1252.00,0.0480
1251.00,0.0469
1250.00,0.0463
1249.00,0.0459
1248.00,0.0459
1247.00,0.0461
1246.00,0.0466
1245.00,0.0474
1244.00,0.0482
1243.00,0.0491
1242.00,0.0500
1241.00,0.0509
1240.00,0.0517
1239.00,0.0524
1238.00,0.0531
1237.00,0.0537
1236.00,0.0543
1235.00,0.0549
1234.00,0.0554
1233.00,0.0558
1232.00,0.0561
1231.00,0.0562
1230.00,0.0563
1229.00,0.0563
1228.00,0.0563
1227.00,0.0562
1226.00,0.0562
1225.00,0.0561
1224.00,0.0561
1223.00,0.0562
1222.00,0.0563
1221.00,0.0564
1220.00,0.0564
1219.00,0.0563
1218.00,0.0560
1217.00,0.0555
1216.00,0.0546
1215.00,0.0535
1214.00,0.0522
1213.00,0.0507
1212.00,0.0492
1211.00,0.0477
1210.00,0.0462
1209.00,0.0449
1208.00,0.0438
1207.00,0.0428
1206.00,0.0421
1205.00,0.0416
1204.00,0.0413
1203.00,0.0413
1202.00,0.0415
1201.00,0.0420
1200.00,0.0426
1199.00,0.0433
1198.00,0.0442
1197.00,0.0450
1196.00,0.0457
1195.00,0.0461
1194.00,0.0462
1193.00,0.0459
1192.00,0.0451
1191.00,0.0440
1190.00,0.0426
1189.00,0.0413
1188.00,0.0398
1187.00,0.0385
1186.00,0.0374
1185.00,0.0364
1184.00,0.0355
1183.00,0.0348
1182.00,0.0344
1181.00,0.0340
1180.00,0.0338
1179.00,0.0338
1178.00,0.0339
1177.00,0.0341
1176.00,0.0344
1175.00,0.0348
1174.00,0.0353
1173.00,0.0357
1172.00,0.0361
1171.00,0.0364
1170.00,0.0367
1169.00,0.0369
1168.00,0.0370
1167.00,0.0371
1166.00,0.0373
1165.00,0.0375
1164.00,0.0378
1163.00,0.0382
1162.00,0.0389
1161.00,0.0397
1160.00,0.0406
1159.00,0.0414
1158.00,0.0421
1157.00,0.0424
1156.00,0.0423
1155.00,0.0419
1154.00,0.0410
1153.00,0.0398
1152.00,0.0384
1151.00,0.0369
1150.00,0.0353
1149.00,0.0338
1148.00,0.0322
1147.00,0.0309
1146.00,0.0297
1145.00,0.0287
1144.00,0.0278
1143.00,0.0271
1142.00,0.0266
1141.00,0.0262
1140.00,0.0260
1139.00,0.0261
1138.00,0.0264
1137.00,0.0272
1136.00,0.0282
1135.00,0.0297
1134.00,0.0316
1133.00,0.0337
1132.00,0.0357
1131.00,0.0373
1130.00,0.0383
1129.00,0.0384
1128.00,0.0376
1127.00,0.0360
1126.00,0.0342
1125.00,0.0322
1124.00,0.0303
1123.00,0.0287
1122.00,0.0274
1121.00,0.0265
1120.00,0.0258
1119.00,0.0253
1118.00,0.0250
1117.00,0.0249
1116.00,0.0247
1115.00,0.0247
1114.00,0.0248
1113.00,0.0249
1112.00,0.0250
1111.00,0.0251
1110.00,0.0253
1109.00,0.0255
1108.00,0.0258
1107.00,0.0261
1106.00,0.0266
1105.00,0.0273
1104.00,0.0280
1103.00,0.0287
1102.00,0.0293
1101.00,0.0298
1100.00,0.0298
1099.00,0.0296
1098.00,0.0292
1097.00,0.0286
1096.00,0.0279
1095.00,0.0272
1094.00,0.0266
1093.00,0.0260
1092.00,0.0254
1091.00,0.0248
1090.00,0.0245
1089.00,0.0241
1088.00,0.0238
1087.00,0.0236
1086.00,0.0235
1085.00,0.0235
1084.00,0.0235
1083.00,0.0236
1082.00,0.0238
1081.00,0.0241
1080.00,0.0245
1079.00,0.0249
1078.00,0.0255
1077.00,0.0260
1076.00,0.0266
1075.00,0.0272
1074.00,0.0279
1073.00,0.0286
1072.00,0.0293
1071.00,0.0302
1070.00,0.0314
1069.00,0.0327
1068.00,0.0343
1067.00,0.0363
1066.00,0.0385
1065.00,0.0410
1064.00,0.0437
1063.00,0.0465
1062.00,0.0494
1061.00,0.0521
1060.00,0.0544
1059.00,0.0560
1058.00,0.0567
1057.00,0.0565
1056.00,0.0552
1055.00,0.0531
1054.00,0.0502
1053.00,0.0470
1052.00,0.0437
1051.00,0.0406
1050.00,0.0379
1049.00,0.0357
1048.00,0.0338
1047.00,0.0323
1046.00,0.0311
1045.00,0.0302
1044.00,0.0295
1043.00,0.0291
1042.00,0.0288
1041.00,0.0286
1040.00,0.0284
1039.00,0.0283
1038.00,0.0283
1037.00,0.0285
1036.00,0.0287
1035.00,0.0290
1034.00,0.0296
1033.00,0.0302
1032.00,0.0308
1031.00,0.0312
1030.00,0.0315
1029.00,0.0315
1028.00,0.0311
1027.00,0.0306
1026.00,0.0301
1025.00,0.0297
1024.00,0.0294
1023.00,0.0293
1022.00,0.0295
1021.00,0.0297
1020.00,0.0298
1019.00,0.0299
1018.00,0.0299
1017.00,0.0297
1016.00,0.0293
1015.00,0.0287
1014.00,0.0281
1013.00,0.0274
1012.00,0.0267
1011.00,0.0262
1010.00,0.0260
1009.00,0.0260
1008.00,0.0263
1007.00,0.0268
1006.00,0.0276
1005.00,0.0283
1004.00,0.0290
1003.00,0.0294
1002.00,0.0296
1001.00,0.0295
1000.00,0.0290
999.00,0.0285
998.00,0.0279
997.00,0.0273
996.00,0.0266
995.00,0.0260
994.00,0.0255
993.00,0.0250
992.00,0.0245
991.00,0.0240
990.00,0.0236
989.00,0.0231
988.00,0.0226
987.00,0.0221
986.00,0.0217
985.00,0.0214
984.00,0.0211
983.00,0.0209
982.00,0.0207
981.00,0.0206
980.00,0.0206
979.00,0.0205
978.00,0.0204
977.00,0.0203
976.00,0.0201
975.00,0.0199
974.00,0.0197
973.00,0.0195
972.00,0.0192
971.00,0.0189
970.00,0.0187
969.00,0.0184
968.00,0.0182
967.00,0.0180
966.00,0.0178
965.00,0.0177
964.00,0.0176
963.00,0.0175
962.00,0.0174
961.00,0.0173
960.00,0.0171
959.00,0.0169
958.00,0.0168
957.00,0.0166
956.00,0.0165
955.00,0.0164
954.00,0.0163
953.00,0.0162
952.00,0.0161
951.00,0.0161
950.00,0.0161
949.00,0.0162
948.00,0.0162
947.00,0.0163
946.00,0.0165
945.00,0.0167
944.00,0.0170
943.00,0.0174
942.00,0.0179
941.00,0.0185
940.00,0.0192
939.00,0.0200
938.00,0.0210
937.00,0.0220
936.00,0.0230
935.00,0.0239
934.00,0.0246
933.00,0.0249
932.00,0.0249
931.00,0.0248
930.00,0.0245
929.00,0.0243
928.00,0.0241
927.00,0.0240
926.00,0.0239
925.00,0.0238
924.00,0.0236
923.00,0.0234
922.00,0.0231
921.00,0.0228
920.00,0.0224
919.00,0.0221
918.00,0.0219
917.00,0.0217
916.00,0.0215
915.00,0.0212
914.00,0.0211
913.00,0.0210
912.00,0.0209
911.00,0.0208
910.00,0.0209
909.00,0.0210
908.00,0.0212
907.00,0.0214
906.00,0.0219
905.00,0.0224
904.00,0.0230
903.00,0.0236
902.00,0.0243
901.00,0.0250
900.00,0.0256
899.00,0.0260
898.00,0.0264
897.00,0.0266
896.00,0.0265
895.00,0.0263
894.00,0.0260
893.00,0.0255
892.00,0.0250
891.00,0.0244
890.00,0.0239
889.00,0.0235
888.00,0.0231
887.00,0.0229
886.00,0.0228
885.00,0.0228
884.00,0.0229
883.00,0.0231
882.00,0.0235
881.00,0.0240
880.00,0.0245
879.00,0.0250
878.00,0.0257
877.00,0.0265
876.00,0.0273
875.00,0.0280
874.00,0.0289
873.00,0.0296
872.00,0.0301
871.00,0.0305
870.00,0.0308
869.00,0.0310
868.00,0.0311
867.00,0.0312
866.00,0.0313
865.00,0.0315
864.00,0.0316
863.00,0.0317
862.00,0.0320
861.00,0.0322
860.00,0.0325
859.00,0.0328
858.00,0.0334
857.00,0.0340
856.00,0.0345
855.00,0.0351
854.00,0.0358
853.00,0.0365
852.00,0.0372
851.00,0.0379
850.00,0.0386
849.00,0.0393
848.00,0.0398
847.00,0.0402
846.00,0.0406
845.00,0.0408
844.00,0.0408
843.00,0.0408
842.00,0.0407
841.00,0.0406
840.00,0.0404
839.00,0.0402
838.00,0.0401
837.00,0.0400
836.00,0.0398
835.00,0.0396
834.00,0.0396
833.00,0.0395
832.00,0.0394
831.00,0.0392
830.00,0.0391
829.00,0.0389
828.00,0.0387
827.00,0.0385
826.00,0.0384
825.00,0.0382
824.00,0.0380
823.00,0.0378
822.00,0.0377
821.00,0.0377
820.00,0.0377
819.00,0.0377
818.00,0.0377
817.00,0.0377
816.00,0.0374
815.00,0.0372
814.00,0.0369
813.00,0.0364
812.00,0.0356
811.00,0.0346
810.00,0.0334
809.00,0.0321
808.00,0.0306
807.00,0.0292
806.00,0.0280
805.00,0.0269
804.00,0.0259
803.00,0.0252
802.00,0.0248
801.00,0.0244
800.00,0.0242
799.00,0.0240
798.00,0.0241
797.00,0.0241
796.00,0.0240
795.00,0.0240
794.00,0.0241
793.00,0.0242
792.00,0.0242
791.00,0.0242
790.00,0.0243
789.00,0.0244
788.00,0.0244
787.00,0.0244
786.00,0.0245
785.00,0.0247
784.00,0.0248
783.00,0.0249
782.00,0.0252
781.00,0.0255
780.00,0.0258
779.00,0.0261
778.00,0.0265
777.00,0.0268
776.00,0.0268
775.00,0.0267
774.00,0.0267
773.00,0.0266
772.00,0.0265
771.00,0.0266
770.00,0.0268
769.00,0.0270
768.00,0.0272
767.00,0.0275
766.00,0.0278
765.00,0.0282
764.00,0.0285
763.00,0.0289
762.00,0.0293
761.00,0.0298
760.00,0.0303
759.00,0.0308
758.00,0.0314
757.00,0.0320
756.00,0.0325
755.00,0.0330
754.00,0.0337
753.00,0.0343
752.00,0.0348
751.00,0.0353
750.00,0.0359
749.00,0.0365
748.00,0.0371
747.00,0.0377
746.00,0.0384
745.00,0.0392
744.00,0.0399
743.00,0.0407
742.00,0.0417
741.00,0.0427
740.00,0.0438
739.00,0.0449
738.00,0.0459
737.00,0.0465
736.00,0.0467
735.00,0.0465
734.00,0.0460
733.00,0.0454
732.00,0.0445
731.00,0.0436
730.00,0.0426
729.00,0.0417
728.00,0.0406
727.00,0.0397
726.00,0.0388
725.00,0.0380
724.00,0.0372
723.00,0.0364
722.00,0.0359
721.00,0.0354
720.00,0.0349
719.00,0.0346
718.00,0.0345
717.00,0.0344
716.00,0.0343
715.00,0.0342
714.00,0.0341
713.00,0.0341
712.00,0.0339
711.00,0.0337
710.00,0.0336
709.00,0.0334
708.00,0.0333
707.00,0.0332
706.00,0.0332
705.00,0.0333
704.00,0.0333
703.00,0.0334
702.00,0.0335
701.00,0.0338
700.00,0.0340
699.00,0.0343
698.00,0.0348
697.00,0.0353
696.00,0.0359
695.00,0.0366
694.00,0.0374
693.00,0.0382
692.00,0.0388
691.00,0.0393
690.00,0.0397
689.00,0.0400
688.00,0.0401
687.00,0.0401
686.00,0.0402
685.00,0.0404
684.00,0.0404
683.00,0.0405
682.00,0.0406
681.00,0.0408
680.00,0.0410
679.00,0.0413
678.00,0.0417
677.00,0.0422
676.00,0.0426
675.00,0.0431
674.00,0.0437
673.00,0.0443
672.00,0.0449
671.00,0.0454
670.00,0.0462
669.00,0.0473
668.00,0.0486
667.00,0.0499
666.00,0.0508
665.00,0.0513
664.00,0.0519
663.00,0.0527
662.00,0.0538
661.00,0.0549
660.00,0.0559
659.00,0.0570
658.00,0.0582
657.00,0.0594
656.00,0.0605
655.00,0.0616
654.00,0.0626
653.00,0.0636
652.00,0.0643
651.00,0.0649
650.00,0.0655
649.00,0.0659
648.00,0.0659
647.00,0.0658
646.00,0.0655
645.00,0.0651
644.00,0.0644
643.00,0.0636
642.00,0.0628
641.00,0.0620
640.00,0.0611
639.00,0.0602
638.00,0.0594
637.00,0.0585
636.00,0.0576
635.00,0.0567
634.00,0.0561
633.00,0.0555
632.00,0.0549
631.00,0.0543
630.00,0.0540
629.00,0.0538
628.00,0.0534
627.00,0.0532
626.00,0.0530
625.00,0.0529
624.00,0.0526
623.00,0.0525
622.00,0.0525
621.00,0.0524
620.00,0.0521
619.00,0.0518
618.00,0.0516
617.00,0.0515
616.00,0.0513
615.00,0.0513
614.00,0.0514
613.00,0.0515
612.00,0.0516
611.00,0.0517
610.00,0.0520
609.00,0.0523
608.00,0.0524
607.00,0.0525
606.00,0.0528
605.00,0.0531
604.00,0.0533
603.00,0.0536
602.00,0.0540
601.00,0.0543
600.00,0.0544
599.00,0.0544
598.00,0.0546
597.00,0.0548
596.00,0.0549
595.00,0.0550
594.00,0.0552
593.00,0.0554
592.00,0.0556
591.00,0.0561
590.00,0.0570
589.00,0.0581
588.00,0.0594
587.00,0.0610
586.00,0.0628
585.00,0.0647
584.00,0.0663
583.00,0.0676
582.00,0.0688
581.00,0.0696
580.00,0.0701
579.00,0.0705
578.00,0.0709
577.00,0.0713
576.00,0.0715
575.00,0.0716
574.00,0.0718
573.00,0.0719
572.00,0.0718
571.00,0.0716
570.00,0.0715
569.00,0.0712
568.00,0.0707
567.00,0.0703
566.00,0.0700
565.00,0.0697
564.00,0.0691
563.00,0.0683
562.00,0.0676
561.00,0.0669
560.00,0.0661
559.00,0.0655
558.00,0.0652
557.00,0.0649
556.00,0.0643
555.00,0.0638
554.00,0.0634
553.00,0.0631
552.00,0.0626
551.00,0.0622
550.00,0.0621
549.00,0.0619
548.00,0.0615
547.00,0.0609
546.00,0.0604
545.00,0.0599
544.00,0.0591
543.00,0.0586
542.00,0.0584
541.00,0.0583
540.00,0.0582
539.00,0.0582
538.00,0.0586
537.00,0.0589
536.00,0.0590
535.00,0.0594
534.00,0.0601
533.00,0.0608
532.00,0.0611
531.00,0.0613
530.00,0.0614
529.00,0.0612
528.00,0.0605
527.00,0.0599
526.00,0.0594
525.00,0.0589
524.00,0.0582
523.00,0.0577
522.00,0.0576
521.00,0.0575
520.00,0.0571
519.00,0.0568
518.00,0.0567
517.00,0.0567
516.00,0.0565
515.00,0.0562
514.00,0.0561
513.00,0.0559
512.00,0.0557
511.00,0.0558
510.00,0.0565
509.00,0.0572
508.00,0.0574
507.00,0.0574
506.00,0.0576
505.00,0.0576
504.00,0.0572
503.00,0.0569
502.00,0.0570
501.00,0.0570
500.00,0.0566
499.00,0.0565
498.00,0.0568
497.00,0.0570
496.00,0.0569
495.00,0.0567
494.00,0.0568
493.00,0.0570
492.00,0.0570
491.00,0.0569
490.00,0.0572
489.00,0.0573
488.00,0.0573
487.00,0.0574
486.00,0.0579
485.00,0.0584
484.00,0.0583
483.00,0.0581
482.00,0.0581
481.00,0.0581
480.00,0.0578
479.00,0.0575
478.00,0.0577
477.00,0.0577
476.00,0.0575
475.00,0.0576
474.00,0.0584
473.00,0.0590
472.00,0.0589
471.00,0.0586
470.00,0.0586
469.00,0.0585
468.00,0.0580
467.00,0.0578
466.00,0.0581
465.00,0.0583
464.00,0.0579
463.00,0.0577
462.00,0.0581
461.00,0.0584
460.00,0.0581
459.00,0.0577
458.00,0.0578
457.00,0.0577
456.00,0.0569
455.00,0.0562
454.00,0.0563
453.00,0.0566
452.00,0.0563
451.00,0.0557
450.00,0.0554
449.00,0.0551
448.00,0.0545
447.00,0.0542
446.00,0.0546
445.00,0.0548
444.00,0.0543
443.00,0.0539
442.00,0.0541
441.00,0.0542
440.00,0.0535
439.00,0.0527
438.00,0.0525
437.00,0.0522
436.00,0.0514
435.00,0.0509
434.00,0.0513
433.00,0.0517
432.00,0.0511
431.00,0.0503
430.00,0.0502
429.00,0.0504
428.00,0.0500
427.00,0.0497
426.00,0.0500
425.00,0.0501
424.00,0.0495
423.00,0.0488
422.00,0.0488
421.00,0.0489
420.00,0.0484
419.00,0.0487
418.00,0.0504
417.00,0.0516
416.00,0.0512
415.00,0.0508
414.00,0.0514
413.00,0.0519
412.00,0.0515
411.00,0.0513
410.00,0.0517
409.00,0.0514
408.00,0.0499
407.00,0.0489
406.00,0.0499
405.00,0.0507
404.00,0.0499
403.00,0.0490
402.00,0.0497
401.00,0.0507
400.00,0.0506
