Created as New Dataset,Sample 810 By YargerLab Date Thursday, July 10 2025
cm-1,A
4000.00,0.0077
3999.00,0.0077
3998.00,0.0078
3997.00,0.0078
3996.00,0.0078
3995.00,0.0078
3994.00,0.0077
3993.00,0.0077
3992.00,0.0077
3991.00,0.0077
3990.00,0.0077
3989.00,0.0077
3988.00,0.0077
3987.00,0.0077
3986.00,0.0077
3985.00,0.0077
3984.00,0.0077
3983.00,0.0077
3982.00,0.0077
3981.00,0.0077
3980.00,0.0077
3979.00,0.0077
3978.00,0.0077
3977.00,0.0077
3976.00,0.0077
3975.00,0.0077
3974.00,0.0077
3973.00,0.0077
3972.00,0.0077
3971.00,0.0077
3970.00,0.0077
3969.00,0.0077
3968.00,0.0077
3967.00,0.0077
3966.00,0.0077
3965.00,0.0077
3964.00,0.0077
3963.00,0.0077
3962.00,0.0077
3961.00,0.0077
3960.00,0.0077
3959.00,0.0077
3958.00,0.0077
3957.00,0.0077
3956.00,0.0077
3955.00,0.0077
3954.00,0.0077
3953.00,0.0077
3952.00,0.0077
3951.00,0.0077
3950.00,0.0077
3949.00,0.0077
3948.00,0.0077
3947.00,0.0077
3946.00,0.0077
3945.00,0.0077
3944.00,0.0077
3943.00,0.0077
3942.00,0.0077
3941.00,0.0077
3940.00,0.0077
3939.00,0.0077
3938.00,0.0077
3937.00,0.0077
3936.00,0.0077
3935.00,0.0078
3934.00,0.0078
3933.00,0.0077
3932.00,0.0077
3931.00,0.0077
3930.00,0.0077
3929.00,0.0077
3928.00,0.0077
3927.00,0.0077
3926.00,0.0077
3925.00,0.0077
3924.00,0.0077
3923.00,0.0077
3922.00,0.0077
3921.00,0.0077
3920.00,0.0077
3919.00,0.0077
3918.00,0.0077
3917.00,0.0077
3916.00,0.0077
3915.00,0.0077
3914.00,0.0077
3913.00,0.0077
3912.00,0.0077
3911.00,0.0077
3910.00,0.0077
3909.00,0.0077
3908.00,0.0077
3907.00,0.0077
3906.00,0.0077
3905.00,0.0077
3904.00,0.0077
3903.00,0.0077
3902.00,0.0077
3901.00,0.0077
3900.00,0.0077
3899.00,0.0076
3898.00,0.0076
3897.00,0.0076
3896.00,0.0077
3895.00,0.0077
3894.00,0.0077
3893.00,0.0077
3892.00,0.0077
3891.00,0.0077
3890.00,0.0077
3889.00,0.0077
3888.00,0.0077
3887.00,0.0077
3886.00,0.0077
3885.00,0.0077
3884.00,0.0077
3883.00,0.0077
3882.00,0.0077
3881.00,0.0077
3880.00,0.0077
3879.00,0.0077
3878.00,0.0078
3877.00,0.0077
3876.00,0.0077
3875.00,0.0078
3874.00,0.0078
3873.00,0.0078
3872.00,0.0078
3871.00,0.0078
3870.00,0.0078
3869.00,0.0078
3868.00,0.0078
3867.00,0.0077
3866.00,0.0077
3865.00,0.0077
3864.00,0.0077
3863.00,0.0077
3862.00,0.0076
3861.00,0.0076
3860.00,0.0076
3859.00,0.0077
3858.00,0.0077
3857.00,0.0077
3856.00,0.0077
3855.00,0.0077
3854.00,0.0077
3853.00,0.0077
3852.00,0.0077
3851.00,0.0077
3850.00,0.0077
3849.00,0.0077
3848.00,0.0077
3847.00,0.0077
3846.00,0.0077
3845.00,0.0078
3844.00,0.0078
3843.00,0.0079
3842.00,0.0079
3841.00,0.0079
3840.00,0.0079
3839.00,0.0078
3838.00,0.0078
3837.00,0.0078
3836.00,0.0078
3835.00,0.0078
3834.00,0.0077
3833.00,0.0077
3832.00,0.0077
3831.00,0.0077
3830.00,0.0077
3829.00,0.0078
3828.00,0.0078
3827.00,0.0078
3826.00,0.0078
3825.00,0.0078
3824.00,0.0078
3823.00,0.0078
3822.00,0.0078
3821.00,0.0078
3820.00,0.0078
3819.00,0.0078
3818.00,0.0078
3817.00,0.0078
3816.00,0.0078
3815.00,0.0078
3814.00,0.0078
3813.00,0.0078
3812.00,0.0078
3811.00,0.0078
3810.00,0.0078
3809.00,0.0078
3808.00,0.0078
3807.00,0.0078
3806.00,0.0078
3805.00,0.0078
3804.00,0.0078
3803.00,0.0078
3802.00,0.0078
3801.00,0.0078
3800.00,0.0078
3799.00,0.0078
3798.00,0.0077
3797.00,0.0077
3796.00,0.0077
3795.00,0.0077
3794.00,0.0077
3793.00,0.0077
3792.00,0.0077
3791.00,0.0077
3790.00,0.0077
3789.00,0.0077
3788.00,0.0077
3787.00,0.0077
3786.00,0.0077
3785.00,0.0077
3784.00,0.0077
3783.00,0.0077
3782.00,0.0077
3781.00,0.0077
3780.00,0.0077
3779.00,0.0077
3778.00,0.0077
3777.00,0.0077
3776.00,0.0077
3775.00,0.0077
3774.00,0.0078
3773.00,0.0078
3772.00,0.0078
3771.00,0.0078
3770.00,0.0078
3769.00,0.0078
3768.00,0.0078
3767.00,0.0078
3766.00,0.0078
3765.00,0.0078
3764.00,0.0078
3763.00,0.0077
3762.00,0.0077
3761.00,0.0077
3760.00,0.0077
3759.00,0.0077
3758.00,0.0077
3757.00,0.0077
3756.00,0.0077
3755.00,0.0078
3754.00,0.0078
3753.00,0.0078
3752.00,0.0078
3751.00,0.0078
3750.00,0.0078
3749.00,0.0078
3748.00,0.0078
3747.00,0.0077
3746.00,0.0077
3745.00,0.0077
3744.00,0.0077
3743.00,0.0077
3742.00,0.0077
3741.00,0.0077
3740.00,0.0077
3739.00,0.0078
3738.00,0.0078
3737.00,0.0078
3736.00,0.0078
3735.00,0.0078
3734.00,0.0077
3733.00,0.0076
3732.00,0.0076
3731.00,0.0076
3730.00,0.0076
3729.00,0.0076
3728.00,0.0076
3727.00,0.0076
3726.00,0.0076
3725.00,0.0075
3724.00,0.0075
3723.00,0.0075
3722.00,0.0075
3721.00,0.0075
3720.00,0.0075
3719.00,0.0076
3718.00,0.0076
3717.00,0.0076
3716.00,0.0076
3715.00,0.0076
3714.00,0.0077
3713.00,0.0077
3712.00,0.0077
3711.00,0.0077
3710.00,0.0077
3709.00,0.0076
3708.00,0.0076
3707.00,0.0076
3706.00,0.0076
3705.00,0.0076
3704.00,0.0076
3703.00,0.0076
3702.00,0.0076
3701.00,0.0076
3700.00,0.0076
3699.00,0.0076
3698.00,0.0076
3697.00,0.0076
3696.00,0.0077
3695.00,0.0077
3694.00,0.0078
3693.00,0.0078
3692.00,0.0078
3691.00,0.0078
3690.00,0.0078
3689.00,0.0078
3688.00,0.0078
3687.00,0.0079
3686.00,0.0079
3685.00,0.0079
3684.00,0.0080
3683.00,0.0080
3682.00,0.0081
3681.00,0.0081
3680.00,0.0082
3679.00,0.0082
3678.00,0.0083
3677.00,0.0083
3676.00,0.0084
3675.00,0.0084
3674.00,0.0084
3673.00,0.0084
3672.00,0.0084
3671.00,0.0084
3670.00,0.0085
3669.00,0.0085
3668.00,0.0085
3667.00,0.0085
3666.00,0.0086
3665.00,0.0086
3664.00,0.0087
3663.00,0.0087
3662.00,0.0087
3661.00,0.0088
3660.00,0.0088
3659.00,0.0088
3658.00,0.0089
3657.00,0.0090
3656.00,0.0091
3655.00,0.0091
3654.00,0.0092
3653.00,0.0092
3652.00,0.0093
3651.00,0.0094
3650.00,0.0096
3649.00,0.0097
3648.00,0.0097
3647.00,0.0098
3646.00,0.0098
3645.00,0.0098
3644.00,0.0099
3643.00,0.0099
3642.00,0.0100
3641.00,0.0101
3640.00,0.0102
3639.00,0.0103
3638.00,0.0104
3637.00,0.0105
3636.00,0.0106
3635.00,0.0107
3634.00,0.0108
3633.00,0.0109
3632.00,0.0109
3631.00,0.0110
3630.00,0.0110
3629.00,0.0112
3628.00,0.0113
3627.00,0.0114
3626.00,0.0115
3625.00,0.0116
3624.00,0.0116
3623.00,0.0117
3622.00,0.0118
3621.00,0.0120
3620.00,0.0122
3619.00,0.0124
3618.00,0.0126
3617.00,0.0127
3616.00,0.0128
3615.00,0.0129
3614.00,0.0130
3613.00,0.0131
3612.00,0.0132
3611.00,0.0133
3610.00,0.0135
3609.00,0.0136
3608.00,0.0138
3607.00,0.0139
3606.00,0.0141
3605.00,0.0143
3604.00,0.0144
3603.00,0.0145
3602.00,0.0147
3601.00,0.0148
3600.00,0.0150
3599.00,0.0151
3598.00,0.0152
3597.00,0.0154
3596.00,0.0156
3595.00,0.0158
3594.00,0.0160
3593.00,0.0162
3592.00,0.0164
3591.00,0.0165
3590.00,0.0166
3589.00,0.0168
3588.00,0.0171
3587.00,0.0173
3586.00,0.0176
3585.00,0.0178
3584.00,0.0179
3583.00,0.0180
3582.00,0.0182
3581.00,0.0183
3580.00,0.0185
3579.00,0.0188
3578.00,0.0190
3577.00,0.0192
3576.00,0.0194
3575.00,0.0196
3574.00,0.0198
3573.00,0.0200
3572.00,0.0202
3571.00,0.0203
3570.00,0.0205
3569.00,0.0207
3568.00,0.0210
3567.00,0.0214
3566.00,0.0217
3565.00,0.0219
3564.00,0.0221
3563.00,0.0222
3562.00,0.0224
3561.00,0.0226
3560.00,0.0228
3559.00,0.0230
3558.00,0.0232
3557.00,0.0234
3556.00,0.0236
3555.00,0.0238
3554.00,0.0240
3553.00,0.0242
3552.00,0.0244
3551.00,0.0246
3550.00,0.0248
3549.00,0.0250
3548.00,0.0251
3547.00,0.0254
3546.00,0.0256
3545.00,0.0259
3544.00,0.0261
3543.00,0.0262
3542.00,0.0264
3541.00,0.0265
3540.00,0.0267
3539.00,0.0268
3538.00,0.0269
3537.00,0.0271
3536.00,0.0273
3535.00,0.0275
3534.00,0.0277
3533.00,0.0278
3532.00,0.0280
3531.00,0.0281
3530.00,0.0283
3529.00,0.0284
3528.00,0.0286
3527.00,0.0287
3526.00,0.0288
3525.00,0.0290
3524.00,0.0291
3523.00,0.0293
3522.00,0.0294
3521.00,0.0295
3520.00,0.0296
3519.00,0.0297
3518.00,0.0299
3517.00,0.0300
3516.00,0.0301
3515.00,0.0302
3514.00,0.0303
3513.00,0.0304
3512.00,0.0305
3511.00,0.0306
3510.00,0.0307
3509.00,0.0308
3508.00,0.0309
3507.00,0.0310
3506.00,0.0311
3505.00,0.0312
3504.00,0.0313
3503.00,0.0314
3502.00,0.0316
3501.00,0.0317
3500.00,0.0317
3499.00,0.0318
3498.00,0.0319
3497.00,0.0319
3496.00,0.0320
3495.00,0.0321
3494.00,0.0322
3493.00,0.0323
3492.00,0.0323
3491.00,0.0324
3490.00,0.0324
3489.00,0.0325
3488.00,0.0326
3487.00,0.0327
3486.00,0.0327
3485.00,0.0328
3484.00,0.0329
3483.00,0.0330
3482.00,0.0331
3481.00,0.0332
3480.00,0.0333
3479.00,0.0334
3478.00,0.0334
3477.00,0.0335
3476.00,0.0336
3475.00,0.0336
3474.00,0.0337
3473.00,0.0338
3472.00,0.0338
3471.00,0.0339
3470.00,0.0339
3469.00,0.0340
3468.00,0.0340
3467.00,0.0341
3466.00,0.0341
3465.00,0.0341
3464.00,0.0342
3463.00,0.0343
3462.00,0.0344
3461.00,0.0344
3460.00,0.0345
3459.00,0.0345
3458.00,0.0345
3457.00,0.0346
3456.00,0.0346
3455.00,0.0347
3454.00,0.0347
3453.00,0.0348
3452.00,0.0348
3451.00,0.0349
3450.00,0.0349
3449.00,0.0349
3448.00,0.0350
3447.00,0.0351
3446.00,0.0351
3445.00,0.0352
3444.00,0.0352
3443.00,0.0352
3442.00,0.0353
3441.00,0.0353
3440.00,0.0353
3439.00,0.0354
3438.00,0.0354
3437.00,0.0354
3436.00,0.0354
3435.00,0.0354
3434.00,0.0355
3433.00,0.0355
3432.00,0.0355
3431.00,0.0355
3430.00,0.0355
3429.00,0.0355
3428.00,0.0355
3427.00,0.0355
3426.00,0.0355
3425.00,0.0355
3424.00,0.0355
3423.00,0.0355
3422.00,0.0356
3421.00,0.0356
3420.00,0.0356
3419.00,0.0356
3418.00,0.0356
3417.00,0.0356
3416.00,0.0356
3415.00,0.0356
3414.00,0.0356
3413.00,0.0356
3412.00,0.0355
3411.00,0.0355
3410.00,0.0355
3409.00,0.0355
3408.00,0.0354
3407.00,0.0354
3406.00,0.0354
3405.00,0.0353
3404.00,0.0353
3403.00,0.0353
3402.00,0.0352
3401.00,0.0352
3400.00,0.0352
3399.00,0.0351
3398.00,0.0351
3397.00,0.0350
3396.00,0.0349
3395.00,0.0349
3394.00,0.0348
3393.00,0.0348
3392.00,0.0348
3391.00,0.0347
3390.00,0.0347
3389.00,0.0346
3388.00,0.0346
3387.00,0.0345
3386.00,0.0344
3385.00,0.0343
3384.00,0.0343
3383.00,0.0342
3382.00,0.0341
3381.00,0.0340
3380.00,0.0340
3379.00,0.0339
3378.00,0.0338
3377.00,0.0338
3376.00,0.0337
3375.00,0.0336
3374.00,0.0335
3373.00,0.0334
3372.00,0.0332
3371.00,0.0331
3370.00,0.0329
3369.00,0.0328
3368.00,0.0328
3367.00,0.0327
3366.00,0.0327
3365.00,0.0327
3364.00,0.0326
3363.00,0.0325
3362.00,0.0324
3361.00,0.0324
3360.00,0.0323
3359.00,0.0323
3358.00,0.0322
3357.00,0.0322
3356.00,0.0322
3355.00,0.0320
3354.00,0.0319
3353.00,0.0317
3352.00,0.0316
3351.00,0.0314
3350.00,0.0314
3349.00,0.0314
3348.00,0.0314
3347.00,0.0313
3346.00,0.0313
3345.00,0.0312
3344.00,0.0311
3343.00,0.0310
3342.00,0.0309
3341.00,0.0307
3340.00,0.0306
3339.00,0.0305
3338.00,0.0305
3337.00,0.0306
3336.00,0.0306
3335.00,0.0307
3334.00,0.0307
3333.00,0.0307
3332.00,0.0306
3331.00,0.0306
3330.00,0.0305
3329.00,0.0304
3328.00,0.0302
3327.00,0.0301
3326.00,0.0300
3325.00,0.0300
3324.00,0.0300
3323.00,0.0301
3322.00,0.0301
3321.00,0.0301
3320.00,0.0301
3319.00,0.0300
3318.00,0.0300
3317.00,0.0300
3316.00,0.0299
3315.00,0.0299
3314.00,0.0298
3313.00,0.0297
3312.00,0.0296
3311.00,0.0294
3310.00,0.0292
3309.00,0.0290
3308.00,0.0288
3307.00,0.0288
3306.00,0.0288
3305.00,0.0289
3304.00,0.0290
3303.00,0.0292
3302.00,0.0293
3301.00,0.0294
3300.00,0.0293
3299.00,0.0292
3298.00,0.0291
3297.00,0.0289
3296.00,0.0288
3295.00,0.0288
3294.00,0.0287
3293.00,0.0287
3292.00,0.0288
3291.00,0.0289
3290.00,0.0290
3289.00,0.0291
3288.00,0.0291
3287.00,0.0290
3286.00,0.0290
3285.00,0.0289
3284.00,0.0289
3283.00,0.0288
3282.00,0.0288
3281.00,0.0287
3280.00,0.0287
3279.00,0.0286
3278.00,0.0285
3277.00,0.0283
3276.00,0.0282
3275.00,0.0280
3274.00,0.0279
3273.00,0.0277
3272.00,0.0276
3271.00,0.0276
3270.00,0.0276
3269.00,0.0277
3268.00,0.0278
3267.00,0.0278
3266.00,0.0277
3265.00,0.0277
3264.00,0.0276
3263.00,0.0275
3262.00,0.0274
3261.00,0.0273
3260.00,0.0272
3259.00,0.0271
3258.00,0.0270
3257.00,0.0268
3256.00,0.0267
3255.00,0.0267
3254.00,0.0266
3253.00,0.0266
3252.00,0.0265
3251.00,0.0264
3250.00,0.0262
3249.00,0.0261
3248.00,0.0259
3247.00,0.0258
3246.00,0.0258
3245.00,0.0257
3244.00,0.0257
3243.00,0.0256
3242.00,0.0255
3241.00,0.0254
3240.00,0.0253
3239.00,0.0252
3238.00,0.0251
3237.00,0.0249
3236.00,0.0248
3235.00,0.0246
3234.00,0.0245
3233.00,0.0244
3232.00,0.0244
3231.00,0.0243
3230.00,0.0242
3229.00,0.0242
3228.00,0.0241
3227.00,0.0240
3226.00,0.0239
3225.00,0.0238
3224.00,0.0237
3223.00,0.0236
3222.00,0.0235
3221.00,0.0234
3220.00,0.0233
3219.00,0.0232
3218.00,0.0231
3217.00,0.0230
3216.00,0.0229
3215.00,0.0228
3214.00,0.0227
3213.00,0.0226
3212.00,0.0225
3211.00,0.0224
3210.00,0.0222
3209.00,0.0221
3208.00,0.0220
3207.00,0.0220
3206.00,0.0219
3205.00,0.0218
3204.00,0.0217
3203.00,0.0216
3202.00,0.0215
3201.00,0.0214
3200.00,0.0213
3199.00,0.0212
3198.00,0.0211
3197.00,0.0209
3196.00,0.0208
3195.00,0.0207
3194.00,0.0207
3193.00,0.0206
3192.00,0.0205
3191.00,0.0204
3190.00,0.0202
3189.00,0.0201
3188.00,0.0200
3187.00,0.0199
3186.00,0.0198
3185.00,0.0198
3184.00,0.0197
3183.00,0.0196
3182.00,0.0195
3181.00,0.0194
3180.00,0.0193
3179.00,0.0193
3178.00,0.0192
3177.00,0.0191
3176.00,0.0190
3175.00,0.0189
3174.00,0.0188
3173.00,0.0187
3172.00,0.0186
3171.00,0.0186
3170.00,0.0185
3169.00,0.0184
3168.00,0.0183
3167.00,0.0182
3166.00,0.0182
3165.00,0.0181
3164.00,0.0180
3163.00,0.0180
3162.00,0.0179
3161.00,0.0178
3160.00,0.0178
3159.00,0.0177
3158.00,0.0177
3157.00,0.0176
3156.00,0.0175
3155.00,0.0174
3154.00,0.0173
3153.00,0.0172
3152.00,0.0171
3151.00,0.0171
3150.00,0.0171
3149.00,0.0170
3148.00,0.0170
3147.00,0.0169
3146.00,0.0169
3145.00,0.0168
3144.00,0.0167
3143.00,0.0166
3142.00,0.0166
3141.00,0.0165
3140.00,0.0164
3139.00,0.0164
3138.00,0.0164
3137.00,0.0163
3136.00,0.0163
3135.00,0.0163
3134.00,0.0162
3133.00,0.0162
3132.00,0.0161
3131.00,0.0161
3130.00,0.0160
3129.00,0.0160
3128.00,0.0160
3127.00,0.0159
3126.00,0.0159
3125.00,0.0159
3124.00,0.0158
3123.00,0.0157
3122.00,0.0157
3121.00,0.0156
3120.00,0.0155
3119.00,0.0155
3118.00,0.0155
3117.00,0.0154
3116.00,0.0154
3115.00,0.0154
3114.00,0.0154
3113.00,0.0153
3112.00,0.0153
3111.00,0.0152
3110.00,0.0152
3109.00,0.0151
3108.00,0.0151
3107.00,0.0151
3106.00,0.0150
3105.00,0.0150
3104.00,0.0149
3103.00,0.0149
3102.00,0.0148
3101.00,0.0148
3100.00,0.0148
3099.00,0.0147
3098.00,0.0147
3097.00,0.0147
3096.00,0.0147
3095.00,0.0146
3094.00,0.0146
3093.00,0.0145
3092.00,0.0145
3091.00,0.0144
3090.00,0.0144
3089.00,0.0143
3088.00,0.0143
3087.00,0.0142
3086.00,0.0142
3085.00,0.0141
3084.00,0.0141
3083.00,0.0140
3082.00,0.0140
3081.00,0.0140
3080.00,0.0139
3079.00,0.0139
3078.00,0.0139
3077.00,0.0139
3076.00,0.0139
3075.00,0.0138
3074.00,0.0138
3073.00,0.0138
3072.00,0.0137
3071.00,0.0137
3070.00,0.0136
3069.00,0.0136
3068.00,0.0136
3067.00,0.0136
3066.00,0.0136
3065.00,0.0136
3064.00,0.0136
3063.00,0.0135
3062.00,0.0135
3061.00,0.0135
3060.00,0.0134
3059.00,0.0134
3058.00,0.0134
3057.00,0.0134
3056.00,0.0134
3055.00,0.0134
3054.00,0.0133
3053.00,0.0133
3052.00,0.0133
3051.00,0.0132
3050.00,0.0132
3049.00,0.0132
3048.00,0.0132
3047.00,0.0132
3046.00,0.0131
3045.00,0.0131
3044.00,0.0131
3043.00,0.0131
3042.00,0.0131
3041.00,0.0131
3040.00,0.0131
3039.00,0.0131
3038.00,0.0131
3037.00,0.0130
3036.00,0.0130
3035.00,0.0130
3034.00,0.0130
3033.00,0.0130
3032.00,0.0131
3031.00,0.0131
3030.00,0.0131
3029.00,0.0131
3028.00,0.0131
3027.00,0.0131
3026.00,0.0132
3025.00,0.0132
3024.00,0.0132
3023.00,0.0133
3022.00,0.0133
3021.00,0.0133
3020.00,0.0134
3019.00,0.0135
3018.00,0.0136
3017.00,0.0137
3016.00,0.0139
3015.00,0.0139
3014.00,0.0140
3013.00,0.0140
3012.00,0.0141
3011.00,0.0142
3010.00,0.0144
3009.00,0.0146
3008.00,0.0148
3007.00,0.0150
3006.00,0.0152
3005.00,0.0155
3004.00,0.0158
3003.00,0.0160
3002.00,0.0163
3001.00,0.0166
3000.00,0.0170
2999.00,0.0173
2998.00,0.0177
2997.00,0.0181
2996.00,0.0185
2995.00,0.0189
2994.00,0.0193
2993.00,0.0196
2992.00,0.0200
2991.00,0.0205
2990.00,0.0209
2989.00,0.0212
2988.00,0.0216
2987.00,0.0219
2986.00,0.0222
2985.00,0.0225
2984.00,0.0228
2983.00,0.0230
2982.00,0.0233
2981.00,0.0235
2980.00,0.0238
2979.00,0.0242
2978.00,0.0245
2977.00,0.0248
2976.00,0.0252
2975.00,0.0254
2974.00,0.0256
2973.00,0.0258
2972.00,0.0260
2971.00,0.0262
2970.00,0.0264
2969.00,0.0267
2968.00,0.0270
2967.00,0.0273
2966.00,0.0276
2965.00,0.0280
2964.00,0.0283
2963.00,0.0286
2962.00,0.0289
2961.00,0.0292
2960.00,0.0295
2959.00,0.0298
2958.00,0.0301
2957.00,0.0304
2956.00,0.0306
2955.00,0.0308
2954.00,0.0309
2953.00,0.0310
2952.00,0.0311
2951.00,0.0311
2950.00,0.0311
2949.00,0.0310
2948.00,0.0309
2947.00,0.0308
2946.00,0.0306
2945.00,0.0304
2944.00,0.0302
2943.00,0.0300
2942.00,0.0297
2941.00,0.0295
2940.00,0.0293
2939.00,0.0291
2938.00,0.0290
2937.00,0.0289
2936.00,0.0288
2935.00,0.0287
2934.00,0.0287
2933.00,0.0286
2932.00,0.0286
2931.00,0.0286
2930.00,0.0286
2929.00,0.0287
2928.00,0.0288
2927.00,0.0289
2926.00,0.0290
2925.00,0.0291
2924.00,0.0292
2923.00,0.0292
2922.00,0.0292
2921.00,0.0292
2920.00,0.0291
2919.00,0.0290
2918.00,0.0289
2917.00,0.0287
2916.00,0.0285
2915.00,0.0283
2914.00,0.0281
2913.00,0.0279
2912.00,0.0277
2911.00,0.0275
2910.00,0.0272
2909.00,0.0271
2908.00,0.0269
2907.00,0.0267
2906.00,0.0266
2905.00,0.0265
2904.00,0.0264
2903.00,0.0264
2902.00,0.0264
2901.00,0.0264
2900.00,0.0265
2899.00,0.0265
2898.00,0.0266
2897.00,0.0266
2896.00,0.0267
2895.00,0.0268
2894.00,0.0269
2893.00,0.0270
2892.00,0.0270
2891.00,0.0271
2890.00,0.0271
2889.00,0.0271
2888.00,0.0272
2887.00,0.0272
2886.00,0.0272
2885.00,0.0272
2884.00,0.0271
2883.00,0.0271
2882.00,0.0271
2881.00,0.0271
2880.00,0.0270
2879.00,0.0269
2878.00,0.0268
2877.00,0.0267
2876.00,0.0266
2875.00,0.0264
2874.00,0.0263
2873.00,0.0262
2872.00,0.0261
2871.00,0.0261
2870.00,0.0260
2869.00,0.0258
2868.00,0.0257
2867.00,0.0255
2866.00,0.0254
2865.00,0.0252
2864.00,0.0251
2863.00,0.0249
2862.00,0.0247
2861.00,0.0246
2860.00,0.0243
2859.00,0.0241
2858.00,0.0239
2857.00,0.0236
2856.00,0.0233
2855.00,0.0230
2854.00,0.0227
2853.00,0.0224
2852.00,0.0221
2851.00,0.0217
2850.00,0.0214
2849.00,0.0210
2848.00,0.0207
2847.00,0.0205
2846.00,0.0202
2845.00,0.0200
2844.00,0.0197
2843.00,0.0195
2842.00,0.0192
2841.00,0.0190
2840.00,0.0187
2839.00,0.0185
2838.00,0.0183
2837.00,0.0181
2836.00,0.0180
2835.00,0.0178
2834.00,0.0177
2833.00,0.0175
2832.00,0.0174
2831.00,0.0172
2830.00,0.0170
2829.00,0.0169
2828.00,0.0167
2827.00,0.0165
2826.00,0.0163
2825.00,0.0162
2824.00,0.0160
2823.00,0.0159
2822.00,0.0157
2821.00,0.0156
2820.00,0.0155
2819.00,0.0153
2818.00,0.0152
2817.00,0.0151
2816.00,0.0150
2815.00,0.0150
2814.00,0.0149
2813.00,0.0148
2812.00,0.0147
2811.00,0.0146
2810.00,0.0145
2809.00,0.0145
2808.00,0.0145
2807.00,0.0144
2806.00,0.0144
2805.00,0.0143
2804.00,0.0143
2803.00,0.0142
2802.00,0.0141
2801.00,0.0141
2800.00,0.0140
2799.00,0.0139
2798.00,0.0139
2797.00,0.0139
2796.00,0.0138
2795.00,0.0138
2794.00,0.0138
2793.00,0.0138
2792.00,0.0137
2791.00,0.0137
2790.00,0.0137
2789.00,0.0136
2788.00,0.0136
2787.00,0.0136
2786.00,0.0136
2785.00,0.0135
2784.00,0.0135
2783.00,0.0135
2782.00,0.0134
2781.00,0.0134
2780.00,0.0134
2779.00,0.0134
2778.00,0.0133
2777.00,0.0133
2776.00,0.0132
2775.00,0.0132
2774.00,0.0132
2773.00,0.0132
2772.00,0.0132
2771.00,0.0132
2770.00,0.0131
2769.00,0.0131
2768.00,0.0131
2767.00,0.0131
2766.00,0.0131
2765.00,0.0131
2764.00,0.0130
2763.00,0.0130
2762.00,0.0130
2761.00,0.0130
2760.00,0.0130
2759.00,0.0130
2758.00,0.0129
2757.00,0.0129
2756.00,0.0129
2755.00,0.0129
2754.00,0.0129
2753.00,0.0129
2752.00,0.0129
2751.00,0.0129
2750.00,0.0129
2749.00,0.0129
2748.00,0.0129
2747.00,0.0129
2746.00,0.0129
2745.00,0.0129
2744.00,0.0128
2743.00,0.0128
2742.00,0.0128
2741.00,0.0128
2740.00,0.0128
2739.00,0.0128
2738.00,0.0128
2737.00,0.0128
2736.00,0.0128
2735.00,0.0128
2734.00,0.0128
2733.00,0.0128
2732.00,0.0128
2731.00,0.0128
2730.00,0.0127
2729.00,0.0127
2728.00,0.0127
2727.00,0.0127
2726.00,0.0127
2725.00,0.0127
2724.00,0.0127
2723.00,0.0127
2722.00,0.0127
2721.00,0.0127
2720.00,0.0127
2719.00,0.0127
2718.00,0.0126
2717.00,0.0126
2716.00,0.0126
2715.00,0.0126
2714.00,0.0126
2713.00,0.0126
2712.00,0.0125
2711.00,0.0125
2710.00,0.0125
2709.00,0.0125
2708.00,0.0125
2707.00,0.0125
2706.00,0.0125
2705.00,0.0125
2704.00,0.0125
2703.00,0.0125
2702.00,0.0125
2701.00,0.0124
2700.00,0.0124
2699.00,0.0124
2698.00,0.0124
2697.00,0.0124
2696.00,0.0124
2695.00,0.0124
2694.00,0.0124
2693.00,0.0124
2692.00,0.0124
2691.00,0.0124
2690.00,0.0124
2689.00,0.0124
2688.00,0.0123
2687.00,0.0123
2686.00,0.0123
2685.00,0.0123
2684.00,0.0123
2683.00,0.0123
2682.00,0.0122
2681.00,0.0122
2680.00,0.0122
2679.00,0.0122
2678.00,0.0122
2677.00,0.0122
2676.00,0.0122
2675.00,0.0122
2674.00,0.0122
2673.00,0.0123
2672.00,0.0123
2671.00,0.0123
2670.00,0.0123
2669.00,0.0123
2668.00,0.0123
2667.00,0.0123
2666.00,0.0124
2665.00,0.0124
2664.00,0.0124
2663.00,0.0125
2662.00,0.0125
2661.00,0.0126
2660.00,0.0126
2659.00,0.0126
2658.00,0.0126
2657.00,0.0126
2656.00,0.0126
2655.00,0.0126
2654.00,0.0126
2653.00,0.0126
2652.00,0.0126
2651.00,0.0126
2650.00,0.0127
2649.00,0.0127
2648.00,0.0127
2647.00,0.0126
2646.00,0.0126
2645.00,0.0126
2644.00,0.0126
2643.00,0.0126
2642.00,0.0126
2641.00,0.0126
2640.00,0.0126
2639.00,0.0126
2638.00,0.0126
2637.00,0.0125
2636.00,0.0125
2635.00,0.0125
2634.00,0.0125
2633.00,0.0125
2632.00,0.0125
2631.00,0.0125
2630.00,0.0125
2629.00,0.0125
2628.00,0.0125
2627.00,0.0125
2626.00,0.0125
2625.00,0.0124
2624.00,0.0124
2623.00,0.0124
2622.00,0.0124
2621.00,0.0124
2620.00,0.0124
2619.00,0.0123
2618.00,0.0123
2617.00,0.0122
2616.00,0.0122
2615.00,0.0122
2614.00,0.0122
2613.00,0.0122
2612.00,0.0122
2611.00,0.0123
2610.00,0.0123
2609.00,0.0123
2608.00,0.0123
2607.00,0.0123
2606.00,0.0122
2605.00,0.0122
2604.00,0.0122
2603.00,0.0122
2602.00,0.0122
2601.00,0.0122
2600.00,0.0122
2599.00,0.0122
2598.00,0.0122
2597.00,0.0122
2596.00,0.0122
2595.00,0.0122
2594.00,0.0122
2593.00,0.0123
2592.00,0.0123
2591.00,0.0123
2590.00,0.0122
2589.00,0.0122
2588.00,0.0122
2587.00,0.0122
2586.00,0.0122
2585.00,0.0123
2584.00,0.0123
2583.00,0.0123
2582.00,0.0123
2581.00,0.0123
2580.00,0.0123
2579.00,0.0122
2578.00,0.0122
2577.00,0.0122
2576.00,0.0122
2575.00,0.0122
2574.00,0.0122
2573.00,0.0122
2572.00,0.0122
2571.00,0.0122
2570.00,0.0122
2569.00,0.0121
2568.00,0.0121
2567.00,0.0121
2566.00,0.0121
2565.00,0.0121
2564.00,0.0121
2563.00,0.0121
2562.00,0.0121
2561.00,0.0121
2560.00,0.0121
2559.00,0.0121
2558.00,0.0120
2557.00,0.0120
2556.00,0.0120
2555.00,0.0120
2554.00,0.0120
2553.00,0.0120
2552.00,0.0120
2551.00,0.0120
2550.00,0.0120
2549.00,0.0119
2548.00,0.0120
2547.00,0.0120
2546.00,0.0120
2545.00,0.0120
2544.00,0.0120
2543.00,0.0120
2542.00,0.0120
2541.00,0.0120
2540.00,0.0120
2539.00,0.0120
2538.00,0.0119
2537.00,0.0119
2536.00,0.0119
2535.00,0.0119
2534.00,0.0119
2533.00,0.0118
2532.00,0.0118
2531.00,0.0118
2530.00,0.0119
2529.00,0.0119
2528.00,0.0119
2527.00,0.0119
2526.00,0.0119
2525.00,0.0118
2524.00,0.0118
2523.00,0.0117
2522.00,0.0117
2521.00,0.0116
2520.00,0.0116
2519.00,0.0116
2518.00,0.0117
2517.00,0.0117
2516.00,0.0117
2515.00,0.0118
2514.00,0.0118
2513.00,0.0118
2512.00,0.0118
2511.00,0.0117
2510.00,0.0116
2509.00,0.0116
2508.00,0.0116
2507.00,0.0116
2506.00,0.0116
2505.00,0.0116
2504.00,0.0117
2503.00,0.0117
2502.00,0.0117
2501.00,0.0117
2500.00,0.0117
2499.00,0.0117
2498.00,0.0117
2497.00,0.0117
2496.00,0.0117
2495.00,0.0117
2494.00,0.0117
2493.00,0.0117
2492.00,0.0116
2491.00,0.0116
2490.00,0.0116
2489.00,0.0116
2488.00,0.0116
2487.00,0.0116
2486.00,0.0116
2485.00,0.0115
2484.00,0.0115
2483.00,0.0115
2482.00,0.0115
2481.00,0.0115
2480.00,0.0115
2479.00,0.0116
2478.00,0.0116
2477.00,0.0116
2476.00,0.0115
2475.00,0.0115
2474.00,0.0115
2473.00,0.0115
2472.00,0.0115
2471.00,0.0115
2470.00,0.0115
2469.00,0.0115
2468.00,0.0115
2467.00,0.0115
2466.00,0.0115
2465.00,0.0115
2464.00,0.0116
2463.00,0.0116
2462.00,0.0116
2461.00,0.0116
2460.00,0.0116
2459.00,0.0116
2458.00,0.0116
2457.00,0.0116
2456.00,0.0117
2455.00,0.0117
2454.00,0.0117
2453.00,0.0118
2452.00,0.0117
2451.00,0.0117
2450.00,0.0117
2449.00,0.0117
2448.00,0.0117
2447.00,0.0116
2446.00,0.0116
2445.00,0.0116
2444.00,0.0116
2443.00,0.0116
2442.00,0.0116
2441.00,0.0116
2440.00,0.0116
2439.00,0.0116
2438.00,0.0116
2437.00,0.0116
2436.00,0.0117
2435.00,0.0117
2434.00,0.0117
2433.00,0.0117
2432.00,0.0117
2431.00,0.0117
2430.00,0.0117
2429.00,0.0116
2428.00,0.0116
2427.00,0.0116
2426.00,0.0116
2425.00,0.0116
2424.00,0.0116
2423.00,0.0115
2422.00,0.0115
2421.00,0.0115
2420.00,0.0115
2419.00,0.0116
2418.00,0.0116
2417.00,0.0116
2416.00,0.0116
2415.00,0.0116
2414.00,0.0116
2413.00,0.0116
2412.00,0.0116
2411.00,0.0116
2410.00,0.0116
2409.00,0.0116
2408.00,0.0116
2407.00,0.0116
2406.00,0.0116
2405.00,0.0115
2404.00,0.0116
2403.00,0.0116
2402.00,0.0116
2401.00,0.0116
2400.00,0.0116
2399.00,0.0116
2398.00,0.0116
2397.00,0.0116
2396.00,0.0116
2395.00,0.0116
2394.00,0.0116
2393.00,0.0115
2392.00,0.0115
2391.00,0.0115
2390.00,0.0115
2389.00,0.0115
2388.00,0.0115
2387.00,0.0115
2386.00,0.0114
2385.00,0.0114
2384.00,0.0114
2383.00,0.0113
2382.00,0.0112
2381.00,0.0112
2380.00,0.0111
2379.00,0.0111
2378.00,0.0111
2377.00,0.0111
2376.00,0.0111
2375.00,0.0111
2374.00,0.0111
2373.00,0.0111
2372.00,0.0111
2371.00,0.0110
2370.00,0.0109
2369.00,0.0108
2368.00,0.0108
2367.00,0.0108
2366.00,0.0109
2365.00,0.0110
2364.00,0.0111
2363.00,0.0111
2362.00,0.0111
2361.00,0.0110
2360.00,0.0110
2359.00,0.0110
2358.00,0.0110
2357.00,0.0110
2356.00,0.0111
2355.00,0.0112
2354.00,0.0112
2353.00,0.0112
2352.00,0.0112
2351.00,0.0112
2350.00,0.0112
2349.00,0.0113
2348.00,0.0113
2347.00,0.0114
2346.00,0.0114
2345.00,0.0114
2344.00,0.0114
2343.00,0.0115
2342.00,0.0115
2341.00,0.0115
2340.00,0.0116
2339.00,0.0116
2338.00,0.0117
2337.00,0.0117
2336.00,0.0117
2335.00,0.0118
2334.00,0.0117
2333.00,0.0117
2332.00,0.0117
2331.00,0.0117
2330.00,0.0118
2329.00,0.0119
2328.00,0.0122
2327.00,0.0126
2326.00,0.0128
2325.00,0.0129
2324.00,0.0129
2323.00,0.0127
2322.00,0.0126
2321.00,0.0125
2320.00,0.0124
2319.00,0.0124
2318.00,0.0123
2317.00,0.0123
2316.00,0.0123
2315.00,0.0122
2314.00,0.0121
2313.00,0.0121
2312.00,0.0120
2311.00,0.0120
2310.00,0.0119
2309.00,0.0119
2308.00,0.0119
2307.00,0.0120
2306.00,0.0120
2305.00,0.0121
2304.00,0.0121
2303.00,0.0122
2302.00,0.0121
2301.00,0.0121
2300.00,0.0121
2299.00,0.0122
2298.00,0.0122
2297.00,0.0123
2296.00,0.0124
2295.00,0.0125
2294.00,0.0126
2293.00,0.0127
2292.00,0.0127
2291.00,0.0127
2290.00,0.0128
2289.00,0.0128
2288.00,0.0129
2287.00,0.0129
2286.00,0.0129
2285.00,0.0129
2284.00,0.0128
2283.00,0.0127
2282.00,0.0127
2281.00,0.0127
2280.00,0.0127
2279.00,0.0127
2278.00,0.0126
2277.00,0.0126
2276.00,0.0126
2275.00,0.0126
2274.00,0.0126
2273.00,0.0126
2272.00,0.0126
2271.00,0.0125
2270.00,0.0125
2269.00,0.0124
2268.00,0.0124
2267.00,0.0123
2266.00,0.0122
2265.00,0.0121
2264.00,0.0121
2263.00,0.0122
2262.00,0.0123
2261.00,0.0124
2260.00,0.0124
2259.00,0.0123
2258.00,0.0122
2257.00,0.0121
2256.00,0.0120
2255.00,0.0119
2254.00,0.0119
2253.00,0.0119
2252.00,0.0120
2251.00,0.0120
2250.00,0.0121
2249.00,0.0121
2248.00,0.0121
2247.00,0.0121
2246.00,0.0121
2245.00,0.0121
2244.00,0.0121
2243.00,0.0120
2242.00,0.0120
2241.00,0.0120
2240.00,0.0121
2239.00,0.0122
2238.00,0.0122
2237.00,0.0121
2236.00,0.0121
2235.00,0.0121
2234.00,0.0121
2233.00,0.0122
2232.00,0.0122
2231.00,0.0121
2230.00,0.0120
2229.00,0.0119
2228.00,0.0118
2227.00,0.0118
2226.00,0.0119
2225.00,0.0120
2224.00,0.0121
2223.00,0.0122
2222.00,0.0122
2221.00,0.0122
2220.00,0.0122
2219.00,0.0121
2218.00,0.0121
2217.00,0.0120
2216.00,0.0120
2215.00,0.0119
2214.00,0.0119
2213.00,0.0119
2212.00,0.0120
2211.00,0.0121
2210.00,0.0122
2209.00,0.0124
2208.00,0.0125
2207.00,0.0125
2206.00,0.0124
2205.00,0.0124
2204.00,0.0123
2203.00,0.0123
2202.00,0.0123
2201.00,0.0123
2200.00,0.0125
2199.00,0.0125
2198.00,0.0125
2197.00,0.0125
2196.00,0.0125
2195.00,0.0125
2194.00,0.0125
2193.00,0.0125
2192.00,0.0125
2191.00,0.0125
2190.00,0.0125
2189.00,0.0125
2188.00,0.0125
2187.00,0.0125
2186.00,0.0125
2185.00,0.0124
2184.00,0.0123
2183.00,0.0121
2182.00,0.0119
2181.00,0.0119
2180.00,0.0121
2179.00,0.0121
2178.00,0.0119
2177.00,0.0118
2176.00,0.0117
2175.00,0.0116
2174.00,0.0117
2173.00,0.0119
2172.00,0.0123
2171.00,0.0127
2170.00,0.0131
2169.00,0.0133
2168.00,0.0134
2167.00,0.0134
2166.00,0.0133
2165.00,0.0134
2164.00,0.0136
2163.00,0.0137
2162.00,0.0133
2161.00,0.0123
2160.00,0.0110
2159.00,0.0099
2158.00,0.0093
2157.00,0.0092
2156.00,0.0095
2155.00,0.0098
2154.00,0.0101
2153.00,0.0104
2152.00,0.0108
2151.00,0.0110
2150.00,0.0110
2149.00,0.0108
2148.00,0.0108
2147.00,0.0108
2146.00,0.0108
2145.00,0.0108
2144.00,0.0109
2143.00,0.0109
2142.00,0.0109
2141.00,0.0109
2140.00,0.0110
2139.00,0.0110
2138.00,0.0109
2137.00,0.0108
2136.00,0.0107
2135.00,0.0105
2134.00,0.0105
2133.00,0.0105
2132.00,0.0106
2131.00,0.0108
2130.00,0.0109
2129.00,0.0111
2128.00,0.0113
2127.00,0.0114
2126.00,0.0114
2125.00,0.0115
2124.00,0.0116
2123.00,0.0116
2122.00,0.0117
2121.00,0.0118
2120.00,0.0119
2119.00,0.0120
2118.00,0.0121
2117.00,0.0122
2116.00,0.0123
2115.00,0.0122
2114.00,0.0122
2113.00,0.0121
2112.00,0.0121
2111.00,0.0121
2110.00,0.0121
2109.00,0.0122
2108.00,0.0122
2107.00,0.0123
2106.00,0.0122
2105.00,0.0122
2104.00,0.0121
2103.00,0.0121
2102.00,0.0120
2101.00,0.0121
2100.00,0.0121
2099.00,0.0122
2098.00,0.0121
2097.00,0.0120
2096.00,0.0120
2095.00,0.0119
2094.00,0.0119
2093.00,0.0119
2092.00,0.0119
2091.00,0.0119
2090.00,0.0118
2089.00,0.0118
2088.00,0.0119
2087.00,0.0120
2086.00,0.0121
2085.00,0.0121
2084.00,0.0122
2083.00,0.0122
2082.00,0.0122
2081.00,0.0122
2080.00,0.0122
2079.00,0.0122
2078.00,0.0121
2077.00,0.0121
2076.00,0.0120
2075.00,0.0119
2074.00,0.0119
2073.00,0.0119
2072.00,0.0119
2071.00,0.0119
2070.00,0.0119
2069.00,0.0119
2068.00,0.0119
2067.00,0.0119
2066.00,0.0118
2065.00,0.0118
2064.00,0.0118
2063.00,0.0118
2062.00,0.0118
2061.00,0.0117
2060.00,0.0117
2059.00,0.0117
2058.00,0.0116
2057.00,0.0116
2056.00,0.0116
2055.00,0.0117
2054.00,0.0119
2053.00,0.0123
2052.00,0.0126
2051.00,0.0125
2050.00,0.0122
2049.00,0.0118
2048.00,0.0117
2047.00,0.0116
2046.00,0.0115
2045.00,0.0114
2044.00,0.0115
2043.00,0.0115
2042.00,0.0115
2041.00,0.0115
2040.00,0.0115
2039.00,0.0116
2038.00,0.0116
2037.00,0.0116
2036.00,0.0116
2035.00,0.0113
2034.00,0.0110
2033.00,0.0107
2032.00,0.0106
2031.00,0.0105
2030.00,0.0105
2029.00,0.0106
2028.00,0.0107
2027.00,0.0107
2026.00,0.0105
2025.00,0.0104
2024.00,0.0104
2023.00,0.0104
2022.00,0.0102
2021.00,0.0101
2020.00,0.0101
2019.00,0.0101
2018.00,0.0101
2017.00,0.0104
2016.00,0.0107
2015.00,0.0109
2014.00,0.0110
2013.00,0.0109
2012.00,0.0109
2011.00,0.0107
2010.00,0.0104
2009.00,0.0100
2008.00,0.0096
2007.00,0.0094
2006.00,0.0092
2005.00,0.0094
2004.00,0.0097
2003.00,0.0100
2002.00,0.0101
2001.00,0.0103
2000.00,0.0104
1999.00,0.0105
1998.00,0.0106
1997.00,0.0106
1996.00,0.0106
1995.00,0.0107
1994.00,0.0107
1993.00,0.0107
1992.00,0.0107
1991.00,0.0107
1990.00,0.0106
1989.00,0.0106
1988.00,0.0107
1987.00,0.0108
1986.00,0.0109
1985.00,0.0110
1984.00,0.0113
1983.00,0.0115
1982.00,0.0117
1981.00,0.0117
1980.00,0.0115
1979.00,0.0109
1978.00,0.0102
1977.00,0.0097
1976.00,0.0096
1975.00,0.0096
1974.00,0.0096
1973.00,0.0096
1972.00,0.0097
1971.00,0.0098
1970.00,0.0098
1969.00,0.0099
1968.00,0.0101
1967.00,0.0101
1966.00,0.0101
1965.00,0.0100
1964.00,0.0100
1963.00,0.0099
1962.00,0.0097
1961.00,0.0095
1960.00,0.0095
1959.00,0.0094
1958.00,0.0094
1957.00,0.0094
1956.00,0.0095
1955.00,0.0095
1954.00,0.0095
1953.00,0.0096
1952.00,0.0098
1951.00,0.0099
1950.00,0.0099
1949.00,0.0100
1948.00,0.0100
1947.00,0.0099
1946.00,0.0098
1945.00,0.0097
1944.00,0.0098
1943.00,0.0098
1942.00,0.0098
1941.00,0.0097
1940.00,0.0097
1939.00,0.0096
1938.00,0.0096
1937.00,0.0096
1936.00,0.0096
1935.00,0.0096
1934.00,0.0095
1933.00,0.0095
1932.00,0.0096
1931.00,0.0096
1930.00,0.0096
1929.00,0.0097
1928.00,0.0097
1927.00,0.0098
1926.00,0.0098
1925.00,0.0099
1924.00,0.0100
1923.00,0.0100
1922.00,0.0099
1921.00,0.0098
1920.00,0.0099
1919.00,0.0099
1918.00,0.0099
1917.00,0.0099
1916.00,0.0099
1915.00,0.0099
1914.00,0.0099
1913.00,0.0099
1912.00,0.0100
1911.00,0.0100
1910.00,0.0100
1909.00,0.0100
1908.00,0.0100
1907.00,0.0100
1906.00,0.0100
1905.00,0.0100
1904.00,0.0101
1903.00,0.0101
1902.00,0.0100
1901.00,0.0099
1900.00,0.0099
1899.00,0.0099
1898.00,0.0098
1897.00,0.0099
1896.00,0.0099
1895.00,0.0099
1894.00,0.0098
1893.00,0.0098
1892.00,0.0098
1891.00,0.0099
1890.00,0.0098
1889.00,0.0098
1888.00,0.0098
1887.00,0.0098
1886.00,0.0098
1885.00,0.0099
1884.00,0.0099
1883.00,0.0099
1882.00,0.0098
1881.00,0.0098
1880.00,0.0098
1879.00,0.0098
1878.00,0.0098
1877.00,0.0098
1876.00,0.0098
1875.00,0.0098
1874.00,0.0097
1873.00,0.0097
1872.00,0.0097
1871.00,0.0098
1870.00,0.0098
1869.00,0.0099
1868.00,0.0098
1867.00,0.0098
1866.00,0.0097
1865.00,0.0097
1864.00,0.0097
1863.00,0.0097
1862.00,0.0097
1861.00,0.0097
1860.00,0.0097
1859.00,0.0097
1858.00,0.0096
1857.00,0.0096
1856.00,0.0096
1855.00,0.0096
1854.00,0.0096
1853.00,0.0096
1852.00,0.0096
1851.00,0.0096
1850.00,0.0096
1849.00,0.0096
1848.00,0.0096
1847.00,0.0096
1846.00,0.0095
1845.00,0.0094
1844.00,0.0094
1843.00,0.0094
1842.00,0.0094
1841.00,0.0094
1840.00,0.0095
1839.00,0.0095
1838.00,0.0095
1837.00,0.0096
1836.00,0.0096
1835.00,0.0096
1834.00,0.0095
1833.00,0.0095
1832.00,0.0096
1831.00,0.0096
1830.00,0.0096
1829.00,0.0095
1828.00,0.0094
1827.00,0.0094
1826.00,0.0094
1825.00,0.0094
1824.00,0.0094
1823.00,0.0094
1822.00,0.0094
1821.00,0.0093
1820.00,0.0092
1819.00,0.0091
1818.00,0.0090
1817.00,0.0089
1816.00,0.0090
1815.00,0.0091
1814.00,0.0091
1813.00,0.0092
1812.00,0.0093
1811.00,0.0093
1810.00,0.0092
1809.00,0.0092
1808.00,0.0092
1807.00,0.0092
1806.00,0.0092
1805.00,0.0091
1804.00,0.0092
1803.00,0.0092
1802.00,0.0091
1801.00,0.0091
1800.00,0.0090
1799.00,0.0090
1798.00,0.0090
1797.00,0.0090
1796.00,0.0090
1795.00,0.0090
1794.00,0.0089
1793.00,0.0089
1792.00,0.0088
1791.00,0.0088
1790.00,0.0088
1789.00,0.0088
1788.00,0.0089
1787.00,0.0089
1786.00,0.0089
1785.00,0.0088
1784.00,0.0089
1783.00,0.0089
1782.00,0.0090
1781.00,0.0090
1780.00,0.0090
1779.00,0.0089
1778.00,0.0089
1777.00,0.0089
1776.00,0.0089
1775.00,0.0088
1774.00,0.0088
1773.00,0.0088
1772.00,0.0087
1771.00,0.0087
1770.00,0.0087
1769.00,0.0087
1768.00,0.0087
1767.00,0.0087
1766.00,0.0087
1765.00,0.0087
1764.00,0.0088
1763.00,0.0089
1762.00,0.0088
1761.00,0.0087
1760.00,0.0087
1759.00,0.0088
1758.00,0.0088
1757.00,0.0088
1756.00,0.0087
1755.00,0.0087
1754.00,0.0088
1753.00,0.0088
1752.00,0.0089
1751.00,0.0091
1750.00,0.0091
1749.00,0.0092
1748.00,0.0093
1747.00,0.0093
1746.00,0.0093
1745.00,0.0094
1744.00,0.0095
1743.00,0.0095
1742.00,0.0093
1741.00,0.0093
1740.00,0.0093
1739.00,0.0093
1738.00,0.0092
1737.00,0.0092
1736.00,0.0093
1735.00,0.0094
1734.00,0.0093
1733.00,0.0094
1732.00,0.0097
1731.00,0.0100
1730.00,0.0101
1729.00,0.0101
1728.00,0.0102
1727.00,0.0103
1726.00,0.0104
1725.00,0.0106
1724.00,0.0109
1723.00,0.0110
1722.00,0.0111
1721.00,0.0111
1720.00,0.0114
1719.00,0.0117
1718.00,0.0120
1717.00,0.0123
1716.00,0.0127
1715.00,0.0131
1714.00,0.0135
1713.00,0.0139
1712.00,0.0146
1711.00,0.0152
1710.00,0.0157
1709.00,0.0164
1708.00,0.0172
1707.00,0.0182
1706.00,0.0193
1705.00,0.0203
1704.00,0.0213
1703.00,0.0220
1702.00,0.0229
1701.00,0.0248
1700.00,0.0277
1699.00,0.0303
1698.00,0.0325
1697.00,0.0350
1696.00,0.0384
1695.00,0.0421
1694.00,0.0453
1693.00,0.0482
1692.00,0.0512
1691.00,0.0548
1690.00,0.0587
1689.00,0.0626
1688.00,0.0660
1687.00,0.0690
1686.00,0.0723
1685.00,0.0776
1684.00,0.0849
1683.00,0.0911
1682.00,0.0953
1681.00,0.0988
1680.00,0.1026
1679.00,0.1061
1678.00,0.1092
1677.00,0.1126
1676.00,0.1172
1675.00,0.1227
1674.00,0.1274
1673.00,0.1308
1672.00,0.1338
1671.00,0.1375
1670.00,0.1422
1669.00,0.1474
1668.00,0.1519
1667.00,0.1551
1666.00,0.1574
1665.00,0.1596
1664.00,0.1629
1663.00,0.1673
1662.00,0.1717
1661.00,0.1752
1660.00,0.1780
1659.00,0.1803
1658.00,0.1819
1657.00,0.1828
1656.00,0.1832
1655.00,0.1840
1654.00,0.1876
1653.00,0.1938
1652.00,0.1979
1651.00,0.1980
1650.00,0.1963
1649.00,0.1946
1648.00,0.1940
1647.00,0.1943
1646.00,0.1942
1645.00,0.1928
1644.00,0.1905
1643.00,0.1876
1642.00,0.1843
1641.00,0.1807
1640.00,0.1769
1639.00,0.1729
1638.00,0.1686
1637.00,0.1643
1636.00,0.1600
1635.00,0.1558
1634.00,0.1514
1633.00,0.1468
1632.00,0.1421
1631.00,0.1373
1630.00,0.1326
1629.00,0.1280
1628.00,0.1236
1627.00,0.1194
1626.00,0.1154
1625.00,0.1115
1624.00,0.1078
1623.00,0.1044
1622.00,0.1011
1621.00,0.0980
1620.00,0.0948
1619.00,0.0917
1618.00,0.0887
1617.00,0.0861
1616.00,0.0836
1615.00,0.0814
1614.00,0.0793
1613.00,0.0770
1612.00,0.0748
1611.00,0.0727
1610.00,0.0707
1609.00,0.0688
1608.00,0.0670
1607.00,0.0652
1606.00,0.0635
1605.00,0.0619
1604.00,0.0604
1603.00,0.0589
1602.00,0.0575
1601.00,0.0561
1600.00,0.0548
1599.00,0.0535
1598.00,0.0524
1597.00,0.0513
1596.00,0.0502
1595.00,0.0491
1594.00,0.0481
1593.00,0.0471
1592.00,0.0462
1591.00,0.0452
1590.00,0.0444
1589.00,0.0435
1588.00,0.0427
1587.00,0.0419
1586.00,0.0412
1585.00,0.0405
1584.00,0.0399
1583.00,0.0392
1582.00,0.0386
1581.00,0.0380
1580.00,0.0374
1579.00,0.0367
1578.00,0.0361
1577.00,0.0356
1576.00,0.0352
1575.00,0.0348
1574.00,0.0345
1573.00,0.0341
1572.00,0.0335
1571.00,0.0331
1570.00,0.0327
1569.00,0.0324
1568.00,0.0321
1567.00,0.0319
1566.00,0.0316
1565.00,0.0312
1564.00,0.0308
1563.00,0.0302
1562.00,0.0295
1561.00,0.0288
1560.00,0.0285
1559.00,0.0285
1558.00,0.0285
1557.00,0.0286
1556.00,0.0286
1555.00,0.0285
1554.00,0.0283
1553.00,0.0282
1552.00,0.0281
1551.00,0.0280
1550.00,0.0278
1549.00,0.0275
1548.00,0.0272
1547.00,0.0269
1546.00,0.0267
1545.00,0.0265
1544.00,0.0262
1543.00,0.0259
1542.00,0.0257
1541.00,0.0256
1540.00,0.0255
1539.00,0.0254
1538.00,0.0253
1537.00,0.0253
1536.00,0.0251
1535.00,0.0249
1534.00,0.0248
1533.00,0.0247
1532.00,0.0246
1531.00,0.0245
1530.00,0.0243
1529.00,0.0242
1528.00,0.0241
1527.00,0.0240
1526.00,0.0238
1525.00,0.0236
1524.00,0.0234
1523.00,0.0233
1522.00,0.0232
1521.00,0.0231
1520.00,0.0231
1519.00,0.0232
1518.00,0.0233
1517.00,0.0235
1516.00,0.0235
1515.00,0.0234
1514.00,0.0235
1513.00,0.0236
1512.00,0.0237
1511.00,0.0240
1510.00,0.0242
1509.00,0.0245
1508.00,0.0252
1507.00,0.0263
1506.00,0.0276
1505.00,0.0290
1504.00,0.0304
1503.00,0.0318
1502.00,0.0332
1501.00,0.0348
1500.00,0.0366
1499.00,0.0385
1498.00,0.0406
1497.00,0.0426
1496.00,0.0444
1495.00,0.0456
1494.00,0.0462
1493.00,0.0462
1492.00,0.0459
1491.00,0.0451
1490.00,0.0440
1489.00,0.0424
1488.00,0.0406
1487.00,0.0386
1486.00,0.0367
1485.00,0.0350
1484.00,0.0336
1483.00,0.0322
1482.00,0.0311
1481.00,0.0302
1480.00,0.0296
1479.00,0.0292
1478.00,0.0290
1477.00,0.0293
1476.00,0.0298
1475.00,0.0305
1474.00,0.0319
1473.00,0.0342
1472.00,0.0374
1471.00,0.0407
1470.00,0.0440
1469.00,0.0475
1468.00,0.0513
1467.00,0.0555
1466.00,0.0605
1465.00,0.0661
1464.00,0.0712
1463.00,0.0748
1462.00,0.0767
1461.00,0.0774
1460.00,0.0770
1459.00,0.0757
1458.00,0.0731
1457.00,0.0695
1456.00,0.0658
1455.00,0.0629
1454.00,0.0606
1453.00,0.0588
1452.00,0.0576
1451.00,0.0569
1450.00,0.0571
1449.00,0.0582
1448.00,0.0604
1447.00,0.0633
1446.00,0.0665
1445.00,0.0699
1444.00,0.0735
1443.00,0.0772
1442.00,0.0809
1441.00,0.0842
1440.00,0.0869
1439.00,0.0890
1438.00,0.0909
1437.00,0.0931
1436.00,0.0951
1435.00,0.0960
1434.00,0.0960
1433.00,0.0957
1432.00,0.0956
1431.00,0.0960
1430.00,0.0972
1429.00,0.0992
1428.00,0.1019
1427.00,0.1048
1426.00,0.1081
1425.00,0.1119
1424.00,0.1155
1423.00,0.1179
1422.00,0.1185
1421.00,0.1178
1420.00,0.1157
1419.00,0.1120
1418.00,0.1070
1417.00,0.1015
1416.00,0.0956
1415.00,0.0895
1414.00,0.0836
1413.00,0.0780
1412.00,0.0727
1411.00,0.0679
1410.00,0.0636
1409.00,0.0599
1408.00,0.0567
1407.00,0.0539
1406.00,0.0515
1405.00,0.0494
1404.00,0.0475
1403.00,0.0458
1402.00,0.0444
1401.00,0.0432
1400.00,0.0421
1399.00,0.0411
1398.00,0.0404
1397.00,0.0398
1396.00,0.0392
1395.00,0.0387
1394.00,0.0384
1393.00,0.0382
1392.00,0.0381
1391.00,0.0380
1390.00,0.0381
1389.00,0.0383
1388.00,0.0387
1387.00,0.0394
1386.00,0.0401
1385.00,0.0408
1384.00,0.0416
1383.00,0.0424
1382.00,0.0433
1381.00,0.0442
1380.00,0.0452
1379.00,0.0461
1378.00,0.0471
1377.00,0.0479
1376.00,0.0487
1375.00,0.0493
1374.00,0.0499
1373.00,0.0501
1372.00,0.0501
1371.00,0.0498
1370.00,0.0494
1369.00,0.0488
1368.00,0.0480
1367.00,0.0470
1366.00,0.0459
1365.00,0.0448
1364.00,0.0437
1363.00,0.0425
1362.00,0.0413
1361.00,0.0401
1360.00,0.0391
1359.00,0.0382
1358.00,0.0374
1357.00,0.0367
1356.00,0.0360
1355.00,0.0354
1354.00,0.0349
1353.00,0.0343
1352.00,0.0339
1351.00,0.0334
1350.00,0.0331
1349.00,0.0327
1348.00,0.0324
1347.00,0.0321
1346.00,0.0319
1345.00,0.0317
1344.00,0.0315
1343.00,0.0314
1342.00,0.0314
1341.00,0.0314
1340.00,0.0315
1339.00,0.0316
1338.00,0.0317
1337.00,0.0318
1336.00,0.0320
1335.00,0.0323
1334.00,0.0326
1333.00,0.0331
1332.00,0.0337
1331.00,0.0345
1330.00,0.0354
1329.00,0.0365
1328.00,0.0377
1327.00,0.0391
1326.00,0.0406
1325.00,0.0422
1324.00,0.0438
1323.00,0.0455
1322.00,0.0471
1321.00,0.0486
1320.00,0.0500
1319.00,0.0511
1318.00,0.0518
1317.00,0.0522
1316.00,0.0522
1315.00,0.0518
1314.00,0.0511
1313.00,0.0502
1312.00,0.0491
1311.00,0.0481
1310.00,0.0471
1309.00,0.0463
1308.00,0.0457
1307.00,0.0453
1306.00,0.0453
1305.00,0.0456
1304.00,0.0464
1303.00,0.0478
1302.00,0.0497
1301.00,0.0524
1300.00,0.0559
1299.00,0.0601
1298.00,0.0653
1297.00,0.0714
1296.00,0.0781
1295.00,0.0854
1294.00,0.0929
1293.00,0.1003
1292.00,0.1075
1291.00,0.1141
1290.00,0.1198
1289.00,0.1245
1288.00,0.1280
1287.00,0.1303
1286.00,0.1312
1285.00,0.1309
1284.00,0.1296
1283.00,0.1277
1282.00,0.1255
1281.00,0.1234
1280.00,0.1217
1279.00,0.1207
1278.00,0.1203
1277.00,0.1207
1276.00,0.1215
1275.00,0.1225
1274.00,0.1235
1273.00,0.1242
1272.00,0.1244
1271.00,0.1240
1270.00,0.1229
1269.00,0.1210
1268.00,0.1185
1267.00,0.1155
1266.00,0.1120
1265.00,0.1083
1264.00,0.1044
1263.00,0.1006
1262.00,0.0968
1261.00,0.0931
1260.00,0.0897
1259.00,0.0865
1258.00,0.0836
1257.00,0.0808
1256.00,0.0783
1255.00,0.0760
1254.00,0.0739
1253.00,0.0720
1252.00,0.0703
1251.00,0.0688
1250.00,0.0674
1249.00,0.0663
1248.00,0.0653
1247.00,0.0644
1246.00,0.0637
1245.00,0.0632
1244.00,0.0628
1243.00,0.0625
1242.00,0.0624
1241.00,0.0625
1240.00,0.0627
1239.00,0.0630
1238.00,0.0634
1237.00,0.0639
1236.00,0.0645
1235.00,0.0651
1234.00,0.0658
1233.00,0.0663
1232.00,0.0668
1231.00,0.0672
1230.00,0.0675
1229.00,0.0677
1228.00,0.0677
1227.00,0.0677
1226.00,0.0675
1225.00,0.0674
1224.00,0.0671
1223.00,0.0669
1222.00,0.0667
1221.00,0.0665
1220.00,0.0663
1219.00,0.0661
1218.00,0.0658
1217.00,0.0654
1216.00,0.0649
1215.00,0.0643
1214.00,0.0636
1213.00,0.0629
1212.00,0.0621
1211.00,0.0613
1210.00,0.0605
1209.00,0.0596
1208.00,0.0588
1207.00,0.0580
1206.00,0.0572
1205.00,0.0565
1204.00,0.0557
1203.00,0.0550
1202.00,0.0544
1201.00,0.0537
1200.00,0.0531
1199.00,0.0525
1198.00,0.0520
1197.00,0.0514
1196.00,0.0509
1195.00,0.0504
1194.00,0.0500
1193.00,0.0497
1192.00,0.0493
1191.00,0.0490
1190.00,0.0487
1189.00,0.0485
1188.00,0.0482
1187.00,0.0480
1186.00,0.0479
1185.00,0.0479
1184.00,0.0479
1183.00,0.0479
1182.00,0.0480
1181.00,0.0482
1180.00,0.0484
1179.00,0.0487
1178.00,0.0491
1177.00,0.0495
1176.00,0.0500
1175.00,0.0505
1174.00,0.0511
1173.00,0.0517
1172.00,0.0521
1171.00,0.0525
1170.00,0.0528
1169.00,0.0529
1168.00,0.0529
1167.00,0.0527
1166.00,0.0524
1165.00,0.0519
1164.00,0.0513
1163.00,0.0506
1162.00,0.0499
1161.00,0.0491
1160.00,0.0484
1159.00,0.0477
1158.00,0.0470
1157.00,0.0464
1156.00,0.0458
1155.00,0.0452
1154.00,0.0448
1153.00,0.0443
1152.00,0.0439
1151.00,0.0435
1150.00,0.0432
1149.00,0.0429
1148.00,0.0427
1147.00,0.0426
1146.00,0.0425
1145.00,0.0425
1144.00,0.0425
1143.00,0.0424
1142.00,0.0424
1141.00,0.0424
1140.00,0.0423
1139.00,0.0421
1138.00,0.0416
1137.00,0.0412
1136.00,0.0407
1135.00,0.0403
1134.00,0.0400
1133.00,0.0398
1132.00,0.0395
1131.00,0.0393
1130.00,0.0392
1129.00,0.0391
1128.00,0.0391
1127.00,0.0390
1126.00,0.0390
1125.00,0.0389
1124.00,0.0388
1123.00,0.0387
1122.00,0.0386
1121.00,0.0386
1120.00,0.0386
1119.00,0.0386
1118.00,0.0386
1117.00,0.0385
1116.00,0.0385
1115.00,0.0385
1114.00,0.0385
1113.00,0.0385
1112.00,0.0385
1111.00,0.0385
1110.00,0.0385
1109.00,0.0385
1108.00,0.0385
1107.00,0.0384
1106.00,0.0384
1105.00,0.0385
1104.00,0.0385
1103.00,0.0385
1102.00,0.0386
1101.00,0.0386
1100.00,0.0386
1099.00,0.0386
1098.00,0.0387
1097.00,0.0387
1096.00,0.0387
1095.00,0.0387
1094.00,0.0387
1093.00,0.0387
1092.00,0.0387
1091.00,0.0387
1090.00,0.0388
1089.00,0.0389
1088.00,0.0389
1087.00,0.0389
1086.00,0.0390
1085.00,0.0391
1084.00,0.0392
1083.00,0.0394
1082.00,0.0396
1081.00,0.0399
1080.00,0.0401
1079.00,0.0404
1078.00,0.0407
1077.00,0.0410
1076.00,0.0413
1075.00,0.0416
1074.00,0.0417
1073.00,0.0418
1072.00,0.0418
1071.00,0.0417
1070.00,0.0416
1069.00,0.0415
1068.00,0.0413
1067.00,0.0412
1066.00,0.0410
1065.00,0.0409
1064.00,0.0407
1063.00,0.0405
1062.00,0.0404
1061.00,0.0402
1060.00,0.0400
1059.00,0.0398
1058.00,0.0396
1057.00,0.0395
1056.00,0.0394
1055.00,0.0392
1054.00,0.0391
1053.00,0.0390
1052.00,0.0388
1051.00,0.0387
1050.00,0.0386
1049.00,0.0385
1048.00,0.0383
1047.00,0.0382
1046.00,0.0381
1045.00,0.0380
1044.00,0.0379
1043.00,0.0378
1042.00,0.0378
1041.00,0.0377
1040.00,0.0376
1039.00,0.0376
1038.00,0.0376
1037.00,0.0376
1036.00,0.0376
1035.00,0.0377
1034.00,0.0378
1033.00,0.0379
1032.00,0.0380
1031.00,0.0381
1030.00,0.0382
1029.00,0.0384
1028.00,0.0387
1027.00,0.0390
1026.00,0.0393
1025.00,0.0398
1024.00,0.0403
1023.00,0.0409
1022.00,0.0415
1021.00,0.0421
1020.00,0.0427
1019.00,0.0431
1018.00,0.0433
1017.00,0.0433
1016.00,0.0430
1015.00,0.0424
1014.00,0.0418
1013.00,0.0410
1012.00,0.0403
1011.00,0.0397
1010.00,0.0392
1009.00,0.0389
1008.00,0.0388
1007.00,0.0389
1006.00,0.0392
1005.00,0.0397
1004.00,0.0402
1003.00,0.0407
1002.00,0.0410
1001.00,0.0411
1000.00,0.0410
999.00,0.0407
998.00,0.0402
997.00,0.0398
996.00,0.0393
995.00,0.0389
994.00,0.0384
993.00,0.0381
992.00,0.0377
991.00,0.0373
990.00,0.0370
989.00,0.0367
988.00,0.0364
987.00,0.0361
986.00,0.0359
985.00,0.0356
984.00,0.0354
983.00,0.0352
982.00,0.0349
981.00,0.0347
980.00,0.0344
979.00,0.0342
978.00,0.0340
977.00,0.0339
976.00,0.0336
975.00,0.0334
974.00,0.0332
973.00,0.0331
972.00,0.0329
971.00,0.0327
970.00,0.0326
969.00,0.0325
968.00,0.0323
967.00,0.0322
966.00,0.0320
965.00,0.0319
964.00,0.0318
963.00,0.0317
962.00,0.0316
961.00,0.0315
960.00,0.0314
959.00,0.0313
958.00,0.0312
957.00,0.0312
956.00,0.0311
955.00,0.0310
954.00,0.0309
953.00,0.0308
952.00,0.0307
951.00,0.0307
950.00,0.0307
949.00,0.0307
948.00,0.0307
947.00,0.0307
946.00,0.0308
945.00,0.0309
944.00,0.0310
943.00,0.0312
942.00,0.0314
941.00,0.0318
940.00,0.0322
939.00,0.0328
938.00,0.0334
937.00,0.0341
936.00,0.0348
935.00,0.0353
934.00,0.0357
933.00,0.0358
932.00,0.0356
931.00,0.0352
930.00,0.0348
929.00,0.0344
928.00,0.0340
927.00,0.0338
926.00,0.0336
925.00,0.0334
924.00,0.0332
923.00,0.0329
922.00,0.0327
921.00,0.0326
920.00,0.0323
919.00,0.0321
918.00,0.0319
917.00,0.0318
916.00,0.0316
915.00,0.0315
914.00,0.0314
913.00,0.0314
912.00,0.0313
911.00,0.0312
910.00,0.0312
909.00,0.0312
908.00,0.0313
907.00,0.0314
906.00,0.0316
905.00,0.0318
904.00,0.0320
903.00,0.0323
902.00,0.0325
901.00,0.0328
900.00,0.0332
899.00,0.0336
898.00,0.0339
897.00,0.0342
896.00,0.0344
895.00,0.0345
894.00,0.0345
893.00,0.0345
892.00,0.0343
891.00,0.0341
890.00,0.0339
889.00,0.0336
888.00,0.0333
887.00,0.0331
886.00,0.0328
885.00,0.0326
884.00,0.0324
883.00,0.0322
882.00,0.0321
881.00,0.0319
880.00,0.0318
879.00,0.0317
878.00,0.0317
877.00,0.0317
876.00,0.0317
875.00,0.0317
874.00,0.0317
873.00,0.0318
872.00,0.0318
871.00,0.0319
870.00,0.0321
869.00,0.0322
868.00,0.0324
867.00,0.0326
866.00,0.0328
865.00,0.0331
864.00,0.0333
863.00,0.0337
862.00,0.0341
861.00,0.0347
860.00,0.0352
859.00,0.0358
858.00,0.0365
857.00,0.0372
856.00,0.0381
855.00,0.0389
854.00,0.0399
853.00,0.0408
852.00,0.0417
851.00,0.0426
850.00,0.0435
849.00,0.0443
848.00,0.0450
847.00,0.0456
846.00,0.0461
845.00,0.0464
844.00,0.0465
843.00,0.0465
842.00,0.0464
841.00,0.0462
840.00,0.0460
839.00,0.0456
838.00,0.0453
837.00,0.0448
836.00,0.0443
835.00,0.0437
834.00,0.0432
833.00,0.0426
832.00,0.0421
831.00,0.0416
830.00,0.0411
829.00,0.0407
828.00,0.0402
827.00,0.0398
826.00,0.0394
825.00,0.0389
824.00,0.0385
823.00,0.0381
822.00,0.0378
821.00,0.0375
820.00,0.0373
819.00,0.0371
818.00,0.0369
817.00,0.0367
816.00,0.0365
815.00,0.0364
814.00,0.0363
813.00,0.0362
812.00,0.0361
811.00,0.0360
810.00,0.0360
809.00,0.0359
808.00,0.0358
807.00,0.0357
806.00,0.0357
805.00,0.0357
804.00,0.0358
803.00,0.0358
802.00,0.0358
801.00,0.0359
800.00,0.0359
799.00,0.0360
798.00,0.0360
797.00,0.0361
796.00,0.0362
795.00,0.0362
794.00,0.0364
793.00,0.0365
792.00,0.0367
791.00,0.0369
790.00,0.0370
789.00,0.0372
788.00,0.0373
787.00,0.0374
786.00,0.0376
785.00,0.0378
784.00,0.0379
783.00,0.0380
782.00,0.0382
781.00,0.0383
780.00,0.0385
779.00,0.0386
778.00,0.0387
777.00,0.0388
776.00,0.0390
775.00,0.0392
774.00,0.0394
773.00,0.0397
772.00,0.0399
771.00,0.0402
770.00,0.0405
769.00,0.0408
768.00,0.0411
767.00,0.0415
766.00,0.0419
765.00,0.0423
764.00,0.0429
763.00,0.0434
762.00,0.0440
761.00,0.0446
760.00,0.0452
759.00,0.0458
758.00,0.0465
757.00,0.0471
756.00,0.0477
755.00,0.0484
754.00,0.0491
753.00,0.0498
752.00,0.0504
751.00,0.0511
750.00,0.0518
749.00,0.0525
748.00,0.0532
747.00,0.0539
746.00,0.0546
745.00,0.0553
744.00,0.0560
743.00,0.0567
742.00,0.0574
741.00,0.0581
740.00,0.0588
739.00,0.0595
738.00,0.0602
737.00,0.0608
736.00,0.0614
735.00,0.0618
734.00,0.0621
733.00,0.0622
732.00,0.0620
731.00,0.0618
730.00,0.0614
729.00,0.0609
728.00,0.0603
727.00,0.0597
726.00,0.0592
725.00,0.0586
724.00,0.0580
723.00,0.0576
722.00,0.0572
721.00,0.0568
720.00,0.0565
719.00,0.0562
718.00,0.0560
717.00,0.0559
716.00,0.0558
715.00,0.0557
714.00,0.0556
713.00,0.0556
712.00,0.0556
711.00,0.0557
710.00,0.0558
709.00,0.0559
708.00,0.0559
707.00,0.0561
706.00,0.0562
705.00,0.0564
704.00,0.0566
703.00,0.0568
702.00,0.0571
701.00,0.0574
700.00,0.0576
699.00,0.0579
698.00,0.0582
697.00,0.0586
696.00,0.0589
695.00,0.0593
694.00,0.0596
693.00,0.0600
692.00,0.0604
691.00,0.0607
690.00,0.0612
689.00,0.0616
688.00,0.0621
687.00,0.0626
686.00,0.0632
685.00,0.0638
684.00,0.0644
683.00,0.0650
682.00,0.0657
681.00,0.0662
680.00,0.0667
679.00,0.0672
678.00,0.0676
677.00,0.0681
676.00,0.0687
675.00,0.0693
674.00,0.0700
673.00,0.0705
672.00,0.0710
671.00,0.0715
670.00,0.0720
669.00,0.0730
668.00,0.0745
667.00,0.0760
666.00,0.0769
665.00,0.0775
664.00,0.0783
663.00,0.0793
662.00,0.0805
661.00,0.0817
660.00,0.0829
659.00,0.0842
658.00,0.0856
657.00,0.0871
656.00,0.0885
655.00,0.0899
654.00,0.0913
653.00,0.0926
652.00,0.0938
651.00,0.0950
650.00,0.0960
649.00,0.0969
648.00,0.0975
647.00,0.0979
646.00,0.0981
645.00,0.0980
644.00,0.0979
643.00,0.0975
642.00,0.0970
641.00,0.0963
640.00,0.0956
639.00,0.0949
638.00,0.0943
637.00,0.0938
636.00,0.0933
635.00,0.0927
634.00,0.0920
633.00,0.0914
632.00,0.0909
631.00,0.0905
630.00,0.0902
629.00,0.0899
628.00,0.0896
627.00,0.0893
626.00,0.0890
625.00,0.0888
624.00,0.0886
623.00,0.0884
622.00,0.0882
621.00,0.0881
620.00,0.0880
619.00,0.0878
618.00,0.0878
617.00,0.0878
616.00,0.0879
615.00,0.0880
614.00,0.0882
613.00,0.0883
612.00,0.0883
611.00,0.0882
610.00,0.0881
609.00,0.0880
608.00,0.0881
607.00,0.0882
606.00,0.0884
605.00,0.0886
604.00,0.0889
603.00,0.0891
602.00,0.0893
601.00,0.0895
600.00,0.0897
599.00,0.0900
598.00,0.0902
597.00,0.0906
596.00,0.0911
595.00,0.0915
594.00,0.0920
593.00,0.0925
592.00,0.0931
591.00,0.0937
590.00,0.0945
589.00,0.0954
588.00,0.0963
587.00,0.0973
586.00,0.0984
585.00,0.0996
584.00,0.1009
583.00,0.1023
582.00,0.1035
581.00,0.1048
580.00,0.1059
579.00,0.1070
578.00,0.1080
577.00,0.1090
576.00,0.1099
575.00,0.1106
574.00,0.1112
573.00,0.1116
572.00,0.1120
571.00,0.1122
570.00,0.1122
569.00,0.1120
568.00,0.1118
567.00,0.1114
566.00,0.1109
565.00,0.1104
564.00,0.1099
563.00,0.1093
562.00,0.1087
561.00,0.1081
560.00,0.1075
559.00,0.1069
558.00,0.1063
557.00,0.1059
556.00,0.1056
555.00,0.1053
554.00,0.1050
553.00,0.1047
552.00,0.1044
551.00,0.1041
550.00,0.1038
549.00,0.1035
548.00,0.1032
547.00,0.1029
546.00,0.1025
545.00,0.1021
544.00,0.1017
543.00,0.1013
542.00,0.1011
541.00,0.1010
540.00,0.1009
539.00,0.1007
538.00,0.1003
537.00,0.1000
536.00,0.0999
535.00,0.1000
534.00,0.1000
533.00,0.1001
532.00,0.1001
531.00,0.1001
530.00,0.1001
529.00,0.1001
528.00,0.1000
527.00,0.1000
526.00,0.1001
525.00,0.1002
524.00,0.1003
523.00,0.1002
522.00,0.1001
521.00,0.1000
520.00,0.0998
519.00,0.0998
518.00,0.0999
517.00,0.1000
516.00,0.1002
515.00,0.1002
514.00,0.1001
513.00,0.0999
512.00,0.0997
511.00,0.0994
510.00,0.0992
509.00,0.0992
508.00,0.0993
507.00,0.0995
506.00,0.0996
505.00,0.0995
504.00,0.0993
503.00,0.0992
502.00,0.0992
501.00,0.0994
500.00,0.0996
499.00,0.0997
498.00,0.0998
497.00,0.0999
496.00,0.1000
495.00,0.0999
494.00,0.0996
493.00,0.0995
492.00,0.0996
491.00,0.0999
490.00,0.1003
489.00,0.1007
488.00,0.1010
487.00,0.1011
486.00,0.1012
485.00,0.1013
484.00,0.1016
483.00,0.1019
482.00,0.1020
481.00,0.1021
480.00,0.1021
479.00,0.1020
478.00,0.1020
477.00,0.1022
476.00,0.1026
475.00,0.1027
474.00,0.1028
473.00,0.1028
472.00,0.1029
471.00,0.1031
470.00,0.1032
469.00,0.1032
468.00,0.1030
467.00,0.1027
466.00,0.1023
465.00,0.1021
464.00,0.1020
463.00,0.1020
462.00,0.1019
461.00,0.1015
460.00,0.1010
459.00,0.1007
458.00,0.1007
457.00,0.1008
456.00,0.1008
455.00,0.1005
454.00,0.1001
453.00,0.0997
452.00,0.0994
451.00,0.0990
450.00,0.0985
449.00,0.0981
448.00,0.0980
447.00,0.0979
446.00,0.0976
445.00,0.0972
444.00,0.0969
443.00,0.0968
442.00,0.0967
441.00,0.0966
440.00,0.0964
439.00,0.0959
438.00,0.0952
437.00,0.0946
436.00,0.0942
435.00,0.0943
434.00,0.0946
433.00,0.0948
432.00,0.0947
431.00,0.0945
430.00,0.0943
429.00,0.0942
428.00,0.0941
427.00,0.0940
426.00,0.0937
425.00,0.0933
424.00,0.0929
423.00,0.0925
422.00,0.0922
421.00,0.0920
420.00,0.0916
419.00,0.0909
418.00,0.0903
417.00,0.0902
416.00,0.0907
415.00,0.0910
414.00,0.0906
413.00,0.0897
412.00,0.0890
411.00,0.0892
410.00,0.0901
409.00,0.0907
408.00,0.0906
407.00,0.0898
406.00,0.0889
405.00,0.0884
404.00,0.0886
403.00,0.0896
402.00,0.0910
401.00,0.0921
400.00,0.0924
