Created as New Dataset,Sample 741 By YargerLab Date Friday, June 27 2025
cm-1,A
4000.00,0.0017
3999.00,0.0017
3998.00,0.0017
3997.00,0.0017
3996.00,0.0017
3995.00,0.0017
3994.00,0.0018
3993.00,0.0018
3992.00,0.0018
3991.00,0.0018
3990.00,0.0018
3989.00,0.0018
3988.00,0.0018
3987.00,0.0018
3986.00,0.0018
3985.00,0.0018
3984.00,0.0018
3983.00,0.0018
3982.00,0.0018
3981.00,0.0018
3980.00,0.0018
3979.00,0.0018
3978.00,0.0018
3977.00,0.0018
3976.00,0.0018
3975.00,0.0018
3974.00,0.0018
3973.00,0.0018
3972.00,0.0019
3971.00,0.0019
3970.00,0.0019
3969.00,0.0019
3968.00,0.0019
3967.00,0.0019
3966.00,0.0019
3965.00,0.0019
3964.00,0.0019
3963.00,0.0019
3962.00,0.0019
3961.00,0.0019
3960.00,0.0019
3959.00,0.0019
3958.00,0.0018
3957.00,0.0018
3956.00,0.0019
3955.00,0.0019
3954.00,0.0019
3953.00,0.0019
3952.00,0.0019
3951.00,0.0019
3950.00,0.0019
3949.00,0.0019
3948.00,0.0018
3947.00,0.0018
3946.00,0.0018
3945.00,0.0018
3944.00,0.0018
3943.00,0.0018
3942.00,0.0019
3941.00,0.0019
3940.00,0.0018
3939.00,0.0018
3938.00,0.0018
3937.00,0.0018
3936.00,0.0018
3935.00,0.0018
3934.00,0.0018
3933.00,0.0018
3932.00,0.0018
3931.00,0.0018
3930.00,0.0018
3929.00,0.0018
3928.00,0.0018
3927.00,0.0018
3926.00,0.0018
3925.00,0.0018
3924.00,0.0018
3923.00,0.0018
3922.00,0.0018
3921.00,0.0019
3920.00,0.0019
3919.00,0.0018
3918.00,0.0018
3917.00,0.0018
3916.00,0.0018
3915.00,0.0018
3914.00,0.0017
3913.00,0.0017
3912.00,0.0017
3911.00,0.0017
3910.00,0.0017
3909.00,0.0017
3908.00,0.0018
3907.00,0.0019
3906.00,0.0019
3905.00,0.0020
3904.00,0.0020
3903.00,0.0020
3902.00,0.0020
3901.00,0.0020
3900.00,0.0020
3899.00,0.0019
3898.00,0.0019
3897.00,0.0019
3896.00,0.0019
3895.00,0.0019
3894.00,0.0018
3893.00,0.0018
3892.00,0.0018
3891.00,0.0018
3890.00,0.0018
3889.00,0.0019
3888.00,0.0019
3887.00,0.0019
3886.00,0.0019
3885.00,0.0019
3884.00,0.0019
3883.00,0.0019
3882.00,0.0019
3881.00,0.0018
3880.00,0.0018
3879.00,0.0018
3878.00,0.0018
3877.00,0.0018
3876.00,0.0018
3875.00,0.0018
3874.00,0.0019
3873.00,0.0019
3872.00,0.0019
3871.00,0.0019
3870.00,0.0019
3869.00,0.0020
3868.00,0.0020
3867.00,0.0020
3866.00,0.0020
3865.00,0.0020
3864.00,0.0019
3863.00,0.0019
3862.00,0.0019
3861.00,0.0018
3860.00,0.0018
3859.00,0.0018
3858.00,0.0019
3857.00,0.0020
3856.00,0.0021
3855.00,0.0022
3854.00,0.0023
3853.00,0.0023
3852.00,0.0023
3851.00,0.0022
3850.00,0.0022
3849.00,0.0020
3848.00,0.0019
3847.00,0.0018
3846.00,0.0018
3845.00,0.0018
3844.00,0.0018
3843.00,0.0018
3842.00,0.0019
3841.00,0.0019
3840.00,0.0020
3839.00,0.0020
3838.00,0.0020
3837.00,0.0020
3836.00,0.0020
3835.00,0.0020
3834.00,0.0020
3833.00,0.0020
3832.00,0.0019
3831.00,0.0019
3830.00,0.0018
3829.00,0.0017
3828.00,0.0017
3827.00,0.0017
3826.00,0.0017
3825.00,0.0018
3824.00,0.0018
3823.00,0.0019
3822.00,0.0019
3821.00,0.0019
3820.00,0.0019
3819.00,0.0020
3818.00,0.0020
3817.00,0.0020
3816.00,0.0019
3815.00,0.0019
3814.00,0.0018
3813.00,0.0017
3812.00,0.0017
3811.00,0.0016
3810.00,0.0016
3809.00,0.0016
3808.00,0.0016
3807.00,0.0016
3806.00,0.0017
3805.00,0.0018
3804.00,0.0019
3803.00,0.0019
3802.00,0.0019
3801.00,0.0019
3800.00,0.0019
3799.00,0.0019
3798.00,0.0018
3797.00,0.0018
3796.00,0.0017
3795.00,0.0016
3794.00,0.0016
3793.00,0.0015
3792.00,0.0015
3791.00,0.0015
3790.00,0.0015
3789.00,0.0014
3788.00,0.0014
3787.00,0.0014
3786.00,0.0015
3785.00,0.0015
3784.00,0.0015
3783.00,0.0015
3782.00,0.0015
3781.00,0.0015
3780.00,0.0015
3779.00,0.0015
3778.00,0.0015
3777.00,0.0015
3776.00,0.0015
3775.00,0.0015
3774.00,0.0016
3773.00,0.0016
3772.00,0.0016
3771.00,0.0016
3770.00,0.0016
3769.00,0.0016
3768.00,0.0016
3767.00,0.0016
3766.00,0.0016
3765.00,0.0016
3764.00,0.0016
3763.00,0.0016
3762.00,0.0017
3761.00,0.0017
3760.00,0.0017
3759.00,0.0016
3758.00,0.0016
3757.00,0.0016
3756.00,0.0017
3755.00,0.0017
3754.00,0.0018
3753.00,0.0019
3752.00,0.0019
3751.00,0.0019
3750.00,0.0019
3749.00,0.0020
3748.00,0.0021
3747.00,0.0021
3746.00,0.0021
3745.00,0.0020
3744.00,0.0020
3743.00,0.0019
3742.00,0.0019
3741.00,0.0018
3740.00,0.0017
3739.00,0.0017
3738.00,0.0017
3737.00,0.0017
3736.00,0.0018
3735.00,0.0018
3734.00,0.0018
3733.00,0.0018
3732.00,0.0018
3731.00,0.0017
3730.00,0.0017
3729.00,0.0017
3728.00,0.0016
3727.00,0.0016
3726.00,0.0015
3725.00,0.0015
3724.00,0.0015
3723.00,0.0015
3722.00,0.0015
3721.00,0.0014
3720.00,0.0014
3719.00,0.0014
3718.00,0.0014
3717.00,0.0014
3716.00,0.0014
3715.00,0.0014
3714.00,0.0015
3713.00,0.0015
3712.00,0.0016
3711.00,0.0016
3710.00,0.0016
3709.00,0.0016
3708.00,0.0016
3707.00,0.0016
3706.00,0.0015
3705.00,0.0015
3704.00,0.0014
3703.00,0.0014
3702.00,0.0014
3701.00,0.0014
3700.00,0.0014
3699.00,0.0013
3698.00,0.0013
3697.00,0.0013
3696.00,0.0013
3695.00,0.0013
3694.00,0.0014
3693.00,0.0015
3692.00,0.0016
3691.00,0.0016
3690.00,0.0017
3689.00,0.0017
3688.00,0.0017
3687.00,0.0017
3686.00,0.0016
3685.00,0.0016
3684.00,0.0015
3683.00,0.0014
3682.00,0.0014
3681.00,0.0014
3680.00,0.0015
3679.00,0.0016
3678.00,0.0017
3677.00,0.0017
3676.00,0.0018
3675.00,0.0018
3674.00,0.0019
3673.00,0.0019
3672.00,0.0020
3671.00,0.0019
3670.00,0.0019
3669.00,0.0018
3668.00,0.0017
3667.00,0.0017
3666.00,0.0016
3665.00,0.0015
3664.00,0.0015
3663.00,0.0014
3662.00,0.0014
3661.00,0.0014
3660.00,0.0014
3659.00,0.0014
3658.00,0.0015
3657.00,0.0015
3656.00,0.0015
3655.00,0.0015
3654.00,0.0016
3653.00,0.0017
3652.00,0.0018
3651.00,0.0019
3650.00,0.0019
3649.00,0.0018
3648.00,0.0018
3647.00,0.0019
3646.00,0.0018
3645.00,0.0018
3644.00,0.0017
3643.00,0.0017
3642.00,0.0016
3641.00,0.0016
3640.00,0.0016
3639.00,0.0016
3638.00,0.0016
3637.00,0.0017
3636.00,0.0017
3635.00,0.0018
3634.00,0.0018
3633.00,0.0019
3632.00,0.0020
3631.00,0.0021
3630.00,0.0022
3629.00,0.0023
3628.00,0.0023
3627.00,0.0024
3626.00,0.0024
3625.00,0.0024
3624.00,0.0024
3623.00,0.0024
3622.00,0.0024
3621.00,0.0025
3620.00,0.0027
3619.00,0.0028
3618.00,0.0029
3617.00,0.0030
3616.00,0.0031
3615.00,0.0031
3614.00,0.0031
3613.00,0.0031
3612.00,0.0031
3611.00,0.0031
3610.00,0.0031
3609.00,0.0031
3608.00,0.0031
3607.00,0.0030
3606.00,0.0030
3605.00,0.0030
3604.00,0.0030
3603.00,0.0030
3602.00,0.0030
3601.00,0.0030
3600.00,0.0031
3599.00,0.0031
3598.00,0.0031
3597.00,0.0032
3596.00,0.0032
3595.00,0.0033
3594.00,0.0033
3593.00,0.0033
3592.00,0.0034
3591.00,0.0035
3590.00,0.0036
3589.00,0.0036
3588.00,0.0037
3587.00,0.0038
3586.00,0.0039
3585.00,0.0039
3584.00,0.0040
3583.00,0.0040
3582.00,0.0041
3581.00,0.0041
3580.00,0.0042
3579.00,0.0042
3578.00,0.0043
3577.00,0.0044
3576.00,0.0045
3575.00,0.0046
3574.00,0.0047
3573.00,0.0048
3572.00,0.0049
3571.00,0.0050
3570.00,0.0051
3569.00,0.0053
3568.00,0.0054
3567.00,0.0056
3566.00,0.0057
3565.00,0.0058
3564.00,0.0059
3563.00,0.0060
3562.00,0.0060
3561.00,0.0062
3560.00,0.0063
3559.00,0.0064
3558.00,0.0065
3557.00,0.0066
3556.00,0.0067
3555.00,0.0068
3554.00,0.0070
3553.00,0.0071
3552.00,0.0073
3551.00,0.0075
3550.00,0.0077
3549.00,0.0078
3548.00,0.0080
3547.00,0.0081
3546.00,0.0083
3545.00,0.0085
3544.00,0.0086
3543.00,0.0088
3542.00,0.0090
3541.00,0.0092
3540.00,0.0094
3539.00,0.0095
3538.00,0.0097
3537.00,0.0099
3536.00,0.0101
3535.00,0.0103
3534.00,0.0105
3533.00,0.0107
3532.00,0.0109
3531.00,0.0111
3530.00,0.0113
3529.00,0.0115
3528.00,0.0118
3527.00,0.0120
3526.00,0.0122
3525.00,0.0125
3524.00,0.0127
3523.00,0.0129
3522.00,0.0132
3521.00,0.0134
3520.00,0.0136
3519.00,0.0138
3518.00,0.0141
3517.00,0.0143
3516.00,0.0146
3515.00,0.0149
3514.00,0.0151
3513.00,0.0154
3512.00,0.0157
3511.00,0.0161
3510.00,0.0164
3509.00,0.0167
3508.00,0.0171
3507.00,0.0174
3506.00,0.0178
3505.00,0.0182
3504.00,0.0186
3503.00,0.0190
3502.00,0.0194
3501.00,0.0199
3500.00,0.0203
3499.00,0.0207
3498.00,0.0212
3497.00,0.0216
3496.00,0.0221
3495.00,0.0226
3494.00,0.0231
3493.00,0.0237
3492.00,0.0242
3491.00,0.0248
3490.00,0.0254
3489.00,0.0260
3488.00,0.0267
3487.00,0.0273
3486.00,0.0280
3485.00,0.0287
3484.00,0.0295
3483.00,0.0303
3482.00,0.0312
3481.00,0.0322
3480.00,0.0332
3479.00,0.0343
3478.00,0.0354
3477.00,0.0366
3476.00,0.0380
3475.00,0.0395
3474.00,0.0411
3473.00,0.0429
3472.00,0.0448
3471.00,0.0469
3470.00,0.0491
3469.00,0.0514
3468.00,0.0538
3467.00,0.0563
3466.00,0.0588
3465.00,0.0614
3464.00,0.0639
3463.00,0.0665
3462.00,0.0690
3461.00,0.0713
3460.00,0.0735
3459.00,0.0755
3458.00,0.0773
3457.00,0.0788
3456.00,0.0801
3455.00,0.0811
3454.00,0.0817
3453.00,0.0819
3452.00,0.0818
3451.00,0.0812
3450.00,0.0802
3449.00,0.0787
3448.00,0.0769
3447.00,0.0748
3446.00,0.0725
3445.00,0.0701
3444.00,0.0677
3443.00,0.0653
3442.00,0.0630
3441.00,0.0608
3440.00,0.0588
3439.00,0.0570
3438.00,0.0553
3437.00,0.0538
3436.00,0.0525
3435.00,0.0512
3434.00,0.0501
3433.00,0.0491
3432.00,0.0482
3431.00,0.0474
3430.00,0.0466
3429.00,0.0459
3428.00,0.0453
3427.00,0.0448
3426.00,0.0443
3425.00,0.0438
3424.00,0.0433
3423.00,0.0429
3422.00,0.0425
3421.00,0.0422
3420.00,0.0418
3419.00,0.0415
3418.00,0.0412
3417.00,0.0410
3416.00,0.0408
3415.00,0.0405
3414.00,0.0403
3413.00,0.0401
3412.00,0.0398
3411.00,0.0396
3410.00,0.0394
3409.00,0.0391
3408.00,0.0389
3407.00,0.0387
3406.00,0.0385
3405.00,0.0384
3404.00,0.0382
3403.00,0.0381
3402.00,0.0380
3401.00,0.0378
3400.00,0.0377
3399.00,0.0375
3398.00,0.0373
3397.00,0.0372
3396.00,0.0370
3395.00,0.0369
3394.00,0.0367
3393.00,0.0366
3392.00,0.0365
3391.00,0.0363
3390.00,0.0361
3389.00,0.0360
3388.00,0.0358
3387.00,0.0357
3386.00,0.0355
3385.00,0.0354
3384.00,0.0352
3383.00,0.0351
3382.00,0.0350
3381.00,0.0349
3380.00,0.0348
3379.00,0.0346
3378.00,0.0345
3377.00,0.0344
3376.00,0.0343
3375.00,0.0342
3374.00,0.0340
3373.00,0.0339
3372.00,0.0338
3371.00,0.0337
3370.00,0.0336
3369.00,0.0335
3368.00,0.0333
3367.00,0.0332
3366.00,0.0331
3365.00,0.0330
3364.00,0.0329
3363.00,0.0328
3362.00,0.0327
3361.00,0.0326
3360.00,0.0325
3359.00,0.0324
3358.00,0.0323
3357.00,0.0321
3356.00,0.0320
3355.00,0.0319
3354.00,0.0318
3353.00,0.0317
3352.00,0.0316
3351.00,0.0315
3350.00,0.0314
3349.00,0.0313
3348.00,0.0312
3347.00,0.0311
3346.00,0.0310
3345.00,0.0308
3344.00,0.0307
3343.00,0.0306
3342.00,0.0305
3341.00,0.0304
3340.00,0.0304
3339.00,0.0303
3338.00,0.0302
3337.00,0.0301
3336.00,0.0300
3335.00,0.0299
3334.00,0.0298
3333.00,0.0298
3332.00,0.0297
3331.00,0.0296
3330.00,0.0295
3329.00,0.0294
3328.00,0.0293
3327.00,0.0292
3326.00,0.0292
3325.00,0.0292
3324.00,0.0291
3323.00,0.0291
3322.00,0.0290
3321.00,0.0289
3320.00,0.0288
3319.00,0.0288
3318.00,0.0287
3317.00,0.0287
3316.00,0.0287
3315.00,0.0287
3314.00,0.0286
3313.00,0.0286
3312.00,0.0286
3311.00,0.0285
3310.00,0.0285
3309.00,0.0284
3308.00,0.0284
3307.00,0.0284
3306.00,0.0284
3305.00,0.0284
3304.00,0.0284
3303.00,0.0284
3302.00,0.0284
3301.00,0.0284
3300.00,0.0284
3299.00,0.0284
3298.00,0.0283
3297.00,0.0283
3296.00,0.0283
3295.00,0.0283
3294.00,0.0283
3293.00,0.0284
3292.00,0.0285
3291.00,0.0285
3290.00,0.0286
3289.00,0.0287
3288.00,0.0288
3287.00,0.0288
3286.00,0.0288
3285.00,0.0289
3284.00,0.0289
3283.00,0.0290
3282.00,0.0290
3281.00,0.0291
3280.00,0.0291
3279.00,0.0292
3278.00,0.0292
3277.00,0.0292
3276.00,0.0292
3275.00,0.0292
3274.00,0.0292
3273.00,0.0291
3272.00,0.0292
3271.00,0.0292
3270.00,0.0294
3269.00,0.0296
3268.00,0.0298
3267.00,0.0300
3266.00,0.0301
3265.00,0.0302
3264.00,0.0303
3263.00,0.0303
3262.00,0.0304
3261.00,0.0305
3260.00,0.0306
3259.00,0.0306
3258.00,0.0306
3257.00,0.0306
3256.00,0.0306
3255.00,0.0307
3254.00,0.0308
3253.00,0.0309
3252.00,0.0310
3251.00,0.0310
3250.00,0.0310
3249.00,0.0310
3248.00,0.0310
3247.00,0.0311
3246.00,0.0312
3245.00,0.0313
3244.00,0.0315
3243.00,0.0316
3242.00,0.0317
3241.00,0.0317
3240.00,0.0318
3239.00,0.0319
3238.00,0.0320
3237.00,0.0320
3236.00,0.0320
3235.00,0.0321
3234.00,0.0321
3233.00,0.0322
3232.00,0.0324
3231.00,0.0325
3230.00,0.0327
3229.00,0.0328
3228.00,0.0329
3227.00,0.0330
3226.00,0.0331
3225.00,0.0332
3224.00,0.0332
3223.00,0.0333
3222.00,0.0334
3221.00,0.0335
3220.00,0.0336
3219.00,0.0337
3218.00,0.0338
3217.00,0.0339
3216.00,0.0339
3215.00,0.0341
3214.00,0.0342
3213.00,0.0343
3212.00,0.0345
3211.00,0.0346
3210.00,0.0347
3209.00,0.0349
3208.00,0.0350
3207.00,0.0351
3206.00,0.0353
3205.00,0.0354
3204.00,0.0355
3203.00,0.0357
3202.00,0.0358
3201.00,0.0359
3200.00,0.0360
3199.00,0.0361
3198.00,0.0362
3197.00,0.0363
3196.00,0.0364
3195.00,0.0365
3194.00,0.0366
3193.00,0.0367
3192.00,0.0367
3191.00,0.0368
3190.00,0.0369
3189.00,0.0370
3188.00,0.0370
3187.00,0.0371
3186.00,0.0372
3185.00,0.0373
3184.00,0.0374
3183.00,0.0375
3182.00,0.0376
3181.00,0.0376
3180.00,0.0377
3179.00,0.0378
3178.00,0.0378
3177.00,0.0379
3176.00,0.0380
3175.00,0.0380
3174.00,0.0381
3173.00,0.0382
3172.00,0.0383
3171.00,0.0383
3170.00,0.0383
3169.00,0.0384
3168.00,0.0384
3167.00,0.0384
3166.00,0.0384
3165.00,0.0385
3164.00,0.0385
3163.00,0.0385
3162.00,0.0385
3161.00,0.0385
3160.00,0.0385
3159.00,0.0385
3158.00,0.0385
3157.00,0.0384
3156.00,0.0383
3155.00,0.0382
3154.00,0.0382
3153.00,0.0382
3152.00,0.0383
3151.00,0.0384
3150.00,0.0386
3149.00,0.0388
3148.00,0.0390
3147.00,0.0391
3146.00,0.0392
3145.00,0.0393
3144.00,0.0393
3143.00,0.0394
3142.00,0.0394
3141.00,0.0394
3140.00,0.0394
3139.00,0.0395
3138.00,0.0396
3137.00,0.0398
3136.00,0.0399
3135.00,0.0400
3134.00,0.0400
3133.00,0.0400
3132.00,0.0400
3131.00,0.0400
3130.00,0.0400
3129.00,0.0400
3128.00,0.0401
3127.00,0.0401
3126.00,0.0401
3125.00,0.0401
3124.00,0.0401
3123.00,0.0400
3122.00,0.0399
3121.00,0.0398
3120.00,0.0397
3119.00,0.0397
3118.00,0.0397
3117.00,0.0398
3116.00,0.0398
3115.00,0.0399
3114.00,0.0400
3113.00,0.0401
3112.00,0.0402
3111.00,0.0402
3110.00,0.0402
3109.00,0.0403
3108.00,0.0404
3107.00,0.0405
3106.00,0.0406
3105.00,0.0407
3104.00,0.0407
3103.00,0.0408
3102.00,0.0408
3101.00,0.0408
3100.00,0.0408
3099.00,0.0409
3098.00,0.0409
3097.00,0.0410
3096.00,0.0410
3095.00,0.0411
3094.00,0.0411
3093.00,0.0411
3092.00,0.0411
3091.00,0.0411
3090.00,0.0412
3089.00,0.0413
3088.00,0.0415
3087.00,0.0416
3086.00,0.0418
3085.00,0.0420
3084.00,0.0423
3083.00,0.0425
3082.00,0.0428
3081.00,0.0432
3080.00,0.0435
3079.00,0.0440
3078.00,0.0445
3077.00,0.0450
3076.00,0.0455
3075.00,0.0460
3074.00,0.0465
3073.00,0.0469
3072.00,0.0473
3071.00,0.0474
3070.00,0.0475
3069.00,0.0474
3068.00,0.0471
3067.00,0.0466
3066.00,0.0460
3065.00,0.0454
3064.00,0.0446
3063.00,0.0439
3062.00,0.0431
3061.00,0.0423
3060.00,0.0415
3059.00,0.0408
3058.00,0.0402
3057.00,0.0397
3056.00,0.0393
3055.00,0.0390
3054.00,0.0388
3053.00,0.0385
3052.00,0.0383
3051.00,0.0381
3050.00,0.0379
3049.00,0.0378
3048.00,0.0376
3047.00,0.0375
3046.00,0.0375
3045.00,0.0374
3044.00,0.0374
3043.00,0.0374
3042.00,0.0374
3041.00,0.0374
3040.00,0.0375
3039.00,0.0375
3038.00,0.0375
3037.00,0.0375
3036.00,0.0375
3035.00,0.0374
3034.00,0.0373
3033.00,0.0373
3032.00,0.0371
3031.00,0.0370
3030.00,0.0368
3029.00,0.0366
3028.00,0.0364
3027.00,0.0362
3026.00,0.0359
3025.00,0.0357
3024.00,0.0356
3023.00,0.0354
3022.00,0.0352
3021.00,0.0351
3020.00,0.0350
3019.00,0.0349
3018.00,0.0348
3017.00,0.0347
3016.00,0.0347
3015.00,0.0346
3014.00,0.0346
3013.00,0.0347
3012.00,0.0347
3011.00,0.0349
3010.00,0.0350
3009.00,0.0352
3008.00,0.0354
3007.00,0.0356
3006.00,0.0358
3005.00,0.0360
3004.00,0.0363
3003.00,0.0365
3002.00,0.0368
3001.00,0.0371
3000.00,0.0375
2999.00,0.0379
2998.00,0.0384
2997.00,0.0389
2996.00,0.0395
2995.00,0.0401
2994.00,0.0407
2993.00,0.0414
2992.00,0.0421
2991.00,0.0427
2990.00,0.0433
2989.00,0.0439
2988.00,0.0445
2987.00,0.0451
2986.00,0.0456
2985.00,0.0462
2984.00,0.0468
2983.00,0.0476
2982.00,0.0485
2981.00,0.0495
2980.00,0.0507
2979.00,0.0520
2978.00,0.0534
2977.00,0.0548
2976.00,0.0561
2975.00,0.0573
2974.00,0.0585
2973.00,0.0596
2972.00,0.0609
2971.00,0.0622
2970.00,0.0637
2969.00,0.0654
2968.00,0.0672
2967.00,0.0691
2966.00,0.0712
2965.00,0.0734
2964.00,0.0757
2963.00,0.0781
2962.00,0.0805
2961.00,0.0829
2960.00,0.0852
2959.00,0.0873
2958.00,0.0892
2957.00,0.0909
2956.00,0.0922
2955.00,0.0931
2954.00,0.0935
2953.00,0.0934
2952.00,0.0927
2951.00,0.0914
2950.00,0.0898
2949.00,0.0880
2948.00,0.0864
2947.00,0.0852
2946.00,0.0845
2945.00,0.0847
2944.00,0.0855
2943.00,0.0871
2942.00,0.0893
2941.00,0.0921
2940.00,0.0953
2939.00,0.0988
2938.00,0.1026
2937.00,0.1067
2936.00,0.1110
2935.00,0.1156
2934.00,0.1202
2933.00,0.1250
2932.00,0.1298
2931.00,0.1345
2930.00,0.1389
2929.00,0.1430
2928.00,0.1464
2927.00,0.1491
2926.00,0.1510
2925.00,0.1522
2924.00,0.1526
2923.00,0.1525
2922.00,0.1517
2921.00,0.1504
2920.00,0.1487
2919.00,0.1464
2918.00,0.1436
2917.00,0.1403
2916.00,0.1367
2915.00,0.1327
2914.00,0.1286
2913.00,0.1244
2912.00,0.1203
2911.00,0.1164
2910.00,0.1126
2909.00,0.1091
2908.00,0.1057
2907.00,0.1025
2906.00,0.0994
2905.00,0.0964
2904.00,0.0936
2903.00,0.0910
2902.00,0.0887
2901.00,0.0865
2900.00,0.0844
2899.00,0.0825
2898.00,0.0808
2897.00,0.0791
2896.00,0.0777
2895.00,0.0764
2894.00,0.0752
2893.00,0.0742
2892.00,0.0733
2891.00,0.0726
2890.00,0.0719
2889.00,0.0713
2888.00,0.0709
2887.00,0.0705
2886.00,0.0701
2885.00,0.0697
2884.00,0.0693
2883.00,0.0690
2882.00,0.0688
2881.00,0.0687
2880.00,0.0689
2879.00,0.0695
2878.00,0.0703
2877.00,0.0715
2876.00,0.0730
2875.00,0.0747
2874.00,0.0765
2873.00,0.0782
2872.00,0.0795
2871.00,0.0800
2870.00,0.0797
2869.00,0.0788
2868.00,0.0775
2867.00,0.0763
2866.00,0.0757
2865.00,0.0758
2864.00,0.0767
2863.00,0.0786
2862.00,0.0812
2861.00,0.0842
2860.00,0.0873
2859.00,0.0903
2858.00,0.0926
2857.00,0.0939
2856.00,0.0941
2855.00,0.0931
2854.00,0.0911
2853.00,0.0883
2852.00,0.0850
2851.00,0.0813
2850.00,0.0776
2849.00,0.0739
2848.00,0.0703
2847.00,0.0672
2846.00,0.0644
2845.00,0.0620
2844.00,0.0600
2843.00,0.0582
2842.00,0.0566
2841.00,0.0551
2840.00,0.0538
2839.00,0.0529
2838.00,0.0524
2837.00,0.0524
2836.00,0.0527
2835.00,0.0533
2834.00,0.0537
2833.00,0.0539
2832.00,0.0537
2831.00,0.0529
2830.00,0.0515
2829.00,0.0497
2828.00,0.0475
2827.00,0.0453
2826.00,0.0431
2825.00,0.0411
2824.00,0.0394
2823.00,0.0379
2822.00,0.0367
2821.00,0.0356
2820.00,0.0348
2819.00,0.0340
2818.00,0.0333
2817.00,0.0327
2816.00,0.0322
2815.00,0.0318
2814.00,0.0314
2813.00,0.0310
2812.00,0.0306
2811.00,0.0303
2810.00,0.0300
2809.00,0.0297
2808.00,0.0294
2807.00,0.0292
2806.00,0.0289
2805.00,0.0287
2804.00,0.0285
2803.00,0.0283
2802.00,0.0281
2801.00,0.0279
2800.00,0.0278
2799.00,0.0276
2798.00,0.0275
2797.00,0.0274
2796.00,0.0273
2795.00,0.0272
2794.00,0.0270
2793.00,0.0269
2792.00,0.0268
2791.00,0.0267
2790.00,0.0266
2789.00,0.0265
2788.00,0.0265
2787.00,0.0265
2786.00,0.0265
2785.00,0.0265
2784.00,0.0265
2783.00,0.0264
2782.00,0.0264
2781.00,0.0264
2780.00,0.0265
2779.00,0.0265
2778.00,0.0265
2777.00,0.0266
2776.00,0.0266
2775.00,0.0267
2774.00,0.0268
2773.00,0.0268
2772.00,0.0269
2771.00,0.0270
2770.00,0.0271
2769.00,0.0272
2768.00,0.0272
2767.00,0.0273
2766.00,0.0274
2765.00,0.0274
2764.00,0.0275
2763.00,0.0276
2762.00,0.0276
2761.00,0.0277
2760.00,0.0278
2759.00,0.0279
2758.00,0.0279
2757.00,0.0279
2756.00,0.0280
2755.00,0.0280
2754.00,0.0281
2753.00,0.0281
2752.00,0.0281
2751.00,0.0282
2750.00,0.0282
2749.00,0.0282
2748.00,0.0283
2747.00,0.0283
2746.00,0.0283
2745.00,0.0283
2744.00,0.0284
2743.00,0.0284
2742.00,0.0285
2741.00,0.0286
2740.00,0.0287
2739.00,0.0288
2738.00,0.0289
2737.00,0.0291
2736.00,0.0292
2735.00,0.0294
2734.00,0.0296
2733.00,0.0297
2732.00,0.0298
2731.00,0.0299
2730.00,0.0299
2729.00,0.0299
2728.00,0.0299
2727.00,0.0298
2726.00,0.0297
2725.00,0.0297
2724.00,0.0296
2723.00,0.0295
2722.00,0.0294
2721.00,0.0293
2720.00,0.0292
2719.00,0.0292
2718.00,0.0291
2717.00,0.0290
2716.00,0.0289
2715.00,0.0289
2714.00,0.0288
2713.00,0.0288
2712.00,0.0287
2711.00,0.0287
2710.00,0.0287
2709.00,0.0287
2708.00,0.0287
2707.00,0.0287
2706.00,0.0288
2705.00,0.0288
2704.00,0.0288
2703.00,0.0288
2702.00,0.0288
2701.00,0.0288
2700.00,0.0288
2699.00,0.0289
2698.00,0.0289
2697.00,0.0289
2696.00,0.0289
2695.00,0.0290
2694.00,0.0290
2693.00,0.0291
2692.00,0.0291
2691.00,0.0291
2690.00,0.0292
2689.00,0.0292
2688.00,0.0292
2687.00,0.0292
2686.00,0.0292
2685.00,0.0292
2684.00,0.0292
2683.00,0.0292
2682.00,0.0292
2681.00,0.0292
2680.00,0.0291
2679.00,0.0291
2678.00,0.0291
2677.00,0.0291
2676.00,0.0291
2675.00,0.0291
2674.00,0.0291
2673.00,0.0291
2672.00,0.0291
2671.00,0.0292
2670.00,0.0292
2669.00,0.0292
2668.00,0.0293
2667.00,0.0293
2666.00,0.0294
2665.00,0.0294
2664.00,0.0294
2663.00,0.0294
2662.00,0.0294
2661.00,0.0294
2660.00,0.0293
2659.00,0.0292
2658.00,0.0292
2657.00,0.0291
2656.00,0.0290
2655.00,0.0289
2654.00,0.0288
2653.00,0.0287
2652.00,0.0286
2651.00,0.0285
2650.00,0.0284
2649.00,0.0284
2648.00,0.0283
2647.00,0.0283
2646.00,0.0282
2645.00,0.0282
2644.00,0.0281
2643.00,0.0281
2642.00,0.0281
2641.00,0.0280
2640.00,0.0280
2639.00,0.0279
2638.00,0.0279
2637.00,0.0279
2636.00,0.0279
2635.00,0.0279
2634.00,0.0278
2633.00,0.0278
2632.00,0.0277
2631.00,0.0277
2630.00,0.0277
2629.00,0.0276
2628.00,0.0276
2627.00,0.0276
2626.00,0.0276
2625.00,0.0275
2624.00,0.0275
2623.00,0.0275
2622.00,0.0275
2621.00,0.0274
2620.00,0.0274
2619.00,0.0274
2618.00,0.0274
2617.00,0.0273
2616.00,0.0273
2615.00,0.0272
2614.00,0.0272
2613.00,0.0271
2612.00,0.0271
2611.00,0.0271
2610.00,0.0270
2609.00,0.0270
2608.00,0.0269
2607.00,0.0268
2606.00,0.0267
2605.00,0.0266
2604.00,0.0266
2603.00,0.0265
2602.00,0.0264
2601.00,0.0263
2600.00,0.0263
2599.00,0.0262
2598.00,0.0261
2597.00,0.0260
2596.00,0.0259
2595.00,0.0259
2594.00,0.0258
2593.00,0.0257
2592.00,0.0257
2591.00,0.0256
2590.00,0.0255
2589.00,0.0254
2588.00,0.0254
2587.00,0.0254
2586.00,0.0253
2585.00,0.0253
2584.00,0.0252
2583.00,0.0252
2582.00,0.0251
2581.00,0.0251
2580.00,0.0251
2579.00,0.0250
2578.00,0.0250
2577.00,0.0249
2576.00,0.0248
2575.00,0.0248
2574.00,0.0248
2573.00,0.0248
2572.00,0.0248
2571.00,0.0248
2570.00,0.0248
2569.00,0.0248
2568.00,0.0249
2567.00,0.0249
2566.00,0.0249
2565.00,0.0250
2564.00,0.0250
2563.00,0.0251
2562.00,0.0251
2561.00,0.0251
2560.00,0.0251
2559.00,0.0252
2558.00,0.0252
2557.00,0.0252
2556.00,0.0253
2555.00,0.0253
2554.00,0.0253
2553.00,0.0253
2552.00,0.0253
2551.00,0.0252
2550.00,0.0251
2549.00,0.0251
2548.00,0.0250
2547.00,0.0249
2546.00,0.0248
2545.00,0.0247
2544.00,0.0246
2543.00,0.0246
2542.00,0.0245
2541.00,0.0244
2540.00,0.0243
2539.00,0.0242
2538.00,0.0241
2537.00,0.0240
2536.00,0.0239
2535.00,0.0238
2534.00,0.0238
2533.00,0.0237
2532.00,0.0236
2531.00,0.0236
2530.00,0.0235
2529.00,0.0235
2528.00,0.0234
2527.00,0.0234
2526.00,0.0234
2525.00,0.0233
2524.00,0.0233
2523.00,0.0233
2522.00,0.0233
2521.00,0.0232
2520.00,0.0232
2519.00,0.0231
2518.00,0.0230
2517.00,0.0230
2516.00,0.0229
2515.00,0.0228
2514.00,0.0227
2513.00,0.0226
2512.00,0.0225
2511.00,0.0225
2510.00,0.0224
2509.00,0.0224
2508.00,0.0223
2507.00,0.0222
2506.00,0.0222
2505.00,0.0221
2504.00,0.0220
2503.00,0.0220
2502.00,0.0220
2501.00,0.0220
2500.00,0.0219
2499.00,0.0219
2498.00,0.0219
2497.00,0.0218
2496.00,0.0218
2495.00,0.0218
2494.00,0.0217
2493.00,0.0217
2492.00,0.0217
2491.00,0.0217
2490.00,0.0218
2489.00,0.0218
2488.00,0.0218
2487.00,0.0218
2486.00,0.0218
2485.00,0.0218
2484.00,0.0218
2483.00,0.0218
2482.00,0.0218
2481.00,0.0217
2480.00,0.0217
2479.00,0.0217
2478.00,0.0216
2477.00,0.0216
2476.00,0.0216
2475.00,0.0216
2474.00,0.0215
2473.00,0.0215
2472.00,0.0215
2471.00,0.0215
2470.00,0.0215
2469.00,0.0214
2468.00,0.0214
2467.00,0.0214
2466.00,0.0213
2465.00,0.0213
2464.00,0.0213
2463.00,0.0214
2462.00,0.0214
2461.00,0.0214
2460.00,0.0215
2459.00,0.0215
2458.00,0.0215
2457.00,0.0216
2456.00,0.0216
2455.00,0.0216
2454.00,0.0216
2453.00,0.0216
2452.00,0.0217
2451.00,0.0217
2450.00,0.0217
2449.00,0.0217
2448.00,0.0217
2447.00,0.0217
2446.00,0.0217
2445.00,0.0216
2444.00,0.0216
2443.00,0.0215
2442.00,0.0215
2441.00,0.0215
2440.00,0.0215
2439.00,0.0214
2438.00,0.0214
2437.00,0.0214
2436.00,0.0213
2435.00,0.0213
2434.00,0.0212
2433.00,0.0212
2432.00,0.0211
2431.00,0.0211
2430.00,0.0210
2429.00,0.0210
2428.00,0.0209
2427.00,0.0209
2426.00,0.0208
2425.00,0.0208
2424.00,0.0207
2423.00,0.0207
2422.00,0.0206
2421.00,0.0206
2420.00,0.0206
2419.00,0.0206
2418.00,0.0205
2417.00,0.0205
2416.00,0.0204
2415.00,0.0203
2414.00,0.0203
2413.00,0.0202
2412.00,0.0201
2411.00,0.0201
2410.00,0.0200
2409.00,0.0199
2408.00,0.0197
2407.00,0.0196
2406.00,0.0195
2405.00,0.0193
2404.00,0.0192
2403.00,0.0191
2402.00,0.0190
2401.00,0.0190
2400.00,0.0189
2399.00,0.0188
2398.00,0.0187
2397.00,0.0186
2396.00,0.0185
2395.00,0.0184
2394.00,0.0183
2393.00,0.0182
2392.00,0.0182
2391.00,0.0181
2390.00,0.0180
2389.00,0.0179
2388.00,0.0178
2387.00,0.0177
2386.00,0.0177
2385.00,0.0176
2384.00,0.0175
2383.00,0.0174
2382.00,0.0172
2381.00,0.0171
2380.00,0.0171
2379.00,0.0170
2378.00,0.0170
2377.00,0.0170
2376.00,0.0169
2375.00,0.0168
2374.00,0.0167
2373.00,0.0166
2372.00,0.0164
2371.00,0.0163
2370.00,0.0162
2369.00,0.0161
2368.00,0.0161
2367.00,0.0160
2366.00,0.0159
2365.00,0.0159
2364.00,0.0159
2363.00,0.0158
2362.00,0.0158
2361.00,0.0157
2360.00,0.0156
2359.00,0.0155
2358.00,0.0154
2357.00,0.0153
2356.00,0.0152
2355.00,0.0151
2354.00,0.0150
2353.00,0.0148
2352.00,0.0147
2351.00,0.0146
2350.00,0.0146
2349.00,0.0146
2348.00,0.0147
2347.00,0.0147
2346.00,0.0147
2345.00,0.0147
2344.00,0.0146
2343.00,0.0145
2342.00,0.0144
2341.00,0.0143
2340.00,0.0143
2339.00,0.0142
2338.00,0.0141
2337.00,0.0140
2336.00,0.0139
2335.00,0.0138
2334.00,0.0137
2333.00,0.0136
2332.00,0.0135
2331.00,0.0133
2330.00,0.0133
2329.00,0.0133
2328.00,0.0136
2327.00,0.0139
2326.00,0.0141
2325.00,0.0142
2324.00,0.0141
2323.00,0.0138
2322.00,0.0135
2321.00,0.0132
2320.00,0.0130
2319.00,0.0128
2318.00,0.0126
2317.00,0.0125
2316.00,0.0124
2315.00,0.0123
2314.00,0.0123
2313.00,0.0122
2312.00,0.0121
2311.00,0.0119
2310.00,0.0118
2309.00,0.0118
2308.00,0.0117
2307.00,0.0117
2306.00,0.0116
2305.00,0.0116
2304.00,0.0115
2303.00,0.0114
2302.00,0.0113
2301.00,0.0113
2300.00,0.0113
2299.00,0.0113
2298.00,0.0112
2297.00,0.0112
2296.00,0.0112
2295.00,0.0112
2294.00,0.0112
2293.00,0.0112
2292.00,0.0113
2291.00,0.0112
2290.00,0.0112
2289.00,0.0112
2288.00,0.0112
2287.00,0.0111
2286.00,0.0111
2285.00,0.0110
2284.00,0.0109
2283.00,0.0108
2282.00,0.0107
2281.00,0.0106
2280.00,0.0105
2279.00,0.0104
2278.00,0.0103
2277.00,0.0103
2276.00,0.0102
2275.00,0.0101
2274.00,0.0100
2273.00,0.0099
2272.00,0.0098
2271.00,0.0097
2270.00,0.0097
2269.00,0.0096
2268.00,0.0095
2267.00,0.0094
2266.00,0.0093
2265.00,0.0092
2264.00,0.0091
2263.00,0.0091
2262.00,0.0091
2261.00,0.0092
2260.00,0.0093
2259.00,0.0092
2258.00,0.0091
2257.00,0.0090
2256.00,0.0088
2255.00,0.0087
2254.00,0.0087
2253.00,0.0087
2252.00,0.0087
2251.00,0.0086
2250.00,0.0085
2249.00,0.0084
2248.00,0.0084
2247.00,0.0084
2246.00,0.0084
2245.00,0.0084
2244.00,0.0084
2243.00,0.0084
2242.00,0.0084
2241.00,0.0084
2240.00,0.0084
2239.00,0.0084
2238.00,0.0083
2237.00,0.0082
2236.00,0.0082
2235.00,0.0082
2234.00,0.0082
2233.00,0.0082
2232.00,0.0082
2231.00,0.0082
2230.00,0.0081
2229.00,0.0081
2228.00,0.0080
2227.00,0.0078
2226.00,0.0076
2225.00,0.0075
2224.00,0.0075
2223.00,0.0075
2222.00,0.0075
2221.00,0.0076
2220.00,0.0077
2219.00,0.0076
2218.00,0.0075
2217.00,0.0074
2216.00,0.0073
2215.00,0.0073
2214.00,0.0072
2213.00,0.0072
2212.00,0.0073
2211.00,0.0072
2210.00,0.0071
2209.00,0.0070
2208.00,0.0070
2207.00,0.0070
2206.00,0.0070
2205.00,0.0071
2204.00,0.0071
2203.00,0.0070
2202.00,0.0070
2201.00,0.0069
2200.00,0.0067
2199.00,0.0066
2198.00,0.0065
2197.00,0.0066
2196.00,0.0066
2195.00,0.0066
2194.00,0.0065
2193.00,0.0065
2192.00,0.0065
2191.00,0.0066
2190.00,0.0066
2189.00,0.0067
2188.00,0.0068
2187.00,0.0069
2186.00,0.0068
2185.00,0.0068
2184.00,0.0067
2183.00,0.0064
2182.00,0.0062
2181.00,0.0061
2180.00,0.0062
2179.00,0.0062
2178.00,0.0060
2177.00,0.0058
2176.00,0.0056
2175.00,0.0056
2174.00,0.0057
2173.00,0.0059
2172.00,0.0061
2171.00,0.0063
2170.00,0.0064
2169.00,0.0066
2168.00,0.0067
2167.00,0.0067
2166.00,0.0067
2165.00,0.0068
2164.00,0.0071
2163.00,0.0072
2162.00,0.0066
2161.00,0.0054
2160.00,0.0039
2159.00,0.0026
2158.00,0.0021
2157.00,0.0021
2156.00,0.0024
2155.00,0.0026
2154.00,0.0027
2153.00,0.0029
2152.00,0.0031
2151.00,0.0032
2150.00,0.0032
2149.00,0.0032
2148.00,0.0032
2147.00,0.0031
2146.00,0.0030
2145.00,0.0030
2144.00,0.0032
2143.00,0.0032
2142.00,0.0033
2141.00,0.0032
2140.00,0.0032
2139.00,0.0031
2138.00,0.0030
2137.00,0.0030
2136.00,0.0028
2135.00,0.0027
2134.00,0.0026
2133.00,0.0026
2132.00,0.0028
2131.00,0.0029
2130.00,0.0031
2129.00,0.0033
2128.00,0.0034
2127.00,0.0035
2126.00,0.0036
2125.00,0.0037
2124.00,0.0038
2123.00,0.0038
2122.00,0.0038
2121.00,0.0038
2120.00,0.0038
2119.00,0.0039
2118.00,0.0040
2117.00,0.0042
2116.00,0.0044
2115.00,0.0044
2114.00,0.0043
2113.00,0.0042
2112.00,0.0041
2111.00,0.0040
2110.00,0.0038
2109.00,0.0038
2108.00,0.0037
2107.00,0.0037
2106.00,0.0037
2105.00,0.0037
2104.00,0.0037
2103.00,0.0037
2102.00,0.0037
2101.00,0.0037
2100.00,0.0038
2099.00,0.0037
2098.00,0.0035
2097.00,0.0034
2096.00,0.0033
2095.00,0.0032
2094.00,0.0032
2093.00,0.0033
2092.00,0.0035
2091.00,0.0035
2090.00,0.0036
2089.00,0.0037
2088.00,0.0038
2087.00,0.0039
2086.00,0.0039
2085.00,0.0039
2084.00,0.0039
2083.00,0.0039
2082.00,0.0038
2081.00,0.0038
2080.00,0.0038
2079.00,0.0038
2078.00,0.0037
2077.00,0.0037
2076.00,0.0036
2075.00,0.0035
2074.00,0.0033
2073.00,0.0032
2072.00,0.0032
2071.00,0.0031
2070.00,0.0030
2069.00,0.0029
2068.00,0.0029
2067.00,0.0027
2066.00,0.0025
2065.00,0.0025
2064.00,0.0025
2063.00,0.0025
2062.00,0.0025
2061.00,0.0025
2060.00,0.0025
2059.00,0.0025
2058.00,0.0025
2057.00,0.0025
2056.00,0.0024
2055.00,0.0024
2054.00,0.0026
2053.00,0.0031
2052.00,0.0035
2051.00,0.0036
2050.00,0.0034
2049.00,0.0030
2048.00,0.0029
2047.00,0.0028
2046.00,0.0028
2045.00,0.0028
2044.00,0.0028
2043.00,0.0027
2042.00,0.0026
2041.00,0.0026
2040.00,0.0026
2039.00,0.0026
2038.00,0.0025
2037.00,0.0025
2036.00,0.0025
2035.00,0.0024
2034.00,0.0022
2033.00,0.0022
2032.00,0.0022
2031.00,0.0022
2030.00,0.0020
2029.00,0.0019
2028.00,0.0019
2027.00,0.0019
2026.00,0.0019
2025.00,0.0020
2024.00,0.0022
2023.00,0.0022
2022.00,0.0021
2021.00,0.0020
2020.00,0.0021
2019.00,0.0021
2018.00,0.0022
2017.00,0.0023
2016.00,0.0024
2015.00,0.0023
2014.00,0.0022
2013.00,0.0021
2012.00,0.0022
2011.00,0.0022
2010.00,0.0021
2009.00,0.0020
2008.00,0.0019
2007.00,0.0016
2006.00,0.0014
2005.00,0.0014
2004.00,0.0017
2003.00,0.0019
2002.00,0.0021
2001.00,0.0023
2000.00,0.0025
1999.00,0.0026
1998.00,0.0027
1997.00,0.0029
1996.00,0.0031
1995.00,0.0031
1994.00,0.0030
1993.00,0.0030
1992.00,0.0032
1991.00,0.0033
1990.00,0.0033
1989.00,0.0035
1988.00,0.0036
1987.00,0.0037
1986.00,0.0038
1985.00,0.0040
1984.00,0.0044
1983.00,0.0046
1982.00,0.0047
1981.00,0.0047
1980.00,0.0044
1979.00,0.0037
1978.00,0.0028
1977.00,0.0022
1976.00,0.0020
1975.00,0.0019
1974.00,0.0018
1973.00,0.0018
1972.00,0.0019
1971.00,0.0020
1970.00,0.0020
1969.00,0.0020
1968.00,0.0020
1967.00,0.0019
1966.00,0.0019
1965.00,0.0019
1964.00,0.0020
1963.00,0.0019
1962.00,0.0018
1961.00,0.0017
1960.00,0.0018
1959.00,0.0018
1958.00,0.0019
1957.00,0.0021
1956.00,0.0024
1955.00,0.0025
1954.00,0.0025
1953.00,0.0026
1952.00,0.0026
1951.00,0.0027
1950.00,0.0026
1949.00,0.0026
1948.00,0.0026
1947.00,0.0026
1946.00,0.0026
1945.00,0.0026
1944.00,0.0027
1943.00,0.0027
1942.00,0.0026
1941.00,0.0027
1940.00,0.0027
1939.00,0.0027
1938.00,0.0027
1937.00,0.0028
1936.00,0.0028
1935.00,0.0028
1934.00,0.0027
1933.00,0.0027
1932.00,0.0028
1931.00,0.0028
1930.00,0.0028
1929.00,0.0029
1928.00,0.0029
1927.00,0.0029
1926.00,0.0029
1925.00,0.0029
1924.00,0.0029
1923.00,0.0030
1922.00,0.0030
1921.00,0.0031
1920.00,0.0031
1919.00,0.0031
1918.00,0.0031
1917.00,0.0031
1916.00,0.0032
1915.00,0.0032
1914.00,0.0032
1913.00,0.0031
1912.00,0.0031
1911.00,0.0031
1910.00,0.0031
1909.00,0.0031
1908.00,0.0032
1907.00,0.0032
1906.00,0.0032
1905.00,0.0031
1904.00,0.0031
1903.00,0.0031
1902.00,0.0031
1901.00,0.0031
1900.00,0.0032
1899.00,0.0032
1898.00,0.0032
1897.00,0.0033
1896.00,0.0033
1895.00,0.0033
1894.00,0.0032
1893.00,0.0032
1892.00,0.0032
1891.00,0.0032
1890.00,0.0032
1889.00,0.0032
1888.00,0.0032
1887.00,0.0032
1886.00,0.0033
1885.00,0.0033
1884.00,0.0034
1883.00,0.0034
1882.00,0.0033
1881.00,0.0034
1880.00,0.0034
1879.00,0.0034
1878.00,0.0034
1877.00,0.0034
1876.00,0.0034
1875.00,0.0034
1874.00,0.0034
1873.00,0.0035
1872.00,0.0035
1871.00,0.0035
1870.00,0.0035
1869.00,0.0035
1868.00,0.0035
1867.00,0.0035
1866.00,0.0035
1865.00,0.0035
1864.00,0.0035
1863.00,0.0036
1862.00,0.0036
1861.00,0.0036
1860.00,0.0036
1859.00,0.0036
1858.00,0.0036
1857.00,0.0036
1856.00,0.0036
1855.00,0.0036
1854.00,0.0036
1853.00,0.0036
1852.00,0.0036
1851.00,0.0036
1850.00,0.0036
1849.00,0.0036
1848.00,0.0037
1847.00,0.0037
1846.00,0.0037
1845.00,0.0037
1844.00,0.0037
1843.00,0.0038
1842.00,0.0038
1841.00,0.0038
1840.00,0.0039
1839.00,0.0039
1838.00,0.0039
1837.00,0.0039
1836.00,0.0039
1835.00,0.0039
1834.00,0.0039
1833.00,0.0039
1832.00,0.0039
1831.00,0.0039
1830.00,0.0039
1829.00,0.0039
1828.00,0.0039
1827.00,0.0040
1826.00,0.0039
1825.00,0.0040
1824.00,0.0041
1823.00,0.0041
1822.00,0.0041
1821.00,0.0041
1820.00,0.0040
1819.00,0.0040
1818.00,0.0039
1817.00,0.0039
1816.00,0.0039
1815.00,0.0040
1814.00,0.0041
1813.00,0.0042
1812.00,0.0042
1811.00,0.0043
1810.00,0.0043
1809.00,0.0043
1808.00,0.0044
1807.00,0.0045
1806.00,0.0045
1805.00,0.0045
1804.00,0.0046
1803.00,0.0047
1802.00,0.0048
1801.00,0.0048
1800.00,0.0049
1799.00,0.0050
1798.00,0.0051
1797.00,0.0052
1796.00,0.0053
1795.00,0.0054
1794.00,0.0055
1793.00,0.0056
1792.00,0.0058
1791.00,0.0061
1790.00,0.0063
1789.00,0.0065
1788.00,0.0067
1787.00,0.0068
1786.00,0.0069
1785.00,0.0069
1784.00,0.0069
1783.00,0.0068
1782.00,0.0067
1781.00,0.0066
1780.00,0.0066
1779.00,0.0065
1778.00,0.0065
1777.00,0.0065
1776.00,0.0065
1775.00,0.0065
1774.00,0.0065
1773.00,0.0064
1772.00,0.0064
1771.00,0.0063
1770.00,0.0062
1769.00,0.0062
1768.00,0.0062
1767.00,0.0062
1766.00,0.0062
1765.00,0.0062
1764.00,0.0062
1763.00,0.0061
1762.00,0.0061
1761.00,0.0061
1760.00,0.0062
1759.00,0.0062
1758.00,0.0061
1757.00,0.0061
1756.00,0.0062
1755.00,0.0062
1754.00,0.0062
1753.00,0.0061
1752.00,0.0062
1751.00,0.0061
1750.00,0.0061
1749.00,0.0061
1748.00,0.0062
1747.00,0.0062
1746.00,0.0062
1745.00,0.0063
1744.00,0.0064
1743.00,0.0064
1742.00,0.0064
1741.00,0.0064
1740.00,0.0065
1739.00,0.0065
1738.00,0.0065
1737.00,0.0066
1736.00,0.0067
1735.00,0.0068
1734.00,0.0068
1733.00,0.0070
1732.00,0.0071
1731.00,0.0072
1730.00,0.0072
1729.00,0.0073
1728.00,0.0075
1727.00,0.0076
1726.00,0.0077
1725.00,0.0077
1724.00,0.0078
1723.00,0.0079
1722.00,0.0080
1721.00,0.0080
1720.00,0.0081
1719.00,0.0082
1718.00,0.0082
1717.00,0.0084
1716.00,0.0086
1715.00,0.0087
1714.00,0.0088
1713.00,0.0089
1712.00,0.0091
1711.00,0.0092
1710.00,0.0093
1709.00,0.0094
1708.00,0.0095
1707.00,0.0096
1706.00,0.0097
1705.00,0.0098
1704.00,0.0100
1703.00,0.0101
1702.00,0.0102
1701.00,0.0103
1700.00,0.0106
1699.00,0.0108
1698.00,0.0109
1697.00,0.0110
1696.00,0.0113
1695.00,0.0116
1694.00,0.0118
1693.00,0.0119
1692.00,0.0121
1691.00,0.0123
1690.00,0.0125
1689.00,0.0128
1688.00,0.0131
1687.00,0.0133
1686.00,0.0136
1685.00,0.0140
1684.00,0.0146
1683.00,0.0151
1682.00,0.0155
1681.00,0.0159
1680.00,0.0164
1679.00,0.0169
1678.00,0.0173
1677.00,0.0179
1676.00,0.0187
1675.00,0.0196
1674.00,0.0204
1673.00,0.0213
1672.00,0.0222
1671.00,0.0234
1670.00,0.0248
1669.00,0.0265
1668.00,0.0282
1667.00,0.0298
1666.00,0.0312
1665.00,0.0327
1664.00,0.0345
1663.00,0.0366
1662.00,0.0388
1661.00,0.0410
1660.00,0.0432
1659.00,0.0454
1658.00,0.0475
1657.00,0.0495
1656.00,0.0516
1655.00,0.0540
1654.00,0.0579
1653.00,0.0636
1652.00,0.0693
1651.00,0.0731
1650.00,0.0760
1649.00,0.0796
1648.00,0.0855
1647.00,0.0941
1646.00,0.1041
1645.00,0.1138
1644.00,0.1225
1643.00,0.1302
1642.00,0.1372
1641.00,0.1435
1640.00,0.1491
1639.00,0.1539
1638.00,0.1586
1637.00,0.1649
1636.00,0.1739
1635.00,0.1839
1634.00,0.1918
1633.00,0.1970
1632.00,0.2004
1631.00,0.2023
1630.00,0.2025
1629.00,0.2005
1628.00,0.1964
1627.00,0.1904
1626.00,0.1832
1625.00,0.1750
1624.00,0.1658
1623.00,0.1561
1622.00,0.1471
1621.00,0.1393
1620.00,0.1325
1619.00,0.1260
1618.00,0.1195
1617.00,0.1131
1616.00,0.1072
1615.00,0.1022
1614.00,0.0981
1613.00,0.0945
1612.00,0.0910
1611.00,0.0877
1610.00,0.0848
1609.00,0.0824
1608.00,0.0802
1607.00,0.0783
1606.00,0.0768
1605.00,0.0757
1604.00,0.0749
1603.00,0.0745
1602.00,0.0745
1601.00,0.0751
1600.00,0.0761
1599.00,0.0776
1598.00,0.0797
1597.00,0.0827
1596.00,0.0868
1595.00,0.0921
1594.00,0.0989
1593.00,0.1073
1592.00,0.1175
1591.00,0.1291
1590.00,0.1419
1589.00,0.1553
1588.00,0.1686
1587.00,0.1809
1586.00,0.1916
1585.00,0.2004
1584.00,0.2074
1583.00,0.2122
1582.00,0.2149
1581.00,0.2160
1580.00,0.2158
1579.00,0.2145
1578.00,0.2123
1577.00,0.2095
1576.00,0.2066
1575.00,0.2032
1574.00,0.1993
1573.00,0.1949
1572.00,0.1903
1571.00,0.1851
1570.00,0.1792
1569.00,0.1732
1568.00,0.1675
1567.00,0.1622
1566.00,0.1565
1565.00,0.1508
1564.00,0.1453
1563.00,0.1403
1562.00,0.1356
1561.00,0.1309
1560.00,0.1255
1559.00,0.1194
1558.00,0.1139
1557.00,0.1096
1556.00,0.1058
1555.00,0.1020
1554.00,0.0981
1553.00,0.0945
1552.00,0.0912
1551.00,0.0881
1550.00,0.0850
1549.00,0.0822
1548.00,0.0796
1547.00,0.0773
1546.00,0.0750
1545.00,0.0728
1544.00,0.0709
1543.00,0.0691
1542.00,0.0675
1541.00,0.0660
1540.00,0.0648
1539.00,0.0638
1538.00,0.0629
1537.00,0.0621
1536.00,0.0614
1535.00,0.0608
1534.00,0.0607
1533.00,0.0609
1532.00,0.0615
1531.00,0.0621
1530.00,0.0629
1529.00,0.0641
1528.00,0.0657
1527.00,0.0676
1526.00,0.0694
1525.00,0.0708
1524.00,0.0717
1523.00,0.0721
1522.00,0.0721
1521.00,0.0716
1520.00,0.0706
1519.00,0.0690
1518.00,0.0668
1517.00,0.0642
1516.00,0.0617
1515.00,0.0594
1514.00,0.0573
1513.00,0.0554
1512.00,0.0535
1511.00,0.0517
1510.00,0.0500
1509.00,0.0485
1508.00,0.0470
1507.00,0.0454
1506.00,0.0440
1505.00,0.0429
1504.00,0.0420
1503.00,0.0410
1502.00,0.0401
1501.00,0.0392
1500.00,0.0384
1499.00,0.0376
1498.00,0.0369
1497.00,0.0363
1496.00,0.0359
1495.00,0.0354
1494.00,0.0350
1493.00,0.0346
1492.00,0.0343
1491.00,0.0340
1490.00,0.0337
1489.00,0.0336
1488.00,0.0337
1487.00,0.0338
1486.00,0.0339
1485.00,0.0342
1484.00,0.0347
1483.00,0.0353
1482.00,0.0361
1481.00,0.0371
1480.00,0.0383
1479.00,0.0397
1478.00,0.0411
1477.00,0.0427
1476.00,0.0446
1475.00,0.0465
1474.00,0.0489
1473.00,0.0528
1472.00,0.0582
1471.00,0.0642
1470.00,0.0696
1469.00,0.0742
1468.00,0.0774
1467.00,0.0790
1466.00,0.0794
1465.00,0.0796
1464.00,0.0809
1463.00,0.0832
1462.00,0.0865
1461.00,0.0906
1460.00,0.0955
1459.00,0.1017
1458.00,0.1103
1457.00,0.1216
1456.00,0.1331
1455.00,0.1425
1454.00,0.1511
1453.00,0.1609
1452.00,0.1725
1451.00,0.1850
1450.00,0.1978
1449.00,0.2108
1448.00,0.2232
1447.00,0.2338
1446.00,0.2421
1445.00,0.2488
1444.00,0.2540
1443.00,0.2570
1442.00,0.2574
1441.00,0.2553
1440.00,0.2507
1439.00,0.2441
1438.00,0.2361
1437.00,0.2275
1436.00,0.2190
1435.00,0.2112
1434.00,0.2040
1433.00,0.1967
1432.00,0.1888
1431.00,0.1800
1430.00,0.1707
1429.00,0.1614
1428.00,0.1525
1427.00,0.1441
1426.00,0.1363
1425.00,0.1289
1424.00,0.1219
1423.00,0.1160
1422.00,0.1112
1421.00,0.1071
1420.00,0.1036
1419.00,0.1007
1418.00,0.0985
1417.00,0.0969
1416.00,0.0956
1415.00,0.0947
1414.00,0.0940
1413.00,0.0935
1412.00,0.0932
1411.00,0.0931
1410.00,0.0933
1409.00,0.0934
1408.00,0.0937
1407.00,0.0942
1406.00,0.0949
1405.00,0.0957
1404.00,0.0965
1403.00,0.0972
1402.00,0.0978
1401.00,0.0982
1400.00,0.0985
1399.00,0.0987
1398.00,0.0988
1397.00,0.0985
1396.00,0.0980
1395.00,0.0973
1394.00,0.0966
1393.00,0.0957
1392.00,0.0947
1391.00,0.0937
1390.00,0.0927
1389.00,0.0918
1388.00,0.0912
1387.00,0.0911
1386.00,0.0916
1385.00,0.0928
1384.00,0.0952
1383.00,0.0991
1382.00,0.1049
1381.00,0.1122
1380.00,0.1200
1379.00,0.1272
1378.00,0.1325
1377.00,0.1350
1376.00,0.1344
1375.00,0.1309
1374.00,0.1254
1373.00,0.1195
1372.00,0.1148
1371.00,0.1118
1370.00,0.1105
1369.00,0.1105
1368.00,0.1109
1367.00,0.1110
1366.00,0.1102
1365.00,0.1084
1364.00,0.1062
1363.00,0.1040
1362.00,0.1024
1361.00,0.1014
1360.00,0.1010
1359.00,0.1014
1358.00,0.1025
1357.00,0.1044
1356.00,0.1073
1355.00,0.1109
1354.00,0.1149
1353.00,0.1190
1352.00,0.1227
1351.00,0.1258
1350.00,0.1281
1349.00,0.1293
1348.00,0.1291
1347.00,0.1275
1346.00,0.1248
1345.00,0.1217
1344.00,0.1189
1343.00,0.1166
1342.00,0.1153
1341.00,0.1150
1340.00,0.1158
1339.00,0.1175
1338.00,0.1197
1337.00,0.1218
1336.00,0.1233
1335.00,0.1235
1334.00,0.1223
1333.00,0.1199
1332.00,0.1169
1331.00,0.1140
1330.00,0.1120
1329.00,0.1113
1328.00,0.1121
1327.00,0.1144
1326.00,0.1181
1325.00,0.1232
1324.00,0.1295
1323.00,0.1367
1322.00,0.1446
1321.00,0.1524
1320.00,0.1591
1319.00,0.1637
1318.00,0.1652
1317.00,0.1634
1316.00,0.1588
1315.00,0.1525
1314.00,0.1454
1313.00,0.1384
1312.00,0.1322
1311.00,0.1271
1310.00,0.1236
1309.00,0.1217
1308.00,0.1213
1307.00,0.1221
1306.00,0.1231
1305.00,0.1234
1304.00,0.1224
1303.00,0.1200
1302.00,0.1168
1301.00,0.1136
1300.00,0.1109
1299.00,0.1091
1298.00,0.1082
1297.00,0.1078
1296.00,0.1077
1295.00,0.1077
1294.00,0.1079
1293.00,0.1086
1292.00,0.1100
1291.00,0.1124
1290.00,0.1156
1289.00,0.1192
1288.00,0.1229
1287.00,0.1265
1286.00,0.1301
1285.00,0.1339
1284.00,0.1381
1283.00,0.1426
1282.00,0.1471
1281.00,0.1507
1280.00,0.1526
1279.00,0.1519
1278.00,0.1485
1277.00,0.1427
1276.00,0.1353
1275.00,0.1272
1274.00,0.1190
1273.00,0.1114
1272.00,0.1046
1271.00,0.0985
1270.00,0.0931
1269.00,0.0882
1268.00,0.0838
1267.00,0.0797
1266.00,0.0761
1265.00,0.0729
1264.00,0.0702
1263.00,0.0681
1262.00,0.0664
1261.00,0.0654
1260.00,0.0649
1259.00,0.0652
1258.00,0.0664
1257.00,0.0687
1256.00,0.0720
1255.00,0.0763
1254.00,0.0813
1253.00,0.0863
1252.00,0.0908
1251.00,0.0947
1250.00,0.0987
1249.00,0.1035
1248.00,0.1101
1247.00,0.1184
1246.00,0.1278
1245.00,0.1368
1244.00,0.1438
1243.00,0.1475
1242.00,0.1477
1241.00,0.1449
1240.00,0.1400
1239.00,0.1341
1238.00,0.1279
1237.00,0.1219
1236.00,0.1163
1235.00,0.1115
1234.00,0.1077
1233.00,0.1054
1232.00,0.1047
1231.00,0.1056
1230.00,0.1075
1229.00,0.1097
1228.00,0.1112
1227.00,0.1117
1226.00,0.1111
1225.00,0.1098
1224.00,0.1085
1223.00,0.1077
1222.00,0.1076
1221.00,0.1084
1220.00,0.1097
1219.00,0.1107
1218.00,0.1109
1217.00,0.1099
1216.00,0.1079
1215.00,0.1055
1214.00,0.1032
1213.00,0.1016
1212.00,0.1014
1211.00,0.1032
1210.00,0.1074
1209.00,0.1144
1208.00,0.1237
1207.00,0.1339
1206.00,0.1426
1205.00,0.1476
1204.00,0.1475
1203.00,0.1425
1202.00,0.1339
1201.00,0.1234
1200.00,0.1126
1199.00,0.1025
1198.00,0.0937
1197.00,0.0864
1196.00,0.0806
1195.00,0.0761
1194.00,0.0730
1193.00,0.0710
1192.00,0.0700
1191.00,0.0695
1190.00,0.0692
1189.00,0.0688
1188.00,0.0682
1187.00,0.0675
1186.00,0.0670
1185.00,0.0667
1184.00,0.0666
1183.00,0.0671
1182.00,0.0684
1181.00,0.0708
1180.00,0.0746
1179.00,0.0799
1178.00,0.0866
1177.00,0.0940
1176.00,0.1017
1175.00,0.1094
1174.00,0.1171
1173.00,0.1241
1172.00,0.1291
1171.00,0.1309
1170.00,0.1285
1169.00,0.1224
1168.00,0.1139
1167.00,0.1047
1166.00,0.0958
1165.00,0.0880
1164.00,0.0814
1163.00,0.0760
1162.00,0.0718
1161.00,0.0686
1160.00,0.0663
1159.00,0.0647
1158.00,0.0639
1157.00,0.0639
1156.00,0.0648
1155.00,0.0670
1154.00,0.0710
1153.00,0.0775
1152.00,0.0868
1151.00,0.0985
1150.00,0.1102
1149.00,0.1181
1148.00,0.1188
1147.00,0.1112
1146.00,0.0980
1145.00,0.0830
1144.00,0.0696
1143.00,0.0593
1142.00,0.0521
1141.00,0.0475
1140.00,0.0447
1139.00,0.0432
1138.00,0.0426
1137.00,0.0423
1136.00,0.0419
1135.00,0.0414
1134.00,0.0405
1133.00,0.0392
1132.00,0.0376
1131.00,0.0360
1130.00,0.0344
1129.00,0.0329
1128.00,0.0316
1127.00,0.0304
1126.00,0.0294
1125.00,0.0286
1124.00,0.0279
1123.00,0.0273
1122.00,0.0269
1121.00,0.0266
1120.00,0.0263
1119.00,0.0262
1118.00,0.0263
1117.00,0.0265
1116.00,0.0268
1115.00,0.0273
1114.00,0.0280
1113.00,0.0287
1112.00,0.0296
1111.00,0.0306
1110.00,0.0317
1109.00,0.0329
1108.00,0.0341
1107.00,0.0354
1106.00,0.0369
1105.00,0.0385
1104.00,0.0404
1103.00,0.0427
1102.00,0.0453
1101.00,0.0476
1100.00,0.0493
1099.00,0.0499
1098.00,0.0493
1097.00,0.0480
1096.00,0.0463
1095.00,0.0447
1094.00,0.0432
1093.00,0.0418
1092.00,0.0405
1091.00,0.0394
1090.00,0.0385
1089.00,0.0378
1088.00,0.0375
1087.00,0.0377
1086.00,0.0383
1085.00,0.0390
1084.00,0.0396
1083.00,0.0401
1082.00,0.0403
1081.00,0.0403
1080.00,0.0400
1079.00,0.0393
1078.00,0.0384
1077.00,0.0373
1076.00,0.0362
1075.00,0.0352
1074.00,0.0345
1073.00,0.0338
1072.00,0.0334
1071.00,0.0331
1070.00,0.0331
1069.00,0.0334
1068.00,0.0339
1067.00,0.0348
1066.00,0.0361
1065.00,0.0378
1064.00,0.0401
1063.00,0.0432
1062.00,0.0471
1061.00,0.0521
1060.00,0.0583
1059.00,0.0662
1058.00,0.0761
1057.00,0.0883
1056.00,0.1025
1055.00,0.1170
1054.00,0.1289
1053.00,0.1351
1052.00,0.1340
1051.00,0.1265
1050.00,0.1151
1049.00,0.1029
1048.00,0.0922
1047.00,0.0839
1046.00,0.0786
1045.00,0.0760
1044.00,0.0756
1043.00,0.0769
1042.00,0.0799
1041.00,0.0844
1040.00,0.0906
1039.00,0.0988
1038.00,0.1092
1037.00,0.1217
1036.00,0.1354
1035.00,0.1489
1034.00,0.1609
1033.00,0.1704
1032.00,0.1769
1031.00,0.1804
1030.00,0.1810
1029.00,0.1790
1028.00,0.1746
1027.00,0.1681
1026.00,0.1599
1025.00,0.1508
1024.00,0.1414
1023.00,0.1326
1022.00,0.1250
1021.00,0.1187
1020.00,0.1135
1019.00,0.1088
1018.00,0.1042
1017.00,0.0992
1016.00,0.0941
1015.00,0.0891
1014.00,0.0845
1013.00,0.0805
1012.00,0.0772
1011.00,0.0745
1010.00,0.0723
1009.00,0.0704
1008.00,0.0684
1007.00,0.0662
1006.00,0.0638
1005.00,0.0617
1004.00,0.0605
1003.00,0.0607
1002.00,0.0624
1001.00,0.0655
1000.00,0.0688
999.00,0.0710
998.00,0.0708
997.00,0.0681
996.00,0.0639
995.00,0.0595
994.00,0.0559
993.00,0.0534
992.00,0.0521
991.00,0.0516
990.00,0.0518
989.00,0.0524
988.00,0.0532
987.00,0.0539
986.00,0.0542
985.00,0.0539
984.00,0.0529
983.00,0.0511
982.00,0.0489
981.00,0.0467
980.00,0.0447
979.00,0.0430
978.00,0.0417
977.00,0.0407
976.00,0.0400
975.00,0.0396
974.00,0.0395
973.00,0.0397
972.00,0.0401
971.00,0.0408
970.00,0.0415
969.00,0.0423
968.00,0.0432
967.00,0.0444
966.00,0.0461
965.00,0.0485
964.00,0.0516
963.00,0.0550
962.00,0.0583
961.00,0.0608
960.00,0.0619
959.00,0.0617
958.00,0.0603
957.00,0.0580
956.00,0.0552
955.00,0.0524
954.00,0.0498
953.00,0.0477
952.00,0.0460
951.00,0.0448
950.00,0.0440
949.00,0.0434
948.00,0.0430
947.00,0.0427
946.00,0.0425
945.00,0.0424
944.00,0.0422
943.00,0.0420
942.00,0.0416
941.00,0.0409
940.00,0.0400
939.00,0.0390
938.00,0.0381
937.00,0.0373
936.00,0.0369
935.00,0.0368
934.00,0.0372
933.00,0.0379
932.00,0.0389
931.00,0.0403
930.00,0.0418
929.00,0.0434
928.00,0.0448
927.00,0.0460
926.00,0.0469
925.00,0.0476
924.00,0.0482
923.00,0.0489
922.00,0.0502
921.00,0.0519
920.00,0.0542
919.00,0.0567
918.00,0.0594
917.00,0.0622
916.00,0.0651
915.00,0.0677
914.00,0.0693
913.00,0.0693
912.00,0.0677
911.00,0.0652
910.00,0.0628
909.00,0.0614
908.00,0.0614
907.00,0.0632
906.00,0.0666
905.00,0.0715
904.00,0.0772
903.00,0.0825
902.00,0.0863
901.00,0.0880
900.00,0.0878
899.00,0.0867
898.00,0.0859
897.00,0.0869
896.00,0.0910
895.00,0.0996
894.00,0.1134
893.00,0.1321
892.00,0.1530
891.00,0.1717
890.00,0.1832
889.00,0.1857
888.00,0.1812
887.00,0.1741
886.00,0.1673
885.00,0.1608
884.00,0.1530
883.00,0.1429
882.00,0.1310
881.00,0.1192
880.00,0.1090
879.00,0.1010
878.00,0.0949
877.00,0.0903
876.00,0.0868
875.00,0.0842
874.00,0.0825
873.00,0.0816
872.00,0.0815
871.00,0.0823
870.00,0.0838
869.00,0.0862
868.00,0.0896
867.00,0.0944
866.00,0.1009
865.00,0.1094
864.00,0.1192
863.00,0.1290
862.00,0.1371
861.00,0.1419
860.00,0.1434
859.00,0.1426
858.00,0.1413
857.00,0.1399
856.00,0.1385
855.00,0.1362
854.00,0.1329
853.00,0.1289
852.00,0.1249
851.00,0.1217
850.00,0.1195
849.00,0.1183
848.00,0.1181
847.00,0.1185
846.00,0.1192
845.00,0.1199
844.00,0.1202
843.00,0.1203
842.00,0.1202
841.00,0.1207
840.00,0.1219
839.00,0.1238
838.00,0.1254
837.00,0.1255
836.00,0.1238
835.00,0.1204
834.00,0.1165
833.00,0.1130
832.00,0.1106
831.00,0.1094
830.00,0.1090
829.00,0.1086
828.00,0.1070
827.00,0.1038
826.00,0.0991
825.00,0.0934
824.00,0.0876
823.00,0.0825
822.00,0.0780
821.00,0.0743
820.00,0.0711
819.00,0.0683
818.00,0.0658
817.00,0.0639
816.00,0.0624
815.00,0.0616
814.00,0.0614
813.00,0.0616
812.00,0.0621
811.00,0.0629
810.00,0.0641
809.00,0.0662
808.00,0.0699
807.00,0.0757
806.00,0.0833
805.00,0.0912
804.00,0.0971
803.00,0.0993
802.00,0.0979
801.00,0.0946
800.00,0.0917
799.00,0.0905
798.00,0.0916
797.00,0.0943
796.00,0.0976
795.00,0.1002
794.00,0.1008
793.00,0.0988
792.00,0.0946
791.00,0.0892
790.00,0.0836
789.00,0.0787
788.00,0.0749
787.00,0.0721
786.00,0.0702
785.00,0.0685
784.00,0.0670
783.00,0.0656
782.00,0.0643
781.00,0.0632
780.00,0.0624
779.00,0.0621
778.00,0.0623
777.00,0.0628
776.00,0.0636
775.00,0.0647
774.00,0.0660
773.00,0.0672
772.00,0.0681
771.00,0.0686
770.00,0.0685
769.00,0.0679
768.00,0.0668
767.00,0.0655
766.00,0.0640
765.00,0.0625
764.00,0.0610
763.00,0.0597
762.00,0.0586
761.00,0.0578
760.00,0.0572
759.00,0.0570
758.00,0.0571
757.00,0.0576
756.00,0.0582
755.00,0.0589
754.00,0.0594
753.00,0.0593
752.00,0.0585
751.00,0.0573
750.00,0.0559
749.00,0.0545
748.00,0.0533
747.00,0.0522
746.00,0.0512
745.00,0.0505
744.00,0.0501
743.00,0.0502
742.00,0.0508
741.00,0.0520
740.00,0.0539
739.00,0.0564
738.00,0.0597
737.00,0.0634
736.00,0.0675
735.00,0.0714
734.00,0.0744
733.00,0.0757
732.00,0.0748
731.00,0.0722
730.00,0.0687
729.00,0.0650
728.00,0.0619
727.00,0.0594
726.00,0.0576
725.00,0.0562
724.00,0.0551
723.00,0.0541
722.00,0.0532
721.00,0.0524
720.00,0.0518
719.00,0.0514
718.00,0.0511
717.00,0.0510
716.00,0.0510
715.00,0.0511
714.00,0.0513
713.00,0.0516
712.00,0.0517
711.00,0.0517
710.00,0.0515
709.00,0.0512
708.00,0.0510
707.00,0.0509
706.00,0.0509
705.00,0.0509
704.00,0.0510
703.00,0.0511
702.00,0.0513
701.00,0.0515
700.00,0.0518
699.00,0.0522
698.00,0.0526
697.00,0.0530
696.00,0.0534
695.00,0.0540
694.00,0.0546
693.00,0.0553
692.00,0.0561
691.00,0.0570
690.00,0.0581
689.00,0.0593
688.00,0.0606
687.00,0.0621
686.00,0.0637
685.00,0.0655
684.00,0.0673
683.00,0.0692
682.00,0.0711
681.00,0.0728
680.00,0.0742
679.00,0.0753
678.00,0.0761
677.00,0.0765
676.00,0.0766
675.00,0.0765
674.00,0.0763
673.00,0.0762
672.00,0.0763
671.00,0.0766
670.00,0.0769
669.00,0.0769
668.00,0.0760
667.00,0.0739
666.00,0.0713
665.00,0.0687
664.00,0.0661
663.00,0.0638
662.00,0.0620
661.00,0.0608
660.00,0.0601
659.00,0.0597
658.00,0.0594
657.00,0.0592
656.00,0.0590
655.00,0.0590
654.00,0.0592
653.00,0.0597
652.00,0.0605
651.00,0.0616
650.00,0.0627
649.00,0.0635
648.00,0.0638
647.00,0.0636
646.00,0.0631
645.00,0.0626
644.00,0.0622
643.00,0.0620
642.00,0.0620
641.00,0.0622
640.00,0.0625
639.00,0.0628
638.00,0.0632
637.00,0.0635
636.00,0.0638
635.00,0.0641
634.00,0.0643
633.00,0.0644
632.00,0.0643
631.00,0.0640
630.00,0.0636
629.00,0.0631
628.00,0.0625
627.00,0.0617
626.00,0.0608
625.00,0.0599
624.00,0.0590
623.00,0.0583
622.00,0.0578
621.00,0.0575
620.00,0.0575
619.00,0.0579
618.00,0.0589
617.00,0.0605
616.00,0.0623
615.00,0.0638
614.00,0.0647
613.00,0.0647
612.00,0.0640
611.00,0.0630
610.00,0.0621
609.00,0.0615
608.00,0.0613
607.00,0.0612
606.00,0.0612
605.00,0.0612
604.00,0.0612
603.00,0.0612
602.00,0.0612
601.00,0.0613
600.00,0.0614
599.00,0.0617
598.00,0.0622
597.00,0.0627
596.00,0.0633
595.00,0.0637
594.00,0.0638
593.00,0.0634
592.00,0.0628
591.00,0.0620
590.00,0.0613
589.00,0.0606
588.00,0.0601
587.00,0.0600
586.00,0.0603
585.00,0.0614
584.00,0.0636
583.00,0.0675
582.00,0.0736
581.00,0.0821
580.00,0.0920
579.00,0.1006
578.00,0.1049
577.00,0.1030
576.00,0.0957
575.00,0.0858
574.00,0.0762
573.00,0.0685
572.00,0.0627
571.00,0.0587
570.00,0.0558
569.00,0.0538
568.00,0.0524
567.00,0.0514
566.00,0.0509
565.00,0.0509
564.00,0.0512
563.00,0.0519
562.00,0.0530
561.00,0.0545
560.00,0.0564
559.00,0.0591
558.00,0.0627
557.00,0.0677
556.00,0.0745
555.00,0.0835
554.00,0.0941
553.00,0.1047
552.00,0.1125
551.00,0.1148
550.00,0.1112
549.00,0.1035
548.00,0.0947
547.00,0.0874
546.00,0.0824
545.00,0.0798
544.00,0.0786
543.00,0.0785
542.00,0.0788
541.00,0.0796
540.00,0.0812
539.00,0.0842
538.00,0.0888
537.00,0.0948
536.00,0.1014
535.00,0.1067
534.00,0.1088
533.00,0.1067
532.00,0.1015
531.00,0.0955
530.00,0.0913
529.00,0.0905
528.00,0.0934
527.00,0.0983
526.00,0.1026
525.00,0.1041
524.00,0.1030
523.00,0.1006
522.00,0.0976
521.00,0.0932
520.00,0.0871
519.00,0.0800
518.00,0.0736
517.00,0.0690
516.00,0.0658
515.00,0.0638
514.00,0.0625
513.00,0.0619
512.00,0.0618
511.00,0.0620
510.00,0.0625
509.00,0.0633
508.00,0.0644
507.00,0.0658
506.00,0.0674
505.00,0.0692
504.00,0.0712
503.00,0.0737
502.00,0.0768
501.00,0.0804
500.00,0.0843
499.00,0.0883
498.00,0.0926
497.00,0.0971
496.00,0.1019
495.00,0.1070
494.00,0.1122
493.00,0.1176
492.00,0.1231
491.00,0.1285
490.00,0.1338
489.00,0.1387
488.00,0.1430
487.00,0.1467
486.00,0.1498
485.00,0.1526
484.00,0.1551
483.00,0.1575
482.00,0.1598
481.00,0.1621
480.00,0.1646
479.00,0.1669
478.00,0.1690
477.00,0.1707
476.00,0.1720
475.00,0.1728
474.00,0.1730
473.00,0.1727
472.00,0.1720
471.00,0.1711
470.00,0.1702
469.00,0.1693
468.00,0.1686
467.00,0.1683
466.00,0.1680
465.00,0.1673
464.00,0.1655
463.00,0.1621
462.00,0.1572
461.00,0.1517
460.00,0.1462
459.00,0.1413
458.00,0.1372
457.00,0.1342
456.00,0.1321
455.00,0.1307
454.00,0.1292
453.00,0.1276
452.00,0.1260
451.00,0.1244
450.00,0.1229
449.00,0.1216
448.00,0.1203
447.00,0.1189
446.00,0.1175
445.00,0.1161
444.00,0.1148
443.00,0.1135
442.00,0.1122
441.00,0.1110
440.00,0.1101
439.00,0.1096
438.00,0.1097
437.00,0.1104
436.00,0.1114
435.00,0.1122
434.00,0.1117
433.00,0.1096
432.00,0.1065
431.00,0.1034
430.00,0.1009
429.00,0.0990
428.00,0.0972
427.00,0.0953
426.00,0.0934
425.00,0.0919
424.00,0.0909
423.00,0.0904
422.00,0.0899
421.00,0.0890
420.00,0.0874
419.00,0.0855
418.00,0.0840
417.00,0.0831
416.00,0.0825
415.00,0.0821
414.00,0.0816
413.00,0.0807
412.00,0.0796
411.00,0.0786
410.00,0.0780
409.00,0.0777
408.00,0.0777
407.00,0.0781
406.00,0.0789
405.00,0.0796
404.00,0.0799
403.00,0.0799
402.00,0.0797
401.00,0.0793
400.00,0.0788
