Created as New Dataset,Sample 579 By YargerLab Date Thursday, June 05 2025
cm-1,A
4000.00,0.0008
3999.00,0.0008
3998.00,0.0008
3997.00,0.0008
3996.00,0.0008
3995.00,0.0008
3994.00,0.0008
3993.00,0.0008
3992.00,0.0008
3991.00,0.0007
3990.00,0.0007
3989.00,0.0007
3988.00,0.0008
3987.00,0.0008
3986.00,0.0008
3985.00,0.0008
3984.00,0.0008
3983.00,0.0008
3982.00,0.0008
3981.00,0.0008
3980.00,0.0008
3979.00,0.0008
3978.00,0.0008
3977.00,0.0008
3976.00,0.0008
3975.00,0.0008
3974.00,0.0008
3973.00,0.0008
3972.00,0.0008
3971.00,0.0008
3970.00,0.0007
3969.00,0.0007
3968.00,0.0007
3967.00,0.0007
3966.00,0.0008
3965.00,0.0008
3964.00,0.0008
3963.00,0.0008
3962.00,0.0008
3961.00,0.0008
3960.00,0.0008
3959.00,0.0008
3958.00,0.0008
3957.00,0.0007
3956.00,0.0007
3955.00,0.0007
3954.00,0.0007
3953.00,0.0007
3952.00,0.0007
3951.00,0.0007
3950.00,0.0007
3949.00,0.0008
3948.00,0.0008
3947.00,0.0008
3946.00,0.0007
3945.00,0.0007
3944.00,0.0007
3943.00,0.0007
3942.00,0.0007
3941.00,0.0007
3940.00,0.0007
3939.00,0.0007
3938.00,0.0007
3937.00,0.0007
3936.00,0.0007
3935.00,0.0007
3934.00,0.0007
3933.00,0.0007
3932.00,0.0007
3931.00,0.0007
3930.00,0.0007
3929.00,0.0007
3928.00,0.0007
3927.00,0.0007
3926.00,0.0007
3925.00,0.0007
3924.00,0.0007
3923.00,0.0007
3922.00,0.0007
3921.00,0.0007
3920.00,0.0007
3919.00,0.0007
3918.00,0.0007
3917.00,0.0007
3916.00,0.0007
3915.00,0.0007
3914.00,0.0007
3913.00,0.0007
3912.00,0.0007
3911.00,0.0007
3910.00,0.0007
3909.00,0.0007
3908.00,0.0007
3907.00,0.0007
3906.00,0.0007
3905.00,0.0007
3904.00,0.0006
3903.00,0.0006
3902.00,0.0006
3901.00,0.0006
3900.00,0.0006
3899.00,0.0007
3898.00,0.0007
3897.00,0.0007
3896.00,0.0007
3895.00,0.0007
3894.00,0.0007
3893.00,0.0007
3892.00,0.0007
3891.00,0.0007
3890.00,0.0007
3889.00,0.0007
3888.00,0.0007
3887.00,0.0007
3886.00,0.0007
3885.00,0.0006
3884.00,0.0006
3883.00,0.0006
3882.00,0.0006
3881.00,0.0006
3880.00,0.0006
3879.00,0.0006
3878.00,0.0007
3877.00,0.0007
3876.00,0.0006
3875.00,0.0006
3874.00,0.0006
3873.00,0.0006
3872.00,0.0007
3871.00,0.0007
3870.00,0.0007
3869.00,0.0007
3868.00,0.0007
3867.00,0.0007
3866.00,0.0006
3865.00,0.0006
3864.00,0.0006
3863.00,0.0007
3862.00,0.0007
3861.00,0.0007
3860.00,0.0007
3859.00,0.0007
3858.00,0.0007
3857.00,0.0008
3856.00,0.0008
3855.00,0.0009
3854.00,0.0008
3853.00,0.0007
3852.00,0.0007
3851.00,0.0006
3850.00,0.0006
3849.00,0.0006
3848.00,0.0006
3847.00,0.0006
3846.00,0.0006
3845.00,0.0007
3844.00,0.0007
3843.00,0.0007
3842.00,0.0007
3841.00,0.0007
3840.00,0.0007
3839.00,0.0006
3838.00,0.0006
3837.00,0.0006
3836.00,0.0006
3835.00,0.0006
3834.00,0.0006
3833.00,0.0007
3832.00,0.0007
3831.00,0.0007
3830.00,0.0007
3829.00,0.0007
3828.00,0.0007
3827.00,0.0007
3826.00,0.0007
3825.00,0.0007
3824.00,0.0007
3823.00,0.0007
3822.00,0.0007
3821.00,0.0007
3820.00,0.0007
3819.00,0.0007
3818.00,0.0007
3817.00,0.0007
3816.00,0.0007
3815.00,0.0007
3814.00,0.0007
3813.00,0.0007
3812.00,0.0007
3811.00,0.0007
3810.00,0.0007
3809.00,0.0008
3808.00,0.0008
3807.00,0.0007
3806.00,0.0007
3805.00,0.0007
3804.00,0.0007
3803.00,0.0007
3802.00,0.0007
3801.00,0.0007
3800.00,0.0007
3799.00,0.0006
3798.00,0.0006
3797.00,0.0006
3796.00,0.0006
3795.00,0.0006
3794.00,0.0007
3793.00,0.0007
3792.00,0.0007
3791.00,0.0007
3790.00,0.0007
3789.00,0.0007
3788.00,0.0007
3787.00,0.0007
3786.00,0.0006
3785.00,0.0006
3784.00,0.0006
3783.00,0.0007
3782.00,0.0007
3781.00,0.0007
3780.00,0.0007
3779.00,0.0007
3778.00,0.0007
3777.00,0.0007
3776.00,0.0007
3775.00,0.0007
3774.00,0.0007
3773.00,0.0007
3772.00,0.0007
3771.00,0.0007
3770.00,0.0007
3769.00,0.0007
3768.00,0.0007
3767.00,0.0007
3766.00,0.0007
3765.00,0.0007
3764.00,0.0007
3763.00,0.0007
3762.00,0.0007
3761.00,0.0007
3760.00,0.0006
3759.00,0.0006
3758.00,0.0007
3757.00,0.0007
3756.00,0.0007
3755.00,0.0007
3754.00,0.0008
3753.00,0.0008
3752.00,0.0008
3751.00,0.0008
3750.00,0.0008
3749.00,0.0008
3748.00,0.0008
3747.00,0.0007
3746.00,0.0007
3745.00,0.0007
3744.00,0.0006
3743.00,0.0006
3742.00,0.0006
3741.00,0.0006
3740.00,0.0006
3739.00,0.0006
3738.00,0.0006
3737.00,0.0006
3736.00,0.0006
3735.00,0.0005
3734.00,0.0005
3733.00,0.0005
3732.00,0.0005
3731.00,0.0005
3730.00,0.0005
3729.00,0.0005
3728.00,0.0005
3727.00,0.0005
3726.00,0.0006
3725.00,0.0006
3724.00,0.0006
3723.00,0.0006
3722.00,0.0006
3721.00,0.0006
3720.00,0.0006
3719.00,0.0006
3718.00,0.0006
3717.00,0.0007
3716.00,0.0007
3715.00,0.0007
3714.00,0.0007
3713.00,0.0007
3712.00,0.0006
3711.00,0.0006
3710.00,0.0007
3709.00,0.0007
3708.00,0.0007
3707.00,0.0007
3706.00,0.0007
3705.00,0.0007
3704.00,0.0008
3703.00,0.0008
3702.00,0.0008
3701.00,0.0008
3700.00,0.0008
3699.00,0.0008
3698.00,0.0008
3697.00,0.0008
3696.00,0.0008
3695.00,0.0009
3694.00,0.0009
3693.00,0.0010
3692.00,0.0010
3691.00,0.0010
3690.00,0.0010
3689.00,0.0011
3688.00,0.0011
3687.00,0.0011
3686.00,0.0011
3685.00,0.0011
3684.00,0.0011
3683.00,0.0011
3682.00,0.0011
3681.00,0.0012
3680.00,0.0012
3679.00,0.0013
3678.00,0.0013
3677.00,0.0013
3676.00,0.0014
3675.00,0.0014
3674.00,0.0014
3673.00,0.0014
3672.00,0.0014
3671.00,0.0015
3670.00,0.0015
3669.00,0.0016
3668.00,0.0017
3667.00,0.0017
3666.00,0.0017
3665.00,0.0017
3664.00,0.0017
3663.00,0.0018
3662.00,0.0018
3661.00,0.0019
3660.00,0.0019
3659.00,0.0020
3658.00,0.0021
3657.00,0.0021
3656.00,0.0022
3655.00,0.0022
3654.00,0.0022
3653.00,0.0023
3652.00,0.0023
3651.00,0.0023
3650.00,0.0023
3649.00,0.0024
3648.00,0.0026
3647.00,0.0026
3646.00,0.0027
3645.00,0.0027
3644.00,0.0027
3643.00,0.0028
3642.00,0.0029
3641.00,0.0030
3640.00,0.0030
3639.00,0.0031
3638.00,0.0032
3637.00,0.0032
3636.00,0.0032
3635.00,0.0033
3634.00,0.0033
3633.00,0.0034
3632.00,0.0034
3631.00,0.0035
3630.00,0.0035
3629.00,0.0037
3628.00,0.0038
3627.00,0.0039
3626.00,0.0039
3625.00,0.0039
3624.00,0.0039
3623.00,0.0040
3622.00,0.0040
3621.00,0.0041
3620.00,0.0042
3619.00,0.0043
3618.00,0.0044
3617.00,0.0045
3616.00,0.0045
3615.00,0.0046
3614.00,0.0046
3613.00,0.0047
3612.00,0.0048
3611.00,0.0049
3610.00,0.0050
3609.00,0.0050
3608.00,0.0051
3607.00,0.0052
3606.00,0.0053
3605.00,0.0054
3604.00,0.0054
3603.00,0.0055
3602.00,0.0056
3601.00,0.0056
3600.00,0.0057
3599.00,0.0057
3598.00,0.0058
3597.00,0.0059
3596.00,0.0059
3595.00,0.0060
3594.00,0.0061
3593.00,0.0062
3592.00,0.0063
3591.00,0.0063
3590.00,0.0064
3589.00,0.0064
3588.00,0.0066
3587.00,0.0067
3586.00,0.0068
3585.00,0.0069
3584.00,0.0070
3583.00,0.0070
3582.00,0.0071
3581.00,0.0072
3580.00,0.0073
3579.00,0.0074
3578.00,0.0075
3577.00,0.0076
3576.00,0.0077
3575.00,0.0077
3574.00,0.0078
3573.00,0.0079
3572.00,0.0080
3571.00,0.0080
3570.00,0.0080
3569.00,0.0080
3568.00,0.0081
3567.00,0.0083
3566.00,0.0084
3565.00,0.0086
3564.00,0.0087
3563.00,0.0088
3562.00,0.0088
3561.00,0.0089
3560.00,0.0090
3559.00,0.0091
3558.00,0.0092
3557.00,0.0093
3556.00,0.0094
3555.00,0.0094
3554.00,0.0095
3553.00,0.0096
3552.00,0.0097
3551.00,0.0098
3550.00,0.0099
3549.00,0.0099
3548.00,0.0099
3547.00,0.0100
3546.00,0.0101
3545.00,0.0102
3544.00,0.0104
3543.00,0.0104
3542.00,0.0105
3541.00,0.0106
3540.00,0.0106
3539.00,0.0107
3538.00,0.0108
3537.00,0.0109
3536.00,0.0110
3535.00,0.0111
3534.00,0.0112
3533.00,0.0112
3532.00,0.0113
3531.00,0.0114
3530.00,0.0114
3529.00,0.0115
3528.00,0.0116
3527.00,0.0117
3526.00,0.0117
3525.00,0.0118
3524.00,0.0119
3523.00,0.0121
3522.00,0.0122
3521.00,0.0123
3520.00,0.0123
3519.00,0.0124
3518.00,0.0125
3517.00,0.0126
3516.00,0.0126
3515.00,0.0127
3514.00,0.0128
3513.00,0.0129
3512.00,0.0129
3511.00,0.0130
3510.00,0.0131
3509.00,0.0131
3508.00,0.0132
3507.00,0.0132
3506.00,0.0133
3505.00,0.0133
3504.00,0.0134
3503.00,0.0136
3502.00,0.0137
3501.00,0.0138
3500.00,0.0139
3499.00,0.0139
3498.00,0.0140
3497.00,0.0141
3496.00,0.0142
3495.00,0.0143
3494.00,0.0144
3493.00,0.0145
3492.00,0.0146
3491.00,0.0146
3490.00,0.0147
3489.00,0.0148
3488.00,0.0149
3487.00,0.0149
3486.00,0.0150
3485.00,0.0151
3484.00,0.0152
3483.00,0.0153
3482.00,0.0154
3481.00,0.0155
3480.00,0.0156
3479.00,0.0157
3478.00,0.0158
3477.00,0.0159
3476.00,0.0159
3475.00,0.0160
3474.00,0.0161
3473.00,0.0162
3472.00,0.0163
3471.00,0.0164
3470.00,0.0165
3469.00,0.0166
3468.00,0.0167
3467.00,0.0168
3466.00,0.0168
3465.00,0.0169
3464.00,0.0170
3463.00,0.0171
3462.00,0.0171
3461.00,0.0172
3460.00,0.0173
3459.00,0.0174
3458.00,0.0175
3457.00,0.0176
3456.00,0.0176
3455.00,0.0177
3454.00,0.0178
3453.00,0.0179
3452.00,0.0180
3451.00,0.0181
3450.00,0.0181
3449.00,0.0182
3448.00,0.0183
3447.00,0.0184
3446.00,0.0185
3445.00,0.0186
3444.00,0.0187
3443.00,0.0188
3442.00,0.0189
3441.00,0.0190
3440.00,0.0190
3439.00,0.0191
3438.00,0.0192
3437.00,0.0192
3436.00,0.0194
3435.00,0.0195
3434.00,0.0196
3433.00,0.0197
3432.00,0.0198
3431.00,0.0199
3430.00,0.0200
3429.00,0.0201
3428.00,0.0202
3427.00,0.0202
3426.00,0.0203
3425.00,0.0204
3424.00,0.0205
3423.00,0.0206
3422.00,0.0207
3421.00,0.0208
3420.00,0.0209
3419.00,0.0210
3418.00,0.0211
3417.00,0.0211
3416.00,0.0212
3415.00,0.0213
3414.00,0.0214
3413.00,0.0215
3412.00,0.0216
3411.00,0.0217
3410.00,0.0218
3409.00,0.0219
3408.00,0.0220
3407.00,0.0221
3406.00,0.0221
3405.00,0.0222
3404.00,0.0222
3403.00,0.0223
3402.00,0.0224
3401.00,0.0225
3400.00,0.0226
3399.00,0.0227
3398.00,0.0228
3397.00,0.0228
3396.00,0.0229
3395.00,0.0230
3394.00,0.0231
3393.00,0.0232
3392.00,0.0234
3391.00,0.0235
3390.00,0.0236
3389.00,0.0237
3388.00,0.0238
3387.00,0.0238
3386.00,0.0239
3385.00,0.0240
3384.00,0.0241
3383.00,0.0242
3382.00,0.0243
3381.00,0.0244
3380.00,0.0245
3379.00,0.0246
3378.00,0.0247
3377.00,0.0248
3376.00,0.0249
3375.00,0.0250
3374.00,0.0251
3373.00,0.0252
3372.00,0.0253
3371.00,0.0254
3370.00,0.0255
3369.00,0.0256
3368.00,0.0258
3367.00,0.0259
3366.00,0.0261
3365.00,0.0263
3364.00,0.0265
3363.00,0.0266
3362.00,0.0267
3361.00,0.0268
3360.00,0.0270
3359.00,0.0272
3358.00,0.0273
3357.00,0.0275
3356.00,0.0276
3355.00,0.0277
3354.00,0.0278
3353.00,0.0279
3352.00,0.0280
3351.00,0.0281
3350.00,0.0283
3349.00,0.0285
3348.00,0.0287
3347.00,0.0289
3346.00,0.0291
3345.00,0.0292
3344.00,0.0294
3343.00,0.0295
3342.00,0.0297
3341.00,0.0298
3340.00,0.0299
3339.00,0.0301
3338.00,0.0303
3337.00,0.0305
3336.00,0.0307
3335.00,0.0310
3334.00,0.0312
3333.00,0.0314
3332.00,0.0316
3331.00,0.0318
3330.00,0.0319
3329.00,0.0321
3328.00,0.0323
3327.00,0.0324
3326.00,0.0326
3325.00,0.0329
3324.00,0.0331
3323.00,0.0334
3322.00,0.0337
3321.00,0.0339
3320.00,0.0342
3319.00,0.0344
3318.00,0.0347
3317.00,0.0349
3316.00,0.0351
3315.00,0.0354
3314.00,0.0356
3313.00,0.0358
3312.00,0.0361
3311.00,0.0363
3310.00,0.0365
3309.00,0.0368
3308.00,0.0370
3307.00,0.0373
3306.00,0.0375
3305.00,0.0378
3304.00,0.0382
3303.00,0.0385
3302.00,0.0389
3301.00,0.0392
3300.00,0.0394
3299.00,0.0397
3298.00,0.0399
3297.00,0.0401
3296.00,0.0404
3295.00,0.0406
3294.00,0.0409
3293.00,0.0411
3292.00,0.0415
3291.00,0.0418
3290.00,0.0421
3289.00,0.0424
3288.00,0.0427
3287.00,0.0429
3286.00,0.0431
3285.00,0.0433
3284.00,0.0435
3283.00,0.0437
3282.00,0.0438
3281.00,0.0439
3280.00,0.0440
3279.00,0.0441
3278.00,0.0442
3277.00,0.0443
3276.00,0.0443
3275.00,0.0443
3274.00,0.0443
3273.00,0.0442
3272.00,0.0442
3271.00,0.0442
3270.00,0.0442
3269.00,0.0442
3268.00,0.0442
3267.00,0.0441
3266.00,0.0440
3265.00,0.0438
3264.00,0.0436
3263.00,0.0434
3262.00,0.0433
3261.00,0.0431
3260.00,0.0428
3259.00,0.0425
3258.00,0.0422
3257.00,0.0419
3256.00,0.0417
3255.00,0.0414
3254.00,0.0412
3253.00,0.0410
3252.00,0.0407
3251.00,0.0404
3250.00,0.0401
3249.00,0.0398
3248.00,0.0395
3247.00,0.0392
3246.00,0.0391
3245.00,0.0389
3244.00,0.0387
3243.00,0.0385
3242.00,0.0382
3241.00,0.0380
3240.00,0.0377
3239.00,0.0375
3238.00,0.0372
3237.00,0.0369
3236.00,0.0366
3235.00,0.0363
3234.00,0.0360
3233.00,0.0359
3232.00,0.0357
3231.00,0.0356
3230.00,0.0355
3229.00,0.0354
3228.00,0.0352
3227.00,0.0350
3226.00,0.0348
3225.00,0.0346
3224.00,0.0344
3223.00,0.0342
3222.00,0.0340
3221.00,0.0338
3220.00,0.0337
3219.00,0.0335
3218.00,0.0333
3217.00,0.0331
3216.00,0.0329
3215.00,0.0328
3214.00,0.0326
3213.00,0.0325
3212.00,0.0323
3211.00,0.0322
3210.00,0.0320
3209.00,0.0318
3208.00,0.0316
3207.00,0.0315
3206.00,0.0313
3205.00,0.0311
3204.00,0.0310
3203.00,0.0308
3202.00,0.0307
3201.00,0.0305
3200.00,0.0304
3199.00,0.0302
3198.00,0.0301
3197.00,0.0300
3196.00,0.0298
3195.00,0.0297
3194.00,0.0295
3193.00,0.0293
3192.00,0.0291
3191.00,0.0290
3190.00,0.0288
3189.00,0.0287
3188.00,0.0285
3187.00,0.0284
3186.00,0.0282
3185.00,0.0281
3184.00,0.0279
3183.00,0.0278
3182.00,0.0276
3181.00,0.0275
3180.00,0.0274
3179.00,0.0272
3178.00,0.0271
3177.00,0.0269
3176.00,0.0268
3175.00,0.0266
3174.00,0.0265
3173.00,0.0263
3172.00,0.0262
3171.00,0.0261
3170.00,0.0260
3169.00,0.0258
3168.00,0.0257
3167.00,0.0255
3166.00,0.0254
3165.00,0.0253
3164.00,0.0252
3163.00,0.0251
3162.00,0.0249
3161.00,0.0248
3160.00,0.0247
3159.00,0.0245
3158.00,0.0244
3157.00,0.0243
3156.00,0.0241
3155.00,0.0240
3154.00,0.0239
3153.00,0.0238
3152.00,0.0237
3151.00,0.0236
3150.00,0.0236
3149.00,0.0235
3148.00,0.0234
3147.00,0.0233
3146.00,0.0232
3145.00,0.0231
3144.00,0.0230
3143.00,0.0229
3142.00,0.0228
3141.00,0.0227
3140.00,0.0226
3139.00,0.0225
3138.00,0.0224
3137.00,0.0224
3136.00,0.0224
3135.00,0.0223
3134.00,0.0223
3133.00,0.0222
3132.00,0.0221
3131.00,0.0220
3130.00,0.0220
3129.00,0.0220
3128.00,0.0219
3127.00,0.0219
3126.00,0.0219
3125.00,0.0218
3124.00,0.0217
3123.00,0.0216
3122.00,0.0215
3121.00,0.0214
3120.00,0.0214
3119.00,0.0213
3118.00,0.0213
3117.00,0.0213
3116.00,0.0213
3115.00,0.0214
3114.00,0.0214
3113.00,0.0215
3112.00,0.0215
3111.00,0.0215
3110.00,0.0215
3109.00,0.0215
3108.00,0.0216
3107.00,0.0217
3106.00,0.0217
3105.00,0.0218
3104.00,0.0218
3103.00,0.0218
3102.00,0.0218
3101.00,0.0218
3100.00,0.0219
3099.00,0.0219
3098.00,0.0220
3097.00,0.0221
3096.00,0.0222
3095.00,0.0222
3094.00,0.0222
3093.00,0.0222
3092.00,0.0222
3091.00,0.0222
3090.00,0.0222
3089.00,0.0223
3088.00,0.0223
3087.00,0.0223
3086.00,0.0223
3085.00,0.0223
3084.00,0.0223
3083.00,0.0223
3082.00,0.0223
3081.00,0.0223
3080.00,0.0223
3079.00,0.0223
3078.00,0.0223
3077.00,0.0224
3076.00,0.0225
3075.00,0.0225
3074.00,0.0225
3073.00,0.0225
3072.00,0.0225
3071.00,0.0224
3070.00,0.0223
3069.00,0.0222
3068.00,0.0221
3067.00,0.0221
3066.00,0.0221
3065.00,0.0221
3064.00,0.0220
3063.00,0.0220
3062.00,0.0219
3061.00,0.0218
3060.00,0.0217
3059.00,0.0216
3058.00,0.0214
3057.00,0.0213
3056.00,0.0212
3055.00,0.0211
3054.00,0.0210
3053.00,0.0208
3052.00,0.0207
3051.00,0.0205
3050.00,0.0204
3049.00,0.0203
3048.00,0.0202
3047.00,0.0200
3046.00,0.0199
3045.00,0.0197
3044.00,0.0196
3043.00,0.0195
3042.00,0.0194
3041.00,0.0194
3040.00,0.0194
3039.00,0.0193
3038.00,0.0192
3037.00,0.0191
3036.00,0.0189
3035.00,0.0188
3034.00,0.0187
3033.00,0.0187
3032.00,0.0187
3031.00,0.0186
3030.00,0.0186
3029.00,0.0185
3028.00,0.0184
3027.00,0.0183
3026.00,0.0181
3025.00,0.0180
3024.00,0.0179
3023.00,0.0178
3022.00,0.0177
3021.00,0.0176
3020.00,0.0175
3019.00,0.0174
3018.00,0.0172
3017.00,0.0171
3016.00,0.0169
3015.00,0.0168
3014.00,0.0168
3013.00,0.0168
3012.00,0.0168
3011.00,0.0168
3010.00,0.0168
3009.00,0.0169
3008.00,0.0169
3007.00,0.0168
3006.00,0.0168
3005.00,0.0168
3004.00,0.0168
3003.00,0.0168
3002.00,0.0168
3001.00,0.0168
3000.00,0.0168
2999.00,0.0168
2998.00,0.0169
2997.00,0.0169
2996.00,0.0170
2995.00,0.0171
2994.00,0.0172
2993.00,0.0173
2992.00,0.0174
2991.00,0.0176
2990.00,0.0178
2989.00,0.0180
2988.00,0.0182
2987.00,0.0184
2986.00,0.0186
2985.00,0.0188
2984.00,0.0190
2983.00,0.0193
2982.00,0.0195
2981.00,0.0198
2980.00,0.0200
2979.00,0.0204
2978.00,0.0207
2977.00,0.0210
2976.00,0.0213
2975.00,0.0216
2974.00,0.0219
2973.00,0.0222
2972.00,0.0225
2971.00,0.0228
2970.00,0.0231
2969.00,0.0234
2968.00,0.0236
2967.00,0.0239
2966.00,0.0241
2965.00,0.0243
2964.00,0.0244
2963.00,0.0245
2962.00,0.0246
2961.00,0.0247
2960.00,0.0247
2959.00,0.0246
2958.00,0.0245
2957.00,0.0244
2956.00,0.0242
2955.00,0.0240
2954.00,0.0238
2953.00,0.0236
2952.00,0.0234
2951.00,0.0232
2950.00,0.0231
2949.00,0.0230
2948.00,0.0230
2947.00,0.0230
2946.00,0.0230
2945.00,0.0231
2944.00,0.0233
2943.00,0.0235
2942.00,0.0238
2941.00,0.0240
2940.00,0.0243
2939.00,0.0245
2938.00,0.0247
2937.00,0.0250
2936.00,0.0252
2935.00,0.0254
2934.00,0.0255
2933.00,0.0257
2932.00,0.0257
2931.00,0.0258
2930.00,0.0259
2929.00,0.0259
2928.00,0.0259
2927.00,0.0259
2926.00,0.0258
2925.00,0.0257
2924.00,0.0255
2923.00,0.0253
2922.00,0.0251
2921.00,0.0248
2920.00,0.0245
2919.00,0.0242
2918.00,0.0238
2917.00,0.0235
2916.00,0.0231
2915.00,0.0228
2914.00,0.0224
2913.00,0.0221
2912.00,0.0218
2911.00,0.0215
2910.00,0.0212
2909.00,0.0209
2908.00,0.0206
2907.00,0.0204
2906.00,0.0202
2905.00,0.0200
2904.00,0.0198
2903.00,0.0196
2902.00,0.0195
2901.00,0.0193
2900.00,0.0192
2899.00,0.0190
2898.00,0.0188
2897.00,0.0187
2896.00,0.0185
2895.00,0.0184
2894.00,0.0183
2893.00,0.0182
2892.00,0.0181
2891.00,0.0180
2890.00,0.0180
2889.00,0.0179
2888.00,0.0179
2887.00,0.0180
2886.00,0.0180
2885.00,0.0180
2884.00,0.0181
2883.00,0.0182
2882.00,0.0182
2881.00,0.0183
2880.00,0.0184
2879.00,0.0185
2878.00,0.0186
2877.00,0.0186
2876.00,0.0186
2875.00,0.0186
2874.00,0.0186
2873.00,0.0185
2872.00,0.0184
2871.00,0.0183
2870.00,0.0182
2869.00,0.0180
2868.00,0.0178
2867.00,0.0176
2866.00,0.0174
2865.00,0.0172
2864.00,0.0171
2863.00,0.0170
2862.00,0.0169
2861.00,0.0168
2860.00,0.0168
2859.00,0.0167
2858.00,0.0167
2857.00,0.0167
2856.00,0.0167
2855.00,0.0166
2854.00,0.0165
2853.00,0.0164
2852.00,0.0162
2851.00,0.0160
2850.00,0.0157
2849.00,0.0154
2848.00,0.0151
2847.00,0.0148
2846.00,0.0146
2845.00,0.0143
2844.00,0.0140
2843.00,0.0137
2842.00,0.0135
2841.00,0.0133
2840.00,0.0131
2839.00,0.0130
2838.00,0.0129
2837.00,0.0128
2836.00,0.0127
2835.00,0.0126
2834.00,0.0125
2833.00,0.0125
2832.00,0.0124
2831.00,0.0124
2830.00,0.0123
2829.00,0.0122
2828.00,0.0122
2827.00,0.0121
2826.00,0.0121
2825.00,0.0120
2824.00,0.0120
2823.00,0.0119
2822.00,0.0119
2821.00,0.0119
2820.00,0.0119
2819.00,0.0118
2818.00,0.0118
2817.00,0.0117
2816.00,0.0117
2815.00,0.0116
2814.00,0.0116
2813.00,0.0115
2812.00,0.0115
2811.00,0.0114
2810.00,0.0114
2809.00,0.0114
2808.00,0.0113
2807.00,0.0113
2806.00,0.0113
2805.00,0.0112
2804.00,0.0112
2803.00,0.0112
2802.00,0.0111
2801.00,0.0111
2800.00,0.0110
2799.00,0.0110
2798.00,0.0110
2797.00,0.0109
2796.00,0.0109
2795.00,0.0109
2794.00,0.0108
2793.00,0.0108
2792.00,0.0107
2791.00,0.0106
2790.00,0.0106
2789.00,0.0106
2788.00,0.0106
2787.00,0.0105
2786.00,0.0105
2785.00,0.0105
2784.00,0.0105
2783.00,0.0104
2782.00,0.0104
2781.00,0.0103
2780.00,0.0103
2779.00,0.0103
2778.00,0.0103
2777.00,0.0102
2776.00,0.0102
2775.00,0.0101
2774.00,0.0101
2773.00,0.0100
2772.00,0.0100
2771.00,0.0100
2770.00,0.0099
2769.00,0.0099
2768.00,0.0099
2767.00,0.0099
2766.00,0.0098
2765.00,0.0098
2764.00,0.0097
2763.00,0.0097
2762.00,0.0096
2761.00,0.0096
2760.00,0.0096
2759.00,0.0095
2758.00,0.0095
2757.00,0.0095
2756.00,0.0095
2755.00,0.0094
2754.00,0.0094
2753.00,0.0094
2752.00,0.0093
2751.00,0.0093
2750.00,0.0093
2749.00,0.0092
2748.00,0.0092
2747.00,0.0091
2746.00,0.0091
2745.00,0.0091
2744.00,0.0090
2743.00,0.0090
2742.00,0.0090
2741.00,0.0089
2740.00,0.0089
2739.00,0.0089
2738.00,0.0088
2737.00,0.0088
2736.00,0.0088
2735.00,0.0087
2734.00,0.0087
2733.00,0.0087
2732.00,0.0087
2731.00,0.0086
2730.00,0.0086
2729.00,0.0085
2728.00,0.0085
2727.00,0.0085
2726.00,0.0084
2725.00,0.0084
2724.00,0.0083
2723.00,0.0083
2722.00,0.0083
2721.00,0.0083
2720.00,0.0082
2719.00,0.0082
2718.00,0.0082
2717.00,0.0081
2716.00,0.0081
2715.00,0.0081
2714.00,0.0080
2713.00,0.0080
2712.00,0.0080
2711.00,0.0079
2710.00,0.0079
2709.00,0.0079
2708.00,0.0079
2707.00,0.0079
2706.00,0.0079
2705.00,0.0078
2704.00,0.0078
2703.00,0.0078
2702.00,0.0078
2701.00,0.0078
2700.00,0.0078
2699.00,0.0077
2698.00,0.0077
2697.00,0.0077
2696.00,0.0077
2695.00,0.0077
2694.00,0.0076
2693.00,0.0076
2692.00,0.0076
2691.00,0.0076
2690.00,0.0076
2689.00,0.0076
2688.00,0.0076
2687.00,0.0076
2686.00,0.0075
2685.00,0.0075
2684.00,0.0075
2683.00,0.0075
2682.00,0.0075
2681.00,0.0075
2680.00,0.0074
2679.00,0.0074
2678.00,0.0074
2677.00,0.0074
2676.00,0.0074
2675.00,0.0074
2674.00,0.0073
2673.00,0.0073
2672.00,0.0073
2671.00,0.0073
2670.00,0.0073
2669.00,0.0073
2668.00,0.0073
2667.00,0.0073
2666.00,0.0073
2665.00,0.0074
2664.00,0.0074
2663.00,0.0074
2662.00,0.0075
2661.00,0.0075
2660.00,0.0076
2659.00,0.0076
2658.00,0.0076
2657.00,0.0076
2656.00,0.0076
2655.00,0.0076
2654.00,0.0076
2653.00,0.0076
2652.00,0.0076
2651.00,0.0075
2650.00,0.0075
2649.00,0.0075
2648.00,0.0075
2647.00,0.0075
2646.00,0.0074
2645.00,0.0074
2644.00,0.0074
2643.00,0.0074
2642.00,0.0074
2641.00,0.0073
2640.00,0.0073
2639.00,0.0072
2638.00,0.0072
2637.00,0.0072
2636.00,0.0072
2635.00,0.0072
2634.00,0.0072
2633.00,0.0072
2632.00,0.0072
2631.00,0.0072
2630.00,0.0071
2629.00,0.0071
2628.00,0.0071
2627.00,0.0071
2626.00,0.0070
2625.00,0.0070
2624.00,0.0070
2623.00,0.0070
2622.00,0.0070
2621.00,0.0069
2620.00,0.0069
2619.00,0.0069
2618.00,0.0069
2617.00,0.0069
2616.00,0.0068
2615.00,0.0068
2614.00,0.0068
2613.00,0.0068
2612.00,0.0067
2611.00,0.0067
2610.00,0.0067
2609.00,0.0066
2608.00,0.0066
2607.00,0.0065
2606.00,0.0065
2605.00,0.0065
2604.00,0.0065
2603.00,0.0065
2602.00,0.0065
2601.00,0.0064
2600.00,0.0064
2599.00,0.0064
2598.00,0.0064
2597.00,0.0064
2596.00,0.0064
2595.00,0.0064
2594.00,0.0064
2593.00,0.0063
2592.00,0.0063
2591.00,0.0062
2590.00,0.0062
2589.00,0.0062
2588.00,0.0062
2587.00,0.0061
2586.00,0.0061
2585.00,0.0061
2584.00,0.0061
2583.00,0.0061
2582.00,0.0061
2581.00,0.0061
2580.00,0.0060
2579.00,0.0060
2578.00,0.0059
2577.00,0.0059
2576.00,0.0059
2575.00,0.0059
2574.00,0.0059
2573.00,0.0059
2572.00,0.0059
2571.00,0.0059
2570.00,0.0058
2569.00,0.0058
2568.00,0.0058
2567.00,0.0058
2566.00,0.0058
2565.00,0.0058
2564.00,0.0057
2563.00,0.0057
2562.00,0.0057
2561.00,0.0056
2560.00,0.0056
2559.00,0.0055
2558.00,0.0055
2557.00,0.0055
2556.00,0.0055
2555.00,0.0055
2554.00,0.0055
2553.00,0.0055
2552.00,0.0055
2551.00,0.0055
2550.00,0.0054
2549.00,0.0054
2548.00,0.0054
2547.00,0.0054
2546.00,0.0053
2545.00,0.0053
2544.00,0.0053
2543.00,0.0053
2542.00,0.0052
2541.00,0.0052
2540.00,0.0053
2539.00,0.0053
2538.00,0.0053
2537.00,0.0052
2536.00,0.0052
2535.00,0.0052
2534.00,0.0052
2533.00,0.0052
2532.00,0.0052
2531.00,0.0051
2530.00,0.0051
2529.00,0.0051
2528.00,0.0051
2527.00,0.0051
2526.00,0.0050
2525.00,0.0050
2524.00,0.0050
2523.00,0.0050
2522.00,0.0050
2521.00,0.0050
2520.00,0.0050
2519.00,0.0050
2518.00,0.0050
2517.00,0.0050
2516.00,0.0049
2515.00,0.0049
2514.00,0.0048
2513.00,0.0048
2512.00,0.0048
2511.00,0.0048
2510.00,0.0049
2509.00,0.0049
2508.00,0.0048
2507.00,0.0048
2506.00,0.0048
2505.00,0.0048
2504.00,0.0048
2503.00,0.0048
2502.00,0.0048
2501.00,0.0047
2500.00,0.0047
2499.00,0.0047
2498.00,0.0047
2497.00,0.0047
2496.00,0.0047
2495.00,0.0047
2494.00,0.0047
2493.00,0.0047
2492.00,0.0047
2491.00,0.0046
2490.00,0.0046
2489.00,0.0046
2488.00,0.0046
2487.00,0.0046
2486.00,0.0046
2485.00,0.0045
2484.00,0.0045
2483.00,0.0044
2482.00,0.0044
2481.00,0.0044
2480.00,0.0045
2479.00,0.0045
2478.00,0.0045
2477.00,0.0045
2476.00,0.0044
2475.00,0.0044
2474.00,0.0044
2473.00,0.0044
2472.00,0.0044
2471.00,0.0044
2470.00,0.0044
2469.00,0.0043
2468.00,0.0043
2467.00,0.0043
2466.00,0.0043
2465.00,0.0042
2464.00,0.0042
2463.00,0.0042
2462.00,0.0042
2461.00,0.0043
2460.00,0.0043
2459.00,0.0043
2458.00,0.0043
2457.00,0.0043
2456.00,0.0043
2455.00,0.0043
2454.00,0.0043
2453.00,0.0043
2452.00,0.0042
2451.00,0.0042
2450.00,0.0042
2449.00,0.0042
2448.00,0.0042
2447.00,0.0042
2446.00,0.0042
2445.00,0.0042
2444.00,0.0041
2443.00,0.0041
2442.00,0.0040
2441.00,0.0040
2440.00,0.0039
2439.00,0.0039
2438.00,0.0039
2437.00,0.0039
2436.00,0.0038
2435.00,0.0038
2434.00,0.0037
2433.00,0.0037
2432.00,0.0037
2431.00,0.0037
2430.00,0.0038
2429.00,0.0038
2428.00,0.0038
2427.00,0.0037
2426.00,0.0037
2425.00,0.0037
2424.00,0.0036
2423.00,0.0036
2422.00,0.0035
2421.00,0.0035
2420.00,0.0035
2419.00,0.0036
2418.00,0.0036
2417.00,0.0036
2416.00,0.0036
2415.00,0.0036
2414.00,0.0036
2413.00,0.0035
2412.00,0.0035
2411.00,0.0035
2410.00,0.0034
2409.00,0.0034
2408.00,0.0033
2407.00,0.0032
2406.00,0.0032
2405.00,0.0032
2404.00,0.0031
2403.00,0.0032
2402.00,0.0032
2401.00,0.0032
2400.00,0.0032
2399.00,0.0031
2398.00,0.0031
2397.00,0.0031
2396.00,0.0031
2395.00,0.0031
2394.00,0.0031
2393.00,0.0031
2392.00,0.0031
2391.00,0.0031
2390.00,0.0031
2389.00,0.0030
2388.00,0.0030
2387.00,0.0029
2386.00,0.0029
2385.00,0.0028
2384.00,0.0027
2383.00,0.0026
2382.00,0.0026
2381.00,0.0025
2380.00,0.0024
2379.00,0.0024
2378.00,0.0024
2377.00,0.0025
2376.00,0.0025
2375.00,0.0025
2374.00,0.0025
2373.00,0.0025
2372.00,0.0024
2371.00,0.0024
2370.00,0.0023
2369.00,0.0022
2368.00,0.0022
2367.00,0.0023
2366.00,0.0023
2365.00,0.0024
2364.00,0.0024
2363.00,0.0025
2362.00,0.0025
2361.00,0.0026
2360.00,0.0026
2359.00,0.0025
2358.00,0.0024
2357.00,0.0024
2356.00,0.0024
2355.00,0.0024
2354.00,0.0024
2353.00,0.0024
2352.00,0.0024
2351.00,0.0024
2350.00,0.0024
2349.00,0.0025
2348.00,0.0026
2347.00,0.0026
2346.00,0.0027
2345.00,0.0027
2344.00,0.0027
2343.00,0.0027
2342.00,0.0026
2341.00,0.0026
2340.00,0.0027
2339.00,0.0027
2338.00,0.0028
2337.00,0.0028
2336.00,0.0028
2335.00,0.0029
2334.00,0.0028
2333.00,0.0028
2332.00,0.0027
2331.00,0.0027
2330.00,0.0027
2329.00,0.0029
2328.00,0.0033
2327.00,0.0038
2326.00,0.0041
2325.00,0.0043
2324.00,0.0042
2323.00,0.0039
2322.00,0.0037
2321.00,0.0035
2320.00,0.0034
2319.00,0.0033
2318.00,0.0033
2317.00,0.0033
2316.00,0.0032
2315.00,0.0031
2314.00,0.0031
2313.00,0.0030
2312.00,0.0030
2311.00,0.0030
2310.00,0.0030
2309.00,0.0030
2308.00,0.0030
2307.00,0.0030
2306.00,0.0030
2305.00,0.0030
2304.00,0.0031
2303.00,0.0031
2302.00,0.0031
2301.00,0.0031
2300.00,0.0031
2299.00,0.0032
2298.00,0.0032
2297.00,0.0033
2296.00,0.0034
2295.00,0.0035
2294.00,0.0036
2293.00,0.0037
2292.00,0.0038
2291.00,0.0038
2290.00,0.0039
2289.00,0.0039
2288.00,0.0040
2287.00,0.0040
2286.00,0.0040
2285.00,0.0039
2284.00,0.0038
2283.00,0.0038
2282.00,0.0037
2281.00,0.0036
2280.00,0.0036
2279.00,0.0035
2278.00,0.0035
2277.00,0.0035
2276.00,0.0035
2275.00,0.0034
2274.00,0.0034
2273.00,0.0034
2272.00,0.0034
2271.00,0.0034
2270.00,0.0033
2269.00,0.0033
2268.00,0.0032
2267.00,0.0032
2266.00,0.0031
2265.00,0.0030
2264.00,0.0030
2263.00,0.0030
2262.00,0.0030
2261.00,0.0031
2260.00,0.0031
2259.00,0.0031
2258.00,0.0030
2257.00,0.0029
2256.00,0.0028
2255.00,0.0028
2254.00,0.0028
2253.00,0.0029
2252.00,0.0029
2251.00,0.0029
2250.00,0.0028
2249.00,0.0028
2248.00,0.0028
2247.00,0.0028
2246.00,0.0028
2245.00,0.0028
2244.00,0.0029
2243.00,0.0028
2242.00,0.0028
2241.00,0.0027
2240.00,0.0028
2239.00,0.0028
2238.00,0.0029
2237.00,0.0029
2236.00,0.0030
2235.00,0.0030
2234.00,0.0029
2233.00,0.0028
2232.00,0.0028
2231.00,0.0027
2230.00,0.0026
2229.00,0.0026
2228.00,0.0026
2227.00,0.0026
2226.00,0.0026
2225.00,0.0026
2224.00,0.0027
2223.00,0.0028
2222.00,0.0028
2221.00,0.0028
2220.00,0.0028
2219.00,0.0027
2218.00,0.0026
2217.00,0.0026
2216.00,0.0026
2215.00,0.0026
2214.00,0.0025
2213.00,0.0024
2212.00,0.0024
2211.00,0.0024
2210.00,0.0025
2209.00,0.0026
2208.00,0.0026
2207.00,0.0027
2206.00,0.0027
2205.00,0.0026
2204.00,0.0026
2203.00,0.0026
2202.00,0.0026
2201.00,0.0026
2200.00,0.0026
2199.00,0.0026
2198.00,0.0026
2197.00,0.0027
2196.00,0.0027
2195.00,0.0028
2194.00,0.0028
2193.00,0.0029
2192.00,0.0029
2191.00,0.0029
2190.00,0.0029
2189.00,0.0029
2188.00,0.0030
2187.00,0.0031
2186.00,0.0030
2185.00,0.0029
2184.00,0.0028
2183.00,0.0026
2182.00,0.0024
2181.00,0.0024
2180.00,0.0024
2179.00,0.0025
2178.00,0.0024
2177.00,0.0022
2176.00,0.0020
2175.00,0.0018
2174.00,0.0018
2173.00,0.0020
2172.00,0.0023
2171.00,0.0026
2170.00,0.0030
2169.00,0.0032
2168.00,0.0034
2167.00,0.0034
2166.00,0.0033
2165.00,0.0034
2164.00,0.0036
2163.00,0.0035
2162.00,0.0030
2161.00,0.0019
2160.00,0.0006
2159.00,-0.0006
2158.00,-0.0011
2157.00,-0.0012
2156.00,-0.0009
2155.00,-0.0007
2154.00,-0.0005
2153.00,-0.0003
2152.00,-0.0000
2151.00,0.0002
2150.00,0.0002
2149.00,0.0003
2148.00,0.0003
2147.00,0.0003
2146.00,0.0003
2145.00,0.0003
2144.00,0.0002
2143.00,0.0002
2142.00,0.0002
2141.00,0.0004
2140.00,0.0007
2139.00,0.0008
2138.00,0.0008
2137.00,0.0005
2136.00,0.0002
2135.00,-0.0000
2134.00,-0.0001
2133.00,0.0001
2132.00,0.0003
2131.00,0.0005
2130.00,0.0007
2129.00,0.0009
2128.00,0.0011
2127.00,0.0013
2126.00,0.0015
2125.00,0.0016
2124.00,0.0016
2123.00,0.0016
2122.00,0.0017
2121.00,0.0018
2120.00,0.0019
2119.00,0.0021
2118.00,0.0023
2117.00,0.0024
2116.00,0.0025
2115.00,0.0026
2114.00,0.0025
2113.00,0.0025
2112.00,0.0026
2111.00,0.0025
2110.00,0.0025
2109.00,0.0025
2108.00,0.0026
2107.00,0.0026
2106.00,0.0026
2105.00,0.0026
2104.00,0.0026
2103.00,0.0025
2102.00,0.0025
2101.00,0.0025
2100.00,0.0025
2099.00,0.0024
2098.00,0.0023
2097.00,0.0022
2096.00,0.0021
2095.00,0.0020
2094.00,0.0019
2093.00,0.0020
2092.00,0.0021
2091.00,0.0022
2090.00,0.0023
2089.00,0.0024
2088.00,0.0025
2087.00,0.0025
2086.00,0.0026
2085.00,0.0026
2084.00,0.0025
2083.00,0.0025
2082.00,0.0024
2081.00,0.0024
2080.00,0.0025
2079.00,0.0025
2078.00,0.0025
2077.00,0.0026
2076.00,0.0026
2075.00,0.0026
2074.00,0.0025
2073.00,0.0024
2072.00,0.0023
2071.00,0.0023
2070.00,0.0022
2069.00,0.0022
2068.00,0.0022
2067.00,0.0022
2066.00,0.0022
2065.00,0.0021
2064.00,0.0021
2063.00,0.0021
2062.00,0.0021
2061.00,0.0020
2060.00,0.0020
2059.00,0.0020
2058.00,0.0021
2057.00,0.0022
2056.00,0.0023
2055.00,0.0024
2054.00,0.0027
2053.00,0.0031
2052.00,0.0034
2051.00,0.0034
2050.00,0.0031
2049.00,0.0027
2048.00,0.0025
2047.00,0.0023
2046.00,0.0022
2045.00,0.0021
2044.00,0.0021
2043.00,0.0021
2042.00,0.0022
2041.00,0.0023
2040.00,0.0024
2039.00,0.0024
2038.00,0.0022
2037.00,0.0021
2036.00,0.0019
2035.00,0.0017
2034.00,0.0015
2033.00,0.0013
2032.00,0.0012
2031.00,0.0012
2030.00,0.0012
2029.00,0.0013
2028.00,0.0014
2027.00,0.0014
2026.00,0.0012
2025.00,0.0011
2024.00,0.0011
2023.00,0.0012
2022.00,0.0012
2021.00,0.0014
2020.00,0.0015
2019.00,0.0014
2018.00,0.0013
2017.00,0.0011
2016.00,0.0011
2015.00,0.0012
2014.00,0.0012
2013.00,0.0013
2012.00,0.0015
2011.00,0.0015
2010.00,0.0013
2009.00,0.0011
2008.00,0.0008
2007.00,0.0005
2006.00,0.0004
2005.00,0.0006
2004.00,0.0008
2003.00,0.0010
2002.00,0.0011
2001.00,0.0011
2000.00,0.0010
1999.00,0.0010
1998.00,0.0010
1997.00,0.0012
1996.00,0.0015
1995.00,0.0016
1994.00,0.0017
1993.00,0.0017
1992.00,0.0018
1991.00,0.0018
1990.00,0.0018
1989.00,0.0018
1988.00,0.0019
1987.00,0.0019
1986.00,0.0020
1985.00,0.0023
1984.00,0.0026
1983.00,0.0029
1982.00,0.0030
1981.00,0.0030
1980.00,0.0025
1979.00,0.0018
1978.00,0.0011
1977.00,0.0007
1976.00,0.0006
1975.00,0.0006
1974.00,0.0007
1973.00,0.0008
1972.00,0.0009
1971.00,0.0009
1970.00,0.0009
1969.00,0.0010
1968.00,0.0013
1967.00,0.0014
1966.00,0.0013
1965.00,0.0013
1964.00,0.0012
1963.00,0.0011
1962.00,0.0009
1961.00,0.0007
1960.00,0.0006
1959.00,0.0005
1958.00,0.0005
1957.00,0.0008
1956.00,0.0011
1955.00,0.0013
1954.00,0.0014
1953.00,0.0013
1952.00,0.0013
1951.00,0.0012
1950.00,0.0011
1949.00,0.0011
1948.00,0.0011
1947.00,0.0011
1946.00,0.0011
1945.00,0.0011
1944.00,0.0012
1943.00,0.0012
1942.00,0.0012
1941.00,0.0012
1940.00,0.0011
1939.00,0.0011
1938.00,0.0011
1937.00,0.0011
1936.00,0.0012
1935.00,0.0012
1934.00,0.0012
1933.00,0.0012
1932.00,0.0012
1931.00,0.0012
1930.00,0.0012
1929.00,0.0013
1928.00,0.0013
1927.00,0.0013
1926.00,0.0013
1925.00,0.0014
1924.00,0.0015
1923.00,0.0015
1922.00,0.0015
1921.00,0.0016
1920.00,0.0017
1919.00,0.0016
1918.00,0.0015
1917.00,0.0014
1916.00,0.0014
1915.00,0.0015
1914.00,0.0016
1913.00,0.0017
1912.00,0.0018
1911.00,0.0018
1910.00,0.0018
1909.00,0.0018
1908.00,0.0018
1907.00,0.0019
1906.00,0.0019
1905.00,0.0018
1904.00,0.0018
1903.00,0.0017
1902.00,0.0016
1901.00,0.0016
1900.00,0.0016
1899.00,0.0017
1898.00,0.0018
1897.00,0.0019
1896.00,0.0020
1895.00,0.0020
1894.00,0.0019
1893.00,0.0020
1892.00,0.0020
1891.00,0.0021
1890.00,0.0020
1889.00,0.0019
1888.00,0.0018
1887.00,0.0018
1886.00,0.0018
1885.00,0.0018
1884.00,0.0018
1883.00,0.0018
1882.00,0.0018
1881.00,0.0018
1880.00,0.0019
1879.00,0.0019
1878.00,0.0019
1877.00,0.0019
1876.00,0.0020
1875.00,0.0020
1874.00,0.0019
1873.00,0.0020
1872.00,0.0021
1871.00,0.0022
1870.00,0.0022
1869.00,0.0021
1868.00,0.0020
1867.00,0.0019
1866.00,0.0019
1865.00,0.0019
1864.00,0.0019
1863.00,0.0019
1862.00,0.0019
1861.00,0.0019
1860.00,0.0020
1859.00,0.0020
1858.00,0.0021
1857.00,0.0021
1856.00,0.0022
1855.00,0.0022
1854.00,0.0022
1853.00,0.0021
1852.00,0.0021
1851.00,0.0021
1850.00,0.0022
1849.00,0.0022
1848.00,0.0023
1847.00,0.0025
1846.00,0.0025
1845.00,0.0024
1844.00,0.0021
1843.00,0.0018
1842.00,0.0017
1841.00,0.0019
1840.00,0.0021
1839.00,0.0023
1838.00,0.0023
1837.00,0.0023
1836.00,0.0023
1835.00,0.0023
1834.00,0.0023
1833.00,0.0024
1832.00,0.0026
1831.00,0.0026
1830.00,0.0026
1829.00,0.0024
1828.00,0.0024
1827.00,0.0025
1826.00,0.0025
1825.00,0.0025
1824.00,0.0025
1823.00,0.0024
1822.00,0.0024
1821.00,0.0025
1820.00,0.0024
1819.00,0.0024
1818.00,0.0023
1817.00,0.0023
1816.00,0.0024
1815.00,0.0024
1814.00,0.0026
1813.00,0.0027
1812.00,0.0028
1811.00,0.0028
1810.00,0.0028
1809.00,0.0027
1808.00,0.0028
1807.00,0.0028
1806.00,0.0029
1805.00,0.0030
1804.00,0.0031
1803.00,0.0032
1802.00,0.0032
1801.00,0.0032
1800.00,0.0032
1799.00,0.0031
1798.00,0.0031
1797.00,0.0032
1796.00,0.0034
1795.00,0.0036
1794.00,0.0036
1793.00,0.0035
1792.00,0.0033
1791.00,0.0030
1790.00,0.0029
1789.00,0.0030
1788.00,0.0033
1787.00,0.0035
1786.00,0.0035
1785.00,0.0035
1784.00,0.0035
1783.00,0.0036
1782.00,0.0037
1781.00,0.0038
1780.00,0.0039
1779.00,0.0038
1778.00,0.0038
1777.00,0.0039
1776.00,0.0041
1775.00,0.0043
1774.00,0.0045
1773.00,0.0044
1772.00,0.0042
1771.00,0.0040
1770.00,0.0039
1769.00,0.0040
1768.00,0.0041
1767.00,0.0042
1766.00,0.0043
1765.00,0.0045
1764.00,0.0049
1763.00,0.0050
1762.00,0.0050
1761.00,0.0049
1760.00,0.0050
1759.00,0.0053
1758.00,0.0055
1757.00,0.0057
1756.00,0.0058
1755.00,0.0059
1754.00,0.0062
1753.00,0.0066
1752.00,0.0069
1751.00,0.0070
1750.00,0.0071
1749.00,0.0074
1748.00,0.0078
1747.00,0.0081
1746.00,0.0084
1745.00,0.0087
1744.00,0.0091
1743.00,0.0094
1742.00,0.0097
1741.00,0.0100
1740.00,0.0103
1739.00,0.0105
1738.00,0.0107
1737.00,0.0112
1736.00,0.0117
1735.00,0.0120
1734.00,0.0120
1733.00,0.0119
1732.00,0.0122
1731.00,0.0128
1730.00,0.0134
1729.00,0.0138
1728.00,0.0141
1727.00,0.0144
1726.00,0.0147
1725.00,0.0150
1724.00,0.0153
1723.00,0.0156
1722.00,0.0159
1721.00,0.0162
1720.00,0.0166
1719.00,0.0169
1718.00,0.0171
1717.00,0.0172
1716.00,0.0174
1715.00,0.0177
1714.00,0.0180
1713.00,0.0184
1712.00,0.0190
1711.00,0.0196
1710.00,0.0201
1709.00,0.0207
1708.00,0.0215
1707.00,0.0224
1706.00,0.0235
1705.00,0.0246
1704.00,0.0257
1703.00,0.0268
1702.00,0.0281
1701.00,0.0302
1700.00,0.0328
1699.00,0.0349
1698.00,0.0366
1697.00,0.0384
1696.00,0.0402
1695.00,0.0414
1694.00,0.0422
1693.00,0.0429
1692.00,0.0437
1691.00,0.0446
1690.00,0.0455
1689.00,0.0465
1688.00,0.0473
1687.00,0.0480
1686.00,0.0487
1685.00,0.0502
1684.00,0.0523
1683.00,0.0539
1682.00,0.0549
1681.00,0.0559
1680.00,0.0571
1679.00,0.0581
1678.00,0.0590
1677.00,0.0599
1676.00,0.0613
1675.00,0.0629
1674.00,0.0643
1673.00,0.0654
1672.00,0.0664
1671.00,0.0677
1670.00,0.0694
1669.00,0.0713
1668.00,0.0729
1667.00,0.0739
1666.00,0.0747
1665.00,0.0756
1664.00,0.0769
1663.00,0.0786
1662.00,0.0804
1661.00,0.0819
1660.00,0.0831
1659.00,0.0841
1658.00,0.0849
1657.00,0.0853
1656.00,0.0855
1655.00,0.0858
1654.00,0.0877
1653.00,0.0913
1652.00,0.0935
1651.00,0.0937
1650.00,0.0934
1649.00,0.0932
1648.00,0.0938
1647.00,0.0953
1646.00,0.0968
1645.00,0.0974
1644.00,0.0977
1643.00,0.0978
1642.00,0.0980
1641.00,0.0984
1640.00,0.0988
1639.00,0.0991
1638.00,0.0994
1637.00,0.1005
1636.00,0.1030
1635.00,0.1058
1634.00,0.1076
1633.00,0.1085
1632.00,0.1094
1631.00,0.1104
1630.00,0.1117
1629.00,0.1136
1628.00,0.1157
1627.00,0.1177
1626.00,0.1191
1625.00,0.1203
1624.00,0.1220
1623.00,0.1240
1622.00,0.1253
1621.00,0.1253
1620.00,0.1245
1619.00,0.1233
1618.00,0.1223
1617.00,0.1216
1616.00,0.1206
1615.00,0.1188
1614.00,0.1162
1613.00,0.1132
1612.00,0.1099
1611.00,0.1066
1610.00,0.1033
1609.00,0.0999
1608.00,0.0965
1607.00,0.0931
1606.00,0.0899
1605.00,0.0867
1604.00,0.0837
1603.00,0.0809
1602.00,0.0783
1601.00,0.0758
1600.00,0.0735
1599.00,0.0714
1598.00,0.0694
1597.00,0.0677
1596.00,0.0660
1595.00,0.0645
1594.00,0.0631
1593.00,0.0618
1592.00,0.0605
1591.00,0.0593
1590.00,0.0584
1589.00,0.0576
1588.00,0.0567
1587.00,0.0561
1586.00,0.0556
1585.00,0.0553
1584.00,0.0549
1583.00,0.0548
1582.00,0.0547
1581.00,0.0548
1580.00,0.0547
1579.00,0.0548
1578.00,0.0550
1577.00,0.0556
1576.00,0.0564
1575.00,0.0572
1574.00,0.0577
1573.00,0.0582
1572.00,0.0586
1571.00,0.0593
1570.00,0.0606
1569.00,0.0620
1568.00,0.0630
1567.00,0.0638
1566.00,0.0648
1565.00,0.0660
1564.00,0.0669
1563.00,0.0676
1562.00,0.0678
1561.00,0.0679
1560.00,0.0692
1559.00,0.0727
1558.00,0.0759
1557.00,0.0770
1556.00,0.0777
1555.00,0.0788
1554.00,0.0801
1553.00,0.0813
1552.00,0.0824
1551.00,0.0836
1550.00,0.0851
1549.00,0.0865
1548.00,0.0874
1547.00,0.0880
1546.00,0.0888
1545.00,0.0898
1544.00,0.0909
1543.00,0.0918
1542.00,0.0927
1541.00,0.0944
1540.00,0.0970
1539.00,0.0991
1538.00,0.0999
1537.00,0.0999
1536.00,0.0997
1535.00,0.1000
1534.00,0.1012
1533.00,0.1029
1532.00,0.1039
1531.00,0.1042
1530.00,0.1043
1529.00,0.1044
1528.00,0.1047
1527.00,0.1053
1526.00,0.1059
1525.00,0.1061
1524.00,0.1060
1523.00,0.1059
1522.00,0.1067
1521.00,0.1079
1520.00,0.1085
1519.00,0.1084
1518.00,0.1084
1517.00,0.1088
1516.00,0.1091
1515.00,0.1086
1514.00,0.1074
1513.00,0.1060
1512.00,0.1044
1511.00,0.1027
1510.00,0.1008
1509.00,0.0989
1508.00,0.0972
1507.00,0.0962
1506.00,0.0950
1505.00,0.0929
1504.00,0.0907
1503.00,0.0886
1502.00,0.0865
1501.00,0.0845
1500.00,0.0825
1499.00,0.0806
1498.00,0.0788
1497.00,0.0770
1496.00,0.0751
1495.00,0.0732
1494.00,0.0713
1493.00,0.0694
1492.00,0.0675
1491.00,0.0657
1490.00,0.0641
1489.00,0.0626
1488.00,0.0610
1487.00,0.0594
1486.00,0.0579
1485.00,0.0565
1484.00,0.0552
1483.00,0.0542
1482.00,0.0532
1481.00,0.0524
1480.00,0.0517
1479.00,0.0512
1478.00,0.0508
1477.00,0.0506
1476.00,0.0507
1475.00,0.0509
1474.00,0.0512
1473.00,0.0520
1472.00,0.0529
1471.00,0.0535
1470.00,0.0539
1469.00,0.0541
1468.00,0.0542
1467.00,0.0543
1466.00,0.0544
1465.00,0.0546
1464.00,0.0548
1463.00,0.0550
1462.00,0.0551
1461.00,0.0551
1460.00,0.0553
1459.00,0.0557
1458.00,0.0565
1457.00,0.0577
1456.00,0.0586
1455.00,0.0589
1454.00,0.0591
1453.00,0.0592
1452.00,0.0593
1451.00,0.0593
1450.00,0.0593
1449.00,0.0593
1448.00,0.0593
1447.00,0.0593
1446.00,0.0591
1445.00,0.0588
1444.00,0.0586
1443.00,0.0583
1442.00,0.0581
1441.00,0.0577
1440.00,0.0572
1439.00,0.0567
1438.00,0.0562
1437.00,0.0557
1436.00,0.0552
1435.00,0.0546
1434.00,0.0540
1433.00,0.0534
1432.00,0.0527
1431.00,0.0521
1430.00,0.0516
1429.00,0.0511
1428.00,0.0507
1427.00,0.0504
1426.00,0.0503
1425.00,0.0503
1424.00,0.0504
1423.00,0.0506
1422.00,0.0507
1421.00,0.0507
1420.00,0.0510
1419.00,0.0517
1418.00,0.0525
1417.00,0.0530
1416.00,0.0534
1415.00,0.0539
1414.00,0.0543
1413.00,0.0548
1412.00,0.0552
1411.00,0.0557
1410.00,0.0561
1409.00,0.0564
1408.00,0.0566
1407.00,0.0569
1406.00,0.0572
1405.00,0.0575
1404.00,0.0578
1403.00,0.0579
1402.00,0.0580
1401.00,0.0580
1400.00,0.0581
1399.00,0.0584
1398.00,0.0586
1397.00,0.0587
1396.00,0.0588
1395.00,0.0590
1394.00,0.0592
1393.00,0.0592
1392.00,0.0592
1391.00,0.0592
1390.00,0.0592
1389.00,0.0591
1388.00,0.0590
1387.00,0.0590
1386.00,0.0587
1385.00,0.0583
1384.00,0.0578
1383.00,0.0573
1382.00,0.0567
1381.00,0.0561
1380.00,0.0555
1379.00,0.0550
1378.00,0.0545
1377.00,0.0541
1376.00,0.0538
1375.00,0.0535
1374.00,0.0533
1373.00,0.0531
1372.00,0.0528
1371.00,0.0526
1370.00,0.0523
1369.00,0.0521
1368.00,0.0517
1367.00,0.0511
1366.00,0.0505
1365.00,0.0500
1364.00,0.0494
1363.00,0.0490
1362.00,0.0487
1361.00,0.0483
1360.00,0.0479
1359.00,0.0476
1358.00,0.0473
1357.00,0.0472
1356.00,0.0470
1355.00,0.0469
1354.00,0.0468
1353.00,0.0466
1352.00,0.0465
1351.00,0.0465
1350.00,0.0465
1349.00,0.0465
1348.00,0.0464
1347.00,0.0464
1346.00,0.0463
1345.00,0.0463
1344.00,0.0463
1343.00,0.0462
1342.00,0.0462
1341.00,0.0462
1340.00,0.0462
1339.00,0.0462
1338.00,0.0462
1337.00,0.0460
1336.00,0.0458
1335.00,0.0456
1334.00,0.0454
1333.00,0.0452
1332.00,0.0451
1331.00,0.0450
1330.00,0.0449
1329.00,0.0449
1328.00,0.0448
1327.00,0.0448
1326.00,0.0448
1325.00,0.0448
1324.00,0.0449
1323.00,0.0449
1322.00,0.0450
1321.00,0.0451
1320.00,0.0452
1319.00,0.0453
1318.00,0.0455
1317.00,0.0455
1316.00,0.0455
1315.00,0.0456
1314.00,0.0456
1313.00,0.0456
1312.00,0.0456
1311.00,0.0456
1310.00,0.0455
1309.00,0.0455
1308.00,0.0455
1307.00,0.0454
1306.00,0.0454
1305.00,0.0454
1304.00,0.0453
1303.00,0.0453
1302.00,0.0453
1301.00,0.0453
1300.00,0.0453
1299.00,0.0454
1298.00,0.0455
1297.00,0.0457
1296.00,0.0458
1295.00,0.0460
1294.00,0.0462
1293.00,0.0464
1292.00,0.0466
1291.00,0.0468
1290.00,0.0470
1289.00,0.0472
1288.00,0.0473
1287.00,0.0475
1286.00,0.0477
1285.00,0.0479
1284.00,0.0481
1283.00,0.0483
1282.00,0.0484
1281.00,0.0486
1280.00,0.0487
1279.00,0.0488
1278.00,0.0489
1277.00,0.0489
1276.00,0.0490
1275.00,0.0491
1274.00,0.0491
1273.00,0.0492
1272.00,0.0494
1271.00,0.0496
1270.00,0.0498
1269.00,0.0500
1268.00,0.0502
1267.00,0.0505
1266.00,0.0508
1265.00,0.0512
1264.00,0.0515
1263.00,0.0519
1262.00,0.0524
1261.00,0.0528
1260.00,0.0532
1259.00,0.0537
1258.00,0.0542
1257.00,0.0546
1256.00,0.0551
1255.00,0.0556
1254.00,0.0561
1253.00,0.0566
1252.00,0.0570
1251.00,0.0575
1250.00,0.0580
1249.00,0.0585
1248.00,0.0590
1247.00,0.0595
1246.00,0.0600
1245.00,0.0605
1244.00,0.0609
1243.00,0.0614
1242.00,0.0619
1241.00,0.0623
1240.00,0.0628
1239.00,0.0632
1238.00,0.0637
1237.00,0.0641
1236.00,0.0644
1235.00,0.0647
1234.00,0.0649
1233.00,0.0651
1232.00,0.0653
1231.00,0.0655
1230.00,0.0656
1229.00,0.0656
1228.00,0.0655
1227.00,0.0654
1226.00,0.0653
1225.00,0.0652
1224.00,0.0650
1223.00,0.0648
1222.00,0.0646
1221.00,0.0643
1220.00,0.0639
1219.00,0.0636
1218.00,0.0631
1217.00,0.0626
1216.00,0.0621
1215.00,0.0615
1214.00,0.0609
1213.00,0.0603
1212.00,0.0597
1211.00,0.0590
1210.00,0.0584
1209.00,0.0577
1208.00,0.0571
1207.00,0.0565
1206.00,0.0559
1205.00,0.0554
1204.00,0.0548
1203.00,0.0543
1202.00,0.0538
1201.00,0.0533
1200.00,0.0528
1199.00,0.0523
1198.00,0.0520
1197.00,0.0516
1196.00,0.0513
1195.00,0.0509
1194.00,0.0506
1193.00,0.0504
1192.00,0.0501
1191.00,0.0498
1190.00,0.0496
1189.00,0.0494
1188.00,0.0492
1187.00,0.0490
1186.00,0.0489
1185.00,0.0487
1184.00,0.0486
1183.00,0.0486
1182.00,0.0486
1181.00,0.0487
1180.00,0.0488
1179.00,0.0489
1178.00,0.0491
1177.00,0.0494
1176.00,0.0496
1175.00,0.0499
1174.00,0.0503
1173.00,0.0506
1172.00,0.0509
1171.00,0.0511
1170.00,0.0513
1169.00,0.0514
1168.00,0.0515
1167.00,0.0516
1166.00,0.0518
1165.00,0.0520
1164.00,0.0521
1163.00,0.0523
1162.00,0.0526
1161.00,0.0528
1160.00,0.0530
1159.00,0.0531
1158.00,0.0533
1157.00,0.0534
1156.00,0.0534
1155.00,0.0533
1154.00,0.0531
1153.00,0.0529
1152.00,0.0527
1151.00,0.0523
1150.00,0.0520
1149.00,0.0516
1148.00,0.0511
1147.00,0.0506
1146.00,0.0501
1145.00,0.0496
1144.00,0.0491
1143.00,0.0487
1142.00,0.0483
1141.00,0.0479
1140.00,0.0475
1139.00,0.0472
1138.00,0.0470
1137.00,0.0468
1136.00,0.0467
1135.00,0.0466
1134.00,0.0466
1133.00,0.0466
1132.00,0.0466
1131.00,0.0467
1130.00,0.0469
1129.00,0.0472
1128.00,0.0474
1127.00,0.0476
1126.00,0.0478
1125.00,0.0480
1124.00,0.0481
1123.00,0.0483
1122.00,0.0484
1121.00,0.0486
1120.00,0.0487
1119.00,0.0489
1118.00,0.0491
1117.00,0.0492
1116.00,0.0493
1115.00,0.0495
1114.00,0.0496
1113.00,0.0497
1112.00,0.0498
1111.00,0.0500
1110.00,0.0502
1109.00,0.0503
1108.00,0.0504
1107.00,0.0506
1106.00,0.0507
1105.00,0.0509
1104.00,0.0510
1103.00,0.0513
1102.00,0.0515
1101.00,0.0518
1100.00,0.0520
1099.00,0.0523
1098.00,0.0525
1097.00,0.0528
1096.00,0.0532
1095.00,0.0536
1094.00,0.0542
1093.00,0.0547
1092.00,0.0552
1091.00,0.0558
1090.00,0.0565
1089.00,0.0571
1088.00,0.0578
1087.00,0.0586
1086.00,0.0595
1085.00,0.0603
1084.00,0.0611
1083.00,0.0618
1082.00,0.0625
1081.00,0.0631
1080.00,0.0636
1079.00,0.0641
1078.00,0.0644
1077.00,0.0646
1076.00,0.0647
1075.00,0.0647
1074.00,0.0647
1073.00,0.0646
1072.00,0.0645
1071.00,0.0644
1070.00,0.0644
1069.00,0.0645
1068.00,0.0646
1067.00,0.0648
1066.00,0.0650
1065.00,0.0652
1064.00,0.0655
1063.00,0.0658
1062.00,0.0661
1061.00,0.0665
1060.00,0.0667
1059.00,0.0669
1058.00,0.0672
1057.00,0.0673
1056.00,0.0673
1055.00,0.0674
1054.00,0.0674
1053.00,0.0674
1052.00,0.0673
1051.00,0.0672
1050.00,0.0672
1049.00,0.0671
1048.00,0.0670
1047.00,0.0668
1046.00,0.0667
1045.00,0.0666
1044.00,0.0664
1043.00,0.0662
1042.00,0.0661
1041.00,0.0659
1040.00,0.0656
1039.00,0.0654
1038.00,0.0652
1037.00,0.0650
1036.00,0.0648
1035.00,0.0647
1034.00,0.0647
1033.00,0.0646
1032.00,0.0645
1031.00,0.0644
1030.00,0.0644
1029.00,0.0642
1028.00,0.0640
1027.00,0.0638
1026.00,0.0635
1025.00,0.0633
1024.00,0.0629
1023.00,0.0625
1022.00,0.0621
1021.00,0.0616
1020.00,0.0611
1019.00,0.0605
1018.00,0.0600
1017.00,0.0594
1016.00,0.0588
1015.00,0.0582
1014.00,0.0577
1013.00,0.0571
1012.00,0.0565
1011.00,0.0558
1010.00,0.0552
1009.00,0.0545
1008.00,0.0538
1007.00,0.0532
1006.00,0.0526
1005.00,0.0521
1004.00,0.0515
1003.00,0.0510
1002.00,0.0505
1001.00,0.0499
1000.00,0.0493
999.00,0.0488
998.00,0.0482
997.00,0.0477
996.00,0.0471
995.00,0.0464
994.00,0.0458
993.00,0.0451
992.00,0.0444
991.00,0.0438
990.00,0.0432
989.00,0.0426
988.00,0.0420
987.00,0.0414
986.00,0.0409
985.00,0.0405
984.00,0.0400
983.00,0.0397
982.00,0.0394
981.00,0.0391
980.00,0.0389
979.00,0.0388
978.00,0.0388
977.00,0.0387
976.00,0.0387
975.00,0.0388
974.00,0.0388
973.00,0.0389
972.00,0.0389
971.00,0.0390
970.00,0.0391
969.00,0.0391
968.00,0.0391
967.00,0.0391
966.00,0.0392
965.00,0.0392
964.00,0.0391
963.00,0.0391
962.00,0.0391
961.00,0.0390
960.00,0.0389
959.00,0.0388
958.00,0.0388
957.00,0.0387
956.00,0.0386
955.00,0.0384
954.00,0.0384
953.00,0.0383
952.00,0.0383
951.00,0.0382
950.00,0.0383
949.00,0.0383
948.00,0.0383
947.00,0.0384
946.00,0.0384
945.00,0.0385
944.00,0.0386
943.00,0.0387
942.00,0.0389
941.00,0.0391
940.00,0.0393
939.00,0.0394
938.00,0.0397
937.00,0.0398
936.00,0.0400
935.00,0.0401
934.00,0.0402
933.00,0.0403
932.00,0.0403
931.00,0.0402
930.00,0.0402
929.00,0.0402
928.00,0.0401
927.00,0.0401
926.00,0.0400
925.00,0.0400
924.00,0.0398
923.00,0.0397
922.00,0.0396
921.00,0.0394
920.00,0.0392
919.00,0.0391
918.00,0.0389
917.00,0.0388
916.00,0.0386
915.00,0.0385
914.00,0.0384
913.00,0.0382
912.00,0.0381
911.00,0.0379
910.00,0.0378
909.00,0.0377
908.00,0.0375
907.00,0.0374
906.00,0.0374
905.00,0.0374
904.00,0.0373
903.00,0.0372
902.00,0.0372
901.00,0.0370
900.00,0.0369
899.00,0.0367
898.00,0.0367
897.00,0.0367
896.00,0.0366
895.00,0.0366
894.00,0.0366
893.00,0.0366
892.00,0.0365
891.00,0.0365
890.00,0.0365
889.00,0.0365
888.00,0.0365
887.00,0.0364
886.00,0.0364
885.00,0.0364
884.00,0.0363
883.00,0.0362
882.00,0.0363
881.00,0.0363
880.00,0.0363
879.00,0.0362
878.00,0.0363
877.00,0.0362
876.00,0.0361
875.00,0.0360
874.00,0.0359
873.00,0.0359
872.00,0.0358
871.00,0.0357
870.00,0.0357
869.00,0.0357
868.00,0.0357
867.00,0.0358
866.00,0.0359
865.00,0.0361
864.00,0.0362
863.00,0.0363
862.00,0.0365
861.00,0.0367
860.00,0.0369
859.00,0.0370
858.00,0.0373
857.00,0.0376
856.00,0.0379
855.00,0.0381
854.00,0.0384
853.00,0.0386
852.00,0.0387
851.00,0.0388
850.00,0.0389
849.00,0.0389
848.00,0.0389
847.00,0.0389
846.00,0.0390
845.00,0.0391
844.00,0.0392
843.00,0.0394
842.00,0.0396
841.00,0.0399
840.00,0.0401
839.00,0.0403
838.00,0.0406
837.00,0.0409
836.00,0.0412
835.00,0.0415
834.00,0.0418
833.00,0.0421
832.00,0.0423
831.00,0.0425
830.00,0.0428
829.00,0.0430
828.00,0.0432
827.00,0.0433
826.00,0.0435
825.00,0.0436
824.00,0.0437
823.00,0.0438
822.00,0.0440
821.00,0.0441
820.00,0.0442
819.00,0.0443
818.00,0.0445
817.00,0.0447
816.00,0.0449
815.00,0.0450
814.00,0.0453
813.00,0.0455
812.00,0.0456
811.00,0.0459
810.00,0.0462
809.00,0.0464
808.00,0.0466
807.00,0.0468
806.00,0.0470
805.00,0.0472
804.00,0.0474
803.00,0.0477
802.00,0.0480
801.00,0.0483
800.00,0.0485
799.00,0.0488
798.00,0.0492
797.00,0.0496
796.00,0.0499
795.00,0.0502
794.00,0.0506
793.00,0.0510
792.00,0.0515
791.00,0.0520
790.00,0.0525
789.00,0.0529
788.00,0.0534
787.00,0.0538
786.00,0.0543
785.00,0.0548
784.00,0.0551
783.00,0.0555
782.00,0.0559
781.00,0.0562
780.00,0.0564
779.00,0.0566
778.00,0.0568
777.00,0.0569
776.00,0.0570
775.00,0.0572
774.00,0.0574
773.00,0.0576
772.00,0.0578
771.00,0.0580
770.00,0.0582
769.00,0.0585
768.00,0.0586
767.00,0.0588
766.00,0.0590
765.00,0.0592
764.00,0.0594
763.00,0.0595
762.00,0.0598
761.00,0.0601
760.00,0.0603
759.00,0.0606
758.00,0.0609
757.00,0.0612
756.00,0.0615
755.00,0.0617
754.00,0.0620
753.00,0.0624
752.00,0.0627
751.00,0.0631
750.00,0.0636
749.00,0.0640
748.00,0.0644
747.00,0.0648
746.00,0.0652
745.00,0.0654
744.00,0.0656
743.00,0.0659
742.00,0.0662
741.00,0.0665
740.00,0.0667
739.00,0.0670
738.00,0.0673
737.00,0.0676
736.00,0.0679
735.00,0.0683
734.00,0.0687
733.00,0.0692
732.00,0.0696
731.00,0.0701
730.00,0.0707
729.00,0.0714
728.00,0.0721
727.00,0.0728
726.00,0.0736
725.00,0.0745
724.00,0.0752
723.00,0.0761
722.00,0.0769
721.00,0.0777
720.00,0.0784
719.00,0.0791
718.00,0.0798
717.00,0.0805
716.00,0.0810
715.00,0.0816
714.00,0.0822
713.00,0.0828
712.00,0.0834
711.00,0.0841
710.00,0.0848
709.00,0.0856
708.00,0.0864
707.00,0.0872
706.00,0.0881
705.00,0.0890
704.00,0.0898
703.00,0.0905
702.00,0.0913
701.00,0.0919
700.00,0.0924
699.00,0.0928
698.00,0.0931
697.00,0.0932
696.00,0.0932
695.00,0.0931
694.00,0.0931
693.00,0.0930
692.00,0.0930
691.00,0.0929
690.00,0.0930
689.00,0.0931
688.00,0.0931
687.00,0.0932
686.00,0.0934
685.00,0.0937
684.00,0.0939
683.00,0.0940
682.00,0.0942
681.00,0.0944
680.00,0.0944
679.00,0.0946
678.00,0.0948
677.00,0.0951
676.00,0.0952
675.00,0.0954
674.00,0.0956
673.00,0.0958
672.00,0.0957
671.00,0.0955
670.00,0.0955
669.00,0.0960
668.00,0.0970
667.00,0.0981
666.00,0.0985
665.00,0.0982
664.00,0.0979
663.00,0.0979
662.00,0.0982
661.00,0.0984
660.00,0.0986
659.00,0.0988
658.00,0.0991
657.00,0.0994
656.00,0.0995
655.00,0.0997
654.00,0.0999
653.00,0.1001
652.00,0.1003
651.00,0.1005
650.00,0.1008
649.00,0.1010
648.00,0.1011
647.00,0.1013
646.00,0.1017
645.00,0.1020
644.00,0.1022
643.00,0.1024
642.00,0.1027
641.00,0.1030
640.00,0.1032
639.00,0.1034
638.00,0.1038
637.00,0.1042
636.00,0.1044
635.00,0.1047
634.00,0.1051
633.00,0.1055
632.00,0.1058
631.00,0.1061
630.00,0.1063
629.00,0.1065
628.00,0.1067
627.00,0.1069
626.00,0.1073
625.00,0.1075
624.00,0.1076
623.00,0.1077
622.00,0.1079
621.00,0.1080
620.00,0.1081
619.00,0.1081
618.00,0.1082
617.00,0.1084
616.00,0.1084
615.00,0.1086
614.00,0.1089
613.00,0.1091
612.00,0.1091
611.00,0.1091
610.00,0.1093
609.00,0.1094
608.00,0.1095
607.00,0.1096
606.00,0.1097
605.00,0.1097
604.00,0.1096
603.00,0.1096
602.00,0.1098
601.00,0.1100
600.00,0.1102
599.00,0.1103
598.00,0.1106
597.00,0.1108
596.00,0.1109
595.00,0.1110
594.00,0.1113
593.00,0.1114
592.00,0.1115
591.00,0.1115
590.00,0.1117
589.00,0.1119
588.00,0.1121
587.00,0.1124
586.00,0.1129
585.00,0.1133
584.00,0.1134
583.00,0.1135
582.00,0.1138
581.00,0.1141
580.00,0.1142
579.00,0.1144
578.00,0.1148
577.00,0.1151
576.00,0.1155
575.00,0.1158
574.00,0.1162
573.00,0.1165
572.00,0.1166
571.00,0.1167
570.00,0.1170
569.00,0.1172
568.00,0.1173
567.00,0.1174
566.00,0.1178
565.00,0.1182
564.00,0.1184
563.00,0.1186
562.00,0.1188
561.00,0.1190
560.00,0.1190
559.00,0.1192
558.00,0.1197
557.00,0.1201
556.00,0.1203
555.00,0.1206
554.00,0.1209
553.00,0.1212
552.00,0.1213
551.00,0.1214
550.00,0.1218
549.00,0.1221
548.00,0.1222
547.00,0.1223
546.00,0.1226
545.00,0.1230
544.00,0.1232
543.00,0.1234
542.00,0.1237
541.00,0.1240
540.00,0.1239
539.00,0.1239
538.00,0.1241
537.00,0.1243
536.00,0.1244
535.00,0.1247
534.00,0.1250
533.00,0.1253
532.00,0.1253
531.00,0.1254
530.00,0.1257
529.00,0.1260
528.00,0.1261
527.00,0.1262
526.00,0.1265
525.00,0.1267
524.00,0.1268
523.00,0.1268
522.00,0.1271
521.00,0.1274
520.00,0.1274
519.00,0.1274
518.00,0.1276
517.00,0.1277
516.00,0.1276
515.00,0.1275
514.00,0.1277
513.00,0.1278
512.00,0.1277
511.00,0.1278
510.00,0.1281
509.00,0.1283
508.00,0.1282
507.00,0.1280
506.00,0.1280
505.00,0.1279
504.00,0.1277
503.00,0.1277
502.00,0.1280
501.00,0.1282
500.00,0.1281
499.00,0.1280
498.00,0.1283
497.00,0.1285
496.00,0.1283
495.00,0.1282
494.00,0.1284
493.00,0.1285
492.00,0.1282
491.00,0.1281
490.00,0.1282
489.00,0.1283
488.00,0.1280
487.00,0.1277
486.00,0.1276
485.00,0.1274
484.00,0.1271
483.00,0.1269
482.00,0.1271
481.00,0.1273
480.00,0.1272
479.00,0.1272
478.00,0.1274
477.00,0.1272
476.00,0.1265
475.00,0.1261
474.00,0.1263
473.00,0.1268
472.00,0.1271
471.00,0.1273
470.00,0.1277
469.00,0.1277
468.00,0.1271
467.00,0.1269
466.00,0.1273
465.00,0.1277
464.00,0.1276
463.00,0.1276
462.00,0.1280
461.00,0.1284
460.00,0.1282
459.00,0.1281
458.00,0.1284
457.00,0.1283
456.00,0.1274
455.00,0.1266
454.00,0.1265
453.00,0.1266
452.00,0.1263
451.00,0.1261
450.00,0.1263
449.00,0.1263
448.00,0.1258
447.00,0.1253
446.00,0.1254
445.00,0.1255
444.00,0.1254
443.00,0.1258
442.00,0.1266
441.00,0.1267
440.00,0.1258
439.00,0.1247
438.00,0.1243
437.00,0.1244
436.00,0.1244
435.00,0.1245
434.00,0.1252
433.00,0.1254
432.00,0.1249
431.00,0.1243
430.00,0.1245
429.00,0.1249
428.00,0.1247
427.00,0.1244
426.00,0.1247
425.00,0.1250
424.00,0.1248
423.00,0.1244
422.00,0.1245
421.00,0.1242
420.00,0.1232
419.00,0.1230
418.00,0.1245
417.00,0.1256
416.00,0.1255
415.00,0.1255
414.00,0.1261
413.00,0.1262
412.00,0.1250
411.00,0.1236
410.00,0.1234
409.00,0.1232
408.00,0.1222
407.00,0.1218
406.00,0.1229
405.00,0.1238
404.00,0.1227
403.00,0.1209
402.00,0.1206
401.00,0.1208
400.00,0.1204
