Created as New Dataset,Sample 773 By YargerLab Date Monday, July 07 2025
cm-1,A
4000.00,0.0049
3999.00,0.0048
3998.00,0.0048
3997.00,0.0048
3996.00,0.0048
3995.00,0.0048
3994.00,0.0049
3993.00,0.0049
3992.00,0.0049
3991.00,0.0049
3990.00,0.0049
3989.00,0.0049
3988.00,0.0049
3987.00,0.0049
3986.00,0.0049
3985.00,0.0049
3984.00,0.0049
3983.00,0.0049
3982.00,0.0049
3981.00,0.0049
3980.00,0.0048
3979.00,0.0048
3978.00,0.0048
3977.00,0.0048
3976.00,0.0048
3975.00,0.0048
3974.00,0.0048
3973.00,0.0048
3972.00,0.0049
3971.00,0.0049
3970.00,0.0049
3969.00,0.0049
3968.00,0.0049
3967.00,0.0049
3966.00,0.0049
3965.00,0.0049
3964.00,0.0049
3963.00,0.0049
3962.00,0.0049
3961.00,0.0049
3960.00,0.0050
3959.00,0.0050
3958.00,0.0050
3957.00,0.0050
3956.00,0.0050
3955.00,0.0050
3954.00,0.0049
3953.00,0.0049
3952.00,0.0049
3951.00,0.0048
3950.00,0.0048
3949.00,0.0048
3948.00,0.0048
3947.00,0.0048
3946.00,0.0048
3945.00,0.0048
3944.00,0.0048
3943.00,0.0048
3942.00,0.0049
3941.00,0.0049
3940.00,0.0049
3939.00,0.0049
3938.00,0.0049
3937.00,0.0048
3936.00,0.0048
3935.00,0.0048
3934.00,0.0048
3933.00,0.0048
3932.00,0.0048
3931.00,0.0049
3930.00,0.0049
3929.00,0.0049
3928.00,0.0049
3927.00,0.0049
3926.00,0.0049
3925.00,0.0049
3924.00,0.0049
3923.00,0.0048
3922.00,0.0048
3921.00,0.0048
3920.00,0.0048
3919.00,0.0048
3918.00,0.0048
3917.00,0.0049
3916.00,0.0049
3915.00,0.0049
3914.00,0.0049
3913.00,0.0049
3912.00,0.0049
3911.00,0.0049
3910.00,0.0049
3909.00,0.0049
3908.00,0.0049
3907.00,0.0049
3906.00,0.0049
3905.00,0.0049
3904.00,0.0048
3903.00,0.0048
3902.00,0.0048
3901.00,0.0048
3900.00,0.0048
3899.00,0.0048
3898.00,0.0048
3897.00,0.0048
3896.00,0.0048
3895.00,0.0048
3894.00,0.0048
3893.00,0.0048
3892.00,0.0049
3891.00,0.0049
3890.00,0.0049
3889.00,0.0048
3888.00,0.0048
3887.00,0.0048
3886.00,0.0048
3885.00,0.0048
3884.00,0.0048
3883.00,0.0048
3882.00,0.0048
3881.00,0.0048
3880.00,0.0048
3879.00,0.0048
3878.00,0.0049
3877.00,0.0049
3876.00,0.0048
3875.00,0.0048
3874.00,0.0048
3873.00,0.0048
3872.00,0.0048
3871.00,0.0048
3870.00,0.0048
3869.00,0.0048
3868.00,0.0048
3867.00,0.0048
3866.00,0.0048
3865.00,0.0048
3864.00,0.0048
3863.00,0.0048
3862.00,0.0048
3861.00,0.0048
3860.00,0.0048
3859.00,0.0048
3858.00,0.0048
3857.00,0.0048
3856.00,0.0048
3855.00,0.0048
3854.00,0.0048
3853.00,0.0048
3852.00,0.0048
3851.00,0.0048
3850.00,0.0047
3849.00,0.0047
3848.00,0.0048
3847.00,0.0048
3846.00,0.0048
3845.00,0.0048
3844.00,0.0048
3843.00,0.0048
3842.00,0.0048
3841.00,0.0048
3840.00,0.0048
3839.00,0.0048
3838.00,0.0048
3837.00,0.0048
3836.00,0.0048
3835.00,0.0048
3834.00,0.0048
3833.00,0.0048
3832.00,0.0048
3831.00,0.0048
3830.00,0.0049
3829.00,0.0049
3828.00,0.0049
3827.00,0.0049
3826.00,0.0049
3825.00,0.0049
3824.00,0.0049
3823.00,0.0048
3822.00,0.0048
3821.00,0.0049
3820.00,0.0048
3819.00,0.0048
3818.00,0.0048
3817.00,0.0048
3816.00,0.0048
3815.00,0.0048
3814.00,0.0048
3813.00,0.0048
3812.00,0.0048
3811.00,0.0048
3810.00,0.0048
3809.00,0.0048
3808.00,0.0048
3807.00,0.0048
3806.00,0.0048
3805.00,0.0048
3804.00,0.0048
3803.00,0.0048
3802.00,0.0048
3801.00,0.0048
3800.00,0.0048
3799.00,0.0048
3798.00,0.0048
3797.00,0.0048
3796.00,0.0048
3795.00,0.0048
3794.00,0.0048
3793.00,0.0048
3792.00,0.0049
3791.00,0.0049
3790.00,0.0049
3789.00,0.0049
3788.00,0.0049
3787.00,0.0049
3786.00,0.0049
3785.00,0.0049
3784.00,0.0049
3783.00,0.0048
3782.00,0.0048
3781.00,0.0048
3780.00,0.0048
3779.00,0.0048
3778.00,0.0048
3777.00,0.0048
3776.00,0.0048
3775.00,0.0049
3774.00,0.0049
3773.00,0.0049
3772.00,0.0049
3771.00,0.0049
3770.00,0.0049
3769.00,0.0049
3768.00,0.0049
3767.00,0.0049
3766.00,0.0049
3765.00,0.0049
3764.00,0.0049
3763.00,0.0048
3762.00,0.0048
3761.00,0.0048
3760.00,0.0048
3759.00,0.0048
3758.00,0.0048
3757.00,0.0048
3756.00,0.0048
3755.00,0.0048
3754.00,0.0048
3753.00,0.0048
3752.00,0.0048
3751.00,0.0048
3750.00,0.0048
3749.00,0.0048
3748.00,0.0047
3747.00,0.0047
3746.00,0.0047
3745.00,0.0047
3744.00,0.0047
3743.00,0.0047
3742.00,0.0047
3741.00,0.0047
3740.00,0.0047
3739.00,0.0047
3738.00,0.0048
3737.00,0.0048
3736.00,0.0048
3735.00,0.0047
3734.00,0.0047
3733.00,0.0046
3732.00,0.0046
3731.00,0.0046
3730.00,0.0047
3729.00,0.0047
3728.00,0.0047
3727.00,0.0048
3726.00,0.0048
3725.00,0.0048
3724.00,0.0048
3723.00,0.0048
3722.00,0.0048
3721.00,0.0048
3720.00,0.0047
3719.00,0.0047
3718.00,0.0047
3717.00,0.0047
3716.00,0.0047
3715.00,0.0047
3714.00,0.0047
3713.00,0.0047
3712.00,0.0048
3711.00,0.0048
3710.00,0.0047
3709.00,0.0047
3708.00,0.0047
3707.00,0.0047
3706.00,0.0047
3705.00,0.0047
3704.00,0.0046
3703.00,0.0046
3702.00,0.0046
3701.00,0.0046
3700.00,0.0045
3699.00,0.0045
3698.00,0.0045
3697.00,0.0045
3696.00,0.0045
3695.00,0.0046
3694.00,0.0046
3693.00,0.0046
3692.00,0.0046
3691.00,0.0045
3690.00,0.0045
3689.00,0.0044
3688.00,0.0044
3687.00,0.0044
3686.00,0.0044
3685.00,0.0044
3684.00,0.0044
3683.00,0.0044
3682.00,0.0045
3681.00,0.0045
3680.00,0.0045
3679.00,0.0044
3678.00,0.0044
3677.00,0.0043
3676.00,0.0043
3675.00,0.0043
3674.00,0.0042
3673.00,0.0042
3672.00,0.0042
3671.00,0.0042
3670.00,0.0042
3669.00,0.0042
3668.00,0.0042
3667.00,0.0042
3666.00,0.0042
3665.00,0.0042
3664.00,0.0042
3663.00,0.0042
3662.00,0.0042
3661.00,0.0041
3660.00,0.0041
3659.00,0.0042
3658.00,0.0042
3657.00,0.0042
3656.00,0.0041
3655.00,0.0041
3654.00,0.0041
3653.00,0.0042
3652.00,0.0042
3651.00,0.0042
3650.00,0.0042
3649.00,0.0042
3648.00,0.0042
3647.00,0.0042
3646.00,0.0042
3645.00,0.0043
3644.00,0.0043
3643.00,0.0044
3642.00,0.0044
3641.00,0.0044
3640.00,0.0044
3639.00,0.0044
3638.00,0.0044
3637.00,0.0044
3636.00,0.0045
3635.00,0.0046
3634.00,0.0046
3633.00,0.0047
3632.00,0.0047
3631.00,0.0046
3630.00,0.0046
3629.00,0.0047
3628.00,0.0047
3627.00,0.0047
3626.00,0.0047
3625.00,0.0048
3624.00,0.0048
3623.00,0.0049
3622.00,0.0049
3621.00,0.0049
3620.00,0.0049
3619.00,0.0049
3618.00,0.0049
3617.00,0.0050
3616.00,0.0050
3615.00,0.0051
3614.00,0.0051
3613.00,0.0052
3612.00,0.0052
3611.00,0.0052
3610.00,0.0052
3609.00,0.0052
3608.00,0.0053
3607.00,0.0053
3606.00,0.0053
3605.00,0.0053
3604.00,0.0053
3603.00,0.0053
3602.00,0.0053
3601.00,0.0054
3600.00,0.0054
3599.00,0.0053
3598.00,0.0053
3597.00,0.0053
3596.00,0.0054
3595.00,0.0054
3594.00,0.0054
3593.00,0.0054
3592.00,0.0054
3591.00,0.0054
3590.00,0.0054
3589.00,0.0054
3588.00,0.0054
3587.00,0.0054
3586.00,0.0054
3585.00,0.0054
3584.00,0.0055
3583.00,0.0055
3582.00,0.0056
3581.00,0.0056
3580.00,0.0056
3579.00,0.0057
3578.00,0.0057
3577.00,0.0057
3576.00,0.0057
3575.00,0.0058
3574.00,0.0058
3573.00,0.0058
3572.00,0.0059
3571.00,0.0059
3570.00,0.0059
3569.00,0.0059
3568.00,0.0060
3567.00,0.0060
3566.00,0.0060
3565.00,0.0061
3564.00,0.0061
3563.00,0.0061
3562.00,0.0062
3561.00,0.0062
3560.00,0.0063
3559.00,0.0063
3558.00,0.0064
3557.00,0.0064
3556.00,0.0064
3555.00,0.0065
3554.00,0.0065
3553.00,0.0066
3552.00,0.0066
3551.00,0.0067
3550.00,0.0067
3549.00,0.0067
3548.00,0.0068
3547.00,0.0068
3546.00,0.0069
3545.00,0.0070
3544.00,0.0070
3543.00,0.0071
3542.00,0.0071
3541.00,0.0072
3540.00,0.0072
3539.00,0.0073
3538.00,0.0073
3537.00,0.0074
3536.00,0.0074
3535.00,0.0075
3534.00,0.0076
3533.00,0.0076
3532.00,0.0077
3531.00,0.0077
3530.00,0.0078
3529.00,0.0078
3528.00,0.0079
3527.00,0.0080
3526.00,0.0080
3525.00,0.0080
3524.00,0.0081
3523.00,0.0082
3522.00,0.0082
3521.00,0.0083
3520.00,0.0084
3519.00,0.0085
3518.00,0.0086
3517.00,0.0086
3516.00,0.0087
3515.00,0.0088
3514.00,0.0089
3513.00,0.0089
3512.00,0.0090
3511.00,0.0091
3510.00,0.0091
3509.00,0.0092
3508.00,0.0093
3507.00,0.0094
3506.00,0.0095
3505.00,0.0096
3504.00,0.0097
3503.00,0.0098
3502.00,0.0099
3501.00,0.0100
3500.00,0.0101
3499.00,0.0102
3498.00,0.0103
3497.00,0.0104
3496.00,0.0105
3495.00,0.0106
3494.00,0.0107
3493.00,0.0108
3492.00,0.0109
3491.00,0.0110
3490.00,0.0112
3489.00,0.0113
3488.00,0.0114
3487.00,0.0115
3486.00,0.0117
3485.00,0.0118
3484.00,0.0119
3483.00,0.0121
3482.00,0.0122
3481.00,0.0123
3480.00,0.0125
3479.00,0.0126
3478.00,0.0127
3477.00,0.0128
3476.00,0.0130
3475.00,0.0131
3474.00,0.0133
3473.00,0.0134
3472.00,0.0136
3471.00,0.0137
3470.00,0.0138
3469.00,0.0140
3468.00,0.0141
3467.00,0.0143
3466.00,0.0144
3465.00,0.0145
3464.00,0.0147
3463.00,0.0148
3462.00,0.0149
3461.00,0.0151
3460.00,0.0152
3459.00,0.0153
3458.00,0.0154
3457.00,0.0155
3456.00,0.0156
3455.00,0.0157
3454.00,0.0158
3453.00,0.0159
3452.00,0.0160
3451.00,0.0161
3450.00,0.0162
3449.00,0.0162
3448.00,0.0163
3447.00,0.0164
3446.00,0.0164
3445.00,0.0165
3444.00,0.0166
3443.00,0.0167
3442.00,0.0167
3441.00,0.0168
3440.00,0.0169
3439.00,0.0170
3438.00,0.0170
3437.00,0.0170
3436.00,0.0171
3435.00,0.0171
3434.00,0.0171
3433.00,0.0171
3432.00,0.0172
3431.00,0.0172
3430.00,0.0172
3429.00,0.0173
3428.00,0.0173
3427.00,0.0173
3426.00,0.0173
3425.00,0.0173
3424.00,0.0174
3423.00,0.0174
3422.00,0.0174
3421.00,0.0174
3420.00,0.0174
3419.00,0.0174
3418.00,0.0175
3417.00,0.0175
3416.00,0.0175
3415.00,0.0175
3414.00,0.0175
3413.00,0.0175
3412.00,0.0175
3411.00,0.0175
3410.00,0.0175
3409.00,0.0175
3408.00,0.0175
3407.00,0.0175
3406.00,0.0175
3405.00,0.0175
3404.00,0.0176
3403.00,0.0176
3402.00,0.0176
3401.00,0.0177
3400.00,0.0177
3399.00,0.0177
3398.00,0.0177
3397.00,0.0177
3396.00,0.0177
3395.00,0.0177
3394.00,0.0177
3393.00,0.0177
3392.00,0.0177
3391.00,0.0177
3390.00,0.0177
3389.00,0.0177
3388.00,0.0177
3387.00,0.0177
3386.00,0.0177
3385.00,0.0177
3384.00,0.0177
3383.00,0.0177
3382.00,0.0177
3381.00,0.0178
3380.00,0.0178
3379.00,0.0178
3378.00,0.0178
3377.00,0.0178
3376.00,0.0178
3375.00,0.0178
3374.00,0.0178
3373.00,0.0179
3372.00,0.0179
3371.00,0.0179
3370.00,0.0179
3369.00,0.0179
3368.00,0.0179
3367.00,0.0179
3366.00,0.0179
3365.00,0.0179
3364.00,0.0179
3363.00,0.0180
3362.00,0.0180
3361.00,0.0180
3360.00,0.0180
3359.00,0.0180
3358.00,0.0180
3357.00,0.0180
3356.00,0.0181
3355.00,0.0181
3354.00,0.0181
3353.00,0.0181
3352.00,0.0181
3351.00,0.0181
3350.00,0.0181
3349.00,0.0182
3348.00,0.0182
3347.00,0.0182
3346.00,0.0182
3345.00,0.0182
3344.00,0.0182
3343.00,0.0182
3342.00,0.0182
3341.00,0.0182
3340.00,0.0182
3339.00,0.0182
3338.00,0.0183
3337.00,0.0183
3336.00,0.0183
3335.00,0.0183
3334.00,0.0184
3333.00,0.0184
3332.00,0.0184
3331.00,0.0184
3330.00,0.0184
3329.00,0.0184
3328.00,0.0184
3327.00,0.0184
3326.00,0.0183
3325.00,0.0183
3324.00,0.0184
3323.00,0.0184
3322.00,0.0184
3321.00,0.0185
3320.00,0.0185
3319.00,0.0185
3318.00,0.0185
3317.00,0.0186
3316.00,0.0186
3315.00,0.0186
3314.00,0.0185
3313.00,0.0185
3312.00,0.0185
3311.00,0.0184
3310.00,0.0183
3309.00,0.0183
3308.00,0.0183
3307.00,0.0182
3306.00,0.0182
3305.00,0.0183
3304.00,0.0183
3303.00,0.0184
3302.00,0.0185
3301.00,0.0185
3300.00,0.0185
3299.00,0.0184
3298.00,0.0184
3297.00,0.0184
3296.00,0.0183
3295.00,0.0183
3294.00,0.0183
3293.00,0.0183
3292.00,0.0183
3291.00,0.0183
3290.00,0.0184
3289.00,0.0184
3288.00,0.0184
3287.00,0.0184
3286.00,0.0184
3285.00,0.0184
3284.00,0.0183
3283.00,0.0183
3282.00,0.0183
3281.00,0.0183
3280.00,0.0183
3279.00,0.0183
3278.00,0.0182
3277.00,0.0182
3276.00,0.0182
3275.00,0.0181
3274.00,0.0181
3273.00,0.0181
3272.00,0.0181
3271.00,0.0181
3270.00,0.0181
3269.00,0.0181
3268.00,0.0181
3267.00,0.0181
3266.00,0.0181
3265.00,0.0181
3264.00,0.0181
3263.00,0.0181
3262.00,0.0181
3261.00,0.0180
3260.00,0.0180
3259.00,0.0180
3258.00,0.0180
3257.00,0.0180
3256.00,0.0180
3255.00,0.0180
3254.00,0.0180
3253.00,0.0180
3252.00,0.0179
3251.00,0.0179
3250.00,0.0179
3249.00,0.0178
3248.00,0.0178
3247.00,0.0178
3246.00,0.0178
3245.00,0.0178
3244.00,0.0178
3243.00,0.0178
3242.00,0.0178
3241.00,0.0177
3240.00,0.0177
3239.00,0.0177
3238.00,0.0177
3237.00,0.0176
3236.00,0.0176
3235.00,0.0176
3234.00,0.0175
3233.00,0.0175
3232.00,0.0175
3231.00,0.0175
3230.00,0.0174
3229.00,0.0174
3228.00,0.0174
3227.00,0.0173
3226.00,0.0173
3225.00,0.0173
3224.00,0.0173
3223.00,0.0173
3222.00,0.0173
3221.00,0.0172
3220.00,0.0172
3219.00,0.0172
3218.00,0.0171
3217.00,0.0171
3216.00,0.0171
3215.00,0.0171
3214.00,0.0171
3213.00,0.0171
3212.00,0.0171
3211.00,0.0171
3210.00,0.0171
3209.00,0.0170
3208.00,0.0170
3207.00,0.0170
3206.00,0.0170
3205.00,0.0170
3204.00,0.0170
3203.00,0.0169
3202.00,0.0169
3201.00,0.0169
3200.00,0.0169
3199.00,0.0168
3198.00,0.0168
3197.00,0.0168
3196.00,0.0168
3195.00,0.0167
3194.00,0.0167
3193.00,0.0167
3192.00,0.0167
3191.00,0.0167
3190.00,0.0166
3189.00,0.0166
3188.00,0.0165
3187.00,0.0165
3186.00,0.0165
3185.00,0.0165
3184.00,0.0164
3183.00,0.0164
3182.00,0.0163
3181.00,0.0163
3180.00,0.0162
3179.00,0.0162
3178.00,0.0162
3177.00,0.0161
3176.00,0.0161
3175.00,0.0161
3174.00,0.0160
3173.00,0.0160
3172.00,0.0159
3171.00,0.0159
3170.00,0.0159
3169.00,0.0158
3168.00,0.0158
3167.00,0.0158
3166.00,0.0157
3165.00,0.0157
3164.00,0.0157
3163.00,0.0156
3162.00,0.0156
3161.00,0.0155
3160.00,0.0154
3159.00,0.0154
3158.00,0.0153
3157.00,0.0153
3156.00,0.0152
3155.00,0.0151
3154.00,0.0151
3153.00,0.0150
3152.00,0.0150
3151.00,0.0150
3150.00,0.0149
3149.00,0.0149
3148.00,0.0149
3147.00,0.0148
3146.00,0.0148
3145.00,0.0147
3144.00,0.0147
3143.00,0.0147
3142.00,0.0146
3141.00,0.0146
3140.00,0.0145
3139.00,0.0145
3138.00,0.0144
3137.00,0.0144
3136.00,0.0143
3135.00,0.0143
3134.00,0.0142
3133.00,0.0142
3132.00,0.0141
3131.00,0.0141
3130.00,0.0140
3129.00,0.0140
3128.00,0.0139
3127.00,0.0139
3126.00,0.0138
3125.00,0.0138
3124.00,0.0137
3123.00,0.0137
3122.00,0.0137
3121.00,0.0136
3120.00,0.0136
3119.00,0.0136
3118.00,0.0135
3117.00,0.0135
3116.00,0.0135
3115.00,0.0134
3114.00,0.0133
3113.00,0.0133
3112.00,0.0132
3111.00,0.0132
3110.00,0.0132
3109.00,0.0131
3108.00,0.0131
3107.00,0.0131
3106.00,0.0130
3105.00,0.0130
3104.00,0.0129
3103.00,0.0129
3102.00,0.0129
3101.00,0.0129
3100.00,0.0128
3099.00,0.0128
3098.00,0.0128
3097.00,0.0128
3096.00,0.0128
3095.00,0.0128
3094.00,0.0128
3093.00,0.0128
3092.00,0.0128
3091.00,0.0128
3090.00,0.0128
3089.00,0.0128
3088.00,0.0128
3087.00,0.0128
3086.00,0.0129
3085.00,0.0129
3084.00,0.0130
3083.00,0.0130
3082.00,0.0131
3081.00,0.0131
3080.00,0.0132
3079.00,0.0132
3078.00,0.0133
3077.00,0.0133
3076.00,0.0134
3075.00,0.0134
3074.00,0.0134
3073.00,0.0134
3072.00,0.0133
3071.00,0.0133
3070.00,0.0132
3069.00,0.0131
3068.00,0.0130
3067.00,0.0128
3066.00,0.0127
3065.00,0.0125
3064.00,0.0124
3063.00,0.0122
3062.00,0.0121
3061.00,0.0120
3060.00,0.0119
3059.00,0.0118
3058.00,0.0117
3057.00,0.0116
3056.00,0.0115
3055.00,0.0114
3054.00,0.0114
3053.00,0.0113
3052.00,0.0113
3051.00,0.0113
3050.00,0.0113
3049.00,0.0112
3048.00,0.0112
3047.00,0.0112
3046.00,0.0112
3045.00,0.0112
3044.00,0.0112
3043.00,0.0112
3042.00,0.0112
3041.00,0.0112
3040.00,0.0112
3039.00,0.0112
3038.00,0.0112
3037.00,0.0112
3036.00,0.0111
3035.00,0.0111
3034.00,0.0111
3033.00,0.0111
3032.00,0.0110
3031.00,0.0110
3030.00,0.0110
3029.00,0.0110
3028.00,0.0109
3027.00,0.0109
3026.00,0.0109
3025.00,0.0108
3024.00,0.0108
3023.00,0.0108
3022.00,0.0107
3021.00,0.0107
3020.00,0.0107
3019.00,0.0107
3018.00,0.0107
3017.00,0.0106
3016.00,0.0106
3015.00,0.0106
3014.00,0.0105
3013.00,0.0104
3012.00,0.0104
3011.00,0.0103
3010.00,0.0102
3009.00,0.0102
3008.00,0.0101
3007.00,0.0100
3006.00,0.0099
3005.00,0.0099
3004.00,0.0098
3003.00,0.0097
3002.00,0.0096
3001.00,0.0095
3000.00,0.0095
2999.00,0.0095
2998.00,0.0095
2997.00,0.0095
2996.00,0.0096
2995.00,0.0097
2994.00,0.0098
2993.00,0.0099
2992.00,0.0100
2991.00,0.0102
2990.00,0.0103
2989.00,0.0104
2988.00,0.0105
2987.00,0.0106
2986.00,0.0106
2985.00,0.0104
2984.00,0.0101
2983.00,0.0099
2982.00,0.0097
2981.00,0.0099
2980.00,0.0103
2979.00,0.0109
2978.00,0.0116
2977.00,0.0123
2976.00,0.0129
2975.00,0.0135
2974.00,0.0140
2973.00,0.0145
2972.00,0.0150
2971.00,0.0157
2970.00,0.0165
2969.00,0.0174
2968.00,0.0183
2967.00,0.0192
2966.00,0.0201
2965.00,0.0209
2964.00,0.0217
2963.00,0.0224
2962.00,0.0231
2961.00,0.0236
2960.00,0.0241
2959.00,0.0245
2958.00,0.0249
2957.00,0.0251
2956.00,0.0253
2955.00,0.0254
2954.00,0.0255
2953.00,0.0254
2952.00,0.0254
2951.00,0.0252
2950.00,0.0251
2949.00,0.0251
2948.00,0.0251
2947.00,0.0251
2946.00,0.0253
2945.00,0.0255
2944.00,0.0259
2943.00,0.0264
2942.00,0.0269
2941.00,0.0276
2940.00,0.0283
2939.00,0.0291
2938.00,0.0300
2937.00,0.0309
2936.00,0.0318
2935.00,0.0328
2934.00,0.0337
2933.00,0.0345
2932.00,0.0354
2931.00,0.0361
2930.00,0.0368
2929.00,0.0374
2928.00,0.0378
2927.00,0.0382
2926.00,0.0384
2925.00,0.0386
2924.00,0.0386
2923.00,0.0385
2922.00,0.0383
2921.00,0.0381
2920.00,0.0377
2919.00,0.0372
2918.00,0.0367
2917.00,0.0362
2916.00,0.0356
2915.00,0.0350
2914.00,0.0344
2913.00,0.0338
2912.00,0.0332
2911.00,0.0326
2910.00,0.0320
2909.00,0.0313
2908.00,0.0307
2907.00,0.0302
2906.00,0.0296
2905.00,0.0291
2904.00,0.0286
2903.00,0.0281
2902.00,0.0277
2901.00,0.0273
2900.00,0.0269
2899.00,0.0265
2898.00,0.0262
2897.00,0.0258
2896.00,0.0255
2895.00,0.0252
2894.00,0.0249
2893.00,0.0245
2892.00,0.0242
2891.00,0.0239
2890.00,0.0236
2889.00,0.0234
2888.00,0.0232
2887.00,0.0230
2886.00,0.0228
2885.00,0.0227
2884.00,0.0226
2883.00,0.0225
2882.00,0.0225
2881.00,0.0226
2880.00,0.0227
2879.00,0.0229
2878.00,0.0230
2877.00,0.0232
2876.00,0.0235
2875.00,0.0237
2874.00,0.0240
2873.00,0.0242
2872.00,0.0244
2871.00,0.0246
2870.00,0.0246
2869.00,0.0246
2868.00,0.0246
2867.00,0.0246
2866.00,0.0247
2865.00,0.0248
2864.00,0.0251
2863.00,0.0255
2862.00,0.0260
2861.00,0.0265
2860.00,0.0270
2859.00,0.0275
2858.00,0.0279
2857.00,0.0282
2856.00,0.0283
2855.00,0.0281
2854.00,0.0278
2853.00,0.0273
2852.00,0.0266
2851.00,0.0259
2850.00,0.0250
2849.00,0.0242
2848.00,0.0233
2847.00,0.0224
2846.00,0.0216
2845.00,0.0208
2844.00,0.0200
2843.00,0.0193
2842.00,0.0187
2841.00,0.0182
2840.00,0.0178
2839.00,0.0175
2838.00,0.0173
2837.00,0.0172
2836.00,0.0172
2835.00,0.0171
2834.00,0.0171
2833.00,0.0171
2832.00,0.0170
2831.00,0.0169
2830.00,0.0167
2829.00,0.0164
2828.00,0.0160
2827.00,0.0157
2826.00,0.0152
2825.00,0.0148
2824.00,0.0143
2823.00,0.0139
2822.00,0.0135
2821.00,0.0131
2820.00,0.0128
2819.00,0.0125
2818.00,0.0122
2817.00,0.0120
2816.00,0.0118
2815.00,0.0116
2814.00,0.0114
2813.00,0.0113
2812.00,0.0111
2811.00,0.0110
2810.00,0.0109
2809.00,0.0108
2808.00,0.0107
2807.00,0.0106
2806.00,0.0105
2805.00,0.0104
2804.00,0.0104
2803.00,0.0103
2802.00,0.0102
2801.00,0.0101
2800.00,0.0100
2799.00,0.0100
2798.00,0.0099
2797.00,0.0098
2796.00,0.0098
2795.00,0.0097
2794.00,0.0097
2793.00,0.0096
2792.00,0.0096
2791.00,0.0095
2790.00,0.0095
2789.00,0.0094
2788.00,0.0094
2787.00,0.0094
2786.00,0.0094
2785.00,0.0094
2784.00,0.0093
2783.00,0.0093
2782.00,0.0093
2781.00,0.0092
2780.00,0.0092
2779.00,0.0092
2778.00,0.0091
2777.00,0.0091
2776.00,0.0091
2775.00,0.0090
2774.00,0.0090
2773.00,0.0090
2772.00,0.0090
2771.00,0.0090
2770.00,0.0090
2769.00,0.0090
2768.00,0.0090
2767.00,0.0090
2766.00,0.0090
2765.00,0.0089
2764.00,0.0089
2763.00,0.0089
2762.00,0.0089
2761.00,0.0089
2760.00,0.0089
2759.00,0.0089
2758.00,0.0089
2757.00,0.0089
2756.00,0.0089
2755.00,0.0089
2754.00,0.0089
2753.00,0.0089
2752.00,0.0089
2751.00,0.0089
2750.00,0.0089
2749.00,0.0089
2748.00,0.0088
2747.00,0.0088
2746.00,0.0088
2745.00,0.0089
2744.00,0.0089
2743.00,0.0089
2742.00,0.0089
2741.00,0.0089
2740.00,0.0089
2739.00,0.0090
2738.00,0.0090
2737.00,0.0090
2736.00,0.0090
2735.00,0.0090
2734.00,0.0091
2733.00,0.0091
2732.00,0.0092
2731.00,0.0092
2730.00,0.0092
2729.00,0.0092
2728.00,0.0092
2727.00,0.0092
2726.00,0.0091
2725.00,0.0091
2724.00,0.0091
2723.00,0.0091
2722.00,0.0091
2721.00,0.0091
2720.00,0.0090
2719.00,0.0090
2718.00,0.0090
2717.00,0.0089
2716.00,0.0089
2715.00,0.0089
2714.00,0.0088
2713.00,0.0088
2712.00,0.0088
2711.00,0.0088
2710.00,0.0087
2709.00,0.0087
2708.00,0.0087
2707.00,0.0087
2706.00,0.0087
2705.00,0.0087
2704.00,0.0087
2703.00,0.0086
2702.00,0.0086
2701.00,0.0086
2700.00,0.0086
2699.00,0.0086
2698.00,0.0086
2697.00,0.0086
2696.00,0.0086
2695.00,0.0086
2694.00,0.0086
2693.00,0.0086
2692.00,0.0086
2691.00,0.0086
2690.00,0.0086
2689.00,0.0086
2688.00,0.0086
2687.00,0.0086
2686.00,0.0086
2685.00,0.0086
2684.00,0.0086
2683.00,0.0086
2682.00,0.0086
2681.00,0.0086
2680.00,0.0086
2679.00,0.0086
2678.00,0.0086
2677.00,0.0086
2676.00,0.0086
2675.00,0.0086
2674.00,0.0086
2673.00,0.0085
2672.00,0.0085
2671.00,0.0085
2670.00,0.0086
2669.00,0.0086
2668.00,0.0086
2667.00,0.0086
2666.00,0.0086
2665.00,0.0087
2664.00,0.0087
2663.00,0.0088
2662.00,0.0088
2661.00,0.0088
2660.00,0.0088
2659.00,0.0088
2658.00,0.0088
2657.00,0.0088
2656.00,0.0088
2655.00,0.0088
2654.00,0.0088
2653.00,0.0088
2652.00,0.0087
2651.00,0.0087
2650.00,0.0087
2649.00,0.0087
2648.00,0.0087
2647.00,0.0087
2646.00,0.0087
2645.00,0.0086
2644.00,0.0086
2643.00,0.0086
2642.00,0.0086
2641.00,0.0086
2640.00,0.0086
2639.00,0.0086
2638.00,0.0086
2637.00,0.0086
2636.00,0.0086
2635.00,0.0085
2634.00,0.0085
2633.00,0.0085
2632.00,0.0085
2631.00,0.0085
2630.00,0.0085
2629.00,0.0085
2628.00,0.0085
2627.00,0.0084
2626.00,0.0084
2625.00,0.0084
2624.00,0.0084
2623.00,0.0084
2622.00,0.0083
2621.00,0.0083
2620.00,0.0083
2619.00,0.0083
2618.00,0.0084
2617.00,0.0084
2616.00,0.0083
2615.00,0.0083
2614.00,0.0083
2613.00,0.0083
2612.00,0.0082
2611.00,0.0082
2610.00,0.0082
2609.00,0.0081
2608.00,0.0081
2607.00,0.0081
2606.00,0.0080
2605.00,0.0080
2604.00,0.0080
2603.00,0.0080
2602.00,0.0080
2601.00,0.0080
2600.00,0.0080
2599.00,0.0080
2598.00,0.0079
2597.00,0.0079
2596.00,0.0079
2595.00,0.0079
2594.00,0.0079
2593.00,0.0079
2592.00,0.0079
2591.00,0.0079
2590.00,0.0078
2589.00,0.0078
2588.00,0.0078
2587.00,0.0078
2586.00,0.0078
2585.00,0.0078
2584.00,0.0078
2583.00,0.0078
2582.00,0.0078
2581.00,0.0078
2580.00,0.0078
2579.00,0.0077
2578.00,0.0077
2577.00,0.0077
2576.00,0.0076
2575.00,0.0076
2574.00,0.0076
2573.00,0.0076
2572.00,0.0076
2571.00,0.0076
2570.00,0.0076
2569.00,0.0076
2568.00,0.0076
2567.00,0.0076
2566.00,0.0075
2565.00,0.0075
2564.00,0.0075
2563.00,0.0075
2562.00,0.0075
2561.00,0.0075
2560.00,0.0075
2559.00,0.0075
2558.00,0.0075
2557.00,0.0075
2556.00,0.0075
2555.00,0.0075
2554.00,0.0075
2553.00,0.0074
2552.00,0.0074
2551.00,0.0074
2550.00,0.0074
2549.00,0.0074
2548.00,0.0074
2547.00,0.0074
2546.00,0.0073
2545.00,0.0073
2544.00,0.0073
2543.00,0.0073
2542.00,0.0073
2541.00,0.0073
2540.00,0.0072
2539.00,0.0072
2538.00,0.0072
2537.00,0.0072
2536.00,0.0072
2535.00,0.0071
2534.00,0.0071
2533.00,0.0071
2532.00,0.0071
2531.00,0.0071
2530.00,0.0071
2529.00,0.0071
2528.00,0.0071
2527.00,0.0071
2526.00,0.0071
2525.00,0.0071
2524.00,0.0071
2523.00,0.0071
2522.00,0.0070
2521.00,0.0070
2520.00,0.0070
2519.00,0.0070
2518.00,0.0070
2517.00,0.0070
2516.00,0.0071
2515.00,0.0071
2514.00,0.0070
2513.00,0.0070
2512.00,0.0070
2511.00,0.0069
2510.00,0.0069
2509.00,0.0068
2508.00,0.0068
2507.00,0.0068
2506.00,0.0068
2505.00,0.0068
2504.00,0.0069
2503.00,0.0069
2502.00,0.0069
2501.00,0.0069
2500.00,0.0069
2499.00,0.0069
2498.00,0.0069
2497.00,0.0068
2496.00,0.0068
2495.00,0.0068
2494.00,0.0068
2493.00,0.0068
2492.00,0.0068
2491.00,0.0068
2490.00,0.0068
2489.00,0.0068
2488.00,0.0068
2487.00,0.0068
2486.00,0.0068
2485.00,0.0067
2484.00,0.0067
2483.00,0.0068
2482.00,0.0068
2481.00,0.0068
2480.00,0.0068
2479.00,0.0068
2478.00,0.0068
2477.00,0.0067
2476.00,0.0067
2475.00,0.0067
2474.00,0.0066
2473.00,0.0066
2472.00,0.0066
2471.00,0.0066
2470.00,0.0067
2469.00,0.0067
2468.00,0.0067
2467.00,0.0067
2466.00,0.0067
2465.00,0.0067
2464.00,0.0067
2463.00,0.0067
2462.00,0.0067
2461.00,0.0067
2460.00,0.0067
2459.00,0.0067
2458.00,0.0068
2457.00,0.0068
2456.00,0.0068
2455.00,0.0068
2454.00,0.0067
2453.00,0.0067
2452.00,0.0067
2451.00,0.0067
2450.00,0.0066
2449.00,0.0066
2448.00,0.0066
2447.00,0.0066
2446.00,0.0066
2445.00,0.0066
2444.00,0.0066
2443.00,0.0065
2442.00,0.0065
2441.00,0.0065
2440.00,0.0065
2439.00,0.0065
2438.00,0.0064
2437.00,0.0064
2436.00,0.0064
2435.00,0.0063
2434.00,0.0063
2433.00,0.0063
2432.00,0.0063
2431.00,0.0063
2430.00,0.0063
2429.00,0.0063
2428.00,0.0063
2427.00,0.0062
2426.00,0.0062
2425.00,0.0062
2424.00,0.0062
2423.00,0.0062
2422.00,0.0062
2421.00,0.0062
2420.00,0.0062
2419.00,0.0062
2418.00,0.0062
2417.00,0.0062
2416.00,0.0062
2415.00,0.0062
2414.00,0.0062
2413.00,0.0062
2412.00,0.0062
2411.00,0.0063
2410.00,0.0062
2409.00,0.0062
2408.00,0.0061
2407.00,0.0060
2406.00,0.0060
2405.00,0.0059
2404.00,0.0059
2403.00,0.0059
2402.00,0.0059
2401.00,0.0060
2400.00,0.0060
2399.00,0.0060
2398.00,0.0060
2397.00,0.0060
2396.00,0.0060
2395.00,0.0060
2394.00,0.0060
2393.00,0.0060
2392.00,0.0060
2391.00,0.0060
2390.00,0.0060
2389.00,0.0060
2388.00,0.0059
2387.00,0.0059
2386.00,0.0059
2385.00,0.0058
2384.00,0.0058
2383.00,0.0057
2382.00,0.0057
2381.00,0.0056
2380.00,0.0056
2379.00,0.0056
2378.00,0.0057
2377.00,0.0057
2376.00,0.0058
2375.00,0.0058
2374.00,0.0058
2373.00,0.0058
2372.00,0.0058
2371.00,0.0058
2370.00,0.0057
2369.00,0.0057
2368.00,0.0057
2367.00,0.0057
2366.00,0.0057
2365.00,0.0058
2364.00,0.0059
2363.00,0.0060
2362.00,0.0060
2361.00,0.0060
2360.00,0.0060
2359.00,0.0060
2358.00,0.0060
2357.00,0.0060
2356.00,0.0060
2355.00,0.0061
2354.00,0.0061
2353.00,0.0061
2352.00,0.0060
2351.00,0.0059
2350.00,0.0060
2349.00,0.0062
2348.00,0.0064
2347.00,0.0065
2346.00,0.0065
2345.00,0.0064
2344.00,0.0063
2343.00,0.0064
2342.00,0.0064
2341.00,0.0064
2340.00,0.0064
2339.00,0.0065
2338.00,0.0064
2337.00,0.0064
2336.00,0.0064
2335.00,0.0063
2334.00,0.0063
2333.00,0.0063
2332.00,0.0062
2331.00,0.0062
2330.00,0.0063
2329.00,0.0065
2328.00,0.0069
2327.00,0.0073
2326.00,0.0076
2325.00,0.0077
2324.00,0.0076
2323.00,0.0073
2322.00,0.0071
2321.00,0.0070
2320.00,0.0070
2319.00,0.0070
2318.00,0.0070
2317.00,0.0069
2316.00,0.0069
2315.00,0.0068
2314.00,0.0068
2313.00,0.0067
2312.00,0.0066
2311.00,0.0065
2310.00,0.0064
2309.00,0.0064
2308.00,0.0064
2307.00,0.0063
2306.00,0.0064
2305.00,0.0064
2304.00,0.0064
2303.00,0.0064
2302.00,0.0064
2301.00,0.0064
2300.00,0.0065
2299.00,0.0065
2298.00,0.0065
2297.00,0.0066
2296.00,0.0066
2295.00,0.0067
2294.00,0.0068
2293.00,0.0069
2292.00,0.0070
2291.00,0.0071
2290.00,0.0071
2289.00,0.0072
2288.00,0.0072
2287.00,0.0072
2286.00,0.0072
2285.00,0.0071
2284.00,0.0070
2283.00,0.0069
2282.00,0.0068
2281.00,0.0068
2280.00,0.0068
2279.00,0.0067
2278.00,0.0067
2277.00,0.0067
2276.00,0.0067
2275.00,0.0067
2274.00,0.0067
2273.00,0.0066
2272.00,0.0066
2271.00,0.0066
2270.00,0.0065
2269.00,0.0064
2268.00,0.0063
2267.00,0.0062
2266.00,0.0061
2265.00,0.0061
2264.00,0.0061
2263.00,0.0062
2262.00,0.0062
2261.00,0.0063
2260.00,0.0064
2259.00,0.0065
2258.00,0.0065
2257.00,0.0064
2256.00,0.0063
2255.00,0.0061
2254.00,0.0061
2253.00,0.0060
2252.00,0.0061
2251.00,0.0061
2250.00,0.0061
2249.00,0.0061
2248.00,0.0062
2247.00,0.0062
2246.00,0.0062
2245.00,0.0062
2244.00,0.0062
2243.00,0.0062
2242.00,0.0062
2241.00,0.0062
2240.00,0.0063
2239.00,0.0063
2238.00,0.0063
2237.00,0.0062
2236.00,0.0062
2235.00,0.0062
2234.00,0.0062
2233.00,0.0062
2232.00,0.0062
2231.00,0.0062
2230.00,0.0062
2229.00,0.0062
2228.00,0.0062
2227.00,0.0062
2226.00,0.0062
2225.00,0.0062
2224.00,0.0062
2223.00,0.0061
2222.00,0.0061
2221.00,0.0061
2220.00,0.0062
2219.00,0.0061
2218.00,0.0060
2217.00,0.0059
2216.00,0.0059
2215.00,0.0059
2214.00,0.0059
2213.00,0.0060
2212.00,0.0061
2211.00,0.0062
2210.00,0.0061
2209.00,0.0061
2208.00,0.0061
2207.00,0.0060
2206.00,0.0061
2205.00,0.0061
2204.00,0.0062
2203.00,0.0063
2202.00,0.0063
2201.00,0.0063
2200.00,0.0063
2199.00,0.0063
2198.00,0.0063
2197.00,0.0064
2196.00,0.0064
2195.00,0.0063
2194.00,0.0062
2193.00,0.0062
2192.00,0.0062
2191.00,0.0062
2190.00,0.0063
2189.00,0.0063
2188.00,0.0063
2187.00,0.0062
2186.00,0.0061
2185.00,0.0060
2184.00,0.0059
2183.00,0.0057
2182.00,0.0056
2181.00,0.0056
2180.00,0.0057
2179.00,0.0058
2178.00,0.0057
2177.00,0.0055
2176.00,0.0054
2175.00,0.0053
2174.00,0.0054
2173.00,0.0057
2172.00,0.0060
2171.00,0.0063
2170.00,0.0065
2169.00,0.0067
2168.00,0.0068
2167.00,0.0069
2166.00,0.0070
2165.00,0.0072
2164.00,0.0074
2163.00,0.0073
2162.00,0.0068
2161.00,0.0056
2160.00,0.0042
2159.00,0.0031
2158.00,0.0025
2157.00,0.0026
2156.00,0.0029
2155.00,0.0032
2154.00,0.0034
2153.00,0.0036
2152.00,0.0039
2151.00,0.0040
2150.00,0.0041
2149.00,0.0041
2148.00,0.0041
2147.00,0.0041
2146.00,0.0040
2145.00,0.0041
2144.00,0.0041
2143.00,0.0041
2142.00,0.0041
2141.00,0.0041
2140.00,0.0041
2139.00,0.0041
2138.00,0.0040
2137.00,0.0038
2136.00,0.0035
2135.00,0.0034
2134.00,0.0033
2133.00,0.0035
2132.00,0.0037
2131.00,0.0039
2130.00,0.0040
2129.00,0.0042
2128.00,0.0044
2127.00,0.0045
2126.00,0.0047
2125.00,0.0048
2124.00,0.0049
2123.00,0.0050
2122.00,0.0050
2121.00,0.0050
2120.00,0.0051
2119.00,0.0052
2118.00,0.0053
2117.00,0.0054
2116.00,0.0056
2115.00,0.0056
2114.00,0.0056
2113.00,0.0056
2112.00,0.0055
2111.00,0.0055
2110.00,0.0054
2109.00,0.0054
2108.00,0.0054
2107.00,0.0054
2106.00,0.0054
2105.00,0.0054
2104.00,0.0054
2103.00,0.0054
2102.00,0.0054
2101.00,0.0054
2100.00,0.0055
2099.00,0.0055
2098.00,0.0055
2097.00,0.0054
2096.00,0.0052
2095.00,0.0052
2094.00,0.0051
2093.00,0.0052
2092.00,0.0053
2091.00,0.0053
2090.00,0.0053
2089.00,0.0054
2088.00,0.0054
2087.00,0.0055
2086.00,0.0056
2085.00,0.0056
2084.00,0.0057
2083.00,0.0058
2082.00,0.0058
2081.00,0.0058
2080.00,0.0058
2079.00,0.0058
2078.00,0.0058
2077.00,0.0057
2076.00,0.0057
2075.00,0.0057
2074.00,0.0056
2073.00,0.0056
2072.00,0.0055
2071.00,0.0054
2070.00,0.0053
2069.00,0.0053
2068.00,0.0054
2067.00,0.0054
2066.00,0.0053
2065.00,0.0053
2064.00,0.0052
2063.00,0.0052
2062.00,0.0051
2061.00,0.0051
2060.00,0.0051
2059.00,0.0052
2058.00,0.0052
2057.00,0.0053
2056.00,0.0052
2055.00,0.0053
2054.00,0.0055
2053.00,0.0060
2052.00,0.0064
2051.00,0.0065
2050.00,0.0062
2049.00,0.0058
2048.00,0.0054
2047.00,0.0052
2046.00,0.0051
2045.00,0.0050
2044.00,0.0051
2043.00,0.0051
2042.00,0.0052
2041.00,0.0053
2040.00,0.0054
2039.00,0.0055
2038.00,0.0055
2037.00,0.0054
2036.00,0.0053
2035.00,0.0051
2034.00,0.0047
2033.00,0.0045
2032.00,0.0044
2031.00,0.0044
2030.00,0.0044
2029.00,0.0044
2028.00,0.0044
2027.00,0.0044
2026.00,0.0044
2025.00,0.0044
2024.00,0.0045
2023.00,0.0045
2022.00,0.0045
2021.00,0.0045
2020.00,0.0047
2019.00,0.0048
2018.00,0.0048
2017.00,0.0048
2016.00,0.0047
2015.00,0.0047
2014.00,0.0047
2013.00,0.0047
2012.00,0.0048
2011.00,0.0048
2010.00,0.0047
2009.00,0.0045
2008.00,0.0043
2007.00,0.0040
2006.00,0.0039
2005.00,0.0039
2004.00,0.0041
2003.00,0.0043
2002.00,0.0045
2001.00,0.0046
2000.00,0.0048
1999.00,0.0048
1998.00,0.0048
1997.00,0.0048
1996.00,0.0049
1995.00,0.0050
1994.00,0.0051
1993.00,0.0052
1992.00,0.0053
1991.00,0.0054
1990.00,0.0054
1989.00,0.0054
1988.00,0.0055
1987.00,0.0056
1986.00,0.0057
1985.00,0.0059
1984.00,0.0062
1983.00,0.0065
1982.00,0.0067
1981.00,0.0067
1980.00,0.0064
1979.00,0.0058
1978.00,0.0051
1977.00,0.0045
1976.00,0.0042
1975.00,0.0040
1974.00,0.0040
1973.00,0.0041
1972.00,0.0042
1971.00,0.0043
1970.00,0.0043
1969.00,0.0042
1968.00,0.0042
1967.00,0.0042
1966.00,0.0042
1965.00,0.0042
1964.00,0.0042
1963.00,0.0042
1962.00,0.0041
1961.00,0.0040
1960.00,0.0040
1959.00,0.0040
1958.00,0.0040
1957.00,0.0041
1956.00,0.0041
1955.00,0.0042
1954.00,0.0042
1953.00,0.0042
1952.00,0.0043
1951.00,0.0043
1950.00,0.0043
1949.00,0.0043
1948.00,0.0044
1947.00,0.0044
1946.00,0.0044
1945.00,0.0044
1944.00,0.0044
1943.00,0.0044
1942.00,0.0044
1941.00,0.0044
1940.00,0.0044
1939.00,0.0044
1938.00,0.0045
1937.00,0.0045
1936.00,0.0046
1935.00,0.0046
1934.00,0.0045
1933.00,0.0045
1932.00,0.0045
1931.00,0.0045
1930.00,0.0045
1929.00,0.0045
1928.00,0.0045
1927.00,0.0045
1926.00,0.0045
1925.00,0.0045
1924.00,0.0046
1923.00,0.0047
1922.00,0.0048
1921.00,0.0049
1920.00,0.0049
1919.00,0.0048
1918.00,0.0047
1917.00,0.0047
1916.00,0.0047
1915.00,0.0048
1914.00,0.0048
1913.00,0.0049
1912.00,0.0049
1911.00,0.0049
1910.00,0.0049
1909.00,0.0049
1908.00,0.0050
1907.00,0.0050
1906.00,0.0050
1905.00,0.0050
1904.00,0.0050
1903.00,0.0050
1902.00,0.0050
1901.00,0.0050
1900.00,0.0051
1899.00,0.0051
1898.00,0.0050
1897.00,0.0050
1896.00,0.0050
1895.00,0.0050
1894.00,0.0051
1893.00,0.0051
1892.00,0.0051
1891.00,0.0051
1890.00,0.0051
1889.00,0.0050
1888.00,0.0050
1887.00,0.0050
1886.00,0.0050
1885.00,0.0050
1884.00,0.0050
1883.00,0.0050
1882.00,0.0050
1881.00,0.0050
1880.00,0.0050
1879.00,0.0050
1878.00,0.0050
1877.00,0.0050
1876.00,0.0051
1875.00,0.0051
1874.00,0.0051
1873.00,0.0051
1872.00,0.0052
1871.00,0.0052
1870.00,0.0052
1869.00,0.0052
1868.00,0.0052
1867.00,0.0052
1866.00,0.0052
1865.00,0.0051
1864.00,0.0051
1863.00,0.0051
1862.00,0.0051
1861.00,0.0051
1860.00,0.0051
1859.00,0.0051
1858.00,0.0051
1857.00,0.0051
1856.00,0.0051
1855.00,0.0051
1854.00,0.0051
1853.00,0.0051
1852.00,0.0051
1851.00,0.0050
1850.00,0.0050
1849.00,0.0050
1848.00,0.0051
1847.00,0.0051
1846.00,0.0051
1845.00,0.0052
1844.00,0.0052
1843.00,0.0052
1842.00,0.0052
1841.00,0.0052
1840.00,0.0052
1839.00,0.0052
1838.00,0.0052
1837.00,0.0052
1836.00,0.0052
1835.00,0.0052
1834.00,0.0052
1833.00,0.0052
1832.00,0.0053
1831.00,0.0053
1830.00,0.0053
1829.00,0.0053
1828.00,0.0054
1827.00,0.0053
1826.00,0.0053
1825.00,0.0053
1824.00,0.0053
1823.00,0.0053
1822.00,0.0053
1821.00,0.0053
1820.00,0.0052
1819.00,0.0051
1818.00,0.0050
1817.00,0.0049
1816.00,0.0049
1815.00,0.0050
1814.00,0.0051
1813.00,0.0051
1812.00,0.0052
1811.00,0.0053
1810.00,0.0053
1809.00,0.0053
1808.00,0.0053
1807.00,0.0053
1806.00,0.0053
1805.00,0.0053
1804.00,0.0053
1803.00,0.0053
1802.00,0.0054
1801.00,0.0054
1800.00,0.0054
1799.00,0.0055
1798.00,0.0054
1797.00,0.0055
1796.00,0.0055
1795.00,0.0055
1794.00,0.0055
1793.00,0.0055
1792.00,0.0055
1791.00,0.0055
1790.00,0.0055
1789.00,0.0055
1788.00,0.0056
1787.00,0.0056
1786.00,0.0056
1785.00,0.0056
1784.00,0.0056
1783.00,0.0056
1782.00,0.0056
1781.00,0.0056
1780.00,0.0056
1779.00,0.0056
1778.00,0.0055
1777.00,0.0055
1776.00,0.0055
1775.00,0.0056
1774.00,0.0056
1773.00,0.0056
1772.00,0.0057
1771.00,0.0057
1770.00,0.0056
1769.00,0.0056
1768.00,0.0056
1767.00,0.0056
1766.00,0.0056
1765.00,0.0056
1764.00,0.0057
1763.00,0.0057
1762.00,0.0057
1761.00,0.0057
1760.00,0.0057
1759.00,0.0056
1758.00,0.0056
1757.00,0.0056
1756.00,0.0057
1755.00,0.0057
1754.00,0.0056
1753.00,0.0056
1752.00,0.0056
1751.00,0.0056
1750.00,0.0056
1749.00,0.0056
1748.00,0.0056
1747.00,0.0056
1746.00,0.0056
1745.00,0.0057
1744.00,0.0057
1743.00,0.0057
1742.00,0.0057
1741.00,0.0057
1740.00,0.0058
1739.00,0.0058
1738.00,0.0058
1737.00,0.0059
1736.00,0.0059
1735.00,0.0060
1734.00,0.0060
1733.00,0.0060
1732.00,0.0060
1731.00,0.0060
1730.00,0.0060
1729.00,0.0061
1728.00,0.0061
1727.00,0.0062
1726.00,0.0062
1725.00,0.0062
1724.00,0.0063
1723.00,0.0064
1722.00,0.0064
1721.00,0.0065
1720.00,0.0067
1719.00,0.0068
1718.00,0.0069
1717.00,0.0069
1716.00,0.0070
1715.00,0.0071
1714.00,0.0072
1713.00,0.0073
1712.00,0.0074
1711.00,0.0076
1710.00,0.0078
1709.00,0.0081
1708.00,0.0084
1707.00,0.0088
1706.00,0.0092
1705.00,0.0096
1704.00,0.0101
1703.00,0.0106
1702.00,0.0112
1701.00,0.0120
1700.00,0.0132
1699.00,0.0143
1698.00,0.0152
1697.00,0.0164
1696.00,0.0180
1695.00,0.0198
1694.00,0.0214
1693.00,0.0228
1692.00,0.0242
1691.00,0.0257
1690.00,0.0274
1689.00,0.0291
1688.00,0.0306
1687.00,0.0319
1686.00,0.0330
1685.00,0.0343
1684.00,0.0358
1683.00,0.0371
1682.00,0.0380
1681.00,0.0387
1680.00,0.0395
1679.00,0.0404
1678.00,0.0413
1677.00,0.0423
1676.00,0.0438
1675.00,0.0456
1674.00,0.0476
1673.00,0.0494
1672.00,0.0514
1671.00,0.0537
1670.00,0.0564
1669.00,0.0595
1668.00,0.0624
1667.00,0.0648
1666.00,0.0668
1665.00,0.0687
1664.00,0.0706
1663.00,0.0726
1662.00,0.0744
1661.00,0.0758
1660.00,0.0768
1659.00,0.0776
1658.00,0.0780
1657.00,0.0782
1656.00,0.0782
1655.00,0.0779
1654.00,0.0768
1653.00,0.0751
1652.00,0.0737
1651.00,0.0727
1650.00,0.0717
1649.00,0.0703
1648.00,0.0685
1647.00,0.0663
1646.00,0.0640
1645.00,0.0620
1644.00,0.0602
1643.00,0.0584
1642.00,0.0562
1641.00,0.0540
1640.00,0.0518
1639.00,0.0498
1638.00,0.0480
1637.00,0.0463
1636.00,0.0449
1635.00,0.0441
1634.00,0.0439
1633.00,0.0441
1632.00,0.0446
1631.00,0.0454
1630.00,0.0462
1629.00,0.0471
1628.00,0.0480
1627.00,0.0486
1626.00,0.0488
1625.00,0.0486
1624.00,0.0479
1623.00,0.0469
1622.00,0.0458
1621.00,0.0446
1620.00,0.0435
1619.00,0.0422
1618.00,0.0406
1617.00,0.0386
1616.00,0.0365
1615.00,0.0347
1614.00,0.0331
1613.00,0.0315
1612.00,0.0299
1611.00,0.0284
1610.00,0.0270
1609.00,0.0257
1608.00,0.0247
1607.00,0.0238
1606.00,0.0232
1605.00,0.0228
1604.00,0.0226
1603.00,0.0226
1602.00,0.0229
1601.00,0.0234
1600.00,0.0241
1599.00,0.0251
1598.00,0.0263
1597.00,0.0276
1596.00,0.0290
1595.00,0.0306
1594.00,0.0322
1593.00,0.0338
1592.00,0.0356
1591.00,0.0374
1590.00,0.0392
1589.00,0.0409
1588.00,0.0426
1587.00,0.0440
1586.00,0.0450
1585.00,0.0455
1584.00,0.0455
1583.00,0.0450
1582.00,0.0439
1581.00,0.0424
1580.00,0.0408
1579.00,0.0391
1578.00,0.0372
1577.00,0.0351
1576.00,0.0328
1575.00,0.0308
1574.00,0.0293
1573.00,0.0281
1572.00,0.0269
1571.00,0.0257
1570.00,0.0243
1569.00,0.0230
1568.00,0.0219
1567.00,0.0210
1566.00,0.0201
1565.00,0.0193
1564.00,0.0186
1563.00,0.0181
1562.00,0.0177
1561.00,0.0173
1560.00,0.0169
1559.00,0.0164
1558.00,0.0159
1557.00,0.0156
1556.00,0.0154
1555.00,0.0151
1554.00,0.0149
1553.00,0.0147
1552.00,0.0145
1551.00,0.0143
1550.00,0.0142
1549.00,0.0141
1548.00,0.0140
1547.00,0.0139
1546.00,0.0138
1545.00,0.0138
1544.00,0.0138
1543.00,0.0139
1542.00,0.0139
1541.00,0.0139
1540.00,0.0140
1539.00,0.0140
1538.00,0.0140
1537.00,0.0140
1536.00,0.0141
1535.00,0.0141
1534.00,0.0142
1533.00,0.0144
1532.00,0.0146
1531.00,0.0147
1530.00,0.0148
1529.00,0.0150
1528.00,0.0153
1527.00,0.0155
1526.00,0.0158
1525.00,0.0162
1524.00,0.0165
1523.00,0.0168
1522.00,0.0171
1521.00,0.0175
1520.00,0.0178
1519.00,0.0179
1518.00,0.0179
1517.00,0.0179
1516.00,0.0177
1515.00,0.0176
1514.00,0.0173
1513.00,0.0170
1512.00,0.0168
1511.00,0.0165
1510.00,0.0163
1509.00,0.0161
1508.00,0.0159
1507.00,0.0159
1506.00,0.0159
1505.00,0.0160
1504.00,0.0161
1503.00,0.0164
1502.00,0.0167
1501.00,0.0172
1500.00,0.0178
1499.00,0.0184
1498.00,0.0191
1497.00,0.0198
1496.00,0.0203
1495.00,0.0207
1494.00,0.0207
1493.00,0.0206
1492.00,0.0203
1491.00,0.0196
1490.00,0.0187
1489.00,0.0178
1488.00,0.0169
1487.00,0.0161
1486.00,0.0154
1485.00,0.0148
1484.00,0.0144
1483.00,0.0140
1482.00,0.0137
1481.00,0.0136
1480.00,0.0135
1479.00,0.0136
1478.00,0.0137
1477.00,0.0140
1476.00,0.0145
1475.00,0.0150
1474.00,0.0158
1473.00,0.0171
1472.00,0.0190
1471.00,0.0211
1470.00,0.0231
1469.00,0.0252
1468.00,0.0274
1467.00,0.0296
1466.00,0.0317
1465.00,0.0340
1464.00,0.0360
1463.00,0.0374
1462.00,0.0384
1461.00,0.0391
1460.00,0.0396
1459.00,0.0397
1458.00,0.0398
1457.00,0.0401
1456.00,0.0407
1455.00,0.0413
1454.00,0.0421
1453.00,0.0432
1452.00,0.0448
1451.00,0.0466
1450.00,0.0486
1449.00,0.0510
1448.00,0.0537
1447.00,0.0563
1446.00,0.0587
1445.00,0.0609
1444.00,0.0629
1443.00,0.0646
1442.00,0.0660
1441.00,0.0672
1440.00,0.0680
1439.00,0.0684
1438.00,0.0684
1437.00,0.0683
1436.00,0.0680
1435.00,0.0677
1434.00,0.0675
1433.00,0.0676
1432.00,0.0678
1431.00,0.0682
1430.00,0.0686
1429.00,0.0691
1428.00,0.0692
1427.00,0.0689
1426.00,0.0683
1425.00,0.0674
1424.00,0.0661
1423.00,0.0645
1422.00,0.0627
1421.00,0.0605
1420.00,0.0574
1419.00,0.0534
1418.00,0.0492
1417.00,0.0456
1416.00,0.0424
1415.00,0.0394
1414.00,0.0366
1413.00,0.0342
1412.00,0.0321
1411.00,0.0303
1410.00,0.0288
1409.00,0.0277
1408.00,0.0267
1407.00,0.0259
1406.00,0.0253
1405.00,0.0247
1404.00,0.0242
1403.00,0.0238
1402.00,0.0236
1401.00,0.0233
1400.00,0.0231
1399.00,0.0230
1398.00,0.0229
1397.00,0.0228
1396.00,0.0227
1395.00,0.0227
1394.00,0.0228
1393.00,0.0230
1392.00,0.0231
1391.00,0.0233
1390.00,0.0236
1389.00,0.0239
1388.00,0.0243
1387.00,0.0249
1386.00,0.0256
1385.00,0.0263
1384.00,0.0272
1383.00,0.0283
1382.00,0.0297
1381.00,0.0314
1380.00,0.0331
1379.00,0.0349
1378.00,0.0364
1377.00,0.0376
1376.00,0.0383
1375.00,0.0385
1374.00,0.0382
1373.00,0.0375
1372.00,0.0366
1371.00,0.0357
1370.00,0.0349
1369.00,0.0341
1368.00,0.0334
1367.00,0.0327
1366.00,0.0321
1365.00,0.0315
1364.00,0.0309
1363.00,0.0303
1362.00,0.0297
1361.00,0.0293
1360.00,0.0289
1359.00,0.0286
1358.00,0.0285
1357.00,0.0284
1356.00,0.0284
1355.00,0.0284
1354.00,0.0285
1353.00,0.0286
1352.00,0.0286
1351.00,0.0287
1350.00,0.0288
1349.00,0.0288
1348.00,0.0288
1347.00,0.0288
1346.00,0.0288
1345.00,0.0288
1344.00,0.0288
1343.00,0.0287
1342.00,0.0287
1341.00,0.0287
1340.00,0.0287
1339.00,0.0288
1338.00,0.0289
1337.00,0.0291
1336.00,0.0293
1335.00,0.0295
1334.00,0.0296
1333.00,0.0297
1332.00,0.0297
1331.00,0.0297
1330.00,0.0297
1329.00,0.0298
1328.00,0.0300
1327.00,0.0303
1326.00,0.0307
1325.00,0.0312
1324.00,0.0319
1323.00,0.0327
1322.00,0.0335
1321.00,0.0344
1320.00,0.0352
1319.00,0.0360
1318.00,0.0366
1317.00,0.0370
1316.00,0.0372
1315.00,0.0372
1314.00,0.0371
1313.00,0.0368
1312.00,0.0364
1311.00,0.0360
1310.00,0.0357
1309.00,0.0353
1308.00,0.0351
1307.00,0.0349
1306.00,0.0347
1305.00,0.0346
1304.00,0.0346
1303.00,0.0348
1302.00,0.0352
1301.00,0.0359
1300.00,0.0370
1299.00,0.0386
1298.00,0.0406
1297.00,0.0431
1296.00,0.0460
1295.00,0.0491
1294.00,0.0521
1293.00,0.0549
1292.00,0.0573
1291.00,0.0589
1290.00,0.0599
1289.00,0.0603
1288.00,0.0601
1287.00,0.0594
1286.00,0.0584
1285.00,0.0572
1284.00,0.0559
1283.00,0.0546
1282.00,0.0535
1281.00,0.0525
1280.00,0.0518
1279.00,0.0514
1278.00,0.0511
1277.00,0.0511
1276.00,0.0511
1275.00,0.0511
1274.00,0.0509
1273.00,0.0504
1272.00,0.0497
1271.00,0.0487
1270.00,0.0474
1269.00,0.0459
1268.00,0.0443
1267.00,0.0427
1266.00,0.0411
1265.00,0.0396
1264.00,0.0382
1263.00,0.0371
1262.00,0.0362
1261.00,0.0356
1260.00,0.0353
1259.00,0.0352
1258.00,0.0354
1257.00,0.0359
1256.00,0.0366
1255.00,0.0374
1254.00,0.0384
1253.00,0.0394
1252.00,0.0404
1251.00,0.0414
1250.00,0.0423
1249.00,0.0432
1248.00,0.0441
1247.00,0.0450
1246.00,0.0458
1245.00,0.0467
1244.00,0.0474
1243.00,0.0481
1242.00,0.0485
1241.00,0.0487
1240.00,0.0486
1239.00,0.0483
1238.00,0.0477
1237.00,0.0470
1236.00,0.0463
1235.00,0.0455
1234.00,0.0447
1233.00,0.0440
1232.00,0.0435
1231.00,0.0431
1230.00,0.0429
1229.00,0.0430
1228.00,0.0432
1227.00,0.0435
1226.00,0.0438
1225.00,0.0440
1224.00,0.0441
1223.00,0.0441
1222.00,0.0440
1221.00,0.0438
1220.00,0.0436
1219.00,0.0434
1218.00,0.0431
1217.00,0.0428
1216.00,0.0424
1215.00,0.0420
1214.00,0.0415
1213.00,0.0410
1212.00,0.0404
1211.00,0.0399
1210.00,0.0394
1209.00,0.0390
1208.00,0.0389
1207.00,0.0389
1206.00,0.0392
1205.00,0.0396
1204.00,0.0400
1203.00,0.0403
1202.00,0.0403
1201.00,0.0401
1200.00,0.0394
1199.00,0.0385
1198.00,0.0374
1197.00,0.0362
1196.00,0.0349
1195.00,0.0338
1194.00,0.0327
1193.00,0.0319
1192.00,0.0311
1191.00,0.0305
1190.00,0.0300
1189.00,0.0295
1188.00,0.0291
1187.00,0.0287
1186.00,0.0284
1185.00,0.0282
1184.00,0.0280
1183.00,0.0279
1182.00,0.0281
1181.00,0.0283
1180.00,0.0288
1179.00,0.0295
1178.00,0.0304
1177.00,0.0314
1176.00,0.0325
1175.00,0.0334
1174.00,0.0342
1173.00,0.0347
1172.00,0.0348
1171.00,0.0344
1170.00,0.0337
1169.00,0.0328
1168.00,0.0317
1167.00,0.0305
1166.00,0.0293
1165.00,0.0281
1164.00,0.0271
1163.00,0.0262
1162.00,0.0255
1161.00,0.0251
1160.00,0.0249
1159.00,0.0251
1158.00,0.0256
1157.00,0.0264
1156.00,0.0276
1155.00,0.0289
1154.00,0.0303
1153.00,0.0317
1152.00,0.0329
1151.00,0.0337
1150.00,0.0340
1149.00,0.0336
1148.00,0.0324
1147.00,0.0306
1146.00,0.0285
1145.00,0.0264
1144.00,0.0245
1143.00,0.0229
1142.00,0.0217
1141.00,0.0208
1140.00,0.0202
1139.00,0.0198
1138.00,0.0196
1137.00,0.0195
1136.00,0.0195
1135.00,0.0194
1134.00,0.0192
1133.00,0.0190
1132.00,0.0187
1131.00,0.0183
1130.00,0.0180
1129.00,0.0177
1128.00,0.0174
1127.00,0.0171
1126.00,0.0169
1125.00,0.0167
1124.00,0.0165
1123.00,0.0164
1122.00,0.0163
1121.00,0.0163
1120.00,0.0163
1119.00,0.0163
1118.00,0.0164
1117.00,0.0166
1116.00,0.0167
1115.00,0.0169
1114.00,0.0171
1113.00,0.0174
1112.00,0.0175
1111.00,0.0177
1110.00,0.0178
1109.00,0.0178
1108.00,0.0179
1107.00,0.0179
1106.00,0.0179
1105.00,0.0180
1104.00,0.0181
1103.00,0.0183
1102.00,0.0185
1101.00,0.0187
1100.00,0.0189
1099.00,0.0192
1098.00,0.0193
1097.00,0.0195
1096.00,0.0195
1095.00,0.0194
1094.00,0.0191
1093.00,0.0187
1092.00,0.0182
1091.00,0.0177
1090.00,0.0172
1089.00,0.0169
1088.00,0.0166
1087.00,0.0165
1086.00,0.0165
1085.00,0.0165
1084.00,0.0166
1083.00,0.0168
1082.00,0.0171
1081.00,0.0174
1080.00,0.0176
1079.00,0.0178
1078.00,0.0180
1077.00,0.0180
1076.00,0.0180
1075.00,0.0178
1074.00,0.0175
1073.00,0.0172
1072.00,0.0169
1071.00,0.0166
1070.00,0.0164
1069.00,0.0163
1068.00,0.0163
1067.00,0.0163
1066.00,0.0165
1065.00,0.0168
1064.00,0.0172
1063.00,0.0179
1062.00,0.0189
1061.00,0.0203
1060.00,0.0222
1059.00,0.0246
1058.00,0.0275
1057.00,0.0306
1056.00,0.0336
1055.00,0.0363
1054.00,0.0380
1053.00,0.0386
1052.00,0.0379
1051.00,0.0361
1050.00,0.0336
1049.00,0.0309
1048.00,0.0284
1047.00,0.0264
1046.00,0.0250
1045.00,0.0243
1044.00,0.0240
1043.00,0.0241
1042.00,0.0247
1041.00,0.0256
1040.00,0.0269
1039.00,0.0286
1038.00,0.0307
1037.00,0.0334
1036.00,0.0364
1035.00,0.0398
1034.00,0.0434
1033.00,0.0470
1032.00,0.0503
1031.00,0.0533
1030.00,0.0556
1029.00,0.0572
1028.00,0.0579
1027.00,0.0576
1026.00,0.0565
1025.00,0.0546
1024.00,0.0524
1023.00,0.0500
1022.00,0.0479
1021.00,0.0460
1020.00,0.0446
1019.00,0.0433
1018.00,0.0420
1017.00,0.0406
1016.00,0.0391
1015.00,0.0375
1014.00,0.0359
1013.00,0.0344
1012.00,0.0332
1011.00,0.0322
1010.00,0.0315
1009.00,0.0309
1008.00,0.0304
1007.00,0.0299
1006.00,0.0295
1005.00,0.0290
1004.00,0.0285
1003.00,0.0281
1002.00,0.0276
1001.00,0.0272
1000.00,0.0268
999.00,0.0264
998.00,0.0260
997.00,0.0256
996.00,0.0251
995.00,0.0247
994.00,0.0243
993.00,0.0241
992.00,0.0240
991.00,0.0241
990.00,0.0242
989.00,0.0245
988.00,0.0247
987.00,0.0247
986.00,0.0246
985.00,0.0243
984.00,0.0239
983.00,0.0233
982.00,0.0227
981.00,0.0221
980.00,0.0215
979.00,0.0210
978.00,0.0206
977.00,0.0203
976.00,0.0200
975.00,0.0198
974.00,0.0195
973.00,0.0193
972.00,0.0191
971.00,0.0189
970.00,0.0188
969.00,0.0189
968.00,0.0190
967.00,0.0192
966.00,0.0194
965.00,0.0197
964.00,0.0200
963.00,0.0203
962.00,0.0204
961.00,0.0204
960.00,0.0202
959.00,0.0197
958.00,0.0191
957.00,0.0184
956.00,0.0176
955.00,0.0168
954.00,0.0160
953.00,0.0152
952.00,0.0146
951.00,0.0141
950.00,0.0137
949.00,0.0134
948.00,0.0132
947.00,0.0130
946.00,0.0129
945.00,0.0128
944.00,0.0128
943.00,0.0127
942.00,0.0128
941.00,0.0129
940.00,0.0130
939.00,0.0132
938.00,0.0135
937.00,0.0139
936.00,0.0143
935.00,0.0147
934.00,0.0151
933.00,0.0154
932.00,0.0156
931.00,0.0157
930.00,0.0158
929.00,0.0157
928.00,0.0157
927.00,0.0156
926.00,0.0155
925.00,0.0155
924.00,0.0154
923.00,0.0154
922.00,0.0155
921.00,0.0156
920.00,0.0157
919.00,0.0160
918.00,0.0162
917.00,0.0165
916.00,0.0168
915.00,0.0172
914.00,0.0174
913.00,0.0177
912.00,0.0180
911.00,0.0183
910.00,0.0188
909.00,0.0194
908.00,0.0201
907.00,0.0210
906.00,0.0220
905.00,0.0232
904.00,0.0244
903.00,0.0256
902.00,0.0266
901.00,0.0276
900.00,0.0284
899.00,0.0292
898.00,0.0298
897.00,0.0305
896.00,0.0312
895.00,0.0321
894.00,0.0329
893.00,0.0339
892.00,0.0349
891.00,0.0359
890.00,0.0369
889.00,0.0378
888.00,0.0387
887.00,0.0393
886.00,0.0397
885.00,0.0399
884.00,0.0397
883.00,0.0392
882.00,0.0385
881.00,0.0375
880.00,0.0364
879.00,0.0351
878.00,0.0339
877.00,0.0326
876.00,0.0313
875.00,0.0302
874.00,0.0293
873.00,0.0285
872.00,0.0280
871.00,0.0276
870.00,0.0274
869.00,0.0275
868.00,0.0277
867.00,0.0281
866.00,0.0285
865.00,0.0290
864.00,0.0294
863.00,0.0297
862.00,0.0300
861.00,0.0301
860.00,0.0302
859.00,0.0304
858.00,0.0306
857.00,0.0309
856.00,0.0314
855.00,0.0320
854.00,0.0325
853.00,0.0330
852.00,0.0334
851.00,0.0337
850.00,0.0340
849.00,0.0342
848.00,0.0344
847.00,0.0345
846.00,0.0347
845.00,0.0347
844.00,0.0348
843.00,0.0348
842.00,0.0348
841.00,0.0349
840.00,0.0350
839.00,0.0352
838.00,0.0355
837.00,0.0359
836.00,0.0363
835.00,0.0368
834.00,0.0373
833.00,0.0378
832.00,0.0383
831.00,0.0386
830.00,0.0388
829.00,0.0387
828.00,0.0384
827.00,0.0379
826.00,0.0372
825.00,0.0363
824.00,0.0352
823.00,0.0341
822.00,0.0330
821.00,0.0319
820.00,0.0309
819.00,0.0299
818.00,0.0290
817.00,0.0282
816.00,0.0276
815.00,0.0270
814.00,0.0266
813.00,0.0263
812.00,0.0260
811.00,0.0259
810.00,0.0258
809.00,0.0259
808.00,0.0262
807.00,0.0267
806.00,0.0273
805.00,0.0279
804.00,0.0282
803.00,0.0280
802.00,0.0275
801.00,0.0267
800.00,0.0259
799.00,0.0253
798.00,0.0250
797.00,0.0249
796.00,0.0250
795.00,0.0251
794.00,0.0252
793.00,0.0251
792.00,0.0249
791.00,0.0246
790.00,0.0242
789.00,0.0238
788.00,0.0234
787.00,0.0231
786.00,0.0229
785.00,0.0227
784.00,0.0225
783.00,0.0223
782.00,0.0222
781.00,0.0222
780.00,0.0223
779.00,0.0225
778.00,0.0228
777.00,0.0231
776.00,0.0235
775.00,0.0238
774.00,0.0241
773.00,0.0244
772.00,0.0245
771.00,0.0246
770.00,0.0247
769.00,0.0246
768.00,0.0246
767.00,0.0246
766.00,0.0245
765.00,0.0246
764.00,0.0247
763.00,0.0248
762.00,0.0251
761.00,0.0255
760.00,0.0259
759.00,0.0264
758.00,0.0270
757.00,0.0276
756.00,0.0282
755.00,0.0286
754.00,0.0290
753.00,0.0293
752.00,0.0294
751.00,0.0293
750.00,0.0291
749.00,0.0289
748.00,0.0285
747.00,0.0282
746.00,0.0279
745.00,0.0277
744.00,0.0275
743.00,0.0275
742.00,0.0276
741.00,0.0278
740.00,0.0281
739.00,0.0284
738.00,0.0287
737.00,0.0291
736.00,0.0295
735.00,0.0299
734.00,0.0302
733.00,0.0305
732.00,0.0305
731.00,0.0305
730.00,0.0304
729.00,0.0300
728.00,0.0296
727.00,0.0292
726.00,0.0288
725.00,0.0284
724.00,0.0279
723.00,0.0274
722.00,0.0269
721.00,0.0264
720.00,0.0261
719.00,0.0259
718.00,0.0257
717.00,0.0256
716.00,0.0255
715.00,0.0254
714.00,0.0253
713.00,0.0253
712.00,0.0252
711.00,0.0252
710.00,0.0252
709.00,0.0252
708.00,0.0252
707.00,0.0251
706.00,0.0250
705.00,0.0250
704.00,0.0250
703.00,0.0250
702.00,0.0251
701.00,0.0252
700.00,0.0253
699.00,0.0253
698.00,0.0254
697.00,0.0255
696.00,0.0256
695.00,0.0257
694.00,0.0258
693.00,0.0259
692.00,0.0260
691.00,0.0261
690.00,0.0263
689.00,0.0266
688.00,0.0269
687.00,0.0272
686.00,0.0277
685.00,0.0281
684.00,0.0285
683.00,0.0289
682.00,0.0294
681.00,0.0299
680.00,0.0303
679.00,0.0308
678.00,0.0312
677.00,0.0316
676.00,0.0319
675.00,0.0321
674.00,0.0323
673.00,0.0324
672.00,0.0325
671.00,0.0326
670.00,0.0327
669.00,0.0328
668.00,0.0330
667.00,0.0334
666.00,0.0336
665.00,0.0338
664.00,0.0342
663.00,0.0345
662.00,0.0348
661.00,0.0350
660.00,0.0352
659.00,0.0355
658.00,0.0358
657.00,0.0362
656.00,0.0366
655.00,0.0370
654.00,0.0374
653.00,0.0378
652.00,0.0380
651.00,0.0382
650.00,0.0382
649.00,0.0382
648.00,0.0382
647.00,0.0381
646.00,0.0378
645.00,0.0374
644.00,0.0369
643.00,0.0363
642.00,0.0357
641.00,0.0351
640.00,0.0345
639.00,0.0338
638.00,0.0331
637.00,0.0325
636.00,0.0321
635.00,0.0317
634.00,0.0312
633.00,0.0308
632.00,0.0304
631.00,0.0300
630.00,0.0296
629.00,0.0293
628.00,0.0290
627.00,0.0287
626.00,0.0284
625.00,0.0282
624.00,0.0280
623.00,0.0279
622.00,0.0278
621.00,0.0278
620.00,0.0278
619.00,0.0278
618.00,0.0279
617.00,0.0281
616.00,0.0283
615.00,0.0285
614.00,0.0288
613.00,0.0291
612.00,0.0295
611.00,0.0298
610.00,0.0300
609.00,0.0302
608.00,0.0304
607.00,0.0306
606.00,0.0307
605.00,0.0309
604.00,0.0311
603.00,0.0312
602.00,0.0314
601.00,0.0317
600.00,0.0320
599.00,0.0322
598.00,0.0324
597.00,0.0325
596.00,0.0326
595.00,0.0326
594.00,0.0326
593.00,0.0325
592.00,0.0325
591.00,0.0325
590.00,0.0324
589.00,0.0325
588.00,0.0327
587.00,0.0329
586.00,0.0332
585.00,0.0337
584.00,0.0344
583.00,0.0352
582.00,0.0360
581.00,0.0367
580.00,0.0372
579.00,0.0375
578.00,0.0375
577.00,0.0373
576.00,0.0370
575.00,0.0366
574.00,0.0362
573.00,0.0358
572.00,0.0353
571.00,0.0348
570.00,0.0344
569.00,0.0340
568.00,0.0336
567.00,0.0333
566.00,0.0331
565.00,0.0328
564.00,0.0326
563.00,0.0323
562.00,0.0322
561.00,0.0323
560.00,0.0327
559.00,0.0332
558.00,0.0339
557.00,0.0348
556.00,0.0358
555.00,0.0369
554.00,0.0378
553.00,0.0386
552.00,0.0391
551.00,0.0393
550.00,0.0391
549.00,0.0387
548.00,0.0382
547.00,0.0377
546.00,0.0372
545.00,0.0368
544.00,0.0363
543.00,0.0359
542.00,0.0357
541.00,0.0356
540.00,0.0358
539.00,0.0362
538.00,0.0366
537.00,0.0370
536.00,0.0375
535.00,0.0379
534.00,0.0383
533.00,0.0385
532.00,0.0385
531.00,0.0384
530.00,0.0384
529.00,0.0385
528.00,0.0389
527.00,0.0396
526.00,0.0404
525.00,0.0410
524.00,0.0411
523.00,0.0407
522.00,0.0398
521.00,0.0387
520.00,0.0374
519.00,0.0361
518.00,0.0351
517.00,0.0343
516.00,0.0338
515.00,0.0334
514.00,0.0330
513.00,0.0328
512.00,0.0325
511.00,0.0323
510.00,0.0322
509.00,0.0322
508.00,0.0322
507.00,0.0322
506.00,0.0321
505.00,0.0320
504.00,0.0320
503.00,0.0321
502.00,0.0324
501.00,0.0327
500.00,0.0329
499.00,0.0332
498.00,0.0334
497.00,0.0336
496.00,0.0338
495.00,0.0340
494.00,0.0343
493.00,0.0347
492.00,0.0350
491.00,0.0353
490.00,0.0356
489.00,0.0359
488.00,0.0363
487.00,0.0365
486.00,0.0367
485.00,0.0369
484.00,0.0372
483.00,0.0373
482.00,0.0374
481.00,0.0374
480.00,0.0374
479.00,0.0372
478.00,0.0372
477.00,0.0372
476.00,0.0372
475.00,0.0372
474.00,0.0373
473.00,0.0375
472.00,0.0379
471.00,0.0382
470.00,0.0385
469.00,0.0387
468.00,0.0390
467.00,0.0392
466.00,0.0393
465.00,0.0390
464.00,0.0387
463.00,0.0383
462.00,0.0380
461.00,0.0378
460.00,0.0375
459.00,0.0373
458.00,0.0370
457.00,0.0369
456.00,0.0368
455.00,0.0367
454.00,0.0364
453.00,0.0362
452.00,0.0361
451.00,0.0361
450.00,0.0362
449.00,0.0361
448.00,0.0359
447.00,0.0356
446.00,0.0355
445.00,0.0355
444.00,0.0356
443.00,0.0355
442.00,0.0353
441.00,0.0351
440.00,0.0349
439.00,0.0347
438.00,0.0347
437.00,0.0347
436.00,0.0348
435.00,0.0348
434.00,0.0347
433.00,0.0345
432.00,0.0343
431.00,0.0340
430.00,0.0338
429.00,0.0338
428.00,0.0339
427.00,0.0342
426.00,0.0346
425.00,0.0350
424.00,0.0357
423.00,0.0366
422.00,0.0373
421.00,0.0375
420.00,0.0372
419.00,0.0364
418.00,0.0358
417.00,0.0355
416.00,0.0353
415.00,0.0350
414.00,0.0350
413.00,0.0352
412.00,0.0353
411.00,0.0352
410.00,0.0350
409.00,0.0347
408.00,0.0344
407.00,0.0340
406.00,0.0336
405.00,0.0334
404.00,0.0333
403.00,0.0330
402.00,0.0320
401.00,0.0305
400.00,0.0292
