Created as New Dataset,Sample 939 By YargerLab Date Monday, July 28 2025
cm-1,A
4000.00,0.0049
3999.00,0.0049
3998.00,0.0049
3997.00,0.0049
3996.00,0.0049
3995.00,0.0048
3994.00,0.0048
3993.00,0.0048
3992.00,0.0048
3991.00,0.0048
3990.00,0.0048
3989.00,0.0048
3988.00,0.0048
3987.00,0.0048
3986.00,0.0049
3985.00,0.0049
3984.00,0.0049
3983.00,0.0049
3982.00,0.0049
3981.00,0.0049
3980.00,0.0049
3979.00,0.0049
3978.00,0.0049
3977.00,0.0048
3976.00,0.0048
3975.00,0.0048
3974.00,0.0048
3973.00,0.0049
3972.00,0.0049
3971.00,0.0049
3970.00,0.0049
3969.00,0.0049
3968.00,0.0049
3967.00,0.0049
3966.00,0.0049
3965.00,0.0049
3964.00,0.0049
3963.00,0.0049
3962.00,0.0048
3961.00,0.0048
3960.00,0.0048
3959.00,0.0048
3958.00,0.0048
3957.00,0.0048
3956.00,0.0048
3955.00,0.0048
3954.00,0.0048
3953.00,0.0048
3952.00,0.0048
3951.00,0.0048
3950.00,0.0048
3949.00,0.0048
3948.00,0.0048
3947.00,0.0048
3946.00,0.0048
3945.00,0.0048
3944.00,0.0048
3943.00,0.0048
3942.00,0.0048
3941.00,0.0048
3940.00,0.0048
3939.00,0.0048
3938.00,0.0048
3937.00,0.0048
3936.00,0.0048
3935.00,0.0048
3934.00,0.0048
3933.00,0.0047
3932.00,0.0047
3931.00,0.0047
3930.00,0.0047
3929.00,0.0047
3928.00,0.0047
3927.00,0.0047
3926.00,0.0047
3925.00,0.0047
3924.00,0.0048
3923.00,0.0048
3922.00,0.0048
3921.00,0.0048
3920.00,0.0048
3919.00,0.0048
3918.00,0.0048
3917.00,0.0048
3916.00,0.0048
3915.00,0.0048
3914.00,0.0048
3913.00,0.0048
3912.00,0.0048
3911.00,0.0048
3910.00,0.0048
3909.00,0.0048
3908.00,0.0047
3907.00,0.0047
3906.00,0.0047
3905.00,0.0047
3904.00,0.0047
3903.00,0.0047
3902.00,0.0047
3901.00,0.0046
3900.00,0.0047
3899.00,0.0047
3898.00,0.0047
3897.00,0.0047
3896.00,0.0047
3895.00,0.0047
3894.00,0.0047
3893.00,0.0047
3892.00,0.0047
3891.00,0.0047
3890.00,0.0047
3889.00,0.0046
3888.00,0.0046
3887.00,0.0046
3886.00,0.0046
3885.00,0.0047
3884.00,0.0047
3883.00,0.0047
3882.00,0.0047
3881.00,0.0047
3880.00,0.0047
3879.00,0.0047
3878.00,0.0047
3877.00,0.0047
3876.00,0.0047
3875.00,0.0047
3874.00,0.0047
3873.00,0.0047
3872.00,0.0047
3871.00,0.0047
3870.00,0.0046
3869.00,0.0046
3868.00,0.0046
3867.00,0.0046
3866.00,0.0046
3865.00,0.0046
3864.00,0.0046
3863.00,0.0046
3862.00,0.0046
3861.00,0.0046
3860.00,0.0046
3859.00,0.0046
3858.00,0.0047
3857.00,0.0047
3856.00,0.0046
3855.00,0.0046
3854.00,0.0046
3853.00,0.0046
3852.00,0.0046
3851.00,0.0046
3850.00,0.0046
3849.00,0.0046
3848.00,0.0046
3847.00,0.0046
3846.00,0.0046
3845.00,0.0046
3844.00,0.0047
3843.00,0.0047
3842.00,0.0047
3841.00,0.0047
3840.00,0.0047
3839.00,0.0047
3838.00,0.0047
3837.00,0.0046
3836.00,0.0046
3835.00,0.0046
3834.00,0.0046
3833.00,0.0046
3832.00,0.0046
3831.00,0.0046
3830.00,0.0047
3829.00,0.0047
3828.00,0.0047
3827.00,0.0047
3826.00,0.0047
3825.00,0.0047
3824.00,0.0046
3823.00,0.0046
3822.00,0.0046
3821.00,0.0046
3820.00,0.0046
3819.00,0.0046
3818.00,0.0046
3817.00,0.0046
3816.00,0.0046
3815.00,0.0047
3814.00,0.0047
3813.00,0.0047
3812.00,0.0047
3811.00,0.0047
3810.00,0.0047
3809.00,0.0047
3808.00,0.0046
3807.00,0.0046
3806.00,0.0046
3805.00,0.0046
3804.00,0.0046
3803.00,0.0046
3802.00,0.0046
3801.00,0.0046
3800.00,0.0046
3799.00,0.0046
3798.00,0.0046
3797.00,0.0046
3796.00,0.0047
3795.00,0.0047
3794.00,0.0047
3793.00,0.0047
3792.00,0.0047
3791.00,0.0047
3790.00,0.0048
3789.00,0.0048
3788.00,0.0048
3787.00,0.0048
3786.00,0.0048
3785.00,0.0048
3784.00,0.0047
3783.00,0.0047
3782.00,0.0047
3781.00,0.0047
3780.00,0.0047
3779.00,0.0047
3778.00,0.0047
3777.00,0.0047
3776.00,0.0047
3775.00,0.0047
3774.00,0.0047
3773.00,0.0047
3772.00,0.0047
3771.00,0.0047
3770.00,0.0047
3769.00,0.0047
3768.00,0.0047
3767.00,0.0047
3766.00,0.0046
3765.00,0.0047
3764.00,0.0047
3763.00,0.0047
3762.00,0.0047
3761.00,0.0047
3760.00,0.0047
3759.00,0.0047
3758.00,0.0047
3757.00,0.0047
3756.00,0.0047
3755.00,0.0046
3754.00,0.0046
3753.00,0.0045
3752.00,0.0045
3751.00,0.0045
3750.00,0.0044
3749.00,0.0044
3748.00,0.0045
3747.00,0.0045
3746.00,0.0044
3745.00,0.0045
3744.00,0.0045
3743.00,0.0045
3742.00,0.0045
3741.00,0.0045
3740.00,0.0045
3739.00,0.0045
3738.00,0.0045
3737.00,0.0044
3736.00,0.0044
3735.00,0.0044
3734.00,0.0044
3733.00,0.0044
3732.00,0.0044
3731.00,0.0044
3730.00,0.0044
3729.00,0.0044
3728.00,0.0044
3727.00,0.0045
3726.00,0.0045
3725.00,0.0045
3724.00,0.0045
3723.00,0.0045
3722.00,0.0046
3721.00,0.0046
3720.00,0.0046
3719.00,0.0046
3718.00,0.0046
3717.00,0.0046
3716.00,0.0045
3715.00,0.0045
3714.00,0.0045
3713.00,0.0045
3712.00,0.0045
3711.00,0.0045
3710.00,0.0045
3709.00,0.0045
3708.00,0.0045
3707.00,0.0045
3706.00,0.0045
3705.00,0.0045
3704.00,0.0045
3703.00,0.0045
3702.00,0.0045
3701.00,0.0045
3700.00,0.0045
3699.00,0.0045
3698.00,0.0045
3697.00,0.0045
3696.00,0.0045
3695.00,0.0045
3694.00,0.0046
3693.00,0.0046
3692.00,0.0046
3691.00,0.0046
3690.00,0.0046
3689.00,0.0046
3688.00,0.0046
3687.00,0.0047
3686.00,0.0047
3685.00,0.0047
3684.00,0.0047
3683.00,0.0047
3682.00,0.0047
3681.00,0.0048
3680.00,0.0048
3679.00,0.0048
3678.00,0.0048
3677.00,0.0048
3676.00,0.0048
3675.00,0.0048
3674.00,0.0048
3673.00,0.0048
3672.00,0.0048
3671.00,0.0048
3670.00,0.0048
3669.00,0.0049
3668.00,0.0049
3667.00,0.0049
3666.00,0.0050
3665.00,0.0050
3664.00,0.0050
3663.00,0.0050
3662.00,0.0051
3661.00,0.0051
3660.00,0.0051
3659.00,0.0051
3658.00,0.0052
3657.00,0.0052
3656.00,0.0052
3655.00,0.0052
3654.00,0.0052
3653.00,0.0052
3652.00,0.0051
3651.00,0.0051
3650.00,0.0051
3649.00,0.0052
3648.00,0.0052
3647.00,0.0053
3646.00,0.0053
3645.00,0.0054
3644.00,0.0054
3643.00,0.0055
3642.00,0.0055
3641.00,0.0055
3640.00,0.0056
3639.00,0.0056
3638.00,0.0056
3637.00,0.0057
3636.00,0.0057
3635.00,0.0057
3634.00,0.0057
3633.00,0.0057
3632.00,0.0057
3631.00,0.0057
3630.00,0.0057
3629.00,0.0058
3628.00,0.0059
3627.00,0.0060
3626.00,0.0060
3625.00,0.0060
3624.00,0.0061
3623.00,0.0061
3622.00,0.0062
3621.00,0.0062
3620.00,0.0062
3619.00,0.0063
3618.00,0.0063
3617.00,0.0064
3616.00,0.0064
3615.00,0.0065
3614.00,0.0066
3613.00,0.0066
3612.00,0.0067
3611.00,0.0067
3610.00,0.0067
3609.00,0.0068
3608.00,0.0069
3607.00,0.0070
3606.00,0.0071
3605.00,0.0071
3604.00,0.0072
3603.00,0.0073
3602.00,0.0073
3601.00,0.0074
3600.00,0.0074
3599.00,0.0075
3598.00,0.0075
3597.00,0.0076
3596.00,0.0076
3595.00,0.0077
3594.00,0.0078
3593.00,0.0078
3592.00,0.0078
3591.00,0.0079
3590.00,0.0079
3589.00,0.0080
3588.00,0.0081
3587.00,0.0082
3586.00,0.0083
3585.00,0.0084
3584.00,0.0085
3583.00,0.0085
3582.00,0.0086
3581.00,0.0087
3580.00,0.0088
3579.00,0.0088
3578.00,0.0089
3577.00,0.0090
3576.00,0.0091
3575.00,0.0091
3574.00,0.0092
3573.00,0.0093
3572.00,0.0094
3571.00,0.0094
3570.00,0.0094
3569.00,0.0094
3568.00,0.0095
3567.00,0.0096
3566.00,0.0097
3565.00,0.0098
3564.00,0.0099
3563.00,0.0100
3562.00,0.0101
3561.00,0.0102
3560.00,0.0103
3559.00,0.0104
3558.00,0.0105
3557.00,0.0106
3556.00,0.0107
3555.00,0.0107
3554.00,0.0107
3553.00,0.0108
3552.00,0.0109
3551.00,0.0109
3550.00,0.0110
3549.00,0.0111
3548.00,0.0112
3547.00,0.0113
3546.00,0.0114
3545.00,0.0115
3544.00,0.0115
3543.00,0.0116
3542.00,0.0117
3541.00,0.0118
3540.00,0.0118
3539.00,0.0119
3538.00,0.0120
3537.00,0.0121
3536.00,0.0121
3535.00,0.0122
3534.00,0.0123
3533.00,0.0123
3532.00,0.0124
3531.00,0.0125
3530.00,0.0126
3529.00,0.0126
3528.00,0.0127
3527.00,0.0128
3526.00,0.0128
3525.00,0.0129
3524.00,0.0130
3523.00,0.0130
3522.00,0.0131
3521.00,0.0132
3520.00,0.0133
3519.00,0.0134
3518.00,0.0134
3517.00,0.0135
3516.00,0.0136
3515.00,0.0137
3514.00,0.0138
3513.00,0.0138
3512.00,0.0139
3511.00,0.0139
3510.00,0.0140
3509.00,0.0141
3508.00,0.0141
3507.00,0.0142
3506.00,0.0143
3505.00,0.0144
3504.00,0.0145
3503.00,0.0146
3502.00,0.0147
3501.00,0.0147
3500.00,0.0148
3499.00,0.0149
3498.00,0.0150
3497.00,0.0151
3496.00,0.0152
3495.00,0.0153
3494.00,0.0154
3493.00,0.0154
3492.00,0.0155
3491.00,0.0156
3490.00,0.0157
3489.00,0.0158
3488.00,0.0159
3487.00,0.0160
3486.00,0.0161
3485.00,0.0162
3484.00,0.0162
3483.00,0.0163
3482.00,0.0164
3481.00,0.0165
3480.00,0.0166
3479.00,0.0167
3478.00,0.0168
3477.00,0.0168
3476.00,0.0169
3475.00,0.0170
3474.00,0.0171
3473.00,0.0172
3472.00,0.0173
3471.00,0.0174
3470.00,0.0175
3469.00,0.0177
3468.00,0.0178
3467.00,0.0179
3466.00,0.0180
3465.00,0.0180
3464.00,0.0181
3463.00,0.0182
3462.00,0.0182
3461.00,0.0183
3460.00,0.0184
3459.00,0.0185
3458.00,0.0186
3457.00,0.0186
3456.00,0.0187
3455.00,0.0188
3454.00,0.0189
3453.00,0.0189
3452.00,0.0190
3451.00,0.0191
3450.00,0.0192
3449.00,0.0193
3448.00,0.0194
3447.00,0.0195
3446.00,0.0196
3445.00,0.0197
3444.00,0.0198
3443.00,0.0198
3442.00,0.0199
3441.00,0.0199
3440.00,0.0200
3439.00,0.0201
3438.00,0.0202
3437.00,0.0203
3436.00,0.0204
3435.00,0.0205
3434.00,0.0206
3433.00,0.0207
3432.00,0.0208
3431.00,0.0209
3430.00,0.0210
3429.00,0.0211
3428.00,0.0212
3427.00,0.0213
3426.00,0.0214
3425.00,0.0214
3424.00,0.0215
3423.00,0.0216
3422.00,0.0217
3421.00,0.0218
3420.00,0.0219
3419.00,0.0220
3418.00,0.0221
3417.00,0.0222
3416.00,0.0223
3415.00,0.0224
3414.00,0.0225
3413.00,0.0226
3412.00,0.0227
3411.00,0.0228
3410.00,0.0229
3409.00,0.0229
3408.00,0.0230
3407.00,0.0231
3406.00,0.0232
3405.00,0.0233
3404.00,0.0233
3403.00,0.0233
3402.00,0.0234
3401.00,0.0234
3400.00,0.0235
3399.00,0.0235
3398.00,0.0236
3397.00,0.0236
3396.00,0.0236
3395.00,0.0236
3394.00,0.0236
3393.00,0.0236
3392.00,0.0236
3391.00,0.0236
3390.00,0.0236
3389.00,0.0237
3388.00,0.0237
3387.00,0.0237
3386.00,0.0237
3385.00,0.0237
3384.00,0.0237
3383.00,0.0237
3382.00,0.0237
3381.00,0.0236
3380.00,0.0236
3379.00,0.0236
3378.00,0.0236
3377.00,0.0236
3376.00,0.0236
3375.00,0.0236
3374.00,0.0236
3373.00,0.0236
3372.00,0.0236
3371.00,0.0235
3370.00,0.0235
3369.00,0.0234
3368.00,0.0235
3367.00,0.0235
3366.00,0.0236
3365.00,0.0236
3364.00,0.0237
3363.00,0.0237
3362.00,0.0237
3361.00,0.0237
3360.00,0.0237
3359.00,0.0238
3358.00,0.0238
3357.00,0.0238
3356.00,0.0238
3355.00,0.0238
3354.00,0.0238
3353.00,0.0238
3352.00,0.0237
3351.00,0.0237
3350.00,0.0238
3349.00,0.0239
3348.00,0.0239
3347.00,0.0240
3346.00,0.0240
3345.00,0.0240
3344.00,0.0240
3343.00,0.0240
3342.00,0.0240
3341.00,0.0240
3340.00,0.0240
3339.00,0.0241
3338.00,0.0241
3337.00,0.0242
3336.00,0.0242
3335.00,0.0243
3334.00,0.0243
3333.00,0.0244
3332.00,0.0244
3331.00,0.0244
3330.00,0.0244
3329.00,0.0244
3328.00,0.0244
3327.00,0.0244
3326.00,0.0244
3325.00,0.0244
3324.00,0.0245
3323.00,0.0246
3322.00,0.0247
3321.00,0.0248
3320.00,0.0248
3319.00,0.0249
3318.00,0.0249
3317.00,0.0250
3316.00,0.0250
3315.00,0.0251
3314.00,0.0251
3313.00,0.0251
3312.00,0.0251
3311.00,0.0251
3310.00,0.0251
3309.00,0.0250
3308.00,0.0250
3307.00,0.0250
3306.00,0.0251
3305.00,0.0252
3304.00,0.0254
3303.00,0.0255
3302.00,0.0256
3301.00,0.0257
3300.00,0.0258
3299.00,0.0258
3298.00,0.0258
3297.00,0.0258
3296.00,0.0258
3295.00,0.0258
3294.00,0.0259
3293.00,0.0260
3292.00,0.0261
3291.00,0.0262
3290.00,0.0263
3289.00,0.0264
3288.00,0.0265
3287.00,0.0265
3286.00,0.0265
3285.00,0.0266
3284.00,0.0266
3283.00,0.0266
3282.00,0.0266
3281.00,0.0266
3280.00,0.0266
3279.00,0.0267
3278.00,0.0267
3277.00,0.0267
3276.00,0.0267
3275.00,0.0266
3274.00,0.0266
3273.00,0.0266
3272.00,0.0265
3271.00,0.0265
3270.00,0.0265
3269.00,0.0266
3268.00,0.0266
3267.00,0.0266
3266.00,0.0266
3265.00,0.0266
3264.00,0.0266
3263.00,0.0266
3262.00,0.0266
3261.00,0.0265
3260.00,0.0265
3259.00,0.0264
3258.00,0.0264
3257.00,0.0263
3256.00,0.0263
3255.00,0.0263
3254.00,0.0263
3253.00,0.0263
3252.00,0.0262
3251.00,0.0262
3250.00,0.0261
3249.00,0.0260
3248.00,0.0259
3247.00,0.0259
3246.00,0.0259
3245.00,0.0259
3244.00,0.0259
3243.00,0.0258
3242.00,0.0258
3241.00,0.0258
3240.00,0.0257
3239.00,0.0257
3238.00,0.0256
3237.00,0.0255
3236.00,0.0254
3235.00,0.0253
3234.00,0.0253
3233.00,0.0253
3232.00,0.0253
3231.00,0.0253
3230.00,0.0253
3229.00,0.0253
3228.00,0.0252
3227.00,0.0252
3226.00,0.0251
3225.00,0.0251
3224.00,0.0251
3223.00,0.0250
3222.00,0.0250
3221.00,0.0249
3220.00,0.0249
3219.00,0.0248
3218.00,0.0247
3217.00,0.0247
3216.00,0.0246
3215.00,0.0245
3214.00,0.0245
3213.00,0.0244
3212.00,0.0244
3211.00,0.0243
3210.00,0.0243
3209.00,0.0242
3208.00,0.0241
3207.00,0.0241
3206.00,0.0240
3205.00,0.0239
3204.00,0.0238
3203.00,0.0237
3202.00,0.0236
3201.00,0.0235
3200.00,0.0234
3199.00,0.0234
3198.00,0.0233
3197.00,0.0232
3196.00,0.0232
3195.00,0.0230
3194.00,0.0229
3193.00,0.0228
3192.00,0.0227
3191.00,0.0226
3190.00,0.0225
3189.00,0.0224
3188.00,0.0223
3187.00,0.0222
3186.00,0.0221
3185.00,0.0220
3184.00,0.0219
3183.00,0.0218
3182.00,0.0217
3181.00,0.0216
3180.00,0.0215
3179.00,0.0214
3178.00,0.0213
3177.00,0.0212
3176.00,0.0211
3175.00,0.0209
3174.00,0.0208
3173.00,0.0207
3172.00,0.0206
3171.00,0.0205
3170.00,0.0204
3169.00,0.0203
3168.00,0.0202
3167.00,0.0201
3166.00,0.0200
3165.00,0.0199
3164.00,0.0197
3163.00,0.0196
3162.00,0.0195
3161.00,0.0194
3160.00,0.0193
3159.00,0.0191
3158.00,0.0190
3157.00,0.0189
3156.00,0.0188
3155.00,0.0186
3154.00,0.0185
3153.00,0.0184
3152.00,0.0183
3151.00,0.0183
3150.00,0.0182
3149.00,0.0181
3148.00,0.0180
3147.00,0.0179
3146.00,0.0178
3145.00,0.0177
3144.00,0.0176
3143.00,0.0175
3142.00,0.0174
3141.00,0.0173
3140.00,0.0173
3139.00,0.0172
3138.00,0.0171
3137.00,0.0170
3136.00,0.0170
3135.00,0.0169
3134.00,0.0169
3133.00,0.0168
3132.00,0.0167
3131.00,0.0166
3130.00,0.0166
3129.00,0.0165
3128.00,0.0165
3127.00,0.0164
3126.00,0.0164
3125.00,0.0163
3124.00,0.0162
3123.00,0.0162
3122.00,0.0161
3121.00,0.0160
3120.00,0.0159
3119.00,0.0158
3118.00,0.0158
3117.00,0.0158
3116.00,0.0158
3115.00,0.0158
3114.00,0.0157
3113.00,0.0157
3112.00,0.0157
3111.00,0.0156
3110.00,0.0155
3109.00,0.0154
3108.00,0.0154
3107.00,0.0154
3106.00,0.0153
3105.00,0.0153
3104.00,0.0153
3103.00,0.0153
3102.00,0.0153
3101.00,0.0152
3100.00,0.0152
3099.00,0.0151
3098.00,0.0151
3097.00,0.0152
3096.00,0.0152
3095.00,0.0151
3094.00,0.0151
3093.00,0.0151
3092.00,0.0151
3091.00,0.0151
3090.00,0.0151
3089.00,0.0151
3088.00,0.0151
3087.00,0.0151
3086.00,0.0151
3085.00,0.0151
3084.00,0.0151
3083.00,0.0151
3082.00,0.0151
3081.00,0.0151
3080.00,0.0150
3079.00,0.0150
3078.00,0.0150
3077.00,0.0150
3076.00,0.0151
3075.00,0.0151
3074.00,0.0151
3073.00,0.0151
3072.00,0.0151
3071.00,0.0150
3070.00,0.0150
3069.00,0.0149
3068.00,0.0149
3067.00,0.0149
3066.00,0.0149
3065.00,0.0149
3064.00,0.0149
3063.00,0.0149
3062.00,0.0149
3061.00,0.0149
3060.00,0.0149
3059.00,0.0149
3058.00,0.0148
3057.00,0.0148
3056.00,0.0147
3055.00,0.0147
3054.00,0.0147
3053.00,0.0146
3052.00,0.0146
3051.00,0.0146
3050.00,0.0145
3049.00,0.0145
3048.00,0.0145
3047.00,0.0144
3046.00,0.0143
3045.00,0.0142
3044.00,0.0142
3043.00,0.0141
3042.00,0.0141
3041.00,0.0142
3040.00,0.0142
3039.00,0.0142
3038.00,0.0142
3037.00,0.0142
3036.00,0.0142
3035.00,0.0142
3034.00,0.0142
3033.00,0.0142
3032.00,0.0142
3031.00,0.0141
3030.00,0.0141
3029.00,0.0140
3028.00,0.0140
3027.00,0.0139
3026.00,0.0139
3025.00,0.0138
3024.00,0.0137
3023.00,0.0137
3022.00,0.0136
3021.00,0.0136
3020.00,0.0135
3019.00,0.0135
3018.00,0.0134
3017.00,0.0134
3016.00,0.0133
3015.00,0.0133
3014.00,0.0133
3013.00,0.0134
3012.00,0.0134
3011.00,0.0136
3010.00,0.0137
3009.00,0.0138
3008.00,0.0139
3007.00,0.0140
3006.00,0.0142
3005.00,0.0143
3004.00,0.0144
3003.00,0.0146
3002.00,0.0148
3001.00,0.0150
3000.00,0.0152
2999.00,0.0155
2998.00,0.0158
2997.00,0.0161
2996.00,0.0164
2995.00,0.0168
2994.00,0.0171
2993.00,0.0174
2992.00,0.0177
2991.00,0.0180
2990.00,0.0184
2989.00,0.0187
2988.00,0.0190
2987.00,0.0194
2986.00,0.0197
2985.00,0.0201
2984.00,0.0206
2983.00,0.0211
2982.00,0.0216
2981.00,0.0221
2980.00,0.0226
2979.00,0.0230
2978.00,0.0233
2977.00,0.0236
2976.00,0.0238
2975.00,0.0242
2974.00,0.0246
2973.00,0.0251
2972.00,0.0257
2971.00,0.0263
2970.00,0.0268
2969.00,0.0271
2968.00,0.0275
2967.00,0.0277
2966.00,0.0280
2965.00,0.0283
2964.00,0.0287
2963.00,0.0290
2962.00,0.0292
2961.00,0.0294
2960.00,0.0296
2959.00,0.0296
2958.00,0.0295
2957.00,0.0292
2956.00,0.0289
2955.00,0.0286
2954.00,0.0282
2953.00,0.0278
2952.00,0.0275
2951.00,0.0272
2950.00,0.0269
2949.00,0.0267
2948.00,0.0266
2947.00,0.0266
2946.00,0.0267
2945.00,0.0268
2944.00,0.0270
2943.00,0.0272
2942.00,0.0275
2941.00,0.0279
2940.00,0.0284
2939.00,0.0290
2938.00,0.0296
2937.00,0.0303
2936.00,0.0310
2935.00,0.0318
2934.00,0.0326
2933.00,0.0335
2932.00,0.0343
2931.00,0.0351
2930.00,0.0357
2929.00,0.0363
2928.00,0.0367
2927.00,0.0370
2926.00,0.0370
2925.00,0.0368
2924.00,0.0364
2923.00,0.0359
2922.00,0.0354
2921.00,0.0348
2920.00,0.0341
2919.00,0.0334
2918.00,0.0327
2917.00,0.0320
2916.00,0.0312
2915.00,0.0305
2914.00,0.0297
2913.00,0.0290
2912.00,0.0284
2911.00,0.0278
2910.00,0.0272
2909.00,0.0267
2908.00,0.0263
2907.00,0.0258
2906.00,0.0254
2905.00,0.0250
2904.00,0.0246
2903.00,0.0243
2902.00,0.0240
2901.00,0.0237
2900.00,0.0235
2899.00,0.0232
2898.00,0.0230
2897.00,0.0228
2896.00,0.0226
2895.00,0.0225
2894.00,0.0223
2893.00,0.0222
2892.00,0.0221
2891.00,0.0219
2890.00,0.0218
2889.00,0.0217
2888.00,0.0216
2887.00,0.0215
2886.00,0.0215
2885.00,0.0214
2884.00,0.0214
2883.00,0.0214
2882.00,0.0214
2881.00,0.0215
2880.00,0.0216
2879.00,0.0218
2878.00,0.0220
2877.00,0.0223
2876.00,0.0225
2875.00,0.0227
2874.00,0.0229
2873.00,0.0230
2872.00,0.0231
2871.00,0.0230
2870.00,0.0229
2869.00,0.0228
2868.00,0.0227
2867.00,0.0226
2866.00,0.0225
2865.00,0.0226
2864.00,0.0228
2863.00,0.0231
2862.00,0.0234
2861.00,0.0239
2860.00,0.0244
2859.00,0.0249
2858.00,0.0253
2857.00,0.0256
2856.00,0.0256
2855.00,0.0256
2854.00,0.0254
2853.00,0.0251
2852.00,0.0246
2851.00,0.0240
2850.00,0.0233
2849.00,0.0225
2848.00,0.0216
2847.00,0.0207
2846.00,0.0199
2845.00,0.0191
2844.00,0.0184
2843.00,0.0178
2842.00,0.0172
2841.00,0.0167
2840.00,0.0162
2839.00,0.0158
2838.00,0.0154
2837.00,0.0151
2836.00,0.0149
2835.00,0.0146
2834.00,0.0144
2833.00,0.0142
2832.00,0.0140
2831.00,0.0138
2830.00,0.0136
2829.00,0.0134
2828.00,0.0132
2827.00,0.0131
2826.00,0.0130
2825.00,0.0128
2824.00,0.0127
2823.00,0.0125
2822.00,0.0124
2821.00,0.0123
2820.00,0.0121
2819.00,0.0121
2818.00,0.0120
2817.00,0.0119
2816.00,0.0118
2815.00,0.0117
2814.00,0.0116
2813.00,0.0115
2812.00,0.0115
2811.00,0.0114
2810.00,0.0113
2809.00,0.0113
2808.00,0.0112
2807.00,0.0112
2806.00,0.0112
2805.00,0.0111
2804.00,0.0111
2803.00,0.0110
2802.00,0.0110
2801.00,0.0109
2800.00,0.0108
2799.00,0.0108
2798.00,0.0108
2797.00,0.0108
2796.00,0.0107
2795.00,0.0107
2794.00,0.0106
2793.00,0.0106
2792.00,0.0105
2791.00,0.0105
2790.00,0.0104
2789.00,0.0104
2788.00,0.0104
2787.00,0.0103
2786.00,0.0103
2785.00,0.0103
2784.00,0.0102
2783.00,0.0102
2782.00,0.0101
2781.00,0.0101
2780.00,0.0101
2779.00,0.0100
2778.00,0.0100
2777.00,0.0100
2776.00,0.0099
2775.00,0.0099
2774.00,0.0099
2773.00,0.0099
2772.00,0.0098
2771.00,0.0098
2770.00,0.0098
2769.00,0.0097
2768.00,0.0097
2767.00,0.0097
2766.00,0.0097
2765.00,0.0097
2764.00,0.0097
2763.00,0.0097
2762.00,0.0096
2761.00,0.0096
2760.00,0.0096
2759.00,0.0096
2758.00,0.0095
2757.00,0.0095
2756.00,0.0095
2755.00,0.0095
2754.00,0.0095
2753.00,0.0095
2752.00,0.0095
2751.00,0.0095
2750.00,0.0095
2749.00,0.0095
2748.00,0.0094
2747.00,0.0094
2746.00,0.0094
2745.00,0.0094
2744.00,0.0094
2743.00,0.0094
2742.00,0.0094
2741.00,0.0094
2740.00,0.0094
2739.00,0.0094
2738.00,0.0094
2737.00,0.0094
2736.00,0.0094
2735.00,0.0094
2734.00,0.0094
2733.00,0.0094
2732.00,0.0094
2731.00,0.0094
2730.00,0.0094
2729.00,0.0094
2728.00,0.0094
2727.00,0.0093
2726.00,0.0093
2725.00,0.0093
2724.00,0.0092
2723.00,0.0092
2722.00,0.0092
2721.00,0.0092
2720.00,0.0091
2719.00,0.0091
2718.00,0.0091
2717.00,0.0091
2716.00,0.0091
2715.00,0.0090
2714.00,0.0090
2713.00,0.0089
2712.00,0.0089
2711.00,0.0089
2710.00,0.0089
2709.00,0.0089
2708.00,0.0089
2707.00,0.0088
2706.00,0.0088
2705.00,0.0088
2704.00,0.0088
2703.00,0.0088
2702.00,0.0087
2701.00,0.0087
2700.00,0.0087
2699.00,0.0087
2698.00,0.0087
2697.00,0.0086
2696.00,0.0086
2695.00,0.0086
2694.00,0.0086
2693.00,0.0086
2692.00,0.0085
2691.00,0.0085
2690.00,0.0085
2689.00,0.0085
2688.00,0.0084
2687.00,0.0084
2686.00,0.0084
2685.00,0.0084
2684.00,0.0084
2683.00,0.0084
2682.00,0.0084
2681.00,0.0084
2680.00,0.0083
2679.00,0.0083
2678.00,0.0083
2677.00,0.0083
2676.00,0.0084
2675.00,0.0084
2674.00,0.0084
2673.00,0.0083
2672.00,0.0083
2671.00,0.0083
2670.00,0.0084
2669.00,0.0084
2668.00,0.0084
2667.00,0.0084
2666.00,0.0084
2665.00,0.0085
2664.00,0.0085
2663.00,0.0086
2662.00,0.0086
2661.00,0.0086
2660.00,0.0087
2659.00,0.0087
2658.00,0.0087
2657.00,0.0087
2656.00,0.0087
2655.00,0.0087
2654.00,0.0087
2653.00,0.0087
2652.00,0.0087
2651.00,0.0087
2650.00,0.0087
2649.00,0.0087
2648.00,0.0087
2647.00,0.0087
2646.00,0.0087
2645.00,0.0087
2644.00,0.0087
2643.00,0.0086
2642.00,0.0086
2641.00,0.0086
2640.00,0.0086
2639.00,0.0086
2638.00,0.0086
2637.00,0.0086
2636.00,0.0085
2635.00,0.0085
2634.00,0.0085
2633.00,0.0084
2632.00,0.0084
2631.00,0.0084
2630.00,0.0084
2629.00,0.0083
2628.00,0.0083
2627.00,0.0082
2626.00,0.0082
2625.00,0.0082
2624.00,0.0082
2623.00,0.0082
2622.00,0.0082
2621.00,0.0081
2620.00,0.0081
2619.00,0.0081
2618.00,0.0081
2617.00,0.0081
2616.00,0.0081
2615.00,0.0081
2614.00,0.0081
2613.00,0.0080
2612.00,0.0080
2611.00,0.0080
2610.00,0.0080
2609.00,0.0080
2608.00,0.0080
2607.00,0.0080
2606.00,0.0080
2605.00,0.0079
2604.00,0.0079
2603.00,0.0079
2602.00,0.0079
2601.00,0.0079
2600.00,0.0079
2599.00,0.0079
2598.00,0.0078
2597.00,0.0078
2596.00,0.0078
2595.00,0.0078
2594.00,0.0078
2593.00,0.0078
2592.00,0.0078
2591.00,0.0078
2590.00,0.0078
2589.00,0.0078
2588.00,0.0078
2587.00,0.0078
2586.00,0.0078
2585.00,0.0078
2584.00,0.0078
2583.00,0.0078
2582.00,0.0077
2581.00,0.0077
2580.00,0.0077
2579.00,0.0077
2578.00,0.0077
2577.00,0.0077
2576.00,0.0077
2575.00,0.0076
2574.00,0.0076
2573.00,0.0076
2572.00,0.0076
2571.00,0.0076
2570.00,0.0075
2569.00,0.0075
2568.00,0.0075
2567.00,0.0075
2566.00,0.0075
2565.00,0.0075
2564.00,0.0075
2563.00,0.0074
2562.00,0.0074
2561.00,0.0074
2560.00,0.0073
2559.00,0.0073
2558.00,0.0073
2557.00,0.0073
2556.00,0.0073
2555.00,0.0073
2554.00,0.0073
2553.00,0.0073
2552.00,0.0072
2551.00,0.0072
2550.00,0.0072
2549.00,0.0072
2548.00,0.0072
2547.00,0.0071
2546.00,0.0071
2545.00,0.0071
2544.00,0.0071
2543.00,0.0071
2542.00,0.0071
2541.00,0.0071
2540.00,0.0071
2539.00,0.0071
2538.00,0.0071
2537.00,0.0071
2536.00,0.0071
2535.00,0.0071
2534.00,0.0070
2533.00,0.0070
2532.00,0.0070
2531.00,0.0070
2530.00,0.0070
2529.00,0.0069
2528.00,0.0069
2527.00,0.0068
2526.00,0.0068
2525.00,0.0068
2524.00,0.0068
2523.00,0.0068
2522.00,0.0068
2521.00,0.0067
2520.00,0.0067
2519.00,0.0067
2518.00,0.0067
2517.00,0.0067
2516.00,0.0067
2515.00,0.0067
2514.00,0.0066
2513.00,0.0066
2512.00,0.0066
2511.00,0.0066
2510.00,0.0066
2509.00,0.0066
2508.00,0.0066
2507.00,0.0066
2506.00,0.0066
2505.00,0.0066
2504.00,0.0066
2503.00,0.0066
2502.00,0.0065
2501.00,0.0065
2500.00,0.0065
2499.00,0.0065
2498.00,0.0066
2497.00,0.0066
2496.00,0.0066
2495.00,0.0066
2494.00,0.0066
2493.00,0.0065
2492.00,0.0065
2491.00,0.0064
2490.00,0.0064
2489.00,0.0064
2488.00,0.0065
2487.00,0.0065
2486.00,0.0065
2485.00,0.0064
2484.00,0.0064
2483.00,0.0064
2482.00,0.0064
2481.00,0.0064
2480.00,0.0064
2479.00,0.0063
2478.00,0.0063
2477.00,0.0063
2476.00,0.0063
2475.00,0.0063
2474.00,0.0063
2473.00,0.0063
2472.00,0.0063
2471.00,0.0063
2470.00,0.0063
2469.00,0.0062
2468.00,0.0062
2467.00,0.0062
2466.00,0.0063
2465.00,0.0063
2464.00,0.0063
2463.00,0.0063
2462.00,0.0063
2461.00,0.0063
2460.00,0.0063
2459.00,0.0064
2458.00,0.0064
2457.00,0.0064
2456.00,0.0064
2455.00,0.0063
2454.00,0.0063
2453.00,0.0063
2452.00,0.0063
2451.00,0.0063
2450.00,0.0062
2449.00,0.0062
2448.00,0.0062
2447.00,0.0061
2446.00,0.0061
2445.00,0.0061
2444.00,0.0061
2443.00,0.0061
2442.00,0.0061
2441.00,0.0061
2440.00,0.0060
2439.00,0.0060
2438.00,0.0060
2437.00,0.0060
2436.00,0.0060
2435.00,0.0060
2434.00,0.0060
2433.00,0.0060
2432.00,0.0060
2431.00,0.0060
2430.00,0.0060
2429.00,0.0060
2428.00,0.0060
2427.00,0.0060
2426.00,0.0059
2425.00,0.0059
2424.00,0.0059
2423.00,0.0059
2422.00,0.0058
2421.00,0.0058
2420.00,0.0058
2419.00,0.0058
2418.00,0.0058
2417.00,0.0058
2416.00,0.0059
2415.00,0.0059
2414.00,0.0058
2413.00,0.0058
2412.00,0.0058
2411.00,0.0058
2410.00,0.0058
2409.00,0.0057
2408.00,0.0057
2407.00,0.0057
2406.00,0.0057
2405.00,0.0057
2404.00,0.0057
2403.00,0.0057
2402.00,0.0057
2401.00,0.0057
2400.00,0.0057
2399.00,0.0056
2398.00,0.0055
2397.00,0.0055
2396.00,0.0055
2395.00,0.0055
2394.00,0.0055
2393.00,0.0055
2392.00,0.0055
2391.00,0.0055
2390.00,0.0055
2389.00,0.0055
2388.00,0.0054
2387.00,0.0054
2386.00,0.0053
2385.00,0.0053
2384.00,0.0052
2383.00,0.0052
2382.00,0.0051
2381.00,0.0051
2380.00,0.0051
2379.00,0.0051
2378.00,0.0051
2377.00,0.0051
2376.00,0.0051
2375.00,0.0051
2374.00,0.0051
2373.00,0.0051
2372.00,0.0051
2371.00,0.0050
2370.00,0.0049
2369.00,0.0049
2368.00,0.0049
2367.00,0.0049
2366.00,0.0050
2365.00,0.0050
2364.00,0.0050
2363.00,0.0051
2362.00,0.0050
2361.00,0.0051
2360.00,0.0051
2359.00,0.0051
2358.00,0.0051
2357.00,0.0051
2356.00,0.0051
2355.00,0.0051
2354.00,0.0051
2353.00,0.0051
2352.00,0.0051
2351.00,0.0051
2350.00,0.0051
2349.00,0.0051
2348.00,0.0052
2347.00,0.0053
2346.00,0.0054
2345.00,0.0054
2344.00,0.0054
2343.00,0.0054
2342.00,0.0054
2341.00,0.0054
2340.00,0.0054
2339.00,0.0055
2338.00,0.0055
2337.00,0.0054
2336.00,0.0054
2335.00,0.0054
2334.00,0.0054
2333.00,0.0054
2332.00,0.0054
2331.00,0.0053
2330.00,0.0054
2329.00,0.0056
2328.00,0.0059
2327.00,0.0063
2326.00,0.0066
2325.00,0.0067
2324.00,0.0067
2323.00,0.0065
2322.00,0.0063
2321.00,0.0061
2320.00,0.0060
2319.00,0.0059
2318.00,0.0059
2317.00,0.0059
2316.00,0.0059
2315.00,0.0058
2314.00,0.0058
2313.00,0.0057
2312.00,0.0057
2311.00,0.0056
2310.00,0.0056
2309.00,0.0056
2308.00,0.0056
2307.00,0.0056
2306.00,0.0056
2305.00,0.0057
2304.00,0.0057
2303.00,0.0058
2302.00,0.0058
2301.00,0.0058
2300.00,0.0058
2299.00,0.0059
2298.00,0.0059
2297.00,0.0060
2296.00,0.0060
2295.00,0.0061
2294.00,0.0062
2293.00,0.0063
2292.00,0.0064
2291.00,0.0065
2290.00,0.0065
2289.00,0.0066
2288.00,0.0067
2287.00,0.0067
2286.00,0.0067
2285.00,0.0066
2284.00,0.0065
2283.00,0.0064
2282.00,0.0063
2281.00,0.0063
2280.00,0.0062
2279.00,0.0061
2278.00,0.0060
2277.00,0.0060
2276.00,0.0059
2275.00,0.0059
2274.00,0.0059
2273.00,0.0060
2272.00,0.0061
2271.00,0.0061
2270.00,0.0060
2269.00,0.0059
2268.00,0.0057
2267.00,0.0056
2266.00,0.0055
2265.00,0.0055
2264.00,0.0056
2263.00,0.0057
2262.00,0.0057
2261.00,0.0057
2260.00,0.0057
2259.00,0.0056
2258.00,0.0056
2257.00,0.0055
2256.00,0.0054
2255.00,0.0053
2254.00,0.0052
2253.00,0.0052
2252.00,0.0052
2251.00,0.0053
2250.00,0.0054
2249.00,0.0054
2248.00,0.0054
2247.00,0.0054
2246.00,0.0054
2245.00,0.0055
2244.00,0.0056
2243.00,0.0056
2242.00,0.0056
2241.00,0.0055
2240.00,0.0055
2239.00,0.0055
2238.00,0.0055
2237.00,0.0055
2236.00,0.0056
2235.00,0.0056
2234.00,0.0055
2233.00,0.0055
2232.00,0.0054
2231.00,0.0054
2230.00,0.0053
2229.00,0.0053
2228.00,0.0053
2227.00,0.0054
2226.00,0.0054
2225.00,0.0055
2224.00,0.0056
2223.00,0.0056
2222.00,0.0056
2221.00,0.0055
2220.00,0.0055
2219.00,0.0055
2218.00,0.0055
2217.00,0.0056
2216.00,0.0056
2215.00,0.0055
2214.00,0.0055
2213.00,0.0054
2212.00,0.0054
2211.00,0.0054
2210.00,0.0054
2209.00,0.0055
2208.00,0.0055
2207.00,0.0055
2206.00,0.0054
2205.00,0.0054
2204.00,0.0054
2203.00,0.0053
2202.00,0.0053
2201.00,0.0052
2200.00,0.0052
2199.00,0.0051
2198.00,0.0051
2197.00,0.0050
2196.00,0.0051
2195.00,0.0052
2194.00,0.0053
2193.00,0.0055
2192.00,0.0056
2191.00,0.0056
2190.00,0.0056
2189.00,0.0055
2188.00,0.0055
2187.00,0.0056
2186.00,0.0056
2185.00,0.0056
2184.00,0.0054
2183.00,0.0051
2182.00,0.0049
2181.00,0.0049
2180.00,0.0051
2179.00,0.0052
2178.00,0.0052
2177.00,0.0050
2176.00,0.0047
2175.00,0.0044
2174.00,0.0044
2173.00,0.0046
2172.00,0.0050
2171.00,0.0054
2170.00,0.0056
2169.00,0.0057
2168.00,0.0058
2167.00,0.0059
2166.00,0.0062
2165.00,0.0065
2164.00,0.0068
2163.00,0.0067
2162.00,0.0060
2161.00,0.0048
2160.00,0.0034
2159.00,0.0023
2158.00,0.0018
2157.00,0.0018
2156.00,0.0021
2155.00,0.0024
2154.00,0.0027
2153.00,0.0028
2152.00,0.0030
2151.00,0.0032
2150.00,0.0033
2149.00,0.0035
2148.00,0.0036
2147.00,0.0037
2146.00,0.0036
2145.00,0.0036
2144.00,0.0036
2143.00,0.0036
2142.00,0.0036
2141.00,0.0036
2140.00,0.0036
2139.00,0.0036
2138.00,0.0035
2137.00,0.0033
2136.00,0.0031
2135.00,0.0030
2134.00,0.0029
2133.00,0.0030
2132.00,0.0032
2131.00,0.0034
2130.00,0.0036
2129.00,0.0037
2128.00,0.0039
2127.00,0.0040
2126.00,0.0041
2125.00,0.0042
2124.00,0.0043
2123.00,0.0045
2122.00,0.0045
2121.00,0.0046
2120.00,0.0046
2119.00,0.0046
2118.00,0.0046
2117.00,0.0047
2116.00,0.0048
2115.00,0.0049
2114.00,0.0049
2113.00,0.0049
2112.00,0.0049
2111.00,0.0048
2110.00,0.0048
2109.00,0.0047
2108.00,0.0048
2107.00,0.0048
2106.00,0.0048
2105.00,0.0047
2104.00,0.0047
2103.00,0.0047
2102.00,0.0047
2101.00,0.0047
2100.00,0.0048
2099.00,0.0048
2098.00,0.0046
2097.00,0.0045
2096.00,0.0043
2095.00,0.0043
2094.00,0.0043
2093.00,0.0044
2092.00,0.0045
2091.00,0.0045
2090.00,0.0045
2089.00,0.0045
2088.00,0.0046
2087.00,0.0047
2086.00,0.0048
2085.00,0.0048
2084.00,0.0049
2083.00,0.0049
2082.00,0.0049
2081.00,0.0049
2080.00,0.0049
2079.00,0.0050
2078.00,0.0050
2077.00,0.0050
2076.00,0.0049
2075.00,0.0049
2074.00,0.0049
2073.00,0.0049
2072.00,0.0050
2071.00,0.0050
2070.00,0.0049
2069.00,0.0048
2068.00,0.0047
2067.00,0.0047
2066.00,0.0046
2065.00,0.0046
2064.00,0.0046
2063.00,0.0046
2062.00,0.0045
2061.00,0.0044
2060.00,0.0043
2059.00,0.0044
2058.00,0.0044
2057.00,0.0044
2056.00,0.0045
2055.00,0.0045
2054.00,0.0047
2053.00,0.0051
2052.00,0.0053
2051.00,0.0053
2050.00,0.0051
2049.00,0.0049
2048.00,0.0048
2047.00,0.0047
2046.00,0.0047
2045.00,0.0047
2044.00,0.0046
2043.00,0.0045
2042.00,0.0044
2041.00,0.0045
2040.00,0.0046
2039.00,0.0048
2038.00,0.0048
2037.00,0.0046
2036.00,0.0043
2035.00,0.0041
2034.00,0.0040
2033.00,0.0041
2032.00,0.0042
2031.00,0.0043
2030.00,0.0042
2029.00,0.0040
2028.00,0.0039
2027.00,0.0039
2026.00,0.0038
2025.00,0.0038
2024.00,0.0039
2023.00,0.0039
2022.00,0.0039
2021.00,0.0038
2020.00,0.0037
2019.00,0.0036
2018.00,0.0035
2017.00,0.0034
2016.00,0.0035
2015.00,0.0035
2014.00,0.0035
2013.00,0.0034
2012.00,0.0035
2011.00,0.0036
2010.00,0.0036
2009.00,0.0035
2008.00,0.0034
2007.00,0.0032
2006.00,0.0032
2005.00,0.0032
2004.00,0.0034
2003.00,0.0036
2002.00,0.0036
2001.00,0.0037
2000.00,0.0038
1999.00,0.0038
1998.00,0.0038
1997.00,0.0038
1996.00,0.0039
1995.00,0.0040
1994.00,0.0041
1993.00,0.0042
1992.00,0.0042
1991.00,0.0043
1990.00,0.0044
1989.00,0.0045
1988.00,0.0046
1987.00,0.0046
1986.00,0.0046
1985.00,0.0047
1984.00,0.0050
1983.00,0.0052
1982.00,0.0054
1981.00,0.0055
1980.00,0.0052
1979.00,0.0047
1978.00,0.0040
1977.00,0.0036
1976.00,0.0034
1975.00,0.0034
1974.00,0.0034
1973.00,0.0034
1972.00,0.0034
1971.00,0.0033
1970.00,0.0031
1969.00,0.0031
1968.00,0.0032
1967.00,0.0033
1966.00,0.0034
1965.00,0.0035
1964.00,0.0035
1963.00,0.0035
1962.00,0.0033
1961.00,0.0032
1960.00,0.0031
1959.00,0.0031
1958.00,0.0031
1957.00,0.0032
1956.00,0.0033
1955.00,0.0033
1954.00,0.0033
1953.00,0.0034
1952.00,0.0035
1951.00,0.0035
1950.00,0.0035
1949.00,0.0035
1948.00,0.0034
1947.00,0.0034
1946.00,0.0034
1945.00,0.0034
1944.00,0.0036
1943.00,0.0036
1942.00,0.0036
1941.00,0.0036
1940.00,0.0035
1939.00,0.0035
1938.00,0.0035
1937.00,0.0035
1936.00,0.0036
1935.00,0.0036
1934.00,0.0036
1933.00,0.0036
1932.00,0.0036
1931.00,0.0036
1930.00,0.0035
1929.00,0.0035
1928.00,0.0036
1927.00,0.0036
1926.00,0.0036
1925.00,0.0037
1924.00,0.0038
1923.00,0.0040
1922.00,0.0040
1921.00,0.0040
1920.00,0.0040
1919.00,0.0040
1918.00,0.0039
1917.00,0.0040
1916.00,0.0040
1915.00,0.0041
1914.00,0.0042
1913.00,0.0042
1912.00,0.0043
1911.00,0.0043
1910.00,0.0043
1909.00,0.0043
1908.00,0.0044
1907.00,0.0044
1906.00,0.0043
1905.00,0.0042
1904.00,0.0042
1903.00,0.0041
1902.00,0.0041
1901.00,0.0041
1900.00,0.0042
1899.00,0.0042
1898.00,0.0042
1897.00,0.0042
1896.00,0.0042
1895.00,0.0042
1894.00,0.0042
1893.00,0.0043
1892.00,0.0043
1891.00,0.0043
1890.00,0.0042
1889.00,0.0042
1888.00,0.0042
1887.00,0.0041
1886.00,0.0041
1885.00,0.0041
1884.00,0.0041
1883.00,0.0041
1882.00,0.0041
1881.00,0.0041
1880.00,0.0041
1879.00,0.0041
1878.00,0.0041
1877.00,0.0041
1876.00,0.0041
1875.00,0.0041
1874.00,0.0042
1873.00,0.0042
1872.00,0.0042
1871.00,0.0042
1870.00,0.0041
1869.00,0.0040
1868.00,0.0041
1867.00,0.0041
1866.00,0.0042
1865.00,0.0042
1864.00,0.0043
1863.00,0.0043
1862.00,0.0043
1861.00,0.0042
1860.00,0.0042
1859.00,0.0042
1858.00,0.0042
1857.00,0.0042
1856.00,0.0043
1855.00,0.0043
1854.00,0.0043
1853.00,0.0043
1852.00,0.0043
1851.00,0.0043
1850.00,0.0043
1849.00,0.0043
1848.00,0.0043
1847.00,0.0044
1846.00,0.0044
1845.00,0.0045
1844.00,0.0045
1843.00,0.0044
1842.00,0.0043
1841.00,0.0043
1840.00,0.0043
1839.00,0.0042
1838.00,0.0042
1837.00,0.0042
1836.00,0.0042
1835.00,0.0042
1834.00,0.0042
1833.00,0.0042
1832.00,0.0043
1831.00,0.0043
1830.00,0.0043
1829.00,0.0044
1828.00,0.0044
1827.00,0.0044
1826.00,0.0044
1825.00,0.0044
1824.00,0.0044
1823.00,0.0044
1822.00,0.0044
1821.00,0.0043
1820.00,0.0042
1819.00,0.0041
1818.00,0.0040
1817.00,0.0040
1816.00,0.0041
1815.00,0.0042
1814.00,0.0042
1813.00,0.0043
1812.00,0.0043
1811.00,0.0043
1810.00,0.0043
1809.00,0.0043
1808.00,0.0044
1807.00,0.0045
1806.00,0.0045
1805.00,0.0045
1804.00,0.0045
1803.00,0.0045
1802.00,0.0045
1801.00,0.0045
1800.00,0.0046
1799.00,0.0046
1798.00,0.0046
1797.00,0.0046
1796.00,0.0047
1795.00,0.0047
1794.00,0.0048
1793.00,0.0048
1792.00,0.0048
1791.00,0.0049
1790.00,0.0048
1789.00,0.0048
1788.00,0.0048
1787.00,0.0048
1786.00,0.0048
1785.00,0.0048
1784.00,0.0049
1783.00,0.0049
1782.00,0.0049
1781.00,0.0049
1780.00,0.0049
1779.00,0.0050
1778.00,0.0050
1777.00,0.0050
1776.00,0.0051
1775.00,0.0052
1774.00,0.0053
1773.00,0.0053
1772.00,0.0054
1771.00,0.0054
1770.00,0.0053
1769.00,0.0053
1768.00,0.0053
1767.00,0.0053
1766.00,0.0054
1765.00,0.0054
1764.00,0.0054
1763.00,0.0055
1762.00,0.0055
1761.00,0.0056
1760.00,0.0056
1759.00,0.0056
1758.00,0.0056
1757.00,0.0057
1756.00,0.0057
1755.00,0.0058
1754.00,0.0058
1753.00,0.0058
1752.00,0.0058
1751.00,0.0059
1750.00,0.0059
1749.00,0.0059
1748.00,0.0060
1747.00,0.0061
1746.00,0.0062
1745.00,0.0062
1744.00,0.0063
1743.00,0.0065
1742.00,0.0066
1741.00,0.0067
1740.00,0.0068
1739.00,0.0069
1738.00,0.0070
1737.00,0.0071
1736.00,0.0072
1735.00,0.0074
1734.00,0.0076
1733.00,0.0078
1732.00,0.0079
1731.00,0.0079
1730.00,0.0079
1729.00,0.0081
1728.00,0.0083
1727.00,0.0086
1726.00,0.0087
1725.00,0.0089
1724.00,0.0092
1723.00,0.0094
1722.00,0.0096
1721.00,0.0099
1720.00,0.0102
1719.00,0.0106
1718.00,0.0109
1717.00,0.0113
1716.00,0.0117
1715.00,0.0121
1714.00,0.0124
1713.00,0.0128
1712.00,0.0133
1711.00,0.0138
1710.00,0.0143
1709.00,0.0149
1708.00,0.0156
1707.00,0.0165
1706.00,0.0174
1705.00,0.0185
1704.00,0.0196
1703.00,0.0206
1702.00,0.0219
1701.00,0.0237
1700.00,0.0260
1699.00,0.0280
1698.00,0.0295
1697.00,0.0313
1696.00,0.0337
1695.00,0.0362
1694.00,0.0384
1693.00,0.0402
1692.00,0.0421
1691.00,0.0442
1690.00,0.0464
1689.00,0.0486
1688.00,0.0507
1687.00,0.0526
1686.00,0.0545
1685.00,0.0569
1684.00,0.0597
1683.00,0.0622
1682.00,0.0639
1681.00,0.0653
1680.00,0.0668
1679.00,0.0683
1678.00,0.0697
1677.00,0.0710
1676.00,0.0726
1675.00,0.0742
1674.00,0.0755
1673.00,0.0766
1672.00,0.0775
1671.00,0.0785
1670.00,0.0796
1669.00,0.0808
1668.00,0.0818
1667.00,0.0826
1666.00,0.0832
1665.00,0.0839
1664.00,0.0846
1663.00,0.0855
1662.00,0.0862
1661.00,0.0868
1660.00,0.0872
1659.00,0.0875
1658.00,0.0877
1657.00,0.0879
1656.00,0.0880
1655.00,0.0880
1654.00,0.0881
1653.00,0.0881
1652.00,0.0879
1651.00,0.0872
1650.00,0.0863
1649.00,0.0853
1648.00,0.0844
1647.00,0.0834
1646.00,0.0823
1645.00,0.0812
1644.00,0.0801
1643.00,0.0790
1642.00,0.0778
1641.00,0.0767
1640.00,0.0756
1639.00,0.0746
1638.00,0.0736
1637.00,0.0726
1636.00,0.0716
1635.00,0.0708
1634.00,0.0701
1633.00,0.0695
1632.00,0.0691
1631.00,0.0689
1630.00,0.0690
1629.00,0.0694
1628.00,0.0702
1627.00,0.0712
1626.00,0.0721
1625.00,0.0729
1624.00,0.0735
1623.00,0.0738
1622.00,0.0738
1621.00,0.0734
1620.00,0.0727
1619.00,0.0717
1618.00,0.0702
1617.00,0.0682
1616.00,0.0661
1615.00,0.0644
1614.00,0.0632
1613.00,0.0622
1612.00,0.0614
1611.00,0.0605
1610.00,0.0595
1609.00,0.0582
1608.00,0.0566
1607.00,0.0550
1606.00,0.0532
1605.00,0.0516
1604.00,0.0499
1603.00,0.0484
1602.00,0.0470
1601.00,0.0458
1600.00,0.0446
1599.00,0.0436
1598.00,0.0428
1597.00,0.0421
1596.00,0.0415
1595.00,0.0411
1594.00,0.0409
1593.00,0.0408
1592.00,0.0410
1591.00,0.0415
1590.00,0.0423
1589.00,0.0432
1588.00,0.0442
1587.00,0.0451
1586.00,0.0459
1585.00,0.0464
1584.00,0.0466
1583.00,0.0466
1582.00,0.0464
1581.00,0.0460
1580.00,0.0455
1579.00,0.0450
1578.00,0.0444
1577.00,0.0438
1576.00,0.0429
1575.00,0.0421
1574.00,0.0415
1573.00,0.0410
1572.00,0.0408
1571.00,0.0406
1570.00,0.0405
1569.00,0.0404
1568.00,0.0404
1567.00,0.0403
1566.00,0.0401
1565.00,0.0400
1564.00,0.0398
1563.00,0.0397
1562.00,0.0397
1561.00,0.0398
1560.00,0.0398
1559.00,0.0398
1558.00,0.0400
1557.00,0.0402
1556.00,0.0403
1555.00,0.0405
1554.00,0.0407
1553.00,0.0411
1552.00,0.0413
1551.00,0.0416
1550.00,0.0420
1549.00,0.0424
1548.00,0.0428
1547.00,0.0431
1546.00,0.0434
1545.00,0.0437
1544.00,0.0440
1543.00,0.0444
1542.00,0.0448
1541.00,0.0451
1540.00,0.0454
1539.00,0.0456
1538.00,0.0457
1537.00,0.0457
1536.00,0.0457
1535.00,0.0458
1534.00,0.0458
1533.00,0.0459
1532.00,0.0459
1531.00,0.0459
1530.00,0.0459
1529.00,0.0459
1528.00,0.0459
1527.00,0.0459
1526.00,0.0459
1525.00,0.0460
1524.00,0.0460
1523.00,0.0460
1522.00,0.0460
1521.00,0.0460
1520.00,0.0461
1519.00,0.0462
1518.00,0.0463
1517.00,0.0463
1516.00,0.0464
1515.00,0.0464
1514.00,0.0464
1513.00,0.0462
1512.00,0.0460
1511.00,0.0457
1510.00,0.0455
1509.00,0.0452
1508.00,0.0449
1507.00,0.0446
1506.00,0.0444
1505.00,0.0443
1504.00,0.0441
1503.00,0.0440
1502.00,0.0440
1501.00,0.0443
1500.00,0.0449
1499.00,0.0458
1498.00,0.0469
1497.00,0.0478
1496.00,0.0482
1495.00,0.0480
1494.00,0.0472
1493.00,0.0460
1492.00,0.0446
1491.00,0.0429
1490.00,0.0412
1489.00,0.0395
1488.00,0.0381
1487.00,0.0368
1486.00,0.0356
1485.00,0.0346
1484.00,0.0337
1483.00,0.0329
1482.00,0.0322
1481.00,0.0317
1480.00,0.0314
1479.00,0.0312
1478.00,0.0311
1477.00,0.0313
1476.00,0.0315
1475.00,0.0320
1474.00,0.0327
1473.00,0.0339
1472.00,0.0354
1471.00,0.0371
1470.00,0.0389
1469.00,0.0407
1468.00,0.0427
1467.00,0.0447
1466.00,0.0465
1465.00,0.0480
1464.00,0.0492
1463.00,0.0500
1462.00,0.0504
1461.00,0.0507
1460.00,0.0509
1459.00,0.0509
1458.00,0.0507
1457.00,0.0501
1456.00,0.0494
1455.00,0.0486
1454.00,0.0478
1453.00,0.0472
1452.00,0.0468
1451.00,0.0467
1450.00,0.0468
1449.00,0.0471
1448.00,0.0476
1447.00,0.0484
1446.00,0.0492
1445.00,0.0502
1444.00,0.0513
1443.00,0.0525
1442.00,0.0537
1441.00,0.0549
1440.00,0.0559
1439.00,0.0567
1438.00,0.0575
1437.00,0.0583
1436.00,0.0591
1435.00,0.0597
1434.00,0.0601
1433.00,0.0604
1432.00,0.0607
1431.00,0.0610
1430.00,0.0613
1429.00,0.0615
1428.00,0.0617
1427.00,0.0619
1426.00,0.0620
1425.00,0.0622
1424.00,0.0622
1423.00,0.0621
1422.00,0.0617
1421.00,0.0610
1420.00,0.0599
1419.00,0.0583
1418.00,0.0565
1417.00,0.0548
1416.00,0.0530
1415.00,0.0513
1414.00,0.0498
1413.00,0.0485
1412.00,0.0475
1411.00,0.0467
1410.00,0.0463
1409.00,0.0462
1408.00,0.0463
1407.00,0.0467
1406.00,0.0474
1405.00,0.0483
1404.00,0.0493
1403.00,0.0502
1402.00,0.0509
1401.00,0.0514
1400.00,0.0515
1399.00,0.0513
1398.00,0.0508
1397.00,0.0500
1396.00,0.0490
1395.00,0.0478
1394.00,0.0466
1393.00,0.0456
1392.00,0.0448
1391.00,0.0442
1390.00,0.0439
1389.00,0.0440
1388.00,0.0445
1387.00,0.0451
1386.00,0.0453
1385.00,0.0452
1384.00,0.0447
1383.00,0.0443
1382.00,0.0442
1381.00,0.0442
1380.00,0.0443
1379.00,0.0444
1378.00,0.0442
1377.00,0.0439
1376.00,0.0434
1375.00,0.0426
1374.00,0.0417
1373.00,0.0409
1372.00,0.0403
1371.00,0.0399
1370.00,0.0398
1369.00,0.0400
1368.00,0.0405
1367.00,0.0411
1366.00,0.0416
1365.00,0.0418
1364.00,0.0418
1363.00,0.0418
1362.00,0.0421
1361.00,0.0426
1360.00,0.0427
1359.00,0.0422
1358.00,0.0411
1357.00,0.0397
1356.00,0.0384
1355.00,0.0374
1354.00,0.0366
1353.00,0.0361
1352.00,0.0357
1351.00,0.0355
1350.00,0.0354
1349.00,0.0353
1348.00,0.0353
1347.00,0.0352
1346.00,0.0351
1345.00,0.0349
1344.00,0.0346
1343.00,0.0342
1342.00,0.0337
1341.00,0.0333
1340.00,0.0328
1339.00,0.0325
1338.00,0.0323
1337.00,0.0322
1336.00,0.0323
1335.00,0.0324
1334.00,0.0326
1333.00,0.0329
1332.00,0.0332
1331.00,0.0334
1330.00,0.0337
1329.00,0.0340
1328.00,0.0342
1327.00,0.0344
1326.00,0.0346
1325.00,0.0348
1324.00,0.0350
1323.00,0.0353
1322.00,0.0357
1321.00,0.0360
1320.00,0.0363
1319.00,0.0365
1318.00,0.0366
1317.00,0.0366
1316.00,0.0365
1315.00,0.0363
1314.00,0.0361
1313.00,0.0359
1312.00,0.0357
1311.00,0.0356
1310.00,0.0357
1309.00,0.0359
1308.00,0.0363
1307.00,0.0369
1306.00,0.0377
1305.00,0.0387
1304.00,0.0399
1303.00,0.0413
1302.00,0.0426
1301.00,0.0437
1300.00,0.0445
1299.00,0.0452
1298.00,0.0459
1297.00,0.0467
1296.00,0.0479
1295.00,0.0493
1294.00,0.0509
1293.00,0.0524
1292.00,0.0537
1291.00,0.0550
1290.00,0.0562
1289.00,0.0574
1288.00,0.0585
1287.00,0.0594
1286.00,0.0602
1285.00,0.0606
1284.00,0.0605
1283.00,0.0601
1282.00,0.0592
1281.00,0.0580
1280.00,0.0567
1279.00,0.0554
1278.00,0.0543
1277.00,0.0534
1276.00,0.0528
1275.00,0.0524
1274.00,0.0522
1273.00,0.0519
1272.00,0.0517
1271.00,0.0513
1270.00,0.0509
1269.00,0.0503
1268.00,0.0496
1267.00,0.0489
1266.00,0.0481
1265.00,0.0472
1264.00,0.0463
1263.00,0.0454
1262.00,0.0445
1261.00,0.0437
1260.00,0.0429
1259.00,0.0422
1258.00,0.0416
1257.00,0.0411
1256.00,0.0407
1255.00,0.0403
1254.00,0.0401
1253.00,0.0400
1252.00,0.0399
1251.00,0.0400
1250.00,0.0403
1249.00,0.0407
1248.00,0.0413
1247.00,0.0420
1246.00,0.0427
1245.00,0.0434
1244.00,0.0441
1243.00,0.0447
1242.00,0.0452
1241.00,0.0456
1240.00,0.0461
1239.00,0.0467
1238.00,0.0475
1237.00,0.0484
1236.00,0.0494
1235.00,0.0502
1234.00,0.0508
1233.00,0.0511
1232.00,0.0510
1231.00,0.0506
1230.00,0.0500
1229.00,0.0492
1228.00,0.0485
1227.00,0.0477
1226.00,0.0470
1225.00,0.0463
1224.00,0.0456
1223.00,0.0450
1222.00,0.0445
1221.00,0.0441
1220.00,0.0438
1219.00,0.0436
1218.00,0.0436
1217.00,0.0435
1216.00,0.0434
1215.00,0.0433
1214.00,0.0429
1213.00,0.0423
1212.00,0.0414
1211.00,0.0404
1210.00,0.0393
1209.00,0.0382
1208.00,0.0373
1207.00,0.0364
1206.00,0.0358
1205.00,0.0354
1204.00,0.0353
1203.00,0.0354
1202.00,0.0358
1201.00,0.0364
1200.00,0.0372
1199.00,0.0381
1198.00,0.0391
1197.00,0.0402
1196.00,0.0410
1195.00,0.0415
1194.00,0.0415
1193.00,0.0410
1192.00,0.0402
1191.00,0.0390
1190.00,0.0378
1189.00,0.0365
1188.00,0.0352
1187.00,0.0340
1186.00,0.0329
1185.00,0.0321
1184.00,0.0313
1183.00,0.0308
1182.00,0.0304
1181.00,0.0301
1180.00,0.0299
1179.00,0.0297
1178.00,0.0298
1177.00,0.0299
1176.00,0.0300
1175.00,0.0302
1174.00,0.0305
1173.00,0.0308
1172.00,0.0310
1171.00,0.0312
1170.00,0.0315
1169.00,0.0317
1168.00,0.0319
1167.00,0.0320
1166.00,0.0323
1165.00,0.0326
1164.00,0.0329
1163.00,0.0334
1162.00,0.0340
1161.00,0.0350
1160.00,0.0362
1159.00,0.0377
1158.00,0.0397
1157.00,0.0417
1156.00,0.0434
1155.00,0.0445
1154.00,0.0445
1153.00,0.0435
1152.00,0.0416
1151.00,0.0393
1150.00,0.0371
1149.00,0.0352
1148.00,0.0336
1147.00,0.0323
1146.00,0.0315
1145.00,0.0308
1144.00,0.0302
1143.00,0.0298
1142.00,0.0295
1141.00,0.0292
1140.00,0.0291
1139.00,0.0291
1138.00,0.0293
1137.00,0.0297
1136.00,0.0303
1135.00,0.0313
1134.00,0.0329
1133.00,0.0349
1132.00,0.0373
1131.00,0.0398
1130.00,0.0421
1129.00,0.0435
1128.00,0.0441
1127.00,0.0438
1126.00,0.0429
1125.00,0.0416
1124.00,0.0401
1123.00,0.0385
1122.00,0.0370
1121.00,0.0357
1120.00,0.0347
1119.00,0.0340
1118.00,0.0336
1117.00,0.0335
1116.00,0.0334
1115.00,0.0335
1114.00,0.0336
1113.00,0.0337
1112.00,0.0336
1111.00,0.0336
1110.00,0.0335
1109.00,0.0335
1108.00,0.0335
1107.00,0.0336
1106.00,0.0340
1105.00,0.0345
1104.00,0.0353
1103.00,0.0364
1102.00,0.0378
1101.00,0.0390
1100.00,0.0399
1099.00,0.0403
1098.00,0.0401
1097.00,0.0395
1096.00,0.0386
1095.00,0.0376
1094.00,0.0368
1093.00,0.0361
1092.00,0.0356
1091.00,0.0353
1090.00,0.0352
1089.00,0.0352
1088.00,0.0353
1087.00,0.0353
1086.00,0.0354
1085.00,0.0355
1084.00,0.0356
1083.00,0.0357
1082.00,0.0359
1081.00,0.0360
1080.00,0.0361
1079.00,0.0361
1078.00,0.0362
1077.00,0.0362
1076.00,0.0362
1075.00,0.0361
1074.00,0.0361
1073.00,0.0360
1072.00,0.0359
1071.00,0.0359
1070.00,0.0360
1069.00,0.0361
1068.00,0.0362
1067.00,0.0365
1066.00,0.0368
1065.00,0.0373
1064.00,0.0380
1063.00,0.0388
1062.00,0.0400
1061.00,0.0415
1060.00,0.0433
1059.00,0.0455
1058.00,0.0482
1057.00,0.0510
1056.00,0.0536
1055.00,0.0558
1054.00,0.0575
1053.00,0.0586
1052.00,0.0593
1051.00,0.0597
1050.00,0.0600
1049.00,0.0598
1048.00,0.0592
1047.00,0.0579
1046.00,0.0563
1045.00,0.0544
1044.00,0.0522
1043.00,0.0502
1042.00,0.0484
1041.00,0.0468
1040.00,0.0455
1039.00,0.0446
1038.00,0.0440
1037.00,0.0438
1036.00,0.0438
1035.00,0.0439
1034.00,0.0443
1033.00,0.0449
1032.00,0.0459
1031.00,0.0475
1030.00,0.0497
1029.00,0.0522
1028.00,0.0545
1027.00,0.0561
1026.00,0.0564
1025.00,0.0554
1024.00,0.0534
1023.00,0.0510
1022.00,0.0486
1021.00,0.0466
1020.00,0.0448
1019.00,0.0433
1018.00,0.0420
1017.00,0.0408
1016.00,0.0397
1015.00,0.0386
1014.00,0.0378
1013.00,0.0370
1012.00,0.0363
1011.00,0.0358
1010.00,0.0355
1009.00,0.0354
1008.00,0.0356
1007.00,0.0360
1006.00,0.0367
1005.00,0.0372
1004.00,0.0376
1003.00,0.0377
1002.00,0.0375
1001.00,0.0370
1000.00,0.0363
999.00,0.0356
998.00,0.0350
997.00,0.0343
996.00,0.0336
995.00,0.0330
994.00,0.0324
993.00,0.0318
992.00,0.0311
991.00,0.0303
990.00,0.0296
989.00,0.0288
988.00,0.0281
987.00,0.0274
986.00,0.0269
985.00,0.0263
984.00,0.0258
983.00,0.0255
982.00,0.0252
981.00,0.0250
980.00,0.0248
979.00,0.0247
978.00,0.0246
977.00,0.0246
976.00,0.0246
975.00,0.0246
974.00,0.0247
973.00,0.0248
972.00,0.0248
971.00,0.0248
970.00,0.0249
969.00,0.0249
968.00,0.0250
967.00,0.0251
966.00,0.0252
965.00,0.0253
964.00,0.0254
963.00,0.0255
962.00,0.0256
961.00,0.0256
960.00,0.0254
959.00,0.0252
958.00,0.0250
957.00,0.0247
956.00,0.0244
955.00,0.0240
954.00,0.0237
953.00,0.0234
952.00,0.0230
951.00,0.0227
950.00,0.0226
949.00,0.0226
948.00,0.0225
947.00,0.0224
946.00,0.0223
945.00,0.0223
944.00,0.0224
943.00,0.0225
942.00,0.0229
941.00,0.0232
940.00,0.0236
939.00,0.0240
938.00,0.0244
937.00,0.0247
936.00,0.0249
935.00,0.0252
934.00,0.0255
933.00,0.0257
932.00,0.0256
931.00,0.0255
930.00,0.0253
929.00,0.0250
928.00,0.0248
927.00,0.0247
926.00,0.0248
925.00,0.0249
924.00,0.0250
923.00,0.0252
922.00,0.0254
921.00,0.0253
920.00,0.0249
919.00,0.0244
918.00,0.0238
917.00,0.0232
916.00,0.0227
915.00,0.0222
914.00,0.0219
913.00,0.0216
912.00,0.0213
911.00,0.0212
910.00,0.0211
909.00,0.0211
908.00,0.0210
907.00,0.0211
906.00,0.0212
905.00,0.0215
904.00,0.0219
903.00,0.0225
902.00,0.0233
901.00,0.0241
900.00,0.0247
899.00,0.0250
898.00,0.0252
897.00,0.0250
896.00,0.0246
895.00,0.0242
894.00,0.0240
893.00,0.0241
892.00,0.0245
891.00,0.0249
890.00,0.0252
889.00,0.0249
888.00,0.0242
887.00,0.0234
886.00,0.0228
885.00,0.0223
884.00,0.0221
883.00,0.0220
882.00,0.0221
881.00,0.0223
880.00,0.0225
879.00,0.0228
878.00,0.0235
877.00,0.0245
876.00,0.0257
875.00,0.0273
874.00,0.0292
873.00,0.0311
872.00,0.0330
871.00,0.0346
870.00,0.0355
869.00,0.0355
868.00,0.0347
867.00,0.0335
866.00,0.0323
865.00,0.0312
864.00,0.0302
863.00,0.0294
862.00,0.0286
861.00,0.0280
860.00,0.0275
859.00,0.0273
858.00,0.0275
857.00,0.0281
856.00,0.0290
855.00,0.0300
854.00,0.0311
853.00,0.0321
852.00,0.0329
851.00,0.0338
850.00,0.0346
849.00,0.0350
848.00,0.0349
847.00,0.0344
846.00,0.0337
845.00,0.0330
844.00,0.0323
843.00,0.0318
842.00,0.0315
841.00,0.0314
840.00,0.0315
839.00,0.0319
838.00,0.0326
837.00,0.0337
836.00,0.0347
835.00,0.0356
834.00,0.0363
833.00,0.0365
832.00,0.0363
831.00,0.0356
830.00,0.0346
829.00,0.0334
828.00,0.0320
827.00,0.0308
826.00,0.0300
825.00,0.0298
824.00,0.0304
823.00,0.0320
822.00,0.0346
821.00,0.0372
820.00,0.0391
819.00,0.0400
818.00,0.0408
817.00,0.0419
816.00,0.0426
815.00,0.0421
814.00,0.0401
813.00,0.0371
812.00,0.0343
811.00,0.0321
810.00,0.0307
809.00,0.0296
808.00,0.0288
807.00,0.0282
806.00,0.0278
805.00,0.0275
804.00,0.0273
803.00,0.0272
802.00,0.0272
801.00,0.0272
800.00,0.0272
799.00,0.0273
798.00,0.0274
797.00,0.0275
796.00,0.0276
795.00,0.0277
794.00,0.0278
793.00,0.0279
792.00,0.0280
791.00,0.0281
790.00,0.0283
789.00,0.0285
788.00,0.0287
787.00,0.0289
786.00,0.0291
785.00,0.0294
784.00,0.0296
783.00,0.0298
782.00,0.0301
781.00,0.0303
780.00,0.0304
779.00,0.0305
778.00,0.0307
777.00,0.0311
776.00,0.0315
775.00,0.0319
774.00,0.0321
773.00,0.0320
772.00,0.0317
771.00,0.0314
770.00,0.0312
769.00,0.0312
768.00,0.0312
767.00,0.0314
766.00,0.0316
765.00,0.0319
764.00,0.0322
763.00,0.0325
762.00,0.0328
761.00,0.0331
760.00,0.0334
759.00,0.0336
758.00,0.0339
757.00,0.0340
756.00,0.0340
755.00,0.0341
754.00,0.0343
753.00,0.0345
752.00,0.0347
751.00,0.0350
750.00,0.0353
749.00,0.0357
748.00,0.0359
747.00,0.0362
746.00,0.0365
745.00,0.0368
744.00,0.0371
743.00,0.0374
742.00,0.0378
741.00,0.0383
740.00,0.0389
739.00,0.0398
738.00,0.0410
737.00,0.0424
736.00,0.0438
735.00,0.0447
734.00,0.0451
733.00,0.0449
732.00,0.0444
731.00,0.0441
730.00,0.0441
729.00,0.0441
728.00,0.0440
727.00,0.0437
726.00,0.0432
725.00,0.0425
724.00,0.0419
723.00,0.0414
722.00,0.0412
721.00,0.0412
720.00,0.0412
719.00,0.0414
718.00,0.0419
717.00,0.0425
716.00,0.0430
715.00,0.0434
714.00,0.0437
713.00,0.0438
712.00,0.0438
711.00,0.0437
710.00,0.0438
709.00,0.0440
708.00,0.0441
707.00,0.0444
706.00,0.0448
705.00,0.0452
704.00,0.0456
703.00,0.0461
702.00,0.0466
701.00,0.0471
700.00,0.0476
699.00,0.0480
698.00,0.0484
697.00,0.0486
696.00,0.0486
695.00,0.0484
694.00,0.0483
693.00,0.0483
692.00,0.0484
691.00,0.0487
690.00,0.0492
689.00,0.0498
688.00,0.0502
687.00,0.0504
686.00,0.0504
685.00,0.0503
684.00,0.0502
683.00,0.0501
682.00,0.0502
681.00,0.0505
680.00,0.0507
679.00,0.0511
678.00,0.0516
677.00,0.0522
676.00,0.0529
675.00,0.0535
674.00,0.0542
673.00,0.0548
672.00,0.0553
671.00,0.0559
670.00,0.0565
669.00,0.0569
668.00,0.0572
667.00,0.0573
666.00,0.0576
665.00,0.0578
664.00,0.0582
663.00,0.0587
662.00,0.0592
661.00,0.0596
660.00,0.0597
659.00,0.0597
658.00,0.0597
657.00,0.0597
656.00,0.0596
655.00,0.0597
654.00,0.0598
653.00,0.0601
652.00,0.0602
651.00,0.0603
650.00,0.0605
649.00,0.0606
648.00,0.0606
647.00,0.0606
646.00,0.0606
645.00,0.0606
644.00,0.0604
643.00,0.0603
642.00,0.0602
641.00,0.0601
640.00,0.0600
639.00,0.0599
638.00,0.0598
637.00,0.0597
636.00,0.0595
635.00,0.0594
634.00,0.0594
633.00,0.0594
632.00,0.0594
631.00,0.0594
630.00,0.0595
629.00,0.0597
628.00,0.0597
627.00,0.0599
626.00,0.0602
625.00,0.0606
624.00,0.0610
623.00,0.0614
622.00,0.0619
621.00,0.0623
620.00,0.0626
619.00,0.0627
618.00,0.0628
617.00,0.0627
616.00,0.0623
615.00,0.0620
614.00,0.0619
613.00,0.0618
612.00,0.0617
611.00,0.0617
610.00,0.0621
609.00,0.0626
608.00,0.0632
607.00,0.0640
606.00,0.0651
605.00,0.0661
604.00,0.0669
603.00,0.0675
602.00,0.0682
601.00,0.0686
600.00,0.0689
599.00,0.0691
598.00,0.0693
597.00,0.0696
596.00,0.0697
595.00,0.0699
594.00,0.0702
593.00,0.0704
592.00,0.0704
591.00,0.0705
590.00,0.0708
589.00,0.0710
588.00,0.0711
587.00,0.0713
586.00,0.0716
585.00,0.0720
584.00,0.0723
583.00,0.0728
582.00,0.0734
581.00,0.0740
580.00,0.0745
579.00,0.0751
578.00,0.0759
577.00,0.0766
576.00,0.0767
575.00,0.0766
574.00,0.0763
573.00,0.0759
572.00,0.0753
571.00,0.0748
570.00,0.0744
569.00,0.0741
568.00,0.0738
567.00,0.0735
566.00,0.0735
565.00,0.0736
564.00,0.0737
563.00,0.0740
562.00,0.0746
561.00,0.0752
560.00,0.0755
559.00,0.0755
558.00,0.0755
557.00,0.0752
556.00,0.0746
555.00,0.0741
554.00,0.0738
553.00,0.0737
552.00,0.0735
551.00,0.0737
550.00,0.0742
549.00,0.0749
548.00,0.0754
547.00,0.0759
546.00,0.0764
545.00,0.0767
544.00,0.0766
543.00,0.0764
542.00,0.0763
541.00,0.0761
540.00,0.0756
539.00,0.0753
538.00,0.0752
537.00,0.0752
536.00,0.0752
535.00,0.0755
534.00,0.0762
533.00,0.0770
532.00,0.0775
531.00,0.0778
530.00,0.0781
529.00,0.0781
528.00,0.0777
527.00,0.0771
526.00,0.0767
525.00,0.0763
524.00,0.0758
523.00,0.0755
522.00,0.0755
521.00,0.0754
520.00,0.0750
519.00,0.0746
518.00,0.0744
517.00,0.0743
516.00,0.0741
515.00,0.0739
514.00,0.0739
513.00,0.0738
512.00,0.0736
511.00,0.0736
510.00,0.0738
509.00,0.0739
508.00,0.0737
507.00,0.0736
506.00,0.0736
505.00,0.0736
504.00,0.0733
503.00,0.0730
502.00,0.0730
501.00,0.0730
500.00,0.0727
499.00,0.0724
498.00,0.0725
497.00,0.0726
496.00,0.0724
495.00,0.0724
494.00,0.0725
493.00,0.0726
492.00,0.0724
491.00,0.0723
490.00,0.0724
489.00,0.0722
488.00,0.0718
487.00,0.0715
486.00,0.0715
485.00,0.0714
484.00,0.0710
483.00,0.0708
482.00,0.0709
481.00,0.0711
480.00,0.0709
479.00,0.0707
478.00,0.0709
477.00,0.0709
476.00,0.0705
475.00,0.0701
474.00,0.0702
473.00,0.0702
472.00,0.0698
471.00,0.0695
470.00,0.0697
469.00,0.0699
468.00,0.0697
467.00,0.0696
466.00,0.0699
465.00,0.0701
464.00,0.0698
463.00,0.0699
462.00,0.0705
461.00,0.0710
460.00,0.0708
459.00,0.0703
458.00,0.0700
457.00,0.0696
456.00,0.0688
455.00,0.0683
454.00,0.0686
453.00,0.0688
452.00,0.0684
451.00,0.0679
450.00,0.0679
449.00,0.0680
448.00,0.0678
447.00,0.0677
446.00,0.0678
445.00,0.0677
444.00,0.0672
443.00,0.0670
442.00,0.0677
441.00,0.0681
440.00,0.0678
439.00,0.0675
438.00,0.0679
437.00,0.0684
436.00,0.0681
435.00,0.0676
434.00,0.0676
433.00,0.0675
432.00,0.0671
431.00,0.0671
430.00,0.0677
429.00,0.0682
428.00,0.0679
427.00,0.0678
426.00,0.0684
425.00,0.0687
424.00,0.0681
423.00,0.0674
422.00,0.0678
421.00,0.0682
420.00,0.0679
419.00,0.0676
418.00,0.0683
417.00,0.0686
416.00,0.0679
415.00,0.0676
414.00,0.0684
413.00,0.0690
412.00,0.0684
411.00,0.0679
410.00,0.0686
409.00,0.0690
408.00,0.0680
407.00,0.0665
406.00,0.0658
405.00,0.0649
404.00,0.0628
403.00,0.0613
402.00,0.0618
401.00,0.0627
400.00,0.0624
