Created as New Dataset,Sample 855 By YargerLab Date Monday, July 21 2025
cm-1,A
4000.00,0.0199
3999.00,0.0199
3998.00,0.0199
3997.00,0.0199
3996.00,0.0199
3995.00,0.0198
3994.00,0.0199
3993.00,0.0199
3992.00,0.0199
3991.00,0.0198
3990.00,0.0198
3989.00,0.0198
3988.00,0.0198
3987.00,0.0198
3986.00,0.0198
3985.00,0.0198
3984.00,0.0198
3983.00,0.0198
3982.00,0.0198
3981.00,0.0198
3980.00,0.0198
3979.00,0.0198
3978.00,0.0198
3977.00,0.0197
3976.00,0.0197
3975.00,0.0197
3974.00,0.0197
3973.00,0.0197
3972.00,0.0197
3971.00,0.0197
3970.00,0.0197
3969.00,0.0197
3968.00,0.0197
3967.00,0.0197
3966.00,0.0196
3965.00,0.0196
3964.00,0.0196
3963.00,0.0196
3962.00,0.0196
3961.00,0.0196
3960.00,0.0196
3959.00,0.0196
3958.00,0.0196
3957.00,0.0196
3956.00,0.0196
3955.00,0.0196
3954.00,0.0196
3953.00,0.0196
3952.00,0.0196
3951.00,0.0195
3950.00,0.0195
3949.00,0.0195
3948.00,0.0195
3947.00,0.0195
3946.00,0.0195
3945.00,0.0195
3944.00,0.0195
3943.00,0.0195
3942.00,0.0195
3941.00,0.0195
3940.00,0.0194
3939.00,0.0194
3938.00,0.0194
3937.00,0.0194
3936.00,0.0193
3935.00,0.0193
3934.00,0.0193
3933.00,0.0193
3932.00,0.0194
3931.00,0.0194
3930.00,0.0194
3929.00,0.0194
3928.00,0.0194
3927.00,0.0194
3926.00,0.0194
3925.00,0.0194
3924.00,0.0194
3923.00,0.0194
3922.00,0.0194
3921.00,0.0193
3920.00,0.0193
3919.00,0.0193
3918.00,0.0193
3917.00,0.0193
3916.00,0.0193
3915.00,0.0193
3914.00,0.0193
3913.00,0.0193
3912.00,0.0193
3911.00,0.0193
3910.00,0.0193
3909.00,0.0193
3908.00,0.0193
3907.00,0.0192
3906.00,0.0192
3905.00,0.0191
3904.00,0.0191
3903.00,0.0191
3902.00,0.0190
3901.00,0.0190
3900.00,0.0191
3899.00,0.0191
3898.00,0.0191
3897.00,0.0191
3896.00,0.0191
3895.00,0.0191
3894.00,0.0191
3893.00,0.0191
3892.00,0.0191
3891.00,0.0191
3890.00,0.0191
3889.00,0.0190
3888.00,0.0189
3887.00,0.0189
3886.00,0.0189
3885.00,0.0189
3884.00,0.0189
3883.00,0.0189
3882.00,0.0189
3881.00,0.0189
3880.00,0.0190
3879.00,0.0190
3878.00,0.0190
3877.00,0.0190
3876.00,0.0189
3875.00,0.0189
3874.00,0.0189
3873.00,0.0189
3872.00,0.0189
3871.00,0.0188
3870.00,0.0188
3869.00,0.0188
3868.00,0.0188
3867.00,0.0187
3866.00,0.0187
3865.00,0.0187
3864.00,0.0188
3863.00,0.0188
3862.00,0.0188
3861.00,0.0188
3860.00,0.0188
3859.00,0.0187
3858.00,0.0188
3857.00,0.0188
3856.00,0.0187
3855.00,0.0187
3854.00,0.0187
3853.00,0.0187
3852.00,0.0187
3851.00,0.0187
3850.00,0.0187
3849.00,0.0187
3848.00,0.0187
3847.00,0.0187
3846.00,0.0187
3845.00,0.0187
3844.00,0.0187
3843.00,0.0187
3842.00,0.0187
3841.00,0.0187
3840.00,0.0186
3839.00,0.0186
3838.00,0.0186
3837.00,0.0186
3836.00,0.0186
3835.00,0.0187
3834.00,0.0187
3833.00,0.0186
3832.00,0.0186
3831.00,0.0186
3830.00,0.0186
3829.00,0.0186
3828.00,0.0186
3827.00,0.0186
3826.00,0.0186
3825.00,0.0186
3824.00,0.0185
3823.00,0.0185
3822.00,0.0184
3821.00,0.0185
3820.00,0.0185
3819.00,0.0185
3818.00,0.0185
3817.00,0.0185
3816.00,0.0185
3815.00,0.0185
3814.00,0.0185
3813.00,0.0185
3812.00,0.0185
3811.00,0.0185
3810.00,0.0185
3809.00,0.0185
3808.00,0.0185
3807.00,0.0185
3806.00,0.0185
3805.00,0.0184
3804.00,0.0184
3803.00,0.0184
3802.00,0.0183
3801.00,0.0184
3800.00,0.0183
3799.00,0.0183
3798.00,0.0183
3797.00,0.0183
3796.00,0.0184
3795.00,0.0184
3794.00,0.0184
3793.00,0.0184
3792.00,0.0183
3791.00,0.0183
3790.00,0.0183
3789.00,0.0183
3788.00,0.0183
3787.00,0.0183
3786.00,0.0183
3785.00,0.0183
3784.00,0.0183
3783.00,0.0183
3782.00,0.0183
3781.00,0.0183
3780.00,0.0183
3779.00,0.0183
3778.00,0.0183
3777.00,0.0183
3776.00,0.0183
3775.00,0.0182
3774.00,0.0182
3773.00,0.0182
3772.00,0.0182
3771.00,0.0182
3770.00,0.0182
3769.00,0.0182
3768.00,0.0182
3767.00,0.0182
3766.00,0.0181
3765.00,0.0181
3764.00,0.0181
3763.00,0.0181
3762.00,0.0181
3761.00,0.0180
3760.00,0.0180
3759.00,0.0180
3758.00,0.0180
3757.00,0.0180
3756.00,0.0180
3755.00,0.0180
3754.00,0.0179
3753.00,0.0178
3752.00,0.0178
3751.00,0.0178
3750.00,0.0177
3749.00,0.0177
3748.00,0.0176
3747.00,0.0176
3746.00,0.0176
3745.00,0.0176
3744.00,0.0176
3743.00,0.0176
3742.00,0.0176
3741.00,0.0176
3740.00,0.0176
3739.00,0.0176
3738.00,0.0176
3737.00,0.0176
3736.00,0.0176
3735.00,0.0176
3734.00,0.0176
3733.00,0.0176
3732.00,0.0176
3731.00,0.0176
3730.00,0.0176
3729.00,0.0177
3728.00,0.0177
3727.00,0.0176
3726.00,0.0176
3725.00,0.0176
3724.00,0.0177
3723.00,0.0177
3722.00,0.0177
3721.00,0.0176
3720.00,0.0176
3719.00,0.0176
3718.00,0.0176
3717.00,0.0176
3716.00,0.0176
3715.00,0.0176
3714.00,0.0175
3713.00,0.0175
3712.00,0.0175
3711.00,0.0175
3710.00,0.0175
3709.00,0.0175
3708.00,0.0174
3707.00,0.0174
3706.00,0.0174
3705.00,0.0174
3704.00,0.0175
3703.00,0.0175
3702.00,0.0176
3701.00,0.0176
3700.00,0.0175
3699.00,0.0175
3698.00,0.0175
3697.00,0.0174
3696.00,0.0174
3695.00,0.0174
3694.00,0.0174
3693.00,0.0174
3692.00,0.0174
3691.00,0.0174
3690.00,0.0174
3689.00,0.0174
3688.00,0.0174
3687.00,0.0174
3686.00,0.0174
3685.00,0.0175
3684.00,0.0175
3683.00,0.0175
3682.00,0.0176
3681.00,0.0176
3680.00,0.0176
3679.00,0.0176
3678.00,0.0176
3677.00,0.0176
3676.00,0.0176
3675.00,0.0175
3674.00,0.0175
3673.00,0.0174
3672.00,0.0174
3671.00,0.0174
3670.00,0.0174
3669.00,0.0175
3668.00,0.0175
3667.00,0.0176
3666.00,0.0176
3665.00,0.0176
3664.00,0.0176
3663.00,0.0177
3662.00,0.0177
3661.00,0.0177
3660.00,0.0177
3659.00,0.0177
3658.00,0.0177
3657.00,0.0176
3656.00,0.0176
3655.00,0.0176
3654.00,0.0176
3653.00,0.0176
3652.00,0.0176
3651.00,0.0175
3650.00,0.0175
3649.00,0.0174
3648.00,0.0174
3647.00,0.0174
3646.00,0.0175
3645.00,0.0175
3644.00,0.0176
3643.00,0.0177
3642.00,0.0177
3641.00,0.0177
3640.00,0.0177
3639.00,0.0178
3638.00,0.0178
3637.00,0.0178
3636.00,0.0178
3635.00,0.0178
3634.00,0.0178
3633.00,0.0178
3632.00,0.0178
3631.00,0.0178
3630.00,0.0177
3629.00,0.0177
3628.00,0.0177
3627.00,0.0177
3626.00,0.0177
3625.00,0.0178
3624.00,0.0178
3623.00,0.0178
3622.00,0.0178
3621.00,0.0178
3620.00,0.0178
3619.00,0.0179
3618.00,0.0179
3617.00,0.0179
3616.00,0.0179
3615.00,0.0179
3614.00,0.0179
3613.00,0.0179
3612.00,0.0180
3611.00,0.0180
3610.00,0.0180
3609.00,0.0180
3608.00,0.0181
3607.00,0.0181
3606.00,0.0182
3605.00,0.0182
3604.00,0.0182
3603.00,0.0182
3602.00,0.0183
3601.00,0.0183
3600.00,0.0183
3599.00,0.0184
3598.00,0.0184
3597.00,0.0184
3596.00,0.0184
3595.00,0.0184
3594.00,0.0184
3593.00,0.0184
3592.00,0.0184
3591.00,0.0184
3590.00,0.0184
3589.00,0.0184
3588.00,0.0184
3587.00,0.0185
3586.00,0.0185
3585.00,0.0186
3584.00,0.0186
3583.00,0.0186
3582.00,0.0186
3581.00,0.0187
3580.00,0.0188
3579.00,0.0188
3578.00,0.0188
3577.00,0.0189
3576.00,0.0189
3575.00,0.0189
3574.00,0.0189
3573.00,0.0190
3572.00,0.0190
3571.00,0.0190
3570.00,0.0190
3569.00,0.0190
3568.00,0.0190
3567.00,0.0190
3566.00,0.0191
3565.00,0.0192
3564.00,0.0192
3563.00,0.0193
3562.00,0.0193
3561.00,0.0194
3560.00,0.0194
3559.00,0.0195
3558.00,0.0195
3557.00,0.0196
3556.00,0.0196
3555.00,0.0196
3554.00,0.0196
3553.00,0.0196
3552.00,0.0197
3551.00,0.0197
3550.00,0.0197
3549.00,0.0197
3548.00,0.0198
3547.00,0.0198
3546.00,0.0199
3545.00,0.0200
3544.00,0.0200
3543.00,0.0201
3542.00,0.0201
3541.00,0.0202
3540.00,0.0202
3539.00,0.0202
3538.00,0.0203
3537.00,0.0203
3536.00,0.0204
3535.00,0.0204
3534.00,0.0204
3533.00,0.0204
3532.00,0.0204
3531.00,0.0205
3530.00,0.0205
3529.00,0.0205
3528.00,0.0206
3527.00,0.0206
3526.00,0.0207
3525.00,0.0207
3524.00,0.0208
3523.00,0.0208
3522.00,0.0209
3521.00,0.0209
3520.00,0.0210
3519.00,0.0210
3518.00,0.0211
3517.00,0.0212
3516.00,0.0212
3515.00,0.0213
3514.00,0.0213
3513.00,0.0213
3512.00,0.0214
3511.00,0.0214
3510.00,0.0215
3509.00,0.0215
3508.00,0.0216
3507.00,0.0216
3506.00,0.0217
3505.00,0.0218
3504.00,0.0218
3503.00,0.0219
3502.00,0.0220
3501.00,0.0221
3500.00,0.0221
3499.00,0.0222
3498.00,0.0223
3497.00,0.0223
3496.00,0.0224
3495.00,0.0225
3494.00,0.0226
3493.00,0.0227
3492.00,0.0227
3491.00,0.0228
3490.00,0.0229
3489.00,0.0229
3488.00,0.0230
3487.00,0.0231
3486.00,0.0231
3485.00,0.0232
3484.00,0.0233
3483.00,0.0234
3482.00,0.0234
3481.00,0.0235
3480.00,0.0236
3479.00,0.0237
3478.00,0.0237
3477.00,0.0238
3476.00,0.0239
3475.00,0.0240
3474.00,0.0241
3473.00,0.0242
3472.00,0.0243
3471.00,0.0244
3470.00,0.0245
3469.00,0.0246
3468.00,0.0247
3467.00,0.0247
3466.00,0.0248
3465.00,0.0248
3464.00,0.0249
3463.00,0.0249
3462.00,0.0250
3461.00,0.0251
3460.00,0.0252
3459.00,0.0253
3458.00,0.0253
3457.00,0.0254
3456.00,0.0254
3455.00,0.0255
3454.00,0.0256
3453.00,0.0256
3452.00,0.0257
3451.00,0.0257
3450.00,0.0258
3449.00,0.0258
3448.00,0.0259
3447.00,0.0259
3446.00,0.0260
3445.00,0.0260
3444.00,0.0260
3443.00,0.0261
3442.00,0.0261
3441.00,0.0261
3440.00,0.0262
3439.00,0.0263
3438.00,0.0263
3437.00,0.0264
3436.00,0.0265
3435.00,0.0265
3434.00,0.0265
3433.00,0.0265
3432.00,0.0265
3431.00,0.0265
3430.00,0.0266
3429.00,0.0266
3428.00,0.0266
3427.00,0.0267
3426.00,0.0266
3425.00,0.0266
3424.00,0.0266
3423.00,0.0267
3422.00,0.0267
3421.00,0.0267
3420.00,0.0268
3419.00,0.0268
3418.00,0.0269
3417.00,0.0269
3416.00,0.0270
3415.00,0.0270
3414.00,0.0271
3413.00,0.0271
3412.00,0.0271
3411.00,0.0271
3410.00,0.0271
3409.00,0.0271
3408.00,0.0271
3407.00,0.0271
3406.00,0.0271
3405.00,0.0272
3404.00,0.0273
3403.00,0.0273
3402.00,0.0273
3401.00,0.0274
3400.00,0.0274
3399.00,0.0274
3398.00,0.0274
3397.00,0.0274
3396.00,0.0275
3395.00,0.0275
3394.00,0.0275
3393.00,0.0275
3392.00,0.0276
3391.00,0.0276
3390.00,0.0277
3389.00,0.0277
3388.00,0.0277
3387.00,0.0277
3386.00,0.0277
3385.00,0.0277
3384.00,0.0278
3383.00,0.0278
3382.00,0.0278
3381.00,0.0278
3380.00,0.0279
3379.00,0.0279
3378.00,0.0280
3377.00,0.0280
3376.00,0.0280
3375.00,0.0281
3374.00,0.0281
3373.00,0.0281
3372.00,0.0281
3371.00,0.0281
3370.00,0.0281
3369.00,0.0282
3368.00,0.0282
3367.00,0.0283
3366.00,0.0284
3365.00,0.0284
3364.00,0.0285
3363.00,0.0286
3362.00,0.0286
3361.00,0.0286
3360.00,0.0286
3359.00,0.0287
3358.00,0.0287
3357.00,0.0287
3356.00,0.0287
3355.00,0.0287
3354.00,0.0287
3353.00,0.0287
3352.00,0.0287
3351.00,0.0288
3350.00,0.0288
3349.00,0.0289
3348.00,0.0290
3347.00,0.0290
3346.00,0.0290
3345.00,0.0290
3344.00,0.0290
3343.00,0.0290
3342.00,0.0290
3341.00,0.0290
3340.00,0.0290
3339.00,0.0291
3338.00,0.0291
3337.00,0.0292
3336.00,0.0293
3335.00,0.0294
3334.00,0.0294
3333.00,0.0295
3332.00,0.0295
3331.00,0.0295
3330.00,0.0295
3329.00,0.0295
3328.00,0.0295
3327.00,0.0295
3326.00,0.0295
3325.00,0.0295
3324.00,0.0296
3323.00,0.0296
3322.00,0.0297
3321.00,0.0297
3320.00,0.0298
3319.00,0.0298
3318.00,0.0299
3317.00,0.0299
3316.00,0.0299
3315.00,0.0298
3314.00,0.0299
3313.00,0.0299
3312.00,0.0298
3311.00,0.0298
3310.00,0.0297
3309.00,0.0297
3308.00,0.0296
3307.00,0.0296
3306.00,0.0297
3305.00,0.0298
3304.00,0.0299
3303.00,0.0300
3302.00,0.0300
3301.00,0.0301
3300.00,0.0300
3299.00,0.0300
3298.00,0.0300
3297.00,0.0300
3296.00,0.0300
3295.00,0.0300
3294.00,0.0300
3293.00,0.0300
3292.00,0.0300
3291.00,0.0300
3290.00,0.0301
3289.00,0.0301
3288.00,0.0301
3287.00,0.0301
3286.00,0.0301
3285.00,0.0301
3284.00,0.0301
3283.00,0.0301
3282.00,0.0301
3281.00,0.0301
3280.00,0.0301
3279.00,0.0300
3278.00,0.0300
3277.00,0.0300
3276.00,0.0300
3275.00,0.0300
3274.00,0.0300
3273.00,0.0300
3272.00,0.0300
3271.00,0.0300
3270.00,0.0300
3269.00,0.0300
3268.00,0.0300
3267.00,0.0300
3266.00,0.0300
3265.00,0.0300
3264.00,0.0300
3263.00,0.0299
3262.00,0.0299
3261.00,0.0299
3260.00,0.0300
3259.00,0.0300
3258.00,0.0299
3257.00,0.0299
3256.00,0.0299
3255.00,0.0299
3254.00,0.0299
3253.00,0.0299
3252.00,0.0299
3251.00,0.0298
3250.00,0.0298
3249.00,0.0298
3248.00,0.0298
3247.00,0.0298
3246.00,0.0298
3245.00,0.0298
3244.00,0.0298
3243.00,0.0298
3242.00,0.0298
3241.00,0.0297
3240.00,0.0297
3239.00,0.0297
3238.00,0.0296
3237.00,0.0296
3236.00,0.0296
3235.00,0.0296
3234.00,0.0296
3233.00,0.0296
3232.00,0.0296
3231.00,0.0295
3230.00,0.0295
3229.00,0.0295
3228.00,0.0294
3227.00,0.0294
3226.00,0.0294
3225.00,0.0294
3224.00,0.0293
3223.00,0.0293
3222.00,0.0293
3221.00,0.0292
3220.00,0.0292
3219.00,0.0292
3218.00,0.0291
3217.00,0.0291
3216.00,0.0291
3215.00,0.0291
3214.00,0.0291
3213.00,0.0290
3212.00,0.0290
3211.00,0.0290
3210.00,0.0290
3209.00,0.0289
3208.00,0.0289
3207.00,0.0289
3206.00,0.0289
3205.00,0.0289
3204.00,0.0288
3203.00,0.0288
3202.00,0.0288
3201.00,0.0288
3200.00,0.0287
3199.00,0.0287
3198.00,0.0287
3197.00,0.0286
3196.00,0.0286
3195.00,0.0286
3194.00,0.0286
3193.00,0.0285
3192.00,0.0285
3191.00,0.0285
3190.00,0.0285
3189.00,0.0284
3188.00,0.0283
3187.00,0.0283
3186.00,0.0282
3185.00,0.0282
3184.00,0.0281
3183.00,0.0281
3182.00,0.0281
3181.00,0.0280
3180.00,0.0280
3179.00,0.0279
3178.00,0.0279
3177.00,0.0278
3176.00,0.0277
3175.00,0.0277
3174.00,0.0276
3173.00,0.0275
3172.00,0.0275
3171.00,0.0274
3170.00,0.0273
3169.00,0.0273
3168.00,0.0273
3167.00,0.0272
3166.00,0.0271
3165.00,0.0271
3164.00,0.0270
3163.00,0.0270
3162.00,0.0269
3161.00,0.0269
3160.00,0.0268
3159.00,0.0267
3158.00,0.0266
3157.00,0.0266
3156.00,0.0265
3155.00,0.0265
3154.00,0.0265
3153.00,0.0264
3152.00,0.0264
3151.00,0.0263
3150.00,0.0262
3149.00,0.0261
3148.00,0.0260
3147.00,0.0259
3146.00,0.0259
3145.00,0.0258
3144.00,0.0258
3143.00,0.0257
3142.00,0.0256
3141.00,0.0256
3140.00,0.0255
3139.00,0.0255
3138.00,0.0254
3137.00,0.0254
3136.00,0.0253
3135.00,0.0252
3134.00,0.0251
3133.00,0.0251
3132.00,0.0251
3131.00,0.0250
3130.00,0.0250
3129.00,0.0249
3128.00,0.0249
3127.00,0.0248
3126.00,0.0247
3125.00,0.0246
3124.00,0.0246
3123.00,0.0246
3122.00,0.0245
3121.00,0.0245
3120.00,0.0245
3119.00,0.0245
3118.00,0.0244
3117.00,0.0243
3116.00,0.0243
3115.00,0.0242
3114.00,0.0241
3113.00,0.0240
3112.00,0.0239
3111.00,0.0239
3110.00,0.0238
3109.00,0.0238
3108.00,0.0237
3107.00,0.0236
3106.00,0.0235
3105.00,0.0234
3104.00,0.0234
3103.00,0.0233
3102.00,0.0233
3101.00,0.0233
3100.00,0.0233
3099.00,0.0232
3098.00,0.0232
3097.00,0.0231
3096.00,0.0230
3095.00,0.0230
3094.00,0.0229
3093.00,0.0229
3092.00,0.0229
3091.00,0.0229
3090.00,0.0229
3089.00,0.0229
3088.00,0.0228
3087.00,0.0228
3086.00,0.0228
3085.00,0.0228
3084.00,0.0229
3083.00,0.0229
3082.00,0.0229
3081.00,0.0230
3080.00,0.0230
3079.00,0.0230
3078.00,0.0229
3077.00,0.0229
3076.00,0.0228
3075.00,0.0228
3074.00,0.0227
3073.00,0.0227
3072.00,0.0227
3071.00,0.0226
3070.00,0.0226
3069.00,0.0225
3068.00,0.0224
3067.00,0.0223
3066.00,0.0222
3065.00,0.0221
3064.00,0.0219
3063.00,0.0218
3062.00,0.0216
3061.00,0.0215
3060.00,0.0214
3059.00,0.0213
3058.00,0.0212
3057.00,0.0211
3056.00,0.0210
3055.00,0.0210
3054.00,0.0209
3053.00,0.0208
3052.00,0.0208
3051.00,0.0207
3050.00,0.0207
3049.00,0.0207
3048.00,0.0206
3047.00,0.0206
3046.00,0.0206
3045.00,0.0206
3044.00,0.0206
3043.00,0.0205
3042.00,0.0205
3041.00,0.0205
3040.00,0.0204
3039.00,0.0204
3038.00,0.0204
3037.00,0.0203
3036.00,0.0203
3035.00,0.0203
3034.00,0.0203
3033.00,0.0202
3032.00,0.0202
3031.00,0.0201
3030.00,0.0201
3029.00,0.0200
3028.00,0.0200
3027.00,0.0200
3026.00,0.0200
3025.00,0.0200
3024.00,0.0200
3023.00,0.0200
3022.00,0.0200
3021.00,0.0200
3020.00,0.0201
3019.00,0.0201
3018.00,0.0201
3017.00,0.0202
3016.00,0.0203
3015.00,0.0204
3014.00,0.0205
3013.00,0.0206
3012.00,0.0207
3011.00,0.0207
3010.00,0.0208
3009.00,0.0209
3008.00,0.0210
3007.00,0.0212
3006.00,0.0214
3005.00,0.0215
3004.00,0.0217
3003.00,0.0219
3002.00,0.0221
3001.00,0.0224
3000.00,0.0226
2999.00,0.0228
2998.00,0.0231
2997.00,0.0234
2996.00,0.0237
2995.00,0.0239
2994.00,0.0242
2993.00,0.0246
2992.00,0.0249
2991.00,0.0252
2990.00,0.0255
2989.00,0.0258
2988.00,0.0262
2987.00,0.0265
2986.00,0.0269
2985.00,0.0273
2984.00,0.0277
2983.00,0.0281
2982.00,0.0285
2981.00,0.0288
2980.00,0.0291
2979.00,0.0294
2978.00,0.0297
2977.00,0.0300
2976.00,0.0303
2975.00,0.0307
2974.00,0.0311
2973.00,0.0316
2972.00,0.0320
2971.00,0.0325
2970.00,0.0330
2969.00,0.0336
2968.00,0.0341
2967.00,0.0347
2966.00,0.0353
2965.00,0.0359
2964.00,0.0365
2963.00,0.0371
2962.00,0.0376
2961.00,0.0381
2960.00,0.0386
2959.00,0.0390
2958.00,0.0393
2957.00,0.0395
2956.00,0.0397
2955.00,0.0398
2954.00,0.0399
2953.00,0.0398
2952.00,0.0397
2951.00,0.0396
2950.00,0.0394
2949.00,0.0393
2948.00,0.0392
2947.00,0.0391
2946.00,0.0391
2945.00,0.0392
2944.00,0.0393
2943.00,0.0394
2942.00,0.0397
2941.00,0.0400
2940.00,0.0404
2939.00,0.0409
2938.00,0.0414
2937.00,0.0421
2936.00,0.0427
2935.00,0.0434
2934.00,0.0441
2933.00,0.0448
2932.00,0.0454
2931.00,0.0460
2930.00,0.0466
2929.00,0.0471
2928.00,0.0475
2927.00,0.0478
2926.00,0.0481
2925.00,0.0482
2924.00,0.0483
2923.00,0.0483
2922.00,0.0482
2921.00,0.0481
2920.00,0.0479
2919.00,0.0476
2918.00,0.0472
2917.00,0.0468
2916.00,0.0463
2915.00,0.0458
2914.00,0.0452
2913.00,0.0447
2912.00,0.0441
2911.00,0.0434
2910.00,0.0428
2909.00,0.0422
2908.00,0.0416
2907.00,0.0410
2906.00,0.0405
2905.00,0.0400
2904.00,0.0396
2903.00,0.0391
2902.00,0.0388
2901.00,0.0384
2900.00,0.0381
2899.00,0.0378
2898.00,0.0376
2897.00,0.0373
2896.00,0.0371
2895.00,0.0369
2894.00,0.0367
2893.00,0.0365
2892.00,0.0363
2891.00,0.0361
2890.00,0.0359
2889.00,0.0358
2888.00,0.0356
2887.00,0.0354
2886.00,0.0352
2885.00,0.0351
2884.00,0.0350
2883.00,0.0349
2882.00,0.0348
2881.00,0.0347
2880.00,0.0347
2879.00,0.0347
2878.00,0.0347
2877.00,0.0348
2876.00,0.0349
2875.00,0.0350
2874.00,0.0351
2873.00,0.0352
2872.00,0.0352
2871.00,0.0353
2870.00,0.0352
2869.00,0.0352
2868.00,0.0351
2867.00,0.0350
2866.00,0.0349
2865.00,0.0349
2864.00,0.0350
2863.00,0.0352
2862.00,0.0354
2861.00,0.0357
2860.00,0.0360
2859.00,0.0363
2858.00,0.0365
2857.00,0.0366
2856.00,0.0366
2855.00,0.0365
2854.00,0.0361
2853.00,0.0356
2852.00,0.0350
2851.00,0.0343
2850.00,0.0335
2849.00,0.0327
2848.00,0.0318
2847.00,0.0310
2846.00,0.0301
2845.00,0.0293
2844.00,0.0284
2843.00,0.0277
2842.00,0.0270
2841.00,0.0265
2840.00,0.0260
2839.00,0.0256
2838.00,0.0254
2837.00,0.0252
2836.00,0.0250
2835.00,0.0249
2834.00,0.0247
2833.00,0.0246
2832.00,0.0245
2831.00,0.0244
2830.00,0.0242
2829.00,0.0239
2828.00,0.0236
2827.00,0.0232
2826.00,0.0228
2825.00,0.0224
2824.00,0.0220
2823.00,0.0215
2822.00,0.0211
2821.00,0.0207
2820.00,0.0204
2819.00,0.0200
2818.00,0.0197
2817.00,0.0194
2816.00,0.0192
2815.00,0.0190
2814.00,0.0188
2813.00,0.0186
2812.00,0.0184
2811.00,0.0182
2810.00,0.0181
2809.00,0.0179
2808.00,0.0178
2807.00,0.0177
2806.00,0.0176
2805.00,0.0175
2804.00,0.0174
2803.00,0.0174
2802.00,0.0173
2801.00,0.0172
2800.00,0.0171
2799.00,0.0170
2798.00,0.0169
2797.00,0.0169
2796.00,0.0168
2795.00,0.0167
2794.00,0.0167
2793.00,0.0166
2792.00,0.0166
2791.00,0.0165
2790.00,0.0165
2789.00,0.0164
2788.00,0.0164
2787.00,0.0164
2786.00,0.0163
2785.00,0.0163
2784.00,0.0162
2783.00,0.0162
2782.00,0.0161
2781.00,0.0161
2780.00,0.0160
2779.00,0.0160
2778.00,0.0160
2777.00,0.0159
2776.00,0.0159
2775.00,0.0159
2774.00,0.0158
2773.00,0.0158
2772.00,0.0158
2771.00,0.0158
2770.00,0.0157
2769.00,0.0157
2768.00,0.0157
2767.00,0.0156
2766.00,0.0156
2765.00,0.0156
2764.00,0.0156
2763.00,0.0156
2762.00,0.0155
2761.00,0.0155
2760.00,0.0155
2759.00,0.0155
2758.00,0.0155
2757.00,0.0155
2756.00,0.0155
2755.00,0.0155
2754.00,0.0154
2753.00,0.0154
2752.00,0.0154
2751.00,0.0154
2750.00,0.0154
2749.00,0.0154
2748.00,0.0154
2747.00,0.0154
2746.00,0.0154
2745.00,0.0154
2744.00,0.0154
2743.00,0.0154
2742.00,0.0154
2741.00,0.0154
2740.00,0.0154
2739.00,0.0154
2738.00,0.0154
2737.00,0.0154
2736.00,0.0154
2735.00,0.0155
2734.00,0.0155
2733.00,0.0155
2732.00,0.0155
2731.00,0.0155
2730.00,0.0155
2729.00,0.0155
2728.00,0.0155
2727.00,0.0155
2726.00,0.0155
2725.00,0.0155
2724.00,0.0155
2723.00,0.0154
2722.00,0.0154
2721.00,0.0154
2720.00,0.0154
2719.00,0.0153
2718.00,0.0153
2717.00,0.0152
2716.00,0.0152
2715.00,0.0151
2714.00,0.0151
2713.00,0.0151
2712.00,0.0151
2711.00,0.0150
2710.00,0.0150
2709.00,0.0150
2708.00,0.0150
2707.00,0.0150
2706.00,0.0149
2705.00,0.0149
2704.00,0.0149
2703.00,0.0149
2702.00,0.0149
2701.00,0.0148
2700.00,0.0148
2699.00,0.0148
2698.00,0.0148
2697.00,0.0148
2696.00,0.0148
2695.00,0.0148
2694.00,0.0148
2693.00,0.0148
2692.00,0.0147
2691.00,0.0147
2690.00,0.0147
2689.00,0.0147
2688.00,0.0147
2687.00,0.0147
2686.00,0.0147
2685.00,0.0147
2684.00,0.0147
2683.00,0.0146
2682.00,0.0146
2681.00,0.0146
2680.00,0.0146
2679.00,0.0146
2678.00,0.0146
2677.00,0.0146
2676.00,0.0146
2675.00,0.0145
2674.00,0.0145
2673.00,0.0145
2672.00,0.0145
2671.00,0.0145
2670.00,0.0145
2669.00,0.0145
2668.00,0.0145
2667.00,0.0146
2666.00,0.0146
2665.00,0.0146
2664.00,0.0146
2663.00,0.0147
2662.00,0.0147
2661.00,0.0147
2660.00,0.0147
2659.00,0.0147
2658.00,0.0147
2657.00,0.0147
2656.00,0.0146
2655.00,0.0146
2654.00,0.0145
2653.00,0.0145
2652.00,0.0145
2651.00,0.0145
2650.00,0.0145
2649.00,0.0144
2648.00,0.0144
2647.00,0.0144
2646.00,0.0144
2645.00,0.0143
2644.00,0.0143
2643.00,0.0143
2642.00,0.0142
2641.00,0.0142
2640.00,0.0142
2639.00,0.0141
2638.00,0.0141
2637.00,0.0141
2636.00,0.0140
2635.00,0.0140
2634.00,0.0140
2633.00,0.0140
2632.00,0.0140
2631.00,0.0139
2630.00,0.0139
2629.00,0.0139
2628.00,0.0138
2627.00,0.0138
2626.00,0.0138
2625.00,0.0138
2624.00,0.0137
2623.00,0.0137
2622.00,0.0136
2621.00,0.0136
2620.00,0.0136
2619.00,0.0135
2618.00,0.0135
2617.00,0.0135
2616.00,0.0135
2615.00,0.0134
2614.00,0.0134
2613.00,0.0134
2612.00,0.0134
2611.00,0.0134
2610.00,0.0133
2609.00,0.0133
2608.00,0.0132
2607.00,0.0132
2606.00,0.0132
2605.00,0.0131
2604.00,0.0131
2603.00,0.0131
2602.00,0.0130
2601.00,0.0130
2600.00,0.0130
2599.00,0.0130
2598.00,0.0129
2597.00,0.0129
2596.00,0.0129
2595.00,0.0129
2594.00,0.0129
2593.00,0.0129
2592.00,0.0129
2591.00,0.0128
2590.00,0.0128
2589.00,0.0128
2588.00,0.0128
2587.00,0.0128
2586.00,0.0127
2585.00,0.0127
2584.00,0.0127
2583.00,0.0127
2582.00,0.0127
2581.00,0.0127
2580.00,0.0126
2579.00,0.0126
2578.00,0.0126
2577.00,0.0126
2576.00,0.0126
2575.00,0.0126
2574.00,0.0126
2573.00,0.0126
2572.00,0.0125
2571.00,0.0125
2570.00,0.0125
2569.00,0.0124
2568.00,0.0124
2567.00,0.0124
2566.00,0.0123
2565.00,0.0122
2564.00,0.0122
2563.00,0.0122
2562.00,0.0122
2561.00,0.0122
2560.00,0.0122
2559.00,0.0122
2558.00,0.0121
2557.00,0.0121
2556.00,0.0121
2555.00,0.0121
2554.00,0.0120
2553.00,0.0120
2552.00,0.0120
2551.00,0.0120
2550.00,0.0119
2549.00,0.0119
2548.00,0.0119
2547.00,0.0119
2546.00,0.0119
2545.00,0.0119
2544.00,0.0119
2543.00,0.0119
2542.00,0.0119
2541.00,0.0119
2540.00,0.0118
2539.00,0.0118
2538.00,0.0118
2537.00,0.0117
2536.00,0.0117
2535.00,0.0117
2534.00,0.0117
2533.00,0.0117
2532.00,0.0117
2531.00,0.0117
2530.00,0.0116
2529.00,0.0116
2528.00,0.0116
2527.00,0.0115
2526.00,0.0115
2525.00,0.0115
2524.00,0.0115
2523.00,0.0115
2522.00,0.0114
2521.00,0.0114
2520.00,0.0114
2519.00,0.0114
2518.00,0.0114
2517.00,0.0114
2516.00,0.0113
2515.00,0.0113
2514.00,0.0112
2513.00,0.0112
2512.00,0.0112
2511.00,0.0111
2510.00,0.0111
2509.00,0.0111
2508.00,0.0112
2507.00,0.0112
2506.00,0.0112
2505.00,0.0111
2504.00,0.0111
2503.00,0.0111
2502.00,0.0110
2501.00,0.0110
2500.00,0.0110
2499.00,0.0110
2498.00,0.0110
2497.00,0.0110
2496.00,0.0110
2495.00,0.0110
2494.00,0.0110
2493.00,0.0110
2492.00,0.0109
2491.00,0.0109
2490.00,0.0108
2489.00,0.0108
2488.00,0.0108
2487.00,0.0108
2486.00,0.0108
2485.00,0.0108
2484.00,0.0108
2483.00,0.0108
2482.00,0.0108
2481.00,0.0107
2480.00,0.0107
2479.00,0.0107
2478.00,0.0107
2477.00,0.0107
2476.00,0.0106
2475.00,0.0106
2474.00,0.0106
2473.00,0.0106
2472.00,0.0106
2471.00,0.0106
2470.00,0.0106
2469.00,0.0106
2468.00,0.0106
2467.00,0.0106
2466.00,0.0106
2465.00,0.0106
2464.00,0.0106
2463.00,0.0106
2462.00,0.0106
2461.00,0.0106
2460.00,0.0106
2459.00,0.0106
2458.00,0.0106
2457.00,0.0106
2456.00,0.0106
2455.00,0.0106
2454.00,0.0105
2453.00,0.0105
2452.00,0.0105
2451.00,0.0105
2450.00,0.0105
2449.00,0.0105
2448.00,0.0105
2447.00,0.0104
2446.00,0.0104
2445.00,0.0104
2444.00,0.0103
2443.00,0.0103
2442.00,0.0103
2441.00,0.0102
2440.00,0.0102
2439.00,0.0102
2438.00,0.0102
2437.00,0.0101
2436.00,0.0101
2435.00,0.0101
2434.00,0.0101
2433.00,0.0101
2432.00,0.0101
2431.00,0.0100
2430.00,0.0100
2429.00,0.0100
2428.00,0.0100
2427.00,0.0100
2426.00,0.0099
2425.00,0.0099
2424.00,0.0099
2423.00,0.0099
2422.00,0.0099
2421.00,0.0099
2420.00,0.0099
2419.00,0.0099
2418.00,0.0099
2417.00,0.0099
2416.00,0.0099
2415.00,0.0099
2414.00,0.0099
2413.00,0.0098
2412.00,0.0098
2411.00,0.0098
2410.00,0.0098
2409.00,0.0097
2408.00,0.0097
2407.00,0.0097
2406.00,0.0097
2405.00,0.0096
2404.00,0.0096
2403.00,0.0096
2402.00,0.0096
2401.00,0.0096
2400.00,0.0096
2399.00,0.0096
2398.00,0.0096
2397.00,0.0096
2396.00,0.0096
2395.00,0.0096
2394.00,0.0096
2393.00,0.0095
2392.00,0.0095
2391.00,0.0095
2390.00,0.0095
2389.00,0.0094
2388.00,0.0094
2387.00,0.0094
2386.00,0.0094
2385.00,0.0093
2384.00,0.0092
2383.00,0.0092
2382.00,0.0092
2381.00,0.0091
2380.00,0.0091
2379.00,0.0091
2378.00,0.0091
2377.00,0.0091
2376.00,0.0091
2375.00,0.0091
2374.00,0.0091
2373.00,0.0091
2372.00,0.0090
2371.00,0.0090
2370.00,0.0089
2369.00,0.0089
2368.00,0.0089
2367.00,0.0089
2366.00,0.0090
2365.00,0.0090
2364.00,0.0091
2363.00,0.0092
2362.00,0.0092
2361.00,0.0092
2360.00,0.0092
2359.00,0.0091
2358.00,0.0091
2357.00,0.0091
2356.00,0.0091
2355.00,0.0091
2354.00,0.0091
2353.00,0.0091
2352.00,0.0091
2351.00,0.0091
2350.00,0.0092
2349.00,0.0094
2348.00,0.0095
2347.00,0.0096
2346.00,0.0095
2345.00,0.0095
2344.00,0.0094
2343.00,0.0094
2342.00,0.0094
2341.00,0.0094
2340.00,0.0095
2339.00,0.0095
2338.00,0.0095
2337.00,0.0094
2336.00,0.0094
2335.00,0.0094
2334.00,0.0094
2333.00,0.0094
2332.00,0.0093
2331.00,0.0094
2330.00,0.0094
2329.00,0.0096
2328.00,0.0100
2327.00,0.0104
2326.00,0.0108
2325.00,0.0109
2324.00,0.0107
2323.00,0.0105
2322.00,0.0102
2321.00,0.0100
2320.00,0.0099
2319.00,0.0098
2318.00,0.0098
2317.00,0.0097
2316.00,0.0097
2315.00,0.0096
2314.00,0.0096
2313.00,0.0095
2312.00,0.0095
2311.00,0.0094
2310.00,0.0094
2309.00,0.0094
2308.00,0.0093
2307.00,0.0093
2306.00,0.0094
2305.00,0.0094
2304.00,0.0094
2303.00,0.0094
2302.00,0.0094
2301.00,0.0094
2300.00,0.0094
2299.00,0.0094
2298.00,0.0095
2297.00,0.0095
2296.00,0.0095
2295.00,0.0096
2294.00,0.0097
2293.00,0.0097
2292.00,0.0099
2291.00,0.0100
2290.00,0.0100
2289.00,0.0101
2288.00,0.0101
2287.00,0.0101
2286.00,0.0101
2285.00,0.0100
2284.00,0.0100
2283.00,0.0099
2282.00,0.0098
2281.00,0.0097
2280.00,0.0096
2279.00,0.0096
2278.00,0.0096
2277.00,0.0095
2276.00,0.0094
2275.00,0.0093
2274.00,0.0093
2273.00,0.0093
2272.00,0.0094
2271.00,0.0094
2270.00,0.0093
2269.00,0.0092
2268.00,0.0092
2267.00,0.0091
2266.00,0.0090
2265.00,0.0090
2264.00,0.0091
2263.00,0.0091
2262.00,0.0091
2261.00,0.0091
2260.00,0.0092
2259.00,0.0092
2258.00,0.0091
2257.00,0.0090
2256.00,0.0089
2255.00,0.0087
2254.00,0.0087
2253.00,0.0087
2252.00,0.0088
2251.00,0.0088
2250.00,0.0088
2249.00,0.0088
2248.00,0.0088
2247.00,0.0088
2246.00,0.0088
2245.00,0.0088
2244.00,0.0088
2243.00,0.0087
2242.00,0.0087
2241.00,0.0086
2240.00,0.0086
2239.00,0.0086
2238.00,0.0087
2237.00,0.0087
2236.00,0.0088
2235.00,0.0088
2234.00,0.0088
2233.00,0.0088
2232.00,0.0087
2231.00,0.0087
2230.00,0.0086
2229.00,0.0086
2228.00,0.0085
2227.00,0.0085
2226.00,0.0085
2225.00,0.0085
2224.00,0.0085
2223.00,0.0086
2222.00,0.0086
2221.00,0.0085
2220.00,0.0085
2219.00,0.0085
2218.00,0.0085
2217.00,0.0085
2216.00,0.0084
2215.00,0.0084
2214.00,0.0083
2213.00,0.0082
2212.00,0.0082
2211.00,0.0082
2210.00,0.0082
2209.00,0.0083
2208.00,0.0083
2207.00,0.0083
2206.00,0.0083
2205.00,0.0083
2204.00,0.0084
2203.00,0.0084
2202.00,0.0085
2201.00,0.0085
2200.00,0.0085
2199.00,0.0085
2198.00,0.0085
2197.00,0.0086
2196.00,0.0087
2195.00,0.0087
2194.00,0.0087
2193.00,0.0086
2192.00,0.0085
2191.00,0.0085
2190.00,0.0084
2189.00,0.0084
2188.00,0.0084
2187.00,0.0084
2186.00,0.0083
2185.00,0.0082
2184.00,0.0079
2183.00,0.0077
2182.00,0.0076
2181.00,0.0077
2180.00,0.0079
2179.00,0.0080
2178.00,0.0078
2177.00,0.0076
2176.00,0.0074
2175.00,0.0073
2174.00,0.0075
2173.00,0.0077
2172.00,0.0081
2171.00,0.0084
2170.00,0.0086
2169.00,0.0088
2168.00,0.0089
2167.00,0.0090
2166.00,0.0091
2165.00,0.0094
2164.00,0.0097
2163.00,0.0097
2162.00,0.0090
2161.00,0.0077
2160.00,0.0061
2159.00,0.0047
2158.00,0.0040
2157.00,0.0040
2156.00,0.0043
2155.00,0.0047
2154.00,0.0050
2153.00,0.0053
2152.00,0.0055
2151.00,0.0057
2150.00,0.0058
2149.00,0.0059
2148.00,0.0060
2147.00,0.0061
2146.00,0.0061
2145.00,0.0061
2144.00,0.0061
2143.00,0.0062
2142.00,0.0063
2141.00,0.0063
2140.00,0.0063
2139.00,0.0062
2138.00,0.0060
2137.00,0.0058
2136.00,0.0056
2135.00,0.0055
2134.00,0.0055
2133.00,0.0056
2132.00,0.0059
2131.00,0.0061
2130.00,0.0063
2129.00,0.0065
2128.00,0.0067
2127.00,0.0068
2126.00,0.0069
2125.00,0.0070
2124.00,0.0072
2123.00,0.0073
2122.00,0.0074
2121.00,0.0075
2120.00,0.0075
2119.00,0.0076
2118.00,0.0077
2117.00,0.0078
2116.00,0.0078
2115.00,0.0078
2114.00,0.0078
2113.00,0.0077
2112.00,0.0078
2111.00,0.0078
2110.00,0.0078
2109.00,0.0078
2108.00,0.0078
2107.00,0.0078
2106.00,0.0078
2105.00,0.0078
2104.00,0.0078
2103.00,0.0078
2102.00,0.0078
2101.00,0.0078
2100.00,0.0078
2099.00,0.0077
2098.00,0.0076
2097.00,0.0075
2096.00,0.0073
2095.00,0.0072
2094.00,0.0072
2093.00,0.0073
2092.00,0.0075
2091.00,0.0076
2090.00,0.0077
2089.00,0.0077
2088.00,0.0078
2087.00,0.0078
2086.00,0.0078
2085.00,0.0078
2084.00,0.0078
2083.00,0.0078
2082.00,0.0078
2081.00,0.0078
2080.00,0.0078
2079.00,0.0078
2078.00,0.0078
2077.00,0.0078
2076.00,0.0078
2075.00,0.0077
2074.00,0.0077
2073.00,0.0077
2072.00,0.0077
2071.00,0.0076
2070.00,0.0075
2069.00,0.0073
2068.00,0.0073
2067.00,0.0072
2066.00,0.0072
2065.00,0.0073
2064.00,0.0073
2063.00,0.0073
2062.00,0.0072
2061.00,0.0071
2060.00,0.0071
2059.00,0.0072
2058.00,0.0072
2057.00,0.0072
2056.00,0.0073
2055.00,0.0073
2054.00,0.0076
2053.00,0.0080
2052.00,0.0083
2051.00,0.0084
2050.00,0.0081
2049.00,0.0077
2048.00,0.0074
2047.00,0.0072
2046.00,0.0071
2045.00,0.0070
2044.00,0.0071
2043.00,0.0071
2042.00,0.0072
2041.00,0.0073
2040.00,0.0074
2039.00,0.0074
2038.00,0.0073
2037.00,0.0072
2036.00,0.0070
2035.00,0.0067
2034.00,0.0064
2033.00,0.0062
2032.00,0.0061
2031.00,0.0061
2030.00,0.0061
2029.00,0.0062
2028.00,0.0063
2027.00,0.0063
2026.00,0.0062
2025.00,0.0061
2024.00,0.0062
2023.00,0.0062
2022.00,0.0063
2021.00,0.0064
2020.00,0.0065
2019.00,0.0065
2018.00,0.0064
2017.00,0.0064
2016.00,0.0065
2015.00,0.0064
2014.00,0.0064
2013.00,0.0064
2012.00,0.0065
2011.00,0.0066
2010.00,0.0066
2009.00,0.0065
2008.00,0.0063
2007.00,0.0061
2006.00,0.0059
2005.00,0.0059
2004.00,0.0061
2003.00,0.0063
2002.00,0.0064
2001.00,0.0064
2000.00,0.0065
1999.00,0.0066
1998.00,0.0066
1997.00,0.0066
1996.00,0.0067
1995.00,0.0068
1994.00,0.0068
1993.00,0.0069
1992.00,0.0069
1991.00,0.0069
1990.00,0.0070
1989.00,0.0070
1988.00,0.0072
1987.00,0.0073
1986.00,0.0074
1985.00,0.0076
1984.00,0.0078
1983.00,0.0081
1982.00,0.0083
1981.00,0.0083
1980.00,0.0080
1979.00,0.0074
1978.00,0.0067
1977.00,0.0061
1976.00,0.0059
1975.00,0.0058
1974.00,0.0058
1973.00,0.0059
1972.00,0.0061
1971.00,0.0062
1970.00,0.0063
1969.00,0.0063
1968.00,0.0062
1967.00,0.0061
1966.00,0.0060
1965.00,0.0060
1964.00,0.0060
1963.00,0.0059
1962.00,0.0057
1961.00,0.0056
1960.00,0.0056
1959.00,0.0056
1958.00,0.0056
1957.00,0.0058
1956.00,0.0060
1955.00,0.0061
1954.00,0.0061
1953.00,0.0061
1952.00,0.0062
1951.00,0.0063
1950.00,0.0063
1949.00,0.0063
1948.00,0.0063
1947.00,0.0063
1946.00,0.0062
1945.00,0.0063
1944.00,0.0064
1943.00,0.0065
1942.00,0.0065
1941.00,0.0064
1940.00,0.0064
1939.00,0.0064
1938.00,0.0064
1937.00,0.0064
1936.00,0.0063
1935.00,0.0063
1934.00,0.0062
1933.00,0.0062
1932.00,0.0062
1931.00,0.0063
1930.00,0.0063
1929.00,0.0064
1928.00,0.0065
1927.00,0.0065
1926.00,0.0065
1925.00,0.0065
1924.00,0.0066
1923.00,0.0067
1922.00,0.0067
1921.00,0.0068
1920.00,0.0068
1919.00,0.0068
1918.00,0.0068
1917.00,0.0068
1916.00,0.0068
1915.00,0.0068
1914.00,0.0068
1913.00,0.0068
1912.00,0.0069
1911.00,0.0069
1910.00,0.0069
1909.00,0.0069
1908.00,0.0070
1907.00,0.0069
1906.00,0.0069
1905.00,0.0069
1904.00,0.0070
1903.00,0.0069
1902.00,0.0069
1901.00,0.0069
1900.00,0.0069
1899.00,0.0069
1898.00,0.0069
1897.00,0.0069
1896.00,0.0070
1895.00,0.0070
1894.00,0.0069
1893.00,0.0069
1892.00,0.0070
1891.00,0.0070
1890.00,0.0070
1889.00,0.0070
1888.00,0.0070
1887.00,0.0069
1886.00,0.0069
1885.00,0.0069
1884.00,0.0070
1883.00,0.0070
1882.00,0.0070
1881.00,0.0070
1880.00,0.0070
1879.00,0.0071
1878.00,0.0071
1877.00,0.0070
1876.00,0.0071
1875.00,0.0070
1874.00,0.0070
1873.00,0.0070
1872.00,0.0070
1871.00,0.0070
1870.00,0.0070
1869.00,0.0071
1868.00,0.0071
1867.00,0.0071
1866.00,0.0071
1865.00,0.0070
1864.00,0.0070
1863.00,0.0071
1862.00,0.0071
1861.00,0.0071
1860.00,0.0072
1859.00,0.0072
1858.00,0.0072
1857.00,0.0071
1856.00,0.0071
1855.00,0.0071
1854.00,0.0071
1853.00,0.0071
1852.00,0.0071
1851.00,0.0071
1850.00,0.0071
1849.00,0.0072
1848.00,0.0073
1847.00,0.0073
1846.00,0.0073
1845.00,0.0072
1844.00,0.0072
1843.00,0.0072
1842.00,0.0072
1841.00,0.0072
1840.00,0.0072
1839.00,0.0072
1838.00,0.0072
1837.00,0.0072
1836.00,0.0072
1835.00,0.0072
1834.00,0.0072
1833.00,0.0072
1832.00,0.0072
1831.00,0.0073
1830.00,0.0073
1829.00,0.0074
1828.00,0.0074
1827.00,0.0074
1826.00,0.0073
1825.00,0.0073
1824.00,0.0073
1823.00,0.0073
1822.00,0.0072
1821.00,0.0071
1820.00,0.0071
1819.00,0.0070
1818.00,0.0069
1817.00,0.0069
1816.00,0.0070
1815.00,0.0070
1814.00,0.0071
1813.00,0.0072
1812.00,0.0072
1811.00,0.0073
1810.00,0.0073
1809.00,0.0073
1808.00,0.0073
1807.00,0.0073
1806.00,0.0073
1805.00,0.0073
1804.00,0.0074
1803.00,0.0075
1802.00,0.0075
1801.00,0.0075
1800.00,0.0075
1799.00,0.0075
1798.00,0.0074
1797.00,0.0074
1796.00,0.0075
1795.00,0.0075
1794.00,0.0075
1793.00,0.0075
1792.00,0.0075
1791.00,0.0075
1790.00,0.0075
1789.00,0.0075
1788.00,0.0076
1787.00,0.0076
1786.00,0.0077
1785.00,0.0077
1784.00,0.0077
1783.00,0.0077
1782.00,0.0077
1781.00,0.0077
1780.00,0.0078
1779.00,0.0078
1778.00,0.0077
1777.00,0.0077
1776.00,0.0078
1775.00,0.0078
1774.00,0.0079
1773.00,0.0079
1772.00,0.0079
1771.00,0.0080
1770.00,0.0080
1769.00,0.0080
1768.00,0.0080
1767.00,0.0080
1766.00,0.0080
1765.00,0.0080
1764.00,0.0080
1763.00,0.0081
1762.00,0.0081
1761.00,0.0081
1760.00,0.0081
1759.00,0.0081
1758.00,0.0081
1757.00,0.0081
1756.00,0.0081
1755.00,0.0082
1754.00,0.0082
1753.00,0.0083
1752.00,0.0083
1751.00,0.0084
1750.00,0.0084
1749.00,0.0084
1748.00,0.0084
1747.00,0.0085
1746.00,0.0085
1745.00,0.0086
1744.00,0.0087
1743.00,0.0087
1742.00,0.0087
1741.00,0.0087
1740.00,0.0088
1739.00,0.0089
1738.00,0.0089
1737.00,0.0090
1736.00,0.0091
1735.00,0.0091
1734.00,0.0092
1733.00,0.0092
1732.00,0.0094
1731.00,0.0095
1730.00,0.0096
1729.00,0.0097
1728.00,0.0098
1727.00,0.0100
1726.00,0.0101
1725.00,0.0102
1724.00,0.0104
1723.00,0.0106
1722.00,0.0108
1721.00,0.0110
1720.00,0.0113
1719.00,0.0116
1718.00,0.0117
1717.00,0.0120
1716.00,0.0123
1715.00,0.0126
1714.00,0.0129
1713.00,0.0133
1712.00,0.0138
1711.00,0.0143
1710.00,0.0149
1709.00,0.0155
1708.00,0.0164
1707.00,0.0174
1706.00,0.0185
1705.00,0.0199
1704.00,0.0212
1703.00,0.0225
1702.00,0.0239
1701.00,0.0262
1700.00,0.0293
1699.00,0.0321
1698.00,0.0343
1697.00,0.0369
1696.00,0.0405
1695.00,0.0446
1694.00,0.0480
1693.00,0.0509
1692.00,0.0538
1691.00,0.0570
1690.00,0.0604
1689.00,0.0637
1688.00,0.0665
1687.00,0.0689
1686.00,0.0711
1685.00,0.0739
1684.00,0.0774
1683.00,0.0801
1682.00,0.0816
1681.00,0.0826
1680.00,0.0834
1679.00,0.0842
1678.00,0.0848
1677.00,0.0853
1676.00,0.0861
1675.00,0.0872
1674.00,0.0881
1673.00,0.0889
1672.00,0.0898
1671.00,0.0911
1670.00,0.0929
1669.00,0.0951
1668.00,0.0972
1667.00,0.0988
1666.00,0.1002
1665.00,0.1017
1664.00,0.1034
1663.00,0.1055
1662.00,0.1074
1661.00,0.1089
1660.00,0.1099
1659.00,0.1106
1658.00,0.1111
1657.00,0.1113
1656.00,0.1111
1655.00,0.1108
1654.00,0.1103
1653.00,0.1096
1652.00,0.1084
1651.00,0.1068
1650.00,0.1050
1649.00,0.1029
1648.00,0.1003
1647.00,0.0972
1646.00,0.0940
1645.00,0.0908
1644.00,0.0878
1643.00,0.0847
1642.00,0.0814
1641.00,0.0780
1640.00,0.0746
1639.00,0.0714
1638.00,0.0683
1637.00,0.0651
1636.00,0.0618
1635.00,0.0590
1634.00,0.0570
1633.00,0.0555
1632.00,0.0543
1631.00,0.0535
1630.00,0.0529
1629.00,0.0526
1628.00,0.0525
1627.00,0.0524
1626.00,0.0522
1625.00,0.0519
1624.00,0.0516
1623.00,0.0512
1622.00,0.0506
1621.00,0.0500
1620.00,0.0493
1619.00,0.0484
1618.00,0.0474
1617.00,0.0462
1616.00,0.0448
1615.00,0.0433
1614.00,0.0418
1613.00,0.0402
1612.00,0.0385
1611.00,0.0368
1610.00,0.0352
1609.00,0.0337
1608.00,0.0324
1607.00,0.0314
1606.00,0.0305
1605.00,0.0299
1604.00,0.0296
1603.00,0.0296
1602.00,0.0299
1601.00,0.0304
1600.00,0.0312
1599.00,0.0322
1598.00,0.0333
1597.00,0.0345
1596.00,0.0357
1595.00,0.0369
1594.00,0.0380
1593.00,0.0390
1592.00,0.0398
1591.00,0.0405
1590.00,0.0411
1589.00,0.0416
1588.00,0.0420
1587.00,0.0422
1586.00,0.0421
1585.00,0.0418
1584.00,0.0412
1583.00,0.0404
1582.00,0.0392
1581.00,0.0379
1580.00,0.0366
1579.00,0.0352
1578.00,0.0338
1577.00,0.0321
1576.00,0.0305
1575.00,0.0290
1574.00,0.0279
1573.00,0.0269
1572.00,0.0260
1571.00,0.0251
1570.00,0.0241
1569.00,0.0232
1568.00,0.0223
1567.00,0.0216
1566.00,0.0210
1565.00,0.0204
1564.00,0.0199
1563.00,0.0195
1562.00,0.0192
1561.00,0.0189
1560.00,0.0186
1559.00,0.0182
1558.00,0.0180
1557.00,0.0177
1556.00,0.0174
1555.00,0.0171
1554.00,0.0169
1553.00,0.0167
1552.00,0.0165
1551.00,0.0164
1550.00,0.0163
1549.00,0.0163
1548.00,0.0162
1547.00,0.0161
1546.00,0.0161
1545.00,0.0161
1544.00,0.0162
1543.00,0.0161
1542.00,0.0161
1541.00,0.0161
1540.00,0.0161
1539.00,0.0162
1538.00,0.0162
1537.00,0.0162
1536.00,0.0162
1535.00,0.0162
1534.00,0.0162
1533.00,0.0163
1532.00,0.0164
1531.00,0.0164
1530.00,0.0164
1529.00,0.0165
1528.00,0.0166
1527.00,0.0168
1526.00,0.0169
1525.00,0.0171
1524.00,0.0172
1523.00,0.0173
1522.00,0.0175
1521.00,0.0177
1520.00,0.0178
1519.00,0.0179
1518.00,0.0179
1517.00,0.0178
1516.00,0.0178
1515.00,0.0177
1514.00,0.0176
1513.00,0.0175
1512.00,0.0175
1511.00,0.0174
1510.00,0.0175
1509.00,0.0175
1508.00,0.0177
1507.00,0.0180
1506.00,0.0185
1505.00,0.0189
1504.00,0.0194
1503.00,0.0199
1502.00,0.0207
1501.00,0.0216
1500.00,0.0226
1499.00,0.0237
1498.00,0.0249
1497.00,0.0261
1496.00,0.0272
1495.00,0.0279
1494.00,0.0283
1493.00,0.0283
1492.00,0.0281
1491.00,0.0275
1490.00,0.0265
1489.00,0.0254
1488.00,0.0241
1487.00,0.0229
1486.00,0.0217
1485.00,0.0207
1484.00,0.0199
1483.00,0.0193
1482.00,0.0188
1481.00,0.0185
1480.00,0.0183
1479.00,0.0183
1478.00,0.0185
1477.00,0.0189
1476.00,0.0195
1475.00,0.0203
1474.00,0.0214
1473.00,0.0231
1472.00,0.0253
1471.00,0.0276
1470.00,0.0299
1469.00,0.0323
1468.00,0.0349
1467.00,0.0377
1466.00,0.0408
1465.00,0.0442
1464.00,0.0472
1463.00,0.0494
1462.00,0.0507
1461.00,0.0515
1460.00,0.0518
1459.00,0.0516
1458.00,0.0509
1457.00,0.0499
1456.00,0.0489
1455.00,0.0482
1454.00,0.0479
1453.00,0.0480
1452.00,0.0484
1451.00,0.0493
1450.00,0.0506
1449.00,0.0523
1448.00,0.0545
1447.00,0.0568
1446.00,0.0590
1445.00,0.0612
1444.00,0.0633
1443.00,0.0654
1442.00,0.0674
1441.00,0.0691
1440.00,0.0706
1439.00,0.0719
1438.00,0.0730
1437.00,0.0744
1436.00,0.0759
1435.00,0.0769
1434.00,0.0778
1433.00,0.0789
1432.00,0.0802
1431.00,0.0818
1430.00,0.0836
1429.00,0.0853
1428.00,0.0866
1427.00,0.0874
1426.00,0.0879
1425.00,0.0883
1424.00,0.0884
1423.00,0.0880
1422.00,0.0870
1421.00,0.0854
1420.00,0.0827
1419.00,0.0786
1418.00,0.0739
1417.00,0.0691
1416.00,0.0645
1415.00,0.0600
1414.00,0.0557
1413.00,0.0518
1412.00,0.0483
1411.00,0.0452
1410.00,0.0427
1409.00,0.0406
1408.00,0.0389
1407.00,0.0375
1406.00,0.0364
1405.00,0.0355
1404.00,0.0347
1403.00,0.0341
1402.00,0.0337
1401.00,0.0334
1400.00,0.0331
1399.00,0.0329
1398.00,0.0329
1397.00,0.0329
1396.00,0.0329
1395.00,0.0330
1394.00,0.0331
1393.00,0.0332
1392.00,0.0333
1391.00,0.0335
1390.00,0.0338
1389.00,0.0341
1388.00,0.0346
1387.00,0.0352
1386.00,0.0359
1385.00,0.0367
1384.00,0.0375
1383.00,0.0386
1382.00,0.0399
1381.00,0.0414
1380.00,0.0429
1379.00,0.0444
1378.00,0.0458
1377.00,0.0470
1376.00,0.0477
1375.00,0.0481
1374.00,0.0480
1373.00,0.0475
1372.00,0.0467
1371.00,0.0458
1370.00,0.0448
1369.00,0.0438
1368.00,0.0428
1367.00,0.0419
1366.00,0.0410
1365.00,0.0401
1364.00,0.0391
1363.00,0.0381
1362.00,0.0371
1361.00,0.0362
1360.00,0.0355
1359.00,0.0348
1358.00,0.0343
1357.00,0.0339
1356.00,0.0336
1355.00,0.0333
1354.00,0.0330
1353.00,0.0327
1352.00,0.0324
1351.00,0.0322
1350.00,0.0319
1349.00,0.0317
1348.00,0.0315
1347.00,0.0313
1346.00,0.0311
1345.00,0.0309
1344.00,0.0307
1343.00,0.0306
1342.00,0.0305
1341.00,0.0304
1340.00,0.0303
1339.00,0.0303
1338.00,0.0304
1337.00,0.0304
1336.00,0.0305
1335.00,0.0306
1334.00,0.0307
1333.00,0.0308
1332.00,0.0309
1331.00,0.0311
1330.00,0.0313
1329.00,0.0317
1328.00,0.0322
1327.00,0.0328
1326.00,0.0336
1325.00,0.0345
1324.00,0.0355
1323.00,0.0366
1322.00,0.0376
1321.00,0.0386
1320.00,0.0395
1319.00,0.0402
1318.00,0.0408
1317.00,0.0410
1316.00,0.0410
1315.00,0.0408
1314.00,0.0404
1313.00,0.0399
1312.00,0.0393
1311.00,0.0387
1310.00,0.0382
1309.00,0.0378
1308.00,0.0375
1307.00,0.0373
1306.00,0.0372
1305.00,0.0374
1304.00,0.0377
1303.00,0.0383
1302.00,0.0393
1301.00,0.0407
1300.00,0.0426
1299.00,0.0450
1298.00,0.0481
1297.00,0.0517
1296.00,0.0559
1295.00,0.0602
1294.00,0.0647
1293.00,0.0689
1292.00,0.0728
1291.00,0.0760
1290.00,0.0785
1289.00,0.0803
1288.00,0.0814
1287.00,0.0817
1286.00,0.0813
1285.00,0.0804
1284.00,0.0789
1283.00,0.0771
1282.00,0.0752
1281.00,0.0734
1280.00,0.0719
1279.00,0.0707
1278.00,0.0701
1277.00,0.0698
1276.00,0.0699
1275.00,0.0701
1274.00,0.0704
1273.00,0.0704
1272.00,0.0703
1271.00,0.0697
1270.00,0.0687
1269.00,0.0674
1268.00,0.0658
1267.00,0.0639
1266.00,0.0619
1265.00,0.0599
1264.00,0.0580
1263.00,0.0563
1262.00,0.0548
1261.00,0.0537
1260.00,0.0528
1259.00,0.0523
1258.00,0.0522
1257.00,0.0523
1256.00,0.0527
1255.00,0.0532
1254.00,0.0537
1253.00,0.0543
1252.00,0.0548
1251.00,0.0551
1250.00,0.0554
1249.00,0.0555
1248.00,0.0556
1247.00,0.0556
1246.00,0.0555
1245.00,0.0553
1244.00,0.0550
1243.00,0.0546
1242.00,0.0540
1241.00,0.0534
1240.00,0.0526
1239.00,0.0517
1238.00,0.0509
1237.00,0.0501
1236.00,0.0494
1235.00,0.0488
1234.00,0.0483
1233.00,0.0479
1232.00,0.0476
1231.00,0.0473
1230.00,0.0472
1229.00,0.0471
1228.00,0.0470
1227.00,0.0470
1226.00,0.0469
1225.00,0.0467
1224.00,0.0465
1223.00,0.0462
1222.00,0.0458
1221.00,0.0454
1220.00,0.0449
1219.00,0.0444
1218.00,0.0438
1217.00,0.0433
1216.00,0.0427
1215.00,0.0420
1214.00,0.0414
1213.00,0.0407
1212.00,0.0400
1211.00,0.0394
1210.00,0.0389
1209.00,0.0385
1208.00,0.0382
1207.00,0.0381
1206.00,0.0381
1205.00,0.0382
1204.00,0.0383
1203.00,0.0383
1202.00,0.0381
1201.00,0.0377
1200.00,0.0371
1199.00,0.0364
1198.00,0.0356
1197.00,0.0348
1196.00,0.0341
1195.00,0.0334
1194.00,0.0329
1193.00,0.0324
1192.00,0.0321
1191.00,0.0318
1190.00,0.0316
1189.00,0.0314
1188.00,0.0312
1187.00,0.0310
1186.00,0.0309
1185.00,0.0307
1184.00,0.0305
1183.00,0.0304
1182.00,0.0304
1181.00,0.0305
1180.00,0.0308
1179.00,0.0313
1178.00,0.0320
1177.00,0.0328
1176.00,0.0337
1175.00,0.0346
1174.00,0.0354
1173.00,0.0360
1172.00,0.0363
1171.00,0.0363
1170.00,0.0360
1169.00,0.0355
1168.00,0.0347
1167.00,0.0338
1166.00,0.0328
1165.00,0.0319
1164.00,0.0310
1163.00,0.0302
1162.00,0.0296
1161.00,0.0292
1160.00,0.0291
1159.00,0.0294
1158.00,0.0300
1157.00,0.0309
1156.00,0.0321
1155.00,0.0332
1154.00,0.0343
1153.00,0.0350
1152.00,0.0353
1151.00,0.0352
1150.00,0.0346
1149.00,0.0336
1148.00,0.0322
1147.00,0.0305
1146.00,0.0287
1145.00,0.0270
1144.00,0.0254
1143.00,0.0241
1142.00,0.0231
1141.00,0.0224
1140.00,0.0218
1139.00,0.0215
1138.00,0.0213
1137.00,0.0211
1136.00,0.0210
1135.00,0.0208
1134.00,0.0206
1133.00,0.0204
1132.00,0.0201
1131.00,0.0198
1130.00,0.0196
1129.00,0.0193
1128.00,0.0192
1127.00,0.0190
1126.00,0.0190
1125.00,0.0189
1124.00,0.0189
1123.00,0.0189
1122.00,0.0189
1121.00,0.0189
1120.00,0.0190
1119.00,0.0191
1118.00,0.0192
1117.00,0.0193
1116.00,0.0194
1115.00,0.0195
1114.00,0.0197
1113.00,0.0199
1112.00,0.0200
1111.00,0.0201
1110.00,0.0202
1109.00,0.0203
1108.00,0.0203
1107.00,0.0204
1106.00,0.0204
1105.00,0.0205
1104.00,0.0206
1103.00,0.0207
1102.00,0.0209
1101.00,0.0212
1100.00,0.0214
1099.00,0.0216
1098.00,0.0218
1097.00,0.0220
1096.00,0.0220
1095.00,0.0219
1094.00,0.0218
1093.00,0.0215
1092.00,0.0212
1091.00,0.0208
1090.00,0.0205
1089.00,0.0202
1088.00,0.0200
1087.00,0.0199
1086.00,0.0200
1085.00,0.0201
1084.00,0.0203
1083.00,0.0206
1082.00,0.0209
1081.00,0.0213
1080.00,0.0216
1079.00,0.0219
1078.00,0.0222
1077.00,0.0223
1076.00,0.0224
1075.00,0.0224
1074.00,0.0223
1073.00,0.0221
1072.00,0.0217
1071.00,0.0214
1070.00,0.0211
1069.00,0.0209
1068.00,0.0207
1067.00,0.0206
1066.00,0.0208
1065.00,0.0211
1064.00,0.0216
1063.00,0.0223
1062.00,0.0235
1061.00,0.0252
1060.00,0.0273
1059.00,0.0298
1058.00,0.0325
1057.00,0.0351
1056.00,0.0371
1055.00,0.0384
1054.00,0.0387
1053.00,0.0379
1052.00,0.0362
1051.00,0.0339
1050.00,0.0315
1049.00,0.0293
1048.00,0.0277
1047.00,0.0265
1046.00,0.0260
1045.00,0.0259
1044.00,0.0262
1043.00,0.0269
1042.00,0.0279
1041.00,0.0292
1040.00,0.0308
1039.00,0.0328
1038.00,0.0353
1037.00,0.0381
1036.00,0.0411
1035.00,0.0443
1034.00,0.0474
1033.00,0.0503
1032.00,0.0526
1031.00,0.0543
1030.00,0.0553
1029.00,0.0554
1028.00,0.0547
1027.00,0.0533
1026.00,0.0514
1025.00,0.0493
1024.00,0.0471
1023.00,0.0451
1022.00,0.0435
1021.00,0.0422
1020.00,0.0410
1019.00,0.0401
1018.00,0.0391
1017.00,0.0380
1016.00,0.0367
1015.00,0.0353
1014.00,0.0339
1013.00,0.0325
1012.00,0.0313
1011.00,0.0303
1010.00,0.0294
1009.00,0.0287
1008.00,0.0281
1007.00,0.0277
1006.00,0.0275
1005.00,0.0274
1004.00,0.0272
1003.00,0.0271
1002.00,0.0269
1001.00,0.0266
1000.00,0.0262
999.00,0.0258
998.00,0.0254
997.00,0.0249
996.00,0.0244
995.00,0.0239
994.00,0.0235
993.00,0.0233
992.00,0.0231
991.00,0.0231
990.00,0.0232
989.00,0.0232
988.00,0.0231
987.00,0.0229
986.00,0.0227
985.00,0.0224
984.00,0.0220
983.00,0.0216
982.00,0.0211
981.00,0.0207
980.00,0.0204
979.00,0.0201
978.00,0.0199
977.00,0.0198
976.00,0.0196
975.00,0.0195
974.00,0.0195
973.00,0.0194
972.00,0.0194
971.00,0.0194
970.00,0.0195
969.00,0.0196
968.00,0.0196
967.00,0.0197
966.00,0.0198
965.00,0.0198
964.00,0.0198
963.00,0.0198
962.00,0.0197
961.00,0.0195
960.00,0.0192
959.00,0.0188
958.00,0.0184
957.00,0.0178
956.00,0.0173
955.00,0.0166
954.00,0.0161
953.00,0.0155
952.00,0.0151
951.00,0.0147
950.00,0.0145
949.00,0.0143
948.00,0.0141
947.00,0.0140
946.00,0.0139
945.00,0.0138
944.00,0.0138
943.00,0.0138
942.00,0.0139
941.00,0.0141
940.00,0.0143
939.00,0.0146
938.00,0.0150
937.00,0.0155
936.00,0.0159
935.00,0.0164
934.00,0.0168
933.00,0.0171
932.00,0.0172
931.00,0.0171
930.00,0.0169
929.00,0.0167
928.00,0.0164
927.00,0.0161
926.00,0.0159
925.00,0.0158
924.00,0.0156
923.00,0.0155
922.00,0.0155
921.00,0.0156
920.00,0.0156
919.00,0.0158
918.00,0.0160
917.00,0.0162
916.00,0.0163
915.00,0.0165
914.00,0.0168
913.00,0.0171
912.00,0.0173
911.00,0.0175
910.00,0.0178
909.00,0.0183
908.00,0.0188
907.00,0.0194
906.00,0.0202
905.00,0.0211
904.00,0.0221
903.00,0.0230
902.00,0.0240
901.00,0.0248
900.00,0.0255
899.00,0.0261
898.00,0.0267
897.00,0.0273
896.00,0.0278
895.00,0.0284
894.00,0.0289
893.00,0.0295
892.00,0.0301
891.00,0.0306
890.00,0.0312
889.00,0.0317
888.00,0.0323
887.00,0.0327
886.00,0.0331
885.00,0.0334
884.00,0.0335
883.00,0.0335
882.00,0.0333
881.00,0.0329
880.00,0.0324
879.00,0.0318
878.00,0.0310
877.00,0.0303
876.00,0.0294
875.00,0.0286
874.00,0.0279
873.00,0.0273
872.00,0.0267
871.00,0.0262
870.00,0.0259
869.00,0.0258
868.00,0.0257
867.00,0.0259
866.00,0.0261
865.00,0.0264
864.00,0.0267
863.00,0.0271
862.00,0.0274
861.00,0.0278
860.00,0.0282
859.00,0.0287
858.00,0.0293
857.00,0.0300
856.00,0.0307
855.00,0.0314
854.00,0.0321
853.00,0.0328
852.00,0.0334
851.00,0.0339
850.00,0.0343
849.00,0.0347
848.00,0.0350
847.00,0.0353
846.00,0.0355
845.00,0.0357
844.00,0.0358
843.00,0.0358
842.00,0.0359
841.00,0.0359
840.00,0.0360
839.00,0.0361
838.00,0.0363
837.00,0.0366
836.00,0.0369
835.00,0.0372
834.00,0.0375
833.00,0.0378
832.00,0.0380
831.00,0.0382
830.00,0.0383
829.00,0.0382
828.00,0.0379
827.00,0.0373
826.00,0.0366
825.00,0.0358
824.00,0.0349
823.00,0.0339
822.00,0.0329
821.00,0.0319
820.00,0.0309
819.00,0.0300
818.00,0.0292
817.00,0.0285
816.00,0.0279
815.00,0.0274
814.00,0.0270
813.00,0.0268
812.00,0.0266
811.00,0.0265
810.00,0.0265
809.00,0.0266
808.00,0.0268
807.00,0.0271
806.00,0.0275
805.00,0.0277
804.00,0.0277
803.00,0.0274
802.00,0.0269
801.00,0.0263
800.00,0.0257
799.00,0.0253
798.00,0.0252
797.00,0.0253
796.00,0.0254
795.00,0.0255
794.00,0.0256
793.00,0.0256
792.00,0.0255
791.00,0.0253
790.00,0.0250
789.00,0.0247
788.00,0.0243
787.00,0.0239
786.00,0.0237
785.00,0.0234
784.00,0.0232
783.00,0.0231
782.00,0.0231
781.00,0.0231
780.00,0.0233
779.00,0.0235
778.00,0.0239
777.00,0.0243
776.00,0.0247
775.00,0.0250
774.00,0.0253
773.00,0.0255
772.00,0.0257
771.00,0.0258
770.00,0.0260
769.00,0.0260
768.00,0.0260
767.00,0.0261
766.00,0.0262
765.00,0.0264
764.00,0.0266
763.00,0.0269
762.00,0.0273
761.00,0.0278
760.00,0.0284
759.00,0.0289
758.00,0.0295
757.00,0.0300
756.00,0.0304
755.00,0.0307
754.00,0.0308
753.00,0.0308
752.00,0.0307
751.00,0.0305
750.00,0.0303
749.00,0.0302
748.00,0.0301
747.00,0.0301
746.00,0.0302
745.00,0.0304
744.00,0.0306
743.00,0.0309
742.00,0.0313
741.00,0.0318
740.00,0.0322
739.00,0.0326
738.00,0.0331
737.00,0.0335
736.00,0.0339
735.00,0.0343
734.00,0.0347
733.00,0.0349
732.00,0.0350
731.00,0.0349
730.00,0.0346
729.00,0.0341
728.00,0.0335
727.00,0.0329
726.00,0.0323
725.00,0.0317
724.00,0.0311
723.00,0.0306
722.00,0.0302
721.00,0.0298
720.00,0.0294
719.00,0.0290
718.00,0.0288
717.00,0.0286
716.00,0.0284
715.00,0.0283
714.00,0.0282
713.00,0.0282
712.00,0.0281
711.00,0.0281
710.00,0.0281
709.00,0.0281
708.00,0.0280
707.00,0.0280
706.00,0.0280
705.00,0.0281
704.00,0.0281
703.00,0.0282
702.00,0.0283
701.00,0.0284
700.00,0.0285
699.00,0.0286
698.00,0.0288
697.00,0.0290
696.00,0.0291
695.00,0.0293
694.00,0.0295
693.00,0.0298
692.00,0.0299
691.00,0.0302
690.00,0.0305
689.00,0.0308
688.00,0.0311
687.00,0.0315
686.00,0.0319
685.00,0.0324
684.00,0.0328
683.00,0.0332
682.00,0.0337
681.00,0.0341
680.00,0.0345
679.00,0.0348
678.00,0.0351
677.00,0.0355
676.00,0.0358
675.00,0.0361
674.00,0.0364
673.00,0.0367
672.00,0.0370
671.00,0.0372
670.00,0.0374
669.00,0.0378
668.00,0.0382
667.00,0.0386
666.00,0.0391
665.00,0.0395
664.00,0.0398
663.00,0.0403
662.00,0.0409
661.00,0.0414
660.00,0.0420
659.00,0.0426
658.00,0.0434
657.00,0.0441
656.00,0.0447
655.00,0.0453
654.00,0.0460
653.00,0.0466
652.00,0.0471
651.00,0.0475
650.00,0.0478
649.00,0.0480
648.00,0.0480
647.00,0.0479
646.00,0.0476
645.00,0.0471
644.00,0.0465
643.00,0.0459
642.00,0.0452
641.00,0.0444
640.00,0.0434
639.00,0.0425
638.00,0.0417
637.00,0.0409
636.00,0.0402
635.00,0.0394
634.00,0.0386
633.00,0.0379
632.00,0.0372
631.00,0.0366
630.00,0.0361
629.00,0.0357
628.00,0.0352
627.00,0.0348
626.00,0.0344
625.00,0.0341
624.00,0.0338
623.00,0.0335
622.00,0.0334
621.00,0.0333
620.00,0.0333
619.00,0.0333
618.00,0.0335
617.00,0.0337
616.00,0.0338
615.00,0.0339
614.00,0.0341
613.00,0.0341
612.00,0.0341
611.00,0.0342
610.00,0.0344
609.00,0.0345
608.00,0.0346
607.00,0.0346
606.00,0.0348
605.00,0.0349
604.00,0.0351
603.00,0.0352
602.00,0.0353
601.00,0.0354
600.00,0.0354
599.00,0.0355
598.00,0.0357
597.00,0.0359
596.00,0.0360
595.00,0.0360
594.00,0.0361
593.00,0.0363
592.00,0.0364
591.00,0.0367
590.00,0.0369
589.00,0.0372
588.00,0.0375
587.00,0.0380
586.00,0.0386
585.00,0.0393
584.00,0.0400
583.00,0.0407
582.00,0.0416
581.00,0.0426
580.00,0.0434
579.00,0.0439
578.00,0.0442
577.00,0.0443
576.00,0.0442
575.00,0.0441
574.00,0.0441
573.00,0.0440
572.00,0.0436
571.00,0.0432
570.00,0.0429
569.00,0.0424
568.00,0.0418
567.00,0.0412
566.00,0.0408
565.00,0.0405
564.00,0.0400
563.00,0.0395
562.00,0.0392
561.00,0.0390
560.00,0.0389
559.00,0.0390
558.00,0.0394
557.00,0.0398
556.00,0.0403
555.00,0.0408
554.00,0.0414
553.00,0.0418
552.00,0.0419
551.00,0.0418
550.00,0.0417
549.00,0.0413
548.00,0.0408
547.00,0.0403
546.00,0.0398
545.00,0.0393
544.00,0.0387
543.00,0.0382
542.00,0.0378
541.00,0.0376
540.00,0.0374
539.00,0.0374
538.00,0.0375
537.00,0.0377
536.00,0.0378
535.00,0.0379
534.00,0.0381
533.00,0.0381
532.00,0.0378
531.00,0.0375
530.00,0.0375
529.00,0.0377
528.00,0.0381
527.00,0.0386
526.00,0.0394
525.00,0.0401
524.00,0.0404
523.00,0.0402
522.00,0.0398
521.00,0.0391
520.00,0.0381
519.00,0.0371
518.00,0.0364
517.00,0.0358
516.00,0.0352
515.00,0.0347
514.00,0.0343
513.00,0.0340
512.00,0.0336
511.00,0.0332
510.00,0.0330
509.00,0.0328
508.00,0.0326
507.00,0.0324
506.00,0.0325
505.00,0.0327
504.00,0.0326
503.00,0.0324
502.00,0.0325
501.00,0.0326
500.00,0.0327
499.00,0.0330
498.00,0.0335
497.00,0.0340
496.00,0.0342
495.00,0.0344
494.00,0.0347
493.00,0.0350
492.00,0.0352
491.00,0.0355
490.00,0.0358
489.00,0.0361
488.00,0.0360
487.00,0.0359
486.00,0.0360
485.00,0.0362
484.00,0.0361
483.00,0.0361
482.00,0.0363
481.00,0.0366
480.00,0.0367
479.00,0.0368
478.00,0.0371
477.00,0.0374
476.00,0.0373
475.00,0.0373
474.00,0.0374
473.00,0.0375
472.00,0.0374
471.00,0.0374
470.00,0.0376
469.00,0.0379
468.00,0.0379
467.00,0.0378
466.00,0.0380
465.00,0.0380
464.00,0.0376
463.00,0.0371
462.00,0.0367
461.00,0.0364
460.00,0.0358
459.00,0.0352
458.00,0.0349
457.00,0.0346
456.00,0.0344
455.00,0.0344
454.00,0.0347
453.00,0.0348
452.00,0.0344
451.00,0.0340
450.00,0.0339
449.00,0.0341
448.00,0.0340
447.00,0.0340
446.00,0.0341
445.00,0.0342
444.00,0.0341
443.00,0.0341
442.00,0.0345
441.00,0.0347
440.00,0.0345
439.00,0.0341
438.00,0.0341
437.00,0.0341
436.00,0.0340
435.00,0.0340
434.00,0.0343
433.00,0.0346
432.00,0.0344
431.00,0.0343
430.00,0.0345
429.00,0.0347
428.00,0.0345
427.00,0.0343
426.00,0.0346
425.00,0.0350
424.00,0.0351
423.00,0.0350
422.00,0.0352
421.00,0.0355
420.00,0.0353
419.00,0.0349
418.00,0.0348
417.00,0.0346
416.00,0.0340
415.00,0.0337
414.00,0.0339
413.00,0.0340
412.00,0.0334
411.00,0.0330
410.00,0.0334
409.00,0.0342
408.00,0.0344
407.00,0.0342
406.00,0.0340
405.00,0.0337
404.00,0.0330
403.00,0.0329
402.00,0.0338
401.00,0.0345
400.00,0.0341
