Created as New Dataset,Sample 884 By YargerLab Date Wednesday, July 23 2025
cm-1,A
4000.00,0.0013
3999.00,0.0013
3998.00,0.0013
3997.00,0.0013
3996.00,0.0013
3995.00,0.0013
3994.00,0.0013
3993.00,0.0013
3992.00,0.0013
3991.00,0.0013
3990.00,0.0013
3989.00,0.0013
3988.00,0.0013
3987.00,0.0013
3986.00,0.0013
3985.00,0.0014
3984.00,0.0014
3983.00,0.0014
3982.00,0.0014
3981.00,0.0014
3980.00,0.0015
3979.00,0.0015
3978.00,0.0015
3977.00,0.0015
3976.00,0.0015
3975.00,0.0015
3974.00,0.0015
3973.00,0.0015
3972.00,0.0015
3971.00,0.0015
3970.00,0.0015
3969.00,0.0015
3968.00,0.0015
3967.00,0.0015
3966.00,0.0015
3965.00,0.0015
3964.00,0.0015
3963.00,0.0015
3962.00,0.0015
3961.00,0.0015
3960.00,0.0015
3959.00,0.0015
3958.00,0.0015
3957.00,0.0015
3956.00,0.0015
3955.00,0.0015
3954.00,0.0015
3953.00,0.0015
3952.00,0.0015
3951.00,0.0015
3950.00,0.0014
3949.00,0.0014
3948.00,0.0014
3947.00,0.0014
3946.00,0.0014
3945.00,0.0014
3944.00,0.0014
3943.00,0.0014
3942.00,0.0014
3941.00,0.0014
3940.00,0.0014
3939.00,0.0014
3938.00,0.0014
3937.00,0.0014
3936.00,0.0014
3935.00,0.0014
3934.00,0.0014
3933.00,0.0014
3932.00,0.0013
3931.00,0.0013
3930.00,0.0013
3929.00,0.0013
3928.00,0.0013
3927.00,0.0013
3926.00,0.0013
3925.00,0.0013
3924.00,0.0013
3923.00,0.0013
3922.00,0.0013
3921.00,0.0013
3920.00,0.0013
3919.00,0.0013
3918.00,0.0013
3917.00,0.0013
3916.00,0.0013
3915.00,0.0013
3914.00,0.0013
3913.00,0.0013
3912.00,0.0013
3911.00,0.0013
3910.00,0.0013
3909.00,0.0013
3908.00,0.0013
3907.00,0.0013
3906.00,0.0013
3905.00,0.0012
3904.00,0.0012
3903.00,0.0012
3902.00,0.0012
3901.00,0.0012
3900.00,0.0012
3899.00,0.0012
3898.00,0.0012
3897.00,0.0012
3896.00,0.0012
3895.00,0.0012
3894.00,0.0012
3893.00,0.0012
3892.00,0.0012
3891.00,0.0012
3890.00,0.0012
3889.00,0.0012
3888.00,0.0012
3887.00,0.0012
3886.00,0.0012
3885.00,0.0012
3884.00,0.0012
3883.00,0.0011
3882.00,0.0012
3881.00,0.0012
3880.00,0.0012
3879.00,0.0012
3878.00,0.0011
3877.00,0.0011
3876.00,0.0011
3875.00,0.0011
3874.00,0.0011
3873.00,0.0011
3872.00,0.0011
3871.00,0.0011
3870.00,0.0011
3869.00,0.0011
3868.00,0.0011
3867.00,0.0011
3866.00,0.0010
3865.00,0.0010
3864.00,0.0010
3863.00,0.0011
3862.00,0.0011
3861.00,0.0011
3860.00,0.0011
3859.00,0.0011
3858.00,0.0011
3857.00,0.0011
3856.00,0.0011
3855.00,0.0011
3854.00,0.0011
3853.00,0.0010
3852.00,0.0010
3851.00,0.0010
3850.00,0.0010
3849.00,0.0010
3848.00,0.0011
3847.00,0.0011
3846.00,0.0011
3845.00,0.0011
3844.00,0.0011
3843.00,0.0011
3842.00,0.0010
3841.00,0.0010
3840.00,0.0009
3839.00,0.0009
3838.00,0.0009
3837.00,0.0009
3836.00,0.0009
3835.00,0.0009
3834.00,0.0009
3833.00,0.0010
3832.00,0.0010
3831.00,0.0010
3830.00,0.0010
3829.00,0.0010
3828.00,0.0010
3827.00,0.0010
3826.00,0.0010
3825.00,0.0010
3824.00,0.0010
3823.00,0.0009
3822.00,0.0009
3821.00,0.0009
3820.00,0.0009
3819.00,0.0009
3818.00,0.0009
3817.00,0.0009
3816.00,0.0009
3815.00,0.0009
3814.00,0.0009
3813.00,0.0010
3812.00,0.0010
3811.00,0.0010
3810.00,0.0009
3809.00,0.0009
3808.00,0.0009
3807.00,0.0009
3806.00,0.0008
3805.00,0.0008
3804.00,0.0008
3803.00,0.0008
3802.00,0.0008
3801.00,0.0008
3800.00,0.0008
3799.00,0.0008
3798.00,0.0008
3797.00,0.0009
3796.00,0.0009
3795.00,0.0009
3794.00,0.0009
3793.00,0.0009
3792.00,0.0009
3791.00,0.0009
3790.00,0.0009
3789.00,0.0009
3788.00,0.0009
3787.00,0.0009
3786.00,0.0009
3785.00,0.0009
3784.00,0.0009
3783.00,0.0009
3782.00,0.0009
3781.00,0.0009
3780.00,0.0008
3779.00,0.0008
3778.00,0.0009
3777.00,0.0009
3776.00,0.0009
3775.00,0.0009
3774.00,0.0009
3773.00,0.0009
3772.00,0.0009
3771.00,0.0009
3770.00,0.0008
3769.00,0.0008
3768.00,0.0008
3767.00,0.0008
3766.00,0.0007
3765.00,0.0007
3764.00,0.0008
3763.00,0.0008
3762.00,0.0008
3761.00,0.0008
3760.00,0.0008
3759.00,0.0008
3758.00,0.0008
3757.00,0.0007
3756.00,0.0007
3755.00,0.0007
3754.00,0.0007
3753.00,0.0007
3752.00,0.0007
3751.00,0.0007
3750.00,0.0007
3749.00,0.0007
3748.00,0.0007
3747.00,0.0007
3746.00,0.0007
3745.00,0.0007
3744.00,0.0007
3743.00,0.0007
3742.00,0.0007
3741.00,0.0007
3740.00,0.0007
3739.00,0.0007
3738.00,0.0007
3737.00,0.0007
3736.00,0.0007
3735.00,0.0007
3734.00,0.0007
3733.00,0.0007
3732.00,0.0007
3731.00,0.0007
3730.00,0.0007
3729.00,0.0007
3728.00,0.0007
3727.00,0.0007
3726.00,0.0007
3725.00,0.0007
3724.00,0.0007
3723.00,0.0007
3722.00,0.0007
3721.00,0.0008
3720.00,0.0008
3719.00,0.0007
3718.00,0.0007
3717.00,0.0007
3716.00,0.0007
3715.00,0.0007
3714.00,0.0007
3713.00,0.0007
3712.00,0.0007
3711.00,0.0007
3710.00,0.0008
3709.00,0.0008
3708.00,0.0008
3707.00,0.0008
3706.00,0.0009
3705.00,0.0009
3704.00,0.0009
3703.00,0.0009
3702.00,0.0009
3701.00,0.0009
3700.00,0.0009
3699.00,0.0009
3698.00,0.0009
3697.00,0.0010
3696.00,0.0010
3695.00,0.0010
3694.00,0.0010
3693.00,0.0011
3692.00,0.0011
3691.00,0.0011
3690.00,0.0011
3689.00,0.0011
3688.00,0.0011
3687.00,0.0011
3686.00,0.0011
3685.00,0.0011
3684.00,0.0012
3683.00,0.0012
3682.00,0.0012
3681.00,0.0012
3680.00,0.0012
3679.00,0.0011
3678.00,0.0011
3677.00,0.0011
3676.00,0.0011
3675.00,0.0011
3674.00,0.0011
3673.00,0.0012
3672.00,0.0012
3671.00,0.0012
3670.00,0.0013
3669.00,0.0013
3668.00,0.0013
3667.00,0.0013
3666.00,0.0013
3665.00,0.0014
3664.00,0.0014
3663.00,0.0014
3662.00,0.0014
3661.00,0.0014
3660.00,0.0014
3659.00,0.0015
3658.00,0.0015
3657.00,0.0015
3656.00,0.0016
3655.00,0.0016
3654.00,0.0016
3653.00,0.0016
3652.00,0.0016
3651.00,0.0016
3650.00,0.0016
3649.00,0.0016
3648.00,0.0017
3647.00,0.0017
3646.00,0.0018
3645.00,0.0018
3644.00,0.0019
3643.00,0.0020
3642.00,0.0020
3641.00,0.0021
3640.00,0.0021
3639.00,0.0022
3638.00,0.0022
3637.00,0.0023
3636.00,0.0023
3635.00,0.0024
3634.00,0.0024
3633.00,0.0025
3632.00,0.0026
3631.00,0.0027
3630.00,0.0028
3629.00,0.0029
3628.00,0.0031
3627.00,0.0032
3626.00,0.0033
3625.00,0.0035
3624.00,0.0036
3623.00,0.0038
3622.00,0.0039
3621.00,0.0040
3620.00,0.0041
3619.00,0.0043
3618.00,0.0044
3617.00,0.0045
3616.00,0.0046
3615.00,0.0047
3614.00,0.0047
3613.00,0.0048
3612.00,0.0048
3611.00,0.0049
3610.00,0.0050
3609.00,0.0051
3608.00,0.0051
3607.00,0.0051
3606.00,0.0051
3605.00,0.0052
3604.00,0.0052
3603.00,0.0053
3602.00,0.0054
3601.00,0.0055
3600.00,0.0056
3599.00,0.0057
3598.00,0.0058
3597.00,0.0059
3596.00,0.0060
3595.00,0.0061
3594.00,0.0063
3593.00,0.0064
3592.00,0.0065
3591.00,0.0066
3590.00,0.0067
3589.00,0.0069
3588.00,0.0071
3587.00,0.0073
3586.00,0.0074
3585.00,0.0076
3584.00,0.0077
3583.00,0.0079
3582.00,0.0080
3581.00,0.0082
3580.00,0.0084
3579.00,0.0086
3578.00,0.0087
3577.00,0.0089
3576.00,0.0091
3575.00,0.0093
3574.00,0.0094
3573.00,0.0096
3572.00,0.0098
3571.00,0.0100
3570.00,0.0102
3569.00,0.0104
3568.00,0.0107
3567.00,0.0110
3566.00,0.0113
3565.00,0.0115
3564.00,0.0118
3563.00,0.0120
3562.00,0.0123
3561.00,0.0125
3560.00,0.0128
3559.00,0.0130
3558.00,0.0132
3557.00,0.0135
3556.00,0.0137
3555.00,0.0140
3554.00,0.0143
3553.00,0.0146
3552.00,0.0149
3551.00,0.0152
3550.00,0.0155
3549.00,0.0157
3548.00,0.0160
3547.00,0.0163
3546.00,0.0167
3545.00,0.0170
3544.00,0.0174
3543.00,0.0177
3542.00,0.0180
3541.00,0.0183
3540.00,0.0186
3539.00,0.0189
3538.00,0.0193
3537.00,0.0197
3536.00,0.0201
3535.00,0.0204
3534.00,0.0208
3533.00,0.0211
3532.00,0.0214
3531.00,0.0217
3530.00,0.0221
3529.00,0.0225
3528.00,0.0229
3527.00,0.0234
3526.00,0.0238
3525.00,0.0243
3524.00,0.0247
3523.00,0.0251
3522.00,0.0255
3521.00,0.0259
3520.00,0.0262
3519.00,0.0264
3518.00,0.0267
3517.00,0.0270
3516.00,0.0273
3515.00,0.0276
3514.00,0.0278
3513.00,0.0281
3512.00,0.0284
3511.00,0.0287
3510.00,0.0290
3509.00,0.0294
3508.00,0.0297
3507.00,0.0301
3506.00,0.0304
3505.00,0.0308
3504.00,0.0312
3503.00,0.0317
3502.00,0.0321
3501.00,0.0326
3500.00,0.0330
3499.00,0.0335
3498.00,0.0340
3497.00,0.0345
3496.00,0.0350
3495.00,0.0355
3494.00,0.0361
3493.00,0.0366
3492.00,0.0372
3491.00,0.0377
3490.00,0.0383
3489.00,0.0389
3488.00,0.0395
3487.00,0.0401
3486.00,0.0407
3485.00,0.0413
3484.00,0.0419
3483.00,0.0426
3482.00,0.0433
3481.00,0.0440
3480.00,0.0447
3479.00,0.0454
3478.00,0.0461
3477.00,0.0468
3476.00,0.0475
3475.00,0.0482
3474.00,0.0489
3473.00,0.0497
3472.00,0.0504
3471.00,0.0512
3470.00,0.0519
3469.00,0.0527
3468.00,0.0534
3467.00,0.0541
3466.00,0.0548
3465.00,0.0555
3464.00,0.0562
3463.00,0.0569
3462.00,0.0576
3461.00,0.0583
3460.00,0.0589
3459.00,0.0595
3458.00,0.0602
3457.00,0.0607
3456.00,0.0613
3455.00,0.0618
3454.00,0.0623
3453.00,0.0628
3452.00,0.0633
3451.00,0.0637
3450.00,0.0641
3449.00,0.0645
3448.00,0.0649
3447.00,0.0653
3446.00,0.0656
3445.00,0.0660
3444.00,0.0662
3443.00,0.0665
3442.00,0.0667
3441.00,0.0670
3440.00,0.0673
3439.00,0.0675
3438.00,0.0677
3437.00,0.0679
3436.00,0.0680
3435.00,0.0681
3434.00,0.0682
3433.00,0.0682
3432.00,0.0683
3431.00,0.0684
3430.00,0.0685
3429.00,0.0685
3428.00,0.0685
3427.00,0.0685
3426.00,0.0685
3425.00,0.0686
3424.00,0.0686
3423.00,0.0686
3422.00,0.0686
3421.00,0.0686
3420.00,0.0686
3419.00,0.0685
3418.00,0.0685
3417.00,0.0685
3416.00,0.0684
3415.00,0.0684
3414.00,0.0683
3413.00,0.0683
3412.00,0.0682
3411.00,0.0681
3410.00,0.0680
3409.00,0.0678
3408.00,0.0676
3407.00,0.0675
3406.00,0.0673
3405.00,0.0671
3404.00,0.0670
3403.00,0.0669
3402.00,0.0667
3401.00,0.0665
3400.00,0.0663
3399.00,0.0660
3398.00,0.0657
3397.00,0.0655
3396.00,0.0652
3395.00,0.0650
3394.00,0.0648
3393.00,0.0646
3392.00,0.0643
3391.00,0.0641
3390.00,0.0638
3389.00,0.0634
3388.00,0.0631
3387.00,0.0628
3386.00,0.0625
3385.00,0.0623
3384.00,0.0620
3383.00,0.0617
3382.00,0.0615
3381.00,0.0612
3380.00,0.0609
3379.00,0.0606
3378.00,0.0603
3377.00,0.0600
3376.00,0.0597
3375.00,0.0594
3374.00,0.0592
3373.00,0.0589
3372.00,0.0586
3371.00,0.0583
3370.00,0.0580
3369.00,0.0577
3368.00,0.0574
3367.00,0.0570
3366.00,0.0566
3365.00,0.0562
3364.00,0.0559
3363.00,0.0555
3362.00,0.0551
3361.00,0.0548
3360.00,0.0544
3359.00,0.0540
3358.00,0.0536
3357.00,0.0532
3356.00,0.0529
3355.00,0.0525
3354.00,0.0521
3353.00,0.0518
3352.00,0.0514
3351.00,0.0510
3350.00,0.0506
3349.00,0.0502
3348.00,0.0497
3347.00,0.0493
3346.00,0.0489
3345.00,0.0485
3344.00,0.0482
3343.00,0.0478
3342.00,0.0474
3341.00,0.0470
3340.00,0.0466
3339.00,0.0461
3338.00,0.0457
3337.00,0.0453
3336.00,0.0448
3335.00,0.0444
3334.00,0.0440
3333.00,0.0436
3332.00,0.0431
3331.00,0.0427
3330.00,0.0423
3329.00,0.0419
3328.00,0.0415
3327.00,0.0411
3326.00,0.0407
3325.00,0.0403
3324.00,0.0400
3323.00,0.0396
3322.00,0.0392
3321.00,0.0389
3320.00,0.0385
3319.00,0.0381
3318.00,0.0377
3317.00,0.0373
3316.00,0.0369
3315.00,0.0365
3314.00,0.0362
3313.00,0.0358
3312.00,0.0354
3311.00,0.0351
3310.00,0.0348
3309.00,0.0344
3308.00,0.0341
3307.00,0.0337
3306.00,0.0333
3305.00,0.0330
3304.00,0.0326
3303.00,0.0323
3302.00,0.0320
3301.00,0.0317
3300.00,0.0314
3299.00,0.0311
3298.00,0.0307
3297.00,0.0304
3296.00,0.0301
3295.00,0.0298
3294.00,0.0294
3293.00,0.0291
3292.00,0.0289
3291.00,0.0286
3290.00,0.0283
3289.00,0.0280
3288.00,0.0278
3287.00,0.0275
3286.00,0.0272
3285.00,0.0270
3284.00,0.0267
3283.00,0.0265
3282.00,0.0262
3281.00,0.0260
3280.00,0.0257
3279.00,0.0254
3278.00,0.0252
3277.00,0.0249
3276.00,0.0246
3275.00,0.0244
3274.00,0.0241
3273.00,0.0238
3272.00,0.0236
3271.00,0.0233
3270.00,0.0232
3269.00,0.0231
3268.00,0.0229
3267.00,0.0228
3266.00,0.0227
3265.00,0.0225
3264.00,0.0223
3263.00,0.0222
3262.00,0.0220
3261.00,0.0218
3260.00,0.0216
3259.00,0.0214
3258.00,0.0212
3257.00,0.0209
3256.00,0.0207
3255.00,0.0206
3254.00,0.0204
3253.00,0.0202
3252.00,0.0200
3251.00,0.0198
3250.00,0.0195
3249.00,0.0193
3248.00,0.0190
3247.00,0.0188
3246.00,0.0186
3245.00,0.0185
3244.00,0.0184
3243.00,0.0182
3242.00,0.0180
3241.00,0.0178
3240.00,0.0176
3239.00,0.0174
3238.00,0.0172
3237.00,0.0171
3236.00,0.0169
3235.00,0.0167
3234.00,0.0165
3233.00,0.0164
3232.00,0.0162
3231.00,0.0161
3230.00,0.0160
3229.00,0.0159
3228.00,0.0158
3227.00,0.0157
3226.00,0.0156
3225.00,0.0155
3224.00,0.0153
3223.00,0.0152
3222.00,0.0151
3221.00,0.0150
3220.00,0.0149
3219.00,0.0149
3218.00,0.0148
3217.00,0.0147
3216.00,0.0146
3215.00,0.0145
3214.00,0.0144
3213.00,0.0143
3212.00,0.0143
3211.00,0.0142
3210.00,0.0140
3209.00,0.0139
3208.00,0.0138
3207.00,0.0137
3206.00,0.0136
3205.00,0.0135
3204.00,0.0134
3203.00,0.0132
3202.00,0.0131
3201.00,0.0130
3200.00,0.0129
3199.00,0.0128
3198.00,0.0127
3197.00,0.0126
3196.00,0.0125
3195.00,0.0124
3194.00,0.0123
3193.00,0.0122
3192.00,0.0121
3191.00,0.0120
3190.00,0.0120
3189.00,0.0119
3188.00,0.0118
3187.00,0.0118
3186.00,0.0117
3185.00,0.0116
3184.00,0.0116
3183.00,0.0115
3182.00,0.0114
3181.00,0.0114
3180.00,0.0114
3179.00,0.0113
3178.00,0.0113
3177.00,0.0112
3176.00,0.0112
3175.00,0.0111
3174.00,0.0111
3173.00,0.0111
3172.00,0.0110
3171.00,0.0110
3170.00,0.0109
3169.00,0.0109
3168.00,0.0108
3167.00,0.0107
3166.00,0.0107
3165.00,0.0106
3164.00,0.0105
3163.00,0.0104
3162.00,0.0103
3161.00,0.0102
3160.00,0.0102
3159.00,0.0101
3158.00,0.0100
3157.00,0.0099
3156.00,0.0097
3155.00,0.0096
3154.00,0.0094
3153.00,0.0093
3152.00,0.0093
3151.00,0.0093
3150.00,0.0094
3149.00,0.0094
3148.00,0.0094
3147.00,0.0093
3146.00,0.0092
3145.00,0.0092
3144.00,0.0091
3143.00,0.0090
3142.00,0.0089
3141.00,0.0088
3140.00,0.0087
3139.00,0.0086
3138.00,0.0086
3137.00,0.0086
3136.00,0.0086
3135.00,0.0085
3134.00,0.0085
3133.00,0.0084
3132.00,0.0083
3131.00,0.0082
3130.00,0.0082
3129.00,0.0081
3128.00,0.0081
3127.00,0.0081
3126.00,0.0081
3125.00,0.0080
3124.00,0.0080
3123.00,0.0079
3122.00,0.0078
3121.00,0.0078
3120.00,0.0077
3119.00,0.0077
3118.00,0.0077
3117.00,0.0077
3116.00,0.0077
3115.00,0.0077
3114.00,0.0077
3113.00,0.0077
3112.00,0.0077
3111.00,0.0077
3110.00,0.0077
3109.00,0.0077
3108.00,0.0077
3107.00,0.0078
3106.00,0.0078
3105.00,0.0078
3104.00,0.0079
3103.00,0.0079
3102.00,0.0079
3101.00,0.0079
3100.00,0.0080
3099.00,0.0080
3098.00,0.0081
3097.00,0.0082
3096.00,0.0083
3095.00,0.0084
3094.00,0.0085
3093.00,0.0087
3092.00,0.0088
3091.00,0.0090
3090.00,0.0092
3089.00,0.0095
3088.00,0.0098
3087.00,0.0101
3086.00,0.0105
3085.00,0.0109
3084.00,0.0113
3083.00,0.0117
3082.00,0.0122
3081.00,0.0127
3080.00,0.0132
3079.00,0.0138
3078.00,0.0143
3077.00,0.0148
3076.00,0.0152
3075.00,0.0156
3074.00,0.0158
3073.00,0.0159
3072.00,0.0159
3071.00,0.0157
3070.00,0.0154
3069.00,0.0149
3068.00,0.0143
3067.00,0.0137
3066.00,0.0130
3065.00,0.0123
3064.00,0.0117
3063.00,0.0111
3062.00,0.0106
3061.00,0.0102
3060.00,0.0099
3059.00,0.0096
3058.00,0.0094
3057.00,0.0093
3056.00,0.0092
3055.00,0.0091
3054.00,0.0091
3053.00,0.0091
3052.00,0.0091
3051.00,0.0091
3050.00,0.0092
3049.00,0.0093
3048.00,0.0094
3047.00,0.0096
3046.00,0.0097
3045.00,0.0099
3044.00,0.0101
3043.00,0.0103
3042.00,0.0105
3041.00,0.0108
3040.00,0.0110
3039.00,0.0113
3038.00,0.0115
3037.00,0.0116
3036.00,0.0117
3035.00,0.0118
3034.00,0.0119
3033.00,0.0119
3032.00,0.0118
3031.00,0.0117
3030.00,0.0116
3029.00,0.0115
3028.00,0.0114
3027.00,0.0112
3026.00,0.0111
3025.00,0.0109
3024.00,0.0108
3023.00,0.0107
3022.00,0.0106
3021.00,0.0106
3020.00,0.0105
3019.00,0.0105
3018.00,0.0105
3017.00,0.0105
3016.00,0.0106
3015.00,0.0106
3014.00,0.0107
3013.00,0.0108
3012.00,0.0109
3011.00,0.0111
3010.00,0.0113
3009.00,0.0115
3008.00,0.0117
3007.00,0.0119
3006.00,0.0122
3005.00,0.0124
3004.00,0.0127
3003.00,0.0129
3002.00,0.0132
3001.00,0.0135
3000.00,0.0138
2999.00,0.0141
2998.00,0.0145
2997.00,0.0148
2996.00,0.0152
2995.00,0.0156
2994.00,0.0160
2993.00,0.0164
2992.00,0.0168
2991.00,0.0173
2990.00,0.0177
2989.00,0.0181
2988.00,0.0186
2987.00,0.0190
2986.00,0.0195
2985.00,0.0201
2984.00,0.0207
2983.00,0.0214
2982.00,0.0223
2981.00,0.0234
2980.00,0.0248
2979.00,0.0263
2978.00,0.0279
2977.00,0.0297
2976.00,0.0317
2975.00,0.0338
2974.00,0.0360
2973.00,0.0384
2972.00,0.0410
2971.00,0.0439
2970.00,0.0469
2969.00,0.0501
2968.00,0.0532
2967.00,0.0563
2966.00,0.0592
2965.00,0.0618
2964.00,0.0641
2963.00,0.0661
2962.00,0.0677
2961.00,0.0690
2960.00,0.0701
2959.00,0.0708
2958.00,0.0713
2957.00,0.0715
2956.00,0.0713
2955.00,0.0708
2954.00,0.0700
2953.00,0.0689
2952.00,0.0676
2951.00,0.0663
2950.00,0.0651
2949.00,0.0644
2948.00,0.0641
2947.00,0.0645
2946.00,0.0655
2945.00,0.0671
2944.00,0.0694
2943.00,0.0722
2942.00,0.0755
2941.00,0.0793
2940.00,0.0835
2939.00,0.0880
2938.00,0.0928
2937.00,0.0978
2936.00,0.1029
2935.00,0.1080
2934.00,0.1130
2933.00,0.1176
2932.00,0.1218
2931.00,0.1255
2930.00,0.1286
2929.00,0.1310
2928.00,0.1327
2927.00,0.1337
2926.00,0.1339
2925.00,0.1335
2924.00,0.1324
2923.00,0.1307
2922.00,0.1283
2921.00,0.1255
2920.00,0.1224
2919.00,0.1191
2918.00,0.1158
2917.00,0.1125
2916.00,0.1093
2915.00,0.1062
2914.00,0.1033
2913.00,0.1003
2912.00,0.0974
2911.00,0.0946
2910.00,0.0917
2909.00,0.0889
2908.00,0.0862
2907.00,0.0835
2906.00,0.0810
2905.00,0.0786
2904.00,0.0763
2903.00,0.0741
2902.00,0.0720
2901.00,0.0699
2900.00,0.0679
2899.00,0.0659
2898.00,0.0640
2897.00,0.0622
2896.00,0.0605
2895.00,0.0590
2894.00,0.0576
2893.00,0.0563
2892.00,0.0551
2891.00,0.0540
2890.00,0.0530
2889.00,0.0522
2888.00,0.0514
2887.00,0.0507
2886.00,0.0501
2885.00,0.0495
2884.00,0.0491
2883.00,0.0487
2882.00,0.0486
2881.00,0.0487
2880.00,0.0491
2879.00,0.0498
2878.00,0.0508
2877.00,0.0521
2876.00,0.0535
2875.00,0.0550
2874.00,0.0565
2873.00,0.0577
2872.00,0.0584
2871.00,0.0586
2870.00,0.0583
2869.00,0.0577
2868.00,0.0573
2867.00,0.0572
2866.00,0.0578
2865.00,0.0591
2864.00,0.0612
2863.00,0.0638
2862.00,0.0669
2861.00,0.0702
2860.00,0.0732
2859.00,0.0757
2858.00,0.0774
2857.00,0.0780
2856.00,0.0774
2855.00,0.0757
2854.00,0.0732
2853.00,0.0700
2852.00,0.0664
2851.00,0.0626
2850.00,0.0587
2849.00,0.0548
2848.00,0.0511
2847.00,0.0474
2846.00,0.0441
2845.00,0.0410
2844.00,0.0384
2843.00,0.0362
2842.00,0.0345
2841.00,0.0333
2840.00,0.0325
2839.00,0.0322
2838.00,0.0323
2837.00,0.0326
2836.00,0.0330
2835.00,0.0333
2834.00,0.0335
2833.00,0.0334
2832.00,0.0329
2831.00,0.0319
2830.00,0.0305
2829.00,0.0288
2828.00,0.0269
2827.00,0.0248
2826.00,0.0229
2825.00,0.0210
2824.00,0.0193
2823.00,0.0179
2822.00,0.0167
2821.00,0.0156
2820.00,0.0147
2819.00,0.0140
2818.00,0.0134
2817.00,0.0128
2816.00,0.0123
2815.00,0.0119
2814.00,0.0115
2813.00,0.0112
2812.00,0.0109
2811.00,0.0106
2810.00,0.0104
2809.00,0.0101
2808.00,0.0099
2807.00,0.0097
2806.00,0.0095
2805.00,0.0093
2804.00,0.0091
2803.00,0.0089
2802.00,0.0087
2801.00,0.0085
2800.00,0.0084
2799.00,0.0083
2798.00,0.0081
2797.00,0.0080
2796.00,0.0078
2795.00,0.0077
2794.00,0.0075
2793.00,0.0074
2792.00,0.0073
2791.00,0.0072
2790.00,0.0070
2789.00,0.0069
2788.00,0.0068
2787.00,0.0068
2786.00,0.0067
2785.00,0.0066
2784.00,0.0065
2783.00,0.0064
2782.00,0.0063
2781.00,0.0063
2780.00,0.0062
2779.00,0.0061
2778.00,0.0061
2777.00,0.0060
2776.00,0.0060
2775.00,0.0059
2774.00,0.0059
2773.00,0.0058
2772.00,0.0057
2771.00,0.0057
2770.00,0.0056
2769.00,0.0056
2768.00,0.0055
2767.00,0.0055
2766.00,0.0055
2765.00,0.0055
2764.00,0.0055
2763.00,0.0054
2762.00,0.0054
2761.00,0.0054
2760.00,0.0055
2759.00,0.0055
2758.00,0.0055
2757.00,0.0055
2756.00,0.0055
2755.00,0.0056
2754.00,0.0056
2753.00,0.0056
2752.00,0.0055
2751.00,0.0055
2750.00,0.0055
2749.00,0.0055
2748.00,0.0056
2747.00,0.0056
2746.00,0.0057
2745.00,0.0057
2744.00,0.0058
2743.00,0.0059
2742.00,0.0060
2741.00,0.0061
2740.00,0.0062
2739.00,0.0063
2738.00,0.0065
2737.00,0.0066
2736.00,0.0068
2735.00,0.0070
2734.00,0.0072
2733.00,0.0073
2732.00,0.0075
2731.00,0.0075
2730.00,0.0076
2729.00,0.0075
2728.00,0.0074
2727.00,0.0073
2726.00,0.0071
2725.00,0.0070
2724.00,0.0068
2723.00,0.0066
2722.00,0.0064
2721.00,0.0063
2720.00,0.0062
2719.00,0.0060
2718.00,0.0059
2717.00,0.0058
2716.00,0.0057
2715.00,0.0056
2714.00,0.0055
2713.00,0.0054
2712.00,0.0054
2711.00,0.0053
2710.00,0.0052
2709.00,0.0052
2708.00,0.0051
2707.00,0.0051
2706.00,0.0051
2705.00,0.0050
2704.00,0.0050
2703.00,0.0050
2702.00,0.0050
2701.00,0.0050
2700.00,0.0050
2699.00,0.0050
2698.00,0.0050
2697.00,0.0050
2696.00,0.0050
2695.00,0.0050
2694.00,0.0051
2693.00,0.0051
2692.00,0.0051
2691.00,0.0052
2690.00,0.0052
2689.00,0.0052
2688.00,0.0052
2687.00,0.0052
2686.00,0.0053
2685.00,0.0053
2684.00,0.0054
2683.00,0.0054
2682.00,0.0054
2681.00,0.0054
2680.00,0.0055
2679.00,0.0055
2678.00,0.0055
2677.00,0.0055
2676.00,0.0056
2675.00,0.0056
2674.00,0.0056
2673.00,0.0057
2672.00,0.0057
2671.00,0.0057
2670.00,0.0058
2669.00,0.0058
2668.00,0.0058
2667.00,0.0058
2666.00,0.0057
2665.00,0.0057
2664.00,0.0056
2663.00,0.0056
2662.00,0.0055
2661.00,0.0055
2660.00,0.0054
2659.00,0.0054
2658.00,0.0053
2657.00,0.0053
2656.00,0.0052
2655.00,0.0051
2654.00,0.0051
2653.00,0.0050
2652.00,0.0050
2651.00,0.0049
2650.00,0.0049
2649.00,0.0049
2648.00,0.0048
2647.00,0.0048
2646.00,0.0048
2645.00,0.0047
2644.00,0.0047
2643.00,0.0047
2642.00,0.0047
2641.00,0.0047
2640.00,0.0047
2639.00,0.0047
2638.00,0.0046
2637.00,0.0046
2636.00,0.0046
2635.00,0.0046
2634.00,0.0046
2633.00,0.0046
2632.00,0.0046
2631.00,0.0046
2630.00,0.0046
2629.00,0.0046
2628.00,0.0046
2627.00,0.0045
2626.00,0.0045
2625.00,0.0046
2624.00,0.0046
2623.00,0.0046
2622.00,0.0046
2621.00,0.0046
2620.00,0.0045
2619.00,0.0045
2618.00,0.0045
2617.00,0.0045
2616.00,0.0045
2615.00,0.0045
2614.00,0.0045
2613.00,0.0045
2612.00,0.0045
2611.00,0.0045
2610.00,0.0044
2609.00,0.0044
2608.00,0.0044
2607.00,0.0044
2606.00,0.0044
2605.00,0.0044
2604.00,0.0043
2603.00,0.0043
2602.00,0.0043
2601.00,0.0043
2600.00,0.0043
2599.00,0.0043
2598.00,0.0043
2597.00,0.0043
2596.00,0.0043
2595.00,0.0043
2594.00,0.0043
2593.00,0.0043
2592.00,0.0043
2591.00,0.0043
2590.00,0.0042
2589.00,0.0042
2588.00,0.0042
2587.00,0.0043
2586.00,0.0043
2585.00,0.0043
2584.00,0.0043
2583.00,0.0043
2582.00,0.0043
2581.00,0.0043
2580.00,0.0043
2579.00,0.0043
2578.00,0.0043
2577.00,0.0043
2576.00,0.0043
2575.00,0.0043
2574.00,0.0043
2573.00,0.0043
2572.00,0.0043
2571.00,0.0043
2570.00,0.0042
2569.00,0.0042
2568.00,0.0042
2567.00,0.0041
2566.00,0.0041
2565.00,0.0041
2564.00,0.0041
2563.00,0.0041
2562.00,0.0041
2561.00,0.0041
2560.00,0.0041
2559.00,0.0041
2558.00,0.0041
2557.00,0.0040
2556.00,0.0040
2555.00,0.0040
2554.00,0.0040
2553.00,0.0040
2552.00,0.0041
2551.00,0.0041
2550.00,0.0041
2549.00,0.0041
2548.00,0.0041
2547.00,0.0041
2546.00,0.0041
2545.00,0.0041
2544.00,0.0041
2543.00,0.0041
2542.00,0.0041
2541.00,0.0041
2540.00,0.0041
2539.00,0.0041
2538.00,0.0040
2537.00,0.0040
2536.00,0.0040
2535.00,0.0041
2534.00,0.0041
2533.00,0.0041
2532.00,0.0041
2531.00,0.0041
2530.00,0.0041
2529.00,0.0041
2528.00,0.0041
2527.00,0.0040
2526.00,0.0040
2525.00,0.0039
2524.00,0.0040
2523.00,0.0040
2522.00,0.0040
2521.00,0.0040
2520.00,0.0040
2519.00,0.0040
2518.00,0.0040
2517.00,0.0039
2516.00,0.0039
2515.00,0.0039
2514.00,0.0038
2513.00,0.0038
2512.00,0.0038
2511.00,0.0038
2510.00,0.0038
2509.00,0.0038
2508.00,0.0039
2507.00,0.0039
2506.00,0.0039
2505.00,0.0039
2504.00,0.0038
2503.00,0.0038
2502.00,0.0038
2501.00,0.0038
2500.00,0.0038
2499.00,0.0038
2498.00,0.0038
2497.00,0.0038
2496.00,0.0038
2495.00,0.0038
2494.00,0.0038
2493.00,0.0038
2492.00,0.0038
2491.00,0.0038
2490.00,0.0038
2489.00,0.0038
2488.00,0.0039
2487.00,0.0039
2486.00,0.0039
2485.00,0.0039
2484.00,0.0039
2483.00,0.0039
2482.00,0.0039
2481.00,0.0039
2480.00,0.0039
2479.00,0.0039
2478.00,0.0039
2477.00,0.0040
2476.00,0.0040
2475.00,0.0040
2474.00,0.0039
2473.00,0.0039
2472.00,0.0039
2471.00,0.0039
2470.00,0.0039
2469.00,0.0039
2468.00,0.0038
2467.00,0.0038
2466.00,0.0038
2465.00,0.0038
2464.00,0.0038
2463.00,0.0037
2462.00,0.0037
2461.00,0.0037
2460.00,0.0037
2459.00,0.0036
2458.00,0.0036
2457.00,0.0036
2456.00,0.0037
2455.00,0.0037
2454.00,0.0037
2453.00,0.0036
2452.00,0.0036
2451.00,0.0036
2450.00,0.0035
2449.00,0.0035
2448.00,0.0035
2447.00,0.0035
2446.00,0.0034
2445.00,0.0034
2444.00,0.0034
2443.00,0.0033
2442.00,0.0033
2441.00,0.0033
2440.00,0.0033
2439.00,0.0032
2438.00,0.0032
2437.00,0.0031
2436.00,0.0031
2435.00,0.0031
2434.00,0.0030
2433.00,0.0030
2432.00,0.0030
2431.00,0.0029
2430.00,0.0029
2429.00,0.0028
2428.00,0.0028
2427.00,0.0028
2426.00,0.0028
2425.00,0.0028
2424.00,0.0027
2423.00,0.0027
2422.00,0.0027
2421.00,0.0027
2420.00,0.0027
2419.00,0.0026
2418.00,0.0026
2417.00,0.0026
2416.00,0.0026
2415.00,0.0026
2414.00,0.0026
2413.00,0.0026
2412.00,0.0026
2411.00,0.0025
2410.00,0.0025
2409.00,0.0025
2408.00,0.0025
2407.00,0.0025
2406.00,0.0025
2405.00,0.0025
2404.00,0.0025
2403.00,0.0024
2402.00,0.0024
2401.00,0.0024
2400.00,0.0024
2399.00,0.0025
2398.00,0.0025
2397.00,0.0025
2396.00,0.0025
2395.00,0.0025
2394.00,0.0025
2393.00,0.0025
2392.00,0.0025
2391.00,0.0025
2390.00,0.0025
2389.00,0.0025
2388.00,0.0025
2387.00,0.0025
2386.00,0.0025
2385.00,0.0025
2384.00,0.0025
2383.00,0.0025
2382.00,0.0025
2381.00,0.0026
2380.00,0.0026
2379.00,0.0026
2378.00,0.0026
2377.00,0.0026
2376.00,0.0026
2375.00,0.0026
2374.00,0.0026
2373.00,0.0026
2372.00,0.0026
2371.00,0.0026
2370.00,0.0026
2369.00,0.0026
2368.00,0.0026
2367.00,0.0026
2366.00,0.0025
2365.00,0.0025
2364.00,0.0025
2363.00,0.0025
2362.00,0.0025
2361.00,0.0025
2360.00,0.0025
2359.00,0.0025
2358.00,0.0025
2357.00,0.0025
2356.00,0.0025
2355.00,0.0026
2354.00,0.0026
2353.00,0.0026
2352.00,0.0026
2351.00,0.0025
2350.00,0.0025
2349.00,0.0025
2348.00,0.0025
2347.00,0.0025
2346.00,0.0024
2345.00,0.0024
2344.00,0.0024
2343.00,0.0024
2342.00,0.0024
2341.00,0.0024
2340.00,0.0024
2339.00,0.0024
2338.00,0.0023
2337.00,0.0024
2336.00,0.0024
2335.00,0.0024
2334.00,0.0024
2333.00,0.0023
2332.00,0.0023
2331.00,0.0023
2330.00,0.0023
2329.00,0.0023
2328.00,0.0023
2327.00,0.0022
2326.00,0.0022
2325.00,0.0022
2324.00,0.0022
2323.00,0.0021
2322.00,0.0021
2321.00,0.0021
2320.00,0.0021
2319.00,0.0021
2318.00,0.0021
2317.00,0.0021
2316.00,0.0021
2315.00,0.0021
2314.00,0.0020
2313.00,0.0020
2312.00,0.0020
2311.00,0.0021
2310.00,0.0021
2309.00,0.0021
2308.00,0.0021
2307.00,0.0020
2306.00,0.0020
2305.00,0.0020
2304.00,0.0019
2303.00,0.0019
2302.00,0.0019
2301.00,0.0018
2300.00,0.0018
2299.00,0.0018
2298.00,0.0018
2297.00,0.0018
2296.00,0.0018
2295.00,0.0018
2294.00,0.0017
2293.00,0.0017
2292.00,0.0017
2291.00,0.0017
2290.00,0.0017
2289.00,0.0017
2288.00,0.0017
2287.00,0.0016
2286.00,0.0015
2285.00,0.0015
2284.00,0.0014
2283.00,0.0014
2282.00,0.0014
2281.00,0.0014
2280.00,0.0014
2279.00,0.0014
2278.00,0.0014
2277.00,0.0014
2276.00,0.0013
2275.00,0.0013
2274.00,0.0013
2273.00,0.0013
2272.00,0.0014
2271.00,0.0014
2270.00,0.0013
2269.00,0.0013
2268.00,0.0012
2267.00,0.0012
2266.00,0.0013
2265.00,0.0013
2264.00,0.0014
2263.00,0.0013
2262.00,0.0013
2261.00,0.0012
2260.00,0.0013
2259.00,0.0013
2258.00,0.0013
2257.00,0.0013
2256.00,0.0013
2255.00,0.0013
2254.00,0.0013
2253.00,0.0013
2252.00,0.0013
2251.00,0.0014
2250.00,0.0013
2249.00,0.0013
2248.00,0.0013
2247.00,0.0013
2246.00,0.0014
2245.00,0.0014
2244.00,0.0015
2243.00,0.0015
2242.00,0.0015
2241.00,0.0014
2240.00,0.0015
2239.00,0.0015
2238.00,0.0015
2237.00,0.0015
2236.00,0.0015
2235.00,0.0015
2234.00,0.0015
2233.00,0.0014
2232.00,0.0014
2231.00,0.0014
2230.00,0.0014
2229.00,0.0014
2228.00,0.0014
2227.00,0.0014
2226.00,0.0013
2225.00,0.0012
2224.00,0.0013
2223.00,0.0013
2222.00,0.0013
2221.00,0.0013
2220.00,0.0013
2219.00,0.0013
2218.00,0.0013
2217.00,0.0012
2216.00,0.0012
2215.00,0.0012
2214.00,0.0012
2213.00,0.0011
2212.00,0.0011
2211.00,0.0011
2210.00,0.0010
2209.00,0.0011
2208.00,0.0012
2207.00,0.0012
2206.00,0.0011
2205.00,0.0010
2204.00,0.0010
2203.00,0.0010
2202.00,0.0010
2201.00,0.0010
2200.00,0.0010
2199.00,0.0011
2198.00,0.0011
2197.00,0.0011
2196.00,0.0011
2195.00,0.0011
2194.00,0.0010
2193.00,0.0009
2192.00,0.0008
2191.00,0.0008
2190.00,0.0007
2189.00,0.0008
2188.00,0.0009
2187.00,0.0010
2186.00,0.0010
2185.00,0.0011
2184.00,0.0012
2183.00,0.0013
2182.00,0.0013
2181.00,0.0013
2180.00,0.0013
2179.00,0.0013
2178.00,0.0013
2177.00,0.0014
2176.00,0.0015
2175.00,0.0014
2174.00,0.0013
2173.00,0.0011
2172.00,0.0010
2171.00,0.0009
2170.00,0.0009
2169.00,0.0009
2168.00,0.0010
2167.00,0.0011
2166.00,0.0011
2165.00,0.0010
2164.00,0.0010
2163.00,0.0009
2162.00,0.0008
2161.00,0.0009
2160.00,0.0011
2159.00,0.0013
2158.00,0.0014
2157.00,0.0013
2156.00,0.0012
2155.00,0.0011
2154.00,0.0009
2153.00,0.0008
2152.00,0.0009
2151.00,0.0010
2150.00,0.0010
2149.00,0.0010
2148.00,0.0010
2147.00,0.0010
2146.00,0.0010
2145.00,0.0010
2144.00,0.0010
2143.00,0.0009
2142.00,0.0008
2141.00,0.0008
2140.00,0.0008
2139.00,0.0009
2138.00,0.0009
2137.00,0.0010
2136.00,0.0010
2135.00,0.0009
2134.00,0.0009
2133.00,0.0008
2132.00,0.0009
2131.00,0.0009
2130.00,0.0009
2129.00,0.0010
2128.00,0.0010
2127.00,0.0011
2126.00,0.0010
2125.00,0.0010
2124.00,0.0010
2123.00,0.0010
2122.00,0.0010
2121.00,0.0009
2120.00,0.0009
2119.00,0.0009
2118.00,0.0009
2117.00,0.0009
2116.00,0.0010
2115.00,0.0010
2114.00,0.0010
2113.00,0.0009
2112.00,0.0009
2111.00,0.0009
2110.00,0.0008
2109.00,0.0008
2108.00,0.0007
2107.00,0.0007
2106.00,0.0006
2105.00,0.0005
2104.00,0.0005
2103.00,0.0005
2102.00,0.0005
2101.00,0.0005
2100.00,0.0006
2099.00,0.0006
2098.00,0.0006
2097.00,0.0006
2096.00,0.0006
2095.00,0.0006
2094.00,0.0007
2093.00,0.0007
2092.00,0.0008
2091.00,0.0008
2090.00,0.0008
2089.00,0.0007
2088.00,0.0008
2087.00,0.0008
2086.00,0.0008
2085.00,0.0009
2084.00,0.0009
2083.00,0.0009
2082.00,0.0009
2081.00,0.0008
2080.00,0.0008
2079.00,0.0008
2078.00,0.0008
2077.00,0.0008
2076.00,0.0008
2075.00,0.0007
2074.00,0.0007
2073.00,0.0006
2072.00,0.0006
2071.00,0.0005
2070.00,0.0004
2069.00,0.0003
2068.00,0.0002
2067.00,0.0001
2066.00,0.0001
2065.00,0.0001
2064.00,0.0001
2063.00,0.0001
2062.00,-0.0000
2061.00,-0.0001
2060.00,-0.0002
2059.00,-0.0002
2058.00,-0.0004
2057.00,-0.0005
2056.00,-0.0005
2055.00,-0.0006
2054.00,-0.0007
2053.00,-0.0007
2052.00,-0.0008
2051.00,-0.0009
2050.00,-0.0011
2049.00,-0.0012
2048.00,-0.0013
2047.00,-0.0013
2046.00,-0.0014
2045.00,-0.0014
2044.00,-0.0014
2043.00,-0.0015
2042.00,-0.0017
2041.00,-0.0018
2040.00,-0.0018
2039.00,-0.0017
2038.00,-0.0017
2037.00,-0.0016
2036.00,-0.0015
2035.00,-0.0014
2034.00,-0.0014
2033.00,-0.0014
2032.00,-0.0014
2031.00,-0.0016
2030.00,-0.0017
2029.00,-0.0017
2028.00,-0.0016
2027.00,-0.0014
2026.00,-0.0014
2025.00,-0.0012
2024.00,-0.0010
2023.00,-0.0009
2022.00,-0.0009
2021.00,-0.0010
2020.00,-0.0010
2019.00,-0.0009
2018.00,-0.0009
2017.00,-0.0008
2016.00,-0.0008
2015.00,-0.0008
2014.00,-0.0009
2013.00,-0.0009
2012.00,-0.0008
2011.00,-0.0008
2010.00,-0.0009
2009.00,-0.0009
2008.00,-0.0008
2007.00,-0.0008
2006.00,-0.0007
2005.00,-0.0006
2004.00,-0.0005
2003.00,-0.0003
2002.00,-0.0003
2001.00,-0.0003
2000.00,-0.0003
1999.00,-0.0003
1998.00,-0.0003
1997.00,-0.0003
1996.00,-0.0003
1995.00,-0.0003
1994.00,-0.0004
1993.00,-0.0004
1992.00,-0.0003
1991.00,-0.0002
1990.00,-0.0001
1989.00,-0.0000
1988.00,0.0000
1987.00,0.0001
1986.00,-0.0000
1985.00,-0.0001
1984.00,-0.0001
1983.00,-0.0002
1982.00,-0.0004
1981.00,-0.0004
1980.00,-0.0004
1979.00,-0.0004
1978.00,-0.0003
1977.00,-0.0002
1976.00,-0.0001
1975.00,0.0000
1974.00,-0.0000
1973.00,-0.0001
1972.00,-0.0001
1971.00,-0.0002
1970.00,-0.0003
1969.00,-0.0003
1968.00,-0.0002
1967.00,-0.0002
1966.00,-0.0003
1965.00,-0.0003
1964.00,-0.0001
1963.00,-0.0001
1962.00,-0.0001
1961.00,-0.0000
1960.00,0.0001
1959.00,0.0001
1958.00,0.0001
1957.00,0.0002
1956.00,0.0003
1955.00,0.0003
1954.00,0.0003
1953.00,0.0003
1952.00,0.0004
1951.00,0.0004
1950.00,0.0004
1949.00,0.0003
1948.00,0.0004
1947.00,0.0005
1946.00,0.0006
1945.00,0.0007
1944.00,0.0007
1943.00,0.0007
1942.00,0.0007
1941.00,0.0007
1940.00,0.0007
1939.00,0.0007
1938.00,0.0007
1937.00,0.0007
1936.00,0.0007
1935.00,0.0007
1934.00,0.0007
1933.00,0.0007
1932.00,0.0007
1931.00,0.0007
1930.00,0.0007
1929.00,0.0008
1928.00,0.0008
1927.00,0.0009
1926.00,0.0008
1925.00,0.0009
1924.00,0.0010
1923.00,0.0010
1922.00,0.0011
1921.00,0.0011
1920.00,0.0012
1919.00,0.0012
1918.00,0.0012
1917.00,0.0013
1916.00,0.0013
1915.00,0.0013
1914.00,0.0012
1913.00,0.0012
1912.00,0.0011
1911.00,0.0011
1910.00,0.0011
1909.00,0.0011
1908.00,0.0012
1907.00,0.0013
1906.00,0.0013
1905.00,0.0013
1904.00,0.0013
1903.00,0.0013
1902.00,0.0013
1901.00,0.0014
1900.00,0.0015
1899.00,0.0015
1898.00,0.0015
1897.00,0.0015
1896.00,0.0015
1895.00,0.0015
1894.00,0.0015
1893.00,0.0015
1892.00,0.0016
1891.00,0.0016
1890.00,0.0016
1889.00,0.0015
1888.00,0.0015
1887.00,0.0016
1886.00,0.0016
1885.00,0.0016
1884.00,0.0017
1883.00,0.0017
1882.00,0.0017
1881.00,0.0017
1880.00,0.0017
1879.00,0.0017
1878.00,0.0016
1877.00,0.0016
1876.00,0.0017
1875.00,0.0017
1874.00,0.0017
1873.00,0.0017
1872.00,0.0018
1871.00,0.0018
1870.00,0.0018
1869.00,0.0018
1868.00,0.0018
1867.00,0.0018
1866.00,0.0017
1865.00,0.0017
1864.00,0.0017
1863.00,0.0017
1862.00,0.0017
1861.00,0.0017
1860.00,0.0018
1859.00,0.0018
1858.00,0.0018
1857.00,0.0017
1856.00,0.0017
1855.00,0.0018
1854.00,0.0018
1853.00,0.0018
1852.00,0.0018
1851.00,0.0019
1850.00,0.0019
1849.00,0.0019
1848.00,0.0019
1847.00,0.0020
1846.00,0.0020
1845.00,0.0021
1844.00,0.0021
1843.00,0.0021
1842.00,0.0021
1841.00,0.0020
1840.00,0.0020
1839.00,0.0020
1838.00,0.0020
1837.00,0.0021
1836.00,0.0022
1835.00,0.0022
1834.00,0.0022
1833.00,0.0022
1832.00,0.0023
1831.00,0.0024
1830.00,0.0024
1829.00,0.0024
1828.00,0.0024
1827.00,0.0024
1826.00,0.0024
1825.00,0.0024
1824.00,0.0024
1823.00,0.0024
1822.00,0.0024
1821.00,0.0023
1820.00,0.0024
1819.00,0.0024
1818.00,0.0024
1817.00,0.0025
1816.00,0.0026
1815.00,0.0026
1814.00,0.0027
1813.00,0.0027
1812.00,0.0027
1811.00,0.0028
1810.00,0.0028
1809.00,0.0029
1808.00,0.0029
1807.00,0.0030
1806.00,0.0030
1805.00,0.0031
1804.00,0.0031
1803.00,0.0032
1802.00,0.0033
1801.00,0.0034
1800.00,0.0034
1799.00,0.0034
1798.00,0.0034
1797.00,0.0035
1796.00,0.0036
1795.00,0.0036
1794.00,0.0037
1793.00,0.0037
1792.00,0.0038
1791.00,0.0038
1790.00,0.0038
1789.00,0.0039
1788.00,0.0039
1787.00,0.0039
1786.00,0.0040
1785.00,0.0040
1784.00,0.0040
1783.00,0.0041
1782.00,0.0041
1781.00,0.0041
1780.00,0.0041
1779.00,0.0041
1778.00,0.0040
1777.00,0.0040
1776.00,0.0040
1775.00,0.0040
1774.00,0.0039
1773.00,0.0039
1772.00,0.0038
1771.00,0.0038
1770.00,0.0038
1769.00,0.0037
1768.00,0.0037
1767.00,0.0036
1766.00,0.0036
1765.00,0.0036
1764.00,0.0036
1763.00,0.0035
1762.00,0.0035
1761.00,0.0034
1760.00,0.0034
1759.00,0.0034
1758.00,0.0034
1757.00,0.0033
1756.00,0.0033
1755.00,0.0033
1754.00,0.0033
1753.00,0.0033
1752.00,0.0033
1751.00,0.0033
1750.00,0.0033
1749.00,0.0033
1748.00,0.0034
1747.00,0.0034
1746.00,0.0034
1745.00,0.0034
1744.00,0.0034
1743.00,0.0034
1742.00,0.0034
1741.00,0.0034
1740.00,0.0034
1739.00,0.0035
1738.00,0.0035
1737.00,0.0035
1736.00,0.0036
1735.00,0.0036
1734.00,0.0036
1733.00,0.0037
1732.00,0.0037
1731.00,0.0038
1730.00,0.0038
1729.00,0.0038
1728.00,0.0038
1727.00,0.0039
1726.00,0.0039
1725.00,0.0039
1724.00,0.0040
1723.00,0.0040
1722.00,0.0040
1721.00,0.0041
1720.00,0.0042
1719.00,0.0043
1718.00,0.0044
1717.00,0.0044
1716.00,0.0045
1715.00,0.0046
1714.00,0.0046
1713.00,0.0046
1712.00,0.0047
1711.00,0.0047
1710.00,0.0047
1709.00,0.0048
1708.00,0.0049
1707.00,0.0050
1706.00,0.0051
1705.00,0.0052
1704.00,0.0054
1703.00,0.0055
1702.00,0.0055
1701.00,0.0055
1700.00,0.0056
1699.00,0.0057
1698.00,0.0057
1697.00,0.0057
1696.00,0.0058
1695.00,0.0058
1694.00,0.0057
1693.00,0.0057
1692.00,0.0058
1691.00,0.0058
1690.00,0.0059
1689.00,0.0059
1688.00,0.0061
1687.00,0.0062
1686.00,0.0062
1685.00,0.0063
1684.00,0.0065
1683.00,0.0067
1682.00,0.0067
1681.00,0.0068
1680.00,0.0070
1679.00,0.0072
1678.00,0.0073
1677.00,0.0076
1676.00,0.0079
1675.00,0.0084
1674.00,0.0087
1673.00,0.0091
1672.00,0.0095
1671.00,0.0100
1670.00,0.0105
1669.00,0.0111
1668.00,0.0117
1667.00,0.0121
1666.00,0.0125
1665.00,0.0128
1664.00,0.0133
1663.00,0.0138
1662.00,0.0142
1661.00,0.0145
1660.00,0.0148
1659.00,0.0151
1658.00,0.0154
1657.00,0.0158
1656.00,0.0163
1655.00,0.0171
1654.00,0.0187
1653.00,0.0215
1652.00,0.0244
1651.00,0.0267
1650.00,0.0287
1649.00,0.0315
1648.00,0.0360
1647.00,0.0420
1646.00,0.0481
1645.00,0.0525
1644.00,0.0550
1643.00,0.0562
1642.00,0.0566
1641.00,0.0570
1640.00,0.0580
1639.00,0.0597
1638.00,0.0627
1637.00,0.0684
1636.00,0.0783
1635.00,0.0907
1634.00,0.1015
1633.00,0.1100
1632.00,0.1171
1631.00,0.1231
1630.00,0.1275
1629.00,0.1294
1628.00,0.1285
1627.00,0.1251
1626.00,0.1196
1625.00,0.1124
1624.00,0.1036
1623.00,0.0940
1622.00,0.0849
1621.00,0.0773
1620.00,0.0709
1619.00,0.0648
1618.00,0.0585
1617.00,0.0519
1616.00,0.0459
1615.00,0.0412
1614.00,0.0379
1613.00,0.0352
1612.00,0.0328
1611.00,0.0306
1610.00,0.0289
1609.00,0.0277
1608.00,0.0268
1607.00,0.0261
1606.00,0.0258
1605.00,0.0258
1604.00,0.0261
1603.00,0.0266
1602.00,0.0275
1601.00,0.0288
1600.00,0.0306
1599.00,0.0327
1598.00,0.0355
1597.00,0.0390
1596.00,0.0432
1595.00,0.0483
1594.00,0.0543
1593.00,0.0613
1592.00,0.0694
1591.00,0.0788
1590.00,0.0893
1589.00,0.1005
1588.00,0.1120
1587.00,0.1230
1586.00,0.1324
1585.00,0.1395
1584.00,0.1439
1583.00,0.1451
1582.00,0.1429
1581.00,0.1381
1580.00,0.1319
1579.00,0.1250
1578.00,0.1170
1577.00,0.1078
1576.00,0.0982
1575.00,0.0896
1574.00,0.0829
1573.00,0.0772
1572.00,0.0717
1571.00,0.0656
1570.00,0.0588
1569.00,0.0522
1568.00,0.0467
1567.00,0.0425
1566.00,0.0387
1565.00,0.0351
1564.00,0.0321
1563.00,0.0297
1562.00,0.0280
1561.00,0.0265
1560.00,0.0247
1559.00,0.0227
1558.00,0.0211
1557.00,0.0201
1556.00,0.0193
1555.00,0.0186
1554.00,0.0179
1553.00,0.0173
1552.00,0.0168
1551.00,0.0163
1550.00,0.0159
1549.00,0.0156
1548.00,0.0153
1547.00,0.0151
1546.00,0.0149
1545.00,0.0148
1544.00,0.0148
1543.00,0.0147
1542.00,0.0147
1541.00,0.0148
1540.00,0.0149
1539.00,0.0150
1538.00,0.0150
1537.00,0.0151
1536.00,0.0152
1535.00,0.0154
1534.00,0.0158
1533.00,0.0164
1532.00,0.0170
1531.00,0.0174
1530.00,0.0180
1529.00,0.0187
1528.00,0.0197
1527.00,0.0208
1526.00,0.0223
1525.00,0.0238
1524.00,0.0254
1523.00,0.0271
1522.00,0.0294
1521.00,0.0321
1520.00,0.0343
1519.00,0.0357
1518.00,0.0367
1517.00,0.0376
1516.00,0.0381
1515.00,0.0380
1514.00,0.0375
1513.00,0.0366
1512.00,0.0353
1511.00,0.0339
1510.00,0.0325
1509.00,0.0310
1508.00,0.0292
1507.00,0.0269
1506.00,0.0246
1505.00,0.0230
1504.00,0.0218
1503.00,0.0209
1502.00,0.0201
1501.00,0.0194
1500.00,0.0188
1499.00,0.0183
1498.00,0.0178
1497.00,0.0174
1496.00,0.0169
1495.00,0.0165
1494.00,0.0161
1493.00,0.0159
1492.00,0.0157
1491.00,0.0155
1490.00,0.0153
1489.00,0.0152
1488.00,0.0152
1487.00,0.0151
1486.00,0.0150
1485.00,0.0150
1484.00,0.0152
1483.00,0.0153
1482.00,0.0156
1481.00,0.0160
1480.00,0.0165
1479.00,0.0170
1478.00,0.0176
1477.00,0.0184
1476.00,0.0195
1475.00,0.0208
1474.00,0.0226
1473.00,0.0258
1472.00,0.0302
1471.00,0.0349
1470.00,0.0394
1469.00,0.0436
1468.00,0.0473
1467.00,0.0502
1466.00,0.0525
1465.00,0.0548
1464.00,0.0572
1463.00,0.0597
1462.00,0.0624
1461.00,0.0654
1460.00,0.0689
1459.00,0.0733
1458.00,0.0794
1457.00,0.0879
1456.00,0.0963
1455.00,0.1030
1454.00,0.1091
1453.00,0.1163
1452.00,0.1249
1451.00,0.1342
1450.00,0.1440
1449.00,0.1547
1448.00,0.1657
1447.00,0.1755
1446.00,0.1835
1445.00,0.1896
1444.00,0.1940
1443.00,0.1966
1442.00,0.1976
1441.00,0.1975
1440.00,0.1960
1439.00,0.1931
1438.00,0.1889
1437.00,0.1834
1436.00,0.1767
1435.00,0.1697
1434.00,0.1631
1433.00,0.1566
1432.00,0.1497
1431.00,0.1421
1430.00,0.1338
1429.00,0.1250
1428.00,0.1155
1427.00,0.1059
1426.00,0.0961
1425.00,0.0860
1424.00,0.0759
1423.00,0.0671
1422.00,0.0600
1421.00,0.0540
1420.00,0.0482
1419.00,0.0428
1418.00,0.0385
1417.00,0.0353
1416.00,0.0328
1415.00,0.0309
1414.00,0.0293
1413.00,0.0279
1412.00,0.0267
1411.00,0.0258
1410.00,0.0251
1409.00,0.0245
1408.00,0.0240
1407.00,0.0236
1406.00,0.0235
1405.00,0.0233
1404.00,0.0231
1403.00,0.0231
1402.00,0.0231
1401.00,0.0232
1400.00,0.0232
1399.00,0.0233
1398.00,0.0235
1397.00,0.0235
1396.00,0.0236
1395.00,0.0237
1394.00,0.0239
1393.00,0.0241
1392.00,0.0242
1391.00,0.0246
1390.00,0.0252
1389.00,0.0259
1388.00,0.0270
1387.00,0.0285
1386.00,0.0307
1385.00,0.0333
1384.00,0.0369
1383.00,0.0419
1382.00,0.0484
1381.00,0.0559
1380.00,0.0638
1379.00,0.0712
1378.00,0.0769
1377.00,0.0800
1376.00,0.0801
1375.00,0.0775
1374.00,0.0728
1373.00,0.0674
1372.00,0.0625
1371.00,0.0587
1370.00,0.0558
1369.00,0.0537
1368.00,0.0521
1367.00,0.0509
1366.00,0.0499
1365.00,0.0491
1364.00,0.0485
1363.00,0.0481
1362.00,0.0481
1361.00,0.0482
1360.00,0.0484
1359.00,0.0488
1358.00,0.0495
1357.00,0.0502
1356.00,0.0512
1355.00,0.0524
1354.00,0.0537
1353.00,0.0549
1352.00,0.0561
1351.00,0.0571
1350.00,0.0580
1349.00,0.0588
1348.00,0.0593
1347.00,0.0598
1346.00,0.0601
1345.00,0.0603
1344.00,0.0603
1343.00,0.0602
1342.00,0.0601
1341.00,0.0600
1340.00,0.0599
1339.00,0.0599
1338.00,0.0602
1337.00,0.0605
1336.00,0.0610
1335.00,0.0615
1334.00,0.0621
1333.00,0.0625
1332.00,0.0627
1331.00,0.0626
1330.00,0.0623
1329.00,0.0617
1328.00,0.0611
1327.00,0.0605
1326.00,0.0602
1325.00,0.0603
1324.00,0.0607
1323.00,0.0615
1322.00,0.0628
1321.00,0.0645
1320.00,0.0665
1319.00,0.0689
1318.00,0.0715
1317.00,0.0742
1316.00,0.0766
1315.00,0.0788
1314.00,0.0805
1313.00,0.0817
1312.00,0.0824
1311.00,0.0825
1310.00,0.0822
1309.00,0.0816
1308.00,0.0809
1307.00,0.0802
1306.00,0.0796
1305.00,0.0789
1304.00,0.0782
1303.00,0.0775
1302.00,0.0768
1301.00,0.0759
1300.00,0.0751
1299.00,0.0742
1298.00,0.0732
1297.00,0.0722
1296.00,0.0712
1295.00,0.0702
1294.00,0.0694
1293.00,0.0687
1292.00,0.0682
1291.00,0.0680
1290.00,0.0680
1289.00,0.0682
1288.00,0.0686
1287.00,0.0693
1286.00,0.0701
1285.00,0.0710
1284.00,0.0719
1283.00,0.0727
1282.00,0.0732
1281.00,0.0734
1280.00,0.0733
1279.00,0.0728
1278.00,0.0720
1277.00,0.0709
1276.00,0.0694
1275.00,0.0678
1274.00,0.0659
1273.00,0.0638
1272.00,0.0615
1271.00,0.0592
1270.00,0.0567
1269.00,0.0542
1268.00,0.0518
1267.00,0.0495
1266.00,0.0474
1265.00,0.0456
1264.00,0.0440
1263.00,0.0429
1262.00,0.0421
1261.00,0.0415
1260.00,0.0413
1259.00,0.0415
1258.00,0.0421
1257.00,0.0431
1256.00,0.0446
1255.00,0.0467
1254.00,0.0492
1253.00,0.0522
1252.00,0.0554
1251.00,0.0588
1250.00,0.0622
1249.00,0.0657
1248.00,0.0692
1247.00,0.0730
1246.00,0.0772
1245.00,0.0819
1244.00,0.0871
1243.00,0.0927
1242.00,0.0983
1241.00,0.1037
1240.00,0.1084
1239.00,0.1123
1238.00,0.1150
1237.00,0.1163
1236.00,0.1161
1235.00,0.1147
1234.00,0.1122
1233.00,0.1091
1232.00,0.1060
1231.00,0.1037
1230.00,0.1027
1229.00,0.1034
1228.00,0.1058
1227.00,0.1093
1226.00,0.1135
1225.00,0.1178
1224.00,0.1218
1223.00,0.1255
1222.00,0.1289
1221.00,0.1321
1220.00,0.1352
1219.00,0.1381
1218.00,0.1409
1217.00,0.1431
1216.00,0.1445
1215.00,0.1449
1214.00,0.1440
1213.00,0.1419
1212.00,0.1386
1211.00,0.1347
1210.00,0.1304
1209.00,0.1262
1208.00,0.1226
1207.00,0.1197
1206.00,0.1177
1205.00,0.1162
1204.00,0.1148
1203.00,0.1132
1202.00,0.1108
1201.00,0.1076
1200.00,0.1034
1199.00,0.0985
1198.00,0.0932
1197.00,0.0877
1196.00,0.0825
1195.00,0.0777
1194.00,0.0735
1193.00,0.0700
1192.00,0.0670
1191.00,0.0647
1190.00,0.0629
1189.00,0.0617
1188.00,0.0609
1187.00,0.0606
1186.00,0.0607
1185.00,0.0613
1184.00,0.0623
1183.00,0.0637
1182.00,0.0657
1181.00,0.0682
1180.00,0.0712
1179.00,0.0750
1178.00,0.0792
1177.00,0.0837
1176.00,0.0879
1175.00,0.0913
1174.00,0.0933
1173.00,0.0934
1172.00,0.0915
1171.00,0.0881
1170.00,0.0836
1169.00,0.0787
1168.00,0.0738
1167.00,0.0692
1166.00,0.0651
1165.00,0.0614
1164.00,0.0582
1163.00,0.0556
1162.00,0.0536
1161.00,0.0521
1160.00,0.0512
1159.00,0.0511
1158.00,0.0520
1157.00,0.0540
1156.00,0.0573
1155.00,0.0620
1154.00,0.0684
1153.00,0.0759
1152.00,0.0838
1151.00,0.0906
1150.00,0.0943
1149.00,0.0934
1148.00,0.0877
1147.00,0.0786
1146.00,0.0681
1145.00,0.0582
1144.00,0.0499
1143.00,0.0436
1142.00,0.0391
1141.00,0.0361
1140.00,0.0341
1139.00,0.0331
1138.00,0.0328
1137.00,0.0329
1136.00,0.0332
1135.00,0.0334
1134.00,0.0334
1133.00,0.0329
1132.00,0.0320
1131.00,0.0308
1130.00,0.0294
1129.00,0.0280
1128.00,0.0266
1127.00,0.0254
1126.00,0.0244
1125.00,0.0235
1124.00,0.0227
1123.00,0.0222
1122.00,0.0218
1121.00,0.0215
1120.00,0.0215
1119.00,0.0216
1118.00,0.0219
1117.00,0.0224
1116.00,0.0230
1115.00,0.0238
1114.00,0.0248
1113.00,0.0258
1112.00,0.0267
1111.00,0.0275
1110.00,0.0282
1109.00,0.0287
1108.00,0.0292
1107.00,0.0298
1106.00,0.0304
1105.00,0.0312
1104.00,0.0319
1103.00,0.0328
1102.00,0.0338
1101.00,0.0349
1100.00,0.0358
1099.00,0.0367
1098.00,0.0374
1097.00,0.0377
1096.00,0.0375
1095.00,0.0367
1094.00,0.0356
1093.00,0.0340
1092.00,0.0322
1091.00,0.0306
1090.00,0.0293
1089.00,0.0283
1088.00,0.0278
1087.00,0.0278
1086.00,0.0281
1085.00,0.0287
1084.00,0.0293
1083.00,0.0301
1082.00,0.0308
1081.00,0.0312
1080.00,0.0314
1079.00,0.0313
1078.00,0.0309
1077.00,0.0304
1076.00,0.0296
1075.00,0.0288
1074.00,0.0281
1073.00,0.0275
1072.00,0.0269
1071.00,0.0265
1070.00,0.0263
1069.00,0.0262
1068.00,0.0262
1067.00,0.0264
1066.00,0.0268
1065.00,0.0274
1064.00,0.0282
1063.00,0.0294
1062.00,0.0311
1061.00,0.0336
1060.00,0.0370
1059.00,0.0417
1058.00,0.0482
1057.00,0.0566
1056.00,0.0670
1055.00,0.0789
1054.00,0.0909
1053.00,0.1009
1052.00,0.1065
1051.00,0.1063
1050.00,0.1006
1049.00,0.0912
1048.00,0.0803
1047.00,0.0702
1046.00,0.0622
1045.00,0.0564
1044.00,0.0529
1043.00,0.0513
1042.00,0.0512
1041.00,0.0521
1040.00,0.0540
1039.00,0.0569
1038.00,0.0611
1037.00,0.0667
1036.00,0.0738
1035.00,0.0827
1034.00,0.0934
1033.00,0.1058
1032.00,0.1195
1031.00,0.1344
1030.00,0.1499
1029.00,0.1652
1028.00,0.1795
1027.00,0.1916
1026.00,0.2003
1025.00,0.2049
1024.00,0.2051
1023.00,0.2020
1022.00,0.1973
1021.00,0.1929
1020.00,0.1895
1019.00,0.1871
1018.00,0.1846
1017.00,0.1807
1016.00,0.1746
1015.00,0.1664
1014.00,0.1570
1013.00,0.1477
1012.00,0.1392
1011.00,0.1321
1010.00,0.1267
1009.00,0.1226
1008.00,0.1190
1007.00,0.1154
1006.00,0.1112
1005.00,0.1063
1004.00,0.1008
1003.00,0.0953
1002.00,0.0903
1001.00,0.0860
1000.00,0.0823
999.00,0.0793
998.00,0.0765
997.00,0.0738
996.00,0.0712
995.00,0.0687
994.00,0.0664
993.00,0.0647
992.00,0.0635
991.00,0.0631
990.00,0.0636
989.00,0.0645
988.00,0.0655
987.00,0.0661
986.00,0.0659
985.00,0.0647
984.00,0.0624
983.00,0.0596
982.00,0.0565
981.00,0.0536
980.00,0.0511
979.00,0.0490
978.00,0.0476
977.00,0.0465
976.00,0.0455
975.00,0.0446
974.00,0.0438
973.00,0.0432
972.00,0.0427
971.00,0.0425
970.00,0.0428
969.00,0.0435
968.00,0.0447
967.00,0.0464
966.00,0.0486
965.00,0.0511
964.00,0.0539
963.00,0.0567
962.00,0.0592
961.00,0.0609
960.00,0.0613
959.00,0.0604
958.00,0.0581
957.00,0.0546
956.00,0.0502
955.00,0.0455
954.00,0.0408
953.00,0.0365
952.00,0.0328
951.00,0.0297
950.00,0.0274
949.00,0.0257
948.00,0.0243
947.00,0.0233
946.00,0.0226
945.00,0.0220
944.00,0.0214
943.00,0.0210
942.00,0.0208
941.00,0.0205
940.00,0.0203
939.00,0.0202
938.00,0.0203
937.00,0.0204
936.00,0.0205
935.00,0.0209
934.00,0.0214
933.00,0.0220
932.00,0.0226
931.00,0.0233
930.00,0.0240
929.00,0.0246
928.00,0.0250
927.00,0.0253
926.00,0.0256
925.00,0.0257
924.00,0.0257
923.00,0.0259
922.00,0.0262
921.00,0.0268
920.00,0.0275
919.00,0.0285
918.00,0.0297
917.00,0.0310
916.00,0.0323
915.00,0.0334
914.00,0.0345
913.00,0.0355
912.00,0.0367
911.00,0.0382
910.00,0.0404
909.00,0.0433
908.00,0.0471
907.00,0.0519
906.00,0.0575
905.00,0.0638
904.00,0.0702
903.00,0.0765
902.00,0.0820
901.00,0.0865
900.00,0.0902
899.00,0.0934
898.00,0.0966
897.00,0.1003
896.00,0.1044
895.00,0.1093
894.00,0.1148
893.00,0.1207
892.00,0.1268
891.00,0.1329
890.00,0.1385
889.00,0.1430
888.00,0.1458
887.00,0.1466
886.00,0.1450
885.00,0.1408
884.00,0.1343
883.00,0.1259
882.00,0.1162
881.00,0.1059
880.00,0.0959
879.00,0.0869
878.00,0.0794
877.00,0.0734
876.00,0.0689
875.00,0.0658
874.00,0.0639
873.00,0.0630
872.00,0.0630
871.00,0.0639
870.00,0.0658
869.00,0.0686
868.00,0.0722
867.00,0.0762
866.00,0.0804
865.00,0.0841
864.00,0.0866
863.00,0.0878
862.00,0.0876
861.00,0.0864
860.00,0.0844
859.00,0.0825
858.00,0.0811
857.00,0.0804
856.00,0.0802
855.00,0.0807
854.00,0.0815
853.00,0.0823
852.00,0.0830
851.00,0.0834
850.00,0.0837
849.00,0.0836
848.00,0.0833
847.00,0.0828
846.00,0.0822
845.00,0.0816
844.00,0.0810
843.00,0.0805
842.00,0.0803
841.00,0.0803
840.00,0.0806
839.00,0.0814
838.00,0.0827
837.00,0.0844
836.00,0.0865
835.00,0.0888
834.00,0.0914
833.00,0.0941
832.00,0.0963
831.00,0.0981
830.00,0.0990
829.00,0.0990
828.00,0.0978
827.00,0.0956
826.00,0.0927
825.00,0.0890
824.00,0.0848
823.00,0.0803
822.00,0.0759
821.00,0.0715
820.00,0.0674
819.00,0.0636
818.00,0.0603
817.00,0.0575
816.00,0.0553
815.00,0.0536
814.00,0.0524
813.00,0.0514
812.00,0.0505
811.00,0.0498
810.00,0.0493
809.00,0.0495
808.00,0.0508
807.00,0.0537
806.00,0.0581
805.00,0.0628
804.00,0.0662
803.00,0.0671
802.00,0.0651
801.00,0.0611
800.00,0.0564
799.00,0.0523
798.00,0.0497
797.00,0.0482
796.00,0.0474
795.00,0.0469
794.00,0.0461
793.00,0.0447
792.00,0.0428
791.00,0.0405
790.00,0.0383
789.00,0.0364
788.00,0.0347
787.00,0.0335
786.00,0.0327
785.00,0.0321
784.00,0.0316
783.00,0.0311
782.00,0.0307
781.00,0.0303
780.00,0.0302
779.00,0.0303
778.00,0.0308
777.00,0.0314
776.00,0.0320
775.00,0.0325
774.00,0.0329
773.00,0.0331
772.00,0.0331
771.00,0.0330
770.00,0.0328
769.00,0.0325
768.00,0.0318
767.00,0.0311
766.00,0.0304
765.00,0.0297
764.00,0.0291
763.00,0.0287
762.00,0.0286
761.00,0.0288
760.00,0.0291
759.00,0.0297
758.00,0.0305
757.00,0.0315
756.00,0.0327
755.00,0.0343
754.00,0.0363
753.00,0.0388
752.00,0.0415
751.00,0.0442
750.00,0.0466
749.00,0.0480
748.00,0.0479
747.00,0.0462
746.00,0.0434
745.00,0.0401
744.00,0.0369
743.00,0.0344
742.00,0.0327
741.00,0.0317
740.00,0.0312
739.00,0.0312
738.00,0.0317
737.00,0.0326
736.00,0.0338
735.00,0.0353
734.00,0.0371
733.00,0.0389
732.00,0.0402
731.00,0.0412
730.00,0.0416
729.00,0.0416
728.00,0.0411
727.00,0.0405
726.00,0.0398
725.00,0.0390
724.00,0.0378
723.00,0.0365
722.00,0.0352
721.00,0.0339
720.00,0.0328
719.00,0.0321
718.00,0.0317
717.00,0.0314
716.00,0.0311
715.00,0.0310
714.00,0.0311
713.00,0.0312
712.00,0.0312
711.00,0.0313
710.00,0.0313
709.00,0.0313
708.00,0.0311
707.00,0.0309
706.00,0.0308
705.00,0.0307
704.00,0.0305
703.00,0.0304
702.00,0.0305
701.00,0.0306
700.00,0.0306
699.00,0.0307
698.00,0.0309
697.00,0.0311
696.00,0.0313
695.00,0.0315
694.00,0.0318
693.00,0.0322
692.00,0.0325
691.00,0.0328
690.00,0.0334
689.00,0.0339
688.00,0.0345
687.00,0.0352
686.00,0.0362
685.00,0.0373
684.00,0.0385
683.00,0.0399
682.00,0.0415
681.00,0.0433
680.00,0.0451
679.00,0.0470
678.00,0.0489
677.00,0.0506
676.00,0.0518
675.00,0.0527
674.00,0.0534
673.00,0.0539
672.00,0.0541
671.00,0.0542
670.00,0.0544
669.00,0.0545
668.00,0.0544
667.00,0.0543
666.00,0.0542
665.00,0.0539
664.00,0.0534
663.00,0.0528
662.00,0.0523
661.00,0.0519
660.00,0.0515
659.00,0.0513
658.00,0.0513
657.00,0.0514
656.00,0.0515
655.00,0.0516
654.00,0.0517
653.00,0.0517
652.00,0.0514
651.00,0.0510
650.00,0.0506
649.00,0.0502
648.00,0.0496
647.00,0.0491
646.00,0.0487
645.00,0.0484
644.00,0.0480
643.00,0.0476
642.00,0.0473
641.00,0.0470
640.00,0.0465
639.00,0.0461
638.00,0.0460
637.00,0.0458
636.00,0.0456
635.00,0.0455
634.00,0.0456
633.00,0.0456
632.00,0.0456
631.00,0.0456
630.00,0.0459
629.00,0.0461
628.00,0.0462
627.00,0.0464
626.00,0.0467
625.00,0.0470
624.00,0.0472
623.00,0.0474
622.00,0.0478
621.00,0.0482
620.00,0.0485
619.00,0.0488
618.00,0.0494
617.00,0.0500
616.00,0.0507
615.00,0.0515
614.00,0.0526
613.00,0.0540
612.00,0.0554
611.00,0.0570
610.00,0.0587
609.00,0.0603
608.00,0.0616
607.00,0.0630
606.00,0.0646
605.00,0.0663
604.00,0.0679
603.00,0.0696
602.00,0.0714
601.00,0.0732
600.00,0.0749
599.00,0.0764
598.00,0.0779
597.00,0.0789
596.00,0.0794
595.00,0.0797
594.00,0.0798
593.00,0.0796
592.00,0.0790
591.00,0.0781
590.00,0.0771
589.00,0.0761
588.00,0.0749
587.00,0.0740
586.00,0.0737
585.00,0.0737
584.00,0.0739
583.00,0.0745
582.00,0.0753
581.00,0.0761
580.00,0.0766
579.00,0.0767
578.00,0.0765
577.00,0.0757
576.00,0.0741
575.00,0.0724
574.00,0.0709
573.00,0.0696
572.00,0.0683
571.00,0.0672
570.00,0.0666
569.00,0.0661
568.00,0.0657
567.00,0.0656
566.00,0.0659
565.00,0.0664
564.00,0.0669
563.00,0.0676
562.00,0.0689
561.00,0.0705
560.00,0.0724
559.00,0.0749
558.00,0.0784
557.00,0.0824
556.00,0.0868
555.00,0.0916
554.00,0.0965
553.00,0.1007
552.00,0.1037
551.00,0.1054
550.00,0.1061
549.00,0.1059
548.00,0.1049
547.00,0.1038
546.00,0.1030
545.00,0.1024
544.00,0.1017
543.00,0.1011
542.00,0.1010
541.00,0.1013
540.00,0.1021
539.00,0.1038
538.00,0.1064
537.00,0.1095
536.00,0.1125
535.00,0.1154
534.00,0.1182
533.00,0.1203
532.00,0.1218
531.00,0.1231
530.00,0.1246
529.00,0.1264
528.00,0.1284
527.00,0.1309
526.00,0.1334
525.00,0.1347
524.00,0.1339
523.00,0.1310
522.00,0.1266
521.00,0.1210
520.00,0.1148
519.00,0.1090
518.00,0.1046
517.00,0.1014
516.00,0.0990
515.00,0.0976
514.00,0.0970
513.00,0.0966
512.00,0.0963
511.00,0.0961
510.00,0.0963
509.00,0.0967
508.00,0.0970
507.00,0.0975
506.00,0.0985
505.00,0.0995
504.00,0.1004
503.00,0.1014
502.00,0.1029
501.00,0.1045
500.00,0.1057
499.00,0.1069
498.00,0.1084
497.00,0.1097
496.00,0.1109
495.00,0.1123
494.00,0.1139
493.00,0.1155
492.00,0.1166
491.00,0.1177
490.00,0.1190
489.00,0.1202
488.00,0.1211
487.00,0.1219
486.00,0.1230
485.00,0.1240
484.00,0.1250
483.00,0.1261
482.00,0.1273
481.00,0.1279
480.00,0.1277
479.00,0.1272
478.00,0.1269
477.00,0.1267
476.00,0.1262
475.00,0.1261
474.00,0.1265
473.00,0.1271
472.00,0.1272
471.00,0.1274
470.00,0.1281
469.00,0.1289
468.00,0.1294
467.00,0.1296
466.00,0.1295
465.00,0.1288
464.00,0.1275
463.00,0.1262
462.00,0.1252
461.00,0.1240
460.00,0.1221
459.00,0.1202
458.00,0.1189
457.00,0.1176
456.00,0.1160
455.00,0.1149
454.00,0.1146
453.00,0.1142
452.00,0.1135
451.00,0.1132
450.00,0.1135
449.00,0.1139
448.00,0.1137
447.00,0.1134
446.00,0.1133
445.00,0.1129
444.00,0.1122
443.00,0.1117
442.00,0.1120
441.00,0.1122
440.00,0.1119
439.00,0.1119
438.00,0.1125
437.00,0.1131
436.00,0.1128
435.00,0.1123
434.00,0.1121
433.00,0.1119
432.00,0.1111
431.00,0.1106
430.00,0.1106
429.00,0.1106
428.00,0.1101
427.00,0.1103
426.00,0.1115
425.00,0.1125
424.00,0.1121
423.00,0.1112
422.00,0.1108
421.00,0.1102
420.00,0.1082
419.00,0.1063
418.00,0.1056
417.00,0.1046
416.00,0.1025
415.00,0.1006
414.00,0.0996
413.00,0.0983
412.00,0.0961
411.00,0.0948
410.00,0.0953
409.00,0.0959
408.00,0.0949
407.00,0.0934
406.00,0.0930
405.00,0.0924
404.00,0.0907
403.00,0.0899
402.00,0.0910
401.00,0.0922
400.00,0.0912
