Created as New Dataset,Sample 624 By YargerLab Date Friday, June 06 2025
cm-1,A
4000.00,0.0098
3999.00,0.0098
3998.00,0.0098
3997.00,0.0098
3996.00,0.0098
3995.00,0.0098
3994.00,0.0099
3993.00,0.0099
3992.00,0.0099
3991.00,0.0099
3990.00,0.0099
3989.00,0.0099
3988.00,0.0099
3987.00,0.0099
3986.00,0.0099
3985.00,0.0099
3984.00,0.0099
3983.00,0.0099
3982.00,0.0099
3981.00,0.0099
3980.00,0.0099
3979.00,0.0099
3978.00,0.0099
3977.00,0.0099
3976.00,0.0099
3975.00,0.0099
3974.00,0.0099
3973.00,0.0099
3972.00,0.0099
3971.00,0.0099
3970.00,0.0099
3969.00,0.0099
3968.00,0.0099
3967.00,0.0099
3966.00,0.0099
3965.00,0.0098
3964.00,0.0098
3963.00,0.0098
3962.00,0.0098
3961.00,0.0099
3960.00,0.0099
3959.00,0.0099
3958.00,0.0099
3957.00,0.0098
3956.00,0.0098
3955.00,0.0098
3954.00,0.0098
3953.00,0.0098
3952.00,0.0098
3951.00,0.0097
3950.00,0.0097
3949.00,0.0097
3948.00,0.0097
3947.00,0.0098
3946.00,0.0098
3945.00,0.0098
3944.00,0.0098
3943.00,0.0098
3942.00,0.0098
3941.00,0.0097
3940.00,0.0097
3939.00,0.0097
3938.00,0.0098
3937.00,0.0098
3936.00,0.0098
3935.00,0.0098
3934.00,0.0098
3933.00,0.0099
3932.00,0.0099
3931.00,0.0098
3930.00,0.0098
3929.00,0.0098
3928.00,0.0099
3927.00,0.0099
3926.00,0.0099
3925.00,0.0100
3924.00,0.0100
3923.00,0.0100
3922.00,0.0099
3921.00,0.0099
3920.00,0.0099
3919.00,0.0099
3918.00,0.0100
3917.00,0.0100
3916.00,0.0099
3915.00,0.0099
3914.00,0.0099
3913.00,0.0099
3912.00,0.0099
3911.00,0.0099
3910.00,0.0099
3909.00,0.0099
3908.00,0.0098
3907.00,0.0098
3906.00,0.0097
3905.00,0.0097
3904.00,0.0096
3903.00,0.0096
3902.00,0.0095
3901.00,0.0095
3900.00,0.0095
3899.00,0.0094
3898.00,0.0094
3897.00,0.0095
3896.00,0.0095
3895.00,0.0095
3894.00,0.0095
3893.00,0.0095
3892.00,0.0096
3891.00,0.0096
3890.00,0.0096
3889.00,0.0095
3888.00,0.0095
3887.00,0.0096
3886.00,0.0096
3885.00,0.0095
3884.00,0.0095
3883.00,0.0094
3882.00,0.0094
3881.00,0.0094
3880.00,0.0094
3879.00,0.0094
3878.00,0.0094
3877.00,0.0094
3876.00,0.0094
3875.00,0.0094
3874.00,0.0094
3873.00,0.0094
3872.00,0.0093
3871.00,0.0093
3870.00,0.0094
3869.00,0.0094
3868.00,0.0093
3867.00,0.0093
3866.00,0.0093
3865.00,0.0093
3864.00,0.0093
3863.00,0.0093
3862.00,0.0093
3861.00,0.0093
3860.00,0.0094
3859.00,0.0094
3858.00,0.0094
3857.00,0.0093
3856.00,0.0093
3855.00,0.0093
3854.00,0.0094
3853.00,0.0093
3852.00,0.0093
3851.00,0.0092
3850.00,0.0093
3849.00,0.0093
3848.00,0.0093
3847.00,0.0093
3846.00,0.0093
3845.00,0.0093
3844.00,0.0093
3843.00,0.0093
3842.00,0.0093
3841.00,0.0092
3840.00,0.0092
3839.00,0.0092
3838.00,0.0093
3837.00,0.0093
3836.00,0.0092
3835.00,0.0092
3834.00,0.0092
3833.00,0.0092
3832.00,0.0092
3831.00,0.0093
3830.00,0.0093
3829.00,0.0093
3828.00,0.0094
3827.00,0.0094
3826.00,0.0094
3825.00,0.0094
3824.00,0.0093
3823.00,0.0093
3822.00,0.0093
3821.00,0.0092
3820.00,0.0092
3819.00,0.0092
3818.00,0.0091
3817.00,0.0092
3816.00,0.0093
3815.00,0.0093
3814.00,0.0093
3813.00,0.0093
3812.00,0.0094
3811.00,0.0094
3810.00,0.0094
3809.00,0.0094
3808.00,0.0094
3807.00,0.0094
3806.00,0.0094
3805.00,0.0093
3804.00,0.0093
3803.00,0.0092
3802.00,0.0093
3801.00,0.0093
3800.00,0.0093
3799.00,0.0092
3798.00,0.0092
3797.00,0.0093
3796.00,0.0093
3795.00,0.0094
3794.00,0.0094
3793.00,0.0094
3792.00,0.0094
3791.00,0.0095
3790.00,0.0095
3789.00,0.0095
3788.00,0.0095
3787.00,0.0095
3786.00,0.0095
3785.00,0.0094
3784.00,0.0094
3783.00,0.0094
3782.00,0.0094
3781.00,0.0094
3780.00,0.0094
3779.00,0.0094
3778.00,0.0094
3777.00,0.0094
3776.00,0.0094
3775.00,0.0094
3774.00,0.0094
3773.00,0.0094
3772.00,0.0094
3771.00,0.0094
3770.00,0.0093
3769.00,0.0093
3768.00,0.0093
3767.00,0.0092
3766.00,0.0092
3765.00,0.0093
3764.00,0.0092
3763.00,0.0092
3762.00,0.0092
3761.00,0.0092
3760.00,0.0093
3759.00,0.0092
3758.00,0.0092
3757.00,0.0092
3756.00,0.0092
3755.00,0.0092
3754.00,0.0091
3753.00,0.0091
3752.00,0.0091
3751.00,0.0090
3750.00,0.0090
3749.00,0.0090
3748.00,0.0089
3747.00,0.0089
3746.00,0.0089
3745.00,0.0090
3744.00,0.0090
3743.00,0.0090
3742.00,0.0090
3741.00,0.0090
3740.00,0.0091
3739.00,0.0091
3738.00,0.0091
3737.00,0.0090
3736.00,0.0090
3735.00,0.0090
3734.00,0.0090
3733.00,0.0090
3732.00,0.0090
3731.00,0.0090
3730.00,0.0090
3729.00,0.0090
3728.00,0.0091
3727.00,0.0091
3726.00,0.0091
3725.00,0.0091
3724.00,0.0091
3723.00,0.0091
3722.00,0.0091
3721.00,0.0091
3720.00,0.0091
3719.00,0.0090
3718.00,0.0090
3717.00,0.0090
3716.00,0.0090
3715.00,0.0090
3714.00,0.0090
3713.00,0.0090
3712.00,0.0089
3711.00,0.0089
3710.00,0.0089
3709.00,0.0089
3708.00,0.0089
3707.00,0.0089
3706.00,0.0089
3705.00,0.0089
3704.00,0.0089
3703.00,0.0090
3702.00,0.0090
3701.00,0.0090
3700.00,0.0090
3699.00,0.0090
3698.00,0.0090
3697.00,0.0090
3696.00,0.0090
3695.00,0.0090
3694.00,0.0090
3693.00,0.0089
3692.00,0.0088
3691.00,0.0088
3690.00,0.0088
3689.00,0.0087
3688.00,0.0087
3687.00,0.0087
3686.00,0.0086
3685.00,0.0086
3684.00,0.0086
3683.00,0.0086
3682.00,0.0085
3681.00,0.0085
3680.00,0.0084
3679.00,0.0083
3678.00,0.0081
3677.00,0.0081
3676.00,0.0080
3675.00,0.0080
3674.00,0.0079
3673.00,0.0078
3672.00,0.0078
3671.00,0.0078
3670.00,0.0078
3669.00,0.0078
3668.00,0.0078
3667.00,0.0078
3666.00,0.0079
3665.00,0.0079
3664.00,0.0079
3663.00,0.0079
3662.00,0.0079
3661.00,0.0079
3660.00,0.0078
3659.00,0.0078
3658.00,0.0078
3657.00,0.0079
3656.00,0.0079
3655.00,0.0078
3654.00,0.0078
3653.00,0.0077
3652.00,0.0077
3651.00,0.0077
3650.00,0.0077
3649.00,0.0077
3648.00,0.0076
3647.00,0.0077
3646.00,0.0077
3645.00,0.0078
3644.00,0.0079
3643.00,0.0079
3642.00,0.0080
3641.00,0.0080
3640.00,0.0081
3639.00,0.0080
3638.00,0.0080
3637.00,0.0080
3636.00,0.0081
3635.00,0.0081
3634.00,0.0082
3633.00,0.0083
3632.00,0.0083
3631.00,0.0083
3630.00,0.0083
3629.00,0.0083
3628.00,0.0083
3627.00,0.0083
3626.00,0.0083
3625.00,0.0084
3624.00,0.0084
3623.00,0.0084
3622.00,0.0085
3621.00,0.0085
3620.00,0.0085
3619.00,0.0085
3618.00,0.0084
3617.00,0.0084
3616.00,0.0084
3615.00,0.0084
3614.00,0.0084
3613.00,0.0084
3612.00,0.0084
3611.00,0.0084
3610.00,0.0084
3609.00,0.0084
3608.00,0.0085
3607.00,0.0085
3606.00,0.0085
3605.00,0.0086
3604.00,0.0086
3603.00,0.0086
3602.00,0.0086
3601.00,0.0086
3600.00,0.0086
3599.00,0.0086
3598.00,0.0085
3597.00,0.0085
3596.00,0.0085
3595.00,0.0085
3594.00,0.0085
3593.00,0.0085
3592.00,0.0085
3591.00,0.0085
3590.00,0.0085
3589.00,0.0085
3588.00,0.0085
3587.00,0.0085
3586.00,0.0085
3585.00,0.0085
3584.00,0.0085
3583.00,0.0085
3582.00,0.0086
3581.00,0.0086
3580.00,0.0086
3579.00,0.0086
3578.00,0.0086
3577.00,0.0086
3576.00,0.0086
3575.00,0.0086
3574.00,0.0086
3573.00,0.0086
3572.00,0.0086
3571.00,0.0086
3570.00,0.0085
3569.00,0.0085
3568.00,0.0085
3567.00,0.0084
3566.00,0.0084
3565.00,0.0084
3564.00,0.0085
3563.00,0.0085
3562.00,0.0086
3561.00,0.0086
3560.00,0.0086
3559.00,0.0086
3558.00,0.0086
3557.00,0.0086
3556.00,0.0086
3555.00,0.0086
3554.00,0.0086
3553.00,0.0086
3552.00,0.0086
3551.00,0.0086
3550.00,0.0086
3549.00,0.0086
3548.00,0.0086
3547.00,0.0086
3546.00,0.0086
3545.00,0.0086
3544.00,0.0085
3543.00,0.0086
3542.00,0.0086
3541.00,0.0086
3540.00,0.0087
3539.00,0.0087
3538.00,0.0087
3537.00,0.0087
3536.00,0.0087
3535.00,0.0086
3534.00,0.0086
3533.00,0.0086
3532.00,0.0086
3531.00,0.0086
3530.00,0.0085
3529.00,0.0085
3528.00,0.0085
3527.00,0.0085
3526.00,0.0085
3525.00,0.0086
3524.00,0.0086
3523.00,0.0086
3522.00,0.0086
3521.00,0.0085
3520.00,0.0085
3519.00,0.0085
3518.00,0.0085
3517.00,0.0085
3516.00,0.0085
3515.00,0.0085
3514.00,0.0085
3513.00,0.0085
3512.00,0.0085
3511.00,0.0085
3510.00,0.0085
3509.00,0.0085
3508.00,0.0085
3507.00,0.0085
3506.00,0.0085
3505.00,0.0085
3504.00,0.0085
3503.00,0.0085
3502.00,0.0085
3501.00,0.0084
3500.00,0.0084
3499.00,0.0084
3498.00,0.0085
3497.00,0.0085
3496.00,0.0085
3495.00,0.0085
3494.00,0.0085
3493.00,0.0084
3492.00,0.0084
3491.00,0.0084
3490.00,0.0084
3489.00,0.0084
3488.00,0.0085
3487.00,0.0085
3486.00,0.0084
3485.00,0.0084
3484.00,0.0084
3483.00,0.0084
3482.00,0.0084
3481.00,0.0084
3480.00,0.0084
3479.00,0.0084
3478.00,0.0084
3477.00,0.0084
3476.00,0.0084
3475.00,0.0084
3474.00,0.0083
3473.00,0.0083
3472.00,0.0083
3471.00,0.0083
3470.00,0.0083
3469.00,0.0083
3468.00,0.0083
3467.00,0.0083
3466.00,0.0083
3465.00,0.0083
3464.00,0.0083
3463.00,0.0083
3462.00,0.0083
3461.00,0.0082
3460.00,0.0082
3459.00,0.0082
3458.00,0.0082
3457.00,0.0082
3456.00,0.0082
3455.00,0.0082
3454.00,0.0082
3453.00,0.0082
3452.00,0.0082
3451.00,0.0083
3450.00,0.0083
3449.00,0.0083
3448.00,0.0083
3447.00,0.0083
3446.00,0.0083
3445.00,0.0083
3444.00,0.0083
3443.00,0.0084
3442.00,0.0084
3441.00,0.0084
3440.00,0.0084
3439.00,0.0084
3438.00,0.0084
3437.00,0.0085
3436.00,0.0085
3435.00,0.0085
3434.00,0.0085
3433.00,0.0085
3432.00,0.0086
3431.00,0.0086
3430.00,0.0086
3429.00,0.0086
3428.00,0.0087
3427.00,0.0087
3426.00,0.0088
3425.00,0.0088
3424.00,0.0088
3423.00,0.0089
3422.00,0.0089
3421.00,0.0090
3420.00,0.0091
3419.00,0.0091
3418.00,0.0092
3417.00,0.0093
3416.00,0.0094
3415.00,0.0095
3414.00,0.0096
3413.00,0.0097
3412.00,0.0098
3411.00,0.0100
3410.00,0.0101
3409.00,0.0103
3408.00,0.0105
3407.00,0.0107
3406.00,0.0109
3405.00,0.0110
3404.00,0.0112
3403.00,0.0114
3402.00,0.0117
3401.00,0.0120
3400.00,0.0125
3399.00,0.0129
3398.00,0.0134
3397.00,0.0139
3396.00,0.0144
3395.00,0.0149
3394.00,0.0154
3393.00,0.0160
3392.00,0.0167
3391.00,0.0175
3390.00,0.0185
3389.00,0.0195
3388.00,0.0207
3387.00,0.0219
3386.00,0.0233
3385.00,0.0249
3384.00,0.0267
3383.00,0.0287
3382.00,0.0310
3381.00,0.0336
3380.00,0.0364
3379.00,0.0395
3378.00,0.0428
3377.00,0.0462
3376.00,0.0497
3375.00,0.0530
3374.00,0.0561
3373.00,0.0588
3372.00,0.0611
3371.00,0.0627
3370.00,0.0637
3369.00,0.0642
3368.00,0.0642
3367.00,0.0637
3366.00,0.0628
3365.00,0.0616
3364.00,0.0602
3363.00,0.0586
3362.00,0.0569
3361.00,0.0551
3360.00,0.0533
3359.00,0.0514
3358.00,0.0496
3357.00,0.0478
3356.00,0.0460
3355.00,0.0443
3354.00,0.0426
3353.00,0.0410
3352.00,0.0394
3351.00,0.0380
3350.00,0.0366
3349.00,0.0354
3348.00,0.0342
3347.00,0.0331
3346.00,0.0321
3345.00,0.0311
3344.00,0.0302
3343.00,0.0293
3342.00,0.0286
3341.00,0.0279
3340.00,0.0272
3339.00,0.0266
3338.00,0.0260
3337.00,0.0255
3336.00,0.0249
3335.00,0.0244
3334.00,0.0239
3333.00,0.0235
3332.00,0.0231
3331.00,0.0227
3330.00,0.0224
3329.00,0.0221
3328.00,0.0218
3327.00,0.0215
3326.00,0.0212
3325.00,0.0209
3324.00,0.0207
3323.00,0.0205
3322.00,0.0202
3321.00,0.0200
3320.00,0.0199
3319.00,0.0197
3318.00,0.0195
3317.00,0.0194
3316.00,0.0192
3315.00,0.0191
3314.00,0.0190
3313.00,0.0188
3312.00,0.0187
3311.00,0.0186
3310.00,0.0184
3309.00,0.0183
3308.00,0.0182
3307.00,0.0181
3306.00,0.0179
3305.00,0.0178
3304.00,0.0177
3303.00,0.0176
3302.00,0.0175
3301.00,0.0173
3300.00,0.0172
3299.00,0.0170
3298.00,0.0168
3297.00,0.0167
3296.00,0.0165
3295.00,0.0164
3294.00,0.0162
3293.00,0.0161
3292.00,0.0159
3291.00,0.0158
3290.00,0.0157
3289.00,0.0156
3288.00,0.0154
3287.00,0.0153
3286.00,0.0151
3285.00,0.0149
3284.00,0.0147
3283.00,0.0146
3282.00,0.0145
3281.00,0.0144
3280.00,0.0143
3279.00,0.0142
3278.00,0.0141
3277.00,0.0139
3276.00,0.0138
3275.00,0.0137
3274.00,0.0136
3273.00,0.0135
3272.00,0.0134
3271.00,0.0133
3270.00,0.0133
3269.00,0.0133
3268.00,0.0132
3267.00,0.0132
3266.00,0.0132
3265.00,0.0132
3264.00,0.0131
3263.00,0.0131
3262.00,0.0131
3261.00,0.0130
3260.00,0.0130
3259.00,0.0130
3258.00,0.0129
3257.00,0.0129
3256.00,0.0128
3255.00,0.0128
3254.00,0.0129
3253.00,0.0129
3252.00,0.0129
3251.00,0.0130
3250.00,0.0129
3249.00,0.0129
3248.00,0.0128
3247.00,0.0128
3246.00,0.0129
3245.00,0.0130
3244.00,0.0130
3243.00,0.0131
3242.00,0.0131
3241.00,0.0131
3240.00,0.0132
3239.00,0.0132
3238.00,0.0132
3237.00,0.0131
3236.00,0.0131
3235.00,0.0131
3234.00,0.0131
3233.00,0.0130
3232.00,0.0131
3231.00,0.0131
3230.00,0.0131
3229.00,0.0130
3228.00,0.0130
3227.00,0.0129
3226.00,0.0128
3225.00,0.0127
3224.00,0.0126
3223.00,0.0125
3222.00,0.0124
3221.00,0.0124
3220.00,0.0123
3219.00,0.0122
3218.00,0.0121
3217.00,0.0120
3216.00,0.0120
3215.00,0.0119
3214.00,0.0118
3213.00,0.0117
3212.00,0.0117
3211.00,0.0116
3210.00,0.0115
3209.00,0.0115
3208.00,0.0115
3207.00,0.0114
3206.00,0.0114
3205.00,0.0113
3204.00,0.0112
3203.00,0.0112
3202.00,0.0111
3201.00,0.0111
3200.00,0.0110
3199.00,0.0110
3198.00,0.0110
3197.00,0.0109
3196.00,0.0109
3195.00,0.0109
3194.00,0.0109
3193.00,0.0108
3192.00,0.0108
3191.00,0.0108
3190.00,0.0108
3189.00,0.0108
3188.00,0.0107
3187.00,0.0107
3186.00,0.0107
3185.00,0.0107
3184.00,0.0107
3183.00,0.0107
3182.00,0.0106
3181.00,0.0106
3180.00,0.0106
3179.00,0.0106
3178.00,0.0106
3177.00,0.0106
3176.00,0.0106
3175.00,0.0105
3174.00,0.0105
3173.00,0.0105
3172.00,0.0105
3171.00,0.0104
3170.00,0.0104
3169.00,0.0104
3168.00,0.0104
3167.00,0.0104
3166.00,0.0104
3165.00,0.0104
3164.00,0.0104
3163.00,0.0104
3162.00,0.0105
3161.00,0.0105
3160.00,0.0105
3159.00,0.0105
3158.00,0.0104
3157.00,0.0104
3156.00,0.0105
3155.00,0.0105
3154.00,0.0104
3153.00,0.0105
3152.00,0.0105
3151.00,0.0105
3150.00,0.0105
3149.00,0.0106
3148.00,0.0106
3147.00,0.0106
3146.00,0.0106
3145.00,0.0107
3144.00,0.0107
3143.00,0.0107
3142.00,0.0107
3141.00,0.0107
3140.00,0.0107
3139.00,0.0107
3138.00,0.0107
3137.00,0.0107
3136.00,0.0107
3135.00,0.0107
3134.00,0.0107
3133.00,0.0108
3132.00,0.0108
3131.00,0.0108
3130.00,0.0109
3129.00,0.0109
3128.00,0.0110
3127.00,0.0110
3126.00,0.0110
3125.00,0.0111
3124.00,0.0111
3123.00,0.0112
3122.00,0.0113
3121.00,0.0113
3120.00,0.0114
3119.00,0.0114
3118.00,0.0115
3117.00,0.0116
3116.00,0.0117
3115.00,0.0117
3114.00,0.0118
3113.00,0.0119
3112.00,0.0120
3111.00,0.0121
3110.00,0.0122
3109.00,0.0123
3108.00,0.0124
3107.00,0.0125
3106.00,0.0126
3105.00,0.0127
3104.00,0.0128
3103.00,0.0128
3102.00,0.0129
3101.00,0.0129
3100.00,0.0130
3099.00,0.0130
3098.00,0.0130
3097.00,0.0130
3096.00,0.0130
3095.00,0.0130
3094.00,0.0129
3093.00,0.0129
3092.00,0.0128
3091.00,0.0128
3090.00,0.0127
3089.00,0.0127
3088.00,0.0126
3087.00,0.0125
3086.00,0.0125
3085.00,0.0125
3084.00,0.0125
3083.00,0.0124
3082.00,0.0125
3081.00,0.0125
3080.00,0.0125
3079.00,0.0126
3078.00,0.0126
3077.00,0.0127
3076.00,0.0128
3075.00,0.0130
3074.00,0.0132
3073.00,0.0134
3072.00,0.0136
3071.00,0.0137
3070.00,0.0138
3069.00,0.0136
3068.00,0.0134
3067.00,0.0132
3066.00,0.0129
3065.00,0.0126
3064.00,0.0123
3063.00,0.0121
3062.00,0.0119
3061.00,0.0118
3060.00,0.0117
3059.00,0.0116
3058.00,0.0116
3057.00,0.0116
3056.00,0.0117
3055.00,0.0117
3054.00,0.0118
3053.00,0.0118
3052.00,0.0117
3051.00,0.0117
3050.00,0.0116
3049.00,0.0115
3048.00,0.0114
3047.00,0.0113
3046.00,0.0112
3045.00,0.0112
3044.00,0.0111
3043.00,0.0110
3042.00,0.0110
3041.00,0.0110
3040.00,0.0110
3039.00,0.0110
3038.00,0.0110
3037.00,0.0110
3036.00,0.0110
3035.00,0.0111
3034.00,0.0111
3033.00,0.0111
3032.00,0.0111
3031.00,0.0112
3030.00,0.0112
3029.00,0.0113
3028.00,0.0114
3027.00,0.0115
3026.00,0.0116
3025.00,0.0117
3024.00,0.0118
3023.00,0.0119
3022.00,0.0121
3021.00,0.0122
3020.00,0.0123
3019.00,0.0124
3018.00,0.0125
3017.00,0.0125
3016.00,0.0125
3015.00,0.0125
3014.00,0.0125
3013.00,0.0125
3012.00,0.0125
3011.00,0.0125
3010.00,0.0125
3009.00,0.0125
3008.00,0.0125
3007.00,0.0125
3006.00,0.0125
3005.00,0.0125
3004.00,0.0126
3003.00,0.0127
3002.00,0.0128
3001.00,0.0130
3000.00,0.0132
2999.00,0.0135
2998.00,0.0139
2997.00,0.0143
2996.00,0.0148
2995.00,0.0153
2994.00,0.0157
2993.00,0.0161
2992.00,0.0164
2991.00,0.0166
2990.00,0.0168
2989.00,0.0168
2988.00,0.0168
2987.00,0.0166
2986.00,0.0162
2985.00,0.0157
2984.00,0.0150
2983.00,0.0143
2982.00,0.0138
2981.00,0.0136
2980.00,0.0136
2979.00,0.0137
2978.00,0.0137
2977.00,0.0134
2976.00,0.0130
2975.00,0.0125
2974.00,0.0119
2973.00,0.0113
2972.00,0.0108
2971.00,0.0106
2970.00,0.0106
2969.00,0.0108
2968.00,0.0111
2967.00,0.0115
2966.00,0.0119
2965.00,0.0123
2964.00,0.0129
2963.00,0.0135
2962.00,0.0141
2961.00,0.0148
2960.00,0.0155
2959.00,0.0162
2958.00,0.0169
2957.00,0.0176
2956.00,0.0182
2955.00,0.0189
2954.00,0.0196
2953.00,0.0203
2952.00,0.0210
2951.00,0.0216
2950.00,0.0220
2949.00,0.0221
2948.00,0.0221
2947.00,0.0219
2946.00,0.0215
2945.00,0.0212
2944.00,0.0208
2943.00,0.0204
2942.00,0.0201
2941.00,0.0198
2940.00,0.0196
2939.00,0.0194
2938.00,0.0193
2937.00,0.0191
2936.00,0.0189
2935.00,0.0186
2934.00,0.0183
2933.00,0.0178
2932.00,0.0173
2931.00,0.0168
2930.00,0.0163
2929.00,0.0159
2928.00,0.0155
2927.00,0.0152
2926.00,0.0148
2925.00,0.0145
2924.00,0.0142
2923.00,0.0139
2922.00,0.0136
2921.00,0.0134
2920.00,0.0131
2919.00,0.0129
2918.00,0.0127
2917.00,0.0125
2916.00,0.0124
2915.00,0.0124
2914.00,0.0124
2913.00,0.0124
2912.00,0.0124
2911.00,0.0125
2910.00,0.0125
2909.00,0.0126
2908.00,0.0126
2907.00,0.0127
2906.00,0.0127
2905.00,0.0128
2904.00,0.0128
2903.00,0.0128
2902.00,0.0128
2901.00,0.0127
2900.00,0.0127
2899.00,0.0126
2898.00,0.0125
2897.00,0.0124
2896.00,0.0123
2895.00,0.0121
2894.00,0.0120
2893.00,0.0119
2892.00,0.0118
2891.00,0.0117
2890.00,0.0116
2889.00,0.0116
2888.00,0.0115
2887.00,0.0116
2886.00,0.0115
2885.00,0.0115
2884.00,0.0115
2883.00,0.0115
2882.00,0.0116
2881.00,0.0117
2880.00,0.0118
2879.00,0.0118
2878.00,0.0119
2877.00,0.0119
2876.00,0.0119
2875.00,0.0119
2874.00,0.0118
2873.00,0.0118
2872.00,0.0117
2871.00,0.0116
2870.00,0.0115
2869.00,0.0114
2868.00,0.0113
2867.00,0.0112
2866.00,0.0111
2865.00,0.0111
2864.00,0.0110
2863.00,0.0110
2862.00,0.0109
2861.00,0.0109
2860.00,0.0109
2859.00,0.0109
2858.00,0.0109
2857.00,0.0110
2856.00,0.0110
2855.00,0.0110
2854.00,0.0110
2853.00,0.0110
2852.00,0.0110
2851.00,0.0111
2850.00,0.0111
2849.00,0.0112
2848.00,0.0113
2847.00,0.0114
2846.00,0.0116
2845.00,0.0117
2844.00,0.0119
2843.00,0.0121
2842.00,0.0122
2841.00,0.0124
2840.00,0.0125
2839.00,0.0125
2838.00,0.0125
2837.00,0.0125
2836.00,0.0124
2835.00,0.0123
2834.00,0.0122
2833.00,0.0121
2832.00,0.0120
2831.00,0.0119
2830.00,0.0118
2829.00,0.0118
2828.00,0.0117
2827.00,0.0116
2826.00,0.0116
2825.00,0.0115
2824.00,0.0114
2823.00,0.0114
2822.00,0.0114
2821.00,0.0114
2820.00,0.0114
2819.00,0.0114
2818.00,0.0114
2817.00,0.0115
2816.00,0.0115
2815.00,0.0116
2814.00,0.0116
2813.00,0.0117
2812.00,0.0117
2811.00,0.0118
2810.00,0.0118
2809.00,0.0118
2808.00,0.0119
2807.00,0.0119
2806.00,0.0119
2805.00,0.0119
2804.00,0.0119
2803.00,0.0119
2802.00,0.0118
2801.00,0.0118
2800.00,0.0118
2799.00,0.0117
2798.00,0.0117
2797.00,0.0116
2796.00,0.0115
2795.00,0.0114
2794.00,0.0113
2793.00,0.0112
2792.00,0.0112
2791.00,0.0111
2790.00,0.0110
2789.00,0.0109
2788.00,0.0108
2787.00,0.0107
2786.00,0.0106
2785.00,0.0105
2784.00,0.0105
2783.00,0.0104
2782.00,0.0103
2781.00,0.0103
2780.00,0.0103
2779.00,0.0102
2778.00,0.0102
2777.00,0.0101
2776.00,0.0101
2775.00,0.0101
2774.00,0.0101
2773.00,0.0100
2772.00,0.0100
2771.00,0.0100
2770.00,0.0100
2769.00,0.0100
2768.00,0.0100
2767.00,0.0100
2766.00,0.0100
2765.00,0.0100
2764.00,0.0100
2763.00,0.0100
2762.00,0.0100
2761.00,0.0100
2760.00,0.0100
2759.00,0.0100
2758.00,0.0100
2757.00,0.0100
2756.00,0.0100
2755.00,0.0100
2754.00,0.0099
2753.00,0.0099
2752.00,0.0099
2751.00,0.0099
2750.00,0.0098
2749.00,0.0098
2748.00,0.0098
2747.00,0.0098
2746.00,0.0098
2745.00,0.0097
2744.00,0.0097
2743.00,0.0097
2742.00,0.0097
2741.00,0.0096
2740.00,0.0096
2739.00,0.0096
2738.00,0.0096
2737.00,0.0096
2736.00,0.0096
2735.00,0.0096
2734.00,0.0096
2733.00,0.0096
2732.00,0.0096
2731.00,0.0096
2730.00,0.0095
2729.00,0.0095
2728.00,0.0095
2727.00,0.0094
2726.00,0.0094
2725.00,0.0094
2724.00,0.0094
2723.00,0.0094
2722.00,0.0093
2721.00,0.0093
2720.00,0.0093
2719.00,0.0093
2718.00,0.0093
2717.00,0.0092
2716.00,0.0092
2715.00,0.0092
2714.00,0.0092
2713.00,0.0092
2712.00,0.0092
2711.00,0.0092
2710.00,0.0092
2709.00,0.0093
2708.00,0.0093
2707.00,0.0093
2706.00,0.0094
2705.00,0.0094
2704.00,0.0094
2703.00,0.0094
2702.00,0.0094
2701.00,0.0094
2700.00,0.0094
2699.00,0.0094
2698.00,0.0094
2697.00,0.0094
2696.00,0.0094
2695.00,0.0094
2694.00,0.0094
2693.00,0.0094
2692.00,0.0093
2691.00,0.0093
2690.00,0.0093
2689.00,0.0093
2688.00,0.0093
2687.00,0.0093
2686.00,0.0092
2685.00,0.0092
2684.00,0.0092
2683.00,0.0092
2682.00,0.0092
2681.00,0.0092
2680.00,0.0091
2679.00,0.0091
2678.00,0.0091
2677.00,0.0091
2676.00,0.0091
2675.00,0.0091
2674.00,0.0090
2673.00,0.0090
2672.00,0.0090
2671.00,0.0090
2670.00,0.0090
2669.00,0.0091
2668.00,0.0091
2667.00,0.0091
2666.00,0.0092
2665.00,0.0092
2664.00,0.0093
2663.00,0.0093
2662.00,0.0094
2661.00,0.0094
2660.00,0.0094
2659.00,0.0094
2658.00,0.0095
2657.00,0.0095
2656.00,0.0095
2655.00,0.0095
2654.00,0.0095
2653.00,0.0095
2652.00,0.0095
2651.00,0.0095
2650.00,0.0095
2649.00,0.0095
2648.00,0.0095
2647.00,0.0095
2646.00,0.0095
2645.00,0.0095
2644.00,0.0095
2643.00,0.0095
2642.00,0.0095
2641.00,0.0095
2640.00,0.0096
2639.00,0.0096
2638.00,0.0096
2637.00,0.0096
2636.00,0.0096
2635.00,0.0096
2634.00,0.0096
2633.00,0.0097
2632.00,0.0097
2631.00,0.0097
2630.00,0.0097
2629.00,0.0097
2628.00,0.0097
2627.00,0.0097
2626.00,0.0097
2625.00,0.0097
2624.00,0.0097
2623.00,0.0097
2622.00,0.0098
2621.00,0.0098
2620.00,0.0098
2619.00,0.0098
2618.00,0.0098
2617.00,0.0098
2616.00,0.0098
2615.00,0.0098
2614.00,0.0098
2613.00,0.0098
2612.00,0.0098
2611.00,0.0098
2610.00,0.0098
2609.00,0.0098
2608.00,0.0098
2607.00,0.0098
2606.00,0.0098
2605.00,0.0098
2604.00,0.0098
2603.00,0.0098
2602.00,0.0098
2601.00,0.0098
2600.00,0.0098
2599.00,0.0097
2598.00,0.0097
2597.00,0.0097
2596.00,0.0096
2595.00,0.0096
2594.00,0.0096
2593.00,0.0096
2592.00,0.0096
2591.00,0.0096
2590.00,0.0096
2589.00,0.0096
2588.00,0.0095
2587.00,0.0094
2586.00,0.0094
2585.00,0.0093
2584.00,0.0092
2583.00,0.0092
2582.00,0.0092
2581.00,0.0091
2580.00,0.0091
2579.00,0.0091
2578.00,0.0091
2577.00,0.0090
2576.00,0.0090
2575.00,0.0090
2574.00,0.0090
2573.00,0.0090
2572.00,0.0090
2571.00,0.0090
2570.00,0.0090
2569.00,0.0090
2568.00,0.0090
2567.00,0.0090
2566.00,0.0089
2565.00,0.0089
2564.00,0.0089
2563.00,0.0089
2562.00,0.0089
2561.00,0.0090
2560.00,0.0090
2559.00,0.0090
2558.00,0.0090
2557.00,0.0090
2556.00,0.0090
2555.00,0.0090
2554.00,0.0090
2553.00,0.0090
2552.00,0.0091
2551.00,0.0091
2550.00,0.0090
2549.00,0.0089
2548.00,0.0089
2547.00,0.0088
2546.00,0.0087
2545.00,0.0087
2544.00,0.0087
2543.00,0.0087
2542.00,0.0086
2541.00,0.0086
2540.00,0.0086
2539.00,0.0086
2538.00,0.0085
2537.00,0.0085
2536.00,0.0085
2535.00,0.0085
2534.00,0.0085
2533.00,0.0085
2532.00,0.0085
2531.00,0.0085
2530.00,0.0085
2529.00,0.0085
2528.00,0.0086
2527.00,0.0086
2526.00,0.0086
2525.00,0.0086
2524.00,0.0086
2523.00,0.0087
2522.00,0.0087
2521.00,0.0087
2520.00,0.0088
2519.00,0.0088
2518.00,0.0088
2517.00,0.0088
2516.00,0.0088
2515.00,0.0089
2514.00,0.0089
2513.00,0.0089
2512.00,0.0089
2511.00,0.0089
2510.00,0.0089
2509.00,0.0089
2508.00,0.0089
2507.00,0.0089
2506.00,0.0088
2505.00,0.0088
2504.00,0.0088
2503.00,0.0088
2502.00,0.0087
2501.00,0.0087
2500.00,0.0087
2499.00,0.0088
2498.00,0.0088
2497.00,0.0088
2496.00,0.0088
2495.00,0.0087
2494.00,0.0087
2493.00,0.0087
2492.00,0.0087
2491.00,0.0087
2490.00,0.0087
2489.00,0.0087
2488.00,0.0087
2487.00,0.0087
2486.00,0.0087
2485.00,0.0087
2484.00,0.0088
2483.00,0.0088
2482.00,0.0088
2481.00,0.0088
2480.00,0.0088
2479.00,0.0088
2478.00,0.0088
2477.00,0.0088
2476.00,0.0088
2475.00,0.0087
2474.00,0.0087
2473.00,0.0087
2472.00,0.0087
2471.00,0.0087
2470.00,0.0087
2469.00,0.0087
2468.00,0.0087
2467.00,0.0086
2466.00,0.0086
2465.00,0.0086
2464.00,0.0086
2463.00,0.0086
2462.00,0.0086
2461.00,0.0087
2460.00,0.0087
2459.00,0.0088
2458.00,0.0088
2457.00,0.0087
2456.00,0.0087
2455.00,0.0087
2454.00,0.0086
2453.00,0.0085
2452.00,0.0085
2451.00,0.0085
2450.00,0.0085
2449.00,0.0085
2448.00,0.0085
2447.00,0.0085
2446.00,0.0084
2445.00,0.0084
2444.00,0.0084
2443.00,0.0084
2442.00,0.0083
2441.00,0.0083
2440.00,0.0083
2439.00,0.0084
2438.00,0.0083
2437.00,0.0083
2436.00,0.0083
2435.00,0.0083
2434.00,0.0082
2433.00,0.0082
2432.00,0.0082
2431.00,0.0082
2430.00,0.0082
2429.00,0.0082
2428.00,0.0082
2427.00,0.0082
2426.00,0.0083
2425.00,0.0083
2424.00,0.0083
2423.00,0.0083
2422.00,0.0083
2421.00,0.0083
2420.00,0.0082
2419.00,0.0082
2418.00,0.0081
2417.00,0.0081
2416.00,0.0081
2415.00,0.0082
2414.00,0.0082
2413.00,0.0082
2412.00,0.0082
2411.00,0.0082
2410.00,0.0082
2409.00,0.0081
2408.00,0.0081
2407.00,0.0080
2406.00,0.0079
2405.00,0.0079
2404.00,0.0079
2403.00,0.0079
2402.00,0.0078
2401.00,0.0078
2400.00,0.0077
2399.00,0.0077
2398.00,0.0077
2397.00,0.0077
2396.00,0.0077
2395.00,0.0077
2394.00,0.0077
2393.00,0.0076
2392.00,0.0076
2391.00,0.0077
2390.00,0.0077
2389.00,0.0077
2388.00,0.0077
2387.00,0.0077
2386.00,0.0076
2385.00,0.0075
2384.00,0.0075
2383.00,0.0074
2382.00,0.0074
2381.00,0.0074
2380.00,0.0075
2379.00,0.0075
2378.00,0.0075
2377.00,0.0074
2376.00,0.0074
2375.00,0.0074
2374.00,0.0074
2373.00,0.0074
2372.00,0.0074
2371.00,0.0074
2370.00,0.0074
2369.00,0.0074
2368.00,0.0074
2367.00,0.0074
2366.00,0.0074
2365.00,0.0074
2364.00,0.0074
2363.00,0.0074
2362.00,0.0074
2361.00,0.0074
2360.00,0.0075
2359.00,0.0075
2358.00,0.0074
2357.00,0.0074
2356.00,0.0075
2355.00,0.0075
2354.00,0.0075
2353.00,0.0075
2352.00,0.0075
2351.00,0.0075
2350.00,0.0075
2349.00,0.0076
2348.00,0.0076
2347.00,0.0076
2346.00,0.0077
2345.00,0.0077
2344.00,0.0077
2343.00,0.0077
2342.00,0.0077
2341.00,0.0078
2340.00,0.0078
2339.00,0.0079
2338.00,0.0079
2337.00,0.0078
2336.00,0.0078
2335.00,0.0078
2334.00,0.0078
2333.00,0.0078
2332.00,0.0078
2331.00,0.0078
2330.00,0.0078
2329.00,0.0080
2328.00,0.0084
2327.00,0.0088
2326.00,0.0092
2325.00,0.0093
2324.00,0.0092
2323.00,0.0089
2322.00,0.0087
2321.00,0.0085
2320.00,0.0084
2319.00,0.0082
2318.00,0.0081
2317.00,0.0081
2316.00,0.0080
2315.00,0.0080
2314.00,0.0080
2313.00,0.0079
2312.00,0.0079
2311.00,0.0078
2310.00,0.0078
2309.00,0.0078
2308.00,0.0079
2307.00,0.0079
2306.00,0.0079
2305.00,0.0079
2304.00,0.0079
2303.00,0.0079
2302.00,0.0079
2301.00,0.0079
2300.00,0.0080
2299.00,0.0080
2298.00,0.0081
2297.00,0.0082
2296.00,0.0083
2295.00,0.0083
2294.00,0.0084
2293.00,0.0085
2292.00,0.0085
2291.00,0.0087
2290.00,0.0087
2289.00,0.0088
2288.00,0.0089
2287.00,0.0089
2286.00,0.0088
2285.00,0.0087
2284.00,0.0086
2283.00,0.0085
2282.00,0.0084
2281.00,0.0083
2280.00,0.0083
2279.00,0.0082
2278.00,0.0082
2277.00,0.0082
2276.00,0.0082
2275.00,0.0081
2274.00,0.0080
2273.00,0.0080
2272.00,0.0079
2271.00,0.0079
2270.00,0.0078
2269.00,0.0078
2268.00,0.0078
2267.00,0.0077
2266.00,0.0076
2265.00,0.0076
2264.00,0.0077
2263.00,0.0077
2262.00,0.0077
2261.00,0.0077
2260.00,0.0077
2259.00,0.0078
2258.00,0.0078
2257.00,0.0078
2256.00,0.0077
2255.00,0.0076
2254.00,0.0075
2253.00,0.0075
2252.00,0.0075
2251.00,0.0076
2250.00,0.0075
2249.00,0.0075
2248.00,0.0075
2247.00,0.0075
2246.00,0.0075
2245.00,0.0076
2244.00,0.0076
2243.00,0.0076
2242.00,0.0075
2241.00,0.0075
2240.00,0.0075
2239.00,0.0074
2238.00,0.0073
2237.00,0.0073
2236.00,0.0072
2235.00,0.0072
2234.00,0.0071
2233.00,0.0071
2232.00,0.0072
2231.00,0.0071
2230.00,0.0070
2229.00,0.0069
2228.00,0.0069
2227.00,0.0069
2226.00,0.0069
2225.00,0.0069
2224.00,0.0070
2223.00,0.0070
2222.00,0.0070
2221.00,0.0070
2220.00,0.0070
2219.00,0.0069
2218.00,0.0069
2217.00,0.0069
2216.00,0.0070
2215.00,0.0069
2214.00,0.0068
2213.00,0.0066
2212.00,0.0066
2211.00,0.0065
2210.00,0.0065
2209.00,0.0066
2208.00,0.0066
2207.00,0.0065
2206.00,0.0064
2205.00,0.0063
2204.00,0.0064
2203.00,0.0064
2202.00,0.0064
2201.00,0.0064
2200.00,0.0064
2199.00,0.0063
2198.00,0.0062
2197.00,0.0061
2196.00,0.0061
2195.00,0.0062
2194.00,0.0062
2193.00,0.0063
2192.00,0.0064
2191.00,0.0064
2190.00,0.0063
2189.00,0.0063
2188.00,0.0064
2187.00,0.0064
2186.00,0.0063
2185.00,0.0061
2184.00,0.0060
2183.00,0.0058
2182.00,0.0057
2181.00,0.0058
2180.00,0.0061
2179.00,0.0062
2178.00,0.0061
2177.00,0.0059
2176.00,0.0059
2175.00,0.0059
2174.00,0.0059
2173.00,0.0062
2172.00,0.0066
2171.00,0.0070
2170.00,0.0073
2169.00,0.0075
2168.00,0.0078
2167.00,0.0079
2166.00,0.0081
2165.00,0.0083
2164.00,0.0086
2163.00,0.0084
2162.00,0.0076
2161.00,0.0062
2160.00,0.0047
2159.00,0.0035
2158.00,0.0030
2157.00,0.0032
2156.00,0.0037
2155.00,0.0041
2154.00,0.0044
2153.00,0.0047
2152.00,0.0049
2151.00,0.0050
2150.00,0.0049
2149.00,0.0049
2148.00,0.0048
2147.00,0.0047
2146.00,0.0046
2145.00,0.0046
2144.00,0.0048
2143.00,0.0048
2142.00,0.0049
2141.00,0.0049
2140.00,0.0050
2139.00,0.0050
2138.00,0.0049
2137.00,0.0046
2136.00,0.0044
2135.00,0.0043
2134.00,0.0043
2133.00,0.0044
2132.00,0.0046
2131.00,0.0048
2130.00,0.0048
2129.00,0.0050
2128.00,0.0052
2127.00,0.0053
2126.00,0.0054
2125.00,0.0054
2124.00,0.0054
2123.00,0.0054
2122.00,0.0054
2121.00,0.0055
2120.00,0.0057
2119.00,0.0058
2118.00,0.0059
2117.00,0.0061
2116.00,0.0062
2115.00,0.0063
2114.00,0.0063
2113.00,0.0063
2112.00,0.0064
2111.00,0.0064
2110.00,0.0064
2109.00,0.0064
2108.00,0.0064
2107.00,0.0064
2106.00,0.0064
2105.00,0.0065
2104.00,0.0066
2103.00,0.0067
2102.00,0.0067
2101.00,0.0067
2100.00,0.0067
2099.00,0.0066
2098.00,0.0063
2097.00,0.0061
2096.00,0.0059
2095.00,0.0058
2094.00,0.0058
2093.00,0.0060
2092.00,0.0062
2091.00,0.0064
2090.00,0.0064
2089.00,0.0065
2088.00,0.0065
2087.00,0.0065
2086.00,0.0064
2085.00,0.0064
2084.00,0.0064
2083.00,0.0064
2082.00,0.0064
2081.00,0.0064
2080.00,0.0065
2079.00,0.0065
2078.00,0.0065
2077.00,0.0065
2076.00,0.0066
2075.00,0.0067
2074.00,0.0066
2073.00,0.0065
2072.00,0.0064
2071.00,0.0064
2070.00,0.0063
2069.00,0.0063
2068.00,0.0063
2067.00,0.0063
2066.00,0.0062
2065.00,0.0062
2064.00,0.0061
2063.00,0.0061
2062.00,0.0060
2061.00,0.0059
2060.00,0.0060
2059.00,0.0060
2058.00,0.0060
2057.00,0.0060
2056.00,0.0060
2055.00,0.0061
2054.00,0.0063
2053.00,0.0067
2052.00,0.0071
2051.00,0.0071
2050.00,0.0066
2049.00,0.0060
2048.00,0.0057
2047.00,0.0055
2046.00,0.0053
2045.00,0.0052
2044.00,0.0054
2043.00,0.0055
2042.00,0.0055
2041.00,0.0055
2040.00,0.0055
2039.00,0.0054
2038.00,0.0053
2037.00,0.0053
2036.00,0.0054
2035.00,0.0053
2034.00,0.0051
2033.00,0.0049
2032.00,0.0048
2031.00,0.0047
2030.00,0.0045
2029.00,0.0045
2028.00,0.0047
2027.00,0.0049
2026.00,0.0049
2025.00,0.0049
2024.00,0.0050
2023.00,0.0050
2022.00,0.0049
2021.00,0.0049
2020.00,0.0051
2019.00,0.0053
2018.00,0.0053
2017.00,0.0052
2016.00,0.0052
2015.00,0.0051
2014.00,0.0051
2013.00,0.0053
2012.00,0.0056
2011.00,0.0056
2010.00,0.0052
2009.00,0.0049
2008.00,0.0046
2007.00,0.0044
2006.00,0.0041
2005.00,0.0041
2004.00,0.0044
2003.00,0.0047
2002.00,0.0049
2001.00,0.0051
2000.00,0.0053
1999.00,0.0054
1998.00,0.0054
1997.00,0.0054
1996.00,0.0054
1995.00,0.0054
1994.00,0.0053
1993.00,0.0053
1992.00,0.0055
1991.00,0.0057
1990.00,0.0057
1989.00,0.0057
1988.00,0.0058
1987.00,0.0059
1986.00,0.0059
1985.00,0.0061
1984.00,0.0064
1983.00,0.0069
1982.00,0.0071
1981.00,0.0072
1980.00,0.0071
1979.00,0.0065
1978.00,0.0057
1977.00,0.0052
1976.00,0.0051
1975.00,0.0050
1974.00,0.0047
1973.00,0.0045
1972.00,0.0045
1971.00,0.0045
1970.00,0.0044
1969.00,0.0044
1968.00,0.0046
1967.00,0.0047
1966.00,0.0047
1965.00,0.0047
1964.00,0.0048
1963.00,0.0047
1962.00,0.0044
1961.00,0.0041
1960.00,0.0040
1959.00,0.0039
1958.00,0.0039
1957.00,0.0041
1956.00,0.0043
1955.00,0.0044
1954.00,0.0043
1953.00,0.0043
1952.00,0.0043
1951.00,0.0044
1950.00,0.0044
1949.00,0.0044
1948.00,0.0046
1947.00,0.0046
1946.00,0.0045
1945.00,0.0045
1944.00,0.0047
1943.00,0.0049
1942.00,0.0050
1941.00,0.0051
1940.00,0.0052
1939.00,0.0052
1938.00,0.0051
1937.00,0.0050
1936.00,0.0051
1935.00,0.0051
1934.00,0.0051
1933.00,0.0051
1932.00,0.0052
1931.00,0.0052
1930.00,0.0052
1929.00,0.0052
1928.00,0.0053
1927.00,0.0053
1926.00,0.0053
1925.00,0.0054
1924.00,0.0056
1923.00,0.0058
1922.00,0.0058
1921.00,0.0059
1920.00,0.0061
1919.00,0.0064
1918.00,0.0065
1917.00,0.0066
1916.00,0.0068
1915.00,0.0068
1914.00,0.0066
1913.00,0.0065
1912.00,0.0065
1911.00,0.0064
1910.00,0.0063
1909.00,0.0062
1908.00,0.0061
1907.00,0.0060
1906.00,0.0058
1905.00,0.0057
1904.00,0.0057
1903.00,0.0056
1902.00,0.0055
1901.00,0.0054
1900.00,0.0054
1899.00,0.0054
1898.00,0.0053
1897.00,0.0053
1896.00,0.0053
1895.00,0.0053
1894.00,0.0052
1893.00,0.0052
1892.00,0.0052
1891.00,0.0053
1890.00,0.0053
1889.00,0.0054
1888.00,0.0054
1887.00,0.0055
1886.00,0.0055
1885.00,0.0055
1884.00,0.0056
1883.00,0.0056
1882.00,0.0056
1881.00,0.0055
1880.00,0.0055
1879.00,0.0055
1878.00,0.0054
1877.00,0.0054
1876.00,0.0055
1875.00,0.0055
1874.00,0.0054
1873.00,0.0053
1872.00,0.0053
1871.00,0.0053
1870.00,0.0053
1869.00,0.0054
1868.00,0.0054
1867.00,0.0054
1866.00,0.0053
1865.00,0.0053
1864.00,0.0054
1863.00,0.0054
1862.00,0.0054
1861.00,0.0055
1860.00,0.0057
1859.00,0.0058
1858.00,0.0059
1857.00,0.0060
1856.00,0.0061
1855.00,0.0062
1854.00,0.0062
1853.00,0.0062
1852.00,0.0062
1851.00,0.0060
1850.00,0.0058
1849.00,0.0056
1848.00,0.0055
1847.00,0.0053
1846.00,0.0052
1845.00,0.0052
1844.00,0.0054
1843.00,0.0054
1842.00,0.0053
1841.00,0.0053
1840.00,0.0053
1839.00,0.0053
1838.00,0.0053
1837.00,0.0052
1836.00,0.0053
1835.00,0.0052
1834.00,0.0051
1833.00,0.0050
1832.00,0.0050
1831.00,0.0051
1830.00,0.0051
1829.00,0.0050
1828.00,0.0049
1827.00,0.0049
1826.00,0.0049
1825.00,0.0049
1824.00,0.0050
1823.00,0.0050
1822.00,0.0049
1821.00,0.0048
1820.00,0.0048
1819.00,0.0048
1818.00,0.0046
1817.00,0.0046
1816.00,0.0047
1815.00,0.0048
1814.00,0.0049
1813.00,0.0050
1812.00,0.0051
1811.00,0.0052
1810.00,0.0052
1809.00,0.0052
1808.00,0.0053
1807.00,0.0053
1806.00,0.0053
1805.00,0.0053
1804.00,0.0053
1803.00,0.0054
1802.00,0.0054
1801.00,0.0055
1800.00,0.0056
1799.00,0.0057
1798.00,0.0057
1797.00,0.0058
1796.00,0.0059
1795.00,0.0059
1794.00,0.0059
1793.00,0.0060
1792.00,0.0061
1791.00,0.0061
1790.00,0.0060
1789.00,0.0059
1788.00,0.0059
1787.00,0.0059
1786.00,0.0058
1785.00,0.0058
1784.00,0.0059
1783.00,0.0059
1782.00,0.0059
1781.00,0.0059
1780.00,0.0059
1779.00,0.0059
1778.00,0.0058
1777.00,0.0058
1776.00,0.0059
1775.00,0.0059
1774.00,0.0060
1773.00,0.0061
1772.00,0.0062
1771.00,0.0061
1770.00,0.0059
1769.00,0.0060
1768.00,0.0061
1767.00,0.0063
1766.00,0.0063
1765.00,0.0063
1764.00,0.0064
1763.00,0.0066
1762.00,0.0066
1761.00,0.0067
1760.00,0.0069
1759.00,0.0070
1758.00,0.0070
1757.00,0.0071
1756.00,0.0073
1755.00,0.0073
1754.00,0.0071
1753.00,0.0071
1752.00,0.0073
1751.00,0.0075
1750.00,0.0075
1749.00,0.0076
1748.00,0.0078
1747.00,0.0078
1746.00,0.0078
1745.00,0.0078
1744.00,0.0080
1743.00,0.0080
1742.00,0.0080
1741.00,0.0081
1740.00,0.0084
1739.00,0.0086
1738.00,0.0084
1737.00,0.0083
1736.00,0.0086
1735.00,0.0090
1734.00,0.0092
1733.00,0.0094
1732.00,0.0097
1731.00,0.0099
1730.00,0.0100
1729.00,0.0101
1728.00,0.0104
1727.00,0.0107
1726.00,0.0108
1725.00,0.0111
1724.00,0.0116
1723.00,0.0120
1722.00,0.0122
1721.00,0.0125
1720.00,0.0133
1719.00,0.0144
1718.00,0.0155
1717.00,0.0169
1716.00,0.0186
1715.00,0.0204
1714.00,0.0223
1713.00,0.0246
1712.00,0.0277
1711.00,0.0313
1710.00,0.0353
1709.00,0.0403
1708.00,0.0465
1707.00,0.0544
1706.00,0.0642
1705.00,0.0753
1704.00,0.0861
1703.00,0.0958
1702.00,0.1059
1701.00,0.1191
1700.00,0.1344
1699.00,0.1467
1698.00,0.1540
1697.00,0.1581
1696.00,0.1604
1695.00,0.1620
1694.00,0.1634
1693.00,0.1650
1692.00,0.1671
1691.00,0.1698
1690.00,0.1728
1689.00,0.1752
1688.00,0.1761
1687.00,0.1755
1686.00,0.1723
1685.00,0.1647
1684.00,0.1532
1683.00,0.1421
1682.00,0.1332
1681.00,0.1249
1680.00,0.1160
1679.00,0.1073
1678.00,0.0995
1677.00,0.0921
1676.00,0.0843
1675.00,0.0769
1674.00,0.0710
1673.00,0.0667
1672.00,0.0631
1671.00,0.0598
1670.00,0.0566
1669.00,0.0536
1668.00,0.0510
1667.00,0.0490
1666.00,0.0475
1665.00,0.0461
1664.00,0.0447
1663.00,0.0432
1662.00,0.0421
1661.00,0.0411
1660.00,0.0403
1659.00,0.0399
1658.00,0.0397
1657.00,0.0396
1656.00,0.0397
1655.00,0.0405
1654.00,0.0425
1653.00,0.0457
1652.00,0.0491
1651.00,0.0521
1650.00,0.0551
1649.00,0.0588
1648.00,0.0638
1647.00,0.0701
1646.00,0.0763
1645.00,0.0806
1644.00,0.0827
1643.00,0.0828
1642.00,0.0812
1641.00,0.0784
1640.00,0.0747
1639.00,0.0709
1638.00,0.0673
1637.00,0.0639
1636.00,0.0607
1635.00,0.0585
1634.00,0.0578
1633.00,0.0583
1632.00,0.0596
1631.00,0.0616
1630.00,0.0646
1629.00,0.0685
1628.00,0.0733
1627.00,0.0785
1626.00,0.0835
1625.00,0.0885
1624.00,0.0935
1623.00,0.0983
1622.00,0.1019
1621.00,0.1040
1620.00,0.1049
1619.00,0.1048
1618.00,0.1032
1617.00,0.0999
1616.00,0.0957
1615.00,0.0914
1614.00,0.0875
1613.00,0.0835
1612.00,0.0793
1611.00,0.0751
1610.00,0.0710
1609.00,0.0671
1608.00,0.0634
1607.00,0.0600
1606.00,0.0570
1605.00,0.0543
1604.00,0.0517
1603.00,0.0493
1602.00,0.0471
1601.00,0.0449
1600.00,0.0429
1599.00,0.0411
1598.00,0.0394
1597.00,0.0378
1596.00,0.0363
1595.00,0.0350
1594.00,0.0338
1593.00,0.0328
1592.00,0.0319
1591.00,0.0310
1590.00,0.0302
1589.00,0.0294
1588.00,0.0285
1587.00,0.0279
1586.00,0.0274
1585.00,0.0273
1584.00,0.0274
1583.00,0.0278
1582.00,0.0281
1581.00,0.0281
1580.00,0.0277
1579.00,0.0268
1578.00,0.0258
1577.00,0.0245
1576.00,0.0229
1575.00,0.0216
1574.00,0.0207
1573.00,0.0200
1572.00,0.0194
1571.00,0.0189
1570.00,0.0184
1569.00,0.0180
1568.00,0.0177
1567.00,0.0177
1566.00,0.0179
1565.00,0.0185
1564.00,0.0190
1563.00,0.0195
1562.00,0.0198
1561.00,0.0200
1560.00,0.0200
1559.00,0.0188
1558.00,0.0174
1557.00,0.0165
1556.00,0.0160
1555.00,0.0157
1554.00,0.0154
1553.00,0.0151
1552.00,0.0149
1551.00,0.0147
1550.00,0.0146
1549.00,0.0144
1548.00,0.0143
1547.00,0.0141
1546.00,0.0141
1545.00,0.0140
1544.00,0.0139
1543.00,0.0139
1542.00,0.0140
1541.00,0.0142
1540.00,0.0142
1539.00,0.0143
1538.00,0.0144
1537.00,0.0145
1536.00,0.0146
1535.00,0.0149
1534.00,0.0153
1533.00,0.0157
1532.00,0.0160
1531.00,0.0163
1530.00,0.0166
1529.00,0.0168
1528.00,0.0171
1527.00,0.0175
1526.00,0.0180
1525.00,0.0184
1524.00,0.0190
1523.00,0.0197
1522.00,0.0206
1521.00,0.0216
1520.00,0.0226
1519.00,0.0237
1518.00,0.0251
1517.00,0.0267
1516.00,0.0285
1515.00,0.0304
1514.00,0.0325
1513.00,0.0349
1512.00,0.0377
1511.00,0.0407
1510.00,0.0440
1509.00,0.0478
1508.00,0.0533
1507.00,0.0615
1506.00,0.0717
1505.00,0.0814
1504.00,0.0901
1503.00,0.0988
1502.00,0.1086
1501.00,0.1197
1500.00,0.1316
1499.00,0.1437
1498.00,0.1555
1497.00,0.1661
1496.00,0.1740
1495.00,0.1788
1494.00,0.1809
1493.00,0.1806
1492.00,0.1778
1491.00,0.1728
1490.00,0.1660
1489.00,0.1583
1488.00,0.1503
1487.00,0.1425
1486.00,0.1352
1485.00,0.1284
1484.00,0.1219
1483.00,0.1157
1482.00,0.1096
1481.00,0.1040
1480.00,0.0989
1479.00,0.0945
1478.00,0.0905
1477.00,0.0869
1476.00,0.0833
1475.00,0.0801
1474.00,0.0770
1473.00,0.0741
1472.00,0.0714
1471.00,0.0694
1470.00,0.0681
1469.00,0.0671
1468.00,0.0662
1467.00,0.0655
1466.00,0.0652
1465.00,0.0653
1464.00,0.0659
1463.00,0.0666
1462.00,0.0672
1461.00,0.0676
1460.00,0.0674
1459.00,0.0666
1458.00,0.0651
1457.00,0.0631
1456.00,0.0615
1455.00,0.0606
1454.00,0.0603
1453.00,0.0604
1452.00,0.0611
1451.00,0.0626
1450.00,0.0656
1449.00,0.0707
1448.00,0.0777
1447.00,0.0846
1446.00,0.0890
1445.00,0.0894
1444.00,0.0862
1443.00,0.0811
1442.00,0.0759
1441.00,0.0719
1440.00,0.0693
1439.00,0.0680
1438.00,0.0682
1437.00,0.0705
1436.00,0.0748
1435.00,0.0802
1434.00,0.0857
1433.00,0.0905
1432.00,0.0938
1431.00,0.0944
1430.00,0.0923
1429.00,0.0886
1428.00,0.0844
1427.00,0.0803
1426.00,0.0766
1425.00,0.0734
1424.00,0.0720
1423.00,0.0734
1422.00,0.0785
1421.00,0.0879
1420.00,0.1014
1419.00,0.1147
1418.00,0.1214
1417.00,0.1195
1416.00,0.1118
1415.00,0.1020
1414.00,0.0922
1413.00,0.0834
1412.00,0.0757
1411.00,0.0690
1410.00,0.0635
1409.00,0.0589
1408.00,0.0551
1407.00,0.0519
1406.00,0.0490
1405.00,0.0465
1404.00,0.0441
1403.00,0.0422
1402.00,0.0406
1401.00,0.0392
1400.00,0.0381
1399.00,0.0371
1398.00,0.0363
1397.00,0.0358
1396.00,0.0354
1395.00,0.0353
1394.00,0.0355
1393.00,0.0361
1392.00,0.0369
1391.00,0.0382
1390.00,0.0400
1389.00,0.0428
1388.00,0.0468
1387.00,0.0522
1386.00,0.0585
1385.00,0.0650
1384.00,0.0713
1383.00,0.0770
1382.00,0.0814
1381.00,0.0838
1380.00,0.0835
1379.00,0.0806
1378.00,0.0757
1377.00,0.0696
1376.00,0.0630
1375.00,0.0566
1374.00,0.0510
1373.00,0.0469
1372.00,0.0443
1371.00,0.0429
1370.00,0.0427
1369.00,0.0435
1368.00,0.0454
1367.00,0.0483
1366.00,0.0517
1365.00,0.0547
1364.00,0.0560
1363.00,0.0544
1362.00,0.0502
1361.00,0.0446
1360.00,0.0391
1359.00,0.0344
1358.00,0.0306
1357.00,0.0276
1356.00,0.0252
1355.00,0.0233
1354.00,0.0219
1353.00,0.0208
1352.00,0.0199
1351.00,0.0192
1350.00,0.0186
1349.00,0.0182
1348.00,0.0178
1347.00,0.0175
1346.00,0.0173
1345.00,0.0172
1344.00,0.0171
1343.00,0.0170
1342.00,0.0169
1341.00,0.0169
1340.00,0.0169
1339.00,0.0169
1338.00,0.0170
1337.00,0.0171
1336.00,0.0172
1335.00,0.0173
1334.00,0.0175
1333.00,0.0177
1332.00,0.0178
1331.00,0.0181
1330.00,0.0184
1329.00,0.0187
1328.00,0.0191
1327.00,0.0196
1326.00,0.0202
1325.00,0.0209
1324.00,0.0218
1323.00,0.0230
1322.00,0.0245
1321.00,0.0264
1320.00,0.0285
1319.00,0.0310
1318.00,0.0336
1317.00,0.0364
1316.00,0.0394
1315.00,0.0427
1314.00,0.0470
1313.00,0.0528
1312.00,0.0603
1311.00,0.0696
1310.00,0.0798
1309.00,0.0896
1308.00,0.0971
1307.00,0.1008
1306.00,0.1002
1305.00,0.0961
1304.00,0.0897
1303.00,0.0823
1302.00,0.0747
1301.00,0.0678
1300.00,0.0620
1299.00,0.0575
1298.00,0.0544
1297.00,0.0526
1296.00,0.0522
1295.00,0.0528
1294.00,0.0544
1293.00,0.0568
1292.00,0.0599
1291.00,0.0635
1290.00,0.0677
1289.00,0.0725
1288.00,0.0782
1287.00,0.0847
1286.00,0.0924
1285.00,0.1013
1284.00,0.1114
1283.00,0.1228
1282.00,0.1353
1281.00,0.1485
1280.00,0.1617
1279.00,0.1738
1278.00,0.1834
1277.00,0.1897
1276.00,0.1919
1275.00,0.1899
1274.00,0.1843
1273.00,0.1761
1272.00,0.1662
1271.00,0.1555
1270.00,0.1445
1269.00,0.1338
1268.00,0.1236
1267.00,0.1140
1266.00,0.1051
1265.00,0.0970
1264.00,0.0895
1263.00,0.0827
1262.00,0.0765
1261.00,0.0707
1260.00,0.0655
1259.00,0.0607
1258.00,0.0565
1257.00,0.0528
1256.00,0.0496
1255.00,0.0470
1254.00,0.0451
1253.00,0.0441
1252.00,0.0439
1251.00,0.0443
1250.00,0.0448
1249.00,0.0447
1248.00,0.0437
1247.00,0.0419
1246.00,0.0397
1245.00,0.0375
1244.00,0.0354
1243.00,0.0337
1242.00,0.0322
1241.00,0.0311
1240.00,0.0301
1239.00,0.0293
1238.00,0.0288
1237.00,0.0284
1236.00,0.0283
1235.00,0.0283
1234.00,0.0285
1233.00,0.0289
1232.00,0.0295
1231.00,0.0302
1230.00,0.0312
1229.00,0.0324
1228.00,0.0336
1227.00,0.0349
1226.00,0.0363
1225.00,0.0379
1224.00,0.0396
1223.00,0.0415
1222.00,0.0438
1221.00,0.0465
1220.00,0.0495
1219.00,0.0529
1218.00,0.0565
1217.00,0.0604
1216.00,0.0647
1215.00,0.0700
1214.00,0.0767
1213.00,0.0854
1212.00,0.0962
1211.00,0.1092
1210.00,0.1238
1209.00,0.1393
1208.00,0.1546
1207.00,0.1684
1206.00,0.1798
1205.00,0.1880
1204.00,0.1928
1203.00,0.1941
1202.00,0.1924
1201.00,0.1880
1200.00,0.1816
1199.00,0.1737
1198.00,0.1651
1197.00,0.1565
1196.00,0.1486
1195.00,0.1420
1194.00,0.1371
1193.00,0.1340
1192.00,0.1326
1191.00,0.1323
1190.00,0.1325
1189.00,0.1324
1188.00,0.1315
1187.00,0.1293
1186.00,0.1258
1185.00,0.1212
1184.00,0.1159
1183.00,0.1102
1182.00,0.1045
1181.00,0.0993
1180.00,0.0948
1179.00,0.0915
1178.00,0.0894
1177.00,0.0889
1176.00,0.0900
1175.00,0.0924
1174.00,0.0953
1173.00,0.0976
1172.00,0.0978
1171.00,0.0951
1170.00,0.0896
1169.00,0.0824
1168.00,0.0745
1167.00,0.0669
1166.00,0.0603
1165.00,0.0547
1164.00,0.0502
1163.00,0.0465
1162.00,0.0437
1161.00,0.0416
1160.00,0.0403
1159.00,0.0398
1158.00,0.0403
1157.00,0.0419
1156.00,0.0444
1155.00,0.0471
1154.00,0.0491
1153.00,0.0498
1152.00,0.0497
1151.00,0.0497
1150.00,0.0509
1149.00,0.0542
1148.00,0.0597
1147.00,0.0672
1146.00,0.0763
1145.00,0.0863
1144.00,0.0964
1143.00,0.1058
1142.00,0.1139
1141.00,0.1207
1140.00,0.1259
1139.00,0.1297
1138.00,0.1319
1137.00,0.1326
1136.00,0.1316
1135.00,0.1288
1134.00,0.1244
1133.00,0.1188
1132.00,0.1124
1131.00,0.1059
1130.00,0.0996
1129.00,0.0940
1128.00,0.0894
1127.00,0.0860
1126.00,0.0842
1125.00,0.0839
1124.00,0.0856
1123.00,0.0894
1122.00,0.0956
1121.00,0.1044
1120.00,0.1157
1119.00,0.1289
1118.00,0.1427
1117.00,0.1553
1116.00,0.1648
1115.00,0.1698
1114.00,0.1699
1113.00,0.1661
1112.00,0.1599
1111.00,0.1529
1110.00,0.1468
1109.00,0.1431
1108.00,0.1425
1107.00,0.1453
1106.00,0.1508
1105.00,0.1582
1104.00,0.1667
1103.00,0.1766
1102.00,0.1883
1101.00,0.2018
1100.00,0.2158
1099.00,0.2280
1098.00,0.2366
1097.00,0.2407
1096.00,0.2405
1095.00,0.2364
1094.00,0.2294
1093.00,0.2205
1092.00,0.2105
1091.00,0.2000
1090.00,0.1893
1089.00,0.1788
1088.00,0.1688
1087.00,0.1591
1086.00,0.1501
1085.00,0.1417
1084.00,0.1341
1083.00,0.1270
1082.00,0.1205
1081.00,0.1145
1080.00,0.1091
1079.00,0.1041
1078.00,0.0993
1077.00,0.0949
1076.00,0.0908
1075.00,0.0870
1074.00,0.0836
1073.00,0.0807
1072.00,0.0784
1071.00,0.0768
1070.00,0.0760
1069.00,0.0764
1068.00,0.0780
1067.00,0.0810
1066.00,0.0857
1065.00,0.0920
1064.00,0.0997
1063.00,0.1082
1062.00,0.1164
1061.00,0.1233
1060.00,0.1279
1059.00,0.1298
1058.00,0.1288
1057.00,0.1258
1056.00,0.1213
1055.00,0.1162
1054.00,0.1108
1053.00,0.1058
1052.00,0.1014
1051.00,0.0978
1050.00,0.0951
1049.00,0.0937
1048.00,0.0939
1047.00,0.0960
1046.00,0.1001
1045.00,0.1061
1044.00,0.1127
1043.00,0.1186
1042.00,0.1223
1041.00,0.1230
1040.00,0.1212
1039.00,0.1176
1038.00,0.1136
1037.00,0.1101
1036.00,0.1076
1035.00,0.1061
1034.00,0.1057
1033.00,0.1064
1032.00,0.1083
1031.00,0.1112
1030.00,0.1151
1029.00,0.1199
1028.00,0.1252
1027.00,0.1305
1026.00,0.1351
1025.00,0.1387
1024.00,0.1410
1023.00,0.1416
1022.00,0.1405
1021.00,0.1379
1020.00,0.1341
1019.00,0.1294
1018.00,0.1241
1017.00,0.1187
1016.00,0.1135
1015.00,0.1084
1014.00,0.1037
1013.00,0.0993
1012.00,0.0955
1011.00,0.0922
1010.00,0.0893
1009.00,0.0870
1008.00,0.0851
1007.00,0.0834
1006.00,0.0819
1005.00,0.0802
1004.00,0.0781
1003.00,0.0757
1002.00,0.0730
1001.00,0.0705
1000.00,0.0681
999.00,0.0660
998.00,0.0642
997.00,0.0626
996.00,0.0612
995.00,0.0600
994.00,0.0589
993.00,0.0579
992.00,0.0571
991.00,0.0563
990.00,0.0557
989.00,0.0553
988.00,0.0550
987.00,0.0549
986.00,0.0549
985.00,0.0551
984.00,0.0555
983.00,0.0560
982.00,0.0567
981.00,0.0576
980.00,0.0585
979.00,0.0595
978.00,0.0603
977.00,0.0609
976.00,0.0612
975.00,0.0611
974.00,0.0604
973.00,0.0592
972.00,0.0577
971.00,0.0559
970.00,0.0539
969.00,0.0519
968.00,0.0500
967.00,0.0482
966.00,0.0467
965.00,0.0455
964.00,0.0447
963.00,0.0443
962.00,0.0443
961.00,0.0446
960.00,0.0451
959.00,0.0457
958.00,0.0462
957.00,0.0466
956.00,0.0467
955.00,0.0461
954.00,0.0450
953.00,0.0435
952.00,0.0419
951.00,0.0404
950.00,0.0391
949.00,0.0380
948.00,0.0370
947.00,0.0361
946.00,0.0353
945.00,0.0346
944.00,0.0340
943.00,0.0334
942.00,0.0329
941.00,0.0325
940.00,0.0321
939.00,0.0318
938.00,0.0314
937.00,0.0311
936.00,0.0309
935.00,0.0306
934.00,0.0303
933.00,0.0300
932.00,0.0298
931.00,0.0296
930.00,0.0294
929.00,0.0293
928.00,0.0292
927.00,0.0290
926.00,0.0288
925.00,0.0286
924.00,0.0284
923.00,0.0281
922.00,0.0279
921.00,0.0277
920.00,0.0275
919.00,0.0273
918.00,0.0271
917.00,0.0270
916.00,0.0269
915.00,0.0268
914.00,0.0266
913.00,0.0264
912.00,0.0263
911.00,0.0261
910.00,0.0260
909.00,0.0259
908.00,0.0258
907.00,0.0257
906.00,0.0257
905.00,0.0256
904.00,0.0256
903.00,0.0256
902.00,0.0256
901.00,0.0258
900.00,0.0260
899.00,0.0260
898.00,0.0258
897.00,0.0255
896.00,0.0252
895.00,0.0249
894.00,0.0246
893.00,0.0243
892.00,0.0241
891.00,0.0239
890.00,0.0237
889.00,0.0236
888.00,0.0235
887.00,0.0234
886.00,0.0232
885.00,0.0232
884.00,0.0233
883.00,0.0235
882.00,0.0239
881.00,0.0244
880.00,0.0248
879.00,0.0251
878.00,0.0251
877.00,0.0250
876.00,0.0248
875.00,0.0247
874.00,0.0248
873.00,0.0252
872.00,0.0260
871.00,0.0274
870.00,0.0298
869.00,0.0336
868.00,0.0395
867.00,0.0475
866.00,0.0571
865.00,0.0669
864.00,0.0743
863.00,0.0772
862.00,0.0753
861.00,0.0705
860.00,0.0656
859.00,0.0622
858.00,0.0610
857.00,0.0609
856.00,0.0605
855.00,0.0585
854.00,0.0548
853.00,0.0500
852.00,0.0451
851.00,0.0409
850.00,0.0374
849.00,0.0347
848.00,0.0326
847.00,0.0310
846.00,0.0298
845.00,0.0288
844.00,0.0280
843.00,0.0274
842.00,0.0268
841.00,0.0263
840.00,0.0258
839.00,0.0253
838.00,0.0247
837.00,0.0242
836.00,0.0238
835.00,0.0234
834.00,0.0231
833.00,0.0229
832.00,0.0229
831.00,0.0230
830.00,0.0234
829.00,0.0242
828.00,0.0255
827.00,0.0274
826.00,0.0296
825.00,0.0318
824.00,0.0332
823.00,0.0334
822.00,0.0325
821.00,0.0309
820.00,0.0293
819.00,0.0280
818.00,0.0269
817.00,0.0263
816.00,0.0258
815.00,0.0256
814.00,0.0256
813.00,0.0258
812.00,0.0265
811.00,0.0277
810.00,0.0295
809.00,0.0322
808.00,0.0364
807.00,0.0428
806.00,0.0524
805.00,0.0662
804.00,0.0841
803.00,0.1038
802.00,0.1202
801.00,0.1277
800.00,0.1240
799.00,0.1115
798.00,0.0953
797.00,0.0798
796.00,0.0672
795.00,0.0577
794.00,0.0508
793.00,0.0461
792.00,0.0434
791.00,0.0420
790.00,0.0410
789.00,0.0396
788.00,0.0376
787.00,0.0352
786.00,0.0328
785.00,0.0310
784.00,0.0299
783.00,0.0295
782.00,0.0297
781.00,0.0305
780.00,0.0320
779.00,0.0340
778.00,0.0366
777.00,0.0401
776.00,0.0451
775.00,0.0521
774.00,0.0612
773.00,0.0721
772.00,0.0831
771.00,0.0914
770.00,0.0948
769.00,0.0926
768.00,0.0857
767.00,0.0762
766.00,0.0664
765.00,0.0578
764.00,0.0509
763.00,0.0455
762.00,0.0415
761.00,0.0386
760.00,0.0366
759.00,0.0351
758.00,0.0341
757.00,0.0333
756.00,0.0329
755.00,0.0327
754.00,0.0327
753.00,0.0330
752.00,0.0337
751.00,0.0348
750.00,0.0362
749.00,0.0384
748.00,0.0415
747.00,0.0457
746.00,0.0514
745.00,0.0586
744.00,0.0668
743.00,0.0740
742.00,0.0776
741.00,0.0766
740.00,0.0728
739.00,0.0705
738.00,0.0747
737.00,0.0881
736.00,0.1082
735.00,0.1282
734.00,0.1403
733.00,0.1417
732.00,0.1365
731.00,0.1323
730.00,0.1345
729.00,0.1447
728.00,0.1596
727.00,0.1727
726.00,0.1773
725.00,0.1702
724.00,0.1540
723.00,0.1337
722.00,0.1140
721.00,0.0971
720.00,0.0837
719.00,0.0732
718.00,0.0652
717.00,0.0589
716.00,0.0540
715.00,0.0501
714.00,0.0468
713.00,0.0442
712.00,0.0420
711.00,0.0401
710.00,0.0383
709.00,0.0367
708.00,0.0353
707.00,0.0340
706.00,0.0328
705.00,0.0318
704.00,0.0308
703.00,0.0300
702.00,0.0292
701.00,0.0285
700.00,0.0279
699.00,0.0274
698.00,0.0270
697.00,0.0266
696.00,0.0263
695.00,0.0261
694.00,0.0259
693.00,0.0259
692.00,0.0261
691.00,0.0267
690.00,0.0276
689.00,0.0289
688.00,0.0304
687.00,0.0317
686.00,0.0323
685.00,0.0322
684.00,0.0317
683.00,0.0311
682.00,0.0307
681.00,0.0307
680.00,0.0311
679.00,0.0320
678.00,0.0334
677.00,0.0355
676.00,0.0388
675.00,0.0435
674.00,0.0501
673.00,0.0585
672.00,0.0680
671.00,0.0769
670.00,0.0833
669.00,0.0849
668.00,0.0800
667.00,0.0708
666.00,0.0619
665.00,0.0548
664.00,0.0487
663.00,0.0434
662.00,0.0392
661.00,0.0362
660.00,0.0341
659.00,0.0326
658.00,0.0315
657.00,0.0307
656.00,0.0301
655.00,0.0296
654.00,0.0293
653.00,0.0291
652.00,0.0289
651.00,0.0289
650.00,0.0289
649.00,0.0291
648.00,0.0293
647.00,0.0295
646.00,0.0298
645.00,0.0301
644.00,0.0304
643.00,0.0307
642.00,0.0311
641.00,0.0316
640.00,0.0322
639.00,0.0328
638.00,0.0335
637.00,0.0343
636.00,0.0352
635.00,0.0362
634.00,0.0373
633.00,0.0384
632.00,0.0397
631.00,0.0411
630.00,0.0426
629.00,0.0443
628.00,0.0463
627.00,0.0484
626.00,0.0508
625.00,0.0534
624.00,0.0563
623.00,0.0593
622.00,0.0625
621.00,0.0660
620.00,0.0696
619.00,0.0732
618.00,0.0767
617.00,0.0798
616.00,0.0825
615.00,0.0843
614.00,0.0849
613.00,0.0842
612.00,0.0822
611.00,0.0788
610.00,0.0741
609.00,0.0687
608.00,0.0631
607.00,0.0574
606.00,0.0521
605.00,0.0474
604.00,0.0438
603.00,0.0413
602.00,0.0397
601.00,0.0392
600.00,0.0398
599.00,0.0411
598.00,0.0430
597.00,0.0455
596.00,0.0487
595.00,0.0520
594.00,0.0549
593.00,0.0565
592.00,0.0563
591.00,0.0545
590.00,0.0516
589.00,0.0489
588.00,0.0471
587.00,0.0463
586.00,0.0464
585.00,0.0473
584.00,0.0488
583.00,0.0507
582.00,0.0529
581.00,0.0555
580.00,0.0584
579.00,0.0615
578.00,0.0648
577.00,0.0683
576.00,0.0722
575.00,0.0762
574.00,0.0801
573.00,0.0839
572.00,0.0879
571.00,0.0919
570.00,0.0959
569.00,0.0999
568.00,0.1036
567.00,0.1067
566.00,0.1090
565.00,0.1108
564.00,0.1122
563.00,0.1129
562.00,0.1127
561.00,0.1117
560.00,0.1101
559.00,0.1077
558.00,0.1046
557.00,0.1013
556.00,0.0979
555.00,0.0944
554.00,0.0907
553.00,0.0871
552.00,0.0837
551.00,0.0806
550.00,0.0774
549.00,0.0746
548.00,0.0721
547.00,0.0699
546.00,0.0680
545.00,0.0668
544.00,0.0669
543.00,0.0685
542.00,0.0715
541.00,0.0754
540.00,0.0790
539.00,0.0805
538.00,0.0788
537.00,0.0747
536.00,0.0695
535.00,0.0644
534.00,0.0598
533.00,0.0560
532.00,0.0530
531.00,0.0505
530.00,0.0482
529.00,0.0462
528.00,0.0446
527.00,0.0430
526.00,0.0414
525.00,0.0401
524.00,0.0391
523.00,0.0383
522.00,0.0373
521.00,0.0364
520.00,0.0357
519.00,0.0349
518.00,0.0340
517.00,0.0332
516.00,0.0328
515.00,0.0323
514.00,0.0316
513.00,0.0308
512.00,0.0302
511.00,0.0297
510.00,0.0293
509.00,0.0291
508.00,0.0289
507.00,0.0286
506.00,0.0280
505.00,0.0276
504.00,0.0276
503.00,0.0278
502.00,0.0276
501.00,0.0273
500.00,0.0268
499.00,0.0264
498.00,0.0260
497.00,0.0259
496.00,0.0259
495.00,0.0257
494.00,0.0252
493.00,0.0247
492.00,0.0245
491.00,0.0243
490.00,0.0241
489.00,0.0239
488.00,0.0239
487.00,0.0238
486.00,0.0236
485.00,0.0235
484.00,0.0237
483.00,0.0239
482.00,0.0239
481.00,0.0239
480.00,0.0241
479.00,0.0242
478.00,0.0239
477.00,0.0238
476.00,0.0240
475.00,0.0245
474.00,0.0255
473.00,0.0277
472.00,0.0313
471.00,0.0352
470.00,0.0384
469.00,0.0408
468.00,0.0426
467.00,0.0437
466.00,0.0444
465.00,0.0458
464.00,0.0487
463.00,0.0533
462.00,0.0589
461.00,0.0644
460.00,0.0684
459.00,0.0688
458.00,0.0651
457.00,0.0588
456.00,0.0525
455.00,0.0467
454.00,0.0413
453.00,0.0368
452.00,0.0336
451.00,0.0312
450.00,0.0290
449.00,0.0273
448.00,0.0263
447.00,0.0255
446.00,0.0245
445.00,0.0235
444.00,0.0231
443.00,0.0227
442.00,0.0221
441.00,0.0217
440.00,0.0218
439.00,0.0219
438.00,0.0217
437.00,0.0216
436.00,0.0219
435.00,0.0220
434.00,0.0216
433.00,0.0214
432.00,0.0217
431.00,0.0222
430.00,0.0225
429.00,0.0229
428.00,0.0237
427.00,0.0244
426.00,0.0248
425.00,0.0255
424.00,0.0271
423.00,0.0289
422.00,0.0300
421.00,0.0309
420.00,0.0325
419.00,0.0342
418.00,0.0354
417.00,0.0364
416.00,0.0377
415.00,0.0380
414.00,0.0371
413.00,0.0358
412.00,0.0350
411.00,0.0337
410.00,0.0318
409.00,0.0308
408.00,0.0311
407.00,0.0312
406.00,0.0298
405.00,0.0280
404.00,0.0274
403.00,0.0277
402.00,0.0282
401.00,0.0300
400.00,0.0339
