Created as New Dataset,Sample 914 By YargerLab Date Thursday, July 24 2025
cm-1,A
4000.00,0.0046
3999.00,0.0046
3998.00,0.0046
3997.00,0.0046
3996.00,0.0046
3995.00,0.0046
3994.00,0.0046
3993.00,0.0046
3992.00,0.0046
3991.00,0.0046
3990.00,0.0046
3989.00,0.0045
3988.00,0.0046
3987.00,0.0046
3986.00,0.0046
3985.00,0.0046
3984.00,0.0046
3983.00,0.0046
3982.00,0.0046
3981.00,0.0046
3980.00,0.0046
3979.00,0.0046
3978.00,0.0046
3977.00,0.0046
3976.00,0.0046
3975.00,0.0046
3974.00,0.0046
3973.00,0.0046
3972.00,0.0046
3971.00,0.0046
3970.00,0.0046
3969.00,0.0046
3968.00,0.0046
3967.00,0.0046
3966.00,0.0047
3965.00,0.0047
3964.00,0.0046
3963.00,0.0046
3962.00,0.0046
3961.00,0.0046
3960.00,0.0046
3959.00,0.0046
3958.00,0.0046
3957.00,0.0046
3956.00,0.0046
3955.00,0.0046
3954.00,0.0046
3953.00,0.0046
3952.00,0.0046
3951.00,0.0046
3950.00,0.0046
3949.00,0.0046
3948.00,0.0046
3947.00,0.0046
3946.00,0.0046
3945.00,0.0046
3944.00,0.0046
3943.00,0.0046
3942.00,0.0046
3941.00,0.0046
3940.00,0.0046
3939.00,0.0046
3938.00,0.0046
3937.00,0.0046
3936.00,0.0046
3935.00,0.0046
3934.00,0.0045
3933.00,0.0045
3932.00,0.0045
3931.00,0.0045
3930.00,0.0045
3929.00,0.0046
3928.00,0.0046
3927.00,0.0046
3926.00,0.0046
3925.00,0.0046
3924.00,0.0046
3923.00,0.0046
3922.00,0.0046
3921.00,0.0046
3920.00,0.0046
3919.00,0.0046
3918.00,0.0046
3917.00,0.0046
3916.00,0.0045
3915.00,0.0045
3914.00,0.0045
3913.00,0.0045
3912.00,0.0045
3911.00,0.0045
3910.00,0.0045
3909.00,0.0045
3908.00,0.0046
3907.00,0.0046
3906.00,0.0046
3905.00,0.0046
3904.00,0.0046
3903.00,0.0046
3902.00,0.0046
3901.00,0.0046
3900.00,0.0045
3899.00,0.0045
3898.00,0.0045
3897.00,0.0046
3896.00,0.0046
3895.00,0.0046
3894.00,0.0046
3893.00,0.0046
3892.00,0.0046
3891.00,0.0046
3890.00,0.0046
3889.00,0.0046
3888.00,0.0046
3887.00,0.0046
3886.00,0.0046
3885.00,0.0046
3884.00,0.0046
3883.00,0.0046
3882.00,0.0045
3881.00,0.0045
3880.00,0.0045
3879.00,0.0045
3878.00,0.0045
3877.00,0.0045
3876.00,0.0045
3875.00,0.0045
3874.00,0.0045
3873.00,0.0045
3872.00,0.0046
3871.00,0.0046
3870.00,0.0046
3869.00,0.0046
3868.00,0.0046
3867.00,0.0046
3866.00,0.0046
3865.00,0.0046
3864.00,0.0046
3863.00,0.0045
3862.00,0.0045
3861.00,0.0045
3860.00,0.0045
3859.00,0.0045
3858.00,0.0045
3857.00,0.0046
3856.00,0.0046
3855.00,0.0046
3854.00,0.0046
3853.00,0.0045
3852.00,0.0045
3851.00,0.0045
3850.00,0.0044
3849.00,0.0044
3848.00,0.0044
3847.00,0.0044
3846.00,0.0045
3845.00,0.0045
3844.00,0.0045
3843.00,0.0045
3842.00,0.0045
3841.00,0.0045
3840.00,0.0045
3839.00,0.0045
3838.00,0.0045
3837.00,0.0046
3836.00,0.0046
3835.00,0.0046
3834.00,0.0046
3833.00,0.0046
3832.00,0.0045
3831.00,0.0045
3830.00,0.0045
3829.00,0.0045
3828.00,0.0045
3827.00,0.0045
3826.00,0.0045
3825.00,0.0046
3824.00,0.0046
3823.00,0.0046
3822.00,0.0045
3821.00,0.0046
3820.00,0.0046
3819.00,0.0046
3818.00,0.0046
3817.00,0.0045
3816.00,0.0045
3815.00,0.0044
3814.00,0.0044
3813.00,0.0044
3812.00,0.0044
3811.00,0.0045
3810.00,0.0045
3809.00,0.0045
3808.00,0.0045
3807.00,0.0045
3806.00,0.0045
3805.00,0.0046
3804.00,0.0046
3803.00,0.0046
3802.00,0.0045
3801.00,0.0045
3800.00,0.0045
3799.00,0.0045
3798.00,0.0045
3797.00,0.0045
3796.00,0.0045
3795.00,0.0045
3794.00,0.0045
3793.00,0.0045
3792.00,0.0045
3791.00,0.0045
3790.00,0.0045
3789.00,0.0045
3788.00,0.0045
3787.00,0.0045
3786.00,0.0045
3785.00,0.0045
3784.00,0.0045
3783.00,0.0045
3782.00,0.0045
3781.00,0.0045
3780.00,0.0045
3779.00,0.0045
3778.00,0.0045
3777.00,0.0045
3776.00,0.0044
3775.00,0.0044
3774.00,0.0044
3773.00,0.0044
3772.00,0.0045
3771.00,0.0045
3770.00,0.0045
3769.00,0.0045
3768.00,0.0046
3767.00,0.0046
3766.00,0.0046
3765.00,0.0046
3764.00,0.0046
3763.00,0.0046
3762.00,0.0046
3761.00,0.0046
3760.00,0.0045
3759.00,0.0045
3758.00,0.0045
3757.00,0.0046
3756.00,0.0046
3755.00,0.0046
3754.00,0.0046
3753.00,0.0046
3752.00,0.0046
3751.00,0.0046
3750.00,0.0046
3749.00,0.0046
3748.00,0.0046
3747.00,0.0046
3746.00,0.0046
3745.00,0.0045
3744.00,0.0045
3743.00,0.0045
3742.00,0.0045
3741.00,0.0045
3740.00,0.0045
3739.00,0.0045
3738.00,0.0045
3737.00,0.0044
3736.00,0.0044
3735.00,0.0044
3734.00,0.0044
3733.00,0.0044
3732.00,0.0043
3731.00,0.0043
3730.00,0.0044
3729.00,0.0044
3728.00,0.0044
3727.00,0.0044
3726.00,0.0044
3725.00,0.0044
3724.00,0.0044
3723.00,0.0044
3722.00,0.0044
3721.00,0.0044
3720.00,0.0044
3719.00,0.0043
3718.00,0.0043
3717.00,0.0043
3716.00,0.0044
3715.00,0.0044
3714.00,0.0044
3713.00,0.0045
3712.00,0.0045
3711.00,0.0044
3710.00,0.0044
3709.00,0.0044
3708.00,0.0043
3707.00,0.0043
3706.00,0.0043
3705.00,0.0043
3704.00,0.0043
3703.00,0.0043
3702.00,0.0043
3701.00,0.0043
3700.00,0.0043
3699.00,0.0043
3698.00,0.0043
3697.00,0.0043
3696.00,0.0043
3695.00,0.0043
3694.00,0.0044
3693.00,0.0044
3692.00,0.0044
3691.00,0.0044
3690.00,0.0044
3689.00,0.0044
3688.00,0.0044
3687.00,0.0044
3686.00,0.0044
3685.00,0.0045
3684.00,0.0045
3683.00,0.0045
3682.00,0.0045
3681.00,0.0045
3680.00,0.0045
3679.00,0.0045
3678.00,0.0046
3677.00,0.0046
3676.00,0.0047
3675.00,0.0047
3674.00,0.0047
3673.00,0.0047
3672.00,0.0047
3671.00,0.0047
3670.00,0.0047
3669.00,0.0047
3668.00,0.0047
3667.00,0.0047
3666.00,0.0047
3665.00,0.0048
3664.00,0.0048
3663.00,0.0048
3662.00,0.0049
3661.00,0.0049
3660.00,0.0049
3659.00,0.0050
3658.00,0.0050
3657.00,0.0050
3656.00,0.0050
3655.00,0.0051
3654.00,0.0051
3653.00,0.0052
3652.00,0.0052
3651.00,0.0052
3650.00,0.0052
3649.00,0.0052
3648.00,0.0053
3647.00,0.0053
3646.00,0.0053
3645.00,0.0053
3644.00,0.0054
3643.00,0.0054
3642.00,0.0055
3641.00,0.0055
3640.00,0.0056
3639.00,0.0056
3638.00,0.0057
3637.00,0.0057
3636.00,0.0057
3635.00,0.0057
3634.00,0.0058
3633.00,0.0058
3632.00,0.0059
3631.00,0.0060
3630.00,0.0060
3629.00,0.0061
3628.00,0.0061
3627.00,0.0062
3626.00,0.0062
3625.00,0.0062
3624.00,0.0062
3623.00,0.0063
3622.00,0.0064
3621.00,0.0064
3620.00,0.0065
3619.00,0.0066
3618.00,0.0066
3617.00,0.0067
3616.00,0.0067
3615.00,0.0068
3614.00,0.0068
3613.00,0.0069
3612.00,0.0069
3611.00,0.0070
3610.00,0.0070
3609.00,0.0071
3608.00,0.0071
3607.00,0.0071
3606.00,0.0072
3605.00,0.0072
3604.00,0.0073
3603.00,0.0073
3602.00,0.0074
3601.00,0.0074
3600.00,0.0075
3599.00,0.0076
3598.00,0.0076
3597.00,0.0077
3596.00,0.0078
3595.00,0.0078
3594.00,0.0079
3593.00,0.0080
3592.00,0.0081
3591.00,0.0082
3590.00,0.0083
3589.00,0.0083
3588.00,0.0083
3587.00,0.0084
3586.00,0.0084
3585.00,0.0084
3584.00,0.0085
3583.00,0.0086
3582.00,0.0086
3581.00,0.0087
3580.00,0.0088
3579.00,0.0089
3578.00,0.0090
3577.00,0.0090
3576.00,0.0091
3575.00,0.0091
3574.00,0.0092
3573.00,0.0093
3572.00,0.0094
3571.00,0.0095
3570.00,0.0096
3569.00,0.0096
3568.00,0.0097
3567.00,0.0098
3566.00,0.0098
3565.00,0.0099
3564.00,0.0100
3563.00,0.0101
3562.00,0.0102
3561.00,0.0102
3560.00,0.0103
3559.00,0.0104
3558.00,0.0104
3557.00,0.0105
3556.00,0.0106
3555.00,0.0107
3554.00,0.0108
3553.00,0.0108
3552.00,0.0109
3551.00,0.0109
3550.00,0.0110
3549.00,0.0111
3548.00,0.0112
3547.00,0.0113
3546.00,0.0113
3545.00,0.0114
3544.00,0.0115
3543.00,0.0116
3542.00,0.0116
3541.00,0.0117
3540.00,0.0118
3539.00,0.0118
3538.00,0.0119
3537.00,0.0119
3536.00,0.0120
3535.00,0.0121
3534.00,0.0122
3533.00,0.0123
3532.00,0.0124
3531.00,0.0124
3530.00,0.0125
3529.00,0.0126
3528.00,0.0126
3527.00,0.0127
3526.00,0.0128
3525.00,0.0129
3524.00,0.0130
3523.00,0.0131
3522.00,0.0131
3521.00,0.0132
3520.00,0.0133
3519.00,0.0134
3518.00,0.0135
3517.00,0.0136
3516.00,0.0137
3515.00,0.0138
3514.00,0.0138
3513.00,0.0139
3512.00,0.0139
3511.00,0.0140
3510.00,0.0141
3509.00,0.0142
3508.00,0.0143
3507.00,0.0144
3506.00,0.0145
3505.00,0.0146
3504.00,0.0147
3503.00,0.0148
3502.00,0.0148
3501.00,0.0149
3500.00,0.0150
3499.00,0.0151
3498.00,0.0152
3497.00,0.0153
3496.00,0.0154
3495.00,0.0156
3494.00,0.0157
3493.00,0.0158
3492.00,0.0159
3491.00,0.0159
3490.00,0.0160
3489.00,0.0161
3488.00,0.0162
3487.00,0.0163
3486.00,0.0164
3485.00,0.0165
3484.00,0.0166
3483.00,0.0167
3482.00,0.0168
3481.00,0.0169
3480.00,0.0170
3479.00,0.0171
3478.00,0.0171
3477.00,0.0172
3476.00,0.0173
3475.00,0.0174
3474.00,0.0174
3473.00,0.0175
3472.00,0.0176
3471.00,0.0177
3470.00,0.0179
3469.00,0.0180
3468.00,0.0180
3467.00,0.0181
3466.00,0.0182
3465.00,0.0182
3464.00,0.0183
3463.00,0.0184
3462.00,0.0185
3461.00,0.0186
3460.00,0.0187
3459.00,0.0187
3458.00,0.0188
3457.00,0.0189
3456.00,0.0190
3455.00,0.0190
3454.00,0.0191
3453.00,0.0192
3452.00,0.0193
3451.00,0.0194
3450.00,0.0195
3449.00,0.0196
3448.00,0.0196
3447.00,0.0197
3446.00,0.0198
3445.00,0.0199
3444.00,0.0200
3443.00,0.0200
3442.00,0.0201
3441.00,0.0202
3440.00,0.0203
3439.00,0.0204
3438.00,0.0205
3437.00,0.0206
3436.00,0.0207
3435.00,0.0207
3434.00,0.0208
3433.00,0.0209
3432.00,0.0210
3431.00,0.0210
3430.00,0.0211
3429.00,0.0212
3428.00,0.0213
3427.00,0.0214
3426.00,0.0215
3425.00,0.0216
3424.00,0.0217
3423.00,0.0218
3422.00,0.0219
3421.00,0.0220
3420.00,0.0220
3419.00,0.0221
3418.00,0.0222
3417.00,0.0223
3416.00,0.0223
3415.00,0.0224
3414.00,0.0225
3413.00,0.0226
3412.00,0.0226
3411.00,0.0227
3410.00,0.0228
3409.00,0.0228
3408.00,0.0229
3407.00,0.0230
3406.00,0.0231
3405.00,0.0232
3404.00,0.0233
3403.00,0.0234
3402.00,0.0235
3401.00,0.0236
3400.00,0.0237
3399.00,0.0238
3398.00,0.0239
3397.00,0.0239
3396.00,0.0240
3395.00,0.0241
3394.00,0.0242
3393.00,0.0243
3392.00,0.0243
3391.00,0.0244
3390.00,0.0245
3389.00,0.0246
3388.00,0.0247
3387.00,0.0248
3386.00,0.0249
3385.00,0.0250
3384.00,0.0252
3383.00,0.0253
3382.00,0.0254
3381.00,0.0255
3380.00,0.0256
3379.00,0.0257
3378.00,0.0258
3377.00,0.0259
3376.00,0.0260
3375.00,0.0261
3374.00,0.0262
3373.00,0.0263
3372.00,0.0264
3371.00,0.0265
3370.00,0.0266
3369.00,0.0267
3368.00,0.0268
3367.00,0.0269
3366.00,0.0270
3365.00,0.0272
3364.00,0.0273
3363.00,0.0275
3362.00,0.0276
3361.00,0.0277
3360.00,0.0278
3359.00,0.0280
3358.00,0.0281
3357.00,0.0283
3356.00,0.0284
3355.00,0.0285
3354.00,0.0286
3353.00,0.0287
3352.00,0.0289
3351.00,0.0290
3350.00,0.0291
3349.00,0.0292
3348.00,0.0294
3347.00,0.0295
3346.00,0.0297
3345.00,0.0298
3344.00,0.0299
3343.00,0.0300
3342.00,0.0301
3341.00,0.0302
3340.00,0.0303
3339.00,0.0304
3338.00,0.0305
3337.00,0.0307
3336.00,0.0309
3335.00,0.0310
3334.00,0.0312
3333.00,0.0314
3332.00,0.0315
3331.00,0.0316
3330.00,0.0318
3329.00,0.0319
3328.00,0.0320
3327.00,0.0321
3326.00,0.0323
3325.00,0.0324
3324.00,0.0326
3323.00,0.0327
3322.00,0.0329
3321.00,0.0331
3320.00,0.0332
3319.00,0.0334
3318.00,0.0335
3317.00,0.0337
3316.00,0.0338
3315.00,0.0339
3314.00,0.0341
3313.00,0.0342
3312.00,0.0343
3311.00,0.0344
3310.00,0.0345
3309.00,0.0347
3308.00,0.0348
3307.00,0.0349
3306.00,0.0351
3305.00,0.0352
3304.00,0.0354
3303.00,0.0357
3302.00,0.0359
3301.00,0.0361
3300.00,0.0363
3299.00,0.0364
3298.00,0.0365
3297.00,0.0366
3296.00,0.0367
3295.00,0.0368
3294.00,0.0369
3293.00,0.0371
3292.00,0.0372
3291.00,0.0374
3290.00,0.0375
3289.00,0.0377
3288.00,0.0378
3287.00,0.0379
3286.00,0.0380
3285.00,0.0381
3284.00,0.0382
3283.00,0.0382
3282.00,0.0383
3281.00,0.0384
3280.00,0.0384
3279.00,0.0384
3278.00,0.0384
3277.00,0.0384
3276.00,0.0384
3275.00,0.0384
3274.00,0.0383
3273.00,0.0382
3272.00,0.0382
3271.00,0.0381
3270.00,0.0381
3269.00,0.0380
3268.00,0.0380
3267.00,0.0379
3266.00,0.0378
3265.00,0.0377
3264.00,0.0376
3263.00,0.0375
3262.00,0.0374
3261.00,0.0372
3260.00,0.0371
3259.00,0.0369
3258.00,0.0367
3257.00,0.0365
3256.00,0.0364
3255.00,0.0362
3254.00,0.0361
3253.00,0.0359
3252.00,0.0358
3251.00,0.0356
3250.00,0.0355
3249.00,0.0353
3248.00,0.0351
3247.00,0.0349
3246.00,0.0348
3245.00,0.0347
3244.00,0.0346
3243.00,0.0344
3242.00,0.0343
3241.00,0.0342
3240.00,0.0341
3239.00,0.0340
3238.00,0.0338
3237.00,0.0337
3236.00,0.0335
3235.00,0.0333
3234.00,0.0331
3233.00,0.0330
3232.00,0.0329
3231.00,0.0329
3230.00,0.0328
3229.00,0.0327
3228.00,0.0326
3227.00,0.0325
3226.00,0.0324
3225.00,0.0323
3224.00,0.0322
3223.00,0.0321
3222.00,0.0320
3221.00,0.0319
3220.00,0.0318
3219.00,0.0317
3218.00,0.0317
3217.00,0.0316
3216.00,0.0315
3215.00,0.0314
3214.00,0.0313
3213.00,0.0313
3212.00,0.0312
3211.00,0.0311
3210.00,0.0311
3209.00,0.0310
3208.00,0.0309
3207.00,0.0308
3206.00,0.0307
3205.00,0.0306
3204.00,0.0305
3203.00,0.0304
3202.00,0.0303
3201.00,0.0303
3200.00,0.0302
3199.00,0.0301
3198.00,0.0300
3197.00,0.0299
3196.00,0.0298
3195.00,0.0297
3194.00,0.0297
3193.00,0.0296
3192.00,0.0295
3191.00,0.0294
3190.00,0.0292
3189.00,0.0291
3188.00,0.0290
3187.00,0.0289
3186.00,0.0288
3185.00,0.0287
3184.00,0.0286
3183.00,0.0285
3182.00,0.0284
3181.00,0.0283
3180.00,0.0282
3179.00,0.0281
3178.00,0.0279
3177.00,0.0278
3176.00,0.0276
3175.00,0.0275
3174.00,0.0274
3173.00,0.0273
3172.00,0.0272
3171.00,0.0271
3170.00,0.0270
3169.00,0.0269
3168.00,0.0268
3167.00,0.0267
3166.00,0.0266
3165.00,0.0265
3164.00,0.0264
3163.00,0.0263
3162.00,0.0262
3161.00,0.0261
3160.00,0.0260
3159.00,0.0258
3158.00,0.0257
3157.00,0.0256
3156.00,0.0255
3155.00,0.0254
3154.00,0.0253
3153.00,0.0252
3152.00,0.0251
3151.00,0.0250
3150.00,0.0249
3149.00,0.0248
3148.00,0.0248
3147.00,0.0247
3146.00,0.0246
3145.00,0.0245
3144.00,0.0244
3143.00,0.0243
3142.00,0.0242
3141.00,0.0241
3140.00,0.0240
3139.00,0.0239
3138.00,0.0239
3137.00,0.0238
3136.00,0.0238
3135.00,0.0237
3134.00,0.0237
3133.00,0.0236
3132.00,0.0235
3131.00,0.0235
3130.00,0.0234
3129.00,0.0233
3128.00,0.0233
3127.00,0.0232
3126.00,0.0232
3125.00,0.0231
3124.00,0.0230
3123.00,0.0230
3122.00,0.0229
3121.00,0.0228
3120.00,0.0228
3119.00,0.0227
3118.00,0.0227
3117.00,0.0227
3116.00,0.0227
3115.00,0.0227
3114.00,0.0227
3113.00,0.0228
3112.00,0.0228
3111.00,0.0227
3110.00,0.0227
3109.00,0.0227
3108.00,0.0227
3107.00,0.0227
3106.00,0.0227
3105.00,0.0227
3104.00,0.0227
3103.00,0.0227
3102.00,0.0227
3101.00,0.0227
3100.00,0.0227
3099.00,0.0227
3098.00,0.0227
3097.00,0.0228
3096.00,0.0228
3095.00,0.0228
3094.00,0.0228
3093.00,0.0228
3092.00,0.0228
3091.00,0.0228
3090.00,0.0228
3089.00,0.0228
3088.00,0.0229
3087.00,0.0228
3086.00,0.0228
3085.00,0.0228
3084.00,0.0228
3083.00,0.0228
3082.00,0.0228
3081.00,0.0228
3080.00,0.0227
3079.00,0.0227
3078.00,0.0228
3077.00,0.0228
3076.00,0.0229
3075.00,0.0229
3074.00,0.0229
3073.00,0.0229
3072.00,0.0229
3071.00,0.0228
3070.00,0.0228
3069.00,0.0227
3068.00,0.0227
3067.00,0.0227
3066.00,0.0227
3065.00,0.0227
3064.00,0.0227
3063.00,0.0227
3062.00,0.0226
3061.00,0.0226
3060.00,0.0225
3059.00,0.0225
3058.00,0.0224
3057.00,0.0223
3056.00,0.0222
3055.00,0.0221
3054.00,0.0220
3053.00,0.0219
3052.00,0.0219
3051.00,0.0218
3050.00,0.0217
3049.00,0.0217
3048.00,0.0216
3047.00,0.0215
3046.00,0.0214
3045.00,0.0213
3044.00,0.0212
3043.00,0.0211
3042.00,0.0210
3041.00,0.0210
3040.00,0.0209
3039.00,0.0209
3038.00,0.0209
3037.00,0.0208
3036.00,0.0207
3035.00,0.0206
3034.00,0.0205
3033.00,0.0204
3032.00,0.0204
3031.00,0.0203
3030.00,0.0203
3029.00,0.0202
3028.00,0.0201
3027.00,0.0200
3026.00,0.0199
3025.00,0.0199
3024.00,0.0198
3023.00,0.0197
3022.00,0.0196
3021.00,0.0195
3020.00,0.0195
3019.00,0.0194
3018.00,0.0193
3017.00,0.0192
3016.00,0.0191
3015.00,0.0191
3014.00,0.0190
3013.00,0.0189
3012.00,0.0189
3011.00,0.0189
3010.00,0.0189
3009.00,0.0189
3008.00,0.0189
3007.00,0.0188
3006.00,0.0188
3005.00,0.0188
3004.00,0.0188
3003.00,0.0188
3002.00,0.0188
3001.00,0.0188
3000.00,0.0188
2999.00,0.0188
2998.00,0.0188
2997.00,0.0189
2996.00,0.0189
2995.00,0.0190
2994.00,0.0191
2993.00,0.0192
2992.00,0.0193
2991.00,0.0194
2990.00,0.0196
2989.00,0.0197
2988.00,0.0199
2987.00,0.0201
2986.00,0.0202
2985.00,0.0204
2984.00,0.0206
2983.00,0.0207
2982.00,0.0209
2981.00,0.0211
2980.00,0.0214
2979.00,0.0217
2978.00,0.0220
2977.00,0.0223
2976.00,0.0225
2975.00,0.0228
2974.00,0.0230
2973.00,0.0233
2972.00,0.0235
2971.00,0.0238
2970.00,0.0240
2969.00,0.0243
2968.00,0.0245
2967.00,0.0247
2966.00,0.0249
2965.00,0.0250
2964.00,0.0252
2963.00,0.0253
2962.00,0.0253
2961.00,0.0254
2960.00,0.0254
2959.00,0.0253
2958.00,0.0252
2957.00,0.0251
2956.00,0.0250
2955.00,0.0249
2954.00,0.0248
2953.00,0.0247
2952.00,0.0245
2951.00,0.0244
2950.00,0.0243
2949.00,0.0242
2948.00,0.0242
2947.00,0.0242
2946.00,0.0242
2945.00,0.0243
2944.00,0.0244
2943.00,0.0245
2942.00,0.0246
2941.00,0.0247
2940.00,0.0248
2939.00,0.0250
2938.00,0.0251
2937.00,0.0252
2936.00,0.0253
2935.00,0.0254
2934.00,0.0255
2933.00,0.0255
2932.00,0.0255
2931.00,0.0255
2930.00,0.0255
2929.00,0.0255
2928.00,0.0255
2927.00,0.0255
2926.00,0.0254
2925.00,0.0253
2924.00,0.0251
2923.00,0.0250
2922.00,0.0248
2921.00,0.0246
2920.00,0.0244
2919.00,0.0242
2918.00,0.0239
2917.00,0.0237
2916.00,0.0235
2915.00,0.0234
2914.00,0.0232
2913.00,0.0231
2912.00,0.0229
2911.00,0.0228
2910.00,0.0226
2909.00,0.0225
2908.00,0.0223
2907.00,0.0222
2906.00,0.0220
2905.00,0.0219
2904.00,0.0217
2903.00,0.0216
2902.00,0.0215
2901.00,0.0214
2900.00,0.0213
2899.00,0.0212
2898.00,0.0211
2897.00,0.0209
2896.00,0.0208
2895.00,0.0208
2894.00,0.0207
2893.00,0.0207
2892.00,0.0206
2891.00,0.0206
2890.00,0.0205
2889.00,0.0205
2888.00,0.0205
2887.00,0.0205
2886.00,0.0205
2885.00,0.0205
2884.00,0.0205
2883.00,0.0205
2882.00,0.0206
2881.00,0.0207
2880.00,0.0208
2879.00,0.0209
2878.00,0.0209
2877.00,0.0210
2876.00,0.0210
2875.00,0.0210
2874.00,0.0210
2873.00,0.0209
2872.00,0.0209
2871.00,0.0208
2870.00,0.0207
2869.00,0.0205
2868.00,0.0204
2867.00,0.0202
2866.00,0.0200
2865.00,0.0199
2864.00,0.0197
2863.00,0.0196
2862.00,0.0195
2861.00,0.0194
2860.00,0.0193
2859.00,0.0192
2858.00,0.0191
2857.00,0.0190
2856.00,0.0189
2855.00,0.0188
2854.00,0.0187
2853.00,0.0186
2852.00,0.0184
2851.00,0.0182
2850.00,0.0180
2849.00,0.0178
2848.00,0.0176
2847.00,0.0175
2846.00,0.0174
2845.00,0.0173
2844.00,0.0171
2843.00,0.0170
2842.00,0.0168
2841.00,0.0167
2840.00,0.0166
2839.00,0.0165
2838.00,0.0164
2837.00,0.0163
2836.00,0.0162
2835.00,0.0162
2834.00,0.0161
2833.00,0.0160
2832.00,0.0160
2831.00,0.0159
2830.00,0.0159
2829.00,0.0158
2828.00,0.0157
2827.00,0.0157
2826.00,0.0156
2825.00,0.0156
2824.00,0.0155
2823.00,0.0155
2822.00,0.0154
2821.00,0.0154
2820.00,0.0153
2819.00,0.0153
2818.00,0.0153
2817.00,0.0152
2816.00,0.0152
2815.00,0.0151
2814.00,0.0151
2813.00,0.0151
2812.00,0.0150
2811.00,0.0150
2810.00,0.0150
2809.00,0.0149
2808.00,0.0149
2807.00,0.0149
2806.00,0.0148
2805.00,0.0148
2804.00,0.0147
2803.00,0.0147
2802.00,0.0147
2801.00,0.0146
2800.00,0.0146
2799.00,0.0146
2798.00,0.0146
2797.00,0.0145
2796.00,0.0145
2795.00,0.0144
2794.00,0.0144
2793.00,0.0144
2792.00,0.0143
2791.00,0.0143
2790.00,0.0143
2789.00,0.0142
2788.00,0.0142
2787.00,0.0142
2786.00,0.0141
2785.00,0.0141
2784.00,0.0141
2783.00,0.0140
2782.00,0.0140
2781.00,0.0140
2780.00,0.0139
2779.00,0.0139
2778.00,0.0138
2777.00,0.0138
2776.00,0.0137
2775.00,0.0137
2774.00,0.0137
2773.00,0.0137
2772.00,0.0137
2771.00,0.0136
2770.00,0.0136
2769.00,0.0136
2768.00,0.0135
2767.00,0.0135
2766.00,0.0134
2765.00,0.0134
2764.00,0.0134
2763.00,0.0134
2762.00,0.0133
2761.00,0.0133
2760.00,0.0133
2759.00,0.0133
2758.00,0.0132
2757.00,0.0132
2756.00,0.0131
2755.00,0.0131
2754.00,0.0131
2753.00,0.0130
2752.00,0.0130
2751.00,0.0130
2750.00,0.0129
2749.00,0.0129
2748.00,0.0129
2747.00,0.0129
2746.00,0.0129
2745.00,0.0128
2744.00,0.0128
2743.00,0.0128
2742.00,0.0128
2741.00,0.0128
2740.00,0.0127
2739.00,0.0127
2738.00,0.0127
2737.00,0.0126
2736.00,0.0126
2735.00,0.0125
2734.00,0.0125
2733.00,0.0125
2732.00,0.0125
2731.00,0.0124
2730.00,0.0124
2729.00,0.0124
2728.00,0.0123
2727.00,0.0123
2726.00,0.0123
2725.00,0.0122
2724.00,0.0122
2723.00,0.0122
2722.00,0.0122
2721.00,0.0122
2720.00,0.0122
2719.00,0.0121
2718.00,0.0121
2717.00,0.0121
2716.00,0.0120
2715.00,0.0120
2714.00,0.0120
2713.00,0.0119
2712.00,0.0119
2711.00,0.0118
2710.00,0.0118
2709.00,0.0118
2708.00,0.0118
2707.00,0.0118
2706.00,0.0117
2705.00,0.0117
2704.00,0.0117
2703.00,0.0117
2702.00,0.0116
2701.00,0.0116
2700.00,0.0116
2699.00,0.0116
2698.00,0.0116
2697.00,0.0116
2696.00,0.0116
2695.00,0.0115
2694.00,0.0115
2693.00,0.0115
2692.00,0.0115
2691.00,0.0115
2690.00,0.0114
2689.00,0.0114
2688.00,0.0114
2687.00,0.0114
2686.00,0.0113
2685.00,0.0113
2684.00,0.0113
2683.00,0.0113
2682.00,0.0113
2681.00,0.0113
2680.00,0.0112
2679.00,0.0112
2678.00,0.0112
2677.00,0.0112
2676.00,0.0112
2675.00,0.0112
2674.00,0.0112
2673.00,0.0112
2672.00,0.0111
2671.00,0.0111
2670.00,0.0111
2669.00,0.0111
2668.00,0.0111
2667.00,0.0112
2666.00,0.0112
2665.00,0.0112
2664.00,0.0113
2663.00,0.0113
2662.00,0.0113
2661.00,0.0113
2660.00,0.0113
2659.00,0.0113
2658.00,0.0113
2657.00,0.0113
2656.00,0.0114
2655.00,0.0114
2654.00,0.0114
2653.00,0.0114
2652.00,0.0114
2651.00,0.0114
2650.00,0.0114
2649.00,0.0113
2648.00,0.0113
2647.00,0.0113
2646.00,0.0112
2645.00,0.0112
2644.00,0.0112
2643.00,0.0112
2642.00,0.0112
2641.00,0.0111
2640.00,0.0111
2639.00,0.0111
2638.00,0.0111
2637.00,0.0111
2636.00,0.0111
2635.00,0.0110
2634.00,0.0110
2633.00,0.0110
2632.00,0.0110
2631.00,0.0110
2630.00,0.0109
2629.00,0.0109
2628.00,0.0109
2627.00,0.0109
2626.00,0.0109
2625.00,0.0109
2624.00,0.0108
2623.00,0.0108
2622.00,0.0108
2621.00,0.0108
2620.00,0.0108
2619.00,0.0108
2618.00,0.0107
2617.00,0.0107
2616.00,0.0107
2615.00,0.0107
2614.00,0.0106
2613.00,0.0106
2612.00,0.0106
2611.00,0.0106
2610.00,0.0106
2609.00,0.0105
2608.00,0.0105
2607.00,0.0105
2606.00,0.0104
2605.00,0.0104
2604.00,0.0103
2603.00,0.0103
2602.00,0.0103
2601.00,0.0103
2600.00,0.0103
2599.00,0.0103
2598.00,0.0102
2597.00,0.0102
2596.00,0.0102
2595.00,0.0102
2594.00,0.0102
2593.00,0.0102
2592.00,0.0102
2591.00,0.0101
2590.00,0.0101
2589.00,0.0101
2588.00,0.0100
2587.00,0.0100
2586.00,0.0099
2585.00,0.0099
2584.00,0.0099
2583.00,0.0099
2582.00,0.0099
2581.00,0.0099
2580.00,0.0099
2579.00,0.0099
2578.00,0.0099
2577.00,0.0099
2576.00,0.0098
2575.00,0.0098
2574.00,0.0097
2573.00,0.0097
2572.00,0.0097
2571.00,0.0097
2570.00,0.0097
2569.00,0.0097
2568.00,0.0096
2567.00,0.0096
2566.00,0.0096
2565.00,0.0096
2564.00,0.0096
2563.00,0.0095
2562.00,0.0095
2561.00,0.0095
2560.00,0.0095
2559.00,0.0095
2558.00,0.0095
2557.00,0.0095
2556.00,0.0094
2555.00,0.0094
2554.00,0.0094
2553.00,0.0094
2552.00,0.0093
2551.00,0.0093
2550.00,0.0093
2549.00,0.0093
2548.00,0.0093
2547.00,0.0093
2546.00,0.0093
2545.00,0.0093
2544.00,0.0092
2543.00,0.0092
2542.00,0.0092
2541.00,0.0092
2540.00,0.0092
2539.00,0.0092
2538.00,0.0092
2537.00,0.0091
2536.00,0.0091
2535.00,0.0091
2534.00,0.0091
2533.00,0.0091
2532.00,0.0091
2531.00,0.0091
2530.00,0.0091
2529.00,0.0090
2528.00,0.0090
2527.00,0.0090
2526.00,0.0090
2525.00,0.0090
2524.00,0.0090
2523.00,0.0090
2522.00,0.0089
2521.00,0.0089
2520.00,0.0089
2519.00,0.0089
2518.00,0.0089
2517.00,0.0089
2516.00,0.0088
2515.00,0.0088
2514.00,0.0088
2513.00,0.0088
2512.00,0.0088
2511.00,0.0088
2510.00,0.0088
2509.00,0.0088
2508.00,0.0088
2507.00,0.0088
2506.00,0.0088
2505.00,0.0088
2504.00,0.0088
2503.00,0.0087
2502.00,0.0087
2501.00,0.0086
2500.00,0.0086
2499.00,0.0086
2498.00,0.0086
2497.00,0.0086
2496.00,0.0087
2495.00,0.0087
2494.00,0.0087
2493.00,0.0086
2492.00,0.0086
2491.00,0.0086
2490.00,0.0086
2489.00,0.0086
2488.00,0.0086
2487.00,0.0086
2486.00,0.0085
2485.00,0.0085
2484.00,0.0085
2483.00,0.0084
2482.00,0.0084
2481.00,0.0084
2480.00,0.0084
2479.00,0.0084
2478.00,0.0084
2477.00,0.0084
2476.00,0.0084
2475.00,0.0084
2474.00,0.0084
2473.00,0.0084
2472.00,0.0084
2471.00,0.0084
2470.00,0.0084
2469.00,0.0084
2468.00,0.0084
2467.00,0.0084
2466.00,0.0084
2465.00,0.0084
2464.00,0.0084
2463.00,0.0084
2462.00,0.0084
2461.00,0.0084
2460.00,0.0084
2459.00,0.0084
2458.00,0.0084
2457.00,0.0085
2456.00,0.0085
2455.00,0.0085
2454.00,0.0084
2453.00,0.0084
2452.00,0.0084
2451.00,0.0084
2450.00,0.0083
2449.00,0.0083
2448.00,0.0083
2447.00,0.0083
2446.00,0.0082
2445.00,0.0082
2444.00,0.0082
2443.00,0.0082
2442.00,0.0082
2441.00,0.0081
2440.00,0.0081
2439.00,0.0081
2438.00,0.0081
2437.00,0.0081
2436.00,0.0081
2435.00,0.0081
2434.00,0.0080
2433.00,0.0080
2432.00,0.0080
2431.00,0.0080
2430.00,0.0080
2429.00,0.0080
2428.00,0.0080
2427.00,0.0080
2426.00,0.0079
2425.00,0.0079
2424.00,0.0079
2423.00,0.0078
2422.00,0.0078
2421.00,0.0078
2420.00,0.0078
2419.00,0.0078
2418.00,0.0077
2417.00,0.0077
2416.00,0.0077
2415.00,0.0078
2414.00,0.0078
2413.00,0.0078
2412.00,0.0077
2411.00,0.0077
2410.00,0.0076
2409.00,0.0076
2408.00,0.0075
2407.00,0.0075
2406.00,0.0075
2405.00,0.0075
2404.00,0.0075
2403.00,0.0075
2402.00,0.0074
2401.00,0.0074
2400.00,0.0074
2399.00,0.0074
2398.00,0.0074
2397.00,0.0074
2396.00,0.0074
2395.00,0.0074
2394.00,0.0074
2393.00,0.0074
2392.00,0.0074
2391.00,0.0073
2390.00,0.0073
2389.00,0.0073
2388.00,0.0073
2387.00,0.0073
2386.00,0.0072
2385.00,0.0072
2384.00,0.0071
2383.00,0.0071
2382.00,0.0070
2381.00,0.0070
2380.00,0.0069
2379.00,0.0069
2378.00,0.0069
2377.00,0.0069
2376.00,0.0069
2375.00,0.0069
2374.00,0.0069
2373.00,0.0069
2372.00,0.0069
2371.00,0.0069
2370.00,0.0069
2369.00,0.0069
2368.00,0.0068
2367.00,0.0068
2366.00,0.0068
2365.00,0.0068
2364.00,0.0068
2363.00,0.0068
2362.00,0.0068
2361.00,0.0068
2360.00,0.0069
2359.00,0.0069
2358.00,0.0069
2357.00,0.0069
2356.00,0.0070
2355.00,0.0070
2354.00,0.0070
2353.00,0.0069
2352.00,0.0069
2351.00,0.0070
2350.00,0.0070
2349.00,0.0070
2348.00,0.0070
2347.00,0.0071
2346.00,0.0071
2345.00,0.0072
2344.00,0.0072
2343.00,0.0072
2342.00,0.0071
2341.00,0.0071
2340.00,0.0072
2339.00,0.0073
2338.00,0.0073
2337.00,0.0074
2336.00,0.0074
2335.00,0.0073
2334.00,0.0073
2333.00,0.0073
2332.00,0.0073
2331.00,0.0073
2330.00,0.0074
2329.00,0.0076
2328.00,0.0080
2327.00,0.0084
2326.00,0.0087
2325.00,0.0087
2324.00,0.0086
2323.00,0.0084
2322.00,0.0082
2321.00,0.0080
2320.00,0.0079
2319.00,0.0078
2318.00,0.0078
2317.00,0.0077
2316.00,0.0077
2315.00,0.0077
2314.00,0.0077
2313.00,0.0077
2312.00,0.0076
2311.00,0.0076
2310.00,0.0075
2309.00,0.0074
2308.00,0.0074
2307.00,0.0074
2306.00,0.0074
2305.00,0.0074
2304.00,0.0075
2303.00,0.0075
2302.00,0.0076
2301.00,0.0076
2300.00,0.0076
2299.00,0.0076
2298.00,0.0076
2297.00,0.0076
2296.00,0.0077
2295.00,0.0078
2294.00,0.0079
2293.00,0.0080
2292.00,0.0081
2291.00,0.0081
2290.00,0.0082
2289.00,0.0083
2288.00,0.0083
2287.00,0.0083
2286.00,0.0083
2285.00,0.0082
2284.00,0.0082
2283.00,0.0081
2282.00,0.0080
2281.00,0.0079
2280.00,0.0079
2279.00,0.0078
2278.00,0.0077
2277.00,0.0077
2276.00,0.0077
2275.00,0.0078
2274.00,0.0079
2273.00,0.0079
2272.00,0.0079
2271.00,0.0079
2270.00,0.0078
2269.00,0.0076
2268.00,0.0075
2267.00,0.0074
2266.00,0.0073
2265.00,0.0073
2264.00,0.0073
2263.00,0.0074
2262.00,0.0075
2261.00,0.0075
2260.00,0.0076
2259.00,0.0077
2258.00,0.0077
2257.00,0.0076
2256.00,0.0074
2255.00,0.0073
2254.00,0.0072
2253.00,0.0072
2252.00,0.0072
2251.00,0.0072
2250.00,0.0073
2249.00,0.0074
2248.00,0.0074
2247.00,0.0074
2246.00,0.0074
2245.00,0.0074
2244.00,0.0074
2243.00,0.0074
2242.00,0.0074
2241.00,0.0074
2240.00,0.0074
2239.00,0.0075
2238.00,0.0075
2237.00,0.0075
2236.00,0.0074
2235.00,0.0073
2234.00,0.0072
2233.00,0.0072
2232.00,0.0072
2231.00,0.0072
2230.00,0.0072
2229.00,0.0072
2228.00,0.0072
2227.00,0.0072
2226.00,0.0072
2225.00,0.0072
2224.00,0.0071
2223.00,0.0071
2222.00,0.0071
2221.00,0.0071
2220.00,0.0071
2219.00,0.0071
2218.00,0.0071
2217.00,0.0071
2216.00,0.0071
2215.00,0.0071
2214.00,0.0071
2213.00,0.0071
2212.00,0.0072
2211.00,0.0072
2210.00,0.0072
2209.00,0.0072
2208.00,0.0072
2207.00,0.0072
2206.00,0.0071
2205.00,0.0070
2204.00,0.0070
2203.00,0.0070
2202.00,0.0070
2201.00,0.0071
2200.00,0.0072
2199.00,0.0073
2198.00,0.0073
2197.00,0.0072
2196.00,0.0072
2195.00,0.0072
2194.00,0.0072
2193.00,0.0073
2192.00,0.0073
2191.00,0.0074
2190.00,0.0074
2189.00,0.0075
2188.00,0.0076
2187.00,0.0077
2186.00,0.0077
2185.00,0.0075
2184.00,0.0072
2183.00,0.0069
2182.00,0.0066
2181.00,0.0066
2180.00,0.0067
2179.00,0.0068
2178.00,0.0067
2177.00,0.0065
2176.00,0.0063
2175.00,0.0063
2174.00,0.0064
2173.00,0.0067
2172.00,0.0071
2171.00,0.0075
2170.00,0.0079
2169.00,0.0081
2168.00,0.0083
2167.00,0.0083
2166.00,0.0084
2165.00,0.0086
2164.00,0.0088
2163.00,0.0087
2162.00,0.0082
2161.00,0.0070
2160.00,0.0055
2159.00,0.0043
2158.00,0.0037
2157.00,0.0036
2156.00,0.0038
2155.00,0.0041
2154.00,0.0043
2153.00,0.0046
2152.00,0.0049
2151.00,0.0051
2150.00,0.0052
2149.00,0.0052
2148.00,0.0052
2147.00,0.0051
2146.00,0.0050
2145.00,0.0049
2144.00,0.0049
2143.00,0.0050
2142.00,0.0050
2141.00,0.0051
2140.00,0.0052
2139.00,0.0051
2138.00,0.0049
2137.00,0.0047
2136.00,0.0045
2135.00,0.0044
2134.00,0.0044
2133.00,0.0045
2132.00,0.0048
2131.00,0.0050
2130.00,0.0053
2129.00,0.0054
2128.00,0.0056
2127.00,0.0057
2126.00,0.0058
2125.00,0.0059
2124.00,0.0060
2123.00,0.0061
2122.00,0.0061
2121.00,0.0062
2120.00,0.0062
2119.00,0.0063
2118.00,0.0064
2117.00,0.0065
2116.00,0.0067
2115.00,0.0068
2114.00,0.0068
2113.00,0.0068
2112.00,0.0068
2111.00,0.0067
2110.00,0.0067
2109.00,0.0066
2108.00,0.0066
2107.00,0.0066
2106.00,0.0067
2105.00,0.0067
2104.00,0.0068
2103.00,0.0068
2102.00,0.0067
2101.00,0.0067
2100.00,0.0066
2099.00,0.0065
2098.00,0.0064
2097.00,0.0063
2096.00,0.0062
2095.00,0.0061
2094.00,0.0060
2093.00,0.0061
2092.00,0.0062
2091.00,0.0062
2090.00,0.0063
2089.00,0.0064
2088.00,0.0065
2087.00,0.0066
2086.00,0.0066
2085.00,0.0066
2084.00,0.0067
2083.00,0.0068
2082.00,0.0068
2081.00,0.0068
2080.00,0.0068
2079.00,0.0068
2078.00,0.0068
2077.00,0.0069
2076.00,0.0069
2075.00,0.0069
2074.00,0.0068
2073.00,0.0068
2072.00,0.0067
2071.00,0.0067
2070.00,0.0066
2069.00,0.0066
2068.00,0.0065
2067.00,0.0064
2066.00,0.0063
2065.00,0.0063
2064.00,0.0062
2063.00,0.0061
2062.00,0.0061
2061.00,0.0061
2060.00,0.0062
2059.00,0.0063
2058.00,0.0064
2057.00,0.0065
2056.00,0.0065
2055.00,0.0066
2054.00,0.0069
2053.00,0.0072
2052.00,0.0075
2051.00,0.0074
2050.00,0.0071
2049.00,0.0068
2048.00,0.0065
2047.00,0.0063
2046.00,0.0062
2045.00,0.0062
2044.00,0.0062
2043.00,0.0061
2042.00,0.0060
2041.00,0.0060
2040.00,0.0061
2039.00,0.0063
2038.00,0.0064
2037.00,0.0063
2036.00,0.0061
2035.00,0.0059
2034.00,0.0057
2033.00,0.0057
2032.00,0.0058
2031.00,0.0058
2030.00,0.0058
2029.00,0.0057
2028.00,0.0057
2027.00,0.0056
2026.00,0.0055
2025.00,0.0055
2024.00,0.0054
2023.00,0.0053
2022.00,0.0052
2021.00,0.0051
2020.00,0.0050
2019.00,0.0050
2018.00,0.0050
2017.00,0.0051
2016.00,0.0052
2015.00,0.0054
2014.00,0.0055
2013.00,0.0056
2012.00,0.0056
2011.00,0.0056
2010.00,0.0055
2009.00,0.0053
2008.00,0.0051
2007.00,0.0047
2006.00,0.0046
2005.00,0.0047
2004.00,0.0049
2003.00,0.0050
2002.00,0.0051
2001.00,0.0053
2000.00,0.0054
1999.00,0.0055
1998.00,0.0055
1997.00,0.0055
1996.00,0.0055
1995.00,0.0055
1994.00,0.0054
1993.00,0.0054
1992.00,0.0055
1991.00,0.0056
1990.00,0.0057
1989.00,0.0058
1988.00,0.0059
1987.00,0.0060
1986.00,0.0061
1985.00,0.0063
1984.00,0.0065
1983.00,0.0069
1982.00,0.0071
1981.00,0.0071
1980.00,0.0067
1979.00,0.0061
1978.00,0.0054
1977.00,0.0050
1976.00,0.0048
1975.00,0.0047
1974.00,0.0045
1973.00,0.0044
1972.00,0.0044
1971.00,0.0045
1970.00,0.0046
1969.00,0.0046
1968.00,0.0047
1967.00,0.0047
1966.00,0.0047
1965.00,0.0048
1964.00,0.0048
1963.00,0.0047
1962.00,0.0045
1961.00,0.0043
1960.00,0.0042
1959.00,0.0041
1958.00,0.0042
1957.00,0.0044
1956.00,0.0046
1955.00,0.0047
1954.00,0.0048
1953.00,0.0048
1952.00,0.0049
1951.00,0.0049
1950.00,0.0048
1949.00,0.0047
1948.00,0.0048
1947.00,0.0049
1946.00,0.0049
1945.00,0.0050
1944.00,0.0049
1943.00,0.0049
1942.00,0.0048
1941.00,0.0048
1940.00,0.0049
1939.00,0.0050
1938.00,0.0050
1937.00,0.0050
1936.00,0.0049
1935.00,0.0049
1934.00,0.0049
1933.00,0.0049
1932.00,0.0049
1931.00,0.0049
1930.00,0.0049
1929.00,0.0048
1928.00,0.0048
1927.00,0.0049
1926.00,0.0049
1925.00,0.0049
1924.00,0.0050
1923.00,0.0050
1922.00,0.0050
1921.00,0.0051
1920.00,0.0051
1919.00,0.0052
1918.00,0.0052
1917.00,0.0052
1916.00,0.0052
1915.00,0.0051
1914.00,0.0051
1913.00,0.0052
1912.00,0.0052
1911.00,0.0052
1910.00,0.0052
1909.00,0.0052
1908.00,0.0052
1907.00,0.0052
1906.00,0.0052
1905.00,0.0052
1904.00,0.0052
1903.00,0.0052
1902.00,0.0052
1901.00,0.0053
1900.00,0.0053
1899.00,0.0053
1898.00,0.0053
1897.00,0.0053
1896.00,0.0053
1895.00,0.0053
1894.00,0.0053
1893.00,0.0054
1892.00,0.0054
1891.00,0.0054
1890.00,0.0053
1889.00,0.0053
1888.00,0.0053
1887.00,0.0052
1886.00,0.0052
1885.00,0.0053
1884.00,0.0053
1883.00,0.0053
1882.00,0.0053
1881.00,0.0053
1880.00,0.0053
1879.00,0.0053
1878.00,0.0053
1877.00,0.0053
1876.00,0.0053
1875.00,0.0052
1874.00,0.0052
1873.00,0.0052
1872.00,0.0052
1871.00,0.0052
1870.00,0.0052
1869.00,0.0051
1868.00,0.0051
1867.00,0.0052
1866.00,0.0052
1865.00,0.0052
1864.00,0.0052
1863.00,0.0053
1862.00,0.0053
1861.00,0.0053
1860.00,0.0053
1859.00,0.0052
1858.00,0.0052
1857.00,0.0052
1856.00,0.0052
1855.00,0.0052
1854.00,0.0052
1853.00,0.0052
1852.00,0.0052
1851.00,0.0052
1850.00,0.0052
1849.00,0.0052
1848.00,0.0052
1847.00,0.0052
1846.00,0.0052
1845.00,0.0052
1844.00,0.0052
1843.00,0.0052
1842.00,0.0052
1841.00,0.0052
1840.00,0.0051
1839.00,0.0051
1838.00,0.0052
1837.00,0.0052
1836.00,0.0052
1835.00,0.0052
1834.00,0.0052
1833.00,0.0052
1832.00,0.0052
1831.00,0.0052
1830.00,0.0052
1829.00,0.0052
1828.00,0.0052
1827.00,0.0052
1826.00,0.0052
1825.00,0.0052
1824.00,0.0052
1823.00,0.0052
1822.00,0.0052
1821.00,0.0052
1820.00,0.0051
1819.00,0.0050
1818.00,0.0050
1817.00,0.0049
1816.00,0.0049
1815.00,0.0050
1814.00,0.0051
1813.00,0.0051
1812.00,0.0051
1811.00,0.0051
1810.00,0.0052
1809.00,0.0052
1808.00,0.0052
1807.00,0.0053
1806.00,0.0053
1805.00,0.0053
1804.00,0.0054
1803.00,0.0053
1802.00,0.0053
1801.00,0.0053
1800.00,0.0053
1799.00,0.0054
1798.00,0.0054
1797.00,0.0054
1796.00,0.0054
1795.00,0.0055
1794.00,0.0055
1793.00,0.0054
1792.00,0.0054
1791.00,0.0054
1790.00,0.0054
1789.00,0.0054
1788.00,0.0054
1787.00,0.0054
1786.00,0.0054
1785.00,0.0054
1784.00,0.0054
1783.00,0.0054
1782.00,0.0054
1781.00,0.0054
1780.00,0.0055
1779.00,0.0055
1778.00,0.0055
1777.00,0.0055
1776.00,0.0055
1775.00,0.0055
1774.00,0.0055
1773.00,0.0055
1772.00,0.0056
1771.00,0.0056
1770.00,0.0056
1769.00,0.0056
1768.00,0.0056
1767.00,0.0056
1766.00,0.0056
1765.00,0.0056
1764.00,0.0057
1763.00,0.0057
1762.00,0.0057
1761.00,0.0058
1760.00,0.0058
1759.00,0.0058
1758.00,0.0058
1757.00,0.0059
1756.00,0.0059
1755.00,0.0060
1754.00,0.0060
1753.00,0.0061
1752.00,0.0062
1751.00,0.0063
1750.00,0.0063
1749.00,0.0063
1748.00,0.0064
1747.00,0.0065
1746.00,0.0066
1745.00,0.0067
1744.00,0.0068
1743.00,0.0069
1742.00,0.0070
1741.00,0.0071
1740.00,0.0072
1739.00,0.0073
1738.00,0.0074
1737.00,0.0075
1736.00,0.0076
1735.00,0.0077
1734.00,0.0079
1733.00,0.0080
1732.00,0.0081
1731.00,0.0082
1730.00,0.0082
1729.00,0.0084
1728.00,0.0086
1727.00,0.0088
1726.00,0.0090
1725.00,0.0092
1724.00,0.0094
1723.00,0.0096
1722.00,0.0098
1721.00,0.0101
1720.00,0.0104
1719.00,0.0108
1718.00,0.0111
1717.00,0.0115
1716.00,0.0118
1715.00,0.0121
1714.00,0.0125
1713.00,0.0129
1712.00,0.0134
1711.00,0.0139
1710.00,0.0145
1709.00,0.0151
1708.00,0.0157
1707.00,0.0165
1706.00,0.0173
1705.00,0.0183
1704.00,0.0194
1703.00,0.0204
1702.00,0.0216
1701.00,0.0231
1700.00,0.0250
1699.00,0.0267
1698.00,0.0282
1697.00,0.0296
1696.00,0.0311
1695.00,0.0327
1694.00,0.0340
1693.00,0.0351
1692.00,0.0363
1691.00,0.0374
1690.00,0.0386
1689.00,0.0398
1688.00,0.0411
1687.00,0.0424
1686.00,0.0437
1685.00,0.0450
1684.00,0.0463
1683.00,0.0475
1682.00,0.0486
1681.00,0.0498
1680.00,0.0511
1679.00,0.0525
1678.00,0.0538
1677.00,0.0551
1676.00,0.0563
1675.00,0.0574
1674.00,0.0585
1673.00,0.0598
1672.00,0.0611
1671.00,0.0623
1670.00,0.0634
1669.00,0.0644
1668.00,0.0656
1667.00,0.0669
1666.00,0.0682
1665.00,0.0695
1664.00,0.0708
1663.00,0.0720
1662.00,0.0731
1661.00,0.0743
1660.00,0.0755
1659.00,0.0768
1658.00,0.0781
1657.00,0.0795
1656.00,0.0810
1655.00,0.0822
1654.00,0.0829
1653.00,0.0829
1652.00,0.0832
1651.00,0.0840
1650.00,0.0849
1649.00,0.0858
1648.00,0.0863
1647.00,0.0864
1646.00,0.0862
1645.00,0.0863
1644.00,0.0866
1643.00,0.0870
1642.00,0.0874
1641.00,0.0877
1640.00,0.0880
1639.00,0.0884
1638.00,0.0889
1637.00,0.0891
1636.00,0.0890
1635.00,0.0889
1634.00,0.0892
1633.00,0.0897
1632.00,0.0903
1631.00,0.0910
1630.00,0.0915
1629.00,0.0919
1628.00,0.0921
1627.00,0.0923
1626.00,0.0924
1625.00,0.0924
1624.00,0.0920
1623.00,0.0913
1622.00,0.0904
1621.00,0.0896
1620.00,0.0889
1619.00,0.0880
1618.00,0.0866
1617.00,0.0846
1616.00,0.0824
1615.00,0.0805
1614.00,0.0789
1613.00,0.0773
1612.00,0.0756
1611.00,0.0738
1610.00,0.0719
1609.00,0.0701
1608.00,0.0684
1607.00,0.0667
1606.00,0.0652
1605.00,0.0638
1604.00,0.0624
1603.00,0.0612
1602.00,0.0600
1601.00,0.0590
1600.00,0.0580
1599.00,0.0571
1598.00,0.0563
1597.00,0.0555
1596.00,0.0548
1595.00,0.0540
1594.00,0.0534
1593.00,0.0528
1592.00,0.0522
1591.00,0.0516
1590.00,0.0511
1589.00,0.0507
1588.00,0.0503
1587.00,0.0500
1586.00,0.0497
1585.00,0.0495
1584.00,0.0493
1583.00,0.0492
1582.00,0.0491
1581.00,0.0491
1580.00,0.0491
1579.00,0.0493
1578.00,0.0495
1577.00,0.0496
1576.00,0.0498
1575.00,0.0500
1574.00,0.0502
1573.00,0.0506
1572.00,0.0509
1571.00,0.0512
1570.00,0.0517
1569.00,0.0521
1568.00,0.0526
1567.00,0.0531
1566.00,0.0537
1565.00,0.0543
1564.00,0.0549
1563.00,0.0556
1562.00,0.0564
1561.00,0.0571
1560.00,0.0577
1559.00,0.0583
1558.00,0.0591
1557.00,0.0600
1556.00,0.0607
1555.00,0.0615
1554.00,0.0623
1553.00,0.0632
1552.00,0.0640
1551.00,0.0648
1550.00,0.0656
1549.00,0.0665
1548.00,0.0674
1547.00,0.0682
1546.00,0.0690
1545.00,0.0698
1544.00,0.0705
1543.00,0.0712
1542.00,0.0719
1541.00,0.0725
1540.00,0.0731
1539.00,0.0737
1538.00,0.0743
1537.00,0.0750
1536.00,0.0755
1535.00,0.0760
1534.00,0.0763
1533.00,0.0767
1532.00,0.0770
1531.00,0.0775
1530.00,0.0780
1529.00,0.0784
1528.00,0.0786
1527.00,0.0788
1526.00,0.0789
1525.00,0.0792
1524.00,0.0794
1523.00,0.0796
1522.00,0.0797
1521.00,0.0797
1520.00,0.0799
1519.00,0.0801
1518.00,0.0803
1517.00,0.0804
1516.00,0.0804
1515.00,0.0803
1514.00,0.0802
1513.00,0.0798
1512.00,0.0792
1511.00,0.0786
1510.00,0.0780
1509.00,0.0773
1508.00,0.0763
1507.00,0.0749
1506.00,0.0735
1505.00,0.0724
1504.00,0.0717
1503.00,0.0710
1502.00,0.0703
1501.00,0.0695
1500.00,0.0686
1499.00,0.0677
1498.00,0.0667
1497.00,0.0655
1496.00,0.0642
1495.00,0.0631
1494.00,0.0620
1493.00,0.0610
1492.00,0.0598
1491.00,0.0584
1490.00,0.0569
1489.00,0.0554
1488.00,0.0541
1487.00,0.0529
1486.00,0.0518
1485.00,0.0508
1484.00,0.0499
1483.00,0.0491
1482.00,0.0483
1481.00,0.0476
1480.00,0.0470
1479.00,0.0465
1478.00,0.0462
1477.00,0.0460
1476.00,0.0458
1475.00,0.0459
1474.00,0.0460
1473.00,0.0463
1472.00,0.0466
1471.00,0.0471
1470.00,0.0476
1469.00,0.0480
1468.00,0.0484
1467.00,0.0487
1466.00,0.0490
1465.00,0.0493
1464.00,0.0495
1463.00,0.0499
1462.00,0.0503
1461.00,0.0507
1460.00,0.0510
1459.00,0.0513
1458.00,0.0515
1457.00,0.0516
1456.00,0.0517
1455.00,0.0518
1454.00,0.0519
1453.00,0.0520
1452.00,0.0520
1451.00,0.0519
1450.00,0.0519
1449.00,0.0519
1448.00,0.0519
1447.00,0.0519
1446.00,0.0519
1445.00,0.0520
1444.00,0.0521
1443.00,0.0521
1442.00,0.0521
1441.00,0.0521
1440.00,0.0522
1439.00,0.0521
1438.00,0.0519
1437.00,0.0515
1436.00,0.0510
1435.00,0.0506
1434.00,0.0503
1433.00,0.0500
1432.00,0.0496
1431.00,0.0491
1430.00,0.0487
1429.00,0.0484
1428.00,0.0483
1427.00,0.0483
1426.00,0.0483
1425.00,0.0484
1424.00,0.0485
1423.00,0.0487
1422.00,0.0489
1421.00,0.0491
1420.00,0.0491
1419.00,0.0490
1418.00,0.0488
1417.00,0.0487
1416.00,0.0487
1415.00,0.0487
1414.00,0.0487
1413.00,0.0487
1412.00,0.0487
1411.00,0.0487
1410.00,0.0487
1409.00,0.0489
1408.00,0.0490
1407.00,0.0492
1406.00,0.0494
1405.00,0.0495
1404.00,0.0497
1403.00,0.0500
1402.00,0.0502
1401.00,0.0504
1400.00,0.0506
1399.00,0.0507
1398.00,0.0509
1397.00,0.0510
1396.00,0.0511
1395.00,0.0512
1394.00,0.0514
1393.00,0.0515
1392.00,0.0517
1391.00,0.0518
1390.00,0.0520
1389.00,0.0520
1388.00,0.0519
1387.00,0.0518
1386.00,0.0516
1385.00,0.0514
1384.00,0.0512
1383.00,0.0509
1382.00,0.0506
1381.00,0.0502
1380.00,0.0499
1379.00,0.0496
1378.00,0.0493
1377.00,0.0490
1376.00,0.0487
1375.00,0.0484
1374.00,0.0481
1373.00,0.0478
1372.00,0.0476
1371.00,0.0474
1370.00,0.0472
1369.00,0.0469
1368.00,0.0465
1367.00,0.0461
1366.00,0.0456
1365.00,0.0451
1364.00,0.0445
1363.00,0.0439
1362.00,0.0434
1361.00,0.0430
1360.00,0.0427
1359.00,0.0424
1358.00,0.0421
1357.00,0.0418
1356.00,0.0416
1355.00,0.0414
1354.00,0.0412
1353.00,0.0411
1352.00,0.0409
1351.00,0.0408
1350.00,0.0407
1349.00,0.0407
1348.00,0.0406
1347.00,0.0406
1346.00,0.0406
1345.00,0.0405
1344.00,0.0405
1343.00,0.0405
1342.00,0.0405
1341.00,0.0404
1340.00,0.0404
1339.00,0.0403
1338.00,0.0403
1337.00,0.0403
1336.00,0.0403
1335.00,0.0403
1334.00,0.0402
1333.00,0.0402
1332.00,0.0402
1331.00,0.0402
1330.00,0.0402
1329.00,0.0402
1328.00,0.0402
1327.00,0.0402
1326.00,0.0403
1325.00,0.0404
1324.00,0.0405
1323.00,0.0406
1322.00,0.0407
1321.00,0.0409
1320.00,0.0410
1319.00,0.0412
1318.00,0.0413
1317.00,0.0414
1316.00,0.0415
1315.00,0.0416
1314.00,0.0416
1313.00,0.0416
1312.00,0.0416
1311.00,0.0415
1310.00,0.0415
1309.00,0.0415
1308.00,0.0414
1307.00,0.0414
1306.00,0.0413
1305.00,0.0413
1304.00,0.0413
1303.00,0.0413
1302.00,0.0414
1301.00,0.0415
1300.00,0.0416
1299.00,0.0417
1298.00,0.0419
1297.00,0.0422
1296.00,0.0424
1295.00,0.0428
1294.00,0.0432
1293.00,0.0436
1292.00,0.0440
1291.00,0.0445
1290.00,0.0449
1289.00,0.0452
1288.00,0.0455
1287.00,0.0457
1286.00,0.0459
1285.00,0.0460
1284.00,0.0461
1283.00,0.0461
1282.00,0.0460
1281.00,0.0459
1280.00,0.0458
1279.00,0.0457
1278.00,0.0457
1277.00,0.0458
1276.00,0.0458
1275.00,0.0459
1274.00,0.0460
1273.00,0.0461
1272.00,0.0462
1271.00,0.0463
1270.00,0.0464
1269.00,0.0464
1268.00,0.0464
1267.00,0.0465
1266.00,0.0465
1265.00,0.0465
1264.00,0.0465
1263.00,0.0465
1262.00,0.0466
1261.00,0.0466
1260.00,0.0467
1259.00,0.0467
1258.00,0.0468
1257.00,0.0470
1256.00,0.0471
1255.00,0.0473
1254.00,0.0476
1253.00,0.0479
1252.00,0.0481
1251.00,0.0484
1250.00,0.0487
1249.00,0.0490
1248.00,0.0493
1247.00,0.0496
1246.00,0.0499
1245.00,0.0502
1244.00,0.0505
1243.00,0.0507
1242.00,0.0510
1241.00,0.0513
1240.00,0.0516
1239.00,0.0519
1238.00,0.0522
1237.00,0.0524
1236.00,0.0526
1235.00,0.0528
1234.00,0.0529
1233.00,0.0531
1232.00,0.0532
1231.00,0.0533
1230.00,0.0533
1229.00,0.0533
1228.00,0.0532
1227.00,0.0530
1226.00,0.0529
1225.00,0.0527
1224.00,0.0525
1223.00,0.0522
1222.00,0.0520
1221.00,0.0517
1220.00,0.0513
1219.00,0.0510
1218.00,0.0506
1217.00,0.0502
1216.00,0.0498
1215.00,0.0493
1214.00,0.0488
1213.00,0.0482
1212.00,0.0477
1211.00,0.0471
1210.00,0.0466
1209.00,0.0460
1208.00,0.0455
1207.00,0.0449
1206.00,0.0444
1205.00,0.0439
1204.00,0.0434
1203.00,0.0429
1202.00,0.0424
1201.00,0.0419
1200.00,0.0414
1199.00,0.0410
1198.00,0.0405
1197.00,0.0401
1196.00,0.0397
1195.00,0.0393
1194.00,0.0389
1193.00,0.0386
1192.00,0.0383
1191.00,0.0380
1190.00,0.0377
1189.00,0.0375
1188.00,0.0372
1187.00,0.0370
1186.00,0.0368
1185.00,0.0367
1184.00,0.0365
1183.00,0.0365
1182.00,0.0364
1181.00,0.0365
1180.00,0.0365
1179.00,0.0366
1178.00,0.0367
1177.00,0.0369
1176.00,0.0371
1175.00,0.0374
1174.00,0.0378
1173.00,0.0381
1172.00,0.0384
1171.00,0.0387
1170.00,0.0389
1169.00,0.0392
1168.00,0.0394
1167.00,0.0397
1166.00,0.0399
1165.00,0.0402
1164.00,0.0405
1163.00,0.0408
1162.00,0.0411
1161.00,0.0414
1160.00,0.0416
1159.00,0.0418
1158.00,0.0420
1157.00,0.0421
1156.00,0.0422
1155.00,0.0422
1154.00,0.0421
1153.00,0.0420
1152.00,0.0418
1151.00,0.0416
1150.00,0.0414
1149.00,0.0411
1148.00,0.0408
1147.00,0.0405
1146.00,0.0403
1145.00,0.0400
1144.00,0.0397
1143.00,0.0394
1142.00,0.0392
1141.00,0.0390
1140.00,0.0388
1139.00,0.0386
1138.00,0.0385
1137.00,0.0385
1136.00,0.0385
1135.00,0.0385
1134.00,0.0386
1133.00,0.0387
1132.00,0.0388
1131.00,0.0389
1130.00,0.0391
1129.00,0.0393
1128.00,0.0395
1127.00,0.0396
1126.00,0.0397
1125.00,0.0399
1124.00,0.0400
1123.00,0.0401
1122.00,0.0403
1121.00,0.0404
1120.00,0.0406
1119.00,0.0408
1118.00,0.0410
1117.00,0.0412
1116.00,0.0414
1115.00,0.0416
1114.00,0.0419
1113.00,0.0422
1112.00,0.0424
1111.00,0.0427
1110.00,0.0430
1109.00,0.0432
1108.00,0.0435
1107.00,0.0437
1106.00,0.0440
1105.00,0.0443
1104.00,0.0445
1103.00,0.0447
1102.00,0.0449
1101.00,0.0451
1100.00,0.0452
1099.00,0.0454
1098.00,0.0456
1097.00,0.0458
1096.00,0.0460
1095.00,0.0463
1094.00,0.0466
1093.00,0.0469
1092.00,0.0472
1091.00,0.0476
1090.00,0.0481
1089.00,0.0486
1088.00,0.0490
1087.00,0.0495
1086.00,0.0500
1085.00,0.0504
1084.00,0.0508
1083.00,0.0512
1082.00,0.0515
1081.00,0.0518
1080.00,0.0519
1079.00,0.0520
1078.00,0.0520
1077.00,0.0520
1076.00,0.0518
1075.00,0.0517
1074.00,0.0516
1073.00,0.0514
1072.00,0.0512
1071.00,0.0510
1070.00,0.0508
1069.00,0.0507
1068.00,0.0506
1067.00,0.0506
1066.00,0.0506
1065.00,0.0507
1064.00,0.0508
1063.00,0.0510
1062.00,0.0512
1061.00,0.0514
1060.00,0.0515
1059.00,0.0517
1058.00,0.0519
1057.00,0.0520
1056.00,0.0521
1055.00,0.0522
1054.00,0.0524
1053.00,0.0525
1052.00,0.0525
1051.00,0.0525
1050.00,0.0526
1049.00,0.0526
1048.00,0.0526
1047.00,0.0525
1046.00,0.0526
1045.00,0.0526
1044.00,0.0525
1043.00,0.0524
1042.00,0.0524
1041.00,0.0523
1040.00,0.0523
1039.00,0.0523
1038.00,0.0523
1037.00,0.0523
1036.00,0.0524
1035.00,0.0524
1034.00,0.0525
1033.00,0.0526
1032.00,0.0527
1031.00,0.0527
1030.00,0.0528
1029.00,0.0528
1028.00,0.0528
1027.00,0.0527
1026.00,0.0527
1025.00,0.0527
1024.00,0.0526
1023.00,0.0524
1022.00,0.0523
1021.00,0.0520
1020.00,0.0517
1019.00,0.0513
1018.00,0.0510
1017.00,0.0506
1016.00,0.0502
1015.00,0.0497
1014.00,0.0492
1013.00,0.0487
1012.00,0.0482
1011.00,0.0478
1010.00,0.0474
1009.00,0.0469
1008.00,0.0465
1007.00,0.0461
1006.00,0.0457
1005.00,0.0454
1004.00,0.0450
1003.00,0.0447
1002.00,0.0443
1001.00,0.0440
1000.00,0.0436
999.00,0.0432
998.00,0.0427
997.00,0.0422
996.00,0.0417
995.00,0.0412
994.00,0.0407
993.00,0.0402
992.00,0.0397
991.00,0.0392
990.00,0.0387
989.00,0.0382
988.00,0.0377
987.00,0.0372
986.00,0.0367
985.00,0.0363
984.00,0.0359
983.00,0.0355
982.00,0.0352
981.00,0.0349
980.00,0.0347
979.00,0.0345
978.00,0.0344
977.00,0.0343
976.00,0.0342
975.00,0.0341
974.00,0.0342
973.00,0.0342
972.00,0.0342
971.00,0.0342
970.00,0.0343
969.00,0.0343
968.00,0.0344
967.00,0.0344
966.00,0.0345
965.00,0.0346
964.00,0.0346
963.00,0.0347
962.00,0.0348
961.00,0.0348
960.00,0.0349
959.00,0.0349
958.00,0.0350
957.00,0.0350
956.00,0.0350
955.00,0.0348
954.00,0.0346
953.00,0.0344
952.00,0.0341
951.00,0.0339
950.00,0.0337
949.00,0.0334
948.00,0.0331
947.00,0.0329
946.00,0.0327
945.00,0.0326
944.00,0.0326
943.00,0.0326
942.00,0.0326
941.00,0.0327
940.00,0.0328
939.00,0.0329
938.00,0.0331
937.00,0.0332
936.00,0.0333
935.00,0.0334
934.00,0.0335
933.00,0.0335
932.00,0.0335
931.00,0.0335
930.00,0.0334
929.00,0.0334
928.00,0.0332
927.00,0.0331
926.00,0.0330
925.00,0.0329
924.00,0.0328
923.00,0.0326
922.00,0.0325
921.00,0.0323
920.00,0.0322
919.00,0.0320
918.00,0.0319
917.00,0.0318
916.00,0.0317
915.00,0.0315
914.00,0.0314
913.00,0.0312
912.00,0.0309
911.00,0.0307
910.00,0.0306
909.00,0.0305
908.00,0.0304
907.00,0.0303
906.00,0.0303
905.00,0.0302
904.00,0.0302
903.00,0.0301
902.00,0.0301
901.00,0.0302
900.00,0.0301
899.00,0.0302
898.00,0.0302
897.00,0.0303
896.00,0.0303
895.00,0.0303
894.00,0.0303
893.00,0.0303
892.00,0.0303
891.00,0.0303
890.00,0.0303
889.00,0.0303
888.00,0.0302
887.00,0.0301
886.00,0.0301
885.00,0.0300
884.00,0.0300
883.00,0.0300
882.00,0.0300
881.00,0.0300
880.00,0.0299
879.00,0.0298
878.00,0.0298
877.00,0.0298
876.00,0.0297
875.00,0.0297
874.00,0.0298
873.00,0.0299
872.00,0.0299
871.00,0.0299
870.00,0.0299
869.00,0.0300
868.00,0.0300
867.00,0.0301
866.00,0.0302
865.00,0.0303
864.00,0.0304
863.00,0.0305
862.00,0.0306
861.00,0.0307
860.00,0.0308
859.00,0.0310
858.00,0.0312
857.00,0.0314
856.00,0.0316
855.00,0.0318
854.00,0.0320
853.00,0.0322
852.00,0.0323
851.00,0.0324
850.00,0.0325
849.00,0.0327
848.00,0.0327
847.00,0.0328
846.00,0.0330
845.00,0.0331
844.00,0.0331
843.00,0.0332
842.00,0.0333
841.00,0.0334
840.00,0.0335
839.00,0.0336
838.00,0.0338
837.00,0.0339
836.00,0.0340
835.00,0.0342
834.00,0.0343
833.00,0.0345
832.00,0.0346
831.00,0.0347
830.00,0.0348
829.00,0.0349
828.00,0.0349
827.00,0.0349
826.00,0.0349
825.00,0.0349
824.00,0.0348
823.00,0.0349
822.00,0.0351
821.00,0.0353
820.00,0.0354
819.00,0.0355
818.00,0.0355
817.00,0.0355
816.00,0.0355
815.00,0.0355
814.00,0.0356
813.00,0.0357
812.00,0.0356
811.00,0.0356
810.00,0.0357
809.00,0.0357
808.00,0.0358
807.00,0.0359
806.00,0.0361
805.00,0.0362
804.00,0.0363
803.00,0.0364
802.00,0.0367
801.00,0.0369
800.00,0.0370
799.00,0.0372
798.00,0.0374
797.00,0.0376
796.00,0.0377
795.00,0.0379
794.00,0.0382
793.00,0.0384
792.00,0.0387
791.00,0.0390
790.00,0.0393
789.00,0.0396
788.00,0.0399
787.00,0.0402
786.00,0.0405
785.00,0.0408
784.00,0.0411
783.00,0.0414
782.00,0.0417
781.00,0.0419
780.00,0.0420
779.00,0.0422
778.00,0.0424
777.00,0.0424
776.00,0.0424
775.00,0.0424
774.00,0.0424
773.00,0.0425
772.00,0.0426
771.00,0.0427
770.00,0.0428
769.00,0.0429
768.00,0.0431
767.00,0.0432
766.00,0.0435
765.00,0.0437
764.00,0.0438
763.00,0.0439
762.00,0.0441
761.00,0.0443
760.00,0.0445
759.00,0.0447
758.00,0.0449
757.00,0.0451
756.00,0.0453
755.00,0.0455
754.00,0.0457
753.00,0.0460
752.00,0.0462
751.00,0.0464
750.00,0.0468
749.00,0.0470
748.00,0.0473
747.00,0.0475
746.00,0.0478
745.00,0.0481
744.00,0.0482
743.00,0.0484
742.00,0.0486
741.00,0.0488
740.00,0.0490
739.00,0.0491
738.00,0.0493
737.00,0.0495
736.00,0.0496
735.00,0.0497
734.00,0.0499
733.00,0.0501
732.00,0.0502
731.00,0.0503
730.00,0.0506
729.00,0.0508
728.00,0.0511
727.00,0.0514
726.00,0.0517
725.00,0.0520
724.00,0.0522
723.00,0.0525
722.00,0.0528
721.00,0.0532
720.00,0.0535
719.00,0.0539
718.00,0.0543
717.00,0.0547
716.00,0.0550
715.00,0.0553
714.00,0.0556
713.00,0.0560
712.00,0.0563
711.00,0.0567
710.00,0.0572
709.00,0.0577
708.00,0.0582
707.00,0.0587
706.00,0.0592
705.00,0.0597
704.00,0.0602
703.00,0.0606
702.00,0.0611
701.00,0.0616
700.00,0.0619
699.00,0.0621
698.00,0.0623
697.00,0.0624
696.00,0.0624
695.00,0.0625
694.00,0.0626
693.00,0.0626
692.00,0.0626
691.00,0.0626
690.00,0.0627
689.00,0.0628
688.00,0.0629
687.00,0.0630
686.00,0.0633
685.00,0.0635
684.00,0.0636
683.00,0.0637
682.00,0.0639
681.00,0.0642
680.00,0.0643
679.00,0.0645
678.00,0.0648
677.00,0.0649
676.00,0.0650
675.00,0.0651
674.00,0.0653
673.00,0.0656
672.00,0.0658
671.00,0.0661
670.00,0.0665
669.00,0.0670
668.00,0.0674
667.00,0.0678
666.00,0.0680
665.00,0.0681
664.00,0.0682
663.00,0.0683
662.00,0.0686
661.00,0.0689
660.00,0.0691
659.00,0.0693
658.00,0.0695
657.00,0.0697
656.00,0.0698
655.00,0.0700
654.00,0.0703
653.00,0.0707
652.00,0.0709
651.00,0.0711
650.00,0.0713
649.00,0.0714
648.00,0.0714
647.00,0.0715
646.00,0.0717
645.00,0.0719
644.00,0.0720
643.00,0.0721
642.00,0.0721
641.00,0.0721
640.00,0.0721
639.00,0.0720
638.00,0.0721
637.00,0.0722
636.00,0.0722
635.00,0.0722
634.00,0.0724
633.00,0.0726
632.00,0.0727
631.00,0.0728
630.00,0.0730
629.00,0.0731
628.00,0.0732
627.00,0.0733
626.00,0.0736
625.00,0.0738
624.00,0.0739
623.00,0.0741
622.00,0.0743
621.00,0.0745
620.00,0.0745
619.00,0.0746
618.00,0.0748
617.00,0.0750
616.00,0.0751
615.00,0.0751
614.00,0.0753
613.00,0.0754
612.00,0.0755
611.00,0.0755
610.00,0.0758
609.00,0.0759
608.00,0.0760
607.00,0.0761
606.00,0.0763
605.00,0.0763
604.00,0.0763
603.00,0.0763
602.00,0.0766
601.00,0.0768
600.00,0.0769
599.00,0.0769
598.00,0.0771
597.00,0.0774
596.00,0.0776
595.00,0.0778
594.00,0.0780
593.00,0.0782
592.00,0.0783
591.00,0.0785
590.00,0.0788
589.00,0.0792
588.00,0.0795
587.00,0.0797
586.00,0.0801
585.00,0.0804
584.00,0.0806
583.00,0.0808
582.00,0.0811
581.00,0.0813
580.00,0.0815
579.00,0.0818
578.00,0.0822
577.00,0.0825
576.00,0.0826
575.00,0.0826
574.00,0.0828
573.00,0.0830
572.00,0.0831
571.00,0.0831
570.00,0.0832
569.00,0.0834
568.00,0.0833
567.00,0.0833
566.00,0.0834
565.00,0.0835
564.00,0.0835
563.00,0.0836
562.00,0.0838
561.00,0.0839
560.00,0.0839
559.00,0.0839
558.00,0.0840
557.00,0.0842
556.00,0.0843
555.00,0.0843
554.00,0.0845
553.00,0.0846
552.00,0.0847
551.00,0.0848
550.00,0.0851
549.00,0.0853
548.00,0.0853
547.00,0.0853
546.00,0.0854
545.00,0.0856
544.00,0.0856
543.00,0.0857
542.00,0.0860
541.00,0.0862
540.00,0.0862
539.00,0.0862
538.00,0.0864
537.00,0.0866
536.00,0.0866
535.00,0.0867
534.00,0.0871
533.00,0.0874
532.00,0.0876
531.00,0.0876
530.00,0.0878
529.00,0.0880
528.00,0.0880
527.00,0.0881
526.00,0.0883
525.00,0.0884
524.00,0.0883
523.00,0.0881
522.00,0.0882
521.00,0.0883
520.00,0.0881
519.00,0.0879
518.00,0.0879
517.00,0.0880
516.00,0.0878
515.00,0.0878
514.00,0.0879
513.00,0.0880
512.00,0.0878
511.00,0.0876
510.00,0.0877
509.00,0.0877
508.00,0.0876
507.00,0.0875
506.00,0.0875
505.00,0.0874
504.00,0.0871
503.00,0.0870
502.00,0.0871
501.00,0.0872
500.00,0.0871
499.00,0.0871
498.00,0.0874
497.00,0.0876
496.00,0.0877
495.00,0.0876
494.00,0.0876
493.00,0.0876
492.00,0.0876
491.00,0.0877
490.00,0.0880
489.00,0.0881
488.00,0.0877
487.00,0.0873
486.00,0.0872
485.00,0.0872
484.00,0.0870
483.00,0.0870
482.00,0.0872
481.00,0.0872
480.00,0.0870
479.00,0.0868
478.00,0.0870
477.00,0.0872
476.00,0.0870
475.00,0.0869
474.00,0.0871
473.00,0.0871
472.00,0.0868
471.00,0.0865
470.00,0.0867
469.00,0.0868
468.00,0.0866
467.00,0.0866
466.00,0.0870
465.00,0.0872
464.00,0.0868
463.00,0.0864
462.00,0.0865
461.00,0.0866
460.00,0.0864
459.00,0.0862
458.00,0.0862
457.00,0.0860
456.00,0.0854
455.00,0.0850
454.00,0.0851
453.00,0.0850
452.00,0.0845
451.00,0.0842
450.00,0.0843
449.00,0.0844
448.00,0.0842
447.00,0.0840
446.00,0.0841
445.00,0.0841
444.00,0.0835
443.00,0.0833
442.00,0.0837
441.00,0.0841
440.00,0.0838
439.00,0.0835
438.00,0.0835
437.00,0.0836
436.00,0.0834
435.00,0.0832
434.00,0.0834
433.00,0.0835
432.00,0.0830
431.00,0.0828
430.00,0.0832
429.00,0.0836
428.00,0.0833
427.00,0.0829
426.00,0.0830
425.00,0.0829
424.00,0.0821
423.00,0.0816
422.00,0.0820
421.00,0.0824
420.00,0.0819
419.00,0.0814
418.00,0.0818
417.00,0.0821
416.00,0.0815
415.00,0.0811
414.00,0.0817
413.00,0.0822
412.00,0.0816
411.00,0.0807
410.00,0.0804
409.00,0.0799
408.00,0.0785
407.00,0.0779
406.00,0.0790
405.00,0.0799
404.00,0.0793
403.00,0.0788
402.00,0.0799
401.00,0.0811
400.00,0.0806
